onset	duration	sample	value	key	prompt_text
7.4025	12.3695	14805	prompt	n/a	the quick brown fox jumps over a lazy dog\n
10.0815	0	20163	keystroke_t	t	n/a
10.0815	0.072	20163	keystroke_h	h	n/a
10.1235	0.09	20247	keystroke_e	e	n/a
10.2885	0.135	20577	keystroke_Key.space	Key.space	n/a
10.4685	0.105	20937	keystroke_q	q	n/a
10.6485	0.105	21297	keystroke_u	u	n/a
10.8135	0.09	21627	keystroke_i	i	n/a
10.9935	0.075	21987	keystroke_c	c	n/a
11.0845	0.104	22169	keystroke_k	k	n/a
11.2335	0.12	22467	keystroke_Key.space	Key.space	n/a
12.4035	0.09	24807	keystroke_b	b	n/a
12.5835	0.075	25167	keystroke_r	r	n/a
12.7035	0.09	25407	keystroke_o	o	n/a
12.8385	0.076	25677	keystroke_w	w	n/a
12.9445	0.074	25889	keystroke_n	n	n/a
13.3335	0.105	26667	keystroke_Key.space	Key.space	n/a
13.5585	0.075	27117	keystroke_f	f	n/a
13.6785	0.06	27357	keystroke_o	o	n/a
13.7835	0.075	27567	keystroke_x	x	n/a
13.9485	0.105	27897	keystroke_Key.space	Key.space	n/a
14.2335	0.06	28467	keystroke_j	j	n/a
14.4135	0.075	28827	keystroke_u	u	n/a
14.6385	0.135	29277	keystroke_m	m	n/a
14.8635	0.105	29727	keystroke_p	p	n/a
15.0135	0.075	30027	keystroke_s	s	n/a
15.1485	0.12	30297	keystroke_Key.space	Key.space	n/a
15.3585	0.075	30717	keystroke_o	o	n/a
15.449	0.075	30898	keystroke_v	v	n/a
15.614	0.09	31228	keystroke_e	e	n/a
15.674	0.105	31348	keystroke_r	r	n/a
15.928	0.09	31856	keystroke_Key.space	Key.space	n/a
16.259	0.12	32518	keystroke_a	a	n/a
16.5285	0.12	33057	keystroke_Key.space	Key.space	n/a
16.9035	0.075	33807	keystroke_l	l	n/a
17.0985	0.061	34197	keystroke_a	a	n/a
17.3085	0.061	34617	keystroke_z	z	n/a
17.4445	0.075	34889	keystroke_y	y	n/a
17.7285	0.135	35457	keystroke_Key.space	Key.space	n/a
18.3735	0.075	36747	keystroke_d	d	n/a
18.5095	0.075	37019	keystroke_o	o	n/a
18.6445	0.074	37289	keystroke_g	g	n/a
19.6345	0.1345	39269	keystroke_Key.enter	Key.enter	n/a
19.779	9.592	39558	prompt	n/a	magazine tulsa context paxil\n
21.479	0.075	42958	keystroke_m	m	n/a
21.599	0.135	43198	keystroke_a	a	n/a
22.1395	0.075	44279	keystroke_g	g	n/a
22.2745	0.12	44549	keystroke_a	a	n/a
22.5295	0.09	45059	keystroke_z	z	n/a
22.7685	0.061	45537	keystroke_i	i	n/a
23.0095	0.06	46019	keystroke_n	n	n/a
23.0245	0.06	46049	keystroke_e	e	n/a
23.2785	0.105	46557	keystroke_Key.space	Key.space	n/a
23.9845	0.075	47969	keystroke_t	t	n/a
24.1945	0.06	48389	keystroke_u	u	n/a
24.4045	0.075	48809	keystroke_l	l	n/a
24.5095	0.12	49019	keystroke_s	s	n/a
24.6145	0.135	49229	keystroke_a	a	n/a
24.9135	0.105	49827	keystroke_Key.space	Key.space	n/a
25.6645	0.089	51329	keystroke_c	c	n/a
25.8285	0.105	51657	keystroke_o	o	n/a
25.9785	0.106	51957	keystroke_n	n	n/a
26.1885	0.046	52377	keystroke_t	t	n/a
26.3695	0.044	52739	keystroke_e	e	n/a
26.7145	0.075	53429	keystroke_x	x	n/a
26.9835	0.075	53967	keystroke_t	t	n/a
27.4045	0.12	54809	keystroke_Key.space	Key.space	n/a
27.9595	0.09	55919	keystroke_p	p	n/a
28.0645	0.135	56129	keystroke_a	a	n/a
28.2895	0.075	56579	keystroke_x	x	n/a
28.4845	0.06	56969	keystroke_i	i	n/a
28.6645	0.06	57329	keystroke_l	l	n/a
29.2645	0.104	58529	keystroke_Key.enter	Key.enter	n/a
29.3765	9.8515	58753	prompt	n/a	markers mounts somewhat perfectly\n
30.6595	0.09	61319	keystroke_m	m	n/a
30.7795	0.15	61559	keystroke_a	a	n/a
30.8695	0.105	61739	keystroke_r	r	n/a
31.0795	0.06	62159	keystroke_k	k	n/a
31.1545	0.1045	62309	keystroke_e	e	n/a
31.2445	0.09	62489	keystroke_r	r	n/a
31.4395	0.09	62879	keystroke_s	s	n/a
31.574	0.0905	63148	keystroke_Key.space	Key.space	n/a
32.0095	0.09	64019	keystroke_o	o	n/a
32.819	0.075	65638	keystroke_Key.backspace	Key.backspace	n/a
33.644	0.0905	67288	keystroke_m	m	n/a
33.929	0.075	67858	keystroke_o	o	n/a
34.199	0.06	68398	keystroke_u	u	n/a
34.439	0.075	68878	keystroke_n	n	n/a
34.604	0.075	69208	keystroke_t	t	n/a
34.859	0.075	69718	keystroke_s	s	n/a
35.084	0.105	70168	keystroke_Key.space	Key.space	n/a
35.339	0.09	70678	keystroke_s	s	n/a
35.43	0.089	70860	keystroke_o	o	n/a
35.654	0.105	71308	keystroke_m	m	n/a
35.714	0.105	71428	keystroke_e	e	n/a
35.999	0.105	71998	keystroke_w	w	n/a
36.119	0.06	72238	keystroke_h	h	n/a
36.239	0.15	72478	keystroke_a	a	n/a
36.344	0.105	72688	keystroke_t	t	n/a
36.599	0.075	73198	keystroke_Key.space	Key.space	n/a
36.839	0.09	73678	keystroke_p	p	n/a
36.914	0.105	73828	keystroke_e	e	n/a
36.989	0.105	73978	keystroke_r	r	n/a
37.244	0.09	74488	keystroke_f	f	n/a
37.439	0.075	74878	keystroke_e	e	n/a
37.619	0.09	75238	keystroke_c	c	n/a
37.844	0.075	75688	keystroke_t	t	n/a
38.024	0.12	76048	keystroke_l	l	n/a
38.219	0.075	76438	keystroke_y	y	n/a
39.104	0.12	78208	keystroke_Key.enter	Key.enter	n/a
39.234	9.7875	78468	prompt	n/a	basics agricultural partly factor\n
40.499	0.075	80998	keystroke_b	b	n/a
40.619	0.135	81238	keystroke_a	a	n/a
40.769	0.12	81538	keystroke_s	s	n/a
40.904	0.06	81808	keystroke_i	i	n/a
40.979	0.12	81958	keystroke_c	c	n/a
41.099	0.105	82198	keystroke_a	a	n/a
41.204	0.06	82408	keystroke_l	l	n/a
41.369	0.105	82738	keystroke_l	l	n/a
41.519	0.075	83038	keystroke_y	y	n/a
41.669	0.12	83338	keystroke_Key.space	Key.space	n/a
42.074	0.166	84148	keystroke_a	a	n/a
42.284	0.0755	84568	keystroke_g	g	n/a
42.5085	0.0905	85017	keystroke_r	r	n/a
43.1985	0.06	86397	keystroke_i	i	n/a
43.5435	0.09	87087	keystroke_c	c	n/a
44.055	0.0735	88110	keystroke_u	u	n/a
44.2785	0.1205	88557	keystroke_l	l	n/a
44.4585	0.06	88917	keystroke_t	t	n/a
44.6085	0.06	89217	keystroke_u	u	n/a
44.684	0.0745	89368	keystroke_r	r	n/a
44.8035	0.12	89607	keystroke_a	a	n/a
44.9385	0.09	89877	keystroke_l	l	n/a
45.1635	0.15	90327	keystroke_Key.space	Key.space	n/a
45.8845	0.134	91769	keystroke_p	p	n/a
46.0035	0.1655	92007	keystroke_a	a	n/a
46.1235	0.105	92247	keystroke_r	r	n/a
46.3335	0.075	92667	keystroke_t	t	n/a
46.4385	0.105	92877	keystroke_y	y	n/a
46.6185	0.135	93237	keystroke_Key.space	Key.space	n/a
47.219	0.1055	94438	keystroke_f	f	n/a
47.4295	0.1795	94859	keystroke_a	a	n/a
47.5045	0.1195	95009	keystroke_c	c	n/a
47.774	0.045	95548	keystroke_t	t	n/a
47.8945	0.0745	95789	keystroke_o	o	n/a
48.0295	0.0745	96059	keystroke_r	r	n/a
48.914	0.105	97828	keystroke_Key.enter	Key.enter	n/a
49.028	13.4185	98056	prompt	n/a	eligible privileges parameter dock\n
50.609	0.075	101218	keystroke_e	e	n/a
50.774	0.09	101548	keystroke_l	l	n/a
50.939	0.09	101878	keystroke_i	i	n/a
51.134	0.075	102268	keystroke_g	g	n/a
51.359	0.075	102718	keystroke_i	i	n/a
51.569	0.0605	103138	keystroke_b	b	n/a
51.749	0.09	103498	keystroke_l	l	n/a
51.794	0.075	103588	keystroke_e	e	n/a
52.424	0.105	104848	keystroke_Key.space	Key.space	n/a
52.934	0.105	105868	keystroke_p	p	n/a
53.054	0.06	106108	keystroke_r	r	n/a
53.159	0.075	106318	keystroke_i	i	n/a
53.384	0.045	106768	keystroke_v	v	n/a
54.314	0.075	108628	keystroke_i	i	n/a
54.929	0.09	109858	keystroke_l	l	n/a
55.154	0.06	110308	keystroke_e	e	n/a
55.334	0.09	110668	keystroke_d	d	n/a
55.499	0.12	110998	keystroke_g	g	n/a
55.6495	0.0895	111299	keystroke_e	e	n/a
57.359	0.075	114718	keystroke_Key.backspace	Key.backspace	n/a
57.539	0.06	115078	keystroke_Key.backspace	Key.backspace	n/a
57.689	0.075	115378	keystroke_Key.backspace	Key.backspace	n/a
58.064	0.075	116128	keystroke_g	g	n/a
58.229	0.075	116458	keystroke_e	e	n/a
59.054	0.09	118108	keystroke_s	s	n/a
59.249	0.105	118498	keystroke_Key.space	Key.space	n/a
59.594	0.105	119188	keystroke_p	p	n/a
59.714	0.12	119428	keystroke_a	a	n/a
59.819	0.09	119638	keystroke_r	r	n/a
59.954	0.09	119908	keystroke_a	a	n/a
60.269	0.075	120538	keystroke_m	m	n/a
60.629	0.045	121258	keystroke_e	e	n/a
60.839	0.075	121678	keystroke_t	t	n/a
60.989	0.105	121978	keystroke_e	e	n/a
61.064	0.106	122128	keystroke_r	r	n/a
61.259	0.12	122518	keystroke_Key.space	Key.space	n/a
61.424	0.105	122848	keystroke_d	d	n/a
61.544	0.105	123088	keystroke_o	o	n/a
61.709	0.075	123418	keystroke_c	c	n/a
61.844	0.09	123688	keystroke_k	k	n/a
62.339	0.105	124678	keystroke_Key.enter	Key.enter	n/a
62.4535	8.8735	124907	prompt	n/a	stan elephant salaries referral\n
63.014	0.075	126028	keystroke_s	s	n/a
63.194	0.09	126388	keystroke_t	t	n/a
63.374	0.105	126748	keystroke_a	a	n/a
63.494	0.075	126988	keystroke_n	n	n/a
63.689	0.105	127378	keystroke_Key.space	Key.space	n/a
64.079	0.09	128158	keystroke_e	e	n/a
64.334	0.09	128668	keystroke_l	l	n/a
64.439	0.09	128878	keystroke_e	e	n/a
65.864	0.135	131728	keystroke_p	p	n/a
66.149	0.06	132298	keystroke_h	h	n/a
66.314	0.135	132628	keystroke_a	a	n/a
66.434	0.075	132868	keystroke_n	n	n/a
66.554	0.075	133108	keystroke_t	t	n/a
66.929	0.105	133858	keystroke_Key.space	Key.space	n/a
67.2585	0.0905	134517	keystroke_s	s	n/a
67.5135	0.1055	135027	keystroke_a	a	n/a
67.634	0.0895	135268	keystroke_l	l	n/a
67.7845	0.149	135569	keystroke_a	a	n/a
67.9035	0.075	135807	keystroke_r	r	n/a
68.219	0.0595	136438	keystroke_i	i	n/a
68.3085	0.0605	136617	keystroke_e	e	n/a
68.474	0.0895	136948	keystroke_s	s	n/a
68.6535	0.09	137307	keystroke_Key.space	Key.space	n/a
68.7735	0.105	137547	keystroke_r	r	n/a
68.8635	0.105	137727	keystroke_e	e	n/a
69.1485	0.045	138297	keystroke_f	f	n/a
69.2685	0.045	138537	keystroke_e	e	n/a
70.1235	0.06	140247	keystroke_r	r	n/a
70.2885	0.075	140577	keystroke_r	r	n/a
70.4835	0.105	140967	keystroke_a	a	n/a
70.6035	0.075	141207	keystroke_l	l	n/a
71.2035	0.12	142407	keystroke_Key.enter	Key.enter	n/a
71.3355	14.21	142671	prompt	n/a	competition ecology moms processors\n
72.0285	0.09	144057	keystroke_c	c	n/a
72.1635	0.09	144327	keystroke_o	o	n/a
72.3585	0.12	144717	keystroke_m	m	n/a
72.5535	0.105	145107	keystroke_p	p	n/a
72.6735	0.075	145347	keystroke_e	e	n/a
72.8535	0.09	145707	keystroke_t	t	n/a
72.9595	0.059	145919	keystroke_i	i	n/a
73.1085	0.075	146217	keystroke_t	t	n/a
73.1685	0.106	146337	keystroke_i	i	n/a
73.2745	0.119	146549	keystroke_o	o	n/a
73.3485	0.135	146697	keystroke_n	n	n/a
73.7235	0.12	147447	keystroke_Key.space	Key.space	n/a
74.0085	0.045	148017	keystroke_c	c	n/a
74.819	0.075	149638	keystroke_Key.backspace	Key.backspace	n/a
75.029	0.075	150058	keystroke_e	e	n/a
75.254	0.09	150508	keystroke_c	c	n/a
75.389	0.075	150778	keystroke_o	o	n/a
75.839	0.09	151678	keystroke_n	n	n/a
75.944	0.075	151888	keystroke_o	o	n/a
76.154	0.09	152308	keystroke_l	l	n/a
76.424	0.015	152848	keystroke_o	o	n/a
76.454	0.075	152908	keystroke_g	g	n/a
76.559	0.075	153118	keystroke_y	y	n/a
77.354	0.06	154708	keystroke_Key.backspace	Key.backspace	n/a
77.549	0.06	155098	keystroke_Key.backspace	Key.backspace	n/a
77.744	0.045	155488	keystroke_Key.backspace	Key.backspace	n/a
77.879	0.09	155758	keystroke_Key.backspace	Key.backspace	n/a
78.059	0.09	156118	keystroke_Key.backspace	Key.backspace	n/a
78.239	0.075	156478	keystroke_Key.backspace	Key.backspace	n/a
78.389	0.075	156778	keystroke_Key.backspace	Key.backspace	n/a
79.154	0.075	158308	keystroke_o	o	n/a
79.379	0.075	158758	keystroke_l	l	n/a
79.544	0.105	159088	keystroke_o	o	n/a
79.754	0.075	159508	keystroke_g	g	n/a
79.859	0.075	159718	keystroke_y	y	n/a
80.474	0.09	160948	keystroke_Key.space	Key.space	n/a
80.759	0.075	161518	keystroke_m	m	n/a
82.364	0.105	164728	keystroke_o	o	n/a
82.6335	0.0755	165267	keystroke_m	m	n/a
82.829	0.105	165658	keystroke_s	s	n/a
83.1885	0.12	166377	keystroke_Key.space	Key.space	n/a
83.5035	0.1205	167007	keystroke_p	p	n/a
83.6385	0.075	167277	keystroke_r	r	n/a
83.759	0.0745	167518	keystroke_o	o	n/a
83.909	0.1495	167818	keystroke_c	c	n/a
84.0435	0.075	168087	keystroke_e	e	n/a
84.2685	0.06	168537	keystroke_s	s	n/a
84.4185	0.09	168837	keystroke_s	s	n/a
84.6135	0.075	169227	keystroke_o	o	n/a
84.7185	0.075	169437	keystroke_r	r	n/a
84.899	0.1045	169798	keystroke_s	s	n/a
85.4535	0.09	170907	keystroke_Key.enter	Key.enter	n/a
85.5535	7.883	171107	prompt	n/a	important processors journals nights\n
86.2635	0.06	172527	keystroke_i	i	n/a
86.4435	0.12	172887	keystroke_m	m	n/a
86.6235	0.12	173247	keystroke_p	p	n/a
86.8485	0.06	173697	keystroke_o	o	n/a
86.9685	0.075	173937	keystroke_r	r	n/a
87.2235	0.075	174447	keystroke_t	t	n/a
87.4185	0.12	174837	keystroke_a	a	n/a
87.5685	0.045	175137	keystroke_n	n	n/a
87.6735	0.075	175347	keystroke_t	t	n/a
87.9885	0.12	175977	keystroke_Key.space	Key.space	n/a
88.2435	0.135	176487	keystroke_p	p	n/a
88.3935	0.075	176787	keystroke_r	r	n/a
88.5585	0.075	177117	keystroke_o	o	n/a
88.6935	0.135	177387	keystroke_c	c	n/a
88.8885	0.09	177777	keystroke_e	e	n/a
89.114	0.09	178228	keystroke_s	s	n/a
89.309	0.045	178618	keystroke_s	s	n/a
89.699	0.06	179398	keystroke_o	o	n/a
89.773	0.076	179546	keystroke_r	r	n/a
89.999	0.06	179998	keystroke_s	s	n/a
90.299	0.104	180598	keystroke_Key.space	Key.space	n/a
90.568	0.061	181136	keystroke_j	j	n/a
90.764	0.089	181528	keystroke_o	o	n/a
90.869	0.09	181738	keystroke_u	u	n/a
90.989	0.089	181978	keystroke_r	r	n/a
91.169	0.06	182338	keystroke_n	n	n/a
91.259	0.135	182518	keystroke_a	a	n/a
91.409	0.1045	182818	keystroke_l	l	n/a
91.5585	0.12	183117	keystroke_s	s	n/a
91.8735	0.09	183747	keystroke_Key.space	Key.space	n/a
92.1885	0.06	184377	keystroke_n	n	n/a
92.3235	0.075	184647	keystroke_i	i	n/a
92.4435	0.075	184887	keystroke_g	g	n/a
92.5635	0.075	185127	keystroke_h	h	n/a
92.6535	0.06	185307	keystroke_t	t	n/a
92.8335	0.09	185667	keystroke_s	s	n/a
93.3435	0.09	186687	keystroke_Key.enter	Key.enter	n/a
93.4435	7.372	186887	prompt	n/a	managers ways powerpoint mining\n
94.0935	0.06	188187	keystroke_m	m	n/a
94.1985	0.105	188397	keystroke_a	a	n/a
94.4385	0.06	188877	keystroke_n	n	n/a
94.5135	0.18	189027	keystroke_a	a	n/a
94.6635	0.075	189327	keystroke_g	g	n/a
94.7985	0.09	189597	keystroke_e	e	n/a
94.8585	0.075	189717	keystroke_r	r	n/a
95.0085	0.12	190017	keystroke_s	s	n/a
95.3085	0.105	190617	keystroke_Key.space	Key.space	n/a
95.5785	0.075	191157	keystroke_w	w	n/a
95.7285	0.105	191457	keystroke_a	a	n/a
95.8635	0.06	191727	keystroke_y	y	n/a
95.9685	0.09	191937	keystroke_s	s	n/a
96.4035	0.12	192807	keystroke_Key.space	Key.space	n/a
96.7935	0.105	193587	keystroke_p	p	n/a
97.0485	0.06	194097	keystroke_o	o	n/a
97.1235	0.105	194247	keystroke_w	w	n/a
97.1985	0.12	194397	keystroke_e	e	n/a
97.2735	0.105	194547	keystroke_r	r	n/a
98.0235	0.09	196047	keystroke_p	p	n/a
98.2185	0.075	196437	keystroke_o	o	n/a
98.4585	0.045	196917	keystroke_i	i	n/a
98.5485	0.075	197097	keystroke_n	n	n/a
98.6395	0.059	197279	keystroke_t	t	n/a
99.1035	0.12	198207	keystroke_Key.space	Key.space	n/a
99.4185	0.075	198837	keystroke_m	m	n/a
99.5835	0.075	199167	keystroke_i	i	n/a
99.7335	0.075	199467	keystroke_n	n	n/a
99.9285	0.045	199857	keystroke_i	i	n/a
100.0185	0.09	200037	keystroke_n	n	n/a
100.0635	0.075	200127	keystroke_g	g	n/a
100.6935	0.12	201387	keystroke_Key.enter	Key.enter	n/a
100.821	12.9395	201642	prompt	n/a	estimated improved discussing mechanism\n
101.5335	0.075	203067	keystroke_e	e	n/a
101.7285	0.12	203457	keystroke_s	s	n/a
101.8785	0.09	203757	keystroke_t	t	n/a
101.9985	0.06	203997	keystroke_i	i	n/a
102.2385	0.09	204477	keystroke_m	m	n/a
102.3435	0.12	204687	keystroke_a	a	n/a
102.4185	0.105	204837	keystroke_t	t	n/a
102.5085	0.09	205017	keystroke_e	e	n/a
102.7185	0.075	205437	keystroke_d	d	n/a
103.0335	0.105	206067	keystroke_Key.space	Key.space	n/a
103.5585	0.06	207117	keystroke_i	i	n/a
103.9645	0.074	207929	keystroke_p	p	n/a
104.8035	0.09	209607	keystroke_Key.backspace	Key.backspace	n/a
105.1485	0.075	210297	keystroke_m	m	n/a
105.4185	0.105	210837	keystroke_p	p	n/a
105.5535	0.075	211107	keystroke_r	r	n/a
105.6885	0.09	211377	keystroke_o	o	n/a
105.7935	0.12	211587	keystroke_v	v	n/a
105.9435	0.09	211887	keystroke_e	e	n/a
106.1235	0.075	212247	keystroke_d	d	n/a
106.5435	0.09	213087	keystroke_Key.space	Key.space	n/a
107.1135	0.06	214227	keystroke_d	d	n/a
107.1885	0.06	214377	keystroke_i	i	n/a
107.2785	0.105	214557	keystroke_s	s	n/a
107.4735	0.075	214947	keystroke_c	c	n/a
107.5935	0.045	215187	keystroke_u	u	n/a
107.7135	0.075	215427	keystroke_s	s	n/a
107.8935	0.09	215787	keystroke_s	s	n/a
108.0135	0.075	216027	keystroke_i	i	n/a
108.1035	0.09	216207	keystroke_n	n	n/a
108.1785	0.075	216357	keystroke_g	g	n/a
108.5685	0.09	217137	keystroke_Key.space	Key.space	n/a
109.0785	0.075	218157	keystroke_m	m	n/a
109.1685	0.09	218337	keystroke_e	e	n/a
109.3935	0.075	218787	keystroke_c	c	n/a
109.5285	0.045	219057	keystroke_h	h	n/a
110.6385	0.12	221277	keystroke_a	a	n/a
110.8035	0.06	221607	keystroke_n	n	n/a
111.1335	0.105	222267	keystroke_s	s	n/a
112.0785	0.105	224157	keystroke_Key.backspace	Key.backspace	n/a
112.4835	0.09	224967	keystroke_i	i	n/a
112.9635	0.06	225927	keystroke_s	s	n/a
113.0385	0.075	226077	keystroke_m	m	n/a
113.7285	0.03	227457	keystroke_Key.enter	Key.enter	n/a
113.7665	7.8395	227533	prompt	n/a	brass tricks details chemistry\n
114.5535	0.045	229107	keystroke_b	b	n/a
114.6595	0.089	229319	keystroke_r	r	n/a
114.8685	0.09	229737	keystroke_a	a	n/a
115.0485	0.075	230097	keystroke_s	s	n/a
115.2895	0.014	230579	keystroke_s	s	n/a
115.4535	0.075	230907	keystroke_Key.space	Key.space	n/a
115.6945	0.044	231389	keystroke_t	t	n/a
115.8585	0.075	231717	keystroke_r	r	n/a
115.9785	0.075	231957	keystroke_i	i	n/a
116.0985	0.075	232197	keystroke_c	c	n/a
116.2335	0.075	232467	keystroke_k	k	n/a
116.3535	0.09	232707	keystroke_s	s	n/a
116.7735	0.09	233547	keystroke_Key.space	Key.space	n/a
117.0895	0.059	234179	keystroke_d	d	n/a
117.2535	0.075	234507	keystroke_e	e	n/a
117.4635	0.045	234927	keystroke_t	t	n/a
117.6145	0.089	235229	keystroke_a	a	n/a
118.3935	0.075	236787	keystroke_i	i	n/a
118.6495	0.089	237299	keystroke_l	l	n/a
118.7835	0.105	237567	keystroke_s	s	n/a
119.3385	0.09	238677	keystroke_Key.space	Key.space	n/a
119.7885	0.075	239577	keystroke_c	c	n/a
119.9535	0.061	239907	keystroke_h	h	n/a
120.0885	0.075	240177	keystroke_e	e	n/a
120.2685	0.06	240537	keystroke_m	m	n/a
120.4485	0.06	240897	keystroke_i	i	n/a
120.5835	0.09	241167	keystroke_s	s	n/a
120.7185	0.061	241437	keystroke_t	t	n/a
120.8685	0.091	241737	keystroke_r	r	n/a
120.9435	0.061	241887	keystroke_y	y	n/a
121.5135	0.09	243027	keystroke_Key.enter	Key.enter	n/a
121.611	9.8205	243222	prompt	n/a	meetup providence womens vbulletin\n
122.3985	0.075	244797	keystroke_m	m	n/a
122.4885	0.061	244977	keystroke_e	e	n/a
122.6395	0.119	245279	keystroke_e	e	n/a
123.1485	0.06	246297	keystroke_t	t	n/a
123.4785	0.135	246957	keystroke_u	u	n/a
124.6185	0.105	249237	keystroke_p	p	n/a
125.1885	0.105	250377	keystroke_Key.space	Key.space	n/a
126.2235	0.09	252447	keystroke_p	p	n/a
126.3435	0.09	252687	keystroke_r	r	n/a
126.4485	0.09	252897	keystroke_o	o	n/a
126.7045	0.059	253409	keystroke_v	v	n/a
126.8535	0.076	253707	keystroke_i	i	n/a
126.9435	0.06	253887	keystroke_d	d	n/a
127.1095	0.074	254219	keystroke_e	e	n/a
127.2285	0.06	254457	keystroke_n	n	n/a
127.3045	0.119	254609	keystroke_c	c	n/a
127.3935	0.09	254787	keystroke_e	e	n/a
127.7085	0.09	255417	keystroke_Key.space	Key.space	n/a
128.0835	0.076	256167	keystroke_w	w	n/a
128.2035	0.061	256407	keystroke_o	o	n/a
128.4595	0.074	256919	keystroke_m	m	n/a
128.5635	0.075	257127	keystroke_e	e	n/a
128.6985	0.045	257397	keystroke_n	n	n/a
128.7585	0.106	257517	keystroke_s	s	n/a
129.0135	0.09	258027	keystroke_Key.space	Key.space	n/a
129.4185	0.075	258837	keystroke_v	v	n/a
129.7035	0.06	259407	keystroke_b	b	n/a
129.9145	0.075	259829	keystroke_u	u	n/a
130.2135	0.06	260427	keystroke_l	l	n/a
130.3785	0.06	260757	keystroke_l	l	n/a
130.4985	0.09	260997	keystroke_e	e	n/a
130.7235	0.075	261447	keystroke_t	t	n/a
130.8435	0.09	261687	keystroke_i	i	n/a
130.9935	0.075	261987	keystroke_n	n	n/a
131.3685	0.06	262737	keystroke_Key.enter	Key.enter	n/a
131.4365	9.459	262873	prompt	n/a	wires infected podcasts fame\n
132.1035	0.075	264207	keystroke_w	w	n/a
132.3135	0.075	264627	keystroke_i	i	n/a
132.4195	0.104	264839	keystroke_r	r	n/a
132.5085	0.091	265017	keystroke_e	e	n/a
132.6885	0.09	265377	keystroke_s	s	n/a
133.3335	0.105	266667	keystroke_Key.space	Key.space	n/a
133.5885	0.076	267177	keystroke_i	i	n/a
133.7235	0.075	267447	keystroke_n	n	n/a
133.8135	0.091	267627	keystroke_f	f	n/a
133.9935	0.09	267987	keystroke_e	e	n/a
134.1885	0.091	268377	keystroke_c	c	n/a
134.4585	0.045	268917	keystroke_t	t	n/a
134.6085	0.075	269217	keystroke_e	e	n/a
134.7735	0.075	269547	keystroke_d	d	n/a
135.0435	0.09	270087	keystroke_Key.space	Key.space	n/a
135.4935	0.12	270987	keystroke_p	p	n/a
135.6885	0.09	271377	keystroke_o	o	n/a
135.8395	0.044	271679	keystroke_d	d	n/a
136.0485	0.106	272097	keystroke_c	c	n/a
136.2895	0.225	272579	keystroke_a	a	n/a
136.4985	0.165	272997	keystroke_s	s	n/a
136.8285	0.09	273657	keystroke_s	s	n/a
137.9685	0.09	275937	keystroke_Key.backspace	Key.backspace	n/a
138.6735	0.06	277347	keystroke_t	t	n/a
138.8535	0.076	277707	keystroke_s	s	n/a
139.2735	0.12	278547	keystroke_Key.space	Key.space	n/a
139.8145	0.075	279629	keystroke_f	f	n/a
139.9795	0.104	279959	keystroke_a	a	n/a
140.1285	0.06	280257	keystroke_m	m	n/a
140.2035	0.061	280407	keystroke_e	e	n/a
140.7885	0.105	281577	keystroke_Key.enter	Key.enter	n/a
140.9015	9.7885	281803	prompt	n/a	blues briefing they're photograph\n
141.5985	0.045	283197	keystroke_b	b	n/a
141.8545	0.089	283709	keystroke_l	l	n/a
142.4545	0.075	284909	keystroke_u	u	n/a
142.5895	0.059	285179	keystroke_e	e	n/a
142.7385	0.091	285477	keystroke_s	s	n/a
143.0085	0.12	286017	keystroke_Key.space	Key.space	n/a
143.5495	0.074	287099	keystroke_b	b	n/a
143.6695	0.089	287339	keystroke_r	r	n/a
143.8495	0.059	287699	keystroke_i	i	n/a
143.9545	0.075	287909	keystroke_e	e	n/a
144.1185	0.075	288237	keystroke_f	f	n/a
144.2245	0.089	288449	keystroke_i	i	n/a
144.9445	0.044	289889	keystroke_n	n	n/a
145.1545	0.045	290309	keystroke_g	g	n/a
145.3635	0.09	290727	keystroke_Key.space	Key.space	n/a
146.009	0.045	292018	keystroke_t	t	n/a
146.069	0.06	292138	keystroke_h	h	n/a
146.189	0.075	292378	keystroke_e	e	n/a
146.294	0.06	292588	keystroke_y	y	n/a
146.969	0.09	293938	keystroke_'	'	n/a
147.074	0.09	294148	keystroke_r	r	n/a
147.134	0.09	294268	keystroke_e	e	n/a
147.494	0.12	294988	keystroke_Key.space	Key.space	n/a
148.469	0.105	296938	keystroke_p	p	n/a
148.634	0.075	297268	keystroke_h	h	n/a
148.814	0.075	297628	keystroke_o	o	n/a
148.964	0.075	297928	keystroke_t	t	n/a
149.054	0.06	298108	keystroke_o	o	n/a
149.174	0.06	298348	keystroke_g	g	n/a
149.3395	0.0895	298679	keystroke_r	r	n/a
149.534	0.09	299068	keystroke_a	a	n/a
149.579	0.135	299158	keystroke_p	p	n/a
149.759	0.06	299518	keystroke_h	h	n/a
149.894	0.105	299788	keystroke_y	y	n/a
150.674	0.015	301348	keystroke_Key.enter	Key.enter	n/a
150.695	7.6315	301390	prompt	n/a	main engage limousines autumn\n
151.409	0.06	302818	keystroke_m	m	n/a
151.574	0.09	303148	keystroke_a	a	n/a
151.949	0.075	303898	keystroke_i	i	n/a
152.114	0.075	304228	keystroke_n	n	n/a
152.4585	0.105	304917	keystroke_Key.space	Key.space	n/a
153.239	0.0745	306478	keystroke_e	e	n/a
153.3735	0.09	306747	keystroke_n	n	n/a
153.4935	0.09	306987	keystroke_g	g	n/a
153.7635	0.18	307527	keystroke_a	a	n/a
153.9135	0.106	307827	keystroke_g	g	n/a
153.9885	0.135	307977	keystroke_e	e	n/a
154.3785	0.135	308757	keystroke_Key.space	Key.space	n/a
154.8285	0.075	309657	keystroke_l	l	n/a
155.0085	0.06	310017	keystroke_i	i	n/a
155.2635	0.075	310527	keystroke_m	m	n/a
155.6085	0.09	311217	keystroke_o	o	n/a
155.7135	0.105	311427	keystroke_u	u	n/a
155.9235	0.09	311847	keystroke_s	s	n/a
156.0285	0.0455	312057	keystroke_i	i	n/a
156.1185	0.075	312237	keystroke_n	n	n/a
156.1945	0.059	312389	keystroke_e	e	n/a
156.3585	0.075	312717	keystroke_s	s	n/a
156.5535	0.06	313107	keystroke_Key.space	Key.space	n/a
156.7035	0.135	313407	keystroke_a	a	n/a
156.8235	0.06	313647	keystroke_u	u	n/a
156.9885	0.045	313977	keystroke_t	t	n/a
157.0785	0.075	314157	keystroke_u	u	n/a
157.3485	0.06	314697	keystroke_m	m	n/a
157.6335	0.06	315267	keystroke_n	n	n/a
158.2335	0.09	316467	keystroke_Key.enter	Key.enter	n/a
158.3305	7.27	316661	prompt	n/a	how're springs chose camera\n
159.0435	0.09	318087	keystroke_l	l	n/a
159.1935	0.075	318387	keystroke_o	o	n/a
159.2835	0.09	318567	keystroke_w	w	n/a
160.004	0.075	320008	keystroke_'	'	n/a
160.08	0.089	320160	keystroke_r	r	n/a
160.154	0.09	320308	keystroke_e	e	n/a
160.723	0.106	321446	keystroke_Key.space	Key.space	n/a
161.399	0.105	322798	keystroke_s	s	n/a
161.534	0.09	323068	keystroke_p	p	n/a
161.729	0.075	323458	keystroke_r	r	n/a
161.849	0.09	323698	keystroke_i	i	n/a
162.164	0.06	324328	keystroke_n	n	n/a
162.284	0.045	324568	keystroke_g	g	n/a
162.404	0.105	324808	keystroke_s	s	n/a
162.584	0.105	325168	keystroke_Key.space	Key.space	n/a
162.794	0.09	325588	keystroke_c	c	n/a
162.929	0.045	325858	keystroke_h	h	n/a
163.139	0.06	326278	keystroke_o	o	n/a
163.469	0.105	326938	keystroke_s	s	n/a
163.559	0.09	327118	keystroke_e	e	n/a
163.799	0.09	327598	keystroke_Key.space	Key.space	n/a
164.324	0.09	328648	keystroke_c	c	n/a
164.459	0.135	328918	keystroke_a	a	n/a
164.669	0.06	329338	keystroke_m	m	n/a
164.744	0.105	329488	keystroke_e	e	n/a
164.834	0.09	329668	keystroke_r	r	n/a
164.954	0.12	329908	keystroke_a	a	n/a
165.524	0.075	331048	keystroke_Key.enter	Key.enter	n/a
165.605	8.9355	331210	prompt	n/a	producing translate tape operates\n
166.4535	0.135	332907	keystroke_p	p	n/a
166.5885	0.06	333177	keystroke_r	r	n/a
166.6785	0.09	333357	keystroke_o	o	n/a
166.7985	0.06	333597	keystroke_d	d	n/a
166.9635	0.06	333927	keystroke_u	u	n/a
167.0385	0.075	334077	keystroke_c	c	n/a
167.2935	0.06	334587	keystroke_i	i	n/a
167.3985	0.075	334797	keystroke_n	n	n/a
167.4285	0.075	334857	keystroke_g	g	n/a
167.7285	0.075	335457	keystroke_Key.space	Key.space	n/a
168.5385	0.045	337077	keystroke_t	t	n/a
168.7185	0.075	337437	keystroke_r	r	n/a
168.9435	0.105	337887	keystroke_a	a	n/a
169.1685	0.06	338337	keystroke_n	n	n/a
170.354	0.089	340708	keystroke_s	s	n/a
170.548	0.075	341096	keystroke_l	l	n/a
170.638	0.15	341276	keystroke_a	a	n/a
170.803	0.045	341606	keystroke_t	t	n/a
170.833	0.105	341666	keystroke_e	e	n/a
171.118	0.09	342236	keystroke_Key.space	Key.space	n/a
171.373	0.0755	342746	keystroke_t	t	n/a
171.478	0.12	342956	keystroke_a	a	n/a
171.643	0.105	343286	keystroke_p	p	n/a
172.033	0.076	344066	keystroke_e	e	n/a
172.318	0.075	344636	keystroke_Key.space	Key.space	n/a
172.648	0.135	345296	keystroke_o	o	n/a
172.768	0.121	345536	keystroke_p	p	n/a
172.903	0.105	345806	keystroke_e	e	n/a
172.993	0.09	345986	keystroke_r	r	n/a
173.143	0.12	346286	keystroke_a	a	n/a
173.278	0.06	346556	keystroke_t	t	n/a
173.368	0.105	346736	keystroke_e	e	n/a
173.699	0.044	347398	keystroke_s	s	n/a
174.448	0.09	348896	keystroke_Key.enter	Key.enter	n/a
174.5465	15.5795	349093	prompt	n/a	learning exchange automobiles distributor\n
175.243	0.075	350486	keystroke_l	l	n/a
175.423	0.09	350846	keystroke_e	e	n/a
175.543	0.15	351086	keystroke_a	a	n/a
175.634	0.09	351268	keystroke_r	r	n/a
175.784	0.059	351568	keystroke_n	n	n/a
175.904	0.074	351808	keystroke_i	i	n/a
175.993	0.091	351986	keystroke_n	n	n/a
176.068	0.075	352136	keystroke_g	g	n/a
176.428	0.105	352856	keystroke_Key.space	Key.space	n/a
176.833	0.045	353666	keystroke_e	e	n/a
177.013	0.06	354026	keystroke_x	x	n/a
177.163	0.075	354326	keystroke_c	c	n/a
177.283	0.06	354566	keystroke_h	h	n/a
177.434	0.149	354868	keystroke_a	a	n/a
177.523	0.045	355046	keystroke_n	n	n/a
177.598	0.105	355196	keystroke_g	g	n/a
177.718	0.075	355436	keystroke_e	e	n/a
178.063	0.09	356126	keystroke_Key.space	Key.space	n/a
178.453	0.105	356906	keystroke_a	a	n/a
178.574	0.059	357148	keystroke_u	u	n/a
178.724	0.044	357448	keystroke_t	t	n/a
178.813	0.075	357626	keystroke_o	o	n/a
179.084	0.059	358168	keystroke_m	m	n/a
179.249	0.164	358498	keystroke_a	a	n/a
179.383	0.06	358766	keystroke_t	t	n/a
180.404	0.089	360808	keystroke_Key.backspace	Key.backspace	n/a
182.5825	0.011	365165	keystroke_Key.backspace	Key.backspace	n/a
183.6585	0.12	367317	keystroke_o	o	n/a
183.8985	0.075	367797	keystroke_b	b	n/a
184.1235	0.075	368247	keystroke_i	i	n/a
184.348	0.075	368696	keystroke_l	l	n/a
184.438	0.06	368876	keystroke_e	e	n/a
184.588	0.091	369176	keystroke_s	s	n/a
184.768	0.075	369536	keystroke_Key.space	Key.space	n/a
184.948	0.075	369896	keystroke_d	d	n/a
185.083	0.075	370166	keystroke_i	i	n/a
185.203	0.076	370406	keystroke_s	s	n/a
185.324	0.074	370648	keystroke_t	t	n/a
185.488	0.06	370976	keystroke_r	r	n/a
185.624	0.06	371248	keystroke_u	u	n/a
185.833	0.06	371666	keystroke_b	b	n/a
186.074	0.059	372148	keystroke_u	u	n/a
186.208	0.076	372416	keystroke_t	t	n/a
186.268	0.12	372536	keystroke_i	i	n/a
186.373	0.106	372746	keystroke_o	o	n/a
186.448	0.135	372896	keystroke_n	n	n/a
187.153	0.075	374306	keystroke_Key.backspace	Key.backspace	n/a
187.304	0.089	374608	keystroke_Key.backspace	Key.backspace	n/a
188.518	0.09	377036	keystroke_Key.backspace	Key.backspace	n/a
188.999	0.059	377998	keystroke_o	o	n/a
189.104	0.075	378208	keystroke_r	r	n/a
190.048	0.075	380096	keystroke_Key.enter	Key.enter	n/a
190.1405	14.82	380281	prompt	n/a	obituaries infection japanese mike\n
190.319	0.015	380638	keystroke_k	k	n/a
190.949	0.089	381898	keystroke_o	o	n/a
191.159	0.06	382318	keystroke_b	b	n/a
191.399	0.06	382798	keystroke_i	i	n/a
191.879	0.075	383758	keystroke_t	t	n/a
191.984	0.059	383968	keystroke_u	u	n/a
192.134	0.075	384268	keystroke_a	a	n/a
193.363	0.015	386726	keystroke_Key.backspace	Key.backspace	n/a
193.499	0.074	386998	keystroke_Key.backspace	Key.backspace	n/a
193.678	0.06	387356	keystroke_Key.backspace	Key.backspace	n/a
193.829	0.074	387658	keystroke_Key.backspace	Key.backspace	n/a
194.008	0.075	388016	keystroke_Key.backspace	Key.backspace	n/a
194.203	0.045	388406	keystroke_Key.backspace	Key.backspace	n/a
194.339	0.074	388678	keystroke_Key.backspace	Key.backspace	n/a
194.954	0.075	389908	keystroke_o	o	n/a
195.179	0.074	390358	keystroke_b	b	n/a
195.374	0.06	390748	keystroke_i	i	n/a
195.719	0.074	391438	keystroke_t	t	n/a
195.839	0.074	391678	keystroke_u	u	n/a
196.004	0.15	392008	keystroke_a	a	n/a
196.138	0.075	392276	keystroke_r	r	n/a
196.229	0.06	392458	keystroke_i	i	n/a
196.304	0.075	392608	keystroke_e	e	n/a
196.469	0.089	392938	keystroke_s	s	n/a
196.709	0.089	393418	keystroke_Key.space	Key.space	n/a
197.099	0.075	394198	keystroke_k	k	n/a
197.234	0.075	394468	keystroke_n	n	n/a
197.398	0.076	394796	keystroke_f	f	n/a
197.564	0.075	395128	keystroke_e	e	n/a
197.729	0.105	395458	keystroke_c	c	n/a
197.999	0.06	395998	keystroke_t	t	n/a
198.718	0.09	397436	keystroke_Key.backspace	Key.backspace	n/a
198.943	0.075	397886	keystroke_Key.backspace	Key.backspace	n/a
199.138	0.076	398276	keystroke_Key.backspace	Key.backspace	n/a
199.318	0.075	398636	keystroke_Key.backspace	Key.backspace	n/a
199.483	0.091	398966	keystroke_Key.backspace	Key.backspace	n/a
199.618	0.105	399236	keystroke_Key.backspace	Key.backspace	n/a
200.414	0.06	400828	keystroke_i	i	n/a
200.549	0.075	401098	keystroke_n	n	n/a
200.668	0.091	401336	keystroke_f	f	n/a
200.804	0.09	401608	keystroke_e	e	n/a
200.999	0.075	401998	keystroke_c	c	n/a
201.239	0.075	402478	keystroke_t	t	n/a
201.374	0.075	402748	keystroke_i	i	n/a
201.449	0.135	402898	keystroke_o	o	n/a
201.539	0.105	403078	keystroke_n	n	n/a
201.869	0.089	403738	keystroke_Key.space	Key.space	n/a
202.154	0.06	404308	keystroke_j	j	n/a
202.244	0.105	404488	keystroke_a	a	n/a
202.364	0.104	404728	keystroke_p	p	n/a
202.709	0.12	405418	keystroke_a	a	n/a
202.843	0.0455	405686	keystroke_n	n	n/a
203.0535	0.09	406107	keystroke_e	e	n/a
203.2785	0.134	406557	keystroke_s	s	n/a
203.3825	0.091	406765	keystroke_e	e	n/a
203.5935	0.089	407187	keystroke_Key.space	Key.space	n/a
203.8335	0.045	407667	keystroke_m	m	n/a
203.9685	0.075	407937	keystroke_i	i	n/a
204.2385	0.075	408477	keystroke_k	k	n/a
204.3425	0.061	408685	keystroke_e	e	n/a
204.8685	0.09	409737	keystroke_Key.enter	Key.enter	n/a
204.969	9.441	409938	prompt	n/a	currency singles subdivision bracelet\n
205.888	0.075	411776	keystroke_c	c	n/a
206.008	0.075	412016	keystroke_u	u	n/a
206.128	0.06	412256	keystroke_r	r	n/a
206.278	0.06	412556	keystroke_r	r	n/a
206.413	0.105	412826	keystroke_e	e	n/a
206.593	0.075	413186	keystroke_n	n	n/a
206.698	0.09	413396	keystroke_c	c	n/a
206.848	0.06	413696	keystroke_y	y	n/a
207.313	0.09	414626	keystroke_Key.space	Key.space	n/a
207.703	0.09	415406	keystroke_s	s	n/a
207.794	0.059	415588	keystroke_i	i	n/a
207.988	0.06	415976	keystroke_n	n	n/a
208.063	0.09	416126	keystroke_g	g	n/a
208.258	0.09	416516	keystroke_l	l	n/a
208.318	0.09	416636	keystroke_e	e	n/a
208.498	0.105	416996	keystroke_s	s	n/a
208.858	0.12	417716	keystroke_Key.space	Key.space	n/a
209.473	0.105	418946	keystroke_s	s	n/a
209.593	0.06	419186	keystroke_u	u	n/a
209.788	0.06	419576	keystroke_b	b	n/a
209.938	0.075	419876	keystroke_d	d	n/a
210.043	0.06	420086	keystroke_i	i	n/a
210.178	0.06	420356	keystroke_v	v	n/a
210.583	0.06	421166	keystroke_i	i	n/a
210.838	0.105	421676	keystroke_s	s	n/a
210.944	0.104	421888	keystroke_i	i	n/a
211.049	0.119	422098	keystroke_o	o	n/a
211.108	0.12	422216	keystroke_n	n	n/a
211.648	0.06	423296	keystroke_Key.space	Key.space	n/a
212.188	0.06	424376	keystroke_b	b	n/a
212.323	0.06	424646	keystroke_r	r	n/a
212.503	0.225	425006	keystroke_a	a	n/a
212.683	0.105	425366	keystroke_c	c	n/a
212.773	0.09	425546	keystroke_e	e	n/a
213.463	0.06	426926	keystroke_l	l	n/a
213.628	0.105	427256	keystroke_e	e	n/a
213.748	0.075	427496	keystroke_t	t	n/a
214.333	0.075	428666	keystroke_Key.enter	Key.enter	n/a
214.416	8.289	428832	prompt	n/a	craps mime constitutes msie\n
215.068	0.09	430136	keystroke_c	c	n/a
215.293	0.105	430586	keystroke_r	r	n/a
215.488	0.105	430976	keystroke_a	a	n/a
215.668	0.105	431336	keystroke_p	p	n/a
215.758	0.09	431516	keystroke_s	s	n/a
215.998	0.135	431996	keystroke_Key.space	Key.space	n/a
216.313	0.075	432626	keystroke_m	m	n/a
216.478	0.076	432956	keystroke_i	i	n/a
216.958	0.06	433916	keystroke_m	m	n/a
217.168	0.075	434336	keystroke_e	e	n/a
217.618	0.09	435236	keystroke_Key.space	Key.space	n/a
217.843	0.075	435686	keystroke_c	c	n/a
218.354	0.089	436708	keystroke_o	o	n/a
218.488	0.06	436976	keystroke_n	n	n/a
218.623	0.075	437246	keystroke_s	s	n/a
218.908	0.075	437816	keystroke_t	t	n/a
219.298	0.075	438596	keystroke_i	i	n/a
219.478	0.06	438956	keystroke_t	t	n/a
219.583	0.075	439166	keystroke_u	u	n/a
219.853	0.06	439706	keystroke_t	t	n/a
220.063	0.075	440126	keystroke_e	e	n/a
220.258	0.09	440516	keystroke_s	s	n/a
220.498	0.105	440996	keystroke_Key.space	Key.space	n/a
221.173	0.075	442346	keystroke_m	m	n/a
221.338	0.09	442676	keystroke_s	s	n/a
221.668	0.06	443336	keystroke_i	i	n/a
221.788	0.06	443576	keystroke_e	e	n/a
222.598	0.105	445196	keystroke_Key.enter	Key.enter	n/a
222.712	9.923	445424	prompt	n/a	lance pray kingdom xanax\n
223.529	0.059	447058	keystroke_l	l	n/a
223.679	0.119	447358	keystroke_a	a	n/a
223.783	0.075	447566	keystroke_n	n	n/a
223.888	0.12	447776	keystroke_c	c	n/a
223.993	0.09	447986	keystroke_e	e	n/a
224.263	0.075	448526	keystroke_Key.space	Key.space	n/a
224.459	0.104	448918	keystroke_p	p	n/a
224.578	0.06	449156	keystroke_r	r	n/a
224.803	0.075	449606	keystroke_y	y	n/a
225.928	0.09	451856	keystroke_Key.backspace	Key.backspace	n/a
226.3485	0.12	452697	keystroke_a	a	n/a
226.5135	0.03	453027	keystroke_y	y	n/a
226.7535	0.105	453507	keystroke_Key.space	Key.space	n/a
227.2335	0.09	454467	keystroke_k	k	n/a
227.4885	0.075	454977	keystroke_n	n	n/a
228.763	0.09	457526	keystroke_Key.backspace	Key.backspace	n/a
229.093	0.0755	458186	keystroke_i	i	n/a
229.2435	0.0745	458487	keystroke_n	n	n/a
229.3485	0.075	458697	keystroke_g	g	n/a
229.663	0.0755	459326	keystroke_d	d	n/a
229.813	0.09	459626	keystroke_o	o	n/a
230.038	0.1055	460076	keystroke_m	m	n/a
230.1885	0.105	460377	keystroke_Key.space	Key.space	n/a
230.743	0.075	461486	keystroke_x	x	n/a
230.998	0.105	461996	keystroke_a	a	n/a
231.3135	0.0745	462627	keystroke_n	n	n/a
231.6735	0.09	463347	keystroke_a	a	n/a
231.883	0.075	463766	keystroke_x	x	n/a
232.543	0.09	465086	keystroke_Key.enter	Key.enter	n/a
232.642	7.8235	465284	prompt	n/a	briefly tutorial maritime depot\n
233.383	0.06	466766	keystroke_b	b	n/a
233.473	0.075	466946	keystroke_r	r	n/a
233.6235	0.0745	467247	keystroke_i	i	n/a
233.713	0.0605	467426	keystroke_e	e	n/a
233.8335	0.075	467667	keystroke_f	f	n/a
233.9985	0.105	467997	keystroke_l	l	n/a
234.1635	0.09	468327	keystroke_y	y	n/a
234.3435	0.105	468687	keystroke_Key.space	Key.space	n/a
234.7035	0.06	469407	keystroke_t	t	n/a
235.0785	0.075	470157	keystroke_u	u	n/a
235.3035	0.06	470607	keystroke_t	t	n/a
235.4085	0.075	470817	keystroke_o	o	n/a
235.5585	0.075	471117	keystroke_r	r	n/a
235.6485	0.045	471297	keystroke_i	i	n/a
235.7535	0.105	471507	keystroke_a	a	n/a
236.413	0.06	472826	keystroke_l	l	n/a
236.608	0.09	473216	keystroke_Key.space	Key.space	n/a
237.643	0.06	475286	keystroke_m	m	n/a
237.733	0.1355	475466	keystroke_a	a	n/a
237.823	0.0905	475646	keystroke_r	r	n/a
237.9285	0.06	475857	keystroke_i	i	n/a
238.2285	0.06	476457	keystroke_t	t	n/a
238.3185	0.06	476637	keystroke_i	i	n/a
238.5285	0.075	477057	keystroke_m	m	n/a
238.5885	0.075	477177	keystroke_e	e	n/a
238.9185	0.105	477837	keystroke_Key.space	Key.space	n/a
239.3235	0.03	478647	keystroke_d	d	n/a
239.4585	0.075	478917	keystroke_e	e	n/a
239.6085	0.105	479217	keystroke_p	p	n/a
239.7885	0.075	479577	keystroke_o	o	n/a
239.8935	0.075	479787	keystroke_t	t	n/a
240.3885	0.075	480777	keystroke_Key.enter	Key.enter	n/a
240.471	7.944	480942	prompt	n/a	pregnant networking flow thereby\n
241.1985	0.09	482397	keystroke_p	p	n/a
241.3185	0.105	482637	keystroke_r	r	n/a
241.3935	0.09	482787	keystroke_e	e	n/a
241.6185	0.06	483237	keystroke_g	g	n/a
242.0535	0.045	484107	keystroke_n	n	n/a
242.1435	0.105	484287	keystroke_a	a	n/a
242.2635	0.045	484527	keystroke_n	n	n/a
242.3385	0.06	484677	keystroke_t	t	n/a
242.5635	0.105	485127	keystroke_Key.space	Key.space	n/a
242.8035	0.06	485607	keystroke_n	n	n/a
242.8785	0.09	485757	keystroke_e	e	n/a
242.9685	0.0895	485937	keystroke_t	t	n/a
243.178	0.075	486356	keystroke_w	w	n/a
243.283	0.075	486566	keystroke_o	o	n/a
243.388	0.06	486776	keystroke_r	r	n/a
243.5085	0.06	487017	keystroke_k	k	n/a
243.6735	0.045	487347	keystroke_i	i	n/a
243.7335	0.075	487467	keystroke_n	n	n/a
243.8235	0.06	487647	keystroke_g	g	n/a
244.1685	0.06	488337	keystroke_Key.space	Key.space	n/a
244.4695	0.074	488939	keystroke_f	f	n/a
244.5735	0.075	489147	keystroke_l	l	n/a
244.7535	0.06	489507	keystroke_o	o	n/a
244.8285	0.09	489657	keystroke_w	w	n/a
244.9935	0.12	489987	keystroke_Key.space	Key.space	n/a
245.3085	0.06	490617	keystroke_h	h	n/a
246.2535	0.09	492507	keystroke_Key.backspace	Key.backspace	n/a
246.6885	0.075	493377	keystroke_t	t	n/a
246.8085	0.045	493617	keystroke_h	h	n/a
246.9435	0.06	493887	keystroke_e	e	n/a
247.0045	0.119	494009	keystroke_r	r	n/a
247.0935	0.09	494187	keystroke_e	e	n/a
247.4385	0.075	494877	keystroke_b	b	n/a
247.6635	0.06	495327	keystroke_y	y	n/a
248.3085	0.105	496617	keystroke_Key.enter	Key.enter	n/a
248.4205	7.6595	496841	prompt	n/a	cities common opposite secondary\n
249.0585	0.09	498117	keystroke_c	c	n/a
249.2535	0.06	498507	keystroke_i	i	n/a
249.523	0.045	499046	keystroke_t	t	n/a
249.613	0.061	499226	keystroke_i	i	n/a
249.688	0.075	499376	keystroke_e	e	n/a
250.018	0.075	500036	keystroke_s	s	n/a
250.333	0.09	500666	keystroke_Key.space	Key.space	n/a
250.573	0.075	501146	keystroke_c	c	n/a
250.693	0.091	501386	keystroke_o	o	n/a
250.933	0.06	501866	keystroke_m	m	n/a
251.068	0.09	502136	keystroke_m	m	n/a
251.263	0.09	502526	keystroke_o	o	n/a
251.383	0.09	502766	keystroke_n	n	n/a
251.683	0.045	503366	keystroke_Key.space	Key.space	n/a
252.043	0.075	504086	keystroke_o	o	n/a
252.268	0.105	504536	keystroke_p	p	n/a
252.433	0.091	504866	keystroke_p	p	n/a
252.658	0.075	505316	keystroke_o	o	n/a
252.898	0.076	505796	keystroke_s	s	n/a
252.974	0.075	505948	keystroke_i	i	n/a
253.093	0.12	506186	keystroke_t	t	n/a
253.198	0.09	506396	keystroke_e	e	n/a
253.603	0.105	507206	keystroke_Key.space	Key.space	n/a
253.828	0.09	507656	keystroke_s	s	n/a
253.933	0.09	507866	keystroke_e	e	n/a
254.158	0.076	508316	keystroke_c	c	n/a
254.353	0.06	508706	keystroke_o	o	n/a
254.879	0.044	509758	keystroke_n	n	n/a
255.103	0.075	510206	keystroke_d	d	n/a
255.253	0.105	510506	keystroke_a	a	n/a
255.313	0.106	510626	keystroke_r	r	n/a
255.433	0.075	510866	keystroke_y	y	n/a
255.988	0.09	511976	keystroke_Key.enter	Key.enter	n/a
256.0845	8.1565	512169	prompt	n/a	exception troy silly spider\n
256.769	0.075	513538	keystroke_e	e	n/a
256.994	0.059	513988	keystroke_x	x	n/a
257.158	0.12	514316	keystroke_c	c	n/a
257.293	0.09	514586	keystroke_e	e	n/a
257.443	0.09	514886	keystroke_p	p	n/a
257.728	0.06	515456	keystroke_t	t	n/a
258.178	0.06	516356	keystroke_i	i	n/a
258.433	0.091	516866	keystroke_o	o	n/a
258.538	0.075	517076	keystroke_n	n	n/a
258.808	0.075	517616	keystroke_Key.space	Key.space	n/a
259.153	0.031	518306	keystroke_r	r	n/a
259.993	0.075	519986	keystroke_Key.backspace	Key.backspace	n/a
260.174	0.059	520348	keystroke_t	t	n/a
260.354	0.089	520708	keystroke_r	r	n/a
260.638	0.121	521276	keystroke_o	o	n/a
260.863	0.06	521726	keystroke_y	y	n/a
261.358	0.105	522716	keystroke_Key.space	Key.space	n/a
261.599	0.074	523198	keystroke_s	s	n/a
261.689	0.06	523378	keystroke_i	i	n/a
261.899	0.059	523798	keystroke_l	l	n/a
262.034	0.119	524068	keystroke_l	l	n/a
262.199	0.06	524398	keystroke_y	y	n/a
262.768	0.135	525536	keystroke_Key.space	Key.space	n/a
262.993	0.09	525986	keystroke_s	s	n/a
263.128	0.105	526256	keystroke_p	p	n/a
263.324	0.075	526648	keystroke_i	i	n/a
263.414	0.03	526828	keystroke_d	d	n/a
263.549	0.059	527098	keystroke_e	e	n/a
263.623	0.076	527246	keystroke_r	r	n/a
264.148	0.091	528296	keystroke_Key.enter	Key.enter	n/a
264.247	8.318	528494	prompt	n/a	recorder hotmail explicitly clusters\n
264.944	0.089	529888	keystroke_r	r	n/a
265.019	0.104	530038	keystroke_e	e	n/a
265.244	0.09	530488	keystroke_c	c	n/a
265.4675	0.06	530935	keystroke_o	o	n/a
265.5575	0.09	531115	keystroke_r	r	n/a
265.7685	0.0605	531537	keystroke_d	d	n/a
265.9485	0.075	531897	keystroke_e	e	n/a
266.008	0.0905	532016	keystroke_r	r	n/a
266.2925	0.045	532585	keystroke_Key.space	Key.space	n/a
266.5325	0.075	533065	keystroke_h	h	n/a
266.7435	0.0895	533487	keystroke_o	o	n/a
266.8035	0.059	533607	keystroke_t	t	n/a
267.043	0.0755	534086	keystroke_m	m	n/a
267.1335	0.119	534267	keystroke_a	a	n/a
267.2375	0.09	534475	keystroke_i	i	n/a
267.3585	0.09	534717	keystroke_l	l	n/a
267.6125	0.09	535225	keystroke_Key.space	Key.space	n/a
267.9735	0.074	535947	keystroke_e	e	n/a
268.2135	0.06	536427	keystroke_x	x	n/a
268.5435	0.12	537087	keystroke_p	p	n/a
268.7685	0.105	537537	keystroke_l	l	n/a
268.8575	0.075	537715	keystroke_i	i	n/a
268.9935	0.09	537987	keystroke_c	c	n/a
269.0975	0.06	538195	keystroke_i	i	n/a
269.2625	0.046	538525	keystroke_t	t	n/a
269.6985	0.089	539397	keystroke_l	l	n/a
269.8635	0.074	539727	keystroke_y	y	n/a
270.2225	0.075	540445	keystroke_Key.space	Key.space	n/a
270.6575	0.091	541315	keystroke_c	c	n/a
271.0335	0.074	542067	keystroke_l	l	n/a
271.2575	0.061	542515	keystroke_u	u	n/a
271.3785	0.074	542757	keystroke_s	s	n/a
271.5425	0.09	543085	keystroke_t	t	n/a
271.6935	0.075	543387	keystroke_e	e	n/a
271.7535	0.075	543507	keystroke_r	r	n/a
271.9485	0.075	543897	keystroke_s	s	n/a
272.4725	0.09	544945	keystroke_Key.enter	Key.enter	n/a
272.57	9.205	545140	prompt	n/a	dynamics barn firewire passion\n
273.1335	0.089	546267	keystroke_d	d	n/a
273.3285	0.06	546657	keystroke_y	y	n/a
273.6725	0.106	547345	keystroke_a	a	n/a
274.5875	0.075	549175	keystroke_Key.backspace	Key.backspace	n/a
274.9175	0.076	549835	keystroke_n	n	n/a
275.0225	0.121	550045	keystroke_a	a	n/a
275.1885	0.045	550377	keystroke_m	m	n/a
275.3685	0.045	550737	keystroke_i	i	n/a
275.4435	0.044	550887	keystroke_c	c	n/a
275.5485	0.089	551097	keystroke_s	s	n/a
276.0725	0.09	552145	keystroke_Key.space	Key.space	n/a
277.0785	0.059	554157	keystroke_b	b	n/a
277.1685	0.119	554337	keystroke_a	a	n/a
277.2585	0.09	554517	keystroke_r	r	n/a
277.4075	0.076	554815	keystroke_n	n	n/a
277.8725	0.105	555745	keystroke_Key.space	Key.space	n/a
278.2935	0.075	556587	keystroke_f	f	n/a
278.4135	0.074	556827	keystroke_i	i	n/a
278.5185	0.089	557037	keystroke_r	r	n/a
278.5935	0.09	557187	keystroke_e	e	n/a
278.8335	0.074	557667	keystroke_w	w	n/a
279.1025	0.06	558205	keystroke_i	i	n/a
279.1785	0.09	558357	keystroke_r	r	n/a
279.2385	0.09	558477	keystroke_e	e	n/a
279.5375	0.076	559075	keystroke_Key.space	Key.space	n/a
279.8535	0.09	559707	keystroke_p	p	n/a
279.9585	0.09	559917	keystroke_a	a	n/a
280.1385	0.06	560277	keystroke_s	s	n/a
280.2735	0.075	560547	keystroke_s	s	n/a
280.4685	0.135	560937	keystroke_i	i	n/a
280.6175	0.106	561235	keystroke_o	o	n/a
280.7385	0.089	561477	keystroke_n	n	n/a
281.6685	0.105	563337	keystroke_Key.enter	Key.enter	n/a
281.7805	9.0695	563561	prompt	n/a	africa strain entered energy\n
282.4635	0.09	564927	keystroke_a	a	n/a
282.5085	0.075	565017	keystroke_f	f	n/a
282.7335	0.06	565467	keystroke_r	r	n/a
282.8535	0.075	565707	keystroke_i	i	n/a
282.9585	0.135	565917	keystroke_c	c	n/a
283.0785	0.105	566157	keystroke_a	a	n/a
283.2285	0.075	566457	keystroke_n	n	n/a
284.623	0.075	569246	keystroke_Key.backspace	Key.backspace	n/a
285.013	0.12	570026	keystroke_Key.space	Key.space	n/a
285.703	0.12	571406	keystroke_s	s	n/a
285.958	0.075	571916	keystroke_t	t	n/a
286.213	0.075	572426	keystroke_r	r	n/a
286.363	0.12	572726	keystroke_a	a	n/a
286.498	0.06	572996	keystroke_i	i	n/a
286.588	0.075	573176	keystroke_n	n	n/a
286.843	0.06	573686	keystroke_Key.space	Key.space	n/a
287.128	0.075	574256	keystroke_e	e	n/a
287.218	0.075	574436	keystroke_n	n	n/a
287.368	0.075	574736	keystroke_t	t	n/a
287.503	0.12	575006	keystroke_e	e	n/a
287.608	0.12	575216	keystroke_r	r	n/a
287.698	0.09	575396	keystroke_e	e	n/a
287.878	0.075	575756	keystroke_d	d	n/a
288.148	0.06	576296	keystroke_Key.space	Key.space	n/a
288.7485	0.0895	577497	keystroke_e	e	n/a
288.883	0.045	577766	keystroke_n	n	n/a
289.063	0.09	578126	keystroke_e	e	n/a
289.123	0.105	578246	keystroke_r	r	n/a
289.363	0.045	578726	keystroke_g	g	n/a
289.423	0.06	578846	keystroke_y	y	n/a
290.758	0.09	581516	keystroke_Key.enter	Key.enter	n/a
290.8545	7.5865	581709	prompt	n/a	logic womens juan william\n
291.703	0.075	583406	keystroke_l	l	n/a
291.883	0.075	583766	keystroke_o	o	n/a
291.943	0.045	583886	keystroke_g	g	n/a
292.153	0.075	584306	keystroke_i	i	n/a
292.168	0.075	584336	keystroke_c	c	n/a
292.708	0.105	585416	keystroke_Key.space	Key.space	n/a
292.978	0.09	585956	keystroke_w	w	n/a
293.098	0.06	586196	keystroke_o	o	n/a
293.323	0.06	586646	keystroke_m	m	n/a
293.398	0.06	586796	keystroke_e	e	n/a
293.503	0.06	587006	keystroke_n	n	n/a
293.578	0.075	587156	keystroke_s	s	n/a
293.818	0.075	587636	keystroke_Key.space	Key.space	n/a
294.133	0.045	588266	keystroke_j	j	n/a
294.343	0.075	588686	keystroke_u	u	n/a
294.793	0.135	589586	keystroke_a	a	n/a
294.913	0.06	589826	keystroke_n	n	n/a
296.368	0.12	592736	keystroke_Key.space	Key.space	n/a
296.623	0.09	593246	keystroke_w	w	n/a
296.728	0.06	593456	keystroke_i	i	n/a
296.938	0.045	593876	keystroke_l	l	n/a
297.073	0.06	594146	keystroke_l	l	n/a
297.208	0.09	594416	keystroke_i	i	n/a
297.373	0.12	594746	keystroke_a	a	n/a
297.943	0.075	595886	keystroke_m	m	n/a
298.333	0.105	596666	keystroke_Key.enter	Key.enter	n/a
298.4485	8.992	596897	prompt	n/a	urban griffin suspension proceeds\n
299.188	0.06	598376	keystroke_u	u	n/a
299.353	0.075	598706	keystroke_r	r	n/a
299.578	0.045	599156	keystroke_b	b	n/a
299.713	0.105	599426	keystroke_a	a	n/a
299.803	0.075	599606	keystroke_n	n	n/a
300.088	0.09	600176	keystroke_Key.space	Key.space	n/a
300.628	0.075	601256	keystroke_g	g	n/a
300.838	0.03	601676	keystroke_r	r	n/a
300.928	0.06	601856	keystroke_i	i	n/a
301.048	0.075	602096	keystroke_f	f	n/a
301.183	0.09	602366	keystroke_f	f	n/a
301.303	0.075	602606	keystroke_i	i	n/a
301.408	0.075	602816	keystroke_n	n	n/a
301.888	0.045	603776	keystroke_Key.space	Key.space	n/a
302.143	0.075	604286	keystroke_s	s	n/a
302.263	0.075	604526	keystroke_u	u	n/a
302.398	0.075	604796	keystroke_s	s	n/a
302.593	0.09	605186	keystroke_p	p	n/a
302.773	0.075	605546	keystroke_e	e	n/a
302.893	0.075	605786	keystroke_n	n	n/a
303.059	0.089	606118	keystroke_s	s	n/a
303.164	0.104	606328	keystroke_i	i	n/a
303.269	0.119	606538	keystroke_o	o	n/a
303.358	0.09	606716	keystroke_n	n	n/a
303.583	0.09	607166	keystroke_Key.space	Key.space	n/a
303.823	0.075	607646	keystroke_p	p	n/a
303.913	0.075	607826	keystroke_r	r	n/a
304.033	0.075	608066	keystroke_o	o	n/a
304.183	0.09	608366	keystroke_c	c	n/a
304.318	0.075	608636	keystroke_e	e	n/a
304.513	0.075	609026	keystroke_d	d	n/a
305.638	0.09	611276	keystroke_Key.backspace	Key.backspace	n/a
306.448	0.06	612896	keystroke_e	e	n/a
306.613	0.09	613226	keystroke_d	d	n/a
306.718	0.105	613436	keystroke_s	s	n/a
307.363	0.075	614726	keystroke_Key.enter	Key.enter	n/a
307.449	7.206	614898	prompt	n/a	promoting any buck butler\n
308.113	0.105	616226	keystroke_p	p	n/a
308.233	0.09	616466	keystroke_r	r	n/a
308.338	0.06	616676	keystroke_o	o	n/a
308.578	0.06	617156	keystroke_m	m	n/a
308.788	0.045	617576	keystroke_o	o	n/a
309.043	0.045	618086	keystroke_t	t	n/a
309.238	0.075	618476	keystroke_i	i	n/a
309.358	0.06	618716	keystroke_n	n	n/a
309.433	0.06	618866	keystroke_g	g	n/a
309.703	0.105	619406	keystroke_Key.space	Key.space	n/a
310.333	0.105	620666	keystroke_a	a	n/a
310.453	0.03	620906	keystroke_n	n	n/a
310.619	0.059	621238	keystroke_y	y	n/a
310.858	0.06	621716	keystroke_Key.space	Key.space	n/a
311.143	0.045	622286	keystroke_b	b	n/a
311.293	0.09	622586	keystroke_u	u	n/a
311.533	0.09	623066	keystroke_c	c	n/a
311.803	0.075	623606	keystroke_k	k	n/a
312.388	0.06	624776	keystroke_Key.space	Key.space	n/a
312.703	0.015	625406	keystroke_b	b	n/a
313.003	0.06	626006	keystroke_u	u	n/a
313.558	0.06	627116	keystroke_t	t	n/a
313.813	0.06	627626	keystroke_l	l	n/a
313.903	0.09	627806	keystroke_e	e	n/a
313.978	0.09	627956	keystroke_r	r	n/a
314.563	0.09	629126	keystroke_Key.enter	Key.enter	n/a
314.66	8.845	629320	prompt	n/a	mercy resource brunei exercises\n
315.3725	0.0755	630745	keystroke_m	m	n/a
315.493	0.1045	630986	keystroke_e	e	n/a
315.5825	0.1055	631165	keystroke_r	r	n/a
315.794	0.089	631588	keystroke_c	c	n/a
315.8975	0.06	631795	keystroke_y	y	n/a
316.1225	0.12	632245	keystroke_Key.space	Key.space	n/a
316.738	0.15	633476	keystroke_r	r	n/a
316.858	0.0595	633716	keystroke_e	e	n/a
317.0375	0.09	634075	keystroke_s	s	n/a
317.1875	0.09	634375	keystroke_o	o	n/a
317.3075	0.075	634615	keystroke_u	u	n/a
317.3375	0.0755	634675	keystroke_r	r	n/a
317.608	0.1195	635216	keystroke_c	c	n/a
317.7125	0.075	635425	keystroke_e	e	n/a
317.9975	0.075	635995	keystroke_Key.space	Key.space	n/a
318.4625	0.06	636925	keystroke_b	b	n/a
318.6575	0.06	637315	keystroke_r	r	n/a
318.8675	0.06	637735	keystroke_u	u	n/a
319.1825	0.06	638365	keystroke_n	n	n/a
319.4375	0.06	638875	keystroke_e	e	n/a
319.5425	0.09	639085	keystroke_i	i	n/a
320.0225	0.09	640045	keystroke_Key.space	Key.space	n/a
320.2625	0.075	640525	keystroke_e	e	n/a
320.4875	0.06	640975	keystroke_x	x	n/a
321.3125	0.12	642625	keystroke_e	e	n/a
321.3875	0.106	642775	keystroke_r	r	n/a
321.6585	0.074	643317	keystroke_c	c	n/a
321.7485	0.059	643497	keystroke_i	i	n/a
321.9275	0.075	643855	keystroke_s	s	n/a
322.0185	0.059	644037	keystroke_e	e	n/a
322.1535	0.09	644307	keystroke_s	s	n/a
323.4135	0.089	646827	keystroke_Key.enter	Key.enter	n/a
323.5095	9.946	647019	prompt	n/a	configuring greetings phase alabama\n
324.1485	0.075	648297	keystroke_c	c	n/a
324.2525	0.06	648505	keystroke_o	o	n/a
324.3735	0.075	648747	keystroke_n	n	n/a
324.4785	0.105	648957	keystroke_f	f	n/a
324.8535	0.075	649707	keystroke_i	i	n/a
325.0475	0.046	650095	keystroke_g	g	n/a
325.648	0.045	651296	keystroke_u	u	n/a
326.203	0.075	652406	keystroke_r	r	n/a
326.518	0.06	653036	keystroke_i	i	n/a
326.593	0.06	653186	keystroke_n	n	n/a
326.683	0.075	653366	keystroke_g	g	n/a
326.818	0.075	653636	keystroke_Key.space	Key.space	n/a
327.854	0.074	655708	keystroke_g	g	n/a
328.138	0.06	656276	keystroke_r	r	n/a
328.288	0.06	656576	keystroke_e	e	n/a
328.438	0.105	656876	keystroke_e	e	n/a
328.633	0.045	657266	keystroke_t	t	n/a
328.723	0.09	657446	keystroke_i	i	n/a
328.828	0.09	657656	keystroke_n	n	n/a
328.903	0.06	657806	keystroke_g	g	n/a
329.038	0.09	658076	keystroke_s	s	n/a
329.338	0.075	658676	keystroke_Key.space	Key.space	n/a
329.833	0.105	659666	keystroke_p	p	n/a
329.953	0.075	659906	keystroke_h	h	n/a
330.088	0.135	660176	keystroke_a	a	n/a
330.193	0.12	660386	keystroke_s	s	n/a
330.283	0.09	660566	keystroke_e	e	n/a
330.568	0.09	661136	keystroke_Key.space	Key.space	n/a
331.003	0.12	662006	keystroke_a	a	n/a
331.138	0.0605	662276	keystroke_l	l	n/a
331.3485	0.1055	662697	keystroke_a	a	n/a
331.529	0.0755	663058	keystroke_b	b	n/a
331.6795	0.1055	663359	keystroke_a	a	n/a
331.86	0.0755	663720	keystroke_m	m	n/a
331.9655	0.09	663931	keystroke_a	a	n/a
333.364	0.0905	666728	keystroke_Key.enter	Key.enter	n/a
333.4625	14.914	666925	prompt	n/a	warranty rendering fighter earrings\n
334.6875	0.0905	669375	keystroke_w	w	n/a
334.9135	0.09	669827	keystroke_a	a	n/a
335.079	0.045	670158	keystroke_r	r	n/a
335.3045	0.015	670609	keystroke_r	r	n/a
335.3945	0.1055	670789	keystroke_a	a	n/a
335.485	0.06	670970	keystroke_n	n	n/a
335.6055	0.045	671211	keystroke_t	t	n/a
335.7255	0.06	671451	keystroke_y	y	n/a
335.9665	0.075	671933	keystroke_Key.space	Key.space	n/a
336.267	0.1055	672534	keystroke_r	r	n/a
336.3425	0.105	672685	keystroke_e	e	n/a
336.7035	0.06	673407	keystroke_n	n	n/a
336.7935	0.06	673587	keystroke_d	d	n/a
336.914	0.09	673828	keystroke_i	i	n/a
337.019	0.0605	674038	keystroke_n	n	n/a
337.8015	0.075	675603	keystroke_Key.backspace	Key.backspace	n/a
337.9965	0.0755	675993	keystroke_Key.backspace	Key.backspace	n/a
338.418	0.105	676836	keystroke_e	e	n/a
338.508	0.0905	677016	keystroke_r	r	n/a
338.6585	0.0755	677317	keystroke_i	i	n/a
338.779	0.09	677558	keystroke_n	n	n/a
338.854	0.0605	677708	keystroke_g	g	n/a
339.185	0.1055	678370	keystroke_Key.space	Key.space	n/a
339.456	0.075	678912	keystroke_f	f	n/a
339.576	0.0755	679152	keystroke_l	l	n/a
339.7415	0.0755	679483	keystroke_i	i	n/a
339.847	0.06	679694	keystroke_g	g	n/a
339.952	0.045	679904	keystroke_h	h	n/a
340.0875	0.0905	680175	keystroke_e	e	n/a
340.163	0.075	680326	keystroke_r	r	n/a
340.4035	0.09	680807	keystroke_Key.space	Key.space	n/a
341.5915	0.0755	683183	keystroke_Key.backspace	Key.backspace	n/a
341.772	0.0755	683544	keystroke_Key.backspace	Key.backspace	n/a
341.9825	0.06	683965	keystroke_Key.backspace	Key.backspace	n/a
342.163	0.0905	684326	keystroke_Key.backspace	Key.backspace	n/a
342.3585	0.0905	684717	keystroke_Key.backspace	Key.backspace	n/a
342.524	0.1055	685048	keystroke_Key.backspace	Key.backspace	n/a
342.7045	0.0905	685409	keystroke_Key.backspace	Key.backspace	n/a
343.246	0.0755	686492	keystroke_i	i	n/a
343.5015	0.0905	687003	keystroke_g	g	n/a
343.637	0.0755	687274	keystroke_h	h	n/a
344.1635	0.0605	688327	keystroke_t	t	n/a
344.389	0.1205	688778	keystroke_e	e	n/a
344.4945	0.075	688989	keystroke_r	r	n/a
344.75	0.1205	689500	keystroke_Key.space	Key.space	n/a
345.3065	0.0755	690613	keystroke_e	e	n/a
345.532	0.1055	691064	keystroke_a	a	n/a
345.5925	0.0905	691185	keystroke_r	r	n/a
346.841	0.075	693682	keystroke_r	r	n/a
347.0965	0.045	694193	keystroke_i	i	n/a
347.1565	0.0755	694313	keystroke_n	n	n/a
347.262	0.06	694524	keystroke_g	g	n/a
347.382	0.0905	694764	keystroke_s	s	n/a
348.2545	0.1205	696509	keystroke_Key.enter	Key.enter	n/a
348.3825	11.348	696765	prompt	n/a	transaction radios unix semester\n
349.0665	0.015	698133	keystroke_t	t	n/a
349.232	0.0305	698464	keystroke_r	r	n/a
350.1495	0.0905	700299	keystroke_Key.backspace	Key.backspace	n/a
350.8865	0.09	701773	keystroke_r	r	n/a
351.097	0.09	702194	keystroke_a	a	n/a
351.202	0.0605	702404	keystroke_n	n	n/a
351.3525	0.1205	702705	keystroke_s	s	n/a
351.924	0.09	703848	keystroke_a	a	n/a
352.2095	0.06	704419	keystroke_c	c	n/a
353.262	0.0605	706524	keystroke_t	t	n/a
353.488	0.075	706976	keystroke_i	i	n/a
353.6835	0.12	707367	keystroke_o	o	n/a
353.7735	0.1055	707547	keystroke_n	n	n/a
354.1045	0.09	708209	keystroke_Key.space	Key.space	n/a
354.33	0.0605	708660	keystroke_r	r	n/a
354.4355	0.12	708871	keystroke_a	a	n/a
354.646	0.075	709292	keystroke_d	d	n/a
354.781	0.0755	709562	keystroke_i	i	n/a
355.488	0.0755	710976	keystroke_o	o	n/a
355.6985	0.075	711397	keystroke_s	s	n/a
355.9845	0.12	711969	keystroke_Key.space	Key.space	n/a
356.526	0.045	713052	keystroke_u	u	n/a
356.8715	0.06	713743	keystroke_n	n	n/a
357.097	0.0605	714194	keystroke_i	i	n/a
357.2175	0.075	714435	keystroke_x	x	n/a
357.443	0.0905	714886	keystroke_Key.space	Key.space	n/a
357.729	0.015	715458	keystroke_s	s	n/a
357.789	0.075	715578	keystroke_e	e	n/a
358.0145	0.0755	716029	keystroke_m	m	n/a
358.195	0.06	716390	keystroke_e	e	n/a
358.4205	0.09	716841	keystroke_s	s	n/a
358.646	0.0605	717292	keystroke_t	t	n/a
358.8865	0.1055	717773	keystroke_e	e	n/a
358.9765	0.0605	717953	keystroke_r	r	n/a
359.639	0.09	719278	keystroke_Key.enter	Key.enter	n/a
359.7355	12.3695	719471	prompt	n/a	getting lucas dream performances\n
360.3755	0.075	720751	keystroke_g	g	n/a
360.601	0.0755	721202	keystroke_e	e	n/a
360.8115	0.03	721623	keystroke_t	t	n/a
360.947	0.075	721894	keystroke_t	t	n/a
361.278	0.075	722556	keystroke_i	i	n/a
361.428	0.075	722856	keystroke_n	n	n/a
361.518	0.0905	723036	keystroke_g	g	n/a
361.714	0.105	723428	keystroke_Key.space	Key.space	n/a
361.9395	0.09	723879	keystroke_l	l	n/a
362.0745	0.045	724149	keystroke_u	u	n/a
362.2705	0.09	724541	keystroke_c	c	n/a
362.4505	0.1655	724901	keystroke_a	a	n/a
362.5855	0.0905	725171	keystroke_s	s	n/a
362.8265	0.09	725653	keystroke_Key.space	Key.space	n/a
362.992	0.075	725984	keystroke_d	d	n/a
363.187	0.151	726374	keystroke_r	r	n/a
363.323	0.105	726646	keystroke_e	e	n/a
363.608	0.0905	727216	keystroke_a	a	n/a
363.774	0.06	727548	keystroke_m	m	n/a
364.4205	0.105	728841	keystroke_Key.space	Key.space	n/a
364.8865	0.09	729773	keystroke_p	p	n/a
364.992	0.135	729984	keystroke_e	e	n/a
365.082	0.12	730164	keystroke_r	r	n/a
365.413	0.09	730826	keystroke_f	f	n/a
366.4955	0.09	732991	keystroke_o	o	n/a
366.6005	0.075	733201	keystroke_r	r	n/a
366.7955	0.076	733591	keystroke_m	m	n/a
367.081	0.061	734162	keystroke_n	n	n/a
368.1785	0.075	736357	keystroke_Key.backspace	Key.backspace	n/a
370.7385	0.057	741477	keystroke_a	a	n/a
370.7965	0.058	741593	keystroke_n	n	n/a
370.8995	0.075	741799	keystroke_c	c	n/a
371.05	0.075	742100	keystroke_e	e	n/a
371.2315	0.075	742463	keystroke_s	s	n/a
372.0125	0.09	744025	keystroke_Key.enter	Key.enter	n/a
372.1115	7.614	744223	prompt	n/a	remind aerospace examining pink\n
372.7335	0.09	745467	keystroke_r	r	n/a
372.8085	0.09	745617	keystroke_e	e	n/a
373.0195	0.075	746039	keystroke_m	m	n/a
373.2145	0.075	746429	keystroke_i	i	n/a
373.3345	0.076	746669	keystroke_n	n	n/a
373.4395	0.076	746879	keystroke_d	d	n/a
373.7855	0.1055	747571	keystroke_Key.space	Key.space	n/a
374.1315	0.1655	748263	keystroke_a	a	n/a
374.282	0.105	748564	keystroke_e	e	n/a
374.478	0.075	748956	keystroke_r	r	n/a
374.614	0.075	749228	keystroke_o	o	n/a
375.003	0.0915	750006	keystroke_s	s	n/a
375.364	0.105	750728	keystroke_p	p	n/a
375.5	0.1345	751000	keystroke_a	a	n/a
375.6195	0.1205	751239	keystroke_c	c	n/a
375.726	0.09	751452	keystroke_e	e	n/a
376.4165	0.12	752833	keystroke_Key.space	Key.space	n/a
376.6565	0.0915	753313	keystroke_e	e	n/a
377.0175	0.075	754035	keystroke_x	x	n/a
377.304	0.1055	754608	keystroke_a	a	n/a
377.4395	0.09	754879	keystroke_m	m	n/a
377.6495	0.045	755299	keystroke_i	i	n/a
377.7235	0.077	755447	keystroke_n	n	n/a
377.8305	0.06	755661	keystroke_g	g	n/a
378.3865	0.089	756773	keystroke_p	p	n/a
378.5815	0.075	757163	keystroke_i	i	n/a
378.732	0.0905	757464	keystroke_n	n	n/a
378.8525	0.06	757705	keystroke_k	k	n/a
379.6175	0.1055	759235	keystroke_Key.enter	Key.enter	n/a
379.7295	10.6065	759459	prompt	n/a	purse frequent collectibles victory\n
380.5645	0.105	761129	keystroke_p	p	n/a
380.7145	0.075	761429	keystroke_u	u	n/a
380.8055	0.076	761611	keystroke_r	r	n/a
381.0005	0.12	762001	keystroke_s	s	n/a
381.0905	0.091	762181	keystroke_e	e	n/a
381.406	0.1355	762812	keystroke_Key.space	Key.space	n/a
381.9915	0.076	763983	keystroke_f	f	n/a
382.188	0.105	764376	keystroke_r	r	n/a
382.247	0.12	764494	keystroke_e	e	n/a
382.472	0.091	764944	keystroke_q	q	n/a
382.608	0.06	765216	keystroke_u	u	n/a
382.772	0.0615	765544	keystroke_e	e	n/a
382.9375	0.0455	765875	keystroke_n	n	n/a
383.012	0.061	766024	keystroke_t	t	n/a
383.642	0.09	767284	keystroke_Key.space	Key.space	n/a
383.867	0.0765	767734	keystroke_c	c	n/a
384.228	0.075	768456	keystroke_l	l	n/a
385.083	0.043	770166	keystroke_Key.backspace	Key.backspace	n/a
385.4125	0.074	770825	keystroke_o	o	n/a
385.726	0.061	771452	keystroke_l	l	n/a
385.847	0.09	771694	keystroke_l	l	n/a
386.087	0.0895	772174	keystroke_e	e	n/a
386.3265	0.0605	772653	keystroke_c	c	n/a
386.552	0.06	773104	keystroke_t	t	n/a
386.6415	0.045	773283	keystroke_i	i	n/a
386.8215	0.0455	773643	keystroke_b	b	n/a
387.016	0.076	774032	keystroke_l	l	n/a
387.1365	0.059	774273	keystroke_e	e	n/a
387.3165	0.09	774633	keystroke_s	s	n/a
387.9905	0.121	775981	keystroke_Key.space	Key.space	n/a
388.7555	0.0895	777511	keystroke_v	v	n/a
388.875	0.076	777750	keystroke_i	i	n/a
389.011	0.075	778022	keystroke_c	c	n/a
389.2505	0.075	778501	keystroke_t	t	n/a
389.3405	0.075	778681	keystroke_o	o	n/a
389.4895	0.075	778979	keystroke_r	r	n/a
389.581	0.06	779162	keystroke_y	y	n/a
390.2095	0.12	780419	keystroke_Key.enter	Key.enter	n/a
390.336	9.322	780672	prompt	n/a	arts interference stretch guatemala\n
391.0795	0.1195	782159	keystroke_a	a	n/a
391.214	0.06	782428	keystroke_r	r	n/a
391.394	0.06	782788	keystroke_t	t	n/a
391.574	0.075	783148	keystroke_s	s	n/a
391.933	0.106	783866	keystroke_Key.space	Key.space	n/a
392.579	0.06	785158	keystroke_i	i	n/a
392.684	0.074	785368	keystroke_n	n	n/a
392.9535	0.09	785907	keystroke_t	t	n/a
393.1635	0.1195	786327	keystroke_e	e	n/a
393.2535	0.1045	786507	keystroke_r	r	n/a
393.522	0.091	787044	keystroke_f	f	n/a
393.7335	0.0895	787467	keystroke_e	e	n/a
393.808	0.1355	787616	keystroke_r	r	n/a
393.9435	0.075	787887	keystroke_e	e	n/a
394.1085	0.06	788217	keystroke_n	n	n/a
394.1835	0.1345	788367	keystroke_c	c	n/a
394.303	0.075	788606	keystroke_e	e	n/a
394.513	0.104	789026	keystroke_Key.space	Key.space	n/a
394.9325	0.09	789865	keystroke_s	s	n/a
395.0675	0.075	790135	keystroke_t	t	n/a
395.2775	0.1045	790555	keystroke_r	r	n/a
395.367	0.0755	790734	keystroke_e	e	n/a
395.5925	0.074	791185	keystroke_t	t	n/a
395.8025	0.0745	791605	keystroke_c	c	n/a
395.892	0.06	791784	keystroke_h	h	n/a
396.191	0.1215	792382	keystroke_Key.space	Key.space	n/a
396.657	0.059	793314	keystroke_g	g	n/a
397.182	0.06	794364	keystroke_u	u	n/a
397.392	0.074	794784	keystroke_a	a	n/a
397.692	0.06	795384	keystroke_t	t	n/a
398.1565	0.045	796313	keystroke_e	e	n/a
398.3665	0.045	796733	keystroke_m	m	n/a
398.546	0.045	797092	keystroke_a	a	n/a
398.786	0.075	797572	keystroke_l	l	n/a
398.891	0.09	797782	keystroke_a	a	n/a
399.55	0.1055	799100	keystroke_Key.enter	Key.enter	n/a
399.663	17.4155	799326	prompt	n/a	qualify buses layers synopsis\n
400.8405	0.09	801681	keystroke_q	q	n/a
401.0495	0.0605	802099	keystroke_u	u	n/a
401.215	0.105	802430	keystroke_a	a	n/a
401.9495	0.045	803899	keystroke_l	l	n/a
402.2345	0.045	804469	keystroke_f	f	n/a
402.4295	0.075	804859	keystroke_i	i	n/a
403.179	0.075	806358	keystroke_Key.backspace	Key.backspace	n/a
403.358	0.06	806716	keystroke_Key.backspace	Key.backspace	n/a
403.374	0.03	806748	keystroke_=	=	n/a
404.064	0.06	808128	keystroke_Key.backspace	Key.backspace	n/a
404.9035	0.09	809807	keystroke_i	i	n/a
405.0075	0.091	810015	keystroke_f	f	n/a
405.1285	0.06	810257	keystroke_y	y	n/a
405.668	0.1195	811336	keystroke_Key.space	Key.space	n/a
406.0725	0.03	812145	keystroke_b	b	n/a
406.1325	0.075	812265	keystroke_e	e	n/a
406.972	0.075	813944	keystroke_Key.backspace	Key.backspace	n/a
407.2875	0.045	814575	keystroke_u	u	n/a
407.437	0.105	814874	keystroke_s	s	n/a
408.262	0.06	816524	keystroke_e	e	n/a
408.3965	0.09	816793	keystroke_s	s	n/a
408.7115	0.105	817423	keystroke_Key.space	Key.space	n/a
409.341	0.06	818682	keystroke_l	l	n/a
409.4305	0.105	818861	keystroke_a	a	n/a
409.6555	0.075	819311	keystroke_y	y	n/a
409.8505	0.09	819701	keystroke_e	e	n/a
409.9255	0.09	819851	keystroke_r	r	n/a
410.0905	0.09	820181	keystroke_s	s	n/a
410.2855	0.075	820571	keystroke_Key.space	Key.space	n/a
410.45	0.105	820900	keystroke_s	s	n/a
410.795	0.06	821590	keystroke_y	y	n/a
411.335	0.045	822670	keystroke_n	n	n/a
412.0995	0.09	824199	keystroke_o	o	n/a
413.314	0.105	826628	keystroke_p	p	n/a
413.5535	0.09	827107	keystroke_s	s	n/a
413.6585	0.06	827317	keystroke_i	i	n/a
413.7635	0.09	827527	keystroke_s	s	n/a
417.0495	0.0265	834099	keystroke_Key.enter	Key.enter	n/a
417.0855	9.26	834171	prompt	n/a	refused biographies angels lane\n
417.736	0.075	835472	keystroke_r	r	n/a
417.826	0.075	835652	keystroke_e	e	n/a
417.976	0.09	835952	keystroke_f	f	n/a
418.126	0.045	836252	keystroke_u	u	n/a
418.231	0.105	836462	keystroke_s	s	n/a
418.321	0.075	836642	keystroke_e	e	n/a
418.471	0.075	836942	keystroke_d	d	n/a
419.116	0.1045	838232	keystroke_Key.space	Key.space	n/a
419.3555	0.06	838711	keystroke_b	b	n/a
419.5805	0.075	839161	keystroke_i	i	n/a
419.9255	0.0595	839851	keystroke_o	o	n/a
420.075	0.0605	840150	keystroke_g	g	n/a
420.255	0.075	840510	keystroke_r	r	n/a
420.405	0.09	840810	keystroke_a	a	n/a
420.51	0.12	841020	keystroke_p	p	n/a
420.69	0.0595	841380	keystroke_h	h	n/a
421.1845	0.06	842369	keystroke_i	i	n/a
421.2745	0.06	842549	keystroke_e	e	n/a
421.4245	0.09	842849	keystroke_s	s	n/a
421.6795	0.0895	843359	keystroke_Key.space	Key.space	n/a
422.069	0.075	844138	keystroke_a	a	n/a
422.129	0.045	844258	keystroke_n	n	n/a
422.279	0.075	844558	keystroke_g	g	n/a
422.564	0.06	845128	keystroke_e	e	n/a
424.3175	0.075	848635	keystroke_l	l	n/a
424.4225	0.105	848845	keystroke_s	s	n/a
424.9325	0.105	849865	keystroke_Key.space	Key.space	n/a
425.352	0.075	850704	keystroke_l	l	n/a
425.442	0.09	850884	keystroke_a	a	n/a
425.577	0.06	851154	keystroke_n	n	n/a
425.668	0.06	851336	keystroke_e	e	n/a
426.253	0.089	852506	keystroke_Key.enter	Key.enter	n/a
426.351	8.3585	852702	prompt	n/a	manager stack fastest constructed\n
427.241	0.045	854482	keystroke_m	m	n/a
427.391	0.046	854782	keystroke_a	a	n/a
427.4805	0.045	854961	keystroke_n	n	n/a
427.5865	0.119	855173	keystroke_a	a	n/a
427.6615	0.119	855323	keystroke_g	g	n/a
427.7955	0.09	855591	keystroke_e	e	n/a
428.3055	0.06	856611	keystroke_r	r	n/a
428.59	0.105	857180	keystroke_Key.space	Key.space	n/a
428.861	0.105	857722	keystroke_s	s	n/a
428.951	0.0735	857902	keystroke_t	t	n/a
429.1905	0.135	858381	keystroke_a	a	n/a
429.2805	0.104	858561	keystroke_c	c	n/a
429.4595	0.076	858919	keystroke_k	k	n/a
429.744	0.105	859488	keystroke_Key.space	Key.space	n/a
430.494	0.0905	860988	keystroke_f	f	n/a
430.7785	0.105	861557	keystroke_a	a	n/a
430.8535	0.166	861707	keystroke_s	s	n/a
431.0035	0.061	862007	keystroke_t	t	n/a
431.2595	0.074	862519	keystroke_e	e	n/a
431.3935	0.151	862787	keystroke_s	s	n/a
431.5135	0.091	863027	keystroke_t	t	n/a
431.8135	0.105	863627	keystroke_Key.space	Key.space	n/a
432.188	0.0595	864376	keystroke_c	c	n/a
432.3975	0.091	864795	keystroke_o	o	n/a
432.6675	0.06	865335	keystroke_n	n	n/a
433.0275	0.091	866055	keystroke_s	s	n/a
433.1485	0.074	866297	keystroke_t	t	n/a
433.3275	0.075	866655	keystroke_r	r	n/a
433.4635	0.059	866927	keystroke_u	u	n/a
433.5525	0.061	867105	keystroke_c	c	n/a
433.7335	0.075	867467	keystroke_t	t	n/a
433.8975	0.076	867795	keystroke_e	e	n/a
434.0475	0.076	868095	keystroke_d	d	n/a
434.617	0.09	869234	keystroke_Key.enter	Key.enter	n/a
434.7145	6.262	869429	prompt	n/a	family cats jail blocked\n
435.4125	0.089	870825	keystroke_f	f	n/a
435.5325	0.12	871065	keystroke_a	a	n/a
435.6665	0.06	871333	keystroke_m	m	n/a
435.8325	0.045	871665	keystroke_i	i	n/a
436.026	0.106	872052	keystroke_l	l	n/a
436.146	0.091	872292	keystroke_y	y	n/a
436.281	0.12	872562	keystroke_Key.space	Key.space	n/a
436.642	0.0895	873284	keystroke_c	c	n/a
436.746	0.1655	873492	keystroke_a	a	n/a
436.8955	0.075	873791	keystroke_t	t	n/a
437.0315	0.075	874063	keystroke_s	s	n/a
437.2255	0.106	874451	keystroke_Key.space	Key.space	n/a
437.465	0.06	874930	keystroke_j	j	n/a
437.571	0.105	875142	keystroke_a	a	n/a
437.856	0.045	875712	keystroke_i	i	n/a
438.066	0.059	876132	keystroke_l	l	n/a
438.29	0.06	876580	keystroke_Key.space	Key.space	n/a
438.4995	0.045	876999	keystroke_b	b	n/a
438.6645	0.061	877329	keystroke_l	l	n/a
438.845	0.061	877690	keystroke_o	o	n/a
438.935	0.0595	877870	keystroke_c	c	n/a
439.086	0.0745	878172	keystroke_k	k	n/a
439.94	0.045	879880	keystroke_e	e	n/a
440.0895	0.06	880179	keystroke_d	d	n/a
440.884	0.09	881768	keystroke_Key.enter	Key.enter	n/a
440.981	6.0765	881962	prompt	n/a	secret clip magic retain\n
441.679	0.105	883358	keystroke_s	s	n/a
441.785	0.089	883570	keystroke_e	e	n/a
441.994	0.06	883988	keystroke_c	c	n/a
442.2485	0.09	884497	keystroke_r	r	n/a
442.4885	0.09	884977	keystroke_e	e	n/a
442.6085	0.075	885217	keystroke_t	t	n/a
442.9085	0.045	885817	keystroke_Key.space	Key.space	n/a
443.238	0.09	886476	keystroke_c	c	n/a
443.523	0.0895	887046	keystroke_l	l	n/a
443.7925	0.105	887585	keystroke_i	i	n/a
443.9275	0.105	887855	keystroke_p	p	n/a
444.1675	0.09	888335	keystroke_Key.space	Key.space	n/a
444.4825	0.06	888965	keystroke_m	m	n/a
444.6025	0.105	889205	keystroke_a	a	n/a
444.7375	0.075	889475	keystroke_g	g	n/a
444.9775	0.06	889955	keystroke_i	i	n/a
445.0075	0.09	890015	keystroke_c	c	n/a
445.307	0.105	890614	keystroke_Key.space	Key.space	n/a
445.8165	0.105	891633	keystroke_r	r	n/a
445.9065	0.075	891813	keystroke_e	e	n/a
446.0565	0.075	892113	keystroke_t	t	n/a
446.206	0.09	892412	keystroke_a	a	n/a
446.341	0.09	892682	keystroke_i	i	n/a
446.476	0.075	892952	keystroke_n	n	n/a
446.956	0.09	893912	keystroke_Key.enter	Key.enter	n/a
447.063	5.172	894126	prompt	n/a	bean likes pumps the\n
447.7355	0.06	895471	keystroke_b	b	n/a
447.8405	0.075	895681	keystroke_e	e	n/a
448.32	0.075	896640	keystroke_a	a	n/a
448.44	0.06	896880	keystroke_n	n	n/a
448.725	0.09	897450	keystroke_Key.space	Key.space	n/a
449.115	0.09	898230	keystroke_l	l	n/a
449.235	0.0745	898470	keystroke_i	i	n/a
449.4595	0.045	898919	keystroke_k	k	n/a
449.5645	0.06	899129	keystroke_e	e	n/a
449.7295	0.105	899459	keystroke_s	s	n/a
449.8945	0.06	899789	keystroke_Key.space	Key.space	n/a
450.0745	0.15	900149	keystroke_p	p	n/a
450.2095	0.075	900419	keystroke_u	u	n/a
450.464	0.075	900928	keystroke_m	m	n/a
450.614	0.09	901228	keystroke_p	p	n/a
450.734	0.09	901468	keystroke_s	s	n/a
450.9735	0.06	901947	keystroke_Key.space	Key.space	n/a
451.2585	0.06	902517	keystroke_t	t	n/a
451.3785	0.06	902757	keystroke_h	h	n/a
451.4535	0.09	902907	keystroke_e	e	n/a
452.113	0.12	904226	keystroke_Key.enter	Key.enter	n/a
452.2395	15.802	904479	prompt	n/a	vitamin beverly traveler requiring\n
453.0125	0.045	906025	keystroke_v	v	n/a
453.0875	0.075	906175	keystroke_i	i	n/a
453.2675	0.045	906535	keystroke_t	t	n/a
453.4175	0.105	906835	keystroke_a	a	n/a
453.7025	0.075	907405	keystroke_m	m	n/a
454.3025	0.0595	908605	keystroke_i	i	n/a
454.392	0.075	908784	keystroke_n	n	n/a
454.707	0.075	909414	keystroke_Key.space	Key.space	n/a
455.4275	0.015	910855	keystroke_b	b	n/a
455.4875	0.0745	910975	keystroke_e	e	n/a
455.742	0.075	911484	keystroke_v	v	n/a
455.922	0.09	911844	keystroke_e	e	n/a
455.997	0.0895	911994	keystroke_r	r	n/a
456.2815	0.105	912563	keystroke_l	l	n/a
456.4165	0.09	912833	keystroke_y	y	n/a
456.805	0.061	913610	keystroke_Key.space	Key.space	n/a
457.376	0.045	914752	keystroke_r	r	n/a
458.305	0.105	916610	keystroke_Key.backspace	Key.backspace	n/a
458.455	0.044	916910	keystroke_t	t	n/a
458.62	0.075	917240	keystroke_r	r	n/a
458.77	0.135	917540	keystroke_a	a	n/a
459.1595	0.06	918319	keystroke_v	v	n/a
459.6545	0.09	919309	keystroke_e	e	n/a
459.924	0.0755	919848	keystroke_l	l	n/a
460.0145	0.0895	920029	keystroke_e	e	n/a
460.119	0.075	920238	keystroke_r	r	n/a
460.628	0.091	921256	keystroke_Key.space	Key.space	n/a
460.794	0.135	921588	keystroke_r	r	n/a
460.914	0.09	921828	keystroke_e	e	n/a
461.0635	0.12	922127	keystroke_q	q	n/a
461.4085	0.06	922817	keystroke_i	i	n/a
461.5435	0.075	923087	keystroke_r	r	n/a
462.668	0.12	925336	keystroke_Key.backspace	Key.backspace	n/a
462.878	0.09	925756	keystroke_Key.backspace	Key.backspace	n/a
464.1825	0.09	928365	keystroke_u	u	n/a
465.0065	0.06	930013	keystroke_i	i	n/a
465.1115	0.075	930223	keystroke_r	r	n/a
465.3365	0.015	930673	keystroke_i	i	n/a
465.3665	0.06	930733	keystroke_n	n	n/a
465.4415	0.045	930883	keystroke_g	g	n/a
468.023	0.012	936046	keystroke_Key.enter	Key.enter	n/a
468.0415	9.142	936083	prompt	n/a	beat potentially travis print\n
468.7995	0.06	937599	keystroke_b	b	n/a
469.0545	0.06	938109	keystroke_e	e	n/a
469.2495	0.135	938499	keystroke_a	a	n/a
469.3855	0.029	938771	keystroke_t	t	n/a
469.579	0.09	939158	keystroke_Key.space	Key.space	n/a
470.674	0.135	941348	keystroke_o	o	n/a
470.9135	0.105	941827	keystroke_p	p	n/a
471.858	0.09	943716	keystroke_Key.backspace	Key.backspace	n/a
472.0225	0.075	944045	keystroke_Key.backspace	Key.backspace	n/a
472.3075	0.09	944615	keystroke_p	p	n/a
472.5625	0.09	945125	keystroke_o	o	n/a
472.6975	0.06	945395	keystroke_t	t	n/a
472.8635	0.089	945727	keystroke_e	e	n/a
472.9675	0.06	945935	keystroke_n	n	n/a
473.1025	0.075	946205	keystroke_t	t	n/a
473.2075	0.075	946415	keystroke_i	i	n/a
473.3275	0.1195	946655	keystroke_a	a	n/a
473.432	0.045	946864	keystroke_l	l	n/a
473.552	0.12	947104	keystroke_l	l	n/a
473.702	0.09	947404	keystroke_y	y	n/a
474.062	0.09	948124	keystroke_Key.space	Key.space	n/a
474.527	0.0595	949054	keystroke_t	t	n/a
474.6915	0.075	949383	keystroke_r	r	n/a
474.8265	0.135	949653	keystroke_a	a	n/a
474.9915	0.06	949983	keystroke_v	v	n/a
475.1565	0.075	950313	keystroke_i	i	n/a
475.2475	0.089	950495	keystroke_s	s	n/a
475.5765	0.12	951153	keystroke_Key.space	Key.space	n/a
476.0565	0.1045	952113	keystroke_p	p	n/a
476.176	0.06	952352	keystroke_r	r	n/a
476.296	0.075	952592	keystroke_i	i	n/a
476.386	0.09	952772	keystroke_n	n	n/a
476.461	0.06	952922	keystroke_t	t	n/a
477.0755	0.105	954151	keystroke_Key.enter	Key.enter	n/a
477.189	9.1735	954378	prompt	n/a	lately kind thumbnails rack\n
477.87	0.075	955740	keystroke_l	l	n/a
477.991	0.119	955982	keystroke_a	a	n/a
478.08	0.136	956160	keystroke_t	t	n/a
478.2	0.091	956400	keystroke_e	e	n/a
478.321	0.104	956642	keystroke_l	l	n/a
478.47	0.09	956940	keystroke_y	y	n/a
479.1445	0.075	958289	keystroke_Key.space	Key.space	n/a
479.3845	0.075	958769	keystroke_k	k	n/a
479.5805	0.044	959161	keystroke_i	i	n/a
479.6395	0.06	959279	keystroke_n	n	n/a
479.7745	0.0595	959549	keystroke_d	d	n/a
480.4335	0.09	960867	keystroke_Key.space	Key.space	n/a
480.6735	0.075	961347	keystroke_t	t	n/a
480.7645	0.029	961529	keystroke_h	h	n/a
480.9585	0.075	961917	keystroke_u	u	n/a
481.1985	0.06	962397	keystroke_m	m	n/a
481.3185	0.075	962637	keystroke_b	b	n/a
481.873	0.061	963746	keystroke_n	n	n/a
482.023	0.076	964046	keystroke_a	a	n/a
482.113	0.046	964226	keystroke_i	i	n/a
482.263	0.075	964526	keystroke_l	l	n/a
482.368	0.075	964736	keystroke_s	s	n/a
482.668	0.09	965336	keystroke_Key.space	Key.space	n/a
483.3125	0.09	966625	keystroke_r	r	n/a
483.4775	0.165	966955	keystroke_a	a	n/a
483.6275	0.075	967255	keystroke_c	c	n/a
483.7925	0.0745	967585	keystroke_k	k	n/a
486.3595	0	972719	keystroke_Key.enter	Key.enter	n/a
486.368	7.2465	972736	prompt	n/a	skating selected means loaded\n
487.061	0.075	974122	keystroke_s	s	n/a
487.421	0.0595	974842	keystroke_k	k	n/a
487.6155	0.075	975231	keystroke_a	a	n/a
488.0805	0.075	976161	keystroke_t	t	n/a
488.2755	0.075	976551	keystroke_i	i	n/a
488.3805	0.06	976761	keystroke_n	n	n/a
488.4705	0.0595	976941	keystroke_g	g	n/a
488.98	0.0895	977960	keystroke_Key.space	Key.space	n/a
489.0995	0.105	978199	keystroke_s	s	n/a
489.2195	0.075	978439	keystroke_e	e	n/a
489.6845	0.105	979369	keystroke_l	l	n/a
489.7745	0.075	979549	keystroke_e	e	n/a
489.9845	0.06	979969	keystroke_c	c	n/a
490.1945	0.06	980389	keystroke_t	t	n/a
490.4045	0.075	980809	keystroke_e	e	n/a
490.569	0.06	981138	keystroke_d	d	n/a
491.1385	0.075	982277	keystroke_Key.space	Key.space	n/a
491.3635	0.061	982727	keystroke_m	m	n/a
491.4085	0.075	982817	keystroke_e	e	n/a
491.5435	0.136	983087	keystroke_a	a	n/a
491.6485	0.06	983297	keystroke_n	n	n/a
491.7535	0.076	983507	keystroke_s	s	n/a
491.9185	0.09	983837	keystroke_Key.space	Key.space	n/a
492.128	0.075	984256	keystroke_l	l	n/a
492.428	0.06	984856	keystroke_o	o	n/a
492.549	0.119	985098	keystroke_a	a	n/a
492.653	0.076	985306	keystroke_d	d	n/a
492.8325	0.075	985665	keystroke_e	e	n/a
492.9825	0.105	985965	keystroke_d	d	n/a
493.5225	0.09	987045	keystroke_Key.enter	Key.enter	n/a
493.619	7.192	987238	prompt	n/a	rejected burns incentive excited\n
494.257	0.075	988514	keystroke_r	r	n/a
494.347	0.06	988694	keystroke_e	e	n/a
494.497	0.076	988994	keystroke_j	j	n/a
494.602	0.0595	989204	keystroke_e	e	n/a
495.1415	0.09	990283	keystroke_c	c	n/a
495.3965	0.06	990793	keystroke_t	t	n/a
495.6065	0.03	991213	keystroke_e	e	n/a
495.7415	0.09	991483	keystroke_d	d	n/a
495.9515	0.075	991903	keystroke_Key.space	Key.space	n/a
496.206	0.06	992412	keystroke_b	b	n/a
496.431	0.06	992862	keystroke_u	u	n/a
496.582	0.059	993164	keystroke_r	r	n/a
496.731	0.045	993462	keystroke_n	n	n/a
496.821	0.09	993642	keystroke_s	s	n/a
497.076	0.1045	994152	keystroke_Key.space	Key.space	n/a
497.5405	0.075	995081	keystroke_i	i	n/a
497.6765	0.074	995353	keystroke_n	n	n/a
497.7655	0.106	995531	keystroke_c	c	n/a
497.9155	0.09	995831	keystroke_e	e	n/a
498.0065	0.044	996013	keystroke_n	n	n/a
498.1105	0.0745	996221	keystroke_t	t	n/a
498.215	0.075	996430	keystroke_i	i	n/a
498.305	0.136	996610	keystroke_v	v	n/a
498.425	0.076	996850	keystroke_e	e	n/a
498.77	0.1195	997540	keystroke_Key.space	Key.space	n/a
499.1445	0.076	998289	keystroke_e	e	n/a
499.3695	0.06	998739	keystroke_x	x	n/a
499.5495	0.09	999099	keystroke_c	c	n/a
499.6695	0.075	999339	keystroke_i	i	n/a
499.8195	0.06	999639	keystroke_t	t	n/a
499.9105	0.074	999821	keystroke_e	e	n/a
500.0595	0.09	1000119	keystroke_d	d	n/a
500.734	0.075	1001468	keystroke_Key.enter	Key.enter	n/a
500.817	7.266	1001634	prompt	n/a	warren focal chronic taking\n
501.379	0.09	1002758	keystroke_w	w	n/a
501.8735	0.135	1003747	keystroke_a	a	n/a
501.9935	0.06	1003987	keystroke_r	r	n/a
502.1445	0.074	1004289	keystroke_r	r	n/a
502.3385	0.0595	1004677	keystroke_e	e	n/a
502.443	0.075	1004886	keystroke_n	n	n/a
502.683	0.075	1005366	keystroke_Key.space	Key.space	n/a
503.163	0.075	1006326	keystroke_f	f	n/a
503.4025	0.06	1006805	keystroke_o	o	n/a
503.5075	0.136	1007015	keystroke_c	c	n/a
503.6275	0.105	1007255	keystroke_a	a	n/a
503.7475	0.075	1007495	keystroke_l	l	n/a
503.9125	0.12	1007825	keystroke_Key.space	Key.space	n/a
504.2735	0.119	1008547	keystroke_c	c	n/a
504.4075	0.061	1008815	keystroke_h	h	n/a
504.842	0.09	1009684	keystroke_r	r	n/a
504.947	0.09	1009894	keystroke_o	o	n/a
505.157	0.061	1010314	keystroke_n	n	n/a
505.322	0.0455	1010644	keystroke_i	i	n/a
505.4265	0.075	1010853	keystroke_c	c	n/a
505.7715	0.105	1011543	keystroke_Key.space	Key.space	n/a
506.2515	0.0905	1012503	keystroke_t	t	n/a
506.417	0.0745	1012834	keystroke_a	a	n/a
506.7475	0.0595	1013495	keystroke_k	k	n/a
506.927	0.075	1013854	keystroke_i	i	n/a
507.017	0.075	1014034	keystroke_n	n	n/a
507.106	0.075	1014212	keystroke_g	g	n/a
508.0055	0.075	1016011	keystroke_Key.enter	Key.enter	n/a
508.0905	7.4145	1016181	prompt	n/a	hardcover threat behalf lucas\n
508.8605	0.045	1017721	keystroke_h	h	n/a
508.9655	0.12	1017931	keystroke_a	a	n/a
509.0555	0.075	1018111	keystroke_r	r	n/a
509.205	0.09	1018410	keystroke_d	d	n/a
509.491	0.074	1018982	keystroke_c	c	n/a
509.581	0.074	1019162	keystroke_o	o	n/a
509.866	0.075	1019732	keystroke_v	v	n/a
510.075	0.075	1020150	keystroke_e	e	n/a
510.135	0.075	1020270	keystroke_r	r	n/a
510.525	0.09	1021050	keystroke_Key.space	Key.space	n/a
510.93	0.076	1021860	keystroke_t	t	n/a
511.035	0.045	1022070	keystroke_h	h	n/a
511.1395	0.135	1022279	keystroke_r	r	n/a
511.2295	0.1505	1022459	keystroke_e	e	n/a
511.395	0.12	1022790	keystroke_a	a	n/a
511.485	0.09	1022970	keystroke_t	t	n/a
511.635	0.09	1023270	keystroke_Key.space	Key.space	n/a
512.3995	0.045	1024799	keystroke_b	b	n/a
512.4595	0.075	1024919	keystroke_e	e	n/a
512.6995	0.045	1025399	keystroke_h	h	n/a
512.8045	0.105	1025609	keystroke_a	a	n/a
512.9395	0.09	1025879	keystroke_l	l	n/a
513.0145	0.09	1026029	keystroke_f	f	n/a
513.494	0.06	1026988	keystroke_Key.space	Key.space	n/a
514.004	0.105	1028008	keystroke_l	l	n/a
514.2285	0.06	1028457	keystroke_u	u	n/a
514.4085	0.105	1028817	keystroke_c	c	n/a
514.4985	0.1495	1028997	keystroke_a	a	n/a
514.6185	0.1045	1029237	keystroke_s	s	n/a
515.4125	0.09	1030825	keystroke_Key.enter	Key.enter	n/a
515.5095	12.441	1031019	prompt	n/a	anderson contemporary rope asia\n
516.357	0.136	1032714	keystroke_a	a	n/a
516.508	0.06	1033016	keystroke_n	n	n/a
516.627	0.0455	1033254	keystroke_d	d	n/a
516.792	0.105	1033584	keystroke_e	e	n/a
516.882	0.075	1033764	keystroke_r	r	n/a
517.227	0.09	1034454	keystroke_s	s	n/a
517.4365	0.061	1034873	keystroke_o	o	n/a
517.5275	0.059	1035055	keystroke_n	n	n/a
517.9765	0.075	1035953	keystroke_Key.space	Key.space	n/a
519.8965	0.074	1039793	keystroke_c	c	n/a
520.0165	0.12	1040033	keystroke_o	o	n/a
520.1515	0.074	1040303	keystroke_n	n	n/a
520.2855	0.0755	1040571	keystroke_t	t	n/a
520.391	0.075	1040782	keystroke_e	e	n/a
520.57	0.061	1041140	keystroke_m	m	n/a
520.765	0.106	1041530	keystroke_p	p	n/a
520.945	0.046	1041890	keystroke_9	9	n/a
521.29	0.076	1042580	keystroke_r	r	n/a
522.1295	0.075	1044259	keystroke_Key.backspace	Key.backspace	n/a
522.3245	0.075	1044649	keystroke_Key.backspace	Key.backspace	n/a
524.2295	0.075	1048459	keystroke_o	o	n/a
524.4845	0.09	1048969	keystroke_r	r	n/a
524.6195	0.135	1049239	keystroke_a	a	n/a
524.7095	0.09	1049419	keystroke_r	r	n/a
524.8445	0.075	1049689	keystroke_y	y	n/a
525.1135	0.105	1050227	keystroke_Key.space	Key.space	n/a
525.6245	0.074	1051249	keystroke_r	r	n/a
525.8485	0.075	1051697	keystroke_o	o	n/a
526.1045	0.075	1052209	keystroke_p	p	n/a
526.1945	0.0595	1052389	keystroke_e	e	n/a
526.388	0.0915	1052776	keystroke_Key.space	Key.space	n/a
526.854	0.15	1053708	keystroke_a	a	n/a
527.019	0.075	1054038	keystroke_s	s	n/a
527.123	0.076	1054246	keystroke_i	i	n/a
527.229	0.105	1054458	keystroke_a	a	n/a
527.8575	0.09	1055715	keystroke_Key.enter	Key.enter	n/a
527.9565	8.3305	1055913	prompt	n/a	signs payday gift song\n
528.6985	0.105	1057397	keystroke_s	s	n/a
528.8475	0.076	1057695	keystroke_i	i	n/a
528.983	0.075	1057966	keystroke_g	g	n/a
529.088	0.075	1058176	keystroke_n	n	n/a
529.1925	0.09	1058385	keystroke_s	s	n/a
529.6125	0.09	1059225	keystroke_Key.space	Key.space	n/a
530.0325	0.1495	1060065	keystroke_p	p	n/a
530.1375	0.1045	1060275	keystroke_a	a	n/a
530.243	0.074	1060486	keystroke_y	y	n/a
530.587	0.09	1061174	keystroke_d	d	n/a
530.722	0.12	1061444	keystroke_a	a	n/a
530.827	0.09	1061654	keystroke_y	y	n/a
531.1415	0.1055	1062283	keystroke_Key.space	Key.space	n/a
531.817	0.075	1063634	keystroke_g	g	n/a
531.966	0.046	1063932	keystroke_i	i	n/a
532.132	0.06	1064264	keystroke_f	f	n/a
532.5215	0.06	1065043	keystroke_t	t	n/a
532.7915	0.09	1065583	keystroke_Key.space	Key.space	n/a
532.9415	0.075	1065883	keystroke_s	s	n/a
533.0765	0.075	1066153	keystroke_o	o	n/a
533.2265	0.06	1066453	keystroke_n	n	n/a
533.3015	0.06	1066603	keystroke_g	g	n/a
536.228	0.057	1072456	keystroke_Key.enter	Key.enter	n/a
536.293	17.2535	1072586	prompt	n/a	sapphire humanitarian cookies fathers\n
542.7665	0.056	1085533	keystroke_s	s	n/a
542.9285	0.1185	1085857	keystroke_a	a	n/a
543.153	0.105	1086306	keystroke_p	p	n/a
543.362	0.105	1086724	keystroke_p	p	n/a
543.752	0.076	1087504	keystroke_i	i	n/a
543.857	0.12	1087714	keystroke_r	r	n/a
543.947	0.09	1087894	keystroke_e	e	n/a
544.112	0.075	1088224	keystroke_Key.space	Key.space	n/a
544.427	0.075	1088854	keystroke_h	h	n/a
544.727	0.075	1089454	keystroke_u	u	n/a
545.836	0.091	1091672	keystroke_m	m	n/a
546.061	0.091	1092122	keystroke_a	a	n/a
546.196	0.06	1092392	keystroke_n	n	n/a
546.301	0.076	1092602	keystroke_i	i	n/a
546.497	0.075	1092994	keystroke_t	t	n/a
546.661	0.136	1093322	keystroke_a	a	n/a
546.782	0.075	1093564	keystroke_r	r	n/a
546.916	0.06	1093832	keystroke_i	i	n/a
547.006	0.106	1094012	keystroke_a	a	n/a
547.126	0.06	1094252	keystroke_n	n	n/a
547.486	0.12	1094972	keystroke_Key.space	Key.space	n/a
547.876	0.06	1095752	keystroke_o	o	n/a
548.086	0.06	1096172	keystroke_k	k	n/a
548.236	0.09	1096472	keystroke_k	k	n/a
549.3755	0.075	1098751	keystroke_Key.backspace	Key.backspace	n/a
549.6005	0.075	1099201	keystroke_Key.backspace	Key.backspace	n/a
549.7955	0.045	1099591	keystroke_Key.backspace	Key.backspace	n/a
550.0965	0.0885	1100193	keystroke_c	c	n/a
550.365	0.06	1100730	keystroke_o	o	n/a
550.966	0.104	1101932	keystroke_o	o	n/a
551.2495	0.06	1102499	keystroke_k	k	n/a
551.5045	0.075	1103009	keystroke_i	i	n/a
551.6395	0.0755	1103279	keystroke_e	e	n/a
551.849	0.09	1103698	keystroke_s	s	n/a
552.029	0.105	1104058	keystroke_Key.space	Key.space	n/a
552.195	0.105	1104390	keystroke_f	f	n/a
552.314	0.18	1104628	keystroke_a	a	n/a
552.509	0.075	1105018	keystroke_t	t	n/a
552.644	0.06	1105288	keystroke_h	h	n/a
552.675	0.09	1105350	keystroke_e	e	n/a
552.749	0.075	1105498	keystroke_r	r	n/a
552.8835	0.106	1105767	keystroke_s	s	n/a
553.4385	0.105	1106877	keystroke_Key.enter	Key.enter	n/a
553.551	10.162	1107102	prompt	n/a	berlin palestine listening doctors\n
554.474	0.06	1108948	keystroke_b	b	n/a
554.534	0.119	1109068	keystroke_e	e	n/a
554.624	0.089	1109248	keystroke_r	r	n/a
554.863	0.075	1109726	keystroke_l	l	n/a
554.999	0.09	1109998	keystroke_i	i	n/a
555.103	0.076	1110206	keystroke_n	n	n/a
555.463	0.075	1110926	keystroke_Key.space	Key.space	n/a
555.719	0.075	1111438	keystroke_p	p	n/a
555.854	0.1045	1111708	keystroke_a	a	n/a
555.9875	0.075	1111975	keystroke_l	l	n/a
556.3035	0.059	1112607	keystroke_e	e	n/a
556.4675	0.181	1112935	keystroke_s	s	n/a
556.6175	0.061	1113235	keystroke_t	t	n/a
556.7075	0.061	1113415	keystroke_i	i	n/a
556.8125	0.075	1113625	keystroke_n	n	n/a
556.9035	0.059	1113807	keystroke_e	e	n/a
557.0525	0.0745	1114105	keystroke_Key.space	Key.space	n/a
557.247	0.076	1114494	keystroke_l	l	n/a
557.427	0.076	1114854	keystroke_i	i	n/a
557.518	0.104	1115036	keystroke_s	s	n/a
557.668	0.075	1115336	keystroke_t	t	n/a
557.757	0.076	1115514	keystroke_i	i	n/a
557.847	0.06	1115694	keystroke_n	n	n/a
557.893	0.074	1115786	keystroke_g	g	n/a
560.355	0.012	1120710	keystroke_Key.space	Key.space	n/a
560.397	0.089	1120794	keystroke_d	d	n/a
560.517	0.075	1121034	keystroke_o	o	n/a
560.847	0.059	1121694	keystroke_t	t	n/a
560.997	0.059	1121994	keystroke_o	o	n/a
561.9555	0.045	1123911	keystroke_Key.backspace	Key.backspace	n/a
562.1355	0.06	1124271	keystroke_Key.backspace	Key.backspace	n/a
562.4205	0.06	1124841	keystroke_c	c	n/a
562.6615	0.075	1125323	keystroke_t	t	n/a
562.7965	0.075	1125593	keystroke_o	o	n/a
562.9165	0.06	1125833	keystroke_r	r	n/a
563.066	0.09	1126132	keystroke_s	s	n/a
563.6205	0.09	1127241	keystroke_Key.enter	Key.enter	n/a
563.718	6.4895	1127436	prompt	n/a	exceed patch clothing shipped\n
564.2955	0.09	1128591	keystroke_e	e	n/a
564.5955	0.03	1129191	keystroke_x	x	n/a
564.8055	0.06	1129611	keystroke_c	c	n/a
565.0305	0.06	1130061	keystroke_e	e	n/a
565.1955	0.06	1130391	keystroke_e	e	n/a
565.3455	0.06	1130691	keystroke_d	d	n/a
565.5255	0.0745	1131051	keystroke_Key.space	Key.space	n/a
565.735	0.1055	1131470	keystroke_p	p	n/a
565.8555	0.135	1131711	keystroke_a	a	n/a
566.05	0.03	1132100	keystroke_t	t	n/a
566.245	0.06	1132490	keystroke_c	c	n/a
566.365	0.06	1132730	keystroke_h	h	n/a
567.0245	0.105	1134049	keystroke_Key.space	Key.space	n/a
567.2345	0.0745	1134469	keystroke_c	c	n/a
567.4	0.059	1134800	keystroke_l	l	n/a
567.61	0.06	1135220	keystroke_o	o	n/a
567.759	0.061	1135518	keystroke_t	t	n/a
567.865	0.059	1135730	keystroke_h	h	n/a
568.059	0.046	1136118	keystroke_i	i	n/a
568.135	0.09	1136270	keystroke_n	n	n/a
568.21	0.06	1136420	keystroke_g	g	n/a
568.434	0.09	1136868	keystroke_Key.space	Key.space	n/a
568.78	0.0745	1137560	keystroke_s	s	n/a
568.8695	0.075	1137739	keystroke_h	h	n/a
569.0045	0.09	1138009	keystroke_i	i	n/a
569.1995	0.06	1138399	keystroke_p	p	n/a
569.3195	0.09	1138639	keystroke_p	p	n/a
569.4535	0.061	1138907	keystroke_e	e	n/a
569.6195	0.074	1139239	keystroke_d	d	n/a
570.0985	0.105	1140197	keystroke_Key.enter	Key.enter	n/a
570.213	14.914	1140426	prompt	n/a	manufactured midi treaty inside\n
570.863	0.091	1141726	keystroke_m	m	n/a
570.969	0.09	1141938	keystroke_a	a	n/a
571.434	0.06	1142868	keystroke_n	n	n/a
571.703	0.061	1143406	keystroke_u	u	n/a
571.868	0.06	1143736	keystroke_f	f	n/a
572.034	0.15	1144068	keystroke_a	a	n/a
572.168	0.075	1144336	keystroke_c	c	n/a
572.469	0.06	1144938	keystroke_t	t	n/a
572.7835	0.075	1145567	keystroke_r	r	n/a
574.478	0.059	1148956	keystroke_Key.backspace	Key.backspace	n/a
574.493	0.014	1148986	keystroke_=	=	n/a
575.3025	0.075	1150605	keystroke_Key.backspace	Key.backspace	n/a
575.4675	0.075	1150935	keystroke_Key.backspace	Key.backspace	n/a
576.802	0.09	1153604	keystroke_t	t	n/a
577.477	0.045	1154954	keystroke_u	u	n/a
577.9265	0.09	1155853	keystroke_r	r	n/a
578.1515	0.015	1156303	keystroke_e	e	n/a
578.3015	0.06	1156603	keystroke_d	d	n/a
581.0485	0.027	1162097	keystroke_Key.space	Key.space	n/a
581.2105	0.06	1162421	keystroke_m	m	n/a
581.3905	0.075	1162781	keystroke_i	i	n/a
581.4955	0.075	1162991	keystroke_d	d	n/a
581.6005	0.06	1163201	keystroke_i	i	n/a
582.2	0.09	1164400	keystroke_Key.space	Key.space	n/a
582.365	0.06	1164730	keystroke_t	t	n/a
582.605	0.12	1165210	keystroke_r	r	n/a
582.71	0.18	1165420	keystroke_e	e	n/a
582.905	0.135	1165810	keystroke_a	a	n/a
583.01	0.075	1166020	keystroke_t	t	n/a
583.145	0.075	1166290	keystroke_y	y	n/a
583.7445	0.075	1167489	keystroke_Key.space	Key.space	n/a
583.8945	0.075	1167789	keystroke_i	i	n/a
584.0295	0.075	1168059	keystroke_n	n	n/a
584.1345	0.12	1168269	keystroke_s	s	n/a
584.2395	0.06	1168479	keystroke_i	i	n/a
584.3145	0.06	1168629	keystroke_d	d	n/a
584.5095	0.06	1169019	keystroke_e	e	n/a
585.0345	0.09	1170069	keystroke_Key.enter	Key.enter	n/a
585.132	9.9515	1170264	prompt	n/a	inherited she's anniversary fund\n
585.859	0.075	1171718	keystroke_i	i	n/a
585.994	0.06	1171988	keystroke_n	n	n/a
586.339	0.06	1172678	keystroke_h	h	n/a
586.459	0.09	1172918	keystroke_e	e	n/a
586.534	0.105	1173068	keystroke_r	r	n/a
587.044	0.06	1174088	keystroke_i	i	n/a
587.149	0.06	1174298	keystroke_t	t	n/a
587.314	0.0745	1174628	keystroke_e	e	n/a
587.4635	0.075	1174927	keystroke_d	d	n/a
587.7485	0.09	1175497	keystroke_Key.space	Key.space	n/a
588.1385	0.075	1176277	keystroke_s	s	n/a
588.2285	0.06	1176457	keystroke_h	h	n/a
588.3185	0.06	1176637	keystroke_e	e	n/a
590.5555	0.042	1181111	keystroke_'	'	n/a
590.5565	0.086	1181113	keystroke_s	s	n/a
590.8525	0.09	1181705	keystroke_Key.space	Key.space	n/a
591.0475	0.06	1182095	keystroke_a	a	n/a
591.1375	0.045	1182275	keystroke_n	n	n/a
591.257	0.09	1182514	keystroke_n	n	n/a
591.392	0.09	1182784	keystroke_i	i	n/a
591.677	0.06	1183354	keystroke_v	v	n/a
591.857	0.135	1183714	keystroke_e	e	n/a
591.947	0.12	1183894	keystroke_r	r	n/a
592.307	0.15	1184614	keystroke_s	s	n/a
592.547	0.18	1185094	keystroke_a	a	n/a
592.802	0.075	1185604	keystroke_r	r	n/a
592.937	0.075	1185874	keystroke_y	y	n/a
593.7765	0.09	1187553	keystroke_Key.space	Key.space	n/a
593.8815	0.075	1187763	keystroke_f	f	n/a
594.0465	0.045	1188093	keystroke_u	u	n/a
594.2865	0.06	1188573	keystroke_n	n	n/a
594.3615	0.06	1188723	keystroke_d	d	n/a
594.9765	0.105	1189953	keystroke_Key.enter	Key.enter	n/a
595.0875	5.4695	1190175	prompt	n/a	trace trusts feeding affect\n
595.6815	0.06	1191363	keystroke_t	t	n/a
595.8915	0.045	1191783	keystroke_r	r	n/a
596.1465	0.0595	1192293	keystroke_a	a	n/a
596.1615	0.0895	1192323	keystroke_c	c	n/a
596.356	0.06	1192712	keystroke_e	e	n/a
596.611	0.09	1193222	keystroke_Key.space	Key.space	n/a
596.806	0.06	1193612	keystroke_t	t	n/a
596.971	0.06	1193942	keystroke_r	r	n/a
597.121	0.045	1194242	keystroke_u	u	n/a
597.256	0.105	1194512	keystroke_s	s	n/a
597.346	0.09	1194692	keystroke_t	t	n/a
597.496	0.0745	1194992	keystroke_s	s	n/a
597.7205	0.06	1195441	keystroke_Key.space	Key.space	n/a
597.9155	0.075	1195831	keystroke_f	f	n/a
598.0805	0.06	1196161	keystroke_e	e	n/a
598.2305	0.06	1196461	keystroke_e	e	n/a
598.3805	0.075	1196761	keystroke_d	d	n/a
598.5305	0.06	1197061	keystroke_i	i	n/a
598.6055	0.06	1197211	keystroke_n	n	n/a
598.6805	0.06	1197361	keystroke_g	g	n/a
598.8905	0.075	1197781	keystroke_Key.space	Key.space	n/a
599.0705	0.105	1198141	keystroke_a	a	n/a
599.2055	0.06	1198411	keystroke_f	f	n/a
599.3255	0.091	1198651	keystroke_f	f	n/a
599.49	0.075	1198980	keystroke_e	e	n/a
599.67	0.075	1199340	keystroke_c	c	n/a
599.835	0.075	1199670	keystroke_t	t	n/a
600.465	0.09	1200930	keystroke_Key.enter	Key.enter	n/a
600.5615	9.4585	1201123	prompt	n/a	tower favors hormone republican\n
601.1995	0.06	1202399	keystroke_t	t	n/a
601.3195	0.06	1202639	keystroke_o	o	n/a
601.4395	0.09	1202879	keystroke_w	w	n/a
601.5445	0.09	1203089	keystroke_e	e	n/a
601.6195	0.09	1203239	keystroke_r	r	n/a
601.8445	0.09	1203689	keystroke_Key.space	Key.space	n/a
602.0095	0.135	1204019	keystroke_f	f	n/a
602.1595	0.225	1204319	keystroke_a	a	n/a
602.3545	0.09	1204709	keystroke_v	v	n/a
602.5645	0.06	1205129	keystroke_o	o	n/a
602.6545	0.0595	1205309	keystroke_r	r	n/a
602.8795	0.075	1205759	keystroke_s	s	n/a
603.1795	0.1195	1206359	keystroke_Key.space	Key.space	n/a
603.659	0.09	1207318	keystroke_h	h	n/a
603.974	0.06	1207948	keystroke_o	o	n/a
604.244	0.06	1208488	keystroke_r	r	n/a
604.529	0.075	1209058	keystroke_m	m	n/a
604.784	0.075	1209568	keystroke_o	o	n/a
604.919	0.075	1209838	keystroke_n	n	n/a
605.039	0.06	1210078	keystroke_e	e	n/a
605.324	0.09	1210648	keystroke_Key.space	Key.space	n/a
605.489	0.12	1210978	keystroke_r	r	n/a
605.594	0.075	1211188	keystroke_e	e	n/a
606.2985	0.15	1212597	keystroke_p	p	n/a
606.4635	0.075	1212927	keystroke_u	u	n/a
606.6735	0.075	1213347	keystroke_b	b	n/a
606.8235	0.12	1213647	keystroke_l	l	n/a
606.9735	0.0745	1213947	keystroke_i	i	n/a
607.1985	0.105	1214397	keystroke_a	a	n/a
607.3185	0.06	1214637	keystroke_n	n	n/a
608.0685	0.12	1216137	keystroke_Key.backspace	Key.backspace	n/a
608.3235	0.089	1216647	keystroke_Key.backspace	Key.backspace	n/a
609.1185	0.105	1218237	keystroke_c	c	n/a
609.2385	0.075	1218477	keystroke_a	a	n/a
609.3285	0.075	1218657	keystroke_n	n	n/a
609.9285	0.0885	1219857	keystroke_Key.enter	Key.enter	n/a
610.024	8.9045	1220048	prompt	n/a	guam academic fixes theta\n
610.723	0.09	1221446	keystroke_g	g	n/a
610.873	0.06	1221746	keystroke_u	u	n/a
611.068	0.105	1222136	keystroke_a	a	n/a
611.158	0.09	1222316	keystroke_m	m	n/a
611.563	0.09	1223126	keystroke_Key.space	Key.space	n/a
611.758	0.09	1223516	keystroke_a	a	n/a
611.998	0.06	1223996	keystroke_c	c	n/a
612.163	0.03	1224326	keystroke_c	c	n/a
613.2425	0.0895	1226485	keystroke_Key.backspace	Key.backspace	n/a
613.467	0.12	1226934	keystroke_a	a	n/a
613.722	0.06	1227444	keystroke_d	d	n/a
613.887	0.075	1227774	keystroke_e	e	n/a
614.037	0.06	1228074	keystroke_m	m	n/a
614.187	0.075	1228374	keystroke_i	i	n/a
614.277	0.06	1228554	keystroke_c	c	n/a
614.577	0.06	1229154	keystroke_Key.space	Key.space	n/a
615.5815	0.075	1231163	keystroke_f	f	n/a
615.8215	0.06	1231643	keystroke_i	i	n/a
615.9565	0.045	1231913	keystroke_x	x	n/a
616.271	0.075	1232542	keystroke_e	e	n/a
616.5415	0.06	1233083	keystroke_s	s	n/a
616.901	0.075	1233802	keystroke_Key.space	Key.space	n/a
617.066	0.06	1234132	keystroke_t	t	n/a
617.156	0.06	1234312	keystroke_h	h	n/a
617.366	0.075	1234732	keystroke_e	e	n/a
617.666	0.03	1235332	keystroke_t	t	n/a
618.191	0.075	1236382	keystroke_a	a	n/a
618.8355	0.09	1237671	keystroke_Key.enter	Key.enter	n/a
618.9355	13.6655	1237871	prompt	n/a	collaborative neighbors hall quit\n
619.5265	0.074	1239053	keystroke_c	c	n/a
619.7505	0.06	1239501	keystroke_o	o	n/a
619.9605	0.06	1239921	keystroke_l	l	n/a
620.0955	0.075	1240191	keystroke_l	l	n/a
620.2755	0.075	1240551	keystroke_a	a	n/a
620.4705	0.06	1240941	keystroke_b	b	n/a
620.6805	0.06	1241361	keystroke_o	o	n/a
620.9505	0.09	1241901	keystroke_r	r	n/a
621.1005	0.135	1242201	keystroke_a	a	n/a
621.1905	0.0895	1242381	keystroke_t	t	n/a
621.295	0.075	1242590	keystroke_i	i	n/a
621.371	0.164	1242742	keystroke_f	f	n/a
621.52	0.09	1243040	keystroke_e	e	n/a
622.255	0.045	1244510	keystroke_Key.backspace	Key.backspace	n/a
622.39	0.06	1244780	keystroke_Key.backspace	Key.backspace	n/a
622.51	0.12	1245020	keystroke_v	v	n/a
622.615	0.105	1245230	keystroke_e	e	n/a
622.885	0.06	1245770	keystroke_Key.space	Key.space	n/a
623.6345	0.045	1247269	keystroke_n	n	n/a
623.7095	0.09	1247419	keystroke_e	e	n/a
624.4145	0.075	1248829	keystroke_i	i	n/a
624.5945	0.045	1249189	keystroke_g	g	n/a
624.984	0.06	1249968	keystroke_b	b	n/a
625.914	0.075	1251828	keystroke_o	o	n/a
626.034	0.06	1252068	keystroke_r	r	n/a
626.244	0.075	1252488	keystroke_s	s	n/a
626.724	0.045	1253448	keystroke_Key.backspace	Key.backspace	n/a
627.7435	0.075	1255487	keystroke_Key.backspace	Key.backspace	n/a
627.9385	0.075	1255877	keystroke_Key.backspace	Key.backspace	n/a
628.1185	0.075	1256237	keystroke_Key.backspace	Key.backspace	n/a
628.4785	0.045	1256957	keystroke_h	h	n/a
628.7485	0.06	1257497	keystroke_b	b	n/a
628.9285	0.06	1257857	keystroke_o	o	n/a
629.0185	0.075	1258037	keystroke_r	r	n/a
629.2435	0.075	1258487	keystroke_s	s	n/a
630.323	0.09	1260646	keystroke_Key.space	Key.space	n/a
630.548	0.075	1261096	keystroke_h	h	n/a
630.608	0.06	1261216	keystroke_a	a	n/a
630.953	0.06	1261906	keystroke_l	l	n/a
631.118	0.075	1262236	keystroke_l	l	n/a
631.3275	0.0895	1262655	keystroke_Key.space	Key.space	n/a
631.5215	0.075	1263043	keystroke_q	q	n/a
631.6415	0.0895	1263283	keystroke_u	u	n/a
631.821	0.0745	1263642	keystroke_i	i	n/a
631.9405	0.0595	1263881	keystroke_t	t	n/a
632.5235	0.075	1265047	keystroke_Key.enter	Key.enter	n/a
632.606	8.236	1265212	prompt	n/a	disc reviewing justice cabin\n
633.2265	0.075	1266453	keystroke_d	d	n/a
633.451	0.015	1266902	keystroke_i	i	n/a
633.481	0.0895	1266962	keystroke_s	s	n/a
633.8695	0.075	1267739	keystroke_Key.space	Key.space	n/a
634.6025	0.0895	1269205	keystroke_Key.backspace	Key.backspace	n/a
634.783	0.0735	1269566	keystroke_c	c	n/a
635.096	0.1195	1270192	keystroke_Key.space	Key.space	n/a
635.5305	0.119	1271061	keystroke_r	r	n/a
635.6045	0.1045	1271209	keystroke_e	e	n/a
635.8735	0.075	1271747	keystroke_v	v	n/a
636.3225	0.0595	1272645	keystroke_i	i	n/a
636.412	0.135	1272824	keystroke_e	e	n/a
636.532	0.0895	1273064	keystroke_w	w	n/a
636.6815	0.0745	1273363	keystroke_i	i	n/a
636.786	0.075	1273572	keystroke_n	n	n/a
636.831	0.0745	1273662	keystroke_g	g	n/a
637.055	0.075	1274110	keystroke_Key.space	Key.space	n/a
637.758	0.06	1275516	keystroke_j	j	n/a
637.9225	0.06	1275845	keystroke_u	u	n/a
638.0425	0.1045	1276085	keystroke_s	s	n/a
638.192	0.0445	1276384	keystroke_t	t	n/a
638.2965	0.06	1276593	keystroke_i	i	n/a
638.416	0.075	1276832	keystroke_c	c	n/a
638.9395	0.075	1277879	keystroke_e	e	n/a
639.2535	0.105	1278507	keystroke_Key.space	Key.space	n/a
639.6125	0.136	1279225	keystroke_c	c	n/a
639.7325	0.0895	1279465	keystroke_a	a	n/a
639.867	0.0595	1279734	keystroke_b	b	n/a
640.076	0.06	1280152	keystroke_i	i	n/a
640.151	0.09	1280302	keystroke_n	n	n/a
640.764	0.075	1281528	keystroke_Key.enter	Key.enter	n/a
640.848	14.974	1281696	prompt	n/a	sagem plaza gospel discrimination\n
641.557	0.075	1283114	keystroke_s	s	n/a
641.9765	0.0745	1283953	keystroke_g	g	n/a
643.0995	0.09	1286199	keystroke_Key.backspace	Key.backspace	n/a
643.4	0.12	1286800	keystroke_a	a	n/a
643.5945	0.075	1287189	keystroke_g	g	n/a
643.88	0.06	1287760	keystroke_e	e	n/a
644.0445	0.06	1288089	keystroke_m	m	n/a
645.41	0.12	1290820	keystroke_Key.space	Key.space	n/a
645.769	0.09	1291538	keystroke_p	p	n/a
645.995	0.0745	1291990	keystroke_l	l	n/a
646.0845	0.105	1292169	keystroke_a	a	n/a
646.384	0.121	1292768	keystroke_a	a	n/a
647.15	0.1045	1294300	keystroke_Key.backspace	Key.backspace	n/a
647.3895	0.1655	1294779	keystroke_a	a	n/a
647.989	0.076	1295978	keystroke_Key.backspace	Key.backspace	n/a
648.2445	0.06	1296489	keystroke_z	z	n/a
648.3795	0.1345	1296759	keystroke_a	a	n/a
648.8145	0.09	1297629	keystroke_Key.space	Key.space	n/a
649.205	0.06	1298410	keystroke_g	g	n/a
649.4145	0.075	1298829	keystroke_o	o	n/a
649.4745	0.0895	1298949	keystroke_s	s	n/a
649.7	0.09	1299400	keystroke_p	p	n/a
649.8645	0.075	1299729	keystroke_e	e	n/a
649.9695	0.0895	1299939	keystroke_l	l	n/a
650.4645	0.0595	1300929	keystroke_Key.space	Key.space	n/a
650.645	0.0745	1301290	keystroke_d	d	n/a
650.8245	0.075	1301649	keystroke_i	i	n/a
650.929	0.105	1301858	keystroke_s	s	n/a
651.4845	0.0745	1302969	keystroke_r	r	n/a
652.3545	0.09	1304709	keystroke_Key.backspace	Key.backspace	n/a
652.609	0.0755	1305218	keystroke_c	c	n/a
652.8795	0.06	1305759	keystroke_r	r	n/a
652.9845	0.0605	1305969	keystroke_i	i	n/a
653.7045	0.091	1307409	keystroke_m	m	n/a
653.93	0.075	1307860	keystroke_i	i	n/a
654.1685	0.061	1308337	keystroke_n	n	n/a
654.2885	0.137	1308577	keystroke_a	a	n/a
654.5455	0.0595	1309091	keystroke_t	t	n/a
