onset	duration	sample	value	key	prompt_text
8.0885	18.734	16177	prompt	n/a	the quick brown fox jumps over a lazy dog\n
17.343	0	34686	keystroke	t	n/a
17.3545	0.0905	34709	keystroke	h	n/a
17.4745	0.1505	34949	keystroke	e	n/a
17.5945	0.105	35189	keystroke	Key.space	n/a
17.7595	0.075	35519	keystroke	q	n/a
17.835	0.089	35670	keystroke	u	n/a
18.7795	0.0605	37559	keystroke	i	n/a
18.93	0.21	37860	keystroke	c	n/a
19.155	0.1045	38310	keystroke	k	n/a
19.3645	0.105	38729	keystroke	Key.space	n/a
19.5895	0.09	39179	keystroke	b	n/a
19.7095	0.12	39419	keystroke	r	n/a
19.8445	0.0605	39689	keystroke	o	n/a
19.919	0.1355	39838	keystroke	w	n/a
20.0695	0.0905	40139	keystroke	n	n/a
20.5045	0.135	41009	keystroke	Key.space	n/a
21.06	0.1045	42120	keystroke	f	n/a
21.1795	0.09	42359	keystroke	o	n/a
21.285	0.15	42570	keystroke	x	n/a
21.39	0.119	42780	keystroke	Key.space	n/a
21.5245	0.105	43049	keystroke	j	n/a
21.705	0.0895	43410	keystroke	u	n/a
21.93	0.1195	43860	keystroke	m	n/a
22.005	0.1345	44010	keystroke	p	n/a
22.2	0.12	44400	keystroke	s	n/a
22.2745	0.12	44549	keystroke	Key.space	n/a
22.56	0.09	45120	keystroke	o	n/a
22.6945	0.075	45389	keystroke	v	n/a
22.9045	0.0755	45809	keystroke	e	n/a
23.085	0.1495	46170	keystroke	r	n/a
23.1895	0.12	46379	keystroke	Key.space	n/a
23.6995	0.15	47399	keystroke	a	n/a
23.865	0.1045	47730	keystroke	Key.space	n/a
24.45	0.12	48900	keystroke	l	n/a
24.615	0.075	49230	keystroke	a	n/a
24.8395	0.0755	49679	keystroke	z	n/a
25.155	0.075	50310	keystroke	y	n/a
25.499	0.076	50998	keystroke	Key.space	n/a
25.7095	0.0755	51419	keystroke	d	n/a
25.799	0.06	51598	keystroke	o	n/a
26.115	0.059	52230	keystroke	g	n/a
26.7295	0.09	53459	keystroke	Key.enter	n/a
26.828	6.264	53656	prompt	n/a	chapter available rated media\n
27.6745	0.105	55349	keystroke	c	n/a
27.8995	0.09	55799	keystroke	h	n/a
28.005	0.1195	56010	keystroke	a	n/a
28.1395	0.0755	56279	keystroke	p	n/a
28.275	0.0595	56550	keystroke	t	n/a
28.4695	0.0905	56939	keystroke	e	n/a
28.665	0.0895	57330	keystroke	r	n/a
28.7245	0.12	57449	keystroke	Key.space	n/a
29.1745	0.1055	58349	keystroke	a	n/a
29.4445	0.075	58889	keystroke	v	n/a
29.6545	0.075	59309	keystroke	a	n/a
29.79	0.075	59580	keystroke	i	n/a
29.985	0.105	59970	keystroke	l	n/a
30.105	0.105	60210	keystroke	a	n/a
30.225	0.105	60450	keystroke	b	n/a
30.331	0.104	60662	keystroke	l	n/a
30.51	0.15	61020	keystroke	e	n/a
30.645	0.075	61290	keystroke	Key.space	n/a
31.4245	0.0605	62849	keystroke	r	n/a
31.53	0.1195	63060	keystroke	a	n/a
31.6645	0.0755	63329	keystroke	t	n/a
31.875	0.06	63750	keystroke	e	n/a
32.07	0.06	64140	keystroke	d	n/a
32.114	0.105	64228	keystroke	Key.space	n/a
32.37	0.135	64740	keystroke	m	n/a
32.429	0.061	64858	keystroke	e	n/a
32.5795	0.0755	65159	keystroke	d	n/a
32.67	0.0745	65340	keystroke	i	n/a
32.775	0.0595	65550	keystroke	a	n/a
33.06	0.03	66120	keystroke	Key.enter	n/a
33.0975	11.0345	66195	prompt	n/a	kijiji showers moore define\n
34.2755	0.1045	68551	keystroke	k	n/a
34.5445	0.0905	69089	keystroke	i	n/a
37.1875	0.042	74375	keystroke	j	n/a
37.29	0.1045	74580	keystroke	i	n/a
37.4695	0.1205	74939	keystroke	j	n/a
37.5445	0.105	75089	keystroke	i	n/a
37.8745	0.0905	75749	keystroke	Key.space	n/a
39.3755	0.104	78751	keystroke	s	n/a
39.5405	0.0895	79081	keystroke	h	n/a
39.7495	0.1055	79499	keystroke	o	n/a
39.8695	0.1205	79739	keystroke	w	n/a
40.005	0.0895	80010	keystroke	e	n/a
40.185	0.0745	80370	keystroke	r	n/a
40.38	0.075	80760	keystroke	s	n/a
40.59	0.0895	81180	keystroke	Key.space	n/a
40.9195	0.105	81839	keystroke	m	n/a
41.1005	0.104	82201	keystroke	o	n/a
41.94	0.06	83880	keystroke	o	n/a
42.3	0.045	84600	keystroke	r	n/a
42.6005	0.0295	85201	keystroke	e	n/a
42.794	0.091	85588	keystroke	Key.space	n/a
42.99	0.06	85980	keystroke	d	n/a
43.184	0.076	86368	keystroke	e	n/a
43.41	0.074	86820	keystroke	f	n/a
43.5005	0.1195	87001	keystroke	i	n/a
43.605	0.1205	87210	keystroke	n	n/a
43.7255	0.06	87451	keystroke	e	n/a
44.055	0.075	88110	keystroke	Key.enter	n/a
44.137	6.8505	88274	prompt	n/a	dual goods arizona feeding\n
44.835	0.105	89670	keystroke	d	n/a
44.925	0.0905	89850	keystroke	u	n/a
45.029	0.136	90058	keystroke	a	n/a
45.179	0.106	90358	keystroke	l	n/a
45.3	0.09	90600	keystroke	Key.space	n/a
45.435	0.06	90870	keystroke	g	n/a
45.585	0.0455	91170	keystroke	o	n/a
45.675	0.09	91350	keystroke	o	n/a
45.78	0.075	91560	keystroke	d	n/a
45.9	0.135	91800	keystroke	s	n/a
46.005	0.12	92010	keystroke	Key.space	n/a
46.605	0.1055	93210	keystroke	a	n/a
46.755	0.0755	93510	keystroke	r	n/a
46.905	0.075	93810	keystroke	i	n/a
47.745	0.105	95490	keystroke	z	n/a
47.82	0.09	95640	keystroke	o	n/a
48.03	0.105	96060	keystroke	n	n/a
48.315	0.1345	96630	keystroke	a	n/a
48.4505	0.1195	96901	keystroke	Key.space	n/a
49.65	0.075	99300	keystroke	f	n/a
49.92	0.06	99840	keystroke	e	n/a
50.055	0.06	100110	keystroke	e	n/a
50.235	0.0755	100470	keystroke	d	n/a
50.355	0.12	100710	keystroke	i	n/a
50.429	0.166	100858	keystroke	n	n/a
50.55	0.075	101100	keystroke	g	n/a
50.895	0.09	101790	keystroke	Key.enter	n/a
50.992	5.4255	101984	prompt	n/a	already urgent buyer soup\n
51.6445	0.105	103289	keystroke	a	n/a
51.7945	0.135	103589	keystroke	l	n/a
51.9145	0.061	103829	keystroke	r	n/a
52.08	0.0755	104160	keystroke	e	n/a
52.26	0.135	104520	keystroke	a	n/a
52.335	0.105	104670	keystroke	d	n/a
52.6355	0.0585	105271	keystroke	y	n/a
52.875	0.075	105750	keystroke	Key.space	n/a
53.46	0.0755	106920	keystroke	u	n/a
53.595	0.075	107190	keystroke	r	n/a
53.82	0.0605	107640	keystroke	g	n/a
54	0.0755	108000	keystroke	e	n/a
54.09	0.09	108180	keystroke	n	n/a
54.255	0.06	108510	keystroke	t	n/a
54.42	0.075	108840	keystroke	Key.space	n/a
54.525	0.0755	109050	keystroke	b	n/a
54.72	0.075	109440	keystroke	u	n/a
54.8555	0.0595	109711	keystroke	y	n/a
55.125	0.075	110250	keystroke	e	n/a
55.32	0.075	110640	keystroke	r	n/a
55.41	0.09	110820	keystroke	Key.space	n/a
55.635	0.06	111270	keystroke	s	n/a
55.71	0.06	111420	keystroke	o	n/a
55.89	0.045	111780	keystroke	u	n/a
56.055	0.06	112110	keystroke	p	n/a
56.355	0.06	112710	keystroke	Key.enter	n/a
56.422	15.491	112844	prompt	n/a	brings suggesting identifier waterproof\n
57.39	0.075	114780	keystroke	b	n/a
57.495	0.0905	114990	keystroke	r	n/a
57.57	0.075	115140	keystroke	i	n/a
57.7055	0.149	115411	keystroke	n	n/a
57.795	0.105	115590	keystroke	g	n/a
58.0055	0.1045	116011	keystroke	s	n/a
58.094	0.091	116188	keystroke	Key.space	n/a
58.275	0.09	116550	keystroke	s	n/a
58.3805	0.0595	116761	keystroke	u	n/a
58.515	0.0455	117030	keystroke	g	n/a
58.74	0.015	117480	keystroke	g	n/a
58.83	0.075	117660	keystroke	e	n/a
58.965	0.105	117930	keystroke	s	n/a
59.1455	0.0745	118291	keystroke	t	n/a
59.235	0.105	118470	keystroke	i	n/a
59.325	0.09	118650	keystroke	n	n/a
59.565	0.12	119130	keystroke	Key.space	n/a
59.955	0.075	119910	keystroke	Key.backspace	n/a
60.015	0.09	120030	keystroke	g	n/a
60.18	0.105	120360	keystroke	Key.space	n/a
60.405	0.075	120810	keystroke	i	n/a
60.57	0.06	121140	keystroke	t	n/a
60.765	0.075	121530	keystroke	e	n/a
60.885	0.075	121770	keystroke	n	n/a
61.02	0.075	122040	keystroke	d	n/a
62.115	0.075	124230	keystroke	Key.backspace	n/a
62.64	0.12	125280	keystroke	t	n/a
62.745	0.0605	125490	keystroke	i	n/a
63.12	0.075	126240	keystroke	f	n/a
63.225	0.09	126450	keystroke	i	n/a
63.3	0.075	126600	keystroke	e	n/a
63.4645	0.105	126929	keystroke	r	n/a
63.5545	0.105	127109	keystroke	Key.space	n/a
64.7095	0.045	129419	keystroke	Key.backspace	n/a
64.8295	0.06	129659	keystroke	Key.backspace	n/a
64.9645	0.06	129929	keystroke	Key.backspace	n/a
65.085	0.0595	130170	keystroke	Key.backspace	n/a
65.2045	0.045	130409	keystroke	Key.backspace	n/a
65.3095	0.075	130619	keystroke	Key.backspace	n/a
65.4595	0.0905	130919	keystroke	Key.backspace	n/a
65.6545	0.1055	131309	keystroke	Key.backspace	n/a
66.5245	0.0305	133049	keystroke	Key.backspace	n/a
66.63	0.1045	133260	keystroke	Key.backspace	n/a
66.9895	0.06	133979	keystroke	d	n/a
67.2145	0.105	134429	keystroke	n	n/a
68.0695	0.06	136139	keystroke	Key.backspace	n/a
68.1145	0.105	136229	keystroke	e	n/a
68.2795	0.09	136559	keystroke	n	n/a
68.6395	0.0905	137279	keystroke	t	n/a
68.7445	0.075	137489	keystroke	i	n/a
68.9395	0.09	137879	keystroke	f	n/a
69.0895	0.075	138179	keystroke	i	n/a
69.1795	0.0755	138359	keystroke	e	n/a
69.3445	0.121	138689	keystroke	r	n/a
69.4495	0.105	138899	keystroke	Key.space	n/a
69.81	0.0755	139620	keystroke	w	n/a
69.93	0.12	139860	keystroke	a	n/a
70.095	0.075	140190	keystroke	t	n/a
70.3045	0.0755	140609	keystroke	e	n/a
70.4545	0.075	140909	keystroke	r	n/a
70.6195	0.09	141239	keystroke	p	n/a
70.7245	0.0755	141449	keystroke	r	n/a
70.8145	0.075	141629	keystroke	o	n/a
71.4445	0.136	142889	keystroke	o	n/a
71.6245	0.016	143249	keystroke	f	n/a
71.8645	0.045	143729	keystroke	Key.enter	n/a
71.9185	7.208	143837	prompt	n/a	holds feel rebel fujitsu\n
72.705	0.1055	145410	keystroke	h	n/a
72.7655	0.104	145531	keystroke	o	n/a
72.9605	0.105	145921	keystroke	l	n/a
73.0805	0.12	146161	keystroke	d	n/a
73.2445	0.15	146489	keystroke	s	n/a
73.4695	0.105	146939	keystroke	Key.space	n/a
73.71	0.0905	147420	keystroke	f	n/a
73.935	0.075	147870	keystroke	e	n/a
74.1305	0.044	148261	keystroke	e	n/a
74.2645	0.0905	148529	keystroke	l	n/a
74.4145	0.105	148829	keystroke	Key.space	n/a
74.6995	0.06	149399	keystroke	r	n/a
74.88	0.0595	149760	keystroke	e	n/a
75.03	0.1055	150060	keystroke	b	n/a
75.1645	0.1055	150329	keystroke	e	n/a
75.315	0.105	150630	keystroke	l	n/a
75.465	0.075	150930	keystroke	Key.space	n/a
75.675	0.075	151350	keystroke	f	n/a
75.795	0.075	151590	keystroke	u	n/a
76.05	0.105	152100	keystroke	j	n/a
76.26	0.09	152520	keystroke	i	n/a
76.635	0.0905	153270	keystroke	t	n/a
77.8205	0.089	155641	keystroke	s	n/a
77.8955	0.06	155791	keystroke	u	n/a
79.0645	0.06	158129	keystroke	Key.enter	n/a
79.1335	6.1135	158267	prompt	n/a	boulder fetish suddenly pool\n
79.98	0.075	159960	keystroke	b	n/a
80.16	0.06	160320	keystroke	o	n/a
80.355	0.0595	160710	keystroke	u	n/a
80.5345	0.09	161069	keystroke	l	n/a
80.6395	0.09	161279	keystroke	d	n/a
80.8195	0.09	161639	keystroke	e	n/a
80.9845	0.12	161969	keystroke	r	n/a
81.1495	0.12	162299	keystroke	Key.space	n/a
81.4195	0.075	162839	keystroke	f	n/a
81.6145	0.0605	163229	keystroke	e	n/a
81.9	0.075	163800	keystroke	t	n/a
82.035	0.0755	164070	keystroke	i	n/a
82.125	0.09	164250	keystroke	s	n/a
82.2605	0.0595	164521	keystroke	h	n/a
82.47	0.0745	164940	keystroke	Key.space	n/a
82.8	0.0445	165600	keystroke	s	n/a
82.8895	0.0605	165779	keystroke	u	n/a
83.01	0.0595	166020	keystroke	d	n/a
83.1595	0.0755	166319	keystroke	d	n/a
83.37	0.0895	166740	keystroke	e	n/a
83.52	0.06	167040	keystroke	n	n/a
83.7	0.09	167400	keystroke	l	n/a
83.805	0.09	167610	keystroke	y	n/a
84.075	0.09	168150	keystroke	Key.space	n/a
84.2855	0.0895	168571	keystroke	p	n/a
84.54	0.0455	169080	keystroke	o	n/a
84.66	0.06	169320	keystroke	o	n/a
84.825	0.09	169650	keystroke	l	n/a
85.1855	0.0595	170371	keystroke	Key.enter	n/a
85.251	6.4905	170502	prompt	n/a	anytime aerial devices pokemon\n
85.98	0.105	171960	keystroke	a	n/a
86.1005	0.0895	172201	keystroke	n	n/a
86.2505	0.0595	172501	keystroke	y	n/a
86.429	0.076	172858	keystroke	t	n/a
86.5205	0.059	173041	keystroke	i	n/a
86.715	0.045	173430	keystroke	m	n/a
86.8205	0.0895	173641	keystroke	e	n/a
86.955	0.12	173910	keystroke	Key.space	n/a
87.54	0.12	175080	keystroke	a	n/a
87.765	0.06	175530	keystroke	e	n/a
87.93	0.075	175860	keystroke	r	n/a
88.05	0.06	176100	keystroke	i	n/a
88.155	0.0905	176310	keystroke	a	n/a
88.275	0.1205	176550	keystroke	l	n/a
88.4095	0.12	176819	keystroke	Key.space	n/a
88.5455	0.075	177091	keystroke	d	n/a
88.71	0.075	177420	keystroke	e	n/a
88.935	0.075	177870	keystroke	v	n/a
89.13	0.15	178260	keystroke	i	n/a
89.34	0.09	178680	keystroke	c	n/a
89.58	0.0745	179160	keystroke	e	n/a
89.7595	0.105	179519	keystroke	s	n/a
89.8495	0.075	179699	keystroke	Key.space	n/a
90.21	0.075	180420	keystroke	p	n/a
90.4045	0.06	180809	keystroke	o	n/a
90.7795	0.075	181559	keystroke	k	n/a
90.9295	0.1055	181859	keystroke	e	n/a
91.1545	0.0905	182309	keystroke	m	n/a
91.3045	0.165	182609	keystroke	o	n/a
91.455	0.1045	182910	keystroke	n	n/a
91.6795	0.0595	183359	keystroke	Key.enter	n/a
91.7455	6.491	183491	prompt	n/a	says talked publish boulder\n
92.385	0.1045	184770	keystroke	s	n/a
92.5345	0.09	185069	keystroke	a	n/a
92.805	0.075	185610	keystroke	y	n/a
93.1195	0.12	186239	keystroke	s	n/a
93.225	0.1045	186450	keystroke	Key.space	n/a
93.3595	0.0755	186719	keystroke	t	n/a
93.525	0.0745	187050	keystroke	a	n/a
93.6445	0.0605	187289	keystroke	l	n/a
93.6895	0.105	187379	keystroke	k	n/a
93.93	0.0745	187860	keystroke	e	n/a
94.1245	0.0605	188249	keystroke	d	n/a
94.1695	0.075	188339	keystroke	Key.space	n/a
94.4545	0.1055	188909	keystroke	b	n/a
94.8445	0.0605	189689	keystroke	Key.backspace	n/a
95.0395	0.075	190079	keystroke	p	n/a
95.2495	0.0605	190499	keystroke	u	n/a
95.4445	0.0755	190889	keystroke	b	n/a
95.6395	0.09	191279	keystroke	l	n/a
95.805	0.0905	191610	keystroke	i	n/a
95.9105	0.134	191821	keystroke	s	n/a
96.0295	0.0905	192059	keystroke	h	n/a
96.165	0.0895	192330	keystroke	e	n/a
96.3745	0.105	192749	keystroke	r	n/a
96.4645	0.1205	192929	keystroke	Key.space	n/a
96.735	0.1045	193470	keystroke	b	n/a
96.99	0.09	193980	keystroke	o	n/a
97.2305	0.0745	194461	keystroke	u	n/a
97.455	0.09	194910	keystroke	l	n/a
97.59	0.075	195180	keystroke	d	n/a
97.7995	0.0605	195599	keystroke	e	n/a
97.965	0.075	195930	keystroke	r	n/a
98.16	0.075	196320	keystroke	Key.enter	n/a
98.24	5.9065	196480	prompt	n/a	promise liberty boat huge\n
98.9695	0.0905	197939	keystroke	p	n/a
99.105	0.1045	198210	keystroke	r	n/a
99.1955	0.059	198391	keystroke	o	n/a
99.3905	0.059	198781	keystroke	m	n/a
99.5695	0.06	199139	keystroke	i	n/a
99.7195	0.21	199439	keystroke	s	n/a
99.8705	0.149	199741	keystroke	e	n/a
100.1395	0.09	200279	keystroke	Key.space	n/a
100.3045	0.106	200609	keystroke	l	n/a
100.5145	0.06	201029	keystroke	i	n/a
100.9955	0.06	201991	keystroke	b	n/a
101.2495	0.06	202499	keystroke	e	n/a
101.4295	0.06	202859	keystroke	r	n/a
101.6705	0.059	203341	keystroke	t	n/a
101.8795	0.075	203759	keystroke	y	n/a
102.075	0.0895	204150	keystroke	Key.space	n/a
102.375	0.029	204750	keystroke	b	n/a
102.54	0.06	205080	keystroke	o	n/a
102.585	0.135	205170	keystroke	a	n/a
102.78	0.09	205560	keystroke	t	n/a
102.93	0.045	205860	keystroke	Key.space	n/a
103.335	0.105	206670	keystroke	h	n/a
103.44	0.09	206880	keystroke	u	n/a
103.56	0.09	207120	keystroke	g	n/a
103.86	0.075	207720	keystroke	e	n/a
104.04	0.105	208080	keystroke	Key.enter	n/a
104.151	14.861	208302	prompt	n/a	alexander latitude threatened biggest\n
105.1495	0.12	210299	keystroke	a	n/a
105.36	0.1045	210720	keystroke	l	n/a
105.4795	0.06	210959	keystroke	e	n/a
105.7495	0.105	211499	keystroke	x	n/a
105.9895	0.075	211979	keystroke	a	n/a
106.1095	0.09	212219	keystroke	n	n/a
106.26	0.075	212520	keystroke	d	n/a
106.4845	0.09	212969	keystroke	e	n/a
106.6795	0.135	213359	keystroke	r	n/a
106.7995	0.105	213599	keystroke	Key.space	n/a
108	0.1045	216000	keystroke	l	n/a
108.1645	0.1355	216329	keystroke	a	n/a
108.495	0.075	216990	keystroke	t	n/a
108.735	0.105	217470	keystroke	i	n/a
108.855	0.075	217710	keystroke	t	n/a
109.005	0.06	218010	keystroke	u	n/a
109.2	0.075	218400	keystroke	d	n/a
109.38	0.06	218760	keystroke	e	n/a
109.545	0.09	219090	keystroke	Key.space	n/a
112.0525	0.0275	224105	keystroke	t	n/a
112.3645	0.0905	224729	keystroke	h	n/a
112.845	0.075	225690	keystroke	r	n/a
113.055	0.075	226110	keystroke	e	n/a
113.34	0.09	226680	keystroke	a	n/a
113.6555	0.0445	227311	keystroke	t	n/a
115.365	0.075	230730	keystroke	e	n/a
115.515	0.06	231030	keystroke	n	n/a
116.175	0.06	232350	keystroke	e	n/a
116.355	0.075	232710	keystroke	d	n/a
116.79	0.075	233580	keystroke	Key.space	n/a
117.24	0.06	234480	keystroke	b	n/a
117.6145	0.045	235229	keystroke	i	n/a
117.9445	0.061	235889	keystroke	g	n/a
118.0795	0.1055	236159	keystroke	g	n/a
118.32	0.09	236640	keystroke	e	n/a
118.515	0.06	237030	keystroke	s	n/a
118.74	0.06	237480	keystroke	t	n/a
118.9645	0.0455	237929	keystroke	Key.enter	n/a
119.0165	11.366	238033	prompt	n/a	floyd hungry siemens delight\n
120.0445	0.0905	240089	keystroke	f	n/a
120.2095	0.12	240419	keystroke	l	n/a
121.1695	0.06	242339	keystroke	o	n/a
121.9645	0.06	243929	keystroke	y	n/a
122.3105	0.0445	244621	keystroke	d	n/a
122.6845	0.075	245369	keystroke	Key.space	n/a
124.155	0.09	248310	keystroke	h	n/a
124.365	0.075	248730	keystroke	u	n/a
124.59	0.12	249180	keystroke	n	n/a
124.725	0.09	249450	keystroke	g	n/a
124.92	0.105	249840	keystroke	r	n/a
125.5055	0.0595	251011	keystroke	y	n/a
125.88	0.075	251760	keystroke	Key.space	n/a
126.57	0.135	253140	keystroke	s	n/a
126.72	0.0755	253440	keystroke	i	n/a
126.885	0.09	253770	keystroke	e	n/a
127.125	0.0745	254250	keystroke	m	n/a
127.23	0.09	254460	keystroke	e	n/a
127.364	0.076	254728	keystroke	n	n/a
127.5305	0.0745	255061	keystroke	s	n/a
127.695	0.104	255390	keystroke	Key.space	n/a
127.9795	0.0605	255959	keystroke	d	n/a
128.1155	0.074	256231	keystroke	e	n/a
128.205	0.15	256410	keystroke	l	n/a
128.325	0.105	256650	keystroke	i	n/a
128.4145	0.091	256829	keystroke	g	n/a
128.52	0.09	257040	keystroke	h	n/a
128.625	0.045	257250	keystroke	y	n/a
128.655	0.06	257310	keystroke	t	n/a
129.27	0.06	258540	keystroke	Key.backspace	n/a
129.8395	0.0605	259679	keystroke	Key.backspace	n/a
129.8855	0.059	259771	keystroke	t	n/a
130.335	0.045	260670	keystroke	Key.enter	n/a
130.387	6.1595	260774	prompt	n/a	perform played picture code\n
131.445	0.075	262890	keystroke	p	n/a
131.625	0.06	263250	keystroke	e	n/a
131.8055	0.0595	263611	keystroke	r	n/a
132.0455	0.0445	264091	keystroke	f	n/a
132.1055	0.0895	264211	keystroke	o	n/a
132.27	0.059	264540	keystroke	r	n/a
132.39	0.045	264780	keystroke	m	n/a
132.57	0.074	265140	keystroke	Key.space	n/a
132.945	0.06	265890	keystroke	p	n/a
133.155	0.105	266310	keystroke	l	n/a
133.305	0.075	266610	keystroke	a	n/a
133.56	0.06	267120	keystroke	y	n/a
133.8	0.0595	267600	keystroke	e	n/a
133.9795	0.0905	267959	keystroke	d	n/a
134.055	0.09	268110	keystroke	Key.space	n/a
134.2055	0.0595	268411	keystroke	p	n/a
134.34	0.074	268680	keystroke	i	n/a
134.4	0.074	268800	keystroke	c	n/a
134.595	0.12	269190	keystroke	t	n/a
134.73	0.105	269460	keystroke	u	n/a
135.165	0.075	270330	keystroke	r	n/a
135.375	0.12	270750	keystroke	e	n/a
135.5095	0.105	271019	keystroke	Key.space	n/a
135.8545	0.075	271709	keystroke	c	n/a
135.9895	0.075	271979	keystroke	o	n/a
136.1245	0.06	272249	keystroke	d	n/a
136.2895	0.06	272579	keystroke	e	n/a
136.4845	0.0595	272969	keystroke	Key.enter	n/a
136.551	6.266	273102	prompt	n/a	such stamp margin missile\n
137.265	0.1045	274530	keystroke	s	n/a
137.3845	0.0905	274769	keystroke	u	n/a
137.564	0.076	275128	keystroke	c	n/a
137.67	0.105	275340	keystroke	h	n/a
137.805	0.12	275610	keystroke	Key.space	n/a
137.94	0.105	275880	keystroke	s	n/a
138.135	0.075	276270	keystroke	t	n/a
138.255	0.1195	276510	keystroke	a	n/a
138.405	0.0745	276810	keystroke	m	n/a
138.5845	0.0755	277169	keystroke	p	n/a
138.795	0.06	277590	keystroke	Key.space	n/a
139.26	0.089	278520	keystroke	m	n/a
139.365	0.12	278730	keystroke	a	n/a
139.56	0.105	279120	keystroke	r	n/a
139.83	0.045	279660	keystroke	g	n/a
139.9055	0.075	279811	keystroke	i	n/a
140.1145	0.0755	280229	keystroke	n	n/a
140.205	0.09	280410	keystroke	Key.space	n/a
140.67	0.09	281340	keystroke	m	n/a
140.88	0.0905	281760	keystroke	i	n/a
141.06	0.045	282120	keystroke	s	n/a
141.1955	0.0745	282391	keystroke	s	n/a
141.2995	0.075	282599	keystroke	i	n/a
141.4955	0.1045	282991	keystroke	l	n/a
141.6605	0.0895	283321	keystroke	e	n/a
142.68	0.1345	285360	keystroke	Key.enter	n/a
142.821	6.8205	285642	prompt	n/a	doll disagree flooring rabbit\n
143.4455	0.12	286891	keystroke	d	n/a
143.5655	0.074	287131	keystroke	o	n/a
143.7595	0.061	287519	keystroke	l	n/a
143.8805	0.119	287761	keystroke	l	n/a
143.9845	0.1205	287969	keystroke	Key.space	n/a
144.075	0.1345	288150	keystroke	d	n/a
144.2845	0.03	288569	keystroke	i	n/a
144.4645	0.075	288929	keystroke	s	n/a
144.66	0.1055	289320	keystroke	a	n/a
144.915	0.06	289830	keystroke	g	n/a
145.155	0.06	290310	keystroke	r	n/a
145.41	0.0155	290820	keystroke	e	n/a
145.62	0.06	291240	keystroke	e	n/a
145.755	0.105	291510	keystroke	Key.space	n/a
145.92	0.075	291840	keystroke	f	n/a
146.1005	0.0895	292201	keystroke	o	n/a
146.475	0.045	292950	keystroke	Key.backspace	n/a
146.67	0.075	293340	keystroke	l	n/a
146.8505	0.0745	293701	keystroke	o	n/a
147.21	0.075	294420	keystroke	o	n/a
147.3455	0.089	294691	keystroke	r	n/a
147.4795	0.0905	294959	keystroke	i	n/a
147.5845	0.0905	295169	keystroke	n	n/a
147.6895	0.105	295379	keystroke	g	n/a
147.8245	0.1205	295649	keystroke	Key.space	n/a
148.0195	0.0755	296039	keystroke	r	n/a
148.2145	0.075	296429	keystroke	a	n/a
148.4995	0.076	296999	keystroke	b	n/a
148.9345	0.015	297869	keystroke	b	n/a
149.0395	0.075	298079	keystroke	i	n/a
149.1455	0.0745	298291	keystroke	t	n/a
149.6095	0.03	299219	keystroke	Key.enter	n/a
149.646	7.1205	299292	prompt	n/a	font previously duties reprints\n
150.36	0.105	300720	keystroke	f	n/a
150.51	0.045	301020	keystroke	o	n/a
150.675	0.075	301350	keystroke	n	n/a
150.78	0.12	301560	keystroke	t	n/a
150.93	0.135	301860	keystroke	Key.space	n/a
151.32	0.0895	302640	keystroke	p	n/a
151.47	0.0745	302940	keystroke	r	n/a
152.265	0.0605	304530	keystroke	e	n/a
152.595	0.09	305190	keystroke	v	n/a
152.8655	0.059	305731	keystroke	i	n/a
153.0445	0.045	306089	keystroke	o	n/a
153.465	0.075	306930	keystroke	u	n/a
153.585	0.105	307170	keystroke	s	n/a
153.735	0.075	307470	keystroke	l	n/a
153.9	0.09	307800	keystroke	y	n/a
154.1095	0.0455	308219	keystroke	Key.space	n/a
154.2145	0.0905	308429	keystroke	d	n/a
154.3495	0.09	308699	keystroke	u	n/a
154.5905	0.074	309181	keystroke	t	n/a
154.6945	0.06	309389	keystroke	i	n/a
154.83	0.1045	309660	keystroke	e	n/a
155.0245	0.1355	310049	keystroke	s	n/a
155.115	0.12	310230	keystroke	Key.space	n/a
155.25	0.075	310500	keystroke	r	n/a
155.46	0.075	310920	keystroke	e	n/a
155.67	0.09	311340	keystroke	p	n/a
155.79	0.12	311580	keystroke	r	n/a
155.94	0.09	311880	keystroke	i	n/a
156.165	0.09	312330	keystroke	n	n/a
156.27	0.06	312540	keystroke	t	n/a
156.45	0.06	312900	keystroke	s	n/a
156.72	0.045	313440	keystroke	Key.enter	n/a
156.771	6.3405	313542	prompt	n/a	moisture marketing special jury\n
157.5905	0.0745	315181	keystroke	m	n/a
157.7255	0.09	315451	keystroke	o	n/a
157.9045	0.0905	315809	keystroke	i	n/a
158.0095	0.0905	316019	keystroke	s	n/a
158.1595	0.0905	316319	keystroke	t	n/a
158.295	0.075	316590	keystroke	u	n/a
158.415	0.075	316830	keystroke	r	n/a
158.625	0.0745	317250	keystroke	e	n/a
158.8645	0.0905	317729	keystroke	Key.space	n/a
159.075	0.0895	318150	keystroke	m	n/a
159.195	0.12	318390	keystroke	a	n/a
159.345	0.0895	318690	keystroke	r	n/a
159.4955	0.1045	318991	keystroke	k	n/a
159.5845	0.075	319169	keystroke	e	n/a
159.81	0.075	319620	keystroke	t	n/a
159.93	0.105	319860	keystroke	i	n/a
159.99	0.1195	319980	keystroke	n	n/a
160.1695	0.0905	320339	keystroke	g	n/a
160.425	0.0745	320850	keystroke	Key.space	n/a
161.0405	0.089	322081	keystroke	s	n/a
161.145	0.03	322290	keystroke	p	n/a
161.16	0.06	322320	keystroke	e	n/a
161.37	0.0755	322740	keystroke	c	n/a
161.489	0.061	322978	keystroke	i	n/a
161.594	0.091	323188	keystroke	a	n/a
161.729	0.09	323458	keystroke	l	n/a
161.834	0.09	323668	keystroke	Key.space	n/a
162.2405	0.0445	324481	keystroke	j	n/a
162.374	0.076	324748	keystroke	u	n/a
162.48	0.09	324960	keystroke	r	n/a
162.75	0.06	325500	keystroke	y	n/a
163.035	0.075	326070	keystroke	Key.enter	n/a
163.1155	6.641	326231	prompt	n/a	elliott wordpress level sympathy\n
163.8445	0.105	327689	keystroke	e	n/a
163.9945	0.09	327989	keystroke	l	n/a
164.1595	0.09	328319	keystroke	l	n/a
164.2945	0.075	328589	keystroke	i	n/a
164.475	0.0895	328950	keystroke	o	n/a
164.595	0.0895	329190	keystroke	t	n/a
164.82	0.1045	329640	keystroke	t	n/a
165.0145	0.09	330029	keystroke	Key.space	n/a
165.2405	0.1045	330481	keystroke	w	n/a
165.375	0.09	330750	keystroke	o	n/a
165.48	0.0605	330960	keystroke	r	n/a
165.6595	0.075	331319	keystroke	d	n/a
166.1245	0.015	332249	keystroke	p	n/a
166.17	0.015	332340	keystroke	r	n/a
166.275	0.0905	332550	keystroke	e	n/a
166.5	0.06	333000	keystroke	s	n/a
166.65	0.105	333300	keystroke	s	n/a
166.785	0.105	333570	keystroke	Key.space	n/a
167.025	0.105	334050	keystroke	l	n/a
167.145	0.075	334290	keystroke	e	n/a
167.49	0.075	334980	keystroke	v	n/a
167.73	0.06	335460	keystroke	e	n/a
167.849	0.091	335698	keystroke	l	n/a
168.0595	0.09	336119	keystroke	Key.space	n/a
168.195	0.075	336390	keystroke	s	n/a
168.4645	0.06	336929	keystroke	y	n/a
168.6145	0.09	337229	keystroke	m	n/a
168.765	0.1195	337530	keystroke	p	n/a
168.87	0.0895	337740	keystroke	a	n/a
169.0495	0.075	338099	keystroke	t	n/a
169.1845	0.0905	338369	keystroke	h	n/a
169.44	0.06	338880	keystroke	y	n/a
169.695	0.0595	339390	keystroke	Key.enter	n/a
169.767	6.7105	339534	prompt	n/a	deborah honors pull instruction\n
170.52	0.06	341040	keystroke	d	n/a
170.669	0.121	341338	keystroke	e	n/a
170.805	0.075	341610	keystroke	b	n/a
170.999	0.076	341998	keystroke	o	n/a
171.09	0.074	342180	keystroke	r	n/a
171.21	0.12	342420	keystroke	a	n/a
171.42	0.06	342840	keystroke	h	n/a
171.615	0.1045	343230	keystroke	Key.space	n/a
171.795	0.105	343590	keystroke	h	n/a
171.915	0.105	343830	keystroke	o	n/a
172.14	0.09	344280	keystroke	n	n/a
172.199	0.106	344398	keystroke	o	n/a
172.35	0.059	344700	keystroke	r	n/a
172.6495	0.076	345299	keystroke	s	n/a
172.8595	0.105	345719	keystroke	Key.space	n/a
173.4895	0.06	346979	keystroke	p	n/a
173.6845	0.1055	347369	keystroke	u	n/a
174.1045	0.0605	348209	keystroke	l	n/a
174.2845	0.0905	348569	keystroke	l	n/a
174.4345	0.12	348869	keystroke	Key.space	n/a
174.6595	0.045	349319	keystroke	i	n/a
174.81	0.0895	349620	keystroke	n	n/a
174.8845	0.09	349769	keystroke	s	n/a
175.0795	0.046	350159	keystroke	t	n/a
175.2445	0.06	350489	keystroke	r	n/a
175.425	0.0595	350850	keystroke	u	n/a
175.5145	0.075	351029	keystroke	c	n/a
175.7395	0.075	351479	keystroke	t	n/a
175.8295	0.06	351659	keystroke	i	n/a
176.0095	0.09	352019	keystroke	o	n/a
176.07	0.0895	352140	keystroke	n	n/a
176.4295	0.045	352859	keystroke	Key.enter	n/a
176.4825	5.829	352965	prompt	n/a	fare stands supplemental fixes\n
177.1055	0.074	354211	keystroke	f	n/a
177.2545	0.1205	354509	keystroke	a	n/a
177.36	0.075	354720	keystroke	r	n/a
177.555	0.09	355110	keystroke	e	n/a
177.659	0.091	355318	keystroke	Key.space	n/a
177.825	0.09	355650	keystroke	s	n/a
178.0355	0.0445	356071	keystroke	t	n/a
178.23	0.119	356460	keystroke	a	n/a
178.364	0.106	356728	keystroke	n	n/a
178.499	0.076	356998	keystroke	d	n/a
178.65	0.105	357300	keystroke	s	n/a
178.889	0.09	357778	keystroke	Key.space	n/a
179.115	0.0755	358230	keystroke	s	n/a
179.234	0.0915	358468	keystroke	u	n/a
179.6255	0.074	359251	keystroke	p	n/a
179.7595	0.06	359519	keystroke	p	n/a
179.9545	0.1045	359909	keystroke	l	n/a
180.105	0.06	360210	keystroke	e	n/a
180.24	0.105	360480	keystroke	m	n/a
180.3295	0.0905	360659	keystroke	e	n/a
180.45	0.12	360900	keystroke	n	n/a
180.599	0.046	361198	keystroke	t	n/a
180.735	0.089	361470	keystroke	a	n/a
180.81	0.105	361620	keystroke	l	n/a
180.975	0.075	361950	keystroke	Key.space	n/a
181.44	0.059	362880	keystroke	f	n/a
181.559	0.0605	363118	keystroke	i	n/a
181.665	0.09	363330	keystroke	x	n/a
181.8605	0.0445	363721	keystroke	e	n/a
182.069	0.061	364138	keystroke	s	n/a
182.265	0.044	364530	keystroke	Key.enter	n/a
182.316	7.061	364632	prompt	n/a	expensive invision matter protecting\n
183.2255	0.075	366451	keystroke	e	n/a
183.405	0.09	366810	keystroke	x	n/a
183.51	0.0905	367020	keystroke	p	n/a
183.644	0.061	367288	keystroke	e	n/a
183.7945	0.0755	367589	keystroke	n	n/a
183.8855	0.06	367771	keystroke	s	n/a
184.0195	0.06	368039	keystroke	i	n/a
184.1695	0.0605	368339	keystroke	v	n/a
184.41	0.075	368820	keystroke	e	n/a
184.605	0.09	369210	keystroke	Key.space	n/a
184.935	0.06	369870	keystroke	i	n/a
185.13	0.105	370260	keystroke	n	n/a
185.22	0.1055	370440	keystroke	v	n/a
185.355	0.075	370710	keystroke	i	n/a
185.475	0.06	370950	keystroke	s	n/a
185.565	0.075	371130	keystroke	i	n/a
185.76	0.105	371520	keystroke	o	n/a
185.82	0.12	371640	keystroke	n	n/a
186.06	0.075	372120	keystroke	Key.space	n/a
186.2395	0.09	372479	keystroke	m	n/a
186.3145	0.1055	372629	keystroke	a	n/a
186.48	0.0595	372960	keystroke	t	n/a
186.6005	0.075	373201	keystroke	t	n/a
186.8095	0.075	373619	keystroke	e	n/a
186.99	0.075	373980	keystroke	r	n/a
187.05	0.0755	374100	keystroke	Key.space	n/a
187.9805	0.09	375961	keystroke	p	n/a
188.025	0.0905	376050	keystroke	r	n/a
188.1595	0.1055	376319	keystroke	o	n/a
188.28	0.06	376560	keystroke	t	n/a
188.444	0.076	376888	keystroke	e	n/a
188.655	0.075	377310	keystroke	c	n/a
188.8495	0.0605	377699	keystroke	t	n/a
188.925	0.075	377850	keystroke	i	n/a
188.97	0.104	377940	keystroke	n	n/a
189.09	0.045	378180	keystroke	g	n/a
189.33	0.045	378660	keystroke	Key.enter	n/a
189.3815	4.5255	378763	prompt	n/a	cuba use naturally issn\n
190.05	0.12	380100	keystroke	c	n/a
190.185	0.06	380370	keystroke	u	n/a
190.38	0.075	380760	keystroke	b	n/a
190.53	0.105	381060	keystroke	a	n/a
190.589	0.1055	381178	keystroke	Key.space	n/a
190.8295	0.0605	381659	keystroke	u	n/a
191.49	0.12	382980	keystroke	s	n/a
191.55	0.15	383100	keystroke	e	n/a
191.715	0.105	383430	keystroke	Key.space	n/a
191.9545	0.1205	383909	keystroke	n	n/a
192.03	0.0895	384060	keystroke	a	n/a
192.1795	0.075	384359	keystroke	t	n/a
192.2995	0.075	384599	keystroke	u	n/a
192.405	0.09	384810	keystroke	r	n/a
192.525	0.0895	385050	keystroke	a	n/a
192.6295	0.0605	385259	keystroke	l	n/a
192.75	0.1195	385500	keystroke	l	n/a
192.8855	0.119	385771	keystroke	y	n/a
192.9595	0.1055	385919	keystroke	Key.space	n/a
193.14	0.0895	386280	keystroke	i	n/a
193.3045	0.045	386609	keystroke	s	n/a
193.4395	0.09	386879	keystroke	s	n/a
193.5595	0.075	387119	keystroke	n	n/a
193.83	0.0745	387660	keystroke	Key.enter	n/a
193.913	5.6635	387826	prompt	n/a	keep demonstration ranch holmes\n
194.715	0.105	389430	keystroke	k	n/a
194.805	0.06	389610	keystroke	e	n/a
194.94	0.09	389880	keystroke	e	n/a
195.075	0.0745	390150	keystroke	p	n/a
195.164	0.0905	390328	keystroke	Key.space	n/a
195.4045	0.0755	390809	keystroke	d	n/a
195.5695	0.0605	391139	keystroke	e	n/a
195.945	0.075	391890	keystroke	m	n/a
196.0795	0.075	392159	keystroke	o	n/a
196.2595	0.075	392519	keystroke	n	n/a
196.3195	0.09	392639	keystroke	s	n/a
196.4845	0.075	392969	keystroke	t	n/a
196.6645	0.15	393329	keystroke	r	n/a
196.7695	0.12	393539	keystroke	a	n/a
196.9055	0.0895	393811	keystroke	t	n/a
197.0095	0.045	394019	keystroke	i	n/a
197.175	0.09	394350	keystroke	o	n/a
197.325	0.12	394650	keystroke	n	n/a
197.4595	0.105	394919	keystroke	Key.space	n/a
197.7	0.105	395400	keystroke	r	n/a
197.789	0.106	395578	keystroke	a	n/a
197.91	0.09	395820	keystroke	n	n/a
198.015	0.0745	396030	keystroke	c	n/a
198.1345	0.0905	396269	keystroke	h	n/a
198.239	0.0905	396478	keystroke	Key.space	n/a
198.45	0.09	396900	keystroke	h	n/a
198.569	0.106	397138	keystroke	o	n/a
198.84	0.1055	397680	keystroke	l	n/a
199.035	0.09	398070	keystroke	m	n/a
199.11	0.074	398220	keystroke	e	n/a
199.229	0.106	398458	keystroke	s	n/a
199.469	0.106	398938	keystroke	Key.enter	n/a
199.58	7.317	399160	prompt	n/a	profession wins investor agent\n
200.339	0.091	400678	keystroke	p	n/a
200.4	0.09	400800	keystroke	r	n/a
200.5355	0.0895	401071	keystroke	o	n/a
200.6695	0.0605	401339	keystroke	f	n/a
200.8655	0.074	401731	keystroke	e	n/a
201.06	0.075	402120	keystroke	s	n/a
201.2095	0.09	402419	keystroke	s	n/a
201.3145	0.0605	402629	keystroke	i	n/a
201.4795	0.105	402959	keystroke	o	n/a
201.54	0.1345	403080	keystroke	n	n/a
201.6295	0.1055	403259	keystroke	Key.space	n/a
201.81	0.06	403620	keystroke	w	n/a
201.899	0.076	403798	keystroke	i	n/a
202.05	0.0745	404100	keystroke	n	n/a
202.215	0.135	404430	keystroke	s	n/a
202.35	0.0895	404700	keystroke	Key.space	n/a
202.575	0.0595	405150	keystroke	i	n/a
202.7705	0.0895	405541	keystroke	n	n/a
203.2345	0.0755	406469	keystroke	v	n/a
203.46	0.0755	406920	keystroke	e	n/a
203.595	0.12	407190	keystroke	s	n/a
204.06	0.06	408120	keystroke	t	n/a
204.27	0.075	408540	keystroke	o	n/a
204.45	0.0895	408900	keystroke	r	n/a
204.6	0.0895	409200	keystroke	Key.space	n/a
204.825	0.0595	409650	keystroke	a	n/a
204.96	0.0595	409920	keystroke	g	n/a
205.125	0.1045	410250	keystroke	e	n/a
205.2595	0.075	410519	keystroke	n	n/a
205.35	0.0595	410700	keystroke	t	n/a
205.5145	0.0605	411029	keystroke	'	n/a
206.504	0.0755	413008	keystroke	Key.backspace	n/a
206.8195	0.075	413639	keystroke	Key.enter	n/a
206.901	10.0155	413802	prompt	n/a	stick integral strange previews\n
207.7795	0.0895	415559	keystroke	t	n/a
207.9	0.075	415800	keystroke	i	n/a
208.0355	0.119	416071	keystroke	c	n/a
208.1695	0.0755	416339	keystroke	k	n/a
208.275	0.09	416550	keystroke	Key.space	n/a
208.53	0.075	417060	keystroke	i	n/a
208.7245	0.0745	417449	keystroke	n	n/a
208.815	0.06	417630	keystroke	t	n/a
209.025	0.075	418050	keystroke	e	n/a
210.2695	0.0605	420539	keystroke	g	n/a
210.39	0.059	420780	keystroke	r	n/a
210.4945	0.1055	420989	keystroke	a	n/a
210.615	0.074	421230	keystroke	l	n/a
210.7795	0.0895	421559	keystroke	Key.space	n/a
211.545	0.104	423090	keystroke	s	n/a
211.769	0.075	423538	keystroke	t	n/a
211.95	0.074	423900	keystroke	r	n/a
211.9955	0.119	423991	keystroke	a	n/a
212.1295	0.091	424259	keystroke	n	n/a
212.2645	0.045	424529	keystroke	g	n/a
212.4605	0.0595	424921	keystroke	e	n/a
212.6545	0.09	425309	keystroke	Key.space	n/a
213.4355	0.089	426871	keystroke	p	n/a
213.5995	0.076	427199	keystroke	r	n/a
214.14	0.075	428280	keystroke	e	n/a
216.045	0.1045	432090	keystroke	v	n/a
216.195	0.0905	432390	keystroke	i	n/a
216.315	0.0905	432630	keystroke	e	n/a
216.465	0.0745	432930	keystroke	w	n/a
216.6605	0.074	433321	keystroke	s	n/a
216.8245	0.09	433649	keystroke	Key.enter	n/a
216.932	4.9655	433864	prompt	n/a	disc source mirror patch\n
217.5595	0.1055	435119	keystroke	d	n/a
217.68	0.12	435360	keystroke	i	n/a
217.74	0.104	435480	keystroke	s	n/a
217.89	0.12	435780	keystroke	c	n/a
218.49	0.09	436980	keystroke	Key.space	n/a
218.82	0.075	437640	keystroke	s	n/a
218.925	0.06	437850	keystroke	o	n/a
219.09	0.105	438180	keystroke	u	n/a
219.18	0.06	438360	keystroke	r	n/a
219.405	0.06	438810	keystroke	c	n/a
219.63	0.104	439260	keystroke	e	n/a
219.689	0.0905	439378	keystroke	Key.space	n/a
219.96	0.105	439920	keystroke	m	n/a
220.155	0.0755	440310	keystroke	i	n/a
220.3505	0.059	440701	keystroke	r	n/a
220.4705	0.075	440941	keystroke	r	n/a
220.5595	0.091	441119	keystroke	o	n/a
220.6655	0.09	441331	keystroke	r	n/a
220.8	0.1045	441600	keystroke	Key.space	n/a
221.025	0.1045	442050	keystroke	p	n/a
221.1	0.1045	442200	keystroke	a	n/a
221.25	0.0595	442500	keystroke	t	n/a
221.445	0.0595	442890	keystroke	c	n/a
221.52	0.09	443040	keystroke	h	n/a
221.85	0.045	443700	keystroke	Key.enter	n/a
221.9025	5.1105	443805	prompt	n/a	last supplier printers calls\n
222.66	0.1205	445320	keystroke	l	n/a
222.7945	0.136	445589	keystroke	a	n/a
222.9005	0.105	445801	keystroke	s	n/a
223.0505	0.1495	446101	keystroke	t	n/a
223.185	0.09	446370	keystroke	Key.space	n/a
223.3505	0.105	446701	keystroke	s	n/a
223.4855	0.075	446971	keystroke	u	n/a
223.7555	0.075	447511	keystroke	p	n/a
223.9055	0.075	447811	keystroke	p	n/a
224.1005	0.1495	448201	keystroke	l	n/a
224.2055	0.12	448411	keystroke	i	n/a
224.3395	0.091	448679	keystroke	e	n/a
224.505	0.1045	449010	keystroke	r	n/a
224.58	0.1345	449160	keystroke	Key.space	n/a
224.85	0.1045	449700	keystroke	p	n/a
224.9395	0.105	449879	keystroke	r	n/a
225.0595	0.045	450119	keystroke	i	n/a
225.195	0.12	450390	keystroke	n	n/a
225.27	0.0755	450540	keystroke	t	n/a
225.465	0.0595	450930	keystroke	e	n/a
225.5995	0.0905	451199	keystroke	r	n/a
225.75	0.1505	451500	keystroke	s	n/a
225.8845	0.0605	451769	keystroke	Key.space	n/a
226.0055	0.09	452011	keystroke	c	n/a
226.14	0.09	452280	keystroke	a	n/a
226.395	0.075	452790	keystroke	l	n/a
226.5905	0.0895	453181	keystroke	l	n/a
226.71	0.09	453420	keystroke	s	n/a
226.905	0.105	453810	keystroke	Key.enter	n/a
227.017	6.1145	454034	prompt	n/a	consultants yarn gender lexmark\n
227.7005	0.105	455401	keystroke	c	n/a
227.8195	0.061	455639	keystroke	o	n/a
227.9845	0.075	455969	keystroke	n	n/a
228.1055	0.1045	456211	keystroke	s	n/a
228.495	0.075	456990	keystroke	u	n/a
228.735	0.105	457470	keystroke	l	n/a
228.84	0.09	457680	keystroke	t	n/a
228.99	0.15	457980	keystroke	a	n/a
229.156	0.0895	458312	keystroke	n	n/a
229.2755	0.089	458551	keystroke	t	n/a
229.4845	0.135	458969	keystroke	s	n/a
229.6645	0.09	459329	keystroke	Key.space	n/a
229.8595	0.075	459719	keystroke	y	n/a
230.115	0.1195	460230	keystroke	a	n/a
230.2805	0.059	460561	keystroke	r	n/a
230.5345	0.0755	461069	keystroke	n	n/a
230.6845	0.105	461369	keystroke	Key.space	n/a
230.925	0.0595	461850	keystroke	g	n/a
231.09	0.0745	462180	keystroke	e	n/a
231.2245	0.105	462449	keystroke	n	n/a
231.315	0.0445	462630	keystroke	d	n/a
231.45	0.0595	462900	keystroke	e	n/a
231.615	0.1055	463230	keystroke	r	n/a
231.6745	0.105	463349	keystroke	Key.space	n/a
231.8545	0.0905	463709	keystroke	l	n/a
231.915	0.0595	463830	keystroke	e	n/a
232.14	0.09	464280	keystroke	x	n/a
232.275	0.12	464550	keystroke	m	n/a
232.41	0.15	464820	keystroke	a	n/a
232.575	0.0905	465150	keystroke	r	n/a
232.68	0.0745	465360	keystroke	k	n/a
233.025	0.105	466050	keystroke	Key.enter	n/a
233.137	4.795	466274	prompt	n/a	simulations coins gaming rise\n
233.805	0.105	467610	keystroke	s	n/a
233.9555	0.09	467911	keystroke	i	n/a
234.195	0.09	468390	keystroke	m	n/a
234.42	0.06	468840	keystroke	u	n/a
234.6005	0.105	469201	keystroke	l	n/a
234.6755	0.105	469351	keystroke	a	n/a
234.81	0.0905	469620	keystroke	t	n/a
234.9145	0.045	469829	keystroke	i	n/a
235.0805	0.075	470161	keystroke	o	n/a
235.11	0.1655	470220	keystroke	n	n/a
235.2595	0.121	470519	keystroke	s	n/a
235.3195	0.15	470639	keystroke	Key.space	n/a
235.5895	0.091	471179	keystroke	c	n/a
235.695	0.0895	471390	keystroke	o	n/a
235.9055	0.059	471811	keystroke	i	n/a
236.1005	0.075	472201	keystroke	n	n/a
236.22	0.1355	472440	keystroke	s	n/a
236.3395	0.105	472679	keystroke	Key.space	n/a
236.595	0.0595	473190	keystroke	g	n/a
236.7295	0.12	473459	keystroke	a	n/a
236.8205	0.104	473641	keystroke	m	n/a
236.9845	0.0905	473969	keystroke	i	n/a
237.06	0.1195	474120	keystroke	n	n/a
237.1645	0.091	474329	keystroke	g	n/a
237.2245	0.0905	474449	keystroke	Key.space	n/a
237.3895	0.075	474779	keystroke	r	n/a
237.4805	0.089	474961	keystroke	i	n/a
237.6005	0.1195	475201	keystroke	s	n/a
237.6305	0.1345	475261	keystroke	e	n/a
237.8395	0.09	475679	keystroke	Key.enter	n/a
237.9405	8.182	475881	prompt	n/a	wolf throwing excessive academy\n
238.6345	0.091	477269	keystroke	w	n/a
238.74	0.0605	477480	keystroke	o	n/a
239.2055	0.075	478411	keystroke	l	n/a
239.2955	0.105	478591	keystroke	f	n/a
239.5495	0.0905	479099	keystroke	Key.space	n/a
239.7595	0.075	479519	keystroke	t	n/a
239.8505	0.09	479701	keystroke	h	n/a
240.69	0.06	481380	keystroke	r	n/a
240.7955	0.0745	481591	keystroke	o	n/a
240.885	0.075	481770	keystroke	w	n/a
241.005	0.105	482010	keystroke	i	n/a
241.08	0.12	482160	keystroke	n	n/a
241.215	0.1195	482430	keystroke	g	n/a
241.3195	0.09	482639	keystroke	Key.space	n/a
241.4845	0.0755	482969	keystroke	e	n/a
241.725	0.075	483450	keystroke	x	n/a
241.98	0.105	483960	keystroke	c	n/a
242.2495	0.075	484499	keystroke	e	n/a
242.5045	0.061	485009	keystroke	s	n/a
242.655	0.06	485310	keystroke	s	n/a
242.76	0.09	485520	keystroke	i	n/a
243.2105	0.075	486421	keystroke	v	n/a
243.4795	0.0755	486959	keystroke	e	n/a
243.54	0.105	487080	keystroke	Key.space	n/a
244.02	0.0755	488040	keystroke	c	n/a
244.44	0.06	488880	keystroke	Key.backspace	n/a
244.515	0.135	489030	keystroke	a	n/a
244.62	0.105	489240	keystroke	c	n/a
244.74	0.12	489480	keystroke	a	n/a
245.2205	0.0445	490441	keystroke	d	n/a
245.355	0.06	490710	keystroke	e	n/a
245.445	0.105	490890	keystroke	m	n/a
245.8205	0.074	491641	keystroke	y	n/a
246.075	0.045	492150	keystroke	Key.enter	n/a
246.127	8.2155	492254	prompt	n/a	geography date engineers when's\n
247.5305	0.0735	495061	keystroke	g	n/a
248.085	0.12	496170	keystroke	e	n/a
248.22	0.0905	496440	keystroke	o	n/a
248.49	0.06	496980	keystroke	g	n/a
248.76	0.105	497520	keystroke	a	n/a
248.835	0.105	497670	keystroke	p	n/a
249.405	0.045	498810	keystroke	Key.backspace	n/a
249.525	0.0595	499050	keystroke	Key.backspace	n/a
249.5695	0.1195	499139	keystroke	r	n/a
249.675	0.105	499350	keystroke	a	n/a
249.75	0.06	499500	keystroke	p	n/a
249.9	0.075	499800	keystroke	h	n/a
250.02	0.09	500040	keystroke	y	n/a
250.3345	0.1055	500669	keystroke	Key.space	n/a
250.6205	0.105	501241	keystroke	d	n/a
250.7855	0.104	501571	keystroke	a	n/a
250.9505	0.075	501901	keystroke	t	n/a
251.1455	0.105	502291	keystroke	e	n/a
251.2195	0.1055	502439	keystroke	Key.space	n/a
251.46	0.045	502920	keystroke	e	n/a
251.52	0.1205	503040	keystroke	n	n/a
252.2095	0.09	504419	keystroke	g	n/a
252.2995	0.09	504599	keystroke	i	n/a
252.48	0.1505	504960	keystroke	n	n/a
252.6155	0.104	505231	keystroke	e	n/a
252.8395	0.091	505679	keystroke	e	n/a
253.0345	0.076	506069	keystroke	r	n/a
253.1705	0.119	506341	keystroke	s	n/a
253.2595	0.105	506519	keystroke	Key.space	n/a
253.41	0.105	506820	keystroke	w	n/a
253.5005	0.075	507001	keystroke	h	n/a
253.6055	0.104	507211	keystroke	e	n/a
253.6795	0.075	507359	keystroke	n	n/a
253.8595	0.105	507719	keystroke	'	n/a
253.995	0.0745	507990	keystroke	s	n/a
254.2345	0.1055	508469	keystroke	Key.enter	n/a
254.3475	8.274	508695	prompt	n/a	internship wash johnson pulse\n
254.97	0.0755	509940	keystroke	i	n/a
255.1055	0.104	510211	keystroke	n	n/a
255.1805	0.089	510361	keystroke	t	n/a
255.375	0.0905	510750	keystroke	e	n/a
255.525	0.09	511050	keystroke	r	n/a
255.63	0.12	511260	keystroke	n	n/a
255.795	0.105	511590	keystroke	s	n/a
255.915	0.1645	511830	keystroke	h	n/a
256.02	0.1345	512040	keystroke	i	n/a
256.2295	0.12	512459	keystroke	p	n/a
256.395	0.075	512790	keystroke	Key.space	n/a
256.4995	0.091	512999	keystroke	w	n/a
256.6795	0.105	513359	keystroke	a	n/a
256.7545	0.135	513509	keystroke	s	n/a
256.9045	0.1055	513809	keystroke	h	n/a
257.0245	0.09	514049	keystroke	Key.space	n/a
258.165	0.1195	516330	keystroke	j	n/a
258.27	0.1045	516540	keystroke	o	n/a
258.48	0.06	516960	keystroke	h	n/a
258.6605	0.1045	517321	keystroke	n	n/a
258.825	0.15	517650	keystroke	s	n/a
258.93	0.075	517860	keystroke	o	n/a
259.095	0.1045	518190	keystroke	n	n/a
259.215	0.105	518430	keystroke	Key.space	n/a
259.4245	0.0755	518849	keystroke	p	n/a
259.92	0.0905	519840	keystroke	u	n/a
260.2495	0.105	520499	keystroke	l	n/a
260.415	0.135	520830	keystroke	s	n/a
260.475	0.12	520950	keystroke	e	n/a
262.515	0.1045	525030	keystroke	Key.enter	n/a
262.626	4.585	525252	prompt	n/a	stuck gras athens cute\n
263.22	0.12	526440	keystroke	s	n/a
263.37	0.105	526740	keystroke	t	n/a
263.49	0.075	526980	keystroke	u	n/a
263.64	0.09	527280	keystroke	c	n/a
263.7	0.0905	527400	keystroke	k	n/a
263.85	0.135	527700	keystroke	Key.space	n/a
263.955	0.105	527910	keystroke	g	n/a
264.1795	0.12	528359	keystroke	r	n/a
264.2555	0.149	528511	keystroke	a	n/a
264.3895	0.106	528779	keystroke	s	n/a
264.69	0.105	529380	keystroke	Key.space	n/a
264.96	0.12	529920	keystroke	a	n/a
265.095	0.075	530190	keystroke	t	n/a
265.3055	0.1045	530611	keystroke	h	n/a
265.425	0.12	530850	keystroke	e	n/a
265.53	0.12	531060	keystroke	n	n/a
265.695	0.105	531390	keystroke	s	n/a
265.83	0.12	531660	keystroke	Key.space	n/a
266.0695	0.0905	532139	keystroke	c	n/a
266.1745	0.0905	532349	keystroke	u	n/a
266.2795	0.06	532559	keystroke	t	n/a
266.445	0.1045	532890	keystroke	e	n/a
267.0595	0.15	534119	keystroke	Key.enter	n/a
267.219	6.6075	534438	prompt	n/a	using societies fireplace tomatoes\n
267.8995	0.105	535799	keystroke	u	n/a
268.0495	0.1205	536099	keystroke	s	n/a
268.17	0.12	536340	keystroke	i	n/a
268.275	0.119	536550	keystroke	n	n/a
268.425	0.12	536850	keystroke	g	n/a
268.559	0.121	537118	keystroke	Key.space	n/a
268.905	0.12	537810	keystroke	s	n/a
269.039	0.151	538078	keystroke	o	n/a
269.145	0.0895	538290	keystroke	c	n/a
269.295	0.105	538590	keystroke	i	n/a
269.415	0.0745	538830	keystroke	e	n/a
269.64	0.0595	539280	keystroke	t	n/a
269.7295	0.075	539459	keystroke	i	n/a
269.895	0.12	539790	keystroke	e	n/a
270.06	0.1345	540120	keystroke	s	n/a
270.1945	0.12	540389	keystroke	Key.space	n/a
270.765	0.1195	541530	keystroke	f	n/a
270.9445	0.1205	541889	keystroke	i	n/a
271.0495	0.0455	542099	keystroke	r	n/a
271.2	0.09	542400	keystroke	e	n/a
271.395	0.06	542790	keystroke	p	n/a
271.56	0.09	543120	keystroke	l	n/a
271.62	0.1055	543240	keystroke	a	n/a
271.83	0.045	543660	keystroke	c	n/a
272.009	0.091	544018	keystroke	e	n/a
272.249	0.076	544498	keystroke	Key.space	n/a
272.7	0.105	545400	keystroke	t	n/a
272.805	0.075	545610	keystroke	o	n/a
272.984	0.1355	545968	keystroke	m	n/a
273.0745	0.12	546149	keystroke	a	n/a
273.21	0.105	546420	keystroke	t	n/a
273.3445	0.09	546689	keystroke	o	n/a
273.4495	0.09	546899	keystroke	e	n/a
273.555	0.105	547110	keystroke	s	n/a
273.6895	0.135	547379	keystroke	Key.enter	n/a
273.833	7.1185	547666	prompt	n/a	markers television showtimes pipeline\n
274.575	0.15	549150	keystroke	m	n/a
274.665	0.12	549330	keystroke	a	n/a
274.74	0.105	549480	keystroke	r	n/a
274.86	0.09	549720	keystroke	k	n/a
274.935	0.075	549870	keystroke	e	n/a
275.1	0.12	550200	keystroke	r	n/a
275.235	0.105	550470	keystroke	s	n/a
275.31	0.12	550620	keystroke	Key.space	n/a
275.505	0.06	551010	keystroke	t	n/a
275.655	0.0755	551310	keystroke	l	n/a
276.09	0.044	552180	keystroke	Key.backspace	n/a
276.15	0.119	552300	keystroke	e	n/a
276.36	0.0595	552720	keystroke	l	n/a
276.375	0.21	552750	keystroke	e	n/a
276.779	0.105	553558	keystroke	v	n/a
276.855	0.104	553710	keystroke	i	n/a
276.99	0.119	553980	keystroke	s	n/a
277.095	0.075	554190	keystroke	i	n/a
277.244	0.06	554488	keystroke	o	n/a
277.395	0.104	554790	keystroke	n	n/a
277.559	0.12	555118	keystroke	Key.space	n/a
277.845	0.105	555690	keystroke	s	n/a
277.965	0.06	555930	keystroke	h	n/a
278.115	0.09	556230	keystroke	o	n/a
278.19	0.105	556380	keystroke	w	n/a
278.43	0.105	556860	keystroke	t	n/a
278.55	0.075	557100	keystroke	i	n/a
278.7	0.134	557400	keystroke	m	n/a
278.835	0.074	557670	keystroke	e	n/a
278.97	0.15	557940	keystroke	s	n/a
279.105	0.104	558210	keystroke	Key.space	n/a
279.315	0.075	558630	keystroke	p	n/a
279.48	0.105	558960	keystroke	i	n/a
279.6305	0.1045	559261	keystroke	p	n/a
280.155	0.044	560310	keystroke	e	n/a
280.3055	0.089	560611	keystroke	l	n/a
280.44	0.0595	560880	keystroke	i	n/a
280.5895	0.1055	561179	keystroke	n	n/a
280.7095	0.1055	561419	keystroke	e	n/a
280.8295	0.12	561659	keystroke	Key.enter	n/a
280.957	6.685	561914	prompt	n/a	cloud patients borders firm\n
281.5945	0.12	563189	keystroke	c	n/a
281.7145	0.105	563429	keystroke	l	n/a
281.8645	0.0755	563729	keystroke	o	n/a
282.045	0.1045	564090	keystroke	u	n/a
282.195	0.1045	564390	keystroke	d	n/a
282.36	0.1195	564720	keystroke	Key.space	n/a
282.6895	0.105	565379	keystroke	p	n/a
282.7795	0.12	565559	keystroke	a	n/a
283.035	0.12	566070	keystroke	t	n/a
283.17	0.1045	566340	keystroke	i	n/a
283.2595	0.1055	566519	keystroke	e	n/a
283.3795	0.12	566759	keystroke	n	n/a
283.5445	0.0905	567089	keystroke	t	n/a
283.724	0.166	567448	keystroke	s	n/a
283.9045	0.1055	567809	keystroke	Key.space	n/a
284.16	0.0895	568320	keystroke	b	n/a
284.235	0.1195	568470	keystroke	r	n/a
284.4445	0.075	568889	keystroke	o	n/a
284.699	0.0755	569398	keystroke	d	n/a
285.39	0.06	570780	keystroke	Key.backspace	n/a
285.54	0.06	571080	keystroke	Key.backspace	n/a
285.69	0.075	571380	keystroke	Key.backspace	n/a
285.9	0.09	571800	keystroke	o	n/a
286.005	0.06	572010	keystroke	r	n/a
286.2	0.045	572400	keystroke	d	n/a
286.335	0.09	572670	keystroke	e	n/a
286.5145	0.075	573029	keystroke	r	n/a
286.6945	0.105	573389	keystroke	s	n/a
286.785	0.1195	573570	keystroke	Key.space	n/a
286.965	0.0895	573930	keystroke	f	n/a
287.0395	0.105	574079	keystroke	i	n/a
287.1595	0.1055	574319	keystroke	r	n/a
287.2795	0.1055	574559	keystroke	m	n/a
287.535	0.1045	575070	keystroke	Key.enter	n/a
287.6465	5.8455	575293	prompt	n/a	spears lack member introducing\n
288.27	0.105	576540	keystroke	s	n/a
288.375	0.0895	576750	keystroke	p	n/a
288.479	0.1215	576958	keystroke	e	n/a
288.6005	0.194	577201	keystroke	a	n/a
288.6895	0.195	577379	keystroke	r	n/a
288.9295	0.105	577859	keystroke	s	n/a
288.974	0.12	577948	keystroke	Key.space	n/a
289.229	0.136	578458	keystroke	l	n/a
289.32	0.075	578640	keystroke	a	n/a
289.484	0.121	578968	keystroke	c	n/a
289.559	0.136	579118	keystroke	k	n/a
289.709	0.075	579418	keystroke	Key.space	n/a
289.845	0.1195	579690	keystroke	m	n/a
289.95	0.12	579900	keystroke	e	n/a
290.085	0.06	580170	keystroke	n	n/a
290.5495	0.045	581099	keystroke	Key.backspace	n/a
290.73	0.0895	581460	keystroke	m	n/a
290.9395	0.09	581879	keystroke	b	n/a
291.0445	0.075	582089	keystroke	e	n/a
291.2395	0.1205	582479	keystroke	r	n/a
291.3745	0.12	582749	keystroke	Key.space	n/a
291.689	0.045	583378	keystroke	i	n/a
291.87	0.12	583740	keystroke	n	n/a
292.005	0.015	584010	keystroke	t	n/a
292.109	0.106	584218	keystroke	r	n/a
292.2	0.105	584400	keystroke	o	n/a
292.364	0.09	584728	keystroke	d	n/a
292.47	0.105	584940	keystroke	u	n/a
292.5895	0.0755	585179	keystroke	c	n/a
292.965	0.074	585930	keystroke	i	n/a
293.1145	0.1055	586229	keystroke	n	n/a
293.204	0.06	586408	keystroke	g	n/a
293.384	0.1055	586768	keystroke	Key.enter	n/a
293.497	8.05	586994	prompt	n/a	nicholas piece reef referrals\n
294.2095	0.105	588419	keystroke	n	n/a
294.3755	0.104	588751	keystroke	i	n/a
294.5245	0.1055	589049	keystroke	c	n/a
294.6145	0.061	589229	keystroke	h	n/a
294.7345	0.075	589469	keystroke	o	n/a
294.9145	0.105	589829	keystroke	l	n/a
295.0345	0.165	590069	keystroke	a	n/a
295.2295	0.165	590459	keystroke	s	n/a
295.3495	0.12	590699	keystroke	Key.space	n/a
295.5595	0.1055	591119	keystroke	p	n/a
296.3095	0.09	592619	keystroke	i	n/a
296.4145	0.075	592829	keystroke	e	n/a
296.6545	0.0755	593309	keystroke	c	n/a
296.82	0.135	593640	keystroke	e	n/a
297.015	0.09	594030	keystroke	Key.space	n/a
297.255	0.09	594510	keystroke	r	n/a
297.435	0.075	594870	keystroke	e	n/a
297.585	0.075	595170	keystroke	e	n/a
297.78	0.105	595560	keystroke	f	n/a
297.9	0.104	595800	keystroke	Key.space	n/a
298.8145	0.075	597629	keystroke	r	n/a
298.9795	0.09	597959	keystroke	e	n/a
299.2495	0.045	598499	keystroke	f	n/a
299.9695	0.1055	599939	keystroke	e	n/a
300.195	0.075	600390	keystroke	r	n/a
300.659	0.0305	601318	keystroke	r	n/a
300.795	0.105	601590	keystroke	a	n/a
300.959	0.136	601918	keystroke	l	n/a
301.2595	0.0745	602519	keystroke	s	n/a
301.4395	0.1055	602879	keystroke	Key.enter	n/a
301.553	6.8185	603106	prompt	n/a	franchise adam pool impacts\n
302.22	0.09	604440	keystroke	f	n/a
302.4	0.105	604800	keystroke	r	n/a
302.5345	0.105	605069	keystroke	a	n/a
302.7745	0.105	605549	keystroke	n	n/a
303.2695	0.105	606539	keystroke	c	n/a
303.3755	0.089	606751	keystroke	h	n/a
303.555	0.0895	607110	keystroke	i	n/a
303.7645	0.1205	607529	keystroke	s	n/a
303.9745	0.0905	607949	keystroke	e	n/a
304.1995	0.105	608399	keystroke	Key.space	n/a
304.4395	0.09	608879	keystroke	a	n/a
304.5895	0.12	609179	keystroke	d	n/a
304.8445	0.09	609689	keystroke	a	n/a
304.9795	0.15	609959	keystroke	m	n/a
305.1745	0.09	610349	keystroke	Key.space	n/a
305.3095	0.12	610619	keystroke	p	n/a
306.104	0.0755	612208	keystroke	o	n/a
306.269	0.075	612538	keystroke	o	n/a
306.494	0.0605	612988	keystroke	l	n/a
306.9145	0.1045	613829	keystroke	Key.space	n/a
307.154	0.075	614308	keystroke	i	n/a
307.334	0.091	614668	keystroke	m	n/a
307.514	0.105	615028	keystroke	p	n/a
307.6795	0.0755	615359	keystroke	a	n/a
307.769	0.0755	615538	keystroke	c	n/a
307.964	0.091	615928	keystroke	t	n/a
308.115	0.1045	616230	keystroke	s	n/a
308.2495	0.12	616499	keystroke	Key.enter	n/a
308.383	4.998	616766	prompt	n/a	hide memo shakespeare pair\n
309.0745	0.06	618149	keystroke	h	n/a
309.1495	0.135	618299	keystroke	i	n/a
309.24	0.0895	618480	keystroke	d	n/a
309.4045	0.12	618809	keystroke	e	n/a
309.4795	0.105	618959	keystroke	Key.space	n/a
309.6295	0.1505	619259	keystroke	m	n/a
309.7195	0.1055	619439	keystroke	e	n/a
309.9	0.12	619800	keystroke	m	n/a
309.975	0.119	619950	keystroke	o	n/a
310.169	0.09	620338	keystroke	Key.space	n/a
310.3045	0.1645	620609	keystroke	s	n/a
310.454	0.0755	620908	keystroke	h	n/a
310.574	0.0905	621148	keystroke	a	n/a
310.769	0.091	621538	keystroke	k	n/a
310.92	0.09	621840	keystroke	e	n/a
311.235	0.12	622470	keystroke	s	n/a
311.4	0.089	622800	keystroke	p	n/a
311.505	0.12	623010	keystroke	e	n/a
311.835	0.09	623670	keystroke	a	n/a
311.94	0.09	623880	keystroke	r	n/a
312.135	0.09	624270	keystroke	e	n/a
312.3595	0.0895	624719	keystroke	Key.space	n/a
312.78	0.12	625560	keystroke	p	n/a
312.885	0.135	625770	keystroke	a	n/a
313.005	0.09	626010	keystroke	i	n/a
313.2	0.015	626400	keystroke	r	n/a
313.2595	0.1195	626519	keystroke	Key.enter	n/a
313.3865	6.175	626773	prompt	n/a	port bell editors albany\n
314.04	0.105	628080	keystroke	p	n/a
314.13	0.06	628260	keystroke	r	n/a
314.2045	0.09	628409	keystroke	o	n/a
314.6695	0.045	629339	keystroke	Key.backspace	n/a
314.7595	0.06	629519	keystroke	Key.backspace	n/a
314.9545	0.045	629909	keystroke	o	n/a
315.0145	0.0895	630029	keystroke	r	n/a
315.18	0.104	630360	keystroke	t	n/a
315.2695	0.1345	630539	keystroke	Key.space	n/a
315.57	0.105	631140	keystroke	b	n/a
315.705	0.12	631410	keystroke	e	n/a
315.84	0.075	631680	keystroke	l	n/a
315.989	0.076	631978	keystroke	l	n/a
316.1395	0.105	632279	keystroke	Key.space	n/a
316.29	0.09	632580	keystroke	d	n/a
316.859	0.106	633718	keystroke	Key.backspace	n/a
316.95	0.03	633900	keystroke	e	n/a
317.07	0.105	634140	keystroke	d	n/a
317.145	0.09	634290	keystroke	i	n/a
317.82	0.195	635640	keystroke	t	n/a
318	0.03	636000	keystroke	o	n/a
318.045	0.044	636090	keystroke	r	n/a
318.15	0.12	636300	keystroke	s	n/a
318.2845	0.1345	636569	keystroke	Key.space	n/a
318.614	0.106	637228	keystroke	a	n/a
318.675	0.105	637350	keystroke	l	n/a
318.915	0.06	637830	keystroke	b	n/a
319.004	0.1805	638008	keystroke	a	n/a
319.185	0.059	638370	keystroke	n	n/a
319.275	0.105	638550	keystroke	y	n/a
319.425	0.1345	638850	keystroke	Key.enter	n/a
319.5655	9.851	639131	prompt	n/a	painted bradford editing defines\n
320.37	0.105	640740	keystroke	p	n/a
320.444	0.121	640888	keystroke	r	n/a
320.565	0.075	641130	keystroke	a	n/a
321.165	0.149	642330	keystroke	Key.backspace	n/a
321.329	0.0305	642658	keystroke	Key.backspace	n/a
321.39	0.1195	642780	keystroke	a	n/a
321.525	0.0595	643050	keystroke	i	n/a
321.69	0.1045	643380	keystroke	n	n/a
321.78	0.105	643560	keystroke	t	n/a
321.975	0.0745	643950	keystroke	e	n/a
322.14	0.09	644280	keystroke	d	n/a
322.17	0.12	644340	keystroke	Key.space	n/a
322.334	0.106	644668	keystroke	b	n/a
322.425	0.06	644850	keystroke	r	n/a
322.515	0.135	645030	keystroke	a	n/a
322.62	0.135	645240	keystroke	d	n/a
322.875	0.06	645750	keystroke	o	n/a
323.204	0.06	646408	keystroke	Key.backspace	n/a
323.31	0.09	646620	keystroke	f	n/a
323.415	0.06	646830	keystroke	o	n/a
323.5045	0.0755	647009	keystroke	r	n/a
323.715	0.105	647430	keystroke	d	n/a
324.0745	0.105	648149	keystroke	Key.space	n/a
324.4945	0.06	648989	keystroke	e	n/a
324.6595	0.09	649319	keystroke	d	n/a
324.7645	0.09	649529	keystroke	i	n/a
324.9	0.0895	649800	keystroke	t	n/a
324.9745	0.06	649949	keystroke	i	n/a
325.1095	0.12	650219	keystroke	n	n/a
325.2295	0.12	650459	keystroke	g	n/a
325.3645	0.105	650729	keystroke	Key.space	n/a
327.194	0.076	654388	keystroke	d	n/a
327.375	0.105	654750	keystroke	e	n/a
328.2595	0.1045	656519	keystroke	f	n/a
328.379	0.076	656758	keystroke	i	n/a
328.5595	0.165	657119	keystroke	n	n/a
328.65	0.1795	657300	keystroke	e	n/a
328.844	0.06	657688	keystroke	s	n/a
329.3095	0.1055	658619	keystroke	Key.enter	n/a
329.4205	6.626	658841	prompt	n/a	setting by finishing hospitals\n
329.984	0.106	659968	keystroke	s	n/a
330.15	0.09	660300	keystroke	e	n/a
330.404	0.09	660808	keystroke	t	n/a
330.5845	0.0895	661169	keystroke	t	n/a
330.644	0.075	661288	keystroke	i	n/a
330.764	0.105	661528	keystroke	n	n/a
330.9145	0.1195	661829	keystroke	g	n/a
331.049	0.135	662098	keystroke	Key.space	n/a
331.244	0.1055	662488	keystroke	b	n/a
331.3945	0.1205	662789	keystroke	y	n/a
331.5895	0.0905	663179	keystroke	Key.space	n/a
332.684	0.031	665368	keystroke	f	n/a
332.744	0.091	665488	keystroke	i	n/a
332.955	0.09	665910	keystroke	n	n/a
333.329	0.015	666658	keystroke	i	n/a
333.345	0.0145	666690	keystroke	s	n/a
333.404	0.016	666808	keystroke	h	n/a
333.764	0.075	667528	keystroke	i	n/a
333.915	0.119	667830	keystroke	n	n/a
334.065	0.09	668130	keystroke	g	n/a
334.319	0.105	668638	keystroke	Key.space	n/a
334.6795	0.06	669359	keystroke	h	n/a
334.8155	0.1495	669631	keystroke	o	n/a
334.995	0.045	669990	keystroke	s	n/a
335.1	0.075	670200	keystroke	p	n/a
335.325	0.105	670650	keystroke	i	n/a
335.4	0.075	670800	keystroke	t	n/a
335.535	0.075	671070	keystroke	a	n/a
335.625	0.09	671250	keystroke	l	n/a
335.76	0.0595	671520	keystroke	s	n/a
335.94	0.1045	671880	keystroke	Key.enter	n/a
336.0505	12.4005	672101	prompt	n/a	hurricane messages polo advisory\n
336.8395	0.0905	673679	keystroke	h	n/a
337.0195	0.1055	674039	keystroke	u	n/a
337.3495	0.06	674699	keystroke	r	n/a
337.4545	0.0755	674909	keystroke	r	n/a
337.515	0.0895	675030	keystroke	i	n/a
337.8445	0.09	675689	keystroke	c	n/a
337.9645	0.135	675929	keystroke	a	n/a
338.1445	0.06	676289	keystroke	n	n/a
338.8645	0.1205	677729	keystroke	e	n/a
338.9695	0.105	677939	keystroke	Key.space	n/a
339.57	0.12	679140	keystroke	m	n/a
339.675	0.089	679350	keystroke	e	n/a
339.839	0.076	679678	keystroke	s	n/a
339.93	0.15	679860	keystroke	s	n/a
340.1995	0.09	680399	keystroke	s	n/a
340.364	0.12	680728	keystroke	a	n/a
340.575	0.0595	681150	keystroke	g	n/a
340.769	0.0605	681538	keystroke	e	n/a
340.9345	0.0905	681869	keystroke	s	n/a
340.994	0.09	681988	keystroke	Key.space	n/a
342.2845	0.0455	684569	keystroke	Key.backspace	n/a
342.405	0.09	684810	keystroke	Key.backspace	n/a
342.555	0.06	685110	keystroke	Key.backspace	n/a
342.69	0.045	685380	keystroke	Key.backspace	n/a
342.795	0.06	685590	keystroke	Key.backspace	n/a
342.915	0.06	685830	keystroke	Key.backspace	n/a
343.035	0.09	686070	keystroke	Key.backspace	n/a
343.515	0.0895	687030	keystroke	s	n/a
343.6645	0.0905	687329	keystroke	a	n/a
343.7845	0.075	687569	keystroke	g	n/a
343.9945	0.09	687989	keystroke	e	n/a
344.115	0.1195	688230	keystroke	s	n/a
344.2045	0.09	688409	keystroke	Key.space	n/a
344.9995	0.09	689999	keystroke	p	n/a
345.15	0.1345	690300	keystroke	o	n/a
345.8095	0.06	691619	keystroke	l	n/a
345.9895	0.075	691979	keystroke	o	n/a
346.184	0.091	692368	keystroke	Key.space	n/a
346.3645	0.1195	692729	keystroke	a	n/a
346.559	0.075	693118	keystroke	d	n/a
346.769	0.075	693538	keystroke	v	n/a
346.934	0.075	693868	keystroke	i	n/a
347.6845	0.105	695369	keystroke	s	n/a
347.775	0.0745	695550	keystroke	o	n/a
347.8645	0.09	695729	keystroke	r	n/a
348.104	0.061	696208	keystroke	y	n/a
348.375	0.075	696750	keystroke	Key.enter	n/a
348.455	9.8215	696910	prompt	n/a	intelligence labeled bookmark harold\n
349.095	0.059	698190	keystroke	i	n/a
349.409	0.091	698818	keystroke	n	n/a
349.95	0.09	699900	keystroke	t	n/a
350.2645	0.015	700529	keystroke	e	n/a
350.4	0.075	700800	keystroke	l	n/a
350.55	0.075	701100	keystroke	l	n/a
350.7	0.09	701400	keystroke	i	n/a
350.775	0.09	701550	keystroke	g	n/a
351.195	0.105	702390	keystroke	e	n/a
351.315	0.0895	702630	keystroke	n	n/a
351.465	0.09	702930	keystroke	c	n/a
351.69	0.1355	703380	keystroke	e	n/a
351.915	0.105	703830	keystroke	Key.space	n/a
352.2145	0.12	704429	keystroke	l	n/a
352.3195	0.09	704639	keystroke	a	n/a
352.4845	0.105	704969	keystroke	b	n/a
352.6945	0.075	705389	keystroke	e	n/a
352.8145	0.105	705629	keystroke	l	n/a
353.0095	0.1205	706019	keystroke	d	n/a
353.8495	0.105	707699	keystroke	Key.backspace	n/a
354.225	0.0745	708450	keystroke	e	n/a
354.4195	0.09	708839	keystroke	d	n/a
354.4795	0.12	708959	keystroke	Key.space	n/a
354.7195	0.06	709439	keystroke	b	n/a
354.93	0.0445	709860	keystroke	o	n/a
355.0345	0.075	710069	keystroke	o	n/a
355.23	0.075	710460	keystroke	k	n/a
355.4395	0.0905	710879	keystroke	m	n/a
355.4845	0.1205	710969	keystroke	a	n/a
355.6645	0.0905	711329	keystroke	r	n/a
355.77	0.0745	711540	keystroke	k	n/a
355.9345	0.105	711869	keystroke	Key.space	n/a
356.535	0.045	713070	keystroke	h	n/a
356.625	0.105	713250	keystroke	a	n/a
356.76	0.105	713520	keystroke	r	n/a
357.6445	0.015	715289	keystroke	o	n/a
357.7495	0.1055	715499	keystroke	l	n/a
357.8395	0.12	715679	keystroke	d	n/a
358.1695	0.105	716339	keystroke	Key.enter	n/a
358.2815	9.01	716563	prompt	n/a	mobility shaft soundtrack americans\n
359.0255	0.074	718051	keystroke	m	n/a
359.1595	0.091	718319	keystroke	o	n/a
359.369	0.0905	718738	keystroke	b	n/a
359.594	0.0765	719188	keystroke	i	n/a
359.7895	0.1195	719579	keystroke	l	n/a
359.879	0.091	719758	keystroke	i	n/a
359.999	0.0905	719998	keystroke	t	n/a
360.2095	0.105	720419	keystroke	y	n/a
360.345	0.09	720690	keystroke	Key.space	n/a
360.795	0.075	721590	keystroke	s	n/a
360.885	0.165	721770	keystroke	h	n/a
361.17	0.045	722340	keystroke	a	n/a
361.275	0.045	722550	keystroke	f	n/a
361.9495	0.06	723899	keystroke	t	n/a
362.6695	0.015	725339	keystroke	Key.space	n/a
362.8795	0.075	725759	keystroke	s	n/a
362.9695	0.0605	725939	keystroke	o	n/a
363.1495	0.045	726299	keystroke	u	n/a
363.2995	0.1055	726599	keystroke	n	n/a
363.3895	0.105	726779	keystroke	d	n/a
363.63	0.0295	727260	keystroke	t	n/a
363.7645	0.0905	727529	keystroke	r	n/a
363.8995	0.09	727799	keystroke	a	n/a
364.0795	0.075	728159	keystroke	c	n/a
364.1845	0.0905	728369	keystroke	k	n/a
364.3795	0.075	728759	keystroke	Key.space	n/a
364.7095	0.09	729419	keystroke	a	n/a
364.8145	0.105	729629	keystroke	m	n/a
364.9645	0.09	729929	keystroke	e	n/a
365.2045	0.0755	730409	keystroke	r	n/a
365.31	0.075	730620	keystroke	i	n/a
365.4895	0.0905	730979	keystroke	c	n/a
365.655	0.075	731310	keystroke	a	n/a
365.7595	0.09	731519	keystroke	n	n/a
365.9695	0.06	731939	keystroke	s	n/a
367.23	0.059	734460	keystroke	Key.enter	n/a
367.296	8.2005	734592	prompt	n/a	snake contamination ready quilt\n
367.89	0.074	735780	keystroke	s	n/a
367.979	0.0755	735958	keystroke	n	n/a
368.07	0.105	736140	keystroke	a	n/a
368.159	0.091	736318	keystroke	k	n/a
368.28	0.12	736560	keystroke	e	n/a
368.415	0.09	736830	keystroke	Key.space	n/a
368.9395	0.09	737879	keystroke	c	n/a
369.0445	0.075	738089	keystroke	o	n/a
369.4195	0.06	738839	keystroke	n	n/a
369.6595	0.075	739319	keystroke	t	n/a
369.8395	0.0605	739679	keystroke	a	n/a
369.9595	0.09	739919	keystroke	m	n/a
371.0095	0.075	742019	keystroke	i	n/a
371.3695	0.106	742739	keystroke	n	n/a
372.12	0.089	744240	keystroke	a	n/a
372.299	0.061	744598	keystroke	t	n/a
372.4045	0.0455	744809	keystroke	i	n/a
372.5695	0.12	745139	keystroke	o	n/a
372.6295	0.135	745259	keystroke	n	n/a
372.7495	0.105	745499	keystroke	Key.space	n/a
372.8695	0.075	745739	keystroke	r	n/a
373.0195	0.09	746039	keystroke	e	n/a
373.1395	0.12	746279	keystroke	a	n/a
373.2145	0.105	746429	keystroke	d	n/a
373.4545	0.075	746909	keystroke	y	n/a
373.5745	0.075	747149	keystroke	Key.space	n/a
373.695	0.09	747390	keystroke	q	n/a
373.83	0.06	747660	keystroke	u	n/a
373.995	0.075	747990	keystroke	i	n/a
374.19	0.045	748380	keystroke	l	n/a
374.985	0.105	749970	keystroke	t	n/a
375.4195	0.075	750839	keystroke	Key.enter	n/a
375.5005	6.1915	751001	prompt	n/a	relations he's fridge christ\n
376.9195	0.075	753839	keystroke	r	n/a
377.085	0.0745	754170	keystroke	e	n/a
377.2045	0.105	754409	keystroke	l	n/a
377.2945	0.075	754589	keystroke	a	n/a
377.4145	0.09	754829	keystroke	t	n/a
377.5195	0.06	755039	keystroke	i	n/a
377.684	0.09	755368	keystroke	o	n/a
377.729	0.1505	755458	keystroke	n	n/a
378.015	0.12	756030	keystroke	s	n/a
378.12	0.105	756240	keystroke	Key.space	n/a
378.42	0.075	756840	keystroke	h	n/a
378.51	0.075	757020	keystroke	e	n/a
378.645	0.06	757290	keystroke	'	n/a
378.75	0.12	757500	keystroke	s	n/a
378.84	0.09	757680	keystroke	Key.space	n/a
378.99	0.09	757980	keystroke	f	n/a
379.261	0.014	758522	keystroke	r	n/a
379.29	0.045	758580	keystroke	i	n/a
379.3795	0.075	758759	keystroke	d	n/a
379.6195	0.06	759239	keystroke	g	n/a
379.8445	0.105	759689	keystroke	e	n/a
379.9795	0.105	759959	keystroke	Key.space	n/a
380.2195	0.0905	760439	keystroke	c	n/a
380.37	0.09	760740	keystroke	h	n/a
381.0295	0.09	762059	keystroke	r	n/a
381.1345	0.075	762269	keystroke	i	n/a
381.2095	0.105	762419	keystroke	s	n/a
381.3595	0.075	762719	keystroke	t	n/a
381.6	0.0895	763200	keystroke	Key.enter	n/a
381.696	13.409	763392	prompt	n/a	who'd've priest delays latino\n
382.3795	0.06	764759	keystroke	w	n/a
382.4995	0.09	764999	keystroke	h	n/a
382.575	0.0895	765150	keystroke	o	n/a
382.8295	0.045	765659	keystroke	'	n/a
382.9645	0.0905	765929	keystroke	d	n/a
383.7	0.0895	767400	keystroke	;	n/a
383.91	0.0595	767820	keystroke	v	n/a
384.1045	0.12	768209	keystroke	e	n/a
384.21	0.09	768420	keystroke	Key.space	n/a
384.6295	0.0455	769259	keystroke	Key.backspace	n/a
384.749	0.046	769498	keystroke	Key.backspace	n/a
384.8545	0.0455	769709	keystroke	Key.backspace	n/a
384.96	0.06	769920	keystroke	Key.backspace	n/a
385.155	0.075	770310	keystroke	;	n/a
385.215	0.06	770430	keystroke	v	n/a
385.425	0.09	770850	keystroke	e	n/a
385.485	0.12	770970	keystroke	Key.space	n/a
385.83	0.03	771660	keystroke	=	n/a
386.0395	0.06	772079	keystroke	Key.backspace	n/a
386.1445	0.06	772289	keystroke	Key.backspace	n/a
386.235	0.0595	772470	keystroke	Key.backspace	n/a
386.3545	0.075	772709	keystroke	Key.backspace	n/a
386.7	0.06	773400	keystroke	Key.backspace	n/a
387.075	0.0445	774150	keystroke	;	n/a
387.4045	0.045	774809	keystroke	Key.backspace	n/a
387.6	0.06	775200	keystroke	'	n/a
387.6745	0.075	775349	keystroke	v	n/a
387.9895	0.12	775979	keystroke	e	n/a
388.3645	0.105	776729	keystroke	Key.space	n/a
388.62	0.1195	777240	keystroke	p	n/a
388.7095	0.12	777419	keystroke	r	n/a
388.86	0.075	777720	keystroke	i	n/a
389.0845	0.09	778169	keystroke	e	n/a
389.22	0.15	778440	keystroke	s	n/a
389.34	0.1055	778680	keystroke	t	n/a
389.565	0.105	779130	keystroke	Key.space	n/a
390.045	0.0445	780090	keystroke	d	n/a
390.1945	0.0905	780389	keystroke	e	n/a
390.3445	0.1055	780689	keystroke	l	n/a
390.465	0.09	780930	keystroke	a	n/a
390.72	0.045	781440	keystroke	y	n/a
390.93	0.105	781860	keystroke	s	n/a
391.005	0.15	782010	keystroke	Key.space	n/a
391.305	0.09	782610	keystroke	l	n/a
391.38	0.105	782760	keystroke	a	n/a
391.62	0.075	783240	keystroke	t	n/a
391.9795	0.075	783959	keystroke	i	n/a
392.1745	0.09	784349	keystroke	n	n/a
392.2795	0.1055	784559	keystroke	o	n/a
395.1015	0.001	790203	keystroke	Key.enter	n/a
395.109	9.0525	790218	prompt	n/a	sticks beverages absolutely children\n
395.985	0.075	791970	keystroke	s	n/a
396.1795	0.075	792359	keystroke	t	n/a
396.285	0.06	792570	keystroke	i	n/a
396.4345	0.0905	792869	keystroke	c	n/a
396.5395	0.075	793079	keystroke	k	n/a
396.7045	0.0755	793409	keystroke	s	n/a
396.9	0.0895	793800	keystroke	Key.space	n/a
397.485	0.09	794970	keystroke	b	n/a
398.175	0.1195	796350	keystroke	e	n/a
398.4445	0.0905	796889	keystroke	v	n/a
398.6845	0.0755	797369	keystroke	e	n/a
398.8945	0.075	797789	keystroke	r	n/a
399.27	0.075	798540	keystroke	a	n/a
399.45	0.059	798900	keystroke	g	n/a
399.6445	0.06	799289	keystroke	e	n/a
399.795	0.105	799590	keystroke	s	n/a
399.9005	0.089	799801	keystroke	Key.space	n/a
400.275	0.074	800550	keystroke	a	n/a
400.364	0.0905	800728	keystroke	b	n/a
400.6345	0.06	801269	keystroke	s	n/a
400.7545	0.075	801509	keystroke	o	n/a
401.549	0.091	803098	keystroke	l	n/a
401.76	0.06	803520	keystroke	u	n/a
401.834	0.045	803668	keystroke	t	n/a
402	0.06	804000	keystroke	e	n/a
402.104	0.061	804208	keystroke	l	n/a
402.2705	0.0595	804541	keystroke	y	n/a
402.48	0.075	804960	keystroke	Key.space	n/a
402.855	0.06	805710	keystroke	c	n/a
403.005	0.06	806010	keystroke	h	n/a
403.08	0.075	806160	keystroke	i	n/a
403.215	0.12	806430	keystroke	l	n/a
403.35	0.075	806700	keystroke	d	n/a
403.604	0.03	807208	keystroke	r	n/a
403.77	0.044	807540	keystroke	e	n/a
403.844	0.06	807688	keystroke	n	n/a
404.099	0.061	808198	keystroke	Key.enter	n/a
404.1665	6.85	808333	prompt	n/a	faqs belief planning collections\n
404.985	0.105	809970	keystroke	f	n/a
405.12	0.09	810240	keystroke	a	n/a
405.36	0.1045	810720	keystroke	q	n/a
405.5845	0.09	811169	keystroke	s	n/a
405.7645	0.0745	811529	keystroke	Key.space	n/a
406.0495	0.1205	812099	keystroke	b	n/a
406.1995	0.1045	812399	keystroke	e	n/a
406.3495	0.165	812699	keystroke	l	n/a
406.4545	0.135	812909	keystroke	i	n/a
406.5895	0.0605	813179	keystroke	f	n/a
407.069	0.0755	814138	keystroke	Key.backspace	n/a
407.1	0.089	814200	keystroke	e	n/a
407.295	0.09	814590	keystroke	f	n/a
407.429	0.091	814858	keystroke	Key.space	n/a
407.775	0.0445	815550	keystroke	p	n/a
407.9395	0.0905	815879	keystroke	l	n/a
408.0145	0.0755	816029	keystroke	a	n/a
408.15	0.0595	816300	keystroke	n	n/a
408.2845	0.075	816569	keystroke	n	n/a
408.4195	0.09	816839	keystroke	i	n/a
408.7645	0.075	817529	keystroke	n	n/a
408.8845	0.12	817769	keystroke	g	n/a
409.0645	0.105	818129	keystroke	Key.space	n/a
409.2445	0.1055	818489	keystroke	c	n/a
409.3945	0.045	818789	keystroke	o	n/a
409.5745	0.045	819149	keystroke	l	n/a
409.6795	0.105	819359	keystroke	l	n/a
409.77	0.0595	819540	keystroke	e	n/a
409.9795	0.075	819959	keystroke	c	n/a
410.205	0.075	820410	keystroke	t	n/a
410.295	0.06	820590	keystroke	i	n/a
410.4745	0.1055	820949	keystroke	o	n/a
410.5195	0.1805	821039	keystroke	n	n/a
410.685	0.075	821370	keystroke	s	n/a
410.94	0.074	821880	keystroke	Key.enter	n/a
411.02	6.7915	822040	prompt	n/a	paintings accurately martial carlo\n
411.645	0.075	823290	keystroke	p	n/a
411.735	0.1195	823470	keystroke	a	n/a
411.87	0.045	823740	keystroke	i	n/a
412.005	0.12	824010	keystroke	n	n/a
412.125	0.075	824250	keystroke	t	n/a
412.2145	0.1055	824429	keystroke	i	n/a
412.3045	0.15	824609	keystroke	n	n/a
412.4395	0.075	824879	keystroke	g	n/a
412.6495	0.09	825299	keystroke	s	n/a
412.7545	0.09	825509	keystroke	Key.space	n/a
413.28	0.1045	826560	keystroke	a	n/a
413.4895	0.045	826979	keystroke	c	n/a
413.6095	0.0905	827219	keystroke	c	n/a
413.7145	0.0605	827429	keystroke	u	n/a
413.8195	0.09	827639	keystroke	r	n/a
413.9695	0.09	827939	keystroke	a	n/a
414.2395	0.075	828479	keystroke	t	n/a
414.4195	0.0755	828839	keystroke	e	n/a
414.51	0.074	829020	keystroke	l	n/a
414.66	0.09	829320	keystroke	y	n/a
414.87	0.089	829740	keystroke	Key.space	n/a
415.379	0.091	830758	keystroke	m	n/a
415.471	0.118	830942	keystroke	a	n/a
415.619	0.075	831238	keystroke	r	n/a
415.814	0.075	831628	keystroke	t	n/a
415.964	0.075	831928	keystroke	i	n/a
416.07	0.09	832140	keystroke	a	n/a
416.189	0.09	832378	keystroke	l	n/a
416.3245	0.1045	832649	keystroke	Key.space	n/a
416.669	0.031	833338	keystroke	c	n/a
416.865	0.105	833730	keystroke	a	n/a
417	0.09	834000	keystroke	r	n/a
417.3595	0.075	834719	keystroke	l	n/a
417.555	0.0595	835110	keystroke	o	n/a
417.7195	0.09	835439	keystroke	Key.enter	n/a
417.8195	9.292	835639	prompt	n/a	take paragraph lopez reserve\n
418.4695	0.075	836939	keystroke	t	n/a
418.5895	0.12	837179	keystroke	a	n/a
418.6945	0.1055	837389	keystroke	k	n/a
418.8295	0.12	837659	keystroke	e	n/a
418.92	0.1495	837840	keystroke	Key.space	n/a
419.1295	0.09	838259	keystroke	p	n/a
419.2795	0.135	838559	keystroke	a	n/a
419.6695	0.105	839339	keystroke	r	n/a
419.7895	0.105	839579	keystroke	a	n/a
420.4345	0.015	840869	keystroke	g	n/a
420.5845	0.045	841169	keystroke	r	n/a
420.719	0.0905	841438	keystroke	a	n/a
420.8245	0.0895	841649	keystroke	p	n/a
421.0195	0.0745	842039	keystroke	h	n/a
421.2295	0.12	842459	keystroke	Key.space	n/a
421.7395	0.045	843479	keystroke	l	n/a
421.9495	0.06	843899	keystroke	o	n/a
423.09	0.09	846180	keystroke	p	n/a
423.225	0.06	846450	keystroke	e	n/a
423.6	0.075	847200	keystroke	z	n/a
423.795	0.059	847590	keystroke	Key.space	n/a
424.3045	0.06	848609	keystroke	r	n/a
424.4705	0.089	848941	keystroke	e	n/a
424.7995	0.075	849599	keystroke	s	n/a
425.1595	0.075	850319	keystroke	e	n/a
425.3395	0.075	850679	keystroke	r	n/a
425.5795	0.075	851159	keystroke	v	n/a
425.7895	0.0605	851579	keystroke	e	n/a
427.08	0.03	854160	keystroke	Key.enter	n/a
427.115	8.531	854230	prompt	n/a	seed wrist unlike cartridge\n
427.905	0.105	855810	keystroke	s	n/a
428.055	0.075	856110	keystroke	e	n/a
428.205	0.06	856410	keystroke	e	n/a
428.385	0.075	856770	keystroke	d	n/a
428.61	0.075	857220	keystroke	Key.space	n/a
428.97	0.075	857940	keystroke	w	n/a
429.135	0.0605	858270	keystroke	r	n/a
429.39	0.075	858780	keystroke	i	n/a
429.495	0.1195	858990	keystroke	s	n/a
429.6595	0.12	859319	keystroke	t	n/a
429.8395	0.105	859679	keystroke	Key.space	n/a
430.424	0.0905	860848	keystroke	u	n/a
430.619	0.076	861238	keystroke	n	n/a
430.815	0.09	861630	keystroke	l	n/a
430.965	0.075	861930	keystroke	i	n/a
431.1295	0.0755	862259	keystroke	k	n/a
431.22	0.1045	862440	keystroke	e	n/a
431.4745	0.105	862949	keystroke	Key.space	n/a
433.4395	0.105	866879	keystroke	c	n/a
433.5895	0.12	867179	keystroke	a	n/a
433.7845	0.0905	867569	keystroke	r	n/a
434.0245	0.075	868049	keystroke	t	n/a
434.22	0.075	868440	keystroke	r	n/a
434.3845	0.075	868769	keystroke	i	n/a
434.5645	0.075	869129	keystroke	d	n/a
434.7745	0.045	869549	keystroke	g	n/a
434.94	0.0595	869880	keystroke	e	n/a
435.57	0.074	871140	keystroke	Key.enter	n/a
435.65	10.1815	871300	prompt	n/a	correlation logan eating automotive\n
436.649	0.105	873298	keystroke	c	n/a
436.8745	0.075	873749	keystroke	o	n/a
437.13	0.0445	874260	keystroke	r	n/a
437.265	0.06	874530	keystroke	r	n/a
437.46	0.06	874920	keystroke	e	n/a
437.655	0.1045	875310	keystroke	l	n/a
437.7445	0.105	875489	keystroke	a	n/a
437.9095	0.075	875819	keystroke	t	n/a
437.9995	0.06	875999	keystroke	i	n/a
438.18	0.0895	876360	keystroke	o	n/a
438.2095	0.135	876419	keystroke	n	n/a
438.554	0.09	877108	keystroke	Key.space	n/a
439.275	0.09	878550	keystroke	l	n/a
439.44	0.075	878880	keystroke	o	n/a
439.515	0.09	879030	keystroke	g	n/a
439.665	0.075	879330	keystroke	a	n/a
439.755	0.06	879510	keystroke	n	n/a
439.919	0.075	879838	keystroke	Key.space	n/a
441.105	0.0745	882210	keystroke	e	n/a
441.2395	0.09	882479	keystroke	a	n/a
441.45	0.0745	882900	keystroke	t	n/a
441.5395	0.12	883079	keystroke	i	n/a
441.63	0.0895	883260	keystroke	n	n/a
441.765	0.119	883530	keystroke	g	n/a
442.019	0.0755	884038	keystroke	Key.space	n/a
443.325	0.075	886650	keystroke	a	n/a
443.4295	0.0755	886859	keystroke	u	n/a
443.58	0.09	887160	keystroke	t	n/a
443.9395	0.045	887879	keystroke	o	n/a
444.2095	0.06	888419	keystroke	m	n/a
444.3745	0.06	888749	keystroke	o	n/a
444.4645	0.06	888929	keystroke	t	n/a
444.599	0.106	889198	keystroke	i	n/a
444.765	0.075	889530	keystroke	v	n/a
444.974	0.061	889948	keystroke	e	n/a
445.709	0.121	891418	keystroke	Key.enter	n/a
445.835	7.2565	891670	prompt	n/a	insights sage wise puzzle\n
446.6845	0.0605	893369	keystroke	i	n/a
446.8495	0.09	893699	keystroke	n	n/a
446.9095	0.105	893819	keystroke	s	n/a
447.0295	0.09	894059	keystroke	i	n/a
447.1495	0.075	894299	keystroke	g	n/a
447.2545	0.0755	894509	keystroke	h	n/a
447.3895	0.06	894779	keystroke	t	n/a
447.5995	0.075	895199	keystroke	s	n/a
447.8545	0.075	895709	keystroke	Key.space	n/a
448.53	0.0895	897060	keystroke	s	n/a
448.6945	0.09	897389	keystroke	a	n/a
448.9195	0.0605	897839	keystroke	g	n/a
449.1745	0.06	898349	keystroke	e	n/a
449.7745	0.09	899549	keystroke	Key.space	n/a
450.3295	0.0905	900659	keystroke	w	n/a
450.464	0.076	900928	keystroke	i	n/a
450.584	0.136	901168	keystroke	s	n/a
450.705	0.135	901410	keystroke	e	n/a
450.824	0.091	901648	keystroke	Key.space	n/a
451.23	0.0895	902460	keystroke	p	n/a
451.4695	0.06	902939	keystroke	u	n/a
451.7845	0.06	903569	keystroke	z	n/a
451.9195	0.105	903839	keystroke	z	n/a
452.115	0.105	904230	keystroke	l	n/a
452.265	0.045	904530	keystroke	e	n/a
453.029	0.06	906058	keystroke	Key.enter	n/a
453.0955	8.5615	906191	prompt	n/a	regard delicious board shop\n
455.04	0.0595	910080	keystroke	r	n/a
455.265	0.0745	910530	keystroke	e	n/a
455.5045	0.075	911009	keystroke	g	n/a
455.699	0.121	911398	keystroke	a	n/a
455.865	0.059	911730	keystroke	r	n/a
456.075	0.06	912150	keystroke	d	n/a
456.3445	0.045	912689	keystroke	s	n/a
457.1995	0.09	914399	keystroke	Key.space	n/a
457.3795	0.0605	914759	keystroke	d	n/a
457.5295	0.045	915059	keystroke	e	n/a
457.6045	0.105	915209	keystroke	l	n/a
457.7545	0.06	915509	keystroke	i	n/a
458.7145	0.09	917429	keystroke	c	n/a
458.8195	0.06	917639	keystroke	i	n/a
458.97	0.0595	917940	keystroke	o	n/a
459.1045	0.075	918209	keystroke	u	n/a
459.2095	0.105	918419	keystroke	s	n/a
459.2845	0.15	918569	keystroke	Key.space	n/a
459.48	0.0745	918960	keystroke	b	n/a
459.7195	0.06	919439	keystroke	o	n/a
459.795	0.1195	919590	keystroke	a	n/a
459.9	0.0595	919800	keystroke	r	n/a
460.0795	0.075	920159	keystroke	d	n/a
460.1245	0.075	920249	keystroke	Key.space	n/a
460.3045	0.105	920609	keystroke	h	n/a
460.3345	0.12	920669	keystroke	o	n/a
460.7695	0.06	921539	keystroke	Key.backspace	n/a
460.859	0.09	921718	keystroke	Key.backspace	n/a
460.934	0.09	921868	keystroke	s	n/a
461.07	0.089	922140	keystroke	h	n/a
461.13	0.12	922260	keystroke	o	n/a
461.384	0.061	922768	keystroke	p	n/a
461.609	0.045	923218	keystroke	Key.enter	n/a
461.661	8.6505	923322	prompt	n/a	oxide governance danger major\n
462.705	0.075	925410	keystroke	o	n/a
463.859	0.075	927718	keystroke	x	n/a
463.9945	0.0895	927989	keystroke	i	n/a
464.324	0.091	928648	keystroke	d	n/a
464.534	0.1205	929068	keystroke	e	n/a
464.639	0.106	929278	keystroke	Key.space	n/a
465.39	0.0895	930780	keystroke	g	n/a
465.5095	0.0895	931019	keystroke	o	n/a
465.66	0.105	931320	keystroke	v	n/a
465.899	0.106	931798	keystroke	e	n/a
466.124	0.0755	932248	keystroke	r	n/a
467.1595	0.09	934319	keystroke	n	n/a
467.265	0.104	934530	keystroke	a	n/a
467.385	0.09	934770	keystroke	n	n/a
467.459	0.075	934918	keystroke	c	n/a
467.655	0.1195	935310	keystroke	e	n/a
467.8495	0.135	935699	keystroke	Key.space	n/a
468.405	0.089	936810	keystroke	d	n/a
468.54	0.15	937080	keystroke	a	n/a
468.645	0.09	937290	keystroke	n	n/a
468.78	0.075	937560	keystroke	g	n/a
468.974	0.061	937948	keystroke	e	n/a
469.14	0.045	938280	keystroke	r	n/a
469.169	0.0755	938338	keystroke	Key.space	n/a
469.709	0.076	939418	keystroke	m	n/a
469.755	0.105	939510	keystroke	a	n/a
469.89	0.09	939780	keystroke	j	n/a
469.949	0.076	939898	keystroke	o	n/a
470.01	0.075	940020	keystroke	r	n/a
470.265	0.045	940530	keystroke	Key.enter	n/a
470.316	9.4155	940632	prompt	n/a	writes recover gazette clarke\n
471.0445	0.09	942089	keystroke	w	n/a
471.2395	0.015	942479	keystroke	r	n/a
471.9745	0.03	943949	keystroke	i	n/a
472.065	0.0595	944130	keystroke	t	n/a
472.2595	0.06	944519	keystroke	e	n/a
472.4695	0.06	944939	keystroke	s	n/a
472.6945	0.06	945389	keystroke	Key.space	n/a
473.3695	0.06	946739	keystroke	r	n/a
473.4595	0.06	946919	keystroke	e	n/a
473.6695	0.075	947339	keystroke	c	n/a
473.7895	0.075	947579	keystroke	o	n/a
473.895	0.0595	947790	keystroke	v	n/a
474.1195	0.0605	948239	keystroke	e	n/a
474.284	0.0605	948568	keystroke	r	n/a
474.524	0.075	949048	keystroke	Key.space	n/a
474.93	0.0745	949860	keystroke	g	n/a
475.139	0.06	950278	keystroke	a	n/a
475.365	0.1045	950730	keystroke	z	n/a
476.1595	0.075	952319	keystroke	e	n/a
476.4295	0.06	952859	keystroke	t	n/a
476.5495	0.075	953099	keystroke	t	n/a
476.7595	0.12	953519	keystroke	e	n/a
477.434	0.0155	954868	keystroke	Key.space	n/a
477.554	0.075	955108	keystroke	c	n/a
477.749	0.105	955498	keystroke	l	n/a
477.915	0.119	955830	keystroke	a	n/a
478.8295	0.0605	957659	keystroke	r	n/a
479.3545	0.045	958709	keystroke	k	n/a
479.4295	0.075	958859	keystroke	e	n/a
479.6545	0.075	959309	keystroke	Key.enter	n/a
479.735	8.067	959470	prompt	n/a	nursery neutral caution paths\n
480.4645	0.09	960929	keystroke	n	n/a
480.6745	0.075	961349	keystroke	u	n/a
480.7795	0.12	961559	keystroke	r	n/a
481.275	0.105	962550	keystroke	s	n/a
481.4545	0.09	962909	keystroke	e	n/a
481.665	0.0445	963330	keystroke	r	n/a
482.0995	0.06	964199	keystroke	y	n/a
482.3395	0.075	964679	keystroke	Key.space	n/a
482.939	0.105	965878	keystroke	n	n/a
483.119	0.1055	966238	keystroke	e	n/a
483.374	0.075	966748	keystroke	u	n/a
483.569	0.06	967138	keystroke	t	n/a
484.274	0.06	968548	keystroke	r	n/a
484.424	0.106	968848	keystroke	a	n/a
484.515	0.09	969030	keystroke	l	n/a
484.664	0.105	969328	keystroke	Key.space	n/a
485.28	0.0895	970560	keystroke	c	n/a
485.399	0.106	970798	keystroke	a	n/a
486.089	0.075	972178	keystroke	u	n/a
486.239	0.0755	972478	keystroke	t	n/a
486.344	0.075	972688	keystroke	i	n/a
486.584	0.135	973168	keystroke	o	n/a
486.689	0.105	973378	keystroke	n	n/a
486.854	0.105	973708	keystroke	Key.space	n/a
487.004	0.0755	974008	keystroke	p	n/a
487.094	0.0905	974188	keystroke	a	n/a
487.244	0.076	974488	keystroke	t	n/a
487.3645	0.0445	974729	keystroke	h	n/a
487.469	0.075	974938	keystroke	s	n/a
487.754	0.0455	975508	keystroke	Key.enter	n/a
487.8055	7.5855	975611	prompt	n/a	rules platforms accomplish burton\n
489.2545	0.06	978509	keystroke	r	n/a
489.3745	0.06	978749	keystroke	u	n/a
489.5845	0.09	979169	keystroke	l	n/a
489.6595	0.06	979319	keystroke	e	n/a
489.8395	0.1205	979679	keystroke	s	n/a
490.0045	0.0745	980009	keystroke	Key.space	n/a
490.259	0.06	980518	keystroke	p	n/a
490.439	0.105	980878	keystroke	l	n/a
490.529	0.0905	981058	keystroke	a	n/a
490.739	0.0755	981478	keystroke	t	n/a
491.115	0.074	982230	keystroke	f	n/a
491.219	0.091	982438	keystroke	o	n/a
491.325	0.09	982650	keystroke	r	n/a
491.444	0.0755	982888	keystroke	m	n/a
491.58	0.09	983160	keystroke	s	n/a
491.7445	0.1045	983489	keystroke	Key.space	n/a
492.389	0.09	984778	keystroke	a	n/a
492.629	0.061	985258	keystroke	c	n/a
492.7645	0.0895	985529	keystroke	c	n/a
492.914	0.06	985828	keystroke	o	n/a
493.079	0.075	986158	keystroke	m	n/a
493.214	0.105	986428	keystroke	p	n/a
493.41	0.15	986820	keystroke	l	n/a
493.529	0.106	987058	keystroke	i	n/a
493.649	0.075	987298	keystroke	s	n/a
493.755	0.074	987510	keystroke	h	n/a
493.949	0.075	987898	keystroke	Key.space	n/a
494.5195	0.0905	989039	keystroke	b	n/a
494.7	0.075	989400	keystroke	u	n/a
494.789	0.076	989578	keystroke	r	n/a
494.97	0.0745	989940	keystroke	t	n/a
495.0295	0.105	990059	keystroke	o	n/a
495.0895	0.1205	990179	keystroke	n	n/a
495.2995	0.09	990599	keystroke	Key.enter	n/a
495.395	9.701	990790	prompt	n/a	scholarship policy buffalo antiques\n
496.3195	0.075	992639	keystroke	s	n/a
496.7245	0.0755	993449	keystroke	c	n/a
496.8895	0.075	993779	keystroke	h	n/a
496.9345	0.0905	993869	keystroke	o	n/a
497.1295	0.105	994259	keystroke	l	n/a
497.2645	0.105	994529	keystroke	a	n/a
497.4745	0.09	994949	keystroke	r	n/a
497.7445	0.09	995489	keystroke	s	n/a
497.8495	0.0905	995699	keystroke	h	n/a
497.94	0.0895	995880	keystroke	i	n/a
498.1795	0.06	996359	keystroke	p	n/a
498.4045	0.09	996809	keystroke	Key.space	n/a
498.7945	0.075	997589	keystroke	p	n/a
498.9895	0.075	997979	keystroke	o	n/a
499.1995	0.12	998399	keystroke	l	n/a
499.29	0.1045	998580	keystroke	i	n/a
499.3795	0.06	998759	keystroke	c	n/a
499.6495	0.075	999299	keystroke	y	n/a
499.8745	0.09	999749	keystroke	Key.space	n/a
500.0395	0.075	1000079	keystroke	b	n/a
500.2345	0.075	1000469	keystroke	u	n/a
500.3695	0.06	1000739	keystroke	f	n/a
500.5045	0.09	1001009	keystroke	f	n/a
500.6695	0.09	1001339	keystroke	a	n/a
500.775	0.1195	1001550	keystroke	l	n/a
500.9695	0.075	1001939	keystroke	o	n/a
501.1195	0.105	1002239	keystroke	Key.space	n/a
501.4795	0.09	1002959	keystroke	a	n/a
501.5845	0.09	1003169	keystroke	n	n/a
501.7195	0.09	1003439	keystroke	q	n/a
502.4845	0.06	1004969	keystroke	i	n/a
502.9945	0.045	1005989	keystroke	Key.backspace	n/a
503.1145	0.06	1006229	keystroke	Key.backspace	n/a
503.1745	0.09	1006349	keystroke	a	n/a
503.5945	0.03	1007189	keystroke	Key.backspace	n/a
503.6395	0.0755	1007279	keystroke	t	n/a
503.7745	0.075	1007549	keystroke	i	n/a
504.0145	0.12	1008029	keystroke	q	n/a
504.1045	0.09	1008209	keystroke	u	n/a
504.1945	0.105	1008389	keystroke	e	n/a
504.3445	0.09	1008689	keystroke	s	n/a
505.0195	0.0745	1010039	keystroke	Key.enter	n/a
505.1005	17.861	1010201	prompt	n/a	september poem village occurrence\n
505.7245	0.135	1011449	keystroke	s	n/a
505.8445	0.105	1011689	keystroke	e	n/a
505.9645	0.1055	1011929	keystroke	p	n/a
506.5195	0.06	1013039	keystroke	t	n/a
506.7445	0.06	1013489	keystroke	e	n/a
506.8195	0.105	1013639	keystroke	m	n/a
507.4195	0.075	1014839	keystroke	b	n/a
507.6295	0.09	1015259	keystroke	e	n/a
507.8095	0.105	1015619	keystroke	r	n/a
507.8995	0.105	1015799	keystroke	Key.space	n/a
509.4445	0.075	1018889	keystroke	Key.backspace	n/a
509.5945	0.06	1019189	keystroke	Key.backspace	n/a
509.7445	0.075	1019489	keystroke	Key.backspace	n/a
509.8645	0.075	1019729	keystroke	Key.backspace	n/a
509.9995	0.06	1019999	keystroke	Key.backspace	n/a
511.6645	0.075	1023329	keystroke	t	n/a
511.8445	0.0755	1023689	keystroke	e	n/a
511.98	0.0895	1023960	keystroke	m	n/a
512.205	0.0745	1024410	keystroke	b	n/a
512.2945	0.06	1024589	keystroke	e	n/a
512.4445	0.075	1024889	keystroke	r	n/a
512.4895	0.09	1024979	keystroke	Key.space	n/a
513.7045	0.045	1027409	keystroke	p	n/a
513.7795	0.105	1027559	keystroke	o	n/a
513.8695	0.09	1027739	keystroke	e	n/a
514.0045	0.09	1028009	keystroke	m	n/a
514.1245	0.075	1028249	keystroke	Key.space	n/a
514.334	0.09	1028668	keystroke	v	n/a
514.499	0.075	1028998	keystroke	i	n/a
514.709	0.0605	1029418	keystroke	l	n/a
514.829	0.105	1029658	keystroke	l	n/a
514.919	0.09	1029838	keystroke	a	n/a
515.069	0.09	1030138	keystroke	g	n/a
515.2645	0.1205	1030529	keystroke	e	n/a
515.3695	0.0895	1030739	keystroke	Key.space	n/a
516.345	0.075	1032690	keystroke	o	n/a
516.645	0.06	1033290	keystroke	c	n/a
516.794	0.076	1033588	keystroke	c	n/a
516.945	0.09	1033890	keystroke	u	n/a
517.095	0.09	1034190	keystroke	r	n/a
517.229	0.1055	1034458	keystroke	a	n/a
517.3495	0.09	1034699	keystroke	n	n/a
517.469	0.06	1034938	keystroke	c	n/a
517.6195	0.12	1035239	keystroke	e	n/a
517.8295	0.1045	1035659	keystroke	Key.space	n/a
519.2995	0.0605	1038599	keystroke	Key.backspace	n/a
519.4345	0.075	1038869	keystroke	Key.backspace	n/a
519.569	0.06	1039138	keystroke	Key.backspace	n/a
519.719	0.06	1039438	keystroke	Key.backspace	n/a
519.884	0.0755	1039768	keystroke	Key.backspace	n/a
520.1995	0.06	1040399	keystroke	e	n/a
520.2745	0.0755	1040549	keystroke	n	n/a
521.4295	0.0455	1042859	keystroke	Key.backspace	n/a
521.565	0.06	1043130	keystroke	Key.backspace	n/a
521.745	0.075	1043490	keystroke	Key.backspace	n/a
522.1495	0.06	1044299	keystroke	r	n/a
522.2545	0.06	1044509	keystroke	r	n/a
522.4195	0.06	1044839	keystroke	e	n/a
522.5245	0.09	1045049	keystroke	n	n/a
522.6295	0.06	1045259	keystroke	c	n/a
522.7645	0.075	1045529	keystroke	e	n/a
522.8845	0.075	1045769	keystroke	Key.enter	n/a
522.9665	8.1405	1045933	prompt	n/a	enabled seeking reviewed bookstore\n
523.9945	0.0745	1047989	keystroke	e	n/a
524.099	0.12	1048198	keystroke	n	n/a
524.204	0.12	1048408	keystroke	a	n/a
524.94	0.075	1049880	keystroke	b	n/a
525.2245	0.0145	1050449	keystroke	l	n/a
525.255	0.045	1050510	keystroke	e	n/a
525.6605	0.1495	1051321	keystroke	d	n/a
525.794	0.091	1051588	keystroke	Key.space	n/a
526.2	0.12	1052400	keystroke	s	n/a
526.455	0.06	1052910	keystroke	e	n/a
526.575	0.09	1053150	keystroke	e	n/a
526.68	0.06	1053360	keystroke	k	n/a
526.83	0.105	1053660	keystroke	i	n/a
526.92	0.09	1053840	keystroke	n	n/a
527.07	0.105	1054140	keystroke	g	n/a
527.145	0.105	1054290	keystroke	Key.space	n/a
527.37	0.06	1054740	keystroke	r	n/a
527.535	0.06	1055070	keystroke	e	n/a
528.105	0.074	1056210	keystroke	v	n/a
528.2395	0.0905	1056479	keystroke	i	n/a
528.36	0.0895	1056720	keystroke	e	n/a
528.569	0.091	1057138	keystroke	w	n/a
528.8845	0.0595	1057769	keystroke	e	n/a
529.095	0.105	1058190	keystroke	d	n/a
529.215	0.105	1058430	keystroke	Key.space	n/a
529.5	0.06	1059000	keystroke	b	n/a
529.725	0.045	1059450	keystroke	o	n/a
529.83	0.06	1059660	keystroke	o	n/a
529.995	0.09	1059990	keystroke	k	n/a
530.19	0.09	1060380	keystroke	s	n/a
530.355	0.09	1060710	keystroke	t	n/a
530.52	0.09	1061040	keystroke	o	n/a
530.64	0.06	1061280	keystroke	r	n/a
530.82	0.06	1061640	keystroke	e	n/a
531.015	0.09	1062030	keystroke	Key.enter	n/a
531.113	8.423	1062226	prompt	n/a	amino chicago leave furnishings\n
531.75	0.105	1063500	keystroke	a	n/a
531.855	0.075	1063710	keystroke	m	n/a
531.99	0.15	1063980	keystroke	i	n/a
532.2445	0.105	1064489	keystroke	n	n/a
532.2895	0.105	1064579	keystroke	o	n/a
532.5445	0.09	1065089	keystroke	Key.space	n/a
532.7245	0.09	1065449	keystroke	c	n/a
532.86	0.105	1065720	keystroke	h	n/a
532.9195	0.135	1065839	keystroke	i	n/a
533.445	0.09	1066890	keystroke	c	n/a
533.58	0.09	1067160	keystroke	a	n/a
533.745	0.09	1067490	keystroke	g	n/a
533.88	0.06	1067760	keystroke	o	n/a
534.06	0.0745	1068120	keystroke	Key.space	n/a
534.2695	0.105	1068539	keystroke	l	n/a
534.3445	0.0905	1068689	keystroke	e	n/a
534.5395	0.0755	1069079	keystroke	a	n/a
534.75	0.0595	1069500	keystroke	v	n/a
534.975	0.1045	1069950	keystroke	e	n/a
535.0945	0.09	1070189	keystroke	Key.space	n/a
535.26	0.09	1070520	keystroke	f	n/a
535.41	0.06	1070820	keystroke	u	n/a
537.0145	0.0895	1074029	keystroke	r	n/a
537.209	0.075	1074418	keystroke	n	n/a
537.375	0.075	1074750	keystroke	i	n/a
537.48	0.074	1074960	keystroke	s	n/a
537.585	0.09	1075170	keystroke	h	n/a
537.659	0.091	1075318	keystroke	i	n/a
537.7945	0.1345	1075589	keystroke	n	n/a
537.9	0.09	1075800	keystroke	g	n/a
538.2895	0.0605	1076579	keystroke	s	n/a
539.4595	0.075	1078919	keystroke	Key.enter	n/a
539.54	7.826	1079080	prompt	n/a	exposure mysql basketball impacts\n
540.2245	0.105	1080449	keystroke	e	n/a
540.435	0.0895	1080870	keystroke	x	n/a
540.6595	0.045	1081319	keystroke	p	n/a
540.9295	0.09	1081859	keystroke	o	n/a
541.395	0.09	1082790	keystroke	s	n/a
541.5	0.06	1083000	keystroke	u	n/a
541.589	0.061	1083178	keystroke	r	n/a
541.77	0.105	1083540	keystroke	e	n/a
542.0995	0.0895	1084199	keystroke	Key.space	n/a
542.385	0.104	1084770	keystroke	m	n/a
542.504	0.076	1085008	keystroke	y	n/a
543.525	0.089	1087050	keystroke	s	n/a
543.734	0.1055	1087468	keystroke	q	n/a
543.8845	0.105	1087769	keystroke	l	n/a
544.1245	0.0905	1088249	keystroke	Key.space	n/a
544.424	0.076	1088848	keystroke	b	n/a
544.544	0.075	1089088	keystroke	a	n/a
544.604	0.1205	1089208	keystroke	s	n/a
544.7395	0.075	1089479	keystroke	k	n/a
544.859	0.0905	1089718	keystroke	e	n/a
545.0995	0.0595	1090199	keystroke	t	n/a
545.325	0.075	1090650	keystroke	b	n/a
545.444	0.06	1090888	keystroke	a	n/a
545.534	0.046	1091068	keystroke	l	n/a
545.669	0.091	1091338	keystroke	l	n/a
545.7745	0.0895	1091549	keystroke	Key.space	n/a
545.894	0.061	1091788	keystroke	i	n/a
546.074	0.0905	1092148	keystroke	m	n/a
546.4945	0.105	1092989	keystroke	p	n/a
546.6145	0.105	1093229	keystroke	a	n/a
546.7795	0.0745	1093559	keystroke	c	n/a
546.959	0.06	1093918	keystroke	t	n/a
547.154	0.076	1094308	keystroke	s	n/a
547.289	0.075	1094578	keystroke	Key.enter	n/a
547.37	8.5915	1094740	prompt	n/a	italy aging japanese stewart\n
548.025	0.074	1096050	keystroke	i	n/a
548.3845	0.0905	1096769	keystroke	t	n/a
548.5045	0.1505	1097009	keystroke	a	n/a
548.669	0.06	1097338	keystroke	l	n/a
548.774	0.061	1097548	keystroke	y	n/a
549.4345	0.135	1098869	keystroke	Key.space	n/a
549.66	0.105	1099320	keystroke	a	n/a
549.8395	0.0755	1099679	keystroke	g	n/a
550.559	0.09	1101118	keystroke	i	n/a
550.605	0.119	1101210	keystroke	n	n/a
550.755	0.12	1101510	keystroke	g	n/a
550.92	0.105	1101840	keystroke	Key.space	n/a
551.19	0.12	1102380	keystroke	j	n/a
551.325	0.105	1102650	keystroke	a	n/a
551.61	0.09	1103220	keystroke	p	n/a
552.555	0.135	1105110	keystroke	a	n/a
552.75	0.09	1105500	keystroke	n	n/a
552.87	0.0905	1105740	keystroke	e	n/a
553.035	0.135	1106070	keystroke	s	n/a
553.125	0.135	1106250	keystroke	e	n/a
553.275	0.12	1106550	keystroke	Key.space	n/a
553.4995	0.061	1106999	keystroke	s	n/a
554.055	0.075	1108110	keystroke	t	n/a
554.2945	0.075	1108589	keystroke	e	n/a
555.06	0.06	1110120	keystroke	w	n/a
555.18	0.135	1110360	keystroke	a	n/a
555.33	0.06	1110660	keystroke	r	n/a
555.54	0.075	1111080	keystroke	t	n/a
555.885	0.075	1111770	keystroke	Key.enter	n/a
555.9655	7.151	1111931	prompt	n/a	alexandria bend composer continue\n
556.814	0.106	1113628	keystroke	a	n/a
556.9645	0.12	1113929	keystroke	l	n/a
557.0695	0.0905	1114139	keystroke	e	n/a
557.31	0.0895	1114620	keystroke	x	n/a
557.5645	0.1055	1115129	keystroke	a	n/a
557.7445	0.09	1115489	keystroke	n	n/a
557.8795	0.0905	1115759	keystroke	d	n/a
558.15	0.105	1116300	keystroke	r	n/a
558.27	0.075	1116540	keystroke	i	n/a
558.39	0.12	1116780	keystroke	a	n/a
558.525	0.105	1117050	keystroke	Key.space	n/a
558.78	0.105	1117560	keystroke	b	n/a
558.9	0.045	1117800	keystroke	e	n/a
559.005	0.0895	1118010	keystroke	n	n/a
559.1095	0.106	1118219	keystroke	d	n/a
559.32	0.0895	1118640	keystroke	Key.space	n/a
559.5745	0.09	1119149	keystroke	c	n/a
559.6795	0.06	1119359	keystroke	o	n/a
559.8595	0.09	1119719	keystroke	m	n/a
560.0395	0.0905	1120079	keystroke	p	n/a
560.174	0.106	1120348	keystroke	o	n/a
560.28	0.09	1120560	keystroke	s	n/a
560.73	0.075	1121460	keystroke	e	n/a
560.924	0.136	1121848	keystroke	r	n/a
561.164	0.09	1122328	keystroke	Key.space	n/a
561.345	0.075	1122690	keystroke	c	n/a
561.48	0.0595	1122960	keystroke	o	n/a
561.659	0.09	1123318	keystroke	n	n/a
561.7345	0.0895	1123469	keystroke	t	n/a
561.885	0.059	1123770	keystroke	i	n/a
562.424	0.075	1124848	keystroke	n	n/a
562.575	0.089	1125150	keystroke	u	n/a
562.695	0.075	1125390	keystroke	e	n/a
563.0545	0.06	1126109	keystroke	Key.enter	n/a
563.1205	8.202	1126241	prompt	n/a	alerts service anthropology wise\n
563.865	0.12	1127730	keystroke	a	n/a
564	0.075	1128000	keystroke	l	n/a
564.105	0.075	1128210	keystroke	e	n/a
564.27	0.06	1128540	keystroke	r	n/a
564.4345	0.045	1128869	keystroke	t	n/a
564.6145	0.09	1129229	keystroke	s	n/a
564.8995	0.075	1129799	keystroke	Key.space	n/a
565.1995	0.075	1130399	keystroke	s	n/a
565.3645	0.075	1130729	keystroke	e	n/a
565.5445	0.045	1131089	keystroke	r	n/a
565.965	0.06	1131930	keystroke	v	n/a
566.1	0.075	1132200	keystroke	i	n/a
566.295	0.06	1132590	keystroke	c	n/a
566.535	0.06	1133070	keystroke	e	n/a
566.7895	0.0745	1133579	keystroke	Key.space	n/a
567.3445	0.045	1134689	keystroke	a	n/a
567.51	0.0895	1135020	keystroke	n	n/a
567.6745	0.075	1135349	keystroke	t	n/a
567.7945	0.075	1135589	keystroke	h	n/a
567.9295	0.075	1135859	keystroke	r	n/a
568.035	0.0745	1136070	keystroke	o	n/a
568.4095	0.09	1136819	keystroke	p	n/a
568.68	0.06	1137360	keystroke	o	n/a
568.8895	0.1355	1137779	keystroke	l	n/a
569.01	0.105	1138020	keystroke	o	n/a
569.73	0.075	1139460	keystroke	g	n/a
570.0145	0.075	1140029	keystroke	y	n/a
570.2545	0.075	1140509	keystroke	Key.space	n/a
570.66	0.06	1141320	keystroke	w	n/a
570.7645	0.09	1141529	keystroke	i	n/a
570.8845	0.12	1141769	keystroke	s	n/a
570.96	0.1345	1141920	keystroke	e	n/a
571.2295	0.09	1142459	keystroke	Key.enter	n/a
571.33	8.7815	1142660	prompt	n/a	minute strongly championships troops\n
572.0555	0.0435	1144111	keystroke	m	n/a
572.2195	0.09	1144439	keystroke	i	n/a
572.4145	0.0905	1144829	keystroke	n	n/a
572.5495	0.09	1145099	keystroke	u	n/a
572.67	0.0595	1145340	keystroke	t	n/a
572.8645	0.12	1145729	keystroke	e	n/a
573.1945	0.09	1146389	keystroke	Key.space	n/a
573.3745	0.09	1146749	keystroke	s	n/a
573.5545	0.06	1147109	keystroke	t	n/a
573.7195	0.075	1147439	keystroke	r	n/a
573.8095	0.06	1147619	keystroke	o	n/a
573.96	0.0895	1147920	keystroke	n	n/a
574.0795	0.06	1148159	keystroke	g	n/a
574.2145	0.0905	1148429	keystroke	l	n/a
574.4095	0.075	1148819	keystroke	y	n/a
574.6795	0.105	1149359	keystroke	Key.space	n/a
575.2195	0.09	1150439	keystroke	c	n/a
575.3545	0.09	1150709	keystroke	h	n/a
575.4745	0.105	1150949	keystroke	a	n/a
576.4795	0.075	1152959	keystroke	m	n/a
576.6445	0.06	1153289	keystroke	p	n/a
576.7945	0.09	1153589	keystroke	i	n/a
577.0055	0.074	1154011	keystroke	o	n/a
577.4545	0.075	1154909	keystroke	n	n/a
577.6795	0.09	1155359	keystroke	s	n/a
577.785	0.0895	1155570	keystroke	h	n/a
577.95	0.0895	1155900	keystroke	i	n/a
578.1445	0.0745	1156289	keystroke	p	n/a
578.34	0.09	1156680	keystroke	s	n/a
578.6845	0.0755	1157369	keystroke	Key.space	n/a
578.925	0.074	1157850	keystroke	t	n/a
579.1195	0.0745	1158239	keystroke	r	n/a
579.239	0.0455	1158478	keystroke	o	n/a
579.345	0.104	1158690	keystroke	o	n/a
579.555	0.089	1159110	keystroke	p	n/a
579.749	0.0905	1159498	keystroke	s	n/a
580.0345	0.0745	1160069	keystroke	Key.enter	n/a
580.1165	7.675	1160233	prompt	n/a	greenhouse sometimes quebec know\n
580.9195	0.0595	1161839	keystroke	g	n/a
581.1145	0.0595	1162229	keystroke	r	n/a
581.309	0.06	1162618	keystroke	e	n/a
581.46	0.0895	1162920	keystroke	e	n/a
581.5945	0.0905	1163189	keystroke	n	n/a
581.8495	0.0605	1163699	keystroke	h	n/a
581.9545	0.06	1163909	keystroke	o	n/a
582.135	0.075	1164270	keystroke	u	n/a
582.225	0.15	1164450	keystroke	s	n/a
582.314	0.135	1164628	keystroke	e	n/a
582.539	0.075	1165078	keystroke	Key.space	n/a
582.7495	0.12	1165499	keystroke	s	n/a
582.8545	0.045	1165709	keystroke	o	n/a
583.0045	0.09	1166009	keystroke	m	n/a
583.1095	0.06	1166219	keystroke	e	n/a
583.3045	0.075	1166609	keystroke	t	n/a
583.3945	0.06	1166789	keystroke	i	n/a
583.559	0.091	1167118	keystroke	m	n/a
583.68	0.06	1167360	keystroke	e	n/a
583.86	0.12	1167720	keystroke	s	n/a
584.01	0.09	1168020	keystroke	Key.space	n/a
584.4145	0.1055	1168829	keystroke	q	n/a
584.55	0.075	1169100	keystroke	u	n/a
584.67	0.105	1169340	keystroke	e	n/a
584.97	0.075	1169940	keystroke	b	n/a
585.525	0.06	1171050	keystroke	e	n/a
585.75	0.09	1171500	keystroke	c	n/a
585.855	0.105	1171710	keystroke	Key.space	n/a
585.99	0.0905	1171980	keystroke	k	n/a
586.17	0.09	1172340	keystroke	n	n/a
586.305	0.105	1172610	keystroke	o	n/a
586.425	0.074	1172850	keystroke	w	n/a
587.729	0.06	1175458	keystroke	Key.enter	n/a
587.7955	5.6355	1175591	prompt	n/a	tracker give fourth stock\n
588.435	0.06	1176870	keystroke	t	n/a
588.614	0.061	1177228	keystroke	r	n/a
588.705	0.119	1177410	keystroke	a	n/a
588.87	0.105	1177740	keystroke	c	n/a
589.0345	0.0895	1178069	keystroke	k	n/a
589.199	0.09	1178398	keystroke	e	n/a
589.395	0.135	1178790	keystroke	r	n/a
589.5305	0.089	1179061	keystroke	Key.space	n/a
589.739	0.06	1179478	keystroke	g	n/a
590.0695	0.075	1180139	keystroke	i	n/a
590.1895	0.12	1180379	keystroke	v	n/a
590.5495	0.12	1181099	keystroke	e	n/a
590.7145	0.09	1181429	keystroke	Key.space	n/a
590.9395	0.091	1181879	keystroke	f	n/a
591.0745	0.06	1182149	keystroke	o	n/a
591.2695	0.09	1182539	keystroke	u	n/a
591.3445	0.016	1182689	keystroke	r	n/a
592.02	0.0445	1184040	keystroke	t	n/a
592.095	0.0895	1184190	keystroke	h	n/a
592.274	0.075	1184548	keystroke	Key.space	n/a
592.514	0.06	1185028	keystroke	s	n/a
592.695	0.044	1185390	keystroke	t	n/a
592.799	0.061	1185598	keystroke	o	n/a
592.905	0.074	1185810	keystroke	c	n/a
592.995	0.09	1185990	keystroke	k	n/a
593.34	0.09	1186680	keystroke	Key.enter	n/a
593.435	13.046	1186870	prompt	n/a	lace stamps revolutionary allowed\n
594.15	0.12	1188300	keystroke	l	n/a
594.255	0.105	1188510	keystroke	a	n/a
594.465	0.075	1188930	keystroke	c	n/a
594.6905	0.1045	1189381	keystroke	e	n/a
594.915	0.09	1189830	keystroke	Key.space	n/a
595.05	0.12	1190100	keystroke	s	n/a
595.245	0.06	1190490	keystroke	t	n/a
595.335	0.1205	1190670	keystroke	a	n/a
595.485	0.1205	1190970	keystroke	m	n/a
595.56	0.105	1191120	keystroke	p	n/a
596.1145	0.1355	1192229	keystroke	s	n/a
596.205	0.12	1192410	keystroke	Key.space	n/a
596.4	0.0905	1192800	keystroke	r	n/a
596.55	0.075	1193100	keystroke	e	n/a
596.79	0.09	1193580	keystroke	c	n/a
597.36	0.06	1194720	keystroke	Key.backspace	n/a
597.435	0.075	1194870	keystroke	v	n/a
597.735	0.06	1195470	keystroke	o	n/a
597.975	0.075	1195950	keystroke	u	n/a
598.5895	0.03	1197179	keystroke	Key.backspace	n/a
598.785	0.075	1197570	keystroke	l	n/a
598.98	0.06	1197960	keystroke	u	n/a
599.385	0.0895	1198770	keystroke	t	n/a
599.505	0.059	1199010	keystroke	i	n/a
599.7	0.075	1199400	keystroke	n	n/a
599.9995	0.12	1199999	keystroke	a	n/a
600.1045	0.075	1200209	keystroke	r	n/a
600.33	0.0745	1200660	keystroke	y	n/a
600.4645	0.09	1200929	keystroke	Key.space	n/a
600.5695	0.105	1201139	keystroke	a	n/a
600.8995	0.09	1201799	keystroke	l	n/a
601.0495	0.075	1202099	keystroke	l	n/a
601.1845	0.09	1202369	keystroke	o	n/a
601.2755	0.1195	1202551	keystroke	w	n/a
601.38	0.075	1202760	keystroke	e	n/a
602.2945	0.06	1204589	keystroke	Key.backspace	n/a
602.46	0.0745	1204920	keystroke	Key.backspace	n/a
602.6245	0.0905	1205249	keystroke	Key.backspace	n/a
602.79	0.075	1205580	keystroke	Key.backspace	n/a
602.939	0.061	1205878	keystroke	Key.backspace	n/a
603.075	0.075	1206150	keystroke	Key.backspace	n/a
603.225	0.075	1206450	keystroke	Key.backspace	n/a
603.3905	0.0735	1206781	keystroke	Key.backspace	n/a
603.54	0.075	1207080	keystroke	Key.backspace	n/a
603.689	0.091	1207378	keystroke	Key.backspace	n/a
603.825	0.09	1207650	keystroke	Key.backspace	n/a
604.485	0.075	1208970	keystroke	o	n/a
604.68	0.09	1209360	keystroke	n	n/a
604.77	0.135	1209540	keystroke	a	n/a
604.875	0.105	1209750	keystroke	r	n/a
605.115	0.09	1210230	keystroke	y	n/a
