onset	duration	sample	value	key	prompt_text
9.8445	0.013	19689	keystroke	Key.enter	n/a
9.8845	12.696	19769	prompt	n/a	the quick brown fox jumps over a lazy dog\n
11.463	0.09	22926	keystroke	t	n/a
11.598	0.09	23196	keystroke	h	n/a
11.673	0.12	23346	keystroke	e	n/a
11.778	0.104	23556	keystroke	Key.space	n/a
11.988	0.09	23976	keystroke	q	n/a
12.092	0.106	24184	keystroke	u	n/a
12.272	0.09	24544	keystroke	i	n/a
12.377	0.106	24754	keystroke	c	n/a
12.468	0.09	24936	keystroke	k	n/a
12.633	0.12	25266	keystroke	Key.space	n/a
14.478	0.075	28956	keystroke	b	n/a
14.7175	0.105	29435	keystroke	r	n/a
15.5275	0.09	31055	keystroke	o	n/a
15.6185	0.119	31237	keystroke	w	n/a
15.7975	0.1355	31595	keystroke	n	n/a
15.9175	0.12	31835	keystroke	Key.space	n/a
16.0825	0.09	32165	keystroke	f	n/a
16.1875	0.075	32375	keystroke	o	n/a
16.3375	0.12	32675	keystroke	x	n/a
16.4425	0.105	32885	keystroke	Key.space	n/a
16.6975	0.105	33395	keystroke	j	n/a
16.922	0.09	33844	keystroke	y	n/a
16.9375	0.0595	33875	keystroke	u	n/a
17.6875	0.045	35375	keystroke	Key.backspace	n/a
17.7775	0.075	35555	keystroke	Key.backspace	n/a
18.0925	0.075	36185	keystroke	u	n/a
18.303	0.075	36606	keystroke	m	n/a
18.4675	0.0605	36935	keystroke	p	n/a
18.573	0.1495	37146	keystroke	s	n/a
18.663	0.1045	37326	keystroke	Key.space	n/a
18.7825	0.105	37565	keystroke	o	n/a
18.9025	0.075	37805	keystroke	v	n/a
19.0375	0.15	38075	keystroke	e	n/a
19.128	0.1345	38256	keystroke	r	n/a
19.158	0.1345	38316	keystroke	Key.space	n/a
19.3075	0.1505	38615	keystroke	a	n/a
19.398	0.135	38796	keystroke	Key.space	n/a
19.653	0.12	39306	keystroke	l	n/a
19.743	0.09	39486	keystroke	a	n/a
19.968	0.105	39936	keystroke	z	n/a
20.343	0.12	40686	keystroke	y	n/a
20.538	0.12	41076	keystroke	Key.space	n/a
21.573	0.12	43146	keystroke	d	n/a
21.7075	0.1055	43415	keystroke	o	n/a
21.827	0.0755	43654	keystroke	g	n/a
22.4725	0.105	44945	keystroke	Key.enter	n/a
22.5855	7.8245	45171	prompt	n/a	catherine menu likewise blessed\n
23.2375	0.135	46475	keystroke	c	n/a
23.4325	0.105	46865	keystroke	a	n/a
23.5975	0.105	47195	keystroke	t	n/a
23.7325	0.1205	47465	keystroke	h	n/a
23.8075	0.135	47615	keystroke	e	n/a
23.8825	0.075	47765	keystroke	r	n/a
23.9875	0.0755	47975	keystroke	i	n/a
24.1975	0.06	48395	keystroke	n	n/a
24.3175	0.1355	48635	keystroke	e	n/a
24.4075	0.1355	48815	keystroke	Key.space	n/a
25.203	0.0895	50406	keystroke	m	n/a
25.413	0.06	50826	keystroke	u	n/a
26.133	0.075	52266	keystroke	Key.backspace	n/a
26.343	0.105	52686	keystroke	e	n/a
26.583	0.06	53166	keystroke	n	n/a
26.718	0.075	53436	keystroke	u	n/a
26.958	0.12	53916	keystroke	Key.space	n/a
27.123	0.075	54246	keystroke	l	n/a
27.273	0.075	54546	keystroke	i	n/a
27.468	0.135	54936	keystroke	k	n/a
27.693	0.105	55386	keystroke	e	n/a
27.933	0.15	55866	keystroke	w	n/a
28.503	0.105	57006	keystroke	i	n/a
28.623	0.165	57246	keystroke	s	n/a
28.698	0.15	57396	keystroke	e	n/a
28.803	0.12	57606	keystroke	Key.space	n/a
29.073	0.105	58146	keystroke	b	n/a
29.298	0.09	58596	keystroke	l	n/a
29.403	0.09	58806	keystroke	e	n/a
29.613	0.06	59226	keystroke	s	n/a
29.733	0.135	59466	keystroke	s	n/a
29.943	0.09	59886	keystroke	e	n/a
30.138	0.105	60276	keystroke	d	n/a
30.303	0.105	60606	keystroke	Key.enter	n/a
30.415	7.015	60830	prompt	n/a	griffin mastercard spring benchmark\n
31.4425	0.12	62885	keystroke	g	n/a
31.6375	0.075	63275	keystroke	r	n/a
31.7575	0.105	63515	keystroke	i	n/a
31.8775	0.075	63755	keystroke	f	n/a
32.0275	0.105	64055	keystroke	f	n/a
32.1925	0.105	64385	keystroke	i	n/a
32.2525	0.121	64505	keystroke	n	n/a
32.388	0.12	64776	keystroke	Key.space	n/a
32.703	0.1355	65406	keystroke	m	n/a
32.808	0.165	65616	keystroke	a	n/a
32.883	0.105	65766	keystroke	s	n/a
33.108	0.0905	66216	keystroke	t	n/a
33.228	0.135	66456	keystroke	e	n/a
33.288	0.09	66576	keystroke	r	n/a
33.543	0.1345	67086	keystroke	c	n/a
33.6625	0.225	67325	keystroke	a	n/a
33.828	0.0895	67656	keystroke	r	n/a
34.0225	0.1205	68045	keystroke	d	n/a
34.1125	0.12	68225	keystroke	Key.space	n/a
34.2775	0.1355	68555	keystroke	s	n/a
34.3525	0.0755	68705	keystroke	p	n/a
34.998	0.12	69996	keystroke	r	n/a
35.178	0.135	70356	keystroke	i	n/a
35.238	0.135	70476	keystroke	n	n/a
35.418	0.12	70836	keystroke	g	n/a
35.493	0.12	70986	keystroke	Key.space	n/a
35.628	0.12	71256	keystroke	b	n/a
35.733	0.105	71466	keystroke	e	n/a
36.1675	0.09	72335	keystroke	n	n/a
36.3475	0.136	72695	keystroke	c	n/a
36.4685	0.09	72937	keystroke	h	n/a
36.7225	0.06	73445	keystroke	m	n/a
36.8425	0.106	73685	keystroke	a	n/a
36.9035	0.119	73807	keystroke	r	n/a
37.0375	0.121	74075	keystroke	k	n/a
37.3675	0.06	74735	keystroke	Key.enter	n/a
37.4335	5.5315	74867	prompt	n/a	materials experiences bikes parenting\n
38.1025	0.12	76205	keystroke	m	n/a
38.2085	0.134	76417	keystroke	a	n/a
38.3125	0.105	76625	keystroke	t	n/a
38.4775	0.091	76955	keystroke	e	n/a
38.5225	0.121	77045	keystroke	r	n/a
38.6275	0.09	77255	keystroke	i	n/a
38.7475	0.075	77495	keystroke	a	n/a
38.8375	0.076	77675	keystroke	l	n/a
38.9435	0.194	77887	keystroke	s	n/a
39.0925	0.135	78185	keystroke	Key.space	n/a
39.2575	0.076	78515	keystroke	e	n/a
39.4975	0.06	78995	keystroke	x	n/a
39.6025	0.106	79205	keystroke	p	n/a
40.3385	0.1495	80677	keystroke	e	n/a
40.4285	0.0895	80857	keystroke	r	n/a
40.533	0.075	81066	keystroke	i	n/a
40.593	0.105	81186	keystroke	e	n/a
40.713	0.12	81426	keystroke	n	n/a
40.818	0.135	81636	keystroke	c	n/a
40.863	0.225	81726	keystroke	e	n/a
40.983	0.12	81966	keystroke	s	n/a
41.073	0.12	82146	keystroke	Key.space	n/a
41.313	0.09	82626	keystroke	b	n/a
41.478	0.075	82956	keystroke	i	n/a
41.613	0.09	83226	keystroke	k	n/a
41.703	0.1795	83406	keystroke	e	n/a
41.8075	0.12	83615	keystroke	s	n/a
41.8385	0.1645	83677	keystroke	Key.space	n/a
42.033	0.09	84066	keystroke	p	n/a
42.138	0.105	84276	keystroke	a	n/a
42.228	0.1505	84456	keystroke	r	n/a
42.333	0.1355	84666	keystroke	e	n/a
42.4535	0.09	84907	keystroke	n	n/a
42.5435	0.09	85087	keystroke	t	n/a
42.6485	0.09	85297	keystroke	i	n/a
42.6935	0.105	85387	keystroke	n	n/a
42.7685	0.09	85537	keystroke	g	n/a
42.9185	0.045	85837	keystroke	Key.enter	n/a
42.968	8.382	85936	prompt	n/a	gardens workout senior threat\n
43.6835	0.09	87367	keystroke	g	n/a
43.8785	0.165	87757	keystroke	a	n/a
44.013	0.0755	88026	keystroke	r	n/a
44.163	0.105	88326	keystroke	d	n/a
44.3135	0.09	88627	keystroke	e	n/a
44.4335	0.1345	88867	keystroke	n	n/a
44.508	0.12	89016	keystroke	s	n/a
44.583	0.15	89166	keystroke	Key.space	n/a
44.718	0.09	89436	keystroke	w	n/a
44.808	0.12	89616	keystroke	o	n/a
44.943	0.09	89886	keystroke	r	n/a
45.063	0.1045	90126	keystroke	k	n/a
45.7985	0.1945	91597	keystroke	o	n/a
45.9185	0.1195	91837	keystroke	u	n/a
46.023	0.105	92046	keystroke	t	n/a
46.098	0.09	92196	keystroke	Key.space	n/a
46.233	0.105	92466	keystroke	e	n/a
46.323	0.075	92646	keystroke	n	n/a
46.698	0.03	93396	keystroke	Key.backspace	n/a
46.818	0.06	93636	keystroke	Key.backspace	n/a
46.938	0.1505	93876	keystroke	s	n/a
47.1035	0.075	94207	keystroke	n	n/a
47.703	0.045	95406	keystroke	=	n/a
47.703	0.06	95406	keystroke	Key.backspace	n/a
48.888	0.06	97776	keystroke	Key.backspace	n/a
49.338	0.105	98676	keystroke	e	n/a
49.428	0.045	98856	keystroke	n	n/a
49.578	0.045	99156	keystroke	i	n/a
49.758	0.09	99516	keystroke	o	n/a
49.923	0.1355	99846	keystroke	r	n/a
50.013	0.1195	100026	keystroke	Key.space	n/a
50.2825	0.106	100565	keystroke	t	n/a
50.3575	0.136	100715	keystroke	h	n/a
50.4785	0.105	100957	keystroke	r	n/a
50.6885	0.15	101377	keystroke	e	n/a
50.7935	0.105	101587	keystroke	a	n/a
50.9735	0.09	101947	keystroke	t	n/a
51.273	0.075	102546	keystroke	Key.enter	n/a
51.353	5.742	102706	prompt	n/a	reliance wines chassis attorney\n
51.993	0.12	103986	keystroke	r	n/a
52.233	0.105	104466	keystroke	e	n/a
52.383	0.075	104766	keystroke	l	n/a
52.548	0.12	105096	keystroke	i	n/a
52.683	0.1345	105366	keystroke	a	n/a
52.8025	0.091	105605	keystroke	n	n/a
52.9075	0.136	105815	keystroke	c	n/a
52.9675	0.1205	105935	keystroke	e	n/a
53.0575	0.1355	106115	keystroke	Key.space	n/a
53.208	0.105	106416	keystroke	w	n/a
53.388	0.105	106776	keystroke	i	n/a
53.523	0.135	107046	keystroke	n	n/a
53.613	0.195	107226	keystroke	e	n/a
53.718	0.15	107436	keystroke	s	n/a
53.763	0.135	107526	keystroke	Key.space	n/a
54.048	0.1355	108096	keystroke	c	n/a
54.1535	0.119	108307	keystroke	h	n/a
54.2435	0.075	108487	keystroke	a	n/a
54.4525	0.031	108905	keystroke	s	n/a
54.5585	0.089	109117	keystroke	s	n/a
54.6775	0.106	109355	keystroke	i	n/a
54.7685	0.105	109537	keystroke	s	n/a
54.8875	0.151	109775	keystroke	Key.space	n/a
55.0235	0.1045	110047	keystroke	a	n/a
55.263	0.045	110526	keystroke	t	n/a
55.383	0.1045	110766	keystroke	t	n/a
55.5635	0.119	111127	keystroke	o	n/a
55.6975	0.105	111395	keystroke	r	n/a
55.9075	0.09	111815	keystroke	n	n/a
56.1325	0.09	112265	keystroke	y	n/a
56.4325	0.12	112865	keystroke	Key.backspace	n/a
56.5825	0.09	113165	keystroke	e	n/a
56.7775	0.076	113555	keystroke	y	n/a
57.0185	0.075	114037	keystroke	Key.enter	n/a
57.0985	8.036	114197	prompt	n/a	mortality programmers thomas mime\n
58.053	0.075	116106	keystroke	m	n/a
58.173	0.0755	116346	keystroke	o	n/a
58.278	0.12	116556	keystroke	r	n/a
58.5185	0.1045	117037	keystroke	t	n/a
58.7735	0.09	117547	keystroke	a	n/a
58.8785	0.0595	117757	keystroke	l	n/a
59.028	0.1055	118056	keystroke	i	n/a
59.1635	0.105	118327	keystroke	t	n/a
59.3735	0.09	118747	keystroke	y	n/a
59.4335	0.105	118867	keystroke	Key.space	n/a
59.6585	0.089	119317	keystroke	p	n/a
59.7775	0.091	119555	keystroke	r	n/a
59.9585	0.089	119917	keystroke	o	n/a
60.0925	0.105	120185	keystroke	g	n/a
60.318	0.09	120636	keystroke	r	n/a
60.513	0.075	121026	keystroke	a	n/a
60.693	0.075	121386	keystroke	m	n/a
60.828	0.135	121656	keystroke	m	n/a
60.978	0.12	121956	keystroke	e	n/a
61.038	0.165	122076	keystroke	r	n/a
61.173	0.15	122346	keystroke	s	n/a
61.233	0.18	122466	keystroke	Key.space	n/a
61.353	0.12	122706	keystroke	t	n/a
61.443	0.075	122886	keystroke	h	n/a
61.608	0.12	123216	keystroke	o	n/a
61.683	0.12	123366	keystroke	m	n/a
61.833	0.18	123666	keystroke	a	n/a
61.953	0.15	123906	keystroke	s	n/a
62.058	0.15	124116	keystroke	Key.space	n/a
62.223	0.1055	124446	keystroke	m	n/a
62.5835	0.105	125167	keystroke	i	n/a
62.7635	0.135	125527	keystroke	m	n/a
62.8685	0.105	125737	keystroke	e	n/a
63.2435	0.045	126487	keystroke	=	n/a
63.2445	0.059	126489	keystroke	Key.backspace	n/a
63.7675	0.105	127535	keystroke	'	n/a
64.6525	0.075	129305	keystroke	Key.backspace	n/a
65.0575	0.075	130115	keystroke	Key.enter	n/a
65.1395	8.2755	130279	prompt	n/a	freebsd concluded smallest expert\n
66.333	0.09	132666	keystroke	f	n/a
66.498	0.105	132996	keystroke	r	n/a
66.723	0.06	133446	keystroke	e	n/a
66.843	0.09	133686	keystroke	e	n/a
67.998	0.1045	135996	keystroke	b	n/a
68.343	0.195	136686	keystroke	s	n/a
68.583	0.195	137166	keystroke	d	n/a
69.5725	0.135	139145	keystroke	Key.space	n/a
69.9025	0.135	139805	keystroke	c	n/a
70.008	0.075	140016	keystroke	o	n/a
70.1575	0.12	140315	keystroke	n	n/a
70.2925	0.1355	140585	keystroke	c	n/a
70.3825	0.06	140765	keystroke	l	n/a
70.548	0.09	141096	keystroke	u	n/a
70.683	0.09	141366	keystroke	d	n/a
70.863	0.075	141726	keystroke	e	n/a
71.043	0.1205	142086	keystroke	d	n/a
71.1335	0.105	142267	keystroke	Key.space	n/a
71.3435	0.105	142687	keystroke	s	n/a
71.4335	0.105	142867	keystroke	m	n/a
71.5535	0.09	143107	keystroke	a	n/a
71.6585	0.0445	143317	keystroke	l	n/a
71.7785	0.0895	143557	keystroke	l	n/a
71.838	0.15	143676	keystroke	e	n/a
71.973	0.15	143946	keystroke	s	n/a
72.138	0.135	144276	keystroke	t	n/a
72.213	0.165	144426	keystroke	Key.space	n/a
72.393	0.105	144786	keystroke	e	n/a
72.648	0.09	145296	keystroke	x	n/a
72.798	0.12	145596	keystroke	p	n/a
72.933	0.135	145866	keystroke	e	n/a
72.993	0.105	145986	keystroke	r	n/a
73.203	0.075	146406	keystroke	t	n/a
73.353	0.06	146706	keystroke	Key.enter	n/a
73.4185	3.851	146837	prompt	n/a	choice explain test fears\n
74.013	0.135	148026	keystroke	c	n/a
74.088	0.075	148176	keystroke	h	n/a
74.193	0.075	148386	keystroke	o	n/a
74.343	0.12	148686	keystroke	i	n/a
74.433	0.1355	148866	keystroke	c	n/a
74.508	0.1355	149016	keystroke	e	n/a
74.5985	0.135	149197	keystroke	Key.space	n/a
74.8385	0.075	149677	keystroke	e	n/a
75.0335	0.075	150067	keystroke	x	n/a
75.1535	0.12	150307	keystroke	p	n/a
75.2135	0.105	150427	keystroke	l	n/a
75.3335	0.12	150667	keystroke	a	n/a
75.4385	0.1045	150877	keystroke	i	n/a
75.498	0.135	150996	keystroke	n	n/a
75.588	0.105	151176	keystroke	Key.space	n/a
75.798	0.09	151596	keystroke	t	n/a
75.873	0.165	151746	keystroke	e	n/a
75.948	0.165	151896	keystroke	s	n/a
76.039	0.089	152078	keystroke	t	n/a
76.083	0.12	152166	keystroke	Key.space	n/a
76.4435	0.09	152887	keystroke	f	n/a
76.6535	0.2095	153307	keystroke	e	n/a
76.7435	0.1345	153487	keystroke	a	n/a
76.848	0.105	153696	keystroke	r	n/a
76.983	0.105	153966	keystroke	s	n/a
77.193	0.075	154386	keystroke	Key.enter	n/a
77.2725	6.8675	154545	prompt	n/a	dispute subsection correspondence carey\n
78.1835	0.105	156367	keystroke	d	n/a
78.3035	0.105	156607	keystroke	i	n/a
78.3785	0.12	156757	keystroke	s	n/a
78.5285	0.075	157057	keystroke	p	n/a
78.738	0.105	157476	keystroke	u	n/a
78.828	0.12	157656	keystroke	t	n/a
78.903	0.105	157806	keystroke	e	n/a
79.009	0.1045	158018	keystroke	Key.space	n/a
79.2185	0.12	158437	keystroke	s	n/a
79.2935	0.15	158587	keystroke	u	n/a
79.3835	0.12	158767	keystroke	b	n/a
79.5185	0.15	159037	keystroke	s	n/a
79.8185	0.09	159637	keystroke	e	n/a
79.9685	0.0895	159937	keystroke	c	n/a
80.193	0.075	160386	keystroke	t	n/a
80.253	0.21	160506	keystroke	i	n/a
80.343	0.105	160686	keystroke	o	n/a
80.403	0.15	160806	keystroke	n	n/a
80.568	0.1205	161136	keystroke	Key.space	n/a
80.8235	0.105	161647	keystroke	c	n/a
80.9435	0.105	161887	keystroke	o	n/a
81.108	0.03	162216	keystroke	r	n/a
81.213	0.12	162426	keystroke	r	n/a
81.378	0.135	162756	keystroke	e	n/a
81.468	0.15	162936	keystroke	s	n/a
81.603	0.105	163206	keystroke	p	n/a
81.813	0.06	163626	keystroke	o	n/a
81.978	0.075	163956	keystroke	n	n/a
82.068	0.075	164136	keystroke	d	n/a
82.218	0.105	164436	keystroke	e	n/a
82.338	0.12	164676	keystroke	n	n/a
82.443	0.12	164886	keystroke	c	n/a
82.503	0.18	165006	keystroke	e	n/a
82.638	0.12	165276	keystroke	Key.space	n/a
82.788	0.12	165576	keystroke	c	n/a
82.8925	0.226	165785	keystroke	a	n/a
83.0885	0.105	166177	keystroke	r	n/a
83.4935	0.105	166987	keystroke	e	n/a
83.7185	0.09	167437	keystroke	y	n/a
84.0635	0.075	168127	keystroke	Key.enter	n/a
84.1435	6.3565	168287	prompt	n/a	errors swift invest diamonds\n
84.7085	0.09	169417	keystroke	e	n/a
84.9035	0.03	169807	keystroke	r	n/a
84.9935	0.1045	169987	keystroke	r	n/a
85.143	0.09	170286	keystroke	o	n/a
85.203	0.15	170406	keystroke	r	n/a
85.309	0.119	170618	keystroke	s	n/a
85.398	0.135	170796	keystroke	Key.space	n/a
85.548	0.09	171096	keystroke	s	n/a
85.728	0.105	171456	keystroke	w	n/a
85.923	0.1505	171846	keystroke	i	n/a
86.1335	0.12	172267	keystroke	f	n/a
86.3735	0.105	172747	keystroke	t	n/a
86.4485	0.12	172897	keystroke	Key.space	n/a
86.6435	0.12	173287	keystroke	i	n/a
86.7335	0.12	173467	keystroke	n	n/a
86.9135	0.105	173827	keystroke	v	n/a
87.093	0.24	174186	keystroke	e	n/a
87.198	0.1805	174396	keystroke	s	n/a
87.318	0.12	174636	keystroke	t	n/a
87.6035	0.09	175207	keystroke	Key.space	n/a
87.7985	0.105	175597	keystroke	d	n/a
87.8885	0.12	175777	keystroke	i	n/a
87.9935	0.105	175987	keystroke	a	n/a
88.0985	0.09	176197	keystroke	m	n/a
88.2935	0.06	176587	keystroke	o	n/a
88.4585	0.15	176917	keystroke	n	n/a
88.9235	0.12	177847	keystroke	d	n/a
89.298	0.075	178596	keystroke	s	n/a
90.3935	0.105	180787	keystroke	Key.enter	n/a
90.503	12.792	181006	prompt	n/a	billy sensitivity jelsoft shops\n
91.3085	0.0745	182617	keystroke	b	n/a
91.443	0.075	182886	keystroke	i	n/a
91.623	0.06	183246	keystroke	l	n/a
91.743	0.09	183486	keystroke	l	n/a
91.818	0.105	183636	keystroke	y	n/a
91.893	0.135	183786	keystroke	Key.space	n/a
92.163	0.1205	184326	keystroke	s	n/a
92.838	0.12	185676	keystroke	e	n/a
92.973	0.1055	185946	keystroke	n	n/a
93.1085	0.135	186217	keystroke	s	n/a
93.2285	0.105	186457	keystroke	i	n/a
93.4535	0.135	186907	keystroke	t	n/a
93.8735	0.135	187747	keystroke	i	n/a
94.0685	0.12	188137	keystroke	v	n/a
94.3385	0.135	188677	keystroke	t	n/a
94.5635	0.105	189127	keystroke	y	n/a
94.6535	0.135	189307	keystroke	Key.space	n/a
95.0135	0.1495	190027	keystroke	j	n/a
95.148	0.105	190296	keystroke	e	n/a
95.283	0.105	190566	keystroke	l	n/a
95.4335	0.1195	190867	keystroke	s	n/a
95.568	0.09	191136	keystroke	o	n/a
95.748	0.135	191496	keystroke	f	n/a
96.378	0.03	192756	keystroke	Key.backspace	n/a
97.1885	0.045	194377	keystroke	Key.backspace	n/a
97.3385	0.06	194677	keystroke	Key.backspace	n/a
97.4885	0.045	194977	keystroke	Key.backspace	n/a
97.6385	0.045	195277	keystroke	Key.backspace	n/a
97.773	0.06	195546	keystroke	Key.backspace	n/a
97.938	0.06	195876	keystroke	Key.backspace	n/a
98.118	0.06	196236	keystroke	Key.backspace	n/a
98.328	0.06	196656	keystroke	Key.backspace	n/a
98.763	0.06	197526	keystroke	Key.backspace	n/a
99.7535	0.1045	199507	keystroke	v	n/a
99.888	0.075	199776	keystroke	i	n/a
100.023	0.09	200046	keystroke	t	n/a
100.218	0.075	200436	keystroke	y	n/a
100.308	0.06	200616	keystroke	Key.space	n/a
100.8635	0.135	201727	keystroke	j	n/a
100.9835	0.09	201967	keystroke	e	n/a
101.1185	0.09	202237	keystroke	l	n/a
101.2385	0.12	202477	keystroke	s	n/a
101.4035	0.12	202807	keystroke	o	n/a
101.5985	0.12	203197	keystroke	f	n/a
101.8235	0.075	203647	keystroke	t	n/a
101.8685	0.105	203737	keystroke	Key.space	n/a
102.018	0.12	204036	keystroke	s	n/a
102.078	0.075	204156	keystroke	h	n/a
102.228	0.105	204456	keystroke	o	n/a
102.498	0.09	204996	keystroke	p	n/a
102.783	0.105	205566	keystroke	s	n/a
103.2035	0.09	206407	keystroke	Key.enter	n/a
103.299	5.501	206598	prompt	n/a	fancy intersection mechanics deadline\n
103.983	0.09	207966	keystroke	f	n/a
104.133	0.105	208266	keystroke	n	n/a
104.163	0.165	208326	keystroke	a	n/a
104.298	0.105	208596	keystroke	c	n/a
104.553	0.075	209106	keystroke	y	n/a
104.598	0.105	209196	keystroke	Key.space	n/a
104.763	0.12	209526	keystroke	i	n/a
104.853	0.15	209706	keystroke	n	n/a
104.988	0.09	209976	keystroke	t	n/a
105.198	0.12	210396	keystroke	e	n/a
105.258	0.12	210516	keystroke	r	n/a
105.453	0.1355	210906	keystroke	s	n/a
105.543	0.1505	211086	keystroke	e	n/a
105.7535	0.09	211507	keystroke	c	n/a
105.9635	0.075	211927	keystroke	t	n/a
106.0085	0.21	212017	keystroke	i	n/a
106.0835	0.105	212167	keystroke	o	n/a
106.1285	0.165	212257	keystroke	n	n/a
106.3535	0.105	212707	keystroke	Key.space	n/a
106.6535	0.12	213307	keystroke	m	n/a
106.7285	0.12	213457	keystroke	e	n/a
106.8635	0.135	213727	keystroke	c	n/a
106.9685	0.09	213937	keystroke	h	n/a
107.0435	0.1345	214087	keystroke	a	n/a
107.163	0.06	214326	keystroke	n	n/a
107.2825	0.12	214565	keystroke	i	n/a
107.3725	0.166	214745	keystroke	c	n/a
107.4785	0.18	214957	keystroke	s	n/a
107.6125	0.0755	215225	keystroke	Key.space	n/a
107.749	0.09	215498	keystroke	d	n/a
107.929	0.134	215858	keystroke	e	n/a
108.003	0.18	216006	keystroke	a	n/a
108.138	0.1205	216276	keystroke	d	n/a
108.3035	0.075	216607	keystroke	l	n/a
108.4535	0.135	216907	keystroke	i	n/a
108.5285	0.105	217057	keystroke	n	n/a
108.5885	0.09	217177	keystroke	e	n/a
108.7535	0.045	217507	keystroke	Key.enter	n/a
108.803	7.5865	217606	prompt	n/a	guyana harvey tears encouraging\n
109.923	0.09	219846	keystroke	g	n/a
109.998	0.135	219996	keystroke	u	n/a
110.193	0.09	220386	keystroke	y	n/a
110.448	0.06	220896	keystroke	a	n/a
110.553	0.09	221106	keystroke	n	n/a
110.628	0.0905	221256	keystroke	a	n/a
110.7935	0.12	221587	keystroke	Key.space	n/a
111.0185	0.105	222037	keystroke	h	n/a
111.1085	0.105	222217	keystroke	a	n/a
111.3035	0.09	222607	keystroke	r	n/a
111.5135	0.06	223027	keystroke	v	n/a
111.6185	0.09	223237	keystroke	e	n/a
111.7835	0.09	223567	keystroke	y	n/a
111.8435	0.105	223687	keystroke	Key.space	n/a
112.098	0.135	224196	keystroke	t	n/a
112.383	0.1955	224766	keystroke	e	n/a
112.503	0.1355	225006	keystroke	a	n/a
112.623	0.1955	225246	keystroke	r	n/a
112.7735	0.1505	225547	keystroke	s	n/a
113.059	0.1495	226118	keystroke	Key.space	n/a
113.5235	0.1345	227047	keystroke	e	n/a
113.659	0.089	227318	keystroke	n	n/a
113.793	0.135	227586	keystroke	c	n/a
113.914	0.164	227828	keystroke	o	n/a
113.988	0.1505	227976	keystroke	u	n/a
114.0935	0.09	228187	keystroke	r	n/a
114.3035	0.045	228607	keystroke	g	n/a
114.6185	0.06	229237	keystroke	Key.backspace	n/a
114.7385	0.06	229477	keystroke	a	n/a
114.9035	0.075	229807	keystroke	g	n/a
115.0385	0.105	230077	keystroke	i	n/a
115.0985	0.1195	230197	keystroke	n	n/a
115.233	0.135	230466	keystroke	g	n/a
115.383	0.1055	230766	keystroke	Key.space	n/a
115.9835	0.09	231967	keystroke	Key.backspace	n/a
116.313	0.075	232626	keystroke	Key.enter	n/a
116.3925	8.3825	232785	prompt	n/a	laid teach scholar constitutional\n
117.033	0.09	234066	keystroke	l	n/a
117.078	0.165	234156	keystroke	a	n/a
117.183	0.12	234366	keystroke	d	n/a
117.288	0.105	234576	keystroke	i	n/a
118.038	0.03	236076	keystroke	=	n/a
118.158	0.1505	236316	keystroke	Key.backspace	n/a
118.4285	0.09	236857	keystroke	Key.backspace	n/a
118.789	0.06	237578	keystroke	Key.backspace	n/a
119.284	0.075	238568	keystroke	i	n/a
119.374	0.135	238748	keystroke	d	n/a
119.464	0.119	238928	keystroke	Key.space	n/a
119.824	0.0895	239648	keystroke	t	n/a
119.9735	0.15	239947	keystroke	e	n/a
120.0185	0.165	240037	keystroke	a	n/a
120.1535	0.105	240307	keystroke	c	n/a
120.2735	0.135	240547	keystroke	h	n/a
120.7085	0.12	241417	keystroke	Key.space	n/a
120.9035	0.15	241807	keystroke	s	n/a
120.9785	0.1495	241957	keystroke	c	n/a
121.084	0.104	242168	keystroke	h	n/a
121.278	0.09	242556	keystroke	o	n/a
121.4435	0.09	242887	keystroke	l	n/a
121.5185	0.18	243037	keystroke	a	n/a
121.6235	0.12	243247	keystroke	r	n/a
121.7135	0.09	243427	keystroke	Key.space	n/a
121.9385	0.12	243877	keystroke	c	n/a
122.0285	0.06	244057	keystroke	o	n/a
122.1635	0.105	244327	keystroke	n	n/a
122.2385	0.105	244477	keystroke	s	n/a
123.0485	0.0905	246097	keystroke	t	n/a
123.169	0.09	246338	keystroke	i	n/a
123.274	0.105	246548	keystroke	t	n/a
123.393	0.106	246786	keystroke	u	n/a
123.529	0.105	247058	keystroke	t	n/a
123.994	0.195	247988	keystroke	i	n/a
124.039	0.12	248078	keystroke	o	n/a
124.128	0.151	248256	keystroke	n	n/a
124.368	0.09	248736	keystroke	a	n/a
124.473	0.075	248946	keystroke	l	n/a
124.713	0.06	249426	keystroke	Key.enter	n/a
124.78	6.385	249560	prompt	n/a	except explanation exclusive click\n
125.5085	0.075	251017	keystroke	e	n/a
125.7185	0.09	251437	keystroke	x	n/a
125.928	0.09	251856	keystroke	c	n/a
125.958	0.135	251916	keystroke	e	n/a
126.078	0.105	252156	keystroke	p	n/a
126.198	0.105	252396	keystroke	t	n/a
126.273	0.12	252546	keystroke	Key.space	n/a
126.438	0.075	252876	keystroke	e	n/a
126.633	0.105	253266	keystroke	x	n/a
126.723	0.135	253446	keystroke	p	n/a
126.783	0.105	253566	keystroke	l	n/a
126.873	0.12	253746	keystroke	a	n/a
127.023	0.09	254046	keystroke	n	n/a
127.128	0.12	254256	keystroke	a	n/a
127.353	0.076	254706	keystroke	t	n/a
127.444	0.165	254888	keystroke	i	n/a
127.489	0.105	254978	keystroke	o	n/a
127.549	0.18	255098	keystroke	n	n/a
127.654	0.105	255308	keystroke	Key.space	n/a
127.774	0.09	255548	keystroke	e	n/a
127.999	0.09	255998	keystroke	x	n/a
128.179	0.12	256358	keystroke	c	n/a
128.313	0.061	256626	keystroke	l	n/a
128.479	0.089	256958	keystroke	u	n/a
128.554	0.105	257108	keystroke	s	n/a
128.674	0.12	257348	keystroke	i	n/a
128.764	0.105	257528	keystroke	v	n/a
128.929	0.15	257858	keystroke	e	n/a
129.049	0.0445	258098	keystroke	Key.space	n/a
129.2885	0.045	258577	keystroke	l	n/a
129.8735	0.045	259747	keystroke	Key.backspace	n/a
130.2335	0.0905	260467	keystroke	c	n/a
130.354	0.09	260708	keystroke	l	n/a
130.549	0.074	261098	keystroke	i	n/a
130.6685	0.09	261337	keystroke	c	n/a
130.7435	0.075	261487	keystroke	k	n/a
131.1185	0.045	262237	keystroke	Key.enter	n/a
131.1685	6.2665	262337	prompt	n/a	shared descending password grove\n
131.8235	0.135	263647	keystroke	s	n/a
131.9435	0.135	263887	keystroke	h	n/a
132.0485	0.15	264097	keystroke	a	n/a
132.1535	0.135	264307	keystroke	r	n/a
132.3635	0.06	264727	keystroke	e	n/a
132.6785	0.165	265357	keystroke	d	n/a
132.8445	0.089	265689	keystroke	Key.space	n/a
133.278	0.09	266556	keystroke	d	n/a
133.443	0.091	266886	keystroke	e	n/a
133.638	0.135	267276	keystroke	s	n/a
133.833	0.12	267666	keystroke	c	n/a
133.998	0.075	267996	keystroke	e	n/a
134.134	0.089	268268	keystroke	n	n/a
134.208	0.12	268416	keystroke	d	n/a
134.313	0.12	268626	keystroke	i	n/a
134.358	0.15	268716	keystroke	n	n/a
134.434	0.1045	268868	keystroke	g	n/a
134.493	0.1355	268986	keystroke	Key.space	n/a
134.6735	0.105	269347	keystroke	p	n/a
134.7635	0.105	269527	keystroke	a	n/a
134.9735	0.045	269947	keystroke	s	n/a
135.0785	0.09	270157	keystroke	s	n/a
135.2885	0.09	270577	keystroke	w	n/a
135.3935	0.12	270787	keystroke	o	n/a
135.648	0.03	271296	keystroke	r	n/a
136.218	0.105	272436	keystroke	d	n/a
136.443	0.0905	272886	keystroke	Key.space	n/a
136.6985	0.075	273397	keystroke	g	n/a
136.8485	0.075	273697	keystroke	r	n/a
136.9685	0.12	273937	keystroke	o	n/a
137.0585	0.135	274117	keystroke	v	n/a
137.1785	0.105	274357	keystroke	e	n/a
137.3885	0.045	274777	keystroke	Key.enter	n/a
137.4405	11.3795	274881	prompt	n/a	earnings modules destroyed tournaments\n
138.0335	0.195	276067	keystroke	e	n/a
138.1835	0.165	276367	keystroke	a	n/a
138.3035	0.12	276607	keystroke	r	n/a
138.4385	0.09	276877	keystroke	i	n/a
138.4835	0.105	276967	keystroke	n	n/a
138.6035	0.1055	277207	keystroke	g	n/a
138.664	0.105	277328	keystroke	i	n/a
138.754	0.105	277508	keystroke	n	n/a
139.264	0.045	278528	keystroke	Key.backspace	n/a
139.399	0.06	278798	keystroke	Key.backspace	n/a
139.534	0.06	279068	keystroke	Key.backspace	n/a
139.999	0.104	279998	keystroke	i	n/a
140.044	0.135	280088	keystroke	n	n/a
140.118	0.135	280236	keystroke	g	n/a
140.238	0.136	280476	keystroke	s	n/a
140.328	0.151	280656	keystroke	Key.space	n/a
140.629	0.06	281258	keystroke	m	n/a
140.763	0.09	281526	keystroke	o	n/a
141.333	0.0755	282666	keystroke	Key.backspace	n/a
141.5135	0.06	283027	keystroke	Key.backspace	n/a
141.6935	0.045	283387	keystroke	Key.backspace	n/a
141.8585	0.075	283717	keystroke	Key.backspace	n/a
142.038	0.075	284076	keystroke	Key.backspace	n/a
142.203	0.075	284406	keystroke	Key.backspace	n/a
142.368	0.06	284736	keystroke	Key.backspace	n/a
142.503	0.075	285006	keystroke	Key.backspace	n/a
142.668	0.0905	285336	keystroke	Key.backspace	n/a
143.343	0.075	286686	keystroke	n	n/a
143.493	0.075	286986	keystroke	i	n/a
143.553	0.12	287106	keystroke	n	n/a
143.658	0.12	287316	keystroke	g	n/a
143.823	0.15	287646	keystroke	s	n/a
143.898	0.15	287796	keystroke	Key.space	n/a
144.183	0.076	288366	keystroke	m	n/a
144.319	0.0745	288638	keystroke	o	n/a
144.4085	0.105	288817	keystroke	d	n/a
144.5285	0.06	289057	keystroke	u	n/a
144.6635	0.09	289327	keystroke	l	n/a
144.7085	0.165	289417	keystroke	e	n/a
144.8135	0.135	289627	keystroke	s	n/a
144.829	0.1795	289658	keystroke	Key.space	n/a
145.0385	0.1945	290077	keystroke	s	n/a
145.459	0.045	290918	keystroke	Key.backspace	n/a
145.624	0.0895	291248	keystroke	d	n/a
145.8035	0.135	291607	keystroke	e	n/a
145.8635	0.105	291727	keystroke	s	n/a
146.0135	0.135	292027	keystroke	t	n/a
146.0735	0.105	292147	keystroke	r	n/a
146.1635	0.09	292327	keystroke	o	n/a
146.3135	0.105	292627	keystroke	y	n/a
146.4935	0.09	292987	keystroke	e	n/a
146.6735	0.1505	293347	keystroke	d	n/a
146.824	0.195	293648	keystroke	Key.space	n/a
146.989	0.1045	293978	keystroke	t	n/a
147.1985	0.15	294397	keystroke	o	n/a
147.2885	0.12	294577	keystroke	u	n/a
147.3935	0.135	294787	keystroke	r	n/a
147.5435	0.09	295087	keystroke	n	n/a
147.6785	0.135	295357	keystroke	a	n/a
147.7985	0.09	295597	keystroke	m	n/a
148.1135	0.105	296227	keystroke	e	n/a
148.2935	0.09	296587	keystroke	n	n/a
148.5485	0.06	297097	keystroke	t	n/a
148.6685	0.09	297337	keystroke	s	n/a
148.7435	0.075	297487	keystroke	Key.enter	n/a
148.824	7.631	297648	prompt	n/a	tones packard indigenous across\n
149.5385	0.105	299077	keystroke	t	n/a
149.6135	0.075	299227	keystroke	o	n/a
149.7485	0.12	299497	keystroke	n	n/a
149.8085	0.195	299617	keystroke	e	n/a
149.8985	0.135	299797	keystroke	s	n/a
149.9285	0.15	299857	keystroke	Key.space	n/a
150.738	0.106	301476	keystroke	p	n/a
150.829	0.18	301658	keystroke	a	n/a
150.979	0.105	301958	keystroke	c	n/a
151.294	0.1345	302588	keystroke	k	n/a
151.7285	0.18	303457	keystroke	a	n/a
151.8785	0.12	303757	keystroke	r	n/a
152.1185	0.135	304237	keystroke	d	n/a
152.2835	0.12	304567	keystroke	Key.space	n/a
152.4485	0.135	304897	keystroke	i	n/a
152.5085	0.165	305017	keystroke	n	n/a
154.0385	0.09	308077	keystroke	d	n/a
154.1585	0.12	308317	keystroke	i	n/a
154.4885	0.075	308977	keystroke	g	n/a
154.6385	0.075	309277	keystroke	e	n/a
154.7285	0.075	309457	keystroke	n	n/a
154.8785	0.15	309757	keystroke	o	n/a
154.9535	0.12	309907	keystroke	u	n/a
155.1485	0.15	310297	keystroke	s	n/a
155.2835	0.12	310567	keystroke	Key.space	n/a
155.4935	0.1645	310987	keystroke	a	n/a
155.6285	0.12	311257	keystroke	c	n/a
155.8685	0.075	311737	keystroke	r	n/a
155.9885	0.075	311977	keystroke	o	n/a
156.1085	0.06	312217	keystroke	s	n/a
156.2285	0.09	312457	keystroke	s	n/a
156.3785	0.075	312757	keystroke	Key.enter	n/a
156.4605	7.5245	312921	prompt	n/a	developer fastest moderator built\n
157.0685	0.09	314137	keystroke	d	n/a
157.2335	0.075	314467	keystroke	e	n/a
157.3835	0.06	314767	keystroke	v	n/a
157.4585	0.09	314917	keystroke	e	n/a
157.5485	0.09	315097	keystroke	l	n/a
157.7285	0.12	315457	keystroke	o	n/a
157.7735	0.105	315547	keystroke	p	n/a
157.8635	0.09	315727	keystroke	e	n/a
158.0885	0.09	316177	keystroke	d	n/a
158.5385	0.06	317077	keystroke	Key.backspace	n/a
158.6585	0.105	317317	keystroke	r	n/a
158.7485	0.09	317497	keystroke	Key.space	n/a
159.6035	0.135	319207	keystroke	f	n/a
159.7835	0.15	319567	keystroke	a	n/a
159.8735	0.105	319747	keystroke	s	n/a
160.0685	0.135	320137	keystroke	t	n/a
160.1585	0.15	320317	keystroke	e	n/a
160.2485	0.135	320497	keystroke	s	n/a
160.3685	0.135	320737	keystroke	t	n/a
160.7885	0.075	321577	keystroke	s	n/a
161.1635	0.075	322327	keystroke	Key.backspace	n/a
161.344	0.09	322688	keystroke	Key.space	n/a
161.794	0.045	323588	keystroke	m	n/a
161.8985	0.105	323797	keystroke	o	n/a
161.9885	0.075	323977	keystroke	d	n/a
162.1385	0.105	324277	keystroke	e	n/a
162.1985	0.135	324397	keystroke	r	n/a
162.3635	0.12	324727	keystroke	a	n/a
162.4385	0.12	324877	keystroke	t	n/a
162.5435	0.105	325087	keystroke	o	n/a
162.6495	0.104	325299	keystroke	r	n/a
162.7085	0.105	325417	keystroke	Key.space	n/a
162.874	0.045	325748	keystroke	b	n/a
162.934	0.15	325868	keystroke	u	n/a
163.009	0.09	326018	keystroke	i	n/a
163.234	0.075	326468	keystroke	l	n/a
163.714	0.06	327428	keystroke	t	n/a
163.909	0.075	327818	keystroke	Key.enter	n/a
163.9895	5.1255	327979	prompt	n/a	piece latin debut studied\n
164.6585	0.06	329317	keystroke	p	n/a
164.8385	0.105	329677	keystroke	i	n/a
164.9735	0.135	329947	keystroke	e	n/a
165.0935	0.15	330187	keystroke	c	n/a
165.2135	0.12	330427	keystroke	e	n/a
165.4085	0.135	330817	keystroke	Key.space	n/a
165.6485	0.1505	331297	keystroke	l	n/a
165.739	0.15	331478	keystroke	a	n/a
165.844	0.12	331688	keystroke	t	n/a
166.099	0.12	332198	keystroke	i	n/a
166.159	0.12	332318	keystroke	n	n/a
166.279	0.12	332558	keystroke	Key.space	n/a
166.459	0.06	332918	keystroke	d	n/a
166.609	0.12	333218	keystroke	e	n/a
166.744	0.105	333488	keystroke	b	n/a
166.834	0.12	333668	keystroke	u	n/a
166.969	0.1045	333938	keystroke	t	n/a
167.509	0.12	335018	keystroke	Key.space	n/a
167.809	0.165	335618	keystroke	s	n/a
168.049	0.09	336098	keystroke	t	n/a
168.184	0.105	336368	keystroke	u	n/a
168.274	0.09	336548	keystroke	d	n/a
168.484	0.09	336968	keystroke	i	n/a
168.6785	0.075	337357	keystroke	e	n/a
168.8735	0.06	337747	keystroke	d	n/a
169.0685	0.045	338137	keystroke	Key.enter	n/a
169.1185	4.767	338237	prompt	n/a	webmasters holes sale brands\n
169.8185	0.165	339637	keystroke	w	n/a
169.9235	0.105	339847	keystroke	e	n/a
170.0585	0.105	340117	keystroke	b	n/a
170.2985	0.105	340597	keystroke	m	n/a
170.4185	0.15	340837	keystroke	a	n/a
170.5235	0.12	341047	keystroke	s	n/a
170.7485	0.12	341497	keystroke	t	n/a
170.9135	0.12	341827	keystroke	e	n/a
170.9885	0.195	341977	keystroke	r	n/a
171.1385	0.15	342277	keystroke	s	n/a
171.2435	0.18	342487	keystroke	Key.space	n/a
171.454	0.105	342908	keystroke	h	n/a
171.649	0.09	343298	keystroke	o	n/a
171.799	0.09	343598	keystroke	l	n/a
171.874	0.1945	343748	keystroke	e	n/a
171.9935	0.12	343987	keystroke	s	n/a
172.0235	0.1655	344047	keystroke	Key.space	n/a
172.309	0.105	344618	keystroke	s	n/a
172.579	0.1345	345158	keystroke	a	n/a
172.7435	0.105	345487	keystroke	l	n/a
172.8335	0.15	345667	keystroke	e	n/a
172.9235	0.135	345847	keystroke	Key.space	n/a
173.0885	0.12	346177	keystroke	b	n/a
173.1785	0.105	346357	keystroke	r	n/a
173.2845	0.134	346569	keystroke	a	n/a
173.3885	0.12	346777	keystroke	n	n/a
173.4935	0.165	346987	keystroke	d	n/a
173.6135	0.12	347227	keystroke	s	n/a
173.7935	0.09	347587	keystroke	Key.enter	n/a
173.89	7.2555	347780	prompt	n/a	december below inherited voyuer\n
174.589	0.1195	349178	keystroke	d	n/a
174.769	0.135	349538	keystroke	e	n/a
174.949	0.12	349898	keystroke	c	n/a
175.114	0.075	350228	keystroke	e	n/a
175.234	0.135	350468	keystroke	m	n/a
175.5035	0.09	351007	keystroke	b	n/a
175.6235	0.12	351247	keystroke	e	n/a
175.6835	0.15	351367	keystroke	r	n/a
175.7585	0.12	351517	keystroke	Key.space	n/a
175.9535	0.105	351907	keystroke	b	n/a
176.0735	0.105	352147	keystroke	e	n/a
176.1935	0.076	352387	keystroke	l	n/a
176.3735	0.06	352747	keystroke	o	n/a
176.5685	0.105	353137	keystroke	w	n/a
176.899	0.105	353798	keystroke	Key.space	n/a
177.184	0.135	354368	keystroke	i	n/a
177.259	0.105	354518	keystroke	n	n/a
177.469	0.105	354938	keystroke	h	n/a
177.664	0.165	355328	keystroke	e	n/a
177.754	0.15	355508	keystroke	r	n/a
177.934	0.12	355868	keystroke	i	n/a
178.054	0.105	356108	keystroke	t	n/a
178.189	0.09	356378	keystroke	e	n/a
178.384	0.12	356768	keystroke	d	n/a
178.474	0.09	356948	keystroke	Key.space	n/a
178.639	0.105	357278	keystroke	v	n/a
178.729	0.105	357458	keystroke	o	n/a
178.879	0.09	357758	keystroke	y	n/a
179.2385	0.09	358477	keystroke	e	n/a
180.3785	0.06	360757	keystroke	Key.backspace	n/a
180.6935	0.0605	361387	keystroke	u	n/a
180.859	0.1045	361718	keystroke	e	n/a
180.9185	0.105	361837	keystroke	r	n/a
181.0835	0.06	362167	keystroke	Key.enter	n/a
181.1485	5.157	362297	prompt	n/a	mpegs existing sciences ratings\n
182.0895	0.074	364179	keystroke	m	n/a
182.2685	0.075	364537	keystroke	p	n/a
182.4035	0.105	364807	keystroke	e	n/a
182.6285	0.09	365257	keystroke	g	n/a
182.7935	0.15	365587	keystroke	s	n/a
182.8985	0.135	365797	keystroke	Key.space	n/a
183.0485	0.075	366097	keystroke	e	n/a
183.2435	0.09	366487	keystroke	x	n/a
183.3785	0.075	366757	keystroke	i	n/a
183.4385	0.12	366877	keystroke	s	n/a
183.5285	0.09	367057	keystroke	t	n/a
183.6035	0.136	367207	keystroke	i	n/a
183.6485	0.165	367297	keystroke	n	n/a
183.7235	0.12	367447	keystroke	g	n/a
183.7985	0.135	367597	keystroke	Key.space	n/a
183.9485	0.18	367897	keystroke	s	n/a
184.0685	0.135	368137	keystroke	c	n/a
184.2195	0.059	368439	keystroke	i	n/a
184.4885	0.091	368977	keystroke	e	n/a
184.7435	0.105	369487	keystroke	n	n/a
184.8335	0.181	369667	keystroke	c	n/a
184.9385	0.1655	369877	keystroke	e	n/a
185.0285	0.1655	370057	keystroke	s	n/a
185.164	0.12	370328	keystroke	Key.space	n/a
185.359	0.09	370718	keystroke	r	n/a
185.554	0.075	371108	keystroke	a	n/a
185.7485	0.075	371497	keystroke	t	n/a
185.8685	0.0905	371737	keystroke	i	n/a
185.9135	0.1205	371827	keystroke	n	n/a
185.974	0.12	371948	keystroke	g	n/a
186.079	0.105	372158	keystroke	s	n/a
186.244	0.06	372488	keystroke	Key.enter	n/a
186.309	6.4315	372618	prompt	n/a	zope thumbzilla dealers wasn't\n
187.084	0.09	374168	keystroke	z	n/a
187.189	0.18	374378	keystroke	o	n/a
187.2635	0.0905	374527	keystroke	p	n/a
187.3235	0.1355	374647	keystroke	e	n/a
187.444	0.135	374888	keystroke	Key.space	n/a
187.804	0.105	375608	keystroke	t	n/a
187.879	0.12	375758	keystroke	h	n/a
187.954	0.105	375908	keystroke	u	n/a
188.194	0.045	376388	keystroke	m	n/a
188.359	0.03	376718	keystroke	b	n/a
188.674	0.12	377348	keystroke	z	n/a
188.839	0.09	377678	keystroke	i	n/a
189.1085	0.045	378217	keystroke	l	n/a
189.229	0.12	378458	keystroke	l	n/a
189.364	0.12	378728	keystroke	a	n/a
189.499	0.12	378998	keystroke	Key.space	n/a
189.664	0.075	379328	keystroke	d	n/a
189.844	0.105	379688	keystroke	e	n/a
189.904	0.12	379808	keystroke	a	n/a
189.994	0.09	379988	keystroke	l	n/a
190.114	0.135	380228	keystroke	e	n/a
190.189	0.21	380378	keystroke	r	n/a
190.324	0.135	380648	keystroke	s	n/a
190.429	0.15	380858	keystroke	Key.space	n/a
190.714	0.09	381428	keystroke	a	n/a
191.0885	0.06	382177	keystroke	Key.backspace	n/a
191.209	0.105	382418	keystroke	w	n/a
191.284	0.18	382568	keystroke	a	n/a
191.404	0.135	382808	keystroke	s	n/a
191.554	0.075	383108	keystroke	n	n/a
191.719	0.105	383438	keystroke	'	n/a
191.943	0.0905	383886	keystroke	t	n/a
192.6335	0.105	385267	keystroke	Key.enter	n/a
192.743	5.8025	385486	prompt	n/a	bandwidth executive initial might've\n
193.669	0.075	387338	keystroke	b	n/a
193.759	0.12	387518	keystroke	a	n/a
193.849	0.1345	387698	keystroke	n	n/a
193.9235	0.1205	387847	keystroke	d	n/a
194.074	0.135	388148	keystroke	w	n/a
194.194	0.12	388388	keystroke	i	n/a
194.434	0.075	388868	keystroke	d	n/a
194.5985	0.09	389197	keystroke	t	n/a
194.7035	0.12	389407	keystroke	h	n/a
194.9735	0.105	389947	keystroke	Key.space	n/a
195.1085	0.09	390217	keystroke	e	n/a
195.3185	0.075	390637	keystroke	x	n/a
195.4835	0.105	390967	keystroke	e	n/a
195.6485	0.12	391297	keystroke	c	n/a
195.8295	0.119	391659	keystroke	u	n/a
195.9785	0.076	391957	keystroke	t	n/a
196.0835	0.121	392167	keystroke	i	n/a
196.1735	0.09	392347	keystroke	v	n/a
196.2795	0.179	392559	keystroke	e	n/a
196.4135	0.1495	392827	keystroke	Key.space	n/a
196.549	0.074	393098	keystroke	i	n/a
196.5935	0.0745	393187	keystroke	n	n/a
196.728	0.09	393456	keystroke	i	n/a
196.819	0.074	393638	keystroke	t	n/a
196.908	0.075	393816	keystroke	i	n/a
196.999	0.1045	393998	keystroke	a	n/a
197.0885	0.09	394177	keystroke	l	n/a
197.2085	0.1205	394417	keystroke	Key.space	n/a
197.374	0.09	394748	keystroke	m	n/a
197.494	0.075	394988	keystroke	i	n/a
197.614	0.06	395228	keystroke	g	n/a
197.659	0.12	395318	keystroke	h	n/a
197.749	0.105	395498	keystroke	t	n/a
198.079	0.105	396158	keystroke	'	n/a
198.139	0.09	396278	keystroke	v	n/a
198.304	0.0595	396608	keystroke	e	n/a
198.4985	0.045	396997	keystroke	Key.enter	n/a
198.548	5.0975	397096	prompt	n/a	bean debate swiss fraction\n
199.2035	0.09	398407	keystroke	b	n/a
199.2635	0.12	398527	keystroke	e	n/a
199.3385	0.12	398677	keystroke	a	n/a
199.4285	0.105	398857	keystroke	n	n/a
199.5185	0.135	399037	keystroke	Key.space	n/a
199.6685	0.09	399337	keystroke	d	n/a
199.8635	0.09	399727	keystroke	e	n/a
200.0735	0.12	400147	keystroke	b	n/a
200.2985	0.075	400597	keystroke	a	n/a
200.4785	0.09	400957	keystroke	t	n/a
200.5385	0.105	401077	keystroke	e	n/a
200.6585	0.15	401317	keystroke	Key.space	n/a
200.7935	0.105	401587	keystroke	s	n/a
200.9735	0.12	401947	keystroke	w	n/a
201.1835	0.075	402367	keystroke	i	n/a
201.2885	0.06	402577	keystroke	s	n/a
201.424	0.12	402848	keystroke	s	n/a
201.529	0.135	403058	keystroke	Key.space	n/a
201.7235	0.091	403447	keystroke	f	n/a
201.9035	0.075	403807	keystroke	r	n/a
202.0085	0.15	404017	keystroke	a	n/a
202.5485	0.106	405097	keystroke	c	n/a
202.8345	0.074	405669	keystroke	t	n/a
202.9545	0.254	405909	keystroke	i	n/a
203.0295	0.164	406059	keystroke	o	n/a
203.2835	0.091	406567	keystroke	n	n/a
203.5835	0.06	407167	keystroke	Key.enter	n/a
203.6485	5.0365	407297	prompt	n/a	woods madness program eating\n
205.3835	0.105	410767	keystroke	w	n/a
205.5485	0.045	411097	keystroke	o	n/a
205.6685	0.075	411337	keystroke	o	n/a
205.7285	0.18	411457	keystroke	d	n/a
205.8335	0.135	411667	keystroke	s	n/a
205.9385	0.12	411877	keystroke	Key.space	n/a
206.0885	0.12	412177	keystroke	m	n/a
206.1635	0.135	412327	keystroke	a	n/a
206.2685	0.135	412537	keystroke	d	n/a
206.5535	0.105	413107	keystroke	n	n/a
206.6435	0.105	413287	keystroke	e	n/a
206.8535	0.06	413707	keystroke	s	n/a
206.9735	0.1355	413947	keystroke	s	n/a
207.079	0.105	414158	keystroke	Key.space	n/a
207.214	0.075	414428	keystroke	p	n/a
207.274	0.09	414548	keystroke	r	n/a
207.394	0.105	414788	keystroke	o	n/a
207.454	0.075	414908	keystroke	g	n/a
207.619	0.12	415238	keystroke	r	n/a
207.679	0.135	415358	keystroke	a	n/a
207.784	0.135	415568	keystroke	m	n/a
207.874	0.135	415748	keystroke	Key.space	n/a
208.024	0.18	416048	keystroke	e	n/a
208.114	0.12	416228	keystroke	a	n/a
208.324	0.075	416648	keystroke	t	n/a
208.384	0.105	416768	keystroke	i	n/a
208.444	0.105	416888	keystroke	n	n/a
208.534	0.06	417068	keystroke	g	n/a
208.624	0.06	417248	keystroke	Key.enter	n/a
208.6885	6.642	417377	prompt	n/a	scottish junk occasional turned\n
209.3885	0.15	418777	keystroke	s	n/a
209.5235	0.135	419047	keystroke	c	n/a
209.6435	0.12	419287	keystroke	o	n/a
209.8085	0.045	419617	keystroke	t	n/a
209.9285	0.075	419857	keystroke	t	n/a
210.0185	0.12	420037	keystroke	i	n/a
210.0785	0.15	420157	keystroke	n	n/a
210.1535	0.105	420307	keystroke	g	n/a
210.2295	0.104	420459	keystroke	Key.space	n/a
210.6185	0.06	421237	keystroke	Key.backspace	n/a
210.7685	0.09	421537	keystroke	Key.backspace	n/a
211.0085	0.0755	422017	keystroke	Key.backspace	n/a
211.474	0.105	422948	keystroke	s	n/a
211.534	0.09	423068	keystroke	h	n/a
211.6845	0.0895	423369	keystroke	Key.space	n/a
212.059	0.09	424118	keystroke	j	n/a
212.224	0.075	424448	keystroke	u	n/a
212.404	0.075	424808	keystroke	n	n/a
212.539	0.105	425078	keystroke	k	n/a
212.674	0.12	425348	keystroke	Key.space	n/a
212.929	0.135	425858	keystroke	o	n/a
213.049	0.12	426098	keystroke	c	n/a
213.289	0.105	426578	keystroke	c	n/a
213.469	0.105	426938	keystroke	a	n/a
213.6785	0.135	427357	keystroke	s	n/a
213.7545	0.18	427509	keystroke	i	n/a
213.8285	0.09	427657	keystroke	o	n/a
213.8745	0.134	427749	keystroke	n	n/a
213.9935	0.105	427987	keystroke	a	n/a
214.0545	0.104	428109	keystroke	l	n/a
214.1595	0.119	428319	keystroke	Key.space	n/a
214.3245	0.105	428649	keystroke	t	n/a
214.3985	0.106	428797	keystroke	u	n/a
214.5185	0.091	429037	keystroke	r	n/a
214.5795	0.12	429159	keystroke	n	n/a
214.6695	0.074	429339	keystroke	e	n/a
214.8635	0.09	429727	keystroke	d	n/a
215.224	0.105	430448	keystroke	Key.enter	n/a
215.3335	11.367	430667	prompt	n/a	tourism experiencing comfortable tool\n
216.0345	0.105	432069	keystroke	t	n/a
216.1245	0.15	432249	keystroke	o	n/a
216.2145	0.09	432429	keystroke	u	n/a
216.2895	0.09	432579	keystroke	r	n/a
216.4245	0.105	432849	keystroke	i	n/a
216.5895	0.0895	433179	keystroke	s	n/a
216.784	0.105	433568	keystroke	n	n/a
217.114	0.06	434228	keystroke	Key.backspace	n/a
217.369	0.0905	434738	keystroke	m	n/a
217.7285	0.12	435457	keystroke	Key.space	n/a
217.9085	0.075	435817	keystroke	e	n/a
218.1185	0.075	436237	keystroke	x	n/a
218.2085	0.12	436417	keystroke	p	n/a
218.3435	0.075	436687	keystroke	e	n/a
218.3585	0.12	436717	keystroke	r	n/a
218.4635	0.09	436927	keystroke	i	n/a
218.5835	0.105	437167	keystroke	e	n/a
218.6735	0.075	437347	keystroke	n	n/a
218.7785	0.105	437557	keystroke	c	n/a
218.8235	0.09	437647	keystroke	e	n/a
218.9285	0.09	437857	keystroke	i	n/a
218.9735	0.106	437947	keystroke	n	n/a
219.0635	0.105	438127	keystroke	g	n/a
219.1535	0.12	438307	keystroke	Key.space	n/a
219.7385	0.045	439477	keystroke	Key.backspace	n/a
219.8735	0.045	439747	keystroke	Key.backspace	n/a
220.0385	0.045	440077	keystroke	Key.backspace	n/a
220.1885	0.03	440377	keystroke	Key.backspace	n/a
220.3535	0.045	440707	keystroke	Key.backspace	n/a
220.6385	0.105	441277	keystroke	i	n/a
220.6985	0.1055	441397	keystroke	n	n/a
220.7735	0.1055	441547	keystroke	g	n/a
220.849	0.12	441698	keystroke	Key.space	n/a
221.314	0.105	442628	keystroke	c	n/a
221.404	0.105	442808	keystroke	o	n/a
221.464	0.105	442928	keystroke	m	n/a
221.599	0.09	443198	keystroke	f	n/a
221.704	0.06	443408	keystroke	o	n/a
221.7785	0.091	443557	keystroke	t	n/a
221.9445	0.104	443889	keystroke	a	n/a
222.0195	0.075	444039	keystroke	b	n/a
222.1545	0.09	444309	keystroke	l	n/a
222.1995	0.135	444399	keystroke	e	n/a
222.2735	0.15	444547	keystroke	Key.space	n/a
222.4395	0.119	444879	keystroke	t	n/a
222.5445	0.059	445089	keystroke	o	n/a
222.6795	0.075	445359	keystroke	o	n/a
223.0385	0.06	446077	keystroke	Key.backspace	n/a
223.2035	0.06	446407	keystroke	Key.backspace	n/a
223.4135	0.06	446827	keystroke	Key.backspace	n/a
223.5785	0.075	447157	keystroke	Key.backspace	n/a
223.8485	0.09	447697	keystroke	Key.backspace	n/a
224.0435	0.06	448087	keystroke	Key.backspace	n/a
224.2085	0.06	448417	keystroke	Key.backspace	n/a
224.3885	0.105	448777	keystroke	Key.backspace	n/a
224.8235	0.045	449647	keystroke	Key.backspace	n/a
225.214	0.09	450428	keystroke	r	n/a
225.364	0.12	450728	keystroke	t	n/a
225.529	0.12	451058	keystroke	a	n/a
225.604	0.09	451208	keystroke	b	n/a
225.724	0.135	451448	keystroke	l	n/a
225.769	0.1655	451538	keystroke	e	n/a
225.8895	0.18	451779	keystroke	Key.space	n/a
226.0245	0.12	452049	keystroke	t	n/a
226.1745	0.06	452349	keystroke	o	n/a
226.3095	0.075	452619	keystroke	o	n/a
226.4445	0.09	452889	keystroke	l	n/a
226.6545	0.044	453309	keystroke	Key.enter	n/a
226.7055	5.635	453411	prompt	n/a	mounted though ability considers\n
227.299	0.075	454598	keystroke	m	n/a
227.404	0.105	454808	keystroke	o	n/a
227.494	0.06	454988	keystroke	u	n/a
227.6435	0.105	455287	keystroke	n	n/a
227.7185	0.105	455437	keystroke	t	n/a
227.7935	0.06	455587	keystroke	e	n/a
227.9585	0.12	455917	keystroke	d	n/a
228.0485	0.1805	456097	keystroke	Key.space	n/a
228.184	0.0895	456368	keystroke	t	n/a
228.4535	0.1055	456907	keystroke	h	n/a
228.664	0.18	457328	keystroke	o	n/a
228.739	0.12	457478	keystroke	u	n/a
228.874	0.09	457748	keystroke	g	n/a
228.979	0.1205	457958	keystroke	h	n/a
229.1295	0.105	458259	keystroke	Key.space	n/a
229.3245	0.105	458649	keystroke	a	n/a
229.5345	0.045	459069	keystroke	b	n/a
229.6395	0.165	459279	keystroke	i	n/a
229.7145	0.09	459429	keystroke	l	n/a
229.8945	0.0895	459789	keystroke	i	n/a
230.014	0.09	460028	keystroke	t	n/a
230.194	0.075	460388	keystroke	y	n/a
230.254	0.09	460508	keystroke	Key.space	n/a
230.434	0.105	460868	keystroke	c	n/a
230.494	0.075	460988	keystroke	o	n/a
230.644	0.09	461288	keystroke	n	n/a
230.839	0.0895	461678	keystroke	i	n/a
231.0185	0.135	462037	keystroke	s	n/a
231.3185	0.0455	462637	keystroke	Key.backspace	n/a
231.424	0.075	462848	keystroke	Key.backspace	n/a
231.544	0.135	463088	keystroke	s	n/a
231.664	0.06	463328	keystroke	i	n/a
231.784	0.06	463568	keystroke	d	n/a
231.919	0.09	463838	keystroke	e	n/a
231.979	0.15	463958	keystroke	r	n/a
232.144	0.105	464288	keystroke	s	n/a
232.279	0.06	464558	keystroke	Key.enter	n/a
232.3435	4.947	464687	prompt	n/a	chubby partners indiana faces\n
232.9985	0.165	465997	keystroke	c	n/a
233.1335	0.12	466267	keystroke	h	n/a
233.2385	0.105	466477	keystroke	u	n/a
233.4795	0.044	466959	keystroke	b	n/a
233.5985	0.076	467197	keystroke	b	n/a
233.6895	0.104	467379	keystroke	y	n/a
233.7635	0.09	467527	keystroke	Key.space	n/a
233.9285	0.09	467857	keystroke	p	n/a
234.0035	0.136	468007	keystroke	a	n/a
234.0785	0.09	468157	keystroke	r	n/a
234.2585	0.075	468517	keystroke	t	n/a
234.3635	0.105	468727	keystroke	n	n/a
234.4535	0.105	468907	keystroke	e	n/a
234.4985	0.151	468997	keystroke	r	n/a
234.6785	0.165	469357	keystroke	s	n/a
234.8285	0.135	469657	keystroke	Key.space	n/a
235.159	0.135	470318	keystroke	i	n/a
235.204	0.135	470408	keystroke	n	n/a
235.354	0.1195	470708	keystroke	d	n/a
235.4885	0.09	470977	keystroke	i	n/a
235.5795	0.089	471159	keystroke	a	n/a
235.6835	0.09	471367	keystroke	n	n/a
235.7885	0.0905	471577	keystroke	a	n/a
235.969	0.105	471938	keystroke	Key.space	n/a
236.149	0.105	472298	keystroke	f	n/a
236.284	0.12	472568	keystroke	a	n/a
236.389	0.18	472778	keystroke	c	n/a
236.509	0.12	473018	keystroke	e	n/a
236.9585	0.06	473917	keystroke	s	n/a
237.2145	0.075	474429	keystroke	Key.enter	n/a
237.296	5.0345	474592	prompt	n/a	assumes manuals penalty ukraine\n
238.0095	0.09	476019	keystroke	a	n/a
238.204	0.06	476408	keystroke	s	n/a
238.324	0.12	476648	keystroke	s	n/a
238.414	0.105	476828	keystroke	u	n/a
238.624	0.09	477248	keystroke	m	n/a
238.699	0.18	477398	keystroke	e	n/a
238.789	0.105	477578	keystroke	s	n/a
238.849	0.12	477698	keystroke	Key.space	n/a
239.014	0.075	478028	keystroke	m	n/a
239.074	0.135	478148	keystroke	a	n/a
239.179	0.075	478358	keystroke	n	n/a
239.314	0.12	478628	keystroke	u	n/a
239.539	0.0905	479078	keystroke	a	n/a
239.6445	0.075	479289	keystroke	l	n/a
239.749	0.105	479498	keystroke	s	n/a
239.884	0.12	479768	keystroke	Key.space	n/a
240.184	0.105	480368	keystroke	p	n/a
240.304	0.12	480608	keystroke	e	n/a
240.409	0.12	480818	keystroke	n	n/a
240.514	0.135	481028	keystroke	a	n/a
240.664	0.09	481328	keystroke	l	n/a
240.784	0.0905	481568	keystroke	t	n/a
240.9795	0.075	481959	keystroke	y	n/a
241.0395	0.09	482079	keystroke	Key.space	n/a
241.2645	0.0895	482529	keystroke	u	n/a
241.4595	0.075	482919	keystroke	k	n/a
241.6245	0.0895	483249	keystroke	r	n/a
241.744	0.09	483488	keystroke	a	n/a
241.819	0.105	483638	keystroke	i	n/a
241.879	0.105	483758	keystroke	n	n/a
242.134	0.075	484268	keystroke	e	n/a
242.254	0.075	484508	keystroke	Key.enter	n/a
242.3335	7.6475	484667	prompt	n/a	textbooks kevin pleased deferred\n
243.034	0.105	486068	keystroke	t	n/a
243.139	0.12	486278	keystroke	e	n/a
243.379	0.06	486758	keystroke	x	n/a
243.559	0.09	487118	keystroke	t	n/a
243.679	0.075	487358	keystroke	b	n/a
243.889	0.045	487778	keystroke	o	n/a
244.024	0.135	488048	keystroke	o	n/a
244.114	0.105	488228	keystroke	k	n/a
244.159	0.165	488318	keystroke	s	n/a
244.264	0.135	488528	keystroke	Key.space	n/a
244.444	0.12	488888	keystroke	k	n/a
244.609	0.09	489218	keystroke	e	n/a
244.789	0.105	489578	keystroke	v	n/a
244.954	0.135	489908	keystroke	i	n/a
245.029	0.12	490058	keystroke	n	n/a
245.164	0.105	490328	keystroke	Key.space	n/a
245.359	0.03	490718	keystroke	b	n/a
245.959	0.0905	491918	keystroke	Key.backspace	n/a
246.829	0.105	493658	keystroke	p	n/a
246.874	0.12	493748	keystroke	l	n/a
246.949	0.1205	493898	keystroke	e	n/a
247.024	0.195	494048	keystroke	a	n/a
247.159	0.15	494318	keystroke	s	n/a
247.459	0.09	494918	keystroke	e	n/a
247.669	0.1045	495338	keystroke	d	n/a
247.7435	0.135	495487	keystroke	Key.space	n/a
248.0135	0.121	496027	keystroke	d	n/a
248.2685	0.105	496537	keystroke	e	n/a
248.4945	0.089	496989	keystroke	f	n/a
248.7635	0.136	497527	keystroke	e	n/a
249.0185	0.045	498037	keystroke	r	n/a
249.1385	0.135	498277	keystroke	r	n/a
249.2445	0.104	498489	keystroke	e	n/a
249.4545	0.105	498909	keystroke	d	n/a
249.8735	0.105	499747	keystroke	Key.enter	n/a
249.9845	5.126	499969	prompt	n/a	exam trails replied faced\n
251.5535	0.076	503107	keystroke	e	n/a
251.7645	0.06	503529	keystroke	x	n/a
251.9135	0.105	503827	keystroke	a	n/a
252.0045	0.1045	504009	keystroke	m	n/a
252.154	0.105	504308	keystroke	s	n/a
252.274	0.1355	504548	keystroke	Key.space	n/a
252.6495	0.09	505299	keystroke	t	n/a
252.8295	0.105	505659	keystroke	r	n/a
252.9045	0.135	505809	keystroke	a	n/a
252.9945	0.1795	505989	keystroke	i	n/a
253.0545	0.1645	506109	keystroke	l	n/a
253.144	0.165	506288	keystroke	s	n/a
253.234	0.135	506468	keystroke	Key.space	n/a
253.444	0.12	506888	keystroke	r	n/a
253.504	0.12	507008	keystroke	e	n/a
253.639	0.12	507278	keystroke	p	n/a
253.699	0.105	507398	keystroke	l	n/a
253.909	0.09	507818	keystroke	i	n/a
253.984	0.09	507968	keystroke	e	n/a
254.179	0.12	508358	keystroke	d	n/a
254.269	0.12	508538	keystroke	Key.space	n/a
254.404	0.075	508808	keystroke	f	n/a
254.494	0.135	508988	keystroke	a	n/a
254.614	0.135	509228	keystroke	c	n/a
254.704	0.09	509408	keystroke	e	n/a
254.899	0.105	509798	keystroke	d	n/a
255.034	0.075	510068	keystroke	Key.enter	n/a
255.113	4.708	510226	prompt	n/a	stays timber sonic automotive\n
255.7545	0.105	511509	keystroke	s	n/a
255.904	0.105	511808	keystroke	t	n/a
256.069	0.135	512138	keystroke	a	n/a
256.279	0.09	512558	keystroke	y	n/a
256.459	0.15	512918	keystroke	s	n/a
256.549	0.15	513098	keystroke	Key.space	n/a
256.669	0.09	513338	keystroke	t	n/a
256.729	0.12	513458	keystroke	i	n/a
256.804	0.09	513608	keystroke	m	n/a
256.999	0.105	513998	keystroke	b	n/a
257.089	0.12	514178	keystroke	e	n/a
257.134	0.1055	514268	keystroke	r	n/a
257.194	0.1205	514388	keystroke	Key.space	n/a
257.4345	0.135	514869	keystroke	s	n/a
257.5245	0.06	515049	keystroke	o	n/a
257.6595	0.12	515319	keystroke	n	n/a
257.7795	0.09	515559	keystroke	i	n/a
257.8845	0.135	515769	keystroke	c	n/a
257.9885	0.136	515977	keystroke	Key.space	n/a
258.3795	0.135	516759	keystroke	a	n/a
258.5295	0.1045	517059	keystroke	u	n/a
258.664	0.105	517328	keystroke	t	n/a
258.784	0.09	517568	keystroke	o	n/a
259.039	0.0755	518078	keystroke	m	n/a
259.1745	0.075	518349	keystroke	o	n/a
259.2635	0.091	518527	keystroke	t	n/a
259.3845	0.105	518769	keystroke	i	n/a
259.4745	0.12	518949	keystroke	v	n/a
259.5795	0.105	519159	keystroke	e	n/a
259.7585	0.061	519517	keystroke	Key.enter	n/a
259.8245	4.4365	519649	prompt	n/a	unified streams female repeat\n
260.449	0.105	520898	keystroke	u	n/a
260.509	0.075	521018	keystroke	n	n/a
260.674	0.075	521348	keystroke	i	n/a
260.749	0.12	521498	keystroke	f	n/a
260.87	0.119	521740	keystroke	i	n/a
260.944	0.075	521888	keystroke	e	n/a
261.1245	0.09	522249	keystroke	d	n/a
261.1845	0.1345	522369	keystroke	Key.space	n/a
261.334	0.105	522668	keystroke	s	n/a
261.484	0.1355	522968	keystroke	t	n/a
261.5595	0.09	523119	keystroke	r	n/a
261.7245	0.165	523449	keystroke	e	n/a
261.7995	0.15	523599	keystroke	a	n/a
261.9345	0.135	523869	keystroke	m	n/a
262.0395	0.1645	524079	keystroke	s	n/a
262.144	0.135	524288	keystroke	Key.space	n/a
262.294	0.135	524588	keystroke	f	n/a
262.399	0.09	524798	keystroke	e	n/a
262.5195	0.12	525039	keystroke	m	n/a
262.6245	0.09	525249	keystroke	a	n/a
262.7445	0.105	525489	keystroke	l	n/a
262.864	0.12	525728	keystroke	e	n/a
263.044	0.135	526088	keystroke	Key.space	n/a
263.299	0.105	526598	keystroke	r	n/a
263.359	0.105	526718	keystroke	e	n/a
263.479	0.12	526958	keystroke	p	n/a
263.719	0.15	527438	keystroke	e	n/a
263.794	0.12	527588	keystroke	a	n/a
264.019	0.06	528038	keystroke	t	n/a
264.199	0.06	528398	keystroke	Key.enter	n/a
264.2635	5.127	528527	prompt	n/a	robin sherman produced oven\n
264.859	0.105	529718	keystroke	f	n/a
265.294	0.075	530588	keystroke	Key.backspace	n/a
265.4735	0.045	530947	keystroke	r	n/a
265.5785	0.09	531157	keystroke	o	n/a
265.8185	0.0755	531637	keystroke	b	n/a
266.029	0.135	532058	keystroke	i	n/a
266.104	0.135	532208	keystroke	n	n/a
266.314	0.12	532628	keystroke	Key.space	n/a
266.435	0.164	532870	keystroke	s	n/a
266.524	0.165	533048	keystroke	h	n/a
266.704	0.1495	533408	keystroke	e	n/a
266.7785	0.135	533557	keystroke	r	n/a
267.139	0.09	534278	keystroke	m	n/a
267.259	0.1205	534518	keystroke	a	n/a
267.3495	0.09	534699	keystroke	n	n/a
267.4545	0.105	534909	keystroke	Key.space	n/a
267.6195	0.06	535239	keystroke	p	n/a
267.6945	0.075	535389	keystroke	r	n/a
267.7705	0.074	535541	keystroke	o	n/a
267.8745	0.1195	535749	keystroke	d	n/a
267.979	0.105	535958	keystroke	u	n/a
268.099	0.15	536198	keystroke	c	n/a
268.174	0.12	536348	keystroke	e	n/a
268.399	0.105	536798	keystroke	d	n/a
268.474	0.15	536948	keystroke	Key.space	n/a
268.639	0.075	537278	keystroke	o	n/a
268.715	0.089	537430	keystroke	v	n/a
268.834	0.09	537668	keystroke	e	n/a
268.909	0.09	537818	keystroke	n	n/a
269.329	0.06	538658	keystroke	Key.enter	n/a
269.3935	7.7975	538787	prompt	n/a	soil orange jerusalem coordinates\n
269.959	0.135	539918	keystroke	s	n/a
270.229	0.12	540458	keystroke	o	n/a
270.739	0.105	541478	keystroke	i	n/a
270.979	0.075	541958	keystroke	l	n/a
271.2195	0.105	542439	keystroke	Key.space	n/a
271.3395	0.0895	542679	keystroke	o	n/a
271.414	0.09	542828	keystroke	r	n/a
271.534	0.09	543068	keystroke	a	n/a
271.625	0.149	543250	keystroke	n	n/a
271.729	0.09	543458	keystroke	g	n/a
271.879	0.105	543758	keystroke	e	n/a
271.999	0.105	543998	keystroke	Key.space	n/a
272.209	0.135	544418	keystroke	j	n/a
272.314	0.12	544628	keystroke	e	n/a
272.389	0.12	544778	keystroke	r	n/a
272.629	0.09	545258	keystroke	s	n/a
272.974	0.045	545948	keystroke	Key.backspace	n/a
273.2445	0.105	546489	keystroke	u	n/a
273.3945	0.105	546789	keystroke	s	n/a
273.9945	0.135	547989	keystroke	a	n/a
274.1595	0.09	548319	keystroke	l	n/a
274.2795	0.075	548559	keystroke	e	n/a
274.3545	0.135	548709	keystroke	m	n/a
274.5045	0.135	549009	keystroke	Key.space	n/a
274.8495	0.105	549699	keystroke	c	n/a
274.9995	0.06	549999	keystroke	o	n/a
275.1195	0.105	550239	keystroke	o	n/a
275.2845	0.105	550569	keystroke	r	n/a
276.0195	0.09	552039	keystroke	d	n/a
276.4245	0.12	552849	keystroke	i	n/a
276.4845	0.135	552969	keystroke	n	n/a
276.5895	0.09	553179	keystroke	a	n/a
276.7545	0.135	553509	keystroke	t	n/a
276.8145	0.15	553629	keystroke	e	n/a
276.9345	0.09	553869	keystroke	s	n/a
277.0995	0.09	554199	keystroke	Key.enter	n/a
277.194	6.957	554388	prompt	n/a	mayor nationally brunswick pour\n
277.9395	0.12	555879	keystroke	m	n/a
278.0295	0.105	556059	keystroke	a	n/a
278.2245	0.075	556449	keystroke	y	n/a
278.3595	0.105	556719	keystroke	o	n/a
278.4195	0.135	556839	keystroke	r	n/a
278.5395	0.075	557079	keystroke	Key.space	n/a
278.7795	0.12	557559	keystroke	n	n/a
278.8545	0.09	557709	keystroke	a	n/a
279.0045	0.1195	558009	keystroke	t	n/a
279.0645	0.1795	558129	keystroke	i	n/a
279.139	0.075	558278	keystroke	o	n/a
279.184	0.12	558368	keystroke	n	n/a
279.289	0.105	558578	keystroke	a	n/a
279.395	0.089	558790	keystroke	l	n/a
279.604	0.09	559208	keystroke	i	n/a
279.679	0.105	559358	keystroke	t	n/a
279.859	0.09	559718	keystroke	y	n/a
279.919	0.09	559838	keystroke	Key.space	n/a
280.069	0.12	560138	keystroke	b	n/a
280.174	0.12	560348	keystroke	r	n/a
280.324	0.1205	560648	keystroke	u	n/a
280.8045	0.135	561609	keystroke	n	n/a
281.0745	0.12	562149	keystroke	s	n/a
281.3295	0.06	562659	keystroke	w	n/a
281.4495	0.075	562899	keystroke	i	n/a
281.5695	0.105	563139	keystroke	c	n/a
281.9145	0.09	563829	keystroke	k	n/a
282.1985	0.12	564397	keystroke	Key.space	n/a
282.3635	0.075	564727	keystroke	p	n/a
282.6935	0.12	565387	keystroke	o	n/a
282.9795	0.119	565959	keystroke	u	n/a
283.1295	0.09	566259	keystroke	r	n/a
284.059	0.09	568118	keystroke	Key.enter	n/a
284.1555	5.665	568311	prompt	n/a	governor approach simulation test\n
285.2145	0.06	570429	keystroke	g	n/a
285.2895	0.1345	570579	keystroke	o	n/a
285.379	0.076	570758	keystroke	v	n/a
285.515	0.104	571030	keystroke	e	n/a
285.574	0.12	571148	keystroke	r	n/a
285.724	0.075	571448	keystroke	n	n/a
285.889	0.06	571778	keystroke	o	n/a
285.964	0.1055	571928	keystroke	r	n/a
286.039	0.1055	572078	keystroke	Key.space	n/a
286.1895	0.105	572379	keystroke	a	n/a
286.3095	0.045	572619	keystroke	p	n/a
286.4145	0.0895	572829	keystroke	p	n/a
286.534	0.075	573068	keystroke	r	n/a
286.624	0.105	573248	keystroke	o	n/a
286.759	0.12	573518	keystroke	a	n/a
286.939	0.12	573878	keystroke	c	n/a
287.044	0.105	574088	keystroke	h	n/a
287.179	0.12	574358	keystroke	Key.space	n/a
287.359	0.1355	574718	keystroke	s	n/a
287.4495	0.1945	574899	keystroke	i	n/a
287.794	0.105	575588	keystroke	m	n/a
288.034	0.075	576068	keystroke	u	n/a
288.214	0.09	576428	keystroke	l	n/a
288.319	0.15	576638	keystroke	a	n/a
288.424	0.12	576848	keystroke	t	n/a
288.514	0.2105	577028	keystroke	i	n/a
288.5895	0.09	577179	keystroke	o	n/a
288.6495	0.15	577299	keystroke	n	n/a
288.7545	0.105	577509	keystroke	Key.space	n/a
288.9195	0.15	577839	keystroke	t	n/a
289.0095	0.255	578019	keystroke	e	n/a
289.0845	0.195	578169	keystroke	s	n/a
289.2495	0.09	578499	keystroke	t	n/a
289.7595	0.06	579519	keystroke	Key.enter	n/a
289.824	4.782	579648	prompt	n/a	sugar gordon camel causing\n
290.4795	0.135	580959	keystroke	s	n/a
290.5695	0.135	581139	keystroke	u	n/a
290.6895	0.075	581379	keystroke	g	n/a
290.8245	0.135	581649	keystroke	a	n/a
290.9295	0.09	581859	keystroke	r	n/a
290.9895	0.1045	581979	keystroke	Key.space	n/a
291.199	0.1355	582398	keystroke	g	n/a
291.3795	0.075	582759	keystroke	o	n/a
291.4995	0.075	582999	keystroke	r	n/a
291.6795	0.09	583359	keystroke	d	n/a
292.0245	0.06	584049	keystroke	o	n/a
292.1745	0.1345	584349	keystroke	n	n/a
292.294	0.09	584588	keystroke	Key.space	n/a
292.504	0.12	585008	keystroke	c	n/a
292.579	0.1055	585158	keystroke	a	n/a
292.6695	0.12	585339	keystroke	m	n/a
292.8045	0.06	585609	keystroke	e	n/a
292.8645	0.075	585729	keystroke	l	n/a
292.9995	0.1045	585999	keystroke	Key.space	n/a
293.689	0.09	587378	keystroke	c	n/a
293.749	0.105	587498	keystroke	a	n/a
293.869	0.09	587738	keystroke	u	n/a
293.974	0.15	587948	keystroke	s	n/a
294.139	0.09	588278	keystroke	i	n/a
294.169	0.135	588338	keystroke	n	n/a
294.274	0.075	588548	keystroke	g	n/a
294.529	0.075	589058	keystroke	Key.enter	n/a
294.609	5.487	589218	prompt	n/a	lucas featured prints religious\n
295.204	0.075	590408	keystroke	l	n/a
295.384	0.1055	590768	keystroke	u	n/a
295.4745	0.12	590949	keystroke	c	n/a
295.5795	0.15	591159	keystroke	a	n/a
295.6995	0.165	591399	keystroke	s	n/a
295.8345	0.135	591669	keystroke	Key.space	n/a
296.0745	0.09	592149	keystroke	f	n/a
296.2095	0.135	592419	keystroke	e	n/a
296.2695	0.105	592539	keystroke	a	n/a
296.4195	0.105	592839	keystroke	t	n/a
296.5395	0.12	593079	keystroke	u	n/a
296.5995	0.135	593199	keystroke	r	n/a
296.6595	0.12	593319	keystroke	e	n/a
296.8845	0.12	593769	keystroke	d	n/a
296.9595	0.1345	593919	keystroke	Key.space	n/a
297.184	0.09	594368	keystroke	p	n/a
297.289	0.105	594578	keystroke	r	n/a
297.424	0.15	594848	keystroke	i	n/a
297.514	0.15	595028	keystroke	n	n/a
297.604	0.135	595208	keystroke	t	n/a
297.709	0.15	595418	keystroke	s	n/a
297.814	0.165	595628	keystroke	Key.space	n/a
298.1595	0.15	596319	keystroke	r	n/a
298.2495	0.105	596499	keystroke	e	n/a
298.3695	0.135	596739	keystroke	l	n/a
298.6245	0.105	597249	keystroke	i	n/a
299.344	0.09	598688	keystroke	g	n/a
299.464	0.075	598928	keystroke	i	n/a
299.629	0.18	599258	keystroke	o	n/a
299.719	0.105	599438	keystroke	u	n/a
299.794	0.12	599588	keystroke	s	n/a
299.989	0.105	599978	keystroke	Key.enter	n/a
300.1	6.9255	600200	prompt	n/a	pressed losing newspaper minerals\n
300.739	0.075	601478	keystroke	p	n/a
300.829	0.165	601658	keystroke	r	n/a
300.9195	0.1195	601839	keystroke	e	n/a
301.1595	0.075	602319	keystroke	s	n/a
301.2795	0.1955	602559	keystroke	s	n/a
301.384	0.105	602768	keystroke	e	n/a
301.594	0.12	603188	keystroke	d	n/a
301.669	0.135	603338	keystroke	Key.space	n/a
301.789	0.075	603578	keystroke	l	n/a
301.939	0.09	603878	keystroke	o	n/a
301.984	0.12	603968	keystroke	s	n/a
302.134	0.135	604268	keystroke	i	n/a
302.179	0.15	604358	keystroke	n	n/a
302.254	0.105	604508	keystroke	g	n/a
302.314	0.12	604628	keystroke	Key.space	n/a
302.509	0.135	605018	keystroke	n	n/a
302.629	0.09	605258	keystroke	e	n/a
302.854	0.135	605708	keystroke	w	n/a
303.1245	0.12	606249	keystroke	s	n/a
303.4095	0.075	606819	keystroke	p	n/a
303.4995	0.075	606999	keystroke	a	n/a
303.6045	0.06	607209	keystroke	o	n/a
303.6045	0.075	607209	keystroke	p	n/a
303.7845	0.135	607569	keystroke	e	n/a
303.8295	0.18	607659	keystroke	r	n/a
304.2495	0.045	608499	keystroke	Key.backspace	n/a
304.3995	0.03	608799	keystroke	Key.backspace	n/a
304.5195	0.075	609039	keystroke	Key.backspace	n/a
304.6545	0.105	609309	keystroke	Key.backspace	n/a
305.4945	0.12	610989	keystroke	p	n/a
305.7195	0.135	611439	keystroke	e	n/a
305.7645	0.135	611529	keystroke	r	n/a
305.8705	0.104	611741	keystroke	Key.space	n/a
306.1695	0.075	612339	keystroke	m	n/a
306.2895	0.12	612579	keystroke	i	n/a
306.3645	0.15	612729	keystroke	n	n/a
306.4695	0.12	612939	keystroke	e	n/a
306.5295	0.105	613059	keystroke	r	n/a
306.6495	0.09	613299	keystroke	a	n/a
306.7545	0.09	613509	keystroke	l	n/a
306.8595	0.105	613719	keystroke	s	n/a
306.9495	0.075	613899	keystroke	Key.enter	n/a
307.029	5.517	614058	prompt	n/a	irrigation grants printable peer\n
307.849	0.12	615698	keystroke	i	n/a
307.984	0.0455	615968	keystroke	r	n/a
308.104	0.09	616208	keystroke	r	n/a
308.209	0.135	616418	keystroke	i	n/a
308.299	0.09	616598	keystroke	g	n/a
308.434	0.105	616868	keystroke	a	n/a
308.584	0.105	617168	keystroke	t	n/a
308.629	0.225	617258	keystroke	i	n/a
308.704	0.135	617408	keystroke	o	n/a
308.764	0.15	617528	keystroke	n	n/a
308.869	0.105	617738	keystroke	Key.space	n/a
309.064	0.075	618128	keystroke	g	n/a
309.214	0.12	618428	keystroke	r	n/a
309.304	0.105	618608	keystroke	a	n/a
309.424	0.18	618848	keystroke	n	n/a
309.484	0.135	618968	keystroke	t	n/a
309.544	0.15	619088	keystroke	s	n/a
309.634	0.135	619268	keystroke	Key.space	n/a
309.814	0.09	619628	keystroke	p	n/a
309.889	0.135	619778	keystroke	r	n/a
310.069	0.135	620138	keystroke	i	n/a
310.159	0.135	620318	keystroke	n	n/a
311.2835	0.09	622567	keystroke	t	n/a
311.4785	0.1055	622957	keystroke	a	n/a
311.5695	0.075	623139	keystroke	b	n/a
311.7045	0.0745	623409	keystroke	l	n/a
311.78	0.1195	623560	keystroke	e	n/a
311.854	0.135	623708	keystroke	Key.space	n/a
312.019	0.06	624038	keystroke	p	n/a
312.094	0.0755	624188	keystroke	e	n/a
312.244	0.135	624488	keystroke	e	n/a
312.334	0.12	624668	keystroke	r	n/a
312.469	0.0755	624938	keystroke	Key.enter	n/a
312.551	4.615	625102	prompt	n/a	ship helena seeks handles\n
313.324	0.12	626648	keystroke	s	n/a
313.414	0.12	626828	keystroke	h	n/a
313.505	0.104	627010	keystroke	i	n/a
313.729	0.09	627458	keystroke	p	n/a
313.864	0.12	627728	keystroke	Key.space	n/a
314.014	0.105	628028	keystroke	h	n/a
314.104	0.075	628208	keystroke	e	n/a
314.194	0.09	628388	keystroke	l	n/a
314.299	0.105	628598	keystroke	e	n/a
314.434	0.1205	628868	keystroke	n	n/a
314.6445	0.09	629289	keystroke	a	n/a
314.9295	0.12	629859	keystroke	Key.space	n/a
315.1245	0.0905	630249	keystroke	s	n/a
315.304	0.075	630608	keystroke	e	n/a
315.454	0.09	630908	keystroke	e	n/a
315.619	0.12	631238	keystroke	k	n/a
315.724	0.1505	631448	keystroke	s	n/a
315.8895	0.12	631779	keystroke	Key.space	n/a
316.2795	0.09	632559	keystroke	h	n/a
316.3545	0.12	632709	keystroke	a	n/a
316.4595	0.1195	632919	keystroke	n	n/a
316.564	0.12	633128	keystroke	d	n/a
316.699	0.105	633398	keystroke	l	n/a
316.789	0.15	633578	keystroke	e	n/a
316.879	0.12	633758	keystroke	s	n/a
317.0895	0.075	634179	keystroke	Key.enter	n/a
317.169	5.037	634338	prompt	n/a	especially cultures attacked shine\n
317.794	0.105	635588	keystroke	e	n/a
318.004	0.105	636008	keystroke	s	n/a
318.124	0.1055	636248	keystroke	p	n/a
318.1995	0.105	636399	keystroke	e	n/a
318.3495	0.12	636699	keystroke	c	n/a
318.5145	0.0895	637029	keystroke	i	n/a
318.634	0.105	637268	keystroke	a	n/a
318.754	0.045	637508	keystroke	l	n/a
318.889	0.135	637778	keystroke	l	n/a
318.994	0.09	637988	keystroke	y	n/a
319.204	0.135	638408	keystroke	Key.space	n/a
319.519	0.105	639038	keystroke	c	n/a
319.609	0.075	639218	keystroke	u	n/a
319.774	0.06	639548	keystroke	l	n/a
319.835	0.089	639670	keystroke	t	n/a
319.954	0.105	639908	keystroke	u	n/a
319.999	0.135	639998	keystroke	r	n/a
320.074	0.12	640148	keystroke	e	n/a
320.149	0.165	640298	keystroke	s	n/a
320.224	0.18	640448	keystroke	Key.space	n/a
320.419	0.135	640838	keystroke	a	n/a
320.674	0.075	641348	keystroke	t	n/a
320.809	0.105	641618	keystroke	t	n/a
320.959	0.165	641918	keystroke	a	n/a
321.079	0.12	642158	keystroke	c	n/a
321.214	0.12	642428	keystroke	k	n/a
321.2895	0.0745	642579	keystroke	e	n/a
321.469	0.105	642938	keystroke	d	n/a
321.544	0.12	643088	keystroke	Key.space	n/a
321.679	0.15	643358	keystroke	s	n/a
321.754	0.09	643508	keystroke	h	n/a
321.814	0.135	643628	keystroke	i	n/a
321.919	0.12	643838	keystroke	n	n/a
321.964	0.105	643928	keystroke	e	n/a
322.144	0.06	644288	keystroke	Key.enter	n/a
322.2085	5.5475	644417	prompt	n/a	repair memory horizontal stunning\n
322.894	0.15	645788	keystroke	r	n/a
322.985	0.0895	645970	keystroke	e	n/a
323.1495	0.105	646299	keystroke	p	n/a
323.2995	0.165	646599	keystroke	a	n/a
323.4495	0.09	646899	keystroke	i	n/a
323.5545	0.12	647109	keystroke	r	n/a
323.6295	0.105	647259	keystroke	Key.space	n/a
323.7945	0.09	647589	keystroke	m	n/a
323.8695	0.105	647739	keystroke	e	n/a
323.9595	0.075	647919	keystroke	m	n/a
324.1245	0.06	648249	keystroke	o	n/a
324.1995	0.105	648399	keystroke	r	n/a
324.4095	0.075	648819	keystroke	y	n/a
324.4545	0.105	648909	keystroke	Key.space	n/a
324.6345	0.105	649269	keystroke	h	n/a
324.9495	0.075	649899	keystroke	o	n/a
325.189	0.105	650378	keystroke	r	n/a
325.369	0.135	650738	keystroke	i	n/a
325.744	0.165	651488	keystroke	z	n/a
325.924	0.045	651848	keystroke	o	n/a
326.044	0.135	652088	keystroke	n	n/a
326.149	0.09	652298	keystroke	t	n/a
326.299	0.09	652598	keystroke	a	n/a
326.374	0.09	652748	keystroke	l	n/a
326.479	0.135	652958	keystroke	Key.space	n/a
326.629	0.1505	653258	keystroke	s	n/a
326.719	0.1055	653438	keystroke	t	n/a
326.7645	0.15	653529	keystroke	u	n/a
327.0195	0.045	654039	keystroke	n	n/a
327.1245	0.0895	654249	keystroke	n	n/a
327.289	0.105	654578	keystroke	i	n/a
327.364	0.12	654728	keystroke	n	n/a
327.424	0.105	654848	keystroke	g	n/a
327.649	0.105	655298	keystroke	Key.enter	n/a
327.759	3.777	655518	prompt	n/a	glance circle doll connect\n
328.5045	0.105	657009	keystroke	g	n/a
328.5795	0.09	657159	keystroke	l	n/a
328.6845	0.105	657369	keystroke	a	n/a
328.7595	0.135	657519	keystroke	n	n/a
328.8195	0.165	657639	keystroke	c	n/a
328.9095	0.12	657819	keystroke	e	n/a
328.9995	0.105	657999	keystroke	Key.space	n/a
329.1495	0.105	658299	keystroke	c	n/a
329.2395	0.12	658479	keystroke	i	n/a
329.3745	0.06	658749	keystroke	r	n/a
329.539	0.075	659078	keystroke	c	n/a
329.644	0.12	659288	keystroke	l	n/a
329.734	0.105	659468	keystroke	e	n/a
329.809	0.09	659618	keystroke	Key.space	n/a
329.944	0.105	659888	keystroke	d	n/a
330.034	0.075	660068	keystroke	o	n/a
330.229	0.045	660458	keystroke	l	n/a
330.349	0.12	660698	keystroke	l	n/a
330.499	0.075	660998	keystroke	Key.space	n/a
330.619	0.12	661238	keystroke	c	n/a
330.679	0.075	661358	keystroke	o	n/a
330.814	0.075	661628	keystroke	n	n/a
330.934	0.12	661868	keystroke	n	n/a
330.994	0.18	661988	keystroke	e	n/a
331.069	0.12	662138	keystroke	c	n/a
331.309	0.076	662618	keystroke	t	n/a
331.445	0.09	662890	keystroke	Key.enter	n/a
331.539	4.782	663078	prompt	n/a	yukon ones allied thermal\n
332.584	0.12	665168	keystroke	y	n/a
332.854	0.075	665708	keystroke	u	n/a
333.034	0.06	666068	keystroke	k	n/a
333.199	0.045	666398	keystroke	o	n/a
333.334	0.09	666668	keystroke	n	n/a
333.394	0.135	666788	keystroke	Key.space	n/a
333.604	0.075	667208	keystroke	o	n/a
333.739	0.12	667478	keystroke	n	n/a
333.844	0.195	667688	keystroke	e	n/a
333.919	0.195	667838	keystroke	s	n/a
334.099	0.165	668198	keystroke	Key.space	n/a
334.669	0.12	669338	keystroke	a	n/a
334.774	0.06	669548	keystroke	l	n/a
334.894	0.0755	669788	keystroke	l	n/a
335.0595	0.09	670119	keystroke	i	n/a
335.1195	0.075	670239	keystroke	e	n/a
335.2845	0.12	670569	keystroke	d	n/a
335.3745	0.18	670749	keystroke	Key.space	n/a
335.4645	0.105	670929	keystroke	t	n/a
335.5395	0.105	671079	keystroke	h	n/a
335.6145	0.105	671229	keystroke	e	n/a
335.6745	0.105	671349	keystroke	r	n/a
335.7645	0.105	671529	keystroke	m	n/a
335.8545	0.12	671709	keystroke	a	n/a
335.9895	0.075	671979	keystroke	l	n/a
336.289	0.03	672578	keystroke	Key.enter	n/a
336.3255	4.8855	672651	prompt	n/a	fully individuals tool structured\n
337.0095	0.1195	674019	keystroke	f	n/a
337.084	0.09	674168	keystroke	u	n/a
337.294	0.045	674588	keystroke	l	n/a
337.399	0.12	674798	keystroke	l	n/a
337.459	0.105	674918	keystroke	y	n/a
337.534	0.105	675068	keystroke	Key.space	n/a
337.6845	0.12	675369	keystroke	i	n/a
337.7595	0.1045	675519	keystroke	n	n/a
337.894	0.12	675788	keystroke	d	n/a
338.029	0.105	676058	keystroke	i	n/a
338.149	0.09	676298	keystroke	v	n/a
338.254	0.105	676508	keystroke	i	n/a
338.419	0.12	676838	keystroke	d	n/a
338.554	0.0905	677108	keystroke	u	n/a
338.6745	0.075	677349	keystroke	a	n/a
338.7645	0.09	677529	keystroke	l	n/a
338.8995	0.12	677799	keystroke	s	n/a
338.9895	0.135	677979	keystroke	Key.space	n/a
339.1995	0.09	678399	keystroke	t	n/a
339.2745	0.0595	678549	keystroke	o	n/a
339.394	0.105	678788	keystroke	o	n/a
339.559	0.12	679118	keystroke	l	n/a
339.664	0.15	679328	keystroke	Key.space	n/a
339.754	0.15	679508	keystroke	s	n/a
339.964	0.105	679928	keystroke	t	n/a
340.009	0.12	680018	keystroke	r	n/a
340.159	0.105	680318	keystroke	u	n/a
340.249	0.09	680498	keystroke	c	n/a
340.4295	0.09	680859	keystroke	t	n/a
340.5495	0.135	681099	keystroke	u	n/a
340.6545	0.135	681309	keystroke	r	n/a
340.7445	0.105	681489	keystroke	e	n/a
340.9545	0.09	681909	keystroke	d	n/a
341.1045	0.105	682209	keystroke	Key.enter	n/a
341.214	4.857	682428	prompt	n/a	kick soma thomas salvador\n
341.8995	0.075	683799	keystroke	k	n/a
342.0945	0.075	684189	keystroke	i	n/a
342.1545	0.105	684309	keystroke	c	n/a
342.2745	0.0905	684549	keystroke	k	n/a
342.4095	0.09	684819	keystroke	Key.space	n/a
342.4845	0.1355	684969	keystroke	s	n/a
342.5895	0.1205	685179	keystroke	o	n/a
342.65	0.1345	685300	keystroke	m	n/a
342.8	0.15	685600	keystroke	a	n/a
343.085	0.089	686170	keystroke	Key.space	n/a
343.28	0.105	686560	keystroke	t	n/a
343.325	0.09	686650	keystroke	h	n/a
343.445	0.134	686890	keystroke	o	n/a
343.534	0.091	687068	keystroke	m	n/a
343.595	0.15	687190	keystroke	a	n/a
343.685	0.12	687370	keystroke	s	n/a
343.775	0.135	687550	keystroke	Key.space	n/a
343.925	0.15	687850	keystroke	s	n/a
344.8245	0.12	689649	keystroke	a	n/a
344.9145	0.12	689829	keystroke	l	n/a
345.184	0.091	690368	keystroke	v	n/a
345.35	0.12	690700	keystroke	a	n/a
345.545	0.09	691090	keystroke	d	n/a
345.68	0.09	691360	keystroke	o	n/a
345.785	0.074	691570	keystroke	r	n/a
345.979	0.091	691958	keystroke	Key.enter	n/a
346.074	5.847	692148	prompt	n/a	automobiles shine paste recommended\n
346.805	0.134	693610	keystroke	a	n/a
347	0.045	694000	keystroke	u	n/a
347.06	0.0745	694120	keystroke	t	n/a
347.1495	0.0595	694299	keystroke	o	n/a
347.345	0.059	694690	keystroke	m	n/a
347.494	0.061	694988	keystroke	o	n/a
347.644	0.06	695288	keystroke	b	n/a
347.795	0.179	695590	keystroke	i	n/a
347.9	0.105	695800	keystroke	l	n/a
347.975	0.194	695950	keystroke	e	n/a
348.109	0.12	696218	keystroke	s	n/a
348.154	0.12	696308	keystroke	Key.space	n/a
348.739	0.135	697478	keystroke	s	n/a
348.784	0.105	697568	keystroke	h	n/a
348.86	0.134	697720	keystroke	i	n/a
348.979	0.1355	697958	keystroke	n	n/a
349.025	0.1345	698050	keystroke	e	n/a
349.0995	0.165	698199	keystroke	Key.space	n/a
349.2945	0.09	698589	keystroke	p	n/a
349.3545	0.195	698709	keystroke	a	n/a
349.4595	0.105	698919	keystroke	s	n/a
349.6545	0.15	699309	keystroke	t	n/a
349.7595	0.121	699519	keystroke	e	n/a
349.8645	0.135	699729	keystroke	Key.space	n/a
350.2245	0.105	700449	keystroke	r	n/a
350.2995	0.09	700599	keystroke	e	n/a
350.4645	0.09	700929	keystroke	c	n/a
350.5695	0.06	701139	keystroke	o	n/a
350.7345	0.045	701469	keystroke	m	n/a
350.8395	0.135	701679	keystroke	m	n/a
350.9895	0.0895	701979	keystroke	e	n/a
351.094	0.12	702188	keystroke	n	n/a
351.259	0.09	702518	keystroke	d	n/a
351.439	0.06	702878	keystroke	e	n/a
351.589	0.105	703178	keystroke	d	n/a
351.814	0.105	703628	keystroke	Key.enter	n/a
351.9255	6.4155	703851	prompt	n/a	cialis conceptual relay employees\n
352.5495	0.12	705099	keystroke	c	n/a
352.6995	0.105	705399	keystroke	i	n/a
352.9245	0.06	705849	keystroke	l	n/a
353.0145	0.1195	706029	keystroke	a	n/a
353.179	0.135	706358	keystroke	i	n/a
353.764	0.105	707528	keystroke	s	n/a
354.004	0.09	708008	keystroke	Key.space	n/a
354.184	0.12	708368	keystroke	c	n/a
354.259	0.09	708518	keystroke	o	n/a
354.409	0.121	708818	keystroke	n	n/a
354.65	0.12	709300	keystroke	c	n/a
354.83	0.09	709660	keystroke	e	n/a
354.935	0.0745	709870	keystroke	p	n/a
355.0545	0.075	710109	keystroke	t	n/a
355.1445	0.075	710289	keystroke	u	n/a
355.2645	0.075	710529	keystroke	a	n/a
355.3545	0.075	710709	keystroke	l	n/a
355.4445	0.1195	710889	keystroke	Key.space	n/a
355.6545	0.1495	711309	keystroke	r	n/a
355.729	0.12	711458	keystroke	e	n/a
355.8805	0.1485	711761	keystroke	l	n/a
355.969	0.1355	711938	keystroke	a	n/a
356.1195	0.09	712239	keystroke	y	n/a
356.1945	0.105	712389	keystroke	Key.space	n/a
356.4795	0.12	712959	keystroke	e	n/a
356.6005	0.104	713201	keystroke	m	n/a
356.8095	0.135	713619	keystroke	p	n/a
356.8845	0.135	713769	keystroke	l	n/a
357.3495	0.1505	714699	keystroke	o	n/a
357.59	0.075	715180	keystroke	y	n/a
357.845	0.045	715690	keystroke	e	n/a
357.95	0.105	715900	keystroke	e	n/a
358.115	0.105	716230	keystroke	s	n/a
358.265	0.075	716530	keystroke	Key.enter	n/a
358.3445	5.9515	716689	prompt	n/a	maldives fatty apparel thomson\n
359.3295	0.135	718659	keystroke	m	n/a
359.4655	0.134	718931	keystroke	a	n/a
359.5545	0.135	719109	keystroke	l	n/a
359.7795	0.09	719559	keystroke	d	n/a
359.9145	0.12	719829	keystroke	i	n/a
360.0495	0.105	720099	keystroke	v	n/a
360.1995	0.18	720399	keystroke	e	n/a
360.3045	0.165	720609	keystroke	s	n/a
360.3495	0.135	720699	keystroke	Key.space	n/a
360.575	0.135	721150	keystroke	f	n/a
360.755	0.1045	721510	keystroke	a	n/a
360.9645	0.225	721929	keystroke	t	n/a
361.729	0.12	723458	keystroke	t	n/a
361.954	0.09	723908	keystroke	y	n/a
362.014	0.12	724028	keystroke	Key.space	n/a
362.1945	0.1055	724389	keystroke	a	n/a
362.33	0.06	724660	keystroke	p	n/a
362.495	0.12	724990	keystroke	p	n/a
362.69	0.165	725380	keystroke	a	n/a
362.81	0.105	725620	keystroke	r	n/a
362.975	0.09	725950	keystroke	e	n/a
363.05	0.105	726100	keystroke	l	n/a
363.2	0.105	726400	keystroke	Key.space	n/a
363.395	0.105	726790	keystroke	t	n/a
363.455	0.0895	726910	keystroke	h	n/a
363.5595	0.12	727119	keystroke	o	n/a
363.6495	0.105	727299	keystroke	m	n/a
363.7995	0.105	727599	keystroke	s	n/a
363.8895	0.09	727779	keystroke	o	n/a
364.0245	0.075	728049	keystroke	n	n/a
364.2495	0.045	728499	keystroke	Key.enter	n/a
364.299	5.547	728598	prompt	n/a	pollution comp counted dude\n
364.955	0.075	729910	keystroke	p	n/a
365.1495	0.045	730299	keystroke	o	n/a
365.3295	0.03	730659	keystroke	l	n/a
365.4345	0.12	730869	keystroke	l	n/a
365.7495	0.12	731499	keystroke	u	n/a
366.1395	0.105	732279	keystroke	t	n/a
366.2295	0.18	732459	keystroke	i	n/a
366.2745	0.105	732549	keystroke	o	n/a
366.3345	0.165	732669	keystroke	n	n/a
366.4845	0.105	732969	keystroke	Key.space	n/a
366.7095	0.075	733419	keystroke	c	n/a
366.7395	0.09	733479	keystroke	o	n/a
366.7995	0.075	733599	keystroke	m	n/a
366.9345	0.135	733869	keystroke	p	n/a
366.9945	0.09	733989	keystroke	l	n/a
367.3695	0.06	734739	keystroke	Key.backspace	n/a
367.5945	0.1205	735189	keystroke	Key.space	n/a
368.165	0.18	736330	keystroke	c	n/a
368.24	0.12	736480	keystroke	o	n/a
368.315	0.075	736630	keystroke	u	n/a
368.465	0.105	736930	keystroke	n	n/a
368.765	0.15	737530	keystroke	t	n/a
368.855	0.12	737710	keystroke	e	n/a
369.0795	0.105	738159	keystroke	d	n/a
369.1695	0.105	738339	keystroke	Key.space	n/a
369.3045	0.09	738609	keystroke	d	n/a
369.3795	0.105	738759	keystroke	u	n/a
369.4695	0.075	738939	keystroke	d	n/a
369.6345	0.06	739269	keystroke	e	n/a
369.7845	0.06	739569	keystroke	Key.enter	n/a
369.8495	4.992	739699	prompt	n/a	scores magnet do ralph\n
370.49	0.165	740980	keystroke	s	n/a
370.595	0.105	741190	keystroke	c	n/a
370.715	0.075	741430	keystroke	o	n/a
370.82	0.15	741640	keystroke	r	n/a
370.91	0.1645	741820	keystroke	e	n/a
371	0.15	742000	keystroke	s	n/a
371.06	0.18	742120	keystroke	Key.space	n/a
371.3	0.12	742600	keystroke	m	n/a
371.36	0.09	742720	keystroke	a	n/a
371.525	0.075	743050	keystroke	g	n/a
371.63	0.105	743260	keystroke	n	n/a
371.705	0.165	743410	keystroke	e	n/a
371.825	0.105	743650	keystroke	t	n/a
371.885	0.105	743770	keystroke	Key.space	n/a
372.2	0.12	744400	keystroke	d	n/a
372.29	0.105	744580	keystroke	o	n/a
372.38	0.15	744760	keystroke	Key.space	n/a
372.77	0.105	745540	keystroke	r	n/a
372.905	0.12	745810	keystroke	a	n/a
372.98	0.09	745960	keystroke	l	n/a
373.2495	0.105	746499	keystroke	h	n/a
373.7745	0.09	747549	keystroke	Key.backspace	n/a
374.0295	0.075	748059	keystroke	p	n/a
374.3595	0.0905	748719	keystroke	h	n/a
374.734	0.105	749468	keystroke	Key.enter	n/a
374.844	6.5075	749688	prompt	n/a	britain chosen norm lobby\n
375.74	0.059	751480	keystroke	b	n/a
375.8895	0.105	751779	keystroke	i	n/a
376.3395	0.06	752679	keystroke	Key.backspace	n/a
376.4895	0.0755	752979	keystroke	r	n/a
376.6095	0.1195	753219	keystroke	i	n/a
376.849	0.046	753698	keystroke	t	n/a
377.2245	0.105	754449	keystroke	a	n/a
377.2845	0.1495	754569	keystroke	i	n/a
377.3445	0.1345	754689	keystroke	n	n/a
377.449	0.12	754898	keystroke	Key.space	n/a
377.585	0.119	755170	keystroke	s	n/a
377.659	0.076	755318	keystroke	h	n/a
378.019	0.045	756038	keystroke	Key.backspace	n/a
378.124	0.075	756248	keystroke	Key.backspace	n/a
378.274	0.06	756548	keystroke	Key.backspace	n/a
378.7095	0.105	757419	keystroke	Key.space	n/a
378.9195	0.135	757839	keystroke	c	n/a
378.9945	0.0755	757989	keystroke	h	n/a
379.0995	0.105	758199	keystroke	o	n/a
379.1895	0.165	758379	keystroke	s	n/a
379.3095	0.12	758619	keystroke	e	n/a
379.4595	0.105	758919	keystroke	n	n/a
379.5945	0.105	759189	keystroke	Key.space	n/a
379.9395	0.06	759879	keystroke	n	n/a
380.0745	0.06	760149	keystroke	o	n/a
380.1195	0.075	760239	keystroke	r	n/a
380.2245	0.105	760449	keystroke	m	n/a
380.3745	0.1055	760749	keystroke	Key.space	n/a
380.615	0.06	761230	keystroke	l	n/a
380.795	0.045	761590	keystroke	o	n/a
380.93	0.06	761860	keystroke	b	n/a
381.05	0.075	762100	keystroke	b	n/a
381.14	0.075	762280	keystroke	y	n/a
381.275	0.015	762550	keystroke	Key.shift_r	n/a
381.275	0.075	762550	keystroke	Key.enter	n/a
381.3545	5.2315	762709	prompt	n/a	setup ferry ridge planning\n
381.98	0.135	763960	keystroke	s	n/a
382.16	0.15	764320	keystroke	e	n/a
382.28	0.105	764560	keystroke	t	n/a
382.4	0.09	764800	keystroke	u	n/a
382.625	0.06	765250	keystroke	p	n/a
382.865	0.09	765730	keystroke	Key.space	n/a
383	0.1195	766000	keystroke	f	n/a
383.1205	0.059	766241	keystroke	e	n/a
383.2995	0.06	766599	keystroke	r	n/a
383.4195	0.09	766839	keystroke	r	n/a
383.6445	0.105	767289	keystroke	y	n/a
383.7195	0.09	767439	keystroke	Key.space	n/a
384.02	0.135	768040	keystroke	r	n/a
384.665	0.105	769330	keystroke	i	n/a
384.98	0.0895	769960	keystroke	d	n/a
385.1445	0.075	770289	keystroke	g	n/a
385.2945	0.105	770589	keystroke	e	n/a
385.5645	0.12	771129	keystroke	Key.space	n/a
385.7295	0.12	771459	keystroke	p	n/a
385.8045	0.09	771609	keystroke	l	n/a
385.8805	0.089	771761	keystroke	a	n/a
386.0145	0.06	772029	keystroke	n	n/a
386.1195	0.09	772239	keystroke	n	n/a
386.2545	0.105	772509	keystroke	i	n/a
386.3145	0.105	772629	keystroke	n	n/a
386.3895	0.075	772779	keystroke	g	n/a
386.5245	0.0605	773049	keystroke	Key.enter	n/a
386.589	6.462	773178	prompt	n/a	transition lauren servers reseller\n
387.2295	0.105	774459	keystroke	t	n/a
387.3045	0.06	774609	keystroke	r	n/a
387.4545	0.09	774909	keystroke	a	n/a
387.5895	0.135	775179	keystroke	n	n/a
387.9045	0.09	775809	keystroke	s	n/a
388.0545	0.075	776109	keystroke	i	n/a
388.1745	0.09	776349	keystroke	t	n/a
388.2195	0.165	776439	keystroke	i	n/a
388.2795	0.09	776559	keystroke	o	n/a
388.3395	0.135	776679	keystroke	n	n/a
388.4895	0.105	776979	keystroke	Key.space	n/a
388.82	0.09	777640	keystroke	l	n/a
388.895	0.135	777790	keystroke	a	n/a
389.0445	0.105	778089	keystroke	u	n/a
389.1195	0.105	778239	keystroke	r	n/a
389.2995	0.075	778599	keystroke	e	n/a
389.4345	0.1205	778869	keystroke	n	n/a
389.63	0.045	779260	keystroke	Key.space	n/a
390.7845	0.1205	781569	keystroke	s	n/a
390.98	0.1345	781960	keystroke	e	n/a
391.04	0.1045	782080	keystroke	r	n/a
391.2645	0.075	782529	keystroke	v	n/a
391.43	0.119	782860	keystroke	e	n/a
391.535	0.15	783070	keystroke	r	n/a
391.67	0.135	783340	keystroke	s	n/a
391.745	0.1645	783490	keystroke	Key.space	n/a
391.895	0.1345	783790	keystroke	r	n/a
391.97	0.1495	783940	keystroke	e	n/a
392.1495	0.1505	784299	keystroke	s	n/a
392.315	0.135	784630	keystroke	e	n/a
392.48	0.075	784960	keystroke	l	n/a
392.63	0.12	785260	keystroke	l	n/a
392.705	0.12	785410	keystroke	e	n/a
392.765	0.105	785530	keystroke	r	n/a
392.96	0.09	785920	keystroke	Key.enter	n/a
393.056	11.0505	786112	prompt	n/a	amsterdam streaming discounted indianapolis\n
393.815	0.134	787630	keystroke	a	n/a
393.934	0.135	787868	keystroke	m	n/a
394.1	0.134	788200	keystroke	s	n/a
394.295	0.104	788590	keystroke	t	n/a
394.4305	0.119	788861	keystroke	e	n/a
394.4755	0.104	788951	keystroke	r	n/a
394.6845	0.09	789369	keystroke	a	n/a
394.7895	0.1055	789579	keystroke	d	n/a
395.06	0.045	790120	keystroke	Key.backspace	n/a
395.165	0.0895	790330	keystroke	Key.backspace	n/a
395.285	0.135	790570	keystroke	d	n/a
395.36	0.105	790720	keystroke	a	n/a
395.4495	0.0755	790899	keystroke	m	n/a
395.7795	0.12	791559	keystroke	Key.space	n/a
395.9445	0.12	791889	keystroke	s	n/a
396.1095	0.105	792219	keystroke	t	n/a
398.06	0.105	796120	keystroke	r	n/a
398.225	0.135	796450	keystroke	e	n/a
398.3	0.135	796600	keystroke	a	n/a
398.39	0.06	796780	keystroke	m	n/a
398.525	0.09	797050	keystroke	i	n/a
398.57	0.12	797140	keystroke	n	n/a
398.66	0.105	797320	keystroke	g	n/a
398.72	0.135	797440	keystroke	Key.space	n/a
399.02	0.1045	798040	keystroke	d	n/a
399.1395	0.105	798279	keystroke	i	n/a
399.1995	0.135	798399	keystroke	s	n/a
399.3045	0.165	798609	keystroke	c	n/a
399.4245	0.15	798849	keystroke	o	n/a
399.5145	0.12	799029	keystroke	u	n/a
399.7245	0.09	799449	keystroke	n	n/a
399.7995	0.12	799599	keystroke	t	n/a
399.8745	0.09	799749	keystroke	e	n/a
400.0845	0.12	800169	keystroke	d	n/a
400.2195	0.105	800439	keystroke	Key.space	n/a
400.37	0.105	800740	keystroke	i	n/a
400.415	0.12	800830	keystroke	n	n/a
400.505	0.12	801010	keystroke	Key.space	n/a
401.3745	0.09	802749	keystroke	Key.backspace	n/a
401.7955	0.089	803591	keystroke	d	n/a
401.8995	0.09	803799	keystroke	i	n/a
401.9905	0.104	803981	keystroke	a	n/a
402.3645	0.135	804729	keystroke	n	n/a
402.7545	0.105	805509	keystroke	a	n/a
403.01	0.09	806020	keystroke	p	n/a
403.22	0.045	806440	keystroke	o	n/a
403.46	0.12	806920	keystroke	l	n/a
403.775	0.06	807550	keystroke	i	n/a
403.88	0.075	807760	keystroke	s	n/a
404.0445	0.06	808089	keystroke	Key.enter	n/a
404.11	11.3965	808220	prompt	n/a	terminals judges income warning\n
404.9145	0.06	809829	keystroke	t	n/a
405.0195	0.1055	810039	keystroke	e	n/a
405.0645	0.1055	810129	keystroke	r	n/a
405.155	0.06	810310	keystroke	m	n/a
405.26	0.105	810520	keystroke	i	n/a
405.32	0.105	810640	keystroke	n	n/a
405.995	0.075	811990	keystroke	a	n/a
406.1	0.12	812200	keystroke	l	n/a
406.19	0.12	812380	keystroke	s	n/a
406.235	0.045	812470	keystroke	l	n/a
406.295	0.12	812590	keystroke	Key.space	n/a
406.43	0.105	812860	keystroke	j	n/a
406.58	0.12	813160	keystroke	u	n/a
406.655	0.09	813310	keystroke	d	n/a
406.835	0.075	813670	keystroke	g	n/a
406.955	0.165	813910	keystroke	e	n/a
407.03	0.1345	814060	keystroke	s	n/a
407.09	0.18	814180	keystroke	Key.space	n/a
407.87	0.225	815740	keystroke	Key.backspace	n/a
408.2	0.045	816400	keystroke	Key.backspace	n/a
408.335	0.045	816670	keystroke	Key.backspace	n/a
408.485	0.045	816970	keystroke	Key.backspace	n/a
408.6195	0.045	817239	keystroke	Key.backspace	n/a
408.7545	0.045	817509	keystroke	Key.backspace	n/a
408.9045	0.045	817809	keystroke	Key.backspace	n/a
409.0395	0.0455	818079	keystroke	Key.backspace	n/a
409.19	0.045	818380	keystroke	Key.backspace	n/a
409.325	0.045	818650	keystroke	Key.backspace	n/a
409.49	0.045	818980	keystroke	Key.backspace	n/a
410.8845	0.06	821769	keystroke	l	n/a
411.0495	0.0755	822099	keystroke	Key.space	n/a
411.425	0.09	822850	keystroke	Key.backspace	n/a
411.56	0.1195	823120	keystroke	s	n/a
411.7095	0.135	823419	keystroke	Key.space	n/a
412.3095	0.09	824619	keystroke	j	n/a
412.5495	0.06	825099	keystroke	u	n/a
412.5645	0.0755	825129	keystroke	d	n/a
412.715	0.15	825430	keystroke	g	n/a
412.805	0.18	825610	keystroke	e	n/a
412.925	0.105	825850	keystroke	s	n/a
412.955	0.165	825910	keystroke	Key.space	n/a
413.195	0.15	826390	keystroke	i	n/a
413.27	0.12	826540	keystroke	n	n/a
413.375	0.105	826750	keystroke	c	n/a
413.495	0.09	826990	keystroke	o	n/a
413.525	0.12	827050	keystroke	m	n/a
413.6	0.12	827200	keystroke	e	n/a
413.675	0.1345	827350	keystroke	Key.space	n/a
413.8545	0.09	827709	keystroke	a	n/a
414.2445	0.09	828489	keystroke	Key.backspace	n/a
414.4095	0.211	828819	keystroke	w	n/a
414.4845	0.226	828969	keystroke	a	n/a
414.6055	0.105	829211	keystroke	r	n/a
414.8005	0.06	829601	keystroke	n	n/a
414.9805	0.09	829961	keystroke	i	n/a
415.0105	0.12	830021	keystroke	n	n/a
415.0995	0.09	830199	keystroke	g	n/a
415.4305	0.074	830861	keystroke	Key.enter	n/a
415.5095	5.142	831019	prompt	n/a	lifestyle emacs generally change\n
416.1505	0.06	832301	keystroke	l	n/a
416.2705	0.15	832541	keystroke	i	n/a
416.3605	0.135	832721	keystroke	f	n/a
416.4505	0.104	832901	keystroke	e	n/a
416.6305	0.18	833261	keystroke	s	n/a
416.7355	0.104	833471	keystroke	t	n/a
416.93	0.075	833860	keystroke	y	n/a
417.035	0.135	834070	keystroke	l	n/a
417.14	0.105	834280	keystroke	e	n/a
417.2	0.105	834400	keystroke	Key.space	n/a
417.365	0.105	834730	keystroke	e	n/a
417.44	0.12	834880	keystroke	m	n/a
417.65	0.12	835300	keystroke	a	n/a
417.845	0.15	835690	keystroke	c	n/a
417.965	0.1495	835930	keystroke	s	n/a
418.1445	0.15	836289	keystroke	Key.space	n/a
418.4145	0.1055	836829	keystroke	g	n/a
419.06	0.0745	838120	keystroke	e	n/a
419.1795	0.12	838359	keystroke	n	n/a
419.2695	0.121	838539	keystroke	e	n/a
419.3455	0.089	838691	keystroke	r	n/a
419.4795	0.075	838959	keystroke	a	n/a
419.5555	0.074	839111	keystroke	l	n/a
419.6905	0.104	839381	keystroke	l	n/a
419.7795	0.075	839559	keystroke	y	n/a
419.8245	0.09	839649	keystroke	Key.space	n/a
419.9895	0.106	839979	keystroke	c	n/a
420.0645	0.105	840129	keystroke	h	n/a
420.1545	0.075	840309	keystroke	a	n/a
420.2595	0.075	840519	keystroke	n	n/a
420.3195	0.09	840639	keystroke	g	n/a
420.3945	0.105	840789	keystroke	e	n/a
420.5745	0.075	841149	keystroke	Key.enter	n/a
420.654	5.6375	841308	prompt	n/a	difficult delivers surrounded swingers\n
421.2645	0.1205	842529	keystroke	d	n/a
421.4	0.075	842800	keystroke	i	n/a
421.46	0.045	842920	keystroke	f	n/a
421.565	0.105	843130	keystroke	f	n/a
421.685	0.1045	843370	keystroke	i	n/a
421.775	0.1195	843550	keystroke	c	n/a
421.8795	0.06	843759	keystroke	u	n/a
422.0295	0.09	844059	keystroke	l	n/a
422.1345	0.09	844269	keystroke	t	n/a
422.1945	0.075	844389	keystroke	Key.space	n/a
422.3445	0.06	844689	keystroke	d	n/a
422.4945	0.09	844989	keystroke	e	n/a
422.5995	0.03	845199	keystroke	l	n/a
422.7045	0.105	845409	keystroke	i	n/a
422.7795	0.06	845559	keystroke	v	n/a
422.8995	0.12	845799	keystroke	e	n/a
422.9745	0.165	845949	keystroke	r	n/a
423.0945	0.135	846189	keystroke	s	n/a
423.2145	0.12	846429	keystroke	Key.space	n/a
423.3495	0.135	846699	keystroke	s	n/a
423.4545	0.1055	846909	keystroke	u	n/a
423.56	0.06	847120	keystroke	r	n/a
423.68	0.12	847360	keystroke	r	n/a
423.83	0.165	847660	keystroke	o	n/a
423.935	0.09	847870	keystroke	u	n/a
424.115	0.09	848230	keystroke	n	n/a
424.25	0.105	848500	keystroke	d	n/a
424.415	0.09	848830	keystroke	e	n/a
424.58	0.12	849160	keystroke	d	n/a
424.685	0.135	849370	keystroke	Key.space	n/a
425.2545	0.075	850509	keystroke	s	n/a
425.4345	0.075	850869	keystroke	w	n/a
425.5695	0.105	851139	keystroke	i	n/a
425.6595	0.12	851319	keystroke	n	n/a
425.7345	0.075	851469	keystroke	g	n/a
425.8995	0.105	851799	keystroke	e	n/a
425.9595	0.15	851919	keystroke	r	n/a
426.0795	0.12	852159	keystroke	s	n/a
426.2145	0.0755	852429	keystroke	Key.enter	n/a
426.2945	5.622	852589	prompt	n/a	brad amplifier chaos marvel\n
426.9655	0.105	853931	keystroke	b	n/a
427.0555	0.09	854111	keystroke	r	n/a
427.1605	0.165	854321	keystroke	a	n/a
427.2505	0.135	854501	keystroke	d	n/a
427.3545	0.106	854709	keystroke	Key.space	n/a
427.5955	0.1495	855191	keystroke	a	n/a
427.7	0.105	855400	keystroke	m	n/a
427.865	0.105	855730	keystroke	p	n/a
427.925	0.075	855850	keystroke	l	n/a
428.105	0.09	856210	keystroke	i	n/a
428.18	0.09	856360	keystroke	f	n/a
428.3	0.15	856600	keystroke	i	n/a
428.495	0.12	856990	keystroke	e	n/a
429.17	0.105	858340	keystroke	r	n/a
429.32	0.105	858640	keystroke	Key.space	n/a
429.605	0.105	859210	keystroke	c	n/a
429.68	0.075	859360	keystroke	h	n/a
429.86	0.075	859720	keystroke	o	n/a
430.22	0.06	860440	keystroke	Key.backspace	n/a
430.355	0.09	860710	keystroke	a	n/a
430.43	0.09	860860	keystroke	o	n/a
430.565	0.1345	861130	keystroke	s	n/a
430.8195	0.09	861639	keystroke	Key.space	n/a
431.0895	0.135	862179	keystroke	m	n/a
431.1645	0.15	862329	keystroke	a	n/a
431.2255	0.104	862451	keystroke	r	n/a
431.4345	0.06	862869	keystroke	v	n/a
431.5545	0.075	863109	keystroke	e	n/a
431.6445	0.0905	863289	keystroke	l	n/a
431.8405	0.075	863681	keystroke	Key.enter	n/a
431.9195	3.762	863839	prompt	n/a	site married bedding throat\n
432.5305	0.12	865061	keystroke	s	n/a
432.6355	0.12	865271	keystroke	i	n/a
432.7105	0.15	865421	keystroke	t	n/a
432.7705	0.12	865541	keystroke	e	n/a
432.8755	0.135	865751	keystroke	Key.space	n/a
433.0255	0.12	866051	keystroke	m	n/a
433.0705	0.09	866141	keystroke	a	n/a
433.2655	0.045	866531	keystroke	r	n/a
433.3855	0.12	866771	keystroke	r	n/a
433.5205	0.135	867041	keystroke	i	n/a
433.5955	0.075	867191	keystroke	e	n/a
433.7755	0.1045	867551	keystroke	d	n/a
433.8355	0.1195	867671	keystroke	Key.space	n/a
434.015	0.09	868030	keystroke	b	n/a
434.06	0.09	868120	keystroke	e	n/a
434.255	0.06	868510	keystroke	d	n/a
434.39	0.105	868780	keystroke	d	n/a
434.495	0.135	868990	keystroke	i	n/a
434.54	0.135	869080	keystroke	n	n/a
434.615	0.12	869230	keystroke	g	n/a
434.69	0.135	869380	keystroke	Key.space	n/a
434.84	0.105	869680	keystroke	t	n/a
434.9	0.135	869800	keystroke	h	n/a
435.02	0.12	870040	keystroke	r	n/a
435.125	0.12	870250	keystroke	o	n/a
435.275	0.09	870550	keystroke	a	n/a
435.455	0.075	870910	keystroke	t	n/a
435.59	0.09	871180	keystroke	Key.enter	n/a
435.685	6.462	871370	prompt	n/a	gross viewers provinces lawsuit\n
436.31	0.09	872620	keystroke	g	n/a
436.49	0.09	872980	keystroke	r	n/a
436.61	0.12	873220	keystroke	o	n/a
436.745	0.06	873490	keystroke	s	n/a
436.8655	0.12	873731	keystroke	s	n/a
436.9855	0.09	873971	keystroke	Key.space	n/a
437.1505	0.104	874301	keystroke	v	n/a
437.2855	0.12	874571	keystroke	i	n/a
437.4205	0.105	874841	keystroke	e	n/a
437.7355	0.135	875471	keystroke	w	n/a
438.1105	0.165	876221	keystroke	e	n/a
438.2305	0.165	876461	keystroke	r	n/a
438.4105	0.105	876821	keystroke	s	n/a
438.4855	0.15	876971	keystroke	Key.space	n/a
438.6655	0.09	877331	keystroke	p	n/a
438.7105	0.09	877421	keystroke	r	n/a
438.8605	0.075	877721	keystroke	o	n/a
438.8755	0.045	877751	keystroke	i	n/a
438.9505	0.105	877901	keystroke	v	n/a
439.4005	0.06	878801	keystroke	Key.backspace	n/a
439.5205	0.104	879041	keystroke	Key.backspace	n/a
439.6405	0.119	879281	keystroke	v	n/a
439.8205	0.089	879641	keystroke	i	n/a
440.0455	0.12	880091	keystroke	n	n/a
440.1805	0.15	880361	keystroke	c	n/a
440.2705	0.195	880541	keystroke	e	n/a
440.4355	0.06	880871	keystroke	s	n/a
440.7505	0.119	881501	keystroke	Key.space	n/a
441.0205	0.12	882041	keystroke	l	n/a
441.1555	0.1645	882311	keystroke	a	n/a
441.2155	0.1195	882431	keystroke	w	n/a
441.455	0.15	882910	keystroke	s	n/a
441.59	0.09	883180	keystroke	u	n/a
441.755	0.12	883510	keystroke	i	n/a
441.845	0.09	883690	keystroke	t	n/a
442.025	0.12	884050	keystroke	Key.enter	n/a
442.1495	5.247	884299	prompt	n/a	ring dealt proceedings option\n
443.87	0.075	887740	keystroke	r	n/a
443.946	0.104	887892	keystroke	i	n/a
443.99	0.18	887980	keystroke	n	n/a
444.065	0.09	888130	keystroke	g	n/a
444.125	0.12	888250	keystroke	Key.space	n/a
444.29	0.09	888580	keystroke	d	n/a
444.44	0.135	888880	keystroke	e	n/a
444.53	0.135	889060	keystroke	a	n/a
444.62	0.105	889240	keystroke	l	n/a
444.726	0.089	889452	keystroke	t	n/a
444.83	0.135	889660	keystroke	Key.space	n/a
445.22	0.075	890440	keystroke	p	n/a
445.31	0.0595	890620	keystroke	r	n/a
445.3845	0.12	890769	keystroke	o	n/a
445.4895	0.12	890979	keystroke	c	n/a
445.6105	0.074	891221	keystroke	e	n/a
445.8195	0.06	891639	keystroke	e	n/a
446.0295	0.09	892059	keystroke	d	n/a
446.1945	0.09	892389	keystroke	i	n/a
446.2245	0.165	892449	keystroke	n	n/a
446.2995	0.12	892599	keystroke	g	n/a
446.4055	0.149	892811	keystroke	s	n/a
446.5095	0.135	893019	keystroke	Key.space	n/a
446.6595	0.1655	893319	keystroke	o	n/a
446.735	0.105	893470	keystroke	p	n/a
446.855	0.09	893710	keystroke	t	n/a
446.945	0.21	893890	keystroke	i	n/a
446.99	0.12	893980	keystroke	o	n/a
447.065	0.15	894130	keystroke	n	n/a
447.335	0.06	894670	keystroke	Key.enter	n/a
447.3995	6.882	894799	prompt	n/a	seven substantially remainder acne\n
447.9645	0.1205	895929	keystroke	s	n/a
448.07	0.135	896140	keystroke	e	n/a
448.25	0.105	896500	keystroke	v	n/a
448.37	0.105	896740	keystroke	e	n/a
448.46	0.105	896920	keystroke	n	n/a
448.595	0.105	897190	keystroke	Key.space	n/a
448.76	0.165	897520	keystroke	s	n/a
448.895	0.12	897790	keystroke	u	n/a
449.03	0.12	898060	keystroke	b	n/a
449.24	0.135	898480	keystroke	s	n/a
449.36	0.09	898720	keystroke	t	n/a
449.51	0.105	899020	keystroke	a	n/a
449.6	0.15	899200	keystroke	n	n/a
449.84	0.09	899680	keystroke	t	n/a
449.945	0.09	899890	keystroke	i	n/a
450.05	0.075	900100	keystroke	a	n/a
450.17	0.045	900340	keystroke	l	n/a
450.29	0.135	900580	keystroke	l	n/a
450.38	0.075	900760	keystroke	y	n/a
450.44	0.105	900880	keystroke	Key.space	n/a
451.1895	0.15	902379	keystroke	r	n/a
451.2945	0.106	902589	keystroke	e	n/a
451.4305	0.105	902861	keystroke	m	n/a
451.5205	0.135	903041	keystroke	a	n/a
451.6705	0.075	903341	keystroke	i	n/a
451.6855	0.135	903371	keystroke	n	n/a
451.7755	0.075	903551	keystroke	e	n/a
451.97	0.12	903940	keystroke	d	n/a
452.6455	0.045	905291	keystroke	Key.backspace	n/a
452.7505	0.09	905501	keystroke	Key.backspace	n/a
452.9005	0.105	905801	keystroke	d	n/a
453.11	0.135	906220	keystroke	e	n/a
453.215	0.12	906430	keystroke	r	n/a
453.29	0.12	906580	keystroke	Key.space	n/a
453.6055	0.105	907211	keystroke	a	n/a
453.7255	0.12	907451	keystroke	c	n/a
453.9355	0.09	907871	keystroke	n	n/a
454.0105	0.09	908021	keystroke	e	n/a
454.2055	0.075	908411	keystroke	Key.enter	n/a
454.2845	6.702	908569	prompt	n/a	artistic planners borough finland\n
454.8655	0.195	909731	keystroke	a	n/a
455.0305	0.105	910061	keystroke	r	n/a
455.2105	0.09	910421	keystroke	t	n/a
455.3155	0.105	910631	keystroke	i	n/a
455.6905	0.09	911381	keystroke	s	n/a
455.9305	0.075	911861	keystroke	i	n/a
456.32	0.09	912640	keystroke	Key.backspace	n/a
456.485	0.09	912970	keystroke	t	n/a
456.665	0.06	913330	keystroke	i	n/a
456.785	0.105	913570	keystroke	c	n/a
456.95	0.105	913900	keystroke	Key.space	n/a
457.1605	0.09	914321	keystroke	p	n/a
457.2055	0.105	914411	keystroke	l	n/a
457.3105	0.09	914621	keystroke	a	n/a
457.4305	0.06	914861	keystroke	n	n/a
457.5505	0.09	915101	keystroke	n	n/a
457.6555	0.15	915311	keystroke	e	n/a
457.7305	0.18	915461	keystroke	r	n/a
457.8505	0.135	915701	keystroke	s	n/a
457.9255	0.18	915851	keystroke	Key.space	n/a
458.1505	0.105	916301	keystroke	b	n/a
458.4205	0.06	916841	keystroke	o	n/a
458.5255	0.09	917051	keystroke	r	n/a
458.6005	0.18	917201	keystroke	o	n/a
458.7505	0.105	917501	keystroke	u	n/a
458.975	0.09	917950	keystroke	g	n/a
459.05	0.12	918100	keystroke	h	n/a
459.185	0.09	918370	keystroke	Key.space	n/a
459.335	0.105	918670	keystroke	i	n/a
459.395	0.18	918790	keystroke	n	n/a
459.845	0.045	919690	keystroke	Key.backspace	n/a
459.965	0.06	919930	keystroke	Key.backspace	n/a
460.115	0.105	920230	keystroke	f	n/a
460.19	0.12	920380	keystroke	i	n/a
460.235	0.135	920470	keystroke	n	n/a
460.46	0.09	920920	keystroke	l	n/a
460.595	0.075	921190	keystroke	a	n/a
460.655	0.105	921310	keystroke	n	n/a
460.79	0.06	921580	keystroke	d	n/a
460.91	0.075	921820	keystroke	Key.enter	n/a
460.99	5.9965	921980	prompt	n/a	refine marilyn tigers passport\n
461.63	0.105	923260	keystroke	r	n/a
461.69	0.075	923380	keystroke	e	n/a
461.84	0.105	923680	keystroke	f	n/a
461.93	0.12	923860	keystroke	i	n/a
461.99	0.1205	923980	keystroke	n	n/a
462.035	0.12	924070	keystroke	e	n/a
462.14	0.12	924280	keystroke	Key.space	n/a
462.3205	0.1345	924641	keystroke	m	n/a
462.3805	0.1495	924761	keystroke	a	n/a
462.4855	0.1195	924971	keystroke	r	n/a
462.65	0.225	925300	keystroke	i	n/a
462.7555	0.1495	925511	keystroke	l	n/a
462.9505	0.1045	925901	keystroke	y	n/a
463.2045	0.135	926409	keystroke	n	n/a
463.5195	0.045	927039	keystroke	Key.space	n/a
464.9755	0.075	929951	keystroke	t	n/a
465.0655	0.1195	930131	keystroke	i	n/a
465.155	0.075	930310	keystroke	g	n/a
465.305	0.12	930610	keystroke	e	n/a
465.38	0.135	930760	keystroke	r	n/a
465.53	0.135	931060	keystroke	s	n/a
465.605	0.15	931210	keystroke	Key.space	n/a
465.86	0.105	931720	keystroke	p	n/a
465.95	0.075	931900	keystroke	a	n/a
466.145	0.045	932290	keystroke	s	n/a
466.235	0.12	932470	keystroke	s	n/a
466.4	0.09	932800	keystroke	p	n/a
466.58	0.09	933160	keystroke	o	n/a
466.671	0.089	933342	keystroke	r	n/a
466.835	0.06	933670	keystroke	t	n/a
466.955	0.03	933910	keystroke	Key.enter	n/a
466.9895	4.197	933979	prompt	n/a	drives rover dvds keys\n
467.78	0.075	935560	keystroke	d	n/a
