onset	duration	sample	value	key	prompt_text
25.647	0.089	51294	keystroke_a	a	n/a
25.691	0.105	51382	keystroke_l	l	n/a
25.811	0.105	51622	keystroke_a	a	n/a
25.856	0.09	51712	keystroke_n	n	n/a
25.991	0.0445	51982	keystroke_d	d	n/a
26.051	0.075	52102	keystroke_u	u	n/a
26.156	0.105	52312	keystroke_Key.tab	Key.tab	n/a
26.591	0.15	53182	keystroke_Key.right	Key.right	n/a
27.071	0.15	54142	keystroke_Key.right	Key.right	n/a
27.656	0.105	55312	keystroke_Key.tab	Key.tab	n/a
29.111	0.12	58222	keystroke_o	o	n/a
29.186	0.09	58372	keystroke_n	n	n/a
29.2915	0.1645	58583	keystroke_Key.shift	Key.shift	n/a
29.381	0.06	58762	keystroke__	_	n/a
29.561	0.09	59122	keystroke_k	k	n/a
29.621	0.105	59242	keystroke_e	e	n/a
29.741	0.075	59482	keystroke_y	y	n/a
29.816	0.15	59632	keystroke_b	b	n/a
29.922	0.089	59844	keystroke_o	o	n/a
30.026	0.105	60052	keystroke_a	a	n/a
30.086	0.15	60172	keystroke_r	r	n/a
30.161	0.135	60322	keystroke_d	d	n/a
30.266	0.09	60532	keystroke_Key.space	Key.space	n/a
30.311	0.12	60622	keystroke_p	p	n/a
30.416	0.09	60832	keystroke_r	r	n/a
30.491	0.09	60982	keystroke_o	o	n/a
30.596	0.075	61192	keystroke_t	t	n/a
30.6865	0.0745	61373	keystroke_o	o	n/a
30.761	0.135	61522	keystroke_c	c	n/a
30.851	0.075	61702	keystroke_o	o	n/a
31.001	0.09	62002	keystroke_l	l	n/a
31.061	0.09	62122	keystroke_Key.space	Key.space	n/a
31.1815	0.0895	62363	keystroke_6	6	n/a
31.2865	0.0895	62573	keystroke_.	.	n/a
31.376	0.09	62752	keystroke_3	3	n/a
34.736	4.683	69472	prompt	n/a	the quick brown fox jumps over a lazy dog\n
35.531	0.09	71062	keystroke_t	t	n/a
35.576	0.09	71152	keystroke_h	h	n/a
35.681	0.12	71362	keystroke_e	e	n/a
35.756	0.075	71512	keystroke_Key.space	Key.space	n/a
35.862	0.089	71724	keystroke_q	q	n/a
35.9065	0.1195	71813	keystroke_u	u	n/a
35.981	0.09	71962	keystroke_i	i	n/a
36.086	0.135	72172	keystroke_c	c	n/a
36.1765	0.0895	72353	keystroke_k	k	n/a
36.2815	0.0745	72563	keystroke_Key.space	Key.space	n/a
36.3715	0.0745	72743	keystroke_b	b	n/a
36.5515	0.0895	73103	keystroke_r	r	n/a
36.6125	0.1035	73225	keystroke_o	o	n/a
36.7015	0.1345	73403	keystroke_w	w	n/a
36.7765	0.0895	73553	keystroke_n	n	n/a
36.896	0.045	73792	keystroke_Key.space	Key.space	n/a
36.941	0.105	73882	keystroke_f	f	n/a
37.016	0.09	74032	keystroke_o	o	n/a
37.091	0.09	74182	keystroke_x	x	n/a
37.151	0.09	74302	keystroke_Key.space	Key.space	n/a
37.1965	0.0745	74393	keystroke_j	j	n/a
37.3615	0.0745	74723	keystroke_u	u	n/a
37.526	0.105	75052	keystroke_m	m	n/a
37.616	0.105	75232	keystroke_p	p	n/a
37.7065	0.1345	75413	keystroke_s	s	n/a
37.7965	0.1045	75593	keystroke_Key.space	Key.space	n/a
37.8565	0.0895	75713	keystroke_o	o	n/a
37.9465	0.0895	75893	keystroke_v	v	n/a
38.081	0.12	76162	keystroke_e	e	n/a
38.156	0.09	76312	keystroke_r	r	n/a
38.216	0.105	76432	keystroke_Key.space	Key.space	n/a
38.306	0.1355	76612	keystroke_a	a	n/a
38.4265	0.0745	76853	keystroke_Key.space	Key.space	n/a
38.471	0.09	76942	keystroke_l	l	n/a
38.577	0.089	77154	keystroke_a	a	n/a
38.756	0.15	77512	keystroke_z	z	n/a
38.816	0.09	77632	keystroke_y	y	n/a
38.9215	0.0895	77843	keystroke_Key.space	Key.space	n/a
39.027	0.104	78054	keystroke_d	d	n/a
39.0865	0.09	78173	keystroke_o	o	n/a
39.191	0.075	78382	keystroke_g	g	n/a
39.3265	0.0895	78653	keystroke_Key.enter	Key.enter	n/a
39.425	9.594	78850	prompt	n/a	miami encouraged toll editing\n
46.091	0.105	92182	keystroke_m	m	n/a
46.181	0.105	92362	keystroke_i	i	n/a
46.2715	0.1345	92543	keystroke_a	a	n/a
46.3615	0.1195	92723	keystroke_m	m	n/a
46.4515	0.1045	92903	keystroke_i	i	n/a
46.5265	0.1045	93053	keystroke_Key.space	Key.space	n/a
46.7065	0.0895	93413	keystroke_e	e	n/a
46.8115	0.0895	93623	keystroke_n	n	n/a
46.9315	0.1045	93863	keystroke_c	c	n/a
47.0515	0.0745	94103	keystroke_o	o	n/a
47.0815	0.09	94163	keystroke_u	u	n/a
47.1565	0.075	94313	keystroke_r	r	n/a
47.2165	0.1345	94433	keystroke_a	a	n/a
47.3215	0.0595	94643	keystroke_g	g	n/a
47.3365	0.0895	94673	keystroke_e	e	n/a
47.5165	0.09	95033	keystroke_d	d	n/a
47.622	0.059	95244	keystroke_Key.space	Key.space	n/a
47.7115	0.0895	95423	keystroke_t	t	n/a
47.8165	0.0745	95633	keystroke_o	o	n/a
47.997	0.044	95994	keystroke_l	l	n/a
48.1165	0.09	96233	keystroke_l	l	n/a
48.1915	0.0745	96383	keystroke_Key.space	Key.space	n/a
48.2665	0.0595	96533	keystroke_e	e	n/a
48.4165	0.0755	96833	keystroke_d	d	n/a
48.4765	0.0895	96953	keystroke_i	i	n/a
48.5815	0.0895	97163	keystroke_t	t	n/a
48.6865	0.1195	97373	keystroke_i	i	n/a
48.7465	0.0745	97493	keystroke_n	n	n/a
48.7915	0.0895	97583	keystroke_g	g	n/a
48.927	0.089	97854	keystroke_Key.enter	Key.enter	n/a
49.0285	3.5155	98057	prompt	n/a	hold shirt futures bread\n
49.6015	0.09	99203	keystroke_h	h	n/a
49.6615	0.09	99323	keystroke_o	o	n/a
49.842	0.089	99684	keystroke_l	l	n/a
49.8865	0.105	99773	keystroke_d	d	n/a
49.9615	0.09	99923	keystroke_Key.space	Key.space	n/a
50.0665	0.1045	100133	keystroke_s	s	n/a
50.156	0.09	100312	keystroke_h	h	n/a
50.2015	0.1045	100403	keystroke_i	i	n/a
50.2615	0.0745	100523	keystroke_r	r	n/a
50.3965	0.1045	100793	keystroke_t	t	n/a
50.4865	0.0745	100973	keystroke_Key.space	Key.space	n/a
50.6215	0.1195	101243	keystroke_f	f	n/a
50.7565	0.0595	101513	keystroke_u	u	n/a
50.891	0.0755	101782	keystroke_t	t	n/a
50.9515	0.0745	101903	keystroke_u	u	n/a
51.0565	0.1495	102113	keystroke_r	r	n/a
51.1315	0.1495	102263	keystroke_e	e	n/a
51.192	0.119	102384	keystroke_s	s	n/a
51.297	0.059	102594	keystroke_Key.space	Key.space	n/a
51.417	0.044	102834	keystroke_b	b	n/a
51.5815	0.1195	103163	keystroke_r	r	n/a
51.6715	0.1195	103343	keystroke_e	e	n/a
51.7465	0.135	103493	keystroke_a	a	n/a
51.8815	0.0745	103763	keystroke_s	s	n/a
52.227	0.0445	104454	keystroke_Key.backspace	Key.backspace	n/a
52.3165	0.0745	104633	keystroke_d	d	n/a
52.4665	0.075	104933	keystroke_Key.enter	Key.enter	n/a
52.5535	13.5345	105107	prompt	n/a	selections tiny actually bride\n
62.9515	0.1195	125903	keystroke_s	s	n/a
63.1315	0.09	126263	keystroke_e	e	n/a
63.2365	0.1045	126473	keystroke_l	l	n/a
63.3265	0.0895	126653	keystroke_e	e	n/a
63.492	0.0745	126984	keystroke_c	c	n/a
63.6575	0.1185	127315	keystroke_t	t	n/a
63.7315	0.1645	127463	keystroke_i	i	n/a
63.7915	0.1195	127583	keystroke_o	o	n/a
63.8515	0.1195	127703	keystroke_n	n	n/a
63.8815	0.1195	127763	keystroke_s	s	n/a
63.9865	0.0895	127973	keystroke_Key.space	Key.space	n/a
64.0615	0.0895	128123	keystroke_t	t	n/a
64.121	0.09	128242	keystroke_i	i	n/a
64.1665	0.0745	128333	keystroke_n	n	n/a
64.3465	0.1195	128693	keystroke_y	y	n/a
64.4215	0.1045	128843	keystroke_Key.space	Key.space	n/a
64.4815	0.0895	128963	keystroke_a	a	n/a
64.6315	0.0745	129263	keystroke_c	c	n/a
64.7665	0.1195	129533	keystroke_t	t	n/a
64.8415	0.0895	129683	keystroke_u	u	n/a
64.9015	0.1495	129803	keystroke_a	a	n/a
65.0365	0.0595	130073	keystroke_l	l	n/a
65.1715	0.0895	130343	keystroke_l	l	n/a
65.2165	0.1045	130433	keystroke_y	y	n/a
65.2915	0.0595	130583	keystroke_Key.space	Key.space	n/a
65.3815	0.0445	130763	keystroke_b	b	n/a
65.592	0.1045	131184	keystroke_r	r	n/a
65.7115	0.1045	131423	keystroke_i	i	n/a
65.8015	0.0595	131603	keystroke_d	d	n/a
65.922	0.089	131844	keystroke_e	e	n/a
66.0265	0.0595	132053	keystroke_Key.enter	Key.enter	n/a
66.0955	3.278	132191	prompt	n/a	lets vertical votes death\n
66.7315	0.0895	133463	keystroke_l	l	n/a
66.807	0.119	133614	keystroke_e	e	n/a
66.896	0.135	133792	keystroke_t	t	n/a
66.9865	0.1045	133973	keystroke_s	s	n/a
67.0465	0.0895	134093	keystroke_Key.space	Key.space	n/a
67.1815	0.0895	134363	keystroke_v	v	n/a
67.3315	0.0895	134663	keystroke_e	e	n/a
67.4065	0.0745	134813	keystroke_r	r	n/a
67.5415	0.1045	135083	keystroke_t	t	n/a
67.6615	0.0745	135323	keystroke_i	i	n/a
67.7515	0.0595	135503	keystroke_c	c	n/a
67.8265	0.1795	135653	keystroke_a	a	n/a
67.9465	0.0745	135893	keystroke_l	l	n/a
68.157	0.089	136314	keystroke_Key.space	Key.space	n/a
68.3515	0.0745	136703	keystroke_v	v	n/a
68.4565	0.0895	136913	keystroke_o	o	n/a
68.5315	0.1495	137063	keystroke_t	t	n/a
68.607	0.149	137214	keystroke_e	e	n/a
68.6665	0.1345	137333	keystroke_s	s	n/a
68.7415	0.0895	137483	keystroke_Key.space	Key.space	n/a
68.876	0.06	137752	keystroke_d	d	n/a
69.0265	0.0895	138053	keystroke_e	e	n/a
69.0565	0.1495	138113	keystroke_a	a	n/a
69.1165	0.12	138233	keystroke_t	t	n/a
69.1915	0.0595	138383	keystroke_h	h	n/a
69.3265	0.0445	138653	keystroke_Key.enter	Key.enter	n/a
69.3845	4.2185	138769	prompt	n/a	quantities deck oxford thanksgiving\n
70.0615	0.0895	140123	keystroke_q	q	n/a
70.1665	0.0895	140333	keystroke_u	u	n/a
70.2265	0.1195	140453	keystroke_a	a	n/a
70.3765	0.0745	140753	keystroke_n	n	n/a
70.4665	0.0745	140933	keystroke_t	t	n/a
70.5575	0.089	141115	keystroke_i	i	n/a
70.6315	0.0895	141263	keystroke_t	t	n/a
70.736	0.075	141472	keystroke_i	i	n/a
70.8265	0.1195	141653	keystroke_e	e	n/a
70.9015	0.12	141803	keystroke_s	s	n/a
71.0065	0.0745	142013	keystroke_Key.space	Key.space	n/a
71.126	0.06	142252	keystroke_d	d	n/a
71.2615	0.06	142523	keystroke_e	e	n/a
71.4265	0.0895	142853	keystroke_c	c	n/a
71.5165	0.0745	143033	keystroke_k	k	n/a
71.6065	0.1045	143213	keystroke_Key.space	Key.space	n/a
71.757	0.089	143514	keystroke_o	o	n/a
71.8465	0.0895	143693	keystroke_x	x	n/a
72.0265	0.045	144053	keystroke_f	f	n/a
72.1015	0.0745	144203	keystroke_o	o	n/a
72.162	0.104	144324	keystroke_r	r	n/a
72.2815	0.1045	144563	keystroke_d	d	n/a
72.3565	0.0895	144713	keystroke_Key.space	Key.space	n/a
72.4615	0.1045	144923	keystroke_t	t	n/a
72.551	0.0755	145102	keystroke_h	h	n/a
72.6115	0.1495	145223	keystroke_a	a	n/a
72.7315	0.0905	145463	keystroke_n	n	n/a
72.7915	0.1045	145583	keystroke_k	k	n/a
72.8515	0.0895	145703	keystroke_s	s	n/a
72.9715	0.0745	145943	keystroke_g	g	n/a
73.0765	0.0895	146153	keystroke_i	i	n/a
73.1515	0.1195	146303	keystroke_v	v	n/a
73.286	0.105	146572	keystroke_i	i	n/a
73.3315	0.1045	146663	keystroke_n	n	n/a
73.422	0.074	146844	keystroke_g	g	n/a
73.5265	0.0745	147053	keystroke_Key.enter	Key.enter	n/a
73.615	7.293	147230	prompt	n/a	carroll shake afghanistan butler\n
74.1715	0.0745	148343	keystroke_c	c	n/a
74.3365	0.12	148673	keystroke_a	a	n/a
74.441	0.0905	148882	keystroke_r	r	n/a
74.5615	0.0745	149123	keystroke_o	o	n/a
74.726	0.075	149452	keystroke_o	o	n/a
74.9065	0.0445	149813	keystroke_l	l	n/a
75.0265	0.0745	150053	keystroke_l	l	n/a
75.1315	0.0745	150263	keystroke_Key.space	Key.space	n/a
75.2215	0.1045	150443	keystroke_s	s	n/a
75.3265	0.0745	150653	keystroke_h	h	n/a
75.4165	0.0895	150833	keystroke_a	a	n/a
75.672	0.059	151344	keystroke_Key.backspace	Key.backspace	n/a
75.8215	0.0595	151643	keystroke_Key.backspace	Key.backspace	n/a
75.9565	0.06	151913	keystroke_Key.backspace	Key.backspace	n/a
76.091	0.06	152182	keystroke_Key.backspace	Key.backspace	n/a
76.2415	0.0595	152483	keystroke_Key.backspace	Key.backspace	n/a
76.3765	0.0595	152753	keystroke_Key.backspace	Key.backspace	n/a
76.5415	0.0445	153083	keystroke_Key.backspace	Key.backspace	n/a
76.8415	0.0595	153683	keystroke_Key.backspace	Key.backspace	n/a
77.1265	0.0745	154253	keystroke_r	r	n/a
77.2165	0.0745	154433	keystroke_o	o	n/a
77.3665	0.0595	154733	keystroke_l	l	n/a
77.5015	0.105	155003	keystroke_l	l	n/a
77.6215	0.045	155243	keystroke_Key.space	Key.space	n/a
77.6965	0.0895	155393	keystroke_s	s	n/a
77.7715	0.0745	155543	keystroke_h	h	n/a
77.8765	0.1345	155753	keystroke_a	a	n/a
77.9965	0.0595	155993	keystroke_k	k	n/a
78.041	0.09	156082	keystroke_e	e	n/a
78.1315	0.0745	156263	keystroke_Key.space	Key.space	n/a
78.3415	0.1195	156683	keystroke_a	a	n/a
78.4315	0.09	156863	keystroke_f	f	n/a
78.6265	0.0745	157253	keystroke_g	g	n/a
78.7165	0.0895	157433	keystroke_h	h	n/a
78.791	0.1355	157582	keystroke_a	a	n/a
78.9115	0.1045	157823	keystroke_n	n	n/a
78.986	0.105	157972	keystroke_i	i	n/a
79.0915	0.1045	158183	keystroke_s	s	n/a
79.1665	0.1045	158333	keystroke_t	t	n/a
79.2865	0.1195	158573	keystroke_a	a	n/a
79.376	0.075	158752	keystroke_n	n	n/a
79.4665	0.09	158933	keystroke_Key.space	Key.space	n/a
79.5715	0.1045	159143	keystroke_b	b	n/a
79.6915	0.0595	159383	keystroke_u	u	n/a
79.7965	0.0895	159593	keystroke_t	t	n/a
79.8565	0.0895	159713	keystroke_l	l	n/a
79.9615	0.0745	159923	keystroke_e	e	n/a
80.0065	0.0895	160013	keystroke_r	r	n/a
80.8315	0.0745	161663	keystroke_Key.enter	Key.enter	n/a
80.9165	5.9915	161833	prompt	n/a	lack routers circular aggressive\n
83.5915	0.15	167183	keystroke_l	l	n/a
83.6965	0.0745	167393	keystroke_a	a	n/a
83.8315	0.135	167663	keystroke_c	c	n/a
83.923	0.073	167846	keystroke_k	k	n/a
84.0115	0.0745	168023	keystroke_Key.space	Key.space	n/a
84.1165	0.1045	168233	keystroke_r	r	n/a
84.2065	0.075	168413	keystroke_o	o	n/a
84.251	0.09	168502	keystroke_u	u	n/a
84.3115	0.105	168623	keystroke_t	t	n/a
84.4315	0.1195	168863	keystroke_e	e	n/a
84.5065	0.12	169013	keystroke_r	r	n/a
84.5815	0.1195	169163	keystroke_s	s	n/a
84.6715	0.0895	169343	keystroke_Key.space	Key.space	n/a
84.8815	0.0745	169763	keystroke_c	c	n/a
84.9865	0.0745	169973	keystroke_i	i	n/a
85.0765	0.0745	170153	keystroke_r	r	n/a
85.2265	0.1045	170453	keystroke_c	c	n/a
85.301	0.075	170602	keystroke_u	u	n/a
85.436	0.06	170872	keystroke_l	l	n/a
85.5115	0.1045	171023	keystroke_a	a	n/a
85.556	0.1205	171112	keystroke_r	r	n/a
85.6615	0.0895	171323	keystroke_Key.space	Key.space	n/a
85.766	0.105	171532	keystroke_a	a	n/a
85.8415	0.0895	171683	keystroke_g	g	n/a
85.9915	0.0745	171983	keystroke_g	g	n/a
86.1715	0.0895	172343	keystroke_r	r	n/a
86.2165	0.105	172433	keystroke_e	e	n/a
86.3065	0.0895	172613	keystroke_s	s	n/a
86.4715	0.1045	172943	keystroke_s	s	n/a
86.591	0.075	173182	keystroke_i	i	n/a
86.666	0.09	173332	keystroke_v	v	n/a
86.7415	0.0895	173483	keystroke_e	e	n/a
86.8465	0.0595	173693	keystroke_Key.enter	Key.enter	n/a
86.916	5.047	173832	prompt	n/a	coordinator minerals norman regardless\n
87.7765	0.0895	175553	keystroke_c	c	n/a
87.8815	0.0595	175763	keystroke_o	o	n/a
88.0315	0.0745	176063	keystroke_o	o	n/a
88.1215	0.1195	176243	keystroke_r	r	n/a
88.226	0.1055	176452	keystroke_d	d	n/a
88.3465	0.1195	176693	keystroke_i	i	n/a
88.407	0.089	176814	keystroke_n	n	n/a
88.5115	0.1045	177023	keystroke_a	a	n/a
88.571	0.09	177142	keystroke_t	t	n/a
88.6765	0.0745	177353	keystroke_o	o	n/a
88.7365	0.1195	177473	keystroke_r	r	n/a
88.8115	0.1195	177623	keystroke_Key.space	Key.space	n/a
88.901	0.09	177802	keystroke_m	m	n/a
89.0215	0.1345	178043	keystroke_i	i	n/a
89.096	0.09	178192	keystroke_n	n	n/a
89.171	0.06	178342	keystroke_e	e	n/a
89.2015	0.1195	178403	keystroke_r	r	n/a
89.2915	0.1345	178583	keystroke_a	a	n/a
89.3965	0.1045	178793	keystroke_l	l	n/a
89.472	0.1195	178944	keystroke_s	s	n/a
89.5765	0.0745	179153	keystroke_Key.space	Key.space	n/a
89.6065	0.1195	179213	keystroke_n	n	n/a
89.6965	0.1045	179393	keystroke_o	o	n/a
89.7565	0.1045	179513	keystroke_r	r	n/a
89.8765	0.0895	179753	keystroke_m	m	n/a
89.937	0.179	179874	keystroke_a	a	n/a
90.3415	0.0745	180683	keystroke_n	n	n/a
90.551	0.09	181102	keystroke_Key.space	Key.space	n/a
90.701	0.12	181402	keystroke_r	r	n/a
90.7915	0.0895	181583	keystroke_e	e	n/a
90.9115	0.1045	181823	keystroke_g	g	n/a
91.0315	0.1345	182063	keystroke_a	a	n/a
91.1215	0.0895	182243	keystroke_r	r	n/a
91.256	0.09	182512	keystroke_d	d	n/a
91.3765	0.0745	182753	keystroke_l	l	n/a
91.466	0.075	182932	keystroke_e	e	n/a
91.5865	0.0745	183173	keystroke_s	s	n/a
91.7515	0.0895	183503	keystroke_s	s	n/a
91.903	0.058	183806	keystroke_Key.enter	Key.enter	n/a
91.971	3.802	183942	prompt	n/a	matched reliability road ne'er\n
92.5765	0.105	185153	keystroke_m	m	n/a
92.666	0.12	185332	keystroke_a	a	n/a
92.7415	0.0745	185483	keystroke_t	t	n/a
92.9215	0.0745	185843	keystroke_c	c	n/a
93.0115	0.0595	186023	keystroke_h	h	n/a
93.087	0.074	186174	keystroke_e	e	n/a
93.2365	0.1045	186473	keystroke_d	d	n/a
93.3415	0.0745	186683	keystroke_Key.space	Key.space	n/a
93.4465	0.1045	186893	keystroke_r	r	n/a
93.5065	0.1045	187013	keystroke_e	e	n/a
93.6415	0.1045	187283	keystroke_l	l	n/a
93.7615	0.0895	187523	keystroke_i	i	n/a
93.866	0.105	187732	keystroke_a	a	n/a
93.9415	0.1045	187883	keystroke_b	b	n/a
94.0315	0.0895	188063	keystroke_i	i	n/a
94.152	0.104	188304	keystroke_l	l	n/a
94.2265	0.1195	188453	keystroke_i	i	n/a
94.3015	0.1495	188603	keystroke_t	t	n/a
94.4065	0.0895	188813	keystroke_y	y	n/a
94.5115	0.0745	189023	keystroke_Key.space	Key.space	n/a
94.6465	0.1495	189293	keystroke_r	r	n/a
94.766	0.15	189532	keystroke_o	o	n/a
94.871	0.12	189742	keystroke_a	a	n/a
94.9615	0.1345	189923	keystroke_d	d	n/a
95.0815	0.0745	190163	keystroke_Key.space	Key.space	n/a
95.171	0.09	190342	keystroke_n	n	n/a
95.2765	0.1045	190553	keystroke_e	e	n/a
95.4115	0.075	190823	keystroke_'	'	n/a
95.5045	0.0865	191009	keystroke_e	e	n/a
95.5615	0.1045	191123	keystroke_r	r	n/a
95.6965	0.0745	191393	keystroke_Key.enter	Key.enter	n/a
95.7825	3.216	191565	prompt	n/a	binary during ticket frames\n
96.4615	0.1045	192923	keystroke_b	b	n/a
96.5515	0.1045	193103	keystroke_i	i	n/a
96.6115	0.1045	193223	keystroke_n	n	n/a
96.7015	0.1495	193403	keystroke_a	a	n/a
96.776	0.1355	193552	keystroke_r	r	n/a
96.8965	0.0745	193793	keystroke_y	y	n/a
96.9865	0.0745	193973	keystroke_Key.space	Key.space	n/a
97.0765	0.0895	194153	keystroke_d	d	n/a
97.1365	0.0895	194273	keystroke_u	u	n/a
97.2415	0.1045	194483	keystroke_r	r	n/a
97.3615	0.1195	194723	keystroke_i	i	n/a
97.4065	0.1195	194813	keystroke_n	n	n/a
97.4665	0.1345	194933	keystroke_g	g	n/a
97.5565	0.0745	195113	keystroke_Key.space	Key.space	n/a
97.6615	0.1045	195323	keystroke_t	t	n/a
97.7515	0.0745	195503	keystroke_i	i	n/a
97.856	0.075	195712	keystroke_c	c	n/a
97.9465	0.0895	195893	keystroke_k	k	n/a
98.0215	0.1195	196043	keystroke_e	e	n/a
98.1115	0.0895	196223	keystroke_t	t	n/a
98.1715	0.075	196343	keystroke_Key.space	Key.space	n/a
98.3065	0.0745	196613	keystroke_f	f	n/a
98.4865	0.0895	196973	keystroke_r	r	n/a
98.5615	0.1345	197123	keystroke_a	a	n/a
98.666	0.075	197332	keystroke_m	m	n/a
98.7265	0.105	197453	keystroke_e	e	n/a
98.7865	0.1195	197573	keystroke_s	s	n/a
98.9365	0.0595	197873	keystroke_Key.enter	Key.enter	n/a
99.007	4.371	198014	prompt	n/a	document designers animated impose\n
99.6865	0.075	199373	keystroke_d	d	n/a
99.7765	0.075	199553	keystroke_o	o	n/a
99.852	0.074	199704	keystroke_c	c	n/a
99.9415	0.0895	199883	keystroke_u	u	n/a
100.1515	0.0745	200303	keystroke_m	m	n/a
100.2415	0.1045	200483	keystroke_e	e	n/a
100.331	0.0905	200662	keystroke_n	n	n/a
100.4365	0.1195	200873	keystroke_t	t	n/a
100.5115	0.1045	201023	keystroke_Key.space	Key.space	n/a
100.6465	0.0745	201293	keystroke_d	d	n/a
100.8115	0.1195	201623	keystroke_e	e	n/a
100.9615	0.1345	201923	keystroke_s	s	n/a
101.1115	0.1195	202223	keystroke_i	i	n/a
101.2465	0.0895	202493	keystroke_g	g	n/a
101.3515	0.0895	202703	keystroke_n	n	n/a
101.4565	0.1045	202913	keystroke_e	e	n/a
101.5315	0.1345	203063	keystroke_r	r	n/a
101.6515	0.1045	203303	keystroke_s	s	n/a
101.7415	0.1045	203483	keystroke_Key.space	Key.space	n/a
101.9065	0.1345	203813	keystroke_a	a	n/a
102.0265	0.1195	204053	keystroke_n	n	n/a
102.1615	0.1345	204323	keystroke_i	i	n/a
102.252	0.119	204504	keystroke_m	m	n/a
102.3565	0.1195	204713	keystroke_a	a	n/a
102.4465	0.0895	204893	keystroke_t	t	n/a
102.506	0.075	205012	keystroke_e	e	n/a
102.6415	0.1045	205283	keystroke_d	d	n/a
102.717	0.089	205434	keystroke_Key.space	Key.space	n/a
102.7765	0.1195	205553	keystroke_i	i	n/a
102.8515	0.165	205703	keystroke_m	m	n/a
102.9565	0.1045	205913	keystroke_p	p	n/a
103.0315	0.1045	206063	keystroke_o	o	n/a
103.1065	0.1045	206213	keystroke_s	s	n/a
103.167	0.104	206334	keystroke_e	e	n/a
103.3015	0.0745	206603	keystroke_Key.enter	Key.enter	n/a
103.385	4.2235	206770	prompt	n/a	sample entity differential tells\n
103.917	0.089	207834	keystroke_s	s	n/a
104.0365	0.1495	208073	keystroke_a	a	n/a
104.0965	0.1495	208193	keystroke_m	m	n/a
104.2015	0.0745	208403	keystroke_p	p	n/a
104.3515	0.0895	208703	keystroke_l	l	n/a
104.4115	0.1045	208823	keystroke_e	e	n/a
104.5015	0.0745	209003	keystroke_Key.space	Key.space	n/a
104.5915	0.1345	209183	keystroke_e	e	n/a
104.7115	0.0745	209423	keystroke_n	n	n/a
104.802	0.089	209604	keystroke_t	t	n/a
104.9065	0.0895	209813	keystroke_i	i	n/a
104.981	0.09	209962	keystroke_t	t	n/a
105.0865	0.0745	210173	keystroke_y	y	n/a
105.2365	0.1045	210473	keystroke_Key.space	Key.space	n/a
105.476	0.09	210952	keystroke_d	d	n/a
105.656	0.075	211312	keystroke_i	i	n/a
105.8215	0.0895	211643	keystroke_f	f	n/a
106.061	0.09	212122	keystroke_f	f	n/a
106.2715	0.105	212543	keystroke_e	e	n/a
106.3615	0.1045	212723	keystroke_r	r	n/a
106.4365	0.1045	212873	keystroke_e	e	n/a
106.5265	0.0895	213053	keystroke_n	n	n/a
106.617	0.0745	213234	keystroke_t	t	n/a
106.7065	0.0745	213413	keystroke_i	i	n/a
106.7515	0.1495	213503	keystroke_a	a	n/a
106.8715	0.0895	213743	keystroke_l	l	n/a
106.9465	0.0595	213893	keystroke_Key.space	Key.space	n/a
106.991	0.09	213982	keystroke_t	t	n/a
107.051	0.09	214102	keystroke_e	e	n/a
107.2315	0.0595	214463	keystroke_l	l	n/a
107.3515	0.0745	214703	keystroke_l	l	n/a
107.4415	0.0895	214883	keystroke_s	s	n/a
107.5765	0.0295	215153	keystroke_Key.enter	Key.enter	n/a
107.616	4.568	215232	prompt	n/a	monsters cheers forced objects\n
108.2365	0.0745	216473	keystroke_m	m	n/a
108.296	0.135	216592	keystroke_o	o	n/a
108.3865	0.1195	216773	keystroke_n	n	n/a
108.4165	0.1795	216833	keystroke_s	s	n/a
108.6265	0.1045	217253	keystroke_t	t	n/a
108.761	0.135	217522	keystroke_e	e	n/a
108.836	0.135	217672	keystroke_r	r	n/a
108.9565	0.1045	217913	keystroke_s	s	n/a
109.0765	0.0745	218153	keystroke_Key.space	Key.space	n/a
109.2565	0.0745	218513	keystroke_c	c	n/a
109.346	0.06	218692	keystroke_h	h	n/a
109.451	0.075	218902	keystroke_e	e	n/a
109.5865	0.1195	219173	keystroke_e	e	n/a
109.6765	0.1345	219353	keystroke_r	r	n/a
109.751	0.105	219502	keystroke_s	s	n/a
109.8265	0.09	219653	keystroke_Key.space	Key.space	n/a
109.9315	0.0745	219863	keystroke_f	f	n/a
110.0215	0.0745	220043	keystroke_o	o	n/a
110.0815	0.0895	220163	keystroke_r	r	n/a
110.2615	0.0895	220523	keystroke_c	c	n/a
110.4265	0.075	220853	keystroke_e	e	n/a
110.5615	0.1045	221123	keystroke_d	d	n/a
110.6515	0.1045	221303	keystroke_Key.space	Key.space	n/a
110.7415	0.0895	221483	keystroke_o	o	n/a
110.8165	0.0895	221633	keystroke_b	b	n/a
110.8915	0.1045	221783	keystroke_j	j	n/a
111.011	0.06	222022	keystroke_e	e	n/a
111.1765	0.0595	222353	keystroke_c	c	n/a
111.3265	0.0895	222653	keystroke_t	t	n/a
111.8665	0.0895	223733	keystroke_s	s	n/a
112.1215	0.0595	224243	keystroke_Key.enter	Key.enter	n/a
112.1935	3.35	224387	prompt	n/a	bahrain cakes price loaded\n
112.8265	0.1345	225653	keystroke_b	b	n/a
112.9765	0.1345	225953	keystroke_a	a	n/a
113.0665	0.0895	226133	keystroke_h	h	n/a
113.1715	0.0895	226343	keystroke_r	r	n/a
113.246	0.165	226492	keystroke_a	a	n/a
113.3665	0.1045	226733	keystroke_i	i	n/a
113.411	0.105	226822	keystroke_n	n	n/a
113.5015	0.0895	227003	keystroke_Key.space	Key.space	n/a
113.6665	0.0745	227333	keystroke_c	c	n/a
113.7715	0.1345	227543	keystroke_a	a	n/a
113.8765	0.0895	227753	keystroke_k	k	n/a
113.9515	0.1195	227903	keystroke_e	e	n/a
114.011	0.135	228022	keystroke_s	s	n/a
114.117	0.104	228234	keystroke_Key.space	Key.space	n/a
114.2065	0.1195	228413	keystroke_p	p	n/a
114.3115	0.0595	228623	keystroke_r	r	n/a
114.401	0.105	228802	keystroke_i	i	n/a
114.4765	0.0595	228953	keystroke_c	c	n/a
114.6115	0.1045	229223	keystroke_e	e	n/a
114.686	0.12	229372	keystroke_Key.space	Key.space	n/a
114.7915	0.0445	229583	keystroke_l	l	n/a
114.941	0.0755	229882	keystroke_o	o	n/a
115.001	0.09	230002	keystroke_a	a	n/a
115.076	0.0755	230152	keystroke_d	d	n/a
115.2115	0.0895	230423	keystroke_e	e	n/a
115.3615	0.0895	230723	keystroke_d	d	n/a
115.4665	0.0745	230933	keystroke_Key.enter	Key.enter	n/a
115.5525	4.416	231105	prompt	n/a	wages promotions significant infinite\n
116.1265	0.1045	232253	keystroke_w	w	n/a
116.2765	0.1195	232553	keystroke_a	a	n/a
116.3515	0.1345	232703	keystroke_g	g	n/a
116.4415	0.1495	232883	keystroke_e	e	n/a
116.5015	0.1345	233003	keystroke_s	s	n/a
116.6065	0.1045	233213	keystroke_Key.space	Key.space	n/a
116.6965	0.1045	233393	keystroke_p	p	n/a
116.8165	0.0895	233633	keystroke_r	r	n/a
116.8765	0.1195	233753	keystroke_o	o	n/a
116.9665	0.1345	233933	keystroke_m	m	n/a
117.1165	0.1045	234233	keystroke_o	o	n/a
117.2665	0.1195	234533	keystroke_t	t	n/a
117.4015	0.2095	234803	keystroke_i	i	n/a
117.4765	0.1495	234953	keystroke_o	o	n/a
117.5365	0.1345	235073	keystroke_n	n	n/a
117.6715	0.0895	235343	keystroke_s	s	n/a
117.7465	0.1045	235493	keystroke_Key.space	Key.space	n/a
117.9715	0.0895	235943	keystroke_s	s	n/a
118.0765	0.1195	236153	keystroke_i	i	n/a
118.1515	0.1195	236303	keystroke_g	g	n/a
118.2565	0.1045	236513	keystroke_n	n	n/a
118.3765	0.0745	236753	keystroke_i	i	n/a
118.3915	0.1045	236783	keystroke_f	f	n/a
118.5415	0.0895	237083	keystroke_i	i	n/a
118.601	0.09	237202	keystroke_c	c	n/a
118.7515	0.1345	237503	keystroke_a	a	n/a
118.8415	0.0775	237683	keystroke_n	n	n/a
118.9015	0.1345	237803	keystroke_t	t	n/a
118.9915	0.1045	237983	keystroke_Key.space	Key.space	n/a
119.1115	0.1195	238223	keystroke_i	i	n/a
119.201	0.12	238402	keystroke_n	n	n/a
119.3065	0.1045	238613	keystroke_f	f	n/a
119.4415	0.0895	238883	keystroke_i	i	n/a
119.5165	0.1345	239033	keystroke_n	n	n/a
119.6215	0.0895	239243	keystroke_i	i	n/a
119.636	0.105	239272	keystroke_t	t	n/a
119.6965	0.1195	239393	keystroke_e	e	n/a
119.9065	0.06	239813	keystroke_Key.enter	Key.enter	n/a
119.982	3.496	239964	prompt	n/a	which's plains despite ascii\n
120.5365	0.0745	241073	keystroke_w	w	n/a
120.596	0.105	241192	keystroke_h	h	n/a
120.6715	0.0895	241343	keystroke_i	i	n/a
120.746	0.105	241492	keystroke_c	c	n/a
120.8365	0.0745	241673	keystroke_h	h	n/a
120.896	0.105	241792	keystroke_'	'	n/a
120.9865	0.105	241973	keystroke_s	s	n/a
121.061	0.1055	242122	keystroke_Key.space	Key.space	n/a
121.2265	0.0895	242453	keystroke_p	p	n/a
121.4065	0.0745	242813	keystroke_l	l	n/a
121.5115	0.1495	243023	keystroke_a	a	n/a
121.6165	0.1345	243233	keystroke_i	i	n/a
121.6915	0.0895	243383	keystroke_n	n	n/a
121.7665	0.1045	243533	keystroke_s	s	n/a
121.886	0.075	243772	keystroke_Key.space	Key.space	n/a
122.0065	0.0745	244013	keystroke_d	d	n/a
122.1865	0.0595	244373	keystroke_e	e	n/a
122.2165	0.1495	244433	keystroke_s	s	n/a
122.3215	0.1195	244643	keystroke_p	p	n/a
122.3965	0.1045	244793	keystroke_i	i	n/a
122.4865	0.1045	244973	keystroke_t	t	n/a
122.5315	0.1195	245063	keystroke_e	e	n/a
122.6365	0.0895	245273	keystroke_Key.space	Key.space	n/a
122.7415	0.0895	245483	keystroke_a	a	n/a
122.8915	0.0745	245783	keystroke_s	s	n/a
123.0415	0.0895	246083	keystroke_c	c	n/a
123.1165	0.0595	246233	keystroke_i	i	n/a
123.2665	0.06	246533	keystroke_i	i	n/a
123.4165	0.0595	246833	keystroke_Key.enter	Key.enter	n/a
123.486	3.517	246972	prompt	n/a	capability right thing spell\n
124.1815	0.0445	248363	keystroke_c	c	n/a
124.2415	0.1345	248483	keystroke_a	a	n/a
124.3315	0.1045	248663	keystroke_p	p	n/a
124.4665	0.1045	248933	keystroke_a	a	n/a
124.5415	0.0895	249083	keystroke_b	b	n/a
124.616	0.12	249232	keystroke_i	i	n/a
124.7815	0.1345	249563	keystroke_l	l	n/a
124.8715	0.1495	249743	keystroke_i	i	n/a
125.0065	0.1045	250013	keystroke_t	t	n/a
125.1415	0.0745	250283	keystroke_y	y	n/a
125.261	0.09	250522	keystroke_Key.space	Key.space	n/a
125.411	0.105	250822	keystroke_r	r	n/a
125.5315	0.0895	251063	keystroke_i	i	n/a
125.6065	0.0745	251213	keystroke_g	g	n/a
125.6965	0.0745	251393	keystroke_h	h	n/a
125.7565	0.1045	251513	keystroke_t	t	n/a
125.8315	0.1045	251663	keystroke_Key.space	Key.space	n/a
125.9065	0.1195	251813	keystroke_t	t	n/a
125.9665	0.1045	251933	keystroke_h	h	n/a
126.0565	0.1495	252113	keystroke_i	i	n/a
126.1315	0.1345	252263	keystroke_n	n	n/a
126.1915	0.1045	252383	keystroke_g	g	n/a
126.251	0.0755	252502	keystroke_Key.space	Key.space	n/a
126.3415	0.1045	252683	keystroke_s	s	n/a
126.4315	0.0895	252863	keystroke_p	p	n/a
126.5365	0.0895	253073	keystroke_e	e	n/a
126.6415	0.0595	253283	keystroke_l	l	n/a
126.776	0.06	253552	keystroke_l	l	n/a
126.9415	0.0595	253883	keystroke_Key.enter	Key.enter	n/a
127.015	3.5735	254030	prompt	n/a	shed took most statement\n
127.6015	0.0895	255203	keystroke_s	s	n/a
127.6765	0.0895	255353	keystroke_h	h	n/a
127.751	0.09	255502	keystroke_e	e	n/a
128.1865	0.1345	256373	keystroke_d	d	n/a
128.3515	0.0745	256703	keystroke_Key.space	Key.space	n/a
128.5465	0.0895	257093	keystroke_t	t	n/a
128.6815	0.0895	257363	keystroke_o	o	n/a
128.8315	0.1195	257663	keystroke_o	o	n/a
128.8915	0.1045	257783	keystroke_k	k	n/a
128.9815	0.1195	257963	keystroke_Key.space	Key.space	n/a
129.0715	0.1195	258143	keystroke_m	m	n/a
129.1615	0.1195	258323	keystroke_o	o	n/a
129.1765	0.12	258353	keystroke_s	s	n/a
129.2665	0.0895	258533	keystroke_t	t	n/a
129.312	0.089	258624	keystroke_Key.space	Key.space	n/a
129.4315	0.1195	258863	keystroke_s	s	n/a
129.5365	0.1195	259073	keystroke_t	t	n/a
129.6715	0.1345	259343	keystroke_a	a	n/a
129.7765	0.0895	259553	keystroke_t	t	n/a
129.822	0.089	259644	keystroke_e	e	n/a
129.9415	0.0895	259883	keystroke_m	m	n/a
130.0165	0.09	260033	keystroke_e	e	n/a
130.1215	0.0745	260243	keystroke_n	n	n/a
130.1815	0.0895	260363	keystroke_t	t	n/a
130.5115	0.0745	261023	keystroke_Key.enter	Key.enter	n/a
130.597	4.656	261194	prompt	n/a	wanting hughes appreciated curve\n
131.306	0.09	262612	keystroke_w	w	n/a
131.411	0.105	262822	keystroke_a	a	n/a
131.4565	0.09	262913	keystroke_n	n	n/a
131.5765	0.1195	263153	keystroke_t	t	n/a
131.6815	0.09	263363	keystroke_i	i	n/a
131.726	0.09	263452	keystroke_n	n	n/a
131.8015	0.1045	263603	keystroke_g	g	n/a
131.8915	0.0595	263783	keystroke_Key.space	Key.space	n/a
131.9365	0.0895	263873	keystroke_h	h	n/a
132.1165	0.0745	264233	keystroke_u	u	n/a
132.2065	0.1195	264413	keystroke_g	g	n/a
132.2965	0.0895	264593	keystroke_h	h	n/a
132.3565	0.1495	264713	keystroke_e	e	n/a
132.4465	0.1045	264893	keystroke_s	s	n/a
132.536	0.075	265072	keystroke_Key.space	Key.space	n/a
132.6265	0.1195	265253	keystroke_a	a	n/a
132.8065	0.0445	265613	keystroke_p	p	n/a
132.941	0.0905	265882	keystroke_p	p	n/a
133.0165	0.1045	266033	keystroke_r	r	n/a
133.0765	0.0895	266153	keystroke_e	e	n/a
133.2865	0.0895	266573	keystroke_c	c	n/a
133.3765	0.1045	266753	keystroke_i	i	n/a
133.4815	0.0745	266963	keystroke_a	a	n/a
133.511	0.105	267022	keystroke_t	t	n/a
133.5865	0.0895	267173	keystroke_e	e	n/a
133.7365	0.1195	267473	keystroke_d	d	n/a
133.8565	0.0745	267713	keystroke_Key.space	Key.space	n/a
133.976	0.09	267952	keystroke_c	c	n/a
134.0815	0.1045	268163	keystroke_u	u	n/a
134.1715	0.0745	268343	keystroke_r	r	n/a
134.4115	0.0895	268823	keystroke_e	e	n/a
134.8015	0.0745	269603	keystroke_Key.backspace	Key.backspace	n/a
134.9065	0.1045	269813	keystroke_v	v	n/a
134.9965	0.075	269993	keystroke_e	e	n/a
135.1915	0.0595	270383	keystroke_Key.enter	Key.enter	n/a
135.2605	4.3575	270521	prompt	n/a	sisters earthquake medicine import\n
135.8665	0.0895	271733	keystroke_s	s	n/a
136.0015	0.0745	272003	keystroke_i	i	n/a
136.0465	0.1045	272093	keystroke_s	s	n/a
136.166	0.105	272332	keystroke_t	t	n/a
136.3015	0.1045	272603	keystroke_e	e	n/a
136.3615	0.1495	272723	keystroke_r	r	n/a
136.4665	0.1195	272933	keystroke_s	s	n/a
136.5565	0.0895	273113	keystroke_Key.space	Key.space	n/a
136.7065	0.1345	273413	keystroke_e	e	n/a
136.826	0.135	273652	keystroke_a	a	n/a
136.9315	0.0895	273863	keystroke_r	r	n/a
137.0965	0.0895	274193	keystroke_t	t	n/a
137.1715	0.0745	274343	keystroke_h	h	n/a
137.2615	0.0895	274523	keystroke_q	q	n/a
137.3815	0.0895	274763	keystroke_u	u	n/a
137.4865	0.1195	274973	keystroke_a	a	n/a
137.6215	0.0895	275243	keystroke_k	k	n/a
137.6965	0.1045	275393	keystroke_e	e	n/a
137.7865	0.1045	275573	keystroke_Key.space	Key.space	n/a
137.9515	0.0895	275903	keystroke_m	m	n/a
138.1165	0.0745	276233	keystroke_e	e	n/a
138.3115	0.0595	276623	keystroke_d	d	n/a
138.3865	0.09	276773	keystroke_i	i	n/a
138.4915	0.0745	276983	keystroke_c	c	n/a
138.5815	0.1195	277163	keystroke_i	i	n/a
138.6415	0.1345	277283	keystroke_n	n	n/a
138.7165	0.1345	277433	keystroke_e	e	n/a
138.7915	0.1195	277583	keystroke_Key.space	Key.space	n/a
138.9565	0.1045	277913	keystroke_i	i	n/a
139.0165	0.1795	278033	keystroke_m	m	n/a
139.1515	0.1195	278303	keystroke_p	p	n/a
139.2265	0.1195	278453	keystroke_o	o	n/a
139.2865	0.0745	278573	keystroke_r	r	n/a
139.436	0.09	278872	keystroke_t	t	n/a
139.5415	0.0745	279083	keystroke_Key.enter	Key.enter	n/a
139.626	3.922	279252	prompt	n/a	rough lesbians quest meetings\n
140.4265	0.1195	280853	keystroke_r	r	n/a
140.5165	0.0895	281033	keystroke_o	o	n/a
140.5915	0.0895	281183	keystroke_u	u	n/a
140.6365	0.1495	281273	keystroke_g	g	n/a
140.7415	0.105	281483	keystroke_h	h	n/a
140.8615	0.1045	281723	keystroke_Key.space	Key.space	n/a
140.9815	0.0895	281963	keystroke_l	l	n/a
141.0565	0.1495	282113	keystroke_e	e	n/a
141.1465	0.1195	282293	keystroke_s	s	n/a
141.326	0.1205	282652	keystroke_b	b	n/a
141.431	0.105	282862	keystroke_i	i	n/a
141.5515	0.1495	283103	keystroke_a	a	n/a
141.6265	0.1045	283253	keystroke_n	n	n/a
141.7165	0.1345	283433	keystroke_s	s	n/a
141.8665	0.0895	283733	keystroke_Key.space	Key.space	n/a
142.0465	0.0895	284093	keystroke_q	q	n/a
142.1515	0.105	284303	keystroke_u	u	n/a
142.241	0.21	284482	keystroke_e	e	n/a
142.3015	0.1645	284603	keystroke_s	s	n/a
142.421	0.1805	284842	keystroke_t	t	n/a
142.5865	0.0895	285173	keystroke_Key.space	Key.space	n/a
142.7215	0.0895	285443	keystroke_m	m	n/a
142.7965	0.0595	285593	keystroke_e	e	n/a
142.9465	0.12	285893	keystroke_e	e	n/a
143.0515	0.1045	286103	keystroke_t	t	n/a
143.1415	0.1195	286283	keystroke_i	i	n/a
143.216	0.09	286432	keystroke_n	n	n/a
143.276	0.09	286552	keystroke_g	g	n/a
143.3365	0.12	286673	keystroke_s	s	n/a
143.4715	0.0745	286943	keystroke_Key.enter	Key.enter	n/a
143.555	3.653	287110	prompt	n/a	so sewing packages assault\n
144.2515	0.1495	288503	keystroke_s	s	n/a
144.341	0.09	288682	keystroke_o	o	n/a
144.4465	0.1345	288893	keystroke_Key.space	Key.space	n/a
144.5965	0.1645	289193	keystroke_s	s	n/a
144.7465	0.1495	289493	keystroke_e	e	n/a
144.8815	0.1495	289763	keystroke_w	w	n/a
145.0465	0.1195	290093	keystroke_i	i	n/a
145.1065	0.1045	290213	keystroke_n	n	n/a
145.1815	0.1195	290363	keystroke_g	g	n/a
145.2565	0.1045	290513	keystroke_Key.space	Key.space	n/a
145.3765	0.1045	290753	keystroke_p	p	n/a
145.496	0.0755	290992	keystroke_a	a	n/a
145.6015	0.1195	291203	keystroke_c	c	n/a
145.7065	0.09	291413	keystroke_k	k	n/a
145.7815	0.1195	291563	keystroke_a	a	n/a
145.8715	0.1645	291743	keystroke_g	g	n/a
145.9465	0.18	291893	keystroke_e	e	n/a
146.0215	0.135	292043	keystroke_s	s	n/a
146.1415	0.0745	292283	keystroke_Key.space	Key.space	n/a
146.2465	0.1045	292493	keystroke_a	a	n/a
146.3365	0.0745	292673	keystroke_s	s	n/a
146.5015	0.0595	293003	keystroke_s	s	n/a
146.6215	0.1345	293243	keystroke_a	a	n/a
146.7415	0.0895	293483	keystroke_u	u	n/a
146.8615	0.0895	293723	keystroke_l	l	n/a
146.9965	0.075	293993	keystroke_t	t	n/a
147.1165	0.0895	294233	keystroke_Key.enter	Key.enter	n/a
147.215	5.6635	294430	prompt	n/a	expanded thee basement progressive\n
147.8965	0.0745	295793	keystroke_e	e	n/a
148.0765	0.0895	296153	keystroke_x	x	n/a
148.1965	0.1195	296393	keystroke_p	p	n/a
148.332	0.089	296664	keystroke_a	a	n/a
148.4215	0.09	296843	keystroke_n	n	n/a
148.4965	0.0595	296993	keystroke_d	d	n/a
148.6615	0.0445	297323	keystroke_e	e	n/a
148.7815	0.1345	297563	keystroke_d	d	n/a
148.8865	0.0895	297773	keystroke_Key.space	Key.space	n/a
149.0515	0.1045	298103	keystroke_t	t	n/a
149.1415	0.0745	298283	keystroke_h	h	n/a
149.2315	0.075	298463	keystroke_e	e	n/a
149.3815	0.1195	298763	keystroke_e	e	n/a
149.5165	0.0895	299033	keystroke_Key.space	Key.space	n/a
149.7115	0.1045	299423	keystroke_b	b	n/a
149.9515	0.165	299903	keystroke_s	s	n/a
149.9665	0.0145	299933	keystroke_a	a	n/a
150.4615	0.0595	300923	keystroke_Key.backspace	Key.backspace	n/a
150.5965	0.0895	301193	keystroke_Key.backspace	Key.backspace	n/a
150.7165	0.1195	301433	keystroke_a	a	n/a
150.821	0.1505	301642	keystroke_s	s	n/a
150.9565	0.0895	301913	keystroke_e	e	n/a
151.0765	0.1045	302153	keystroke_m	m	n/a
151.181	0.12	302362	keystroke_e	e	n/a
151.2865	0.0895	302573	keystroke_n	n	n/a
151.3915	0.1195	302783	keystroke_t	t	n/a
151.4515	0.1045	302903	keystroke_Key.space	Key.space	n/a
151.571	0.1055	303142	keystroke_p	p	n/a
151.6615	0.1045	303323	keystroke_r	r	n/a
151.7815	0.0895	303563	keystroke_o	o	n/a
151.8565	0.0745	303713	keystroke_g	g	n/a
152.0215	0.1045	304043	keystroke_r	r	n/a
152.096	0.09	304192	keystroke_e	e	n/a
152.1565	0.0895	304313	keystroke_s	s	n/a
152.3215	0.1195	304643	keystroke_s	s	n/a
152.456	0.105	304912	keystroke_i	i	n/a
152.546	0.1055	305092	keystroke_v	v	n/a
152.6365	0.0895	305273	keystroke_e	e	n/a
152.8165	0.0595	305633	keystroke_Key.enter	Key.enter	n/a
152.8865	3.6965	305773	prompt	n/a	janet fight combination coated\n
153.7615	0.1345	307523	keystroke_j	j	n/a
153.9415	0.1195	307883	keystroke_a	a	n/a
154.0465	0.0895	308093	keystroke_n	n	n/a
154.1215	0.1195	308243	keystroke_e	e	n/a
154.2265	0.1195	308453	keystroke_t	t	n/a
154.301	0.105	308602	keystroke_Key.space	Key.space	n/a
154.4365	0.1045	308873	keystroke_f	f	n/a
154.5265	0.0745	309053	keystroke_i	i	n/a
154.6315	0.0745	309263	keystroke_g	g	n/a
154.7215	0.0595	309443	keystroke_h	h	n/a
154.7665	0.1045	309533	keystroke_t	t	n/a
154.8415	0.0895	309683	keystroke_Key.space	Key.space	n/a
154.9915	0.0895	309983	keystroke_c	c	n/a
155.0515	0.1045	310103	keystroke_o	o	n/a
155.1115	0.1045	310223	keystroke_m	m	n/a
155.2015	0.0895	310403	keystroke_b	b	n/a
155.3065	0.1045	310613	keystroke_i	i	n/a
155.351	0.105	310702	keystroke_n	n	n/a
155.442	0.134	310884	keystroke_a	a	n/a
155.5015	0.1045	311003	keystroke_t	t	n/a
155.591	0.1355	311182	keystroke_i	i	n/a
155.6515	0.1195	311303	keystroke_o	o	n/a
155.6965	0.1195	311393	keystroke_n	n	n/a
155.8015	0.0745	311603	keystroke_Key.space	Key.space	n/a
155.9215	0.0895	311843	keystroke_c	c	n/a
156.0415	0.0595	312083	keystroke_o	o	n/a
156.1165	0.1045	312233	keystroke_a	a	n/a
156.1765	0.1045	312353	keystroke_t	t	n/a
156.2365	0.0745	312473	keystroke_e	e	n/a
156.3865	0.1045	312773	keystroke_d	d	n/a
156.521	0.06	313042	keystroke_Key.enter	Key.enter	n/a
156.5905	5.1225	313181	prompt	n/a	spiritual vegetables ballet honors\n
157.2415	0.1195	314483	keystroke_s	s	n/a
157.3765	0.1045	314753	keystroke_p	p	n/a
157.662	0.0895	315324	keystroke_i	i	n/a
158.1865	0.12	316373	keystroke_r	r	n/a
158.2915	0.1045	316583	keystroke_i	i	n/a
158.4115	0.09	316823	keystroke_t	t	n/a
158.4865	0.0895	316973	keystroke_u	u	n/a
158.5615	0.1645	317123	keystroke_a	a	n/a
158.6815	0.0895	317363	keystroke_l	l	n/a
158.7565	0.0745	317513	keystroke_Key.space	Key.space	n/a
158.8615	0.075	317723	keystroke_v	v	n/a
158.9815	0.1195	317963	keystroke_e	e	n/a
159.1165	0.0895	318233	keystroke_g	g	n/a
159.2215	0.12	318443	keystroke_e	e	n/a
159.3265	0.1195	318653	keystroke_t	t	n/a
159.4615	0.105	318923	keystroke_a	a	n/a
159.5515	0.0895	319103	keystroke_b	b	n/a
159.6715	0.0895	319343	keystroke_l	l	n/a
159.7315	0.1495	319463	keystroke_e	e	n/a
159.8215	0.1195	319643	keystroke_s	s	n/a
159.9265	0.1045	319853	keystroke_Key.space	Key.space	n/a
160.0765	0.0895	320153	keystroke_a	a	n/a
160.1515	0.0745	320303	keystroke_b	b	n/a
160.3015	0.0895	320603	keystroke_l	l	n/a
160.4515	0.1045	320903	keystroke_l	l	n/a
160.527	0.119	321054	keystroke_e	e	n/a
160.6015	0.1195	321203	keystroke_t	t	n/a
160.677	0.104	321354	keystroke_Key.space	Key.space	n/a
160.7665	0.0755	321533	keystroke_h	h	n/a
160.842	0.119	321684	keystroke_o	o	n/a
160.9765	0.0895	321953	keystroke_n	n	n/a
161.0515	0.1045	322103	keystroke_o	o	n/a
161.142	0.104	322284	keystroke_r	r	n/a
161.2165	0.1195	322433	keystroke_s	s	n/a
161.6365	0.0745	323273	keystroke_Key.enter	Key.enter	n/a
161.721	3.5175	323442	prompt	n/a	meet copper paper century\n
162.3265	0.0895	324653	keystroke_m	m	n/a
162.4015	0.0595	324803	keystroke_e	e	n/a
162.5665	0.1045	325133	keystroke_e	e	n/a
162.6415	0.1195	325283	keystroke_t	t	n/a
162.7465	0.0745	325493	keystroke_Key.space	Key.space	n/a
162.8815	0.0895	325763	keystroke_c	c	n/a
162.9415	0.075	325883	keystroke_o	o	n/a
163.106	0.075	326212	keystroke_p	p	n/a
163.256	0.121	326512	keystroke_p	p	n/a
163.3625	0.1185	326725	keystroke_e	e	n/a
163.4215	0.1345	326843	keystroke_r	r	n/a
163.5115	0.1195	327023	keystroke_Key.space	Key.space	n/a
163.6615	0.075	327323	keystroke_p	p	n/a
163.7965	0.1345	327593	keystroke_a	a	n/a
163.9465	0.0745	327893	keystroke_p	p	n/a
164.0365	0.1045	328073	keystroke_e	e	n/a
164.0965	0.1195	328193	keystroke_r	r	n/a
164.171	0.105	328342	keystroke_Key.space	Key.space	n/a
164.3215	0.06	328643	keystroke_c	c	n/a
164.5015	0.0895	329003	keystroke_e	e	n/a
164.5615	0.0895	329123	keystroke_n	n	n/a
164.697	0.104	329394	keystroke_t	t	n/a
164.8165	0.0895	329633	keystroke_u	u	n/a
164.8915	0.1045	329783	keystroke_r	r	n/a
165.0115	0.0595	330023	keystroke_y	y	n/a
165.1615	0.0745	330323	keystroke_Key.enter	Key.enter	n/a
165.2465	5.197	330493	prompt	n/a	earthquake sufficiently longest pollution\n
165.9865	0.1345	331973	keystroke_e	e	n/a
166.0915	0.135	332183	keystroke_a	a	n/a
166.1665	0.105	332333	keystroke_r	r	n/a
166.3615	0.1045	332723	keystroke_t	t	n/a
166.4215	0.0895	332843	keystroke_h	h	n/a
166.5265	0.09	333053	keystroke_q	q	n/a
166.6315	0.0895	333263	keystroke_u	u	n/a
166.7365	0.1345	333473	keystroke_a	a	n/a
166.8865	0.1045	333773	keystroke_k	k	n/a
166.9465	0.0895	333893	keystroke_e	e	n/a
167.0215	0.0895	334043	keystroke_Key.space	Key.space	n/a
167.1415	0.105	334283	keystroke_s	s	n/a
167.3965	0.0745	334793	keystroke_u	u	n/a
167.4865	0.06	334973	keystroke_f	f	n/a
167.6215	0.0895	335243	keystroke_f	f	n/a
167.7265	0.0595	335453	keystroke_i	i	n/a
167.816	0.075	335632	keystroke_c	c	n/a
167.9065	0.0895	335813	keystroke_i	i	n/a
168.0115	0.0745	336023	keystroke_e	e	n/a
168.0715	0.0895	336143	keystroke_n	n	n/a
168.1765	0.0895	336353	keystroke_t	t	n/a
168.2815	0.0895	336563	keystroke_l	l	n/a
168.326	0.09	336652	keystroke_y	y	n/a
168.4165	0.1045	336833	keystroke_Key.space	Key.space	n/a
168.536	0.075	337072	keystroke_l	l	n/a
168.7165	0.1045	337433	keystroke_o	o	n/a
168.7615	0.1195	337523	keystroke_n	n	n/a
168.8965	0.1195	337793	keystroke_g	g	n/a
168.957	0.224	337914	keystroke_e	e	n/a
169.032	0.1645	338064	keystroke_s	s	n/a
169.1365	0.1195	338273	keystroke_t	t	n/a
169.226	0.09	338452	keystroke_Key.space	Key.space	n/a
169.3315	0.1195	338663	keystroke_p	p	n/a
169.421	0.075	338842	keystroke_o	o	n/a
169.6615	0.0145	339323	keystroke_l	l	n/a
169.7215	0.0895	339443	keystroke_l	l	n/a
169.8565	0.0745	339713	keystroke_u	u	n/a
169.947	0.1045	339894	keystroke_t	t	n/a
170.0365	0.1645	340073	keystroke_i	i	n/a
170.0965	0.135	340193	keystroke_o	o	n/a
170.1715	0.1045	340343	keystroke_n	n	n/a
170.3665	0.0745	340733	keystroke_Key.enter	Key.enter	n/a
170.4515	4.6265	340903	prompt	n/a	launched wellington knows receptors\n
171.0715	0.1195	342143	keystroke_l	l	n/a
171.2515	0.0595	342503	keystroke_a	a	n/a
171.2965	0.1045	342593	keystroke_u	u	n/a
171.4915	0.0895	342983	keystroke_n	n	n/a
171.6265	0.1045	343253	keystroke_c	c	n/a
171.7465	0.0445	343493	keystroke_h	h	n/a
171.8065	0.0745	343613	keystroke_e	e	n/a
171.9565	0.105	343913	keystroke_d	d	n/a
172.062	0.104	344124	keystroke_Key.space	Key.space	n/a
172.2115	0.1195	344423	keystroke_w	w	n/a
172.2865	0.1045	344573	keystroke_e	e	n/a
172.4075	0.0885	344815	keystroke_l	l	n/a
172.6015	0.1045	345203	keystroke_l	l	n/a
172.6765	0.1345	345353	keystroke_i	i	n/a
172.7515	0.105	345503	keystroke_n	n	n/a
172.8715	0.0745	345743	keystroke_g	g	n/a
173.037	0.1045	346074	keystroke_t	t	n/a
173.1115	0.0895	346223	keystroke_o	o	n/a
173.1865	0.0895	346373	keystroke_n	n	n/a
173.2615	0.1045	346523	keystroke_Key.space	Key.space	n/a
173.382	0.09	346764	keystroke_k	k	n/a
173.4415	0.1345	346883	keystroke_n	n	n/a
173.5315	0.1045	347063	keystroke_o	o	n/a
173.5915	0.075	347183	keystroke_w	w	n/a
173.771	0.12	347542	keystroke_s	s	n/a
173.9065	0.0595	347813	keystroke_Key.space	Key.space	n/a
173.9815	0.1195	347963	keystroke_r	r	n/a
174.0865	0.0595	348173	keystroke_e	e	n/a
174.2515	0.0745	348503	keystroke_c	c	n/a
174.4315	0.0745	348863	keystroke_e	e	n/a
174.5215	0.0895	349043	keystroke_p	p	n/a
174.6115	0.0895	349223	keystroke_t	t	n/a
174.7165	0.0895	349433	keystroke_o	o	n/a
174.7915	0.1045	349583	keystroke_r	r	n/a
174.8665	0.12	349733	keystroke_s	s	n/a
175.0015	0.0745	350003	keystroke_Key.enter	Key.enter	n/a
175.085	4.6125	350170	prompt	n/a	spencer premium possible rendering\n
175.6765	0.1495	351353	keystroke_s	s	n/a
175.8115	0.0745	351623	keystroke_p	p	n/a
175.8715	0.0745	351743	keystroke_e	e	n/a
176.0065	0.0895	352013	keystroke_n	n	n/a
176.1115	0.06	352223	keystroke_c	c	n/a
176.2915	0.1045	352583	keystroke_e	e	n/a
176.3515	0.12	352703	keystroke_r	r	n/a
176.4265	0.1195	352853	keystroke_Key.space	Key.space	n/a
176.5315	0.1195	353063	keystroke_p	p	n/a
176.607	0.134	353214	keystroke_r	r	n/a
176.7115	0.1195	353423	keystroke_e	e	n/a
176.8315	0.1195	353663	keystroke_m	m	n/a
176.9665	0.0895	353933	keystroke_i	i	n/a
177.1315	0.09	354263	keystroke_u	u	n/a
177.3415	0.0745	354683	keystroke_m	m	n/a
177.4615	0.1045	354923	keystroke_Key.space	Key.space	n/a
177.5515	0.105	355103	keystroke_p	p	n/a
177.6415	0.0895	355283	keystroke_o	o	n/a
177.7315	0.075	355463	keystroke_s	s	n/a
177.882	0.119	355764	keystroke_s	s	n/a
177.9415	0.135	355883	keystroke_i	i	n/a
178.1365	0.1045	356273	keystroke_b	b	n/a
178.2265	0.1045	356453	keystroke_l	l	n/a
178.3615	0.1645	356723	keystroke_e	e	n/a
178.5115	0.1045	357023	keystroke_Key.space	Key.space	n/a
178.6765	0.1045	357353	keystroke_r	r	n/a
178.7365	0.09	357473	keystroke_e	e	n/a
178.8715	0.0745	357743	keystroke_n	n	n/a
178.9765	0.0595	357953	keystroke_d	d	n/a
179.1265	0.0895	358253	keystroke_e	e	n/a
179.1715	0.1195	358343	keystroke_r	r	n/a
179.2465	0.1195	358493	keystroke_i	i	n/a
179.3065	0.09	358613	keystroke_n	n	n/a
179.4415	0.0445	358883	keystroke_g	g	n/a
179.6215	0.0745	359243	keystroke_Key.enter	Key.enter	n/a
179.7045	3.998	359409	prompt	n/a	conflicts condos buffalo above\n
180.386	0.09	360772	keystroke_c	c	n/a
180.432	0.119	360864	keystroke_o	o	n/a
180.4915	0.0895	360983	keystroke_n	n	n/a
180.5665	0.1045	361133	keystroke_f	f	n/a
180.6865	0.1045	361373	keystroke_l	l	n/a
180.7315	0.1195	361463	keystroke_i	i	n/a
180.8065	0.0595	361613	keystroke_c	c	n/a
180.9265	0.1195	361853	keystroke_t	t	n/a
181.0165	0.1195	362033	keystroke_s	s	n/a
181.091	0.09	362182	keystroke_Key.space	Key.space	n/a
181.2565	0.0745	362513	keystroke_c	c	n/a
181.272	0.149	362544	keystroke_o	o	n/a
181.3615	0.105	362723	keystroke_n	n	n/a
181.5715	0.12	363143	keystroke_d	d	n/a
181.722	0.104	363444	keystroke_o	o	n/a
181.8565	0.12	363713	keystroke_s	s	n/a
181.9615	0.1045	363923	keystroke_Key.space	Key.space	n/a
182.2015	0.0895	364403	keystroke_b	b	n/a
182.3065	0.0895	364613	keystroke_u	u	n/a
182.4415	0.0595	364883	keystroke_f	f	n/a
182.5915	0.075	365183	keystroke_f	f	n/a
182.6515	0.1495	365303	keystroke_a	a	n/a
182.7415	0.09	365483	keystroke_l	l	n/a
182.9215	0.0895	365843	keystroke_o	o	n/a
183.041	0.12	366082	keystroke_Key.space	Key.space	n/a
183.1315	0.1345	366263	keystroke_a	a	n/a
183.237	0.089	366474	keystroke_b	b	n/a
183.3265	0.1045	366653	keystroke_o	o	n/a
183.4175	0.1035	366835	keystroke_v	v	n/a
183.4915	0.1045	366983	keystroke_e	e	n/a
183.6265	0.0745	367253	keystroke_Key.enter	Key.enter	n/a
183.7135	6.2295	367427	prompt	n/a	deadline uzbekistan circumstances sunshine\n
185.0815	0.075	370163	keystroke_d	d	n/a
185.2315	0.1045	370463	keystroke_e	e	n/a
185.3215	0.15	370643	keystroke_a	a	n/a
185.4415	0.1045	370883	keystroke_d	d	n/a
185.5165	0.1045	371033	keystroke_l	l	n/a
185.5765	0.1345	371153	keystroke_i	i	n/a
185.6365	0.12	371273	keystroke_n	n	n/a
185.6815	0.1195	371363	keystroke_e	e	n/a
185.7715	0.0895	371543	keystroke_Key.space	Key.space	n/a
185.9215	0.12	371843	keystroke_u	u	n/a
185.9965	0.1195	371993	keystroke_z	z	n/a
186.1915	0.1045	372383	keystroke_b	b	n/a
186.3565	0.105	372713	keystroke_e	e	n/a
186.4465	0.0745	372893	keystroke_k	k	n/a
186.612	0.1045	373224	keystroke_i	i	n/a
186.6865	0.1195	373373	keystroke_s	s	n/a
186.7615	0.1045	373523	keystroke_t	t	n/a
186.8515	0.1945	373703	keystroke_a	a	n/a
186.9565	0.09	373913	keystroke_n	n	n/a
187.077	0.089	374154	keystroke_Key.space	Key.space	n/a
187.3165	0.105	374633	keystroke_c	c	n/a
187.4515	0.0895	374903	keystroke_i	i	n/a
187.587	0.074	375174	keystroke_r	r	n/a
187.7515	0.0895	375503	keystroke_c	c	n/a
187.8265	0.0895	375653	keystroke_u	u	n/a
188.0215	0.1045	376043	keystroke_m	m	n/a
188.2465	0.1345	376493	keystroke_s	s	n/a
188.3515	0.1045	376703	keystroke_t	t	n/a
188.4415	0.1045	376883	keystroke_a	a	n/a
188.5315	0.12	377063	keystroke_n	n	n/a
188.637	0.059	377274	keystroke_c	c	n/a
188.8015	0.1045	377603	keystroke_e	e	n/a
188.8615	0.1195	377723	keystroke_s	s	n/a
188.9365	0.0895	377873	keystroke_Key.space	Key.space	n/a
189.0565	0.1045	378113	keystroke_s	s	n/a
189.1315	0.0745	378263	keystroke_u	u	n/a
189.3115	0.0745	378623	keystroke_n	n	n/a
189.4015	0.1345	378803	keystroke_s	s	n/a
189.5065	0.1045	379013	keystroke_h	h	n/a
189.5965	0.1345	379193	keystroke_i	i	n/a
189.6865	0.0895	379373	keystroke_n	n	n/a
189.7465	0.0745	379493	keystroke_e	e	n/a
189.8665	0.0745	379733	keystroke_Key.enter	Key.enter	n/a
189.951	3.4875	379902	prompt	n/a	setup personally costa pencil\n
190.632	0.134	381264	keystroke_s	s	n/a
190.6915	0.1495	381383	keystroke_e	e	n/a
190.7965	0.12	381593	keystroke_t	t	n/a
190.8565	0.12	381713	keystroke_u	u	n/a
190.9315	0.0895	381863	keystroke_p	p	n/a
191.037	0.104	382074	keystroke_Key.space	Key.space	n/a
191.1265	0.1195	382253	keystroke_p	p	n/a
191.2315	0.0895	382463	keystroke_e	e	n/a
191.2765	0.1045	382553	keystroke_r	r	n/a
191.3365	0.1195	382673	keystroke_s	s	n/a
191.4415	0.0895	382883	keystroke_o	o	n/a
191.487	0.089	382974	keystroke_n	n	n/a
191.5615	0.1195	383123	keystroke_a	a	n/a
191.6665	0.0595	383333	keystroke_l	l	n/a
191.8015	0.1045	383603	keystroke_l	l	n/a
191.8765	0.0895	383753	keystroke_y	y	n/a
191.9515	0.0745	383903	keystroke_Key.space	Key.space	n/a
192.087	0.074	384174	keystroke_c	c	n/a
192.1915	0.045	384383	keystroke_o	o	n/a
192.2665	0.1045	384533	keystroke_s	s	n/a
192.3565	0.0895	384713	keystroke_t	t	n/a
192.432	0.1495	384864	keystroke_a	a	n/a
192.566	0.09	385132	keystroke_Key.space	Key.space	n/a
192.6715	0.0895	385343	keystroke_p	p	n/a
192.7465	0.0745	385493	keystroke_e	e	n/a
192.867	0.089	385734	keystroke_n	n	n/a
192.9415	0.1195	385883	keystroke_c	c	n/a
193.0765	0.1195	386153	keystroke_i	i	n/a
193.137	0.104	386274	keystroke_l	l	n/a
193.3765	0.06	386753	keystroke_Key.enter	Key.enter	n/a
193.446	3.5475	386892	prompt	n/a	genius planners saver bedding\n
194.1415	0.0745	388283	keystroke_g	g	n/a
194.2165	0.1495	388433	keystroke_e	e	n/a
194.2915	0.0895	388583	keystroke_n	n	n/a
194.3965	0.1195	388793	keystroke_i	i	n/a
194.5015	0.135	389003	keystroke_u	u	n/a
194.5915	0.105	389183	keystroke_s	s	n/a
194.6515	0.105	389303	keystroke_Key.space	Key.space	n/a
194.7115	0.0745	389423	keystroke_p	p	n/a
194.8765	0.06	389753	keystroke_l	l	n/a
194.9815	0.1345	389963	keystroke_a	a	n/a
195.0415	0.0895	390083	keystroke_n	n	n/a
195.1915	0.0745	390383	keystroke_n	n	n/a
195.2515	0.0745	390503	keystroke_e	e	n/a
195.3115	0.1045	390623	keystroke_r	r	n/a
195.3715	0.1195	390743	keystroke_s	s	n/a
195.4615	0.0745	390923	keystroke_Key.space	Key.space	n/a
195.5665	0.0895	391133	keystroke_s	s	n/a
195.6415	0.1195	391283	keystroke_a	a	n/a
195.7315	0.0895	391463	keystroke_v	v	n/a
195.8665	0.1195	391733	keystroke_e	e	n/a
195.9415	0.1045	391883	keystroke_r	r	n/a
196.0315	0.0745	392063	keystroke_Key.space	Key.space	n/a
196.1365	0.0745	392273	keystroke_b	b	n/a
196.287	0.0745	392574	keystroke_e	e	n/a
196.4515	0.0595	392903	keystroke_d	d	n/a
196.6015	0.0895	393203	keystroke_d	d	n/a
196.6765	0.0895	393353	keystroke_i	i	n/a
196.7215	0.0895	393443	keystroke_n	n	n/a
196.7965	0.075	393593	keystroke_g	g	n/a
196.9165	0.075	393833	keystroke_Key.enter	Key.enter	n/a
197.001	3.472	394002	prompt	n/a	dubai princess bosnia teacher\n
197.5915	0.1045	395183	keystroke_d	d	n/a
197.7115	0.1045	395423	keystroke_u	u	n/a
197.8615	0.0445	395723	keystroke_b	b	n/a
197.9215	0.1945	395843	keystroke_a	a	n/a
197.9965	0.105	395993	keystroke_i	i	n/a
198.1315	0.0595	396263	keystroke_Key.space	Key.space	n/a
198.2065	0.0745	396413	keystroke_p	p	n/a
198.2965	0.105	396593	keystroke_r	r	n/a
198.3865	0.105	396773	keystroke_i	i	n/a
198.4165	0.105	396833	keystroke_n	n	n/a
198.508	0.058	397016	keystroke_c	c	n/a
198.6715	0.0445	397343	keystroke_e	e	n/a
198.7615	0.1045	397523	keystroke_s	s	n/a
198.9265	0.075	397853	keystroke_s	s	n/a
199.002	0.089	398004	keystroke_Key.space	Key.space	n/a
199.1065	0.105	398213	keystroke_b	b	n/a
199.227	0.0595	398454	keystroke_o	o	n/a
199.3015	0.0895	398603	keystroke_s	s	n/a
199.3765	0.1195	398753	keystroke_n	n	n/a
199.4665	0.1045	398933	keystroke_i	i	n/a
199.5115	0.135	399023	keystroke_a	a	n/a
199.601	0.09	399202	keystroke_Key.space	Key.space	n/a
199.6775	0.1185	399355	keystroke_t	t	n/a
199.7815	0.1045	399563	keystroke_e	e	n/a
199.857	0.089	399714	keystroke_a	a	n/a
200.0065	0.0745	400013	keystroke_c	c	n/a
200.0965	0.0895	400193	keystroke_h	h	n/a
200.202	0.104	400404	keystroke_e	e	n/a
200.2465	0.1045	400493	keystroke_r	r	n/a
200.3965	0.0745	400793	keystroke_Key.enter	Key.enter	n/a
200.482	4.026	400964	prompt	n/a	comparative adopted writes orlando\n
201.1315	0.105	402263	keystroke_c	c	n/a
201.1765	0.0895	402353	keystroke_o	o	n/a
201.221	0.1205	402442	keystroke_m	m	n/a
201.3565	0.105	402713	keystroke_p	p	n/a
201.4315	0.12	402863	keystroke_a	a	n/a
201.5215	0.1495	403043	keystroke_r	r	n/a
201.6265	0.135	403253	keystroke_a	a	n/a
201.747	0.104	403494	keystroke_t	t	n/a
201.8665	0.1045	403733	keystroke_i	i	n/a
201.9565	0.1195	403913	keystroke_v	v	n/a
202.0615	0.105	404123	keystroke_e	e	n/a
202.1525	0.0885	404305	keystroke_Key.space	Key.space	n/a
202.2565	0.1195	404513	keystroke_a	a	n/a
202.3765	0.1045	404753	keystroke_d	d	n/a
202.4665	0.1045	404933	keystroke_o	o	n/a
202.527	0.104	405054	keystroke_p	p	n/a
202.6015	0.1045	405203	keystroke_t	t	n/a
202.6765	0.0445	405353	keystroke_e	e	n/a
202.8115	0.1195	405623	keystroke_d	d	n/a
202.9165	0.0745	405833	keystroke_Key.space	Key.space	n/a
203.0215	0.105	406043	keystroke_w	w	n/a
203.0965	0.09	406193	keystroke_r	r	n/a
203.2165	0.1195	406433	keystroke_i	i	n/a
203.2915	0.1045	406583	keystroke_t	t	n/a
203.3515	0.15	406703	keystroke_e	e	n/a
203.412	0.1195	406824	keystroke_s	s	n/a
203.4875	0.1035	406975	keystroke_Key.space	Key.space	n/a
203.6665	0.09	407333	keystroke_o	o	n/a
203.7415	0.1495	407483	keystroke_r	r	n/a
203.8615	0.0895	407723	keystroke_l	l	n/a
203.9665	0.1195	407933	keystroke_a	a	n/a
204.042	0.104	408084	keystroke_n	n	n/a
204.1315	0.0895	408263	keystroke_d	d	n/a
204.2365	0.0745	408473	keystroke_o	o	n/a
204.4315	0.075	408863	keystroke_Key.enter	Key.enter	n/a
204.5175	3.441	409035	prompt	n/a	fears shopzilla jake feed\n
205.1215	0.1045	410243	keystroke_f	f	n/a
205.1965	0.1345	410393	keystroke_e	e	n/a
205.3165	0.1345	410633	keystroke_a	a	n/a
205.4065	0.1195	410813	keystroke_r	r	n/a
205.5115	0.1045	411023	keystroke_s	s	n/a
205.5865	0.0745	411173	keystroke_Key.space	Key.space	n/a
205.707	0.089	411414	keystroke_s	s	n/a
205.7665	0.0895	411533	keystroke_h	h	n/a
205.887	0.089	411774	keystroke_o	o	n/a
205.9165	0.1045	411833	keystroke_p	p	n/a
206.2765	0.1195	412553	keystroke_z	z	n/a
206.3665	0.0595	412733	keystroke_i	i	n/a
206.5165	0.0595	413033	keystroke_l	l	n/a
206.6515	0.09	413303	keystroke_l	l	n/a
206.7265	0.1045	413453	keystroke_a	a	n/a
206.802	0.089	413604	keystroke_Key.space	Key.space	n/a
206.8615	0.09	413723	keystroke_j	j	n/a
206.9965	0.1045	413993	keystroke_a	a	n/a
207.0565	0.1045	414113	keystroke_k	k	n/a
207.1315	0.1045	414263	keystroke_e	e	n/a
207.2215	0.0595	414443	keystroke_Key.space	Key.space	n/a
207.312	0.104	414624	keystroke_f	f	n/a
207.4015	0.0595	414803	keystroke_e	e	n/a
207.537	0.074	415074	keystroke_e	e	n/a
207.7015	0.0745	415403	keystroke_d	d	n/a
207.8815	0.075	415763	keystroke_Key.enter	Key.enter	n/a
207.965	3.638	415930	prompt	n/a	boats volunteer citizen opera\n
208.587	0.089	417174	keystroke_b	b	n/a
208.6915	0.0895	417383	keystroke_o	o	n/a
208.7965	0.1045	417593	keystroke_a	a	n/a
208.8265	0.135	417653	keystroke_t	t	n/a
208.9465	0.1195	417893	keystroke_s	s	n/a
209.0215	0.0895	418043	keystroke_Key.space	Key.space	n/a
209.1265	0.1045	418253	keystroke_v	v	n/a
209.202	0.044	418404	keystroke_o	o	n/a
209.3365	0.0895	418673	keystroke_l	l	n/a
209.4415	0.0745	418883	keystroke_u	u	n/a
209.6215	0.0745	419243	keystroke_n	n	n/a
209.6665	0.12	419333	keystroke_t	t	n/a
209.7715	0.0595	419543	keystroke_e	e	n/a
209.9215	0.1045	419843	keystroke_e	e	n/a
209.9965	0.1345	419993	keystroke_r	r	n/a
210.1015	0.0895	420203	keystroke_Key.space	Key.space	n/a
210.2515	0.0895	420503	keystroke_c	c	n/a
210.3865	0.0595	420773	keystroke_i	i	n/a
210.4465	0.0895	420893	keystroke_t	t	n/a
210.5665	0.0745	421133	keystroke_i	i	n/a
210.6565	0.135	421313	keystroke_z	z	n/a
210.7765	0.0895	421553	keystroke_e	e	n/a
210.9115	0.0595	421823	keystroke_n	n	n/a
211.0015	0.09	422003	keystroke_Key.space	Key.space	n/a
211.1065	0.0895	422213	keystroke_o	o	n/a
211.1665	0.1045	422333	keystroke_p	p	n/a
211.2415	0.0895	422483	keystroke_e	e	n/a
211.302	0.119	422604	keystroke_r	r	n/a
211.4065	0.09	422813	keystroke_a	a	n/a
211.5265	0.0745	423053	keystroke_Key.enter	Key.enter	n/a
211.6105	3.7425	423221	prompt	n/a	farmer potential upcoming creatures\n
212.1715	0.0895	424343	keystroke_f	f	n/a
212.3065	0.1495	424613	keystroke_a	a	n/a
212.3965	0.1495	424793	keystroke_r	r	n/a
212.5015	0.09	425003	keystroke_m	m	n/a
212.5765	0.0895	425153	keystroke_e	e	n/a
212.6215	0.12	425243	keystroke_r	r	n/a
212.6965	0.1045	425393	keystroke_Key.space	Key.space	n/a
212.7865	0.0895	425573	keystroke_p	p	n/a
212.8315	0.1195	425663	keystroke_o	o	n/a
212.9365	0.12	425873	keystroke_t	t	n/a
213.042	0.1195	426084	keystroke_e	e	n/a
213.0715	0.1045	426143	keystroke_n	n	n/a
213.2065	0.12	426413	keystroke_t	t	n/a
213.282	0.074	426564	keystroke_i	i	n/a
213.3415	0.2395	426683	keystroke_a	a	n/a
213.4465	0.135	426893	keystroke_l	l	n/a
213.5665	0.075	427133	keystroke_Key.space	Key.space	n/a
213.6565	0.1045	427313	keystroke_u	u	n/a
213.7315	0.1045	427463	keystroke_p	p	n/a
213.8815	0.0895	427763	keystroke_c	c	n/a
213.9415	0.1045	427883	keystroke_o	o	n/a
214.0315	0.0745	428063	keystroke_m	m	n/a
214.1365	0.1195	428273	keystroke_i	i	n/a
214.1965	0.105	428393	keystroke_n	n	n/a
214.2715	0.1045	428543	keystroke_g	g	n/a
214.3315	0.0745	428663	keystroke_Key.space	Key.space	n/a
214.467	0.089	428934	keystroke_c	c	n/a
214.677	0.119	429354	keystroke_r	r	n/a
214.7365	0.1495	429473	keystroke_e	e	n/a
214.8415	0.1345	429683	keystroke_a	a	n/a
214.917	0.089	429834	keystroke_t	t	n/a
215.0365	0.0745	430073	keystroke_u	u	n/a
215.0965	0.1045	430193	keystroke_r	r	n/a
215.1265	0.1345	430253	keystroke_e	e	n/a
215.1865	0.1195	430373	keystroke_s	s	n/a
215.2765	0.075	430553	keystroke_Key.enter	Key.enter	n/a
215.3605	4.1625	430721	prompt	n/a	homeless athletic essay bracket\n
215.9515	0.0895	431903	keystroke_h	h	n/a
216.0565	0.135	432113	keystroke_o	o	n/a
216.1465	0.1345	432293	keystroke_m	m	n/a
216.2365	0.1045	432473	keystroke_e	e	n/a
216.3865	0.0895	432773	keystroke_l	l	n/a
216.4615	0.075	432923	keystroke_e	e	n/a
216.5965	0.0895	433193	keystroke_s	s	n/a
216.7765	0.105	433553	keystroke_s	s	n/a
216.8665	0.0895	433733	keystroke_Key.space	Key.space	n/a
216.9865	0.1195	433973	keystroke_a	a	n/a
217.0465	0.12	434093	keystroke_t	t	n/a
217.1365	0.0745	434273	keystroke_h	h	n/a
217.3015	0.0895	434603	keystroke_l	l	n/a
217.4215	0.09	434843	keystroke_e	e	n/a
217.5265	0.105	435053	keystroke_t	t	n/a
217.6765	0.1045	435353	keystroke_i	i	n/a
217.7665	0.1045	435533	keystroke_c	c	n/a
217.8865	0.0745	435773	keystroke_Key.space	Key.space	n/a
218.0065	0.0595	436013	keystroke_e	e	n/a
218.1115	0.09	436223	keystroke_s	s	n/a
218.2915	0.0595	436583	keystroke_s	s	n/a
218.3965	0.135	436793	keystroke_a	a	n/a
218.5465	0.0745	437093	keystroke_y	y	n/a
218.6365	0.0745	437273	keystroke_Key.space	Key.space	n/a
218.7265	0.0745	437453	keystroke_b	b	n/a
218.9215	0.0745	437843	keystroke_r	r	n/a
218.9815	0.075	437963	keystroke_a	a	n/a
219.1165	0.0745	438233	keystroke_c	c	n/a
219.2065	0.075	438413	keystroke_k	k	n/a
219.2965	0.105	438593	keystroke_e	e	n/a
219.3715	0.0745	438743	keystroke_t	t	n/a
219.4765	0.0445	438953	keystroke_Key.enter	Key.enter	n/a
219.5305	5.6935	439061	prompt	n/a	webcam responsible africa desktops\n
220.152	0.164	440304	keystroke_w	w	n/a
220.1965	0.12	440393	keystroke_e	e	n/a
220.4065	0.09	440813	keystroke_b	b	n/a
220.6165	0.09	441233	keystroke_c	c	n/a
220.7965	0.1645	441593	keystroke_a	a	n/a
220.8865	0.0895	441773	keystroke_m	m	n/a
221.2465	0.0895	442493	keystroke_Key.space	Key.space	n/a
221.4415	0.1195	442883	keystroke_r	r	n/a
221.5315	0.1195	443063	keystroke_e	e	n/a
221.6365	0.075	443273	keystroke_s	s	n/a
221.7565	0.0595	443513	keystroke_p	p	n/a
221.7715	0.1345	443543	keystroke_o	o	n/a
221.8615	0.1045	443723	keystroke_n	n	n/a
221.9365	0.1195	443873	keystroke_s	s	n/a
222.1015	0.0745	444203	keystroke_b	b	n/a
222.117	0.0895	444234	keystroke_i	i	n/a
222.7615	0.0445	445523	keystroke_Key.backspace	Key.backspace	n/a
222.8815	0.075	445763	keystroke_Key.backspace	Key.backspace	n/a
223.0765	0.0895	446153	keystroke_i	i	n/a
223.1365	0.0745	446273	keystroke_b	b	n/a
223.2715	0.1045	446543	keystroke_l	l	n/a
223.317	0.119	446634	keystroke_e	e	n/a
223.3915	0.1045	446783	keystroke_Key.space	Key.space	n/a
223.5115	0.135	447023	keystroke_a	a	n/a
223.6165	0.0745	447233	keystroke_f	f	n/a
223.7815	0.0745	447563	keystroke_r	r	n/a
223.8715	0.0745	447743	keystroke_i	i	n/a
223.9615	0.0895	447923	keystroke_c	c	n/a
224.0665	0.1345	448133	keystroke_a	a	n/a
224.1865	0.0745	448373	keystroke_Key.space	Key.space	n/a
224.2465	0.0745	448493	keystroke_d	d	n/a
224.4115	0.09	448823	keystroke_e	e	n/a
224.4715	0.1195	448943	keystroke_s	s	n/a
224.562	0.089	449124	keystroke_k	k	n/a
224.682	0.119	449364	keystroke_t	t	n/a
224.7415	0.1345	449483	keystroke_o	o	n/a
224.8315	0.1045	449663	keystroke_p	p	n/a
224.9515	0.1195	449903	keystroke_s	s	n/a
225.1465	0.0745	450293	keystroke_Key.enter	Key.enter	n/a
225.236	3.677	450472	prompt	n/a	intensity gzip communities dock\n
225.8215	0.1045	451643	keystroke_i	i	n/a
225.882	0.104	451764	keystroke_n	n	n/a
226.0315	0.1195	452063	keystroke_t	t	n/a
226.1365	0.0895	452273	keystroke_e	e	n/a
226.2115	0.0895	452423	keystroke_n	n	n/a
226.3165	0.1195	452633	keystroke_s	s	n/a
226.3915	0.09	452783	keystroke_i	i	n/a
226.496	0.12	452992	keystroke_t	t	n/a
226.5715	0.0745	453143	keystroke_y	y	n/a
226.6615	0.0745	453323	keystroke_Key.space	Key.space	n/a
226.7515	0.0745	453503	keystroke_g	g	n/a
226.9315	0.1195	453863	keystroke_z	z	n/a
227.0065	0.1045	454013	keystroke_i	i	n/a
227.082	0.089	454164	keystroke_p	p	n/a
227.1865	0.0895	454373	keystroke_Key.space	Key.space	n/a
227.2915	0.09	454583	keystroke_c	c	n/a
227.3365	0.1045	454673	keystroke_o	o	n/a
227.3965	0.09	454793	keystroke_m	m	n/a
227.5465	0.0745	455093	keystroke_m	m	n/a
227.7265	0.0745	455453	keystroke_u	u	n/a
227.9065	0.105	455813	keystroke_n	n	n/a
227.967	0.0895	455934	keystroke_i	i	n/a
228.0715	0.1045	456143	keystroke_t	t	n/a
228.1465	0.0895	456293	keystroke_i	i	n/a
228.2215	0.1495	456443	keystroke_e	e	n/a
228.2965	0.135	456593	keystroke_s	s	n/a
228.417	0.059	456834	keystroke_Key.space	Key.space	n/a
228.4915	0.1195	456983	keystroke_d	d	n/a
228.5665	0.0745	457133	keystroke_o	o	n/a
228.6715	0.075	457343	keystroke_c	c	n/a
228.7165	0.0595	457433	keystroke_k	k	n/a
228.8515	0.0595	457703	keystroke_Key.enter	Key.enter	n/a
228.9215	5.137	457843	prompt	n/a	bedford linking pharmacology specifics\n
229.5565	0.09	459113	keystroke_b	b	n/a
229.692	0.074	459384	keystroke_e	e	n/a
229.8565	0.09	459713	keystroke_d	d	n/a
230.0065	0.0745	460013	keystroke_f	f	n/a
230.1115	0.0895	460223	keystroke_o	o	n/a
230.1865	0.1195	460373	keystroke_r	r	n/a
230.2915	0.12	460583	keystroke_d	d	n/a
230.3815	0.1045	460763	keystroke_Key.space	Key.space	n/a
230.5165	0.1345	461033	keystroke_l	l	n/a
230.6065	0.12	461213	keystroke_i	i	n/a
230.6665	0.1045	461333	keystroke_n	n	n/a
230.8315	0.0745	461663	keystroke_k	k	n/a
231.042	0.104	462084	keystroke_i	i	n/a
231.1015	0.1195	462203	keystroke_n	n	n/a
231.2065	0.075	462413	keystroke_g	g	n/a
231.2515	0.1195	462503	keystroke_Key.space	Key.space	n/a
231.3565	0.075	462713	keystroke_p	p	n/a
231.5215	0.09	463043	keystroke_h	h	n/a
231.6415	0.1195	463283	keystroke_a	a	n/a
231.7015	0.12	463403	keystroke_r	r	n/a
231.8365	0.09	463673	keystroke_m	m	n/a
231.957	0.104	463914	keystroke_a	a	n/a
232.1965	0.1045	464393	keystroke_c	c	n/a
232.2565	0.0745	464513	keystroke_o	o	n/a
232.4215	0.06	464843	keystroke_l	l	n/a
232.587	0.074	465174	keystroke_o	o	n/a
232.6765	0.15	465353	keystroke_g	g	n/a
232.7515	0.09	465503	keystroke_y	y	n/a
232.9015	0.09	465803	keystroke_Key.space	Key.space	n/a
233.0065	0.105	466013	keystroke_s	s	n/a
233.097	0.104	466194	keystroke_p	p	n/a
233.187	0.074	466374	keystroke_e	e	n/a
233.3815	0.0895	466763	keystroke_c	c	n/a
233.4715	0.0595	466943	keystroke_i	i	n/a
233.5615	0.0895	467123	keystroke_f	f	n/a
233.6365	0.0745	467273	keystroke_i	i	n/a
233.7415	0.12	467483	keystroke_c	c	n/a
233.8315	0.1045	467663	keystroke_s	s	n/a
233.9815	0.0745	467963	keystroke_Key.enter	Key.enter	n/a
234.066	4.672	468132	prompt	n/a	water generators electricity varying\n
234.6265	0.1495	469253	keystroke_w	w	n/a
234.7615	0.12	469523	keystroke_a	a	n/a
234.8065	0.1345	469613	keystroke_t	t	n/a
234.9565	0.1195	469913	keystroke_e	e	n/a
235.0165	0.12	470033	keystroke_r	r	n/a
235.1215	0.0595	470243	keystroke_Key.space	Key.space	n/a
235.2415	0.105	470483	keystroke_g	g	n/a
235.3315	0.0895	470663	keystroke_e	e	n/a
235.4365	0.1045	470873	keystroke_n	n	n/a
235.5265	0.1195	471053	keystroke_e	e	n/a
235.5715	0.105	471143	keystroke_r	r	n/a
235.6615	0.1195	471323	keystroke_a	a	n/a
235.7515	0.0895	471503	keystroke_t	t	n/a
235.8565	0.075	471713	keystroke_o	o	n/a
235.9165	0.1195	471833	keystroke_r	r	n/a
235.9765	0.12	471953	keystroke_s	s	n/a
236.0665	0.0895	472133	keystroke_Key.space	Key.space	n/a
236.1715	0.0745	472343	keystroke_e	e	n/a
236.2915	0.09	472583	keystroke_l	l	n/a
236.3515	0.075	472703	keystroke_e	e	n/a
236.5465	0.06	473093	keystroke_c	c	n/a
236.7115	0.0445	473423	keystroke_t	t	n/a
236.8315	0.0895	473663	keystroke_r	r	n/a
236.9365	0.0745	473873	keystroke_i	i	n/a
237.0265	0.0895	474053	keystroke_c	c	n/a
237.1315	0.075	474263	keystroke_i	i	n/a
237.2215	0.0895	474443	keystroke_t	t	n/a
237.297	0.0895	474594	keystroke_y	y	n/a
237.3715	0.0745	474743	keystroke_Key.space	Key.space	n/a
237.4765	0.0895	474953	keystroke_v	v	n/a
237.5965	0.1195	475193	keystroke_a	a	n/a
237.6715	0.1045	475343	keystroke_r	r	n/a
237.7615	0.1045	475523	keystroke_y	y	n/a
237.8815	0.1345	475763	keystroke_i	i	n/a
237.9565	0.1045	475913	keystroke_n	n	n/a
238.0915	0.075	476183	keystroke_t	t	n/a
238.4215	0.06	476843	keystroke_Key.backspace	Key.backspace	n/a
238.5115	0.09	477023	keystroke_g	g	n/a
238.6765	0.0595	477353	keystroke_Key.enter	Key.enter	n/a
238.745	4.4635	477490	prompt	n/a	demanding dryer accompanied longitude\n
239.3065	0.09	478613	keystroke_d	d	n/a
239.4865	0.09	478973	keystroke_e	e	n/a
239.5915	0.0895	479183	keystroke_m	m	n/a
239.697	0.1195	479394	keystroke_a	a	n/a
239.7715	0.09	479543	keystroke_n	n	n/a
239.862	0.134	479724	keystroke_d	d	n/a
239.9965	0.0745	479993	keystroke_i	i	n/a
240.012	0.119	480024	keystroke_n	n	n/a
240.0865	0.105	480173	keystroke_g	g	n/a
240.162	0.074	480324	keystroke_Key.space	Key.space	n/a
240.267	0.059	480534	keystroke_d	d	n/a
240.4165	0.09	480833	keystroke_r	r	n/a
240.4915	0.09	480983	keystroke_y	y	n/a
240.5665	0.12	481133	keystroke_e	e	n/a
240.6415	0.1045	481283	keystroke_r	r	n/a
240.7315	0.0745	481463	keystroke_Key.space	Key.space	n/a
240.8815	0.075	481763	keystroke_a	a	n/a
241.062	0.0445	482124	keystroke_c	c	n/a
241.2115	0.06	482423	keystroke_c	c	n/a
241.2865	0.075	482573	keystroke_o	o	n/a
241.3165	0.15	482633	keystroke_m	m	n/a
241.4365	0.09	482873	keystroke_p	p	n/a
241.5715	0.105	483143	keystroke_a	a	n/a
241.647	0.119	483294	keystroke_n	n	n/a
241.7365	0.0895	483473	keystroke_i	i	n/a
241.782	0.0595	483564	keystroke_e	e	n/a
241.9165	0.1045	483833	keystroke_d	d	n/a
241.9915	0.0895	483983	keystroke_Key.space	Key.space	n/a
242.0965	0.0745	484193	keystroke_l	l	n/a
242.2915	0.105	484583	keystroke_o	o	n/a
242.3365	0.105	484673	keystroke_n	n	n/a
242.5165	0.0895	485033	keystroke_g	g	n/a
242.5915	0.0895	485183	keystroke_i	i	n/a
242.6965	0.0745	485393	keystroke_t	t	n/a
242.787	0.074	485574	keystroke_u	u	n/a
242.862	0.059	485724	keystroke_d	d	n/a
242.9815	0.105	485963	keystroke_e	e	n/a
243.1165	0.09	486233	keystroke_Key.enter	Key.enter	n/a
243.2155	5.2425	486431	prompt	n/a	strict accommodation remainder senators\n
243.7765	0.105	487553	keystroke_s	s	n/a
243.8665	0.0745	487733	keystroke_t	t	n/a
244.0015	0.0895	488003	keystroke_r	r	n/a
244.1215	0.1045	488243	keystroke_i	i	n/a
244.212	0.059	488424	keystroke_c	c	n/a
244.3315	0.09	488663	keystroke_t	t	n/a
244.4065	0.105	488813	keystroke_Key.space	Key.space	n/a
244.4965	0.09	488993	keystroke_a	a	n/a
244.6465	0.075	489293	keystroke_c	c	n/a
244.8265	0.0895	489653	keystroke_c	c	n/a
244.962	0.104	489924	keystroke_o	o	n/a
245.0365	0.165	490073	keystroke_m	m	n/a
245.1865	0.0595	490373	keystroke_o	o	n/a
245.5015	0.06	491003	keystroke_Key.backspace	Key.backspace	n/a
245.6965	0.105	491393	keystroke_m	m	n/a
245.8165	0.0745	491633	keystroke_o	o	n/a
245.9065	0.1045	491813	keystroke_d	d	n/a
246.0265	0.1195	492053	keystroke_a	a	n/a
246.0715	0.1195	492143	keystroke_t	t	n/a
246.162	0.1495	492324	keystroke_i	i	n/a
246.2215	0.1045	492443	keystroke_o	o	n/a
246.2665	0.1195	492533	keystroke_n	n	n/a
246.3715	0.075	492743	keystroke_Key.space	Key.space	n/a
246.4315	0.1045	492863	keystroke_r	r	n/a
246.5065	0.09	493013	keystroke_e	e	n/a
246.5815	0.09	493163	keystroke_m	m	n/a
246.672	0.119	493344	keystroke_a	a	n/a
246.7765	0.1195	493553	keystroke_i	i	n/a
246.8365	0.12	493673	keystroke_n	n	n/a
246.8815	0.06	493763	keystroke_d	d	n/a
247.0015	0.12	494003	keystroke_e	e	n/a
247.0765	0.135	494153	keystroke_r	r	n/a
247.212	0.089	494424	keystroke_Key.space	Key.space	n/a
247.512	0.104	495024	keystroke_s	s	n/a
247.6465	0.0895	495293	keystroke_e	e	n/a
247.7515	0.0745	495503	keystroke_n	n	n/a
247.8415	0.105	495683	keystroke_a	a	n/a
247.9165	0.09	495833	keystroke_t	t	n/a
248.0665	0.0895	496133	keystroke_o	o	n/a
248.1715	0.09	496343	keystroke_r	r	n/a
248.2465	0.0895	496493	keystroke_s	s	n/a
248.3815	0.0745	496763	keystroke_Key.enter	Key.enter	n/a
248.4675	4.386	496935	prompt	n/a	allergy mechanics roads monetary\n
249.0265	0.12	498053	keystroke_a	a	n/a
249.1315	0.0445	498263	keystroke_l	l	n/a
249.2665	0.075	498533	keystroke_l	l	n/a
249.312	0.0895	498624	keystroke_e	e	n/a
249.3565	0.105	498713	keystroke_r	r	n/a
249.5365	0.135	499073	keystroke_g	g	n/a
249.6265	0.0895	499253	keystroke_y	y	n/a
249.7315	0.0745	499463	keystroke_Key.space	Key.space	n/a
249.8815	0.0895	499763	keystroke_m	m	n/a
249.9415	0.0895	499883	keystroke_e	e	n/a
250.122	0.1345	500244	keystroke_c	c	n/a
250.2115	0.09	500423	keystroke_h	h	n/a
250.3465	0.12	500693	keystroke_a	a	n/a
250.4365	0.1195	500873	keystroke_n	n	n/a
250.5115	0.1045	501023	keystroke_i	i	n/a
250.6015	0.1195	501203	keystroke_c	c	n/a
250.6465	0.1495	501293	keystroke_s	s	n/a
250.7815	0.09	501563	keystroke_Key.space	Key.space	n/a
250.9915	0.1495	501983	keystroke_r	r	n/a
251.0815	0.075	502163	keystroke_o	o	n/a
251.1715	0.105	502343	keystroke_a	a	n/a
251.2465	0.18	502493	keystroke_d	d	n/a
251.3665	0.135	502733	keystroke_s	s	n/a
251.4715	0.09	502943	keystroke_Key.space	Key.space	n/a
251.577	0.119	503154	keystroke_m	m	n/a
251.7715	0.105	503543	keystroke_o	o	n/a
251.8465	0.1045	503693	keystroke_n	n	n/a
252.072	0.0895	504144	keystroke_e	e	n/a
252.2815	0.105	504563	keystroke_t	t	n/a
252.4315	0.1345	504863	keystroke_a	a	n/a
252.5215	0.12	505043	keystroke_r	r	n/a
252.6115	0.06	505223	keystroke_y	y	n/a
252.777	0.0745	505554	keystroke_Key.enter	Key.enter	n/a
252.861	3.518	505722	prompt	n/a	latin share beginner crown\n
253.4815	0.09	506963	keystroke_l	l	n/a
253.5865	0.1345	507173	keystroke_a	a	n/a
253.662	0.119	507324	keystroke_t	t	n/a
253.7515	0.105	507503	keystroke_i	i	n/a
253.8115	0.1045	507623	keystroke_n	n	n/a
253.9165	0.09	507833	keystroke_Key.space	Key.space	n/a
254.0365	0.0895	508073	keystroke_s	s	n/a
254.1415	0.0895	508283	keystroke_h	h	n/a
254.1865	0.15	508373	keystroke_a	a	n/a
254.2615	0.1195	508523	keystroke_r	r	n/a
254.3515	0.0745	508703	keystroke_e	e	n/a
254.3965	0.0745	508793	keystroke_Key.space	Key.space	n/a
254.6065	0.0295	509213	keystroke_b	b	n/a
254.892	0.0745	509784	keystroke_e	e	n/a
255.0565	0.0895	510113	keystroke_g	g	n/a
255.1615	0.0745	510323	keystroke_i	i	n/a
255.2065	0.075	510413	keystroke_n	n	n/a
255.3565	0.1045	510713	keystroke_n	n	n/a
255.4465	0.09	510893	keystroke_e	e	n/a
255.4915	0.1195	510983	keystroke_r	r	n/a
255.5965	0.0745	511193	keystroke_Key.space	Key.space	n/a
255.7315	0.075	511463	keystroke_c	c	n/a
255.8965	0.09	511793	keystroke_r	r	n/a
255.972	0.0595	511944	keystroke_o	o	n/a
256.0465	0.105	512093	keystroke_w	w	n/a
256.1215	0.0895	512243	keystroke_n	n	n/a
256.2865	0.09	512573	keystroke_Key.enter	Key.enter	n/a
256.387	5.4515	512774	prompt	n/a	trivia bringing liberia extraction\n
257.0065	0.0895	514013	keystroke_t	t	n/a
257.1415	0.1045	514283	keystroke_r	r	n/a
257.3365	0.09	514673	keystroke_i	i	n/a
257.6515	0.0895	515303	keystroke_v	v	n/a
257.802	0.0745	515604	keystroke_i	i	n/a
257.8915	0.1195	515783	keystroke_a	a	n/a
257.9815	0.09	515963	keystroke_Key.space	Key.space	n/a
258.2665	0.0745	516533	keystroke_b	b	n/a
258.432	0.104	516864	keystroke_r	r	n/a
258.6115	0.12	517223	keystroke_i	i	n/a
258.702	0.1045	517404	keystroke_n	n	n/a
258.8515	0.105	517703	keystroke_g	g	n/a
258.9715	0.105	517943	keystroke_i	i	n/a
259.0165	0.105	518033	keystroke_n	n	n/a
259.0915	0.1045	518183	keystroke_g	g	n/a
259.182	0.0895	518364	keystroke_Key.space	Key.space	n/a
259.287	0.1045	518574	keystroke_l	l	n/a
259.4065	0.12	518813	keystroke_i	i	n/a
259.4965	0.0745	518993	keystroke_b	b	n/a
259.6615	0.1195	519323	keystroke_e	e	n/a
259.7215	0.1345	519443	keystroke_r	r	n/a
259.872	0.0895	519744	keystroke_i	i	n/a
259.8865	0.15	519773	keystroke_a	a	n/a
260.0515	0.09	520103	keystroke_Key.space	Key.space	n/a
260.1865	0.09	520373	keystroke_e	e	n/a
260.3815	0.105	520763	keystroke_x	x	n/a
260.487	0.0745	520974	keystroke_t	t	n/a
260.6365	0.0905	521273	keystroke_r	r	n/a
260.6965	0.09	521393	keystroke_a	a	n/a
260.8465	0.075	521693	keystroke_c	c	n/a
260.9665	0.105	521933	keystroke_t	t	n/a
261.042	0.134	522084	keystroke_i	i	n/a
261.1165	0.0895	522233	keystroke_o	o	n/a
261.477	0.0745	522954	keystroke_n	n	n/a
261.7615	0.075	523523	keystroke_Key.enter	Key.enter	n/a
261.847	4.911	523694	prompt	n/a	rebates manufactured common optical\n
262.512	0.044	525024	keystroke_e	e	n/a
262.827	0.074	525654	keystroke_Key.backspace	Key.backspace	n/a
262.9165	0.12	525833	keystroke_r	r	n/a
263.0065	0.09	526013	keystroke_e	e	n/a
263.1715	0.0895	526343	keystroke_b	b	n/a
263.307	0.1495	526614	keystroke_a	a	n/a
263.3965	0.1345	526793	keystroke_t	t	n/a
263.4715	0.15	526943	keystroke_e	e	n/a
263.5465	0.105	527093	keystroke_s	s	n/a
263.6065	0.105	527213	keystroke_Key.space	Key.space	n/a
263.697	0.0895	527394	keystroke_m	m	n/a
263.8015	0.1045	527603	keystroke_a	a	n/a
263.877	0.0745	527754	keystroke_n	n	n/a
264.0565	0.075	528113	keystroke_u	u	n/a
264.117	0.1345	528234	keystroke_f	f	n/a
264.327	0.0895	528654	keystroke_a	a	n/a
264.4915	0.075	528983	keystroke_c	c	n/a
264.6715	0.0745	529343	keystroke_t	t	n/a
264.7765	0.09	529553	keystroke_u	u	n/a
264.8515	0.09	529703	keystroke_r	r	n/a
264.8965	0.075	529793	keystroke_e	e	n/a
265.0615	0.09	530123	keystroke_d	d	n/a
265.1365	0.0745	530273	keystroke_Key.space	Key.space	n/a
265.2565	0.075	530513	keystroke_c	c	n/a
265.3465	0.1045	530693	keystroke_o	o	n/a
265.4365	0.0595	530873	keystroke_m	m	n/a
265.5565	0.0895	531113	keystroke_m	m	n/a
265.6915	0.09	531383	keystroke_o	o	n/a
265.7515	0.0895	531503	keystroke_n	n	n/a
265.8565	0.09	531713	keystroke_Key.space	Key.space	n/a
265.9615	0.12	531923	keystroke_o	o	n/a
266.0515	0.1045	532103	keystroke_p	p	n/a
266.1565	0.09	532313	keystroke_t	t	n/a
266.247	0.089	532494	keystroke_i	i	n/a
266.3515	0.105	532703	keystroke_c	c	n/a
266.442	0.119	532884	keystroke_a	a	n/a
266.4865	0.0895	532973	keystroke_l	l	n/a
266.6815	0.0745	533363	keystroke_Key.enter	Key.enter	n/a
266.7655	3.863	533531	prompt	n/a	foot each employees italian\n
267.2965	0.045	534593	keystroke_r	r	n/a
267.5365	0.0745	535073	keystroke_Key.backspace	Key.backspace	n/a
267.7315	0.0895	535463	keystroke_f	f	n/a
267.8365	0.0445	535673	keystroke_o	o	n/a
267.9565	0.0895	535913	keystroke_o	o	n/a
268.0325	0.119	536065	keystroke_t	t	n/a
268.1215	0.12	536243	keystroke_Key.space	Key.space	n/a
268.2265	0.0895	536453	keystroke_e	e	n/a
268.2715	0.0895	536543	keystroke_a	a	n/a
268.4365	0.1495	536873	keystroke_c	c	n/a
268.5115	0.105	537023	keystroke_h	h	n/a
268.6315	0.06	537263	keystroke_Key.space	Key.space	n/a
268.7515	0.0895	537503	keystroke_e	e	n/a
268.8265	0.15	537653	keystroke_m	m	n/a
268.947	0.0895	537894	keystroke_p	p	n/a
269.1115	0.075	538223	keystroke_l	l	n/a
269.3065	0.0755	538613	keystroke_o	o	n/a
269.3515	0.09	538703	keystroke_y	y	n/a
269.4565	0.075	538913	keystroke_e	e	n/a
269.5915	0.075	539183	keystroke_e	e	n/a
269.7115	0.1195	539423	keystroke_s	s	n/a
269.8165	0.0895	539633	keystroke_Key.space	Key.space	n/a
269.9365	0.0895	539873	keystroke_i	i	n/a
269.9815	0.105	539963	keystroke_t	t	n/a
270.0715	0.12	540143	keystroke_a	a	n/a
270.1765	0.09	540353	keystroke_l	l	n/a
270.2365	0.09	540473	keystroke_i	i	n/a
270.3415	0.1045	540683	keystroke_a	a	n/a
270.3865	0.09	540773	keystroke_n	n	n/a
270.5515	0.0745	541103	keystroke_Key.enter	Key.enter	n/a
270.638	3.05	541276	prompt	n/a	lyric former pepper jake\n
271.2265	0.0745	542453	keystroke_l	l	n/a
271.332	0.089	542664	keystroke_y	y	n/a
271.4365	0.0745	542873	keystroke_r	r	n/a
271.557	0.0895	543114	keystroke_i	i	n/a
271.6165	0.1045	543233	keystroke_c	c	n/a
271.7365	0.0895	543473	keystroke_Key.space	Key.space	n/a
271.857	0.089	543714	keystroke_f	f	n/a
271.962	0.089	543924	keystroke_o	o	n/a
272.0365	0.105	544073	keystroke_r	r	n/a
272.157	0.0895	544314	keystroke_m	m	n/a
272.2015	0.1195	544403	keystroke_e	e	n/a
272.2915	0.105	544583	keystroke_r	r	n/a
272.3365	0.12	544673	keystroke_Key.space	Key.space	n/a
272.4415	0.09	544883	keystroke_p	p	n/a
272.547	0.104	545094	keystroke_e	e	n/a
272.6515	0.0745	545303	keystroke_p	p	n/a
272.8165	0.06	545633	keystroke_p	p	n/a
272.9215	0.0895	545843	keystroke_e	e	n/a
272.9515	0.12	545903	keystroke_r	r	n/a
273.0265	0.1045	546053	keystroke_Key.space	Key.space	n/a
273.162	0.1045	546324	keystroke_j	j	n/a
273.3265	0.105	546653	keystroke_a	a	n/a
273.4165	0.0595	546833	keystroke_k	k	n/a
273.4915	0.0895	546983	keystroke_e	e	n/a
273.6265	0.0595	547253	keystroke_Key.enter	Key.enter	n/a
273.694	9.0415	547388	prompt	n/a	indoor virginia inexpensive seminar\n
274.5115	0.105	549023	keystroke_i	i	n/a
274.5715	0.105	549143	keystroke_n	n	n/a
274.6765	0.09	549353	keystroke_d	d	n/a
274.7815	0.045	549563	keystroke_o	o	n/a
274.9015	0.0895	549803	keystroke_o	o	n/a
274.9615	0.1045	549923	keystroke_r	r	n/a
275.0515	0.0745	550103	keystroke_Key.space	Key.space	n/a
275.1715	0.0895	550343	keystroke_v	v	n/a
275.3065	0.0745	550613	keystroke_i	i	n/a
275.3665	0.0745	550733	keystroke_r	r	n/a
275.5165	0.1195	551033	keystroke_g	g	n/a
275.6065	0.1195	551213	keystroke_n	n	n/a
275.6965	0.0895	551393	keystroke_i	i	n/a
275.8765	0.1195	551753	keystroke_a	a	n/a
276.0115	0.09	552023	keystroke_Key.space	Key.space	n/a
276.2215	0.0895	552443	keystroke_i	i	n/a
276.5665	0.1045	553133	keystroke_n	n	n/a
277.242	0.044	554484	keystroke_Key.backspace	Key.backspace	n/a
277.3765	0.06	554753	keystroke_Key.backspace	Key.backspace	n/a
277.5265	0.06	555053	keystroke_Key.backspace	Key.backspace	n/a
277.6615	0.0745	555323	keystroke_Key.backspace	Key.backspace	n/a
277.8115	0.0745	555623	keystroke_Key.backspace	Key.backspace	n/a
277.9615	0.0595	555923	keystroke_Key.backspace	Key.backspace	n/a
278.1265	0.0595	556253	keystroke_Key.backspace	Key.backspace	n/a
278.2915	0.075	556583	keystroke_Key.backspace	Key.backspace	n/a
278.9215	0.075	557843	keystroke_r	r	n/a
279.0865	0.0895	558173	keystroke_g	g	n/a
279.192	0.1045	558384	keystroke_i	i	n/a
279.2665	0.1195	558533	keystroke_n	n	n/a
279.4015	0.0745	558803	keystroke_i	i	n/a
279.507	0.104	559014	keystroke_a	a	n/a
279.5965	0.0895	559193	keystroke_Key.space	Key.space	n/a
280.7965	0.105	561593	keystroke_i	i	n/a
280.857	0.104	561714	keystroke_n	n	n/a
281.0665	0.075	562133	keystroke_e	e	n/a
281.2315	0.1045	562463	keystroke_x	x	n/a
281.3365	0.0745	562673	keystroke_p	p	n/a
281.4415	0.1045	562883	keystroke_e	e	n/a
281.5315	0.075	563063	keystroke_n	n	n/a
281.6215	0.1045	563243	keystroke_s	s	n/a
281.7265	0.0745	563453	keystroke_i	i	n/a
281.7715	0.1345	563543	keystroke_v	v	n/a
281.8765	0.1045	563753	keystroke_e	e	n/a
281.9515	0.0895	563903	keystroke_Key.space	Key.space	n/a
282.0565	0.105	564113	keystroke_s	s	n/a
282.1315	0.1045	564263	keystroke_e	e	n/a
282.222	0.104	564444	keystroke_m	m	n/a
282.342	0.134	564684	keystroke_i	i	n/a
282.4165	0.1055	564833	keystroke_n	n	n/a
282.4915	0.1045	564983	keystroke_a	a	n/a
282.537	0.0895	565074	keystroke_r	r	n/a
282.6565	0.0745	565313	keystroke_Key.enter	Key.enter	n/a
282.7435	3.4245	565487	prompt	n/a	outside support sample hampton\n
283.2865	0.105	566573	keystroke_o	o	n/a
283.3615	0.0895	566723	keystroke_u	u	n/a
283.422	0.0895	566844	keystroke_t	t	n/a
283.5265	0.1195	567053	keystroke_s	s	n/a
283.6165	0.0745	567233	keystroke_i	i	n/a
283.7065	0.0745	567413	keystroke_d	d	n/a
283.8415	0.1045	567683	keystroke_e	e	n/a
283.9315	0.0745	567863	keystroke_Key.space	Key.space	n/a
283.9915	0.105	567983	keystroke_s	s	n/a
284.0815	0.1195	568163	keystroke_u	u	n/a
284.1865	0.0745	568373	keystroke_p	p	n/a
284.3365	0.1045	568673	keystroke_p	p	n/a
284.3965	0.1195	568793	keystroke_o	o	n/a
284.4865	0.0595	568973	keystroke_r	r	n/a
284.6065	0.1045	569213	keystroke_t	t	n/a
284.682	0.089	569364	keystroke_Key.space	Key.space	n/a
284.7565	0.1195	569513	keystroke_s	s	n/a
284.8615	0.1045	569723	keystroke_a	a	n/a
284.907	0.164	569814	keystroke_m	m	n/a
285.0115	0.075	570023	keystroke_p	p	n/a
285.1465	0.0745	570293	keystroke_l	l	n/a
285.207	0.104	570414	keystroke_e	e	n/a
285.2815	0.09	570563	keystroke_Key.space	Key.space	n/a
285.3565	0.0595	570713	keystroke_h	h	n/a
285.432	0.134	570864	keystroke_a	a	n/a
285.5365	0.135	571073	keystroke_m	m	n/a
285.6415	0.1045	571283	keystroke_p	p	n/a
285.7915	0.0895	571583	keystroke_t	t	n/a
285.8515	0.1045	571703	keystroke_o	o	n/a
285.9265	0.075	571853	keystroke_n	n	n/a
286.0915	0.0745	572183	keystroke_Key.enter	Key.enter	n/a
286.1745	5.0495	572349	prompt	n/a	wiring downloading pollution commodity\n
286.7365	0.1045	573473	keystroke_w	w	n/a
286.7965	0.1345	573593	keystroke_r	r	n/a
286.9465	0.09	573893	keystroke_i	i	n/a
287.2165	0.045	574433	keystroke_Key.backspace	Key.backspace	n/a
287.3365	0.0745	574673	keystroke_Key.backspace	Key.backspace	n/a
287.5465	0.06	575093	keystroke_i	i	n/a
287.5915	0.1195	575183	keystroke_r	r	n/a
287.7265	0.1045	575453	keystroke_i	i	n/a
287.757	0.119	575514	keystroke_n	n	n/a
287.8465	0.105	575693	keystroke_g	g	n/a
287.9065	0.0895	575813	keystroke_Key.space	Key.space	n/a
288.0265	0.1045	576053	keystroke_d	d	n/a
288.1015	0.0895	576203	keystroke_o	o	n/a
288.2365	0.06	576473	keystroke_w	w	n/a
288.2515	0.105	576503	keystroke_n	n	n/a
288.3865	0.06	576773	keystroke_l	l	n/a
288.5365	0.0895	577073	keystroke_o	o	n/a
288.5965	0.1195	577193	keystroke_a	a	n/a
288.6565	0.1345	577313	keystroke_d	d	n/a
288.7765	0.1045	577553	keystroke_i	i	n/a
288.8215	0.0895	577643	keystroke_n	n	n/a
288.8515	0.105	577703	keystroke_g	g	n/a
288.9265	0.0895	577853	keystroke_Key.space	Key.space	n/a
288.9865	0.1045	577973	keystroke_p	p	n/a
289.1065	0.0745	578213	keystroke_o	o	n/a
289.2865	0.0595	578573	keystroke_l	l	n/a
289.4215	0.075	578843	keystroke_l	l	n/a
289.5715	0.075	579143	keystroke_u	u	n/a
289.6315	0.1495	579263	keystroke_t	t	n/a
289.7665	0.1795	579533	keystroke_i	i	n/a
289.8265	0.135	579653	keystroke_o	o	n/a
289.9015	0.0895	579803	keystroke_n	n	n/a
289.9765	0.045	579953	keystroke_Key.space	Key.space	n/a
290.0665	0.075	580133	keystroke_c	c	n/a
290.202	0.134	580404	keystroke_o	o	n/a
290.322	0.089	580644	keystroke_m	m	n/a
290.4865	0.0895	580973	keystroke_m	m	n/a
290.6065	0.075	581213	keystroke_o	o	n/a
290.6965	0.12	581393	keystroke_d	d	n/a
290.8015	0.0895	581603	keystroke_i	i	n/a
290.907	0.089	581814	keystroke_t	t	n/a
290.982	0.074	581964	keystroke_y	y	n/a
291.1465	0.075	582293	keystroke_Key.enter	Key.enter	n/a
291.232	10.701	582464	prompt	n/a	phillips repair ecuador sample\n
291.8815	0.105	583763	keystroke_p	p	n/a
291.9565	0.12	583913	keystroke_h	h	n/a
292.1065	0.0895	584213	keystroke_i	i	n/a
292.422	0.089	584844	keystroke_l	l	n/a
292.9015	0.105	585803	keystroke_i	i	n/a
293.0515	0.1045	586103	keystroke_p	p	n/a
293.2015	0.1195	586403	keystroke_s	s	n/a
293.2915	0.0895	586583	keystroke_Key.space	Key.space	n/a
293.4115	0.105	586823	keystroke_r	r	n/a
293.4715	0.1195	586943	keystroke_e	e	n/a
293.5915	0.09	587183	keystroke_p	p	n/a
293.682	0.149	587364	keystroke_a	a	n/a
293.8015	0.0895	587603	keystroke_i	i	n/a
293.862	0.0895	587724	keystroke_r	r	n/a
293.937	0.0895	587874	keystroke_Key.space	Key.space	n/a
294.0715	0.0745	588143	keystroke_e	e	n/a
294.2965	0.0595	588593	keystroke_c	c	n/a
294.372	0.089	588744	keystroke_u	u	n/a
294.4765	0.1195	588953	keystroke_a	a	n/a
294.7615	0.06	589523	keystroke_Key.backspace	Key.backspace	n/a
294.9115	0.0745	589823	keystroke_Key.backspace	Key.backspace	n/a
295.0615	0.0745	590123	keystroke_Key.backspace	Key.backspace	n/a
295.2275	0.059	590455	keystroke_Key.backspace	Key.backspace	n/a
295.3765	0.045	590753	keystroke_Key.backspace	Key.backspace	n/a
295.5565	0.0445	591113	keystroke_Key.backspace	Key.backspace	n/a
295.6915	0.06	591383	keystroke_Key.backspace	Key.backspace	n/a
295.8265	0.0595	591653	keystroke_Key.backspace	Key.backspace	n/a
295.9915	0.0595	591983	keystroke_Key.backspace	Key.backspace	n/a
296.1265	0.075	592253	keystroke_Key.backspace	Key.backspace	n/a
296.2765	0.0745	592553	keystroke_Key.backspace	Key.backspace	n/a
296.4265	0.0745	592853	keystroke_Key.backspace	Key.backspace	n/a
296.5765	0.0745	593153	keystroke_Key.backspace	Key.backspace	n/a
296.7265	0.0595	593453	keystroke_Key.backspace	Key.backspace	n/a
297.1765	0.06	594353	keystroke_Key.backspace	Key.backspace	n/a
297.5965	0.12	595193	keystroke_l	l	n/a
297.6865	0.1045	595373	keystroke_i	i	n/a
297.822	0.104	595644	keystroke_p	p	n/a
297.9115	0.1045	595823	keystroke_s	s	n/a
298.0015	0.0895	596003	keystroke_Key.space	Key.space	n/a
298.137	0.119	596274	keystroke_r	r	n/a
298.3765	0.0895	596753	keystroke_e	e	n/a
298.5715	0.1045	597143	keystroke_p	p	n/a
298.7065	0.135	597413	keystroke_a	a	n/a
298.7665	0.1045	597533	keystroke_i	i	n/a
298.887	0.0895	597774	keystroke_r	r	n/a
298.962	0.089	597924	keystroke_Key.space	Key.space	n/a
299.0665	0.0895	598133	keystroke_e	e	n/a
299.2615	0.0895	598523	keystroke_c	c	n/a
299.3815	0.09	598763	keystroke_u	u	n/a
299.5165	0.12	599033	keystroke_a	a	n/a
299.6665	0.09	599333	keystroke_d	d	n/a
299.8015	0.09	599603	keystroke_r	r	n/a
300.1165	0.0745	600233	keystroke_Key.backspace	Key.backspace	n/a
300.3415	0.0895	600683	keystroke_o	o	n/a
300.4015	0.1045	600803	keystroke_r	r	n/a
300.4915	0.0895	600983	keystroke_Key.space	Key.space	n/a
300.7465	0.0745	601493	keystroke_s	s	n/a
300.8365	0.15	601673	keystroke_a	a	n/a
300.9415	0.135	601883	keystroke_m	m	n/a
301.0165	0.09	602033	keystroke_p	p	n/a
301.1815	0.0745	602363	keystroke_l	l	n/a
301.3015	0.075	602603	keystroke_e	e	n/a
301.8715	0.0595	603743	keystroke_Key.enter	Key.enter	n/a
301.943	3.5005	603886	prompt	n/a	duration airlines likes surplus\n
302.5765	0.075	605153	keystroke_d	d	n/a
302.6665	0.0895	605333	keystroke_u	u	n/a
302.7715	0.0745	605543	keystroke_r	r	n/a
302.8315	0.1495	605663	keystroke_a	a	n/a
302.9215	0.1195	605843	keystroke_t	t	n/a
303.0115	0.1495	606023	keystroke_i	i	n/a
303.0565	0.12	606113	keystroke_o	o	n/a
303.117	0.1045	606234	keystroke_n	n	n/a
303.2065	0.105	606413	keystroke_Key.space	Key.space	n/a
303.297	0.119	606594	keystroke_a	a	n/a
303.3865	0.0745	606773	keystroke_i	i	n/a
303.4765	0.12	606953	keystroke_r	r	n/a
303.5665	0.12	607133	keystroke_l	l	n/a
303.6265	0.1195	607253	keystroke_i	i	n/a
303.6865	0.105	607373	keystroke_n	n	n/a
303.702	0.1195	607404	keystroke_e	e	n/a
303.7615	0.135	607523	keystroke_s	s	n/a
303.837	0.119	607674	keystroke_Key.space	Key.space	n/a
303.897	0.089	607794	keystroke_l	l	n/a
303.9715	0.06	607943	keystroke_i	i	n/a
304.1065	0.105	608213	keystroke_k	k	n/a
304.152	0.1345	608304	keystroke_e	e	n/a
304.2715	0.1045	608543	keystroke_s	s	n/a
304.3465	0.075	608693	keystroke_Key.space	Key.space	n/a
304.4665	0.0895	608933	keystroke_s	s	n/a
304.4965	0.105	608993	keystroke_u	u	n/a
304.6615	0.1195	609323	keystroke_r	r	n/a
304.7665	0.09	609533	keystroke_p	p	n/a
304.9165	0.1045	609833	keystroke_l	l	n/a
305.0815	0.0895	610163	keystroke_u	u	n/a
305.1865	0.09	610373	keystroke_s	s	n/a
305.3665	0.0745	610733	keystroke_Key.enter	Key.enter	n/a
305.4505	4.3425	610901	prompt	n/a	serum posting hdtv uploaded\n
306.1015	0.12	612203	keystroke_s	s	n/a
306.177	0.1495	612354	keystroke_e	e	n/a
306.2815	0.1345	612563	keystroke_r	r	n/a
306.3865	0.09	612773	keystroke_u	u	n/a
306.5965	0.0745	613193	keystroke_m	m	n/a
306.687	0.104	613374	keystroke_Key.space	Key.space	n/a
306.7615	0.1355	613523	keystroke_p	p	n/a
306.8515	0.1345	613703	keystroke_o	o	n/a
307.002	0.1345	614004	keystroke_s	s	n/a
307.1215	0.1045	614243	keystroke_t	t	n/a
307.2115	0.135	614423	keystroke_i	i	n/a
307.2715	0.1195	614543	keystroke_n	n	n/a
307.4665	0.09	614933	keystroke_g	g	n/a
307.5715	0.105	615143	keystroke_Key.space	Key.space	n/a
307.7665	0.1045	615533	keystroke_h	h	n/a
307.8565	0.1195	615713	keystroke_d	d	n/a
308.187	0.089	616374	keystroke_t	t	n/a
308.3815	0.09	616763	keystroke_v	v	n/a
308.5315	0.1045	617063	keystroke_Key.space	Key.space	n/a
308.8015	0.09	617603	keystroke_u	u	n/a
308.9065	0.0595	617813	keystroke_p	p	n/a
309.0715	0.06	618143	keystroke_l	l	n/a
309.2215	0.09	618443	keystroke_o	o	n/a
309.2515	0.09	618503	keystroke_a	a	n/a
309.2965	0.0745	618593	keystroke_d	d	n/a
309.4465	0.0745	618893	keystroke_e	e	n/a
309.5815	0.09	619163	keystroke_d	d	n/a
309.7165	0.0745	619433	keystroke_Key.enter	Key.enter	n/a
309.8	4.973	619600	prompt	n/a	reports mountain platinum preference\n
310.422	0.134	620844	keystroke_r	r	n/a
310.5265	0.12	621053	keystroke_e	e	n/a
310.6315	0.1045	621263	keystroke_p	p	n/a
310.6915	0.1195	621383	keystroke_o	o	n/a
310.7815	0.0745	621563	keystroke_r	r	n/a
310.9615	0.0895	621923	keystroke_t	t	n/a
311.0065	0.1045	622013	keystroke_s	s	n/a
311.0665	0.1045	622133	keystroke_Key.space	Key.space	n/a
311.1265	0.0895	622253	keystroke_m	m	n/a
311.277	0.0745	622554	keystroke_o	o	n/a
311.3215	0.0895	622643	keystroke_u	u	n/a
311.502	0.089	623004	keystroke_n	n	n/a
311.5765	0.1195	623153	keystroke_t	t	n/a
311.6515	0.1795	623303	keystroke_a	a	n/a
311.7565	0.1045	623513	keystroke_i	i	n/a
311.8015	0.0895	623603	keystroke_n	n	n/a
311.8765	0.1045	623753	keystroke_Key.space	Key.space	n/a
311.9965	0.0595	623993	keystroke_p	p	n/a
312.1465	0.09	624293	keystroke_l	l	n/a
312.252	0.119	624504	keystroke_a	a	n/a
312.3115	0.1045	624623	keystroke_t	t	n/a
312.4615	0.09	624923	keystroke_i	i	n/a
312.6565	0.09	625313	keystroke_n	n	n/a
312.8965	0.0745	625793	keystroke_u	u	n/a
313.0765	0.075	626153	keystroke_m	m	n/a
313.1965	0.09	626393	keystroke_Key.space	Key.space	n/a
313.6765	0.105	627353	keystroke_p	p	n/a
313.737	0.1195	627474	keystroke_r	r	n/a
313.8265	0.1045	627653	keystroke_e	e	n/a
313.9465	0.075	627893	keystroke_f	f	n/a
314.052	0.104	628104	keystroke_e	e	n/a
314.142	0.104	628284	keystroke_r	r	n/a
314.2315	0.0745	628463	keystroke_e	e	n/a
314.2915	0.075	628583	keystroke_n	n	n/a
314.3965	0.0745	628793	keystroke_c	c	n/a
314.5765	0.0595	629153	keystroke_e	e	n/a
314.6815	0.0895	629363	keystroke_Key.enter	Key.enter	n/a
314.7815	4.042	629563	prompt	n/a	illustration football badge lives\n
315.3875	0.089	630775	keystroke_i	i	n/a
315.5815	0.06	631163	keystroke_l	l	n/a
315.7315	0.075	631463	keystroke_l	l	n/a
315.7765	0.12	631553	keystroke_u	u	n/a
315.8815	0.0895	631763	keystroke_s	s	n/a
315.9415	0.0895	631883	keystroke_t	t	n/a
316.092	0.1195	632184	keystroke_r	r	n/a
316.1815	0.1495	632363	keystroke_a	a	n/a
316.2865	0.1195	632573	keystroke_t	t	n/a
316.377	0.1495	632754	keystroke_i	i	n/a
316.4215	0.1195	632843	keystroke_o	o	n/a
316.497	0.119	632994	keystroke_n	n	n/a
316.602	0.059	633204	keystroke_Key.space	Key.space	n/a
316.6915	0.1045	633383	keystroke_f	f	n/a
316.7665	0.06	633533	keystroke_o	o	n/a
316.9175	0.0735	633835	keystroke_o	o	n/a
316.962	0.1045	633924	keystroke_t	t	n/a
317.1715	0.075	634343	keystroke_b	b	n/a
317.2165	0.135	634433	keystroke_a	a	n/a
317.337	0.0595	634674	keystroke_l	l	n/a
317.458	0.1335	634916	keystroke_l	l	n/a
317.5465	0.1045	635093	keystroke_Key.space	Key.space	n/a
317.6515	0.0895	635303	keystroke_b	b	n/a
317.757	0.119	635514	keystroke_a	a	n/a
317.8465	0.105	635693	keystroke_d	d	n/a
317.9525	0.1185	635905	keystroke_g	g	n/a
318.042	0.149	636084	keystroke_e	e	n/a
318.1765	0.091	636353	keystroke_Key.space	Key.space	n/a
318.2675	0.1035	636535	keystroke_l	l	n/a
318.327	0.1195	636654	keystroke_i	i	n/a
318.4615	0.1195	636923	keystroke_v	v	n/a
318.5665	0.1195	637133	keystroke_e	e	n/a
318.6265	0.1195	637253	keystroke_s	s	n/a
318.7465	0.0745	637493	keystroke_Key.enter	Key.enter	n/a
318.832	4.072	637664	prompt	n/a	pleasant fraser other connection\n
319.4215	0.0895	638843	keystroke_p	p	n/a
319.5865	0.12	639173	keystroke_l	l	n/a
319.647	0.104	639294	keystroke_e	e	n/a
319.7215	0.1045	639443	keystroke_a	a	n/a
319.8415	0.1045	639683	keystroke_s	s	n/a
320.0365	0.1345	640073	keystroke_a	a	n/a
320.1565	0.1045	640313	keystroke_n	n	n/a
320.2465	0.0895	640493	keystroke_t	t	n/a
320.3215	0.0895	640643	keystroke_Key.space	Key.space	n/a
320.4565	0.075	640913	keystroke_f	f	n/a
320.6365	0.1045	641273	keystroke_r	r	n/a
320.7265	0.1345	641453	keystroke_a	a	n/a
320.8465	0.165	641693	keystroke_s	s	n/a
320.9685	0.118	641937	keystroke_e	e	n/a
321.027	0.119	642054	keystroke_r	r	n/a
321.1015	0.1045	642203	keystroke_Key.space	Key.space	n/a
321.1765	0.09	642353	keystroke_o	o	n/a
321.2515	0.12	642503	keystroke_t	t	n/a
321.3565	0.105	642713	keystroke_h	h	n/a
321.4015	0.12	642803	keystroke_e	e	n/a
321.4765	0.09	642953	keystroke_r	r	n/a
321.5365	0.0895	643073	keystroke_Key.space	Key.space	n/a
321.6715	0.075	643343	keystroke_c	c	n/a
321.7615	0.0745	643523	keystroke_o	o	n/a
321.822	0.074	643644	keystroke_n	n	n/a
321.9565	0.12	643913	keystroke_n	n	n/a
322.0765	0.075	644153	keystroke_e	e	n/a
322.2565	0.0295	644513	keystroke_c	c	n/a
322.3915	0.0895	644783	keystroke_t	t	n/a
322.4965	0.1495	644993	keystroke_i	i	n/a
322.5415	0.1195	645083	keystroke_o	o	n/a
322.602	0.1045	645204	keystroke_n	n	n/a
322.8265	0.075	645653	keystroke_Key.enter	Key.enter	n/a
322.914	3.4845	645828	prompt	n/a	essentially price true split\n
323.4715	0.0895	646943	keystroke_e	e	n/a
323.6215	0.0895	647243	keystroke_s	s	n/a
323.8015	0.09	647603	keystroke_s	s	n/a
323.8765	0.1045	647753	keystroke_e	e	n/a
324.0265	0.075	648053	keystroke_n	n	n/a
324.0865	0.12	648173	keystroke_t	t	n/a
324.2215	0.06	648443	keystroke_i	i	n/a
324.2965	0.0895	648593	keystroke_a	a	n/a
324.402	0.0595	648804	keystroke_l	l	n/a
324.522	0.1195	649044	keystroke_l	l	n/a
324.5965	0.0895	649193	keystroke_y	y	n/a
324.702	0.0745	649404	keystroke_Key.space	Key.space	n/a
324.792	0.104	649584	keystroke_p	p	n/a
324.8825	0.074	649765	keystroke_r	r	n/a
324.972	0.089	649944	keystroke_i	i	n/a
325.047	0.074	650094	keystroke_c	c	n/a
325.2265	0.075	650453	keystroke_e	e	n/a
325.2865	0.09	650573	keystroke_Key.space	Key.space	n/a
325.377	0.0745	650754	keystroke_t	t	n/a
325.5115	0.12	651023	keystroke_r	r	n/a
325.6015	0.0895	651203	keystroke_u	u	n/a
325.6615	0.105	651323	keystroke_e	e	n/a
325.737	0.089	651474	keystroke_Key.space	Key.space	n/a
325.8415	0.09	651683	keystroke_s	s	n/a
325.9015	0.075	651803	keystroke_p	p	n/a
326.082	0.1045	652164	keystroke_l	l	n/a
326.1415	0.075	652283	keystroke_i	i	n/a
326.2175	0.089	652435	keystroke_t	t	n/a
326.3215	0.0745	652643	keystroke_Key.enter	Key.enter	n/a
326.4055	4.238	652811	prompt	n/a	confidentiality purchase real heaven\n
327.1765	0.09	654353	keystroke_c	c	n/a
327.2365	0.1045	654473	keystroke_o	o	n/a
327.282	0.119	654564	keystroke_n	n	n/a
327.417	0.0745	654834	keystroke_f	f	n/a
327.4765	0.09	654953	keystroke_i	i	n/a
327.5515	0.075	655103	keystroke_d	d	n/a
327.6865	0.09	655373	keystroke_e	e	n/a
327.7615	0.105	655523	keystroke_n	n	n/a
327.8815	0.09	655763	keystroke_t	t	n/a
327.9715	0.105	655943	keystroke_i	i	n/a
328.0615	0.12	656123	keystroke_a	a	n/a
328.167	0.119	656334	keystroke_l	l	n/a
328.2265	0.1195	656453	keystroke_i	i	n/a
328.3315	0.1195	656663	keystroke_t	t	n/a
328.4365	0.0745	656873	keystroke_y	y	n/a
328.5265	0.0745	657053	keystroke_Key.space	Key.space	n/a
328.6165	0.1195	657233	keystroke_p	p	n/a
328.7215	0.12	657443	keystroke_u	u	n/a
328.782	0.0895	657564	keystroke_r	r	n/a
328.992	0.089	657984	keystroke_c	c	n/a
329.067	0.089	658134	keystroke_h	h	n/a
329.1415	0.135	658283	keystroke_a	a	n/a
329.232	0.194	658464	keystroke_s	s	n/a
329.3065	0.1495	658613	keystroke_e	e	n/a
329.4415	0.09	658883	keystroke_Key.space	Key.space	n/a
329.5465	0.135	659093	keystroke_r	r	n/a
329.6215	0.1345	659243	keystroke_e	e	n/a
329.712	0.1345	659424	keystroke_a	a	n/a
329.817	0.0895	659634	keystroke_l	l	n/a
329.9365	0.075	659873	keystroke_Key.space	Key.space	n/a
330.0265	0.09	660053	keystroke_h	h	n/a
330.0565	0.12	660113	keystroke_e	e	n/a
330.1465	0.1195	660293	keystroke_a	a	n/a
330.2215	0.0895	660443	keystroke_v	v	n/a
330.282	0.119	660564	keystroke_e	e	n/a
330.372	0.089	660744	keystroke_n	n	n/a
330.582	0.0595	661164	keystroke_Key.enter	Key.enter	n/a
330.653	4.731	661306	prompt	n/a	backgrounds database assists remove\n
331.3465	0.105	662693	keystroke_b	b	n/a
331.4365	0.09	662873	keystroke_a	a	n/a
331.5565	0.0895	663113	keystroke_c	c	n/a
331.6615	0.105	663323	keystroke_k	k	n/a
331.7365	0.075	663473	keystroke_g	g	n/a
331.902	0.1045	663804	keystroke_r	r	n/a
331.9765	0.105	663953	keystroke_o	o	n/a
332.0365	0.09	664073	keystroke_u	u	n/a
332.217	0.1055	664434	keystroke_n	n	n/a
332.2765	0.15	664553	keystroke_d	d	n/a
332.3515	0.135	664703	keystroke_s	s	n/a
332.4565	0.1045	664913	keystroke_Key.space	Key.space	n/a
332.5765	0.1045	665153	keystroke_d	d	n/a
332.6665	0.1345	665333	keystroke_a	a	n/a
332.757	0.149	665514	keystroke_t	t	n/a
332.892	0.0895	665784	keystroke_a	a	n/a
332.982	0.1195	665964	keystroke_b	b	n/a
333.117	0.194	666234	keystroke_a	a	n/a
333.207	0.1645	666414	keystroke_s	s	n/a
333.282	0.1345	666564	keystroke_e	e	n/a
333.3865	0.09	666773	keystroke_Key.space	Key.space	n/a
333.6415	0.135	667283	keystroke_a	a	n/a
333.8965	0.045	667793	keystroke_s	s	n/a
334.0165	0.0895	668033	keystroke_s	s	n/a
334.1065	0.1045	668213	keystroke_i	i	n/a
334.2265	0.1345	668453	keystroke_s	s	n/a
334.317	0.104	668634	keystroke_t	t	n/a
334.4365	0.1195	668873	keystroke_s	s	n/a
334.5715	0.06	669143	keystroke_Key.space	Key.space	n/a
334.767	0.0895	669534	keystroke_r	r	n/a
334.842	0.0745	669684	keystroke_e	e	n/a
334.932	0.104	669864	keystroke_m	m	n/a
335.007	0.1045	670014	keystroke_o	o	n/a
335.0965	0.09	670193	keystroke_v	v	n/a
335.157	0.104	670314	keystroke_e	e	n/a
335.2765	0.1045	670553	keystroke_Key.enter	Key.enter	n/a
335.3915	3.8315	670783	prompt	n/a	think personnel mighty invision\n
336.0265	0.105	672053	keystroke_t	t	n/a
336.0865	0.1195	672173	keystroke_h	h	n/a
336.1765	0.1345	672353	keystroke_i	i	n/a
336.282	0.1195	672564	keystroke_n	n	n/a
336.387	0.104	672774	keystroke_k	k	n/a
336.5065	0.105	673013	keystroke_Key.space	Key.space	n/a
336.6265	0.105	673253	keystroke_p	p	n/a
336.7015	0.135	673403	keystroke_e	e	n/a
336.7615	0.12	673523	keystroke_r	r	n/a
336.867	0.1045	673734	keystroke_s	s	n/a
336.942	0.1045	673884	keystroke_o	o	n/a
336.987	0.0895	673974	keystroke_n	n	n/a
337.167	0.0895	674334	keystroke_n	n	n/a
337.332	0.119	674664	keystroke_e	e	n/a
337.422	0.089	674844	keystroke_l	l	n/a
337.542	0.105	675084	keystroke_Key.space	Key.space	n/a
337.6325	0.1195	675265	keystroke_m	m	n/a
337.737	0.0895	675474	keystroke_i	i	n/a
337.8115	0.075	675623	keystroke_g	g	n/a
337.902	0.0745	675804	keystroke_h	h	n/a
337.9615	0.135	675923	keystroke_t	t	n/a
338.1115	0.06	676223	keystroke_y	y	n/a
338.232	0.089	676464	keystroke_Key.space	Key.space	n/a
338.3665	0.135	676733	keystroke_i	i	n/a
338.4265	0.105	676853	keystroke_n	n	n/a
338.5165	0.105	677033	keystroke_v	v	n/a
338.6065	0.1045	677213	keystroke_a	a	n/a
338.682	0.1345	677364	keystroke_s	s	n/a
