onset	duration	sample	value	key	prompt_text
10.2395	17.9585	20479	prompt	n/a	the quick brown fox jumps over a lazy dog\n
12.087	0.0135	24174	keystroke_t	t	n/a
12.1155	0.09	24231	keystroke_h	h	n/a
12.3405	0.105	24681	keystroke_w	w	n/a
12.4905	0.104	24981	keystroke_Key.space	Key.space	n/a
13.809	0.075	27618	keystroke_Key.backspace	Key.backspace	n/a
14.409	0.06	28818	keystroke_Key.backspace	Key.backspace	n/a
15.039	0.075	30078	keystroke_e	e	n/a
15.2935	0.091	30587	keystroke_Key.space	Key.space	n/a
15.774	0.0905	31548	keystroke_q	q	n/a
16.059	0.045	32118	keystroke_u	u	n/a
16.2545	0.0595	32509	keystroke_i	i	n/a
16.51	0.075	33020	keystroke_c	c	n/a
16.645	0.075	33290	keystroke_k	k	n/a
17.0345	0.09	34069	keystroke_Key.space	Key.space	n/a
17.7085	0.105	35417	keystroke_b	b	n/a
18.009	0.09	36018	keystroke_r	r	n/a
18.174	0.075	36348	keystroke_o	o	n/a
18.369	0.09	36738	keystroke_w	w	n/a
18.549	0.09	37098	keystroke_n	n	n/a
18.8195	0.075	37639	keystroke_Key.space	Key.space	n/a
19.4195	0.0745	38839	keystroke_f	f	n/a
19.5695	0.0895	39139	keystroke_o	o	n/a
19.8695	0.105	39739	keystroke_x	x	n/a
20.0645	0.0745	40129	keystroke_Key.space	Key.space	n/a
20.814	0.0605	41628	keystroke_j	j	n/a
21.009	0.06	42018	keystroke_u	u	n/a
21.219	0.105	42438	keystroke_m	m	n/a
21.504	0.075	43008	keystroke_p	p	n/a
21.7285	0.075	43457	keystroke_s	s	n/a
21.8345	0.0895	43669	keystroke_Key.space	Key.space	n/a
22.703	0.1055	45406	keystroke_o	o	n/a
22.973	0.06	45946	keystroke_v	v	n/a
23.198	0.1055	46396	keystroke_e	e	n/a
23.3935	0.0745	46787	keystroke_r	r	n/a
23.528	0.09	47056	keystroke_Key.space	Key.space	n/a
23.888	0.105	47776	keystroke_a	a	n/a
24.038	0.09	48076	keystroke_Key.space	Key.space	n/a
24.579	0.074	49158	keystroke_l	l	n/a
24.7745	0.0885	49549	keystroke_a	a	n/a
25.134	0.12	50268	keystroke_z	z	n/a
25.6285	0.074	51257	keystroke_y	y	n/a
25.9725	0.1355	51945	keystroke_Key.space	Key.space	n/a
26.333	0.09	52666	keystroke_d	d	n/a
26.453	0.09	52906	keystroke_o	o	n/a
27.473	0.075	54946	keystroke_g	g	n/a
28.118	0.076	56236	keystroke_Key.enter	Key.enter	n/a
28.2025	13.657	56405	prompt	n/a	myself curves evans resolved\n
28.9585	0.059	57917	keystroke_m	m	n/a
29.244	0.089	58488	keystroke_y	y	n/a
29.5575	0.076	59115	keystroke_s	s	n/a
29.8275	0.045	59655	keystroke_e	e	n/a
29.9475	0.09	59895	keystroke_l	l	n/a
30.398	0.0595	60796	keystroke_f	f	n/a
30.638	0.105	61276	keystroke_Key.space	Key.space	n/a
31.4035	0.09	62807	keystroke_c	c	n/a
31.883	0.06	63766	keystroke_u	u	n/a
32.078	0.075	64156	keystroke_r	r	n/a
32.453	0.075	64906	keystroke_v	v	n/a
32.708	0.075	65416	keystroke_e	e	n/a
32.9775	0.1055	65955	keystroke_s	s	n/a
33.2625	0.105	66525	keystroke_Key.space	Key.space	n/a
34.1775	0.075	68355	keystroke_e	e	n/a
34.5075	0.0905	69015	keystroke_v	v	n/a
34.8075	0.105	69615	keystroke_a	a	n/a
34.9875	0.0755	69975	keystroke_n	n	n/a
35.4225	0.09	70845	keystroke_s	s	n/a
35.738	0.105	71476	keystroke_Key.space	Key.space	n/a
36.713	0.045	73426	keystroke_r	r	n/a
37.028	0.075	74056	keystroke_e	e	n/a
38.3775	0.106	76755	keystroke_s	s	n/a
39.563	0.059	79126	keystroke_o	o	n/a
39.787	0.09	79574	keystroke_l	l	n/a
40.417	0.06	80834	keystroke_v	v	n/a
40.6725	0.075	81345	keystroke_e	e	n/a
40.897	0.105	81794	keystroke_d	d	n/a
41.768	0.09	83536	keystroke_Key.enter	Key.enter	n/a
41.8625	28.842	83725	prompt	n/a	waterproof cardiovascular represented stolen\n
42.7275	0.075	85455	keystroke_w	w	n/a
42.9675	0.105	85935	keystroke_a	a	n/a
43.3275	0.105	86655	keystroke_t	t	n/a
43.5825	0.12	87165	keystroke_e	e	n/a
43.7925	0.09	87585	keystroke_r	r	n/a
44.9775	0.105	89955	keystroke_p	p	n/a
45.2325	0.09	90465	keystroke_r	r	n/a
45.4875	0.105	90975	keystroke_o	o	n/a
46.628	0.09	93256	keystroke_o	o	n/a
46.853	0.0745	93706	keystroke_f	f	n/a
47.288	0.09	94576	keystroke_Key.space	Key.space	n/a
47.978	0.105	95956	keystroke_c	c	n/a
48.308	0.1345	96616	keystroke_a	a	n/a
48.608	0.075	97216	keystroke_r	r	n/a
49.283	0.0595	98566	keystroke_d	d	n/a
49.9125	0.09	99825	keystroke_i	i	n/a
50.108	0.104	100216	keystroke_o	o	n/a
51.322	0.075	102644	keystroke_v	v	n/a
51.667	0.135	103334	keystroke_a	a	n/a
51.937	0.0755	103874	keystroke_s	s	n/a
52.283	0.0895	104566	keystroke_t	t	n/a
55.48	0.012	110960	keystroke_Key.backspace	Key.backspace	n/a
57.3825	0.09	114765	keystroke_c	c	n/a
57.9825	0.06	115965	keystroke_u	u	n/a
58.642	0.075	117284	keystroke_l	l	n/a
58.957	0.105	117914	keystroke_a	a	n/a
59.2875	0.09	118575	keystroke_r	r	n/a
59.903	0.09	119806	keystroke_Key.space	Key.space	n/a
60.2765	0.0915	120553	keystroke_r	r	n/a
60.4875	0.09	120975	keystroke_e	e	n/a
60.7125	0.0905	121425	keystroke_p	p	n/a
61.448	0.0745	122896	keystroke_r	r	n/a
61.6875	0.135	123375	keystroke_e	e	n/a
62.1675	0.045	124335	keystroke_s	s	n/a
62.5725	0.075	125145	keystroke_e	e	n/a
62.992	0.06	125984	keystroke_n	n	n/a
63.277	0.075	126554	keystroke_t	t	n/a
63.8625	0.09	127725	keystroke_e	e	n/a
64.3875	0.045	128775	keystroke_t	t	n/a
65.8275	0.075	131655	keystroke_Key.backspace	Key.backspace	n/a
66.067	0.09	132134	keystroke_d	d	n/a
66.967	0.105	133934	keystroke_Key.space	Key.space	n/a
67.822	0.12	135644	keystroke_s	s	n/a
68.197	0.0455	136394	keystroke_t	t	n/a
68.422	0.09	136844	keystroke_o	o	n/a
69.007	0.0905	138014	keystroke_l	l	n/a
69.2475	0.09	138495	keystroke_e	e	n/a
69.8775	0.09	139755	keystroke_n	n	n/a
70.6125	0.09	141225	keystroke_Key.enter	Key.enter	n/a
70.7075	19.467	141415	prompt	n/a	calculators contributors wave widely\n
71.4675	0.09	142935	keystroke_c	c	n/a
71.7675	0.075	143535	keystroke_a	a	n/a
72.578	0.075	145156	keystroke_l	l	n/a
73.0125	0.105	146025	keystroke_c	c	n/a
73.612	0.075	147224	keystroke_u	u	n/a
74.0325	0.09	148065	keystroke_t	t	n/a
75.1575	0.075	150315	keystroke_Key.backspace	Key.backspace	n/a
75.8025	0.075	151605	keystroke_l	l	n/a
76.4475	0.12	152895	keystroke_a	a	n/a
76.8975	0.06	153795	keystroke_t	t	n/a
77.153	0.105	154306	keystroke_o	o	n/a
77.332	0.091	154664	keystroke_r	r	n/a
78.308	0.09	156616	keystroke_s	s	n/a
78.652	0.075	157304	keystroke_Key.space	Key.space	n/a
79.103	0.059	158206	keystroke_c	c	n/a
79.193	0.1045	158386	keystroke_o	o	n/a
79.4475	0.105	158895	keystroke_n	n	n/a
79.6725	0.135	159345	keystroke_t	t	n/a
80.4975	0.075	160995	keystroke_r	r	n/a
80.8125	0.06	161625	keystroke_i	i	n/a
81.3525	0.105	162705	keystroke_b	b	n/a
82.1475	0.015	164295	keystroke_u	u	n/a
82.4925	0.0605	164985	keystroke_t	t	n/a
82.688	0.0745	165376	keystroke_o	o	n/a
82.973	0.09	165946	keystroke_r	r	n/a
83.753	0.09	167506	keystroke_s	s	n/a
84.278	0.12	168556	keystroke_Key.space	Key.space	n/a
84.863	0.09	169726	keystroke_w	w	n/a
85.103	0.135	170206	keystroke_a	a	n/a
85.523	0.1345	171046	keystroke_v	v	n/a
85.838	0.12	171676	keystroke_e	e	n/a
86.303	0.135	172606	keystroke_Key.space	Key.space	n/a
86.933	0.09	173866	keystroke_w	w	n/a
87.128	0.075	174256	keystroke_i	i	n/a
87.353	0.075	174706	keystroke_d	d	n/a
88.4325	0.075	176865	keystroke_e	e	n/a
88.853	0.09	177706	keystroke_l	l	n/a
89.288	0.135	178576	keystroke_y	y	n/a
90.0525	0.12	180105	keystroke_Key.enter	Key.enter	n/a
90.1785	22.722	180357	prompt	n/a	band challenges confidentiality vietnamese\n
91.1025	0.135	182205	keystroke_b	b	n/a
91.4775	0.075	182955	keystroke_a	a	n/a
91.7325	0.09	183465	keystroke_n	n	n/a
91.8975	0.09	183795	keystroke_d	d	n/a
92.2575	0.09	184515	keystroke_Key.space	Key.space	n/a
92.9925	0.105	185985	keystroke_x	x	n/a
93.2325	0.075	186465	keystroke_h	h	n/a
93.9975	0.105	187995	keystroke_Key.backspace	Key.backspace	n/a
94.2675	0.06	188535	keystroke_Key.backspace	Key.backspace	n/a
94.5085	0.089	189017	keystroke_c	c	n/a
94.7175	0.09	189435	keystroke_h	h	n/a
95.0625	0.09	190125	keystroke_a	a	n/a
96.3835	0.06	192767	keystroke_l	l	n/a
96.5175	0.075	193035	keystroke_l	l	n/a
96.9535	0.074	193907	keystroke_e	e	n/a
97.3875	0.075	194775	keystroke_n	n	n/a
97.6575	0.09	195315	keystroke_g	g	n/a
97.9425	0.09	195885	keystroke_e	e	n/a
98.3025	0.075	196605	keystroke_s	s	n/a
98.5725	0.105	197145	keystroke_Key.space	Key.space	n/a
98.8425	0.09	197685	keystroke_c	c	n/a
99.0075	0.09	198015	keystroke_o	o	n/a
99.2775	0.075	198555	keystroke_n	n	n/a
99.9225	0.075	199845	keystroke_f	f	n/a
100.1025	0.075	200205	keystroke_i	i	n/a
100.5075	0.105	201015	keystroke_d	d	n/a
101.2725	0.075	202545	keystroke_e	e	n/a
101.9475	0.06	203895	keystroke_n	n	n/a
103.4025	0.06	206805	keystroke_t	t	n/a
104.1685	0.075	208337	keystroke_i	i	n/a
104.5885	0.089	209177	keystroke_a	a	n/a
104.7985	0.09	209597	keystroke_l	l	n/a
106.1475	0.061	212295	keystroke_i	i	n/a
106.5675	0.076	213135	keystroke_t	t	n/a
106.7475	0.09	213495	keystroke_y	y	n/a
107.5275	0.105	215055	keystroke_Key.space	Key.space	n/a
108.6675	0.075	217335	keystroke_v	v	n/a
108.8625	0.06	217725	keystroke_i	i	n/a
109.2675	0.075	218535	keystroke_e	e	n/a
109.9425	0.075	219885	keystroke_t	t	n/a
110.4525	0.09	220905	keystroke_n	n	n/a
110.738	0.105	221476	keystroke_a	a	n/a
111.188	0.06	222376	keystroke_m	m	n/a
111.413	0.06	222826	keystroke_e	e	n/a
111.743	0.0755	223486	keystroke_s	s	n/a
112.2985	0.075	224597	keystroke_e	e	n/a
112.808	0.09	225616	keystroke_Key.enter	Key.enter	n/a
112.904	12.896	225808	prompt	n/a	athletic ellis pocket hughes\n
113.693	0.09	227386	keystroke_a	a	n/a
114.083	0.09	228166	keystroke_t	t	n/a
114.608	0.075	229216	keystroke_h	h	n/a
115.538	0.06	231076	keystroke_l	l	n/a
115.778	0.12	231556	keystroke_e	e	n/a
116.198	0.06	232396	keystroke_t	t	n/a
116.843	0.075	233686	keystroke_i	i	n/a
117.098	0.105	234196	keystroke_c	c	n/a
117.638	0.1195	235276	keystroke_Key.space	Key.space	n/a
118.2985	0.075	236597	keystroke_e	e	n/a
118.7335	0.06	237467	keystroke_l	l	n/a
118.8835	0.105	237767	keystroke_l	l	n/a
119.1685	0.075	238337	keystroke_i	i	n/a
119.3785	0.075	238757	keystroke_s	s	n/a
119.9335	0.105	239867	keystroke_Key.space	Key.space	n/a
120.5485	0.135	241097	keystroke_p	p	n/a
120.8785	0.105	241757	keystroke_o	o	n/a
121.1935	0.089	242387	keystroke_c	c	n/a
121.703	0.045	243406	keystroke_k	k	n/a
121.928	0.09	243856	keystroke_e	e	n/a
122.3485	0.0445	244697	keystroke_t	t	n/a
122.708	0.09	245416	keystroke_Key.space	Key.space	n/a
123.308	0.105	246616	keystroke_h	h	n/a
123.653	0.075	247306	keystroke_u	u	n/a
124.043	0.0905	248086	keystroke_g	g	n/a
124.1935	0.06	248387	keystroke_h	h	n/a
124.9435	0.06	249887	keystroke_e	e	n/a
125.2285	0.09	250457	keystroke_s	s	n/a
125.723	0.075	251446	keystroke_Key.enter	Key.enter	n/a
125.804	11.655	251608	prompt	n/a	shares offers liquid machines\n
126.653	0.075	253306	keystroke_s	s	n/a
126.773	0.075	253546	keystroke_h	h	n/a
126.983	0.105	253966	keystroke_a	a	n/a
127.313	0.075	254626	keystroke_r	r	n/a
127.508	0.075	255016	keystroke_e	e	n/a
127.853	0.075	255706	keystroke_s	s	n/a
128.078	0.12	256156	keystroke_Key.space	Key.space	n/a
128.333	0.105	256666	keystroke_o	o	n/a
128.513	0.06	257026	keystroke_f	f	n/a
128.663	0.09	257326	keystroke_f	f	n/a
129.098	0.09	258196	keystroke_e	e	n/a
129.368	0.075	258736	keystroke_r	r	n/a
129.713	0.105	259426	keystroke_s	s	n/a
129.953	0.105	259906	keystroke_Key.space	Key.space	n/a
130.388	0.105	260776	keystroke_l	l	n/a
130.6135	0.105	261227	keystroke_i	i	n/a
131.0035	0.09	262007	keystroke_q	q	n/a
132.1135	0.135	264227	keystroke_u	u	n/a
133.3285	0.0755	266657	keystroke_i	i	n/a
133.509	0.075	267018	keystroke_d	d	n/a
134.094	0.0895	268188	keystroke_Key.space	Key.space	n/a
134.5435	0.06	269087	keystroke_m	m	n/a
134.7085	0.09	269417	keystroke_a	a	n/a
135.009	0.09	270018	keystroke_c	c	n/a
135.084	0.105	270168	keystroke_h	h	n/a
135.775	0.0605	271550	keystroke_i	i	n/a
136.016	0.075	272032	keystroke_n	n	n/a
136.241	0.0605	272482	keystroke_e	e	n/a
136.5415	0.075	273083	keystroke_s	s	n/a
137.367	0.0905	274734	keystroke_Key.enter	Key.enter	n/a
137.4645	19.1235	274929	prompt	n/a	george branch philippines nationwide\n
138.3885	0.09	276777	keystroke_g	g	n/a
138.6735	0.105	277347	keystroke_e	e	n/a
139.7695	0.0905	279539	keystroke_o	o	n/a
140.025	0.06	280050	keystroke_r	r	n/a
140.701	0.09	281402	keystroke_g	g	n/a
140.9705	0.1055	281941	keystroke_e	e	n/a
141.452	0.1195	282904	keystroke_Key.space	Key.space	n/a
142.3525	0.075	284705	keystroke_b	b	n/a
142.8025	0.06	285605	keystroke_r	r	n/a
143.028	0.0895	286056	keystroke_a	a	n/a
143.989	0.045	287978	keystroke_n	n	n/a
144.5595	0.0595	289119	keystroke_c	c	n/a
144.6945	0.075	289389	keystroke_h	h	n/a
145.1595	0.0905	290319	keystroke_Key.space	Key.space	n/a
145.595	0.1355	291190	keystroke_p	p	n/a
145.911	0.135	291822	keystroke_h	h	n/a
146.6465	0.09	293293	keystroke_i	i	n/a
147.247	0.06	294494	keystroke_l	l	n/a
147.532	0.09	295064	keystroke_i	i	n/a
148.028	0.0895	296056	keystroke_p	p	n/a
148.8235	0.1205	297647	keystroke_p	p	n/a
149.244	0.09	298488	keystroke_i	i	n/a
149.4995	0.105	298999	keystroke_n	n	n/a
149.7245	0.075	299449	keystroke_e	e	n/a
149.995	0.105	299990	keystroke_s	s	n/a
150.355	0.0905	300710	keystroke_Key.space	Key.space	n/a
150.7005	0.09	301401	keystroke_n	n	n/a
150.866	0.12	301732	keystroke_a	a	n/a
151.256	0.0905	302512	keystroke_t	t	n/a
151.4215	0.105	302843	keystroke_i	i	n/a
151.6465	0.075	303293	keystroke_o	o	n/a
151.902	0.105	303804	keystroke_n	n	n/a
152.833	0.09	305666	keystroke_w	w	n/a
153.058	0.075	306116	keystroke_h	h	n/a
153.3885	0.09	306777	keystroke_i	i	n/a
154.2745	0.09	308549	keystroke_Key.backspace	Key.backspace	n/a
154.77	0.075	309540	keystroke_Key.backspace	Key.backspace	n/a
155.3405	0.06	310681	keystroke_i	i	n/a
155.5205	0.105	311041	keystroke_d	d	n/a
155.806	0.09	311612	keystroke_e	e	n/a
156.496	0.0905	312992	keystroke_Key.enter	Key.enter	n/a
156.591	13.5705	313182	prompt	n/a	instantly nike spare body\n
157.4425	0.075	314885	keystroke_i	i	n/a
157.6225	0.09	315245	keystroke_s	s	n/a
158.5085	0.09	317017	keystroke_Key.backspace	Key.backspace	n/a
159.079	0.06	318158	keystroke_n	n	n/a
159.5295	0.105	319059	keystroke_s	s	n/a
159.965	0.105	319930	keystroke_t	t	n/a
160.2805	0.09	320561	keystroke_a	a	n/a
160.4455	0.075	320891	keystroke_n	n	n/a
160.761	0.075	321522	keystroke_l	l	n/a
161.2865	0.105	322573	keystroke_Key.backspace	Key.backspace	n/a
161.752	0.09	323504	keystroke_t	t	n/a
162.577	0.0455	325154	keystroke_l	l	n/a
162.7725	0.09	325545	keystroke_y	y	n/a
163.0575	0.0905	326115	keystroke_Key.space	Key.space	n/a
163.5985	0.105	327197	keystroke_n	n	n/a
163.8235	0.09	327647	keystroke_i	i	n/a
164.064	0.09	328128	keystroke_k	k	n/a
164.319	0.075	328638	keystroke_e	e	n/a
164.469	0.0905	328938	keystroke_Key.space	Key.space	n/a
164.98	0.09	329960	keystroke_s	s	n/a
165.13	0.1055	330260	keystroke_p	p	n/a
165.3405	0.1205	330681	keystroke_a	a	n/a
165.686	0.105	331372	keystroke_r	r	n/a
165.9265	0.09	331853	keystroke_e	e	n/a
166.3465	0.105	332693	keystroke_Key.space	Key.space	n/a
167.067	0.105	334134	keystroke_b	b	n/a
167.262	0.0905	334524	keystroke_o	o	n/a
167.5475	0.075	335095	keystroke_d	d	n/a
167.7125	0.075	335425	keystroke_y	y	n/a
170.1325	0.0275	340265	keystroke_Key.enter	Key.enter	n/a
170.1675	16.747	340335	prompt	n/a	appliance adjustments how's farms\n
170.941	0.09	341882	keystroke_a	a	n/a
171.1365	0.105	342273	keystroke_p	p	n/a
171.3465	0.105	342693	keystroke_p	p	n/a
172.412	0.196	344824	keystroke_l	l	n/a
172.863	0.0605	345726	keystroke_i	i	n/a
173.434	0.09	346868	keystroke_a	a	n/a
173.734	0.06	347468	keystroke_n	n	n/a
173.9745	0.105	347949	keystroke_c	c	n/a
174.289	0.075	348578	keystroke_e	e	n/a
174.5445	0.075	349089	keystroke_Key.space	Key.space	n/a
174.965	0.09	349930	keystroke_a	a	n/a
175.19	0.09	350380	keystroke_d	d	n/a
175.46	0.0905	350920	keystroke_u	u	n/a
176.346	0.106	352692	keystroke_Key.backspace	Key.backspace	n/a
176.9475	0.09	353895	keystroke_j	j	n/a
179.2165	0.013	358433	keystroke_u	u	n/a
179.3345	0.09	358669	keystroke_s	s	n/a
179.7095	0.0905	359419	keystroke_t	t	n/a
180.055	0.075	360110	keystroke_m	m	n/a
180.22	0.0905	360440	keystroke_e	e	n/a
180.4005	0.06	360801	keystroke_n	n	n/a
180.6405	0.075	361281	keystroke_t	t	n/a
180.971	0.105	361942	keystroke_s	s	n/a
181.166	0.09	362332	keystroke_Key.space	Key.space	n/a
181.4215	0.105	362843	keystroke_h	h	n/a
181.6465	0.075	363293	keystroke_o	o	n/a
182.7575	0.045	365515	keystroke_w	w	n/a
183.223	0.045	366446	keystroke_'	'	n/a
183.328	0.075	366656	keystroke_s	s	n/a
183.9885	0.09	367977	keystroke_Key.space	Key.space	n/a
184.3185	0.0895	368637	keystroke_f	f	n/a
184.5735	0.105	369147	keystroke_a	a	n/a
184.858	0.06	369716	keystroke_r	r	n/a
184.9935	0.075	369987	keystroke_m	m	n/a
185.6235	0.075	371247	keystroke_s	s	n/a
186.823	0.0895	373646	keystroke_Key.enter	Key.enter	n/a
186.918	16.54	373836	prompt	n/a	studios video fashion mailto\n
187.5725	0.106	375145	keystroke_s	s	n/a
187.9325	0.075	375865	keystroke_t	t	n/a
188.2625	0.061	376525	keystroke_u	u	n/a
188.4585	0.104	376917	keystroke_d	d	n/a
189.1635	0.09	378327	keystroke_i	i	n/a
189.3585	0.075	378717	keystroke_o	o	n/a
189.7325	0.06	379465	keystroke_s	s	n/a
190.2575	0.075	380515	keystroke_Key.space	Key.space	n/a
190.9625	0.0605	381925	keystroke_v	v	n/a
191.113	0.06	382226	keystroke_i	i	n/a
191.3225	0.09	382645	keystroke_d	d	n/a
191.5775	0.06	383155	keystroke_e	e	n/a
193.0025	0.045	386005	keystroke_o	o	n/a
193.452	0.1205	386904	keystroke_Key.space	Key.space	n/a
193.842	0.09	387684	keystroke_f	f	n/a
194.1125	0.105	388225	keystroke_a	a	n/a
194.382	0.0755	388764	keystroke_s	s	n/a
194.5625	0.105	389125	keystroke_h	h	n/a
194.952	0.105	389904	keystroke_i	i	n/a
195.2075	0.0745	390415	keystroke_o	o	n/a
195.402	0.105	390804	keystroke_n	n	n/a
195.657	0.105	391314	keystroke_Key.space	Key.space	n/a
196.122	0.105	392244	keystroke_m	m	n/a
196.422	0.09	392844	keystroke_a	a	n/a
197.577	0.09	395154	keystroke_i	i	n/a
198.042	0.075	396084	keystroke_t	t	n/a
200.879	0.028	401758	keystroke_Key.backspace	Key.backspace	n/a
201.417	0.09	402834	keystroke_l	l	n/a
202.2715	0.045	404543	keystroke_t	t	n/a
202.602	0.105	405204	keystroke_o	o	n/a
203.382	0.075	406764	keystroke_Key.enter	Key.enter	n/a
203.4615	23.5735	406923	prompt	n/a	configurations cursor disaster adequate\n
204.2965	0.09	408593	keystroke_c	c	n/a
204.447	0.089	408894	keystroke_o	o	n/a
204.7315	0.075	409463	keystroke_f	f	n/a
205.1965	0.09	410393	keystroke_i	i	n/a
205.4365	0.06	410873	keystroke_g	g	n/a
206.381	0.1055	412762	keystroke_Key.backspace	Key.backspace	n/a
206.9665	0.105	413933	keystroke_Key.backspace	Key.backspace	n/a
207.5515	0.0445	415103	keystroke_Key.backspace	Key.backspace	n/a
208.061	0.105	416122	keystroke_m	m	n/a
209.0805	0.09	418161	keystroke_Key.backspace	Key.backspace	n/a
209.635	0.075	419270	keystroke_n	n	n/a
209.875	0.06	419750	keystroke_f	f	n/a
210.055	0.06	420110	keystroke_i	i	n/a
210.4755	0.06	420951	keystroke_g	g	n/a
211.2255	0.09	422451	keystroke_u	u	n/a
211.556	0.0895	423112	keystroke_r	r	n/a
212.1855	0.105	424371	keystroke_a	a	n/a
212.5455	0.075	425091	keystroke_t	t	n/a
212.6805	0.12	425361	keystroke_i	i	n/a
212.8455	0.105	425691	keystroke_o	o	n/a
213.0705	0.09	426141	keystroke_n	n	n/a
213.76	0.09	427520	keystroke_s	s	n/a
214.015	0.0895	428030	keystroke_Key.space	Key.space	n/a
214.3595	0.091	428719	keystroke_c	c	n/a
214.5855	0.0595	429171	keystroke_u	u	n/a
214.945	0.09	429890	keystroke_r	r	n/a
216.084	0.0755	432168	keystroke_s	s	n/a
216.2945	0.075	432589	keystroke_o	o	n/a
216.6095	0.075	433219	keystroke_r	r	n/a
216.8045	0.075	433609	keystroke_Key.space	Key.space	n/a
217.2395	0.015	434479	keystroke_d	d	n/a
217.3595	0.075	434719	keystroke_i	i	n/a
217.8695	0.09	435739	keystroke_s	s	n/a
218.244	0.09	436488	keystroke_a	a	n/a
218.665	0.12	437330	keystroke_s	s	n/a
219.084	0.076	438168	keystroke_t	t	n/a
219.324	0.105	438648	keystroke_e	e	n/a
219.564	0.076	439128	keystroke_r	r	n/a
220.0435	0.105	440087	keystroke_Key.space	Key.space	n/a
220.2985	0.1215	440597	keystroke_a	a	n/a
220.6435	0.09	441287	keystroke_d	d	n/a
221.709	0.075	443418	keystroke_q	q	n/a
222.864	0.09	445728	keystroke_Key.backspace	Key.backspace	n/a
223.4035	0.06	446807	keystroke_e	e	n/a
224.2585	0.09	448517	keystroke_q	q	n/a
224.9185	0.045	449837	keystroke_u	u	n/a
225.5035	0.105	451007	keystroke_a	a	n/a
225.8635	0.0895	451727	keystroke_t	t	n/a
226.133	0.0905	452266	keystroke_e	e	n/a
226.9435	0.09	453887	keystroke_Key.enter	Key.enter	n/a
227.0395	14.1675	454079	prompt	n/a	tamil honolulu boolean vocals\n
227.918	0.06	455836	keystroke_t	t	n/a
228.188	0.09	456376	keystroke_a	a	n/a
228.338	0.09	456676	keystroke_m	m	n/a
228.5775	0.075	457155	keystroke_i	i	n/a
228.8025	0.1055	457605	keystroke_l	l	n/a
229.2675	0.09	458535	keystroke_Key.space	Key.space	n/a
229.6575	0.105	459315	keystroke_h	h	n/a
229.9425	0.105	459885	keystroke_o	o	n/a
230.2425	0.105	460485	keystroke_n	n	n/a
231.1425	0.09	462285	keystroke_o	o	n/a
231.727	0.09	463454	keystroke_l	l	n/a
232.1925	0.104	464385	keystroke_u	u	n/a
233.332	0.1045	466664	keystroke_l	l	n/a
233.8265	0.075	467653	keystroke_u	u	n/a
234.441	0.09	468882	keystroke_Key.space	Key.space	n/a
234.921	0.075	469842	keystroke_v	v	n/a
235.896	0.075	471792	keystroke_Key.backspace	Key.backspace	n/a
236.331	0.075	472662	keystroke_b	b	n/a
236.571	0.075	473142	keystroke_o	o	n/a
236.721	0.09	473442	keystroke_o	o	n/a
237.456	0.09	474912	keystroke_l	l	n/a
237.651	0.075	475302	keystroke_e	e	n/a
237.891	0.0895	475782	keystroke_a	a	n/a
238.0405	0.075	476081	keystroke_n	n	n/a
238.461	0.105	476922	keystroke_Key.space	Key.space	n/a
239.001	0.105	478002	keystroke_v	v	n/a
239.4955	0.075	478991	keystroke_o	o	n/a
239.7505	0.075	479501	keystroke_c	c	n/a
240.0505	0.0905	480101	keystroke_a	a	n/a
240.201	0.105	480402	keystroke_l	l	n/a
240.501	0.09	481002	keystroke_s	s	n/a
241.13	0.075	482260	keystroke_Key.enter	Key.enter	n/a
241.211	26.3015	482422	prompt	n/a	participated strap editing encouraging\n
242.016	0.09	484032	keystroke_p	p	n/a
242.345	0.075	484690	keystroke_a	a	n/a
242.631	0.105	485262	keystroke_r	r	n/a
243.231	0.0745	486462	keystroke_t	t	n/a
244.0405	0.06	488081	keystroke_i	i	n/a
244.55	0.1055	489100	keystroke_c	c	n/a
245.06	0.09	490120	keystroke_i	i	n/a
245.5695	0.09	491139	keystroke_o	o	n/a
246.3195	0.135	492639	keystroke_Key.backspace	Key.backspace	n/a
246.8595	0.09	493719	keystroke_p	p	n/a
247.0695	0.09	494139	keystroke_a	a	n/a
247.8195	0.09	495639	keystroke_t	t	n/a
248.1495	0.105	496299	keystroke_e	e	n/a
248.509	0.09	497018	keystroke_d	d	n/a
249.094	0.105	498188	keystroke_Key.space	Key.space	n/a
249.424	0.105	498848	keystroke_s	s	n/a
249.9785	0.12	499957	keystroke_t	t	n/a
250.3395	0.0895	500679	keystroke_r	r	n/a
250.7735	0.1355	501547	keystroke_a	a	n/a
250.999	0.105	501998	keystroke_p	p	n/a
251.6135	0.06	503227	keystroke_Key.space	Key.space	n/a
251.944	0.03	503888	keystroke_e	e	n/a
252.5585	0.0755	505117	keystroke_d	d	n/a
252.7835	0.075	505567	keystroke_i	i	n/a
253.0535	0.09	506107	keystroke_t	t	n/a
253.204	0.0735	506408	keystroke_i	i	n/a
253.4425	0.09	506885	keystroke_n	n	n/a
253.6375	0.09	507275	keystroke_g	g	n/a
254.2375	0.09	508475	keystroke_Key.space	Key.space	n/a
254.7325	0.165	509465	keystroke_e	e	n/a
256.1275	0.06	512255	keystroke_n	n	n/a
256.428	0.06	512856	keystroke_c	c	n/a
257.433	0.09	514866	keystroke_o	o	n/a
257.823	0.105	515646	keystroke_u	u	n/a
258.543	0.09	517086	keystroke_r	r	n/a
258.9775	0.1055	517955	keystroke_a	a	n/a
259.3525	0.045	518705	keystroke_f	f	n/a
260.0875	0.12	520175	keystroke_Key.backspace	Key.backspace	n/a
260.4625	0.075	520925	keystroke_g	g	n/a
260.8075	0.09	521615	keystroke_e	e	n/a
261.647	0.075	523294	keystroke_i	i	n/a
261.857	0.06	523714	keystroke_n	n	n/a
262.921	0.105	525842	keystroke_Key.backspace	Key.backspace	n/a
263.551	0.09	527102	keystroke_Key.backspace	Key.backspace	n/a
264.136	0.09	528272	keystroke_Key.backspace	Key.backspace	n/a
265.0815	0.059	530163	keystroke_i	i	n/a
265.2605	0.075	530521	keystroke_n	n	n/a
265.4705	0.075	530941	keystroke_g	g	n/a
267.4655	0.045	534931	keystroke_Key.enter	Key.enter	n/a
267.5155	13.2245	535031	prompt	n/a	united funding retirement fancy\n
268.2755	0.075	536551	keystroke_u	u	n/a
268.486	0.1045	536972	keystroke_n	n	n/a
269.5505	0.075	539101	keystroke_i	i	n/a
269.7905	0.075	539581	keystroke_t	t	n/a
270.0305	0.105	540061	keystroke_e	e	n/a
270.2695	0.076	540539	keystroke_d	d	n/a
270.9445	0.075	541889	keystroke_Key.space	Key.space	n/a
271.3805	0.0895	542761	keystroke_f	f	n/a
271.56	0.09	543120	keystroke_u	u	n/a
271.83	0.09	543660	keystroke_n	n	n/a
272.01	0.09	544020	keystroke_d	d	n/a
272.22	0.075	544440	keystroke_i	i	n/a
272.91	0.045	545820	keystroke_n	n	n/a
273.06	0.06	546120	keystroke_g	g	n/a
273.375	0.09	546750	keystroke_Key.space	Key.space	n/a
273.75	0.075	547500	keystroke_r	r	n/a
274.095	0.075	548190	keystroke_e	e	n/a
274.875	0.075	549750	keystroke_t	t	n/a
275.16	0.06	550320	keystroke_i	i	n/a
275.385	0.075	550770	keystroke_r	r	n/a
275.7145	0.06	551429	keystroke_e	e	n/a
276.6895	0.045	553379	keystroke_m	m	n/a
277.0495	0.09	554099	keystroke_e	e	n/a
277.1995	0.09	554399	keystroke_n	n	n/a
277.5145	0.1045	555029	keystroke_t	t	n/a
277.829	0.105	555658	keystroke_Key.space	Key.space	n/a
278.114	0.135	556228	keystroke_f	f	n/a
278.444	0.12	556888	keystroke_a	a	n/a
278.954	0.075	557908	keystroke_n	n	n/a
279.194	0.165	558388	keystroke_c	c	n/a
279.869	0.06	559738	keystroke_y	y	n/a
280.649	0.09	561298	keystroke_Key.enter	Key.enter	n/a
280.7435	21.713	561487	prompt	n/a	airline symantec hanging anaheim\n
281.6535	0.119	563307	keystroke_a	a	n/a
281.9825	0.061	563965	keystroke_i	i	n/a
282.1775	0.075	564355	keystroke_r	r	n/a
282.6285	0.089	565257	keystroke_l	l	n/a
282.8225	0.06	565645	keystroke_i	i	n/a
282.9875	0.09	565975	keystroke_n	n	n/a
283.213	0.074	566426	keystroke_e	e	n/a
283.9775	0.09	567955	keystroke_Key.space	Key.space	n/a
284.4425	0.06	568885	keystroke_s	s	n/a
284.6675	0.075	569335	keystroke_y	y	n/a
285.1475	0.045	570295	keystroke_m	m	n/a
285.5525	0.09	571105	keystroke_a	a	n/a
286.062	0.075	572124	keystroke_n	n	n/a
286.467	0.09	572934	keystroke_t	t	n/a
286.932	0.09	573864	keystroke_e	e	n/a
288.0715	0.091	576143	keystroke_c	c	n/a
288.6865	0.075	577373	keystroke_Key.space	Key.space	n/a
295.648	0.028	591296	keystroke_h	h	n/a
295.841	0.09	591682	keystroke_a	a	n/a
296.066	0.09	592132	keystroke_n	n	n/a
296.321	0.0895	592642	keystroke_g	g	n/a
296.8305	0.075	593661	keystroke_i	i	n/a
297.0255	0.105	594051	keystroke_n	n	n/a
297.2805	0.075	594561	keystroke_g	g	n/a
297.9105	0.105	595821	keystroke_Key.space	Key.space	n/a
298.3155	0.076	596631	keystroke_a	a	n/a
298.421	0.09	596842	keystroke_n	n	n/a
298.616	0.09	597232	keystroke_a	a	n/a
299.56	0.075	599120	keystroke_h	h	n/a
299.815	0.075	599630	keystroke_e	e	n/a
300.385	0.06	600770	keystroke_i	i	n/a
301.225	0.075	602450	keystroke_m	m	n/a
302.395	0.06	604790	keystroke_Key.enter	Key.enter	n/a
302.462	16.567	604924	prompt	n/a	infant collectables see artists\n
303.475	0.075	606950	keystroke_i	i	n/a
303.7	0.075	607400	keystroke_n	n	n/a
303.97	0.09	607940	keystroke_f	f	n/a
304.375	0.105	608750	keystroke_a	a	n/a
304.525	0.075	609050	keystroke_n	n	n/a
304.825	0.06	609650	keystroke_t	t	n/a
305.3645	0.09	610729	keystroke_Key.space	Key.space	n/a
305.8745	0.0745	611749	keystroke_c	c	n/a
305.994	0.075	611988	keystroke_o	o	n/a
306.249	0.075	612498	keystroke_l	l	n/a
306.3995	0.075	612799	keystroke_l	l	n/a
306.6395	0.03	613279	keystroke_e	e	n/a
307.074	0.12	614148	keystroke_c	c	n/a
307.779	0.075	615558	keystroke_t	t	n/a
308.0185	0.105	616037	keystroke_a	a	n/a
308.8735	0.075	617747	keystroke_l	l	n/a
309.1585	0.105	618317	keystroke_e	e	n/a
309.849	0.12	619698	keystroke_Key.backspace	Key.backspace	n/a
310.2385	0.075	620477	keystroke_Key.backspace	Key.backspace	n/a
310.523	0.06	621046	keystroke_b	b	n/a
310.673	0.106	621346	keystroke_l	l	n/a
310.853	0.09	621706	keystroke_e	e	n/a
311.603	0.075	623206	keystroke_s	s	n/a
311.768	0.09	623536	keystroke_Key.space	Key.space	n/a
312.038	0.121	624076	keystroke_s	s	n/a
312.323	0.06	624646	keystroke_e	e	n/a
312.473	0.105	624946	keystroke_e	e	n/a
312.848	0.06	625696	keystroke_Key.space	Key.space	n/a
313.164	0.104	626328	keystroke_a	a	n/a
313.808	0.075	627616	keystroke_r	r	n/a
314.303	0.075	628606	keystroke_t	t	n/a
314.7985	0.06	629597	keystroke_i	i	n/a
314.9335	0.09	629867	keystroke_s	s	n/a
315.0985	0.075	630197	keystroke_i	i	n/a
315.4585	0.075	630917	keystroke_t	t	n/a
316.6725	0.09	633345	keystroke_Key.backspace	Key.backspace	n/a
317.2575	0.09	634515	keystroke_Key.backspace	Key.backspace	n/a
317.812	0.1655	635624	keystroke_t	t	n/a
318.097	0.09	636194	keystroke_s	s	n/a
318.922	0.105	637844	keystroke_Key.enter	Key.enter	n/a
319.0325	18.249	638065	prompt	n/a	experiments jobs sculpture ieee\n
319.747	0.075	639494	keystroke_e	e	n/a
320.407	0.09	640814	keystroke_x	x	n/a
321.052	0.09	642104	keystroke_p	p	n/a
321.292	0.09	642584	keystroke_e	e	n/a
321.547	0.075	643094	keystroke_r	r	n/a
321.757	0.075	643514	keystroke_i	i	n/a
321.952	0.105	643904	keystroke_m	m	n/a
322.162	0.075	644324	keystroke_e	e	n/a
322.357	0.075	644714	keystroke_n	n	n/a
322.6725	0.059	645345	keystroke_t	t	n/a
323.1225	0.059	646245	keystroke_s	s	n/a
323.3165	0.09	646633	keystroke_Key.space	Key.space	n/a
323.8265	0.09	647653	keystroke_j	j	n/a
324.0515	0.105	648103	keystroke_o	o	n/a
324.486	0.09	648972	keystroke_b	b	n/a
325.191	0.105	650382	keystroke_a	a	n/a
326.3915	0.1195	652783	keystroke_Key.backspace	Key.backspace	n/a
326.646	0.06	653292	keystroke_s	s	n/a
326.841	0.09	653682	keystroke_Key.space	Key.space	n/a
327.801	0.06	655602	keystroke_a	a	n/a
329.0605	0.075	658121	keystroke_Key.backspace	Key.backspace	n/a
329.4505	0.06	658901	keystroke_s	s	n/a
329.7805	0.075	659561	keystroke_c	c	n/a
330.576	0.105	661152	keystroke_u	u	n/a
331.611	0.074	663222	keystroke_l	l	n/a
332.016	0.089	664032	keystroke_p	p	n/a
333.305	0.06	666610	keystroke_t	t	n/a
333.455	0.09	666910	keystroke_u	u	n/a
333.665	0.075	667330	keystroke_r	r	n/a
333.98	0.0755	667960	keystroke_e	e	n/a
334.64	0.09	669280	keystroke_Key.space	Key.space	n/a
335.12	0.0745	670240	keystroke_i	i	n/a
335.5545	0.075	671109	keystroke_e	e	n/a
335.7645	0.09	671529	keystroke_e	e	n/a
336.6045	0.075	673209	keystroke_e	e	n/a
337.1755	0.104	674351	keystroke_Key.enter	Key.enter	n/a
337.286	20.423	674572	prompt	n/a	camcorder interventions performer examines\n
338.2395	0.075	676479	keystroke_c	c	n/a
338.675	0.075	677350	keystroke_a	a	n/a
338.795	0.075	677590	keystroke_m	m	n/a
339.32	0.105	678640	keystroke_c	c	n/a
339.485	0.0895	678970	keystroke_o	o	n/a
339.9495	0.075	679899	keystroke_r	r	n/a
340.2045	0.09	680409	keystroke_d	d	n/a
340.4745	0.09	680949	keystroke_e	e	n/a
340.6995	0.075	681399	keystroke_r	r	n/a
340.9085	0.091	681817	keystroke_Key.space	Key.space	n/a
341.1495	0.06	682299	keystroke_i	i	n/a
341.3145	0.09	682629	keystroke_n	n	n/a
341.6745	0.06	683349	keystroke_t	t	n/a
342.769	0.075	685538	keystroke_e	e	n/a
343.009	0.075	686018	keystroke_r	r	n/a
343.369	0.075	686738	keystroke_v	v	n/a
343.729	0.075	687458	keystroke_e	e	n/a
344.254	0.06	688508	keystroke_n	n	n/a
345.1385	0.06	690277	keystroke_t	t	n/a
345.2585	0.105	690517	keystroke_i	i	n/a
345.5735	0.135	691147	keystroke_o	o	n/a
345.9035	0.12	691807	keystroke_n	n	n/a
346.6835	0.09	693367	keystroke_s	s	n/a
346.8485	0.09	693697	keystroke_Key.space	Key.space	n/a
347.1035	0.09	694207	keystroke_p	p	n/a
347.3135	0.09	694627	keystroke_e	e	n/a
347.568	0.09	695136	keystroke_r	r	n/a
348.198	0.09	696396	keystroke_f	f	n/a
348.378	0.075	696756	keystroke_o	o	n/a
348.573	0.09	697146	keystroke_r	r	n/a
349.758	0.06	699516	keystroke_m	m	n/a
349.968	0.09	699936	keystroke_e	e	n/a
350.253	0.09	700506	keystroke_r	r	n/a
350.853	0.0745	701706	keystroke_Key.space	Key.space	n/a
351.1825	0.075	702365	keystroke_e	e	n/a
351.5875	0.06	703175	keystroke_c	c	n/a
352.2775	0.09	704555	keystroke_Key.backspace	Key.backspace	n/a
352.5325	0.0905	705065	keystroke_x	x	n/a
352.833	0.105	705666	keystroke_a	a	n/a
353.013	0.075	706026	keystroke_m	m	n/a
353.658	0.075	707316	keystroke_i	i	n/a
353.853	0.075	707706	keystroke_n	n	n/a
354.0775	0.075	708155	keystroke_e	e	n/a
354.393	0.09	708786	keystroke_s	s	n/a
357.6795	0.027	715359	keystroke_Key.enter	Key.enter	n/a
357.712	10.225	715424	prompt	n/a	candle wales smith trace\n
358.412	0.09	716824	keystroke_c	c	n/a
358.727	0.06	717454	keystroke_a	a	n/a
358.847	0.06	717694	keystroke_n	n	n/a
359.072	0.09	718144	keystroke_d	d	n/a
359.717	0.06	719434	keystroke_l	l	n/a
359.897	0.075	719794	keystroke_e	e	n/a
360.167	0.09	720334	keystroke_Key.space	Key.space	n/a
360.586	0.076	721172	keystroke_w	w	n/a
361.0815	0.075	722163	keystroke_a	a	n/a
361.2165	0.09	722433	keystroke_l	l	n/a
361.4715	0.09	722943	keystroke_e	e	n/a
361.9665	0.075	723933	keystroke_s	s	n/a
362.3115	0.1045	724623	keystroke_Key.space	Key.space	n/a
362.7465	0.045	725493	keystroke_s	s	n/a
363.0605	0.106	726121	keystroke_m	m	n/a
363.4665	0.075	726933	keystroke_i	i	n/a
363.7065	0.06	727413	keystroke_t	t	n/a
363.8115	0.074	727623	keystroke_h	h	n/a
364.0965	0.089	728193	keystroke_Key.space	Key.space	n/a
364.5755	0.075	729151	keystroke_r	r	n/a
365.506	0.0745	731012	keystroke_Key.backspace	Key.backspace	n/a
365.8065	0.059	731613	keystroke_t	t	n/a
366.0005	0.075	732001	keystroke_r	r	n/a
366.4055	0.075	732811	keystroke_a	a	n/a
366.7055	0.106	733411	keystroke_c	c	n/a
366.9905	0.06	733981	keystroke_e	e	n/a
367.8605	0.075	735721	keystroke_Key.enter	Key.enter	n/a
367.9405	21.729	735881	prompt	n/a	advantages shuttle duck saturday\n
369.1805	0.09	738361	keystroke_a	a	n/a
369.4805	0.075	738961	keystroke_d	d	n/a
369.7655	0.075	739531	keystroke_v	v	n/a
370.1555	0.09	740311	keystroke_a	a	n/a
370.4255	0.075	740851	keystroke_n	n	n/a
371.4005	0.075	742801	keystroke_t	t	n/a
371.7155	0.105	743431	keystroke_a	a	n/a
371.9705	0.09	743941	keystroke_f	f	n/a
372.8255	0.105	745651	keystroke_Key.backspace	Key.backspace	n/a
373.1405	0.075	746281	keystroke_g	g	n/a
373.3955	0.09	746791	keystroke_e	e	n/a
374.2205	0.09	748441	keystroke_s	s	n/a
374.3855	0.09	748771	keystroke_Key.space	Key.space	n/a
374.6105	0.06	749221	keystroke_s	s	n/a
374.7155	0.105	749431	keystroke_h	h	n/a
375.675	0.075	751350	keystroke_u	u	n/a
376.56	0.075	753120	keystroke_f	f	n/a
376.725	0.075	753450	keystroke_f	f	n/a
376.95	0.075	753900	keystroke_l	l	n/a
377.145	0.06	754290	keystroke_e	e	n/a
378.2845	0.105	756569	keystroke_Key.backspace	Key.backspace	n/a
378.9295	0.09	757859	keystroke_Key.backspace	Key.backspace	n/a
379.6045	0.045	759209	keystroke_Key.backspace	Key.backspace	n/a
380.0995	0.075	760199	keystroke_Key.backspace	Key.backspace	n/a
380.7295	0.12	761459	keystroke_t	t	n/a
380.8645	0.09	761729	keystroke_t	t	n/a
381.2845	0.075	762569	keystroke_l	l	n/a
381.4645	0.075	762929	keystroke_e	e	n/a
381.9145	0.12	763829	keystroke_Key.space	Key.space	n/a
382.4245	0.075	764849	keystroke_d	d	n/a
382.6195	0.06	765239	keystroke_u	u	n/a
383.204	0.0755	766408	keystroke_c	c	n/a
383.429	0.06	766858	keystroke_k	k	n/a
383.9095	0.09	767819	keystroke_Key.space	Key.space	n/a
384.704	0.075	769408	keystroke_s	s	n/a
385.304	0.09	770608	keystroke_a	a	n/a
385.769	0.075	771538	keystroke_t	t	n/a
386.249	0.045	772498	keystroke_u	u	n/a
387.1035	0.09	774207	keystroke_r	r	n/a
387.8535	0.105	775707	keystroke_d	d	n/a
388.1235	0.075	776247	keystroke_a	a	n/a
388.3035	0.09	776607	keystroke_y	y	n/a
389.5935	0.075	779187	keystroke_Key.enter	Key.enter	n/a
389.674	18.0685	779348	prompt	n/a	spectrum induction flying classified\n
390.838	0.09	781676	keystroke_s	s	n/a
391.003	0.105	782006	keystroke_p	p	n/a
391.183	0.075	782366	keystroke_e	e	n/a
391.453	0.09	782906	keystroke_c	c	n/a
391.8875	0.075	783775	keystroke_t	t	n/a
393.0275	0.075	786055	keystroke_r	r	n/a
393.2075	0.045	786415	keystroke_u	u	n/a
393.6125	0.105	787225	keystroke_m	m	n/a
394.2875	0.1045	788575	keystroke_Key.space	Key.space	n/a
394.7525	0.089	789505	keystroke_i	i	n/a
395.0215	0.061	790043	keystroke_n	n	n/a
395.803	0.06	791606	keystroke_d	d	n/a
396.118	0.059	792236	keystroke_u	u	n/a
396.3875	0.0905	792775	keystroke_c	c	n/a
397.9175	0.09	795835	keystroke_t	t	n/a
398.0675	0.135	796135	keystroke_i	i	n/a
398.2475	0.105	796495	keystroke_o	o	n/a
398.9675	0.09	797935	keystroke_n	n	n/a
399.582	0.1055	799164	keystroke_Key.space	Key.space	n/a
399.957	0.075	799914	keystroke_f	f	n/a
400.062	0.09	800124	keystroke_l	l	n/a
400.347	0.12	800694	keystroke_y	y	n/a
400.902	0.105	801804	keystroke_i	i	n/a
402.042	0.075	804084	keystroke_n	n	n/a
402.237	0.06	804474	keystroke_g	g	n/a
402.732	0.06	805464	keystroke_Key.space	Key.space	n/a
403.032	0.075	806064	keystroke_c	c	n/a
403.182	0.075	806364	keystroke_l	l	n/a
403.422	0.075	806844	keystroke_a	a	n/a
403.677	0.075	807354	keystroke_s	s	n/a
403.842	0.12	807684	keystroke_s	s	n/a
404.802	0.06	809604	keystroke_i	i	n/a
405.2965	0.075	810593	keystroke_f	f	n/a
406.211	0.06	812422	keystroke_i	i	n/a
406.3915	0.09	812783	keystroke_e	e	n/a
406.7065	0.09	813413	keystroke_d	d	n/a
407.6515	0.0895	815303	keystroke_Key.enter	Key.enter	n/a
407.746	12.926	815492	prompt	n/a	danger receives ozone paperback\n
408.551	0.09	817102	keystroke_d	d	n/a
408.776	0.105	817552	keystroke_a	a	n/a
408.941	0.09	817882	keystroke_n	n	n/a
409.196	0.105	818392	keystroke_g	g	n/a
409.526	0.105	819052	keystroke_e	e	n/a
409.781	0.075	819562	keystroke_r	r	n/a
409.991	0.1195	819982	keystroke_Key.space	Key.space	n/a
410.2905	0.105	820581	keystroke_r	r	n/a
410.501	0.075	821002	keystroke_e	e	n/a
410.816	0.12	821632	keystroke_c	c	n/a
411.146	0.045	822292	keystroke_e	e	n/a
411.806	0.06	823612	keystroke_i	i	n/a
412.001	0.105	824002	keystroke_c	c	n/a
412.6755	0.09	825351	keystroke_Key.backspace	Key.backspace	n/a
412.9005	0.075	825801	keystroke_v	v	n/a
413.3205	0.09	826641	keystroke_e	e	n/a
413.6955	0.075	827391	keystroke_s	s	n/a
413.9205	0.105	827841	keystroke_Key.space	Key.space	n/a
414.4905	0.12	828981	keystroke_o	o	n/a
414.9405	0.135	829881	keystroke_z	z	n/a
415.7655	0.09	831531	keystroke_o	o	n/a
416.021	0.09	832042	keystroke_n	n	n/a
416.231	0.075	832462	keystroke_e	e	n/a
416.741	0.12	833482	keystroke_Key.space	Key.space	n/a
417.011	0.105	834022	keystroke_p	p	n/a
417.1755	0.09	834351	keystroke_a	a	n/a
417.3255	0.09	834651	keystroke_p	p	n/a
417.5205	0.105	835041	keystroke_e	e	n/a
417.8055	0.1055	835611	keystroke_r	r	n/a
418.8705	0.075	837741	keystroke_b	b	n/a
419.17	0.09	838340	keystroke_a	a	n/a
419.53	0.09	839060	keystroke_c	c	n/a
419.665	0.075	839330	keystroke_k	k	n/a
420.5655	0.105	841131	keystroke_Key.enter	Key.enter	n/a
420.6755	12.3855	841351	prompt	n/a	senators shelf scanners nicole\n
421.7655	0.09	843531	keystroke_s	s	n/a
422.0655	0.075	844131	keystroke_e	e	n/a
422.2905	0.045	844581	keystroke_n	n	n/a
423.205	0.045	846410	keystroke_a	a	n/a
423.415	0.075	846830	keystroke_t	t	n/a
423.655	0.09	847310	keystroke_o	o	n/a
424.06	0.075	848120	keystroke_r	r	n/a
424.495	0.09	848990	keystroke_s	s	n/a
424.945	0.105	849890	keystroke_Key.space	Key.space	n/a
425.14	0.105	850280	keystroke_s	s	n/a
425.275	0.105	850550	keystroke_h	h	n/a
425.53	0.075	851060	keystroke_e	e	n/a
425.71	0.075	851420	keystroke_l	l	n/a
425.92	0.105	851840	keystroke_f	f	n/a
426.3995	0.105	852799	keystroke_Key.space	Key.space	n/a
426.9995	0.075	853999	keystroke_s	s	n/a
427.4045	0.09	854809	keystroke_c	c	n/a
427.8545	0.06	855709	keystroke_a	a	n/a
428.214	0.075	856428	keystroke_n	n	n/a
428.379	0.09	856758	keystroke_n	n	n/a
428.589	0.12	857178	keystroke_e	e	n/a
428.859	0.09	857718	keystroke_r	r	n/a
429.174	0.105	858348	keystroke_s	s	n/a
430.299	0.09	860598	keystroke_Key.space	Key.space	n/a
430.554	0.105	861108	keystroke_n	n	n/a
430.839	0.075	861678	keystroke_i	i	n/a
431.424	0.06	862848	keystroke_c	c	n/a
431.889	0.075	863778	keystroke_o	o	n/a
432.099	0.09	864198	keystroke_l	l	n/a
432.309	0.06	864618	keystroke_e	e	n/a
432.969	0.09	865938	keystroke_Key.enter	Key.enter	n/a
433.0645	12.3855	866129	prompt	n/a	thin literature becoming blend\n
434.034	0.06	868068	keystroke_t	t	n/a
434.124	0.105	868248	keystroke_h	h	n/a
434.349	0.105	868698	keystroke_i	i	n/a
434.589	0.09	869178	keystroke_n	n	n/a
434.844	0.09	869688	keystroke_Key.space	Key.space	n/a
435.414	0.0905	870828	keystroke_l	l	n/a
435.654	0.075	871308	keystroke_i	i	n/a
435.909	0.09	871818	keystroke_t	t	n/a
436.224	0.105	872448	keystroke_e	e	n/a
436.749	0.075	873498	keystroke_r	r	n/a
437.049	0.09	874098	keystroke_a	a	n/a
437.514	0.09	875028	keystroke_t	t	n/a
437.7835	0.075	875567	keystroke_u	u	n/a
437.9935	0.075	875987	keystroke_r	r	n/a
438.5635	0.045	877127	keystroke_e	e	n/a
438.9085	0.09	877817	keystroke_Key.space	Key.space	n/a
439.374	0.105	878748	keystroke_v	v	n/a
440.214	0.105	880428	keystroke_Key.backspace	Key.backspace	n/a
440.9785	0.075	881957	keystroke_b	b	n/a
441.2785	0.09	882557	keystroke_e	e	n/a
441.5635	0.075	883127	keystroke_c	c	n/a
441.7135	0.09	883427	keystroke_o	o	n/a
441.9085	0.09	883817	keystroke_m	m	n/a
442.1635	0.09	884327	keystroke_i	i	n/a
442.3585	0.105	884717	keystroke_n	n	n/a
442.5835	0.09	885167	keystroke_g	g	n/a
442.7935	0.09	885587	keystroke_Key.space	Key.space	n/a
443.3635	0.105	886727	keystroke_b	b	n/a
443.6185	0.09	887237	keystroke_l	l	n/a
443.9485	0.075	887897	keystroke_e	e	n/a
444.2335	0.075	888467	keystroke_n	n	n/a
444.743	0.06	889486	keystroke_d	d	n/a
445.373	0.075	890746	keystroke_Key.enter	Key.enter	n/a
445.4535	14.0205	890907	prompt	n/a	coming organ phpbb browsers\n
446.288	0.075	892576	keystroke_c	c	n/a
446.408	0.105	892816	keystroke_o	o	n/a
446.633	0.105	893266	keystroke_m	m	n/a
446.888	0.09	893776	keystroke_i	i	n/a
447.068	0.12	894136	keystroke_n	n	n/a
447.323	0.06	894646	keystroke_g	g	n/a
447.518	0.075	895036	keystroke_Key.space	Key.space	n/a
448.133	0.165	896266	keystroke_o	o	n/a
448.313	0.075	896626	keystroke_r	r	n/a
448.733	0.09	897466	keystroke_g	g	n/a
449.633	0.045	899266	keystroke_a	a	n/a
450.083	0.06	900166	keystroke_n	n	n/a
450.368	0.0895	900736	keystroke_Key.space	Key.space	n/a
450.9675	0.1045	901935	keystroke_p	p	n/a
451.2385	0.1335	902477	keystroke_h	h	n/a
452.063	0.105	904126	keystroke_p	p	n/a
453.2475	0.135	906495	keystroke_b	b	n/a
453.7125	0.105	907425	keystroke_b	b	n/a
454.418	0.12	908836	keystroke_Key.space	Key.space	n/a
454.808	0.105	909616	keystroke_b	b	n/a
455.168	0.06	910336	keystroke_r	r	n/a
455.333	0.075	910666	keystroke_o	o	n/a
456.983	0.09	913966	keystroke_w	w	n/a
457.793	0.089	915586	keystroke_s	s	n/a
458.018	0.09	916036	keystroke_e	e	n/a
458.287	0.075	916574	keystroke_r	r	n/a
458.587	0.09	917174	keystroke_s	s	n/a
459.367	0.105	918734	keystroke_Key.enter	Key.enter	n/a
459.4765	14.577	918953	prompt	n/a	social norman deluxe around\n
460.402	0.09	920804	keystroke_s	s	n/a
460.5525	0.09	921105	keystroke_o	o	n/a
460.8375	0.0895	921675	keystroke_c	c	n/a
461.1225	0.045	922245	keystroke_i	i	n/a
461.5425	0.06	923085	keystroke_a	a	n/a
461.6625	0.09	923325	keystroke_l	l	n/a
461.8725	0.075	923745	keystroke_Key.space	Key.space	n/a
462.1575	0.12	924315	keystroke_n	n	n/a
462.397	0.075	924794	keystroke_o	o	n/a
462.622	0.075	925244	keystroke_r	r	n/a
462.802	0.0755	925604	keystroke_m	m	n/a
463.042	0.09	926084	keystroke_a	a	n/a
463.402	0.075	926804	keystroke_n	n	n/a
463.807	0.15	927614	keystroke_Key.space	Key.space	n/a
464.287	0.075	928574	keystroke_d	d	n/a
465.0375	0.075	930075	keystroke_w	w	n/a
465.6225	0.105	931245	keystroke_Key.backspace	Key.backspace	n/a
465.8625	0.06	931725	keystroke_e	e	n/a
466.2825	0.09	932565	keystroke_l	l	n/a
466.8225	0.075	933645	keystroke_u	u	n/a
467.8875	0.12	935775	keystroke_z	z	n/a
468.847	0.06	937694	keystroke_Key.backspace	Key.backspace	n/a
469.012	0.076	938024	keystroke_x	x	n/a
469.357	0.06	938714	keystroke_e	e	n/a
470.182	0.1045	940364	keystroke_Key.space	Key.space	n/a
470.3615	0.1055	940723	keystroke_a	a	n/a
470.6465	0.09	941293	keystroke_r	r	n/a
471.0075	0.059	942015	keystroke_i	i	n/a
471.9365	0.075	943873	keystroke_Key.backspace	Key.backspace	n/a
472.4315	0.0905	944863	keystroke_o	o	n/a
472.6415	0.06	945283	keystroke_u	u	n/a
472.927	0.075	945854	keystroke_n	n	n/a
473.137	0.045	946274	keystroke_d	d	n/a
473.9615	0.09	947923	keystroke_Key.enter	Key.enter	n/a
474.0565	8.7415	948113	prompt	n/a	fossil songs roster merit\n
474.8015	0.09	949603	keystroke_f	f	n/a
474.9815	0.09	949963	keystroke_o	o	n/a
475.2665	0.075	950533	keystroke_s	s	n/a
475.4315	0.0905	950863	keystroke_s	s	n/a
475.672	0.06	951344	keystroke_i	i	n/a
475.807	0.135	951614	keystroke_l	l	n/a
476.212	0.105	952424	keystroke_Key.space	Key.space	n/a
476.797	0.105	953594	keystroke_s	s	n/a
476.932	0.09	953864	keystroke_o	o	n/a
477.142	0.09	954284	keystroke_n	n	n/a
477.367	0.06	954734	keystroke_g	g	n/a
477.742	0.09	955484	keystroke_s	s	n/a
478.072	0.06	956144	keystroke_Key.space	Key.space	n/a
478.9265	0.09	957853	keystroke_r	r	n/a
479.0915	0.075	958183	keystroke_o	o	n/a
479.287	0.12	958574	keystroke_s	s	n/a
479.617	0.075	959234	keystroke_t	t	n/a
479.857	0.105	959714	keystroke_e	e	n/a
480.082	0.075	960164	keystroke_r	r	n/a
480.681	0.061	961362	keystroke_Key.space	Key.space	n/a
481.131	0.135	962262	keystroke_m	m	n/a
481.431	0.09	962862	keystroke_e	e	n/a
481.701	0.105	963402	keystroke_r	r	n/a
482.061	0.06	964122	keystroke_i	i	n/a
482.257	0.074	964514	keystroke_t	t	n/a
482.751	0.045	965502	keystroke_Key.enter	Key.enter	n/a
482.8025	14.3495	965605	prompt	n/a	legacy treatment we'll coffee\n
483.546	0.06	967092	keystroke_l	l	n/a
483.681	0.09	967362	keystroke_e	e	n/a
483.951	0.105	967902	keystroke_g	g	n/a
484.3115	0.105	968623	keystroke_a	a	n/a
484.7165	0.105	969433	keystroke_c	c	n/a
485.0165	0.06	970033	keystroke_y	y	n/a
485.3015	0.09	970603	keystroke_Key.space	Key.space	n/a
485.7665	0.105	971533	keystroke_t	t	n/a
485.9915	0.1045	971983	keystroke_r	r	n/a
486.2615	0.105	972523	keystroke_e	e	n/a
486.6365	0.12	973273	keystroke_a	a	n/a
487.356	0.09	974712	keystroke_t	t	n/a
488.0315	0.12	976063	keystroke_n	n	n/a
488.196	0.075	976392	keystroke_e	e	n/a
488.391	0.015	976782	keystroke_n	n	n/a
489.276	0.09	978552	keystroke_Key.backspace	Key.backspace	n/a
489.696	0.09	979392	keystroke_Key.backspace	Key.backspace	n/a
490.146	0.09	980292	keystroke_Key.backspace	Key.backspace	n/a
490.941	0.09	981882	keystroke_m	m	n/a
491.121	0.09	982242	keystroke_e	e	n/a
491.286	0.075	982572	keystroke_n	n	n/a
491.421	0.09	982842	keystroke_t	t	n/a
491.646	0.09	983292	keystroke_Key.space	Key.space	n/a
492.2905	0.105	984581	keystroke_w	w	n/a
492.5305	0.075	985061	keystroke_e	e	n/a
492.9655	0.045	985931	keystroke_'	'	n/a
493.5815	0.104	987163	keystroke_l	l	n/a
493.7605	0.105	987521	keystroke_l	l	n/a
494.0605	0.105	988121	keystroke_Key.space	Key.space	n/a
494.7655	0.075	989531	keystroke_c	c	n/a
494.916	0.09	989832	keystroke_o	o	n/a
495.231	0.09	990462	keystroke_f	f	n/a
495.426	0.09	990852	keystroke_f	f	n/a
495.966	0.075	991932	keystroke_e	e	n/a
496.671	0.075	993342	keystroke_e	e	n/a
497.076	0.075	994152	keystroke_Key.enter	Key.enter	n/a
497.1555	25.0005	994311	prompt	n/a	participant powerpoint neck bracelet\n
498.0205	0.105	996041	keystroke_p	p	n/a
498.2905	0.105	996581	keystroke_a	a	n/a
498.6055	0.09	997211	keystroke_r	r	n/a
499.7005	0.06	999401	keystroke_t	t	n/a
499.9555	0.06	999911	keystroke_i	i	n/a
500.1805	0.105	1000361	keystroke_c	c	n/a
500.3605	0.075	1000721	keystroke_i	i	n/a
500.8255	0.105	1001651	keystroke_p	p	n/a
501.0505	0.09	1002101	keystroke_a	a	n/a
501.2155	0.09	1002431	keystroke_n	n	n/a
501.5005	0.075	1003001	keystroke_t	t	n/a
501.6655	0.105	1003331	keystroke_Key.space	Key.space	n/a
502.1455	0.12	1004291	keystroke_p	p	n/a
502.3705	0.09	1004741	keystroke_o	o	n/a
502.5955	0.12	1005191	keystroke_w	w	n/a
502.8205	0.12	1005641	keystroke_e	e	n/a
503.1205	0.06	1006241	keystroke_r	r	n/a
504.1555	0.12	1008311	keystroke_p	p	n/a
504.4105	0.12	1008821	keystroke_o	o	n/a
504.9655	0.09	1009931	keystroke_i	i	n/a
505.1905	0.105	1010381	keystroke_n	n	n/a
505.4305	0.075	1010861	keystroke_t	t	n/a
505.5655	0.105	1011131	keystroke_Key.space	Key.space	n/a
505.7755	0.09	1011551	keystroke_n	n	n/a
506.075	0.09	1012150	keystroke_e	e	n/a
507.6955	0.059	1015391	keystroke_c	c	n/a
507.8595	0.076	1015719	keystroke_k	k	n/a
508.2495	0.09	1016499	keystroke_Key.space	Key.space	n/a
508.9845	0.105	1017969	keystroke_b	b	n/a
509.2995	0.105	1018599	keystroke_e	e	n/a
509.99	0.0895	1019980	keystroke_Key.backspace	Key.backspace	n/a
510.2145	0.075	1020429	keystroke_r	r	n/a
511.0245	0.09	1022049	keystroke_e	e	n/a
511.3245	0.09	1022649	keystroke_a	a	n/a
511.91	0.12	1023820	keystroke_c	c	n/a
512.825	0.105	1025650	keystroke_Key.backspace	Key.backspace	n/a
513.455	0.104	1026910	keystroke_Key.backspace	Key.backspace	n/a
514.265	0.09	1028530	keystroke_c	c	n/a
515.45	0.09	1030900	keystroke_Key.backspace	Key.backspace	n/a
516.065	0.074	1032130	keystroke_Key.backspace	Key.backspace	n/a
516.335	0.105	1032670	keystroke_a	a	n/a
517.19	0.075	1034380	keystroke_c	c	n/a
517.505	0.06	1035010	keystroke_e	e	n/a
517.67	0.06	1035340	keystroke_l	l	n/a
520.4915	0.028	1040983	keystroke_e	e	n/a
520.9845	0.09	1041969	keystroke_t	t	n/a
522.0645	0.09	1044129	keystroke_Key.enter	Key.enter	n/a
522.1585	14.292	1044317	prompt	n/a	ventures hunger warriors views\n
523.009	0.105	1046018	keystroke_v	v	n/a
523.279	0.09	1046558	keystroke_e	e	n/a
523.4895	0.06	1046979	keystroke_n	n	n/a
523.8645	0.09	1047729	keystroke_t	t	n/a
524.1345	0.06	1048269	keystroke_u	u	n/a
524.3895	0.09	1048779	keystroke_r	r	n/a
524.6895	0.075	1049379	keystroke_e	e	n/a
524.9445	0.105	1049889	keystroke_s	s	n/a
525.1695	0.09	1050339	keystroke_Key.space	Key.space	n/a
525.7545	0.09	1051509	keystroke_h	h	n/a
526.0395	0.075	1052079	keystroke_u	u	n/a
526.2495	0.105	1052499	keystroke_n	n	n/a
526.6095	0.12	1053219	keystroke_g	g	n/a
526.8795	0.09	1053759	keystroke_e	e	n/a
527.6445	0.06	1055289	keystroke_r	r	n/a
527.9145	0.09	1055829	keystroke_Key.space	Key.space	n/a
528.3045	0.09	1056609	keystroke_w	w	n/a
528.5745	0.105	1057149	keystroke_a	a	n/a
529.4145	0.135	1058829	keystroke_r	r	n/a
529.6695	0.105	1059339	keystroke_r	r	n/a
530.2845	0.12	1060569	keystroke_i	i	n/a
530.4645	0.09	1060929	keystroke_o	o	n/a
531.2145	0.09	1062429	keystroke_r	r	n/a
531.5145	0.09	1063029	keystroke_s	s	n/a
531.8895	0.105	1063779	keystroke_Key.space	Key.space	n/a
532.5645	0.12	1065129	keystroke_v	v	n/a
533.5695	0.075	1067139	keystroke_i	i	n/a
533.8395	0.075	1067679	keystroke_e	e	n/a
534.2295	0.06	1068459	keystroke_s	s	n/a
535.0995	0.09	1070199	keystroke_Key.backspace	Key.backspace	n/a
535.309	0.1055	1070618	keystroke_w	w	n/a
535.639	0.09	1071278	keystroke_s	s	n/a
536.3595	0.09	1072719	keystroke_Key.enter	Key.enter	n/a
536.4535	13.2715	1072907	prompt	n/a	brand probability fill short\n
537.1545	0.104	1074309	keystroke_b	b	n/a
537.4845	0.104	1074969	keystroke_r	r	n/a
537.7995	0.059	1075599	keystroke_a	a	n/a
537.9635	0.09	1075927	keystroke_n	n	n/a
538.1745	0.074	1076349	keystroke_d	d	n/a
538.6535	0.105	1077307	keystroke_Key.space	Key.space	n/a
539.1185	0.151	1078237	keystroke_p	p	n/a
539.5385	0.061	1079077	keystroke_r	r	n/a
539.7045	0.105	1079409	keystroke_o	o	n/a
540.5135	0.09	1081027	keystroke_b	b	n/a
540.9185	0.106	1081837	keystroke_a	a	n/a
541.9985	0.105	1083997	keystroke_b	b	n/a
542.809	0.075	1085618	keystroke_i	i	n/a
543.664	0.075	1087328	keystroke_l	l	n/a
544.084	0.015	1088168	keystroke_i	i	n/a
545.5535	0.075	1091107	keystroke_t	t	n/a
546.1535	0.06	1092307	keystroke_y	y	n/a
546.6935	0.105	1093387	keystroke_Key.space	Key.space	n/a
547.234	0.075	1094468	keystroke_f	f	n/a
547.429	0.075	1094858	keystroke_i	i	n/a
547.684	0.06	1095368	keystroke_l	l	n/a
547.804	0.09	1095608	keystroke_l	l	n/a
548.089	0.075	1096178	keystroke_Key.space	Key.space	n/a
548.374	0.075	1096748	keystroke_s	s	n/a
548.464	0.09	1096928	keystroke_h	h	n/a
548.659	0.089	1097318	keystroke_o	o	n/a
548.839	0.12	1097678	keystroke_r	r	n/a
549.124	0.075	1098248	keystroke_t	t	n/a
549.648	0.0755	1099296	keystroke_Key.enter	Key.enter	n/a
549.7295	13.631	1099459	prompt	n/a	look murray follow escorts\n
550.534	0.074	1101068	keystroke_l	l	n/a
550.759	0.0745	1101518	keystroke_o	o	n/a
550.8935	0.105	1101787	keystroke_o	o	n/a
551.3885	0.0905	1102777	keystroke_k	k	n/a
551.643	0.091	1103286	keystroke_Key.space	Key.space	n/a
551.974	0.105	1103948	keystroke_m	m	n/a
552.303	0.046	1104606	keystroke_u	u	n/a
553.009	0.15	1106018	keystroke_r	r	n/a
553.219	0.089	1106438	keystroke_r	r	n/a
553.518	0.105	1107036	keystroke_a	a	n/a
554.733	0.09	1109466	keystroke_y	y	n/a
554.928	0.1205	1109856	keystroke_Key.space	Key.space	n/a
555.3335	0.06	1110667	keystroke_g	g	n/a
556.398	0.075	1112796	keystroke_Key.backspace	Key.backspace	n/a
556.983	0.075	1113966	keystroke_f	f	n/a
557.268	0.075	1114536	keystroke_o	o	n/a
557.598	0.075	1115196	keystroke_l	l	n/a
557.734	0.09	1115468	keystroke_l	l	n/a
557.944	0.075	1115888	keystroke_o	o	n/a
558.199	0.09	1116398	keystroke_w	w	n/a
558.3935	0.09	1116787	keystroke_Key.space	Key.space	n/a
558.9035	0.06	1117807	keystroke_e	e	n/a
559.1585	0.105	1118317	keystroke_s	s	n/a
559.758	0.09	1119516	keystroke_c	c	n/a
559.953	0.09	1119906	keystroke_o	o	n/a
560.5985	0.075	1121197	keystroke_r	r	n/a
560.8835	0.075	1121767	keystroke_t	t	n/a
562.684	0.09	1125368	keystroke_s	s	n/a
563.268	0.09	1126536	keystroke_Key.enter	Key.enter	n/a
563.3645	17.26	1126729	prompt	n/a	earning safe formats executed\n
564.093	0.075	1128186	keystroke_e	e	n/a
564.304	0.105	1128608	keystroke_a	a	n/a
564.5735	0.075	1129147	keystroke_r	r	n/a
564.7835	0.09	1129567	keystroke_i	i	n/a
565.0235	0.0895	1130047	keystroke_n	n	n/a
565.354	0.089	1130708	keystroke_g	g	n/a
567.741	0.027	1135482	keystroke_Key.backspace	Key.backspace	n/a
568.368	0.09	1136736	keystroke_Key.backspace	Key.backspace	n/a
569.028	0.09	1138056	keystroke_Key.backspace	Key.backspace	n/a
570.258	0.075	1140516	keystroke_n	n	n/a
570.4985	0.0745	1140997	keystroke_i	i	n/a
570.708	0.0755	1141416	keystroke_n	n	n/a
570.993	0.06	1141986	keystroke_g	g	n/a
571.473	0.075	1142946	keystroke_Key.space	Key.space	n/a
571.953	0.091	1143906	keystroke_s	s	n/a
572.208	0.105	1144416	keystroke_a	a	n/a
572.4935	0.135	1144987	keystroke_f	f	n/a
572.7785	0.075	1145557	keystroke_e	e	n/a
573.0335	0.075	1146067	keystroke_Key.space	Key.space	n/a
573.4835	0.0895	1146967	keystroke_f	f	n/a
573.663	0.09	1147326	keystroke_o	o	n/a
573.888	0.0905	1147776	keystroke_r	r	n/a
574.383	0.09	1148766	keystroke_m	m	n/a
574.638	0.105	1149276	keystroke_a	a	n/a
574.923	0.09	1149846	keystroke_t	t	n/a
575.598	0.045	1151196	keystroke_s	s	n/a
576.9635	0.045	1153927	keystroke_Key.space	Key.space	n/a
577.3985	0.06	1154797	keystroke_e	e	n/a
577.7435	0.09	1155487	keystroke_x	x	n/a
578.568	0.09	1157136	keystroke_e	e	n/a
578.898	0.09	1157796	keystroke_c	c	n/a
579.168	0.075	1158336	keystroke_u	u	n/a
579.438	0.075	1158876	keystroke_t	t	n/a
579.693	0.075	1159386	keystroke_e	e	n/a
579.933	0.09	1159866	keystroke_d	d	n/a
580.5475	0.075	1161095	keystroke_Key.enter	Key.enter	n/a
580.628	13.5865	1161256	prompt	n/a	decorative voted folks flexible\n
581.3575	0.091	1162715	keystroke_d	d	n/a
581.6275	0.075	1163255	keystroke_e	e	n/a
581.9735	0.09	1163947	keystroke_c	c	n/a
582.528	0.075	1165056	keystroke_o	o	n/a
582.888	0.075	1165776	keystroke_r	r	n/a
583.233	0.12	1166466	keystroke_a	a	n/a
584.6575	0.0905	1169315	keystroke_t	t	n/a
584.9735	0.075	1169947	keystroke_i	i	n/a
585.228	0.12	1170456	keystroke_v	v	n/a
585.558	0.09	1171116	keystroke_e	e	n/a
585.7985	0.0895	1171597	keystroke_Key.space	Key.space	n/a
586.2785	0.0895	1172557	keystroke_v	v	n/a
586.503	0.075	1173006	keystroke_o	o	n/a
586.848	0.075	1173696	keystroke_t	t	n/a
587.103	0.09	1174206	keystroke_e	e	n/a
587.343	0.075	1174686	keystroke_d	d	n/a
587.508	0.089	1175016	keystroke_Key.space	Key.space	n/a
587.988	0.045	1175976	keystroke_f	f	n/a
588.228	0.09	1176456	keystroke_o	o	n/a
588.558	0.09	1177116	keystroke_l	l	n/a
589.1875	0.075	1178375	keystroke_k	k	n/a
589.503	0.06	1179006	keystroke_s	s	n/a
589.683	0.135	1179366	keystroke_Key.space	Key.space	n/a
589.953	0.105	1179906	keystroke_f	f	n/a
590.373	0.06	1180746	keystroke_l	l	n/a
590.943	0.1045	1181886	keystroke_e	e	n/a
591.4075	0.09	1182815	keystroke_x	x	n/a
591.933	0.075	1183866	keystroke_i	i	n/a
592.4875	0.105	1184975	keystroke_b	b	n/a
593.1325	0.12	1186265	keystroke_l	l	n/a
593.2975	0.075	1186595	keystroke_e	e	n/a
594.123	0.0895	1188246	keystroke_Key.enter	Key.enter	n/a
594.2175	13.7815	1188435	prompt	n/a	definition cleaner sims renewable\n
594.9775	0.09	1189955	keystroke_d	d	n/a
595.5625	0.09	1191125	keystroke_e	e	n/a
595.8025	0.09	1191605	keystroke_f	f	n/a
596.0875	0.075	1192175	keystroke_i	i	n/a
596.4325	0.09	1192865	keystroke_n	n	n/a
597.0325	0.075	1194065	keystroke_i	i	n/a
597.4225	0.06	1194845	keystroke_t	t	n/a
597.5275	0.09	1195055	keystroke_i	i	n/a
597.6625	0.105	1195325	keystroke_o	o	n/a
598.2775	0.0605	1196555	keystroke_n	n	n/a
599.583	0.1045	1199166	keystroke_Key.space	Key.space	n/a
599.8225	0.075	1199645	keystroke_c	c	n/a
600.018	0.075	1200036	keystroke_l	l	n/a
600.258	0.075	1200516	keystroke_e	e	n/a
600.5575	0.075	1201115	keystroke_a	a	n/a
600.7075	0.075	1201415	keystroke_n	n	n/a
601.0525	0.09	1202105	keystroke_e	e	n/a
601.2925	0.075	1202585	keystroke_r	r	n/a
601.4425	0.075	1202885	keystroke_Key.space	Key.space	n/a
601.6825	0.09	1203365	keystroke_s	s	n/a
601.8025	0.09	1203605	keystroke_i	i	n/a
602.0125	0.105	1204025	keystroke_m	m	n/a
602.867	0.03	1205734	keystroke_s	s	n/a
602.972	0.105	1205944	keystroke_Key.space	Key.space	n/a
603.3775	0.1055	1206755	keystroke_r	r	n/a
603.602	0.076	1207204	keystroke_e	e	n/a
603.857	0.06	1207714	keystroke_n	n	n/a
604.5175	0.09	1209035	keystroke_e	e	n/a
605.492	0.09	1210984	keystroke_w	w	n/a
606.2275	0.1045	1212455	keystroke_a	a	n/a
606.602	0.046	1213204	keystroke_b	b	n/a
606.9175	0.105	1213835	keystroke_l	l	n/a
607.0975	0.105	1214195	keystroke_e	e	n/a
607.9075	0.09	1215815	keystroke_Key.enter	Key.enter	n/a
608.0025	16.556	1216005	prompt	n/a	church including offline liberia\n
609.062	0.06	1218124	keystroke_h	h	n/a
609.707	0.09	1219414	keystroke_Key.backspace	Key.backspace	n/a
610.007	0.075	1220014	keystroke_c	c	n/a
610.112	0.09	1220224	keystroke_h	h	n/a
610.908	0.06	1221816	keystroke_u	u	n/a
611.238	0.09	1222476	keystroke_r	r	n/a
611.628	0.09	1223256	keystroke_c	c	n/a
611.778	0.075	1223556	keystroke_h	h	n/a
612.287	0.105	1224574	keystroke_Key.space	Key.space	n/a
612.647	0.06	1225294	keystroke_i	i	n/a
612.797	0.105	1225594	keystroke_n	n	n/a
613.277	0.09	1226554	keystroke_c	c	n/a
613.7875	0.105	1227575	keystroke_l	l	n/a
614.1475	0.09	1228295	keystroke_i	i	n/a
614.5225	0.075	1229045	keystroke_d	d	n/a
615.2575	0.105	1230515	keystroke_Key.backspace	Key.backspace	n/a
615.872	0.06	1231744	keystroke_Key.backspace	Key.backspace	n/a
616.473	0.075	1232946	keystroke_u	u	n/a
616.667	0.091	1233334	keystroke_d	d	n/a
616.848	0.075	1233696	keystroke_i	i	n/a
617.028	0.09	1234056	keystroke_n	n	n/a
617.237	0.061	1234474	keystroke_g	g	n/a
617.972	0.075	1235944	keystroke_Key.space	Key.space	n/a
618.318	0.089	1236636	keystroke_o	o	n/a
618.482	0.105	1236964	keystroke_f	f	n/a
618.677	0.09	1237354	keystroke_f	f	n/a
619.172	0.075	1238344	keystroke_l	l	n/a
619.8175	0.075	1239635	keystroke_i	i	n/a
620.0125	0.09	1240025	keystroke_n	n	n/a
620.2675	0.06	1240535	keystroke_e	e	n/a
620.7475	0.09	1241495	keystroke_Key.space	Key.space	n/a
621.2425	0.0895	1242485	keystroke_l	l	n/a
621.482	0.0755	1242964	keystroke_i	i	n/a
621.7675	0.105	1243535	keystroke_b	b	n/a
622.667	0.135	1245334	keystroke_e	e	n/a
623.1325	0.075	1246265	keystroke_r	r	n/a
623.5375	0.015	1247075	keystroke_i	i	n/a
623.7025	0.09	1247405	keystroke_a	a	n/a
624.4825	0.075	1248965	keystroke_Key.enter	Key.enter	n/a
624.5615	17.232	1249123	prompt	n/a	quantitative publish guides proud\n
625.5175	0.12	1251035	keystroke_q	q	n/a
625.8025	0.0745	1251605	keystroke_u	u	n/a
626.4625	0.075	1252925	keystroke_a	a	n/a
626.7625	0.0895	1253525	keystroke_n	n	n/a
627.107	0.09	1254214	keystroke_t	t	n/a
627.662	0.06	1255324	keystroke_i	i	n/a
627.902	0.09	1255804	keystroke_t	t	n/a
628.562	0.12	1257124	keystroke_a	a	n/a
628.892	0.075	1257784	keystroke_t	t	n/a
629.0575	0.06	1258115	keystroke_i	i	n/a
629.372	0.15	1258744	keystroke_v	v	n/a
629.792	0.105	1259584	keystroke_e	e	n/a
630.497	0.09	1260994	keystroke_Key.space	Key.space	n/a
631.518	0.089	1263036	keystroke_p	p	n/a
632.012	0.105	1264024	keystroke_u	u	n/a
632.462	0.105	1264924	keystroke_b	b	n/a
632.807	0.075	1265614	keystroke_l	l	n/a
633.332	0.09	1266664	keystroke_i	i	n/a
634.022	0.0895	1268044	keystroke_s	s	n/a
634.1715	0.06	1268343	keystroke_h	h	n/a
634.6975	0.09	1269395	keystroke_Key.space	Key.space	n/a
636.047	0.06	1272094	keystroke_g	g	n/a
636.182	0.09	1272364	keystroke_u	u	n/a
636.467	0.075	1272934	keystroke_i	i	n/a
636.692	0.0745	1273384	keystroke_d	d	n/a
636.9625	0.075	1273925	keystroke_e	e	n/a
637.5025	0.09	1275005	keystroke_s	s	n/a
637.6965	0.105	1275393	keystroke_Key.space	Key.space	n/a
638.0425	0.104	1276085	keystroke_p	p	n/a
638.2215	0.091	1276443	keystroke_r	r	n/a
638.3425	0.105	1276685	keystroke_o	o	n/a
638.7925	0.075	1277585	keystroke_u	u	n/a
639.1075	0.09	1278215	keystroke_n	n	n/a
640.727	0.09	1281454	keystroke_Key.backspace	Key.backspace	n/a
641.132	0.075	1282264	keystroke_d	d	n/a
641.7025	0.089	1283405	keystroke_Key.enter	Key.enter	n/a
641.798	12.6855	1283596	prompt	n/a	schedules chase covers line\n
642.5865	0.12	1285173	keystroke_s	s	n/a
643.2025	0.074	1286405	keystroke_c	c	n/a
643.3975	0.075	1286795	keystroke_h	h	n/a
644.237	0.075	1288474	keystroke_e	e	n/a
644.4925	0.075	1288985	keystroke_d	d	n/a
644.657	0.075	1289314	keystroke_u	u	n/a
645.182	0.075	1290364	keystroke_l	l	n/a
645.377	0.06	1290754	keystroke_e	e	n/a
645.662	0.075	1291324	keystroke_s	s	n/a
645.962	0.09	1291924	keystroke_Key.space	Key.space	n/a
646.3525	0.075	1292705	keystroke_h	h	n/a
646.682	0.075	1293364	keystroke_a	a	n/a
647.417	0.09	1294834	keystroke_Key.backspace	Key.backspace	n/a
648.0165	0.045	1296033	keystroke_Key.backspace	Key.backspace	n/a
648.2265	0.091	1296453	keystroke_c	c	n/a
648.4965	0.045	1296993	keystroke_h	h	n/a
649.187	0.075	1298374	keystroke_a	a	n/a
649.427	0.105	1298854	keystroke_s	s	n/a
649.742	0.06	1299484	keystroke_e	e	n/a
650.072	0.09	1300144	keystroke_Key.space	Key.space	n/a
650.372	0.0895	1300744	keystroke_c	c	n/a
650.4915	0.09	1300983	keystroke_o	o	n/a
651.2715	0.091	1302543	keystroke_v	v	n/a
651.5865	0.105	1303173	keystroke_e	e	n/a
651.8265	0.091	1303653	keystroke_r	r	n/a
652.637	0.075	1305274	keystroke_s	s	n/a
652.832	0.09	1305664	keystroke_Key.space	Key.space	n/a
653.0575	0.105	1306115	keystroke_l	l	n/a
653.2525	0.06	1306505	keystroke_i	i	n/a
653.5075	0.075	1307015	keystroke_n	n	n/a
653.7325	0.06	1307465	keystroke_e	e	n/a
654.4075	0.074	1308815	keystroke_Key.enter	Key.enter	n/a
654.4865	14.412	1308973	prompt	n/a	keeps mutual floppy warm\n
655.2315	0.091	1310463	keystroke_k	k	n/a
655.4575	0.075	1310915	keystroke_e	e	n/a
655.6365	0.091	1311273	keystroke_e	e	n/a
655.8325	0.075	1311665	keystroke_p	p	n/a
656.0575	0.06	1312115	keystroke_s	s	n/a
656.2515	0.09	1312503	keystroke_Key.space	Key.space	n/a
656.6425	0.09	1313285	keystroke_m	m	n/a
656.8525	0.074	1313705	keystroke_a	a	n/a
657.2125	0.074	1314425	keystroke_u	u	n/a
658.0365	0.105	1316073	keystroke_Key.backspace	Key.backspace	n/a
658.577	0.09	1317154	keystroke_Key.backspace	Key.backspace	n/a
659.2515	0.075	1318503	keystroke_u	u	n/a
660.1525	0.075	1320305	keystroke_t	t	n/a
660.4375	0.075	1320875	keystroke_u	u	n/a
660.7675	0.09	1321535	keystroke_a	a	n/a
660.9025	0.0895	1321805	keystroke_l	l	n/a
661.127	0.105	1322254	keystroke_Key.space	Key.space	n/a
661.5315	0.0755	1323063	keystroke_f	f	n/a
661.697	0.075	1323394	keystroke_l	l	n/a
661.982	0.075	1323964	keystroke_o	o	n/a
662.282	0.06	1324564	keystroke_p	p	n/a
662.4465	0.09	1324893	keystroke_p	p	n/a
662.777	0.075	1325554	keystroke_y	y	n/a
662.942	0.12	1325884	keystroke_Key.space	Key.space	n/a
663.302	0.09	1326604	keystroke_w	w	n/a
663.542	0.1195	1327084	keystroke_a	a	n/a
663.752	0.045	1327504	keystroke_m	m	n/a
663.9165	0.09	1327833	keystroke_r	r	n/a
665.5665	0.12	1331133	keystroke_Key.backspace	Key.backspace	n/a
667.442	0.075	1334884	keystroke_Key.backspace	Key.backspace	n/a
668.2815	0.075	1336563	keystroke_r	r	n/a
668.4315	0.06	1336863	keystroke_m	m	n/a
668.8515	0.045	1337703	keystroke_Key.enter	Key.enter	n/a
668.9015	19.572	1337803	prompt	n/a	murphy biological adult laboratory\n
669.827	0.09	1339654	keystroke_m	m	n/a
670.3825	0.075	1340765	keystroke_u	u	n/a
670.997	0.075	1341994	keystroke_r	r	n/a
671.1925	0.104	1342385	keystroke_p	p	n/a
671.6115	0.075	1343223	keystroke_h	h	n/a
671.9565	0.06	1343913	keystroke_y	y	n/a
672.467	0.075	1344934	keystroke_Key.space	Key.space	n/a
673.667	0.06	1347334	keystroke_b	b	n/a
673.952	0.075	1347904	keystroke_i	i	n/a
674.297	0.0745	1348594	keystroke_o	o	n/a
675.197	0.075	1350394	keystroke_l	l	n/a
675.407	0.105	1350814	keystroke_o	o	n/a
676.5775	0.074	1353155	keystroke_g	g	n/a
676.7115	0.06	1353423	keystroke_i	i	n/a
677.0115	0.09	1354023	keystroke_c	c	n/a
677.2815	0.06	1354563	keystroke_a	a	n/a
677.4015	0.06	1354803	keystroke_l	l	n/a
677.777	0.105	1355554	keystroke_Key.space	Key.space	n/a
678.587	0.105	1357174	keystroke_a	a	n/a
678.872	0.075	1357744	keystroke_d	d	n/a
679.0815	0.075	1358163	keystroke_u	u	n/a
679.3365	0.09	1358673	keystroke_l	l	n/a
679.5615	0.06	1359123	keystroke_t	t	n/a
679.7115	0.105	1359423	keystroke_Key.space	Key.space	n/a
680.7315	0.06	1361463	keystroke_l	l	n/a
680.9275	0.09	1361855	keystroke_a	a	n/a
681.302	0.06	1362604	keystroke_b	b	n/a
681.527	0.06	1363054	keystroke_l	l	n/a
682.427	0.075	1364854	keystroke_Key.backspace	Key.backspace	n/a
683.462	0.03	1366924	keystroke_o	o	n/a
683.657	0.075	1367314	keystroke_r	r	n/a
683.912	0.135	1367824	keystroke_a	a	n/a
686.9145	0.013	1373829	keystroke_t	t	n/a
686.9865	0.091	1373973	keystroke_o	o	n/a
687.1825	0.0745	1374365	keystroke_r	r	n/a
687.332	0.075	1374664	keystroke_y	y	n/a
688.412	0.06	1376824	keystroke_Key.enter	Key.enter	n/a
688.4765	17.592	1376953	prompt	n/a	football federation consistency scotia\n
689.3715	0.09	1378743	keystroke_f	f	n/a
689.5825	0.044	1379165	keystroke_o	o	n/a
689.7015	0.09	1379403	keystroke_o	o	n/a
689.9875	0.075	1379975	keystroke_t	t	n/a
690.5425	0.09	1381085	keystroke_b	b	n/a
690.8425	0.075	1381685	keystroke_a	a	n/a
691.0225	0.06	1382045	keystroke_l	l	n/a
691.1425	0.105	1382285	keystroke_l	l	n/a
691.6665	0.09	1383333	keystroke_Key.space	Key.space	n/a
692.537	0.105	1385074	keystroke_f	f	n/a
692.8375	0.089	1385675	keystroke_e	e	n/a
693.6775	0.075	1387355	keystroke_d	d	n/a
693.7675	0.06	1387535	keystroke_e	e	n/a
694.007	0.075	1388014	keystroke_r	r	n/a
694.277	0.15	1388554	keystroke_a	a	n/a
694.892	0.075	1389784	keystroke_t	t	n/a
695.042	0.09	1390084	keystroke_i	i	n/a
695.192	0.12	1390384	keystroke_o	o	n/a
695.837	0.075	1391674	keystroke_n	n	n/a
696.4665	0.105	1392933	keystroke_Key.space	Key.space	n/a
696.782	0.09	1393564	keystroke_c	c	n/a
696.902	0.09	1393804	keystroke_o	o	n/a
697.157	0.075	1394314	keystroke_n	n	n/a
698.267	0.315	1396534	keystroke_s	s	n/a
698.597	0.015	1397194	keystroke_i	i	n/a
698.627	0.015	1397254	keystroke_s	s	n/a
699.002	0.06	1398004	keystroke_t	t	n/a
699.467	0.075	1398934	keystroke_e	e	n/a
700.352	0.06	1400704	keystroke_n	n	n/a
700.6075	0.0745	1401215	keystroke_c	c	n/a
701.5975	0.075	1403195	keystroke_y	y	n/a
701.882	0.09	1403764	keystroke_Key.space	Key.space	n/a
702.467	0.075	1404934	keystroke_s	s	n/a
702.917	0.09	1405834	keystroke_c	c	n/a
703.712	0.075	1407424	keystroke_o	o	n/a
704.567	0.06	1409134	keystroke_t	t	n/a
704.732	0.06	1409464	keystroke_i	i	n/a
705.092	0.075	1410184	keystroke_a	a	n/a
705.9765	0.09	1411953	keystroke_Key.enter	Key.enter	n/a
706.071	14.6375	1412142	prompt	n/a	franchise breast chad card\n
706.802	0.105	1413604	keystroke_f	f	n/a
707.222	0.12	1414444	keystroke_r	r	n/a
707.4915	0.105	1414983	keystroke_a	a	n/a
707.837	0.09	1415674	keystroke_c	c	n/a
708.077	0.06	1416154	keystroke_h	h	n/a
710.404	0.001	1420808	keystroke_i	i	n/a
710.567	0.105	1421134	keystroke_s	s	n/a
710.837	0.06	1421674	keystroke_e	e	n/a
711.512	0.09	1423024	keystroke_Key.space	Key.space	n/a
714.2005	0.026	1428401	keystroke_b	b	n/a
714.797	0.09	1429594	keystroke_r	r	n/a
715.082	0.15	1430164	keystroke_e	e	n/a
715.427	0.12	1430854	keystroke_a	a	n/a
715.712	0.105	1431424	keystroke_s	s	n/a
716.1465	0.075	1432293	keystroke_t	t	n/a
716.372	0.1195	1432744	keystroke_Key.space	Key.space	n/a
716.9865	0.09	1433973	keystroke_c	c	n/a
717.1365	0.075	1434273	keystroke_h	h	n/a
717.3915	0.03	1434783	keystroke_a	a	n/a
718.0515	0.075	1436103	keystroke_d	d	n/a
718.2465	0.105	1436493	keystroke_Key.space	Key.space	n/a
719.042	0.075	1438084	keystroke_c	c	n/a
719.432	0.09	1438864	keystroke_a	a	n/a
719.732	0.09	1439464	keystroke_r	r	n/a
720.0165	0.09	1440033	keystroke_d	d	n/a
720.6315	0.075	1441263	keystroke_Key.enter	Key.enter	n/a
720.7115	12.5225	1441423	prompt	n/a	provision spouse omega cleared\n
721.532	0.12	1443064	keystroke_p	p	n/a
721.7725	0.075	1443545	keystroke_r	r	n/a
721.9225	0.075	1443845	keystroke_o	o	n/a
722.7315	0.0905	1445463	keystroke_v	v	n/a
722.9415	0.075	1445883	keystroke_i	i	n/a
723.9765	0.045	1447953	keystroke_s	s	n/a
724.1115	0.0905	1448223	keystroke_i	i	n/a
724.262	0.105	1448524	keystroke_o	o	n/a
724.5325	0.0895	1449065	keystroke_n	n	n/a
725.1325	0.105	1450265	keystroke_Key.space	Key.space	n/a
725.7325	0.105	1451465	keystroke_s	s	n/a
725.9425	0.12	1451885	keystroke_p	p	n/a
726.1975	0.105	1452395	keystroke_o	o	n/a
726.7225	0.075	1453445	keystroke_u	u	n/a
727.0225	0.074	1454045	keystroke_s	s	n/a
727.2925	0.074	1454585	keystroke_e	e	n/a
727.8625	0.104	1455725	keystroke_Key.space	Key.space	n/a
728.2065	0.09	1456413	keystroke_o	o	n/a
728.432	0.09	1456864	keystroke_m	m	n/a
728.687	0.0755	1457374	keystroke_e	e	n/a
729.212	0.105	1458424	keystroke_g	g	n/a
729.692	0.09	1459384	keystroke_a	a	n/a
730.517	0.015	1461034	keystroke_Key.space	Key.space	n/a
730.742	0.105	1461484	keystroke_c	c	n/a
730.952	0.09	1461904	keystroke_l	l	n/a
731.237	0.09	1462474	keystroke_e	e	n/a
731.552	0.105	1463104	keystroke_a	a	n/a
731.867	0.09	1463734	keystroke_r	r	n/a
732.122	0.09	1464244	keystroke_e	e	n/a
732.392	0.0905	1464784	keystroke_d	d	n/a
733.217	0.015	1466434	keystroke_Key.enter	Key.enter	n/a
733.2365	24.057	1466473	prompt	n/a	marriott routine safari junction\n
734.117	0.06	1468234	keystroke_p	p	n/a
734.7325	0.09	1469465	keystroke_Key.backspace	Key.backspace	n/a
736.097	0.075	1472194	keystroke_m	m	n/a
736.2915	0.09	1472583	keystroke_a	a	n/a
736.6975	0.09	1473395	keystroke_r	r	n/a
736.8925	0.075	1473785	keystroke_r	r	n/a
737.1015	0.106	1474203	keystroke_i	i	n/a
737.2815	0.091	1474563	keystroke_o	o	n/a
737.7465	0.075	1475493	keystroke_t	t	n/a
738.4065	0.075	1476813	keystroke_t	t	n/a
738.6315	0.09	1477263	keystroke_Key.space	Key.space	n/a
738.9315	0.075	1477863	keystroke_r	r	n/a
739.1115	0.09	1478223	keystroke_o	o	n/a
739.862	0.06	1479724	keystroke_u	u	n/a
740.8965	0.075	1481793	keystroke_t	t	n/a
741.0615	0.09	1482123	keystroke_i	i	n/a
741.4215	0.0755	1482843	keystroke_n	n	n/a
741.617	0.06	1483234	keystroke_e	e	n/a
742.307	0.09	1484614	keystroke_Key.space	Key.space	n/a
742.532	0.075	1485064	keystroke_s	s	n/a
742.802	0.1055	1485604	keystroke_a	a	n/a
743.2225	0.105	1486445	keystroke_f	f	n/a
744.092	0.105	1488184	keystroke_a	a	n/a
744.917	0.09	1489834	keystroke_r	r	n/a
745.232	0.06	1490464	keystroke_i	i	n/a
745.7575	0.0745	1491515	keystroke_Key.space	Key.space	n/a
746.072	0.075	1492144	keystroke_j	j	n/a
746.612	0.0755	1493224	keystroke_u	u	n/a
746.9125	0.075	1493825	keystroke_c	c	n/a
747.0925	0.045	1494185	keystroke_h	h	n/a
748.172	0.12	1496344	keystroke_Key.backspace	Key.backspace	n/a
748.9665	0.045	1497933	keystroke_Key.backspace	Key.backspace	n/a
749.552	0.06	1499104	keystroke_n	n	n/a
749.942	0.06	1499884	keystroke_c	c	n/a
750.047	0.075	1500094	keystroke_h	h	n/a
752.102	0.075	1504204	keystroke_Key.backspace	Key.backspace	n/a
752.6425	0.0745	1505285	keystroke_t	t	n/a
752.807	0.045	1505614	keystroke_u	u	n/a
753.8415	0.075	1507683	keystroke_Key.backspace	Key.backspace	n/a
754.337	0.0595	1508674	keystroke_i	i	n/a
754.5015	0.105	1509003	keystroke_o	o	n/a
754.7715	0.075	1509543	keystroke_n	n	n/a
755.4915	0.09	1510983	keystroke_Key.space	Key.space	n/a
756.482	0.0745	1512964	keystroke_Key.backspace	Key.backspace	n/a
757.2025	0.09	1514405	keystroke_Key.enter	Key.enter	n/a
757.2965	18.822	1514593	prompt	n/a	mexican partnership come upload\n
757.9675	0.1045	1515935	keystroke_m	m	n/a
758.162	0.09	1516324	keystroke_e	e	n/a
758.492	0.075	1516984	keystroke_c	c	n/a
759.347	0.09	1518694	keystroke_Key.backspace	Key.backspace	n/a
759.617	0.105	1519234	keystroke_x	x	n/a
760.052	0.075	1520104	keystroke_i	i	n/a
760.562	0.06	1521124	keystroke_c	c	n/a
760.8775	0.075	1521755	keystroke_a	a	n/a
761.0875	0.044	1522175	keystroke_n	n	n/a
761.4015	0.09	1522803	keystroke_Key.space	Key.space	n/a
762.8275	0.089	1525655	keystroke_p	p	n/a
763.1125	0.105	1526225	keystroke_a	a	n/a
763.952	0.09	1527904	keystroke_e	e	n/a
764.3115	0.09	1528623	keystroke_r	r	n/a
765.1965	0.12	1530393	keystroke_Key.backspace	Key.backspace	n/a
765.7665	0.09	1531533	keystroke_Key.backspace	Key.backspace	n/a
766.5615	0.075	1533123	keystroke_r	r	n/a
766.7715	0.076	1533543	keystroke_t	t	n/a
767.2975	0.09	1534595	keystroke_n	n	n/a
767.477	0.105	1534954	keystroke_e	e	n/a
767.702	0.09	1535404	keystroke_r	r	n/a
768.137	0.06	1536274	keystroke_s	s	n/a
768.242	0.105	1536484	keystroke_h	h	n/a
768.4965	0.105	1536993	keystroke_i	i	n/a
768.7825	0.1195	1537565	keystroke_p	p	n/a
769.157	0.09	1538314	keystroke_Key.space	Key.space	n/a
769.622	0.075	1539244	keystroke_c	c	n/a
769.742	0.075	1539484	keystroke_o	o	n/a
769.9225	0.059	1539845	keystroke_m	m	n/a
770.042	0.0745	1540084	keystroke_e	e	n/a
770.6575	0.12	1541315	keystroke_Key.space	Key.space	n/a
772.472	0.09	1544944	keystroke_u	u	n/a
772.727	0.12	1545454	keystroke_p	p	n/a
773.372	0.1205	1546744	keystroke_l	l	n/a
773.5825	0.089	1547165	keystroke_o	o	n/a
774.0325	0.09	1548065	keystroke_a	a	n/a
774.3325	0.089	1548665	keystroke_d	d	n/a
776.042	0.075	1552084	keystroke_Key.enter	Key.enter	n/a
776.1235	28.39	1552247	prompt	n/a	keyboards southeast macintosh inclusion\n
777.047	0.09	1554094	keystroke_k	k	n/a
777.9765	0.0605	1555953	keystroke_e	e	n/a
778.142	0.045	1556284	keystroke_y	y	n/a
778.667	0.03	1557334	keystroke_b	b	n/a
778.772	0.075	1557544	keystroke_o	o	n/a
779.072	0.105	1558144	keystroke_a	a	n/a
779.537	0.06	1559074	keystroke_r	r	n/a
779.852	0.09	1559704	keystroke_d	d	n/a
780.6625	0.075	1561325	keystroke_s	s	n/a
780.8575	0.09	1561715	keystroke_Key.space	Key.space	n/a
781.247	0.06	1562494	keystroke_s	s	n/a
781.337	0.105	1562674	keystroke_o	o	n/a
781.547	0.075	1563094	keystroke_u	u	n/a
781.952	0.045	1563904	keystroke_r	r	n/a
782.747	0.09	1565494	keystroke_Key.backspace	Key.backspace	n/a
783.182	0.075	1566364	keystroke_t	t	n/a
783.272	0.045	1566544	keystroke_h	h	n/a
783.8265	0.09	1567653	keystroke_w	w	n/a
784.592	0.105	1569184	keystroke_Key.backspace	Key.backspace	n/a
784.832	0.075	1569664	keystroke_e	e	n/a
785.087	0.105	1570174	keystroke_a	a	n/a
785.477	0.105	1570954	keystroke_s	s	n/a
785.807	0.075	1571614	keystroke_t	t	n/a
786.377	0.075	1572754	keystroke_Key.space	Key.space	n/a
786.797	0.075	1573594	keystroke_m	m	n/a
787.037	0.105	1574074	keystroke_a	a	n/a
787.4115	0.1055	1574823	keystroke_c	c	n/a
789.002	0.06	1578004	keystroke_i	i	n/a
789.4975	0.059	1578995	keystroke_n	n	n/a
790.0365	0.075	1580073	keystroke_t	t	n/a
790.7865	0.076	1581573	keystroke_o	o	n/a
791.837	0.105	1583674	keystroke_s	s	n/a
792.947	0.12	1585894	keystroke_h	h	n/a
795.6045	0.027	1591209	keystroke_Key.space	Key.space	n/a
796.0365	0.075	1592073	keystroke_i	i	n/a
796.247	0.09	1592494	keystroke_c	c	n/a
797.267	0.105	1594534	keystroke_Key.backspace	Key.backspace	n/a
797.8225	0.075	1595645	keystroke_n	n	n/a
798.2275	0.03	1596455	keystroke_c	c	n/a
802.1895	0.013	1604379	keystroke_l	l	n/a
802.9365	0.06	1605873	keystroke_u	u	n/a
803.2075	0.09	1606415	keystroke_s	s	n/a
803.5675	0.045	1607135	keystroke_i	i	n/a
803.6575	0.105	1607315	keystroke_o	o	n/a
803.8975	0.09	1607795	keystroke_n	n	n/a
804.4525	0.06	1608905	keystroke_Key.enter	Key.enter	n/a
804.5165	13.437	1609033	prompt	n/a	syria bearing wash revolution\n
805.3675	0.09	1610735	keystroke_s	s	n/a
805.697	0.0595	1611394	keystroke_y	y	n/a
806.1475	0.06	1612295	keystroke_r	r	n/a
806.342	0.06	1612684	keystroke_i	i	n/a
806.732	0.075	1613464	keystroke_a	a	n/a
807.347	0.09	1614694	keystroke_Key.space	Key.space	n/a
807.827	0.06	1615654	keystroke_c	c	n/a
808.652	0.105	1617304	keystroke_Key.backspace	Key.backspace	n/a
809.282	0.105	1618564	keystroke_b	b	n/a
809.537	0.09	1619074	keystroke_e	e	n/a
809.762	0.12	1619524	keystroke_a	a	n/a
810.002	0.06	1620004	keystroke_r	r	n/a
810.137	0.075	1620274	keystroke_i	i	n/a
810.392	0.075	1620784	keystroke_n	n	n/a
810.527	0.075	1621054	keystroke_g	g	n/a
811.3675	0.0895	1622735	keystroke_Key.space	Key.space	n/a
811.757	0.06	1623514	keystroke_w	w	n/a
812.147	0.105	1624294	keystroke_a	a	n/a
812.372	0.075	1624744	keystroke_s	s	n/a
812.522	0.075	1625044	keystroke_h	h	n/a
812.897	0.09	1625794	keystroke_Key.space	Key.space	n/a
813.437	0.06	1626874	keystroke_r	r	n/a
813.647	0.09	1627294	keystroke_e	e	n/a
814.022	0.0455	1628044	keystroke_v	v	n/a
814.712	0.09	1629424	keystroke_o	o	n/a
815.252	0.09	1630504	keystroke_l	l	n/a
815.807	0.09	1631614	keystroke_u	u	n/a
816.182	0.045	1632364	keystroke_t	t	n/a
816.287	0.09	1632574	keystroke_i	i	n/a
816.482	0.09	1632964	keystroke_o	o	n/a
817.052	0.06	1634104	keystroke_n	n	n/a
817.877	0.075	1635754	keystroke_Key.enter	Key.enter	n/a
817.958	32.1255	1635916	prompt	n/a	formula guys particularly grew\n
818.7325	0.09	1637465	keystroke_f	f	n/a
818.9125	0.075	1637825	keystroke_o	o	n/a
819.167	0.06	1638334	keystroke_r	r	n/a
819.6925	0.075	1639385	keystroke_m	m	n/a
820.0975	0.075	1640195	keystroke_u	u	n/a
820.3375	0.105	1640675	keystroke_l	l	n/a
820.6675	0.12	1641335	keystroke_a	a	n/a
821.3725	0.09	1642745	keystroke_Key.space	Key.space	n/a
822.017	0.06	1644034	keystroke_h	h	n/a
822.647	0.09	1645294	keystroke_Key.backspace	Key.backspace	n/a
823.022	0.045	1646044	keystroke_g	g	n/a
823.172	0.06	1646344	keystroke_u	u	n/a
823.382	0.06	1646764	keystroke_y	y	n/a
823.562	0.0895	1647124	keystroke_s	s	n/a
824.2065	0.075	1648413	keystroke_Key.space	Key.space	n/a
824.5675	0.105	1649135	keystroke_p	p	n/a
824.8075	0.105	1649615	keystroke_a	a	n/a
825.0775	0.09	1650155	keystroke_r	r	n/a
825.2575	0.0745	1650515	keystroke_i	i	n/a
826.022	0.06	1652044	keystroke_u	u	n/a
826.937	0.09	1653874	keystroke_Key.backspace	Key.backspace	n/a
827.342	0.075	1654684	keystroke_c	c	n/a
827.687	0.075	1655374	keystroke_u	u	n/a
828.3025	0.075	1656605	keystroke_l	l	n/a
828.5275	0.105	1657055	keystroke_a	a	n/a
828.8425	0.09	1657685	keystroke_r	r	n/a
829.9825	0.015	1659965	keystroke_l	l	n/a
830.2375	0.06	1660475	keystroke_y	y	n/a
831.0775	0.09	1662155	keystroke_Key.space	Key.space	n/a
831.9925	0.075	1663985	keystroke_g	g	n/a
834.7545	0.057	1669509	keystroke_Key.backspace	Key.backspace	n/a
835.3515	0.12	1670703	keystroke_Key.backspace	Key.backspace	n/a
836.0115	0.09	1672023	keystroke_Key.backspace	Key.backspace	n/a
836.642	0.135	1673284	keystroke_Key.backspace	Key.backspace	n/a
837.2715	0.105	1674543	keystroke_Key.backspace	Key.backspace	n/a
837.9165	0.09	1675833	keystroke_Key.backspace	Key.backspace	n/a
838.577	0.12	1677154	keystroke_Key.backspace	Key.backspace	n/a
839.282	0.06	1678564	keystroke_Key.backspace	Key.backspace	n/a
839.912	0.105	1679824	keystroke_Key.backspace	Key.backspace	n/a
840.6475	0.09	1681295	keystroke_Key.backspace	Key.backspace	n/a
842.057	0.075	1684114	keystroke_t	t	n/a
842.7615	0.06	1685523	keystroke_i	i	n/a
844.999	0.013	1689998	keystroke_c	c	n/a
845.1175	0.0745	1690235	keystroke_u	u	n/a
845.6115	0.075	1691223	keystroke_l	l	n/a
846.3315	0.075	1692663	keystroke_a	a	n/a
846.5865	0.075	1693173	keystroke_r	r	n/a
847.3675	0.075	1694735	keystroke_l	l	n/a
847.6375	0.105	1695275	keystroke_y	y	n/a
847.8775	0.105	1695755	keystroke_Key.space	Key.space	n/a
848.3125	0.1195	1696625	keystroke_g	g	n/a
848.597	0.12	1697194	keystroke_r	r	n/a
848.927	0.105	1697854	keystroke_e	e	n/a
849.212	0.09	1698424	keystroke_w	w	n/a
849.992	0.09	1699984	keystroke_Key.enter	Key.enter	n/a
850.087	19.4965	1700174	prompt	n/a	websites started hacker crucial\n
850.9815	0.105	1701963	keystroke_w	w	n/a
851.3865	0.06	1702773	keystroke_e	e	n/a
852.077	0.06	1704154	keystroke_v	v	n/a
852.8565	0.075	1705713	keystroke_Key.backspace	Key.backspace	n/a
853.3675	0.09	1706735	keystroke_c	c	n/a
854.1915	0.105	1708383	keystroke_Key.backspace	Key.backspace	n/a
854.4175	0.105	1708835	keystroke_v	v	n/a
855.752	0.075	1711504	keystroke_Key.backspace	Key.backspace	n/a
855.977	0.09	1711954	keystroke_b	b	n/a
857.8365	0.06	1715673	keystroke_s	s	n/a
857.9715	0.06	1715943	keystroke_i	i	n/a
858.1815	0.075	1716363	keystroke_t	t	n/a
858.407	0.0755	1716814	keystroke_e	e	n/a
858.692	0.075	1717384	keystroke_s	s	n/a
858.902	0.105	1717804	keystroke_Key.space	Key.space	n/a
859.157	0.105	1718314	keystroke_s	s	n/a
859.547	0.0605	1719094	keystroke_t	t	n/a
859.907	0.12	1719814	keystroke_a	a	n/a
860.162	0.09	1720324	keystroke_r	r	n/a
860.552	0.06	1721104	keystroke_t	t	n/a
861.182	0.06	1722364	keystroke_e	e	n/a
861.4075	0.075	1722815	keystroke_d	d	n/a
861.5875	0.09	1723175	keystroke_Key.space	Key.space	n/a
862.682	0.075	1725364	keystroke_h	h	n/a
862.922	0.105	1725844	keystroke_a	a	n/a
863.237	0.09	1726474	keystroke_c	c	n/a
863.357	0.09	1726714	keystroke_k	k	n/a
863.597	0.105	1727194	keystroke_e	e	n/a
864.347	0.0605	1728694	keystroke_r	r	n/a
865.247	0.09	1730494	keystroke_Key.space	Key.space	n/a
865.712	0.09	1731424	keystroke_c	c	n/a
866.087	0.075	1732174	keystroke_r	r	n/a
866.447	0.06	1732894	keystroke_u	u	n/a
867.0025	0.105	1734005	keystroke_c	c	n/a
868.0975	0.06	1736195	keystroke_i	i	n/a
868.4275	0.074	1736855	keystroke_a	a	n/a
868.8615	0.075	1737723	keystroke_l	l	n/a
869.507	0.0755	1739014	keystroke_Key.enter	Key.enter	n/a
869.586	14.668	1739172	prompt	n/a	targets johns numerical patterns\n
870.4675	0.104	1740935	keystroke_t	t	n/a
870.7965	0.105	1741593	keystroke_a	a	n/a
871.2915	0.09	1742583	keystroke_r	r	n/a
871.6365	0.09	1743273	keystroke_g	g	n/a
871.9815	0.105	1743963	keystroke_e	e	n/a
872.4175	0.09	1744835	keystroke_t	t	n/a
872.8675	0.09	1745735	keystroke_s	s	n/a
873.0325	0.105	1746065	keystroke_Key.space	Key.space	n/a
873.6475	0.06	1747295	keystroke_h	h	n/a
873.992	0.075	1747984	keystroke_o	o	n/a
874.5765	0.105	1749153	keystroke_Key.backspace	Key.backspace	n/a
874.9665	0.105	1749933	keystroke_Key.backspace	Key.backspace	n/a
875.717	0.0745	1751434	keystroke_j	j	n/a
875.9565	0.075	1751913	keystroke_o	o	n/a
876.2715	0.06	1752543	keystroke_h	h	n/a
876.542	0.0755	1753084	keystroke_n	n	n/a
877.5325	0.09	1755065	keystroke_s	s	n/a
877.6675	0.075	1755335	keystroke_Key.space	Key.space	n/a
877.8625	0.09	1755725	keystroke_n	n	n/a
878.1025	0.09	1756205	keystroke_u	u	n/a
878.3575	0.1045	1756715	keystroke_m	m	n/a
878.597	0.12	1757194	keystroke_e	e	n/a
878.912	0.075	1757824	keystroke_r	r	n/a
879.5715	0.06	1759143	keystroke_i	i	n/a
879.7375	0.074	1759475	keystroke_c	c	n/a
880.0965	0.075	1760193	keystroke_a	a	n/a
880.2465	0.09	1760493	keystroke_l	l	n/a
880.8015	0.06	1761603	keystroke_Key.space	Key.space	n/a
881.1775	0.075	1762355	keystroke_p	p	n/a
881.4025	0.06	1762805	keystroke_a	a	n/a
881.8075	0.09	1763615	keystroke_t	t	n/a
881.9575	0.105	1763915	keystroke_t	t	n/a
882.2275	0.105	1764455	keystroke_e	e	n/a
882.4375	0.09	1764875	keystroke_r	r	n/a
883.1575	0.075	1766315	keystroke_n	n	n/a
883.6825	0.015	1767365	keystroke_s	s	n/a
884.1625	0.09	1768325	keystroke_Key.enter	Key.enter	n/a
884.257	14.3375	1768514	prompt	n/a	climate scanners forbes fighter\n
885.257	0.075	1770514	keystroke_c	c	n/a
885.437	0.105	1770874	keystroke_l	l	n/a
885.692	0.06	1771384	keystroke_i	i	n/a
885.932	0.09	1771864	keystroke_m	m	n/a
886.412	0.135	1772824	keystroke_a	a	n/a
886.772	0.06	1773544	keystroke_t	t	n/a
887.042	0.105	1774084	keystroke_e	e	n/a
887.492	0.09	1774984	keystroke_Key.space	Key.space	n/a
887.867	0.09	1775734	keystroke_c	c	n/a
888.587	0.21	1777174	keystroke_Key.backspace	Key.backspace	n/a
888.842	0.06	1777684	keystroke_s	s	n/a
889.112	0.075	1778224	keystroke_c	c	n/a
889.412	0.09	1778824	keystroke_a	a	n/a
889.622	0.06	1779244	keystroke_n	n	n/a
889.742	0.105	1779484	keystroke_n	n	n/a
890.027	0.09	1780054	keystroke_e	e	n/a
890.297	0.075	1780594	keystroke_r	r	n/a
890.702	0.105	1781404	keystroke_s	s	n/a
890.927	0.09	1781854	keystroke_Key.space	Key.space	n/a
891.332	0.09	1782664	keystroke_f	f	n/a
891.482	0.09	1782964	keystroke_o	o	n/a
891.662	0.09	1783324	keystroke_r	r	n/a
892.007	0.09	1784014	keystroke_b	b	n/a
892.337	0.09	1784674	keystroke_e	e	n/a
892.922	0.09	1785844	keystroke_s	s	n/a
893.507	0.06	1787014	keystroke_Key.space	Key.space	n/a
893.717	0.075	1787434	keystroke_f	f	n/a
893.852	0.09	1787704	keystroke_i	i	n/a
895.412	0.075	1790824	keystroke_g	g	n/a
895.937	0.06	1791874	keystroke_h	h	n/a
896.627	0.075	1793254	keystroke_t	t	n/a
896.867	0.12	1793734	keystroke_e	e	n/a
897.137	0.09	1794274	keystroke_r	r	n/a
898.517	0.075	1797034	keystroke_Key.enter	Key.enter	n/a
898.5975	15.8515	1797195	prompt	n/a	pockets problem scope countries\n
899.387	0.12	1798774	keystroke_p	p	n/a
899.642	0.075	1799284	keystroke_o	o	n/a
900.137	0.075	1800274	keystroke_c	c	n/a
900.287	0.075	1800574	keystroke_k	k	n/a
900.7825	0.1345	1801565	keystroke_e	e	n/a
901.097	0.075	1802194	keystroke_t	t	n/a
901.4115	0.076	1802823	keystroke_s	s	n/a
901.7715	0.12	1803543	keystroke_Key.space	Key.space	n/a
902.0415	0.075	1804083	keystroke_p	p	n/a
902.2815	0.076	1804563	keystroke_r	r	n/a
902.447	0.09	1804894	keystroke_o	o	n/a
902.7475	0.12	1805495	keystroke_b	b	n/a
903.002	0.09	1806004	keystroke_l	l	n/a
904.0525	0.075	1808105	keystroke_e	e	n/a
904.2475	0.06	1808495	keystroke_m	m	n/a
904.9675	0.104	1809935	keystroke_Key.space	Key.space	n/a
905.3875	0.09	1810775	keystroke_s	s	n/a
905.6865	0.09	1811373	keystroke_c	c	n/a
905.8825	0.089	1811765	keystroke_o	o	n/a
906.1215	0.076	1812243	keystroke_p	p	n/a
906.3475	0.075	1812695	keystroke_e	e	n/a
906.9925	0.1345	1813985	keystroke_Key.space	Key.space	n/a
907.787	0.0755	1815574	keystroke_c	c	n/a
907.967	0.1055	1815934	keystroke_o	o	n/a
908.3575	0.089	1816715	keystroke_u	u	n/a
908.6115	0.105	1817223	keystroke_n	n	n/a
908.9575	0.105	1817915	keystroke_t	t	n/a
909.6925	0.075	1819385	keystroke_r	r	n/a
909.8875	0.075	1819775	keystroke_i	i	n/a
910.1565	0.076	1820313	keystroke_e	e	n/a
910.4715	0.091	1820943	keystroke_s	s	n/a
914.436	0.011	1828872	keystroke_Key.enter	Key.enter	n/a
914.452	16.407	1828904	prompt	n/a	mostly ready strips component\n
915.287	0.105	1830574	keystroke_m	m	n/a
915.527	0.075	1831054	keystroke_s	s	n/a
915.617	0.09	1831234	keystroke_o	o	n/a
916.517	0.105	1833034	keystroke_Key.backspace	Key.backspace	n/a
916.877	0.06	1833754	keystroke_Key.backspace	Key.backspace	n/a
917.4925	0.0755	1834985	keystroke_o	o	n/a
917.658	0.105	1835316	keystroke_s	s	n/a
918.257	0.061	1836514	keystroke_t	t	n/a
918.392	0.091	1836784	keystroke_l	l	n/a
918.693	0.09	1837386	keystroke_y	y	n/a
919.202	0.105	1838404	keystroke_Key.space	Key.space	n/a
919.562	0.09	1839124	keystroke_r	r	n/a
919.757	0.09	1839514	keystroke_e	e	n/a
920.027	0.105	1840054	keystroke_a	a	n/a
920.312	0.09	1840624	keystroke_d	d	n/a
920.552	0.06	1841104	keystroke_y	y	n/a
920.957	0.105	1841914	keystroke_Key.space	Key.space	n/a
921.407	0.09	1842814	keystroke_s	s	n/a
921.722	0.105	1843444	keystroke_t	t	n/a
922.0975	0.09	1844195	keystroke_r	r	n/a
922.3375	0.1045	1844675	keystroke_i	i	n/a
922.907	0.075	1845814	keystroke_p	p	n/a
923.9275	0.045	1847855	keystroke_s	s	n/a
924.0625	0.09	1848125	keystroke_Key.space	Key.space	n/a
924.4525	0.075	1848905	keystroke_c	c	n/a
924.5875	0.09	1849175	keystroke_o	o	n/a
924.8125	0.09	1849625	keystroke_m	m	n/a
925.1575	0.1045	1850315	keystroke_p	p	n/a
925.877	0.105	1851754	keystroke_o	o	n/a
926.6725	0.06	1853345	keystroke_n	n	n/a
926.9575	0.0745	1853915	keystroke_e	e	n/a
927.1825	0.075	1854365	keystroke_n	n	n/a
927.4525	0.075	1854905	keystroke_t	t	n/a
930.8445	0.013	1861689	keystroke_Key.enter	Key.enter	n/a
930.8625	22.9765	1861725	prompt	n/a	striking procedure poster pantyhose\n
931.7125	0.12	1863425	keystroke_s	s	n/a
932.0725	0.0745	1864145	keystroke_t	t	n/a
932.6275	0.06	1865255	keystroke_r	r	n/a
933.242	0.06	1866484	keystroke_i	i	n/a
933.467	0.2255	1866934	keystroke_k	k	n/a
933.8425	0.12	1867685	keystroke_i	i	n/a
934.083	0.089	1868166	keystroke_n	n	n/a
934.322	0.061	1868644	keystroke_g	g	n/a
934.848	0.075	1869696	keystroke_Key.space	Key.space	n/a
935.5675	0.075	1871135	keystroke_p	p	n/a
935.792	0.06	1871584	keystroke_r	r	n/a
936.287	0.076	1872574	keystroke_o	o	n/a
937.112	0.105	1874224	keystroke_c	c	n/a
937.8025	0.075	1875605	keystroke_e	e	n/a
938.117	0.09	1876234	keystroke_d	d	n/a
940.49	0.001	1880980	keystroke_u	u	n/a
940.638	0.075	1881276	keystroke_r	r	n/a
940.8625	0.06	1881725	keystroke_e	e	n/a
941.3725	0.09	1882745	keystroke_Key.space	Key.space	n/a
941.8225	0.12	1883645	keystroke_p	p	n/a
942.0475	0.09	1884095	keystroke_o	o	n/a
942.2425	0.09	1884485	keystroke_s	s	n/a
942.6325	0.09	1885265	keystroke_t	t	n/a
942.8875	0.105	1885775	keystroke_e	e	n/a
943.1125	0.06	1886225	keystroke_r	r	n/a
943.2625	0.135	1886525	keystroke_Key.space	Key.space	n/a
943.5175	0.105	1887035	keystroke_p	p	n/a
943.6825	0.075	1887365	keystroke_a	a	n/a
943.8925	0.075	1887785	keystroke_n	n	n/a
944.2075	0.09	1888415	keystroke_y	y	n/a
944.9425	0.09	1889885	keystroke_g	g	n/a
945.8575	0.105	1891715	keystroke_=	=	n/a
946.953	0.105	1893906	keystroke_Key.backspace	Key.backspace	n/a
947.4925	0.0605	1894985	keystroke_Key.backspace	Key.backspace	n/a
950.21	0.028	1900420	keystroke_Key.backspace	Key.backspace	n/a
951.5285	0.044	1903057	keystroke_t	t	n/a
951.678	0.059	1903356	keystroke_y	y	n/a
952.292	0.09	1904584	keystroke_h	h	n/a
952.503	0.075	1905006	keystroke_o	o	n/a
952.698	0.089	1905396	keystroke_s	s	n/a
953.028	0.074	1906056	keystroke_e	e	n/a
953.762	0.075	1907524	keystroke_Key.enter	Key.enter	n/a
953.843	15.356	1907686	prompt	n/a	noon laugh matthew pieces\n
954.5875	0.105	1909175	keystroke_n	n	n/a
954.8125	0.075	1909625	keystroke_o	o	n/a
954.9625	0.105	1909925	keystroke_o	o	n/a
955.217	0.0755	1910434	keystroke_n	n	n/a
955.4275	0.105	1910855	keystroke_Key.space	Key.space	n/a
956.238	0.105	1912476	keystroke_l	l	n/a
956.5975	0.09	1913195	keystroke_a	a	n/a
957.1525	0.06	1914305	keystroke_u	u	n/a
957.5425	0.06	1915085	keystroke_g	g	n/a
957.6475	0.075	1915295	keystroke_h	h	n/a
958.2175	0.105	1916435	keystroke_Key.space	Key.space	n/a
959.0275	0.0745	1918055	keystroke_m	m	n/a
959.267	0.06	1918534	keystroke_a	a	n/a
959.582	0.15	1919164	keystroke_a	a	n/a
960.527	0.105	1921054	keystroke_Key.backspace	Key.backspace	n/a
961.1425	0.0605	1922285	keystroke_t	t	n/a
961.308	0.075	1922616	keystroke_h	h	n/a
962.403	0.075	1924806	keystroke_Key.backspace	Key.backspace	n/a
962.778	0.075	1925556	keystroke_t	t	n/a
963.513	0.06	1927026	keystroke_h	h	n/a
963.888	0.105	1927776	keystroke_e	e	n/a
964.5175	0.045	1929035	keystroke_w	w	n/a
964.8475	0.075	1929695	keystroke_Key.space	Key.space	n/a
965.1925	0.105	1930385	keystroke_p	p	n/a
965.4325	0.105	1930865	keystroke_i	i	n/a
965.8375	0.09	1931675	keystroke_e	e	n/a
966.617	0.09	1933234	keystroke_c	c	n/a
966.917	0.06	1933834	keystroke_e	e	n/a
967.4275	0.045	1934855	keystroke_s	s	n/a
969.1675	0.03	1938335	keystroke_Key.enter	Key.enter	n/a
969.203	9.176	1938406	prompt	n/a	infant cross pond barrel\n
970.0825	0.0905	1940165	keystroke_i	i	n/a
970.278	0.075	1940556	keystroke_n	n	n/a
970.503	0.075	1941006	keystroke_f	f	n/a
970.758	0.075	1941516	keystroke_a	a	n/a
970.863	0.075	1941726	keystroke_n	n	n/a
971.703	0.06	1943406	keystroke_t	t	n/a
972.063	0.0595	1944126	keystroke_Key.space	Key.space	n/a
972.438	0.075	1944876	keystroke_c	c	n/a
972.933	0.09	1945866	keystroke_r	r	n/a
973.128	0.09	1946256	keystroke_o	o	n/a
973.352	0.09	1946704	keystroke_s	s	n/a
973.533	0.09	1947066	keystroke_s	s	n/a
973.742	0.121	1947484	keystroke_Key.space	Key.space	n/a
974.282	0.12	1948564	keystroke_p	p	n/a
974.552	0.105	1949104	keystroke_o	o	n/a
975.078	0.075	1950156	keystroke_n	n	n/a
975.302	0.075	1950604	keystroke_d	d	n/a
975.767	0.09	1951534	keystroke_Key.space	Key.space	n/a
976.308	0.089	1952616	keystroke_b	b	n/a
976.622	0.091	1953244	keystroke_a	a	n/a
977.207	0.09	1954414	keystroke_r	r	n/a
977.387	0.091	1954774	keystroke_r	r	n/a
977.687	0.091	1955374	keystroke_e	e	n/a
977.868	0.09	1955736	keystroke_l	l	n/a
978.287	0.09	1956574	keystroke_Key.enter	Key.enter	n/a
978.3825	23.7415	1956765	prompt	n/a	obligation purse associate broadcasting\n
979.383	0.0745	1958766	keystroke_o	o	n/a
979.803	0.104	1959606	keystroke_b	b	n/a
980.793	0.119	1961586	keystroke_l	l	n/a
981.062	0.075	1962124	keystroke_i	i	n/a
981.422	0.075	1962844	keystroke_g	g	n/a
982.113	0.104	1964226	keystroke_a	a	n/a
982.637	0.075	1965274	keystroke_t	t	n/a
982.772	0.105	1965544	keystroke_i	i	n/a
982.937	0.105	1965874	keystroke_o	o	n/a
983.177	0.0905	1966354	keystroke_n	n	n/a
983.658	0.0895	1967316	keystroke_Key.space	Key.space	n/a
984.198	0.045	1968396	keystroke_p	p	n/a
985.278	0.0745	1970556	keystroke_u	u	n/a
985.6225	0.09	1971245	keystroke_r	r	n/a
985.8625	0.105	1971725	keystroke_s	s	n/a
986.1475	0.06	1972295	keystroke_e	e	n/a
986.7325	0.09	1973465	keystroke_Key.space	Key.space	n/a
987.0325	0.09	1974065	keystroke_a	a	n/a
987.3325	0.09	1974665	keystroke_s	s	n/a
987.5125	0.09	1975025	keystroke_s	s	n/a
987.8875	0.075	1975775	keystroke_o	o	n/a
988.1125	0.075	1976225	keystroke_c	c	n/a
988.608	0.045	1977216	keystroke_i	i	n/a
989.5075	0.135	1979015	keystroke_a	a	n/a
989.8825	0.06	1979765	keystroke_t	t	n/a
990.1825	0.075	1980365	keystroke_e	e	n/a
990.4675	0.0755	1980935	keystroke_Key.space	Key.space	n/a
990.993	0.06	1981986	keystroke_b	b	n/a
991.323	0.09	1982646	keystroke_r	r	n/a
992.223	0.06	1984446	keystroke_a	a	n/a
992.8375	0.09	1985675	keystroke_Key.backspace	Key.backspace	n/a
993.4675	0.09	1986935	keystroke_o	o	n/a
993.7675	0.09	1987535	keystroke_a	a	n/a
994.1125	0.105	1988225	keystroke_d	d	n/a
994.8625	0.09	1989725	keystroke_c	c	n/a
995.1175	0.09	1990235	keystroke_a	a	n/a
995.3425	0.12	1990685	keystroke_s	s	n/a
995.7475	0.09	1991495	keystroke_t	t	n/a
995.9725	0.105	1991945	keystroke_i	i	n/a
996.1375	0.12	1992275	keystroke_o	o	n/a
996.3625	0.105	1992725	keystroke_n	n	n/a
997.2475	0.105	1994495	keystroke_Key.backspace	Key.backspace	n/a
997.9225	0.09	1995845	keystroke_Key.backspace	Key.backspace	n/a
998.7325	0.09	1997465	keystroke_n	n	n/a
998.8825	0.075	1997765	keystroke_g	g	n/a
1002.095	0.027	2004190	keystroke_Key.enter	Key.enter	n/a
1002.129	12.82	2004258	prompt	n/a	boss pulling advantage chancellor\n
1002.8875	0.075	2005775	keystroke_b	b	n/a
1003.1125	0.09	2006225	keystroke_o	o	n/a
1003.3225	0.075	2006645	keystroke_s	s	n/a
1003.472	0.105	2006944	keystroke_s	s	n/a
1003.637	0.105	2007274	keystroke_Key.space	Key.space	n/a
1004.402	0.09	2008804	keystroke_p	p	n/a
1004.627	0.09	2009254	keystroke_u	u	n/a
1004.897	0.09	2009794	keystroke_l	l	n/a
1005.062	0.135	2010124	keystroke_l	l	n/a
1005.272	0.075	2010544	keystroke_i	i	n/a
1005.4375	0.105	2010875	keystroke_n	n	n/a
1005.6325	0.06	2011265	keystroke_g	g	n/a
1005.8275	0.0905	2011655	keystroke_Key.space	Key.space	n/a
1006.2475	0.075	2012495	keystroke_a	a	n/a
1006.5025	0.09	2013005	keystroke_d	d	n/a
1006.8325	0.09	2013665	keystroke_a	a	n/a
1007.5375	0.045	2015075	keystroke_Key.backspace	Key.backspace	n/a
1008.858	0.0895	2017716	keystroke_v	v	n/a
1009.2475	0.105	2018495	keystroke_a	a	n/a
1009.8925	0.06	2019785	keystroke_n	n	n/a
1010.357	0.046	2020714	keystroke_t	t	n/a
1010.6575	0.105	2021315	keystroke_a	a	n/a
1010.9575	0.105	2021915	keystroke_g	g	n/a
1011.2275	0.075	2022455	keystroke_e	e	n/a
1011.6925	0.09	2023385	keystroke_Key.space	Key.space	n/a
1011.9475	0.075	2023895	keystroke_c	c	n/a
1012.0975	0.075	2024195	keystroke_h	h	n/a
1012.3375	0.06	2024675	keystroke_a	a	n/a
1012.4725	0.06	2024945	keystroke_n	n	n/a
1012.8475	0.09	2025695	keystroke_c	c	n/a
1013.2675	0.06	2026535	keystroke_e	e	n/a
1013.4925	0.075	2026985	keystroke_l	l	n/a
1013.6425	0.105	2027285	keystroke_l	l	n/a
1014.2725	0.045	2028545	keystroke_o	o	n/a
1014.3325	0.045	2028665	keystroke_r	r	n/a
1014.8725	0.075	2029745	keystroke_Key.enter	Key.enter	n/a
1014.952	18.5675	2029904	prompt	n/a	christ segments frontpage installed\n
1015.8025	0.075	2031605	keystroke_c	c	n/a
1015.9525	0.09	2031905	keystroke_h	h	n/a
1016.2675	0.09	2032535	keystroke_r	r	n/a
1016.5675	0.09	2033135	keystroke_i	i	n/a
1017.2275	0.12	2034455	keystroke_s	s	n/a
1017.5425	0.075	2035085	keystroke_t	t	n/a
1017.6775	0.105	2035355	keystroke_Key.space	Key.space	n/a
1017.9775	0.09	2035955	keystroke_s	s	n/a
1018.2025	0.09	2036405	keystroke_e	e	n/a
1021.7295	0.013	2043459	keystroke_g	g	n/a
1022.508	0.075	2045016	keystroke_m	m	n/a
1022.703	0.075	2045406	keystroke_e	e	n/a
1022.8685	0.059	2045737	keystroke_n	n	n/a
1023.1225	0.06	2046245	keystroke_t	t	n/a
1023.5425	0.09	2047085	keystroke_s	s	n/a
1023.7825	0.105	2047565	keystroke_Key.space	Key.space	n/a
1024.5025	0.105	2049005	keystroke_f	f	n/a
1024.9975	0.06	2049995	keystroke_r	r	n/a
1025.1925	0.105	2050385	keystroke_o	o	n/a
1025.4625	0.105	2050925	keystroke_n	n	n/a
1025.7325	0.075	2051465	keystroke_t	t	n/a
1026.303	0.0895	2052606	keystroke_p	p	n/a
1026.513	0.09	2053026	keystroke_a	a	n/a
1026.813	0.09	2053626	keystroke_g	g	n/a
1027.068	0.09	2054136	keystroke_e	e	n/a
1027.638	0.12	2055276	keystroke_Key.space	Key.space	n/a
1028.118	0.075	2056236	keystroke_i	i	n/a
1028.372	0.0605	2056744	keystroke_n	n	n/a
1028.5675	0.09	2057135	keystroke_s	s	n/a
1029.392	0.106	2058784	keystroke_t	t	n/a
1029.753	0.06	2059506	keystroke_a	a	n/a
1029.917	0.061	2059834	keystroke_l	l	n/a
1030.068	0.09	2060136	keystroke_l	l	n/a
1030.233	0.09	2060466	keystroke_e	e	n/a
1030.518	0.09	2061036	keystroke_d	d	n/a
1033.4745	0.043	2066949	keystroke_Key.enter	Key.enter	n/a
1033.5225	21.1175	2067045	prompt	n/a	alpine jacksonville holds officials\n
1034.5085	0.045	2069017	keystroke_a	a	n/a
1035.108	0.105	2070216	keystroke_o	o	n/a
1035.708	0.09	2071416	keystroke_Key.backspace	Key.backspace	n/a
1036.143	0.12	2072286	keystroke_l	l	n/a
1036.758	0.135	2073516	keystroke_p	p	n/a
1038.663	0.06	2077326	keystroke_i	i	n/a
1038.843	0.075	2077686	keystroke_n	n	n/a
1039.068	0.06	2078136	keystroke_e	e	n/a
1040.298	0.0895	2080596	keystroke_Key.space	Key.space	n/a
1040.8085	0.045	2081617	keystroke_j	j	n/a
1041.1685	0.0745	2082337	keystroke_a	a	n/a
1041.4385	0.0895	2082877	keystroke_c	c	n/a
1041.573	0.0595	2083146	keystroke_k	k	n/a
1043.358	0.09	2086716	keystroke_s	s	n/a
1043.538	0.09	2087076	keystroke_o	o	n/a
1043.763	0.075	2087526	keystroke_n	n	n/a
1044.5585	0.135	2089117	keystroke_v	v	n/a
1045.1575	0.06	2090315	keystroke_i	i	n/a
1045.3985	0.09	2090797	keystroke_l	l	n/a
1045.6225	0.076	2091245	keystroke_e	e	n/a
1046.433	0.105	2092866	keystroke_Key.backspace	Key.backspace	n/a
1046.9575	0.09	2093915	keystroke_l	l	n/a
1047.1825	0.075	2094365	keystroke_e	e	n/a
1047.6925	0.09	2095385	keystroke_Key.space	Key.space	n/a
1048.2925	0.09	2096585	keystroke_h	h	n/a
1048.5625	0.09	2097125	keystroke_o	o	n/a
1048.8625	0.09	2097725	keystroke_l	l	n/a
1049.1175	0.06	2098235	keystroke_d	d	n/a
1049.6425	0.045	2099285	keystroke_s	s	n/a
1049.9275	0.105	2099855	keystroke_Key.space	Key.space	n/a
1050.3625	0.075	2100725	keystroke_o	o	n/a
1050.6025	0.075	2101205	keystroke_f	f	n/a
1050.7825	0.045	2101565	keystroke_f	f	n/a
1050.9325	0.075	2101865	keystroke_i	i	n/a
1051.623	0.075	2103246	keystroke_c	c	n/a
1052.433	0.075	2104866	keystroke_i	i	n/a
1052.673	0.075	2105346	keystroke_a	a	n/a
1053.363	0.06	2106726	keystroke_l	l	n/a
1053.663	0.09	2107326	keystroke_s	s	n/a
1054.563	0.075	2109126	keystroke_Key.enter	Key.enter	n/a
1054.6435	14.816	2109287	prompt	n/a	tripadvisor pays copyright query\n
1055.5085	0.09	2111017	keystroke_t	t	n/a
1055.733	0.074	2111466	keystroke_r	r	n/a
1055.9585	0.104	2111917	keystroke_i	i	n/a
1056.2125	0.135	2112425	keystroke_p	p	n/a
1056.543	0.105	2113086	keystroke_a	a	n/a
1056.948	0.045	2113896	keystroke_d	d	n/a
1058.103	0.045	2116206	keystroke_v	v	n/a
1059.528	0.06	2119056	keystroke_i	i	n/a
1059.873	0.09	2119746	keystroke_s	s	n/a
1060.623	0.075	2121246	keystroke_o	o	n/a
1061.1475	0.0755	2122295	keystroke_r	r	n/a
1061.478	0.075	2122956	keystroke_Key.space	Key.space	n/a
1061.868	0.09	2123736	keystroke_p	p	n/a
1062.048	0.0755	2124096	keystroke_a	a	n/a
1062.2435	0.075	2124487	keystroke_y	y	n/a
1063.1585	0.075	2126317	keystroke_s	s	n/a
1063.3385	0.089	2126677	keystroke_Key.space	Key.space	n/a
1063.6685	0.09	2127337	keystroke_c	c	n/a
1063.8035	0.105	2127607	keystroke_o	o	n/a
1064.0585	0.105	2128117	keystroke_p	p	n/a
1064.448	0.0905	2128896	keystroke_y	y	n/a
1065.0925	0.076	2130185	keystroke_r	r	n/a
1065.2575	0.061	2130515	keystroke_i	i	n/a
1065.4235	0.075	2130847	keystroke_g	g	n/a
1065.5585	0.089	2131117	keystroke_h	h	n/a
1065.7235	0.089	2131447	keystroke_t	t	n/a
1066.4125	0.09	2132825	keystroke_Key.space	Key.space	n/a
1066.7875	0.09	2133575	keystroke_q	q	n/a
1067.0575	0.09	2134115	keystroke_u	u	n/a
1067.433	0.1055	2134866	keystroke_e	e	n/a
1067.7035	0.089	2135407	keystroke_r	r	n/a
