onset	duration	sample	value	key	prompt_text
9.423	17.297	18846	prompt	n/a	the quick brown fox jumps over a lazy dog\n
12.453	0.059	24906	keystroke_t	t	n/a
12.467	0.09	24934	keystroke_h	h	n/a
12.707	0.075	25414	keystroke_e	e	n/a
13.007	0.1355	26014	keystroke_Key.space	Key.space	n/a
14.0425	0.0895	28085	keystroke_q	q	n/a
14.237	0.1345	28474	keystroke_u	u	n/a
14.3275	0.1195	28655	keystroke_i	i	n/a
14.462	0.0755	28924	keystroke_c	c	n/a
14.627	0.135	29254	keystroke_k	k	n/a
14.8675	0.1045	29735	keystroke_Key.space	Key.space	n/a
15.542	0.045	31084	keystroke_b	b	n/a
15.752	0.06	31504	keystroke_r	r	n/a
15.8715	0.1055	31743	keystroke_o	o	n/a
15.992	0.06	31984	keystroke_w	w	n/a
16.277	0.0905	32554	keystroke_n	n	n/a
16.7565	0.105	33513	keystroke_Key.space	Key.space	n/a
17.282	0.0605	34564	keystroke_f	f	n/a
17.522	0.075	35044	keystroke_o	o	n/a
17.852	0.06	35704	keystroke_x	x	n/a
18.122	0.09	36244	keystroke_Key.space	Key.space	n/a
18.257	0.12	36514	keystroke_j	j	n/a
18.497	0.0745	36994	keystroke_y	y	n/a
19.697	0.105	39394	keystroke_Key.backspace	Key.backspace	n/a
20.132	0.09	40264	keystroke_u	u	n/a
20.4165	0.0905	40833	keystroke_m	m	n/a
20.657	0.09	41314	keystroke_p	p	n/a
21.242	0.105	42484	keystroke_s	s	n/a
21.5865	0.15	43173	keystroke_Key.space	Key.space	n/a
21.8565	0.1205	43713	keystroke_o	o	n/a
21.9915	0.0755	43983	keystroke_v	v	n/a
22.247	0.15	44494	keystroke_e	e	n/a
22.382	0.09	44764	keystroke_r	r	n/a
22.637	0.1045	45274	keystroke_Key.space	Key.space	n/a
22.7865	0.0605	45573	keystroke_a	a	n/a
22.907	0.0895	45814	keystroke_Key.space	Key.space	n/a
22.982	0.105	45964	keystroke_l	l	n/a
23.132	0.0295	46264	keystroke_a	a	n/a
24.152	0.045	48304	keystroke_z	z	n/a
24.407	0.075	48814	keystroke_y	y	n/a
24.797	0.0895	49594	keystroke_Key.space	Key.space	n/a
25.157	0.1045	50314	keystroke_d	d	n/a
25.3665	0.105	50733	keystroke_o	o	n/a
25.592	0.09	51184	keystroke_g	g	n/a
26.5965	0.12	53193	keystroke_Key.enter	Key.enter	n/a
26.7255	8.9045	53451	prompt	n/a	york tiles agenda offers\n
28.022	0.06	56044	keystroke_y	y	n/a
28.247	0.09	56494	keystroke_o	o	n/a
28.397	0.075	56794	keystroke_r	r	n/a
28.6225	0.0895	57245	keystroke_k	k	n/a
29.087	0.09	58174	keystroke_Key.space	Key.space	n/a
29.5525	0.0745	59105	keystroke_t	t	n/a
31.0365	0.075	62073	keystroke_i	i	n/a
31.322	0.1195	62644	keystroke_l	l	n/a
31.457	0.0745	62914	keystroke_e	e	n/a
31.6665	0.0755	63333	keystroke_s	s	n/a
31.922	0.1195	63844	keystroke_Key.space	Key.space	n/a
32.1465	0.075	64293	keystroke_a	a	n/a
32.432	0.0445	64864	keystroke_g	g	n/a
32.6265	0.076	65253	keystroke_e	e	n/a
32.807	0.105	65614	keystroke_n	n	n/a
33.047	0.06	66094	keystroke_d	d	n/a
33.287	0.06	66574	keystroke_a	a	n/a
33.527	0.12	67054	keystroke_Key.space	Key.space	n/a
33.692	0.1505	67384	keystroke_o	o	n/a
33.857	0.015	67714	keystroke_f	f	n/a
33.932	0.09	67864	keystroke_f	f	n/a
34.127	0.1345	68254	keystroke_e	e	n/a
34.247	0.06	68494	keystroke_r	r	n/a
34.457	0.06	68914	keystroke_s	s	n/a
35.5525	0.075	71105	keystroke_Key.enter	Key.enter	n/a
35.6335	8.591	71267	prompt	n/a	compiler funk portions winston\n
36.7525	0.06	73505	keystroke_c	c	n/a
36.9775	0.029	73955	keystroke_o	o	n/a
37.4575	0.075	74915	keystroke_m	m	n/a
38.1775	0.1045	76355	keystroke_p	p	n/a
38.7025	0.075	77405	keystroke_i	i	n/a
38.882	0.1205	77764	keystroke_l	l	n/a
39.0625	0.18	78125	keystroke_e	e	n/a
39.2275	0.09	78455	keystroke_r	r	n/a
39.3915	0.12	78783	keystroke_Key.space	Key.space	n/a
39.4975	0.075	78995	keystroke_f	f	n/a
39.6165	0.0905	79233	keystroke_u	u	n/a
39.842	0.1355	79684	keystroke_n	n	n/a
39.9475	0.104	79895	keystroke_k	k	n/a
40.1415	0.105	80283	keystroke_Key.space	Key.space	n/a
40.2915	0.151	80583	keystroke_p	p	n/a
40.4275	0.1045	80855	keystroke_o	o	n/a
40.6965	0.075	81393	keystroke_r	r	n/a
40.907	0.06	81814	keystroke_t	t	n/a
40.9975	0.1345	81995	keystroke_i	i	n/a
41.102	0.0905	82204	keystroke_o	o	n/a
41.3275	0.09	82655	keystroke_n	n	n/a
41.687	0.075	83374	keystroke_s	s	n/a
42.2875	0.12	84575	keystroke_Key.space	Key.space	n/a
42.4225	0.075	84845	keystroke_w	w	n/a
42.5125	0.045	85025	keystroke_i	i	n/a
42.6175	0.09	85235	keystroke_n	n	n/a
43.4125	0.06	86825	keystroke_s	s	n/a
43.6225	0.06	87245	keystroke_t	t	n/a
43.6975	0.075	87395	keystroke_o	o	n/a
43.878	0.0595	87756	keystroke_n	n	n/a
44.1475	0.075	88295	keystroke_Key.enter	Key.enter	n/a
44.229	13.256	88458	prompt	n/a	deutsche licence exec gates\n
45.3925	0.06	90785	keystroke_d	d	n/a
45.6165	0.076	91233	keystroke_e	e	n/a
46.653	0.089	93306	keystroke_u	u	n/a
46.892	0.075	93784	keystroke_t	t	n/a
47.957	0.075	95914	keystroke_s	s	n/a
48.1525	0.1045	96305	keystroke_c	c	n/a
48.317	0.09	96634	keystroke_h	h	n/a
48.482	0.0605	96964	keystroke_e	e	n/a
48.8275	0.0745	97655	keystroke_Key.space	Key.space	n/a
49.082	0.075	98164	keystroke_l	l	n/a
49.2475	0.059	98495	keystroke_i	i	n/a
49.682	0.09	99364	keystroke_n	n	n/a
51.1975	0.0895	102395	keystroke_Key.backspace	Key.backspace	n/a
51.737	0.0605	103474	keystroke_c	c	n/a
51.9025	0.0595	103805	keystroke_e	e	n/a
52.022	0.09	104044	keystroke_n	n	n/a
52.787	0.0755	105574	keystroke_c	c	n/a
52.9975	0.075	105995	keystroke_e	e	n/a
53.2525	0.0895	106505	keystroke_Key.space	Key.space	n/a
53.4625	0.0605	106925	keystroke_e	e	n/a
53.687	0.09	107374	keystroke_x	x	n/a
54.137	0.075	108274	keystroke_e	e	n/a
54.347	0.09	108694	keystroke_c	c	n/a
55.637	0.06	111274	keystroke_Key.space	Key.space	n/a
55.833	0.0895	111666	keystroke_g	g	n/a
56.4325	0.09	112865	keystroke_a	a	n/a
56.672	0.0755	113344	keystroke_t	t	n/a
56.8075	0.075	113615	keystroke_e	e	n/a
56.973	0.0745	113946	keystroke_s	s	n/a
57.4225	0.0595	114845	keystroke_Key.enter	Key.enter	n/a
57.4885	8.367	114977	prompt	n/a	cookie bias values gmbh\n
58.488	0.1045	116976	keystroke_c	c	n/a
58.8175	0.075	117635	keystroke_o	o	n/a
59.0575	0.03	118115	keystroke_o	o	n/a
59.1925	0.075	118385	keystroke_k	k	n/a
59.5225	0.045	119045	keystroke_i	i	n/a
59.8225	0.0755	119645	keystroke_e	e	n/a
60.258	0.1195	120516	keystroke_Key.space	Key.space	n/a
60.4975	0.075	120995	keystroke_b	b	n/a
60.663	0.0745	121326	keystroke_i	i	n/a
60.842	0.0755	121684	keystroke_a	a	n/a
61.083	0.06	122166	keystroke_s	s	n/a
61.262	0.0905	122524	keystroke_Key.space	Key.space	n/a
61.383	0.075	122766	keystroke_v	v	n/a
61.593	0.0745	123186	keystroke_a	a	n/a
61.712	0.1055	123424	keystroke_l	l	n/a
61.923	0.089	123846	keystroke_u	u	n/a
61.997	0.075	123994	keystroke_e	e	n/a
62.1775	0.045	124355	keystroke_s	s	n/a
62.297	0.09	124594	keystroke_Key.space	Key.space	n/a
62.448	0.06	124896	keystroke_g	g	n/a
64.7145	0.0005	129429	keystroke_m	m	n/a
64.818	0.06	129636	keystroke_b	b	n/a
64.968	0.059	129936	keystroke_h	h	n/a
65.703	0.15	131406	keystroke_Key.enter	Key.enter	n/a
65.86	21.715	131720	prompt	n/a	cheaper radius compatibility northeast\n
67.9855	0.0425	135971	keystroke_c	c	n/a
68.0575	0.0905	136115	keystroke_h	h	n/a
68.6875	0.09	137375	keystroke_e	e	n/a
68.9125	0.06	137825	keystroke_a	a	n/a
69.0325	0.09	138065	keystroke_p	p	n/a
69.1975	0.165	138395	keystroke_e	e	n/a
69.3335	0.074	138667	keystroke_r	r	n/a
69.528	0.105	139056	keystroke_Key.space	Key.space	n/a
69.678	0.075	139356	keystroke_r	r	n/a
69.948	0.0595	139896	keystroke_a	a	n/a
70.7125	0.06	141425	keystroke_d	d	n/a
70.8625	0.075	141725	keystroke_i	i	n/a
71.058	0.075	142116	keystroke_u	u	n/a
71.253	0.045	142506	keystroke_s	s	n/a
71.373	0.119	142746	keystroke_Key.space	Key.space	n/a
71.523	0.074	143046	keystroke_c	c	n/a
71.613	0.075	143226	keystroke_o	o	n/a
71.778	0.015	143556	keystroke_m	m	n/a
71.942	0.091	143884	keystroke_p	p	n/a
72.183	0.044	144366	keystroke_q	q	n/a
73.4875	0.06	146975	keystroke_Key.backspace	Key.backspace	n/a
73.8185	0.0595	147637	keystroke_a	a	n/a
74.643	0.074	149286	keystroke_t	t	n/a
75.393	0.0895	150786	keystroke_i	i	n/a
75.4975	0.0595	150995	keystroke_b	b	n/a
75.633	0.104	151266	keystroke_l	l	n/a
75.8725	0.09	151745	keystroke_i	i	n/a
76.038	0.1645	152076	keystroke_t	t	n/a
76.173	0.075	152346	keystroke_y	y	n/a
77.013	0.089	154026	keystroke_Key.space	Key.space	n/a
79.595	0.001	159190	keystroke_Key.backspace	Key.backspace	n/a
79.937	0.045	159874	keystroke_Key.backspace	Key.backspace	n/a
80.207	0.075	160414	keystroke_Key.backspace	Key.backspace	n/a
80.448	0.0745	160896	keystroke_Key.backspace	Key.backspace	n/a
80.8525	0.0595	161705	keystroke_Key.backspace	Key.backspace	n/a
81.5275	0.0605	163055	keystroke_i	i	n/a
81.708	0.09	163416	keystroke_l	l	n/a
81.917	0.0605	163834	keystroke_i	i	n/a
82.158	0.1345	164316	keystroke_t	t	n/a
82.788	0.045	165576	keystroke_y	y	n/a
83.298	0.1045	166596	keystroke_Key.space	Key.space	n/a
84.767	0.106	169534	keystroke_n	n	n/a
84.887	0.106	169774	keystroke_o	o	n/a
84.993	0.059	169986	keystroke_r	r	n/a
85.158	0.089	170316	keystroke_t	t	n/a
85.217	0.076	170434	keystroke_h	h	n/a
85.7275	0.075	171455	keystroke_e	e	n/a
85.938	0.09	171876	keystroke_a	a	n/a
86.043	0.0755	172086	keystroke_s	s	n/a
86.403	0.09	172806	keystroke_t	t	n/a
87.497	0.076	174994	keystroke_Key.enter	Key.enter	n/a
87.5805	14.6195	175161	prompt	n/a	michael source regards penalties\n
88.593	0.0895	177186	keystroke_m	m	n/a
88.8025	0.09	177605	keystroke_i	i	n/a
88.9375	0.075	177875	keystroke_c	c	n/a
89.0725	0.075	178145	keystroke_h	h	n/a
90.5275	0.045	181055	keystroke_a	a	n/a
90.7375	0.0595	181475	keystroke_e	e	n/a
90.902	0.105	181804	keystroke_l	l	n/a
91.3525	0.105	182705	keystroke_Key.space	Key.space	n/a
91.5625	0.06	183125	keystroke_s	s	n/a
91.6825	0.1655	183365	keystroke_o	o	n/a
91.8325	0.1055	183665	keystroke_u	u	n/a
91.9675	0.045	183935	keystroke_r	r	n/a
92.1625	0.09	184325	keystroke_c	c	n/a
92.4025	0.045	184805	keystroke_e	e	n/a
93.1375	0.105	186275	keystroke_Key.space	Key.space	n/a
93.5425	0.1045	187085	keystroke_r	r	n/a
93.633	0.074	187266	keystroke_e	e	n/a
93.828	0.075	187656	keystroke_g	g	n/a
94.007	0.09	188014	keystroke_a	a	n/a
94.1725	0.06	188345	keystroke_r	r	n/a
94.443	0.0595	188886	keystroke_f	f	n/a
94.9525	0.075	189905	keystroke_Key.backspace	Key.backspace	n/a
95.1325	0.0595	190265	keystroke_d	d	n/a
95.313	0.06	190626	keystroke_e	e	n/a
95.4925	0.06	190985	keystroke_s	s	n/a
95.8825	0.0905	191765	keystroke_Key.space	Key.space	n/a
97.2025	0.06	194405	keystroke_Key.backspace	Key.backspace	n/a
97.5775	0.06	195155	keystroke_Key.backspace	Key.backspace	n/a
97.9975	0.06	195995	keystroke_Key.backspace	Key.backspace	n/a
98.6425	0.06	197285	keystroke_s	s	n/a
98.8975	0.105	197795	keystroke_Key.space	Key.space	n/a
99.482	0.06	198964	keystroke_p	p	n/a
99.587	0.06	199174	keystroke_e	e	n/a
99.767	0.075	199534	keystroke_n	n	n/a
100.023	0.06	200046	keystroke_a	a	n/a
100.473	0.105	200946	keystroke_l	l	n/a
100.862	0.075	201724	keystroke_t	t	n/a
100.9825	0.075	201965	keystroke_i	i	n/a
101.0725	0.0755	202145	keystroke_e	e	n/a
101.2375	0.075	202475	keystroke_s	s	n/a
102.1225	0.075	204245	keystroke_Key.enter	Key.enter	n/a
102.2045	8.38	204409	prompt	n/a	belts fees helping attach\n
103.1575	0.075	206315	keystroke_b	b	n/a
103.3525	0.09	206705	keystroke_e	e	n/a
103.5625	0.105	207125	keystroke_l	l	n/a
103.7275	0.06	207455	keystroke_t	t	n/a
104.1475	0.06	208295	keystroke_s	s	n/a
104.4025	0.075	208805	keystroke_Key.space	Key.space	n/a
104.643	0.0595	209286	keystroke_f	f	n/a
104.913	0.06	209826	keystroke_e	e	n/a
105.0625	0.0605	210125	keystroke_e	e	n/a
105.348	0.045	210696	keystroke_s	s	n/a
105.9625	0.105	211925	keystroke_Key.space	Key.space	n/a
106.5025	0.06	213005	keystroke_h	h	n/a
107.208	0.09	214416	keystroke_e	e	n/a
107.343	0.119	214686	keystroke_l	l	n/a
107.433	0.135	214866	keystroke_p	p	n/a
107.658	0.075	215316	keystroke_i	i	n/a
107.853	0.089	215706	keystroke_n	n	n/a
107.973	0.0745	215946	keystroke_g	g	n/a
108.2275	0.0905	216455	keystroke_Key.space	Key.space	n/a
108.8575	0.0905	217715	keystroke_a	a	n/a
109.1725	0.045	218345	keystroke_t	t	n/a
109.2775	0.075	218555	keystroke_t	t	n/a
109.5175	0.06	219035	keystroke_a	a	n/a
109.743	0.0595	219486	keystroke_c	c	n/a
109.8625	0.09	219725	keystroke_h	h	n/a
110.4925	0.09	220985	keystroke_Key.enter	Key.enter	n/a
110.5885	8.201	221177	prompt	n/a	committed indicator adds pens\n
111.3775	0.09	222755	keystroke_c	c	n/a
111.6625	0.03	223325	keystroke_o	o	n/a
112.023	0.075	224046	keystroke_m	m	n/a
113.0125	0.09	226025	keystroke_m	m	n/a
113.2075	0.075	226415	keystroke_i	i	n/a
113.3275	0.075	226655	keystroke_t	t	n/a
113.5075	0.0755	227015	keystroke_t	t	n/a
113.823	0.0745	227646	keystroke_e	e	n/a
114.1825	0.12	228365	keystroke_d	d	n/a
114.8425	0.135	229685	keystroke_Key.space	Key.space	n/a
114.993	0.0895	229986	keystroke_i	i	n/a
115.1725	0.105	230345	keystroke_n	n	n/a
115.4275	0.075	230855	keystroke_d	d	n/a
115.5625	0.075	231125	keystroke_i	i	n/a
115.6525	0.09	231305	keystroke_c	c	n/a
115.9075	0.105	231815	keystroke_a	a	n/a
116.2225	0.06	232445	keystroke_t	t	n/a
116.373	0.1195	232746	keystroke_o	o	n/a
116.5075	0.06	233015	keystroke_r	r	n/a
116.7175	0.105	233435	keystroke_Key.space	Key.space	n/a
116.8825	0.105	233765	keystroke_a	a	n/a
117.1225	0.0755	234245	keystroke_d	d	n/a
117.2565	0.075	234513	keystroke_d	d	n/a
117.4225	0.075	234845	keystroke_s	s	n/a
117.602	0.1045	235204	keystroke_Key.space	Key.space	n/a
117.8275	0.075	235655	keystroke_p	p	n/a
117.9475	0.075	235895	keystroke_e	e	n/a
118.1275	0.0905	236255	keystroke_n	n	n/a
118.308	0.0595	236616	keystroke_s	s	n/a
118.7425	0.045	237485	keystroke_Key.enter	Key.enter	n/a
118.7925	27.1165	237585	prompt	n/a	accepts illinois accused brunswick\n
119.6725	0.075	239345	keystroke_a	a	n/a
119.9275	0.06	239855	keystroke_c	c	n/a
120.0775	0.0905	240155	keystroke_c	c	n/a
120.3475	0.06	240695	keystroke_e	e	n/a
120.5275	0.09	241055	keystroke_p	p	n/a
120.7225	0.074	241445	keystroke_t	t	n/a
121.0525	0.06	242105	keystroke_s	s	n/a
121.292	0.09	242584	keystroke_Key.space	Key.space	n/a
122.1475	0.09	244295	keystroke_i	i	n/a
122.417	0.105	244834	keystroke_l	l	n/a
125.644	0.043	251288	keystroke_i	i	n/a
126.632	0.1355	253264	keystroke_n	n	n/a
126.7975	0.12	253595	keystroke_o	o	n/a
127.0225	0.105	254045	keystroke_i	i	n/a
127.3225	0.075	254645	keystroke_s	s	n/a
127.8625	0.105	255725	keystroke_Key.space	Key.space	n/a
131.014	0.013	262028	keystroke_Key.backspace	Key.backspace	n/a
131.387	0.0905	262774	keystroke_Key.backspace	Key.backspace	n/a
131.6125	0.09	263225	keystroke_Key.backspace	Key.backspace	n/a
131.8375	0.045	263675	keystroke_Key.backspace	Key.backspace	n/a
132.047	0.0755	264094	keystroke_Key.backspace	Key.backspace	n/a
132.377	0.09	264754	keystroke_Key.backspace	Key.backspace	n/a
133.427	0.075	266854	keystroke_l	l	n/a
133.712	0.0895	267424	keystroke_i	i	n/a
133.9075	0.119	267815	keystroke_o	o	n/a
135.587	0.1345	271174	keystroke_n	n	n/a
136.3065	0.106	272613	keystroke_i	i	n/a
136.562	0.0895	273124	keystroke_s	s	n/a
137.312	0.1195	274624	keystroke_Key.space	Key.space	n/a
137.6275	0.0895	275255	keystroke_a	a	n/a
137.912	0.09	275824	keystroke_c	c	n/a
138.0925	0.0895	276185	keystroke_c	c	n/a
138.332	0.059	276664	keystroke_u	u	n/a
138.482	0.06	276964	keystroke_s	s	n/a
138.692	0.075	277384	keystroke_e	e	n/a
138.902	0.075	277804	keystroke_d	d	n/a
139.412	0.09	278824	keystroke_Key.space	Key.space	n/a
139.652	0.075	279304	keystroke_b	b	n/a
139.922	0.0605	279844	keystroke_r	r	n/a
140.1775	0.105	280355	keystroke_u	u	n/a
140.492	0.09	280984	keystroke_n	n	n/a
140.672	0.075	281344	keystroke_s	s	n/a
141.092	0.03	282184	keystroke_w	w	n/a
141.212	0.09	282424	keystroke_i	i	n/a
141.347	0.105	282694	keystroke_c	c	n/a
141.512	0.075	283024	keystroke_h	h	n/a
143.267	0.09	286534	keystroke_Key.backspace	Key.backspace	n/a
143.987	0.1045	287974	keystroke_k	k	n/a
145.817	0.09	291634	keystroke_Key.enter	Key.enter	n/a
145.9135	9.22	291827	prompt	n/a	immigrants tribune cubic candle\n
146.852	0.0895	293704	keystroke_i	i	n/a
147.1215	0.0455	294243	keystroke_m	m	n/a
147.2425	0.089	294485	keystroke_m	m	n/a
147.707	0.0745	295414	keystroke_i	i	n/a
147.962	0.0905	295924	keystroke_g	g	n/a
148.2025	0.074	296405	keystroke_r	r	n/a
148.4565	0.061	296913	keystroke_a	a	n/a
148.607	0.075	297214	keystroke_n	n	n/a
148.712	0.0595	297424	keystroke_t	t	n/a
148.937	0.045	297874	keystroke_s	s	n/a
149.267	0.09	298534	keystroke_Key.space	Key.space	n/a
149.747	0.105	299494	keystroke_t	t	n/a
149.8675	0.0885	299735	keystroke_r	r	n/a
150.0915	0.045	300183	keystroke_i	i	n/a
150.2565	0.076	300513	keystroke_b	b	n/a
150.3915	0.0905	300783	keystroke_u	u	n/a
150.7815	0.09	301563	keystroke_n	n	n/a
150.932	0.075	301864	keystroke_e	e	n/a
151.322	0.075	302644	keystroke_Key.space	Key.space	n/a
151.547	0.075	303094	keystroke_c	c	n/a
151.697	0.075	303394	keystroke_u	u	n/a
151.892	0.06	303784	keystroke_b	b	n/a
152.0575	0.0745	304115	keystroke_i	i	n/a
152.3715	0.0605	304743	keystroke_v	v	n/a
152.9115	0.06	305823	keystroke_Key.backspace	Key.backspace	n/a
153.0025	0.074	306005	keystroke_c	c	n/a
153.6765	0.09	307353	keystroke_Key.space	Key.space	n/a
153.9165	0.06	307833	keystroke_c	c	n/a
154.1115	0.0455	308223	keystroke_a	a	n/a
154.2015	0.0905	308403	keystroke_n	n	n/a
154.3515	0.0605	308703	keystroke_d	d	n/a
154.517	0.075	309034	keystroke_l	l	n/a
154.622	0.075	309244	keystroke_e	e	n/a
155.072	0.06	310144	keystroke_Key.enter	Key.enter	n/a
155.1385	11.1855	310277	prompt	n/a	loans surrounding penguin apparently\n
156.062	0.075	312124	keystroke_l	l	n/a
156.257	0.075	312514	keystroke_o	o	n/a
156.392	0.0755	312784	keystroke_a	a	n/a
156.557	0.075	313114	keystroke_n	n	n/a
156.7365	0.06	313473	keystroke_s	s	n/a
157.1715	0.045	314343	keystroke_Key.space	Key.space	n/a
157.2465	0.0905	314493	keystroke_Key.space	Key.space	n/a
157.6215	0.0605	315243	keystroke_s	s	n/a
158.4015	0.075	316803	keystroke_Key.backspace	Key.backspace	n/a
158.6565	0.0755	317313	keystroke_Key.backspace	Key.backspace	n/a
159.0765	0.0605	318153	keystroke_s	s	n/a
159.287	0.075	318574	keystroke_u	u	n/a
159.4675	0.0595	318935	keystroke_r	r	n/a
159.647	0.06	319294	keystroke_r	r	n/a
159.917	0.12	319834	keystroke_o	o	n/a
160.097	0.06	320194	keystroke_u	u	n/a
160.307	0.09	320614	keystroke_n	n	n/a
160.412	0.075	320824	keystroke_d	d	n/a
160.592	0.09	321184	keystroke_i	i	n/a
160.742	0.09	321484	keystroke_n	n	n/a
160.8925	0.0745	321785	keystroke_g	g	n/a
161.027	0.12	322054	keystroke_Key.space	Key.space	n/a
161.807	0.0895	323614	keystroke_p	p	n/a
161.957	0.0595	323914	keystroke_e	e	n/a
162.1675	0.089	324335	keystroke_n	n	n/a
162.4365	0.0755	324873	keystroke_g	g	n/a
162.992	0.09	325984	keystroke_u	u	n/a
163.1715	0.06	326343	keystroke_i	i	n/a
163.532	0.075	327064	keystroke_n	n	n/a
163.8765	0.091	327753	keystroke_Key.space	Key.space	n/a
164.012	0.0745	328024	keystroke_a	a	n/a
164.1315	0.06	328263	keystroke_p	p	n/a
164.267	0.09	328534	keystroke_p	p	n/a
164.5665	0.0755	329133	keystroke_a	a	n/a
164.867	0.09	329734	keystroke_r	r	n/a
164.942	0.0755	329884	keystroke_e	e	n/a
165.1215	0.075	330243	keystroke_n	n	n/a
165.2715	0.06	330543	keystroke_t	t	n/a
165.512	0.075	331024	keystroke_l	l	n/a
165.6465	0.06	331293	keystroke_y	y	n/a
166.217	0.1045	332434	keystroke_Key.enter	Key.enter	n/a
166.329	11.425	332658	prompt	n/a	interface naked delivery hygiene\n
167.2965	0.06	334593	keystroke_i	i	n/a
167.5065	0.09	335013	keystroke_n	n	n/a
167.642	0.0595	335284	keystroke_t	t	n/a
167.777	0.2245	335554	keystroke_e	e	n/a
167.9865	0.06	335973	keystroke_r	r	n/a
168.2115	0.06	336423	keystroke_f	f	n/a
168.4515	0.0605	336903	keystroke_a	a	n/a
168.692	0.0755	337384	keystroke_c	c	n/a
168.932	0.0445	337864	keystroke_e	e	n/a
169.2315	0.075	338463	keystroke_Key.space	Key.space	n/a
169.5915	0.121	339183	keystroke_n	n	n/a
170.0125	0.1345	340025	keystroke_a	a	n/a
170.207	0.075	340414	keystroke_k	k	n/a
170.3725	0.089	340745	keystroke_e	e	n/a
170.5825	0.06	341165	keystroke_d	d	n/a
170.9115	0.075	341823	keystroke_Key.space	Key.space	n/a
171.2265	0.076	342453	keystroke_d	d	n/a
171.4225	0.06	342845	keystroke_e	e	n/a
171.5565	0.1205	343113	keystroke_l	l	n/a
171.722	0.09	343444	keystroke_i	i	n/a
171.827	0.06	343654	keystroke_v	v	n/a
171.9915	0.1205	343983	keystroke_e	e	n/a
172.0965	0.0905	344193	keystroke_r	r	n/a
172.3215	0.075	344643	keystroke_y	y	n/a
172.832	0.105	345664	keystroke_Key.space	Key.space	n/a
173.297	0.09	346594	keystroke_h	h	n/a
173.552	0.06	347104	keystroke_y	y	n/a
173.672	0.045	347344	keystroke_y	y	n/a
174.317	0.09	348634	keystroke_Key.backspace	Key.backspace	n/a
174.482	0.075	348964	keystroke_g	g	n/a
174.692	0.075	349384	keystroke_e	e	n/a
175.037	0.105	350074	keystroke_n	n	n/a
175.847	0.06	351694	keystroke_Key.backspace	Key.backspace	n/a
176.102	0.105	352204	keystroke_Key.backspace	Key.backspace	n/a
176.4315	0.061	352863	keystroke_i	i	n/a
177.076	0.0905	354152	keystroke_e	e	n/a
177.212	0.0895	354424	keystroke_n	n	n/a
177.3165	0.0895	354633	keystroke_e	e	n/a
177.6765	0.075	355353	keystroke_Key.enter	Key.enter	n/a
177.7585	9.431	355517	prompt	n/a	outdoors aquatic buzz virtual\n
178.6365	0.12	357273	keystroke_o	o	n/a
178.8015	0.106	357603	keystroke_u	u	n/a
178.9215	0.045	357843	keystroke_t	t	n/a
179.1465	0.075	358293	keystroke_d	d	n/a
179.3565	0.0305	358713	keystroke_o	o	n/a
179.492	0.0595	358984	keystroke_o	o	n/a
179.5665	0.0905	359133	keystroke_r	r	n/a
179.8515	0.0595	359703	keystroke_s	s	n/a
180.317	0.104	360634	keystroke_Key.space	Key.space	n/a
180.6325	0.0745	361265	keystroke_a	a	n/a
181.142	0.09	362284	keystroke_q	q	n/a
181.7575	0.074	363515	keystroke_u	u	n/a
181.967	0.075	363934	keystroke_a	a	n/a
182.267	0.045	364534	keystroke_t	t	n/a
182.447	0.06	364894	keystroke_i	i	n/a
182.582	0.076	365164	keystroke_c	c	n/a
182.792	0.09	365584	keystroke_Key.space	Key.space	n/a
182.927	0.075	365854	keystroke_b	b	n/a
183.107	0.06	366214	keystroke_u	u	n/a
183.317	0.075	366634	keystroke_z	z	n/a
183.632	0.06	367264	keystroke_z	z	n/a
183.9625	0.0745	367925	keystroke_Key.space	Key.space	n/a
184.337	0.1045	368674	keystroke_v	v	n/a
185.0565	0.06	370113	keystroke_i	i	n/a
185.2215	0.045	370443	keystroke_r	r	n/a
185.4015	0.075	370803	keystroke_t	t	n/a
185.5215	0.076	371043	keystroke_u	u	n/a
185.7315	0.076	371463	keystroke_a	a	n/a
185.882	0.1045	371764	keystroke_l	l	n/a
187.142	0.0445	374284	keystroke_Key.enter	Key.enter	n/a
187.1935	9.5665	374387	prompt	n/a	weekly cultures signature situation\n
187.9525	0.075	375905	keystroke_w	w	n/a
188.2075	0.045	376415	keystroke_e	e	n/a
188.3275	0.075	376655	keystroke_e	e	n/a
188.4625	0.104	376925	keystroke_k	k	n/a
188.5515	0.15	377103	keystroke_l	l	n/a
188.7325	0.09	377465	keystroke_y	y	n/a
189.032	0.075	378064	keystroke_Key.space	Key.space	n/a
189.242	0.0895	378484	keystroke_c	c	n/a
189.3615	0.091	378723	keystroke_u	u	n/a
189.5125	0.134	379025	keystroke_l	l	n/a
189.827	0.0745	379654	keystroke_t	t	n/a
189.9925	0.09	379985	keystroke_u	u	n/a
190.0675	0.075	380135	keystroke_r	r	n/a
190.2475	0.075	380495	keystroke_e	e	n/a
190.4425	0.09	380885	keystroke_s	s	n/a
190.8615	0.0905	381723	keystroke_Key.space	Key.space	n/a
191.0575	0.045	382115	keystroke_a	a	n/a
191.6575	0.0745	383315	keystroke_Key.backspace	Key.backspace	n/a
191.7925	0.075	383585	keystroke_s	s	n/a
191.9275	0.09	383855	keystroke_i	i	n/a
192.0625	0.075	384125	keystroke_g	g	n/a
192.257	0.0755	384514	keystroke_n	n	n/a
192.842	0.075	385684	keystroke_a	a	n/a
193.0965	0.076	386193	keystroke_t	t	n/a
193.2465	0.075	386493	keystroke_u	u	n/a
193.337	0.0595	386674	keystroke_r	r	n/a
193.5315	0.046	387063	keystroke_e	e	n/a
193.7875	0.089	387575	keystroke_Key.space	Key.space	n/a
193.9515	0.06	387903	keystroke_s	s	n/a
194.1175	0.0595	388235	keystroke_i	i	n/a
194.2815	0.061	388563	keystroke_t	t	n/a
194.4175	0.0745	388835	keystroke_u	u	n/a
194.6575	0.075	389315	keystroke_a	a	n/a
194.926	0.046	389852	keystroke_t	t	n/a
195.032	0.075	390064	keystroke_i	i	n/a
195.092	0.105	390184	keystroke_o	o	n/a
196.457	0.06	392914	keystroke_n	n	n/a
196.711	0.046	393422	keystroke_Key.enter	Key.enter	n/a
196.764	15.489	393528	prompt	n/a	missouri toilet scales professional\n
197.987	0.075	395974	keystroke_m	m	n/a
198.256	0.076	396512	keystroke_i	i	n/a
198.5125	0.0745	397025	keystroke_s	s	n/a
198.6775	0.0745	397355	keystroke_s	s	n/a
199.052	0.12	398104	keystroke_o	o	n/a
199.922	0.09	399844	keystroke_u	u	n/a
200.057	0.075	400114	keystroke_r	r	n/a
200.222	0.075	400444	keystroke_i	i	n/a
200.807	0.1045	401614	keystroke_Key.space	Key.space	n/a
201.047	0.06	402094	keystroke_t	t	n/a
201.152	0.104	402304	keystroke_o	o	n/a
204.364	0.042	408728	keystroke_Key.backspace	Key.backspace	n/a
205.472	0.12	410944	keystroke_i	i	n/a
206.297	0.075	412594	keystroke_Key.backspace	Key.backspace	n/a
206.522	0.0755	413044	keystroke_o	o	n/a
206.731	0.06	413462	keystroke_i	i	n/a
206.9265	0.0745	413853	keystroke_l	l	n/a
208.292	0.06	416584	keystroke_e	e	n/a
208.457	0.075	416914	keystroke_t	t	n/a
208.712	0.12	417424	keystroke_Key.space	Key.space	n/a
208.9515	0.0755	417903	keystroke_s	s	n/a
209.1765	0.06	418353	keystroke_c	c	n/a
209.3715	0.06	418743	keystroke_a	a	n/a
209.4915	0.105	418983	keystroke_l	l	n/a
209.612	0.0595	419224	keystroke_e	e	n/a
209.762	0.075	419524	keystroke_s	s	n/a
209.8515	0.1045	419703	keystroke_Key.space	Key.space	n/a
209.927	0.104	419854	keystroke_p	p	n/a
210.062	0.06	420124	keystroke_r	r	n/a
210.151	0.076	420302	keystroke_o	o	n/a
210.287	0.09	420574	keystroke_f	f	n/a
210.467	0.075	420934	keystroke_e	e	n/a
210.6765	0.0605	421353	keystroke_s	s	n/a
210.827	0.045	421654	keystroke_s	s	n/a
210.961	0.106	421922	keystroke_i	i	n/a
211.052	0.105	422104	keystroke_o	o	n/a
211.262	0.075	422524	keystroke_n	n	n/a
211.4115	0.06	422823	keystroke_a	a	n/a
211.6365	0.015	423273	keystroke_l	l	n/a
212.1915	0.06	424383	keystroke_Key.enter	Key.enter	n/a
212.2655	12.1535	424531	prompt	n/a	queensland special qualification engine\n
213.272	0.044	426544	keystroke_e	e	n/a
214.546	0.061	429092	keystroke_Key.backspace	Key.backspace	n/a
214.696	0.076	429392	keystroke_q	q	n/a
214.892	0.075	429784	keystroke_u	u	n/a
215.087	0.0445	430174	keystroke_e	e	n/a
215.192	0.075	430384	keystroke_e	e	n/a
215.371	0.0905	430742	keystroke_n	n	n/a
215.4915	0.09	430983	keystroke_s	s	n/a
216.137	0.12	432274	keystroke_l	l	n/a
216.317	0.075	432634	keystroke_a	a	n/a
216.497	0.09	432994	keystroke_n	n	n/a
216.617	0.09	433234	keystroke_d	d	n/a
217.3965	0.1055	434793	keystroke_Key.space	Key.space	n/a
217.5615	0.091	435123	keystroke_s	s	n/a
217.7115	0.105	435423	keystroke_p	p	n/a
217.9815	0.06	435963	keystroke_e	e	n/a
218.1315	0.09	436263	keystroke_c	c	n/a
218.2815	0.0755	436563	keystroke_i	i	n/a
218.4165	0.06	436833	keystroke_a	a	n/a
218.5215	0.09	437043	keystroke_l	l	n/a
219.452	0.0895	438904	keystroke_Key.space	Key.space	n/a
219.6915	0.105	439383	keystroke_q	q	n/a
219.9465	0.0605	439893	keystroke_u	u	n/a
220.0815	0.075	440163	keystroke_a	a	n/a
220.2315	0.18	440463	keystroke_l	l	n/a
220.4715	0.075	440943	keystroke_i	i	n/a
221.297	0.045	442594	keystroke_f	f	n/a
221.417	0.09	442834	keystroke_i	i	n/a
221.492	0.075	442984	keystroke_c	c	n/a
221.7015	0.06	443403	keystroke_a	a	n/a
221.911	0.06	443822	keystroke_t	t	n/a
222.031	0.136	444062	keystroke_i	i	n/a
222.152	0.09	444304	keystroke_o	o	n/a
222.392	0.09	444784	keystroke_n	n	n/a
222.647	0.12	445294	keystroke_Key.space	Key.space	n/a
222.902	0.06	445804	keystroke_e	e	n/a
223.0975	0.0595	446195	keystroke_n	n	n/a
223.292	0.075	446584	keystroke_g	g	n/a
223.622	0.06	447244	keystroke_i	i	n/a
223.847	0.06	447694	keystroke_n	n	n/a
223.952	0.075	447904	keystroke_e	e	n/a
224.372	0.045	448744	keystroke_Key.enter	Key.enter	n/a
224.423	9.0735	448846	prompt	n/a	chapters newly browsing shall\n
225.1065	0.1205	450213	keystroke_c	c	n/a
225.287	0.09	450574	keystroke_h	h	n/a
225.452	0.0755	450904	keystroke_a	a	n/a
225.6465	0.075	451293	keystroke_p	p	n/a
225.887	0.0295	451774	keystroke_t	t	n/a
226.0815	0.12	452163	keystroke_e	e	n/a
226.1715	0.06	452343	keystroke_r	r	n/a
226.412	0.0595	452824	keystroke_s	s	n/a
226.5765	0.075	453153	keystroke_Key.space	Key.space	n/a
226.862	0.089	453724	keystroke_n	n	n/a
226.982	0.075	453964	keystroke_e	e	n/a
227.192	0.06	454384	keystroke_w	w	n/a
227.3715	0.06	454743	keystroke_l	l	n/a
227.5515	0.045	455103	keystroke_y	y	n/a
227.867	0.06	455734	keystroke_b	b	n/a
227.897	0.09	455794	keystroke_Key.space	Key.space	n/a
228.437	0.0745	456874	keystroke_Key.backspace	Key.backspace	n/a
228.617	0.105	457234	keystroke_Key.backspace	Key.backspace	n/a
228.977	0.105	457954	keystroke_Key.space	Key.space	n/a
229.097	0.075	458194	keystroke_b	b	n/a
229.292	0.09	458584	keystroke_r	r	n/a
229.457	0.09	458914	keystroke_o	o	n/a
229.622	0.075	459244	keystroke_w	w	n/a
230.6145	0.09	461229	keystroke_s	s	n/a
230.7795	0.075	461559	keystroke_i	i	n/a
230.9145	0.09	461829	keystroke_n	n	n/a
231.035	0.075	462070	keystroke_g	g	n/a
231.245	0.105	462490	keystroke_Key.space	Key.space	n/a
231.5	0.045	463000	keystroke_s	s	n/a
231.6045	0.075	463209	keystroke_h	h	n/a
231.7395	0.0755	463479	keystroke_a	a	n/a
231.8445	0.075	463689	keystroke_l	l	n/a
231.9945	0.075	463989	keystroke_l	l	n/a
233.405	0.0895	466810	keystroke_Key.enter	Key.enter	n/a
233.501	8.8305	467002	prompt	n/a	hack phase springs demanding\n
234.8745	0.135	469749	keystroke_h	h	n/a
234.995	0.0745	469990	keystroke_a	a	n/a
235.22	0.0745	470440	keystroke_c	c	n/a
235.37	0.105	470740	keystroke_k	k	n/a
235.5645	0.12	471129	keystroke_Key.space	Key.space	n/a
235.67	0.0895	471340	keystroke_p	p	n/a
235.925	0.075	471850	keystroke_h	h	n/a
236.0295	0.075	472059	keystroke_a	a	n/a
236.3295	0.0455	472659	keystroke_s	s	n/a
236.495	0.075	472990	keystroke_e	e	n/a
236.705	0.059	473410	keystroke_Key.space	Key.space	n/a
236.975	0.0905	473950	keystroke_s	s	n/a
237.215	0.1045	474430	keystroke_p	p	n/a
237.425	0.0895	474850	keystroke_r	r	n/a
237.6045	0.06	475209	keystroke_i	i	n/a
237.7245	0.09	475449	keystroke_n	n	n/a
237.8445	0.075	475689	keystroke_g	g	n/a
238.0695	0.076	476139	keystroke_s	s	n/a
238.82	0.12	477640	keystroke_Key.space	Key.space	n/a
239	0.09	478000	keystroke_d	d	n/a
239.18	0.09	478360	keystroke_e	e	n/a
239.3455	0.0745	478691	keystroke_m	m	n/a
239.9	0.075	479800	keystroke_a	a	n/a
240.05	0.09	480100	keystroke_n	n	n/a
240.2	0.075	480400	keystroke_d	d	n/a
240.335	0.135	480670	keystroke_i	i	n/a
240.484	0.091	480968	keystroke_n	n	n/a
240.65	0.075	481300	keystroke_g	g	n/a
242.225	0.1045	484450	keystroke_Key.enter	Key.enter	n/a
242.335	8.712	484670	prompt	n/a	infant attract trap made\n
243.4545	0.0455	486909	keystroke_i	i	n/a
243.6795	0.075	487359	keystroke_n	n	n/a
243.815	0.105	487630	keystroke_f	f	n/a
243.9795	0.09	487959	keystroke_r	r	n/a
244.2355	0.0595	488471	keystroke_a	a	n/a
244.415	0.0745	488830	keystroke_n	n	n/a
245.1795	0.075	490359	keystroke_Key.backspace	Key.backspace	n/a
245.4045	0.075	490809	keystroke_Key.backspace	Key.backspace	n/a
245.6145	0.075	491229	keystroke_Key.backspace	Key.backspace	n/a
245.9145	0.075	491829	keystroke_a	a	n/a
246.1095	0.09	492219	keystroke_n	n	n/a
246.3655	0.0595	492731	keystroke_t	t	n/a
246.83	0.105	493660	keystroke_Key.space	Key.space	n/a
247.0845	0.075	494169	keystroke_a	a	n/a
247.325	0.045	494650	keystroke_t	t	n/a
247.445	0.06	494890	keystroke_t	t	n/a
247.64	0.06	495280	keystroke_r	r	n/a
247.835	0.06	495670	keystroke_a	a	n/a
248.06	0.075	496120	keystroke_c	c	n/a
248.3	0.06	496600	keystroke_t	t	n/a
248.51	0.105	497020	keystroke_Key.space	Key.space	n/a
248.945	0.0905	497890	keystroke_t	t	n/a
249.11	0.09	498220	keystroke_r	r	n/a
249.38	0.06	498760	keystroke_a	a	n/a
249.605	0.12	499210	keystroke_p	p	n/a
249.755	0.135	499510	keystroke_Key.space	Key.space	n/a
249.9955	0.0745	499991	keystroke_m	m	n/a
250.205	0.0755	500410	keystroke_a	a	n/a
250.3855	0.1045	500771	keystroke_d	d	n/a
250.565	0.06	501130	keystroke_e	e	n/a
250.9545	0.0905	501909	keystroke_Key.enter	Key.enter	n/a
251.0505	9.837	502101	prompt	n/a	passport understand bringing slope\n
251.93	0.105	503860	keystroke_p	p	n/a
252.155	0.0605	504310	keystroke_a	a	n/a
252.3945	0.045	504789	keystroke_s	s	n/a
252.5905	0.0745	505181	keystroke_s	s	n/a
252.7855	0.135	505571	keystroke_p	p	n/a
252.9805	0.09	505961	keystroke_o	o	n/a
253.115	0.1355	506230	keystroke_r	r	n/a
253.2355	0.0895	506471	keystroke_t	t	n/a
253.46	0.075	506920	keystroke_Key.space	Key.space	n/a
253.6545	0.076	507309	keystroke_u	u	n/a
253.8795	0.09	507759	keystroke_n	n	n/a
253.9845	0.075	507969	keystroke_d	d	n/a
254.1945	0.165	508389	keystroke_e	e	n/a
254.3295	0.09	508659	keystroke_r	r	n/a
254.6145	0.06	509229	keystroke_s	s	n/a
254.7495	0.06	509499	keystroke_t	t	n/a
255.0655	0.075	510131	keystroke_n	n	n/a
255.2305	0.0895	510461	keystroke_d	d	n/a
255.7405	0.09	511481	keystroke_Key.backspace	Key.backspace	n/a
255.9645	0.091	511929	keystroke_Key.backspace	Key.backspace	n/a
256.16	0.0755	512320	keystroke_a	a	n/a
256.4755	0.09	512951	keystroke_n	n	n/a
256.5955	0.075	513191	keystroke_d	d	n/a
256.8045	0.091	513609	keystroke_Key.space	Key.space	n/a
256.8805	0.059	513761	keystroke_b	b	n/a
257.2105	0.029	514421	keystroke_i	i	n/a
257.645	0.0895	515290	keystroke_Key.backspace	Key.backspace	n/a
257.795	0.06	515590	keystroke_r	r	n/a
257.9155	0.0745	515831	keystroke_i	i	n/a
258.17	0.09	516340	keystroke_n	n	n/a
258.29	0.1045	516580	keystroke_g	g	n/a
259.0695	0.076	518139	keystroke_i	i	n/a
259.2055	0.104	518411	keystroke_n	n	n/a
259.3255	0.074	518651	keystroke_g	g	n/a
259.4745	0.105	518949	keystroke_Key.space	Key.space	n/a
259.9255	0.0595	519851	keystroke_s	s	n/a
260.1205	0.089	520241	keystroke_l	l	n/a
260.3455	0.134	520691	keystroke_o	o	n/a
260.4345	0.12	520869	keystroke_p	p	n/a
260.5095	0.0905	521019	keystroke_e	e	n/a
260.7645	0.1205	521529	keystroke_Key.enter	Key.enter	n/a
260.891	8.9205	521782	prompt	n/a	shorts late egyptian displaying\n
261.8455	0.105	523691	keystroke_s	s	n/a
262.025	0.15	524050	keystroke_h	h	n/a
262.1605	0.1195	524321	keystroke_o	o	n/a
262.265	0.135	524530	keystroke_r	r	n/a
262.3855	0.0595	524771	keystroke_t	t	n/a
262.625	0.075	525250	keystroke_s	s	n/a
263.09	0.135	526180	keystroke_Key.space	Key.space	n/a
263.2855	0.0895	526571	keystroke_l	l	n/a
263.4205	0.0745	526841	keystroke_a	a	n/a
263.646	0.074	527292	keystroke_t	t	n/a
263.795	0.06	527590	keystroke_e	e	n/a
264.215	0.105	528430	keystroke_Key.space	Key.space	n/a
265.19	0.06	530380	keystroke_e	e	n/a
265.43	0.06	530860	keystroke_g	g	n/a
265.7	0.075	531400	keystroke_y	y	n/a
266.825	0.0905	533650	keystroke_p	p	n/a
267.05	0.075	534100	keystroke_t	t	n/a
267.3205	0.09	534641	keystroke_a	a	n/a
267.47	0.075	534940	keystroke_i	i	n/a
267.605	0.0905	535210	keystroke_n	n	n/a
267.8305	0.1195	535661	keystroke_Key.space	Key.space	n/a
268.31	0.09	536620	keystroke_d	d	n/a
268.46	0.0745	536920	keystroke_i	i	n/a
268.565	0.0745	537130	keystroke_s	s	n/a
268.6855	0.12	537371	keystroke_p	p	n/a
268.7895	0.121	537579	keystroke_l	l	n/a
268.8955	0.044	537791	keystroke_a	a	n/a
269.0905	0.0745	538181	keystroke_y	y	n/a
269.195	0.12	538390	keystroke_i	i	n/a
269.285	0.105	538570	keystroke_n	n	n/a
269.405	0.06	538810	keystroke_g	g	n/a
269.7495	0.06	539499	keystroke_Key.enter	Key.enter	n/a
269.815	10.9615	539630	prompt	n/a	lobby angry norman wellington\n
270.5305	0.074	541061	keystroke_l	l	n/a
270.71	0.0895	541420	keystroke_o	o	n/a
270.83	0.0605	541660	keystroke_b	b	n/a
270.95	0.0905	541900	keystroke_b	b	n/a
271.16	0.09	542320	keystroke_y	y	n/a
271.4	0.075	542800	keystroke_Key.space	Key.space	n/a
271.805	0.06	543610	keystroke_a	a	n/a
271.97	0.0755	543940	keystroke_n	n	n/a
272.105	0.0905	544210	keystroke_g	g	n/a
272.27	0.06	544540	keystroke_r	r	n/a
272.495	0.0755	544990	keystroke_y	y	n/a
272.78	0.075	545560	keystroke_Key.space	Key.space	n/a
273.485	0.165	546970	keystroke_n	n	n/a
273.651	0.1045	547302	keystroke_o	o	n/a
273.7705	0.0745	547541	keystroke_r	r	n/a
273.89	0.09	547780	keystroke_m	m	n/a
274.0855	0.0595	548171	keystroke_a	a	n/a
274.37	0.0755	548740	keystroke_n	n	n/a
275.015	0.075	550030	keystroke_Key.space	Key.space	n/a
275.1205	0.1195	550241	keystroke_w	w	n/a
275.4055	0.06	550811	keystroke_e	e	n/a
276.7395	0.061	553479	keystroke_l	l	n/a
276.9055	0.075	553811	keystroke_l	l	n/a
277.5955	0.044	555191	keystroke_i	i	n/a
277.8805	0.0595	555761	keystroke_n	n	n/a
278.03	0.06	556060	keystroke_g	g	n/a
278.7355	0.06	557471	keystroke_t	t	n/a
278.8245	0.075	557649	keystroke_o	o	n/a
278.9905	0.0745	557981	keystroke_n	n	n/a
280.715	0.06	561430	keystroke_Key.enter	Key.enter	n/a
280.78	14.952	561560	prompt	n/a	saves billion analog standing\n
281.5845	0.061	563169	keystroke_s	s	n/a
281.7655	0.074	563531	keystroke_a	a	n/a
281.9745	0.076	563949	keystroke_v	v	n/a
282.1855	0.075	564371	keystroke_e	e	n/a
283.6555	0.075	567311	keystroke_s	s	n/a
283.925	0.0905	567850	keystroke_Key.space	Key.space	n/a
284.075	0.075	568150	keystroke_b	b	n/a
284.315	0.0305	568630	keystroke_i	i	n/a
284.66	0.0755	569320	keystroke_l	l	n/a
284.8855	0.075	569771	keystroke_l	l	n/a
285.8755	0.12	571751	keystroke_i	i	n/a
286.0105	0.09	572021	keystroke_o	o	n/a
286.2805	0.075	572561	keystroke_n	n	n/a
286.5205	0.09	573041	keystroke_Key.space	Key.space	n/a
286.6705	0.09	573341	keystroke_a	a	n/a
286.8355	0.09	573671	keystroke_n	n	n/a
287.016	0.0595	574032	keystroke_a	a	n/a
287.1805	0.06	574361	keystroke_l	l	n/a
287.3605	0.074	574721	keystroke_o	o	n/a
287.5855	0.0745	575171	keystroke_g	g	n/a
288.9655	0.12	577931	keystroke_s	s	n/a
289.6105	0.045	579221	keystroke_t	t	n/a
289.8355	0.075	579671	keystroke_a	a	n/a
289.9855	0.105	579971	keystroke_n	n	n/a
290.1505	0.075	580301	keystroke_d	d	n/a
290.3905	0.1195	580781	keystroke_i	i	n/a
291.41	0.0755	582820	keystroke_Key.backspace	Key.backspace	n/a
291.635	0.075	583270	keystroke_Key.backspace	Key.backspace	n/a
291.8745	0.076	583749	keystroke_Key.backspace	Key.backspace	n/a
292.1605	0.06	584321	keystroke_Key.backspace	Key.backspace	n/a
292.4595	0.0755	584919	keystroke_Key.backspace	Key.backspace	n/a
292.8655	0.075	585731	keystroke_Key.backspace	Key.backspace	n/a
293.4045	0.106	586809	keystroke_Key.space	Key.space	n/a
293.6605	0.09	587321	keystroke_s	s	n/a
293.9155	0.045	587831	keystroke_t	t	n/a
294.1255	0.059	588251	keystroke_a	a	n/a
294.2605	0.09	588521	keystroke_n	n	n/a
294.3795	0.076	588759	keystroke_d	d	n/a
294.5	0.135	589000	keystroke_i	i	n/a
294.65	0.1055	589300	keystroke_n	n	n/a
294.83	0.075	589660	keystroke_g	g	n/a
295.655	0.075	591310	keystroke_Key.enter	Key.enter	n/a
295.7345	18.9875	591469	prompt	n/a	bureau axis hundred accordingly\n
296.8255	0.104	593651	keystroke_b	b	n/a
297.0505	0.0895	594101	keystroke_u	u	n/a
298.3255	0.075	596651	keystroke_r	r	n/a
298.895	0.075	597790	keystroke_e	e	n/a
299.27	0.0605	598540	keystroke_a	a	n/a
299.51	0.105	599020	keystroke_u	u	n/a
300.1845	0.09	600369	keystroke_Key.space	Key.space	n/a
300.32	0.0755	600640	keystroke_a	a	n/a
300.6355	0.105	601271	keystroke_c	c	n/a
301.415	0.09	602830	keystroke_Key.backspace	Key.backspace	n/a
301.61	0.075	603220	keystroke_x	x	n/a
301.76	0.09	603520	keystroke_i	i	n/a
301.97	0.06	603940	keystroke_s	s	n/a
302.2855	0.0895	604571	keystroke_Key.space	Key.space	n/a
302.525	0.15	605050	keystroke_h	h	n/a
302.7055	0.1045	605411	keystroke_u	u	n/a
302.9155	0.075	605831	keystroke_r	r	n/a
304.295	0.0745	608590	keystroke_Key.backspace	Key.backspace	n/a
304.6395	0.076	609279	keystroke_n	n	n/a
306.4105	0.0895	612821	keystroke_d	d	n/a
306.62	0.075	613240	keystroke_r	r	n/a
306.8005	0.075	613601	keystroke_e	e	n/a
306.9505	0.12	613901	keystroke_d	d	n/a
308.3455	0.075	616691	keystroke_a	a	n/a
308.8255	0.075	617651	keystroke_c	c	n/a
308.9905	0.09	617981	keystroke_c	c	n/a
309.1555	0.12	618311	keystroke_o	o	n/a
309.8155	0.075	619631	keystroke_Key.backspace	Key.backspace	n/a
310.0255	0.0745	620051	keystroke_Key.backspace	Key.backspace	n/a
310.2355	0.0745	620471	keystroke_Key.backspace	Key.backspace	n/a
310.4305	0.09	620861	keystroke_Key.backspace	Key.backspace	n/a
310.9095	0.076	621819	keystroke_Key.space	Key.space	n/a
311.0905	0.06	622181	keystroke_a	a	n/a
311.3005	0.06	622601	keystroke_c	c	n/a
311.4655	0.075	622931	keystroke_c	c	n/a
311.7805	0.135	623561	keystroke_o	o	n/a
311.9305	0.06	623861	keystroke_r	r	n/a
312.1255	0.089	624251	keystroke_d	d	n/a
312.4545	0.06	624909	keystroke_i	i	n/a
312.62	0.0905	625240	keystroke_n	n	n/a
313.5055	0.06	627011	keystroke_g	g	n/a
313.685	0.075	627370	keystroke_l	l	n/a
314.1055	0.075	628211	keystroke_y	y	n/a
314.615	0.105	629230	keystroke_Key.enter	Key.enter	n/a
314.725	9.3125	629450	prompt	n/a	occurred pizza stock hampton\n
315.7855	0.075	631571	keystroke_o	o	n/a
316.0105	0.09	632021	keystroke_c	c	n/a
316.5505	0.12	633101	keystroke_c	c	n/a
316.9405	0.09	633881	keystroke_u	u	n/a
317.1205	0.075	634241	keystroke_r	r	n/a
317.3005	0.075	634601	keystroke_r	r	n/a
317.5255	0.075	635051	keystroke_e	e	n/a
317.7505	0.06	635501	keystroke_d	d	n/a
317.9305	0.12	635861	keystroke_Key.space	Key.space	n/a
318.0805	0.12	636161	keystroke_p	p	n/a
318.2605	0.105	636521	keystroke_i	i	n/a
318.4105	0.06	636821	keystroke_z	z	n/a
318.5755	0.06	637151	keystroke_z	z	n/a
318.8155	0.045	637631	keystroke_a	a	n/a
319.0555	0.0595	638111	keystroke_Key.space	Key.space	n/a
319.2655	0.0895	638531	keystroke_s	s	n/a
319.5055	0.06	639011	keystroke_t	t	n/a
319.64	0.09	639280	keystroke_o	o	n/a
319.835	0.06	639670	keystroke_c	c	n/a
319.97	0.09	639940	keystroke_k	k	n/a
320.1805	0.0895	640361	keystroke_Key.space	Key.space	n/a
320.5405	0.15	641081	keystroke_j	j	n/a
321.3805	0.09	642761	keystroke_Key.backspace	Key.backspace	n/a
321.651	0.0895	643302	keystroke_h	h	n/a
321.8605	0.0595	643721	keystroke_a	a	n/a
321.995	0.09	643990	keystroke_m	m	n/a
322.2355	0.0895	644471	keystroke_p	p	n/a
322.9855	0.0895	645971	keystroke_t	t	n/a
323.12	0.105	646240	keystroke_o	o	n/a
323.3155	0.09	646631	keystroke_n	n	n/a
323.9305	0.105	647861	keystroke_Key.enter	Key.enter	n/a
324.041	8.456	648082	prompt	n/a	reader arkansas stored name\n
324.8905	0.1045	649781	keystroke_r	r	n/a
324.9805	0.1045	649961	keystroke_e	e	n/a
325.2655	0.044	650531	keystroke_a	a	n/a
325.5055	0.06	651011	keystroke_d	d	n/a
325.7595	0.151	651519	keystroke_e	e	n/a
325.9255	0.105	651851	keystroke_r	r	n/a
326.615	0.1205	653230	keystroke_Key.space	Key.space	n/a
326.96	0.0745	653920	keystroke_a	a	n/a
327.3055	0.045	654611	keystroke_r	r	n/a
327.5455	0.075	655091	keystroke_k	k	n/a
328.1005	0.12	656201	keystroke_a	a	n/a
328.3105	0.105	656621	keystroke_n	n	n/a
328.6105	0.0745	657221	keystroke_s	s	n/a
328.82	0.0605	657640	keystroke_a	a	n/a
329.0605	0.0595	658121	keystroke_s	s	n/a
329.6	0.075	659200	keystroke_Key.space	Key.space	n/a
329.8405	0.075	659681	keystroke_s	s	n/a
330.095	0.0455	660190	keystroke_t	t	n/a
330.425	0.0905	660850	keystroke_o	o	n/a
330.98	0.0605	661960	keystroke_r	r	n/a
331.145	0.09	662290	keystroke_e	e	n/a
331.4	0.0605	662800	keystroke_d	d	n/a
331.535	0.1345	663070	keystroke_Key.space	Key.space	n/a
331.6705	0.12	663341	keystroke_n	n	n/a
331.8195	0.0605	663639	keystroke_a	a	n/a
331.9855	0.0745	663971	keystroke_m	m	n/a
332.1045	0.061	664209	keystroke_e	e	n/a
332.4055	0.089	664811	keystroke_Key.enter	Key.enter	n/a
332.5025	12.3245	665005	prompt	n/a	managers furnished widely showtimes\n
334.4	0.135	668800	keystroke_m	m	n/a
334.58	0.105	669160	keystroke_a	a	n/a
334.7905	0.09	669581	keystroke_n	n	n/a
334.895	0.106	669790	keystroke_a	a	n/a
336.005	0.0455	672010	keystroke_g	g	n/a
336.17	0.135	672340	keystroke_e	e	n/a
336.32	0.06	672640	keystroke_r	r	n/a
336.545	0.09	673090	keystroke_s	s	n/a
336.8	0.1055	673600	keystroke_Key.space	Key.space	n/a
336.9805	0.075	673961	keystroke_f	f	n/a
337.16	0.09	674320	keystroke_u	u	n/a
337.52	0.0455	675040	keystroke_r	r	n/a
339.862	0.1185	679724	keystroke_n	n	n/a
340.01	0.1205	680020	keystroke_i	i	n/a
340.3105	0.075	680621	keystroke_s	s	n/a
341.27	0.105	682540	keystroke_h	h	n/a
341.3905	0.0595	682781	keystroke_e	e	n/a
341.57	0.075	683140	keystroke_d	d	n/a
341.72	0.105	683440	keystroke_Key.space	Key.space	n/a
341.825	0.0605	683650	keystroke_w	w	n/a
341.9605	0.09	683921	keystroke_i	i	n/a
342.0955	0.075	684191	keystroke_d	d	n/a
342.2905	0.075	684581	keystroke_e	e	n/a
342.4555	0.0895	684911	keystroke_l	l	n/a
342.5905	0.09	685181	keystroke_y	y	n/a
342.89	0.0755	685780	keystroke_Key.space	Key.space	n/a
343.4305	0.075	686861	keystroke_s	s	n/a
343.52	0.165	687040	keystroke_h	h	n/a
343.655	0.1355	687310	keystroke_o	o	n/a
343.7605	0.075	687521	keystroke_w	w	n/a
343.985	0.075	687970	keystroke_t	t	n/a
344.1055	0.0745	688211	keystroke_i	i	n/a
344.24	0.135	688480	keystroke_m	m	n/a
344.3905	0.0445	688781	keystroke_e	e	n/a
344.5555	0.105	689111	keystroke_s	s	n/a
344.7655	0.0595	689531	keystroke_Key.enter	Key.enter	n/a
344.831	9.401	689662	prompt	n/a	screenshot doug caught rotation\n
345.486	0.074	690972	keystroke_s	s	n/a
345.695	0.0905	691390	keystroke_c	c	n/a
345.9055	0.075	691811	keystroke_r	r	n/a
346.0855	0.0595	692171	keystroke_e	e	n/a
346.2355	0.0595	692471	keystroke_e	e	n/a
346.385	0.045	692770	keystroke_n	n	n/a
346.4595	0.045	692919	keystroke_s	s	n/a
346.955	0.09	693910	keystroke_h	h	n/a
347.0905	0.12	694181	keystroke_o	o	n/a
347.2255	0.06	694451	keystroke_t	t	n/a
347.405	0.09	694810	keystroke_Key.space	Key.space	n/a
347.555	0.0605	695110	keystroke_d	d	n/a
347.616	0.1495	695232	keystroke_o	o	n/a
347.7505	0.105	695501	keystroke_u	u	n/a
347.8855	0.06	695771	keystroke_g	g	n/a
348.0655	0.09	696131	keystroke_Key.space	Key.space	n/a
348.3505	0.075	696701	keystroke_s	s	n/a
348.95	0.1045	697900	keystroke_Key.backspace	Key.backspace	n/a
349.1905	0.075	698381	keystroke_c	c	n/a
349.4455	0.135	698891	keystroke_o	o	n/a
349.9405	0.075	699881	keystroke_Key.backspace	Key.backspace	n/a
350.0305	0.075	700061	keystroke_a	a	n/a
350.1955	0.0905	700391	keystroke_u	u	n/a
350.4655	0.1805	700931	keystroke_g	g	n/a
351.4705	0.075	702941	keystroke_h	h	n/a
351.605	0.0755	703210	keystroke_t	t	n/a
351.785	0.1055	703570	keystroke_Key.space	Key.space	n/a
351.9195	0.091	703839	keystroke_r	r	n/a
352.0405	0.09	704081	keystroke_o	o	n/a
352.28	0.06	704560	keystroke_t	t	n/a
352.5055	0.06	705011	keystroke_a	a	n/a
352.7005	0.06	705401	keystroke_t	t	n/a
352.8205	0.105	705641	keystroke_i	i	n/a
352.9105	0.075	705821	keystroke_o	o	n/a
353.1055	0.075	706211	keystroke_n	n	n/a
354.1255	0.105	708251	keystroke_Key.enter	Key.enter	n/a
354.236	6.191	708472	prompt	n/a	warned healing timer fixtures\n
355.2055	0.06	710411	keystroke_w	w	n/a
355.4155	0.06	710831	keystroke_a	a	n/a
355.5955	0.075	711191	keystroke_r	r	n/a
355.7155	0.105	711431	keystroke_n	n	n/a
355.8355	0.0605	711671	keystroke_e	e	n/a
356.015	0.075	712030	keystroke_d	d	n/a
356.1505	0.1045	712301	keystroke_Key.space	Key.space	n/a
356.271	0.1035	712542	keystroke_h	h	n/a
356.3605	0.06	712721	keystroke_e	e	n/a
356.5405	0.059	713081	keystroke_a	a	n/a
356.6155	0.12	713231	keystroke_l	l	n/a
356.7955	0.06	713591	keystroke_i	i	n/a
356.9905	0.09	713981	keystroke_n	n	n/a
357.0955	0.0745	714191	keystroke_g	g	n/a
357.29	0.0905	714580	keystroke_Key.space	Key.space	n/a
357.515	0.075	715030	keystroke_t	t	n/a
357.6055	0.09	715211	keystroke_i	i	n/a
357.71	0.1205	715420	keystroke_m	m	n/a
357.8455	0.134	715691	keystroke_e	e	n/a
357.965	0.075	715930	keystroke_r	r	n/a
358.0845	0.0905	716169	keystroke_Key.space	Key.space	n/a
358.206	0.0595	716412	keystroke_f	f	n/a
358.2805	0.09	716561	keystroke_i	i	n/a
358.4605	0.045	716921	keystroke_c	c	n/a
359.165	0.09	718330	keystroke_Key.backspace	Key.backspace	n/a
359.2855	0.0895	718571	keystroke_x	x	n/a
359.54	0.075	719080	keystroke_t	t	n/a
359.6605	0.0895	719321	keystroke_u	u	n/a
359.72	0.075	719440	keystroke_r	r	n/a
359.9	0.0755	719800	keystroke_e	e	n/a
360.08	0.105	720160	keystroke_s	s	n/a
360.32	0.1055	720640	keystroke_Key.enter	Key.enter	n/a
360.4305	18.716	720861	prompt	n/a	accident fact debate suffering\n
361.1755	0.0745	722351	keystroke_a	a	n/a
361.4155	0.089	722831	keystroke_c	c	n/a
361.5495	0.075	723099	keystroke_c	c	n/a
361.7295	0.091	723459	keystroke_i	i	n/a
361.8355	0.06	723671	keystroke_d	d	n/a
362.015	0.0595	724030	keystroke_e	e	n/a
362.1205	0.075	724241	keystroke_n	n	n/a
362.8845	0.06	725769	keystroke_t	t	n/a
363.2605	0.09	726521	keystroke_Key.space	Key.space	n/a
363.4095	0.0755	726819	keystroke_f	f	n/a
363.6495	0.075	727299	keystroke_a	a	n/a
363.9045	0.091	727809	keystroke_c	c	n/a
364.1745	0.061	728349	keystroke_t	t	n/a
364.5655	0.059	729131	keystroke_Key.space	Key.space	n/a
365.1645	0.06	730329	keystroke_d	d	n/a
365.3605	0.0595	730721	keystroke_e	e	n/a
365.51	0.0905	731020	keystroke_b	b	n/a
365.601	0.074	731202	keystroke_e	e	n/a
365.825	0.075	731650	keystroke_a	a	n/a
366.14	0.0295	732280	keystroke_t	t	n/a
366.335	0.075	732670	keystroke_e	e	n/a
366.545	0.075	733090	keystroke_Key.space	Key.space	n/a
366.6355	0.09	733271	keystroke_s	s	n/a
367.175	0.09	734350	keystroke_Key.backspace	Key.backspace	n/a
367.37	0.09	734740	keystroke_Key.backspace	Key.backspace	n/a
367.58	0.06	735160	keystroke_Key.backspace	Key.backspace	n/a
368.06	0.09	736120	keystroke_Key.space	Key.space	n/a
368.24	0.075	736480	keystroke_s	s	n/a
368.885	0.09	737770	keystroke_Key.backspace	Key.backspace	n/a
369.23	0.06	738460	keystroke_Key.backspace	Key.backspace	n/a
369.725	0.075	739450	keystroke_e	e	n/a
369.935	0.075	739870	keystroke_Key.space	Key.space	n/a
370.145	0.075	740290	keystroke_s	s	n/a
371.39	0.06	742780	keystroke_Key.backspace	Key.backspace	n/a
371.615	0.075	743230	keystroke_Key.backspace	Key.backspace	n/a
371.885	0.0905	743770	keystroke_Key.backspace	Key.backspace	n/a
372.23	0.0755	744460	keystroke_Key.backspace	Key.backspace	n/a
372.62	0.075	745240	keystroke_Key.backspace	Key.backspace	n/a
373.3555	0.105	746711	keystroke_Key.backspace	Key.backspace	n/a
373.52	0.0905	747040	keystroke_a	a	n/a
374.0305	0.0895	748061	keystroke_t	t	n/a
374.1805	0.0895	748361	keystroke_e	e	n/a
374.39	0.075	748780	keystroke_Key.space	Key.space	n/a
374.7045	0.106	749409	keystroke_s	s	n/a
374.8855	0.09	749771	keystroke_u	u	n/a
375.0655	0.0745	750131	keystroke_r	r	n/a
375.3055	0.075	750611	keystroke_f	f	n/a
375.5605	0.075	751121	keystroke_f	f	n/a
376.2345	0.076	752469	keystroke_Key.backspace	Key.backspace	n/a
376.4745	0.076	752949	keystroke_Key.backspace	Key.backspace	n/a
376.7295	0.0605	753459	keystroke_Key.backspace	Key.backspace	n/a
377.9305	0.0595	755861	keystroke_f	f	n/a
378.0805	0.0755	756161	keystroke_f	f	n/a
378.245	0.09	756490	keystroke_e	e	n/a
378.336	0.104	756672	keystroke_r	r	n/a
378.5005	0.12	757001	keystroke_i	i	n/a
378.6505	0.1045	757301	keystroke_n	n	n/a
378.7705	0.0745	757541	keystroke_g	g	n/a
379.0545	0.091	758109	keystroke_Key.enter	Key.enter	n/a
379.1495	5.8925	758299	prompt	n/a	suffer required names females\n
379.865	0.0905	759730	keystroke_s	s	n/a
380.075	0.06	760150	keystroke_u	u	n/a
380.315	0.045	760630	keystroke_f	f	n/a
380.435	0.0755	760870	keystroke_f	f	n/a
380.6	0.165	761200	keystroke_e	e	n/a
380.75	0.09	761500	keystroke_r	r	n/a
380.975	0.075	761950	keystroke_Key.space	Key.space	n/a
381.125	0.09	762250	keystroke_r	r	n/a
381.26	0.075	762520	keystroke_e	e	n/a
381.4705	0.0595	762941	keystroke_q	q	n/a
381.605	0.18	763210	keystroke_u	u	n/a
381.7255	0.12	763451	keystroke_i	i	n/a
381.8305	0.06	763661	keystroke_r	r	n/a
381.9505	0.075	763901	keystroke_e	e	n/a
382.1305	0.074	764261	keystroke_d	d	n/a
382.2495	0.09	764499	keystroke_Key.space	Key.space	n/a
382.3855	0.104	764771	keystroke_n	n	n/a
382.5355	0.059	765071	keystroke_a	a	n/a
382.7005	0.075	765401	keystroke_m	m	n/a
382.806	0.0745	765612	keystroke_e	e	n/a
383.0145	0.061	766029	keystroke_s	s	n/a
383.1495	0.09	766299	keystroke_Key.space	Key.space	n/a
383.465	0.0605	766930	keystroke_f	f	n/a
383.615	0.075	767230	keystroke_e	e	n/a
383.765	0.09	767530	keystroke_m	m	n/a
384.1555	0.0445	768311	keystroke_a	a	n/a
384.305	0.0905	768610	keystroke_l	l	n/a
384.4255	0.0895	768851	keystroke_e	e	n/a
384.62	0.075	769240	keystroke_s	s	n/a
384.965	0.075	769930	keystroke_Key.enter	Key.enter	n/a
385.0455	9.139	770091	prompt	n/a	iraqi scope tired registry\n
386.24	0.06	772480	keystroke_i	i	n/a
386.4205	0.06	772841	keystroke_r	r	n/a
386.7355	0.06	773471	keystroke_q	q	n/a
387.5155	0.09	775031	keystroke_Key.backspace	Key.backspace	n/a
387.665	0.045	775330	keystroke_a	a	n/a
387.86	0.0605	775720	keystroke_q	q	n/a
388.4755	0.089	776951	keystroke_i	i	n/a
388.8055	0.09	777611	keystroke_Key.space	Key.space	n/a
388.9105	0.075	777821	keystroke_s	s	n/a
389.4205	0.12	778841	keystroke_c	c	n/a
389.6155	0.15	779231	keystroke_o	o	n/a
389.7205	0.1345	779441	keystroke_p	p	n/a
389.8995	0.076	779799	keystroke_e	e	n/a
390.185	0.105	780370	keystroke_Key.space	Key.space	n/a
390.5605	0.0895	781121	keystroke_r	r	n/a
391.4005	0.089	782801	keystroke_Key.backspace	Key.backspace	n/a
391.5505	0.075	783101	keystroke_t	t	n/a
391.6995	0.091	783399	keystroke_i	i	n/a
391.8205	0.045	783641	keystroke_r	r	n/a
391.9855	0.06	783971	keystroke_e	e	n/a
392.1655	0.06	784331	keystroke_d	d	n/a
392.3005	0.119	784601	keystroke_Key.space	Key.space	n/a
392.4505	0.0745	784901	keystroke_r	r	n/a
392.6365	0.06	785273	keystroke_e	e	n/a
392.9375	0.059	785875	keystroke_g	g	n/a
393.1025	0.044	786205	keystroke_i	i	n/a
393.2065	0.045	786413	keystroke_s	s	n/a
393.4175	0.09	786835	keystroke_t	t	n/a
393.5215	0.091	787043	keystroke_r	r	n/a
393.7165	0.061	787433	keystroke_y	y	n/a
394.0925	0.089	788185	keystroke_Key.enter	Key.enter	n/a
394.1885	10.525	788377	prompt	n/a	fresh wildlife anti tool\n
394.9475	0.09	789895	keystroke_f	f	n/a
395.1425	0.09	790285	keystroke_r	r	n/a
395.2625	0.075	790525	keystroke_e	e	n/a
395.4275	0.09	790855	keystroke_s	s	n/a
395.5775	0.134	791155	keystroke_h	h	n/a
395.7275	0.104	791455	keystroke_Key.space	Key.space	n/a
395.8775	0.059	791755	keystroke_w	w	n/a
395.9675	0.09	791935	keystroke_i	i	n/a
396.0875	0.09	792175	keystroke_f	f	n/a
396.2375	0.09	792475	keystroke_e	e	n/a
396.4025	0.074	792805	keystroke_Key.space	Key.space	n/a
396.4615	0.136	792923	keystroke_l	l	n/a
397.6615	0.091	795323	keystroke_Key.backspace	Key.backspace	n/a
397.8865	0.0605	795773	keystroke_Key.backspace	Key.backspace	n/a
398.367	0.0755	796734	keystroke_Key.backspace	Key.backspace	n/a
398.6525	0.075	797305	keystroke_Key.backspace	Key.backspace	n/a
401.0085	0.014	802017	keystroke_l	l	n/a
401.1275	0.0595	802255	keystroke_d	d	n/a
401.3525	0.12	802705	keystroke_l	l	n/a
401.532	0.105	803064	keystroke_i	i	n/a
401.653	0.074	803306	keystroke_f	f	n/a
401.787	0.1045	803574	keystroke_e	e	n/a
401.967	0.09	803934	keystroke_Key.space	Key.space	n/a
402.087	0.0905	804174	keystroke_a	a	n/a
402.567	0.135	805134	keystroke_n	n	n/a
402.972	0.0755	805944	keystroke_t	t	n/a
403.137	0.091	806274	keystroke_i	i	n/a
403.482	0.075	806964	keystroke_Key.space	Key.space	n/a
403.662	0.045	807324	keystroke_t	t	n/a
403.767	0.06	807534	keystroke_o	o	n/a
403.902	0.075	807804	keystroke_o	o	n/a
404.127	0.09	808254	keystroke_l	l	n/a
404.637	0.075	809274	keystroke_Key.enter	Key.enter	n/a
404.717	7.1225	809434	prompt	n/a	printed medicine spank solaris\n
406.107	0.09	812214	keystroke_p	p	n/a
406.257	0.075	812514	keystroke_r	r	n/a
406.422	0.06	812844	keystroke_i	i	n/a
406.692	0.075	813384	keystroke_n	n	n/a
406.812	0.075	813624	keystroke_t	t	n/a
407.022	0.09	814044	keystroke_e	e	n/a
407.232	0.075	814464	keystroke_d	d	n/a
407.337	0.1195	814674	keystroke_Key.space	Key.space	n/a
407.442	0.105	814884	keystroke_m	m	n/a
407.577	0.0595	815154	keystroke_e	e	n/a
407.742	0.09	815484	keystroke_d	d	n/a
407.892	0.075	815784	keystroke_i	i	n/a
408.012	0.075	816024	keystroke_c	c	n/a
408.147	0.075	816294	keystroke_i	i	n/a
408.372	0.09	816744	keystroke_n	n	n/a
408.537	0.075	817074	keystroke_e	e	n/a
408.672	0.09	817344	keystroke_Key.space	Key.space	n/a
408.807	0.0605	817614	keystroke_s	s	n/a
408.9115	0.105	817823	keystroke_p	p	n/a
409.0625	0.074	818125	keystroke_a	a	n/a
409.272	0.0745	818544	keystroke_n	n	n/a
409.452	0.0895	818904	keystroke_d	d	n/a
409.902	0.09	819804	keystroke_Key.backspace	Key.backspace	n/a
410.112	0.09	820224	keystroke_k	k	n/a
410.427	0.09	820854	keystroke_Key.space	Key.space	n/a
410.667	0.03	821334	keystroke_s	s	n/a
410.787	0.075	821574	keystroke_o	o	n/a
410.997	0.075	821994	keystroke_l	l	n/a
411.117	0.075	822234	keystroke_a	a	n/a
411.327	0.06	822654	keystroke_r	r	n/a
411.4175	0.0895	822835	keystroke_i	i	n/a
411.537	0.075	823074	keystroke_s	s	n/a
411.747	0.0905	823494	keystroke_Key.enter	Key.enter	n/a
411.843	6.6565	823686	prompt	n/a	humor cabinet force forget\n
412.977	0.075	825954	keystroke_h	h	n/a
413.1575	0.075	826315	keystroke_u	u	n/a
413.3815	0.1355	826763	keystroke_m	m	n/a
413.5775	0.105	827155	keystroke_o	o	n/a
413.712	0.0895	827424	keystroke_r	r	n/a
413.9965	0.0905	827993	keystroke_Key.space	Key.space	n/a
414.1465	0.075	828293	keystroke_c	c	n/a
414.5365	0.076	829073	keystroke_a	a	n/a
414.852	0.075	829704	keystroke_b	b	n/a
415.4975	0.06	830995	keystroke_i	i	n/a
415.6615	0.0905	831323	keystroke_n	n	n/a
415.827	0.105	831654	keystroke_e	e	n/a
416.052	0.075	832104	keystroke_t	t	n/a
416.187	0.12	832374	keystroke_Key.space	Key.space	n/a
416.292	0.075	832584	keystroke_f	f	n/a
416.3975	0.09	832795	keystroke_o	o	n/a
416.472	0.0755	832944	keystroke_r	r	n/a
416.6675	0.0745	833335	keystroke_c	c	n/a
416.862	0.06	833724	keystroke_e	e	n/a
417.0415	0.1055	834083	keystroke_Key.space	Key.space	n/a
417.462	0.075	834924	keystroke_f	f	n/a
417.582	0.105	835164	keystroke_o	o	n/a
417.672	0.0605	835344	keystroke_r	r	n/a
417.927	0.0155	835854	keystroke_g	g	n/a
418.0175	0.105	836035	keystroke_e	e	n/a
418.1825	0.075	836365	keystroke_t	t	n/a
418.4075	0.09	836815	keystroke_Key.enter	Key.enter	n/a
418.503	6.206	837006	prompt	n/a	heads listen jane talented\n
419.592	0.0895	839184	keystroke_h	h	n/a
419.6975	0.0745	839395	keystroke_e	e	n/a
419.922	0.0755	839844	keystroke_a	a	n/a
420.117	0.075	840234	keystroke_d	d	n/a
420.327	0.06	840654	keystroke_s	s	n/a
420.522	0.195	841044	keystroke_Key.space	Key.space	n/a
420.867	0.135	841734	keystroke_l	l	n/a
421.047	0.105	842094	keystroke_i	i	n/a
421.152	0.075	842304	keystroke_s	s	n/a
421.317	0.06	842634	keystroke_t	t	n/a
421.4675	0.0745	842935	keystroke_e	e	n/a
421.5865	0.12	843173	keystroke_n	n	n/a
421.7365	0.12	843473	keystroke_Key.space	Key.space	n/a
421.977	0.1045	843954	keystroke_j	j	n/a
422.1415	0.0755	844283	keystroke_a	a	n/a
422.2925	0.1045	844585	keystroke_n	n	n/a
422.4575	0.0595	844915	keystroke_e	e	n/a
422.877	0.09	845754	keystroke_Key.space	Key.space	n/a
423.2975	0.06	846595	keystroke_t	t	n/a
423.5525	0.075	847105	keystroke_a	a	n/a
423.7325	0.075	847465	keystroke_l	l	n/a
423.8825	0.075	847765	keystroke_e	e	n/a
424.0475	0.06	848095	keystroke_n	n	n/a
424.1665	0.046	848333	keystroke_t	t	n/a
424.3475	0.045	848695	keystroke_e	e	n/a
424.5125	0.075	849025	keystroke_d	d	n/a
424.6175	0.09	849235	keystroke_Key.enter	Key.enter	n/a
424.713	7.9615	849426	prompt	n/a	anatomy costume newsletter cooperation\n
425.3825	0.075	850765	keystroke_a	a	n/a
425.6075	0.075	851215	keystroke_n	n	n/a
425.7425	0.09	851485	keystroke_a	a	n/a
425.9975	0.0595	851995	keystroke_t	t	n/a
426.0875	0.1045	852175	keystroke_o	o	n/a
426.252	0.0905	852504	keystroke_m	m	n/a
426.4175	0.075	852835	keystroke_y	y	n/a
426.6275	0.075	853255	keystroke_Key.space	Key.space	n/a
426.747	0.06	853494	keystroke_c	c	n/a
426.9865	0.09	853973	keystroke_o	o	n/a
427.3175	0.074	854635	keystroke_s	s	n/a
427.4975	0.075	854995	keystroke_t	t	n/a
427.6765	0.075	855353	keystroke_u	u	n/a
427.902	0.09	855804	keystroke_m	m	n/a
428.037	0.0745	856074	keystroke_e	e	n/a
428.3065	0.1205	856613	keystroke_Key.space	Key.space	n/a
428.4425	0.059	856885	keystroke_n	n	n/a
428.5025	0.059	857005	keystroke_e	e	n/a
428.6815	0.075	857363	keystroke_w	w	n/a
428.877	0.0745	857754	keystroke_s	s	n/a
429.042	0.0895	858084	keystroke_l	l	n/a
429.162	0.0895	858324	keystroke_e	e	n/a
429.417	0.0445	858834	keystroke_t	t	n/a
429.537	0.0745	859074	keystroke_t	t	n/a
429.717	0.1355	859434	keystroke_e	e	n/a
429.8365	0.09	859673	keystroke_r	r	n/a
429.9865	0.105	859973	keystroke_Key.space	Key.space	n/a
430.1225	0.0895	860245	keystroke_c	c	n/a
430.3325	0.074	860665	keystroke_o	o	n/a
430.6765	0.046	861353	keystroke_o	o	n/a
430.872	0.0905	861744	keystroke_p	p	n/a
431.127	0.1205	862254	keystroke_e	e	n/a
431.232	0.0905	862464	keystroke_r	r	n/a
431.457	0.09	862914	keystroke_a	a	n/a
431.667	0.06	863334	keystroke_t	t	n/a
431.757	0.12	863514	keystroke_i	i	n/a
431.8475	0.104	863695	keystroke_o	o	n/a
432.087	0.075	864174	keystroke_n	n	n/a
432.567	0.105	865134	keystroke_Key.enter	Key.enter	n/a
432.681	11.573	865362	prompt	n/a	aqua where'd withdrawal convicted\n
434.082	0.075	868164	keystroke_a	a	n/a
434.3065	0.075	868613	keystroke_q	q	n/a
434.4865	0.0905	868973	keystroke_u	u	n/a
434.922	0.06	869844	keystroke_a	a	n/a
435.117	0.105	870234	keystroke_Key.space	Key.space	n/a
435.282	0.0905	870564	keystroke_w	w	n/a
435.432	0.0905	870864	keystroke_h	h	n/a
435.5375	0.1195	871075	keystroke_e	e	n/a
435.642	0.12	871284	keystroke_r	r	n/a
435.732	0.09	871464	keystroke_e	e	n/a
435.912	0.075	871824	keystroke_'	'	n/a
436.077	0.06	872154	keystroke_s	s	n/a
436.5415	0.06	873083	keystroke_Key.backspace	Key.backspace	n/a
436.6175	0.059	873235	keystroke_d	d	n/a
436.9915	0.09	873983	keystroke_Key.space	Key.space	n/a
437.3065	0.0605	874613	keystroke_w	w	n/a
437.4725	0.104	874945	keystroke_i	i	n/a
437.7115	0.09	875423	keystroke_t	t	n/a
437.7865	0.09	875573	keystroke_h	h	n/a
438.0565	0.0605	876113	keystroke_d	d	n/a
438.2515	0.075	876503	keystroke_r	r	n/a
439.1065	0.06	878213	keystroke_a	a	n/a
439.3315	0.0605	878663	keystroke_w	w	n/a
439.5715	0.046	879143	keystroke_l	l	n/a
439.9765	0.075	879953	keystroke_Key.backspace	Key.backspace	n/a
440.1115	0.061	880223	keystroke_a	a	n/a
440.2615	0.09	880523	keystroke_l	l	n/a
440.5625	0.089	881125	keystroke_Key.space	Key.space	n/a
441.0725	0.075	882145	keystroke_c	c	n/a
441.2665	0.045	882533	keystroke_o	o	n/a
441.5065	0.091	883013	keystroke_n	n	n/a
442.2415	0.075	884483	keystroke_v	v	n/a
442.3765	0.075	884753	keystroke_i	i	n/a
442.4975	0.059	884995	keystroke_c	c	n/a
442.812	0.0605	885624	keystroke_a	a	n/a
443.1725	0.0745	886345	keystroke_Key.backspace	Key.backspace	n/a
443.262	0.0605	886524	keystroke_t	t	n/a
443.3825	0.0595	886765	keystroke_e	e	n/a
443.5615	0.0755	887123	keystroke_d	d	n/a
444.162	0.0895	888324	keystroke_Key.enter	Key.enter	n/a
444.258	7.8855	888516	prompt	n/a	chicks effects frames suddenly\n
445.0165	0.0755	890033	keystroke_c	c	n/a
445.1515	0.1355	890303	keystroke_h	h	n/a
445.2415	0.1055	890483	keystroke_i	i	n/a
445.362	0.0895	890724	keystroke_c	c	n/a
445.572	0.09	891144	keystroke_k	k	n/a
445.752	0.0455	891504	keystroke_s	s	n/a
445.962	0.119	891924	keystroke_Key.space	Key.space	n/a
446.187	0.075	892374	keystroke_e	e	n/a
446.382	0.06	892764	keystroke_f	f	n/a
446.502	0.075	893004	keystroke_f	f	n/a
446.682	0.075	893364	keystroke_e	e	n/a
446.847	0.075	893694	keystroke_c	c	n/a
447.117	0.06	894234	keystroke_t	t	n/a
447.5825	0.06	895165	keystroke_s	s	n/a
447.8365	0.09	895673	keystroke_Key.space	Key.space	n/a
447.987	0.0755	895974	keystroke_f	f	n/a
448.1225	0.089	896245	keystroke_r	r	n/a
448.4065	0.06	896813	keystroke_a	a	n/a
448.587	0.075	897174	keystroke_m	m	n/a
448.7675	0.0595	897535	keystroke_e	e	n/a
448.977	0.0455	897954	keystroke_s	s	n/a
449.1575	0.0745	898315	keystroke_Key.space	Key.space	n/a
449.277	0.075	898554	keystroke_s	s	n/a
449.4575	0.0595	898915	keystroke_u	u	n/a
449.667	0.015	899334	keystroke_d	d	n/a
449.7575	0.0745	899515	keystroke_d	d	n/a
450.282	0.09	900564	keystroke_e	e	n/a
450.447	0.09	900894	keystroke_n	n	n/a
450.987	0.1195	901974	keystroke_l	l	n/a
451.1815	0.045	902363	keystroke_y	y	n/a
452.052	0.09	904104	keystroke_Key.enter	Key.enter	n/a
452.1465	18.418	904293	prompt	n/a	gratuit invitations coat taught\n
453.177	0.0455	906354	keystroke_g	g	n/a
453.402	0.06	906804	keystroke_r	r	n/a
453.762	0.0755	907524	keystroke_a	a	n/a
454.437	0.0895	908874	keystroke_t	t	n/a
455.382	0.0905	910764	keystroke_u	u	n/a
455.6825	0.0895	911365	keystroke_i	i	n/a
455.892	0.075	911784	keystroke_t	t	n/a
456.177	0.105	912354	keystroke_Key.space	Key.space	n/a
456.402	0.06	912804	keystroke_i	i	n/a
456.582	0.0905	913164	keystroke_n	n	n/a
460.019	0.043	920038	keystroke_v	v	n/a
460.7065	0.061	921413	keystroke_u	u	n/a
460.9165	0.06	921833	keystroke_t	t	n/a
461.3215	0.0755	922643	keystroke_Key.backspace	Key.backspace	n/a
461.4865	0.075	922973	keystroke_Key.backspace	Key.backspace	n/a
461.7425	0.059	923485	keystroke_i	i	n/a
461.8465	0.061	923693	keystroke_t	t	n/a
462.192	0.0595	924384	keystroke_a	a	n/a
463.587	0.105	927174	keystroke_i	i	n/a
463.962	0.09	927924	keystroke_Key.backspace	Key.backspace	n/a
464.067	0.0755	928134	keystroke_t	t	n/a
464.262	0.135	928524	keystroke_i	i	n/a
464.352	0.1205	928704	keystroke_o	o	n/a
464.652	0.105	929304	keystroke_n	n	n/a
465.267	0.09	930534	keystroke_s	s	n/a
465.462	0.105	930924	keystroke_Key.space	Key.space	n/a
465.612	0.075	931224	keystroke_c	c	n/a
465.747	0.075	931494	keystroke_o	o	n/a
465.897	0.09	931794	keystroke_a	a	n/a
466.392	0.045	932784	keystroke_t	t	n/a
466.707	0.105	933414	keystroke_Key.space	Key.space	n/a
466.9625	0.0745	933925	keystroke_i	i	n/a
467.352	0.1045	934704	keystroke_Key.backspace	Key.backspace	n/a
467.457	0.0455	934914	keystroke_t	t	n/a
467.7725	0.0745	935545	keystroke_a	a	n/a
467.9365	0.09	935873	keystroke_u	u	n/a
468.162	0.1645	936324	keystroke_g	g	n/a
468.297	0.1055	936594	keystroke_h	h	n/a
468.5365	0.075	937073	keystroke_t	t	n/a
470.4415	0.12	940883	keystroke_Key.enter	Key.enter	n/a
470.5685	16.54	941137	prompt	n/a	salary johnston house bench\n
471.4025	0.075	942805	keystroke_s	s	n/a
471.6275	0.075	943255	keystroke_a	a	n/a
471.792	0.075	943584	keystroke_l	l	n/a
471.9125	0.075	943825	keystroke_a	a	n/a
472.1365	0.06	944273	keystroke_r	r	n/a
472.362	0.1055	944724	keystroke_y	y	n/a
472.617	0.105	945234	keystroke_Key.space	Key.space	n/a
472.962	0.075	945924	keystroke_j	j	n/a
473.1275	0.0745	946255	keystroke_o	o	n/a
473.322	0.06	946644	keystroke_h	h	n/a
473.547	0.075	947094	keystroke_n	n	n/a
473.742	0.075	947484	keystroke_s	s	n/a
474.027	0.045	948054	keystroke_t	t	n/a
474.162	0.0905	948324	keystroke_o	o	n/a
474.372	0.0905	948744	keystroke_n	n	n/a
474.582	0.135	949164	keystroke_Key.space	Key.space	n/a
474.762	0.075	949524	keystroke_h	h	n/a
474.972	0.18	949944	keystroke_o	o	n/a
475.152	0.104	950304	keystroke_u	u	n/a
477.0725	0.0745	954145	keystroke_s	s	n/a
477.3565	0.0755	954713	keystroke_e	e	n/a
477.9115	0.09	955823	keystroke_Key.space	Key.space	n/a
478.5275	0.089	957055	keystroke_b	b	n/a
478.6475	0.09	957295	keystroke_e	e	n/a
478.8125	0.0745	957625	keystroke_n	n	n/a
478.9625	0.09	957925	keystroke_c	c	n/a
479.1275	0.074	958255	keystroke_h	h	n/a
487.0485	0.0585	974097	keystroke_Key.enter	Key.enter	n/a
487.1115	10.647	974223	prompt	n/a	christina dare declare bestsellers\n
488.0975	0.089	976195	keystroke_c	c	n/a
488.307	0.0895	976614	keystroke_h	h	n/a
488.532	0.09	977064	keystroke_r	r	n/a
488.832	0.12	977664	keystroke_i	i	n/a
488.9965	0.0905	977993	keystroke_s	s	n/a
489.2525	0.06	978505	keystroke_t	t	n/a
489.3575	0.075	978715	keystroke_i	i	n/a
489.5515	0.105	979103	keystroke_n	n	n/a
490.2565	0.0755	980513	keystroke_a	a	n/a
490.5265	0.1055	981053	keystroke_Key.space	Key.space	n/a
491.607	0.06	983214	keystroke_d	d	n/a
491.8325	0.044	983665	keystroke_a	a	n/a
492.0565	0.135	984113	keystroke_r	r	n/a
492.1765	0.075	984353	keystroke_e	e	n/a
492.357	0.1045	984714	keystroke_Key.space	Key.space	n/a
492.507	0.0895	985014	keystroke_d	d	n/a
492.747	0.06	985494	keystroke_e	e	n/a
493.137	0.09	986274	keystroke_c	c	n/a
493.3625	0.12	986725	keystroke_l	l	n/a
493.497	0.0905	986994	keystroke_a	a	n/a
493.7675	0.0595	987535	keystroke_r	r	n/a
493.977	0.06	987954	keystroke_e	e	n/a
494.217	0.105	988434	keystroke_Key.space	Key.space	n/a
494.4125	0.0595	988825	keystroke_b	b	n/a
494.637	0.06	989274	keystroke_e	e	n/a
494.8475	0.045	989695	keystroke_s	s	n/a
495.132	0.06	990264	keystroke_t	t	n/a
495.507	0.0595	991014	keystroke_s	s	n/a
495.7175	0.074	991435	keystroke_e	e	n/a
495.8515	0.075	991703	keystroke_l	l	n/a
496.0015	0.12	992003	keystroke_l	l	n/a
496.1665	0.105	992333	keystroke_e	e	n/a
496.257	0.0745	992514	keystroke_r	r	n/a
496.4825	0.075	992965	keystroke_s	s	n/a
497.622	0.135	995244	keystroke_Key.enter	Key.enter	n/a
497.7625	6.432	995525	prompt	n/a	lending upon kevin fake\n
498.522	0.1205	997044	keystroke_l	l	n/a
498.687	0.0905	997374	keystroke_e	e	n/a
498.9125	0.1045	997825	keystroke_n	n	n/a
499.227	0.075	998454	keystroke_d	d	n/a
499.4075	0.0595	998815	keystroke_i	i	n/a
499.5275	0.1045	999055	keystroke_n	n	n/a
499.692	0.075	999384	keystroke_g	g	n/a
499.9625	0.1045	999925	keystroke_Key.space	Key.space	n/a
500.3515	0.061	1000703	keystroke_u	u	n/a
500.5775	0.075	1001155	keystroke_p	p	n/a
500.8165	0.06	1001633	keystroke_o	o	n/a
501.162	0.1055	1002324	keystroke_n	n	n/a
501.3415	0.12	1002683	keystroke_Key.space	Key.space	n/a
501.5225	0.105	1003045	keystroke_k	k	n/a
501.6425	0.059	1003285	keystroke_e	e	n/a
501.8375	0.12	1003675	keystroke_v	v	n/a
501.9725	0.089	1003945	keystroke_i	i	n/a
502.1075	0.119	1004215	keystroke_n	n	n/a
502.3325	0.1045	1004665	keystroke_Key.space	Key.space	n/a
502.7365	0.105	1005473	keystroke_f	f	n/a
503.3515	0.091	1006703	keystroke_a	a	n/a
503.592	0.075	1007184	keystroke_k	k	n/a
503.7715	0.0905	1007543	keystroke_e	e	n/a
504.057	0.1345	1008114	keystroke_Key.enter	Key.enter	n/a
504.198	12.1305	1008396	prompt	n/a	guided celtic ambient mental\n
505.1525	0.0745	1010305	keystroke_g	g	n/a
505.407	0.2095	1010814	keystroke_u	u	n/a
505.6175	0.12	1011235	keystroke_i	i	n/a
505.8725	0.09	1011745	keystroke_d	d	n/a
506.0975	0.074	1012195	keystroke_e	e	n/a
506.3225	0.075	1012645	keystroke_d	d	n/a
506.592	0.0895	1013184	keystroke_Key.space	Key.space	n/a
506.9375	0.0895	1013875	keystroke_c	c	n/a
507.1475	0.09	1014295	keystroke_e	e	n/a
507.3265	0.091	1014653	keystroke_l	l	n/a
507.582	0.0455	1015164	keystroke_t	t	n/a
507.777	0.075	1015554	keystroke_i	i	n/a
507.972	0.075	1015944	keystroke_c	c	n/a
508.482	0.09	1016964	keystroke_Key.space	Key.space	n/a
508.7525	0.06	1017505	keystroke_a	a	n/a
508.887	0.075	1017774	keystroke_m	m	n/a
509.832	0.1195	1019664	keystroke_b	b	n/a
510.057	0.0745	1020114	keystroke_i	i	n/a
510.357	0.0595	1020714	keystroke_e	e	n/a
510.5375	0.089	1021075	keystroke_n	n	n/a
510.717	0.0595	1021434	keystroke_t	t	n/a
511.167	0.075	1022334	keystroke_Key.space	Key.space	n/a
511.5125	0.059	1023025	keystroke_m	m	n/a
511.5865	0.075	1023173	keystroke_e	e	n/a
511.767	0.0905	1023534	keystroke_n	n	n/a
511.8715	0.0605	1023743	keystroke_t	t	n/a
512.1565	0.076	1024313	keystroke_a	a	n/a
512.292	0.0895	1024584	keystroke_l	l	n/a
516.2685	0.0585	1032537	keystroke_Key.enter	Key.enter	n/a
516.3315	8.099	1032663	prompt	n/a	asus applicable looking places\n
517.1375	0.0595	1034275	keystroke_a	a	n/a
517.3325	0.0895	1034665	keystroke_s	s	n/a
517.482	0.09	1034964	keystroke_u	u	n/a
517.647	0.075	1035294	keystroke_s	s	n/a
517.812	0.105	1035624	keystroke_Key.space	Key.space	n/a
517.9775	0.059	1035955	keystroke_a	a	n/a
518.262	0.075	1036524	keystroke_p	p	n/a
518.412	0.0905	1036824	keystroke_p	p	n/a
518.5625	0.09	1037125	keystroke_l	l	n/a
518.8025	0.075	1037605	keystroke_i	i	n/a
518.892	0.06	1037784	keystroke_c	c	n/a
519.102	0.0605	1038204	keystroke_a	a	n/a
520.212	0.06	1040424	keystroke_l	l	n/a
520.767	0.0895	1041534	keystroke_Key.backspace	Key.backspace	n/a
520.963	0.0745	1041926	keystroke_b	b	n/a
521.112	0.0905	1042224	keystroke_l	l	n/a
521.217	0.0595	1042434	keystroke_e	e	n/a
521.4265	0.0905	1042853	keystroke_Key.space	Key.space	n/a
521.8325	0.075	1043665	keystroke_l	l	n/a
522.0425	0.06	1044085	keystroke_o	o	n/a
522.1765	0.136	1044353	keystroke_o	o	n/a
522.2825	0.104	1044565	keystroke_k	k	n/a
522.5065	0.105	1045013	keystroke_i	i	n/a
522.5975	0.105	1045195	keystroke_n	n	n/a
522.7625	0.075	1045525	keystroke_g	g	n/a
522.912	0.1205	1045824	keystroke_Key.space	Key.space	n/a
523.0775	0.1345	1046155	keystroke_p	p	n/a
523.1825	0.15	1046365	keystroke_l	l	n/a
523.287	0.06	1046574	keystroke_a	a	n/a
523.5125	0.0595	1047025	keystroke_c	c	n/a
523.692	0.0605	1047384	keystroke_e	e	n/a
523.872	0.075	1047744	keystroke_s	s	n/a
524.232	0.1955	1048464	keystroke_Key.enter	Key.enter	n/a
524.4385	9.215	1048877	prompt	n/a	aquatic passive career implications\n
526.017	0.06	1052034	keystroke_a	a	n/a
526.227	0.0605	1052454	keystroke_q	q	n/a
526.452	0.09	1052904	keystroke_u	u	n/a
526.7075	0.0895	1053415	keystroke_a	a	n/a
527.2765	0.0905	1054553	keystroke_t	t	n/a
527.4565	0.076	1054913	keystroke_i	i	n/a
527.5915	0.0755	1055183	keystroke_c	c	n/a
527.8015	0.09	1055603	keystroke_Key.space	Key.space	n/a
528.0575	0.09	1056115	keystroke_p	p	n/a
528.2525	0.075	1056505	keystroke_a	a	n/a
528.4765	0.046	1056953	keystroke_s	s	n/a
528.6275	0.059	1057255	keystroke_s	s	n/a
528.8075	0.075	1057615	keystroke_i	i	n/a
528.9275	0.075	1057855	keystroke_v	v	n/a
529.1525	0.075	1058305	keystroke_e	e	n/a
529.2875	0.105	1058575	keystroke_Key.space	Key.space	n/a
529.3925	0.06	1058785	keystroke_c	c	n/a
529.5875	0.09	1059175	keystroke_a	a	n/a
529.8725	0.045	1059745	keystroke_r	r	n/a
530.2765	0.061	1060553	keystroke_e	e	n/a
530.4125	0.075	1060825	keystroke_e	e	n/a
530.5925	0.075	1061185	keystroke_r	r	n/a
530.742	0.1345	1061484	keystroke_Key.space	Key.space	n/a
530.8625	0.09	1061725	keystroke_i	i	n/a
531.0875	0.074	1062175	keystroke_m	m	n/a
531.2825	0.119	1062565	keystroke_p	p	n/a
531.3875	0.104	1062775	keystroke_l	l	n/a
531.6125	0.059	1063225	keystroke_i	i	n/a
531.717	0.046	1063434	keystroke_c	c	n/a
532.0315	0.0605	1064063	keystroke_a	a	n/a
532.3625	0.059	1064725	keystroke_t	t	n/a
532.4815	0.1505	1064963	keystroke_i	i	n/a
532.6165	0.121	1065233	keystroke_o	o	n/a
532.8715	0.0905	1065743	keystroke_n	n	n/a
532.992	0.105	1065984	keystroke_s	s	n/a
533.547	0.105	1067094	keystroke_Key.enter	Key.enter	n/a
533.6565	9.3275	1067313	prompt	n/a	reactions rover consistency appeals\n
534.7925	0.0445	1069585	keystroke_r	r	n/a
534.9415	0.091	1069883	keystroke_e	e	n/a
535.213	0.0585	1070426	keystroke_a	a	n/a
535.4215	0.076	1070843	keystroke_c	c	n/a
535.7225	0.06	1071445	keystroke_t	t	n/a
535.8575	0.135	1071715	keystroke_i	i	n/a
535.9625	0.09	1071925	keystroke_o	o	n/a
536.2175	0.09	1072435	keystroke_n	n	n/a
536.4725	0.075	1072945	keystroke_s	s	n/a
536.7275	0.134	1073455	keystroke_Key.space	Key.space	n/a
537.0565	0.031	1074113	keystroke_r	r	n/a
537.6725	0.09	1075345	keystroke_o	o	n/a
537.8075	0.075	1075615	keystroke_v	v	n/a
538.0025	0.1495	1076005	keystroke_e	e	n/a
538.1375	0.09	1076275	keystroke_r	r	n/a
538.3465	0.1055	1076693	keystroke_Key.space	Key.space	n/a
538.467	0.0745	1076934	keystroke_c	c	n/a
538.5715	0.091	1077143	keystroke_o	o	n/a
538.7965	0.09	1077593	keystroke_n	n	n/a
538.9765	0.091	1077953	keystroke_s	s	n/a
539.1565	0.076	1078313	keystroke_i	i	n/a
539.2915	0.0605	1078583	keystroke_s	s	n/a
539.6075	0.0595	1079215	keystroke_t	t	n/a
539.7875	0.075	1079575	keystroke_e	e	n/a
539.922	0.0905	1079844	keystroke_n	n	n/a
540.117	0.075	1080234	keystroke_c	c	n/a
540.3275	0.0895	1080655	keystroke_y	y	n/a
540.672	0.105	1081344	keystroke_Key.space	Key.space	n/a
541.0625	0.0895	1082125	keystroke_a	a	n/a
541.2725	0.075	1082545	keystroke_p	p	n/a
541.4525	0.105	1082905	keystroke_p	p	n/a
541.6025	0.075	1083205	keystroke_e	e	n/a
541.8425	0.075	1083685	keystroke_a	a	n/a
542.0075	0.09	1084015	keystroke_l	l	n/a
542.1425	0.09	1084285	keystroke_s	s	n/a
542.892	0.0905	1085784	keystroke_Key.enter	Key.enter	n/a
542.988	7.586	1085976	prompt	n/a	mapping those antiques free\n
543.8075	0.1055	1087615	keystroke_m	m	n/a
543.9725	0.074	1087945	keystroke_a	a	n/a
544.1365	0.046	1088273	keystroke_p	p	n/a
544.2565	0.076	1088513	keystroke_p	p	n/a
544.4525	0.0595	1088905	keystroke_i	i	n/a
544.6475	0.09	1089295	keystroke_n	n	n/a
544.7515	0.076	1089503	keystroke_g	g	n/a
544.8865	0.136	1089773	keystroke_Key.space	Key.space	n/a
545.0065	0.121	1090013	keystroke_t	t	n/a
545.0975	0.059	1090195	keystroke_h	h	n/a
545.3065	0.0455	1090613	keystroke_o	o	n/a
545.4115	0.0755	1090823	keystroke_s	s	n/a
545.6215	0.075	1091243	keystroke_e	e	n/a
545.8165	0.075	1091633	keystroke_Key.space	Key.space	n/a
546.1175	0.075	1092235	keystroke_a	a	n/a
546.2675	0.0895	1092535	keystroke_n	n	n/a
546.5215	0.031	1093043	keystroke_t	t	n/a
546.6875	0.06	1093375	keystroke_i	i	n/a
546.8825	0.0745	1093765	keystroke_q	q	n/a
547.0465	0.091	1094093	keystroke_u	u	n/a
547.2115	0.06	1094423	keystroke_e	e	n/a
547.9775	0.0745	1095955	keystroke_s	s	n/a
548.2165	0.105	1096433	keystroke_Key.space	Key.space	n/a
548.4115	0.076	1096823	keystroke_f	f	n/a
548.6825	0.06	1097365	keystroke_r	r	n/a
548.907	0.0605	1097814	keystroke_e	e	n/a
549.0575	0.074	1098115	keystroke_e	e	n/a
550.5265	0.045	1101053	keystroke_Key.enter	Key.enter	n/a
550.579	15.535	1101158	prompt	n/a	appeal york definitely maintains\n
551.382	0.09	1102764	keystroke_a	a	n/a
551.607	0.075	1103214	keystroke_p	p	n/a
551.757	0.1055	1103514	keystroke_p	p	n/a
551.9825	0.0145	1103965	keystroke_e	e	n/a
552.642	0.06	1105284	keystroke_a	a	n/a
552.792	0.0905	1105584	keystroke_l	l	n/a
553.0925	0.12	1106185	keystroke_Key.space	Key.space	n/a
553.647	0.105	1107294	keystroke_y	y	n/a
553.797	0.105	1107594	keystroke_o	o	n/a
553.917	0.0905	1107834	keystroke_r	r	n/a
554.0525	0.12	1108105	keystroke_k	k	n/a
554.352	0.12	1108704	keystroke_Key.space	Key.space	n/a
554.9075	0.1195	1109815	keystroke_d	d	n/a
555.207	0.105	1110414	keystroke_e	e	n/a
555.4325	0.09	1110865	keystroke_f	f	n/a
556.0625	0.0745	1112125	keystroke_i	i	n/a
556.3925	0.09	1112785	keystroke_n	n	n/a
557.502	0.0905	1115004	keystroke_i	i	n/a
557.7565	0.06	1115513	keystroke_t	t	n/a
557.937	0.0755	1115874	keystroke_e	e	n/a
558.1465	0.091	1116293	keystroke_l	l	n/a
558.3125	0.074	1116625	keystroke_y	y	n/a
558.537	0.1205	1117074	keystroke_Key.space	Key.space	n/a
558.732	0.105	1117464	keystroke_m	m	n/a
558.927	0.09	1117854	keystroke_a	a	n/a
559.137	0.06	1118274	keystroke_i	i	n/a
559.3475	0.0745	1118695	keystroke_n	n	n/a
559.587	0.06	1119174	keystroke_t	t	n/a
559.872	0.06	1119744	keystroke_a	a	n/a
560.037	0.06	1120074	keystroke_i	i	n/a
560.217	0.12	1120434	keystroke_n	n	n/a
562.89	0.001	1125780	keystroke_s	s	n/a
566.054	0.0585	1132108	keystroke_Key.enter	Key.enter	n/a
566.1185	6.7305	1132237	prompt	n/a	benchmark replacing acts clara\n
566.8925	0.1045	1133785	keystroke_b	b	n/a
567.1325	0.0745	1134265	keystroke_e	e	n/a
567.2975	0.1045	1134595	keystroke_n	n	n/a
567.492	0.045	1134984	keystroke_c	c	n/a
567.6575	0.075	1135315	keystroke_h	h	n/a
567.942	0.0905	1135884	keystroke_m	m	n/a
568.092	0.06	1136184	keystroke_a	a	n/a
568.3025	0.0595	1136605	keystroke_r	r	n/a
568.4225	0.1345	1136845	keystroke_k	k	n/a
568.587	0.1205	1137174	keystroke_Key.space	Key.space	n/a
568.812	0.105	1137624	keystroke_r	r	n/a
568.9325	0.0895	1137865	keystroke_e	e	n/a
569.037	0.195	1138074	keystroke_p	p	n/a
569.202	0.1055	1138404	keystroke_l	l	n/a
569.263	0.059	1138526	keystroke_a	a	n/a
569.442	0.09	1138884	keystroke_c	c	n/a
569.7425	0.075	1139485	keystroke_i	i	n/a
569.862	0.1205	1139724	keystroke_n	n	n/a
570.0125	0.09	1140025	keystroke_g	g	n/a
570.297	0.1055	1140594	keystroke_Key.space	Key.space	n/a
570.477	0.06	1140954	keystroke_a	a	n/a
570.687	0.075	1141374	keystroke_c	c	n/a
570.927	0.075	1141854	keystroke_t	t	n/a
571.167	0.105	1142334	keystroke_Key.space	Key.space	n/a
571.6175	0.075	1143235	keystroke_c	c	n/a
571.7815	0.076	1143563	keystroke_l	l	n/a
571.8875	0.09	1143775	keystroke_a	a	n/a
572.1125	0.06	1144225	keystroke_r	r	n/a
572.3375	0.06	1144675	keystroke_a	a	n/a
572.7425	0.105	1145485	keystroke_Key.enter	Key.enter	n/a
572.8525	17.772	1145705	prompt	n/a	occurrence dried architect present\n
573.672	0.1195	1147344	keystroke_o	o	n/a
573.897	0.03	1147794	keystroke_c	c	n/a
574.032	0.075	1148064	keystroke_c	c	n/a
574.272	0.09	1148544	keystroke_u	u	n/a
574.422	0.06	1148844	keystroke_r	r	n/a
575.3375	0.0745	1150675	keystroke_e	e	n/a
575.5015	0.091	1151003	keystroke_n	n	n/a
575.6525	0.0595	1151305	keystroke_c	c	n/a
575.8465	0.076	1151693	keystroke_e	e	n/a
575.9525	0.12	1151905	keystroke_Key.space	Key.space	n/a
576.0575	0.075	1152115	keystroke_d	d	n/a
576.2815	0.045	1152563	keystroke_r	r	n/a
576.4475	0.029	1152895	keystroke_i	i	n/a
578.3075	0.09	1156615	keystroke_Key.backspace	Key.backspace	n/a
578.592	0.0905	1157184	keystroke_Key.backspace	Key.backspace	n/a
578.847	0.0755	1157694	keystroke_Key.backspace	Key.backspace	n/a
579.297	0.09	1158594	keystroke_Key.backspace	Key.backspace	n/a
579.5515	0.0605	1159103	keystroke_Key.backspace	Key.backspace	n/a
579.8215	0.075	1159643	keystroke_Key.backspace	Key.backspace	n/a
580.047	0.09	1160094	keystroke_Key.backspace	Key.backspace	n/a
580.3465	0.075	1160693	keystroke_Key.backspace	Key.backspace	n/a
580.977	0.0755	1161954	keystroke_r	r	n/a
581.247	0.0895	1162494	keystroke_e	e	n/a
581.427	0.09	1162854	keystroke_n	n	n/a
581.562	0.0455	1163124	keystroke_c	c	n/a
581.727	0.06	1163454	keystroke_e	e	n/a
581.922	0.0755	1163844	keystroke_Key.space	Key.space	n/a
582.177	0.075	1164354	keystroke_d	d	n/a
582.387	0.1355	1164774	keystroke_r	r	n/a
582.507	0.091	1165014	keystroke_e	e	n/a
583.092	0.0895	1166184	keystroke_Key.backspace	Key.backspace	n/a
583.287	0.0905	1166574	keystroke_i	i	n/a
583.3925	0.075	1166785	keystroke_e	e	n/a
583.5725	0.075	1167145	keystroke_d	d	n/a
583.962	0.1055	1167924	keystroke_Key.space	Key.space	n/a
584.1425	0.09	1168285	keystroke_a	a	n/a
584.3975	0.06	1168795	keystroke_r	r	n/a
584.5925	0.075	1169185	keystroke_c	c	n/a
584.7425	0.09	1169485	keystroke_h	h	n/a
584.9375	0.105	1169875	keystroke_i	i	n/a
585.3275	0.06	1170655	keystroke_t	t	n/a
585.5675	0.075	1171135	keystroke_e	e	n/a
585.8075	0.075	1171615	keystroke_c	c	n/a
585.9875	0.09	1171975	keystroke_h	h	n/a
586.242	0.105	1172484	keystroke_Key.space	Key.space	n/a
586.527	0.075	1173054	keystroke_p	p	n/a
587.607	0.06	1175214	keystroke_Key.backspace	Key.backspace	n/a
587.847	0.075	1175694	keystroke_Key.backspace	Key.backspace	n/a
588.207	0.09	1176414	keystroke_Key.backspace	Key.backspace	n/a
588.537	0.075	1177074	keystroke_t	t	n/a
588.9715	0.06	1177943	keystroke_Key.space	Key.space	n/a
589.377	0.0745	1178754	keystroke_p	p	n/a
589.4975	0.104	1178995	keystroke_r	r	n/a
589.6175	0.074	1179235	keystroke_e	e	n/a
589.812	0.075	1179624	keystroke_s	s	n/a
590.007	0.0595	1180014	keystroke_e	e	n/a
590.1415	0.0905	1180283	keystroke_n	n	n/a
590.262	0.0755	1180524	keystroke_t	t	n/a
590.5465	0.076	1181093	keystroke_Key.enter	Key.enter	n/a
590.628	10.991	1181256	prompt	n/a	gardening valve showcase seriously\n
591.5065	0.1205	1183013	keystroke_g	g	n/a
591.9725	0.0745	1183945	keystroke_a	a	n/a
592.8125	0.075	1185625	keystroke_r	r	n/a
593.1425	0.0595	1186285	keystroke_d	d	n/a
593.3225	0.075	1186645	keystroke_e	e	n/a
593.487	0.09	1186974	keystroke_n	n	n/a
593.607	0.18	1187214	keystroke_i	i	n/a
593.772	0.12	1187544	keystroke_n	n	n/a
593.9525	0.0895	1187905	keystroke_g	g	n/a
594.6865	0.105	1189373	keystroke_Key.space	Key.space	n/a
594.9565	0.015	1189913	keystroke_v	v	n/a
595.1525	0.089	1190305	keystroke_a	a	n/a
595.3025	0.134	1190605	keystroke_l	l	n/a
595.6325	0.1195	1191265	keystroke_u	u	n/a
596.2165	0.0905	1192433	keystroke_e	e	n/a
596.4865	0.09	1192973	keystroke_Key.space	Key.space	n/a
596.6515	0.0755	1193303	keystroke_s	s	n/a
596.7415	0.166	1193483	keystroke_h	h	n/a
596.8915	0.1355	1193783	keystroke_o	o	n/a
597.012	0.075	1194024	keystroke_w	w	n/a
597.237	0.06	1194474	keystroke_c	c	n/a
597.492	0.045	1194984	keystroke_a	a	n/a
597.672	0.0605	1195344	keystroke_s	s	n/a
597.8675	0.0595	1195735	keystroke_e	e	n/a
598.092	0.0905	1196184	keystroke_Key.space	Key.space	n/a
598.2575	0.0595	1196515	keystroke_s	s	n/a
598.467	0.1045	1196934	keystroke_e	e	n/a
598.557	0.0755	1197114	keystroke_r	r	n/a
598.707	0.15	1197414	keystroke_i	i	n/a
598.8725	0.1795	1197745	keystroke_o	o	n/a
599.022	0.09	1198044	keystroke_u	u	n/a
599.1725	0.075	1198345	keystroke_s	s	n/a
599.352	0.105	1198704	keystroke_l	l	n/a
599.577	0.0755	1199154	keystroke_y	y	n/a
601.5425	0.0745	1203085	keystroke_Key.enter	Key.enter	n/a
601.6315	6.992	1203263	prompt	n/a	rules sugar pursuit roads\n
602.757	0.0905	1205514	keystroke_r	r	n/a
602.937	0.09	1205874	keystroke_u	u	n/a
603.177	0.135	1206354	keystroke_l	l	n/a
603.327	0.06	1206654	keystroke_e	e	n/a
603.5225	0.0595	1207045	keystroke_s	s	n/a
603.657	0.15	1207314	keystroke_Key.space	Key.space	n/a
603.867	0.06	1207734	keystroke_s	s	n/a
604.0325	0.0595	1208065	keystroke_u	u	n/a
604.287	0.075	1208574	keystroke_g	g	n/a
604.662	0.0905	1209324	keystroke_a	a	n/a
605.0075	0.0145	1210015	keystroke_r	r	n/a
605.187	0.105	1210374	keystroke_Key.space	Key.space	n/a
605.367	0.105	1210734	keystroke_p	p	n/a
605.5775	0.0895	1211155	keystroke_u	u	n/a
605.6975	0.075	1211395	keystroke_r	r	n/a
605.967	0.06	1211934	keystroke_s	s	n/a
606.222	0.225	1212444	keystroke_u	u	n/a
606.432	0.135	1212864	keystroke_i	i	n/a
606.642	0.075	1213284	keystroke_t	t	n/a
607.0915	0.075	1214183	keystroke_Key.space	Key.space	n/a
607.3025	0.044	1214605	keystroke_r	r	n/a
607.4075	0.104	1214815	keystroke_o	o	n/a
607.6475	0.044	1215295	keystroke_a	a	n/a
607.8865	0.06	1215773	keystroke_d	d	n/a
608.097	0.0745	1216194	keystroke_s	s	n/a
608.5025	0.1195	1217005	keystroke_Key.enter	Key.enter	n/a
608.627	12.1615	1217254	prompt	n/a	cent edward soccer represented\n
609.5375	0.075	1219075	keystroke_c	c	n/a
609.7325	0.0895	1219465	keystroke_e	e	n/a
609.9415	0.076	1219883	keystroke_n	n	n/a
610.0915	0.046	1220183	keystroke_t	t	n/a
610.3615	0.105	1220723	keystroke_Key.space	Key.space	n/a
610.752	0.06	1221504	keystroke_e	e	n/a
610.947	0.075	1221894	keystroke_d	d	n/a
611.997	0.06	1223994	keystroke_w	w	n/a
612.207	0.075	1224414	keystroke_a	a	n/a
612.462	0.045	1224924	keystroke_r	r	n/a
612.657	0.09	1225314	keystroke_d	d	n/a
613.227	0.135	1226454	keystroke_Key.space	Key.space	n/a
613.407	0.0755	1226814	keystroke_s	s	n/a
613.6325	0.135	1227265	keystroke_o	o	n/a
614.4425	0.089	1228885	keystroke_c	c	n/a
614.9675	0.134	1229935	keystroke_c	c	n/a
615.2365	0.18	1230473	keystroke_e	e	n/a
615.3865	0.1205	1230773	keystroke_r	r	n/a
615.6565	0.09	1231313	keystroke_Key.space	Key.space	n/a
615.807	0.0755	1231614	keystroke_r	r	n/a
616.002	0.0895	1232004	keystroke_e	e	n/a
616.602	0.12	1233204	keystroke_p	p	n/a
616.782	0.075	1233564	keystroke_r	r	n/a
617.082	0.06	1234164	keystroke_e	e	n/a
617.367	0.045	1234734	keystroke_s	s	n/a
617.547	0.06	1235094	keystroke_e	e	n/a
617.742	0.09	1235484	keystroke_n	n	n/a
617.907	0.0605	1235814	keystroke_t	t	n/a
618.7925	0.1045	1237585	keystroke_e	e	n/a
619.062	0.075	1238124	keystroke_d	d	n/a
620.6515	0.135	1241303	keystroke_Key.enter	Key.enter	n/a
620.7915	7.6775	1241583	prompt	n/a	farmers added heading guess\n
621.6575	0.0745	1243315	keystroke_f	f	n/a
621.9265	0.076	1243853	keystroke_a	a	n/a
622.1665	0.075	1244333	keystroke_r	r	n/a
622.4065	0.076	1244813	keystroke_m	m	n/a
622.5415	0.0905	1245083	keystroke_e	e	n/a
622.7375	0.075	1245475	keystroke_r	r	n/a
623.0965	0.06	1246193	keystroke_s	s	n/a
623.3365	0.09	1246673	keystroke_Key.space	Key.space	n/a
623.4415	0.06	1246883	keystroke_a	a	n/a
623.7265	0.0305	1247453	keystroke_d	d	n/a
623.8925	0.0595	1247785	keystroke_d	d	n/a
624.1325	0.059	1248265	keystroke_e	e	n/a
624.357	0.0605	1248714	keystroke_d	d	n/a
624.6115	0.075	1249223	keystroke_Key.space	Key.space	n/a
624.897	0.1205	1249794	keystroke_h	h	n/a
625.032	0.075	1250064	keystroke_e	e	n/a
625.3465	0.046	1250693	keystroke_a	a	n/a
625.6025	0.0595	1251205	keystroke_d	d	n/a
625.767	0.09	1251534	keystroke_i	i	n/a
626.052	0.0155	1252104	keystroke_n	n	n/a
626.097	0.06	1252194	keystroke_g	g	n/a
626.382	0.075	1252764	keystroke_Key.space	Key.space	n/a
626.622	0.06	1253244	keystroke_g	g	n/a
626.7725	0.1045	1253545	keystroke_u	u	n/a
626.907	0.075	1253814	keystroke_e	e	n/a
627.1475	0.06	1254295	keystroke_s	s	n/a
627.3265	0.03	1254653	keystroke_s	s	n/a
628.3615	0.105	1256723	keystroke_Key.enter	Key.enter	n/a
628.4725	11.2315	1256945	prompt	n/a	rocky contractor suffering glenn\n
629.352	0.089	1258704	keystroke_r	r	n/a
630.2365	0.075	1260473	keystroke_o	o	n/a
630.4765	0.06	1260953	keystroke_c	c	n/a
630.6575	0.0745	1261315	keystroke_k	k	n/a
630.8825	0.075	1261765	keystroke_y	y	n/a
631.227	0.09	1262454	keystroke_Key.space	Key.space	n/a
631.452	0.09	1262904	keystroke_c	c	n/a
631.527	0.09	1263054	keystroke_o	o	n/a
631.752	0.09	1263504	keystroke_n	n	n/a
631.857	0.135	1263714	keystroke_t	t	n/a
631.9775	0.0745	1263955	keystroke_r	r	n/a
632.2475	0.0595	1264495	keystroke_a	a	n/a
632.517	0.0595	1265034	keystroke_c	c	n/a
632.8165	0.0755	1265633	keystroke_t	t	n/a
633.0265	0.12	1266053	keystroke_o	o	n/a
633.222	0.06	1266444	keystroke_r	r	n/a
633.5365	0.09	1267073	keystroke_Key.space	Key.space	n/a
633.732	0.0745	1267464	keystroke_s	s	n/a
633.9275	0.089	1267855	keystroke_u	u	n/a
634.632	0.06	1269264	keystroke_f	f	n/a
634.992	0.0595	1269984	keystroke_f	f	n/a
635.262	0.135	1270524	keystroke_e	e	n/a
635.412	0.09	1270824	keystroke_r	r	n/a
635.562	0.18	1271124	keystroke_i	i	n/a
635.727	0.105	1271454	keystroke_n	n	n/a
635.8775	0.0595	1271755	keystroke_g	g	n/a
636.026	0.12	1272052	keystroke_Key.space	Key.space	n/a
636.327	0.0605	1272654	keystroke_f	f	n/a
636.537	0.1055	1273074	keystroke_l	l	n/a
637.0465	0.0455	1274093	keystroke_Key.backspace	Key.backspace	n/a
637.167	0.0895	1274334	keystroke_Key.backspace	Key.backspace	n/a
637.3765	0.06	1274753	keystroke_g	g	n/a
637.5865	0.0155	1275173	keystroke_l	l	n/a
638.007	0.075	1276014	keystroke_e	e	n/a
638.157	0.075	1276314	keystroke_n	n	n/a
638.607	0.075	1277214	keystroke_n	n	n/a
639.5665	0.1355	1279133	keystroke_Key.enter	Key.enter	n/a
639.7085	11.8305	1279417	prompt	n/a	claims strange raise designers\n
640.7065	0.06	1281413	keystroke_c	c	n/a
641.5915	0.105	1283183	keystroke_l	l	n/a
642.1915	0.045	1284383	keystroke_a	a	n/a
642.3265	0.076	1284653	keystroke_i	i	n/a
642.6265	0.06	1285253	keystroke_m	m	n/a
643.3165	0.075	1286633	keystroke_s	s	n/a
643.6915	0.105	1287383	keystroke_Key.space	Key.space	n/a
643.8265	0.075	1287653	keystroke_s	s	n/a
644.0815	0.135	1288163	keystroke_t	t	n/a
644.2465	0.061	1288493	keystroke_r	r	n/a
644.8615	0.045	1289723	keystroke_a	a	n/a
645.0415	0.0605	1290083	keystroke_n	n	n/a
645.1775	0.0745	1290355	keystroke_g	g	n/a
645.432	0.0445	1290864	keystroke_e	e	n/a
645.6415	0.09	1291283	keystroke_Key.space	Key.space	n/a
645.792	0.0605	1291584	keystroke_r	r	n/a
646.1215	0.016	1292243	keystroke_a	a	n/a
646.872	0.0755	1293744	keystroke_i	i	n/a
646.992	0.075	1293984	keystroke_s	s	n/a
647.232	0.075	1294464	keystroke_e	e	n/a
647.427	0.105	1294854	keystroke_Key.space	Key.space	n/a
647.5465	0.091	1295093	keystroke_d	d	n/a
647.9365	0.075	1295873	keystroke_e	e	n/a
648.177	0.06	1296354	keystroke_s	s	n/a
648.582	0.075	1297164	keystroke_i	i	n/a
648.8065	0.0605	1297613	keystroke_g	g	n/a
648.987	0.0745	1297974	keystroke_n	n	n/a
649.242	0.105	1298484	keystroke_e	e	n/a
649.4365	0.045	1298873	keystroke_r	r	n/a
649.827	0.0605	1299654	keystroke_s	s	n/a
651.417	0.119	1302834	keystroke_Key.enter	Key.enter	n/a
651.5425	6.191	1303085	prompt	n/a	able king programmer peer\n
652.257	0.075	1304514	keystroke_a	a	n/a
652.572	0.105	1305144	keystroke_b	b	n/a
652.737	0.105	1305474	keystroke_l	l	n/a
652.857	0.0745	1305714	keystroke_e	e	n/a
653.0515	0.135	1306103	keystroke_Key.space	Key.space	n/a
653.2015	0.06	1306403	keystroke_k	k	n/a
653.397	0.06	1306794	keystroke_i	i	n/a
653.607	0.1055	1307214	keystroke_n	n	n/a
653.757	0.075	1307514	keystroke_g	g	n/a
654.3115	0.1055	1308623	keystroke_Key.space	Key.space	n/a
654.642	0.12	1309284	keystroke_p	p	n/a
654.7925	0.0745	1309585	keystroke_r	r	n/a
654.927	0.105	1309854	keystroke_o	o	n/a
655.047	0.105	1310094	keystroke_g	g	n/a
655.167	0.0755	1310334	keystroke_r	r	n/a
655.452	0.075	1310904	keystroke_a	a	n/a
655.602	0.06	1311204	keystroke_m	m	n/a
655.767	0.075	1311534	keystroke_m	m	n/a
655.9175	0.135	1311835	keystroke_e	e	n/a
656.037	0.09	1312074	keystroke_r	r	n/a
656.232	0.105	1312464	keystroke_Key.space	Key.space	n/a
656.472	0.075	1312944	keystroke_p	p	n/a
657.057	0.0595	1314114	keystroke_e	e	n/a
657.192	0.075	1314384	keystroke_e	e	n/a
657.402	0.074	1314804	keystroke_r	r	n/a
657.611	0.1205	1315222	keystroke_Key.enter	Key.enter	n/a
657.7395	12.0395	1315479	prompt	n/a	sizes cigarettes round committees\n
658.5725	0.0895	1317145	keystroke_s	s	n/a
658.902	0.075	1317804	keystroke_i	i	n/a
659.007	0.0755	1318014	keystroke_z	z	n/a
659.2625	0.089	1318525	keystroke_e	e	n/a
659.4875	0.075	1318975	keystroke_s	s	n/a
659.727	0.119	1319454	keystroke_Key.space	Key.space	n/a
659.862	0.105	1319724	keystroke_c	c	n/a
660.1025	0.06	1320205	keystroke_i	i	n/a
660.402	0.15	1320804	keystroke_g	g	n/a
661.242	0.09	1322484	keystroke_a	a	n/a
661.497	0.091	1322994	keystroke_r	r	n/a
661.632	0.06	1323264	keystroke_e	e	n/a
662.3375	0.0595	1324675	keystroke_t	t	n/a
662.532	0.075	1325064	keystroke_t	t	n/a
662.8625	0.0595	1325725	keystroke_e	e	n/a
663.117	0.06	1326234	keystroke_s	s	n/a
664.437	0.149	1328874	keystroke_Key.space	Key.space	n/a
664.7225	0.0885	1329445	keystroke_r	r	n/a
664.842	0.1505	1329684	keystroke_o	o	n/a
664.977	0.075	1329954	keystroke_u	u	n/a
665.217	0.0905	1330434	keystroke_n	n	n/a
665.3375	0.075	1330675	keystroke_d	d	n/a
665.6965	0.1055	1331393	keystroke_Key.space	Key.space	n/a
666.0875	0.045	1332175	keystroke_c	c	n/a
666.1465	0.106	1332293	keystroke_o	o	n/a
666.3875	0.09	1332775	keystroke_m	m	n/a
667.0615	0.151	1334123	keystroke_m	m	n/a
667.302	0.09	1334604	keystroke_i	i	n/a
667.7675	0.06	1335535	keystroke_t	t	n/a
667.932	0.061	1335864	keystroke_t	t	n/a
668.1865	0.075	1336373	keystroke_e	e	n/a
668.7265	0.09	1337453	keystroke_e	e	n/a
669.0415	0.045	1338083	keystroke_s	s	n/a
669.672	0.105	1339344	keystroke_Key.enter	Key.enter	n/a
669.782	7.902	1339564	prompt	n/a	ended cubic storage raise\n
670.5865	0.0905	1341173	keystroke_e	e	n/a
670.9315	0.12	1341863	keystroke_n	n	n/a
671.1415	0.0605	1342283	keystroke_d	d	n/a
671.4565	0.075	1342913	keystroke_e	e	n/a
671.787	0.0445	1343574	keystroke_d	d	n/a
672.0565	0.105	1344113	keystroke_Key.space	Key.space	n/a
672.2075	0.075	1344415	keystroke_c	c	n/a
672.4165	0.12	1344833	keystroke_u	u	n/a
672.5825	0.075	1345165	keystroke_b	b	n/a
672.7915	0.106	1345583	keystroke_i	i	n/a
673.0465	0.0755	1346093	keystroke_c	c	n/a
673.6315	0.105	1347263	keystroke_Key.space	Key.space	n/a
673.8565	0.091	1347713	keystroke_s	s	n/a
674.1865	0.0605	1348373	keystroke_t	t	n/a
674.3665	0.09	1348733	keystroke_o	o	n/a
674.5025	0.059	1349005	keystroke_r	r	n/a
674.8165	0.045	1349633	keystroke_a	a	n/a
675.1015	0.0755	1350203	keystroke_g	g	n/a
675.3565	0.06	1350713	keystroke_e	e	n/a
675.642	0.1345	1351284	keystroke_Key.space	Key.space	n/a
675.9115	0.045	1351823	keystroke_r	r	n/a
676.2425	0.0745	1352485	keystroke_a	a	n/a
676.542	0.075	1353084	keystroke_i	i	n/a
676.6615	0.075	1353323	keystroke_s	s	n/a
676.917	0.0595	1353834	keystroke_e	e	n/a
677.5465	0.135	1355093	keystroke_Key.enter	Key.enter	n/a
677.687	11.0975	1355374	prompt	n/a	someone contacted eval japanese\n
678.5065	0.075	1357013	keystroke_s	s	n/a
678.6865	0.075	1357373	keystroke_o	o	n/a
678.852	0.0895	1357704	keystroke_m	m	n/a
678.9715	0.061	1357943	keystroke_e	e	n/a
679.0765	0.0755	1358153	keystroke_o	o	n/a
679.242	0.105	1358484	keystroke_n	n	n/a
679.377	0.0595	1358754	keystroke_e	e	n/a
679.602	0.09	1359204	keystroke_Key.space	Key.space	n/a
679.722	0.075	1359444	keystroke_c	c	n/a
679.8115	0.06	1359623	keystroke_o	o	n/a
680.0075	0.104	1360015	keystroke_n	n	n/a
680.1865	0.1055	1360373	keystroke_t	t	n/a
680.277	0.075	1360554	keystroke_r	r	n/a
680.5465	0.045	1361093	keystroke_a	a	n/a
680.7865	0.06	1361573	keystroke_c	c	n/a
681.087	0.03	1362174	keystroke_t	t	n/a
681.2815	0.06	1362563	keystroke_e	e	n/a
681.477	0.06	1362954	keystroke_d	d	n/a
681.687	0.09	1363374	keystroke_Key.space	Key.space	n/a
681.852	0.075	1363704	keystroke_e	e	n/a
682.1825	0.075	1364365	keystroke_v	v	n/a
682.677	0.0745	1365354	keystroke_a	a	n/a
682.8575	0.104	1365715	keystroke_l	l	n/a
683.1865	0.075	1366373	keystroke_Key.space	Key.space	n/a
683.367	0.0905	1366734	keystroke_k	k	n/a
683.577	0.0595	1367154	keystroke_a	a	n/a
684.237	0.0895	1368474	keystroke_Key.backspace	Key.backspace	n/a
684.4315	0.12	1368863	keystroke_Key.backspace	Key.backspace	n/a
685.2125	0.075	1370425	keystroke_j	j	n/a
685.3615	0.06	1370723	keystroke_a	a	n/a
685.4675	0.09	1370935	keystroke_p	p	n/a
686.0975	0.075	1372195	keystroke_a	a	n/a
686.2175	0.0745	1372435	keystroke_n	n	n/a
686.367	0.075	1372734	keystroke_e	e	n/a
687.522	0.0755	1375044	keystroke_s	s	n/a
687.7475	0.075	1375495	keystroke_e	e	n/a
688.662	0.1195	1377324	keystroke_Key.enter	Key.enter	n/a
688.788	9.806	1377576	prompt	n/a	jacket top reflect isaac\n
693.179	0.043	1386358	keystroke_j	j	n/a
693.207	0.075	1386414	keystroke_a	a	n/a
693.4175	0.0895	1386835	keystroke_c	c	n/a
694.062	0.075	1388124	keystroke_k	k	n/a
694.182	0.075	1388364	keystroke_e	e	n/a
694.392	0.06	1388784	keystroke_t	t	n/a
694.872	0.15	1389744	keystroke_Key.space	Key.space	n/a
695.232	0.0755	1390464	keystroke_t	t	n/a
695.3225	0.1645	1390645	keystroke_o	o	n/a
695.4275	0.1495	1390855	keystroke_p	p	n/a
695.6215	0.15	1391243	keystroke_Key.space	Key.space	n/a
695.7575	0.09	1391515	keystroke_r	r	n/a
695.8765	0.0755	1391753	keystroke_e	e	n/a
696.027	0.0895	1392054	keystroke_f	f	n/a
696.1925	0.075	1392385	keystroke_l	l	n/a
696.252	0.0595	1392504	keystroke_e	e	n/a
696.4165	0.0755	1392833	keystroke_c	c	n/a
696.627	0.0595	1393254	keystroke_t	t	n/a
696.942	0.15	1393884	keystroke_Key.space	Key.space	n/a
697.1365	0.106	1394273	keystroke_i	i	n/a
697.4675	0.0595	1394935	keystroke_s	s	n/a
697.6165	0.06	1395233	keystroke_s	s	n/a
697.8415	0.0605	1395683	keystroke_a	a	n/a
698.0665	0.0755	1396133	keystroke_c	c	n/a
698.502	0.0895	1397004	keystroke_Key.enter	Key.enter	n/a
698.5975	8.966	1397195	prompt	n/a	files packard basement clarke\n
699.4915	0.075	1398983	keystroke_f	f	n/a
699.612	0.09	1399224	keystroke_i	i	n/a
699.7315	0.135	1399463	keystroke_l	l	n/a
699.8815	0.061	1399763	keystroke_e	e	n/a
700.0315	0.076	1400063	keystroke_s	s	n/a
700.1815	0.15	1400363	keystroke_Key.space	Key.space	n/a
700.317	0.12	1400634	keystroke_p	p	n/a
700.452	0.0445	1400904	keystroke_a	a	n/a
700.6465	0.06	1401293	keystroke_c	c	n/a
700.737	0.0895	1401474	keystroke_k	k	n/a
700.872	0.0595	1401744	keystroke_a	a	n/a
701.0665	0.06	1402133	keystroke_r	r	n/a
701.262	0.075	1402524	keystroke_d	d	n/a
701.7115	0.1055	1403423	keystroke_Key.space	Key.space	n/a
702.1175	0.09	1404235	keystroke_b	b	n/a
704.6695	0	1409339	keystroke_a	a	n/a
704.7725	0.075	1409545	keystroke_s	s	n/a
704.9825	0.0595	1409965	keystroke_e	e	n/a
705.297	0.1045	1410594	keystroke_m	m	n/a
705.4025	0.06	1410805	keystroke_e	e	n/a
705.5365	0.091	1411073	keystroke_n	n	n/a
705.6565	0.075	1411313	keystroke_t	t	n/a
705.867	0.105	1411734	keystroke_Key.space	Key.space	n/a
706.287	0.03	1412574	keystroke_c	c	n/a
706.377	0.075	1412754	keystroke_l	l	n/a
706.6175	0.0595	1413235	keystroke_a	a	n/a
706.812	0.0605	1413624	keystroke_r	r	n/a
707.067	0.075	1414134	keystroke_k	k	n/a
707.2175	0.0745	1414435	keystroke_e	e	n/a
707.487	0.0745	1414974	keystroke_Key.enter	Key.enter	n/a
707.567	10.7825	1415134	prompt	n/a	prayer petroleum clinics romania\n
708.3425	0.15	1416685	keystroke_p	p	n/a
708.4475	0.075	1416895	keystroke_r	r	n/a
708.6575	0.075	1417315	keystroke_a	a	n/a
708.7925	0.075	1417585	keystroke_y	y	n/a
708.912	0.0895	1417824	keystroke_e	e	n/a
708.972	0.105	1417944	keystroke_r	r	n/a
709.1815	0.1055	1418363	keystroke_Key.space	Key.space	n/a
709.4815	0.015	1418963	keystroke_p	p	n/a
709.677	0.0905	1419354	keystroke_e	e	n/a
709.977	0.0745	1419954	keystroke_t	t	n/a
710.0815	0.091	1420163	keystroke_r	r	n/a
710.2475	0.105	1420495	keystroke_o	o	n/a
710.4725	0.105	1420945	keystroke_l	l	n/a
710.9225	0.075	1421845	keystroke_e	e	n/a
711.0725	0.044	1422145	keystroke_u	u	n/a
711.3125	0.075	1422625	keystroke_m	m	n/a
711.7615	0.09	1423523	keystroke_Key.space	Key.space	n/a
712.167	0.06	1424334	keystroke_l	l	n/a
712.557	0.09	1425114	keystroke_Key.backspace	Key.backspace	n/a
712.692	0.0755	1425384	keystroke_c	c	n/a
712.797	0.09	1425594	keystroke_l	l	n/a
713.067	0.045	1426134	keystroke_i	i	n/a
713.8775	0.075	1427755	keystroke_n	n	n/a
714.0725	0.089	1428145	keystroke_i	i	n/a
714.2075	0.06	1428415	keystroke_c	c	n/a
714.402	0.075	1428804	keystroke_s	s	n/a
715.017	0.075	1430034	keystroke_Key.space	Key.space	n/a
715.392	0.075	1430784	keystroke_r	r	n/a
716.0965	0.105	1432193	keystroke_o	o	n/a
716.412	0.09	1432824	keystroke_m	m	n/a
716.7565	0.06	1433513	keystroke_a	a	n/a
717.4475	0.134	1434895	keystroke_n	n	n/a
717.6425	0.105	1435285	keystroke_i	i	n/a
717.8975	0.059	1435795	keystroke_a	a	n/a
718.2725	0.075	1436545	keystroke_Key.enter	Key.enter	n/a
718.353	12.056	1436706	prompt	n/a	productions substantially relates supported\n
719.292	0.12	1438584	keystroke_p	p	n/a
719.4875	0.06	1438975	keystroke_r	r	n/a
719.667	0.0755	1439334	keystroke_o	o	n/a
719.7725	0.0895	1439545	keystroke_d	d	n/a
719.937	0.0755	1439874	keystroke_u	u	n/a
720.0715	0.061	1440143	keystroke_c	c	n/a
720.6725	0.059	1441345	keystroke_a	a	n/a
721.302	0.09	1442604	keystroke_Key.backspace	Key.backspace	n/a
721.8425	0.0745	1443685	keystroke_t	t	n/a
721.947	0.105	1443894	keystroke_i	i	n/a
722.022	0.105	1444044	keystroke_o	o	n/a
722.262	0.075	1444524	keystroke_n	n	n/a
722.367	0.09	1444734	keystroke_s	s	n/a
