onset	duration	sample	value	key	prompt_text
2.908	11.69	5816	prompt	n/a	the quick brown fox jumps over a lazy dog\n
4.5555	0.095	9111	keystroke_t	t	n/a
4.6665	0.088	9333	keystroke_h	h	n/a
4.8025	0.08	9605	keystroke_e	e	n/a
4.939	0.056	9878	keystroke_Key.space	Key.space	n/a
5.299	0.113	10598	keystroke_u	u	n/a
5.6675	0.087	11335	keystroke_i	i	n/a
6.318	0.0735	12636	keystroke_Key.backspace	Key.backspace	n/a
6.4735	0.088	12947	keystroke_Key.backspace	Key.backspace	n/a
7.1715	0.088	14343	keystroke_q	q	n/a
7.2985	0.08	14597	keystroke_u	u	n/a
7.4825	0.088	14965	keystroke_i	i	n/a
7.6025	0.072	15205	keystroke_c	c	n/a
7.7075	0.063	15415	keystroke_k	k	n/a
7.8425	0.08	15685	keystroke_Key.space	Key.space	n/a
8.0345	0.064	16069	keystroke_b	b	n/a
8.2425	0.072	16485	keystroke_r	r	n/a
8.3545	0.072	16709	keystroke_o	o	n/a
8.4425	0.064	16885	keystroke_w	w	n/a
8.5545	0.072	17109	keystroke_n	n	n/a
8.6985	0.08	17397	keystroke_Key.space	Key.space	n/a
8.963	0.0715	17926	keystroke_f	f	n/a
9.0665	0.072	18133	keystroke_o	o	n/a
9.2985	0.073	18597	keystroke_x	x	n/a
9.6505	0.0885	19301	keystroke_Key.space	Key.space	n/a
9.819	0.056	19638	keystroke_j	j	n/a
9.971	0.064	19942	keystroke_u	u	n/a
10.139	0.056	20278	keystroke_m	m	n/a
10.251	0.087	20502	keystroke_p	p	n/a
10.363	0.08	20726	keystroke_s	s	n/a
10.458	0.065	20916	keystroke_Key.space	Key.space	n/a
10.579	0.0635	21158	keystroke_o	o	n/a
10.6825	0.056	21365	keystroke_v	v	n/a
10.8025	0.0725	21605	keystroke_e	e	n/a
10.9225	0.072	21845	keystroke_r	r	n/a
11.0345	0.0725	22069	keystroke_Key.space	Key.space	n/a
11.1385	0.08	22277	keystroke_a	a	n/a
11.2265	0.08	22453	keystroke_Key.space	Key.space	n/a
11.4585	0.08	22917	keystroke_l	l	n/a
11.5945	0.072	23189	keystroke_a	a	n/a
11.786	0.072	23572	keystroke_z	z	n/a
12.138	0.056	24276	keystroke_Key.space	Key.space	n/a
12.482	0.08	24964	keystroke_Key.backspace	Key.backspace	n/a
12.627	0.071	25254	keystroke_y	y	n/a
12.754	0.08	25508	keystroke_Key.space	Key.space	n/a
13.387	0.079	26774	keystroke_d	d	n/a
13.483	0.08	26966	keystroke_o	o	n/a
13.627	0.0635	27254	keystroke_g	g	n/a
14.506	0.0885	29012	keystroke_Key.enter	Key.enter	n/a
14.6045	9.992	29209	prompt	n/a	assistance archives november laos\n
15.6345	0.096	31269	keystroke_a	a	n/a
15.8985	0.064	31797	keystroke_s	s	n/a
16.0505	0.08	32101	keystroke_s	s	n/a
16.1945	0.064	32389	keystroke_i	i	n/a
16.4505	0.104	32901	keystroke_s	s	n/a
16.8025	0.096	33605	keystroke_t	t	n/a
17.1705	0.096	34341	keystroke_a	a	n/a
17.3145	0.08	34629	keystroke_n	n	n/a
17.4345	0.072	34869	keystroke_c	c	n/a
17.5785	0.072	35157	keystroke_e	e	n/a
17.7065	0.072	35413	keystroke_Key.space	Key.space	n/a
17.9305	0.096	35861	keystroke_a	a	n/a
18.2105	0.096	36421	keystroke_c	c	n/a
18.6025	0.088	37205	keystroke_Key.backspace	Key.backspace	n/a
18.7385	0.088	37477	keystroke_r	r	n/a
19.0745	0.088	38149	keystroke_c	c	n/a
19.1865	0.072	38373	keystroke_h	h	n/a
19.3385	0.096	38677	keystroke_i	i	n/a
19.4825	0.08	38965	keystroke_v	v	n/a
19.6505	0.088	39301	keystroke_e	e	n/a
20.0345	0.096	40069	keystroke_s	s	n/a
20.2745	0.08	40549	keystroke_Key.space	Key.space	n/a
20.5065	0.096	41013	keystroke_m	m	n/a
20.8185	0.08	41637	keystroke_Key.backspace	Key.backspace	n/a
21.0425	0.08	42085	keystroke_n	n	n/a
21.1865	0.088	42373	keystroke_o	o	n/a
21.3465	0.064	42693	keystroke_v	v	n/a
21.5545	0.104	43109	keystroke_e	e	n/a
21.7545	0.104	43509	keystroke_m	m	n/a
22.0425	0.072	44085	keystroke_b	b	n/a
22.2345	0.096	44469	keystroke_e	e	n/a
22.402	0.072	44804	keystroke_r	r	n/a
22.522	0.072	45044	keystroke_Key.space	Key.space	n/a
22.722	0.112	45444	keystroke_l	l	n/a
23.219	0.079	46438	keystroke_a	a	n/a
23.339	0.0955	46678	keystroke_o	o	n/a
23.5305	0.088	47061	keystroke_s	s	n/a
24.514	0.08	49028	keystroke_Key.enter	Key.enter	n/a
24.6015	8.3075	49203	prompt	n/a	flux she's interactions applies\n
25.874	0.08	51748	keystroke_f	f	n/a
25.978	0.072	51956	keystroke_l	l	n/a
26.17	0.064	52340	keystroke_u	u	n/a
26.354	0.08	52708	keystroke_z	z	n/a
27.082	0.08	54164	keystroke_Key.backspace	Key.backspace	n/a
27.234	0.08	54468	keystroke_x	x	n/a
27.586	0.0965	55172	keystroke_Key.space	Key.space	n/a
27.7865	0.08	55573	keystroke_s	s	n/a
27.8985	0.072	55797	keystroke_h	h	n/a
28.0265	0.096	56053	keystroke_e	e	n/a
28.4825	0.096	56965	keystroke_'	'	n/a
28.8185	0.072	57637	keystroke_s	s	n/a
29.0905	0.096	58181	keystroke_Key.space	Key.space	n/a
29.4425	0.096	58885	keystroke_i	i	n/a
29.6105	0.072	59221	keystroke_n	n	n/a
29.7305	0.064	59461	keystroke_t	t	n/a
29.8585	0.088	59717	keystroke_e	e	n/a
30.0025	0.072	60005	keystroke_r	r	n/a
30.2905	0.096	60581	keystroke_a	a	n/a
30.5385	0.072	61077	keystroke_c	c	n/a
30.7705	0.064	61541	keystroke_t	t	n/a
30.8585	0.08	61717	keystroke_i	i	n/a
31.0185	0.08	62037	keystroke_o	o	n/a
31.1305	0.088	62261	keystroke_n	n	n/a
31.2745	0.072	62549	keystroke_s	s	n/a
31.3865	0.088	62773	keystroke_Key.space	Key.space	n/a
31.5145	0.096	63029	keystroke_a	a	n/a
31.6345	0.08	63269	keystroke_p	p	n/a
31.7945	0.064	63589	keystroke_p	p	n/a
31.9225	0.072	63845	keystroke_l	l	n/a
32.0985	0.08	64197	keystroke_i	i	n/a
32.2185	0.072	64437	keystroke_e	e	n/a
32.4025	0.072	64805	keystroke_s	s	n/a
32.8265	0.08	65653	keystroke_Key.enter	Key.enter	n/a
32.914	8.2425	65828	prompt	n/a	this's persistent prefers advice\n
33.7065	0.0875	67413	keystroke_t	t	n/a
33.803	0.063	67606	keystroke_h	h	n/a
33.931	0.096	67862	keystroke_i	i	n/a
34.226	0.08	68452	keystroke_s	s	n/a
34.547	0.096	69094	keystroke_'	'	n/a
34.97	0.072	69940	keystroke_s	s	n/a
35.282	0.064	70564	keystroke_Key.space	Key.space	n/a
35.483	0.087	70966	keystroke_p	p	n/a
35.634	0.089	71268	keystroke_e	e	n/a
35.794	0.072	71588	keystroke_r	r	n/a
36.259	0.08	72518	keystroke_s	s	n/a
36.435	0.072	72870	keystroke_i	i	n/a
36.555	0.096	73110	keystroke_s	s	n/a
36.786	0.073	73572	keystroke_t	t	n/a
36.923	0.064	73846	keystroke_e	e	n/a
37.011	0.079	74022	keystroke_n	n	n/a
37.171	0.088	74342	keystroke_t	t	n/a
37.33	0.08	74660	keystroke_Key.space	Key.space	n/a
37.515	0.088	75030	keystroke_p	p	n/a
37.851	0.0875	75702	keystroke_r	r	n/a
37.9945	0.096	75989	keystroke_e	e	n/a
38.3145	0.1125	76629	keystroke_f	f	n/a
38.539	0.119	77078	keystroke_e	e	n/a
38.843	0.088	77686	keystroke_r	r	n/a
39.1705	0.0885	78341	keystroke_s	s	n/a
39.426	0.08	78852	keystroke_Key.space	Key.space	n/a
39.563	0.088	79126	keystroke_a	a	n/a
39.723	0.1025	79446	keystroke_d	d	n/a
40.0425	0.096	80085	keystroke_v	v	n/a
40.2425	0.0725	80485	keystroke_i	i	n/a
40.45	0.096	80900	keystroke_c	c	n/a
40.635	0.088	81270	keystroke_e	e	n/a
41.0735	0.081	82147	keystroke_Key.enter	Key.enter	n/a
41.1625	7.986	82325	prompt	n/a	extended sustained drives executive\n
41.795	0.0785	83590	keystroke_e	e	n/a
42.027	0.088	84054	keystroke_x	x	n/a
42.2745	0.063	84549	keystroke_t	t	n/a
42.395	0.0955	84790	keystroke_e	e	n/a
42.546	0.073	85092	keystroke_n	n	n/a
42.6665	0.08	85333	keystroke_d	d	n/a
42.811	0.072	85622	keystroke_e	e	n/a
42.9935	0.08	85987	keystroke_d	d	n/a
43.163	0.0875	86326	keystroke_Key.space	Key.space	n/a
43.2905	0.088	86581	keystroke_s	s	n/a
43.4105	0.064	86821	keystroke_u	u	n/a
43.5305	0.095	87061	keystroke_s	s	n/a
43.7465	0.08	87493	keystroke_t	t	n/a
43.8975	0.081	87795	keystroke_a	a	n/a
44.0015	0.08	88003	keystroke_i	i	n/a
44.1545	0.071	88309	keystroke_n	n	n/a
44.2585	0.072	88517	keystroke_e	e	n/a
44.4425	0.071	88885	keystroke_d	d	n/a
44.5375	0.08	89075	keystroke_Key.space	Key.space	n/a
44.7465	0.119	89493	keystroke_d	d	n/a
45.0265	0.087	90053	keystroke_r	r	n/a
45.1535	0.08	90307	keystroke_i	i	n/a
45.3385	0.088	90677	keystroke_v	v	n/a
45.5305	0.087	91061	keystroke_e	e	n/a
45.7455	0.089	91491	keystroke_s	s	n/a
45.8655	0.081	91731	keystroke_Key.space	Key.space	n/a
46.1065	0.087	92213	keystroke_e	e	n/a
46.3535	0.121	92707	keystroke_x	x	n/a
46.8905	0.095	93781	keystroke_e	e	n/a
47.2015	0.112	94403	keystroke_c	c	n/a
47.4585	0.096	94917	keystroke_u	u	n/a
47.9695	0.08	95939	keystroke_t	t	n/a
48.0905	0.135	96181	keystroke_i	i	n/a
48.4265	0.08	96853	keystroke_v	v	n/a
48.6895	0.089	97379	keystroke_e	e	n/a
49.0585	0.087	98117	keystroke_Key.enter	Key.enter	n/a
49.153	8.2435	98306	prompt	n/a	blair discrete remove bottle\n
49.8025	0.103	99605	keystroke_l	l	n/a
50.0975	0.072	100195	keystroke_Key.backspace	Key.backspace	n/a
50.5705	0.087	101141	keystroke_b	b	n/a
50.7305	0.096	101461	keystroke_l	l	n/a
50.8905	0.103	101781	keystroke_a	a	n/a
51.0745	0.072	102149	keystroke_i	i	n/a
51.5785	0.087	103157	keystroke_r	r	n/a
51.8415	0.089	103683	keystroke_Key.space	Key.space	n/a
52.1295	0.096	104259	keystroke_d	d	n/a
52.2895	0.081	104579	keystroke_i	i	n/a
52.4905	0.087	104981	keystroke_s	s	n/a
53.2265	0.119	106453	keystroke_c	c	n/a
53.5305	0.112	107061	keystroke_r	r	n/a
53.8025	0.119	107605	keystroke_e	e	n/a
54.1065	0.103	108213	keystroke_t	t	n/a
54.5135	0.096	109027	keystroke_e	e	n/a
54.8735	0.097	109747	keystroke_Key.space	Key.space	n/a
55.0425	0.079	110085	keystroke_r	r	n/a
55.1625	0.087	110325	keystroke_e	e	n/a
55.2905	0.087	110581	keystroke_m	m	n/a
55.4255	0.089	110851	keystroke_o	o	n/a
55.5465	0.096	111093	keystroke_v	v	n/a
55.7215	0.08	111443	keystroke_e	e	n/a
55.8185	0.096	111637	keystroke_Key.space	Key.space	n/a
56.1065	0.079	112213	keystroke_b	b	n/a
56.1935	0.08	112387	keystroke_o	o	n/a
56.3695	0.08	112739	keystroke_t	t	n/a
56.5455	0.073	113091	keystroke_t	t	n/a
56.6345	0.079	113269	keystroke_l	l	n/a
56.7695	0.081	113539	keystroke_e	e	n/a
57.3215	0.072	114643	keystroke_Key.enter	Key.enter	n/a
57.405	7.6795	114810	prompt	n/a	treo mason virginia himself\n
58.0345	0.08	116069	keystroke_t	t	n/a
58.2025	0.112	116405	keystroke_r	r	n/a
58.8735	0.088	117747	keystroke_e	e	n/a
59.0575	0.096	118115	keystroke_o	o	n/a
59.5375	0.08	119075	keystroke_Key.space	Key.space	n/a
59.7305	0.079	119461	keystroke_m	m	n/a
59.8415	0.089	119683	keystroke_a	a	n/a
60.0335	0.089	120067	keystroke_s	s	n/a
60.2025	0.08	120405	keystroke_o	o	n/a
60.3625	0.087	120725	keystroke_n	n	n/a
60.5225	0.095	121045	keystroke_Key.space	Key.space	n/a
61.0975	0.072	122195	keystroke_v	v	n/a
61.2175	0.08	122435	keystroke_i	i	n/a
61.3935	0.072	122787	keystroke_r	r	n/a
61.6655	0.073	123331	keystroke_g	g	n/a
61.7705	0.088	123541	keystroke_i	i	n/a
62.4895	0.081	124979	keystroke_n	n	n/a
62.6585	0.088	125317	keystroke_i	i	n/a
62.8095	0.112	125619	keystroke_a	a	n/a
62.9375	0.08	125875	keystroke_Key.space	Key.space	n/a
63.1855	0.08	126371	keystroke_h	h	n/a
63.3385	0.087	126677	keystroke_i	i	n/a
63.5055	0.096	127011	keystroke_m	m	n/a
63.6825	0.072	127365	keystroke_s	s	n/a
63.8575	0.08	127715	keystroke_e	e	n/a
63.9305	0.08	127861	keystroke_l	l	n/a
64.0745	0.071	128149	keystroke_f	f	n/a
65.0015	0.08	130003	keystroke_Key.enter	Key.enter	n/a
65.091	15.049	130182	prompt	n/a	contribution hottest identified charitable\n
65.8025	0.095	131605	keystroke_c	c	n/a
65.9055	0.072	131811	keystroke_o	o	n/a
66.2185	0.071	132437	keystroke_t	t	n/a
66.3465	0.088	132693	keystroke_r	r	n/a
66.4665	0.104	132933	keystroke_i	i	n/a
66.8975	0.105	133795	keystroke_v	v	n/a
67.4895	0.096	134979	keystroke_Key.backspace	Key.backspace	n/a
67.6895	0.072	135379	keystroke_Key.backspace	Key.backspace	n/a
67.8655	0.08	135731	keystroke_Key.backspace	Key.backspace	n/a
68.0415	0.08	136083	keystroke_Key.backspace	Key.backspace	n/a
68.7305	0.071	137461	keystroke_n	n	n/a
69.0575	0.088	138115	keystroke_t	t	n/a
69.6415	0.088	139283	keystroke_r	r	n/a
69.8895	0.105	139779	keystroke_i	i	n/a
70.0815	0.08	140163	keystroke_b	b	n/a
70.2095	0.08	140419	keystroke_u	u	n/a
70.5385	0.071	141077	keystroke_t	t	n/a
70.6505	0.087	141301	keystroke_i	i	n/a
70.8335	0.088	141667	keystroke_o	o	n/a
71.0575	0.112	142115	keystroke_n	n	n/a
71.5695	0.08	143139	keystroke_Key.space	Key.space	n/a
71.7855	0.064	143571	keystroke_h	h	n/a
71.9295	0.08	143859	keystroke_o	o	n/a
72.0655	0.072	144131	keystroke_t	t	n/a
72.2185	0.071	144437	keystroke_t	t	n/a
72.3455	0.072	144691	keystroke_e	e	n/a
72.5545	0.112	145109	keystroke_s	s	n/a
72.8815	0.088	145763	keystroke_t	t	n/a
73.1535	0.08	146307	keystroke_Key.space	Key.space	n/a
73.3615	0.089	146723	keystroke_i	i	n/a
73.5535	0.0965	147107	keystroke_n	n	n/a
73.906	0.064	147812	keystroke_Key.backspace	Key.backspace	n/a
74.01	0.088	148020	keystroke_d	d	n/a
74.17	0.096	148340	keystroke_e	e	n/a
74.29	0.096	148580	keystroke_n	n	n/a
74.49	0.08	148980	keystroke_t	t	n/a
74.674	0.12	149348	keystroke_i	i	n/a
75.658	0.088	151316	keystroke_f	f	n/a
75.778	0.08	151556	keystroke_i	i	n/a
75.874	0.08	151748	keystroke_e	e	n/a
76.074	0.088	152148	keystroke_d	d	n/a
76.858	0.112	153716	keystroke_Key.space	Key.space	n/a
77.074	0.096	154148	keystroke_c	c	n/a
77.194	0.08	154388	keystroke_h	h	n/a
77.346	0.136	154692	keystroke_a	a	n/a
77.738	0.128	155476	keystroke_r	r	n/a
78.018	0.088	156036	keystroke_i	i	n/a
78.338	0.104	156676	keystroke_t	t	n/a
78.674	0.096	157348	keystroke_a	a	n/a
78.906	0.072	157812	keystroke_b	b	n/a
79.018	0.096	158036	keystroke_l	l	n/a
79.202	0.072	158404	keystroke_e	e	n/a
80.058	0.08	160116	keystroke_Key.enter	Key.enter	n/a
80.1455	9.4345	160291	prompt	n/a	promptly year drunk district\n
80.81	0.128	161620	keystroke_p	p	n/a
81.01	0.088	162020	keystroke_r	r	n/a
81.13	0.088	162260	keystroke_o	o	n/a
81.33	0.08	162660	keystroke_m	m	n/a
81.578	0.12	163156	keystroke_p	p	n/a
82.258	0.088	164516	keystroke_t	t	n/a
82.514	0.136	165028	keystroke_l	l	n/a
82.794	0.096	165588	keystroke_y	y	n/a
83.994	0.096	167988	keystroke_Key.space	Key.space	n/a
84.426	0.016	168852	keystroke_y	y	n/a
84.882	0.088	169764	keystroke_e	e	n/a
85.0825	0.0875	170165	keystroke_a	a	n/a
85.258	0.088	170516	keystroke_r	r	n/a
85.442	0.096	170884	keystroke_Key.space	Key.space	n/a
85.634	0.072	171268	keystroke_s	s	n/a
85.93	0.072	171860	keystroke_Key.backspace	Key.backspace	n/a
86.003	0.119	172006	keystroke_d	d	n/a
86.45	0.088	172900	keystroke_r	r	n/a
86.618	0.104	173236	keystroke_u	u	n/a
86.834	0.096	173668	keystroke_n	n	n/a
87.018	0.104	174036	keystroke_k	k	n/a
87.234	0.096	174468	keystroke_Key.space	Key.space	n/a
87.57	0.088	175140	keystroke_d	d	n/a
87.69	0.088	175380	keystroke_i	i	n/a
87.874	0.088	175748	keystroke_s	s	n/a
88.098	0.08	176196	keystroke_t	t	n/a
88.234	0.12	176468	keystroke_r	r	n/a
88.474	0.096	176948	keystroke_i	i	n/a
88.8815	0.128	177763	keystroke_c	c	n/a
89.1535	0.064	178307	keystroke_t	t	n/a
89.5055	0.072	179011	keystroke_Key.enter	Key.enter	n/a
89.586	6.4015	179172	prompt	n/a	booking wizard singer editors\n
90.2735	0.089	180547	keystroke_b	b	n/a
90.4095	0.073	180819	keystroke_o	o	n/a
90.5695	0.072	181139	keystroke_o	o	n/a
90.6985	0.08	181397	keystroke_k	k	n/a
90.8665	0.087	181733	keystroke_i	i	n/a
90.9295	0.113	181859	keystroke_n	n	n/a
91.0905	0.072	182181	keystroke_g	g	n/a
91.1775	0.096	182355	keystroke_Key.space	Key.space	n/a
91.3545	0.095	182709	keystroke_w	w	n/a
91.4745	0.088	182949	keystroke_i	i	n/a
91.6735	0.089	183347	keystroke_z	z	n/a
92.097	0.1125	184194	keystroke_a	a	n/a
92.3625	0.103	184725	keystroke_r	r	n/a
92.5945	0.088	185189	keystroke_d	d	n/a
93.0655	0.081	186131	keystroke_Key.space	Key.space	n/a
93.2815	0.089	186563	keystroke_s	s	n/a
93.3705	0.08	186741	keystroke_i	i	n/a
93.5055	0.064	187011	keystroke_n	n	n/a
93.6175	0.065	187235	keystroke_g	g	n/a
93.7465	0.08	187493	keystroke_e	e	n/a
93.8895	0.08	187779	keystroke_r	r	n/a
94.0575	0.088	188115	keystroke_Key.space	Key.space	n/a
94.2975	0.088	188595	keystroke_e	e	n/a
94.5375	0.104	189075	keystroke_d	d	n/a
94.7305	0.087	189461	keystroke_i	i	n/a
94.9055	0.081	189811	keystroke_t	t	n/a
95.1225	0.079	190245	keystroke_o	o	n/a
95.2975	0.089	190595	keystroke_r	r	n/a
95.4895	0.088	190979	keystroke_s	s	n/a
95.8975	0.088	191795	keystroke_Key.enter	Key.enter	n/a
95.9935	11.578	191987	prompt	n/a	invasion referral rider programme\n
96.5945	0.095	193189	keystroke_i	i	n/a
96.7695	0.073	193539	keystroke_n	n	n/a
96.9375	0.12	193875	keystroke_c	c	n/a
97.1855	0.096	194371	keystroke_a	a	n/a
97.4015	0.088	194803	keystroke_s	s	n/a
97.7295	0.08	195459	keystroke_Key.backspace	Key.backspace	n/a
97.8975	0.072	195795	keystroke_Key.backspace	Key.backspace	n/a
98.0335	0.096	196067	keystroke_Key.backspace	Key.backspace	n/a
98.1375	0.089	196275	keystroke_c	c	n/a
98.681	0.08	197362	keystroke_Key.backspace	Key.backspace	n/a
98.9455	0.073	197891	keystroke_v	v	n/a
99.1305	0.095	198261	keystroke_a	a	n/a
99.3375	0.0805	198675	keystroke_s	s	n/a
99.561	0.088	199122	keystroke_i	i	n/a
99.753	0.072	199506	keystroke_o	o	n/a
99.905	0.08	199810	keystroke_n	n	n/a
100.073	0.096	200146	keystroke_Key.space	Key.space	n/a
100.273	0.08	200546	keystroke_r	r	n/a
100.409	0.088	200818	keystroke_e	e	n/a
100.634	0.08	201268	keystroke_f	f	n/a
100.826	0.112	201652	keystroke_e	e	n/a
101.05	0.088	202100	keystroke_r	r	n/a
101.201	0.096	202402	keystroke_e	e	n/a
101.9375	0.088	203875	keystroke_Key.backspace	Key.backspace	n/a
102.7855	0.112	205571	keystroke_r	r	n/a
103.2175	0.08	206435	keystroke_a	a	n/a
103.4495	0.112	206899	keystroke_l	l	n/a
103.6655	0.096	207331	keystroke_Key.space	Key.space	n/a
103.8735	0.088	207747	keystroke_r	r	n/a
103.9855	0.072	207971	keystroke_i	i	n/a
104.1055	0.088	208211	keystroke_d	d	n/a
104.2575	0.08	208515	keystroke_e	e	n/a
104.4095	0.072	208819	keystroke_r	r	n/a
104.5295	0.08	209059	keystroke_Key.space	Key.space	n/a
104.7375	0.104	209475	keystroke_p	p	n/a
104.8815	0.088	209763	keystroke_r	r	n/a
105.0095	0.088	210019	keystroke_o	o	n/a
105.5935	0.104	211187	keystroke_g	g	n/a
105.9535	0.112	211907	keystroke_r	r	n/a
106.1695	0.096	212339	keystroke_a	a	n/a
106.3535	0.088	212707	keystroke_m	m	n/a
106.5375	0.096	213075	keystroke_m	m	n/a
106.7535	0.088	213507	keystroke_e	e	n/a
107.4815	0.088	214963	keystroke_Key.enter	Key.enter	n/a
107.5765	10.8025	215153	prompt	n/a	helpful javascript fair resolved\n
108.2335	0.088	216467	keystroke_h	h	n/a
108.3695	0.088	216739	keystroke_e	e	n/a
108.4975	0.088	216995	keystroke_l	l	n/a
109.1775	0.104	218355	keystroke_p	p	n/a
109.9615	0.088	219923	keystroke_f	f	n/a
110.1855	0.096	220371	keystroke_u	u	n/a
110.5375	0.112	221075	keystroke_l	l	n/a
110.8415	0.096	221683	keystroke_Key.space	Key.space	n/a
111.1295	0.088	222259	keystroke_j	j	n/a
111.3295	0.096	222659	keystroke_a	a	n/a
111.5695	0.04	223139	keystroke_v	v	n/a
112.0895	0.104	224179	keystroke_a	a	n/a
112.4655	0.088	224931	keystroke_s	s	n/a
112.6495	0.088	225299	keystroke_c	c	n/a
112.8495	0.064	225699	keystroke_r	r	n/a
112.9455	0.08	225891	keystroke_i	i	n/a
113.1535	0.088	226307	keystroke_p	p	n/a
113.5615	0.096	227123	keystroke_t	t	n/a
114.0095	0.088	228019	keystroke_Key.space	Key.space	n/a
114.5935	0.08	229187	keystroke_f	f	n/a
114.7215	0.08	229443	keystroke_a	a	n/a
114.8175	0.072	229635	keystroke_i	i	n/a
114.9695	0.08	229939	keystroke_r	r	n/a
115.4095	0.088	230819	keystroke_Key.space	Key.space	n/a
115.8335	0.088	231667	keystroke_r	r	n/a
115.9695	0.088	231939	keystroke_e	e	n/a
116.1775	0.08	232355	keystroke_s	s	n/a
116.3535	0.096	232707	keystroke_o	o	n/a
116.7935	0.112	233587	keystroke_l	l	n/a
117.0815	0.088	234163	keystroke_v	v	n/a
117.2975	0.096	234595	keystroke_e	e	n/a
117.4975	0.088	234995	keystroke_d	d	n/a
118.2735	0.104	236547	keystroke_Key.enter	Key.enter	n/a
118.3845	5.938	236769	prompt	n/a	though armor waters usda\n
119.1695	0.088	238339	keystroke_t	t	n/a
119.2735	0.08	238547	keystroke_h	h	n/a
119.3775	0.08	238755	keystroke_r	r	n/a
119.4655	0.064	238931	keystroke_o	o	n/a
119.5935	0.08	239187	keystroke_u	u	n/a
119.7055	0.08	239411	keystroke_g	g	n/a
119.8095	0.08	239619	keystroke_h	h	n/a
120.2735	0.088	240547	keystroke_Key.space	Key.space	n/a
120.4895	0.096	240979	keystroke_a	a	n/a
120.7055	0.08	241411	keystroke_r	r	n/a
120.8895	0.072	241779	keystroke_m	m	n/a
121.0495	0.08	242099	keystroke_o	o	n/a
121.2655	0.08	242531	keystroke_r	r	n/a
121.4415	0.088	242883	keystroke_Key.space	Key.space	n/a
121.8495	0.128	243699	keystroke_w	w	n/a
122.0575	0.104	244115	keystroke_a	a	n/a
122.2495	0.08	244499	keystroke_t	t	n/a
122.4335	0.104	244867	keystroke_e	e	n/a
122.6255	0.064	245251	keystroke_r	r	n/a
122.8015	0.08	245603	keystroke_s	s	n/a
122.9055	0.08	245811	keystroke_Key.space	Key.space	n/a
123.1455	0.08	246291	keystroke_u	u	n/a
123.2495	0.096	246499	keystroke_s	s	n/a
123.7455	0.112	247491	keystroke_d	d	n/a
123.9455	0.072	247891	keystroke_a	a	n/a
124.2415	0.08	248483	keystroke_Key.enter	Key.enter	n/a
124.3285	7.2505	248657	prompt	n/a	produced warm ipaq profile\n
124.8975	0.104	249795	keystroke_p	p	n/a
125.0735	0.08	250147	keystroke_r	r	n/a
125.1615	0.072	250323	keystroke_o	o	n/a
125.3935	0.096	250787	keystroke_d	d	n/a
125.5455	0.072	251091	keystroke_u	u	n/a
125.5855	0.016	251171	keystroke_i	i	n/a
126.0735	0.096	252147	keystroke_Key.backspace	Key.backspace	n/a
126.3215	0.096	252643	keystroke_c	c	n/a
126.5215	0.104	253043	keystroke_e	e	n/a
126.8255	0.096	253651	keystroke_d	d	n/a
127.2085	0.089	254417	keystroke_Key.space	Key.space	n/a
127.3615	0.088	254723	keystroke_w	w	n/a
127.5295	0.072	255059	keystroke_a	a	n/a
127.6735	0.08	255347	keystroke_r	r	n/a
127.8175	0.12	255635	keystroke_m	m	n/a
128.0735	0.08	256147	keystroke_Key.space	Key.space	n/a
128.2495	0.104	256499	keystroke_i	i	n/a
128.5135	0.096	257027	keystroke_p	p	n/a
128.7295	0.088	257459	keystroke_a	a	n/a
129.2015	0.096	258403	keystroke_q	q	n/a
129.5135	0.104	259027	keystroke_Key.space	Key.space	n/a
129.8495	0.12	259699	keystroke_p	p	n/a
130.0255	0.088	260051	keystroke_r	r	n/a
130.1455	0.104	260291	keystroke_o	o	n/a
130.3375	0.104	260675	keystroke_f	f	n/a
130.4735	0.096	260947	keystroke_i	i	n/a
130.7375	0.088	261475	keystroke_l	l	n/a
131.1375	0.088	262275	keystroke_e	e	n/a
131.4975	0.0795	262995	keystroke_Key.enter	Key.enter	n/a
131.5855	20.738	263171	prompt	n/a	grateful find dominant shouldn't've\n
132.777	0.08	265554	keystroke_g	g	n/a
132.977	0.064	265954	keystroke_r	r	n/a
133.177	0.088	266354	keystroke_a	a	n/a
133.369	0.08	266738	keystroke_t	t	n/a
133.457	0.104	266914	keystroke_e	e	n/a
134.177	0.088	268354	keystroke_f	f	n/a
134.321	0.104	268642	keystroke_u	u	n/a
134.673	0.104	269346	keystroke_l	l	n/a
134.897	0.08	269794	keystroke_Key.space	Key.space	n/a
135.193	0.112	270386	keystroke_f	f	n/a
135.353	0.08	270706	keystroke_i	i	n/a
135.489	0.088	270978	keystroke_n	n	n/a
135.729	0.096	271458	keystroke_d	d	n/a
136.001	0.096	272002	keystroke_Key.space	Key.space	n/a
136.185	0.096	272370	keystroke_d	d	n/a
136.305	0.08	272610	keystroke_o	o	n/a
136.473	0.072	272946	keystroke_m	m	n/a
136.617	0.088	273234	keystroke_i	i	n/a
136.721	0.096	273442	keystroke_n	n	n/a
137.033	0.088	274066	keystroke_a	a	n/a
137.129	0.096	274258	keystroke_n	n	n/a
137.337	0.064	274674	keystroke_t	t	n/a
137.513	0.088	275026	keystroke_Key.space	Key.space	n/a
137.713	0.072	275426	keystroke_s	s	n/a
137.817	0.08	275634	keystroke_h	h	n/a
137.977	0.072	275954	keystroke_o	o	n/a
138.081	0.088	276162	keystroke_u	u	n/a
138.465	0.112	276930	keystroke_l	l	n/a
140.249	0.104	280498	keystroke_n	n	n/a
141.505	0.12	283010	keystroke_Key.backspace	Key.backspace	n/a
142.257	0.088	284514	keystroke_d	d	n/a
144.241	0.104	288482	keystroke_n	n	n/a
144.689	0.104	289378	keystroke_;	;	n/a
145.161	0.128	290322	keystroke_Key.backspace	Key.backspace	n/a
145.497	0.128	290994	keystroke_'	'	n/a
149.737	0.104	299474	keystroke_t	t	n/a
150.4485	0.1285	300897	keystroke_'	'	n/a
151.033	0.12	302066	keystroke_v	v	n/a
151.249	0.096	302498	keystroke_e	e	n/a
152.233	0.088	304466	keystroke_Key.enter	Key.enter	n/a
152.331	9.055	304662	prompt	n/a	predictions betty examined alan\n
153.137	0.1035	306274	keystroke_p	p	n/a
153.2965	0.112	306593	keystroke_r	r	n/a
153.4175	0.087	306835	keystroke_e	e	n/a
153.697	0.144	307394	keystroke_d	d	n/a
153.929	0.088	307858	keystroke_i	i	n/a
154.801	0.112	309602	keystroke_c	c	n/a
155.177	0.0875	310354	keystroke_t	t	n/a
155.3685	0.0805	310737	keystroke_i	i	n/a
155.5605	0.072	311121	keystroke_o	o	n/a
155.713	0.0715	311426	keystroke_n	n	n/a
155.8325	0.0805	311665	keystroke_s	s	n/a
155.9285	0.088	311857	keystroke_Key.space	Key.space	n/a
156.1525	0.072	312305	keystroke_p	p	n/a
156.4165	0.064	312833	keystroke_Key.backspace	Key.backspace	n/a
156.5125	0.096	313025	keystroke_b	b	n/a
156.6805	0.096	313361	keystroke_e	e	n/a
156.8565	0.072	313713	keystroke_t	t	n/a
157.0085	0.0565	314017	keystroke_t	t	n/a
157.4405	0.104	314881	keystroke_y	y	n/a
157.8965	0.096	315793	keystroke_Key.space	Key.space	n/a
158.233	0.0875	316466	keystroke_e	e	n/a
158.4565	0.096	316913	keystroke_x	x	n/a
158.6485	0.088	317297	keystroke_a	a	n/a
159.0645	0.136	318129	keystroke_m	m	n/a
159.4485	0.096	318897	keystroke_i	i	n/a
159.6565	0.08	319313	keystroke_n	n	n/a
159.8165	0.104	319633	keystroke_e	e	n/a
160.2725	0.08	320545	keystroke_d	d	n/a
160.5685	0.064	321137	keystroke_Key.space	Key.space	n/a
160.7125	0.08	321425	keystroke_a	a	n/a
160.8085	0.104	321617	keystroke_l	l	n/a
160.9525	0.088	321905	keystroke_a	a	n/a
161.0805	0.072	322161	keystroke_n	n	n/a
161.3045	0.08	322609	keystroke_Key.enter	Key.enter	n/a
161.3915	8.7075	322783	prompt	n/a	swingers what'll advocacy liquid\n
162.0325	0.08	324065	keystroke_s	s	n/a
162.2325	0.096	324465	keystroke_w	w	n/a
162.4245	0.096	324849	keystroke_i	i	n/a
162.6165	0.08	325233	keystroke_n	n	n/a
162.8085	0.08	325617	keystroke_g	g	n/a
162.9845	0.096	325969	keystroke_e	e	n/a
163.1845	0.088	326369	keystroke_r	r	n/a
163.4245	0.088	326849	keystroke_s	s	n/a
163.7845	0.12	327569	keystroke_Key.space	Key.space	n/a
164.3125	0.088	328625	keystroke_w	w	n/a
164.4565	0.064	328913	keystroke_h	h	n/a
164.5445	0.088	329089	keystroke_a	a	n/a
164.7445	0.072	329489	keystroke_t	t	n/a
165.1045	0.104	330209	keystroke_'	'	n/a
165.3845	0.104	330769	keystroke_l	l	n/a
165.5685	0.088	331137	keystroke_l	l	n/a
166.0485	0.072	332097	keystroke_Key.space	Key.space	n/a
166.3125	0.096	332625	keystroke_a	a	n/a
166.4805	0.104	332961	keystroke_d	d	n/a
166.7925	0.088	333585	keystroke_v	v	n/a
167.0645	0.104	334129	keystroke_o	o	n/a
167.6405	0.112	335281	keystroke_c	c	n/a
168.0165	0.112	336033	keystroke_a	a	n/a
168.3205	0.112	336641	keystroke_c	c	n/a
168.6005	0.072	337201	keystroke_t	t	n/a
168.7445	0.088	337489	keystroke_Key.space	Key.space	n/a
168.9365	0.088	337873	keystroke_l	l	n/a
169.1205	0.088	338241	keystroke_i	i	n/a
169.2885	0.088	338577	keystroke_q	q	n/a
169.4175	0.079	338835	keystroke_u	u	n/a
169.6005	0.08	339201	keystroke_i	i	n/a
169.7045	0.08	339409	keystroke_d	d	n/a
170.0245	0.072	340049	keystroke_Key.enter	Key.enter	n/a
170.1055	15.369	340211	prompt	n/a	always joseph christopher everyone\n
171.8965	0.104	343793	keystroke_a	a	n/a
172.0085	0.088	344017	keystroke_l	l	n/a
172.3125	0.104	344625	keystroke_w	w	n/a
172.5285	0.112	345057	keystroke_a	a	n/a
172.7765	0.104	345553	keystroke_t	t	n/a
173.0805	0.088	346161	keystroke_s	s	n/a
173.2245	0.088	346449	keystroke_Key.space	Key.space	n/a
173.7765	0.128	347553	keystroke_j	j	n/a
174.1765	0.08	348353	keystroke_Key.backspace	Key.backspace	n/a
174.3365	0.088	348673	keystroke_Key.backspace	Key.backspace	n/a
174.4965	0.096	348993	keystroke_Key.backspace	Key.backspace	n/a
174.6485	0.096	349297	keystroke_y	y	n/a
175.0005	0.072	350001	keystroke_Key.backspace	Key.backspace	n/a
175.1365	0.088	350273	keystroke_Key.backspace	Key.backspace	n/a
175.2165	0.08	350433	keystroke_y	y	n/a
175.4005	0.08	350801	keystroke_Key.space	Key.space	n/a
175.7285	0.072	351457	keystroke_Key.backspace	Key.backspace	n/a
175.8325	0.08	351665	keystroke_s	s	n/a
175.9445	0.08	351889	keystroke_Key.space	Key.space	n/a
176.4325	0.064	352865	keystroke_j	j	n/a
176.5765	0.08	353153	keystroke_o	o	n/a
176.7125	0.08	353425	keystroke_s	s	n/a
176.9045	0.072	353809	keystroke_e	e	n/a
177.1845	0.088	354369	keystroke_p	p	n/a
177.4085	0.072	354817	keystroke_h	h	n/a
178.1845	0.08	356369	keystroke_Key.space	Key.space	n/a
178.4165	0.096	356833	keystroke_c	c	n/a
178.5525	0.072	357105	keystroke_h	h	n/a
178.7125	0.088	357425	keystroke_r	r	n/a
178.8485	0.072	357697	keystroke_i	i	n/a
179.0005	0.08	358001	keystroke_s	s	n/a
179.1525	0.104	358305	keystroke_p	p	n/a
180.5365	0.104	361073	keystroke_Key.backspace	Key.backspace	n/a
181.0325	0.088	362065	keystroke_t	t	n/a
181.3125	0.112	362625	keystroke_o	o	n/a
181.8165	0.112	363633	keystroke_p	p	n/a
182.0645	0.064	364129	keystroke_h	h	n/a
182.1525	0.088	364305	keystroke_e	e	n/a
182.3045	0.072	364609	keystroke_r	r	n/a
182.4245	0.088	364849	keystroke_Key.space	Key.space	n/a
182.6485	0.096	365297	keystroke_e	e	n/a
182.8645	0.072	365729	keystroke_v	v	n/a
182.9925	0.088	365985	keystroke_e	e	n/a
183.1525	0.088	366305	keystroke_r	r	n/a
184.3045	0.096	368609	keystroke_y	y	n/a
184.688	0.1045	369376	keystroke_o	o	n/a
184.8965	0.08	369793	keystroke_n	n	n/a
185.008	0.0965	370016	keystroke_e	e	n/a
185.4005	0.072	370801	keystroke_Key.enter	Key.enter	n/a
185.4805	11.074	370961	prompt	n/a	unavailable wearing streams headline\n
186.296	0.1365	372592	keystroke_u	u	n/a
186.568	0.096	373136	keystroke_n	n	n/a
186.704	0.1125	373408	keystroke_a	a	n/a
187.384	0.12	374768	keystroke_v	v	n/a
187.9205	0.1115	375841	keystroke_a	a	n/a
188.272	0.104	376544	keystroke_i	i	n/a
189.28	0.12	378560	keystroke_l	l	n/a
189.648	0.0965	379296	keystroke_a	a	n/a
189.9045	0.0875	379809	keystroke_b	b	n/a
190.024	0.096	380048	keystroke_l	l	n/a
190.128	0.072	380256	keystroke_e	e	n/a
191.272	0.096	382544	keystroke_Key.space	Key.space	n/a
191.48	0.088	382960	keystroke_w	w	n/a
191.6565	0.096	383313	keystroke_e	e	n/a
191.832	0.088	383664	keystroke_a	a	n/a
192.056	0.096	384112	keystroke_r	r	n/a
192.2245	0.1035	384449	keystroke_i	i	n/a
192.3205	0.0795	384641	keystroke_n	n	n/a
192.424	0.0805	384848	keystroke_g	g	n/a
192.5365	0.0875	385073	keystroke_Key.space	Key.space	n/a
192.776	0.096	385552	keystroke_s	s	n/a
192.976	0.08	385952	keystroke_t	t	n/a
193.32	0.104	386640	keystroke_e	e	n/a
193.5365	0.088	387073	keystroke_a	a	n/a
193.6965	0.0875	387393	keystroke_m	m	n/a
194.504	0.08	389008	keystroke_s	s	n/a
194.648	0.088	389296	keystroke_Key.space	Key.space	n/a
194.936	0.08	389872	keystroke_h	h	n/a
195.04	0.08	390080	keystroke_e	e	n/a
195.184	0.0885	390368	keystroke_a	a	n/a
195.344	0.072	390688	keystroke_d	d	n/a
195.664	0.096	391328	keystroke_l	l	n/a
195.8725	0.1515	391745	keystroke_i	i	n/a
196.008	0.072	392016	keystroke_n	n	n/a
196.152	0.072	392304	keystroke_e	e	n/a
196.48	0.072	392960	keystroke_Key.enter	Key.enter	n/a
196.56	6.6985	393120	prompt	n/a	top gardens licenses denied\n
197.176	0.08	394352	keystroke_t	t	n/a
197.2725	0.088	394545	keystroke_o	o	n/a
197.4805	0.0795	394961	keystroke_p	p	n/a
197.632	0.104	395264	keystroke_Key.space	Key.space	n/a
198.288	0.08	396576	keystroke_g	g	n/a
198.44	0.088	396880	keystroke_a	a	n/a
198.608	0.072	397216	keystroke_r	r	n/a
198.8	0.088	397600	keystroke_d	d	n/a
198.968	0.08	397936	keystroke_e	e	n/a
199.152	0.096	398304	keystroke_n	n	n/a
199.417	0.071	398834	keystroke_s	s	n/a
199.648	0.08	399296	keystroke_Key.space	Key.space	n/a
199.84	0.088	399680	keystroke_l	l	n/a
200.024	0.088	400048	keystroke_i	i	n/a
200.136	0.096	400272	keystroke_c	c	n/a
200.44	0.08	400880	keystroke_e	e	n/a
200.568	0.08	401136	keystroke_n	n	n/a
200.752	0.088	401504	keystroke_s	s	n/a
200.936	0.08	401872	keystroke_e	e	n/a
201.12	0.088	402240	keystroke_s	s	n/a
201.248	0.08	402496	keystroke_Key.space	Key.space	n/a
201.616	0.144	403232	keystroke_d	d	n/a
201.856	0.08	403712	keystroke_e	e	n/a
202.128	0.072	404256	keystroke_n	n	n/a
202.288	0.072	404576	keystroke_i	i	n/a
202.424	0.088	404848	keystroke_e	e	n/a
202.632	0.08	405264	keystroke_d	d	n/a
203.168	0.088	406336	keystroke_Key.enter	Key.enter	n/a
203.264	10.1615	406528	prompt	n/a	flour discretion adipex amongst\n
204.3285	0.071	408657	keystroke_f	f	n/a
204.4475	0.08	408895	keystroke_l	l	n/a
204.6245	0.055	409249	keystroke_o	o	n/a
204.7435	0.072	409487	keystroke_u	u	n/a
205.3035	0.088	410607	keystroke_r	r	n/a
205.4315	0.088	410863	keystroke_Key.space	Key.space	n/a
205.5995	0.096	411199	keystroke_d	d	n/a
205.8795	0.096	411759	keystroke_i	i	n/a
206.1195	0.088	412239	keystroke_s	s	n/a
206.5275	0.128	413055	keystroke_c	c	n/a
207.1275	0.072	414255	keystroke_Key.backspace	Key.backspace	n/a
207.5755	0.112	415151	keystroke_c	c	n/a
207.8155	0.08	415631	keystroke_r	r	n/a
208.0005	0.103	416001	keystroke_e	e	n/a
208.2565	0.079	416513	keystroke_t	t	n/a
208.3755	0.08	416751	keystroke_i	i	n/a
208.5595	0.08	417119	keystroke_o	o	n/a
208.7195	0.088	417439	keystroke_n	n	n/a
209.1595	0.08	418319	keystroke_Key.space	Key.space	n/a
209.4075	0.096	418815	keystroke_a	a	n/a
209.6395	0.088	419279	keystroke_d	d	n/a
209.8075	0.104	419615	keystroke_i	i	n/a
210.1115	0.089	420223	keystroke_p	p	n/a
210.2795	0.096	420559	keystroke_e	e	n/a
210.5435	0.097	421087	keystroke_x	x	n/a
210.9595	0.104	421919	keystroke_Key.space	Key.space	n/a
211.2875	0.088	422575	keystroke_a	a	n/a
211.4485	0.087	422897	keystroke_m	m	n/a
211.6075	0.088	423215	keystroke_o	o	n/a
211.7755	0.073	423551	keystroke_n	n	n/a
211.8955	0.081	423791	keystroke_g	g	n/a
212.1995	0.088	424399	keystroke_s	s	n/a
212.4245	0.071	424849	keystroke_t	t	n/a
213.3435	0.08	426687	keystroke_Key.enter	Key.enter	n/a
213.431	17.3225	426862	prompt	n/a	affiliate sean charming events\n
214.2875	0.088	428575	keystroke_a	a	n/a
215.048	0.064	430096	keystroke_f	f	n/a
215.192	0.08	430384	keystroke_f	f	n/a
215.328	0.12	430656	keystroke_l	l	n/a
215.6	0.088	431200	keystroke_i	i	n/a
215.872	0.096	431744	keystroke_a	a	n/a
216.056	0.088	432112	keystroke_t	t	n/a
216.2	0.08	432400	keystroke_e	e	n/a
216.32	0.088	432640	keystroke_Key.space	Key.space	n/a
216.488	0.088	432976	keystroke_s	s	n/a
216.68	0.08	433360	keystroke_e	e	n/a
216.856	0.08	433712	keystroke_a	a	n/a
217.024	0.088	434048	keystroke_n	n	n/a
222.392	0.096	444784	keystroke_Key.backspace	Key.backspace	n/a
222.568	0.08	445136	keystroke_Key.backspace	Key.backspace	n/a
222.7195	0.072	445439	keystroke_Key.backspace	Key.backspace	n/a
222.888	0.064	445776	keystroke_Key.backspace	Key.backspace	n/a
223.0315	0.0725	446063	keystroke_Key.backspace	Key.backspace	n/a
223.184	0.0875	446368	keystroke_Key.backspace	Key.backspace	n/a
223.3355	0.088	446671	keystroke_Key.backspace	Key.backspace	n/a
223.5025	0.089	447005	keystroke_Key.backspace	Key.backspace	n/a
223.7035	0.112	447407	keystroke_Key.backspace	Key.backspace	n/a
224.7355	0.088	449471	keystroke_Key.backspace	Key.backspace	n/a
225.504	0.104	451008	keystroke_u	u	n/a
225.9835	0.08	451967	keystroke_Key.backspace	Key.backspace	n/a
226.2315	0.096	452463	keystroke_i	i	n/a
226.4635	0.08	452927	keystroke_l	l	n/a
226.6395	0.072	453279	keystroke_i	i	n/a
226.7435	0.096	453487	keystroke_a	a	n/a
226.9355	0.08	453871	keystroke_t	t	n/a
227.0475	0.088	454095	keystroke_e	e	n/a
227.1995	0.088	454399	keystroke_Key.space	Key.space	n/a
227.5995	0.08	455199	keystroke_s	s	n/a
227.7995	0.08	455599	keystroke_e	e	n/a
227.9755	0.072	455951	keystroke_a	a	n/a
228.0795	0.072	456159	keystroke_n	n	n/a
228.2155	0.096	456431	keystroke_Key.space	Key.space	n/a
228.3755	0.096	456751	keystroke_c	c	n/a
228.4715	0.064	456943	keystroke_h	h	n/a
228.5435	0.104	457087	keystroke_a	a	n/a
228.7355	0.08	457471	keystroke_r	r	n/a
228.9115	0.08	457823	keystroke_m	m	n/a
229.0795	0.08	458159	keystroke_i	i	n/a
229.1755	0.072	458351	keystroke_n	n	n/a
229.2955	0.072	458591	keystroke_g	g	n/a
229.6155	0.088	459231	keystroke_Key.space	Key.space	n/a
229.8315	0.08	459663	keystroke_e	e	n/a
230.0315	0.072	460063	keystroke_v	v	n/a
230.1675	0.088	460335	keystroke_e	e	n/a
230.2555	0.072	460511	keystroke_n	n	n/a
230.3515	0.056	460703	keystroke_t	t	n/a
230.5275	0.072	461055	keystroke_s	s	n/a
230.6795	0.072	461359	keystroke_Key.enter	Key.enter	n/a
230.759	6.9865	461518	prompt	n/a	relaxation compounds racks shade\n
231.3595	0.088	462719	keystroke_r	r	n/a
231.5355	0.08	463071	keystroke_e	e	n/a
231.6635	0.08	463327	keystroke_l	l	n/a
231.7835	0.088	463567	keystroke_a	a	n/a
232.2235	0.152	464447	keystroke_z	z	n/a
232.8155	0.072	465631	keystroke_Key.backspace	Key.backspace	n/a
232.8795	0.096	465759	keystroke_x	x	n/a
233.0715	0.096	466143	keystroke_a	a	n/a
233.3515	0.08	466703	keystroke_t	t	n/a
233.4875	0.088	466975	keystroke_i	i	n/a
233.6555	0.072	467311	keystroke_o	o	n/a
233.7915	0.08	467583	keystroke_n	n	n/a
233.8795	0.096	467759	keystroke_Key.space	Key.space	n/a
234.0555	0.088	468111	keystroke_c	c	n/a
234.1515	0.08	468303	keystroke_o	o	n/a
234.2715	0.064	468543	keystroke_m	m	n/a
234.4395	0.096	468879	keystroke_p	p	n/a
234.6555	0.072	469311	keystroke_o	o	n/a
234.8075	0.08	469615	keystroke_u	u	n/a
234.9835	0.072	469967	keystroke_n	n	n/a
235.1515	0.104	470303	keystroke_d	d	n/a
235.3595	0.08	470719	keystroke_s	s	n/a
235.4955	0.104	470991	keystroke_Key.space	Key.space	n/a
235.6955	0.12	471391	keystroke_r	r	n/a
235.9195	0.08	471839	keystroke_a	a	n/a
236.0955	0.072	472191	keystroke_c	c	n/a
236.1755	0.088	472351	keystroke_k	k	n/a
236.3035	0.072	472607	keystroke_s	s	n/a
236.4395	0.071	472879	keystroke_Key.space	Key.space	n/a
236.5755	0.088	473151	keystroke_s	s	n/a
236.7755	0.08	473551	keystroke_h	h	n/a
237.0795	0.104	474159	keystroke_a	a	n/a
237.2555	0.104	474511	keystroke_f	f	n/a
237.4635	0.088	474927	keystroke_e	e	n/a
237.6555	0.088	475311	keystroke_Key.enter	Key.enter	n/a
237.7505	6.1545	475501	prompt	n/a	camp neither lemon never\n
238.7515	0.096	477503	keystroke_c	c	n/a
238.9995	0.096	477999	keystroke_a	a	n/a
239.1275	0.088	478255	keystroke_m	m	n/a
239.3195	0.088	478639	keystroke_p	p	n/a
239.5035	0.088	479007	keystroke_Key.space	Key.space	n/a
239.7275	0.088	479455	keystroke_n	n	n/a
239.8635	0.088	479727	keystroke_e	e	n/a
240.0075	0.08	480015	keystroke_i	i	n/a
240.1915	0.096	480383	keystroke_g	g	n/a
240.6705	0.073	481341	keystroke_Key.backspace	Key.backspace	n/a
240.7915	0.08	481583	keystroke_t	t	n/a
240.9115	0.064	481823	keystroke_h	h	n/a
241.0075	0.112	482015	keystroke_e	e	n/a
241.2075	0.072	482415	keystroke_r	r	n/a
241.5355	0.072	483071	keystroke_Key.space	Key.space	n/a
241.8635	0.104	483727	keystroke_l	l	n/a
241.9915	0.088	483983	keystroke_e	e	n/a
242.2315	0.096	484463	keystroke_m	m	n/a
242.4395	0.096	484879	keystroke_o	o	n/a
242.6395	0.08	485279	keystroke_n	n	n/a
243.0235	0.08	486047	keystroke_Key.space	Key.space	n/a
243.1995	0.072	486399	keystroke_n	n	n/a
243.2955	0.088	486591	keystroke_e	e	n/a
243.4795	0.056	486959	keystroke_v	v	n/a
243.5755	0.08	487151	keystroke_e	e	n/a
243.7115	0.072	487423	keystroke_r	r	n/a
243.8315	0.072	487663	keystroke_Key.enter	Key.enter	n/a
243.912	10.985	487824	prompt	n/a	jean outside cultural neighbors\n
244.5915	0.08	489183	keystroke_j	j	n/a
244.7115	0.08	489423	keystroke_e	e	n/a
244.8635	0.08	489727	keystroke_a	a	n/a
244.9755	0.072	489951	keystroke_n	n	n/a
245.1505	0.089	490301	keystroke_Key.space	Key.space	n/a
245.4155	0.064	490831	keystroke_o	o	n/a
245.5435	0.064	491087	keystroke_u	u	n/a
245.6475	0.08	491295	keystroke_t	t	n/a
245.8715	0.088	491743	keystroke_s	s	n/a
245.9995	0.064	491999	keystroke_i	i	n/a
246.2235	0.104	492447	keystroke_d	d	n/a
246.4315	0.088	492863	keystroke_e	e	n/a
247.0955	0.08	494191	keystroke_Key.space	Key.space	n/a
247.3995	0.088	494799	keystroke_c	c	n/a
247.5195	0.096	495039	keystroke_u	u	n/a
247.7435	0.08	495487	keystroke_l	l	n/a
247.8795	0.064	495759	keystroke_t	t	n/a
247.9995	0.064	495999	keystroke_u	u	n/a
248.0875	0.072	496175	keystroke_r	r	n/a
248.1675	0.072	496335	keystroke_e	e	n/a
248.4075	0.104	496815	keystroke_a	a	n/a
248.8235	0.08	497647	keystroke_Key.backspace	Key.backspace	n/a
248.9595	0.08	497919	keystroke_Key.backspace	Key.backspace	n/a
249.0475	0.088	498095	keystroke_a	a	n/a
249.2155	0.072	498431	keystroke_l	l	n/a
249.5115	0.072	499023	keystroke_Key.space	Key.space	n/a
249.9675	0.088	499935	keystroke_n	n	n/a
250.0795	0.096	500159	keystroke_e	e	n/a
250.2155	0.088	500431	keystroke_i	i	n/a
250.3275	0.088	500655	keystroke_g	g	n/a
250.4235	0.072	500847	keystroke_h	h	n/a
250.5355	0.064	501071	keystroke_t	t	n/a
251.4945	0.081	502989	keystroke_Key.backspace	Key.backspace	n/a
251.679	0.088	503358	keystroke_b	b	n/a
251.847	0.096	503694	keystroke_o	o	n/a
252.079	0.08	504158	keystroke_t	t	n/a
252.383	0.088	504766	keystroke_s	s	n/a
252.919	0.088	505838	keystroke_Key.backspace	Key.backspace	n/a
253.023	0.104	506046	keystroke_r	r	n/a
253.391	0.096	506782	keystroke_Key.backspace	Key.backspace	n/a
253.583	0.096	507166	keystroke_r	r	n/a
253.935	0.08	507870	keystroke_Key.backspace	Key.backspace	n/a
254.079	0.08	508158	keystroke_Key.backspace	Key.backspace	n/a
254.175	0.072	508350	keystroke_r	r	n/a
254.351	0.088	508702	keystroke_s	s	n/a
254.807	0.088	509614	keystroke_Key.enter	Key.enter	n/a
254.902	9.363	509804	prompt	n/a	colors grey marriott gratis\n
255.631	0.088	511262	keystroke_c	c	n/a
255.711	0.08	511422	keystroke_o	o	n/a
255.895	0.08	511790	keystroke_l	l	n/a
256.047	0.072	512094	keystroke_o	o	n/a
256.335	0.08	512670	keystroke_y	y	n/a
256.775	0.08	513550	keystroke_Key.backspace	Key.backspace	n/a
256.895	0.08	513790	keystroke_t	t	n/a
257.063	0.088	514126	keystroke_Key.space	Key.space	n/a
257.527	0.104	515054	keystroke_g	g	n/a
257.799	0.096	515598	keystroke_r	r	n/a
257.959	0.112	515918	keystroke_e	e	n/a
258.199	0.08	516398	keystroke_y	y	n/a
258.663	0.08	517326	keystroke_Key.space	Key.space	n/a
258.871	0.088	517742	keystroke_m	m	n/a
258.999	0.08	517998	keystroke_a	a	n/a
259.167	0.088	518334	keystroke_r	r	n/a
259.343	0.096	518686	keystroke_r	r	n/a
259.543	0.08	519086	keystroke_i	i	n/a
259.727	0.08	519454	keystroke_o	o	n/a
259.895	0.112	519790	keystroke_t	t	n/a
260.999	0.08	521998	keystroke_t	t	n/a
261.159	0.088	522318	keystroke_Key.space	Key.space	n/a
261.935	0.072	523870	keystroke_g	g	n/a
262.111	0.08	524222	keystroke_r	r	n/a
262.279	0.064	524558	keystroke_a	a	n/a
262.415	0.0635	524830	keystroke_t	t	n/a
262.5025	0.0805	525005	keystroke_i	i	n/a
262.639	0.072	525278	keystroke_s	s	n/a
264.1825	0.08	528365	keystroke_Key.enter	Key.enter	n/a
264.2695	11.0265	528539	prompt	n/a	appreciated reviewer parking griffin\n
265.063	0.0875	530126	keystroke_a	a	n/a
265.1825	0.072	530365	keystroke_p	p	n/a
265.3265	0.072	530653	keystroke_p	p	n/a
265.4305	0.088	530861	keystroke_r	r	n/a
265.5265	0.104	531053	keystroke_e	e	n/a
265.7585	0.096	531517	keystroke_c	c	n/a
265.8785	0.088	531757	keystroke_i	i	n/a
266.0065	0.0965	532013	keystroke_a	a	n/a
266.2225	0.08	532445	keystroke_t	t	n/a
266.343	0.0955	532686	keystroke_e	e	n/a
266.5345	0.088	533069	keystroke_d	d	n/a
266.7185	0.088	533437	keystroke_Key.space	Key.space	n/a
266.9985	0.08	533997	keystroke_r	r	n/a
267.1345	0.112	534269	keystroke_e	e	n/a
267.4065	0.104	534813	keystroke_v	v	n/a
267.7585	0.0885	535517	keystroke_i	i	n/a
267.9745	0.136	535949	keystroke_e	e	n/a
268.5585	0.1045	537117	keystroke_w	w	n/a
269.0545	0.104	538109	keystroke_e	e	n/a
269.3665	0.096	538733	keystroke_r	r	n/a
270.3105	0.08	540621	keystroke_Key.space	Key.space	n/a
270.5905	0.04	541181	keystroke_p	p	n/a
270.6785	0.104	541357	keystroke_a	a	n/a
270.9105	0.08	541821	keystroke_r	r	n/a
271.0305	0.104	542061	keystroke_k	k	n/a
271.2625	0.096	542525	keystroke_i	i	n/a
271.3665	0.088	542733	keystroke_n	n	n/a
271.4865	0.072	542973	keystroke_g	g	n/a
271.6065	0.08	543213	keystroke_Key.space	Key.space	n/a
271.8785	0.096	543757	keystroke_f	f	n/a
272.4065	0.08	544813	keystroke_Key.backspace	Key.backspace	n/a
272.5425	0.032	545085	keystroke_g	g	n/a
272.7185	0.088	545437	keystroke_r	r	n/a
273.0305	0.096	546061	keystroke_i	i	n/a
273.2545	0.08	546509	keystroke_d	d	n/a
273.4705	0.04	546941	keystroke_d	d	n/a
273.8145	0.08	547629	keystroke_Key.backspace	Key.backspace	n/a
273.975	0.0795	547950	keystroke_Key.backspace	Key.backspace	n/a
274.3115	0.071	548623	keystroke_f	f	n/a
274.4785	0.08	548957	keystroke_f	f	n/a
274.7265	0.08	549453	keystroke_o	o	n/a
274.8785	0.072	549757	keystroke_n	n	n/a
275.2225	0.072	550445	keystroke_Key.enter	Key.enter	n/a
275.301	8.932	550602	prompt	n/a	cornwall propose complement omaha\n
275.9025	0.112	551805	keystroke_c	c	n/a
276.0545	0.08	552109	keystroke_o	o	n/a
276.3825	0.096	552765	keystroke_r	r	n/a
276.5745	0.08	553149	keystroke_n	n	n/a
276.7825	0.08	553565	keystroke_w	w	n/a
276.9425	0.08	553885	keystroke_a	a	n/a
277.0385	0.08	554077	keystroke_l	l	n/a
277.2145	0.088	554429	keystroke_l	l	n/a
277.8305	0.08	555661	keystroke_Key.space	Key.space	n/a
278.0465	0.096	556093	keystroke_p	p	n/a
278.1905	0.08	556381	keystroke_r	r	n/a
278.2865	0.08	556573	keystroke_o	o	n/a
278.5745	0.088	557149	keystroke_p	p	n/a
278.7585	0.08	557517	keystroke_o	o	n/a
278.8865	0.08	557773	keystroke_s	s	n/a
279.0785	0.08	558157	keystroke_e	e	n/a
279.3025	0.08	558605	keystroke_Key.space	Key.space	n/a
279.6145	0.104	559229	keystroke_c	c	n/a
279.8705	0.08	559741	keystroke_p	p	n/a
280.3025	0.08	560605	keystroke_Key.backspace	Key.backspace	n/a
280.5425	0.088	561085	keystroke_o	o	n/a
280.7345	0.088	561469	keystroke_m	m	n/a
280.9425	0.104	561885	keystroke_p	p	n/a
281.0305	0.104	562061	keystroke_l	l	n/a
281.4545	0.088	562909	keystroke_e	e	n/a
281.6785	0.096	563357	keystroke_m	m	n/a
281.8065	0.096	563613	keystroke_e	e	n/a
281.9105	0.072	563821	keystroke_n	n	n/a
282.0145	0.08	564029	keystroke_t	t	n/a
282.4145	0.08	564829	keystroke_Key.space	Key.space	n/a
282.6145	0.096	565229	keystroke_o	o	n/a
283.0065	0.096	566013	keystroke_m	m	n/a
283.3425	0.088	566685	keystroke_a	a	n/a
283.5025	0.08	567005	keystroke_h	h	n/a
283.6225	0.08	567245	keystroke_a	a	n/a
284.1505	0.08	568301	keystroke_Key.enter	Key.enter	n/a
284.2405	11	568481	prompt	n/a	leaders bishop systems weblogs\n
284.9345	0.104	569869	keystroke_l	l	n/a
285.0705	0.088	570141	keystroke_e	e	n/a
285.2145	0.096	570429	keystroke_a	a	n/a
285.4065	0.12	570813	keystroke_d	d	n/a
285.6385	0.136	571277	keystroke_e	e	n/a
285.8465	0.08	571693	keystroke_r	r	n/a
286.0465	0.088	572093	keystroke_s	s	n/a
286.1825	0.088	572365	keystroke_Key.space	Key.space	n/a
286.4545	0.08	572909	keystroke_b	b	n/a
286.5745	0.096	573149	keystroke_i	i	n/a
286.7425	0.104	573485	keystroke_s	s	n/a
287.3105	0.096	574621	keystroke_h	h	n/a
287.4785	0.104	574957	keystroke_o	o	n/a
287.7745	0.096	575549	keystroke_p	p	n/a
288.0225	0.08	576045	keystroke_Key.space	Key.space	n/a
288.2465	0.096	576493	keystroke_s	s	n/a
288.8545	0.096	577709	keystroke_y	y	n/a
289.1425	0.104	578285	keystroke_s	s	n/a
289.4785	0.088	578957	keystroke_t	t	n/a
289.6545	0.072	579309	keystroke_e	e	n/a
289.7665	0.12	579533	keystroke_m	m	n/a
290.4945	0.104	580989	keystroke_s	s	n/a
290.7265	0.096	581453	keystroke_Key.space	Key.space	n/a
291.4225	0.104	582845	keystroke_w	w	n/a
291.6785	0.096	583357	keystroke_e	e	n/a
292.1505	0.12	584301	keystroke_b	b	n/a
292.3505	0.088	584701	keystroke_l	l	n/a
292.5425	0.08	585085	keystroke_o	o	n/a
292.6785	0.088	585357	keystroke_c	c	n/a
293.8225	0.096	587645	keystroke_Key.backspace	Key.backspace	n/a
294.1665	0.08	588333	keystroke_g	g	n/a
294.4385	0.072	588877	keystroke_s	s	n/a
295.1585	0.08	590317	keystroke_Key.enter	Key.enter	n/a
295.247	13.9935	590494	prompt	n/a	designated strengthen greetings gave\n
296.1265	0.12	592253	keystroke_d	d	n/a
296.3425	0.088	592685	keystroke_e	e	n/a
296.5825	0.096	593165	keystroke_s	s	n/a
296.7505	0.104	593501	keystroke_i	i	n/a
296.9185	0.072	593837	keystroke_g	g	n/a
297.0225	0.096	594045	keystroke_n	n	n/a
297.2545	0.088	594509	keystroke_a	a	n/a
297.4385	0.072	594877	keystroke_t	t	n/a
297.5825	0.08	595165	keystroke_e	e	n/a
297.7585	0.072	595517	keystroke_d	d	n/a
297.8785	0.08	595757	keystroke_Key.space	Key.space	n/a
298.0225	0.096	596045	keystroke_s	s	n/a
298.2225	0.088	596445	keystroke_t	t	n/a
298.3505	0.096	596701	keystroke_r	r	n/a
298.5505	0.08	597101	keystroke_e	e	n/a
299.0625	0.104	598125	keystroke_g	g	n/a
300.0625	0.088	600125	keystroke_t	t	n/a
300.3105	0.112	600621	keystroke_h	h	n/a
300.7025	0.08	601405	keystroke_e	e	n/a
300.8145	0.104	601629	keystroke_n	n	n/a
301.3825	0.088	602765	keystroke_Key.space	Key.space	n/a
302.4865	0.08	604973	keystroke_Key.backspace	Key.backspace	n/a
302.6465	0.088	605293	keystroke_Key.backspace	Key.backspace	n/a
302.8145	0.072	605629	keystroke_Key.backspace	Key.backspace	n/a
302.9665	0.08	605933	keystroke_Key.backspace	Key.backspace	n/a
303.1265	0.072	606253	keystroke_Key.backspace	Key.backspace	n/a
303.2865	0.08	606573	keystroke_Key.backspace	Key.backspace	n/a
304.1025	0.072	608205	keystroke_n	n	n/a
304.2465	0.088	608493	keystroke_g	g	n/a
304.6865	0.088	609373	keystroke_t	t	n/a
304.8225	0.088	609645	keystroke_h	h	n/a
304.9185	0.072	609837	keystroke_e	e	n/a
305.0625	0.088	610125	keystroke_n	n	n/a
305.3825	0.088	610765	keystroke_Key.space	Key.space	n/a
305.7265	0.104	611453	keystroke_g	g	n/a
305.9425	0.08	611885	keystroke_r	r	n/a
306.0865	0.096	612173	keystroke_e	e	n/a
306.4065	0.096	612813	keystroke_e	e	n/a
306.6145	0.08	613229	keystroke_t	t	n/a
306.7425	0.08	613485	keystroke_i	i	n/a
306.8625	0.088	613725	keystroke_n	n	n/a
307.0065	0.08	614013	keystroke_g	g	n/a
307.2865	0.08	614573	keystroke_s	s	n/a
307.4465	0.096	614893	keystroke_Key.space	Key.space	n/a
307.7985	0.088	615597	keystroke_g	g	n/a
308.0385	0.08	616077	keystroke_a	a	n/a
308.3185	0.072	616637	keystroke_v	v	n/a
308.8465	0.088	617693	keystroke_e	e	n/a
309.1585	0.08	618317	keystroke_Key.enter	Key.enter	n/a
309.245	8.6835	618490	prompt	n/a	emails based dive respiratory\n
309.9345	0.088	619869	keystroke_e	e	n/a
310.0625	0.096	620125	keystroke_m	m	n/a
310.1825	0.088	620365	keystroke_a	a	n/a
310.3265	0.096	620653	keystroke_i	i	n/a
310.5585	0.088	621117	keystroke_l	l	n/a
310.7105	0.08	621421	keystroke_s	s	n/a
310.8465	0.072	621693	keystroke_Key.space	Key.space	n/a
311.1345	0.088	622269	keystroke_b	b	n/a
311.3505	0.088	622701	keystroke_a	a	n/a
311.5345	0.072	623069	keystroke_s	s	n/a
311.7025	0.072	623405	keystroke_e	e	n/a
311.8945	0.08	623789	keystroke_d	d	n/a
312.0625	0.072	624125	keystroke_Key.space	Key.space	n/a
312.2785	0.088	624557	keystroke_d	d	n/a
312.4705	0.128	624941	keystroke_i	i	n/a
312.8385	0.128	625677	keystroke_v	v	n/a
313.1505	0.088	626301	keystroke_e	e	n/a
313.4465	0.104	626893	keystroke_Key.space	Key.space	n/a
313.7825	0.08	627565	keystroke_r	r	n/a
313.9105	0.088	627821	keystroke_e	e	n/a
314.5105	0.088	629021	keystroke_s	s	n/a
315.118	0.1365	630236	keystroke_p	p	n/a
315.4865	0.096	630973	keystroke_i	i	n/a
315.9905	0.096	631981	keystroke_r	r	n/a
316.2465	0.104	632493	keystroke_a	a	n/a
316.5025	0.064	633005	keystroke_t	t	n/a
316.6065	0.08	633213	keystroke_o	o	n/a
316.7585	0.128	633517	keystroke_r	r	n/a
317.1985	0.112	634397	keystroke_y	y	n/a
317.8305	0.096	635661	keystroke_Key.enter	Key.enter	n/a
317.935	10.1135	635870	prompt	n/a	wallace start resistant closely\n
318.7905	0.096	637581	keystroke_w	w	n/a
318.9665	0.08	637933	keystroke_a	a	n/a
319.1025	0.096	638205	keystroke_l	l	n/a
319.2785	0.088	638557	keystroke_l	l	n/a
319.4305	0.104	638861	keystroke_a	a	n/a
319.6065	0.088	639213	keystroke_c	c	n/a
319.7825	0.072	639565	keystroke_e	e	n/a
319.9105	0.088	639821	keystroke_Key.space	Key.space	n/a
320.0225	0.104	640045	keystroke_s	s	n/a
320.2225	0.072	640445	keystroke_t	t	n/a
320.3665	0.08	640733	keystroke_a	a	n/a
320.4945	0.0795	640989	keystroke_r	r	n/a
320.6705	0.064	641341	keystroke_t	t	n/a
320.8225	0.0875	641645	keystroke_Key.space	Key.space	n/a
321.0785	0.112	642157	keystroke_r	r	n/a
321.2625	0.0795	642525	keystroke_e	e	n/a
321.4625	0.08	642925	keystroke_s	s	n/a
321.694	0.096	643388	keystroke_i	i	n/a
321.814	0.088	643628	keystroke_s	s	n/a
322.078	0.0965	644156	keystroke_t	t	n/a
322.2945	0.088	644589	keystroke_a	a	n/a
322.4225	0.08	644845	keystroke_n	n	n/a
322.6145	0.072	645229	keystroke_t	t	n/a
322.7425	0.088	645485	keystroke_Key.space	Key.space	n/a
322.9745	0.0875	645949	keystroke_c	c	n/a
323.2065	0.112	646413	keystroke_l	l	n/a
323.406	0.088	646812	keystroke_o	o	n/a
324.4145	0.104	648829	keystroke_s	s	n/a
324.6305	0.096	649261	keystroke_e	e	n/a
324.8145	0.0875	649629	keystroke_r	r	n/a
325.318	0.088	650636	keystroke_Key.backspace	Key.backspace	n/a
325.8385	0.072	651677	keystroke_Key.backspace	Key.backspace	n/a
326.102	0.0245	652204	keystroke_l	l	n/a
326.318	0.088	652636	keystroke_y	y	n/a
326.9265	0.104	653853	keystroke_Key.backspace	Key.backspace	n/a
327.11	0.096	654220	keystroke_Key.backspace	Key.backspace	n/a
327.2465	0.0875	654493	keystroke_e	e	n/a
327.398	0.056	654796	keystroke_l	l	n/a
327.55	0.096	655100	keystroke_y	y	n/a
327.966	0.08	655932	keystroke_Key.enter	Key.enter	n/a
328.055	8.4565	656110	prompt	n/a	competitions flame miles todd\n
328.646	0.096	657292	keystroke_c	c	n/a
328.742	0.088	657484	keystroke_o	o	n/a
328.878	0.072	657756	keystroke_m	m	n/a
329.038	0.08	658076	keystroke_p	p	n/a
329.1655	0.0885	658331	keystroke_e	e	n/a
329.366	0.0635	658732	keystroke_r	r	n/a
329.478	0.072	658956	keystroke_i	i	n/a
329.8855	0.088	659771	keystroke_Key.backspace	Key.backspace	n/a
330.0855	0.0885	660171	keystroke_Key.backspace	Key.backspace	n/a
330.6855	0.0885	661371	keystroke_t	t	n/a
331.0375	0.0965	662075	keystroke_i	i	n/a
331.3255	0.088	662651	keystroke_t	t	n/a
331.6135	0.16	663227	keystroke_i	i	n/a
332.0455	0.104	664091	keystroke_o	o	n/a
332.334	0.1195	664668	keystroke_n	n	n/a
332.6775	0.096	665355	keystroke_Key.space	Key.space	n/a
333.4935	0.088	666987	keystroke_f	f	n/a
333.6455	0.08	667291	keystroke_l	l	n/a
333.7815	0.104	667563	keystroke_a	a	n/a
333.9175	0.072	667835	keystroke_m	m	n/a
334.0455	0.088	668091	keystroke_e	e	n/a
334.5575	0.072	669115	keystroke_Key.space	Key.space	n/a
334.7495	0.072	669499	keystroke_m	m	n/a
334.8855	0.096	669771	keystroke_i	i	n/a
335.1015	0.08	670203	keystroke_l	l	n/a
335.2695	0.088	670539	keystroke_e	e	n/a
335.4615	0.096	670923	keystroke_s	s	n/a
335.6055	0.072	671211	keystroke_Key.space	Key.space	n/a
335.7975	0.072	671595	keystroke_t	t	n/a
335.9015	0.072	671803	keystroke_o	o	n/a
336.0295	0.088	672059	keystroke_d	d	n/a
336.1975	0.08	672395	keystroke_d	d	n/a
336.4375	0.072	672875	keystroke_Key.enter	Key.enter	n/a
336.516	6.4115	673032	prompt	n/a	consider bali nascar zambia\n
337.0695	0.096	674139	keystroke_c	c	n/a
337.1895	0.088	674379	keystroke_o	o	n/a
337.3735	0.088	674747	keystroke_n	n	n/a
337.5495	0.088	675099	keystroke_s	s	n/a
337.6695	0.08	675339	keystroke_i	i	n/a
337.7895	0.112	675579	keystroke_d	d	n/a
337.9815	0.08	675963	keystroke_e	e	n/a
338.1415	0.072	676283	keystroke_r	r	n/a
338.2855	0.096	676571	keystroke_Key.space	Key.space	n/a
338.5495	0.096	677099	keystroke_b	b	n/a
338.7335	0.072	677467	keystroke_a	a	n/a
338.8695	0.104	677739	keystroke_l	l	n/a
339.0775	0.08	678155	keystroke_i	i	n/a
339.2455	0.072	678491	keystroke_Key.space	Key.space	n/a
339.4295	0.08	678859	keystroke_n	n	n/a
339.5335	0.112	679067	keystroke_a	a	n/a
339.7255	0.089	679451	keystroke_s	s	n/a
339.9415	0.104	679883	keystroke_c	c	n/a
340.2455	0.12	680491	keystroke_a	a	n/a
340.5415	0.104	681083	keystroke_r	r	n/a
340.9255	0.08	681851	keystroke_Key.space	Key.space	n/a
341.3335	0.096	682667	keystroke_z	z	n/a
341.5815	0.096	683163	keystroke_a	a	n/a
341.8295	0.096	683659	keystroke_m	m	n/a
342.0455	0.056	684091	keystroke_b	b	n/a
342.1655	0.096	684331	keystroke_i	i	n/a
342.5415	0.088	685083	keystroke_a	a	n/a
342.8455	0.08	685691	keystroke_Key.enter	Key.enter	n/a
342.932	10.9235	685864	prompt	n/a	stayed markets babes parliamentary\n
343.6225	0.095	687245	keystroke_s	s	n/a
343.8135	0.088	687627	keystroke_t	t	n/a
343.9815	0.12	687963	keystroke_a	a	n/a
344.3815	0.104	688763	keystroke_y	y	n/a
344.7255	0.096	689451	keystroke_e	e	n/a
344.9735	0.096	689947	keystroke_d	d	n/a
345.1415	0.088	690283	keystroke_Key.space	Key.space	n/a
345.3255	0.088	690651	keystroke_m	m	n/a
345.4455	0.072	690891	keystroke_a	a	n/a
345.6055	0.072	691211	keystroke_r	r	n/a
345.6935	0.08	691387	keystroke_k	k	n/a
345.8055	0.088	691611	keystroke_e	e	n/a
346.0295	0.096	692059	keystroke_t	t	n/a
346.3095	0.088	692619	keystroke_s	s	n/a
346.4535	0.088	692907	keystroke_Key.space	Key.space	n/a
346.7175	0.08	693435	keystroke_b	b	n/a
346.8855	0.096	693771	keystroke_a	a	n/a
347.0775	0.072	694155	keystroke_b	b	n/a
347.7735	0.08	695547	keystroke_e	e	n/a
347.9655	0.072	695931	keystroke_s	s	n/a
348.4695	0.088	696939	keystroke_Key.space	Key.space	n/a
348.7175	0.064	697435	keystroke_p	p	n/a
348.8855	0.096	697771	keystroke_a	a	n/a
349.0855	0.08	698171	keystroke_r	r	n/a
349.2615	0.144	698523	keystroke_l	l	n/a
349.5415	0.08	699083	keystroke_i	i	n/a
349.6615	0.088	699323	keystroke_a	a	n/a
349.8535	0.08	699707	keystroke_m	m	n/a
349.9655	0.096	699931	keystroke_e	e	n/a
350.0695	0.056	700139	keystroke_n	n	n/a
350.3415	0.064	700683	keystroke_r	r	n/a
350.9415	0.104	701883	keystroke_a	a	n/a
351.2215	0.072	702443	keystroke_Key.backspace	Key.backspace	n/a
351.3655	0.096	702731	keystroke_Key.backspace	Key.backspace	n/a
351.4625	0.111	702925	keystroke_t	t	n/a
351.9575	0.08	703915	keystroke_a	a	n/a
352.1415	0.12	704283	keystroke_r	r	n/a
352.4215	0.088	704843	keystroke_y	y	n/a
353.7735	0.08	707547	keystroke_Key.enter	Key.enter	n/a
353.8615	10.658	707723	prompt	n/a	place sync play viking\n
354.9015	0.088	709803	keystroke_p	p	n/a
355.2775	0.097	710555	keystroke_l	l	n/a
355.5495	0.104	711099	keystroke_a	a	n/a
355.7735	0.128	711547	keystroke_c	c	n/a
357.0375	0.104	714075	keystroke_e	e	n/a
357.2055	0.088	714411	keystroke_Key.space	Key.space	n/a
357.3975	0.08	714795	keystroke_s	s	n/a
357.6455	0.08	715291	keystroke_t	t	n/a
357.7735	0.104	715547	keystroke_n	n	n/a
358.0215	0.096	716043	keystroke_c	c	n/a
358.6135	0.096	717227	keystroke_Key.backspace	Key.backspace	n/a
358.7975	0.072	717595	keystroke_Key.backspace	Key.backspace	n/a
358.9415	0.08	717883	keystroke_Key.backspace	Key.backspace	n/a
359.1495	0.104	718299	keystroke_y	y	n/a
359.5015	0.112	719003	keystroke_n	n	n/a
359.7175	0.096	719435	keystroke_c	c	n/a
360.6375	0.12	721275	keystroke_Key.space	Key.space	n/a
360.9255	0.112	721851	keystroke_p	p	n/a
361.1255	0.104	722251	keystroke_l	l	n/a
361.3575	0.112	722715	keystroke_a	a	n/a
361.6055	0.096	723211	keystroke_y	y	n/a
361.8695	0.096	723739	keystroke_Key.space	Key.space	n/a
362.1495	0.088	724299	keystroke_v	v	n/a
362.4855	0.144	724971	keystroke_i	i	n/a
362.8215	0.096	725643	keystroke_k	k	n/a
363.0215	0.088	726043	keystroke_i	i	n/a
363.1175	0.088	726235	keystroke_n	n	n/a
363.2775	0.064	726555	keystroke_g	g	n/a
364.4535	0.064	728907	keystroke_Key.enter	Key.enter	n/a
364.525	9.074	729050	prompt	n/a	supported an blue portrait\n
365.814	0.08	731628	keystroke_s	s	n/a
365.942	0.072	731884	keystroke_u	u	n/a
366.15	0.08	732300	keystroke_p	p	n/a
366.31	0.071	732620	keystroke_p	p	n/a
366.494	0.08	732988	keystroke_o	o	n/a
366.662	0.104	733324	keystroke_r	r	n/a
366.878	0.08	733756	keystroke_t	t	n/a
367.022	0.071	734044	keystroke_e	e	n/a
367.181	0.089	734362	keystroke_d	d	n/a
367.309	0.096	734618	keystroke_Key.space	Key.space	n/a
367.686	0.088	735372	keystroke_a	a	n/a
367.806	0.08	735612	keystroke_n	n	n/a
368.014	0.095	736028	keystroke_Key.space	Key.space	n/a
369.206	0.072	738412	keystroke_b	b	n/a
369.294	0.08	738588	keystroke_l	l	n/a
369.486	0.071	738972	keystroke_u	u	n/a
369.646	0.072	739292	keystroke_e	e	n/a
369.821	0.104	739642	keystroke_Key.space	Key.space	n/a
370.278	0.08	740556	keystroke_p	p	n/a
370.454	0.08	740908	keystroke_o	o	n/a
370.558	0.088	741116	keystroke_r	r	n/a
370.75	0.08	741500	keystroke_t	t	n/a
371.094	0.088	742188	keystroke_a	a	n/a
371.246	0.12	742492	keystroke_l	l	n/a
371.997	0.088	743994	keystroke_Key.backspace	Key.backspace	n/a
372.205	0.072	744410	keystroke_Key.backspace	Key.backspace	n/a
372.526	0.096	745052	keystroke_r	r	n/a
372.717	0.089	745434	keystroke_a	a	n/a
372.885	0.089	745770	keystroke_i	i	n/a
373.102	0.088	746204	keystroke_t	t	n/a
373.51	0.087	747020	keystroke_Key.enter	Key.enter	n/a
373.6045	6.747	747209	prompt	n/a	attendance hope boots reality\n
374.406	0.0875	748812	keystroke_a	a	n/a
374.59	0.0715	749180	keystroke_t	t	n/a
374.742	0.08	749484	keystroke_t	t	n/a
374.9005	0.081	749801	keystroke_e	e	n/a
375.0215	0.0805	750043	keystroke_n	n	n/a
375.2695	0.087	750539	keystroke_d	d	n/a
375.4935	0.096	750987	keystroke_a	a	n/a
375.6375	0.08	751275	keystroke_n	n	n/a
375.7975	0.08	751595	keystroke_c	c	n/a
375.966	0.0795	751932	keystroke_e	e	n/a
376.086	0.0795	752172	keystroke_Key.space	Key.space	n/a
376.2935	0.072	752587	keystroke_h	h	n/a
376.4455	0.088	752891	keystroke_o	o	n/a
376.6295	0.064	753259	keystroke_p	p	n/a
376.7655	0.08	753531	keystroke_e	e	n/a
376.8535	0.087	753707	keystroke_Key.space	Key.space	n/a
377.1485	0.105	754297	keystroke_b	b	n/a
377.3095	0.079	754619	keystroke_o	o	n/a
377.5895	0.096	755179	keystroke_o	o	n/a
377.8455	0.071	755691	keystroke_t	t	n/a
378.1095	0.087	756219	keystroke_s	s	n/a
378.2845	0.088	756569	keystroke_Key.space	Key.space	n/a
378.4605	0.096	756921	keystroke_r	r	n/a
378.5975	0.088	757195	keystroke_e	e	n/a
378.7415	0.08	757483	keystroke_a	a	n/a
378.8535	0.096	757707	keystroke_l	l	n/a
379.0535	0.088	758107	keystroke_i	i	n/a
379.3175	0.095	758635	keystroke_t	t	n/a
379.5325	0.08	759065	keystroke_y	y	n/a
380.2605	0.088	760521	keystroke_Key.enter	Key.enter	n/a
380.3595	18.9675	760719	prompt	n/a	revolution armenia intend furthermore\n
380.9735	0.088	761947	keystroke_r	r	n/a
381.1095	0.087	762219	keystroke_e	e	n/a
381.4535	0.096	762907	keystroke_v	v	n/a
381.7815	0.119	763563	keystroke_o	o	n/a
382.0935	0.104	764187	keystroke_l	l	n/a
382.3645	0.0725	764729	keystroke_u	u	n/a
383.197	0.072	766394	keystroke_t	t	n/a
383.565	0.12	767130	keystroke_i	i	n/a
383.829	0.064	767658	keystroke_o	o	n/a
384.005	0.112	768010	keystroke_n	n	n/a
384.477	0.08	768954	keystroke_Key.space	Key.space	n/a
384.685	0.08	769370	keystroke_a	a	n/a
384.845	0.08	769690	keystroke_r	r	n/a
384.981	0.088	769962	keystroke_m	m	n/a
385.205	0.104	770410	keystroke_e	e	n/a
385.733	0.112	771466	keystroke_n	n	n/a
385.957	0.096	771914	keystroke_i	i	n/a
386.125	0.056	772250	keystroke_a	a	n/a
387.077	0.08	774154	keystroke_Key.space	Key.space	n/a
387.277	0.088	774554	keystroke_i	i	n/a
387.445	0.088	774890	keystroke_n	n	n/a
391.125	0.08	782250	keystroke_t	t	n/a
391.325	0.064	782650	keystroke_e	e	n/a
391.469	0.104	782938	keystroke_n	n	n/a
391.637	0.096	783274	keystroke_d	d	n/a
392.309	0.088	784618	keystroke_Key.space	Key.space	n/a
392.581	0.136	785162	keystroke_d	d	n/a
393.149	0.08	786298	keystroke_Key.backspace	Key.backspace	n/a
393.309	0.088	786618	keystroke_f	f	n/a
393.429	0.088	786858	keystroke_u	u	n/a
393.693	0.096	787386	keystroke_r	r	n/a
394.4535	0.08	788907	keystroke_Key.backspace	Key.backspace	n/a
394.9805	0.08	789961	keystroke_r	r	n/a
396.4125	0.08	792825	keystroke_t	t	n/a
396.5565	0.073	793113	keystroke_h	h	n/a
396.9085	0.128	793817	keystroke_e	e	n/a
397.6365	0.097	795273	keystroke_r	r	n/a
397.8525	0.121	795705	keystroke_m	m	n/a
398.0055	0.087	796011	keystroke_o	o	n/a
398.1005	0.113	796201	keystroke_r	r	n/a
398.1805	0.12	796361	keystroke_e	e	n/a
399.2525	0.072	798505	keystroke_Key.enter	Key.enter	n/a
399.333	11.106	798666	prompt	n/a	floors strategy harder committee\n
400.5015	0.08	801003	keystroke_f	f	n/a
400.6445	0.097	801289	keystroke_l	l	n/a
400.8535	0.071	801707	keystroke_o	o	n/a
401.0055	0.071	802011	keystroke_o	o	n/a
401.1095	0.072	802219	keystroke_r	r	n/a
401.3085	0.08	802617	keystroke_s	s	n/a
401.4605	0.096	802921	keystroke_Key.space	Key.space	n/a
401.6125	0.112	803225	keystroke_s	s	n/a
401.8365	0.081	803673	keystroke_t	t	n/a
402.0925	0.113	804185	keystroke_r	r	n/a
402.4215	0.096	804843	keystroke_a	a	n/a
402.6205	0.096	805241	keystroke_t	t	n/a
402.8535	0.056	805707	keystroke_e	e	n/a
403.2765	0.112	806553	keystroke_f	f	n/a
403.5885	0.104	807177	keystroke_y	y	n/a
403.8845	0.072	807769	keystroke_Key.backspace	Key.backspace	n/a
404.0285	0.08	808057	keystroke_Key.backspace	Key.backspace	n/a
404.5735	0.079	809147	keystroke_g	g	n/a
404.7725	0.072	809545	keystroke_y	y	n/a
405.2765	0.096	810553	keystroke_Key.space	Key.space	n/a
405.5005	0.073	811001	keystroke_h	h	n/a
405.5885	0.088	811177	keystroke_a	a	n/a
405.7485	0.08	811497	keystroke_r	r	n/a
405.9325	0.081	811865	keystroke_d	d	n/a
406.0695	0.095	812139	keystroke_e	e	n/a
406.2365	0.073	812473	keystroke_r	r	n/a
406.3565	0.072	812713	keystroke_Key.space	Key.space	n/a
406.5005	0.088	813001	keystroke_c	c	n/a
406.5965	0.072	813193	keystroke_o	o	n/a
406.7565	0.072	813513	keystroke_m	m	n/a
406.9085	0.089	813817	keystroke_m	m	n/a
407.2045	0.08	814409	keystroke_i	i	n/a
407.4125	0.08	814825	keystroke_t	t	n/a
407.5725	0.056	815145	keystroke_t	t	n/a
408.0765	0.073	816153	keystroke_e	e	n/a
408.2375	0.103	816475	keystroke_e	e	n/a
410.3485	0.088	820697	keystroke_Key.enter	Key.enter	n/a
410.4445	11.842	820889	prompt	n/a	optics caribbean grace housewares\n
411.2605	0.112	822521	keystroke_o	o	n/a
411.5005	0.096	823001	keystroke_p	p	n/a
412.3255	0.103	824651	keystroke_t	t	n/a
412.4605	0.08	824921	keystroke_i	i	n/a
412.6525	0.096	825305	keystroke_c	c	n/a
413.0605	0.088	826121	keystroke_s	s	n/a
413.2365	0.08	826473	keystroke_Key.space	Key.space	n/a
414.1645	0.08	828329	keystroke_c	c	n/a
414.3165	0.096	828633	keystroke_a	a	n/a
415.7325	0.081	831465	keystroke_r	r	n/a
415.8925	0.073	831785	keystroke_i	i	n/a
416.0525	0.08	832105	keystroke_b	b	n/a
416.2125	0.064	832425	keystroke_b	b	n/a
416.4215	0.095	832843	keystroke_e	e	n/a
416.5885	0.096	833177	keystroke_a	a	n/a
416.7165	0.105	833433	keystroke_n	n	n/a
417.1805	0.096	834361	keystroke_Key.space	Key.space	n/a
417.5165	0.088	835033	keystroke_g	g	n/a
418.0285	0.072	836057	keystroke_r	r	n/a
418.1885	0.08	836377	keystroke_a	a	n/a
418.3805	0.072	836761	keystroke_c	c	n/a
418.5245	0.08	837049	keystroke_e	e	n/a
418.6845	0.088	837369	keystroke_Key.space	Key.space	n/a
420.2685	0.088	840537	keystroke_h	h	n/a
420.4375	0.079	840875	keystroke_o	o	n/a
420.5645	0.072	841129	keystroke_u	u	n/a
420.6845	0.072	841369	keystroke_s	s	n/a
420.8925	0.104	841785	keystroke_e	e	n/a
421.1965	0.088	842393	keystroke_w	w	n/a
421.3815	0.095	842763	keystroke_a	a	n/a
421.5565	0.096	843113	keystroke_r	r	n/a
421.7165	0.088	843433	keystroke_e	e	n/a
421.9565	0.088	843913	keystroke_s	s	n/a
422.2045	0.08	844409	keystroke_Key.enter	Key.enter	n/a
422.2915	10.339	844583	prompt	n/a	drivers executives meal remarks\n
422.9245	0.104	845849	keystroke_d	d	n/a
423.1325	0.081	846265	keystroke_r	r	n/a
423.2605	0.072	846521	keystroke_i	i	n/a
423.3965	0.08	846793	keystroke_v	v	n/a
423.5485	0.08	847097	keystroke_e	e	n/a
423.6765	0.072	847353	keystroke_r	r	n/a
423.9005	0.08	847801	keystroke_s	s	n/a
424.0285	0.088	848057	keystroke_Key.space	Key.space	n/a
424.2135	0.095	848427	keystroke_e	e	n/a
424.4445	0.104	848889	keystroke_x	x	n/a
424.7645	0.104	849529	keystroke_e	e	n/a
425.0935	0.119	850187	keystroke_c	c	n/a
425.9645	0.096	851929	keystroke_u	u	n/a
426.1565	0.08	852313	keystroke_t	t	n/a
426.2765	0.104	852553	keystroke_i	i	n/a
426.4525	0.12	852905	keystroke_v	v	n/a
426.6605	0.096	853321	keystroke_e	e	n/a
427.0845	0.088	854169	keystroke_s	s	n/a
427.3805	0.08	854761	keystroke_Key.space	Key.space	n/a
428.549	0.072	857098	keystroke_n	n	n/a
429.037	0.088	858074	keystroke_Key.backspace	Key.backspace	n/a
429.493	0.088	858986	keystroke_m	m	n/a
429.629	0.088	859258	keystroke_e	e	n/a
429.813	0.072	859626	keystroke_a	a	n/a
429.989	0.104	859978	keystroke_l	l	n/a
430.445	0.096	860890	keystroke_Key.space	Key.space	n/a
430.669	0.08	861338	keystroke_r	r	n/a
430.797	0.08	861594	keystroke_e	e	n/a
431.229	0.112	862458	keystroke_m	m	n/a
431.437	0.064	862874	keystroke_a	a	n/a
431.597	0.08	863194	keystroke_r	r	n/a
431.693	0.08	863386	keystroke_k	k	n/a
431.893	0.08	863786	keystroke_s	s	n/a
432.549	0.08	865098	keystroke_Key.enter	Key.enter	n/a
432.635	7.0355	865270	prompt	n/a	opens yeah acids translated\n
433.277	0.144	866554	keystroke_o	o	n/a
433.557	0.096	867114	keystroke_p	p	n/a
433.709	0.08	867418	keystroke_e	e	n/a
433.805	0.08	867610	keystroke_n	n	n/a
433.989	0.088	867978	keystroke_Key.space	Key.space	n/a
434.237	0.088	868474	keystroke_y	y	n/a
434.413	0.088	868826	keystroke_e	e	n/a
434.581	0.08	869162	keystroke_a	a	n/a
434.741	0.08	869482	keystroke_r	r	n/a
435.093	0.088	870186	keystroke_Key.space	Key.space	n/a
435.301	0.08	870602	keystroke_a	a	n/a
435.485	0.096	870970	keystroke_c	c	n/a
435.613	0.088	871226	keystroke_i	i	n/a
435.917	0.104	871834	keystroke_d	d	n/a
436.509	0.112	873018	keystroke_g	g	n/a
437.029	0.08	874058	keystroke_Key.backspace	Key.backspace	n/a
437.141	0.088	874282	keystroke_s	s	n/a
437.66	0.097	875320	keystroke_Key.space	Key.space	n/a
437.893	0.08	875786	keystroke_t	t	n/a
438.021	0.088	876042	keystroke_r	r	n/a
438.205	0.08	876410	keystroke_a	a	n/a
438.357	0.104	876714	keystroke_n	n	n/a
438.557	0.08	877114	keystroke_s	s	n/a
438.773	0.104	877546	keystroke_l	l	n/a
438.901	0.087	877802	keystroke_a	a	n/a
439.077	0.088	878154	keystroke_t	t	n/a
439.197	0.088	878394	keystroke_e	e	n/a
439.389	0.088	878778	keystroke_d	d	n/a
439.589	0.08	879178	keystroke_Key.enter	Key.enter	n/a
439.676	11.1945	879352	prompt	n/a	looked participating caring transportation\n
440.421	0.104	880842	keystroke_l	l	n/a
440.637	0.072	881274	keystroke_o	o	n/a
440.797	0.0715	881594	keystroke_o	o	n/a
440.957	0.0875	881914	keystroke_k	k	n/a
441.1085	0.08	882217	keystroke_e	e	n/a
441.2845	0.088	882569	keystroke_d	d	n/a
441.4045	0.08	882809	keystroke_Key.space	Key.space	n/a
441.5725	0.096	883145	keystroke_p	p	n/a
441.6925	0.096	883385	keystroke_a	a	n/a
441.8845	0.088	883769	keystroke_r	r	n/a
442.0925	0.08	884185	keystroke_t	t	n/a
442.2525	0.096	884505	keystroke_i	i	n/a
442.5085	0.112	885017	keystroke_c	c	n/a
442.8205	0.112	885641	keystroke_i	i	n/a
443.1245	0.096	886249	keystroke_p	p	n/a
443.3485	0.08	886697	keystroke_a	a	n/a
443.5565	0.064	887113	keystroke_t	t	n/a
443.9725	0.104	887945	keystroke_i	i	n/a
444.1005	0.104	888201	keystroke_n	n	n/a
444.2445	0.088	888489	keystroke_g	g	n/a
444.9245	0.112	889849	keystroke_Key.space	Key.space	n/a
445.2205	0.096	890441	keystroke_c	c	n/a
445.3805	0.087	890761	keystroke_a	a	n/a
445.5645	0.088	891129	keystroke_r	r	n/a
445.7005	0.088	891401	keystroke_i	i	n/a
445.7885	0.104	891577	keystroke_n	n	n/a
445.9165	0.08	891833	keystroke_g	g	n/a
446.0205	0.096	892041	keystroke_Key.space	Key.space	n/a
446.2365	0.064	892473	keystroke_t	t	n/a
446.4045	0.104	892809	keystroke_r	r	n/a
446.6125	0.08	893225	keystroke_a	a	n/a
446.8205	0.088	893641	keystroke_n	n	n/a
446.9725	0.088	893945	keystroke_s	s	n/a
447.3645	0.103	894729	keystroke_p	p	n/a
447.6125	0.088	895225	keystroke_o	o	n/a
447.7725	0.112	895545	keystroke_r	r	n/a
448.4605	0.104	896921	keystroke_t	t	n/a
448.6925	0.08	897385	keystroke_a	a	n/a
448.8765	0.08	897753	keystroke_t	t	n/a
448.9485	0.088	897897	keystroke_i	i	n/a
449.1325	0.088	898265	keystroke_o	o	n/a
449.2525	0.096	898505	keystroke_n	n	n/a
450.7885	0.08	901577	keystroke_Key.enter	Key.enter	n/a
450.877	9.7455	901754	prompt	n/a	employer screens we'll ridge\n
451.5485	0.096	903097	keystroke_e	e	n/a
451.6845	0.104	903369	keystroke_m	m	n/a
451.8845	0.096	903769	keystroke_p	p	n/a
452.0445	0.088	904089	keystroke_l	l	n/a
452.2365	0.064	904473	keystroke_o	o	n/a
452.3725	0.088	904745	keystroke_t	t	n/a
452.5565	0.12	905113	keystroke_e	e	n/a
452.7565	0.08	905513	keystroke_r	r	n/a
452.9715	0.088	905943	keystroke_Key.backspace	Key.backspace	n/a
453.1405	0.08	906281	keystroke_Key.backspace	Key.backspace	n/a
453.3085	0.095	906617	keystroke_Key.backspace	Key.backspace	n/a
453.8285	0.063	907657	keystroke_y	y	n/a
453.9485	0.08	907897	keystroke_e	e	n/a
454.1165	0.064	908233	keystroke_r	r	n/a
454.7325	0.096	909465	keystroke_Key.space	Key.space	n/a
454.9725	0.088	909945	keystroke_s	s	n/a
455.1565	0.087	910313	keystroke_c	c	n/a
455.3485	0.08	910697	keystroke_r	r	n/a
455.5085	0.08	911017	keystroke_e	e	n/a
455.6765	0.08	911353	keystroke_e	e	n/a
455.8045	0.079	911609	keystroke_n	n	n/a
455.9325	0.08	911865	keystroke_s	s	n/a
456.2675	0.089	912535	keystroke_Key.space	Key.space	n/a
456.4675	0.104	912935	keystroke_w	w	n/a
456.6925	0.072	913385	keystroke_e	e	n/a
456.8685	0.168	913737	keystroke_l	l	n/a
457.4915	0.113	914983	keystroke_Key.backspace	Key.backspace	n/a
458.0685	0.112	916137	keystroke_'	'	n/a
458.3405	0.072	916681	keystroke_l	l	n/a
458.5165	0.08	917033	keystroke_l	l	n/a
458.6755	0.081	917351	keystroke_Key.space	Key.space	n/a
458.9885	0.087	917977	keystroke_r	r	n/a
459.4045	0.111	918809	keystroke_i	i	n/a
459.7325	0.096	919465	keystroke_d	d	n/a
459.9645	0.071	919929	keystroke_g	g	n/a
460.1085	0.088	920217	keystroke_e	e	n/a
460.5485	0.072	921097	keystroke_Key.enter	Key.enter	n/a
460.629	7.122	921258	prompt	n/a	sale moisture remaining scanner\n
461.3485	0.096	922697	keystroke_s	s	n/a
461.5325	0.088	923065	keystroke_a	a	n/a
461.6445	0.096	923289	keystroke_l	l	n/a
461.7965	0.088	923593	keystroke_e	e	n/a
461.9245	0.08	923849	keystroke_Key.space	Key.space	n/a
462.0845	0.072	924169	keystroke_m	m	n/a
462.2285	0.104	924457	keystroke_o	o	n/a
462.4845	0.087	924969	keystroke_i	i	n/a
462.7485	0.103	925497	keystroke_s	s	n/a
463.1085	0.048	926217	keystroke_t	t	n/a
463.2205	0.096	926441	keystroke_u	u	n/a
463.5325	0.112	927065	keystroke_r	r	n/a
464.1875	0.081	928375	keystroke_e	e	n/a
464.5795	0.096	929159	keystroke_Key.space	Key.space	n/a
464.8685	0.0795	929737	keystroke_r	r	n/a
464.988	0.088	929976	keystroke_e	e	n/a
465.124	0.112	930248	keystroke_m	m	n/a
465.244	0.08	930488	keystroke_a	a	n/a
465.38	0.072	930760	keystroke_i	i	n/a
465.54	0.064	931080	keystroke_n	n	n/a
465.652	0.088	931304	keystroke_i	i	n/a
465.716	0.088	931432	keystroke_n	n	n/a
465.908	0.088	931816	keystroke_g	g	n/a
466.044	0.088	932088	keystroke_Key.space	Key.space	n/a
466.588	0.08	933176	keystroke_s	s	n/a
466.764	0.088	933528	keystroke_c	c	n/a
466.892	0.08	933784	keystroke_a	a	n/a
467.02	0.056	934040	keystroke_n	n	n/a
467.164	0.08	934328	keystroke_n	n	n/a
467.252	0.08	934504	keystroke_e	e	n/a
467.388	0.08	934776	keystroke_r	r	n/a
467.668	0.08	935336	keystroke_Key.enter	Key.enter	n/a
467.757	10.353	935514	prompt	n/a	numeric forecasts livecam beginning\n
468.444	0.088	936888	keystroke_n	n	n/a
468.628	0.088	937256	keystroke_u	u	n/a
468.868	0.08	937736	keystroke_m	m	n/a
469.284	0.112	938568	keystroke_e	e	n/a
469.492	0.072	938984	keystroke_r	r	n/a
469.644	0.072	939288	keystroke_i	i	n/a
469.796	0.088	939592	keystroke_c	c	n/a
470.236	0.08	940472	keystroke_Key.space	Key.space	n/a
470.8125	0.088	941625	keystroke_f	f	n/a
470.9245	0.072	941849	keystroke_o	o	n/a
471.1725	0.072	942345	keystroke_r	r	n/a
471.3405	0.08	942681	keystroke_e	e	n/a
471.6765	0.072	943353	keystroke_c	c	n/a
471.7965	0.08	943593	keystroke_a	a	n/a
472.0525	0.088	944105	keystroke_s	s	n/a
472.2925	0.08	944585	keystroke_t	t	n/a
472.8605	0.088	945721	keystroke_s	s	n/a
473.1485	0.088	946297	keystroke_Key.space	Key.space	n/a
473.3165	0.096	946633	keystroke_l	l	n/a
473.5165	0.08	947033	keystroke_i	i	n/a
473.6445	0.088	947289	keystroke_v	v	n/a
473.8045	0.088	947609	keystroke_e	e	n/a
474.1645	0.088	948329	keystroke_c	c	n/a
474.3085	0.088	948617	keystroke_a	a	n/a
474.4205	0.088	948841	keystroke_m	m	n/a
476.1645	0.088	952329	keystroke_Key.space	Key.space	n/a
476.5245	0.08	953049	keystroke_b	b	n/a
476.6765	0.08	953353	keystroke_e	e	n/a
476.9085	0.072	953817	keystroke_g	g	n/a
477.0445	0.096	954089	keystroke_i	i	n/a
477.2205	0.072	954441	keystroke_n	n	n/a
477.3885	0.08	954777	keystroke_n	n	n/a
477.5325	0.096	955065	keystroke_i	i	n/a
477.5965	0.088	955193	keystroke_n	n	n/a
477.7405	0.064	955481	keystroke_g	g	n/a
478.0445	0.064	956089	keystroke_Key.enter	Key.enter	n/a
478.1165	8.426	956233	prompt	n/a	morgan ambient frost diego\n
478.7965	0.088	957593	keystroke_m	m	n/a
478.9485	0.088	957897	keystroke_o	o	n/a
479.0925	0.08	958185	keystroke_r	r	n/a
479.3565	0.088	958713	keystroke_g	g	n/a
479.6125	0.08	959225	keystroke_a	a	n/a
479.8045	0.08	959609	keystroke_n	n	n/a
480.1325	0.088	960265	keystroke_Key.space	Key.space	n/a
480.3965	0.088	960793	keystroke_a	a	n/a
480.5485	0.104	961097	keystroke_m	m	n/a
480.7965	0.088	961593	keystroke_b	b	n/a
480.9245	0.08	961849	keystroke_i	i	n/a
481.0525	0.088	962105	keystroke_e	e	n/a
481.1725	0.072	962345	keystroke_n	n	n/a
481.3165	0.064	962633	keystroke_t	t	n/a
482.0915	0.113	964183	keystroke_Key.space	Key.space	n/a
482.5405	0.12	965081	keystroke_f	f	n/a
482.7085	0.096	965417	keystroke_o	o	n/a
482.9245	0.064	965849	keystroke_r	r	n/a
483.3965	0.08	966793	keystroke_Key.backspace	Key.backspace	n/a
483.5405	0.072	967081	keystroke_Key.backspace	Key.backspace	n/a
483.6135	0.095	967227	keystroke_r	r	n/a
483.7965	0.08	967593	keystroke_o	o	n/a
483.9405	0.088	967881	keystroke_s	s	n/a
484.1485	0.088	968297	keystroke_t	t	n/a
484.7885	0.087	969577	keystroke_Key.space	Key.space	n/a
485.4445	0.096	970889	keystroke_d	d	n/a
485.5725	0.08	971145	keystroke_i	i	n/a
485.7485	0.08	971497	keystroke_e	e	n/a
485.9405	0.072	971881	keystroke_g	g	n/a
486.1165	0.096	972233	keystroke_o	o	n/a
486.4605	0.08	972921	keystroke_Key.enter	Key.enter	n/a
486.5505	10.9275	973101	prompt	n/a	ieee participating achieving officer\n
487.1645	0.136	974329	keystroke_l	l	n/a
487.5725	0.08	975145	keystroke_Key.backspace	Key.backspace	n/a
487.8845	0.08	975769	keystroke_i	i	n/a
488.1725	0.08	976345	keystroke_e	e	n/a
488.4605	0.064	976921	keystroke_e	e	n/a
488.7475	0.057	977495	keystroke_e	e	n/a
489.4515	0.08	978903	keystroke_Key.space	Key.space	n/a
489.7075	0.097	979415	keystroke_p	p	n/a
489.8525	0.08	979705	keystroke_a	a	n/a
490.0125	0.088	980025	keystroke_r	r	n/a
490.2045	0.072	980409	keystroke_t	t	n/a
490.3165	0.096	980633	keystroke_i	i	n/a
490.4925	0.088	980985	keystroke_c	c	n/a
490.6045	0.088	981209	keystroke_i	i	n/a
490.8205	0.08	981641	keystroke_p	p	n/a
490.9565	0.096	981913	keystroke_a	a	n/a
491.1485	0.08	982297	keystroke_t	t	n/a
491.2445	0.088	982489	keystroke_i	i	n/a
491.3325	0.096	982665	keystroke_n	n	n/a
491.4765	0.08	982953	keystroke_g	g	n/a
491.5725	0.096	983145	keystroke_Key.space	Key.space	n/a
491.8045	0.088	983609	keystroke_a	a	n/a
492.4365	0.144	984873	keystroke_r	r	n/a
493.0605	0.087	986121	keystroke_Key.backspace	Key.backspace	n/a
493.7325	0.08	987465	keystroke_c	c	n/a
493.8605	0.072	987721	keystroke_h	h	n/a
494.0205	0.096	988041	keystroke_i	i	n/a
494.1885	0.096	988377	keystroke_e	e	n/a
494.3885	0.08	988777	keystroke_v	v	n/a
494.8365	0.12	989673	keystroke_i	i	n/a
495.1795	0.121	990359	keystroke_n	n	n/a
495.4205	0.088	990841	keystroke_g	g	n/a
495.6595	0.089	991319	keystroke_Key.space	Key.space	n/a
495.8925	0.096	991785	keystroke_o	o	n/a
496.1075	0.065	992215	keystroke_f	f	n/a
496.2605	0.087	992521	keystroke_f	f	n/a
496.4285	0.08	992857	keystroke_i	i	n/a
496.8365	0.088	993673	keystroke_c	c	n/a
497.0045	0.096	994009	keystroke_e	e	n/a
497.1635	0.081	994327	keystroke_r	r	n/a
497.3875	0.089	994775	keystroke_Key.enter	Key.enter	n/a
497.4845	5.858	994969	prompt	n/a	timely garage scanned peru\n
498.1795	0.081	996359	keystroke_t	t	n/a
498.2925	0.08	996585	keystroke_i	i	n/a
498.4605	0.088	996921	keystroke_m	m	n/a
498.5725	0.072	997145	keystroke_e	e	n/a
498.6845	0.088	997369	keystroke_l	l	n/a
498.8995	0.089	997799	keystroke_y	y	n/a
499.0845	0.079	998169	keystroke_Key.space	Key.space	n/a
499.7405	0.063	999481	keystroke_g	g	n/a
499.8845	0.08	999769	keystroke_a	a	n/a
500.0445	0.072	1000089	keystroke_r	r	n/a
500.1965	0.071	1000393	keystroke_a	a	n/a
500.3645	0.064	1000729	keystroke_g	g	n/a
500.4915	0.073	1000983	keystroke_e	e	n/a
500.7405	0.08	1001481	keystroke_Key.space	Key.space	n/a
500.9475	0.089	1001895	keystroke_s	s	n/a
501.1245	0.088	1002249	keystroke_c	c	n/a
501.2765	0.079	1002553	keystroke_a	a	n/a
501.4685	0.072	1002937	keystroke_n	n	n/a
501.6285	0.08	1003257	keystroke_n	n	n/a
501.7325	0.064	1003465	keystroke_e	e	n/a
501.9005	0.072	1003801	keystroke_d	d	n/a
501.9965	0.088	1003993	keystroke_Key.space	Key.space	n/a
502.2045	0.088	1004409	keystroke_p	p	n/a
502.3165	0.096	1004633	keystroke_e	e	n/a
502.6765	0.088	1005353	keystroke_r	r	n/a
502.8275	0.089	1005655	keystroke_u	u	n/a
503.2525	0.088	1006505	keystroke_Key.enter	Key.enter	n/a
503.348	9.8255	1006696	prompt	n/a	boys secretary resulting surely\n
504.0525	0.08	1008105	keystroke_b	b	n/a
504.1565	0.072	1008313	keystroke_o	o	n/a
504.3485	0.056	1008697	keystroke_t	t	n/a
504.3565	0.056	1008713	keystroke_y	y	n/a
504.8285	0.088	1009657	keystroke_Key.backspace	Key.backspace	n/a
504.9795	0.088	1009959	keystroke_Key.backspace	Key.backspace	n/a
505.4925	0.072	1010985	keystroke_y	y	n/a
505.7005	0.08	1011401	keystroke_s	s	n/a
505.8205	0.08	1011641	keystroke_Key.space	Key.space	n/a
505.9965	0.088	1011993	keystroke_s	s	n/a
506.1965	0.08	1012393	keystroke_e	e	n/a
506.4045	0.104	1012809	keystroke_c	c	n/a
506.6205	0.079	1013241	keystroke_r	r	n/a
506.7405	0.096	1013481	keystroke_e	e	n/a
506.9405	0.096	1013881	keystroke_t	t	n/a
507.3245	0.088	1014649	keystroke_a	a	n/a
507.5565	0.064	1015113	keystroke_r	r	n/a
507.8755	0.081	1015751	keystroke_y	y	n/a
508.3885	0.104	1016777	keystroke_Key.space	Key.space	n/a
508.7795	0.096	1017559	keystroke_r	r	n/a
508.9245	0.08	1017849	keystroke_e	e	n/a
509.1475	0.073	1018295	keystroke_s	s	n/a
509.3405	0.088	1018681	keystroke_u	u	n/a
509.6365	0.12	1019273	keystroke_l	l	n/a
510.2915	0.073	1020583	keystroke_t	t	n/a
510.3955	0.081	1020791	keystroke_i	i	n/a
510.5405	0.088	1021081	keystroke_n	n	n/a
510.6675	0.073	1021335	keystroke_g	g	n/a
510.7725	0.087	1021545	keystroke_Key.space	Key.space	n/a
511.0435	0.088	1022087	keystroke_s	s	n/a
511.1885	0.08	1022377	keystroke_u	u	n/a
511.3485	0.087	1022697	keystroke_r	r	n/a
511.4595	0.097	1022919	keystroke_e	e	n/a
511.6045	0.088	1023209	keystroke_l	l	n/a
511.8035	0.08	1023607	keystroke_y	y	n/a
513.0835	0.088	1026167	keystroke_Key.enter	Key.enter	n/a
513.178	9.444	1026356	prompt	n/a	derived imperial weird urls\n
514.1565	0.072	1028313	keystroke_d	d	n/a
514.3405	0.088	1028681	keystroke_e	e	n/a
516.6925	0.096	1033385	keystroke_r	r	n/a
516.8755	0.081	1033751	keystroke_i	i	n/a
517.0035	0.08	1034007	keystroke_v	v	n/a
517.1565	0.08	1034313	keystroke_e	e	n/a
517.3645	0.088	1034729	keystroke_d	d	n/a
517.764	0.08	1035528	keystroke_Key.space	Key.space	n/a
517.916	0.096	1035832	keystroke_i	i	n/a
518.116	0.088	1036232	keystroke_m	m	n/a
518.3	0.064	1036600	keystroke_p	p	n/a
518.468	0.088	1036936	keystroke_e	e	n/a
518.628	0.072	1037256	keystroke_r	r	n/a
518.708	0.088	1037416	keystroke_i	i	n/a
518.876	0.08	1037752	keystroke_a	a	n/a
519.004	0.08	1038008	keystroke_l	l	n/a
519.948	0.08	1039896	keystroke_Key.space	Key.space	n/a
520.34	0.096	1040680	keystroke_w	w	n/a
520.572	0.08	1041144	keystroke_e	e	n/a
520.74	0.08	1041480	keystroke_i	i	n/a
520.892	0.08	1041784	keystroke_r	r	n/a
521.1	0.088	1042200	keystroke_d	d	n/a
521.524	0.072	1043048	keystroke_Key.space	Key.space	n/a
521.708	0.072	1043416	keystroke_u	u	n/a
521.916	0.08	1043832	keystroke_r	r	n/a
522.108	0.08	1044216	keystroke_l	l	n/a
522.276	0.08	1044552	keystroke_s	s	n/a
522.548	0.072	1045096	keystroke_Key.enter	Key.enter	n/a
522.6275	7.762	1045255	prompt	n/a	chaos museums ohio glenn\n
523.332	0.096	1046664	keystroke_c	c	n/a
523.444	0.064	1046888	keystroke_h	h	n/a
523.524	0.088	1047048	keystroke_a	a	n/a
524.092	0.096	1048184	keystroke_o	o	n/a
524.468	0.088	1048936	keystroke_s	s	n/a
524.9	0.08	1049800	keystroke_Key.space	Key.space	n/a
525.1	0.096	1050200	keystroke_m	m	n/a
525.372	0.0715	1050744	keystroke_u	u	n/a
525.5075	0.08	1051015	keystroke_s	s	n/a
525.708	0.0715	1051416	keystroke_e	e	n/a
526.0355	0.0965	1052071	keystroke_u	u	n/a
526.2835	0.096	1052567	keystroke_m	m	n/a
526.8275	0.096	1053655	keystroke_s	s	n/a
527.084	0.0795	1054168	keystroke_Key.space	Key.space	n/a
527.2915	0.12	1054583	keystroke_o	o	n/a
527.6115	0.088	1055223	keystroke_h	h	n/a
527.7555	0.104	1055511	keystroke_i	i	n/a
527.9635	0.096	1055927	keystroke_o	o	n/a
528.2035	0.096	1056407	keystroke_Key.space	Key.space	n/a
528.9315	0.08	1057863	keystroke_g	g	n/a
529.0275	0.072	1058055	keystroke_l	l	n/a
529.1315	0.072	1058263	keystroke_e	e	n/a
529.3155	0.0645	1058631	keystroke_n	n	n/a
529.4595	0.064	1058919	keystroke_n	n	n/a
530.2995	0.088	1060599	keystroke_Key.enter	Key.enter	n/a
530.3945	6.611	1060789	prompt	n/a	using bailey ranger reconstruction\n
531.1955	0.088	1062391	keystroke_u	u	n/a
531.3235	0.096	1062647	keystroke_s	s	n/a
531.4115	0.064	1062823	keystroke_i	i	n/a
531.5315	0.072	1063063	keystroke_n	n	n/a
531.6595	0.08	1063319	keystroke_g	g	n/a
531.7475	0.088	1063495	keystroke_Key.space	Key.space	n/a
532.0195	0.08	1064039	keystroke_b	b	n/a
532.2035	0.08	1064407	keystroke_a	a	n/a
532.3235	0.088	1064647	keystroke_i	i	n/a
532.5395	0.08	1065079	keystroke_l	l	n/a
532.6755	0.08	1065351	keystroke_e	e	n/a
532.8915	0.08	1065783	keystroke_y	y	n/a
533.0595	0.088	1066119	keystroke_Key.space	Key.space	n/a
533.2355	0.088	1066471	keystroke_r	r	n/a
533.4195	0.072	1066839	keystroke_a	a	n/a
533.5155	0.08	1067031	keystroke_n	n	n/a
533.7075	0.08	1067415	keystroke_g	g	n/a
533.8355	0.08	1067671	keystroke_e	e	n/a
533.9795	0.08	1067959	keystroke_r	r	n/a
534.2995	0.088	1068599	keystroke_Key.space	Key.space	n/a
534.5955	0.088	1069191	keystroke_r	r	n/a
534.7475	0.088	1069495	keystroke_e	e	n/a
535.0035	0.088	1070007	keystroke_c	c	n/a
535.0995	0.072	1070199	keystroke_o	o	n/a
535.2515	0.072	1070503	keystroke_n	n	n/a
535.3555	0.08	1070711	keystroke_s	s	n/a
535.5475	0.08	1071095	keystroke_t	t	n/a
535.6515	0.08	1071303	keystroke_r	r	n/a
535.7555	0.08	1071511	keystroke_u	u	n/a
535.9635	0.096	1071927	keystroke_c	c	n/a
536.1875	0.064	1072375	keystroke_t	t	n/a
536.2835	0.088	1072567	keystroke_i	i	n/a
536.4595	0.072	1072919	keystroke_o	o	n/a
536.5795	0.072	1073159	keystroke_n	n	n/a
536.9315	0.072	1073863	keystroke_Key.enter	Key.enter	n/a
537.0215	10.16	1074043	prompt	n/a	donald certificates ranch coupled\n
537.8035	0.08	1075607	keystroke_d	d	n/a
537.9075	0.064	1075815	keystroke_o	o	n/a
538.0675	0.072	1076135	keystroke_n	n	n/a
538.1635	0.088	1076327	keystroke_a	a	n/a
538.2835	0.072	1076567	keystroke_l	l	n/a
538.5235	0.088	1077047	keystroke_d	d	n/a
538.7075	0.088	1077415	keystroke_Key.space	Key.space	n/a
538.9475	0.096	1077895	keystroke_c	c	n/a
539.1475	0.096	1078295	keystroke_e	e	n/a
540.1395	0.104	1080279	keystroke_r	r	n/a
540.9475	0.08	1081895	keystroke_t	t	n/a
541.1475	0.088	1082295	keystroke_i	i	n/a
541.3715	0.112	1082743	keystroke_f	f	n/a
541.5475	0.104	1083095	keystroke_i	i	n/a
542.2755	0.08	1084551	keystroke_c	c	n/a
542.4115	0.112	1084823	keystroke_a	a	n/a
542.6275	0.096	1085255	keystroke_t	t	n/a
542.8035	0.072	1085607	keystroke_e	e	n/a
543.0035	0.104	1086007	keystroke_s	s	n/a
543.4835	0.096	1086967	keystroke_Key.space	Key.space	n/a
543.7155	0.112	1087431	keystroke_r	r	n/a
543.8915	0.088	1087783	keystroke_a	a	n/a
544.0035	0.08	1088007	keystroke_n	n	n/a
544.4595	0.096	1088919	keystroke_c	c	n/a
544.5635	0.08	1089127	keystroke_h	h	n/a
545.2995	0.08	1090599	keystroke_Key.space	Key.space	n/a
545.9395	0.096	1091879	keystroke_c	c	n/a
546.0275	0.072	1092055	keystroke_o	o	n/a
546.1555	0.072	1092311	keystroke_u	u	n/a
546.3235	0.08	1092647	keystroke_p	p	n/a
546.4595	0.064	1092919	keystroke_l	l	n/a
546.5955	0.072	1093191	keystroke_e	e	n/a
546.7955	0.096	1093591	keystroke_d	d	n/a
547.0995	0.08	1094199	keystroke_Key.enter	Key.enter	n/a
547.188	7.809	1094376	prompt	n/a	dishes shorts amplifier final\n
547.8275	0.088	1095655	keystroke_d	d	n/a
547.9235	0.072	1095847	keystroke_i	i	n/a
548.0195	0.088	1096039	keystroke_s	s	n/a
548.1315	0.064	1096263	keystroke_h	h	n/a
548.2515	0.088	1096503	keystroke_e	e	n/a
548.5955	0.088	1097191	keystroke_s	s	n/a
548.9315	0.088	1097863	keystroke_Key.space	Key.space	n/a
549.1075	0.08	1098215	keystroke_s	s	n/a
549.2035	0.056	1098407	keystroke_h	h	n/a
549.3315	0.08	1098663	keystroke_o	o	n/a
549.4675	0.088	1098935	keystroke_r	r	n/a
549.6515	0.08	1099303	keystroke_t	t	n/a
549.8755	0.088	1099751	keystroke_s	s	n/a
550.0275	0.08	1100055	keystroke_Key.space	Key.space	n/a
550.2355	0.072	1100471	keystroke_a	a	n/a
550.3795	0.104	1100759	keystroke_m	m	n/a
550.7635	0.104	1101527	keystroke_p	p	n/a
550.9155	0.096	1101831	keystroke_l	l	n/a
551.1315	0.088	1102263	keystroke_i	i	n/a
551.3795	0.08	1102759	keystroke_f	f	n/a
551.5715	0.08	1103143	keystroke_i	i	n/a
551.6995	0.08	1103399	keystroke_e	e	n/a
551.8675	0.064	1103735	keystroke_r	r	n/a
552.1395	0.08	1104279	keystroke_Key.space	Key.space	n/a
552.5475	0.088	1105095	keystroke_g	g	n/a
553.0195	0.072	1106039	keystroke_Key.backspace	Key.backspace	n/a
553.2675	0.088	1106535	keystroke_f	f	n/a
553.3955	0.08	1106791	keystroke_i	i	n/a
553.5475	0.072	1107095	keystroke_n	n	n/a
553.6515	0.08	1107303	keystroke_a	a	n/a
553.7635	0.072	1107527	keystroke_l	l	n/a
554.9155	0.08	1109831	keystroke_Key.enter	Key.enter	n/a
555.0025	11.6745	1110005	prompt	n/a	regarded almost circuit bigger\n
555.6675	0.08	1111335	keystroke_r	r	n/a
555.8115	0.104	1111623	keystroke_e	e	n/a
556.0115	0.072	1112023	keystroke_g	g	n/a
556.1715	0.089	1112343	keystroke_a	a	n/a
556.3475	0.088	1112695	keystroke_r	r	n/a
556.5875	0.104	1113175	keystroke_d	d	n/a
557.0275	0.096	1114055	keystroke_e	e	n/a
557.2595	0.064	1114519	keystroke_d	d	n/a
557.3795	0.088	1114759	keystroke_Key.space	Key.space	n/a
557.5715	0.072	1115143	keystroke_s	s	n/a
557.8675	0.072	1115735	keystroke_Key.backspace	Key.backspace	n/a
557.9795	0.088	1115959	keystroke_a	a	n/a
558.1155	0.12	1116231	keystroke_l	l	n/a
558.4035	0.08	1116807	keystroke_s	s	n/a
558.5315	0.072	1117063	keystroke_m	m	n/a
558.7555	0.056	1117511	keystroke_Key.backspace	Key.backspace	n/a
558.8835	0.072	1117767	keystroke_Key.backspace	Key.backspace	n/a
559.0755	0.072	1118151	keystroke_m	m	n/a
559.2035	0.072	1118407	keystroke_o	o	n/a
559.3315	0.096	1118663	keystroke_s	s	n/a
559.5555	0.072	1119111	keystroke_t	t	n/a
559.6675	0.088	1119335	keystroke_Key.space	Key.space	n/a
559.8995	0.088	1119799	keystroke_c	c	n/a
560.0035	0.096	1120007	keystroke_i	i	n/a
560.4355	0.08	1120871	keystroke_c	c	n/a
560.5555	0.112	1121111	keystroke_u	u	n/a
560.8355	0.096	1121671	keystroke_i	i	n/a
561.0835	0.088	1122167	keystroke_t	t	n/a
561.5715	0.08	1123143	keystroke_Key.space	Key.space	n/a
561.7715	0.088	1123543	keystroke_b	b	n/a
561.8755	0.08	1123751	keystroke_i	i	n/a
562.0275	0.08	1124055	keystroke_g	g	n/a
562.1795	0.072	1124359	keystroke_g	g	n/a
562.4835	0.08	1124967	keystroke_Key.backspace	Key.backspace	n/a
562.6435	0.08	1125287	keystroke_Key.backspace	Key.backspace	n/a
562.8115	0.072	1125623	keystroke_Key.backspace	Key.backspace	n/a
562.9795	0.08	1125959	keystroke_Key.backspace	Key.backspace	n/a
563.1475	0.08	1126295	keystroke_Key.backspace	Key.backspace	n/a
563.3075	0.088	1126615	keystroke_Key.backspace	Key.backspace	n/a
563.4675	0.08	1126935	keystroke_Key.backspace	Key.backspace	n/a
563.6275	0.088	1127255	keystroke_Key.backspace	Key.backspace	n/a
563.8115	0.088	1127623	keystroke_Key.backspace	Key.backspace	n/a
564.0115	0.088	1128023	keystroke_r	r	n/a
564.3075	0.08	1128615	keystroke_c	c	n/a
564.4515	0.088	1128903	keystroke_u	u	n/a
564.6435	0.088	1129287	keystroke_i	i	n/a
564.8115	0.096	1129623	keystroke_t	t	n/a
565.0355	0.088	1130071	keystroke_Key.space	Key.space	n/a
565.4435	0.088	1130887	keystroke_b	b	n/a
565.5715	0.088	1131143	keystroke_i	i	n/a
565.7955	0.088	1131591	keystroke_g	g	n/a
565.9635	0.08	1131927	keystroke_g	g	n/a
566.1315	0.088	1132263	keystroke_e	e	n/a
566.2835	0.08	1132567	keystroke_r	r	n/a
566.6035	0.072	1133207	keystroke_Key.enter	Key.enter	n/a
566.6825	8.0745	1133365	prompt	n/a	henry surge travels employer\n
567.363	0.08	1134726	keystroke_h	h	n/a
567.459	0.096	1134918	keystroke_e	e	n/a
567.571	0.08	1135142	keystroke_n	n	n/a
567.707	0.12	1135414	keystroke_r	r	n/a
567.987	0.072	1135974	keystroke_y	y	n/a
568.1715	0.0795	1136343	keystroke_Key.space	Key.space	n/a
568.307	0.08	1136614	keystroke_s	s	n/a
568.403	0.064	1136806	keystroke_u	u	n/a
568.563	0.096	1137126	keystroke_r	r	n/a
569.075	0.096	1138150	keystroke_g	g	n/a
569.331	0.0805	1138662	keystroke_e	e	n/a
569.675	0.08	1139350	keystroke_Key.space	Key.space	n/a
569.971	0.072	1139942	keystroke_t	t	n/a
570.091	0.08	1140182	keystroke_r	r	n/a
570.267	0.08	1140534	keystroke_a	a	n/a
570.603	0.0805	1141206	keystroke_v	v	n/a
570.7635	0.0715	1141527	keystroke_e	e	n/a
570.875	0.088	1141750	keystroke_l	l	n/a
571.739	0.08	1143478	keystroke_s	s	n/a
571.859	0.104	1143718	keystroke_Key.space	Key.space	n/a
571.995	0.0795	1143990	keystroke_e	e	n/a
572.123	0.072	1144246	keystroke_m	m	n/a
572.283	0.0795	1144566	keystroke_p	p	n/a
572.4025	0.08	1144805	keystroke_l	l	n/a
573.6585	0.064	1147317	keystroke_o	o	n/a
574.0105	0.08	1148021	keystroke_y	y	n/a
574.1705	0.096	1148341	keystroke_e	e	n/a
574.3305	0.08	1148661	keystroke_r	r	n/a
574.675	0.0795	1149350	keystroke_Key.enter	Key.enter	n/a
574.7645	10.272	1149529	prompt	n/a	meyer flags pasta variables\n
575.4905	0.088	1150981	keystroke_m	m	n/a
575.5865	0.096	1151173	keystroke_e	e	n/a
575.8265	0.064	1151653	keystroke_t	t	n/a
576.4425	0.072	1152885	keystroke_Key.backspace	Key.backspace	n/a
576.5545	0.08	1153109	keystroke_y	y	n/a
576.7145	0.08	1153429	keystroke_e	e	n/a
576.8745	0.056	1153749	keystroke_r	r	n/a
577.0665	0.096	1154133	keystroke_Key.space	Key.space	n/a
577.8745	0.08	1155749	keystroke_f	f	n/a
577.9945	0.08	1155989	keystroke_l	l	n/a
578.0825	0.08	1156165	keystroke_a	a	n/a
578.2665	0.072	1156533	keystroke_g	g	n/a
578.7785	0.08	1157557	keystroke_s	s	n/a
578.9625	0.08	1157925	keystroke_Key.space	Key.space	n/a
579.3065	0.096	1158613	keystroke_p	p	n/a
579.4505	0.08	1158901	keystroke_a	a	n/a
579.5945	0.072	1159189	keystroke_s	s	n/a
579.7705	0.08	1159541	keystroke_t	t	n/a
579.9145	0.088	1159829	keystroke_a	a	n/a
580.0185	0.08	1160037	keystroke_Key.space	Key.space	n/a
580.2265	0.096	1160453	keystroke_a	a	n/a
580.5225	0.072	1161045	keystroke_Key.backspace	Key.backspace	n/a
580.6585	0.08	1161317	keystroke_v	v	n/a
580.7945	0.096	1161589	keystroke_a	a	n/a
581.5065	0.08	1163013	keystroke_r	r	n/a
581.6505	0.072	1163301	keystroke_i	i	n/a
581.7705	0.104	1163541	keystroke_a	a	n/a
582.0905	0.08	1164181	keystroke_t	t	n/a
583.1385	0.088	1166277	keystroke_Key.backspace	Key.backspace	n/a
583.5785	0.088	1167157	keystroke_b	b	n/a
583.7385	0.088	1167477	keystroke_l	l	n/a
583.8745	0.088	1167749	keystroke_e	e	n/a
584.0825	0.064	1168165	keystroke_s	s	n/a
584.9625	0.072	1169925	keystroke_Key.enter	Key.enter	n/a
585.0415	11.8585	1170083	prompt	n/a	securities glen beijing recycling\n
585.7065	0.08	1171413	keystroke_s	s	n/a
585.9145	0.088	1171829	keystroke_e	e	n/a
586.1545	0.112	1172309	keystroke_c	c	n/a
586.6425	0.104	1173285	keystroke_u	u	n/a
587.1545	0.096	1174309	keystroke_r	r	n/a
587.4425	0.08	1174885	keystroke_i	i	n/a
587.6745	0.096	1175349	keystroke_t	t	n/a
588.0665	0.096	1176133	keystroke_y	y	n/a
588.3385	0.096	1176677	keystroke_i	i	n/a
588.6505	0.064	1177301	keystroke_Key.backspace	Key.backspace	n/a
588.7785	0.064	1177557	keystroke_Key.backspace	Key.backspace	n/a
588.9955	0.079	1177991	keystroke_i	i	n/a
589.1065	0.08	1178213	keystroke_e	e	n/a
589.3305	0.08	1178661	keystroke_s	s	n/a
589.9065	0.096	1179813	keystroke_Key.space	Key.space	n/a
590.6185	0.072	1181237	keystroke_g	g	n/a
590.7305	0.08	1181461	keystroke_l	l	n/a
590.9225	0.072	1181845	keystroke_e	e	n/a
591.0745	0.088	1182149	keystroke_n	n	n/a
591.3225	0.088	1182645	keystroke_Key.space	Key.space	n/a
591.7145	0.088	1183429	keystroke_b	b	n/a
591.9545	0.088	1183909	keystroke_e	e	n/a
592.1865	0.088	1184373	keystroke_i	i	n/a
592.8265	0.112	1185653	keystroke_j	j	n/a
593.1785	0.08	1186357	keystroke_i	i	n/a
593.3385	0.08	1186677	keystroke_n	n	n/a
593.4985	0.088	1186997	keystroke_g	g	n/a
593.8265	0.088	1187653	keystroke_Key.space	Key.space	n/a
594.0425	0.08	1188085	keystroke_r	r	n/a
594.1705	0.088	1188341	keystroke_e	e	n/a
594.5145	0.104	1189029	keystroke_c	c	n/a
594.8425	0.08	1189685	keystroke_y	y	n/a
595.3145	0.112	1190629	keystroke_c	c	n/a
595.5545	0.088	1191109	keystroke_l	l	n/a
595.7625	0.112	1191525	keystroke_i	i	n/a
595.8585	0.08	1191717	keystroke_n	n	n/a
596.0025	0.08	1192005	keystroke_g	g	n/a
596.8265	0.072	1193653	keystroke_Key.enter	Key.enter	n/a
596.905	8.7235	1193810	prompt	n/a	reveals engagement know dying\n
597.5385	0.088	1195077	keystroke_r	r	n/a
597.6745	0.096	1195349	keystroke_e	e	n/a
598.2105	0.112	1196421	keystroke_v	v	n/a
598.6345	0.12	1197269	keystroke_e	e	n/a
599.1945	0.08	1198389	keystroke_a	a	n/a
599.5385	0.112	1199077	keystroke_l	l	n/a
599.8105	0.08	1199621	keystroke_s	s	n/a
600.0425	0.104	1200085	keystroke_Key.space	Key.space	n/a
600.2985	0.08	1200597	keystroke_e	e	n/a
600.4665	0.08	1200933	keystroke_n	n	n/a
600.7065	0.064	1201413	keystroke_g	g	n/a
600.8505	0.072	1201701	keystroke_a	a	n/a
601.5065	0.072	1203013	keystroke_g	g	n/a
602.3785	0.08	1204757	keystroke_e	e	n/a
602.5225	0.096	1205045	keystroke_m	m	n/a
602.6585	0.104	1205317	keystroke_e	e	n/a
602.7635	0.071	1205527	keystroke_n	n	n/a
602.9385	0.096	1205877	keystroke_t	t	n/a
603.4905	0.088	1206981	keystroke_Key.space	Key.space	n/a
603.6505	0.088	1207301	keystroke_k	k	n/a
603.8265	0.064	1207653	keystroke_n	n	n/a
603.9545	0.088	1207909	keystroke_o	o	n/a
604.0585	0.072	1208117	keystroke_w	w	n/a
604.1545	0.08	1208309	keystroke_Key.space	Key.space	n/a
604.8425	0.088	1209685	keystroke_d	d	n/a
605.0905	0.064	1210181	keystroke_y	y	n/a
605.1705	0.096	1210341	keystroke_i	i	n/a
605.2505	0.08	1210501	keystroke_n	n	n/a
605.3705	0.064	1210741	keystroke_g	g	n/a
605.5545	0.072	1211109	keystroke_Key.enter	Key.enter	n/a
605.6345	10.914	1211269	prompt	n/a	shortcuts amended offerings findlaw\n
606.3385	0.088	1212677	keystroke_s	s	n/a
606.4505	0.056	1212901	keystroke_h	h	n/a
606.5945	0.088	1213189	keystroke_o	o	n/a
606.7225	0.056	1213445	keystroke_r	r	n/a
607.6665	0.088	1215333	keystroke_t	t	n/a
608.1305	0.096	1216261	keystroke_c	c	n/a
608.2665	0.072	1216533	keystroke_u	u	n/a
608.4585	0.088	1216917	keystroke_t	t	n/a
609.0985	0.064	1218197	keystroke_s	s	n/a
609.2905	0.088	1218581	keystroke_Key.space	Key.space	n/a
609.5145	0.088	1219029	keystroke_a	a	n/a
609.6345	0.088	1219269	keystroke_m	m	n/a
609.9225	0.088	1219845	keystroke_e	e	n/a
610.0345	0.08	1220069	keystroke_n	n	n/a
610.1785	0.096	1220357	keystroke_d	d	n/a
610.3865	0.08	1220773	keystroke_e	e	n/a
610.5785	0.072	1221157	keystroke_d	d	n/a
610.7225	0.08	1221445	keystroke_Key.space	Key.space	n/a
610.9225	0.088	1221845	keystroke_o	o	n/a
611.0665	0.096	1222133	keystroke_f	f	n/a
611.2505	0.064	1222501	keystroke_f	f	n/a
611.3785	0.08	1222757	keystroke_e	e	n/a
611.5065	0.096	1223013	keystroke_r	r	n/a
611.5945	0.08	1223189	keystroke_e	e	n/a
611.7225	0.152	1223445	keystroke_i	i	n/a
612.6425	0.08	1225285	keystroke_Key.backspace	Key.backspace	n/a
612.8185	0.08	1225637	keystroke_Key.backspace	Key.backspace	n/a
613.0745	0.088	1226149	keystroke_i	i	n/a
613.2505	0.08	1226501	keystroke_n	n	n/a
613.4185	0.0795	1226837	keystroke_g	g	n/a
613.738	0.088	1227476	keystroke_s	s	n/a
613.9545	0.088	1227909	keystroke_Key.space	Key.space	n/a
614.9305	0.08	1229861	keystroke_f	f	n/a
615.1305	0.096	1230261	keystroke_i	i	n/a
615.3625	0.096	1230725	keystroke_n	n	n/a
615.6345	0.088	1231269	keystroke_d	d	n/a
615.7945	0.08	1231589	keystroke_l	l	n/a
615.9305	0.088	1231861	keystroke_a	a	n/a
616.0985	0.08	1232197	keystroke_w	w	n/a
616.4745	0.072	1232949	keystroke_Key.enter	Key.enter	n/a
616.554	7.4825	1233108	prompt	n/a	bool courses aaron fancy\n
617.2665	0.104	1234533	keystroke_b	b	n/a
617.8265	0.088	1235653	keystroke_o	o	n/a
618.0025	0.0965	1236005	keystroke_o	o	n/a
618.234	0.105	1236468	keystroke_l	l	n/a
618.387	0.095	1236774	keystroke_Key.space	Key.space	n/a
618.603	0.096	1237206	keystroke_c	c	n/a
618.715	0.063	1237430	keystroke_o	o	n/a
618.867	0.071	1237734	keystroke_u	u	n/a
618.986	0.072	1237972	keystroke_r	r	n/a
619.146	0.081	1238292	keystroke_s	s	n/a
619.323	0.071	1238646	keystroke_e	e	n/a
619.515	0.072	1239030	keystroke_s	s	n/a
619.634	0.088	1239268	keystroke_Key.space	Key.space	n/a
619.811	0.088	1239622	keystroke_a	a	n/a
619.994	0.081	1239988	keystroke_a	a	n/a
620.483	0.071	1240966	keystroke_r	r	n/a
620.7935	0.096	1241587	keystroke_o	o	n/a
621.0415	0.104	1242083	keystroke_n	n	n/a
621.9535	0.097	1243907	keystroke_Key.space	Key.space	n/a
622.4345	0.08	1244869	keystroke_f	f	n/a
622.6745	0.096	1245349	keystroke_a	a	n/a
623.2185	0.08	1246437	keystroke_n	n	n/a
623.3305	0.104	1246661	keystroke_c	c	n/a
623.5865	0.08	1247173	keystroke_y	y	n/a
623.9615	0.072	1247923	keystroke_Key.enter	Key.enter	n/a
624.042	10.027	1248084	prompt	n/a	true proceedings september exceptions\n
624.8825	0.088	1249765	keystroke_t	t	n/a
625.0585	0.088	1250117	keystroke_r	r	n/a
625.1855	0.081	1250371	keystroke_u	u	n/a
625.3375	0.089	1250675	keystroke_e	e	n/a
625.7465	0.087	1251493	keystroke_Key.space	Key.space	n/a
625.9705	0.103	1251941	keystroke_p	p	n/a
626.1385	0.096	1252277	keystroke_r	r	n/a
626.3295	0.08	1252659	keystroke_o	o	n/a
626.7775	0.088	1253555	keystroke_c	c	n/a
626.9625	0.071	1253925	keystroke_e	e	n/a
627.1935	0.096	1254387	keystroke_e	e	n/a
627.4185	0.08	1254837	keystroke_d	d	n/a
627.5615	0.105	1255123	keystroke_i	i	n/a
627.6505	0.096	1255301	keystroke_n	n	n/a
627.7785	0.072	1255557	keystroke_g	g	n/a
627.9865	0.08	1255973	keystroke_s	s	n/a
628.0895	0.089	1256179	keystroke_Key.space	Key.space	n/a
628.2815	0.08	1256563	keystroke_s	s	n/a
628.4665	0.08	1256933	keystroke_e	e	n/a
628.5785	0.096	1257157	keystroke_p	p	n/a
628.7705	0.08	1257541	keystroke_t	t	n/a
628.9535	0.08	1257907	keystroke_e	e	n/a
629.1295	0.096	1258259	keystroke_m	m	n/a
629.5935	0.089	1259187	keystroke_b	b	n/a
