onset	duration	sample	value	key	prompt_text
11.955	13.621	23910	prompt	n/a	the quick brown fox jumps over a lazy dog\n
13.263	0.0125	26526	keystroke	t	n/a
13.2895	0.076	26579	keystroke	h	n/a
13.7395	0.09	27479	keystroke	e	n/a
13.949	0.0895	27898	keystroke	Key.space	n/a
14.25	0.1345	28500	keystroke	q	n/a
14.519	0.105	29038	keystroke	u	n/a
14.7295	0.075	29459	keystroke	i	n/a
15.21	0.045	30420	keystroke	c	n/a
15.569	0.06	31138	keystroke	k	n/a
15.78	0.105	31560	keystroke	Key.space	n/a
16.2895	0.06	32579	keystroke	b	n/a
16.574	0.091	33148	keystroke	r	n/a
16.7545	0.09	33509	keystroke	o	n/a
16.919	0.105	33838	keystroke	w	n/a
17.13	0.09	34260	keystroke	n	n/a
17.4295	0.0895	34859	keystroke	Key.space	n/a
18.4035	0.075	36807	keystroke	f	n/a
18.5855	0.0745	37171	keystroke	o	n/a
19.0185	0.0905	38037	keystroke	x	n/a
19.199	0.0895	38398	keystroke	Key.space	n/a
19.6195	0.06	39239	keystroke	j	n/a
19.859	0.0745	39718	keystroke	u	n/a
20.084	0.09	40168	keystroke	m	n/a
20.383	0.09	40766	keystroke	p	n/a
20.594	0.0895	41188	keystroke	s	n/a
20.7285	0.0895	41457	keystroke	Key.space	n/a
21.284	0.044	42568	keystroke	o	n/a
21.4785	0.0755	42957	keystroke	v	n/a
21.7035	0.1345	43407	keystroke	e	n/a
21.913	0.061	43826	keystroke	r	n/a
22.064	0.0755	44128	keystroke	Key.space	n/a
22.259	0.105	44518	keystroke	a	n/a
22.439	0.0895	44878	keystroke	Key.space	n/a
22.6785	0.1045	45357	keystroke	l	n/a
22.8885	0.09	45777	keystroke	a	n/a
23.233	0.1045	46466	keystroke	z	n/a
23.4735	0.045	46947	keystroke	y	n/a
23.683	0.09	47366	keystroke	Key.space	n/a
24.223	0.105	48446	keystroke	d	n/a
24.554	0.075	49108	keystroke	o	n/a
24.689	0.1345	49378	keystroke	g	n/a
25.514	0.0595	51028	keystroke	Key.enter	n/a
25.5805	12.0235	51161	prompt	n/a	inquiry depression bool considerable\n
26.3685	0.015	52737	keystroke	i	n/a
26.5185	0.075	53037	keystroke	n	n/a
26.8785	0.105	53757	keystroke	q	n/a
27.148	0.0895	54296	keystroke	u	n/a
27.733	0.045	55466	keystroke	i	n/a
27.9735	0.06	55947	keystroke	r	n/a
28.258	0.0755	56516	keystroke	y	n/a
28.4835	0.09	56967	keystroke	Key.space	n/a
28.9935	0.1045	57987	keystroke	d	n/a
29.2625	0.091	58525	keystroke	e	n/a
29.533	0.075	59066	keystroke	p	n/a
29.788	0.075	59576	keystroke	r	n/a
30.0575	0.12	60115	keystroke	e	n/a
30.388	0.0905	60776	keystroke	s	n/a
30.583	0.105	61166	keystroke	s	n/a
30.9725	0.1055	61945	keystroke	i	n/a
31.1525	0.106	62305	keystroke	o	n/a
31.3635	0.1045	62727	keystroke	n	n/a
31.618	0.075	63236	keystroke	Key.space	n/a
32.0375	0.1205	64075	keystroke	b	n/a
32.3535	0.0745	64707	keystroke	o	n/a
32.488	0.09	64976	keystroke	o	n/a
32.758	0.09	65516	keystroke	l	n/a
33.0425	0.0745	66085	keystroke	Key.space	n/a
33.6285	0.1345	67257	keystroke	c	n/a
34.228	0.09	68456	keystroke	o	n/a
34.438	0.105	68876	keystroke	n	n/a
34.7225	0.09	69445	keystroke	s	n/a
34.8875	0.0605	69775	keystroke	i	n/a
35.068	0.0905	70136	keystroke	d	n/a
35.2925	0.1055	70585	keystroke	e	n/a
35.533	0.09	71066	keystroke	r	n/a
35.863	0.12	71726	keystroke	a	n/a
36.313	0.045	72626	keystroke	b	n/a
36.582	0.076	73164	keystroke	l	n/a
36.793	0.09	73586	keystroke	e	n/a
37.542	0.06	75084	keystroke	Key.enter	n/a
37.6075	19.5265	75215	prompt	n/a	primary converted error volleyball\n
38.397	0.135	76794	keystroke	p	n/a
38.6675	0.09	77335	keystroke	o	n/a
39.4925	0.045	78985	keystroke	Key.backspace	n/a
40.0625	0.0605	80125	keystroke	r	n/a
40.243	0.0745	80486	keystroke	i	n/a
40.527	0.0895	81054	keystroke	m	n/a
40.9775	0.12	81955	keystroke	a	n/a
41.308	0.03	82616	keystroke	t	n/a
42.3575	0.06	84715	keystroke	Key.backspace	n/a
42.7325	0.06	85465	keystroke	r	n/a
42.8825	0.045	85765	keystroke	y	n/a
43.632	0.0905	87264	keystroke	Key.space	n/a
43.9475	0.0895	87895	keystroke	c	n/a
44.067	0.0905	88134	keystroke	o	n/a
44.3225	0.09	88645	keystroke	n	n/a
45.102	0.1355	90204	keystroke	v	n/a
45.4625	0.1345	90925	keystroke	e	n/a
45.7335	0.0745	91467	keystroke	r	n/a
46.003	0.075	92006	keystroke	t	n/a
46.3175	0.105	92635	keystroke	e	n/a
46.678	0.105	93356	keystroke	d	n/a
47.3375	0.105	94675	keystroke	Key.space	n/a
47.5925	0.1195	95185	keystroke	e	n/a
47.8775	0.059	95755	keystroke	r	n/a
48.027	0.06	96054	keystroke	r	n/a
48.3415	0.076	96683	keystroke	o	n/a
48.793	0.0595	97586	keystroke	r	n/a
49.242	0.09	98484	keystroke	Key.space	n/a
49.678	0.1345	99356	keystroke	c	n/a
49.9325	0.0905	99865	keystroke	o	n/a
50.728	0.0745	101456	keystroke	Key.backspace	n/a
51.0875	0.06	102175	keystroke	Key.backspace	n/a
51.357	0.06	102714	keystroke	v	n/a
52.018	0.1195	104036	keystroke	i	n/a
53.0225	0.0595	106045	keystroke	Key.backspace	n/a
53.7425	0.074	107485	keystroke	o	n/a
54.0575	0.0745	108115	keystroke	l	n/a
54.1765	0.09	108353	keystroke	l	n/a
54.552	0.075	109104	keystroke	e	n/a
54.7315	0.06	109463	keystroke	y	n/a
55.152	0.09	110304	keystroke	b	n/a
55.543	0.1045	111086	keystroke	a	n/a
55.8125	0.1055	111625	keystroke	l	n/a
56.2625	0.045	112525	keystroke	l	n/a
57.0725	0.06	114145	keystroke	Key.enter	n/a
57.137	19.903	114274	prompt	n/a	inter trips seemed qualifying\n
58.1375	0.0745	116275	keystroke	u	n/a
59.2165	0.06	118433	keystroke	Key.backspace	n/a
59.7265	0.076	119453	keystroke	i	n/a
59.922	0.09	119844	keystroke	n	n/a
60.192	0.075	120384	keystroke	t	n/a
60.492	0.1055	120984	keystroke	e	n/a
60.7925	0.0605	121585	keystroke	r	n/a
61.963	0.06	123926	keystroke	Key.space	n/a
62.1275	0.045	124255	keystroke	t	n/a
62.443	0.015	124886	keystroke	r	n/a
62.638	0.105	125276	keystroke	u	n/a
63.6725	0.06	127345	keystroke	Key.backspace	n/a
64.7085	0.0895	129417	keystroke	i	n/a
65.0375	0.15	130075	keystroke	p	n/a
65.6825	0.12	131365	keystroke	Key.space	n/a
66.792	0.075	133584	keystroke	Key.backspace	n/a
67.3775	0.045	134755	keystroke	s	n/a
67.8875	0.09	135775	keystroke	Key.space	n/a
68.2025	0.09	136405	keystroke	s	n/a
68.413	0.075	136826	keystroke	e	n/a
68.563	0.09	137126	keystroke	e	n/a
68.818	0.09	137636	keystroke	m	n/a
69.118	0.075	138236	keystroke	e	n/a
69.3885	0.0895	138777	keystroke	d	n/a
69.7625	0.12	139525	keystroke	Key.space	n/a
70.213	0.09	140426	keystroke	q	n/a
70.513	0.06	141026	keystroke	u	n/a
70.918	0.075	141836	keystroke	a	n/a
71.577	0.075	143154	keystroke	l	n/a
71.817	0.076	143634	keystroke	i	n/a
72.028	0.075	144056	keystroke	f	n/a
72.9275	0.09	145855	keystroke	y	n/a
73.6025	0.06	147205	keystroke	i	n/a
74.518	0.12	149036	keystroke	b	n/a
75.3125	0.076	150625	keystroke	Key.backspace	n/a
75.748	0.0755	151496	keystroke	n	n/a
76.048	0.075	152096	keystroke	g	n/a
76.948	0.09	153896	keystroke	Key.enter	n/a
77.0435	12.1615	154087	prompt	n/a	cleaner ciao operates franchise\n
78.103	0.135	156206	keystroke	c	n/a
78.4185	0.075	156837	keystroke	l	n/a
78.688	0.0755	157376	keystroke	e	n/a
78.958	0.09	157916	keystroke	a	n/a
79.168	0.1055	158336	keystroke	n	n/a
79.3785	0.075	158757	keystroke	e	n/a
79.6485	0.09	159297	keystroke	r	n/a
80.2925	0.06	160585	keystroke	Key.space	n/a
80.5475	0.09	161095	keystroke	c	n/a
80.893	0.06	161786	keystroke	i	n/a
81.103	0.105	162206	keystroke	a	n/a
81.958	0.105	163916	keystroke	o	n/a
82.378	0.105	164756	keystroke	Key.space	n/a
82.918	0.09	165836	keystroke	o	n/a
83.218	0.0745	166436	keystroke	p	n/a
83.5475	0.09	167095	keystroke	e	n/a
83.788	0.075	167576	keystroke	r	n/a
84.118	0.135	168236	keystroke	a	n/a
84.4785	0.09	168957	keystroke	t	n/a
84.7485	0.09	169497	keystroke	e	n/a
85.0335	0.12	170067	keystroke	s	n/a
85.4675	0.106	170935	keystroke	Key.space	n/a
85.7235	0.12	171447	keystroke	f	n/a
86.0835	0.089	172167	keystroke	r	n/a
86.3685	0.12	172737	keystroke	a	n/a
87.0135	0.075	174027	keystroke	c	n/a
87.2525	0.06	174505	keystroke	h	n/a
87.8825	0.136	175765	keystroke	i	n/a
88.063	0.1055	176126	keystroke	s	n/a
88.3335	0.075	176667	keystroke	e	n/a
89.143	0.06	178286	keystroke	Key.enter	n/a
89.208	19.0025	178416	prompt	n/a	ending beer confidentiality higher\n
89.983	0.1205	179966	keystroke	e	n/a
90.2685	0.0145	180537	keystroke	n	n/a
90.433	0.105	180866	keystroke	d	n/a
90.628	0.075	181256	keystroke	i	n/a
91.0335	0.075	182067	keystroke	n	n/a
91.3335	0.06	182667	keystroke	g	n/a
92.0985	0.06	184197	keystroke	Key.space	n/a
92.3985	0.1045	184797	keystroke	b	n/a
92.743	0.045	185486	keystroke	e	n/a
92.863	0.15	185726	keystroke	e	n/a
93.1625	0.105	186325	keystroke	r	n/a
93.4335	0.044	186867	keystroke	f	n/a
93.5675	0.09	187135	keystroke	Key.space	n/a
94.828	0.105	189656	keystroke	Key.backspace	n/a
95.308	0.09	190616	keystroke	Key.backspace	n/a
95.8025	0.105	191605	keystroke	Key.space	n/a
96.0725	0.09	192145	keystroke	c	n/a
96.192	0.09	192384	keystroke	o	n/a
96.372	0.09	192744	keystroke	n	n/a
96.5825	0.075	193165	keystroke	f	n/a
97.093	0.06	194186	keystroke	i	n/a
97.6785	0.12	195357	keystroke	d	n/a
97.9935	0.0745	195987	keystroke	e	n/a
98.1875	0.03	196375	keystroke	n	n/a
98.893	0.075	197786	keystroke	t	n/a
99.253	0.075	198506	keystroke	i	n/a
99.7935	0.075	199587	keystroke	a	n/a
99.9435	0.075	199887	keystroke	l	n/a
103.141	0.001	206282	keystroke	i	n/a
103.7385	0.06	207477	keystroke	t	n/a
104.458	0.06	208916	keystroke	y	n/a
105.598	0.09	211196	keystroke	Key.space	n/a
106.078	0.06	212156	keystroke	h	n/a
106.273	0.09	212546	keystroke	i	n/a
106.738	0.045	213476	keystroke	g	n/a
106.873	0.075	213746	keystroke	h	n/a
107.233	0.105	214466	keystroke	e	n/a
107.7585	0.06	215517	keystroke	r	n/a
108.1335	0.075	216267	keystroke	Key.enter	n/a
108.2145	19.016	216429	prompt	n/a	scuba however sacrifice decades\n
109.288	0.075	218576	keystroke	s	n/a
109.603	0.105	219206	keystroke	x	n/a
110.488	0.06	220976	keystroke	Key.backspace	n/a
110.684	0.074	221368	keystroke	c	n/a
111.3585	0.12	222717	keystroke	u	n/a
111.6585	0.09	223317	keystroke	b	n/a
111.9735	0.0895	223947	keystroke	a	n/a
112.2885	0.075	224577	keystroke	Key.space	n/a
112.8285	0.075	225657	keystroke	h	n/a
113.0385	0.0895	226077	keystroke	o	n/a
113.2785	0.09	226557	keystroke	w	n/a
113.593	0.105	227186	keystroke	e	n/a
114.2985	0.1205	228597	keystroke	v	n/a
114.6885	0.135	229377	keystroke	e	n/a
114.9735	0.0905	229947	keystroke	r	n/a
115.6635	0.075	231327	keystroke	Key.space	n/a
116.159	0.09	232318	keystroke	s	n/a
116.4735	0.105	232947	keystroke	a	n/a
117.014	0.12	234028	keystroke	x	n/a
117.6295	0.1045	235259	keystroke	Key.backspace	n/a
117.794	0.09	235588	keystroke	c	n/a
120.076	0.013	240152	keystroke	r	n/a
121.364	0.045	242728	keystroke	i	n/a
121.6645	0.06	243329	keystroke	f	n/a
122.1445	0.045	244289	keystroke	i	n/a
122.3995	0.09	244799	keystroke	c	n/a
122.999	0.075	245998	keystroke	e	n/a
123.2695	0.09	246539	keystroke	Key.space	n/a
123.584	0.09	247168	keystroke	d	n/a
123.824	0.075	247648	keystroke	e	n/a
124.154	0.105	248308	keystroke	c	n/a
124.454	0.135	248908	keystroke	a	n/a
124.754	0.0905	249508	keystroke	d	n/a
125.0395	0.12	250079	keystroke	e	n/a
125.7595	0.105	251519	keystroke	s	n/a
127.1545	0.075	254309	keystroke	Key.enter	n/a
127.2375	16.5535	254475	prompt	n/a	bring competitions blog contributors\n
127.9645	0.135	255929	keystroke	b	n/a
128.2945	0.0895	256589	keystroke	r	n/a
128.504	0.075	257008	keystroke	i	n/a
128.7445	0.045	257489	keystroke	n	n/a
128.8635	0.09	257727	keystroke	g	n/a
129.374	0.075	258748	keystroke	Key.space	n/a
129.944	0.12	259888	keystroke	x	n/a
130.109	0.09	260218	keystroke	o	n/a
130.7235	0.09	261447	keystroke	Key.backspace	n/a
131.1885	0.075	262377	keystroke	Key.backspace	n/a
131.4135	0.075	262827	keystroke	c	n/a
131.6085	0.105	263217	keystroke	o	n/a
132.434	0.105	264868	keystroke	m	n/a
133.3045	0.089	266609	keystroke	p	n/a
133.605	0.09	267210	keystroke	e	n/a
133.9785	0.075	267957	keystroke	t	n/a
134.2185	0.075	268437	keystroke	i	n/a
134.5185	0.06	269037	keystroke	t	n/a
134.9995	0.105	269999	keystroke	i	n/a
135.1935	0.105	270387	keystroke	o	n/a
135.48	0.089	270960	keystroke	n	n/a
135.7485	0.076	271497	keystroke	s	n/a
136.0035	0.09	272007	keystroke	Key.space	n/a
136.5145	0.09	273029	keystroke	b	n/a
136.7545	0.105	273509	keystroke	l	n/a
137.175	0.0745	274350	keystroke	o	n/a
137.5195	0.105	275039	keystroke	g	n/a
138.089	0.09	276178	keystroke	Key.space	n/a
138.464	0.105	276928	keystroke	c	n/a
138.599	0.105	277198	keystroke	o	n/a
138.839	0.105	277678	keystroke	n	n/a
139.499	0.0755	278998	keystroke	t	n/a
139.769	0.06	279538	keystroke	r	n/a
140.069	0.075	280138	keystroke	i	n/a
140.7745	0.06	281549	keystroke	b	n/a
141.1195	0.0595	282239	keystroke	u	n/a
141.5845	0.015	283169	keystroke	t	n/a
141.9595	0.09	283919	keystroke	o	n/a
142.4995	0.06	284999	keystroke	r	n/a
142.905	0.0745	285810	keystroke	s	n/a
143.714	0.075	287428	keystroke	Key.enter	n/a
143.7975	17.8135	287595	prompt	n/a	interfaces rand reception lawn\n
144.554	0.06	289108	keystroke	i	n/a
144.734	0.0755	289468	keystroke	n	n/a
145.0645	0.12	290129	keystroke	t	n/a
145.3945	0.135	290789	keystroke	e	n/a
145.6345	0.135	291269	keystroke	r	n/a
146.5495	0.03	293099	keystroke	f	n/a
146.9395	0.105	293879	keystroke	a	n/a
147.2545	0.105	294509	keystroke	c	n/a
147.5695	0.09	295139	keystroke	e	n/a
147.8545	0.105	295709	keystroke	s	n/a
148.349	0.1055	296698	keystroke	Key.space	n/a
148.9045	0.1195	297809	keystroke	r	n/a
149.189	0.1055	298378	keystroke	a	n/a
149.3695	0.06	298739	keystroke	n	n/a
149.549	0.09	299098	keystroke	d	n/a
150.059	0.1195	300118	keystroke	Key.space	n/a
150.42	0.104	300840	keystroke	e	n/a
150.87	0.12	301740	keystroke	c	n/a
151.1985	0.12	302397	keystroke	e	n/a
152.264	0.045	304528	keystroke	Key.backspace	n/a
152.744	0.105	305488	keystroke	Key.backspace	n/a
153.344	0.075	306688	keystroke	Key.backspace	n/a
153.81	0.105	307620	keystroke	r	n/a
154.079	0.09	308158	keystroke	e	n/a
154.469	0.12	308938	keystroke	c	n/a
155.009	0.076	310018	keystroke	e	n/a
155.309	0.09	310618	keystroke	p	n/a
155.759	0.06	311518	keystroke	t	n/a
155.925	0.104	311850	keystroke	i	n/a
156.104	0.075	312208	keystroke	o	n/a
156.614	0.075	313228	keystroke	n	n/a
156.959	0.12	313918	keystroke	Key.space	n/a
157.499	0.09	314998	keystroke	l	n/a
157.7395	0.09	315479	keystroke	a	n/a
158.1895	0.135	316379	keystroke	q	n/a
158.8045	0.09	317609	keystroke	Key.backspace	n/a
159.0895	0.03	318179	keystroke	w	n/a
160.59	0.06	321180	keystroke	n	n/a
161.535	0.074	323070	keystroke	Key.enter	n/a
161.615	15.5965	323230	prompt	n/a	scholarships equal premises unix\n
162.359	0.076	324718	keystroke	s	n/a
162.66	0.09	325320	keystroke	c	n/a
162.825	0.059	325650	keystroke	h	n/a
163.29	0.075	326580	keystroke	o	n/a
163.755	0.074	327510	keystroke	l	n/a
163.95	0.12	327900	keystroke	a	n/a
164.25	0.09	328500	keystroke	r	n/a
165.134	0.09	330268	keystroke	s	n/a
165.254	0.0905	330508	keystroke	h	n/a
165.4945	0.12	330989	keystroke	i	n/a
165.84	0.105	331680	keystroke	p	n/a
166.5745	0.0905	333149	keystroke	s	n/a
166.845	0.135	333690	keystroke	Key.space	n/a
167.19	0.075	334380	keystroke	e	n/a
167.5345	0.045	335069	keystroke	a	n/a
168.0445	0.1055	336089	keystroke	Key.backspace	n/a
168.21	0.09	336420	keystroke	q	n/a
168.915	0.075	337830	keystroke	u	n/a
169.2295	0.075	338459	keystroke	a	n/a
169.3945	0.06	338789	keystroke	l	n/a
169.8	0.105	339600	keystroke	Key.space	n/a
170.235	0.135	340470	keystroke	p	n/a
170.415	0.09	340830	keystroke	r	n/a
170.9845	0.075	341969	keystroke	e	n/a
171.825	0.105	343650	keystroke	m	n/a
172.23	0.06	344460	keystroke	i	n/a
172.44	0.105	344880	keystroke	s	n/a
172.845	0.075	345690	keystroke	e	n/a
173.16	0.09	346320	keystroke	s	n/a
173.61	0.12	347220	keystroke	Key.space	n/a
174.15	0.075	348300	keystroke	u	n/a
174.405	0.135	348810	keystroke	n	n/a
174.675	0.09	349350	keystroke	i	n/a
175.185	0.165	350370	keystroke	z	n/a
175.83	0.075	351660	keystroke	Key.backspace	n/a
176.175	0.0905	352350	keystroke	x	n/a
177.105	0.1045	354210	keystroke	Key.enter	n/a
177.215	13.3015	354430	prompt	n/a	slightly this mustang lowest\n
177.9445	0.0745	355889	keystroke	s	n/a
178.14	0.12	356280	keystroke	l	n/a
178.335	0.105	356670	keystroke	i	n/a
178.6195	0.0905	357239	keystroke	g	n/a
178.77	0.06	357540	keystroke	h	n/a
179.7905	0.105	359581	keystroke	t	n/a
180.3295	0.06	360659	keystroke	l	n/a
180.7955	0.089	361591	keystroke	y	n/a
181.3945	0.075	362789	keystroke	Key.space	n/a
181.8745	0.045	363749	keystroke	t	n/a
181.9495	0.105	363899	keystroke	h	n/a
182.1745	0.09	364349	keystroke	i	n/a
182.3695	0.09	364739	keystroke	s	n/a
182.595	0.09	365190	keystroke	Key.space	n/a
183.2245	0.06	366449	keystroke	m	n/a
183.4945	0.09	366989	keystroke	u	n/a
183.7645	0.105	367529	keystroke	s	n/a
184.1395	0.0905	368279	keystroke	t	n/a
184.4395	0.12	368879	keystroke	a	n/a
184.6045	0.0755	369209	keystroke	n	n/a
185.0695	0.1055	370139	keystroke	d	n/a
185.805	0.0745	371610	keystroke	Key.backspace	n/a
185.955	0.09	371910	keystroke	f	n/a
187.1695	0.075	374339	keystroke	Key.backspace	n/a
187.4255	0.059	374851	keystroke	g	n/a
187.9345	0.0905	375869	keystroke	Key.space	n/a
188.2805	0.0745	376561	keystroke	l	n/a
188.49	0.06	376980	keystroke	o	n/a
188.7155	0.105	377431	keystroke	w	n/a
189.195	0.12	378390	keystroke	e	n/a
189.48	0.12	378960	keystroke	s	n/a
189.87	0.105	379740	keystroke	t	n/a
190.44	0.075	380880	keystroke	Key.enter	n/a
190.52	33.98	381040	prompt	n/a	eyed integration teachers racks\n
191.2055	0.1045	382411	keystroke	e	n/a
191.64	0.045	383280	keystroke	v	n/a
192.315	0.09	384630	keystroke	Key.backspace	n/a
193.005	0.045	386010	keystroke	y	n/a
193.14	0.09	386280	keystroke	e	n/a
193.56	0.075	387120	keystroke	d	n/a
194.22	0.09	388440	keystroke	Key.space	n/a
194.445	0.0905	388890	keystroke	i	n/a
194.6545	0.075	389309	keystroke	n	n/a
195.0595	0.09	390119	keystroke	t	n/a
195.3595	0.106	390719	keystroke	e	n/a
195.6295	0.09	391259	keystroke	r	n/a
195.9745	0.12	391949	keystroke	g	n/a
196.425	0.045	392850	keystroke	r	n/a
196.68	0.09	393360	keystroke	a	n/a
197.055	0.075	394110	keystroke	t	n/a
197.205	0.1045	394410	keystroke	i	n/a
197.401	0.104	394802	keystroke	o	n/a
197.685	0.06	395370	keystroke	n	n/a
198.3455	0.0895	396691	keystroke	Key.space	n/a
198.63	0.06	397260	keystroke	t	n/a
198.856	0.119	397712	keystroke	e	n/a
205.608	0.043	411216	keystroke	Key.backspace	n/a
206.13	0.0895	412260	keystroke	Key.backspace	n/a
206.7445	0.061	413489	keystroke	Key.backspace	n/a
207.2855	0.1055	414571	keystroke	Key.backspace	n/a
207.901	0.09	415802	keystroke	Key.backspace	n/a
208.471	0.104	416942	keystroke	Key.backspace	n/a
209.025	0.135	418050	keystroke	Key.backspace	n/a
209.64	0.09	419280	keystroke	Key.backspace	n/a
210.225	0.105	420450	keystroke	Key.backspace	n/a
210.825	0.105	421650	keystroke	Key.backspace	n/a
211.875	0.06	423750	keystroke	Key.backspace	n/a
212.7	0.076	425400	keystroke	g	n/a
214.3055	0.075	428611	keystroke	r	n/a
214.6205	0.09	429241	keystroke	e	n/a
215.7305	0.1205	431461	keystroke	Key.backspace	n/a
216.091	0.12	432182	keystroke	a	n/a
216.556	0.075	433112	keystroke	t	n/a
216.736	0.12	433472	keystroke	i	n/a
216.901	0.105	433802	keystroke	o	n/a
217.126	0.075	434252	keystroke	n	n/a
217.591	0.09	435182	keystroke	Key.space	n/a
217.966	0.075	435932	keystroke	t	n/a
218.146	0.105	436292	keystroke	e	n/a
218.476	0.09	436952	keystroke	a	n/a
218.746	0.09	437492	keystroke	c	n/a
218.881	0.075	437762	keystroke	h	n/a
219.226	0.09	438452	keystroke	e	n/a
219.466	0.0745	438932	keystroke	r	n/a
219.976	0.0895	439952	keystroke	s	n/a
220.306	0.06	440612	keystroke	Key.space	n/a
220.381	0.09	440762	keystroke	Key.space	n/a
221.761	0.06	443522	keystroke	Key.backspace	n/a
222.528	0.1205	445056	keystroke	r	n/a
222.6635	0.075	445327	keystroke	a	n/a
223.19	0.12	446380	keystroke	c	n/a
223.626	0.06	447252	keystroke	k	n/a
223.837	0.075	447674	keystroke	s	n/a
224.438	0.0605	448876	keystroke	Key.enter	n/a
224.504	15.3875	449008	prompt	n/a	snapshot aurora wayne chambers\n
225.4315	0.0755	450863	keystroke	s	n/a
225.567	0.0755	451134	keystroke	n	n/a
225.793	0.105	451586	keystroke	a	n/a
225.988	0.0905	451976	keystroke	p	n/a
226.53	0.075	453060	keystroke	s	n/a
226.6355	0.1055	453271	keystroke	h	n/a
226.831	0.09	453662	keystroke	o	n/a
227.0415	0.0755	454083	keystroke	t	n/a
227.538	0.0895	455076	keystroke	Key.space	n/a
228.3955	0.0905	456791	keystroke	q	n/a
229.072	0.075	458144	keystroke	Key.backspace	n/a
229.719	0.1055	459438	keystroke	a	n/a
230.5915	0.0755	461183	keystroke	u	n/a
231.1935	0.151	462387	keystroke	r	n/a
232.322	0.075	464644	keystroke	o	n/a
232.638	0.075	465276	keystroke	r	n/a
233.059	0.1055	466118	keystroke	a	n/a
233.5105	0.105	467021	keystroke	Key.space	n/a
233.9615	0.1205	467923	keystroke	w	n/a
234.368	0.1505	468736	keystroke	a	n/a
234.729	0.0905	469458	keystroke	y	n/a
235.436	0.0455	470872	keystroke	n	n/a
235.602	0.075	471204	keystroke	e	n/a
236.58	0.0905	473160	keystroke	Key.space	n/a
236.941	0.0905	473882	keystroke	c	n/a
237.0615	0.0755	474123	keystroke	h	n/a
237.302	0.1055	474604	keystroke	a	n/a
237.4675	0.06	474935	keystroke	m	n/a
238.4755	0.1655	476951	keystroke	b	n/a
238.7915	0.1505	477583	keystroke	e	n/a
239.0775	0.09	478155	keystroke	r	n/a
239.348	0.0905	478696	keystroke	s	n/a
239.7995	0.0905	479599	keystroke	Key.enter	n/a
239.895	11.671	479790	prompt	n/a	peripherals breeds letters buzz\n
240.793	0.09	481586	keystroke	p	n/a
241.0035	0.105	482007	keystroke	e	n/a
241.2585	0.0755	482517	keystroke	r	n/a
241.5145	0.06	483029	keystroke	i	n/a
241.996	0.1505	483992	keystroke	p	n/a
242.432	0.1055	484864	keystroke	h	n/a
242.779	0.105	485558	keystroke	e	n/a
243.0195	0.0905	486039	keystroke	r	n/a
243.3655	0.1205	486731	keystroke	a	n/a
243.576	0.0605	487152	keystroke	l	n/a
244.1025	0.075	488205	keystroke	s	n/a
244.9295	0.09	489859	keystroke	Key.space	n/a
245.742	0.015	491484	keystroke	b	n/a
245.9975	0.1205	491995	keystroke	r	n/a
246.3135	0.0755	492627	keystroke	e	n/a
246.464	0.1205	492928	keystroke	e	n/a
246.765	0.1055	493530	keystroke	d	n/a
247.111	0.1055	494222	keystroke	Key.space	n/a
247.3215	0.1055	494643	keystroke	l	n/a
247.457	0.1205	494914	keystroke	e	n/a
247.758	0.06	495516	keystroke	t	n/a
247.8945	0.104	495789	keystroke	t	n/a
248.164	0.0905	496328	keystroke	e	n/a
248.3745	0.1055	496749	keystroke	r	n/a
249.022	0.1055	498044	keystroke	s	n/a
249.323	0.0755	498646	keystroke	Key.space	n/a
249.669	0.1055	499338	keystroke	b	n/a
249.94	0.09	499880	keystroke	u	n/a
250.617	0.1055	501234	keystroke	z	n/a
250.8275	0.09	501655	keystroke	z	n/a
251.474	0.0905	502948	keystroke	Key.enter	n/a
251.5695	12.226	503139	prompt	n/a	pics entry affair pizza\n
252.2565	0.1505	504513	keystroke	p	n/a
252.512	0.1205	505024	keystroke	o	n/a
253.174	0.0905	506348	keystroke	Key.backspace	n/a
253.851	0.0905	507702	keystroke	i	n/a
254.047	0.105	508094	keystroke	c	n/a
254.453	0.0905	508906	keystroke	s	n/a
254.874	0.0905	509748	keystroke	Key.space	n/a
255.16	0.075	510320	keystroke	e	n/a
255.325	0.09	510650	keystroke	n	n/a
255.686	0.105	511372	keystroke	t	n/a
256.122	0.0905	512244	keystroke	y	n/a
256.739	0.06	513478	keystroke	Key.backspace	n/a
256.9645	0.0905	513929	keystroke	r	n/a
257.115	0.09	514230	keystroke	y	n/a
257.7015	0.015	515403	keystroke	Key.space	n/a
258.0025	0.075	516005	keystroke	a	n/a
258.258	0.0905	516516	keystroke	f	n/a
258.424	0.105	516848	keystroke	f	n/a
259.311	0.0905	518622	keystroke	a	n/a
259.4915	0.0755	518983	keystroke	i	n/a
259.7625	0.0905	519525	keystroke	r	n/a
259.973	0.0905	519946	keystroke	Key.space	n/a
260.4395	0.105	520879	keystroke	p	n/a
260.665	0.06	521330	keystroke	o	n/a
261.327	0.105	522654	keystroke	Key.backspace	n/a
261.9285	0.075	523857	keystroke	i	n/a
262.53	0.1355	525060	keystroke	z	n/a
262.741	0.105	525482	keystroke	z	n/a
263.1165	0.1055	526233	keystroke	a	n/a
263.703	0.091	527406	keystroke	Key.enter	n/a
263.799	18.8645	527598	prompt	n/a	nova bidder explain forestry\n
264.696	0.1055	529392	keystroke	b	n/a
264.967	0.075	529934	keystroke	o	n/a
265.6885	0.1055	531377	keystroke	Key.backspace	n/a
266.11	0.075	532220	keystroke	Key.backspace	n/a
266.486	0.15	532972	keystroke	n	n/a
266.892	0.0905	533784	keystroke	o	n/a
267.3735	0.135	534747	keystroke	v	n/a
268.11	0.075	536220	keystroke	a	n/a
268.862	0.0905	537724	keystroke	Key.space	n/a
269.945	0.135	539890	keystroke	v	n/a
270.8915	0.075	541783	keystroke	Key.backspace	n/a
271.372	0.06	542744	keystroke	b	n/a
271.552	0.074	543104	keystroke	i	n/a
271.986	0.045	543972	keystroke	d	n/a
272.1205	0.105	544241	keystroke	d	n/a
272.3605	0.1055	544721	keystroke	e	n/a
272.586	0.074	545172	keystroke	r	n/a
272.8105	0.09	545621	keystroke	Key.space	n/a
273.155	0.0905	546310	keystroke	e	n/a
273.845	0.1055	547690	keystroke	x	n/a
274.7595	0.1205	549519	keystroke	p	n/a
275.4195	0.09	550839	keystroke	l	n/a
275.734	0.0755	551468	keystroke	a	n/a
275.8695	0.105	551739	keystroke	i	n/a
276.3195	0.075	552639	keystroke	n	n/a
278.1785	0.09	556357	keystroke	Key.space	n/a
278.583	0.06	557166	keystroke	f	n/a
278.7035	0.075	557407	keystroke	o	n/a
279.018	0.09	558036	keystroke	r	n/a
279.5875	0.076	559175	keystroke	e	n/a
279.904	0.1195	559808	keystroke	s	n/a
281.3125	0.0605	562625	keystroke	t	n/a
281.5235	0.059	563047	keystroke	r	n/a
281.6575	0.075	563315	keystroke	y	n/a
282.617	0.045	565234	keystroke	Key.enter	n/a
282.6665	13.4455	565333	prompt	n/a	rank tanzania silent niagara\n
283.4865	0.105	566973	keystroke	r	n/a
283.8015	0.105	567603	keystroke	a	n/a
284.1465	0.06	568293	keystroke	n	n/a
284.3865	0.09	568773	keystroke	k	n/a
284.7465	0.075	569493	keystroke	Key.space	n/a
285.615	0.105	571230	keystroke	t	n/a
285.8855	0.119	571771	keystroke	a	n/a
286.395	0.0445	572790	keystroke	n	n/a
286.695	0.1345	573390	keystroke	z	n/a
287.7145	0.09	575429	keystroke	a	n/a
287.924	0.06	575848	keystroke	n	n/a
288.629	0.075	577258	keystroke	i	n/a
288.854	0.0895	577708	keystroke	a	n/a
289.364	0.0895	578728	keystroke	Key.space	n/a
289.844	0.1045	579688	keystroke	s	n/a
290.0085	0.0755	580017	keystroke	i	n/a
290.204	0.09	580408	keystroke	l	n/a
290.8035	0.0895	581607	keystroke	e	n/a
291.2985	0.074	582597	keystroke	n	n/a
291.5525	0.075	583105	keystroke	t	n/a
292.1375	0.09	584275	keystroke	Key.space	n/a
292.5725	0.09	585145	keystroke	n	n/a
292.902	0.075	585804	keystroke	i	n/a
293.2475	0.1045	586495	keystroke	a	n/a
293.667	0.1195	587334	keystroke	g	n/a
294.702	0.1195	589404	keystroke	a	n/a
295.0465	0.105	590093	keystroke	r	n/a
295.3915	0.09	590783	keystroke	a	n/a
296.0355	0.075	592071	keystroke	Key.enter	n/a
296.115	12.996	592230	prompt	n/a	string skating compensation baking\n
296.875	0.12	593750	keystroke	s	n/a
297.22	0.075	594440	keystroke	t	n/a
297.475	0.075	594950	keystroke	r	n/a
297.67	0.06	595340	keystroke	i	n/a
297.895	0.075	595790	keystroke	n	n/a
298.075	0.075	596150	keystroke	g	n/a
298.7195	0.1045	597439	keystroke	Key.space	n/a
299.004	0.09	598008	keystroke	s	n/a
299.139	0.075	598278	keystroke	k	n/a
299.4395	0.105	598879	keystroke	a	n/a
299.8145	0.075	599629	keystroke	t	n/a
299.9795	0.105	599959	keystroke	i	n/a
301.074	0.06	602148	keystroke	n	n/a
301.2685	0.09	602537	keystroke	g	n/a
301.913	0.045	603826	keystroke	Key.space	n/a
302.2875	0.045	604575	keystroke	c	n/a
303.2025	0.075	606405	keystroke	o	n/a
303.4125	0.09	606825	keystroke	m	n/a
303.817	0.09	607634	keystroke	p	n/a
304.027	0.105	608054	keystroke	e	n/a
304.507	0.045	609014	keystroke	n	n/a
304.762	0.075	609524	keystroke	s	n/a
305.0625	0.1345	610125	keystroke	a	n/a
305.497	0.075	610994	keystroke	t	n/a
305.6315	0.119	611263	keystroke	i	n/a
305.7965	0.1205	611593	keystroke	o	n/a
306.051	0.0895	612102	keystroke	n	n/a
306.6355	0.105	613271	keystroke	Key.space	n/a
307.056	0.074	614112	keystroke	b	n/a
307.355	0.105	614710	keystroke	a	n/a
307.505	0.0745	615010	keystroke	k	n/a
307.7145	0.061	615429	keystroke	i	n/a
308.014	0.075	616028	keystroke	n	n/a
308.2395	0.091	616479	keystroke	g	n/a
309.034	0.075	618068	keystroke	Key.enter	n/a
309.116	11.9295	618232	prompt	n/a	burden tramadol builds airline\n
309.9045	0.09	619809	keystroke	b	n/a
310.2795	0.045	620559	keystroke	u	n/a
310.729	0.105	621458	keystroke	r	n/a
311.088	0.1055	622176	keystroke	d	n/a
311.3135	0.0905	622627	keystroke	e	n/a
311.509	0.0745	623018	keystroke	n	n/a
311.9585	0.045	623917	keystroke	Key.space	n/a
312.378	0.075	624756	keystroke	t	n/a
312.708	0.075	625416	keystroke	r	n/a
312.993	0.1045	625986	keystroke	a	n/a
313.5175	0.06	627035	keystroke	m	n/a
313.787	0.075	627574	keystroke	a	n/a
314.3275	0.075	628655	keystroke	d	n/a
314.5075	0.1045	629015	keystroke	o	n/a
314.882	0.075	629764	keystroke	l	n/a
315.302	0.09	630604	keystroke	Key.space	n/a
316.0365	0.1195	632073	keystroke	b	n/a
316.576	0.06	633152	keystroke	u	n/a
316.921	0.09	633842	keystroke	i	n/a
317.1755	0.09	634351	keystroke	l	n/a
317.491	0.0745	634982	keystroke	d	n/a
318.3745	0.045	636749	keystroke	s	n/a
318.4345	0.045	636869	keystroke	Key.space	n/a
318.6145	0.105	637229	keystroke	a	n/a
318.9895	0.06	637979	keystroke	i	n/a
319.2445	0.09	638489	keystroke	r	n/a
319.8445	0.09	639689	keystroke	l	n/a
320.054	0.075	640108	keystroke	i	n/a
320.249	0.09	640498	keystroke	n	n/a
320.4745	0.045	640949	keystroke	e	n/a
320.969	0.0745	641938	keystroke	Key.enter	n/a
321.048	11.047	642096	prompt	n/a	names hundred parks term\n
321.7035	0.0595	643407	keystroke	b	n/a
322.408	0.03	644816	keystroke	Key.backspace	n/a
322.9625	0.06	645925	keystroke	n	n/a
323.3525	0.075	646705	keystroke	a	n/a
323.5325	0.0445	647065	keystroke	m	n/a
323.667	0.105	647334	keystroke	e	n/a
324.042	0.09	648084	keystroke	s	n/a
324.312	0.075	648624	keystroke	Key.space	n/a
324.642	0.105	649284	keystroke	h	n/a
325.017	0.0745	650034	keystroke	u	n/a
325.3015	0.0905	650603	keystroke	n	n/a
325.512	0.0895	651024	keystroke	d	n/a
325.9615	0.1195	651923	keystroke	r	n/a
326.201	0.09	652402	keystroke	e	n/a
326.9805	0.045	653961	keystroke	Key.backspace	n/a
328.24	0.06	656480	keystroke	e	n/a
328.435	0.0745	656870	keystroke	d	n/a
328.779	0.1055	657558	keystroke	Key.space	n/a
329.199	0.075	658398	keystroke	p	n/a
329.364	0.1195	658728	keystroke	a	n/a
329.6935	0.0755	659387	keystroke	r	n/a
329.844	0.075	659688	keystroke	k	n/a
330.098	0.09	660196	keystroke	s	n/a
330.488	0.09	660976	keystroke	Key.space	n/a
330.803	0.075	661606	keystroke	t	n/a
331.0725	0.166	662145	keystroke	e	n/a
331.3575	0.0745	662715	keystroke	r	n/a
331.507	0.06	663014	keystroke	m	n/a
332.0025	0.09	664005	keystroke	Key.enter	n/a
332.0975	12.4095	664195	prompt	n/a	guides toyota regarded beth\n
333.022	0.045	666044	keystroke	y	n/a
333.652	0.045	667304	keystroke	Key.backspace	n/a
334.027	0.06	668054	keystroke	g	n/a
334.192	0.075	668384	keystroke	u	n/a
334.3865	0.075	668773	keystroke	i	n/a
334.6265	0.075	669253	keystroke	d	n/a
335.286	0.0595	670572	keystroke	e	n/a
335.495	0.075	670990	keystroke	s	n/a
335.72	0.12	671440	keystroke	Key.space	n/a
335.96	0.075	671920	keystroke	t	n/a
336.11	0.105	672220	keystroke	o	n/a
336.5445	0.075	673089	keystroke	y	n/a
337.4445	0.045	674889	keystroke	o	n/a
337.76	0.06	675520	keystroke	t	n/a
338.089	0.045	676178	keystroke	a	n/a
338.5085	0.06	677017	keystroke	Key.space	n/a
339.003	0.12	678006	keystroke	r	n/a
339.213	0.12	678426	keystroke	e	n/a
340.4575	0.09	680915	keystroke	g	n/a
341.252	0.09	682504	keystroke	a	n/a
341.582	0.09	683164	keystroke	r	n/a
341.897	0.105	683794	keystroke	d	n/a
342.272	0.09	684544	keystroke	e	n/a
342.527	0.09	685054	keystroke	d	n/a
342.8265	0.06	685653	keystroke	Key.space	n/a
343.0365	0.105	686073	keystroke	b	n/a
343.3215	0.09	686643	keystroke	e	n/a
343.6365	0.075	687273	keystroke	t	n/a
343.756	0.06	687512	keystroke	h	n/a
344.4455	0.06	688891	keystroke	Key.enter	n/a
344.51	19.3215	689020	prompt	n/a	colorado rehabilitation produced samples\n
345.345	0.09	690690	keystroke	c	n/a
345.495	0.09	690990	keystroke	o	n/a
345.705	0.0745	691410	keystroke	l	n/a
345.8995	0.075	691799	keystroke	o	n/a
346.274	0.09	692548	keystroke	r	n/a
346.604	0.105	693208	keystroke	a	n/a
347.3545	0.09	694709	keystroke	d	n/a
347.9245	0.045	695849	keystroke	o	n/a
348.314	0.074	696628	keystroke	Key.space	n/a
348.538	0.076	697076	keystroke	r	n/a
348.9435	0.0895	697887	keystroke	e	n/a
350.862	0.075	701724	keystroke	h	n/a
351.3865	0.0905	702773	keystroke	a	n/a
351.807	0.0745	703614	keystroke	b	n/a
352.407	0.105	704814	keystroke	i	n/a
353.156	0.09	706312	keystroke	l	n/a
353.636	0.09	707272	keystroke	i	n/a
354.131	0.06	708262	keystroke	t	n/a
354.5805	0.1045	709161	keystroke	a	n/a
354.91	0.06	709820	keystroke	t	n/a
355.015	0.105	710030	keystroke	i	n/a
355.195	0.135	710390	keystroke	o	n/a
355.465	0.0745	710930	keystroke	n	n/a
356.0345	0.1045	712069	keystroke	Key.space	n/a
356.439	0.09	712878	keystroke	r	n/a
357.039	0.075	714078	keystroke	Key.backspace	n/a
357.8785	0.045	715757	keystroke	p	n/a
358.0435	0.09	716087	keystroke	r	n/a
358.5535	0.0595	717107	keystroke	o	n/a
358.838	0.09	717676	keystroke	d	n/a
359.258	0.0605	718516	keystroke	u	n/a
359.4375	0.0905	718875	keystroke	c	n/a
359.842	0.105	719684	keystroke	e	n/a
360.1715	0.09	720343	keystroke	d	n/a
360.4865	0.135	720973	keystroke	Key.space	n/a
360.8615	0.09	721723	keystroke	s	n/a
361.1165	0.075	722233	keystroke	a	n/a
361.2515	0.105	722503	keystroke	m	n/a
361.5965	0.104	723193	keystroke	p	n/a
362.2565	0.074	724513	keystroke	l	n/a
362.631	0.075	725262	keystroke	e	n/a
363.2755	0.075	726551	keystroke	s	n/a
363.7705	0.06	727541	keystroke	Key.enter	n/a
363.835	14.269	727670	prompt	n/a	philosophy anymore mobile conduct\n
364.7745	0.09	729549	keystroke	p	n/a
365.0445	0.12	730089	keystroke	h	n/a
365.599	0.0895	731198	keystroke	i	n/a
366.0195	0.105	732039	keystroke	l	n/a
366.5595	0.074	733119	keystroke	o	n/a
366.9635	0.015	733927	keystroke	s	n/a
367.3985	0.075	734797	keystroke	o	n/a
368.4325	0.12	736865	keystroke	p	n/a
368.793	0.105	737586	keystroke	h	n/a
369.452	0.09	738904	keystroke	y	n/a
369.767	0.09	739534	keystroke	Key.space	n/a
370.037	0.105	740074	keystroke	a	n/a
370.172	0.09	740344	keystroke	n	n/a
370.6065	0.09	741213	keystroke	y	n/a
371.1765	0.105	742353	keystroke	m	n/a
371.3415	0.09	742683	keystroke	o	n/a
371.5515	0.12	743103	keystroke	r	n/a
371.7765	0.105	743553	keystroke	e	n/a
372.256	0.075	744512	keystroke	Key.space	n/a
372.616	0.09	745232	keystroke	m	n/a
372.811	0.06	745622	keystroke	o	n/a
373.1105	0.075	746221	keystroke	b	n/a
373.845	0.0745	747690	keystroke	i	n/a
374.0395	0.105	748079	keystroke	l	n/a
374.3395	0.075	748679	keystroke	e	n/a
375.0895	0.09	750179	keystroke	Key.space	n/a
375.3435	0.076	750687	keystroke	c	n/a
375.4645	0.075	750929	keystroke	o	n/a
375.6595	0.075	751319	keystroke	n	n/a
376.0335	0.075	752067	keystroke	d	n/a
376.723	0.075	753446	keystroke	u	n/a
377.0825	0.075	754165	keystroke	c	n/a
377.4885	0.074	754977	keystroke	t	n/a
378.087	0.015	756174	keystroke	Key.enter	n/a
378.1075	15.7685	756215	prompt	n/a	economy fisheries drivers constant\n
378.883	0.059	757766	keystroke	e	n/a
379.1975	0.09	758395	keystroke	c	n/a
379.4525	0.09	758905	keystroke	o	n/a
379.857	0.09	759714	keystroke	n	n/a
380.442	0.12	760884	keystroke	o	n/a
380.742	0.0595	761484	keystroke	n	n/a
382.106	0.105	764212	keystroke	Key.backspace	n/a
382.571	0.09	765142	keystroke	m	n/a
383.006	0.105	766012	keystroke	y	n/a
383.5455	0.09	767091	keystroke	Key.space	n/a
383.815	0.075	767630	keystroke	f	n/a
383.98	0.075	767960	keystroke	i	n/a
384.475	0.1195	768950	keystroke	s	n/a
384.6995	0.105	769399	keystroke	h	n/a
384.9695	0.105	769939	keystroke	e	n/a
385.2545	0.075	770509	keystroke	r	n/a
386.154	0.06	772308	keystroke	i	n/a
386.574	0.09	773148	keystroke	e	n/a
386.874	0.0895	773748	keystroke	s	n/a
387.2485	0.074	774497	keystroke	Key.space	n/a
387.6085	0.0895	775217	keystroke	d	n/a
388.3725	0.015	776745	keystroke	r	n/a
388.4325	0.075	776865	keystroke	i	n/a
388.7475	0.105	777495	keystroke	v	n/a
389.0625	0.09	778125	keystroke	e	n/a
389.677	0.075	779354	keystroke	s	n/a
390.067	0.0895	780134	keystroke	Key.backspace	n/a
390.3065	0.075	780613	keystroke	r	n/a
390.6065	0.075	781213	keystroke	s	n/a
390.9965	0.075	781993	keystroke	Key.space	n/a
391.3415	0.09	782683	keystroke	c	n/a
391.446	0.075	782892	keystroke	o	n/a
391.671	0.06	783342	keystroke	n	n/a
391.851	0.09	783702	keystroke	s	n/a
392.451	0.075	784902	keystroke	t	n/a
392.7505	0.135	785501	keystroke	a	n/a
392.9605	0.045	785921	keystroke	n	n/a
393.275	0.105	786550	keystroke	t	n/a
393.7995	0.075	787599	keystroke	Key.enter	n/a
393.8785	8.9635	787757	prompt	n/a	parker realm electrical libs\n
394.5495	0.12	789099	keystroke	p	n/a
394.7445	0.1345	789489	keystroke	a	n/a
395.074	0.075	790148	keystroke	r	n/a
395.224	0.09	790448	keystroke	k	n/a
395.5385	0.09	791077	keystroke	e	n/a
395.7785	0.06	791557	keystroke	r	n/a
396.063	0.075	792126	keystroke	Key.space	n/a
396.468	0.076	792936	keystroke	r	n/a
396.648	0.0905	793296	keystroke	e	n/a
396.9035	0.075	793807	keystroke	a	n/a
397.0385	0.075	794077	keystroke	l	n/a
397.3835	0.09	794767	keystroke	m	n/a
397.6235	0.12	795247	keystroke	Key.space	n/a
397.968	0.09	795936	keystroke	e	n/a
398.148	0.09	796296	keystroke	l	n/a
398.283	0.105	796566	keystroke	e	n/a
398.643	0.06	797286	keystroke	c	n/a
399.0025	0.09	798005	keystroke	t	n/a
399.2875	0.075	798575	keystroke	r	n/a
400.067	0.06	800134	keystroke	i	n/a
400.367	0.09	800734	keystroke	c	n/a
400.621	0.091	801242	keystroke	a	n/a
400.771	0.076	801542	keystroke	l	n/a
401.042	0.1035	802084	keystroke	Key.space	n/a
401.4165	0.12	802833	keystroke	l	n/a
401.5955	0.105	803191	keystroke	i	n/a
401.9115	0.074	803823	keystroke	b	n/a
402.2855	0.09	804571	keystroke	s	n/a
402.7655	0.0745	805531	keystroke	Key.enter	n/a
402.845	12.1565	805690	prompt	n/a	moments patents parties darwin\n
403.4705	0.104	806941	keystroke	m	n/a
403.7845	0.105	807569	keystroke	o	n/a
403.9945	0.09	807989	keystroke	m	n/a
404.429	0.09	808858	keystroke	e	n/a
404.624	0.045	809248	keystroke	n	n/a
404.849	0.06	809698	keystroke	t	n/a
405.134	0.0905	810268	keystroke	s	n/a
405.2995	0.0745	810599	keystroke	Key.space	n/a
405.554	0.09	811108	keystroke	p	n/a
405.719	0.105	811438	keystroke	a	n/a
406.049	0.06	812098	keystroke	t	n/a
406.274	0.105	812548	keystroke	e	n/a
406.424	0.06	812848	keystroke	n	n/a
406.8135	0.12	813627	keystroke	t	n/a
407.1885	0.075	814377	keystroke	s	n/a
407.6235	0.045	815247	keystroke	Key.space	n/a
407.9985	0.06	815997	keystroke	p	n/a
408.253	0.135	816506	keystroke	a	n/a
408.568	0.075	817136	keystroke	r	n/a
409.138	0.06	818276	keystroke	t	n/a
409.5425	0.06	819085	keystroke	i	n/a
409.7675	0.075	819535	keystroke	e	n/a
410.2325	0.0745	820465	keystroke	s	n/a
410.8165	0.06	821633	keystroke	Key.space	n/a
411.282	0.089	822564	keystroke	d	n/a
411.626	0.12	823252	keystroke	a	n/a
411.941	0.076	823882	keystroke	r	n/a
412.4365	0.059	824873	keystroke	w	n/a
412.6315	0.074	825263	keystroke	i	n/a
412.8715	0.074	825743	keystroke	n	n/a
414.9095	0.09	829819	keystroke	Key.enter	n/a
415.0045	16.355	830009	prompt	n/a	diverse joseph candles unavailable\n
416.214	0.075	832428	keystroke	d	n/a
416.724	0.045	833448	keystroke	i	n/a
416.9635	0.09	833927	keystroke	v	n/a
417.264	0.12	834528	keystroke	e	n/a
417.533	0.0905	835066	keystroke	r	n/a
418.313	0.09	836626	keystroke	s	n/a
418.613	0.0755	837226	keystroke	e	n/a
418.928	0.105	837856	keystroke	Key.space	n/a
419.3025	0.09	838605	keystroke	j	n/a
419.527	0.075	839054	keystroke	o	n/a
420.082	0.075	840164	keystroke	s	n/a
421.192	0.075	842384	keystroke	e	n/a
422.0465	0.105	844093	keystroke	p	n/a
422.2865	0.09	844573	keystroke	h	n/a
422.691	0.12	845382	keystroke	Key.space	n/a
423.246	0.09	846492	keystroke	c	n/a
423.5455	0.075	847091	keystroke	a	n/a
423.6655	0.06	847331	keystroke	n	n/a
423.9355	0.075	847871	keystroke	d	n/a
424.4605	0.075	848921	keystroke	l	n/a
424.6555	0.075	849311	keystroke	e	n/a
424.9405	0.06	849881	keystroke	s	n/a
425.2855	0.075	850571	keystroke	Key.space	n/a
425.7055	0.06	851411	keystroke	u	n/a
425.9455	0.09	851891	keystroke	n	n/a
426.2305	0.1195	852461	keystroke	a	n/a
427.0995	0.105	854199	keystroke	b	n/a
427.7595	0.105	855519	keystroke	Key.backspace	n/a
427.9695	0.075	855939	keystroke	v	n/a
428.644	0.12	857288	keystroke	a	n/a
429.154	0.06	858308	keystroke	i	n/a
429.619	0.09	859238	keystroke	l	n/a
429.829	0.09	859658	keystroke	a	n/a
430.1735	0.09	860347	keystroke	b	n/a
430.3985	0.09	860797	keystroke	l	n/a
430.563	0.09	861126	keystroke	e	n/a
431.2825	0.0755	862565	keystroke	Key.enter	n/a
431.364	10.671	862728	prompt	n/a	cams it'll anderson frontier\n
432.1225	0.09	864245	keystroke	c	n/a
432.3775	0.075	864755	keystroke	a	n/a
432.4975	0.075	864995	keystroke	m	n/a
432.9015	0.06	865803	keystroke	s	n/a
433.0965	0.09	866193	keystroke	Key.space	n/a
433.3665	0.075	866733	keystroke	i	n/a
433.6065	0.075	867213	keystroke	t	n/a
434.2215	0.09	868443	keystroke	'	n/a
434.671	0.075	869342	keystroke	l	n/a
434.836	0.075	869672	keystroke	l	n/a
435.1805	0.09	870361	keystroke	Key.space	n/a
435.7355	0.105	871471	keystroke	a	n/a
435.8705	0.075	871741	keystroke	n	n/a
436.1105	0.09	872221	keystroke	d	n/a
436.6055	0.12	873211	keystroke	e	n/a
437.4155	0.09	874831	keystroke	r	n/a
437.7455	0.105	875491	keystroke	s	n/a
437.9255	0.075	875851	keystroke	o	n/a
438.1355	0.074	876271	keystroke	n	n/a
438.6295	0.105	877259	keystroke	Key.space	n/a
438.9745	0.105	877949	keystroke	f	n/a
439.3495	0.075	878699	keystroke	r	n/a
439.5145	0.09	879029	keystroke	o	n/a
440.084	0.0455	880168	keystroke	n	n/a
440.549	0.075	881098	keystroke	t	n/a
440.939	0.06	881878	keystroke	i	n/a
441.1485	0.105	882297	keystroke	e	n/a
441.4335	0.075	882867	keystroke	r	n/a
441.9585	0.075	883917	keystroke	Key.enter	n/a
442.04	16.294	884080	prompt	n/a	exists chaos topic unnecessary\n
442.768	0.09	885536	keystroke	e	n/a
443.383	0.12	886766	keystroke	x	n/a
444.2075	0.06	888415	keystroke	i	n/a
444.3425	0.12	888685	keystroke	s	n/a
444.6425	0.075	889285	keystroke	t	n/a
444.9275	0.09	889855	keystroke	s	n/a
445.5275	0.09	891055	keystroke	Key.space	n/a
445.842	0.075	891684	keystroke	c	n/a
445.962	0.06	891924	keystroke	h	n/a
446.172	0.075	892344	keystroke	a	n/a
447.2365	0.015	894473	keystroke	o	n/a
447.4015	0.0905	894803	keystroke	s	n/a
447.7315	0.075	895463	keystroke	Key.space	n/a
448.1965	0.075	896393	keystroke	t	n/a
448.3915	0.135	896783	keystroke	i	n/a
448.7215	0.105	897443	keystroke	p	n/a
449.246	0.09	898492	keystroke	Key.backspace	n/a
449.456	0.06	898912	keystroke	Key.backspace	n/a
450.011	0.1045	900022	keystroke	o	n/a
450.4905	0.105	900981	keystroke	p	n/a
450.925	0.075	901850	keystroke	i	n/a
451.135	0.09	902270	keystroke	c	n/a
451.57	0.075	903140	keystroke	Key.space	n/a
451.84	0.03	903680	keystroke	u	n/a
452.32	0.075	904640	keystroke	n	n/a
452.485	0.075	904970	keystroke	n	n/a
453.37	0.0895	906740	keystroke	e	n/a
453.9545	0.12	907909	keystroke	c	n/a
454.314	0.105	908628	keystroke	e	n/a
456.2185	0.09	912437	keystroke	s	n/a
456.638	0.09	913276	keystroke	s	n/a
456.908	0.12	913816	keystroke	a	n/a
457.238	0.075	914476	keystroke	r	n/a
457.553	0.045	915106	keystroke	y	n/a
458.213	0.12	916426	keystroke	Key.enter	n/a
458.337	14.0325	916674	prompt	n/a	subsidiary null merely lose\n
459.023	0.0745	918046	keystroke	e	n/a
459.6815	0.0905	919363	keystroke	Key.backspace	n/a
460.0415	0.1055	920083	keystroke	s	n/a
460.5815	0.075	921163	keystroke	u	n/a
461.4965	0.075	922993	keystroke	b	n/a
462.336	0.075	924672	keystroke	s	n/a
462.456	0.06	924912	keystroke	i	n/a
462.621	0.0745	925242	keystroke	d	n/a
463.086	0.06	926172	keystroke	i	n/a
463.3105	0.105	926621	keystroke	a	n/a
463.656	0.06	927312	keystroke	r	n/a
464.2255	0.06	928451	keystroke	y	n/a
465.2305	0.075	930461	keystroke	Key.space	n/a
465.71	0.06	931420	keystroke	n	n/a
466.055	0.09	932110	keystroke	u	n/a
466.325	0.06	932650	keystroke	l	n/a
466.46	0.075	932920	keystroke	l	n/a
466.715	0.1045	933430	keystroke	Key.space	n/a
467.359	0.105	934718	keystroke	m	n/a
467.509	0.09	935018	keystroke	e	n/a
467.614	0.075	935228	keystroke	m	n/a
467.869	0.075	935738	keystroke	r	n/a
468.7685	0.0905	937537	keystroke	Key.backspace	n/a
469.309	0.075	938618	keystroke	Key.backspace	n/a
469.684	0.09	939368	keystroke	r	n/a
469.954	0.075	939908	keystroke	e	n/a
470.134	0.075	940268	keystroke	l	n/a
470.479	0.09	940958	keystroke	y	n/a
470.7935	0.105	941587	keystroke	Key.space	n/a
471.0785	0.0895	942157	keystroke	l	n/a
471.304	0.059	942608	keystroke	o	n/a
471.4535	0.105	942907	keystroke	s	n/a
471.7085	0.075	943417	keystroke	e	n/a
472.3075	0.06	944615	keystroke	Key.enter	n/a
472.372	13.7935	944744	prompt	n/a	probably floor stock where's\n
473.1325	0.12	946265	keystroke	p	n/a
473.3725	0.105	946745	keystroke	o	n/a
473.972	0.015	947944	keystroke	r	n/a
474.677	0.09	949354	keystroke	Key.backspace	n/a
475.067	0.09	950134	keystroke	Key.backspace	n/a
475.4425	0.074	950885	keystroke	r	n/a
475.6825	0.074	951365	keystroke	o	n/a
476.2515	0.031	952503	keystroke	b	n/a
476.642	0.1195	953284	keystroke	a	n/a
477.3465	0.1045	954693	keystroke	b	n/a
477.616	0.075	955232	keystroke	l	n/a
477.961	0.09	955922	keystroke	y	n/a
478.516	0.105	957032	keystroke	Key.space	n/a
478.861	0.075	957722	keystroke	f	n/a
479.1305	0.1205	958261	keystroke	l	n/a
479.3555	0.075	958711	keystroke	o	n/a
479.5655	0.015	959131	keystroke	o	n/a
480.1805	0.075	960361	keystroke	r	n/a
480.5405	0.06	961081	keystroke	Key.space	n/a
480.7355	0.09	961471	keystroke	s	n/a
481.155	0.0605	962310	keystroke	t	n/a
481.41	0.0895	962820	keystroke	o	n/a
481.665	0.0745	963330	keystroke	k	n/a
482.1445	0.09	964289	keystroke	Key.backspace	n/a
482.3845	0.075	964769	keystroke	c	n/a
482.5045	0.0905	965009	keystroke	k	n/a
483.0895	0.06	966179	keystroke	Key.space	n/a
483.3745	0.075	966749	keystroke	w	n/a
483.4945	0.075	966989	keystroke	h	n/a
483.6295	0.105	967259	keystroke	e	n/a
483.9295	0.09	967859	keystroke	r	n/a
484.1995	0.075	968399	keystroke	e	n/a
484.754	0.09	969508	keystroke	'	n/a
484.949	0.105	969898	keystroke	s	n/a
486.074	0.09	972148	keystroke	Key.enter	n/a
486.168	16.7775	972336	prompt	n/a	vessels hygiene charging simpsons\n
487.2435	0.345	974487	keystroke	v	n/a
487.6635	0.015	975327	keystroke	e	n/a
488.0235	0.015	976047	keystroke	s	n/a
488.1285	0.075	976257	keystroke	s	n/a
488.4285	0.0595	976857	keystroke	e	n/a
489.013	0.075	978026	keystroke	l	n/a
489.523	0.0745	979046	keystroke	s	n/a
489.7175	0.09	979435	keystroke	Key.space	n/a
489.9875	0.045	979975	keystroke	g	n/a
490.0025	0.045	980005	keystroke	h	n/a
491.097	0.105	982194	keystroke	Key.backspace	n/a
491.472	0.09	982944	keystroke	Key.backspace	n/a
491.9965	0.0745	983993	keystroke	h	n/a
492.956	0.06	985912	keystroke	y	n/a
493.316	0.075	986632	keystroke	g	n/a
494.2605	0.06	988521	keystroke	i	n/a
494.6205	0.09	989241	keystroke	e	n/a
495.4305	0.06	990861	keystroke	n	n/a
495.6555	0.075	991311	keystroke	e	n/a
496.06	0.0755	992120	keystroke	Key.space	n/a
496.84	0.09	993680	keystroke	c	n/a
497.006	0.06	994012	keystroke	h	n/a
497.26	0.135	994520	keystroke	a	n/a
498.1155	0.06	996231	keystroke	r	n/a
498.4005	0.06	996801	keystroke	g	n/a
498.9855	0.06	997971	keystroke	i	n/a
499.18	0.06	998360	keystroke	n	n/a
499.33	0.075	998660	keystroke	g	n/a
499.96	0.105	999920	keystroke	Key.space	n/a
500.29	0.06	1000580	keystroke	s	n/a
500.38	0.075	1000760	keystroke	i	n/a
500.59	0.105	1001180	keystroke	m	n/a
501.145	0.075	1002290	keystroke	p	n/a
501.55	0.075	1003100	keystroke	s	n/a
501.6995	0.09	1003399	keystroke	o	n/a
502.0145	0.075	1004029	keystroke	n	n/a
502.3595	0.045	1004719	keystroke	s	n/a
502.8695	0.0745	1005739	keystroke	Key.enter	n/a
502.9495	9.084	1005899	prompt	n/a	conf visit queens could\n
503.7395	0.075	1007479	keystroke	c	n/a
503.904	0.075	1007808	keystroke	o	n/a
504.1145	0.075	1008229	keystroke	n	n/a
504.294	0.075	1008588	keystroke	f	n/a
504.939	0.165	1009878	keystroke	Key.space	n/a
505.3735	0.105	1010747	keystroke	v	n/a
506.3185	0.0595	1012637	keystroke	i	n/a
507.563	0.09	1015126	keystroke	s	n/a
507.743	0.075	1015486	keystroke	i	n/a
508.1625	0.09	1016325	keystroke	t	n/a
508.4925	0.09	1016985	keystroke	Key.space	n/a
508.823	0.12	1017646	keystroke	q	n/a
509.078	0.09	1018156	keystroke	u	n/a
509.333	0.075	1018666	keystroke	e	n/a
509.588	0.045	1019176	keystroke	e	n/a
509.977	0.061	1019954	keystroke	n	n/a
510.368	0.06	1020736	keystroke	s	n/a
510.548	0.059	1021096	keystroke	Key.space	n/a
510.773	0.075	1021546	keystroke	c	n/a
510.893	0.0895	1021786	keystroke	o	n/a
511.1025	0.075	1022205	keystroke	u	n/a
511.3275	0.075	1022655	keystroke	l	n/a
511.5225	0.074	1023045	keystroke	d	n/a
511.9265	0.105	1023853	keystroke	Key.enter	n/a
512.0365	22.627	1024073	prompt	n/a	walnut communications algeria submitted\n
512.9025	0.1035	1025805	keystroke	w	n/a
513.2465	0.1045	1026493	keystroke	a	n/a
513.516	0.09	1027032	keystroke	l	n/a
513.831	0.105	1027662	keystroke	n	n/a
514.131	0.06	1028262	keystroke	u	n/a
514.341	0.06	1028682	keystroke	t	n/a
514.521	0.09	1029042	keystroke	Key.space	n/a
515.2115	0.105	1030423	keystroke	c	n/a
515.3765	0.09	1030753	keystroke	o	n/a
515.6015	0.09	1031203	keystroke	m	n/a
515.7515	0.0895	1031503	keystroke	m	n/a
516.171	0.135	1032342	keystroke	e	n/a
517.0555	0.09	1034111	keystroke	Key.backspace	n/a
517.6105	0.18	1035221	keystroke	u	n/a
517.9105	0.105	1035821	keystroke	n	n/a
518.645	0.075	1037290	keystroke	i	n/a
518.84	0.09	1037680	keystroke	c	n/a
519.14	0.12	1038280	keystroke	a	n/a
519.485	0.06	1038970	keystroke	t	n/a
519.59	0.12	1039180	keystroke	i	n/a
519.755	0.105	1039510	keystroke	o	n/a
520.04	0.075	1040080	keystroke	n	n/a
522.5165	0.001	1045033	keystroke	s	n/a
522.6195	0.09	1045239	keystroke	Key.space	n/a
522.9795	0.09	1045959	keystroke	a	n/a
523.1445	0.06	1046289	keystroke	l	n/a
524.209	0.075	1048418	keystroke	g	n/a
525.214	0.0895	1050428	keystroke	e	n/a
525.5135	0.091	1051027	keystroke	r	n/a
526.114	0.06	1052228	keystroke	i	n/a
526.4735	0.09	1052947	keystroke	a	n/a
527.0585	0.195	1054117	keystroke	Key.space	n/a
527.4785	0.09	1054957	keystroke	s	n/a
527.6435	0.075	1055287	keystroke	u	n/a
528.1985	0.09	1056397	keystroke	b	n/a
532.0245	0.028	1064049	keystroke	m	n/a
532.1575	0.09	1064315	keystroke	i	n/a
532.4425	0.075	1064885	keystroke	t	n/a
532.5775	0.09	1065155	keystroke	t	n/a
532.9075	0.06	1065815	keystroke	e	n/a
533.1325	0.09	1066265	keystroke	d	n/a
534.587	0.075	1069174	keystroke	Key.enter	n/a
534.667	16.958	1069334	prompt	n/a	international setting devon painting\n
535.442	0.06	1070884	keystroke	i	n/a
535.607	0.075	1071214	keystroke	n	n/a
535.832	0.09	1071664	keystroke	t	n/a
536.117	0.12	1072234	keystroke	e	n/a
536.372	0.105	1072744	keystroke	r	n/a
537.0015	0.06	1074003	keystroke	n	n/a
537.4665	0.075	1074933	keystroke	a	n/a
538.7115	0.03	1077423	keystroke	t	n/a
538.8615	0.105	1077723	keystroke	i	n/a
539.0565	0.075	1078113	keystroke	o	n/a
539.5815	0.06	1079163	keystroke	n	n/a
540.0305	0.091	1080061	keystroke	a	n/a
540.4815	0.09	1080963	keystroke	l	n/a
540.7505	0.106	1081501	keystroke	Key.space	n/a
541.0205	0.106	1082041	keystroke	s	n/a
541.2605	0.075	1082521	keystroke	e	n/a
541.4255	0.136	1082851	keystroke	e	n/a
542.19	0.06	1084380	keystroke	Key.backspace	n/a
542.43	0.09	1084860	keystroke	t	n/a
542.5805	0.0745	1085161	keystroke	t	n/a
542.85	0.09	1085700	keystroke	i	n/a
543.075	0.09	1086150	keystroke	n	n/a
543.285	0.075	1086570	keystroke	g	n/a
543.8405	0.0895	1087681	keystroke	Key.space	n/a
544.35	0.12	1088700	keystroke	s	n/a
544.575	0.075	1089150	keystroke	e	n/a
545.22	0.135	1090440	keystroke	Key.backspace	n/a
545.5495	0.09	1091099	keystroke	Key.backspace	n/a
545.8045	0.075	1091609	keystroke	d	n/a
546.03	0.06	1092060	keystroke	e	n/a
546.3755	0.09	1092751	keystroke	v	n/a
546.93	0.09	1093860	keystroke	o	n/a
547.17	0.09	1094340	keystroke	n	n/a
547.4395	0.12	1094879	keystroke	Key.space	n/a
547.7095	0.105	1095419	keystroke	p	n/a
547.994	0.09	1095988	keystroke	a	n/a
548.204	0.09	1096408	keystroke	i	n/a
548.505	0.104	1097010	keystroke	n	n/a
548.759	0.105	1097518	keystroke	t	n/a
549.3885	0.06	1098777	keystroke	i	n/a
549.5835	0.06	1099167	keystroke	n	n/a
549.7485	0.075	1099497	keystroke	g	n/a
551.5335	0.09	1103067	keystroke	Key.enter	n/a
551.6295	10.794	1103259	prompt	n/a	chorus gene marble strain\n
552.5535	0.09	1105107	keystroke	c	n/a
552.7335	0.075	1105467	keystroke	h	n/a
553.1385	0.09	1106277	keystroke	o	n/a
553.3335	0.075	1106667	keystroke	r	n/a
553.8735	0.06	1107747	keystroke	u	n/a
554.0835	0.06	1108167	keystroke	s	n/a
554.4135	0.0895	1108827	keystroke	Key.space	n/a
554.773	0.075	1109546	keystroke	g	n/a
555.043	0.09	1110086	keystroke	e	n/a
555.358	0.135	1110716	keystroke	n	n/a
555.658	0.105	1111316	keystroke	e	n/a
556.228	0.105	1112456	keystroke	Key.space	n/a
556.6475	0.12	1113295	keystroke	m	n/a
556.8725	0.105	1113745	keystroke	a	n/a
557.1725	0.075	1114345	keystroke	r	n/a
557.5475	0.09	1115095	keystroke	b	n/a
558.0275	0.06	1116055	keystroke	l	n/a
558.7175	0.075	1117435	keystroke	e	n/a
558.912	0.105	1117824	keystroke	Key.space	n/a
559.152	0.09	1118304	keystroke	s	n/a
559.4375	0.075	1118875	keystroke	t	n/a
560.562	0.075	1121124	keystroke	r	n/a
560.952	0.105	1121904	keystroke	a	n/a
561.237	0.075	1122474	keystroke	i	n/a
561.432	0.09	1122864	keystroke	n	n/a
562.347	0.075	1124694	keystroke	Key.enter	n/a
562.4265	18.6835	1124853	prompt	n/a	fame blvd nonprofit revenue\n
563.157	0.075	1126314	keystroke	f	n/a
563.3815	0.105	1126763	keystroke	a	n/a
563.5465	0.0595	1127093	keystroke	m	n/a
563.726	0.075	1127452	keystroke	e	n/a
564.041	0.105	1128082	keystroke	Key.space	n/a
564.5365	0.09	1129073	keystroke	b	n/a
564.7765	0.09	1129553	keystroke	l	n/a
565.7365	0.045	1131473	keystroke	c	n/a
565.8115	0.195	1131623	keystroke	c	n/a
566.756	0.135	1133512	keystroke	Key.backspace	n/a
567.251	0.045	1134502	keystroke	Key.backspace	n/a
567.626	0.06	1135252	keystroke	x	n/a
568.556	0.075	1137112	keystroke	Key.backspace	n/a
569.501	0.105	1139002	keystroke	v	n/a
570.2355	0.12	1140471	keystroke	d	n/a
570.506	0.09	1141012	keystroke	Key.space	n/a
572.1245	0.18	1144249	keystroke	n	n/a
572.3805	0.165	1144761	keystroke	o	n/a
572.6645	0.091	1145329	keystroke	n	n/a
573.6395	0.106	1147279	keystroke	p	n/a
573.8505	0.075	1147701	keystroke	r	n/a
573.9845	0.075	1147969	keystroke	o	n/a
574.3295	0.09	1148659	keystroke	g	n/a
574.5695	0.075	1149139	keystroke	i	n/a
575.169	0.0905	1150338	keystroke	Key.backspace	n/a
575.589	0.075	1151178	keystroke	Key.backspace	n/a
575.859	0.105	1151718	keystroke	f	n/a
576.789	0.06	1153578	keystroke	i	n/a
576.954	0.06	1153908	keystroke	t	n/a
577.224	0.0905	1154448	keystroke	Key.space	n/a
577.4645	0.09	1154929	keystroke	r	n/a
577.7195	0.075	1155439	keystroke	e	n/a
578.1845	0.105	1156369	keystroke	v	n/a
578.499	0.09	1156998	keystroke	e	n/a
579.6535	0.075	1159307	keystroke	n	n/a
579.9385	0.075	1159877	keystroke	u	n/a
580.2085	0.06	1160417	keystroke	e	n/a
581.0335	0.075	1162067	keystroke	Key.enter	n/a
581.114	11.0045	1162228	prompt	n/a	shopper ball toshiba costume\n
581.9035	0.075	1163807	keystroke	s	n/a
581.994	0.1045	1163988	keystroke	h	n/a
582.2185	0.105	1164437	keystroke	o	n/a
582.503	0.075	1165006	keystroke	p	n/a
582.698	0.076	1165396	keystroke	p	n/a
582.9535	0.105	1165907	keystroke	e	n/a
583.209	0.0895	1166418	keystroke	r	n/a
583.8525	0.075	1167705	keystroke	Key.space	n/a
584.2735	0.09	1168547	keystroke	b	n/a
584.5885	0.105	1169177	keystroke	a	n/a
584.7525	0.061	1169505	keystroke	l	n/a
584.9025	0.076	1169805	keystroke	l	n/a
585.1275	0.075	1170255	keystroke	Key.space	n/a
585.773	0.075	1171546	keystroke	t	n/a
585.953	0.09	1171906	keystroke	o	n/a
586.193	0.105	1172386	keystroke	s	n/a
586.328	0.075	1172656	keystroke	h	n/a
586.913	0.06	1173826	keystroke	i	n/a
587.438	0.075	1174876	keystroke	b	n/a
587.993	0.105	1175986	keystroke	a	n/a
588.338	0.09	1176676	keystroke	Key.space	n/a
588.668	0.075	1177336	keystroke	c	n/a
589.298	0.075	1178596	keystroke	o	n/a
589.583	0.1195	1179166	keystroke	s	n/a
589.9725	0.075	1179945	keystroke	t	n/a
590.1375	0.06	1180275	keystroke	u	n/a
590.4075	0.105	1180815	keystroke	m	n/a
590.6475	0.09	1181295	keystroke	e	n/a
592.0415	0.075	1184083	keystroke	Key.enter	n/a
592.123	19.298	1184246	prompt	n/a	prefix prospect wisconsin physiology\n
592.9715	0.105	1185943	keystroke	p	n/a
593.2265	0.03	1186453	keystroke	r	n/a
593.4215	0.09	1186843	keystroke	e	n/a
594.2465	0.06	1188493	keystroke	f	n/a
594.4415	0.075	1188883	keystroke	i	n/a
594.8615	0.105	1189723	keystroke	x	n/a
595.2965	0.09	1190593	keystroke	Key.space	n/a
595.807	0.09	1191614	keystroke	p	n/a
596.077	0.06	1192154	keystroke	r	n/a
596.257	0.075	1192514	keystroke	o	n/a
596.497	0.09	1192994	keystroke	s	n/a
597.757	0.12	1195514	keystroke	p	n/a
598.042	0.09	1196084	keystroke	e	n/a
598.327	0.105	1196654	keystroke	c	n/a
598.6565	0.075	1197313	keystroke	t	n/a
599.1365	0.075	1198273	keystroke	Key.space	n/a
599.6315	0.0895	1199263	keystroke	w	n/a
599.8115	0.075	1199623	keystroke	i	n/a
600.1115	0.06	1200223	keystroke	s	n/a
600.9065	0.045	1201813	keystroke	c	n/a
601.0265	0.075	1202053	keystroke	o	n/a
601.2215	0.105	1202443	keystroke	n	n/a
601.8065	0.075	1203613	keystroke	s	n/a
601.9705	0.06	1203941	keystroke	i	n/a
602.2105	0.076	1204421	keystroke	n	n/a
603.021	0.075	1206042	keystroke	Key.space	n/a
603.3505	0.12	1206701	keystroke	p	n/a
603.6355	0.105	1207271	keystroke	h	n/a
605.4055	0.09	1210811	keystroke	y	n/a
606.8155	0.105	1213631	keystroke	s	n/a
607.476	0.104	1214952	keystroke	i	n/a
608.57	0.105	1217140	keystroke	o	n/a
609.1245	0.075	1218249	keystroke	l	n/a
609.41	0.0905	1218820	keystroke	o	n/a
609.86	0.075	1219720	keystroke	g	n/a
610.055	0.06	1220110	keystroke	y	n/a
611.3445	0.075	1222689	keystroke	Key.enter	n/a
611.4245	13.7205	1222849	prompt	n/a	development excellent logging oldest\n
612.1695	0.09	1224339	keystroke	d	n/a
612.4095	0.09	1224819	keystroke	e	n/a
612.6945	0.075	1225389	keystroke	v	n/a
612.9795	0.09	1225959	keystroke	e	n/a
613.819	0.075	1227638	keystroke	l	n/a
614.284	0.075	1228568	keystroke	o	n/a
614.524	0.105	1229048	keystroke	p	n/a
615.004	0.075	1230008	keystroke	m	n/a
615.214	0.09	1230428	keystroke	e	n/a
615.334	0.075	1230668	keystroke	n	n/a
615.574	0.06	1231148	keystroke	t	n/a
615.889	0.09	1231778	keystroke	Key.space	n/a
616.264	0.09	1232528	keystroke	e	n/a
616.7135	0.1355	1233427	keystroke	x	n/a
617.5835	0.09	1235167	keystroke	c	n/a
617.8385	0.075	1235677	keystroke	e	n/a
618.0035	0.09	1236007	keystroke	l	n/a
618.3785	0.075	1236757	keystroke	l	n/a
618.769	0.09	1237538	keystroke	e	n/a
619.399	0.06	1238798	keystroke	n	n/a
619.609	0.075	1239218	keystroke	t	n/a
619.759	0.105	1239518	keystroke	Key.space	n/a
620.059	0.105	1240118	keystroke	l	n/a
620.629	0.135	1241258	keystroke	o	n/a
621.094	0.06	1242188	keystroke	g	n/a
621.244	0.075	1242488	keystroke	g	n/a
621.514	0.075	1243028	keystroke	i	n/a
621.694	0.089	1243388	keystroke	n	n/a
621.919	0.06	1243838	keystroke	g	n/a
622.353	0.016	1244706	keystroke	Key.space	n/a
622.789	0.015	1245578	keystroke	o	n/a
622.924	0.12	1245848	keystroke	l	n/a
623.194	0.09	1246388	keystroke	d	n/a
623.659	0.075	1247318	keystroke	e	n/a
624.004	0.105	1248008	keystroke	s	n/a
624.4985	0.075	1248997	keystroke	t	n/a
625.083	0.06	1250166	keystroke	Key.enter	n/a
625.149	11.5295	1250298	prompt	n/a	halo seemed donated bahamas\n
625.893	0.0755	1251786	keystroke	h	n/a
626.1035	0.105	1252207	keystroke	a	n/a
626.2685	0.075	1252537	keystroke	l	n/a
626.4785	0.09	1252957	keystroke	o	n/a
626.7185	0.105	1253437	keystroke	Key.space	n/a
627.1685	0.0895	1254337	keystroke	s	n/a
627.408	0.09	1254816	keystroke	e	n/a
627.573	0.075	1255146	keystroke	e	n/a
627.783	0.06	1255566	keystroke	m	n/a
628.143	0.015	1256286	keystroke	e	n/a
628.7585	0.06	1257517	keystroke	d	n/a
628.9535	0.12	1257907	keystroke	Key.space	n/a
629.9135	0.06	1259827	keystroke	d	n/a
630.0335	0.09	1260067	keystroke	o	n/a
630.273	0.06	1260546	keystroke	n	n/a
630.6775	0.105	1261355	keystroke	a	n/a
630.9625	0.06	1261925	keystroke	t	n/a
631.1875	0.0605	1262375	keystroke	e	n/a
631.383	0.09	1262766	keystroke	d	n/a
631.593	0.075	1263186	keystroke	Key.space	n/a
632.178	0.09	1264356	keystroke	b	n/a
632.508	0.12	1265016	keystroke	a	n/a
633.048	0.09	1266096	keystroke	h	n/a
633.363	0.0895	1266726	keystroke	a	n/a
633.7225	0.06	1267445	keystroke	m	n/a
634.142	0.03	1268284	keystroke	s	n/a
634.727	0.09	1269454	keystroke	Key.backspace	n/a
635.073	0.09	1270146	keystroke	a	n/a
635.492	0.076	1270984	keystroke	s	n/a
636.602	0.075	1273204	keystroke	Key.enter	n/a
636.682	14.7555	1273364	prompt	n/a	thomas inserted asia slovakia\n
637.922	0.06	1275844	keystroke	t	n/a
638.057	0.075	1276114	keystroke	h	n/a
638.312	0.075	1276624	keystroke	o	n/a
638.7015	0.075	1277403	keystroke	m	n/a
639.0315	0.135	1278063	keystroke	a	n/a
639.3465	0.09	1278693	keystroke	s	n/a
639.5865	0.105	1279173	keystroke	Key.space	n/a
639.9765	0.045	1279953	keystroke	i	n/a
640.9665	0.075	1281933	keystroke	n	n/a
641.5215	0.075	1283043	keystroke	s	n/a
641.7915	0.12	1283583	keystroke	e	n/a
642.1365	0.09	1284273	keystroke	r	n/a
642.4815	0.06	1284963	keystroke	t	n/a
642.7665	0.06	1285533	keystroke	e	n/a
643.0365	0.105	1286073	keystroke	d	n/a
643.9815	0.09	1287963	keystroke	Key.space	n/a
644.4465	0.09	1288893	keystroke	a	n/a
644.7015	0.105	1289403	keystroke	s	n/a
644.9265	0.06	1289853	keystroke	i	n/a
645.2115	0.105	1290423	keystroke	a	n/a
645.6915	0.09	1291383	keystroke	Key.space	n/a
646.5465	0.105	1293093	keystroke	s	n/a
646.8015	0.075	1293603	keystroke	l	n/a
647.0865	0.045	1294173	keystroke	o	n/a
647.581	0.106	1295162	keystroke	f	n/a
648.226	0.09	1296452	keystroke	Key.backspace	n/a
648.391	0.105	1296782	keystroke	v	n/a
649.4865	0.09	1298973	keystroke	a	n/a
649.711	0.0755	1299422	keystroke	k	n/a
649.936	0.075	1299872	keystroke	i	n/a
650.461	0.09	1300922	keystroke	a	n/a
651.361	0.075	1302722	keystroke	Key.enter	n/a
651.441	13.8095	1302882	prompt	n/a	enables animated defensive editorial\n
652.246	0.06	1304492	keystroke	e	n/a
652.426	0.045	1304852	keystroke	n	n/a
652.636	0.09	1305272	keystroke	a	n/a
652.9655	0.075	1305931	keystroke	b	n/a
653.1155	0.075	1306231	keystroke	l	n/a
653.3105	0.105	1306621	keystroke	e	n/a
653.9255	0.09	1307851	keystroke	s	n/a
654.1355	0.09	1308271	keystroke	Key.space	n/a
654.345	0.09	1308690	keystroke	a	n/a
654.465	0.09	1308930	keystroke	n	n/a
654.645	0.075	1309290	keystroke	i	n/a
654.9	0.075	1309800	keystroke	m	n/a
655.215	0.135	1310430	keystroke	a	n/a
655.575	0.075	1311150	keystroke	t	n/a
655.815	0.09	1311630	keystroke	e	n/a
656.025	0.105	1312050	keystroke	d	n/a
656.19	0.09	1312380	keystroke	Key.space	n/a
656.955	0.0595	1313910	keystroke	d	n/a
657.5245	0.015	1315049	keystroke	e	n/a
657.6755	0.105	1315351	keystroke	f	n/a
658.0945	0.075	1316189	keystroke	e	n/a
658.3195	0.075	1316639	keystroke	n	n/a
658.6945	0.06	1317389	keystroke	s	n/a
658.8295	0.06	1317659	keystroke	i	n/a
659.339	0.121	1318678	keystroke	v	n/a
659.789	0.06	1319578	keystroke	e	n/a
660.374	0.105	1320748	keystroke	Key.space	n/a
660.734	0.075	1321468	keystroke	e	n/a
660.989	0.105	1321978	keystroke	d	n/a
661.199	0.075	1322398	keystroke	i	n/a
661.499	0.06	1322998	keystroke	t	n/a
661.739	0.09	1323478	keystroke	o	n/a
662.0535	0.0755	1324107	keystroke	r	n/a
662.489	0.06	1324978	keystroke	i	n/a
662.7445	0.105	1325489	keystroke	a	n/a
662.9095	0.075	1325819	keystroke	l	n/a
665.221	0.028	1330442	keystroke	Key.enter	n/a
665.254	25.0135	1330508	prompt	n/a	program radical previously convenient\n
666.029	0.09	1332058	keystroke	p	n/a
666.224	0.09	1332448	keystroke	r	n/a
666.389	0.075	1332778	keystroke	o	n/a
666.6135	0.105	1333227	keystroke	g	n/a
667.0785	0.06	1334157	keystroke	r	n/a
667.3635	0.105	1334727	keystroke	a	n/a
667.5585	0.03	1335117	keystroke	m	n/a
668.638	0.075	1337276	keystroke	Key.space	n/a
669.118	0.09	1338236	keystroke	r	n/a
669.313	0.09	1338626	keystroke	e	n/a
669.733	0.105	1339466	keystroke	a	n/a
670.423	0.015	1340846	keystroke	=	n/a
670.7385	0.059	1341477	keystroke	Key.backspace	n/a
670.8125	0.06	1341625	keystroke	Key.backspace	n/a
671.758	0.06	1343516	keystroke	Key.backspace	n/a
672.4475	0.06	1344895	keystroke	d	n/a
672.9875	0.045	1345975	keystroke	i	n/a
673.1525	0.075	1346305	keystroke	c	n/a
673.4225	0.075	1346845	keystroke	a	n/a
673.557	0.0755	1347114	keystroke	l	n/a
674.4275	0.135	1348855	keystroke	Key.backspace	n/a
674.9225	0.12	1349845	keystroke	Key.backspace	n/a
675.4175	0.12	1350835	keystroke	Key.backspace	n/a
675.927	0.135	1351854	keystroke	Key.backspace	n/a
676.467	0.09	1352934	keystroke	Key.backspace	n/a
677.157	0.0755	1354314	keystroke	a	n/a
677.442	0.075	1354884	keystroke	d	n/a
677.592	0.075	1355184	keystroke	i	n/a
678.3715	0.06	1356743	keystroke	c	n/a
678.8225	0.074	1357645	keystroke	a	n/a
679.0315	0.09	1358063	keystroke	l	n/a
679.2865	0.09	1358573	keystroke	Key.space	n/a
679.736	0.105	1359472	keystroke	p	n/a
679.901	0.075	1359802	keystroke	r	n/a
680.1715	0.09	1360343	keystroke	e	n/a
680.6965	0.09	1361393	keystroke	v	n/a
681.1165	0.09	1362233	keystroke	i	n/a
681.356	0.105	1362712	keystroke	o	n/a
681.627	0.075	1363254	keystroke	u	n/a
681.867	0.075	1363734	keystroke	s	n/a
682.8415	0.075	1365683	keystroke	l	n/a
683.2015	0.075	1366403	keystroke	y	n/a
683.4565	0.09	1366913	keystroke	Key.space	n/a
684.101	0.12	1368202	keystroke	c	n/a
684.236	0.09	1368472	keystroke	o	n/a
684.446	0.09	1368892	keystroke	n	n/a
685.196	0.075	1370392	keystroke	v	n/a
685.6905	0.061	1371381	keystroke	e	n/a
685.9005	0.045	1371801	keystroke	n	n/a
687.4155	0.015	1374831	keystroke	i	n/a
688.1955	0.06	1376391	keystroke	e	n/a
688.5705	0.061	1377141	keystroke	n	n/a
688.7955	0.06	1377591	keystroke	t	n/a
690.1605	0.105	1380321	keystroke	Key.enter	n/a
690.271	23.7255	1380542	prompt	n/a	parliamentary repeated detective ranch\n
692.036	0.075	1384072	keystroke	p	n/a
692.291	0.105	1384582	keystroke	a	n/a
692.6055	0.075	1385211	keystroke	r	n/a
693.1305	0.075	1386261	keystroke	l	n/a
695.4875	0.001	1390975	keystroke	i	n/a
695.711	0.09	1391422	keystroke	a	n/a
695.8755	0.03	1391751	keystroke	m	n/a
696.2055	0.06	1392411	keystroke	e	n/a
696.3705	0.06	1392741	keystroke	n	n/a
696.6705	0.105	1393341	keystroke	t	n/a
698.0355	0.15	1396071	keystroke	a	n/a
698.3955	0.09	1396791	keystroke	r	n/a
698.6655	0.075	1397331	keystroke	y	n/a
699.3105	0.075	1398621	keystroke	Key.space	n/a
699.6855	0.105	1399371	keystroke	r	n/a
699.9105	0.06	1399821	keystroke	e	n/a
700.1205	0.075	1400241	keystroke	p	n/a
700.3755	0.075	1400751	keystroke	e	n/a
700.585	0.12	1401170	keystroke	a	n/a
700.9155	0.045	1401831	keystroke	t	n/a
701.6355	0.06	1403271	keystroke	e	n/a
701.9355	0.075	1403871	keystroke	d	n/a
702.6255	0.075	1405251	keystroke	Key.space	n/a
703.3	0.075	1406600	keystroke	d	n/a
703.57	0.0755	1407140	keystroke	e	n/a
704.29	0.075	1408580	keystroke	t	n/a
704.575	0.0905	1409150	keystroke	e	n/a
705.445	0.09	1410890	keystroke	c	n/a
706.525	0.06	1413050	keystroke	t	n/a
706.72	0.06	1413440	keystroke	i	n/a
706.93	0.09	1413860	keystroke	v	n/a
707.335	0.0595	1414670	keystroke	e	n/a
708.07	0.24	1416140	keystroke	Key.space	n/a
708.325	0.045	1416650	keystroke	r	n/a
708.52	0.09	1417040	keystroke	a	n/a
710.1705	0.045	1420341	keystroke	b	n/a
711.0245	0.09	1422049	keystroke	Key.backspace	n/a
712.1055	0.059	1424211	keystroke	n	n/a
713.0205	0.044	1426041	keystroke	c	n/a
713.1395	0.075	1426279	keystroke	h	n/a
713.9055	0.09	1427811	keystroke	Key.enter	n/a
713.9995	17.6965	1427999	prompt	n/a	sometimes collect championship surveillance\n
714.805	0.075	1429610	keystroke	s	n/a
714.925	0.105	1429850	keystroke	o	n/a
715.165	0.09	1430330	keystroke	m	n/a
716.14	0.12	1432280	keystroke	e	n/a
716.47	0.075	1432940	keystroke	t	n/a
716.59	0.09	1433180	keystroke	i	n/a
716.785	0.105	1433570	keystroke	m	n/a
716.935	0.0895	1433870	keystroke	e	n/a
717.2495	0.075	1434499	keystroke	s	n/a
717.7445	0.045	1435489	keystroke	Key.space	n/a
717.9095	0.075	1435819	keystroke	c	n/a
718.0295	0.09	1436059	keystroke	o	n/a
718.4945	0.045	1436989	keystroke	l	n/a
718.6295	0.075	1437259	keystroke	l	n/a
718.9295	0.075	1437859	keystroke	e	n/a
719.23	0.105	1438460	keystroke	c	n/a
719.575	0.075	1439150	keystroke	t	n/a
720.055	0.12	1440110	keystroke	Key.space	n/a
720.355	0.075	1440710	keystroke	c	n/a
720.505	0.06	1441010	keystroke	h	n/a
720.73	0.105	1441460	keystroke	a	n/a
720.88	0.075	1441760	keystroke	m	n/a
721.315	0.12	1442630	keystroke	p	n/a
721.66	0.09	1443320	keystroke	i	n/a
722.17	0.075	1444340	keystroke	o	n/a
722.425	0.075	1444850	keystroke	n	n/a
722.815	0.045	1445630	keystroke	s	n/a
722.89	0.06	1445780	keystroke	h	n/a
723.22	0.1045	1446440	keystroke	i	n/a
723.5345	0.09	1447069	keystroke	p	n/a
724.2395	0.105	1448479	keystroke	Key.space	n/a
725.125	0.0895	1450250	keystroke	s	n/a
725.9345	0.06	1451869	keystroke	u	n/a
726.2645	0.09	1452529	keystroke	r	n/a
727.1045	0.09	1454209	keystroke	v	n/a
727.405	0.105	1454810	keystroke	e	n/a
728.47	0.075	1456940	keystroke	i	n/a
728.695	0.09	1457390	keystroke	l	n/a
728.845	0.105	1457690	keystroke	l	n/a
729.9995	0.09	1459999	keystroke	a	n/a
730.2095	0.06	1460419	keystroke	n	n/a
730.5245	0.09	1461049	keystroke	c	n/a
730.8995	0.0755	1461799	keystroke	e	n/a
731.619	0.075	1463238	keystroke	Key.enter	n/a
731.701	13.3905	1463402	prompt	n/a	operations genres suggestion acts\n
732.399	0.09	1464798	keystroke	o	n/a
732.654	0.09	1465308	keystroke	p	n/a
732.924	0.105	1465848	keystroke	e	n/a
733.149	0.075	1466298	keystroke	r	n/a
733.434	0.075	1466868	keystroke	a	n/a
733.614	0.075	1467228	keystroke	i	n/a
734.98	0.059	1469960	keystroke	Key.backspace	n/a
735.265	0.059	1470530	keystroke	t	n/a
735.399	0.12	1470798	keystroke	i	n/a
735.594	0.091	1471188	keystroke	o	n/a
735.834	0.09	1471668	keystroke	n	n/a
736.089	0.105	1472178	keystroke	s	n/a
736.419	0.105	1472838	keystroke	Key.space	n/a
736.87	0.09	1473740	keystroke	g	n/a
737.124	0.12	1474248	keystroke	e	n/a
737.484	0.045	1474968	keystroke	n	n/a
737.6795	0.1195	1475359	keystroke	e	n/a
738.414	0.076	1476828	keystroke	Key.backspace	n/a
738.639	0.06	1477278	keystroke	r	n/a
739.044	0.075	1478088	keystroke	e	n/a
739.374	0.06	1478748	keystroke	s	n/a
739.839	0.09	1479678	keystroke	Key.space	n/a
740.1695	0.09	1480339	keystroke	s	n/a
740.4545	0.075	1480909	keystroke	u	n/a
740.7845	0.09	1481569	keystroke	g	n/a
740.949	0.1055	1481898	keystroke	g	n/a
741.3545	0.06	1482709	keystroke	e	n/a
741.64	0.09	1483280	keystroke	s	n/a
741.9395	0.075	1483879	keystroke	t	n/a
742.0595	0.105	1484119	keystroke	i	n/a
742.2095	0.105	1484419	keystroke	o	n/a
742.4795	0.075	1484959	keystroke	n	n/a
743.2145	0.075	1486429	keystroke	Key.space	n/a
743.4245	0.12	1486849	keystroke	a	n/a
743.8295	0.105	1487659	keystroke	c	n/a
744.2195	0.075	1488439	keystroke	t	n/a
744.5645	0.105	1489129	keystroke	s	n/a
745.0145	0.0745	1490029	keystroke	Key.enter	n/a
745.0945	11.8465	1490189	prompt	n/a	hearts potentially shot threats\n
745.794	0.076	1491588	keystroke	h	n/a
745.959	0.075	1491918	keystroke	e	n/a
746.199	0.12	1492398	keystroke	a	n/a
746.439	0.0905	1492878	keystroke	r	n/a
746.7095	0.045	1493419	keystroke	t	n/a
747.2645	0.09	1494529	keystroke	s	n/a
747.5345	0.09	1495069	keystroke	Key.space	n/a
748.075	0.1195	1496150	keystroke	p	n/a
748.2845	0.09	1496569	keystroke	o	n/a
748.5395	0.06	1497079	keystroke	t	n/a
748.7795	0.1055	1497559	keystroke	e	n/a
748.945	0.045	1497890	keystroke	n	n/a
749.71	0.074	1499420	keystroke	t	n/a
749.86	0.06	1499720	keystroke	i	n/a
750.309	0.105	1500618	keystroke	a	n/a
750.474	0.075	1500948	keystroke	l	n/a
750.61	0.074	1501220	keystroke	l	n/a
750.894	0.075	1501788	keystroke	y	n/a
751.059	0.121	1502118	keystroke	Key.space	n/a
751.27	0.105	1502540	keystroke	s	n/a
751.39	0.09	1502780	keystroke	h	n/a
751.584	0.091	1503168	keystroke	o	n/a
751.795	0.075	1503590	keystroke	t	n/a
752.034	0.09	1504068	keystroke	Key.space	n/a
752.86	0.059	1505720	keystroke	t	n/a
752.95	0.059	1505900	keystroke	h	n/a
753.1585	0.0905	1506317	keystroke	r	n/a
753.429	0.075	1506858	keystroke	e	n/a
753.7895	0.105	1507579	keystroke	a	n/a
754.1495	0.075	1508299	keystroke	t	n/a
754.4795	0.06	1508959	keystroke	s	n/a
756.9265	0.013	1513853	keystroke	Key.enter	n/a
756.945	23.2455	1513890	prompt	n/a	replies intelligent usually counts\n
757.8845	0.075	1515769	keystroke	r	n/a
758.0795	0.09	1516159	keystroke	e	n/a
758.3045	0.09	1516609	keystroke	p	n/a
759.1895	0.0745	1518379	keystroke	l	n/a
760.014	0.045	1520028	keystroke	i	n/a
760.254	0.075	1520508	keystroke	e	n/a
760.524	0.06	1521048	keystroke	s	n/a
760.719	0.06	1521438	keystroke	Key.space	n/a
761.289	0.06	1522578	keystroke	i	n/a
761.5445	0.119	1523089	keystroke	n	n/a
761.8885	0.075	1523777	keystroke	t	n/a
762.1735	0.075	1524347	keystroke	e	n/a
762.3985	0.075	1524797	keystroke	r	n/a
762.6535	0.075	1525307	keystroke	l	n/a
762.7885	0.121	1525577	keystroke	l	n/a
763.0595	0.059	1526119	keystroke	i	n/a
763.284	0.0595	1526568	keystroke	g	n/a
763.5535	0.061	1527107	keystroke	e	n/a
763.6885	0.06	1527377	keystroke	n	n/a
763.9435	0.06	1527887	keystroke	t	n/a
767.111	0.028	1534222	keystroke	Key.backspace	n/a
767.694	0.09	1535388	keystroke	Key.backspace	n/a
768.309	0.09	1536618	keystroke	Key.backspace	n/a
768.939	0.09	1537878	keystroke	Key.backspace	n/a
769.584	0.075	1539168	keystroke	Key.backspace	n/a
770.229	0.09	1540458	keystroke	Key.backspace	n/a
770.889	0.09	1541778	keystroke	Key.backspace	n/a
771.5345	0.075	1543069	keystroke	Key.backspace	n/a
772.7495	0.0745	1545499	keystroke	l	n/a
772.9145	0.09	1545829	keystroke	l	n/a
773.4995	0.09	1546999	keystroke	i	n/a
773.9495	0.075	1547899	keystroke	g	n/a
774.1745	0.0895	1548349	keystroke	e	n/a
774.324	0.06	1548648	keystroke	n	n/a
774.5195	0.075	1549039	keystroke	t	n/a
774.9695	0.0745	1549939	keystroke	Key.space	n/a
775.449	0.09	1550898	keystroke	u	n/a
775.644	0.09	1551288	keystroke	s	n/a
775.779	0.06	1551558	keystroke	u	n/a
776.229	0.09	1552458	keystroke	a	n/a
776.844	0.045	1553688	keystroke	l	n/a
776.9345	0.105	1553869	keystroke	l	n/a
777.2045	0.1045	1554409	keystroke	y	n/a
777.429	0.1055	1554858	keystroke	Key.space	n/a
777.9995	0.06	1555999	keystroke	c	n/a
778.3895	0.075	1556779	keystroke	o	n/a
778.6595	0.06	1557319	keystroke	u	n/a
778.8545	0.09	1557709	keystroke	n	n/a
779.0795	0.06	1558159	keystroke	t	n/a
779.3945	0.06	1558789	keystroke	s	n/a
780.1295	0.06	1560259	keystroke	Key.enter	n/a
780.194	17.025	1560388	prompt	n/a	capitol republic livecam nine\n
781.3595	0.105	1562719	keystroke	c	n/a
781.9295	0.075	1563859	keystroke	s	n/a
782.949	0.0895	1565898	keystroke	Key.backspace	n/a
783.2045	0.075	1566409	keystroke	a	n/a
783.7735	0.09	1567547	keystroke	p	n/a
784.2235	0.075	1568447	keystroke	i	n/a
784.4185	0.075	1568837	keystroke	t	n/a
784.7345	0.059	1569469	keystroke	a	n/a
785.2585	0.09	1570517	keystroke	Key.backspace	n/a
785.7685	0.06	1571537	keystroke	o	n/a
785.9635	0.09	1571927	keystroke	l	n/a
786.519	0.075	1573038	keystroke	Key.space	n/a
786.789	0.075	1573578	keystroke	r	n/a
787.059	0.075	1574118	keystroke	e	n/a
787.5085	0.105	1575017	keystroke	p	n/a
787.9435	0.0305	1575887	keystroke	u	n/a
788.334	0.0745	1576668	keystroke	b	n/a
788.529	0.075	1577058	keystroke	l	n/a
789.069	0.06	1578138	keystroke	i	n/a
789.279	0.105	1578558	keystroke	c	n/a
789.6685	0.03	1579337	keystroke	Key.space	n/a
790.4635	0.135	1580927	keystroke	l	n/a
790.6435	0.075	1581287	keystroke	i	n/a
790.9145	0.165	1581829	keystroke	v	n/a
791.4695	0.12	1582939	keystroke	e	n/a
791.979	0.09	1583958	keystroke	c	n/a
792.264	0.075	1584528	keystroke	a	n/a
792.384	0.09	1584768	keystroke	m	n/a
793.149	0.105	1586298	keystroke	Key.space	n/a
793.4345	0.09	1586869	keystroke	n	n/a
793.644	0.105	1587288	keystroke	i	n/a
793.8695	0.09	1587739	keystroke	n	n/a
794.529	0.06	1589058	keystroke	e	n/a
797.216	0.001	1594432	keystroke	Key.enter	n/a
797.222	15.4135	1594444	prompt	n/a	called twelve eagle recommend\n
798.249	0.105	1596498	keystroke	c	n/a
798.549	0.09	1597098	keystroke	a	n/a
798.699	0.075	1597398	keystroke	l	n/a
798.834	0.09	1597668	keystroke	l	n/a
799.059	0.075	1598118	keystroke	e	n/a
799.299	0.075	1598598	keystroke	d	n/a
799.479	0.06	1598958	keystroke	Key.space	n/a
800.064	0.09	1600128	keystroke	t	n/a
800.934	0.06	1601868	keystroke	w	n/a
801.624	0.06	1603248	keystroke	e	n/a
801.8185	0.075	1603637	keystroke	l	n/a
801.9985	0.075	1603997	keystroke	e	n/a
802.5535	0.045	1605107	keystroke	Key.backspace	n/a
803.0785	0.105	1606157	keystroke	v	n/a
803.4235	0.075	1606847	keystroke	e	n/a
804.0385	0.0905	1608077	keystroke	Key.space	n/a
804.4445	0.074	1608889	keystroke	e	n/a
804.9085	0.09	1609817	keystroke	a	n/a
805.4035	0.091	1610807	keystroke	f	n/a
806.0935	0.075	1612187	keystroke	Key.backspace	n/a
806.3035	0.06	1612607	keystroke	g	n/a
807.399	0.06	1614798	keystroke	l	n/a
807.534	0.075	1615068	keystroke	e	n/a
808.029	0.06	1616058	keystroke	Key.space	n/a
808.6285	0.09	1617257	keystroke	r	n/a
808.854	0.075	1617708	keystroke	e	n/a
809.3035	0.09	1618607	keystroke	c	n/a
809.4995	0.089	1618999	keystroke	o	n/a
809.919	0.06	1619838	keystroke	m	n/a
810.054	0.09	1620108	keystroke	m	n/a
810.399	0.03	1620798	keystroke	e	n/a
811.224	0.045	1622448	keystroke	n	n/a
811.914	0.06	1623828	keystroke	d	n/a
812.619	0.015	1625238	keystroke	Key.enter	n/a
812.6385	16.1815	1625277	prompt	n/a	northwest missing blogger recall\n
813.609	0.1195	1627218	keystroke	n	n/a
813.8635	0.09	1627727	keystroke	o	n/a
814.2085	0.075	1628417	keystroke	r	n/a
814.4485	0.06	1628897	keystroke	t	n/a
814.5685	0.075	1629137	keystroke	h	n/a
814.9585	0.09	1629917	keystroke	w	n/a
815.499	0.09	1630998	keystroke	e	n/a
815.919	0.09	1631838	keystroke	s	n/a
816.249	0.075	1632498	keystroke	t	n/a
816.834	0.075	1633668	keystroke	Key.space	n/a
817.209	0.105	1634418	keystroke	m	n/a
817.464	0.075	1634928	keystroke	i	n/a
817.644	0.075	1635288	keystroke	s	n/a
817.809	0.075	1635618	keystroke	s	n/a
817.974	0.045	1635948	keystroke	i	n/a
818.124	0.09	1636248	keystroke	n	n/a
818.304	0.075	1636608	keystroke	g	n/a
818.904	0.105	1637808	keystroke	Key.space	n/a
819.474	0.015	1638948	keystroke	v	n/a
820.194	0.075	1640388	keystroke	Key.backspace	n/a
820.479	0.06	1640958	keystroke	b	n/a
820.974	0.0745	1641948	keystroke	l	n/a
821.259	0.075	1642518	keystroke	o	n/a
821.469	0.09	1642938	keystroke	f	n/a
821.649	0.105	1643298	keystroke	f	n/a
822.4135	0.06	1644827	keystroke	Key.backspace	n/a
822.9085	0.075	1645817	keystroke	Key.backspace	n/a
823.1635	0.075	1646327	keystroke	g	n/a
823.3735	0.09	1646747	keystroke	g	n/a
823.6885	0.12	1647377	keystroke	e	n/a
823.9285	0.105	1647857	keystroke	r	n/a
824.2585	0.09	1648517	keystroke	Key.space	n/a
824.6485	0.075	1649297	keystroke	r	n/a
824.8285	0.075	1649657	keystroke	e	n/a
825.8785	0.0905	1651757	keystroke	x	n/a
826.599	0.09	1653198	keystroke	Key.backspace	n/a
826.959	0.0595	1653918	keystroke	c	n/a
827.3485	0.09	1654697	keystroke	a	n/a
827.6635	0.06	1655327	keystroke	l	n/a
827.7835	0.09	1655567	keystroke	l	n/a
828.7885	0.03	1657577	keystroke	Key.enter	n/a
828.824	18.3415	1657648	prompt	n/a	bits sequence exchange political\n
829.6285	0.075	1659257	keystroke	b	n/a
830.2135	0.075	1660427	keystroke	i	n/a
830.829	0.06	1661658	keystroke	t	n/a
831.114	0.075	1662228	keystroke	s	n/a
831.369	0.0745	1662738	keystroke	Key.space	n/a
831.6085	0.045	1663217	keystroke	s	n/a
831.7885	0.075	1663577	keystroke	e	n/a
832.3585	0.105	1664717	keystroke	q	n/a
833.0785	0.12	1666157	keystroke	u	n/a
833.6935	0.06	1667387	keystroke	e	n/a
834.3385	0.015	1668677	keystroke	n	n/a
834.4285	0.045	1668857	keystroke	c	n/a
834.7585	0.06	1669517	keystroke	e	n/a
835.2685	0.105	1670537	keystroke	Key.space	n/a
835.9585	0.2705	1671917	keystroke	e	n/a
836.5585	0.105	1673117	keystroke	x	n/a
837.6685	0.06	1675337	keystroke	c	n/a
837.7435	0.06	1675487	keystroke	h	n/a
838.0135	0.09	1676027	keystroke	a	n/a
838.2085	0.09	1676417	keystroke	n	n/a
838.4345	0.089	1676869	keystroke	g	n/a
838.7935	0.075	1677587	keystroke	e	n/a
839.3035	0.105	1678607	keystroke	Key.space	n/a
839.9185	0.105	1679837	keystroke	p	n/a
840.3985	0.075	1680797	keystroke	o	n/a
840.7135	0.09	1681427	keystroke	t	n/a
841.3285	0.09	1682657	keystroke	i	n/a
841.6885	0.075	1683377	keystroke	t	n/a
842.724	0.09	1685448	keystroke	Key.backspace	n/a
843.264	0.105	1686528	keystroke	Key.backspace	n/a
843.804	0.075	1687608	keystroke	Key.backspace	n/a
844.374	0.105	1688748	keystroke	l	n/a
845.0645	0.0745	1690129	keystroke	i	n/a
845.364	0.075	1690728	keystroke	t	n/a
845.784	0.075	1691568	keystroke	i	n/a
846.084	0.105	1692168	keystroke	c	n/a
846.414	0.09	1692828	keystroke	a	n/a
846.534	0.09	1693068	keystroke	l	n/a
847.074	0.09	1694148	keystroke	Key.enter	n/a
847.1685	12.327	1694337	prompt	n/a	corrections trading restrict fails\n
847.8835	0.09	1695767	keystroke	c	n/a
848.0485	0.075	1696097	keystroke	o	n/a
848.2735	0.09	1696547	keystroke	r	n/a
848.4235	0.105	1696847	keystroke	r	n/a
848.694	0.075	1697388	keystroke	e	n/a
848.994	0.09	1697988	keystroke	c	n/a
849.324	0.105	1698648	keystroke	t	n/a
849.489	0.105	1698978	keystroke	i	n/a
849.684	0.09	1699368	keystroke	o	n/a
849.909	0.06	1699818	keystroke	n	n/a
850.119	0.075	1700238	keystroke	s	n/a
850.4485	0.09	1700897	keystroke	Key.space	n/a
850.9135	0.09	1701827	keystroke	t	n/a
851.1235	0.09	1702247	keystroke	r	n/a
851.3935	0.135	1702787	keystroke	a	n/a
851.6935	0.075	1703387	keystroke	d	n/a
851.8435	0.075	1703687	keystroke	i	n/a
852.0535	0.075	1704107	keystroke	n	n/a
852.2185	0.075	1704437	keystroke	g	n/a
853.0135	0.06	1706027	keystroke	Key.space	n/a
853.2985	0.09	1706597	keystroke	r	n/a
853.5235	0.045	1707047	keystroke	e	n/a
853.8235	0.105	1707647	keystroke	s	n/a
854.8135	0.045	1709627	keystroke	t	n/a
855.6985	0.075	1711397	keystroke	r	n/a
855.9685	0.06	1711937	keystroke	i	n/a
856.1635	0.075	1712327	keystroke	c	n/a
856.4935	0.06	1712987	keystroke	t	n/a
857.544	0.135	1715088	keystroke	Key.space	n/a
857.799	0.045	1715598	keystroke	f	n/a
858.219	0.09	1716438	keystroke	a	n/a
858.444	0.075	1716888	keystroke	i	n/a
858.684	0.09	1717368	keystroke	l	n/a
859.089	0.075	1718178	keystroke	s	n/a
859.419	0.075	1718838	keystroke	Key.enter	n/a
859.4985	16.7515	1718997	prompt	n/a	ipod naples emotional poems\n
860.1995	0.09	1720399	keystroke	i	n/a
860.4545	0.12	1720909	keystroke	p	n/a
860.6795	0.105	1721359	keystroke	o	n/a
860.9195	0.075	1721839	keystroke	d	n/a
861.069	0.09	1722138	keystroke	Key.space	n/a
861.714	0.0755	1723428	keystroke	n	n/a
861.939	0.045	1723878	keystroke	a	n/a
862.209	0.09	1724418	keystroke	p	n/a
862.779	0.0455	1725558	keystroke	l	n/a
862.8845	0.075	1725769	keystroke	e	n/a
863.1245	0.075	1726249	keystroke	s	n/a
863.2435	0.09	1726487	keystroke	Key.space	n/a
863.5295	0.059	1727059	keystroke	e	n/a
863.6795	0.0895	1727359	keystroke	m	n/a
865.3295	0.015	1730659	keystroke	i	n/a
865.524	0.075	1731048	keystroke	t	n/a
865.659	0.12	1731318	keystroke	i	n/a
865.839	0.09	1731678	keystroke	o	n/a
866.4545	0.105	1732909	keystroke	Key.backspace	n/a
866.994	0.105	1733988	keystroke	Key.backspace	n/a
867.549	0.09	1735098	keystroke	Key.backspace	n/a
868.074	0.075	1736148	keystroke	Key.backspace	n/a
868.824	0.1345	1737648	keystroke	o	n/a
869.784	0.075	1739568	keystroke	t	n/a
869.919	0.09	1739838	keystroke	i	n/a
870.099	0.09	1740198	keystroke	o	n/a
870.339	0.075	1740678	keystroke	n	n/a
870.579	0.015	1741158	keystroke	s	n/a
871.299	0.09	1742598	keystroke	Key.backspace	n/a
871.839	0.075	1743678	keystroke	a	n/a
871.974	0.09	1743948	keystroke	l	n/a
872.334	0.0745	1744668	keystroke	Key.space	n/a
873.4585	0.12	1746917	keystroke	p	n/a
873.6835	0.0905	1747367	keystroke	o	n/a
873.969	0.06	1747938	keystroke	e	n/a
874.389	0.075	1748778	keystroke	m	n/a
874.824	0.075	1749648	keystroke	s	n/a
876.1735	0.075	1752347	keystroke	Key.enter	n/a
876.254	14.486	1752508	prompt	n/a	otherwise hazardous hybrid hosting\n
877.029	0.075	1754058	keystroke	o	n/a
877.269	0.075	1754538	keystroke	t	n/a
877.359	0.075	1754718	keystroke	h	n/a
877.554	0.09	1755108	keystroke	e	n/a
877.764	0.0895	1755528	keystroke	r	n/a
878.1085	0.06	1756217	keystroke	Key.space	n/a
878.6335	0.09	1757267	keystroke	Key.backspace	n/a
879.0535	0.075	1758107	keystroke	w	n/a
879.204	0.06	1758408	keystroke	i	n/a
879.384	0.09	1758768	keystroke	s	n/a
879.624	0.045	1759248	keystroke	e	n/a
879.849	0.075	1759698	keystroke	Key.space	n/a
880.584	0.06	1761168	keystroke	h	n/a
880.794	0.105	1761588	keystroke	a	n/a
881.214	0.15	1762428	keystroke	z	n/a
882.0235	0.105	1764047	keystroke	a	n/a
882.3535	0.09	1764707	keystroke	r	n/a
882.6985	0.075	1765397	keystroke	d	n/a
882.8935	0.09	1765787	keystroke	o	n/a
883.1485	0.06	1766297	keystroke	u	n/a
884.2285	0.06	1768457	keystroke	s	n/a
884.7535	0.06	1769507	keystroke	Key.space	n/a
885.2335	0.0755	1770467	keystroke	h	n/a
885.759	0.06	1771518	keystroke	y	n/a
886.419	0.09	1772838	keystroke	b	n/a
886.824	0.059	1773648	keystroke	r	n/a
886.943	0.061	1773886	keystroke	i	n/a
887.213	0.076	1774426	keystroke	d	n/a
888.353	0.076	1776706	keystroke	Key.space	n/a
888.609	0.09	1777218	keystroke	h	n/a
888.789	0.105	1777578	keystroke	o	n/a
888.984	0.104	1777968	keystroke	s	n/a
889.2985	0.075	1778597	keystroke	t	n/a
889.4185	0.09	1778837	keystroke	i	n/a
889.6285	0.075	1779257	keystroke	n	n/a
889.7935	0.09	1779587	keystroke	g	n/a
890.6485	0.09	1781297	keystroke	Key.enter	n/a
890.743	12.6275	1781486	prompt	n/a	band witch policies snap\n
891.578	0.015	1783156	keystroke	b	n/a
892.058	0.091	1784116	keystroke	a	n/a
892.328	0.045	1784656	keystroke	n	n/a
892.553	0.075	1785106	keystroke	d	n/a
893.1235	0.075	1786247	keystroke	Key.space	n/a
893.4685	0.09	1786937	keystroke	w	n/a
893.7235	0.06	1787447	keystroke	i	n/a
894.2785	0.06	1788557	keystroke	t	n/a
895.2535	0.075	1790507	keystroke	c	n/a
895.3435	0.09	1790687	keystroke	h	n/a
895.5685	0.12	1791137	keystroke	Key.space	n/a
895.8085	0.12	1791617	keystroke	p	n/a
896.0185	0.12	1792037	keystroke	o	n/a
896.3035	0.09	1792607	keystroke	l	n/a
896.8135	0.075	1793627	keystroke	o	n/a
896.9785	0.075	1793957	keystroke	c	n/a
897.7435	0.135	1795487	keystroke	Key.backspace	n/a
898.599	0.075	1797198	keystroke	Key.backspace	n/a
899.3635	0.045	1798727	keystroke	i	n/a
899.5735	0.075	1799147	keystroke	c	n/a
900.7735	0.075	1801547	keystroke	i	n/a
901.044	0.075	1802088	keystroke	e	n/a
901.404	0.075	1802808	keystroke	s	n/a
901.929	0.09	1803858	keystroke	Key.space	n/a
902.349	0.059	1804698	keystroke	s	n/a
902.453	0.076	1804906	keystroke	n	n/a
902.694	0.074	1805388	keystroke	a	n/a
902.844	0.09	1805688	keystroke	p	n/a
903.2785	0.09	1806557	keystroke	Key.enter	n/a
903.374	25.1515	1806748	prompt	n/a	trinidad bound microsoft prairie\n
904.223	0.0605	1808446	keystroke	t	n/a
904.448	0.06	1808896	keystroke	r	n/a
904.5995	0.074	1809199	keystroke	i	n/a
904.8695	0.1185	1809739	keystroke	n	n/a
905.1985	0.09	1810397	keystroke	i	n/a
906.5485	0.106	1813097	keystroke	d	n/a
907.2535	0.09	1814507	keystroke	a	n/a
908.004	0.015	1816008	keystroke	d	n/a
908.694	0.09	1817388	keystroke	Key.space	n/a
909.249	0.075	1818498	keystroke	b	n/a
909.429	0.075	1818858	keystroke	o	n/a
909.654	0.06	1819308	keystroke	u	n/a
909.894	0.105	1819788	keystroke	n	n/a
910.059	0.06	1820118	keystroke	d	n/a
910.734	0.075	1821468	keystroke	Key.space	n/a
910.989	0.075	1821978	keystroke	m	n/a
911.214	0.06	1822428	keystroke	i	n/a
911.619	0.09	1823238	keystroke	c	n/a
912.3235	0.075	1824647	keystroke	r	n/a
912.5935	0.06	1825187	keystroke	o	n/a
912.7885	0.105	1825577	keystroke	s	n/a
913.2535	0.06	1826507	keystroke	o	n/a
913.6135	0.105	1827227	keystroke	f	n/a
914.0785	0.075	1828157	keystroke	t	n/a
914.6935	0.12	1829387	keystroke	Key.space	n/a
914.9785	0.09	1829957	keystroke	p	n/a
915.2935	0.105	1830587	keystroke	a	n/a
923.921	0.028	1847842	keystroke	Key.backspace	n/a
924.3535	0.046	1848707	keystroke	r	n/a
925.1785	0.075	1850357	keystroke	a	n/a
925.5835	0.075	1851167	keystroke	i	n/a
925.9285	0.075	1851857	keystroke	r	n/a
927.4445	0.06	1854889	keystroke	i	n/a
927.7895	0.075	1855579	keystroke	e	n/a
928.4335	0.09	1856867	keystroke	Key.enter	n/a
928.53	27.161	1857060	prompt	n/a	girlfriend johnny interpretation beginners\n
929.4385	0.075	1858877	keystroke	g	n/a
929.6635	0.061	1859327	keystroke	i	n/a
929.919	0.075	1859838	keystroke	r	n/a
930.249	0.075	1860498	keystroke	l	n/a
931.2835	0.135	1862567	keystroke	f	n/a
932.349	0.09	1864698	keystroke	r	n/a
933.1135	0.045	1866227	keystroke	i	n/a
933.339	0.06	1866678	keystroke	e	n/a
934.074	0.045	1868148	keystroke	n	n/a
934.419	0.075	1868838	keystroke	d	n/a
934.8695	0.075	1869739	keystroke	Key.space	n/a
935.3345	0.105	1870669	keystroke	h	n/a
936.3695	0.0745	1872739	keystroke	Key.backspace	n/a
936.909	0.075	1873818	keystroke	j	n/a
937.149	0.09	1874298	keystroke	o	n/a
937.539	0.06	1875078	keystroke	h	n/a
938.3945	0.075	1876789	keystroke	n	n/a
938.5145	0.09	1877029	keystroke	n	n/a
938.8145	0.075	1877629	keystroke	y	n/a
939.324	0.09	1878648	keystroke	Key.space	n/a
939.639	0.105	1879278	keystroke	i	n/a
939.849	0.09	1879698	keystroke	n	n/a
940.149	0.075	1880298	keystroke	t	n/a
940.434	0.09	1880868	keystroke	e	n/a
940.809	0.105	1881618	keystroke	r	n/a
941.694	0.105	1883388	keystroke	p	n/a
942.9845	0.2245	1885969	keystroke	r	n/a
943.224	0.015	1886448	keystroke	e	n/a
944.259	0.075	1888518	keystroke	s	n/a
945.0235	0.09	1890047	keystroke	Key.backspace	n/a
945.234	0.09	1890468	keystroke	t	n/a
946.119	0.105	1892238	keystroke	a	n/a
946.599	0.015	1893198	keystroke	r	n/a
948.084	0.075	1896168	keystroke	Key.backspace	n/a
948.414	0.045	1896828	keystroke	t	n/a
948.624	0.105	1897248	keystroke	i	n/a
948.819	0.105	1897638	keystroke	o	n/a
949.449	0.06	1898898	keystroke	n	n/a
951.279	0.075	1902558	keystroke	Key.space	n/a
952.1945	0.06	1904389	keystroke	b	n/a
952.48	0.09	1904960	keystroke	e	n/a
952.9	0.135	1905800	keystroke	g	n/a
953.589	0.045	1907178	keystroke	i	n/a
953.934	0.06	1907868	keystroke	n	n/a
954.084	0.061	1908168	keystroke	n	n/a
954.52	0.09	1909040	keystroke	e	n/a
954.789	0.0755	1909578	keystroke	r	n/a
955.0895	0.06	1910179	keystroke	s	n/a
955.6445	0.045	1911289	keystroke	Key.enter	n/a
955.6945	14.2625	1911389	prompt	n/a	happening clinton elegant guys\n
956.335	0.075	1912670	keystroke	h	n/a
956.53	0.09	1913060	keystroke	a	n/a
956.785	0.1045	1913570	keystroke	p	n/a
956.9645	0.12	1913929	keystroke	p	n/a
957.3995	0.09	1914799	keystroke	e	n/a
957.5495	0.09	1915099	keystroke	n	n/a
958.1195	0.045	1916239	keystroke	i	n/a
958.285	0.09	1916570	keystroke	n	n/a
958.645	0.105	1917290	keystroke	g	n/a
959.125	0.075	1918250	keystroke	Key.space	n/a
959.6795	0.075	1919359	keystroke	c	n/a
959.8445	0.1055	1919689	keystroke	l	n/a
960.16	0.075	1920320	keystroke	i	n/a
961.21	0.0905	1922420	keystroke	n	n/a
961.7655	0.06	1923531	keystroke	t	n/a
961.9455	0.105	1923891	keystroke	o	n/a
962.275	0.075	1924550	keystroke	n	n/a
962.59	0.06	1925180	keystroke	Key.space	n/a
965.473	0.001	1930946	keystroke	e	n/a
965.576	0.075	1931152	keystroke	l	n/a
965.71	0.09	1931420	keystroke	e	n/a
966.115	0.06	1932230	keystroke	g	n/a
966.5355	0.09	1933071	keystroke	a	n/a
966.8355	0.075	1933671	keystroke	n	n/a
967.1205	0.075	1934241	keystroke	t	n/a
967.8855	0.075	1935771	keystroke	Key.space	n/a
968.2905	0.075	1936581	keystroke	g	n/a
968.5755	0.045	1937151	keystroke	u	n/a
969.0705	0.0895	1938141	keystroke	y	n/a
969.3855	0.06	1938771	keystroke	s	n/a
969.9105	0.045	1939821	keystroke	Key.enter	n/a
969.9605	14.1275	1939921	prompt	n/a	kirk best actively translations\n
970.9305	0.12	1941861	keystroke	k	n/a
971.696	0.06	1943392	keystroke	i	n/a
972.146	0.06	1944292	keystroke	r	n/a
972.731	0.12	1945462	keystroke	k	n/a
973.196	0.075	1946392	keystroke	Key.space	n/a
973.826	0.135	1947652	keystroke	b	n/a
974.366	0.045	1948732	keystroke	e	n/a
974.501	0.105	1949002	keystroke	s	n/a
974.816	0.075	1949632	keystroke	t	n/a
975.116	0.09	1950232	keystroke	Key.space	n/a
975.521	0.135	1951042	keystroke	a	n/a
975.8215	0.105	1951643	keystroke	c	n/a
976.406	0.075	1952812	keystroke	t	n/a
976.871	0.105	1953742	keystroke	i	n/a
977.216	0.105	1954432	keystroke	v	n/a
977.816	0.345	1955632	keystroke	e	n/a
978.431	0.075	1956862	keystroke	l	n/a
978.776	0.09	1957552	keystroke	y	n/a
979.5115	0.075	1959023	keystroke	Key.space	n/a
979.7815	0.1045	1959563	keystroke	t	n/a
980.051	0.09	1960102	keystroke	r	n/a
980.456	0.09	1960912	keystroke	a	n/a
980.681	0.0455	1961362	keystroke	n	n/a
980.846	0.105	1961692	keystroke	s	n/a
981.131	0.09	1962262	keystroke	l	n/a
981.386	0.105	1962772	keystroke	a	n/a
981.836	0.09	1963672	keystroke	t	n/a
982.451	0.09	1964902	keystroke	i	n/a
982.631	0.105	1965262	keystroke	o	n/a
982.901	0.075	1965802	keystroke	n	n/a
983.126	0.06	1966252	keystroke	s	n/a
983.996	0.09	1967992	keystroke	Key.enter	n/a
984.091	15.732	1968182	prompt	n/a	consecutive looksmart notre yemen\n
984.941	0.075	1969882	keystroke	c	n/a
985.136	0.09	1970272	keystroke	o	n/a
985.691	0.06	1971382	keystroke	n	n/a
985.991	0.075	1971982	keystroke	s	n/a
986.231	0.09	1972462	keystroke	e	n/a
986.606	0.075	1973212	keystroke	c	n/a
986.891	0.075	1973782	keystroke	u	n/a
987.296	0.09	1974592	keystroke	t	n/a
987.566	0.075	1975132	keystroke	i	n/a
987.956	0.015	1975912	keystroke	v	n/a
988.316	0.09	1976632	keystroke	e	n/a
988.826	0.105	1977652	keystroke	Key.space	n/a
989.261	0.06	1978522	keystroke	l	n/a
989.621	0.075	1979242	keystroke	o	n/a
989.786	0.09	1979572	keystroke	o	n/a
990.251	0.075	1980502	keystroke	k	n/a
990.866	0.0755	1981732	keystroke	s	n/a
991.332	0.0895	1982664	keystroke	m	n/a
991.5415	0.12	1983083	keystroke	a	n/a
991.8115	0.1045	1983623	keystroke	r	n/a
992.097	0.104	1984194	keystroke	t	n/a
992.6965	0.0895	1985393	keystroke	Key.space	n/a
993.011	0.075	1986022	keystroke	n	n/a
993.221	0.0905	1986442	keystroke	o	n/a
995.1565	0.075	1990313	keystroke	t	n/a
996.071	0.075	1992142	keystroke	r	n/a
996.372	0.075	1992744	keystroke	e	n/a
996.972	0.075	1993944	keystroke	Key.space	n/a
997.467	0.075	1994934	keystroke	y	n/a
997.707	0.075	1995414	keystroke	e	n/a
998.427	0.075	1996854	keystroke	m	n/a
998.697	0.075	1997394	keystroke	e	n/a
998.892	0.075	1997784	keystroke	n	n/a
999.7465	0.075	1999493	keystroke	Key.enter	n/a
999.826	12.627	1999652	prompt	n/a	lessons pieces plumbing chinese\n
1000.5265	0.075	2001053	keystroke	l	n/a
1000.7065	0.075	2001413	keystroke	e	n/a
1001.0065	0.075	2002013	keystroke	s	n/a
1001.1865	0.06	2002373	keystroke	s	n/a
1001.3215	0.105	2002643	keystroke	o	n/a
1001.5465	0.075	2003093	keystroke	n	n/a
1001.7715	0.105	2003543	keystroke	s	n/a
1001.9965	0.105	2003993	keystroke	Key.space	n/a
1002.5365	0.15	2005073	keystroke	p	n/a
1003.4815	0.015	2006963	keystroke	i	n/a
1003.9765	0.09	2007953	keystroke	e	n/a
1004.3815	0.075	2008763	keystroke	c	n/a
1004.6665	0.06	2009333	keystroke	e	n/a
1005.0415	0.075	2010083	keystroke	s	n/a
1005.4765	0.12	2010953	keystroke	Key.space	n/a
1005.7315	0.1205	2011463	keystroke	p	n/a
1006.0165	0.135	2012033	keystroke	l	n/a
1006.3015	0.105	2012603	keystroke	u	n/a
1006.6765	0.12	2013353	keystroke	m	n/a
1007.292	0.089	2014584	keystroke	b	n/a
1007.772	0.075	2015544	keystroke	i	n/a
1007.952	0.075	2015904	keystroke	n	n/a
1008.116	0.09	2016232	keystroke	g	n/a
1008.716	0.09	2017432	keystroke	Key.space	n/a
1009.4965	0.075	2018993	keystroke	c	n/a
1009.7065	0.06	2019413	keystroke	h	n/a
1010.337	0.06	2020674	keystroke	i	n/a
1010.517	0.09	2021034	keystroke	n	n/a
1010.802	0.075	2021604	keystroke	e	n/a
1011.207	0.09	2022414	keystroke	s	n/a
1011.671	0.09	2023342	keystroke	e	n/a
1012.3165	0.1355	2024633	keystroke	Key.enter	n/a
1012.456	36.627	2024912	prompt	n/a	schedule calculated pools supervision\n
1013.172	0.089	2026344	keystroke	s	n/a
1013.501	0.075	2027002	keystroke	c	n/a
1014.0265	0.15	2028053	keystroke	h	n/a
1014.6715	0.045	2029343	keystroke	e	n/a
1014.9115	0.075	2029823	keystroke	d	n/a
1015.1365	0.06	2030273	keystroke	u	n/a
1015.391	0.076	2030782	keystroke	l	n/a
1015.616	0.075	2031232	keystroke	e	n/a
1016.546	0.075	2033092	keystroke	Key.space	n/a
1017.281	0.105	2034562	keystroke	c	n/a
1017.6265	0.105	2035253	keystroke	a	n/a
1017.8965	0.105	2035793	keystroke	l	n/a
1018.377	0.09	2036754	keystroke	c	n/a
1018.6465	0.075	2037293	keystroke	u	n/a
1019.0965	0.075	2038193	keystroke	t	n/a
1019.411	0.12	2038822	keystroke	a	n/a
1019.727	0.075	2039454	keystroke	t	n/a
1019.952	0.075	2039904	keystroke	e	n/a
1020.281	0.09	2040562	keystroke	d	n/a
1020.641	0.1355	2041282	keystroke	Key.space	n/a
1020.926	0.1055	2041852	keystroke	p	n/a
1021.1515	0.12	2042303	keystroke	o	n/a
1021.3015	0.12	2042603	keystroke	o	n/a
1028.399	0.028	2056798	keystroke	Key.backspace	n/a
1028.982	0.09	2057964	keystroke	Key.backspace	n/a
1029.627	0.12	2059254	keystroke	Key.backspace	n/a
1030.302	0.075	2060604	keystroke	Key.backspace	n/a
1030.9465	0.09	2061893	keystroke	Key.backspace	n/a
1031.6065	0.105	2063213	keystroke	Key.backspace	n/a
1032.2515	0.0905	2064503	keystroke	Key.backspace	n/a
1032.911	0.09	2065822	keystroke	Key.backspace	n/a
1033.571	0.09	2067142	keystroke	Key.backspace	n/a
1034.4715	0.09	2068943	keystroke	l	n/a
1036.3915	0.1205	2072783	keystroke	a	n/a
1036.722	0.075	2073444	keystroke	t	n/a
1036.9765	0.0755	2073953	keystroke	e	n/a
1037.2015	0.105	2074403	keystroke	d	n/a
1037.7565	0.105	2075513	keystroke	Key.space	n/a
1038.2065	0.015	2076413	keystroke	o	n/a
1040.006	0.075	2080012	keystroke	Key.backspace	n/a
1041.8365	0.135	2083673	keystroke	p	n/a
1042.1215	0.09	2084243	keystroke	o	n/a
1042.2865	0.105	2084573	keystroke	o	n/a
1042.511	0.105	2085022	keystroke	l	n/a
1042.721	0.09	2085442	keystroke	s	n/a
1043.216	0.09	2086432	keystroke	Key.space	n/a
1043.546	0.105	2087092	keystroke	s	n/a
1043.711	0.09	2087422	keystroke	u	n/a
1043.9365	0.105	2087873	keystroke	p	n/a
1044.357	0.105	2088714	keystroke	e	n/a
1044.6265	0.06	2089253	keystroke	r	n/a
1045.5115	0.075	2091023	keystroke	v	n/a
1046.1115	0.09	2092223	keystroke	i	n/a
1047.0865	0.09	2094173	keystroke	s	n/a
1047.5065	0.105	2095013	keystroke	i	n/a
1048.182	0.089	2096364	keystroke	o	n/a
1048.4365	0.075	2096873	keystroke	n	n/a
1048.9615	0.12	2097923	keystroke	Key.enter	n/a
1049.086	18.6715	2098172	prompt	n/a	parameters clouds clothing cooperation\n
1049.8165	0.1045	2099633	keystroke	p	n/a
1050.011	0.12	2100022	keystroke	a	n/a
1050.147	0.075	2100294	keystroke	p	n/a
1050.8515	0.075	2101703	keystroke	Key.backspace	n/a
1051.2565	0.105	2102513	keystroke	r	n/a
1051.5415	0.09	2103083	keystroke	a	n/a
1051.8415	0.0745	2103683	keystroke	m	n/a
1052.051	0.105	2104102	keystroke	e	n/a
1052.366	0.09	2104732	keystroke	t	n/a
1052.756	0.12	2105512	keystroke	e	n/a
1053.056	0.09	2106112	keystroke	r	n/a
1053.521	0.075	2107042	keystroke	s	n/a
1053.956	0.09	2107912	keystroke	Key.space	n/a
1054.586	0.015	2109172	keystroke	c	n/a
1054.616	0.045	2109232	keystroke	l	n/a
1055.1565	0.075	2110313	keystroke	o	n/a
1055.441	0.075	2110882	keystroke	u	n/a
1056.1005	0.06	2112201	keystroke	d	n/a
1056.8815	0.075	2113763	keystroke	s	n/a
1057.2265	0.075	2114453	keystroke	Key.space	n/a
1057.5415	0.09	2115083	keystroke	c	n/a
1057.6765	0.09	2115353	keystroke	l	n/a
1057.8865	0.075	2115773	keystroke	o	n/a
1058.0515	0.105	2116103	keystroke	s	n/a
1058.5165	0.045	2117033	keystroke	t	n/a
1058.9215	0.105	2117843	keystroke	Key.backspace	n/a
1059.4465	0.09	2118893	keystroke	Key.backspace	n/a
1059.9565	0.06	2119913	keystroke	t	n/a
1060.1215	0.06	2120243	keystroke	h	n/a
1060.3915	0.0745	2120783	keystroke	i	n/a
1060.571	0.09	2121142	keystroke	n	n/a
1060.751	0.075	2121502	keystroke	g	n/a
1061.2165	0.09	2122433	keystroke	Key.space	n/a
1061.5005	0.075	2123001	keystroke	c	n/a
1061.6355	0.09	2123271	keystroke	o	n/a
1061.9355	0.075	2123871	keystroke	p	n/a
1062.4305	0.105	2124861	keystroke	Key.backspace	n/a
1062.881	0.135	2125762	keystroke	o	n/a
1063.211	0.09	2126422	keystroke	p	n/a
1063.511	0.105	2127022	keystroke	e	n/a
1063.7965	0.0895	2127593	keystroke	r	n/a
1064.456	0.0905	2128912	keystroke	a	n/a
1064.8165	0.06	2129633	keystroke	t	n/a
1064.9515	0.12	2129903	keystroke	i	n/a
1065.1315	0.105	2130263	keystroke	o	n/a
1065.7315	0.0895	2131463	keystroke	n	n/a
1066.301	0.09	2132602	keystroke	Key.backspace	n/a
1066.961	0.06	2133922	keystroke	n	n/a
1067.6815	0.075	2135363	keystroke	Key.enter	n/a
1067.7605	11.727	2135521	prompt	n/a	emails statements were share\n
1068.4615	0.075	2136923	keystroke	e	n/a
1068.9865	0.075	2137973	keystroke	m	n/a
1069.1965	0.06	2138393	keystroke	a	n/a
1069.3165	0.075	2138633	keystroke	i	n/a
1069.9315	0.0745	2139863	keystroke	l	n/a
1070.186	0.06	2140372	keystroke	s	n/a
1070.396	0.075	2140792	keystroke	Key.space	n/a
1070.696	0.12	2141392	keystroke	s	n/a
1070.996	0.12	2141992	keystroke	t	n/a
1071.266	0.105	2142532	keystroke	a	n/a
1071.551	0.09	2143102	keystroke	t	n/a
1071.806	0.0745	2143612	keystroke	e	n/a
1072.271	0.075	2144542	keystroke	m	n/a
1072.421	0.105	2144842	keystroke	e	n/a
1072.571	0.0455	2145142	keystroke	n	n/a
1072.751	0.06	2145502	keystroke	t	n/a
1073.126	0.09	2146252	keystroke	s	n/a
1073.3955	0.09	2146791	keystroke	Key.space	n/a
1073.7265	0.045	2147453	keystroke	e	n/a
1074.2055	0.075	2148411	keystroke	Key.backspace	n/a
1074.3855	0.105	2148771	keystroke	w	n/a
1074.5805	0.105	2149161	keystroke	e	n/a
1074.8205	0.075	2149641	keystroke	r	n/a
1075.0305	0.09	2150061	keystroke	e	n/a
1075.646	0.045	2151292	keystroke	Key.space	n/a
1076.5005	0.045	2153001	keystroke	a	n/a
1077.3255	0.09	2154651	keystroke	Key.backspace	n/a
1077.5505	0.0605	2155101	keystroke	s	n/a
1078.076	0.09	2156152	keystroke	h	n/a
1078.301	0.105	2156602	keystroke	a	n/a
1078.586	0.09	2157172	keystroke	r	n/a
1078.811	0.075	2157622	keystroke	e	n/a
1079.4105	0.075	2158821	keystroke	Key.enter	n/a
1079.491	11.2015	2158982	prompt	n/a	relevant dare robbie kits\n
1080.371	0.09	2160742	keystroke	r	n/a
1080.5955	0.06	2161191	keystroke	e	n/a
1080.7905	0.076	2161581	keystroke	l	n/a
1081.9465	0.015	2163893	keystroke	e	n/a
1082.1415	0.06	2164283	keystroke	n	n/a
1082.6955	0.075	2165391	keystroke	Key.backspace	n/a
1082.9205	0.0905	2165841	keystroke	v	n/a
1083.2965	0.06	2166593	keystroke	a	n/a
1083.4465	0.045	2166893	keystroke	n	n/a
