onset	duration	sample	value	key	prompt_text
0.9375	15.4265	1875	prompt	n/a	the quick brown fox jumps over a lazy dog\n
3.899	0.0135	7798	keystroke_t	t	n/a
3.928	0.0595	7856	keystroke_h	h	n/a
4.0635	0.0595	8127	keystroke_e	e	n/a
4.138	0.0745	8276	keystroke_Key.space	Key.space	n/a
4.5995	0.045	9199	keystroke_q	q	n/a
4.6745	0.0765	9349	keystroke_u	u	n/a
5.5155	0.06	11031	keystroke_i	i	n/a
5.6205	0.0905	11241	keystroke_c	c	n/a
5.696	0.09	11392	keystroke_k	k	n/a
5.8305	0.09	11661	keystroke_Key.space	Key.space	n/a
6.1015	0.119	12203	keystroke_b	b	n/a
6.2355	0.075	12471	keystroke_r	r	n/a
6.506	0.0445	13012	keystroke_w	w	n/a
6.8655	0.09	13731	keystroke_Key.backspace	Key.backspace	n/a
7.556	0.06	15112	keystroke_o	o	n/a
7.691	0.074	15382	keystroke_w	w	n/a
7.7955	0.12	15591	keystroke_n	n	n/a
7.8855	0.12	15771	keystroke_Key.space	Key.space	n/a
8.1705	0.0605	16341	keystroke_f	f	n/a
8.3205	0.046	16641	keystroke_o	o	n/a
8.4555	0.0755	16911	keystroke_x	x	n/a
8.546	0.09	17092	keystroke_Key.space	Key.space	n/a
8.6955	0.0755	17391	keystroke_j	j	n/a
8.8755	0.0605	17751	keystroke_u	u	n/a
9.041	0.0445	18082	keystroke_m	m	n/a
9.2205	0.0605	18441	keystroke_p	p	n/a
9.4305	0.075	18861	keystroke_s	s	n/a
9.535	0.0905	19070	keystroke_Key.space	Key.space	n/a
9.8655	0.0455	19731	keystroke_p	p	n/a
10.0905	0.06	20181	keystroke_v	v	n/a
10.136	0.075	20272	keystroke_e	e	n/a
10.2855	0.09	20571	keystroke_r	r	n/a
10.3455	0.0905	20691	keystroke_Key.space	Key.space	n/a
10.4805	0.0895	20961	keystroke_a	a	n/a
10.5555	0.075	21111	keystroke_Key.space	Key.space	n/a
10.676	0.075	21352	keystroke_l	l	n/a
10.765	0.076	21530	keystroke_a	a	n/a
10.946	0.075	21892	keystroke_z	z	n/a
11.0505	0.09	22101	keystroke_y	y	n/a
11.216	0.09	22432	keystroke_Key.space	Key.space	n/a
11.246	0.074	22492	keystroke_d	d	n/a
11.441	0.0745	22882	keystroke_o	o	n/a
11.5455	0.06	23091	keystroke_g	g	n/a
11.8005	0.0155	23601	keystroke_Key.backspace	Key.backspace	n/a
11.906	0.06	23812	keystroke_Key.backspace	Key.backspace	n/a
12.0255	0.0455	24051	keystroke_Key.backspace	Key.backspace	n/a
12.2205	0.06	24441	keystroke_Key.backspace	Key.backspace	n/a
12.341	0.15	24682	keystroke_Key.backspace	Key.backspace	n/a
12.5355	0.061	25071	keystroke_Key.backspace	Key.backspace	n/a
12.6855	0.06	25371	keystroke_Key.backspace	Key.backspace	n/a
12.8355	0.03	25671	keystroke_Key.backspace	Key.backspace	n/a
12.941	0.014	25882	keystroke_Key.backspace	Key.backspace	n/a
13.0155	0.0605	26031	keystroke_Key.backspace	Key.backspace	n/a
13.1505	0.075	26301	keystroke_Key.backspace	Key.backspace	n/a
13.286	0.0445	26572	keystroke_Key.backspace	Key.backspace	n/a
13.466	0.0445	26932	keystroke_Key.backspace	Key.backspace	n/a
13.646	0.0445	27292	keystroke_Key.backspace	Key.backspace	n/a
13.8255	0.03	27651	keystroke_Key.backspace	Key.backspace	n/a
14.3805	0.075	28761	keystroke_o	o	n/a
14.621	0.089	29242	keystroke_v	v	n/a
14.6955	0.06	29391	keystroke_e	e	n/a
14.8455	0.0745	29691	keystroke_r	r	n/a
14.906	0.074	29812	keystroke_Key.space	Key.space	n/a
15.056	0.0595	30112	keystroke_a	a	n/a
15.1305	0.0605	30261	keystroke_Key.space	Key.space	n/a
15.2655	0.075	30531	keystroke_l	l	n/a
15.3705	0.0755	30741	keystroke_a	a	n/a
15.551	0.0905	31102	keystroke_z	z	n/a
15.656	0.0745	31312	keystroke_y	y	n/a
15.791	0.0895	31582	keystroke_Key.space	Key.space	n/a
15.836	0.0895	31672	keystroke_d	d	n/a
16.0005	0.076	32001	keystroke_o	o	n/a
16.1065	0.0595	32213	keystroke_g	g	n/a
16.3005	0.06	32601	keystroke_Key.enter	Key.enter	n/a
16.3765	18.3315	32753	prompt	n/a	strengthening unwrap lesbians volvo\n
17.066	0.0895	34132	keystroke_s	s	n/a
17.3055	0.0605	34611	keystroke_t	t	n/a
17.4855	0.0755	34971	keystroke_e	e	n/a
17.591	0.105	35182	keystroke_n	n	n/a
17.8155	0.09	35631	keystroke_g	g	n/a
18.041	0.0745	36082	keystroke_e	e	n/a
18.281	0.045	36562	keystroke_t	t	n/a
18.4155	0.0905	36831	keystroke_h	h	n/a
18.9405	0.06	37881	keystroke_e	e	n/a
19.0455	0.075	38091	keystroke_n	n	n/a
19.1815	0.119	38363	keystroke_i	i	n/a
19.255	0.091	38510	keystroke_n	n	n/a
19.3155	0.075	38631	keystroke_g	g	n/a
19.4505	0.09	38901	keystroke_Key.space	Key.space	n/a
20.096	0.045	40192	keystroke_Key.backspace	Key.backspace	n/a
20.2155	0.06	40431	keystroke_Key.backspace	Key.backspace	n/a
20.3505	0.0445	40701	keystroke_Key.backspace	Key.backspace	n/a
20.561	0.045	41122	keystroke_Key.backspace	Key.backspace	n/a
20.711	0.0445	41422	keystroke_Key.backspace	Key.backspace	n/a
20.831	0.0595	41662	keystroke_Key.backspace	Key.backspace	n/a
20.981	0.045	41962	keystroke_Key.backspace	Key.backspace	n/a
21.0855	0.03	42171	keystroke_Key.backspace	Key.backspace	n/a
21.2055	0.015	42411	keystroke_Key.backspace	Key.backspace	n/a
21.761	0.0605	43522	keystroke_t	t	n/a
21.8215	0.0745	43643	keystroke_h	h	n/a
22.196	0.0605	44392	keystroke_e	e	n/a
22.2855	0.076	44571	keystroke_n	n	n/a
22.451	0.105	44902	keystroke_i	i	n/a
22.511	0.105	45022	keystroke_n	n	n/a
22.586	0.09	45172	keystroke_g	g	n/a
22.691	0.12	45382	keystroke_Key.space	Key.space	n/a
23.8605	0.045	47721	keystroke_Key.backspace	Key.backspace	n/a
24.011	0.045	48022	keystroke_Key.backspace	Key.backspace	n/a
24.161	0.06	48322	keystroke_Key.backspace	Key.backspace	n/a
24.296	0.06	48592	keystroke_Key.backspace	Key.backspace	n/a
24.4455	0.0455	48891	keystroke_Key.backspace	Key.backspace	n/a
24.55	0.046	49100	keystroke_Key.backspace	Key.backspace	n/a
24.656	0.0455	49312	keystroke_Key.backspace	Key.backspace	n/a
24.761	0.0595	49522	keystroke_Key.backspace	Key.backspace	n/a
24.8955	0.045	49791	keystroke_Key.backspace	Key.backspace	n/a
25.001	0.0445	50002	keystroke_Key.backspace	Key.backspace	n/a
25.1055	0.045	50211	keystroke_Key.backspace	Key.backspace	n/a
25.752	0.074	51504	keystroke_r	r	n/a
25.931	0.0745	51862	keystroke_e	e	n/a
26.0355	0.076	52071	keystroke_n	n	n/a
26.1715	0.0595	52343	keystroke_g	g	n/a
26.351	0.0745	52702	keystroke_t	t	n/a
26.4705	0.0905	52941	keystroke_h	h	n/a
27.4905	0.045	54981	keystroke_e	e	n/a
27.5955	0.06	55191	keystroke_n	n	n/a
27.7455	0.121	55491	keystroke_i	i	n/a
27.806	0.1045	55612	keystroke_n	n	n/a
27.8965	0.0595	55793	keystroke_g	g	n/a
28.0005	0.0905	56001	keystroke_Key.space	Key.space	n/a
28.5415	0.0295	57083	keystroke_w	w	n/a
28.931	0.075	57862	keystroke_Key.backspace	Key.backspace	n/a
29.246	0.09	58492	keystroke_u	u	n/a
29.306	0.119	58612	keystroke_n	n	n/a
29.441	0.09	58882	keystroke_w	w	n/a
29.651	0.075	59302	keystroke_r	r	n/a
29.861	0.075	59722	keystroke_a	a	n/a
29.951	0.06	59902	keystroke_p	p	n/a
30.101	0.12	60202	keystroke_Key.space	Key.space	n/a
30.356	0.045	60712	keystroke_a	a	n/a
30.7155	0.045	61431	keystroke_Key.backspace	Key.backspace	n/a
31.0605	0.075	62121	keystroke_l	l	n/a
31.1805	0.076	62361	keystroke_e	e	n/a
31.3465	0.0745	62693	keystroke_s	s	n/a
31.601	0.0595	63202	keystroke_b	b	n/a
31.691	0.0595	63382	keystroke_i	i	n/a
31.871	0.0595	63742	keystroke_s	s	n/a
31.991	0.0905	63982	keystroke_n	n	n/a
32.141	0.03	64282	keystroke_a	a	n/a
32.741	0.074	65482	keystroke_Key.backspace	Key.backspace	n/a
32.891	0.03	65782	keystroke_Key.backspace	Key.backspace	n/a
32.981	0.075	65962	keystroke_Key.backspace	Key.backspace	n/a
33.191	0.075	66382	keystroke_a	a	n/a
33.296	0.075	66592	keystroke_n	n	n/a
33.416	0.075	66832	keystroke_s	s	n/a
33.596	0.09	67192	keystroke_Key.space	Key.space	n/a
33.866	0.075	67732	keystroke_v	v	n/a
34.046	0.075	68092	keystroke_o	o	n/a
34.226	0.0755	68452	keystroke_l	l	n/a
34.316	0.045	68632	keystroke_v	v	n/a
34.406	0.09	68812	keystroke_o	o	n/a
34.646	0.06	69292	keystroke_Key.enter	Key.enter	n/a
34.7125	6.6395	69425	prompt	n/a	cemetery habits focuses likes\n
35.561	0.12	71122	keystroke_c	c	n/a
35.831	0.045	71662	keystroke_e	e	n/a
35.951	0.06	71902	keystroke_m	m	n/a
36.026	0.0605	72052	keystroke_e	e	n/a
36.3705	0.06	72741	keystroke_t	t	n/a
36.4905	0.0755	72981	keystroke_e	e	n/a
36.6705	0.0605	73341	keystroke_r	r	n/a
36.7615	0.089	73523	keystroke_y	y	n/a
36.9255	0.105	73851	keystroke_Key.space	Key.space	n/a
37.3155	0.09	74631	keystroke_h	h	n/a
37.466	0.0605	74932	keystroke_a	a	n/a
37.5405	0.09	75081	keystroke_b	b	n/a
37.751	0.0745	75502	keystroke_i	i	n/a
37.841	0.0745	75682	keystroke_t	t	n/a
38.036	0.09	76072	keystroke_s	s	n/a
38.1405	0.09	76281	keystroke_Key.space	Key.space	n/a
38.3655	0.076	76731	keystroke_f	f	n/a
38.4565	0.0895	76913	keystroke_o	o	n/a
38.5905	0.075	77181	keystroke_c	c	n/a
38.696	0.0745	77392	keystroke_u	u	n/a
38.8165	0.0745	77633	keystroke_s	s	n/a
39.386	0.105	78772	keystroke_s	s	n/a
39.6405	0.045	79281	keystroke_e	e	n/a
39.9555	0.03	79911	keystroke_Key.backspace	Key.backspace	n/a
40.075	0.076	80150	keystroke_Key.backspace	Key.backspace	n/a
40.181	0.105	80362	keystroke_e	e	n/a
40.361	0.09	80722	keystroke_s	s	n/a
40.421	0.075	80842	keystroke_Key.space	Key.space	n/a
40.601	0.06	81202	keystroke_l	l	n/a
40.751	0.075	81502	keystroke_i	i	n/a
40.901	0.12	81802	keystroke_k	k	n/a
41.006	0.075	82012	keystroke_e	e	n/a
41.171	0.09	82342	keystroke_s	s	n/a
41.276	0.074	82552	keystroke_Key.enter	Key.enter	n/a
41.3555	17.8325	82711	prompt	n/a	possession madonna tutorial novelty\n
42.056	0.06	84112	keystroke_p	p	n/a
42.191	0.09	84382	keystroke_o	o	n/a
42.311	0.06	84622	keystroke_s	s	n/a
42.596	0.075	85192	keystroke_e	e	n/a
42.836	0.0605	85672	keystroke_s	s	n/a
43.0015	0.1045	86003	keystroke_s	s	n/a
43.196	0.06	86392	keystroke_i	i	n/a
43.346	0.1355	86692	keystroke_o	o	n/a
43.451	0.09	86902	keystroke_n	n	n/a
43.586	0.06	87172	keystroke_s	s	n/a
43.706	0.105	87412	keystroke_Key.space	Key.space	n/a
43.9	0.106	87800	keystroke_m	m	n/a
44.23	0.061	88460	keystroke_Key.backspace	Key.backspace	n/a
44.366	0.074	88732	keystroke_Key.backspace	Key.backspace	n/a
44.486	0.075	88972	keystroke_Key.backspace	Key.backspace	n/a
45.101	0.075	90202	keystroke_Key.space	Key.space	n/a
45.716	0.075	91432	keystroke_Key.backspace	Key.backspace	n/a
45.956	0.06	91912	keystroke_Key.backspace	Key.backspace	n/a
46.046	0.045	92092	keystroke_Key.backspace	Key.backspace	n/a
46.601	0.06	93202	keystroke_Key.backspace	Key.backspace	n/a
46.871	0.03	93742	keystroke_Key.backspace	Key.backspace	n/a
47.006	0.03	94012	keystroke_Key.backspace	Key.backspace	n/a
47.111	0.06	94222	keystroke_Key.backspace	Key.backspace	n/a
47.231	0.0895	94462	keystroke_Key.backspace	Key.backspace	n/a
47.8755	0.06	95751	keystroke_s	s	n/a
48.0105	0.045	96021	keystroke_s	s	n/a
48.235	0.06	96470	keystroke_e	e	n/a
48.43	0.076	96860	keystroke_s	s	n/a
48.6705	0.075	97341	keystroke_s	s	n/a
48.8355	0.0905	97671	keystroke_i	i	n/a
49.001	0.15	98002	keystroke_o	o	n/a
49.106	0.104	98212	keystroke_n	n	n/a
49.2705	0.135	98541	keystroke_Key.space	Key.space	n/a
49.42	0.135	98840	keystroke_m	m	n/a
49.571	0.075	99142	keystroke_a	a	n/a
49.766	0.075	99532	keystroke_d	d	n/a
49.885	0.1055	99770	keystroke_o	o	n/a
49.9755	0.0305	99951	keystroke_n	n	n/a
50.0655	0.09	100131	keystroke_n	n	n/a
50.231	0.0905	100462	keystroke_a	a	n/a
50.3655	0.12	100731	keystroke_Key.space	Key.space	n/a
50.606	0.075	101212	keystroke_t	t	n/a
50.711	0.105	101422	keystroke_u	u	n/a
50.861	0.06	101722	keystroke_t	t	n/a
50.951	0.0905	101902	keystroke_o	o	n/a
51.071	0.074	102142	keystroke_r	r	n/a
51.19	0.105	102380	keystroke_i	i	n/a
51.385	0.0755	102770	keystroke_a	a	n/a
51.475	0.105	102950	keystroke_l	l	n/a
51.715	0.076	103430	keystroke_Key.space	Key.space	n/a
54.628	0.058	109256	keystroke_n	n	n/a
54.656	0.105	109312	keystroke_o	o	n/a
54.896	0.075	109792	keystroke_v	v	n/a
55.001	0.0745	110002	keystroke_e	e	n/a
55.1205	0.0755	110241	keystroke_k	k	n/a
55.241	0.0455	110482	keystroke_t	t	n/a
55.3755	0.0755	110751	keystroke_y	y	n/a
56.246	0.045	112492	keystroke_Key.backspace	Key.backspace	n/a
56.501	0.0595	113002	keystroke_Key.backspace	Key.backspace	n/a
56.651	0.074	113302	keystroke_Key.backspace	Key.backspace	n/a
57.386	0.0445	114772	keystroke_k	k	n/a
58.0305	0.075	116061	keystroke_Key.backspace	Key.backspace	n/a
58.3005	0.0605	116601	keystroke_l	l	n/a
58.451	0.0605	116902	keystroke_t	t	n/a
58.5705	0.076	117141	keystroke_y	y	n/a
59.1105	0.0755	118221	keystroke_Key.enter	Key.enter	n/a
59.1925	5.875	118385	prompt	n/a	extract pockets charming count\n
60.1465	0.0745	120293	keystroke_e	e	n/a
60.3255	0.09	120651	keystroke_x	x	n/a
60.4455	0.0455	120891	keystroke_t	t	n/a
60.5655	0.09	121131	keystroke_r	r	n/a
60.6705	0.0605	121341	keystroke_a	a	n/a
60.881	0.0895	121762	keystroke_c	c	n/a
60.9855	0.06	121971	keystroke_t	t	n/a
61.1355	0.0905	122271	keystroke_Key.space	Key.space	n/a
61.6605	0.0455	123321	keystroke_p	p	n/a
61.781	0.0745	123562	keystroke_o	o	n/a
61.916	0.0895	123832	keystroke_c	c	n/a
61.9605	0.075	123921	keystroke_k	k	n/a
62.126	0.06	124252	keystroke_e	e	n/a
62.276	0.0745	124552	keystroke_t	t	n/a
62.3805	0.061	124761	keystroke_s	s	n/a
62.4855	0.09	124971	keystroke_Key.space	Key.space	n/a
62.7255	0.075	125451	keystroke_c	c	n/a
62.8305	0.0755	125661	keystroke_h	h	n/a
62.9515	0.075	125903	keystroke_a	a	n/a
63.1915	0.059	126383	keystroke_r	r	n/a
63.2655	0.075	126531	keystroke_m	m	n/a
63.4605	0.135	126921	keystroke_i	i	n/a
63.5505	0.1055	127101	keystroke_n	n	n/a
63.6405	0.061	127281	keystroke_g	g	n/a
63.7605	0.1205	127521	keystroke_Key.space	Key.space	n/a
64.361	0.0755	128722	keystroke_c	c	n/a
64.4515	0.075	128903	keystroke_o	o	n/a
64.6305	0.12	129261	keystroke_u	u	n/a
64.6905	0.136	129381	keystroke_n	n	n/a
64.7965	0.089	129593	keystroke_t	t	n/a
64.991	0.075	129982	keystroke_Key.enter	Key.enter	n/a
65.072	13.6765	130144	prompt	n/a	symbols workforce intranet manually\n
65.7705	0.0755	131541	keystroke_s	s	n/a
65.8905	0.0605	131781	keystroke_y	y	n/a
66.086	0.0745	132172	keystroke_m	m	n/a
66.2955	0.015	132591	keystroke_v	v	n/a
66.6255	0.06	133251	keystroke_Key.backspace	Key.backspace	n/a
66.7755	0.0755	133551	keystroke_b	b	n/a
66.9105	0.0755	133821	keystroke_o	o	n/a
67.076	0.0605	134152	keystroke_l	l	n/a
68.0065	0.06	136013	keystroke_s	s	n/a
68.126	0.09	136252	keystroke_Key.space	Key.space	n/a
68.261	0.075	136522	keystroke_w	w	n/a
68.4715	0.0895	136943	keystroke_o	o	n/a
68.666	0.06	137332	keystroke_r	r	n/a
68.816	0.075	137632	keystroke_k	k	n/a
69.3115	0.0595	138623	keystroke_f	f	n/a
69.4015	0.0595	138803	keystroke_o	o	n/a
69.611	0.075	139222	keystroke_r	r	n/a
69.806	0.105	139612	keystroke_c	c	n/a
70.016	0.06	140032	keystroke_e	e	n/a
70.136	0.075	140272	keystroke_Key.space	Key.space	n/a
70.331	0.12	140662	keystroke_i	i	n/a
70.391	0.12	140782	keystroke_n	n	n/a
70.496	0.075	140992	keystroke_t	t	n/a
70.676	0.075	141352	keystroke_r	r	n/a
70.841	0.075	141682	keystroke_n	n	n/a
70.961	0.09	141922	keystroke_a	a	n/a
71.2005	0.076	142401	keystroke_t	t	n/a
71.4105	0.075	142821	keystroke_e	e	n/a
72.026	0.0445	144052	keystroke_Key.backspace	Key.backspace	n/a
72.1605	0.075	144321	keystroke_Key.backspace	Key.backspace	n/a
72.6415	0.059	145283	keystroke_n	n	n/a
72.7455	0.075	145491	keystroke_e	e	n/a
72.9405	0.0605	145881	keystroke_t	t	n/a
73.0455	0.0905	146091	keystroke_Key.space	Key.space	n/a
73.5105	0.075	147021	keystroke_m	m	n/a
73.7055	0.105	147411	keystroke_a	a	n/a
73.8405	0.075	147681	keystroke_n	n	n/a
73.9755	0.076	147951	keystroke_u	u	n/a
74.4705	0.0455	148941	keystroke_Key.backspace	Key.backspace	n/a
74.636	0.059	149272	keystroke_Key.backspace	Key.backspace	n/a
74.755	0.0605	149510	keystroke_Key.backspace	Key.backspace	n/a
74.876	0.03	149752	keystroke_Key.backspace	Key.backspace	n/a
74.9655	0.045	149931	keystroke_Key.backspace	Key.backspace	n/a
75.0855	0.045	150171	keystroke_Key.backspace	Key.backspace	n/a
75.1905	0.0455	150381	keystroke_Key.backspace	Key.backspace	n/a
75.266	0.0595	150532	keystroke_Key.backspace	Key.backspace	n/a
75.386	0.0745	150772	keystroke_Key.backspace	Key.backspace	n/a
75.716	0.045	151432	keystroke_Key.backspace	Key.backspace	n/a
76.211	0.09	152422	keystroke_a	a	n/a
76.331	0.075	152662	keystroke_n	n	n/a
76.466	0.0755	152932	keystroke_e	e	n/a
76.661	0.075	153322	keystroke_t	t	n/a
76.721	0.09	153442	keystroke_Key.space	Key.space	n/a
76.871	0.105	153742	keystroke_m	m	n/a
77.006	0.0905	154012	keystroke_a	a	n/a
77.1265	0.135	154253	keystroke_n	n	n/a
77.2305	0.0905	154461	keystroke_u	u	n/a
77.366	0.075	154732	keystroke_a	a	n/a
77.486	0.06	154972	keystroke_l	l	n/a
77.621	0.075	155242	keystroke_l	l	n/a
77.771	0.075	155542	keystroke_y	y	n/a
77.891	0.0895	155782	keystroke_Key.space	Key.space	n/a
78.5055	0.09	157011	keystroke_Key.backspace	Key.backspace	n/a
78.7155	0.0305	157431	keystroke_Key.enter	Key.enter	n/a
78.7545	6.668	157509	prompt	n/a	flexible pleasure memorabilia framed\n
79.601	0.0745	159202	keystroke_f	f	n/a
80.0365	0.06	160073	keystroke_l	l	n/a
80.1415	0.0745	160283	keystroke_e	e	n/a
80.471	0.075	160942	keystroke_x	x	n/a
80.621	0.09	161242	keystroke_i	i	n/a
80.906	0.0605	161812	keystroke_b	b	n/a
81.0105	0.0755	162021	keystroke_l	l	n/a
81.1305	0.06	162261	keystroke_e	e	n/a
81.2505	0.0755	162501	keystroke_Key.space	Key.space	n/a
81.701	0.075	163402	keystroke_m	m	n/a
81.791	0.09	163582	keystroke_a	a	n/a
82.106	0.075	164212	keystroke_Key.backspace	Key.backspace	n/a
82.286	0.075	164572	keystroke_e	e	n/a
82.391	0.1505	164782	keystroke_m	m	n/a
82.526	0.091	165052	keystroke_o	o	n/a
82.6315	0.0745	165263	keystroke_r	r	n/a
82.9465	0.0745	165893	keystroke_a	a	n/a
83.246	0.06	166492	keystroke_b	b	n/a
83.351	0.075	166702	keystroke_i	i	n/a
83.516	0.075	167032	keystroke_l	l	n/a
83.681	0.06	167362	keystroke_i	i	n/a
83.786	0.06	167572	keystroke_a	a	n/a
83.906	0.075	167812	keystroke_Key.space	Key.space	n/a
84.431	0.045	168862	keystroke_f	f	n/a
84.551	0.09	169102	keystroke_r	r	n/a
84.776	0.0745	169552	keystroke_a	a	n/a
84.8665	0.089	169733	keystroke_m	m	n/a
85.001	0.0905	170002	keystroke_e	e	n/a
85.181	0.09	170362	keystroke_d	d	n/a
85.331	0.09	170662	keystroke_Key.enter	Key.enter	n/a
85.4285	11.292	170857	prompt	n/a	partial hint hungary better\n
86.2005	0.0755	172401	keystroke_p	p	n/a
86.2155	0.0455	172431	keystroke_o	o	n/a
86.291	0.075	172582	keystroke_a	a	n/a
86.5165	0.0745	173033	keystroke_r	r	n/a
86.771	0.06	173542	keystroke_Key.backspace	Key.backspace	n/a
86.906	0.09	173812	keystroke_Key.backspace	Key.backspace	n/a
87.071	0.06	174142	keystroke_Key.backspace	Key.backspace	n/a
87.2205	0.075	174441	keystroke_Key.backspace	Key.backspace	n/a
87.3855	0.0455	174771	keystroke_Key.backspace	Key.backspace	n/a
87.6565	0.0595	175313	keystroke_p	p	n/a
87.7455	0.09	175491	keystroke_a	a	n/a
87.9705	0.0905	175941	keystroke_r	r	n/a
88.181	0.075	176362	keystroke_t	t	n/a
88.2865	0.089	176573	keystroke_i	i	n/a
88.4215	0.06	176843	keystroke_c	c	n/a
88.6315	0.074	177263	keystroke_a	a	n/a
88.6915	0.0595	177383	keystroke_l	l	n/a
88.841	0.075	177682	keystroke_Key.space	Key.space	n/a
88.991	0.0745	177982	keystroke_h	h	n/a
89.186	0.1355	178372	keystroke_u	u	n/a
89.2605	0.09	178521	keystroke_n	n	n/a
89.306	0.075	178612	keystroke_t	t	n/a
89.471	0.075	178942	keystroke_Key.space	Key.space	n/a
90.086	0.06	180172	keystroke_Key.backspace	Key.backspace	n/a
90.2215	0.059	180443	keystroke_Key.backspace	Key.backspace	n/a
90.3415	0.075	180683	keystroke_Key.backspace	Key.backspace	n/a
90.4605	0.06	180921	keystroke_Key.backspace	Key.backspace	n/a
90.5815	0.059	181163	keystroke_Key.backspace	Key.backspace	n/a
90.686	0.0595	181372	keystroke_Key.backspace	Key.backspace	n/a
90.7755	0.06	181551	keystroke_Key.backspace	Key.backspace	n/a
90.8955	0.06	181791	keystroke_Key.backspace	Key.backspace	n/a
91.0455	0.0605	182091	keystroke_Key.backspace	Key.backspace	n/a
91.5115	0.0755	183023	keystroke_a	a	n/a
91.631	0.06	183262	keystroke_l	l	n/a
91.796	0.06	183592	keystroke_Key.space	Key.space	n/a
92.0055	0.061	184011	keystroke_h	h	n/a
92.1865	0.09	184373	keystroke_u	u	n/a
92.2615	0.09	184523	keystroke_n	n	n/a
92.306	0.075	184612	keystroke_t	t	n/a
92.471	0.09	184942	keystroke_Key.space	Key.space	n/a
92.7565	0.045	185513	keystroke_Key.backspace	Key.backspace	n/a
92.8905	0.06	185781	keystroke_Key.backspace	Key.backspace	n/a
93.0105	0.06	186021	keystroke_Key.backspace	Key.backspace	n/a
93.1155	0.0905	186231	keystroke_Key.backspace	Key.backspace	n/a
93.641	0.105	187282	keystroke_i	i	n/a
93.731	0.09	187462	keystroke_n	n	n/a
93.791	0.045	187582	keystroke_t	t	n/a
93.926	0.075	187852	keystroke_Key.space	Key.space	n/a
94.4655	0.075	188931	keystroke_h	h	n/a
94.631	0.0895	189262	keystroke_u	u	n/a
94.6755	0.105	189351	keystroke_n	n	n/a
94.902	0.0895	189804	keystroke_g	g	n/a
95.021	0.09	190042	keystroke_a	a	n/a
95.261	0.046	190522	keystroke_r	r	n/a
95.3365	0.059	190673	keystroke_y	y	n/a
95.456	0.12	190912	keystroke_Key.space	Key.space	n/a
95.8305	0.09	191661	keystroke_b	b	n/a
95.9805	0.0605	191961	keystroke_e	e	n/a
96.086	0.045	192172	keystroke_t	t	n/a
96.2055	0.09	192411	keystroke_t	t	n/a
96.3265	0.1045	192653	keystroke_e	e	n/a
96.5215	0.0905	193043	keystroke_r	r	n/a
96.6565	0.06	193313	keystroke_Key.enter	Key.enter	n/a
96.725	7.7925	193450	prompt	n/a	identifies varying bloom devices\n
97.5265	0.06	195053	keystroke_i	i	n/a
97.6315	0.06	195263	keystroke_d	d	n/a
97.7815	0.0895	195563	keystroke_e	e	n/a
97.856	0.1055	195712	keystroke_n	n	n/a
98.021	0.0605	196042	keystroke_t	t	n/a
98.1115	0.0745	196223	keystroke_i	i	n/a
98.262	0.059	196524	keystroke_g	g	n/a
98.366	0.1055	196732	keystroke_i	i	n/a
98.5315	0.09	197063	keystroke_e	e	n/a
98.7265	0.09	197453	keystroke_s	s	n/a
98.8315	0.1045	197663	keystroke_Key.space	Key.space	n/a
99.4605	0.0455	198921	keystroke_Key.backspace	Key.backspace	n/a
99.5805	0.075	199161	keystroke_Key.backspace	Key.backspace	n/a
99.7155	0.06	199431	keystroke_Key.backspace	Key.backspace	n/a
99.8205	0.061	199641	keystroke_Key.backspace	Key.backspace	n/a
100.001	0.045	200002	keystroke_Key.backspace	Key.backspace	n/a
100.6305	0.0755	201261	keystroke_f	f	n/a
100.7505	0.075	201501	keystroke_i	i	n/a
100.856	0.0745	201712	keystroke_e	e	n/a
101.0065	0.089	202013	keystroke_s	s	n/a
101.0815	0.09	202163	keystroke_Key.space	Key.space	n/a
101.231	0.09	202462	keystroke_v	v	n/a
101.366	0.075	202732	keystroke_a	a	n/a
101.576	0.06	203152	keystroke_r	r	n/a
101.7115	0.0595	203423	keystroke_y	y	n/a
101.876	0.135	203752	keystroke_i	i	n/a
101.966	0.105	203932	keystroke_n	n	n/a
102.026	0.075	204052	keystroke_g	g	n/a
102.161	0.105	204322	keystroke_Key.space	Key.space	n/a
102.6565	0.0745	205313	keystroke_b	b	n/a
102.7465	0.0745	205493	keystroke_l	l	n/a
102.926	0.0455	205852	keystroke_o	o	n/a
103.061	0.135	206122	keystroke_o	o	n/a
103.181	0.105	206362	keystroke_m	m	n/a
103.391	0.105	206782	keystroke_Key.space	Key.space	n/a
103.4065	0.0745	206813	keystroke_d	d	n/a
103.556	0.0895	207112	keystroke_e	e	n/a
103.6615	0.075	207323	keystroke_v	v	n/a
103.8715	0.09	207743	keystroke_i	i	n/a
103.9765	0.074	207953	keystroke_c	c	n/a
104.1855	0.0755	208371	keystroke_e	e	n/a
104.366	0.075	208732	keystroke_s	s	n/a
104.456	0.06	208912	keystroke_Key.enter	Key.enter	n/a
104.5245	8.033	209049	prompt	n/a	navigate unlike pork protocol\n
105.3565	0.06	210713	keystroke_n	n	n/a
105.5215	0.075	211043	keystroke_a	a	n/a
105.6565	0.105	211313	keystroke_v	v	n/a
105.8965	0.06	211793	keystroke_i	i	n/a
106.106	0.06	212212	keystroke_g	g	n/a
106.1815	0.12	212363	keystroke_a	a	n/a
106.316	0.045	212632	keystroke_t	t	n/a
106.481	0.06	212962	keystroke_e	e	n/a
106.616	0.105	213232	keystroke_Key.space	Key.space	n/a
106.9765	0.1045	213953	keystroke_u	u	n/a
107.0515	0.1045	214103	keystroke_n	n	n/a
107.276	0.075	214552	keystroke_l	l	n/a
107.471	0.045	214942	keystroke_i	i	n/a
107.6065	0.09	215213	keystroke_k	k	n/a
107.756	0.045	215512	keystroke_e	e	n/a
107.7715	0.0745	215543	keystroke_Key.space	Key.space	n/a
107.951	0.075	215902	keystroke_o	o	n/a
108.147	0.0295	216294	keystroke_i	i	n/a
108.281	0.076	216562	keystroke_r	r	n/a
108.641	0.045	217282	keystroke_Key.backspace	Key.backspace	n/a
108.761	0.0605	217522	keystroke_Key.backspace	Key.backspace	n/a
108.881	0.0755	217762	keystroke_Key.backspace	Key.backspace	n/a
109.3315	0.074	218663	keystroke_p	p	n/a
109.5265	0.06	219053	keystroke_o	o	n/a
109.691	0.0455	219382	keystroke_r	r	n/a
109.9765	0.074	219953	keystroke_k	k	n/a
110.1855	0.075	220371	keystroke_Key.space	Key.space	n/a
110.4265	0.09	220853	keystroke_p	p	n/a
110.6215	0.0745	221243	keystroke_r	r	n/a
110.726	0.105	221452	keystroke_o	o	n/a
110.9215	0.075	221843	keystroke_t	t	n/a
111.0565	0.09	222113	keystroke_o	o	n/a
111.1765	0.089	222353	keystroke_c	c	n/a
111.2815	0.075	222563	keystroke_o	o	n/a
112.331	0.06	224662	keystroke_l	l	n/a
112.496	0.06	224992	keystroke_Key.enter	Key.enter	n/a
112.5625	7.2255	225125	prompt	n/a	financing returning routine houses\n
113.3965	0.089	226793	keystroke_f	f	n/a
113.5165	0.089	227033	keystroke_i	i	n/a
113.7115	0.075	227423	keystroke_n	n	n/a
113.8315	0.075	227663	keystroke_a	a	n/a
113.9515	0.0745	227903	keystroke_n	n	n/a
114.086	0.09	228172	keystroke_c	c	n/a
114.206	0.1205	228412	keystroke_i	i	n/a
114.281	0.121	228562	keystroke_n	n	n/a
114.357	0.075	228714	keystroke_g	g	n/a
114.476	0.105	228952	keystroke_Key.space	Key.space	n/a
114.7305	0.075	229461	keystroke_r	r	n/a
114.882	0.0595	229764	keystroke_e	e	n/a
115.0765	0.0745	230153	keystroke_t	t	n/a
115.2115	0.0895	230423	keystroke_u	u	n/a
115.331	0.0755	230662	keystroke_r	r	n/a
115.436	0.0895	230872	keystroke_n	n	n/a
115.631	0.135	231262	keystroke_i	i	n/a
115.721	0.1055	231442	keystroke_n	n	n/a
115.7815	0.0895	231563	keystroke_g	g	n/a
115.931	0.0905	231862	keystroke_Key.space	Key.space	n/a
116.2615	0.075	232523	keystroke_r	r	n/a
116.3515	0.074	232703	keystroke_o	o	n/a
116.5155	0.106	233031	keystroke_u	u	n/a
116.6065	0.075	233213	keystroke_t	t	n/a
116.7415	0.1045	233483	keystroke_i	i	n/a
116.7865	0.1045	233573	keystroke_n	n	n/a
116.861	0.075	233722	keystroke_e	e	n/a
117.0265	0.059	234053	keystroke_Key.space	Key.space	n/a
117.251	0.0905	234502	keystroke_h	h	n/a
117.656	0.075	235312	keystroke_u	u	n/a
118.0165	0.059	236033	keystroke_Key.backspace	Key.backspace	n/a
118.1515	0.06	236303	keystroke_Key.backspace	Key.backspace	n/a
118.7805	0.06	237561	keystroke_h	h	n/a
118.9155	0.075	237831	keystroke_o	o	n/a
119.0965	0.074	238193	keystroke_u	u	n/a
119.2005	0.106	238401	keystroke_s	s	n/a
119.3815	0.105	238763	keystroke_e	e	n/a
119.5755	0.0905	239151	keystroke_s	s	n/a
119.6965	0.0895	239393	keystroke_Key.enter	Key.enter	n/a
119.799	9.9785	239598	prompt	n/a	watershed shoe amanda venezuela\n
120.6415	0.12	241283	keystroke_w	w	n/a
121.121	0.09	242242	keystroke_a	a	n/a
121.226	0.075	242452	keystroke_t	t	n/a
121.361	0.075	242722	keystroke_e	e	n/a
121.5415	0.09	243083	keystroke_r	r	n/a
121.7215	0.105	243443	keystroke_s	s	n/a
121.8115	0.09	243623	keystroke_h	h	n/a
121.9315	0.06	243863	keystroke_e	e	n/a
122.0815	0.089	244163	keystroke_d	d	n/a
122.2455	0.0755	244491	keystroke_Key.space	Key.space	n/a
122.8155	0.016	245631	keystroke_a	a	n/a
123.641	0.0755	247282	keystroke_m	m	n/a
123.7765	0.0905	247553	keystroke_a	a	n/a
123.8965	0.075	247793	keystroke_n	n	n/a
124.0165	0.075	248033	keystroke_d	d	n/a
124.2115	0.075	248423	keystroke_a	a	n/a
124.3315	0.09	248663	keystroke_Key.space	Key.space	n/a
124.6615	0.075	249323	keystroke_n	n	n/a
124.796	0.075	249592	keystroke_e	e	n/a
125.0365	0.0295	250073	keystroke_n	n	n/a
125.3815	0.0595	250763	keystroke_e	e	n/a
125.8455	0.045	251691	keystroke_Key.backspace	Key.backspace	n/a
125.966	0.06	251932	keystroke_Key.backspace	Key.backspace	n/a
126.086	0.075	252172	keystroke_Key.backspace	Key.backspace	n/a
127.1665	0.075	254333	keystroke_Key.backspace	Key.backspace	n/a
127.5265	0.0755	255053	keystroke_v	v	n/a
127.616	0.06	255232	keystroke_e	e	n/a
127.7215	0.075	255443	keystroke_n	n	n/a
127.826	0.0755	255652	keystroke_e	e	n/a
128.1415	0.075	256283	keystroke_z	z	n/a
128.321	0.0755	256642	keystroke_u	u	n/a
128.501	0.06	257002	keystroke_e	e	n/a
128.666	0.06	257332	keystroke_l	l	n/a
128.7715	0.0895	257543	keystroke_a	a	n/a
129.7465	0.029	259493	keystroke_Key.enter	Key.enter	n/a
129.782	8.187	259564	prompt	n/a	wants sender photography they'd\n
130.376	0.0755	260752	keystroke_w	w	n/a
130.5415	0.105	261083	keystroke_a	a	n/a
130.647	0.074	261294	keystroke_n	n	n/a
130.8415	0.09	261683	keystroke_t	t	n/a
131.0215	0.06	262043	keystroke_s	s	n/a
131.1115	0.09	262223	keystroke_Key.space	Key.space	n/a
131.5165	0.06	263033	keystroke_e	e	n/a
131.9215	0.075	263843	keystroke_Key.backspace	Key.backspace	n/a
132.1765	0.075	264353	keystroke_s	s	n/a
132.3415	0.075	264683	keystroke_e	e	n/a
132.4615	0.075	264923	keystroke_n	n	n/a
132.5515	0.09	265103	keystroke_d	d	n/a
132.7165	0.0755	265433	keystroke_e	e	n/a
132.8965	0.06	265793	keystroke_r	r	n/a
132.9565	0.075	265913	keystroke_Key.space	Key.space	n/a
133.152	0.0895	266304	keystroke_p	p	n/a
133.3765	0.06	266753	keystroke_h	h	n/a
133.5415	0.105	267083	keystroke_o	o	n/a
133.6915	0.0445	267383	keystroke_t	t	n/a
133.7965	0.075	267593	keystroke_o	o	n/a
134.051	0.075	268102	keystroke_g	g	n/a
134.2465	0.075	268493	keystroke_r	r	n/a
134.456	0.0755	268912	keystroke_a	a	n/a
134.5465	0.0755	269093	keystroke_p	p	n/a
134.7565	0.0745	269513	keystroke_h	h	n/a
134.906	0.0755	269812	keystroke_y	y	n/a
135.0865	0.09	270173	keystroke_Key.space	Key.space	n/a
135.4765	0.074	270953	keystroke_t	t	n/a
135.6115	0.075	271223	keystroke_h	h	n/a
135.671	0.076	271342	keystroke_e	e	n/a
135.7765	0.075	271553	keystroke_y	y	n/a
136.1965	0.044	272393	keystroke_'	'	n/a
136.3615	0.075	272723	keystroke_d	d	n/a
137.906	0.06	275812	keystroke_Key.enter	Key.enter	n/a
137.973	25.2395	275946	prompt	n/a	xerox repository worldwide bridge\n
138.836	0.0905	277672	keystroke_x	x	n/a
139.0165	0.105	278033	keystroke_e	e	n/a
139.2715	0.075	278543	keystroke_r	r	n/a
139.4065	0.076	278813	keystroke_o	o	n/a
139.5415	0.0755	279083	keystroke_x	x	n/a
139.6465	0.105	279293	keystroke_Key.space	Key.space	n/a
140.067	0.059	280134	keystroke_r	r	n/a
140.216	0.09	280432	keystroke_e	e	n/a
140.3515	0.06	280703	keystroke_p	p	n/a
140.502	0.0735	281004	keystroke_o	o	n/a
140.5765	0.1055	281153	keystroke_s	s	n/a
140.726	0.091	281452	keystroke_i	i	n/a
140.877	0.074	281754	keystroke_t	t	n/a
140.997	0.089	281994	keystroke_o	o	n/a
141.102	0.074	282204	keystroke_r	r	n/a
141.402	0.0895	282804	keystroke_i	i	n/a
142.8565	0.089	285713	keystroke_Key.backspace	Key.backspace	n/a
143.847	0.075	287694	keystroke_r	r	n/a
143.952	0.0895	287904	keystroke_y	y	n/a
144.0865	0.09	288173	keystroke_Key.space	Key.space	n/a
144.5065	0.06	289013	keystroke_Key.backspace	Key.backspace	n/a
144.6415	0.045	289283	keystroke_Key.backspace	Key.backspace	n/a
144.7915	0.06	289583	keystroke_Key.backspace	Key.backspace	n/a
145.6615	0.045	291323	keystroke_r	r	n/a
145.7215	0.09	291443	keystroke_y	y	n/a
145.8565	0.1205	291713	keystroke_Key.space	Key.space	n/a
146.186	0.045	292372	keystroke_Key.backspace	Key.backspace	n/a
146.306	0.09	292612	keystroke_Key.backspace	Key.backspace	n/a
146.456	0.0905	292912	keystroke_y	y	n/a
146.5915	0.075	293183	keystroke_Key.space	Key.space	n/a
147.4915	0.045	294983	keystroke_Key.backspace	Key.backspace	n/a
150.555	0.001	301110	keystroke_Key.backspace	Key.backspace	n/a
150.596	0.12	301192	keystroke_Key.backspace	Key.backspace	n/a
151.2265	0.0595	302453	keystroke_y	y	n/a
151.3315	0.0905	302663	keystroke_Key.space	Key.space	n/a
152.232	0.0745	304464	keystroke_w	w	n/a
152.366	0.075	304732	keystroke_o	o	n/a
152.471	0.075	304942	keystroke_r	r	n/a
152.5765	0.09	305153	keystroke_l	l	n/a
152.6965	0.075	305393	keystroke_w	w	n/a
152.846	0.076	305692	keystroke_i	i	n/a
152.936	0.0755	305872	keystroke_d	d	n/a
153.101	0.06	306202	keystroke_e	e	n/a
153.2215	0.0905	306443	keystroke_Key.space	Key.space	n/a
153.477	0.0595	306954	keystroke_b	b	n/a
153.566	0.09	307132	keystroke_r	r	n/a
153.777	0.0595	307554	keystroke_d	d	n/a
153.9415	0.075	307883	keystroke_i	i	n/a
154.3615	0.045	308723	keystroke_=	=	n/a
154.6615	0.075	309323	keystroke_Key.backspace	Key.backspace	n/a
154.826	0.0445	309652	keystroke_Key.backspace	Key.backspace	n/a
154.9315	0.0595	309863	keystroke_Key.backspace	Key.backspace	n/a
155.5015	0.0595	311003	keystroke_i	i	n/a
155.6515	0.0745	311303	keystroke_d	d	n/a
155.7415	0.0895	311483	keystroke_g	g	n/a
155.847	0.074	311694	keystroke_e	e	n/a
158.1445	0	316289	keystroke_Key.backspace	Key.backspace	n/a
158.2015	0.06	316403	keystroke_Key.backspace	Key.backspace	n/a
158.3515	0.045	316703	keystroke_Key.backspace	Key.backspace	n/a
158.6365	0.06	317273	keystroke_Key.backspace	Key.backspace	n/a
158.8015	0.045	317603	keystroke_Key.backspace	Key.backspace	n/a
158.9215	0.045	317843	keystroke_Key.backspace	Key.backspace	n/a
159.0415	0.045	318083	keystroke_Key.backspace	Key.backspace	n/a
159.1465	0.045	318293	keystroke_Key.backspace	Key.backspace	n/a
159.2655	0.046	318531	keystroke_Key.backspace	Key.backspace	n/a
160.377	0.0145	320754	keystroke_Key.backspace	Key.backspace	n/a
160.4665	0.045	320933	keystroke_Key.backspace	Key.backspace	n/a
160.7675	0.089	321535	keystroke_d	d	n/a
161.0065	0.075	322013	keystroke_w	w	n/a
161.1565	0.075	322313	keystroke_i	i	n/a
161.2755	0.0755	322551	keystroke_d	d	n/a
161.4415	0.0745	322883	keystroke_e	e	n/a
161.5765	0.0745	323153	keystroke_Key.space	Key.space	n/a
162.3715	0.0895	324743	keystroke_b	b	n/a
162.522	0.089	325044	keystroke_r	r	n/a
162.627	0.075	325254	keystroke_i	i	n/a
162.731	0.09	325462	keystroke_d	d	n/a
162.8515	0.09	325703	keystroke_g	g	n/a
162.9565	0.045	325913	keystroke_e	e	n/a
163.1665	0.0445	326333	keystroke_Key.enter	Key.enter	n/a
163.217	6.6405	326434	prompt	n/a	lyric lawsuit coffee independence\n
164.0065	0.12	328013	keystroke_l	l	n/a
164.2765	0.075	328553	keystroke_y	y	n/a
164.3965	0.06	328793	keystroke_r	r	n/a
164.5015	0.0595	329003	keystroke_i	i	n/a
164.6215	0.06	329243	keystroke_c	c	n/a
164.802	0.0605	329604	keystroke_s	s	n/a
164.8775	0.074	329755	keystroke_Key.space	Key.space	n/a
165.042	0.074	330084	keystroke_l	l	n/a
165.147	0.074	330294	keystroke_a	a	n/a
165.401	0.06	330802	keystroke_w	w	n/a
165.731	0.076	331462	keystroke_s	s	n/a
165.897	0.0745	331794	keystroke_u	u	n/a
166.0465	0.075	332093	keystroke_i	i	n/a
166.106	0.075	332212	keystroke_t	t	n/a
166.2265	0.105	332453	keystroke_Key.space	Key.space	n/a
166.362	0.059	332724	keystroke_c	c	n/a
166.436	0.121	332872	keystroke_o	o	n/a
166.7665	0.0755	333533	keystroke_f	f	n/a
167.1865	0.0155	334373	keystroke_f	f	n/a
167.306	0.061	334612	keystroke_e	e	n/a
167.4865	0.06	334973	keystroke_e	e	n/a
167.6965	0.075	335393	keystroke_Key.space	Key.space	n/a
168.1915	0.12	336383	keystroke_i	i	n/a
168.2365	0.15	336473	keystroke_n	n	n/a
168.3265	0.045	336653	keystroke_d	d	n/a
168.4905	0.076	336981	keystroke_e	e	n/a
168.5815	0.09	337163	keystroke_p	p	n/a
168.7315	0.06	337463	keystroke_e	e	n/a
168.8515	0.09	337703	keystroke_n	n	n/a
169.0015	0.0455	338003	keystroke_d	d	n/a
169.1665	0.06	338333	keystroke_e	e	n/a
169.3015	0.09	338603	keystroke_n	n	n/a
169.4065	0.09	338813	keystroke_c	c	n/a
169.6165	0.06	339233	keystroke_e	e	n/a
169.7815	0.075	339563	keystroke_Key.enter	Key.enter	n/a
169.862	6.8355	339724	prompt	n/a	chronicle threats helicopter cent\n
170.5465	0.09	341093	keystroke_c	c	n/a
170.7415	0.09	341483	keystroke_h	h	n/a
170.8615	0.0755	341723	keystroke_r	r	n/a
170.9965	0.075	341993	keystroke_o	o	n/a
171.2215	0.135	342443	keystroke_n	n	n/a
171.9565	0.06	343913	keystroke_i	i	n/a
172.0615	0.0905	344123	keystroke_c	c	n/a
172.182	0.089	344364	keystroke_l	l	n/a
172.3015	0.0595	344603	keystroke_e	e	n/a
172.406	0.106	344812	keystroke_Key.space	Key.space	n/a
172.617	0.06	345234	keystroke_t	t	n/a
172.7365	0.06	345473	keystroke_h	h	n/a
172.8565	0.09	345713	keystroke_r	r	n/a
173.081	0.075	346162	keystroke_e	e	n/a
173.291	0.091	346582	keystroke_a	a	n/a
173.426	0.091	346852	keystroke_t	t	n/a
173.561	0.076	347122	keystroke_s	s	n/a
173.726	0.0905	347452	keystroke_Key.space	Key.space	n/a
174.1315	0.075	348263	keystroke_h	h	n/a
174.2815	0.09	348563	keystroke_e	e	n/a
174.3865	0.09	348773	keystroke_l	l	n/a
174.5815	0.09	349163	keystroke_i	i	n/a
174.7005	0.06	349401	keystroke_c	c	n/a
174.7905	0.0765	349581	keystroke_o	o	n/a
174.956	0.0755	349912	keystroke_p	p	n/a
175.2865	0.075	350573	keystroke_t	t	n/a
175.347	0.089	350694	keystroke_e	e	n/a
175.557	0.074	351114	keystroke_r	r	n/a
175.646	0.09	351292	keystroke_Key.space	Key.space	n/a
175.781	0.09	351562	keystroke_c	c	n/a
175.977	0.0745	351954	keystroke_e	e	n/a
176.082	0.0745	352164	keystroke_n	n	n/a
176.6215	0.0745	353243	keystroke_Key.enter	Key.enter	n/a
176.708	4.6695	353416	prompt	n/a	alumni buses both board\n
177.477	0.074	354954	keystroke_a	a	n/a
177.5815	0.0605	355163	keystroke_l	l	n/a
177.777	0.06	355554	keystroke_u	u	n/a
177.9565	0.0755	355913	keystroke_m	m	n/a
178.092	0.1645	356184	keystroke_n	n	n/a
178.227	0.0895	356454	keystroke_i	i	n/a
178.3915	0.105	356783	keystroke_Key.space	Key.space	n/a
178.8275	0.089	357655	keystroke_b	b	n/a
179.0365	0.06	358073	keystroke_u	u	n/a
179.1415	0.1055	358283	keystroke_s	s	n/a
179.3365	0.0905	358673	keystroke_e	e	n/a
179.502	0.0895	359004	keystroke_s	s	n/a
179.5315	0.09	359063	keystroke_Key.space	Key.space	n/a
179.7415	0.09	359483	keystroke_b	b	n/a
179.9215	0.075	359843	keystroke_o	o	n/a
180.0265	0.0755	360053	keystroke_t	t	n/a
180.1475	0.104	360295	keystroke_h	h	n/a
180.2665	0.075	360533	keystroke_Key.space	Key.space	n/a
180.4465	0.105	360893	keystroke_b	b	n/a
180.6265	0.1045	361253	keystroke_o	o	n/a
180.776	0.1205	361552	keystroke_a	a	n/a
181.031	0.0755	362062	keystroke_r	r	n/a
181.2115	0.075	362423	keystroke_d	d	n/a
181.3015	0.075	362603	keystroke_Key.enter	Key.enter	n/a
181.3845	5.0635	362769	prompt	n/a	feet advocacy shed comp\n
182.1865	0.045	364373	keystroke_f	f	n/a
182.276	0.06	364552	keystroke_e	e	n/a
182.4415	0.075	364883	keystroke_e	e	n/a
182.5315	0.0905	365063	keystroke_t	t	n/a
182.6815	0.09	365363	keystroke_Key.space	Key.space	n/a
182.757	0.0895	365514	keystroke_a	a	n/a
182.967	0.075	365934	keystroke_d	d	n/a
183.057	0.06	366114	keystroke_v	v	n/a
183.266	0.0455	366532	keystroke_o	o	n/a
183.326	0.091	366652	keystroke_c	c	n/a
183.5665	0.075	367133	keystroke_a	a	n/a
183.7765	0.075	367553	keystroke_c	c	n/a
183.8665	0.075	367733	keystroke_y	y	n/a
183.9865	0.12	367973	keystroke_Key.space	Key.space	n/a
185.0365	0.09	370073	keystroke_s	s	n/a
185.1565	0.075	370313	keystroke_h	h	n/a
185.2465	0.09	370493	keystroke_e	e	n/a
185.4115	0.09	370823	keystroke_d	d	n/a
185.5165	0.105	371033	keystroke_Key.space	Key.space	n/a
185.7115	0.0745	371423	keystroke_c	c	n/a
185.877	0.135	371754	keystroke_o	o	n/a
185.967	0.21	371934	keystroke_m	m	n/a
186.1165	0.1345	372233	keystroke_p	p	n/a
186.372	0.0745	372744	keystroke_Key.enter	Key.enter	n/a
186.4555	5.182	372911	prompt	n/a	bread algebra with sequences\n
187.256	0.0755	374512	keystroke_b	b	n/a
187.3915	0.0895	374783	keystroke_r	r	n/a
187.571	0.105	375142	keystroke_e	e	n/a
187.827	0.0745	375654	keystroke_a	a	n/a
188.022	0.0745	376044	keystroke_d	d	n/a
188.1115	0.075	376223	keystroke_Key.space	Key.space	n/a
188.2315	0.1055	376463	keystroke_a	a	n/a
188.337	0.0895	376674	keystroke_l	l	n/a
188.5765	0.09	377153	keystroke_g	g	n/a
188.681	0.09	377362	keystroke_e	e	n/a
188.802	0.104	377604	keystroke_b	b	n/a
188.8915	0.06	377783	keystroke_r	r	n/a
189.1005	0.076	378201	keystroke_a	a	n/a
189.2355	0.076	378471	keystroke_Key.space	Key.space	n/a
189.4915	0.075	378983	keystroke_w	w	n/a
189.6265	0.0895	379253	keystroke_i	i	n/a
189.8065	0.0745	379613	keystroke_t	t	n/a
189.9115	0.12	379823	keystroke_h	h	n/a
189.987	0.1195	379974	keystroke_Key.space	Key.space	n/a
190.1515	0.075	380303	keystroke_s	s	n/a
190.3315	0.075	380663	keystroke_e	e	n/a
190.5865	0.06	381173	keystroke_q	q	n/a
190.7215	0.0745	381443	keystroke_u	u	n/a
190.841	0.076	381682	keystroke_e	e	n/a
190.991	0.076	381982	keystroke_n	n	n/a
191.0815	0.075	382163	keystroke_c	c	n/a
191.2915	0.06	382583	keystroke_e	e	n/a
191.4565	0.09	382913	keystroke_s	s	n/a
191.5615	0.075	383123	keystroke_Key.enter	Key.enter	n/a
191.642	10.2705	383284	prompt	n/a	curtis adopted cottages geography\n
191.8915	0.015	383783	keystroke_h	h	n/a
192.4315	0.045	384863	keystroke_Key.backspace	Key.backspace	n/a
192.5815	0.045	385163	keystroke_Key.backspace	Key.backspace	n/a
192.6855	0.06	385371	keystroke_Key.backspace	Key.backspace	n/a
192.8365	0.075	385673	keystroke_r	r	n/a
193.017	0.09	386034	keystroke_c	c	n/a
193.092	0.09	386184	keystroke_u	u	n/a
193.271	0.061	386542	keystroke_r	r	n/a
193.736	0.0605	387472	keystroke_Key.backspace	Key.backspace	n/a
193.8715	0.06	387743	keystroke_Key.backspace	Key.backspace	n/a
194.006	0.06	388012	keystroke_Key.backspace	Key.backspace	n/a
194.1265	0.0745	388253	keystroke_Key.backspace	Key.backspace	n/a
194.231	0.0455	388462	keystroke_Key.backspace	Key.backspace	n/a
194.336	0.075	388672	keystroke_Key.backspace	Key.backspace	n/a
194.5305	0.0905	389061	keystroke_c	c	n/a
194.6965	0.105	389393	keystroke_u	u	n/a
194.7865	0.06	389573	keystroke_r	r	n/a
194.967	0.059	389934	keystroke_t	t	n/a
195.072	0.089	390144	keystroke_i	i	n/a
195.221	0.076	390442	keystroke_s	s	n/a
195.3265	0.105	390653	keystroke_Key.space	Key.space	n/a
195.5665	0.09	391133	keystroke_a	a	n/a
195.806	0.076	391612	keystroke_d	d	n/a
196.0315	0.089	392063	keystroke_o	o	n/a
196.1965	0.119	392393	keystroke_p	p	n/a
196.466	0.091	392932	keystroke_t	t	n/a
197.0665	0.0595	394133	keystroke_e	e	n/a
197.2615	0.06	394523	keystroke_d	d	n/a
197.426	0.09	394852	keystroke_Key.space	Key.space	n/a
198.086	0.09	396172	keystroke_c	c	n/a
198.2815	0.0595	396563	keystroke_o	o	n/a
198.806	0.091	397612	keystroke_t	t	n/a
199.3315	0.075	398663	keystroke_t	t	n/a
199.5415	0.0755	399083	keystroke_a	a	n/a
199.6175	0.074	399235	keystroke_g	g	n/a
199.7515	0.09	399503	keystroke_e	e	n/a
199.9315	0.105	399863	keystroke_s	s	n/a
200.006	0.091	400012	keystroke_Key.space	Key.space	n/a
200.2155	0.09	400431	keystroke_g	g	n/a
200.3205	0.09	400641	keystroke_e	e	n/a
200.4865	0.0745	400973	keystroke_o	o	n/a
200.7415	0.09	401483	keystroke_g	g	n/a
200.8465	0.09	401693	keystroke_r	r	n/a
201.0865	0.075	402173	keystroke_a	a	n/a
201.1615	0.06	402323	keystroke_p	p	n/a
201.401	0.0745	402802	keystroke_h	h	n/a
201.566	0.0755	403132	keystroke_y	y	n/a
201.8205	0.09	403641	keystroke_Key.enter	Key.enter	n/a
201.917	9.4605	403834	prompt	n/a	utilize published patients terminology\n
202.722	0.0745	405444	keystroke_u	u	n/a
202.856	0.075	405712	keystroke_t	t	n/a
203.0655	0.075	406131	keystroke_l	l	n/a
203.2455	0.075	406491	keystroke_i	i	n/a
203.4705	0.0615	406941	keystroke_z	z	n/a
203.5615	0.059	407123	keystroke_i	i	n/a
203.7555	0.06	407511	keystroke_e	e	n/a
204.1315	0.075	408263	keystroke_Key.space	Key.space	n/a
204.4755	0.105	408951	keystroke_p	p	n/a
204.732	0.0745	409464	keystroke_u	u	n/a
204.867	0.074	409734	keystroke_b	b	n/a
204.9715	0.0745	409943	keystroke_l	l	n/a
205.152	0.0745	410304	keystroke_i	i	n/a
205.2715	0.105	410543	keystroke_s	s	n/a
205.3915	0.075	410783	keystroke_h	h	n/a
205.5265	0.075	411053	keystroke_e	e	n/a
205.707	0.1045	411414	keystroke_d	d	n/a
206.261	0.105	412522	keystroke_Key.space	Key.space	n/a
206.592	0.09	413184	keystroke_p	p	n/a
206.696	0.1055	413392	keystroke_a	a	n/a
206.966	0.075	413932	keystroke_t	t	n/a
207.056	0.075	414112	keystroke_i	i	n/a
207.191	0.09	414382	keystroke_e	e	n/a
207.3115	0.09	414623	keystroke_n	n	n/a
207.4315	0.0595	414863	keystroke_t	t	n/a
207.671	0.0755	415342	keystroke_s	s	n/a
207.8215	0.0745	415643	keystroke_Key.space	Key.space	n/a
208.0915	0.06	416183	keystroke_t	t	n/a
208.2715	0.0745	416543	keystroke_e	e	n/a
208.4815	0.015	416963	keystroke_m	m	n/a
208.946	0.1055	417892	keystroke_Key.backspace	Key.backspace	n/a
209.5465	0.06	419093	keystroke_r	r	n/a
209.696	0.0895	419392	keystroke_m	m	n/a
209.9215	0.1045	419843	keystroke_i	i	n/a
210.0415	0.1205	420083	keystroke_n	n	n/a
210.387	0.075	420774	keystroke_o	o	n/a
210.567	0.059	421134	keystroke_l	l	n/a
210.686	0.06	421372	keystroke_o	o	n/a
210.806	0.075	421612	keystroke_g	g	n/a
210.956	0.075	421912	keystroke_y	y	n/a
211.301	0.075	422602	keystroke_Key.enter	Key.enter	n/a
211.3815	10.001	422763	prompt	n/a	remain laid develop saying\n
212.1115	0.0745	424223	keystroke_r	r	n/a
212.2915	0.06	424583	keystroke_e	e	n/a
212.366	0.0755	424732	keystroke_m	m	n/a
212.531	0.0605	425062	keystroke_a	a	n/a
212.621	0.135	425242	keystroke_i	i	n/a
212.6965	0.1345	425393	keystroke_n	n	n/a
212.936	0.0595	425872	keystroke_Key.space	Key.space	n/a
213.102	0.0745	426204	keystroke_l	l	n/a
213.2065	0.105	426413	keystroke_a	a	n/a
213.3865	0.0755	426773	keystroke_i	i	n/a
213.5065	0.045	427013	keystroke_d	d	n/a
213.5965	0.105	427193	keystroke_Key.space	Key.space	n/a
213.717	0.0895	427434	keystroke_d	d	n/a
213.9105	0.075	427821	keystroke_e	e	n/a
214.0155	0.091	428031	keystroke_v	v	n/a
214.2865	0.074	428573	keystroke_l	l	n/a
214.4665	0.075	428933	keystroke_o	o	n/a
214.6765	0.045	429353	keystroke_p	p	n/a
215.2455	0.06	430491	keystroke_Key.space	Key.space	n/a
215.3815	0.1045	430763	keystroke_s	s	n/a
215.576	0.09	431152	keystroke_a	a	n/a
215.726	0.09	431452	keystroke_y	y	n/a
215.966	0.1205	431932	keystroke_i	i	n/a
216.026	0.12	432052	keystroke_n	n	n/a
218.036	0.0455	436072	keystroke_Key.backspace	Key.backspace	n/a
218.1705	0.045	436341	keystroke_Key.backspace	Key.backspace	n/a
218.2905	0.045	436581	keystroke_Key.backspace	Key.backspace	n/a
218.3805	0.046	436761	keystroke_Key.backspace	Key.backspace	n/a
218.4865	0.06	436973	keystroke_Key.backspace	Key.backspace	n/a
218.5755	0.136	437151	keystroke_Key.backspace	Key.backspace	n/a
218.7715	0.045	437543	keystroke_Key.backspace	Key.backspace	n/a
218.8315	0.075	437663	keystroke_Key.backspace	Key.backspace	n/a
218.9655	0.045	437931	keystroke_Key.backspace	Key.backspace	n/a
219.056	0.015	438112	keystroke_Key.backspace	Key.backspace	n/a
219.7315	0.0745	439463	keystroke_v	v	n/a
219.866	0.045	439732	keystroke_e	e	n/a
219.9865	0.0895	439973	keystroke_l	l	n/a
220.1815	0.0445	440363	keystroke_o	o	n/a
220.331	0.06	440662	keystroke_p	p	n/a
220.5105	0.0755	441021	keystroke_Key.space	Key.space	n/a
220.541	0.075	441082	keystroke_s	s	n/a
220.736	0.0755	441472	keystroke_a	a	n/a
220.7955	0.0755	441591	keystroke_y	y	n/a
220.976	0.135	441952	keystroke_i	i	n/a
221.051	0.12	442102	keystroke_n	n	n/a
221.1265	0.0895	442253	keystroke_g	g	n/a
221.291	0.09	442582	keystroke_Key.enter	Key.enter	n/a
221.4095	4.428	442819	prompt	n/a	load burner sing ignore\n
222.071	0.0595	444142	keystroke_l	l	n/a
222.266	0.0895	444532	keystroke_o	o	n/a
222.3705	0.0755	444741	keystroke_a	a	n/a
222.581	0.0745	445162	keystroke_d	d	n/a
222.716	0.015	445432	keystroke_Key.space	Key.space	n/a
222.8365	0.074	445673	keystroke_b	b	n/a
223.031	0.0905	446062	keystroke_u	u	n/a
223.226	0.105	446452	keystroke_n	n	n/a
223.661	0.06	447322	keystroke_Key.backspace	Key.backspace	n/a
223.8565	0.0595	447713	keystroke_r	r	n/a
223.976	0.06	447952	keystroke_n	n	n/a
224.081	0.075	448162	keystroke_e	e	n/a
224.2615	0.0895	448523	keystroke_r	r	n/a
224.381	0.075	448762	keystroke_Key.space	Key.space	n/a
224.471	0.0905	448942	keystroke_s	s	n/a
224.5905	0.12	449181	keystroke_i	i	n/a
224.666	0.09	449332	keystroke_n	n	n/a
224.7405	0.06	449481	keystroke_g	g	n/a
224.831	0.075	449662	keystroke_Key.space	Key.space	n/a
225.0115	0.09	450023	keystroke_i	i	n/a
225.1305	0.06	450261	keystroke_g	g	n/a
225.2205	0.165	450441	keystroke_n	n	n/a
225.356	0.12	450712	keystroke_o	o	n/a
225.4455	0.091	450891	keystroke_r	r	n/a
225.6405	0.0755	451281	keystroke_e	e	n/a
225.7615	0.074	451523	keystroke_Key.enter	Key.enter	n/a
225.842	6.1905	451684	prompt	n/a	perspectives unlike yellow judges\n
226.6165	0.089	453233	keystroke_p	p	n/a
226.7655	0.09	453531	keystroke_r	r	n/a
227.081	0.06	454162	keystroke_Key.backspace	Key.backspace	n/a
227.231	0.0895	454462	keystroke_e	e	n/a
227.411	0.09	454822	keystroke_r	r	n/a
227.576	0.105	455152	keystroke_s	s	n/a
227.726	0.06	455452	keystroke_p	p	n/a
227.816	0.06	455632	keystroke_e	e	n/a
227.981	0.09	455962	keystroke_c	c	n/a
228.2055	0.0455	456411	keystroke_t	t	n/a
228.2805	0.075	456561	keystroke_i	i	n/a
228.506	0.0895	457012	keystroke_v	v	n/a
228.611	0.06	457222	keystroke_e	e	n/a
228.731	0.1045	457462	keystroke_Key.space	Key.space	n/a
229.0765	0.0895	458153	keystroke_u	u	n/a
229.1955	0.0605	458391	keystroke_n	n	n/a
229.3615	0.074	458723	keystroke_l	l	n/a
229.5405	0.075	459081	keystroke_i	i	n/a
229.6915	0.0895	459383	keystroke_k	k	n/a
229.796	0.0745	459592	keystroke_e	e	n/a
229.8555	0.076	459711	keystroke_Key.space	Key.space	n/a
230.1715	0.074	460343	keystroke_y	y	n/a
230.3505	0.076	460701	keystroke_e	e	n/a
230.4415	0.045	460883	keystroke_l	l	n/a
230.5915	0.06	461183	keystroke_l	l	n/a
230.7565	0.0745	461513	keystroke_o	o	n/a
230.9215	0.045	461843	keystroke_w	w	n/a
230.9805	0.091	461961	keystroke_Key.space	Key.space	n/a
231.1765	0.075	462353	keystroke_j	j	n/a
231.3705	0.0605	462741	keystroke_u	u	n/a
231.4465	0.089	462893	keystroke_d	d	n/a
231.5665	0.105	463133	keystroke_g	g	n/a
231.6565	0.074	463313	keystroke_e	e	n/a
231.8205	0.09	463641	keystroke_s	s	n/a
231.9555	0.0755	463911	keystroke_Key.enter	Key.enter	n/a
232.04	5.0025	464080	prompt	n/a	introduction junk sheep mailed\n
232.8105	0.0905	465621	keystroke_i	i	n/a
232.871	0.1205	465742	keystroke_n	n	n/a
233.036	0.075	466072	keystroke_t	t	n/a
233.2005	0.0605	466401	keystroke_r	r	n/a
233.2755	0.0755	466551	keystroke_o	o	n/a
233.3805	0.076	466761	keystroke_d	d	n/a
233.5005	0.076	467001	keystroke_u	u	n/a
233.6065	0.0895	467213	keystroke_c	c	n/a
233.831	0.045	467662	keystroke_t	t	n/a
233.906	0.0905	467812	keystroke_i	i	n/a
234.071	0.12	468142	keystroke_o	o	n/a
234.161	0.06	468322	keystroke_n	n	n/a
234.296	0.09	468592	keystroke_Key.space	Key.space	n/a
234.476	0.075	468952	keystroke_j	j	n/a
234.626	0.12	469252	keystroke_u	u	n/a
234.731	0.1505	469462	keystroke_n	n	n/a
234.836	0.12	469672	keystroke_k	k	n/a
235.001	0.105	470002	keystroke_Key.space	Key.space	n/a
235.121	0.09	470242	keystroke_s	s	n/a
235.226	0.076	470452	keystroke_h	h	n/a
235.331	0.06	470662	keystroke_e	e	n/a
235.4965	0.09	470993	keystroke_e	e	n/a
235.6315	0.06	471263	keystroke_p	p	n/a
235.7965	0.0745	471593	keystroke_Key.space	Key.space	n/a
235.947	0.089	471894	keystroke_m	m	n/a
236.246	0.09	472492	keystroke_a	a	n/a
236.426	0.0745	472852	keystroke_i	i	n/a
236.6065	0.074	473213	keystroke_l	l	n/a
236.6955	0.076	473391	keystroke_e	e	n/a
236.861	0.06	473722	keystroke_d	d	n/a
236.9505	0.0905	473901	keystroke_Key.enter	Key.enter	n/a
237.046	4.123	474092	prompt	n/a	personals even center newly\n
237.641	0.075	475282	keystroke_p	p	n/a
237.746	0.0755	475492	keystroke_e	e	n/a
237.9115	0.0595	475823	keystroke_r	r	n/a
238.09	0.0765	476180	keystroke_s	s	n/a
238.1665	0.134	476333	keystroke_o	o	n/a
238.2705	0.075	476541	keystroke_n	n	n/a
238.331	0.0445	476662	keystroke_a	a	n/a
238.4505	0.105	476901	keystroke_l	l	n/a
238.5105	0.09	477021	keystroke_s	s	n/a
238.6155	0.106	477231	keystroke_Key.space	Key.space	n/a
238.7365	0.09	477473	keystroke_e	e	n/a
238.8555	0.09	477711	keystroke_v	v	n/a
238.9615	0.09	477923	keystroke_e	e	n/a
239.111	0.105	478222	keystroke_n	n	n/a
239.201	0.09	478402	keystroke_Key.space	Key.space	n/a
239.276	0.09	478552	keystroke_c	c	n/a
239.456	0.06	478912	keystroke_e	e	n/a
239.5755	0.075	479151	keystroke_n	n	n/a
239.786	0.06	479572	keystroke_t	t	n/a
239.8755	0.1055	479751	keystroke_e	e	n/a
240.071	0.06	480142	keystroke_r	r	n/a
240.146	0.09	480292	keystroke_Key.space	Key.space	n/a
240.326	0.0605	480652	keystroke_n	n	n/a
240.551	0.015	481102	keystroke_e	e	n/a
240.641	0.0745	481282	keystroke_w	w	n/a
240.7455	0.09	481491	keystroke_l	l	n/a
240.9105	0.0605	481821	keystroke_y	y	n/a
241.151	0.014	482302	keystroke_Key.enter	Key.enter	n/a
241.1725	17.0945	482345	prompt	n/a	vbulletin pensions guru dist\n
242.141	0.059	484282	keystroke_b	b	n/a
242.411	0.06	484822	keystroke_Key.backspace	Key.backspace	n/a
242.621	0.075	485242	keystroke_v	v	n/a
242.8005	0.076	485601	keystroke_b	b	n/a
242.9355	0.076	485871	keystroke_u	u	n/a
243.1305	0.061	486261	keystroke_l	l	n/a
243.2505	0.0755	486501	keystroke_l	l	n/a
243.356	0.105	486712	keystroke_e	e	n/a
243.5815	0.06	487163	keystroke_t	t	n/a
243.6715	0.106	487343	keystroke_i	i	n/a
243.7465	0.075	487493	keystroke_n	n	n/a
243.9265	0.089	487853	keystroke_Key.space	Key.space	n/a
244.2265	0.06	488453	keystroke_p	p	n/a
244.8715	0.06	489743	keystroke_Key.backspace	Key.backspace	n/a
245.0505	0.045	490101	keystroke_Key.backspace	Key.backspace	n/a
246.356	0.075	492712	keystroke_Key.space	Key.space	n/a
247.2415	0.059	494483	keystroke_p	p	n/a
247.3455	0.091	494691	keystroke_e	e	n/a
247.5705	0.045	495141	keystroke_s	s	n/a
247.706	0.015	495412	keystroke_n	n	n/a
247.916	0.06	495832	keystroke_Key.backspace	Key.backspace	n/a
248.066	0.045	496132	keystroke_Key.backspace	Key.backspace	n/a
248.4415	0.0745	496883	keystroke_n	n	n/a
248.651	0.06	497302	keystroke_s	s	n/a
248.846	0.045	497692	keystroke_u	u	n/a
249.0255	0.1355	498051	keystroke_o	o	n/a
249.1155	0.106	498231	keystroke_n	n	n/a
249.2065	0.075	498413	keystroke_s	s	n/a
249.3115	0.104	498623	keystroke_Key.space	Key.space	n/a
249.7605	0.06	499521	keystroke_g	g	n/a
249.9415	0.0745	499883	keystroke_u	u	n/a
250.061	0.06	500122	keystroke_r	r	n/a
250.151	0.09	500302	keystroke_u	u	n/a
250.346	0.075	500692	keystroke_Key.space	Key.space	n/a
250.901	0.0745	501802	keystroke_d	d	n/a
250.961	0.0745	501922	keystroke_i	i	n/a
251.081	0.09	502162	keystroke_s	s	n/a
251.351	0.0455	502702	keystroke_t	t	n/a
251.876	0.105	503752	keystroke_Key.backspace	Key.backspace	n/a
252.086	0.045	504172	keystroke_Key.backspace	Key.backspace	n/a
252.221	0.09	504442	keystroke_Key.backspace	Key.backspace	n/a
253.226	0.0755	506452	keystroke_Key.backspace	Key.backspace	n/a
253.466	0.0155	506932	keystroke_Key.backspace	Key.backspace	n/a
253.556	0.09	507112	keystroke_Key.backspace	Key.backspace	n/a
253.781	0.0895	507562	keystroke_Key.backspace	Key.backspace	n/a
253.9755	0.09	507951	keystroke_Key.backspace	Key.backspace	n/a
254.186	0.075	508372	keystroke_Key.backspace	Key.backspace	n/a
254.381	0.045	508762	keystroke_Key.backspace	Key.backspace	n/a
254.531	0.076	509062	keystroke_Key.backspace	Key.backspace	n/a
254.681	0.075	509362	keystroke_Key.backspace	Key.backspace	n/a
254.831	0.0745	509662	keystroke_Key.backspace	Key.backspace	n/a
255.205	0.0755	510410	keystroke_Key.backspace	Key.backspace	n/a
255.8365	0.059	511673	keystroke_i	i	n/a
256.016	0.135	512032	keystroke_o	o	n/a
256.106	0.1045	512212	keystroke_n	n	n/a
256.195	0.1355	512390	keystroke_s	s	n/a
256.345	0.0755	512690	keystroke_Key.space	Key.space	n/a
256.9155	0.0905	513831	keystroke_g	g	n/a
257.0215	0.029	514043	keystroke_u	u	n/a
257.095	0.046	514190	keystroke_r	r	n/a
257.17	0.09	514340	keystroke_u	u	n/a
257.321	0.1045	514642	keystroke_Key.space	Key.space	n/a
257.4115	0.074	514823	keystroke_d	d	n/a
257.5005	0.106	515001	keystroke_i	i	n/a
257.6665	0.104	515333	keystroke_s	s	n/a
258.026	0.0895	516052	keystroke_t	t	n/a
258.2055	0.06	516411	keystroke_Key.enter	Key.enter	n/a
258.2715	7.7055	516543	prompt	n/a	religion blacks county vinyl\n
258.956	0.089	517912	keystroke_r	r	n/a
259.105	0.1055	518210	keystroke_e	e	n/a
259.1955	0.075	518391	keystroke_l	l	n/a
259.3765	0.059	518753	keystroke_i	i	n/a
259.4205	0.075	518841	keystroke_g	g	n/a
259.5405	0.09	519081	keystroke_i	i	n/a
259.8105	0.045	519621	keystroke_o	o	n/a
259.826	0.09	519652	keystroke_n	n	n/a
259.99	0.1055	519980	keystroke_Key.space	Key.space	n/a
260.2755	0.075	520551	keystroke_b	b	n/a
260.3655	0.075	520731	keystroke_l	l	n/a
260.6205	0.0155	521241	keystroke_a	a	n/a
260.7705	0.0895	521541	keystroke_c	c	n/a
260.875	0.061	521750	keystroke_k	k	n/a
260.9805	0.12	521961	keystroke_Key.space	Key.space	n/a
261.2655	0.0755	522531	keystroke_c	c	n/a
261.37	0.0755	522740	keystroke_o	o	n/a
261.581	0.135	523162	keystroke_u	u	n/a
261.655	0.121	523310	keystroke_n	n	n/a
261.761	0.0595	523522	keystroke_t	t	n/a
261.955	0.061	523910	keystroke_y	y	n/a
262.106	0.12	524212	keystroke_Key.space	Key.space	n/a
262.7055	0.0755	525411	keystroke_v	v	n/a
262.901	0.0745	525802	keystroke_y	y	n/a
263.096	0.134	526192	keystroke_n	n	n/a
263.95	0.06	527900	keystroke_Key.backspace	Key.backspace	n/a
264.0855	0.09	528171	keystroke_Key.backspace	Key.backspace	n/a
264.686	0.0295	529372	keystroke_i	i	n/a
264.8055	0.091	529611	keystroke_n	n	n/a
265.0015	0.06	530003	keystroke_y	y	n/a
265.0915	0.074	530183	keystroke_l	l	n/a
265.9455	0.03	531891	keystroke_Key.enter	Key.enter	n/a
265.9835	5.9335	531967	prompt	n/a	kids anticipated vice ministry\n
266.8755	0.06	533751	keystroke_k	k	n/a
267.0405	0.075	534081	keystroke_i	i	n/a
267.0855	0.09	534171	keystroke_d	d	n/a
267.2505	0.09	534501	keystroke_s	s	n/a
267.3405	0.075	534681	keystroke_Key.space	Key.space	n/a
267.4605	0.0895	534921	keystroke_a	a	n/a
267.535	0.105	535070	keystroke_n	n	n/a
267.73	0.0755	535460	keystroke_t	t	n/a
267.8665	0.09	535733	keystroke_i	i	n/a
267.971	0.0745	535942	keystroke_c	c	n/a
268.061	0.091	536122	keystroke_i	i	n/a
268.2705	0.0755	536541	keystroke_p	p	n/a
268.4065	0.104	536813	keystroke_a	a	n/a
268.5855	0.0605	537171	keystroke_t	t	n/a
268.6755	0.075	537351	keystroke_e	e	n/a
268.8405	0.1055	537681	keystroke_d	d	n/a
268.9305	0.09	537861	keystroke_Key.space	Key.space	n/a
269.201	0.0445	538402	keystroke_b	b	n/a
269.3655	0.06	538731	keystroke_i	i	n/a
269.6505	0.046	539301	keystroke_Key.backspace	Key.backspace	n/a
269.7855	0.075	539571	keystroke_Key.backspace	Key.backspace	n/a
269.8905	0.09	539781	keystroke_v	v	n/a
270.041	0.0745	540082	keystroke_i	i	n/a
270.131	0.0895	540262	keystroke_c	c	n/a
270.3105	0.075	540621	keystroke_e	e	n/a
270.4305	0.075	540861	keystroke_Key.space	Key.space	n/a
270.5505	0.106	541101	keystroke_m	m	n/a
270.7605	0.105	541521	keystroke_i	i	n/a
270.8355	0.18	541671	keystroke_n	n	n/a
270.9855	0.105	541971	keystroke_i	i	n/a
271.1055	0.06	542211	keystroke_s	s	n/a
271.3155	0.06	542631	keystroke_t	t	n/a
271.4505	0.0755	542901	keystroke_r	r	n/a
271.526	0.074	543052	keystroke_y	y	n/a
271.8555	0.06	543711	keystroke_Key.enter	Key.enter	n/a
271.921	8.0655	543842	prompt	n/a	failure i'd lopez unwrap\n
272.681	0.0745	545362	keystroke_f	f	n/a
272.891	0.0745	545782	keystroke_a	a	n/a
272.951	0.06	545902	keystroke_i	i	n/a
273.116	0.075	546232	keystroke_l	l	n/a
273.356	0.075	546712	keystroke_u	u	n/a
273.551	0.075	547102	keystroke_r	r	n/a
273.701	0.09	547402	keystroke_e	e	n/a
273.82	0.106	547640	keystroke_Key.space	Key.space	n/a
274.2565	0.075	548513	keystroke_i	i	n/a
274.721	0.0445	549442	keystroke_'	'	n/a
274.87	0.06	549740	keystroke_d	d	n/a
274.961	0.075	549922	keystroke_Key.space	Key.space	n/a
275.1715	0.0595	550343	keystroke_l	l	n/a
275.4255	0.045	550851	keystroke_o	o	n/a
276.3115	0.0735	552623	keystroke_o	o	n/a
276.491	0.089	552982	keystroke_p	p	n/a
276.626	0.091	553252	keystroke_e	e	n/a
276.97	0.045	553940	keystroke_Key.backspace	Key.backspace	n/a
277.12	0.045	554240	keystroke_Key.backspace	Key.backspace	n/a
277.2405	0.075	554481	keystroke_Key.backspace	Key.backspace	n/a
277.5105	0.045	555021	keystroke_p	p	n/a
277.6155	0.091	555231	keystroke_e	e	n/a
277.8265	0.089	555653	keystroke_z	z	n/a
277.9755	0.075	555951	keystroke_Key.space	Key.space	n/a
278.171	0.1345	556342	keystroke_u	u	n/a
278.2605	0.105	556521	keystroke_n	n	n/a
278.3805	0.091	556761	keystroke_w	w	n/a
278.5765	0.074	557153	keystroke_r	r	n/a
278.7855	0.06	557571	keystroke_a	a	n/a
278.9055	0.045	557811	keystroke_o	o	n/a
279.505	0.06	559010	keystroke_Key.backspace	Key.backspace	n/a
279.7755	0.061	559551	keystroke_p	p	n/a
279.9555	0.03	559911	keystroke_Key.enter	Key.enter	n/a
279.9905	7.797	559981	prompt	n/a	chapters mattress houses writings\n
280.7365	0.0745	561473	keystroke_c	c	n/a
280.8415	0.0735	561683	keystroke_h	h	n/a
280.975	0.09	561950	keystroke_a	a	n/a
281.095	0.06	562190	keystroke_p	p	n/a
281.38	0.061	562760	keystroke_t	t	n/a
281.455	0.0755	562910	keystroke_e	e	n/a
281.6055	0.075	563211	keystroke_r	r	n/a
281.785	0.0755	563570	keystroke_s	s	n/a
281.83	0.09	563660	keystroke_Key.space	Key.space	n/a
281.98	0.091	563960	keystroke_m	m	n/a
282.086	0.075	564172	keystroke_a	a	n/a
282.2955	0.0745	564591	keystroke_t	t	n/a
282.46	0.075	564920	keystroke_r	r	n/a
282.61	0.091	565220	keystroke_e	e	n/a
282.8505	0.0595	565701	keystroke_s	s	n/a
283.032	0.059	566064	keystroke_s	s	n/a
283.4355	0.06	566871	keystroke_Key.backspace	Key.backspace	n/a
283.5855	0.0595	567171	keystroke_Key.backspace	Key.backspace	n/a
283.735	0.06	567470	keystroke_Key.backspace	Key.backspace	n/a
283.87	0.0755	567740	keystroke_Key.backspace	Key.backspace	n/a
284.4115	0.059	568823	keystroke_t	t	n/a
284.5465	0.105	569093	keystroke_r	r	n/a
284.7405	0.09	569481	keystroke_e	e	n/a
284.9355	0.0445	569871	keystroke_s	s	n/a
285.086	0.074	570172	keystroke_s	s	n/a
285.175	0.1055	570350	keystroke_Key.space	Key.space	n/a
285.4155	0.0745	570831	keystroke_h	h	n/a
285.626	0.06	571252	keystroke_o	o	n/a
285.791	0.0745	571582	keystroke_u	u	n/a
285.851	0.0895	571702	keystroke_s	s	n/a
286.0305	0.0905	572061	keystroke_e	e	n/a
286.1965	0.089	572393	keystroke_s	s	n/a
286.271	0.105	572542	keystroke_Key.space	Key.space	n/a
286.391	0.0745	572782	keystroke_w	w	n/a
286.586	0.0895	573172	keystroke_r	r	n/a
286.6755	0.06	573351	keystroke_i	i	n/a
286.781	0.09	573562	keystroke_t	t	n/a
286.8855	0.12	573771	keystroke_i	i	n/a
286.9605	0.12	573921	keystroke_n	n	n/a
287.021	0.0895	574042	keystroke_g	g	n/a
287.291	0.09	574582	keystroke_s	s	n/a
287.711	0.075	575422	keystroke_Key.enter	Key.enter	n/a
287.798	6.3485	575596	prompt	n/a	aqua editorial joins http\n
288.4155	0.106	576831	keystroke_a	a	n/a
288.626	0.045	577252	keystroke_q	q	n/a
288.791	0.075	577582	keystroke_u	u	n/a
288.911	0.0895	577822	keystroke_a	a	n/a
289.0605	0.09	578121	keystroke_Key.space	Key.space	n/a
289.5855	0.075	579171	keystroke_e	e	n/a
289.7355	0.12	579471	keystroke_d	d	n/a
289.8855	0.091	579771	keystroke_i	i	n/a
290.036	0.075	580072	keystroke_t	t	n/a
290.126	0.09	580252	keystroke_o	o	n/a
290.231	0.0895	580462	keystroke_r	r	n/a
290.336	0.0755	580672	keystroke_i	i	n/a
290.5015	0.0745	581003	keystroke_a	a	n/a
290.621	0.105	581242	keystroke_l	l	n/a
291.251	0.105	582502	keystroke_Key.space	Key.space	n/a
291.535	0.09	583070	keystroke_j	j	n/a
291.731	0.045	583462	keystroke_o	o	n/a
291.88	0.0905	583760	keystroke_i	i	n/a
291.911	0.1345	583822	keystroke_n	n	n/a
292.6605	0.0755	585321	keystroke_s	s	n/a
292.78	0.06	585560	keystroke_Key.space	Key.space	n/a
292.931	0.09	585862	keystroke_h	h	n/a
293.17	0.061	586340	keystroke_t	t	n/a
293.336	0.09	586672	keystroke_t	t	n/a
293.545	0.091	587090	keystroke_p	p	n/a
294.101	0.044	588202	keystroke_Key.enter	Key.enter	n/a
294.1505	7.6165	588301	prompt	n/a	charged roommate clients authority\n
294.9405	0.075	589881	keystroke_c	c	n/a
295.0455	0.075	590091	keystroke_h	h	n/a
295.1955	0.075	590391	keystroke_a	a	n/a
295.3005	0.0755	590601	keystroke_r	r	n/a
295.481	0.075	590962	keystroke_g	g	n/a
295.571	0.06	591142	keystroke_e	e	n/a
295.736	0.09	591472	keystroke_d	d	n/a
295.781	0.089	591562	keystroke_Key.space	Key.space	n/a
295.946	0.06	591892	keystroke_r	r	n/a
296.05	0.0605	592100	keystroke_o	o	n/a
296.455	0.061	592910	keystroke_o	o	n/a
296.681	0.0745	593362	keystroke_m	m	n/a
298.151	0.075	596302	keystroke_m	m	n/a
298.286	0.1045	596572	keystroke_a	a	n/a
298.451	0.075	596902	keystroke_t	t	n/a
298.5705	0.075	597141	keystroke_e	e	n/a
298.6905	0.075	597381	keystroke_Key.space	Key.space	n/a
298.8105	0.0905	597621	keystroke_c	c	n/a
298.8855	0.06	597771	keystroke_l	l	n/a
299.0805	0.06	598161	keystroke_i	i	n/a
299.201	0.09	598402	keystroke_e	e	n/a
299.3365	0.075	598673	keystroke_n	n	n/a
299.531	0.0745	599062	keystroke_t	t	n/a
299.756	0.0895	599512	keystroke_Key.space	Key.space	n/a
299.9655	0.075	599931	keystroke_a	a	n/a
300.3555	0.06	600711	keystroke_u	u	n/a
300.581	0.0905	601162	keystroke_t	t	n/a
300.6265	0.0745	601253	keystroke_h	h	n/a
300.836	0.075	601672	keystroke_o	o	n/a
300.94	0.106	601880	keystroke_r	r	n/a
301.03	0.076	602060	keystroke_i	i	n/a
301.166	0.075	602332	keystroke_t	t	n/a
301.285	0.0765	602570	keystroke_y	y	n/a
301.7505	0.015	603501	keystroke_Key.enter	Key.enter	n/a
301.771	10.152	603542	prompt	n/a	entitled writings afraid terry\n
302.576	0.09	605152	keystroke_e	e	n/a
302.696	0.09	605392	keystroke_n	n	n/a
302.831	0.075	605662	keystroke_t	t	n/a
302.965	0.061	605930	keystroke_i	i	n/a
303.055	0.0765	606110	keystroke_t	t	n/a
304.0455	0.06	608091	keystroke_l	l	n/a
304.1355	0.075	608271	keystroke_e	e	n/a
304.3155	0.0755	608631	keystroke_d	d	n/a
304.406	0.1045	608812	keystroke_Key.space	Key.space	n/a
304.5565	0.075	609113	keystroke_w	w	n/a
304.7655	0.075	609531	keystroke_r	r	n/a
304.9005	0.0755	609801	keystroke_i	i	n/a
304.991	0.09	609982	keystroke_t	t	n/a
305.126	0.1355	610252	keystroke_i	i	n/a
305.246	0.03	610492	keystroke_n	n	n/a
305.262	0.044	610524	keystroke_g	g	n/a
305.576	0.045	611152	keystroke_Key.backspace	Key.backspace	n/a
305.696	0.075	611392	keystroke_Key.backspace	Key.backspace	n/a
306.4305	0.075	612861	keystroke_n	n	n/a
306.641	0.03	613282	keystroke_g	g	n/a
307.5255	0.0605	615051	keystroke_s	s	n/a
307.6455	0.06	615291	keystroke_Key.space	Key.space	n/a
308.17	0.091	616340	keystroke_a	a	n/a
308.486	0.075	616972	keystroke_f	f	n/a
308.636	0.0445	617272	keystroke_r	r	n/a
308.8155	0.076	617631	keystroke_a	a	n/a
308.9065	0.074	617813	keystroke_i	i	n/a
309.026	0.0895	618052	keystroke_d	d	n/a
309.116	0.0745	618232	keystroke_Key.space	Key.space	n/a
309.2355	0.0455	618471	keystroke_e	e	n/a
309.5355	0.06	619071	keystroke_Key.backspace	Key.backspace	n/a
309.6555	0.075	619311	keystroke_Key.backspace	Key.backspace	n/a
309.9855	0.06	619971	keystroke_t	t	n/a
310.1655	0.0755	620331	keystroke_e	e	n/a
310.571	0.03	621142	keystroke_Key.backspace	Key.backspace	n/a
310.691	0.1045	621382	keystroke_Key.backspace	Key.backspace	n/a
310.916	0.105	621832	keystroke_Key.space	Key.space	n/a
311.1715	0.0595	622343	keystroke_t	t	n/a
311.276	0.075	622552	keystroke_e	e	n/a
311.441	0.06	622882	keystroke_r	r	n/a
311.591	0.075	623182	keystroke_r	r	n/a
311.636	0.075	623272	keystroke_y	y	n/a
311.8455	0.075	623691	keystroke_Key.enter	Key.enter	n/a
311.9355	9.2115	623871	prompt	n/a	baltimore briefing treasury eliminate\n
312.941	0.0755	625882	keystroke_b	b	n/a
313.0615	0.0905	626123	keystroke_a	a	n/a
313.196	0.076	626392	keystroke_l	l	n/a
313.346	0.0605	626692	keystroke_t	t	n/a
313.451	0.06	626902	keystroke_i	i	n/a
313.556	0.135	627112	keystroke_m	m	n/a
313.661	0.09	627322	keystroke_o	o	n/a
313.766	0.06	627532	keystroke_r	r	n/a
313.901	0.09	627802	keystroke_e	e	n/a
314.006	0.09	628012	keystroke_Key.space	Key.space	n/a
314.306	0.09	628612	keystroke_b	b	n/a
314.441	0.075	628882	keystroke_r	r	n/a
314.636	0.0755	629272	keystroke_i	i	n/a
314.726	0.1045	629452	keystroke_e	e	n/a
314.966	0.076	629932	keystroke_f	f	n/a
315.116	0.12	630232	keystroke_i	i	n/a
315.176	0.135	630352	keystroke_n	n	n/a
315.237	0.089	630474	keystroke_g	g	n/a
315.401	0.134	630802	keystroke_Key.space	Key.space	n/a
317.0055	0.0755	634011	keystroke_t	t	n/a
317.141	0.09	634282	keystroke_r	r	n/a
317.3055	0.0905	634611	keystroke_e	e	n/a
317.5015	0.09	635003	keystroke_a	a	n/a
317.711	0.0595	635422	keystroke_s	s	n/a
318.0715	0.075	636143	keystroke_u	u	n/a
318.2505	0.06	636501	keystroke_r	r	n/a
318.4015	0.059	636803	keystroke_y	y	n/a
318.521	0.105	637042	keystroke_Key.space	Key.space	n/a
318.7155	0.0605	637431	keystroke_e	e	n/a
318.7915	0.074	637583	keystroke_l	l	n/a
318.9855	0.061	637971	keystroke_i	i	n/a
319.1955	0.0755	638391	keystroke_m	m	n/a
319.3905	0.1355	638781	keystroke_i	i	n/a
319.4815	0.12	638963	keystroke_n	n	n/a
319.6755	0.09	639351	keystroke_a	a	n/a
319.781	0.075	639562	keystroke_t	t	n/a
319.931	0.075	639862	keystroke_e	e	n/a
320.111	0.09	640222	keystroke_s	s	n/a
320.875	0.075	641750	keystroke_Key.backspace	Key.backspace	n/a
321.0855	0.06	642171	keystroke_Key.enter	Key.enter	n/a
321.151	9.568	642302	prompt	n/a	museums retired annual bridges\n
321.836	0.0605	643672	keystroke_m	m	n/a
322.016	0.0755	644032	keystroke_u	u	n/a
322.106	0.09	644212	keystroke_s	s	n/a
322.271	0.0745	644542	keystroke_e	e	n/a
322.331	0.0745	644662	keystroke_u	u	n/a
322.5255	0.09	645051	keystroke_m	m	n/a
322.661	0.06	645322	keystroke_s	s	n/a
322.781	0.09	645562	keystroke_Key.space	Key.space	n/a
323.0055	0.0755	646011	keystroke_r	r	n/a
323.156	0.0745	646312	keystroke_e	e	n/a
323.3515	0.074	646703	keystroke_t	t	n/a
323.4405	0.076	646881	keystroke_i	i	n/a
323.5605	0.075	647121	keystroke_r	r	n/a
323.7255	0.0905	647451	keystroke_e	e	n/a
323.891	0.0905	647782	keystroke_d	d	n/a
323.9955	0.0755	647991	keystroke_Key.space	Key.space	n/a
324.131	0.075	648262	keystroke_a	a	n/a
324.505	0.0755	649010	keystroke_n	n	n/a
324.7305	0.0755	649461	keystroke_u	u	n/a
325.0005	0.061	650001	keystroke_a	a	n/a
325.136	0.105	650272	keystroke_l	l	n/a
325.301	0.1045	650602	keystroke_Key.space	Key.space	n/a
325.6315	0.105	651263	keystroke_b	b	n/a
325.7955	0.0605	651591	keystroke_r	r	n/a
326.1555	0.1205	652311	keystroke_i	i	n/a
326.3655	0.075	652731	keystroke_d	d	n/a
326.516	0.089	653032	keystroke_g	g	n/a
326.846	0.0455	653692	keystroke_Key.backspace	Key.backspace	n/a
326.9655	0.06	653931	keystroke_Key.backspace	Key.backspace	n/a
327.0855	0.06	654171	keystroke_Key.backspace	Key.backspace	n/a
327.1905	0.045	654381	keystroke_Key.backspace	Key.backspace	n/a
327.2805	0.045	654561	keystroke_Key.backspace	Key.backspace	n/a
327.3855	0.0605	654771	keystroke_Key.backspace	Key.backspace	n/a
327.4905	0.0455	654981	keystroke_Key.backspace	Key.backspace	n/a
327.5955	0.061	655191	keystroke_Key.backspace	Key.backspace	n/a
327.8055	0.045	655611	keystroke_Key.backspace	Key.backspace	n/a
328.3915	0.134	656783	keystroke_n	n	n/a
328.5105	0.045	657021	keystroke_b	b	n/a
328.6915	0.074	657383	keystroke_Key.backspace	Key.backspace	n/a
328.9605	0.075	657921	keystroke_n	n	n/a
329.096	0.0755	658192	keystroke_u	u	n/a
329.231	0.09	658462	keystroke_a	a	n/a
329.366	0.075	658732	keystroke_l	l	n/a
329.501	0.104	659002	keystroke_Key.space	Key.space	n/a
329.68	0.09	659360	keystroke_b	b	n/a
329.89	0.061	659780	keystroke_i	i	n/a
329.965	0.091	659930	keystroke_r	r	n/a
330.131	0.09	660262	keystroke_d	d	n/a
330.235	0.0615	660470	keystroke_g	g	n/a
330.341	0.075	660682	keystroke_e	e	n/a
330.506	0.09	661012	keystroke_s	s	n/a
330.656	0.059	661312	keystroke_Key.enter	Key.enter	n/a
330.723	6.1745	661446	prompt	n/a	freeze printed carpet donation\n
331.616	0.0595	663232	keystroke_f	f	n/a
331.7655	0.06	663531	keystroke_r	r	n/a
331.8705	0.06	663741	keystroke_e	e	n/a
332.036	0.0895	664072	keystroke_e	e	n/a
332.246	0.09	664492	keystroke_z	z	n/a
332.4415	0.0895	664883	keystroke_e	e	n/a
332.546	0.045	665092	keystroke_Key.space	Key.space	n/a
332.696	0.06	665392	keystroke_p	p	n/a
332.786	0.076	665572	keystroke_r	r	n/a
332.891	0.1345	665782	keystroke_i	i	n/a
332.9655	0.12	665931	keystroke_n	n	n/a
333.0405	0.075	666081	keystroke_t	t	n/a
333.2365	0.0895	666473	keystroke_e	e	n/a
333.416	0.0745	666832	keystroke_d	d	n/a
333.521	0.105	667042	keystroke_Key.space	Key.space	n/a
333.94	0.09	667880	keystroke_c	c	n/a
334.181	0.0755	668362	keystroke_a	a	n/a
334.406	0.044	668812	keystroke_r	r	n/a
334.511	0.075	669022	keystroke_p	p	n/a
334.631	0.06	669262	keystroke_e	e	n/a
334.811	0.0455	669622	keystroke_t	t	n/a
334.9305	0.061	669861	keystroke_Key.space	Key.space	n/a
335.2015	0.0735	670403	keystroke_d	d	n/a
335.9065	0.135	671813	keystroke_o	o	n/a
336.0115	0.104	672023	keystroke_n	n	n/a
336.101	0.0755	672202	keystroke_a	a	n/a
336.326	0.059	672652	keystroke_t	t	n/a
336.401	0.09	672802	keystroke_i	i	n/a
336.581	0.135	673162	keystroke_o	o	n/a
336.627	0.104	673254	keystroke_n	n	n/a
336.836	0.06	673672	keystroke_Key.enter	Key.enter	n/a
336.908	9.6055	673816	prompt	n/a	robertson frederick perform whose\n
337.6455	0.0605	675291	keystroke_r	r	n/a
337.707	0.0895	675414	keystroke_o	o	n/a
337.931	0.075	675862	keystroke_b	b	n/a
338.021	0.09	676042	keystroke_e	e	n/a
338.186	0.09	676372	keystroke_r	r	n/a
338.366	0.075	676732	keystroke_t	t	n/a
338.606	0.06	677212	keystroke_s	s	n/a
338.711	0.1355	677422	keystroke_o	o	n/a
338.801	0.1205	677602	keystroke_n	n	n/a
342.029	0.012	684058	keystroke_Key.space	Key.space	n/a
342.1615	0.0895	684323	keystroke_f	f	n/a
342.371	0.06	684742	keystroke_r	r	n/a
342.566	0.06	685132	keystroke_e	e	n/a
342.731	0.09	685462	keystroke_d	d	n/a
343.0455	0.1055	686091	keystroke_e	e	n/a
343.2865	0.075	686573	keystroke_r	r	n/a
343.4065	0.075	686813	keystroke_i	i	n/a
343.5265	0.09	687053	keystroke_c	c	n/a
343.6465	0.089	687293	keystroke_k	k	n/a
343.8405	0.0605	687681	keystroke_Key.space	Key.space	n/a
344.291	0.075	688582	keystroke_p	p	n/a
344.395	0.076	688790	keystroke_e	e	n/a
344.561	0.075	689122	keystroke_r	r	n/a
344.741	0.0905	689482	keystroke_f	f	n/a
344.8165	0.0895	689633	keystroke_o	o	n/a
344.951	0.06	689902	keystroke_r	r	n/a
345.041	0.1345	690082	keystroke_m	m	n/a
345.1455	0.1055	690291	keystroke_Key.space	Key.space	n/a
345.3105	0.075	690621	keystroke_w	w	n/a
345.4315	0.1045	690863	keystroke_h	h	n/a
345.6565	0.075	691313	keystroke_o	o	n/a
345.7615	0.089	691523	keystroke_s	s	n/a
345.956	0.06	691912	keystroke_e	e	n/a
346.481	0.0295	692962	keystroke_Key.enter	Key.enter	n/a
346.52	13.897	693040	prompt	n/a	amended reward strength edgar\n
347.216	0.0745	694432	keystroke_a	a	n/a
347.351	0.09	694702	keystroke_m	m	n/a
347.471	0.075	694942	keystroke_a	a	n/a
347.591	0.0745	695182	keystroke_n	n	n/a
347.7555	0.0605	695511	keystroke_d	d	n/a
348.071	0.0595	696142	keystroke_Key.backspace	Key.backspace	n/a
348.4765	0.059	696953	keystroke_Key.backspace	Key.backspace	n/a
348.7755	0.03	697551	keystroke_e	e	n/a
349.0005	0.045	698001	keystroke_Key.backspace	Key.backspace	n/a
349.121	0.09	698242	keystroke_Key.backspace	Key.backspace	n/a
349.301	0.06	698602	keystroke_e	e	n/a
349.4065	0.0895	698813	keystroke_n	n	n/a
349.5715	0.06	699143	keystroke_d	d	n/a
349.736	0.0445	699472	keystroke_e	e	n/a
349.9	0.076	699800	keystroke_d	d	n/a
349.961	0.0745	699922	keystroke_Key.space	Key.space	n/a
350.216	0.0755	700432	keystroke_r	r	n/a
350.3805	0.09	700761	keystroke_e	e	n/a
350.576	0.0745	701152	keystroke_w	w	n/a
350.7555	0.09	701511	keystroke_a	a	n/a
350.8615	0.105	701723	keystroke_r	r	n/a
350.951	0.06	701902	keystroke_d	d	n/a
351.206	0.045	702412	keystroke_Key.space	Key.space	n/a
351.58	0.0755	703160	keystroke_s	s	n/a
351.836	0.0605	703672	keystroke_r	r	n/a
351.9855	0.09	703971	keystroke_e	e	n/a
352.2105	0.091	704421	keystroke_n	n	n/a
352.4355	0.075	704871	keystroke_g	g	n/a
352.6155	0.0455	705231	keystroke_t	t	n/a
352.706	0.105	705412	keystroke_h	h	n/a
352.826	0.12	705652	keystroke_Key.space	Key.space	n/a
353.1865	0.0755	706373	keystroke_e	e	n/a
353.351	0.075	706702	keystroke_d	d	n/a
353.456	0.06	706912	keystroke_g	g	n/a
353.576	0.045	707152	keystroke_a	a	n/a
353.666	0.12	707332	keystroke_r	r	n/a
354.6405	0.165	709281	keystroke_Key.backspace	Key.backspace	n/a
354.971	0.045	709942	keystroke_Key.backspace	Key.backspace	n/a
355.1205	0.03	710241	keystroke_Key.backspace	Key.backspace	n/a
355.2255	0.06	710451	keystroke_Key.backspace	Key.backspace	n/a
355.361	0.0595	710722	keystroke_Key.backspace	Key.backspace	n/a
355.5115	0.03	711023	keystroke_Key.backspace	Key.backspace	n/a
355.6315	0.044	711263	keystroke_Key.backspace	Key.backspace	n/a
355.7515	0.044	711503	keystroke_Key.backspace	Key.backspace	n/a
355.8855	0.0155	711771	keystroke_Key.backspace	Key.backspace	n/a
355.961	0.03	711922	keystroke_Key.backspace	Key.backspace	n/a
356.0655	0.046	712131	keystroke_Key.backspace	Key.backspace	n/a
356.1855	0.0305	712371	keystroke_Key.backspace	Key.backspace	n/a
356.2755	0.06	712551	keystroke_Key.backspace	Key.backspace	n/a
356.5915	0.0445	713183	keystroke_Key.backspace	Key.backspace	n/a
357.296	0.075	714592	keystroke_Key.space	Key.space	n/a
357.4755	0.09	714951	keystroke_s	s	n/a
357.7755	0.091	715551	keystroke_t	t	n/a
357.9855	0.075	715971	keystroke_r	r	n/a
358.166	0.0745	716332	keystroke_e	e	n/a
358.301	0.0755	716602	keystroke_n	n	n/a
358.4215	0.075	716843	keystroke_g	g	n/a
358.6015	0.0295	717203	keystroke_t	t	n/a
358.6165	0.0745	717233	keystroke_h	h	n/a
358.7355	0.09	717471	keystroke_Key.space	Key.space	n/a
358.8555	0.09	717711	keystroke_e	e	n/a
359.4865	0.12	718973	keystroke_d	d	n/a
359.8155	0.0755	719631	keystroke_g	g	n/a
359.9665	0.0745	719933	keystroke_a	a	n/a
360.0705	0.0755	720141	keystroke_r	r	n/a
360.341	0.075	720682	keystroke_Key.enter	Key.enter	n/a
360.4205	8.802	720841	prompt	n/a	contents iceland lounge puerto\n
361.1505	0.06	722301	keystroke_c	c	n/a
361.2255	0.1055	722451	keystroke_o	o	n/a
361.286	0.1055	722572	keystroke_n	n	n/a
361.4065	0.06	722813	keystroke_t	t	n/a
361.5855	0.076	723171	keystroke_e	e	n/a
361.691	0.075	723382	keystroke_n	n	n/a
361.796	0.076	723592	keystroke_t	t	n/a
361.901	0.075	723802	keystroke_Key.space	Key.space	n/a
362.156	0.0895	724312	keystroke_i	i	n/a
362.2305	0.0905	724461	keystroke_c	c	n/a
362.4265	0.0595	724853	keystroke_e	e	n/a
362.5305	0.075	725061	keystroke_l	l	n/a
362.6805	0.0455	725361	keystroke_a	a	n/a
362.8455	0.06	725691	keystroke_n	n	n/a
362.996	0.0295	725992	keystroke_f	f	n/a
363.0855	0.0605	726171	keystroke_Key.space	Key.space	n/a
363.4905	0.045	726981	keystroke_Key.backspace	Key.backspace	n/a
363.6265	0.044	727253	keystroke_Key.backspace	Key.backspace	n/a
363.701	0.075	727402	keystroke_d	d	n/a
363.821	0.1045	727642	keystroke_Key.space	Key.space	n/a
364.0015	0.104	728003	keystroke_l	l	n/a
364.242	0.104	728484	keystroke_i	i	n/a
364.5105	0.075	729021	keystroke_u	u	n/a
364.556	0.105	729112	keystroke_n	n	n/a
364.781	0.0745	729562	keystroke_g	g	n/a
364.932	0.089	729864	keystroke_e	e	n/a
365.036	0.075	730072	keystroke_Key.space	Key.space	n/a
365.711	0.03	731422	keystroke_Key.backspace	Key.backspace	n/a
365.831	0.06	731662	keystroke_Key.backspace	Key.backspace	n/a
365.981	0.0455	731962	keystroke_Key.backspace	Key.backspace	n/a
366.086	0.06	732172	keystroke_Key.backspace	Key.backspace	n/a
366.191	0.045	732382	keystroke_Key.backspace	Key.backspace	n/a
366.2815	0.0595	732563	keystroke_Key.backspace	Key.backspace	n/a
366.896	0.0905	733792	keystroke_o	o	n/a
367.151	0.105	734302	keystroke_u	u	n/a
367.211	0.1505	734422	keystroke_n	n	n/a
367.376	0.075	734752	keystroke_g	g	n/a
367.571	0.06	735142	keystroke_e	e	n/a
367.586	0.0755	735172	keystroke_Key.space	Key.space	n/a
367.7665	0.0745	735533	keystroke_p	p	n/a
367.9765	0.074	735953	keystroke_u	u	n/a
368.0805	0.0915	736161	keystroke_e	e	n/a
368.2465	0.1045	736493	keystroke_r	r	n/a
368.4565	0.074	736913	keystroke_t	t	n/a
368.5465	0.0905	737093	keystroke_o	o	n/a
369.1605	0.06	738321	keystroke_Key.enter	Key.enter	n/a
369.2305	6.382	738461	prompt	n/a	norway degrees became myanmar\n
370.0615	0.0745	740123	keystroke_n	n	n/a
370.211	0.0755	740422	keystroke_o	o	n/a
370.3165	0.0745	740633	keystroke_r	r	n/a
370.526	0.06	741052	keystroke_w	w	n/a
370.706	0.076	741412	keystroke_a	a	n/a
370.766	0.0755	741532	keystroke_y	y	n/a
370.901	0.09	741802	keystroke_Key.space	Key.space	n/a
371.021	0.0755	742042	keystroke_d	d	n/a
371.1715	0.104	742343	keystroke_e	e	n/a
371.3225	0.0735	742645	keystroke_g	g	n/a
371.486	0.0905	742972	keystroke_r	r	n/a
371.6665	0.06	743333	keystroke_e	e	n/a
371.8615	0.12	743723	keystroke_e	e	n/a
372.1455	0.09	744291	keystroke_s	s	n/a
372.281	0.09	744562	keystroke_Key.space	Key.space	n/a
372.7465	0.045	745493	keystroke_b	b	n/a
372.8665	0.06	745733	keystroke_e	e	n/a
373.0455	0.06	746091	keystroke_c	c	n/a
373.2565	0.0595	746513	keystroke_a	a	n/a
373.376	0.09	746752	keystroke_m	m	n/a
373.511	0.06	747022	keystroke_e	e	n/a
373.6305	0.076	747261	keystroke_Key.space	Key.space	n/a
374.156	0.075	748312	keystroke_m	m	n/a
374.381	0.06	748762	keystroke_y	y	n/a
374.6965	0.0595	749393	keystroke_a	a	n/a
374.786	0.0755	749572	keystroke_n	n	n/a
374.9965	0.06	749993	keystroke_m	m	n/a
375.1165	0.105	750233	keystroke_a	a	n/a
375.3855	0.046	750771	keystroke_r	r	n/a
375.5355	0.075	751071	keystroke_Key.enter	Key.enter	n/a
375.6195	5.558	751239	prompt	n/a	momentum designer guard ebook\n
376.3615	0.09	752723	keystroke_m	m	n/a
376.5565	0.0885	753113	keystroke_o	o	n/a
376.7665	0.0895	753533	keystroke_m	m	n/a
376.916	0.09	753832	keystroke_e	e	n/a
377.051	0.09	754102	keystroke_n	n	n/a
377.2315	0.0595	754463	keystroke_t	t	n/a
377.4265	0.06	754853	keystroke_u	u	n/a
377.6365	0.119	755273	keystroke_m	m	n/a
377.7405	0.076	755481	keystroke_Key.space	Key.space	n/a
377.8755	0.076	755751	keystroke_d	d	n/a
378.0405	0.076	756081	keystroke_e	e	n/a
378.221	0.0595	756442	keystroke_s	s	n/a
378.296	0.075	756592	keystroke_i	i	n/a
378.4615	0.059	756923	keystroke_g	g	n/a
378.5665	0.075	757133	keystroke_n	n	n/a
378.7015	0.105	757403	keystroke_e	e	n/a
378.8965	0.09	757793	keystroke_r	r	n/a
379.016	0.0905	758032	keystroke_Key.space	Key.space	n/a
379.2565	0.075	758513	keystroke_g	g	n/a
379.4515	0.06	758903	keystroke_u	u	n/a
379.5255	0.091	759051	keystroke_a	a	n/a
379.7515	0.045	759503	keystroke_r	r	n/a
379.9165	0.0595	759833	keystroke_d	d	n/a
379.991	0.0755	759982	keystroke_Key.space	Key.space	n/a
380.0815	0.09	760163	keystroke_e	e	n/a
380.3965	0.105	760793	keystroke_b	b	n/a
380.5915	0.03	761183	keystroke_o	o	n/a
380.7105	0.0905	761421	keystroke_o	o	n/a
380.8915	0.105	761783	keystroke_k	k	n/a
381.1155	0.06	762231	keystroke_Key.enter	Key.enter	n/a
381.181	8.411	762362	prompt	n/a	easier innovative understand netscape\n
381.896	0.075	763792	keystroke_e	e	n/a
382.076	0.075	764152	keystroke_a	a	n/a
382.241	0.09	764482	keystroke_s	s	n/a
382.346	0.075	764692	keystroke_i	i	n/a
382.436	0.09	764872	keystroke_e	e	n/a
382.616	0.09	765232	keystroke_r	r	n/a
382.736	0.09	765472	keystroke_Key.space	Key.space	n/a
382.931	0.0745	765862	keystroke_i	i	n/a
383.126	0.0445	766252	keystroke_n	n	n/a
383.2905	0.06	766581	keystroke_n	n	n/a
383.486	0.0895	766972	keystroke_o	o	n/a
383.621	0.06	767242	keystroke_v	v	n/a
383.8465	0.075	767693	keystroke_a	a	n/a
384.086	0.06	768172	keystroke_t	t	n/a
384.1765	0.06	768353	keystroke_i	i	n/a
384.3865	0.0895	768773	keystroke_v	v	n/a
384.461	0.0755	768922	keystroke_e	e	n/a
384.581	0.12	769162	keystroke_Key.space	Key.space	n/a
385.001	0.0895	770002	keystroke_u	u	n/a
385.1055	0.105	770211	keystroke_n	n	n/a
385.4965	0.1045	770993	keystroke_d	d	n/a
385.721	0.09	771442	keystroke_e	e	n/a
385.916	0.075	771832	keystroke_r	r	n/a
386.1415	0.0745	772283	keystroke_d	d	n/a
386.2615	0.0745	772523	keystroke_t	t	n/a
386.756	0.0445	773512	keystroke_Key.backspace	Key.backspace	n/a
386.8755	0.076	773751	keystroke_Key.backspace	Key.backspace	n/a
387.0855	0.09	774171	keystroke_s	s	n/a
387.4015	0.075	774803	keystroke_t	t	n/a
387.521	0.075	775042	keystroke_a	a	n/a
387.672	0.0595	775344	keystroke_n	n	n/a
387.791	0.075	775582	keystroke_d	d	n/a
387.911	0.06	775822	keystroke_Key.space	Key.space	n/a
388.1215	0.06	776243	keystroke_n	n	n/a
388.2565	0.09	776513	keystroke_e	e	n/a
388.5115	0.075	777023	keystroke_t	t	n/a
388.7065	0.075	777413	keystroke_s	s	n/a
388.9155	0.0755	777831	keystroke_c	c	n/a
389.141	0.06	778282	keystroke_a	a	n/a
389.2605	0.075	778521	keystroke_p	p	n/a
389.396	0.0445	778792	keystroke_e	e	n/a
389.576	0.0145	779152	keystroke_Key.enter	Key.enter	n/a
389.6	5.9175	779200	prompt	n/a	yellow races restrictions coffee\n
390.2965	0.0745	780593	keystroke_y	y	n/a
390.4315	0.044	780863	keystroke_e	e	n/a
390.5655	0.0605	781131	keystroke_l	l	n/a
390.716	0.075	781432	keystroke_l	l	n/a
390.866	0.0895	781732	keystroke_o	o	n/a
390.971	0.0905	781942	keystroke_w	w	n/a
391.0755	0.09	782151	keystroke_Key.space	Key.space	n/a
391.271	0.0755	782542	keystroke_r	r	n/a
391.4205	0.045	782841	keystroke_a	a	n/a
391.4805	0.0605	782961	keystroke_c	c	n/a
391.6465	0.06	783293	keystroke_e	e	n/a
391.7965	0.0745	783593	keystroke_s	s	n/a
391.8865	0.09	783773	keystroke_Key.space	Key.space	n/a
392.0965	0.075	784193	keystroke_r	r	n/a
392.2615	0.0745	784523	keystroke_e	e	n/a
392.4415	0.09	784883	keystroke_s	s	n/a
392.7115	0.075	785423	keystroke_t	t	n/a
392.8465	0.105	785693	keystroke_r	r	n/a
392.9965	0.075	785993	keystroke_i	i	n/a
393.1015	0.0745	786203	keystroke_c	c	n/a
393.2965	0.06	786593	keystroke_t	t	n/a
393.3855	0.075	786771	keystroke_i	i	n/a
393.5655	0.121	787131	keystroke_o	o	n/a
393.627	0.1345	787254	keystroke_n	n	n/a
393.7915	0.0595	787583	keystroke_s	s	n/a
393.911	0.0895	787822	keystroke_Key.space	Key.space	n/a
394.1665	0.0905	788333	keystroke_c	c	n/a
394.2715	0.074	788543	keystroke_o	o	n/a
394.481	0.0445	788962	keystroke_f	f	n/a
394.646	0.0905	789292	keystroke_f	f	n/a
395.022	0.059	790044	keystroke_e	e	n/a
395.201	0.06	790402	keystroke_e	e	n/a
395.441	0.075	790882	keystroke_Key.enter	Key.enter	n/a
395.521	4.857	791042	prompt	n/a	what'd resulting poet we\n
396.3265	0.075	792653	keystroke_w	w	n/a
396.4615	0.0905	792923	keystroke_h	h	n/a
396.537	0.0745	793074	keystroke_a	a	n/a
396.656	0.0905	793312	keystroke_t	t	n/a
397.3615	0.0595	794723	keystroke_'	'	n/a
397.466	0.09	794932	keystroke_d	d	n/a
397.586	0.09	795172	keystroke_Key.space	Key.space	n/a
397.721	0.06	795442	keystroke_r	r	n/a
397.871	0.09	795742	keystroke_e	e	n/a
398.0665	0.09	796133	keystroke_s	s	n/a
398.1115	0.075	796223	keystroke_u	u	n/a
398.3215	0.0745	796643	keystroke_l	l	n/a
398.4715	0.0755	796943	keystroke_t	t	n/a
398.6365	0.121	797273	keystroke_i	i	n/a
398.7115	0.12	797423	keystroke_n	n	n/a
398.8165	0.075	797633	keystroke_g	g	n/a
398.951	0.09	797902	keystroke_Key.space	Key.space	n/a
399.176	0.09	798352	keystroke_p	p	n/a
399.356	0.091	798712	keystroke_o	o	n/a
399.461	0.076	798922	keystroke_e	e	n/a
399.7005	0.0755	799401	keystroke_t	t	n/a
399.8205	0.09	799641	keystroke_Key.space	Key.space	n/a
399.9565	0.0895	799913	keystroke_w	w	n/a
400.1515	0.09	800303	keystroke_e	e	n/a
400.3005	0.075	800601	keystroke_Key.enter	Key.enter	n/a
400.384	17.0485	800768	prompt	n/a	who'd've authorized deferred establish\n
401.0065	0.075	802013	keystroke_w	w	n/a
401.1555	0.09	802311	keystroke_h	h	n/a
401.3655	0.06	802731	keystroke_o	o	n/a
401.501	0.076	803002	keystroke_d	d	n/a
401.7715	0.0445	803543	keystroke_'	'	n/a
403.4215	0.03	806843	keystroke_Key.backspace	Key.backspace	n/a
403.5715	0.015	807143	keystroke_Key.backspace	Key.backspace	n/a
403.7515	0.045	807503	keystroke_Key.backspace	Key.backspace	n/a
404.681	0.06	809362	keystroke_o	o	n/a
405.0265	0.06	810053	keystroke_'	'	n/a
405.2065	0.06	810413	keystroke_d	d	n/a
405.611	0.0455	811222	keystroke_'	'	n/a
406.092	0.059	812184	keystroke_v	v	n/a
406.196	0.076	812392	keystroke_e	e	n/a
406.301	0.105	812602	keystroke_Key.space	Key.space	n/a
406.781	0.0905	813562	keystroke_a	a	n/a
406.8865	0.0745	813773	keystroke_u	u	n/a
407.0805	0.075	814161	keystroke_t	t	n/a
407.1405	0.0755	814281	keystroke_h	h	n/a
407.351	0.0755	814702	keystroke_o	o	n/a
407.456	0.061	814912	keystroke_r	r	n/a
407.546	0.075	815092	keystroke_i	i	n/a
407.696	0.105	815392	keystroke_z	z	n/a
407.937	0.0745	815874	keystroke_e	e	n/a
408.101	0.0905	816202	keystroke_d	d	n/a
408.206	0.105	816412	keystroke_Key.space	Key.space	n/a
408.356	0.075	816712	keystroke_d	d	n/a
408.536	0.0755	817072	keystroke_e	e	n/a
408.7315	0.06	817463	keystroke_f	f	n/a
408.8665	0.105	817733	keystroke_f	f	n/a
409.1065	0.076	818213	keystroke_e	e	n/a
409.3015	0.09	818603	keystroke_r	r	n/a
409.4665	0.075	818933	keystroke_e	e	n/a
409.632	0.0895	819264	keystroke_d	d	n/a
409.706	0.09	819412	keystroke_Key.space	Key.space	n/a
409.901	0.0895	819802	keystroke_e	e	n/a
410.096	0.0905	820192	keystroke_s	s	n/a
410.3505	0.06	820701	keystroke_t	t	n/a
410.5615	0.0745	821123	keystroke_a	a	n/a
410.6515	0.075	821303	keystroke_b	b	n/a
410.862	0.075	821724	keystroke_l	l	n/a
411.027	0.075	822054	keystroke_i	i	n/a
411.146	0.075	822292	keystroke_s	s	n/a
411.2515	0.104	822503	keystroke_h	h	n/a
411.6855	0.031	823371	keystroke_Key.backspace	Key.backspace	n/a
412.6915	0.0445	825383	keystroke_Key.backspace	Key.backspace	n/a
412.826	0.0455	825652	keystroke_Key.backspace	Key.backspace	n/a
412.961	0.03	825922	keystroke_Key.backspace	Key.backspace	n/a
413.126	0.06	826252	keystroke_Key.backspace	Key.backspace	n/a
413.411	0.075	826822	keystroke_Key.backspace	Key.backspace	n/a
413.5605	0.015	827121	keystroke_Key.backspace	Key.backspace	n/a
413.6355	0.06	827271	keystroke_Key.backspace	Key.backspace	n/a
413.757	0.044	827514	keystroke_Key.backspace	Key.backspace	n/a
413.846	0.061	827692	keystroke_Key.backspace	Key.backspace	n/a
413.951	0.0605	827902	keystroke_Key.backspace	Key.backspace	n/a
414.0565	0.06	828113	keystroke_Key.backspace	Key.backspace	n/a
414.162	0.0895	828324	keystroke_Key.backspace	Key.backspace	n/a
414.3415	0.015	828683	keystroke_Key.backspace	Key.backspace	n/a
414.7615	0.059	829523	keystroke_Key.backspace	Key.backspace	n/a
414.987	0.06	829974	keystroke_e	e	n/a
415.181	0.045	830362	keystroke_r	r	n/a
415.3015	0.075	830603	keystroke_r	r	n/a
415.4815	0.0745	830963	keystroke_e	e	n/a
415.646	0.045	831292	keystroke_d	d	n/a
415.736	0.0305	831472	keystroke_Key.space	Key.space	n/a
415.811	0.075	831622	keystroke_e	e	n/a
415.961	0.105	831922	keystroke_s	s	n/a
416.216	0.03	832432	keystroke_t	t	n/a
416.3965	0.0745	832793	keystroke_a	a	n/a
416.517	0.074	833034	keystroke_b	b	n/a
416.7265	0.075	833453	keystroke_l	l	n/a
416.906	0.0605	833812	keystroke_i	i	n/a
417.0115	0.076	834023	keystroke_s	s	n/a
417.146	0.061	834292	keystroke_h	h	n/a
417.386	0.045	834772	keystroke_Key.enter	Key.enter	n/a
417.4435	6.8595	834887	prompt	n/a	libraries terminals specializing nuke\n
418.2865	0.075	836573	keystroke_l	l	n/a
418.4665	0.06	836933	keystroke_i	i	n/a
418.662	0.0595	837324	keystroke_b	b	n/a
418.7815	0.075	837563	keystroke_r	r	n/a
418.9765	0.09	837953	keystroke_a	a	n/a
419.217	0.06	838434	keystroke_r	r	n/a
419.3225	0.059	838645	keystroke_i	i	n/a
419.457	0.075	838914	keystroke_e	e	n/a
419.636	0.09	839272	keystroke_s	s	n/a
419.741	0.0755	839482	keystroke_Key.space	Key.space	n/a
420.027	0.074	840054	keystroke_t	t	n/a
420.2215	0.0745	840443	keystroke_e	e	n/a
420.3875	0.0735	840775	keystroke_r	r	n/a
420.476	0.0605	840952	keystroke_m	m	n/a
420.6565	0.15	841313	keystroke_i	i	n/a
420.7465	0.1045	841493	keystroke_n	n	n/a
420.8365	0.06	841673	keystroke_a	a	n/a
420.9415	0.0905	841883	keystroke_l	l	n/a
421.0465	0.045	842093	keystroke_s	s	n/a
421.122	0.09	842244	keystroke_Key.space	Key.space	n/a
421.257	0.0895	842514	keystroke_s	s	n/a
421.3615	0.06	842723	keystroke_p	p	n/a
421.4815	0.075	842963	keystroke_e	e	n/a
421.6765	0.105	843353	keystroke_c	c	n/a
421.7955	0.076	843591	keystroke_i	i	n/a
422.0815	0.0605	844163	keystroke_a	a	n/a
422.216	0.075	844432	keystroke_l	l	n/a
422.412	0.06	844824	keystroke_i	i	n/a
422.517	0.0895	845034	keystroke_z	z	n/a
422.667	0.134	845334	keystroke_i	i	n/a
422.757	0.104	845514	keystroke_n	n	n/a
422.846	0.075	845692	keystroke_g	g	n/a
422.981	0.1055	845962	keystroke_Key.space	Key.space	n/a
423.642	0.075	847284	keystroke_n	n	n/a
423.792	0.075	847584	keystroke_u	u	n/a
423.9715	0.0595	847943	keystroke_k	k	n/a
424.062	0.074	848124	keystroke_e	e	n/a
424.226	0.0755	848452	keystroke_Key.enter	Key.enter	n/a
424.3075	6.5805	848615	prompt	n/a	took complete gate wizard\n
424.9915	0.06	849983	keystroke_t	t	n/a
425.142	0.0595	850284	keystroke_o	o	n/a
425.2765	0.105	850553	keystroke_o	o	n/a
425.487	0.0295	850974	keystroke_o	o	n/a
425.6365	0.09	851273	keystroke_Key.space	Key.space	n/a
426.0265	0.06	852053	keystroke_Key.backspace	Key.backspace	n/a
426.5365	0.06	853073	keystroke_Key.backspace	Key.backspace	n/a
426.7915	0.0595	853583	keystroke_k	k	n/a
426.926	0.0755	853852	keystroke_Key.space	Key.space	n/a
427.0465	0.09	854093	keystroke_c	c	n/a
427.1215	0.135	854243	keystroke_o	o	n/a
427.1815	0.09	854363	keystroke_m	m	n/a
427.3615	0.075	854723	keystroke_p	p	n/a
427.4075	0.0745	854815	keystroke_l	l	n/a
427.5415	0.075	855083	keystroke_e	e	n/a
427.7075	0.0745	855415	keystroke_t	t	n/a
427.8265	0.075	855653	keystroke_e	e	n/a
427.9465	0.12	855893	keystroke_Key.space	Key.space	n/a
428.5765	0.075	857153	keystroke_g	g	n/a
428.6665	0.09	857333	keystroke_a	a	n/a
428.7715	0.09	857543	keystroke_t	t	n/a
428.922	0.06	857844	keystroke_e	e	n/a
428.9955	0.1065	857991	keystroke_Key.space	Key.space	n/a
429.2965	0.06	858593	keystroke_w	w	n/a
429.492	0.075	858984	keystroke_a	a	n/a
429.597	0.075	859194	keystroke_i	i	n/a
429.747	0.089	859494	keystroke_z	z	n/a
430.047	0.044	860094	keystroke_r	r	n/a
430.212	0.0745	860424	keystroke_d	d	n/a
430.8115	0.075	861623	keystroke_Key.enter	Key.enter	n/a
430.8935	8.2445	861787	prompt	n/a	hamburg settle edit focusing\n
431.7415	0.045	863483	keystroke_h	h	n/a
431.891	0.105	863782	keystroke_a	a	n/a
432.297	0.045	864594	keystroke_Key.backspace	Key.backspace	n/a
432.4165	0.0445	864833	keystroke_Key.backspace	Key.backspace	n/a
432.552	0.045	865104	keystroke_Key.backspace	Key.backspace	n/a
432.687	0.09	865374	keystroke_Key.backspace	Key.backspace	n/a
433.0315	0.0745	866063	keystroke_h	h	n/a
433.1515	0.0905	866303	keystroke_a	a	n/a
433.257	0.09	866514	keystroke_m	m	n/a
433.4665	0.1495	866933	keystroke_b	b	n/a
433.571	0.091	867142	keystroke_u	u	n/a
433.737	0.0895	867474	keystroke_r	r	n/a
433.842	0.149	867684	keystroke_g	g	n/a
433.9765	0.1345	867953	keystroke_Key.space	Key.space	n/a
434.456	0.075	868912	keystroke_s	s	n/a
434.651	0.075	869302	keystroke_e	e	n/a
434.831	0.045	869662	keystroke_e	e	n/a
435.251	0.0605	870502	keystroke_Key.backspace	Key.backspace	n/a
435.7465	0.061	871493	keystroke_t	t	n/a
435.8665	0.105	871733	keystroke_t	t	n/a
436.0615	0.06	872123	keystroke_l	l	n/a
436.2115	0.045	872423	keystroke_e	e	n/a
436.3315	0.105	872663	keystroke_Key.space	Key.space	n/a
436.4065	0.09	872813	keystroke_s	s	n/a
436.8265	0.06	873653	keystroke_Key.backspace	Key.backspace	n/a
437.1425	0.0745	874285	keystroke_e	e	n/a
437.321	0.09	874642	keystroke_d	d	n/a
437.426	0.075	874852	keystroke_i	i	n/a
437.561	0.076	875122	keystroke_t	t	n/a
437.651	0.106	875302	keystroke_Key.space	Key.space	n/a
437.967	0.0595	875934	keystroke_f	f	n/a
438.0415	0.105	876083	keystroke_o	o	n/a
438.207	0.0745	876414	keystroke_c	c	n/a
438.3565	0.075	876713	keystroke_u	u	n/a
438.4765	0.06	876953	keystroke_s	s	n/a
438.581	0.136	877162	keystroke_i	i	n/a
438.672	0.12	877344	keystroke_n	n	n/a
438.807	0.06	877614	keystroke_g	g	n/a
439.0465	0.09	878093	keystroke_Key.enter	Key.enter	n/a
439.1515	4.8015	878303	prompt	n/a	excluded mile pointer bonds\n
439.796	0.075	879592	keystroke_e	e	n/a
440.007	0.089	880014	keystroke_x	x	n/a
440.231	0.075	880462	keystroke_c	c	n/a
440.307	0.089	880614	keystroke_l	l	n/a
440.516	0.075	881032	keystroke_u	u	n/a
440.576	0.061	881152	keystroke_d	d	n/a
440.742	0.0745	881484	keystroke_e	e	n/a
440.9065	0.075	881813	keystroke_d	d	n/a
440.9965	0.0895	881993	keystroke_Key.space	Key.space	n/a
441.207	0.0895	882414	keystroke_m	m	n/a
441.3715	0.075	882743	keystroke_i	i	n/a
441.5665	0.0755	883133	keystroke_l	l	n/a
441.627	0.09	883254	keystroke_e	e	n/a
441.732	0.0595	883464	keystroke_Key.space	Key.space	n/a
441.9115	0.045	883823	keystroke_p	p	n/a
442.062	0.0595	884124	keystroke_o	o	n/a
442.242	0.0895	884484	keystroke_i	i	n/a
442.2865	0.135	884573	keystroke_n	n	n/a
442.3465	0.09	884693	keystroke_t	t	n/a
442.5565	0.075	885113	keystroke_e	e	n/a
442.7215	0.0755	885443	keystroke_r	r	n/a
442.811	0.106	885622	keystroke_Key.space	Key.space	n/a
443.1265	0.09	886253	keystroke_b	b	n/a
443.3065	0.135	886613	keystroke_o	o	n/a
443.3965	0.105	886793	keystroke_n	n	n/a
443.5315	0.075	887063	keystroke_d	d	n/a
443.7265	0.105	887453	keystroke_s	s	n/a
443.8615	0.09	887723	keystroke_Key.enter	Key.enter	n/a
443.9575	7.7055	887915	prompt	n/a	memory instructions suspended butterfly\n
444.762	0.0745	889524	keystroke_m	m	n/a
444.8965	0.0595	889793	keystroke_e	e	n/a
444.9865	0.105	889973	keystroke_m	m	n/a
445.1065	0.12	890213	keystroke_o	o	n/a
445.2115	0.0755	890423	keystroke_r	r	n/a
445.4065	0.09	890813	keystroke_y	y	n/a
445.6015	0.09	891203	keystroke_Key.space	Key.space	n/a
445.7815	0.105	891563	keystroke_i	i	n/a
445.8565	0.105	891713	keystroke_n	n	n/a
445.9315	0.075	891863	keystroke_s	s	n/a
446.1715	0.0595	892343	keystroke_t	t	n/a
446.336	0.045	892672	keystroke_r	r	n/a
446.457	0.0745	892914	keystroke_u	u	n/a
446.547	0.075	893094	keystroke_c	c	n/a
446.787	0.03	893574	keystroke_t	t	n/a
446.861	0.0755	893722	keystroke_i	i	n/a
447.0415	0.135	894083	keystroke_o	o	n/a
447.0865	0.12	894173	keystroke_n	n	n/a
447.2075	0.059	894415	keystroke_s	s	n/a
447.3265	0.105	894653	keystroke_Key.space	Key.space	n/a
447.4465	0.105	894893	keystroke_s	s	n/a
447.582	0.0745	895164	keystroke_u	u	n/a
447.7315	0.12	895463	keystroke_s	s	n/a
447.8815	0.06	895763	keystroke_p	p	n/a
448.0015	0.09	896003	keystroke_e	e	n/a
448.5125	0.059	897025	keystroke_n	n	n/a
448.677	0.059	897354	keystroke_d	d	n/a
448.8115	0.091	897623	keystroke_e	e	n/a
449.0065	0.09	898013	keystroke_d	d	n/a
449.1115	0.105	898223	keystroke_Key.space	Key.space	n/a
449.4115	0.0905	898823	keystroke_b	b	n/a
449.607	0.09	899214	keystroke_u	u	n/a
449.846	0.046	899692	keystroke_t	t	n/a
449.967	0.0595	899934	keystroke_t	t	n/a
450.1165	0.0755	900233	keystroke_e	e	n/a
450.281	0.106	900562	keystroke_r	r	n/a
450.4765	0.1195	900953	keystroke_f	f	n/a
451.347	0.074	902694	keystroke_l	l	n/a
451.4665	0.0745	902933	keystroke_y	y	n/a
451.601	0.06	903202	keystroke_Key.enter	Key.enter	n/a
451.67	7.973	903340	prompt	n/a	gallery tropical extras recommended\n
452.4115	0.0445	904823	keystroke_h	h	n/a
452.502	0.074	905004	keystroke_a	a	n/a
452.636	0.06	905272	keystroke_l	l	n/a
452.8015	0.0595	905603	keystroke_l	l	n/a
453.011	0.045	906022	keystroke_Key.backspace	Key.backspace	n/a
453.147	0.059	906294	keystroke_Key.backspace	Key.backspace	n/a
453.3405	0.016	906681	keystroke_Key.backspace	Key.backspace	n/a
453.4015	0.06	906803	keystroke_Key.backspace	Key.backspace	n/a
453.6115	0.0595	907223	keystroke_Key.backspace	Key.backspace	n/a
453.926	0.075	907852	keystroke_g	g	n/a
454.061	0.075	908122	keystroke_a	a	n/a
454.347	0.06	908694	keystroke_l	l	n/a
454.466	0.091	908932	keystroke_l	l	n/a
454.601	0.091	909202	keystroke_e	e	n/a
454.7815	0.0755	909563	keystroke_r	r	n/a
454.858	0.088	909716	keystroke_y	y	n/a
455.007	0.1045	910014	keystroke_Key.space	Key.space	n/a
455.366	0.0605	910732	keystroke_t	t	n/a
455.517	0.075	911034	keystroke_r	r	n/a
455.622	0.09	911244	keystroke_o	o	n/a
455.787	0.074	911574	keystroke_p	p	n/a
455.967	0.089	911934	keystroke_i	i	n/a
456.042	0.074	912084	keystroke_c	c	n/a
456.2815	0.045	912563	keystroke_a	a	n/a
456.372	0.075	912744	keystroke_l	l	n/a
456.5365	0.0895	913073	keystroke_Key.space	Key.space	n/a
456.702	0.075	913404	keystroke_e	e	n/a
456.897	0.075	913794	keystroke_x	x	n/a
457.0465	0.0605	914093	keystroke_t	t	n/a
457.2715	0.0155	914543	keystroke_r	r	n/a
457.3165	0.075	914633	keystroke_a	a	n/a
457.4965	0.0755	914993	keystroke_s	s	n/a
457.6165	0.075	915233	keystroke_Key.space	Key.space	n/a
457.826	0.06	915652	keystroke_r	r	n/a
458.007	0.059	916014	keystroke_e	e	n/a
458.246	0.061	916492	keystroke_c	c	n/a
458.3665	0.0745	916733	keystroke_o	o	n/a
458.562	0.0445	917124	keystroke_m	m	n/a
458.697	0.075	917394	keystroke_m	m	n/a
458.877	0.0595	917754	keystroke_e	e	n/a
459.011	0.075	918022	keystroke_n	n	n/a
459.1315	0.075	918263	keystroke_d	d	n/a
459.327	0.0595	918654	keystroke_e	e	n/a
459.492	0.0595	918984	keystroke_d	d	n/a
459.5965	0.045	919193	keystroke_Key.enter	Key.enter	n/a
459.6475	4.302	919295	prompt	n/a	iron total listen truck\n
460.451	0.0755	920902	keystroke_i	i	n/a
460.5415	0.075	921083	keystroke_r	r	n/a
460.662	0.134	921324	keystroke_o	o	n/a
460.7365	0.105	921473	keystroke_n	n	n/a
460.9015	0.0895	921803	keystroke_Key.space	Key.space	n/a
460.9765	0.075	921953	keystroke_t	t	n/a
461.0965	0.1045	922193	keystroke_o	o	n/a
461.216	0.075	922432	keystroke_t	t	n/a
461.4715	0.075	922943	keystroke_a	a	n/a
461.531	0.076	923062	keystroke_l	l	n/a
461.6665	0.075	923333	keystroke_Key.space	Key.space	n/a
461.817	0.089	923634	keystroke_l	l	n/a
461.996	0.06	923992	keystroke_i	i	n/a
462.0115	0.1045	924023	keystroke_s	s	n/a
462.281	0.0755	924562	keystroke_t	t	n/a
462.4765	0.0605	924953	keystroke_e	e	n/a
462.521	0.121	925042	keystroke_n	n	n/a
462.6115	0.105	925223	keystroke_Key.space	Key.space	n/a
462.867	0.075	925734	keystroke_t	t	n/a
463.0165	0.091	926033	keystroke_r	r	n/a
463.1665	0.075	926333	keystroke_u	u	n/a
463.287	0.0745	926574	keystroke_c	c	n/a
463.4215	0.03	926843	keystroke_k	k	n/a
463.8865	0.06	927773	keystroke_Key.enter	Key.enter	n/a
463.9535	8.861	927907	prompt	n/a	reporters complex shall sample\n
464.742	0.06	929484	keystroke_r	r	n/a
464.891	0.0755	929782	keystroke_e	e	n/a
464.9815	0.0755	929963	keystroke_p	p	n/a
465.1615	0.075	930323	keystroke_o	o	n/a
465.252	0.0595	930504	keystroke_r	r	n/a
465.387	0.0895	930774	keystroke_t	t	n/a
465.6565	0.0605	931313	keystroke_s	s	n/a
466.586	0.09	933172	keystroke_Key.backspace	Key.backspace	n/a
466.722	0.074	933444	keystroke_e	e	n/a
466.872	0.075	933744	keystroke_r	r	n/a
467.0525	0.074	934105	keystroke_s	s	n/a
467.1115	0.0895	934223	keystroke_Key.space	Key.space	n/a
467.321	0.0755	934642	keystroke_c	c	n/a
467.397	0.135	934794	keystroke_o	o	n/a
467.457	0.105	934914	keystroke_m	m	n/a
467.637	0.1045	935274	keystroke_p	p	n/a
467.682	0.105	935364	keystroke_l	l	n/a
467.817	0.075	935634	keystroke_e	e	n/a
468.012	0.089	936024	keystroke_x	x	n/a
468.131	0.091	936262	keystroke_Key.space	Key.space	n/a
468.657	0.09	937314	keystroke_s	s	n/a
