onset	duration	sample	value	key	prompt_text
13.4485	17.381	26897	prompt	n/a	the quick brown fox jumps over a lazy dog\n
16.27	0.107	32540	keystroke_t	t	n/a
16.331	0.069	32662	keystroke_h	h	n/a
16.473	0.138	32946	keystroke_e	e	n/a
16.588	0.183	33176	keystroke_Key.space	Key.space	n/a
18.452	0.137	36904	keystroke_q	q	n/a
18.611	0.09	37222	keystroke_u	u	n/a
18.81	0.0925	37620	keystroke_i	i	n/a
18.9815	0.16	37963	keystroke_c	c	n/a
19.1425	0.09	38285	keystroke_k	k	n/a
19.3275	0.1635	38655	keystroke_Key.space	Key.space	n/a
19.707	0.1185	39414	keystroke_b	b	n/a
19.8805	0.113	39761	keystroke_r	r	n/a
20.0345	0.138	40069	keystroke_o	o	n/a
20.5775	0.113	41155	keystroke_w	w	n/a
20.7765	0.115	41553	keystroke_n	n	n/a
20.9435	0.16	41887	keystroke_Key.space	Key.space	n/a
21.1455	0.115	42291	keystroke_f	f	n/a
21.2995	0.1395	42599	keystroke_o	o	n/a
21.577	0.137	43154	keystroke_x	x	n/a
21.746	0.14	43492	keystroke_Key.space	Key.space	n/a
21.983	0.092	43966	keystroke_j	j	n/a
22.383	0.091	44766	keystroke_m	m	n/a
22.917	0.138	45834	keystroke_Key.backspace	Key.backspace	n/a
23.585	0.067	47170	keystroke_u	u	n/a
23.806	0.1145	47612	keystroke_m	m	n/a
24.0375	0.092	48075	keystroke_p	p	n/a
24.1805	0.115	48361	keystroke_s	s	n/a
25.0925	0.163	50185	keystroke_Key.space	Key.space	n/a
25.2985	0.115	50597	keystroke_o	o	n/a
25.714	0.1375	51428	keystroke_v	v	n/a
25.9635	0.0915	51927	keystroke_e	e	n/a
26.153	0.1125	52306	keystroke_r	r	n/a
26.3085	0.1155	52617	keystroke_Key.space	Key.space	n/a
26.528	0.1145	53056	keystroke_Key.space	Key.space	n/a
27.003	0.091	54006	keystroke_Key.backspace	Key.backspace	n/a
27.141	0.093	54282	keystroke_a	a	n/a
27.235	0.137	54470	keystroke_Key.space	Key.space	n/a
27.467	0.1135	54934	keystroke_l	l	n/a
28.1095	0.048	56219	keystroke_a	a	n/a
28.3725	0.115	56745	keystroke_z	z	n/a
28.7315	0.138	57463	keystroke_y	y	n/a
28.8455	0.115	57691	keystroke_Key.space	Key.space	n/a
29.2725	0.114	58545	keystroke_d	d	n/a
29.5635	0.1125	59127	keystroke_o	o	n/a
29.8855	0.0935	59771	keystroke_g	g	n/a
30.713	0.114	61426	keystroke_Key.enter	Key.enter	n/a
30.8345	12.612	61669	prompt	n/a	slot terms decor translations\n
31.9825	0.137	63965	keystroke_s	s	n/a
32.1415	0.091	64283	keystroke_l	l	n/a
32.3435	0.067	64687	keystroke_o	o	n/a
32.4425	0.113	64885	keystroke_t	t	n/a
32.6785	0.138	65357	keystroke_Key.space	Key.space	n/a
32.9365	0.116	65873	keystroke_r	r	n/a
33.7675	0.135	67535	keystroke_Key.backspace	Key.backspace	n/a
33.9255	0.1145	67851	keystroke_t	t	n/a
34.137	0.069	68274	keystroke_e	e	n/a
34.2875	0.1155	68575	keystroke_r	r	n/a
34.434	0.094	68868	keystroke_m	m	n/a
34.592	0.092	69184	keystroke_s	s	n/a
34.685	0.112	69370	keystroke_Key.space	Key.space	n/a
35.144	0.091	70288	keystroke_d	d	n/a
35.356	0.07	70712	keystroke_e	e	n/a
35.547	0.116	71094	keystroke_c	c	n/a
35.685	0.116	71370	keystroke_o	o	n/a
35.857	0.112	71714	keystroke_r	r	n/a
36.036	0.137	72072	keystroke_Key.space	Key.space	n/a
36.295	0.116	72590	keystroke_t	t	n/a
36.493	0.1145	72986	keystroke_r	r	n/a
37.6195	0.138	75239	keystroke_n	n	n/a
38.1885	0.114	76377	keystroke_a	a	n/a
38.7695	0.07	77539	keystroke_Key.backspace	Key.backspace	n/a
38.9195	0.094	77839	keystroke_Key.backspace	Key.backspace	n/a
39.094	0.116	78188	keystroke_a	a	n/a
39.243	0.0925	78486	keystroke_n	n	n/a
39.4215	0.1135	78843	keystroke_s	s	n/a
39.558	0.139	79116	keystroke_l	l	n/a
39.698	0.1115	79396	keystroke_a	a	n/a
39.873	0.136	79746	keystroke_t	t	n/a
40.075	0.092	80150	keystroke_i	i	n/a
40.2795	0.0915	80559	keystroke_o	o	n/a
40.549	0.135	81098	keystroke_s	s	n/a
41.206	0.096	82412	keystroke_Key.backspace	Key.backspace	n/a
41.521	0.068	83042	keystroke_n	n	n/a
41.777	0.1395	83554	keystroke_s	s	n/a
43.305	0.1395	86610	keystroke_Key.enter	Key.enter	n/a
43.449	12.6605	86898	prompt	n/a	extent everyone following vacations\n
44.4405	0.092	88881	keystroke_e	e	n/a
44.8435	0.156	89687	keystroke_c	c	n/a
45.195	0.047	90390	keystroke_t	t	n/a
45.349	0.114	90698	keystroke_e	e	n/a
45.484	0.046	90968	keystroke_n	n	n/a
45.7095	0.115	91419	keystroke_t	t	n/a
46.3955	0.0905	92791	keystroke_Key.backspace	Key.backspace	n/a
46.579	0.0685	93158	keystroke_Key.backspace	Key.backspace	n/a
46.7455	0.0685	93491	keystroke_Key.backspace	Key.backspace	n/a
46.893	0.094	93786	keystroke_Key.backspace	Key.backspace	n/a
47.24	0.094	94480	keystroke_Key.backspace	Key.backspace	n/a
47.597	0.069	95194	keystroke_x	x	n/a
47.812	0.046	95624	keystroke_g	g	n/a
47.813	0.0675	95626	keystroke_t	t	n/a
47.9755	0.117	95951	keystroke_e	e	n/a
48.114	0.047	96228	keystroke_n	n	n/a
48.3605	0.185	96721	keystroke_Key.space	Key.space	n/a
48.7765	0.0935	97553	keystroke_e	e	n/a
48.977	0.117	97954	keystroke_v	v	n/a
49.169	0.093	98338	keystroke_e	e	n/a
49.374	0.0685	98748	keystroke_r	r	n/a
51.3435	0.092	102687	keystroke_y	y	n/a
51.6445	0.1145	103289	keystroke_o	o	n/a
51.868	0.093	103736	keystroke_n	n	n/a
52.024	0.118	104048	keystroke_e	e	n/a
52.164	0.115	104328	keystroke_Key.space	Key.space	n/a
52.395	0.071	104790	keystroke_f	f	n/a
52.4665	0.0695	104933	keystroke_o	o	n/a
52.786	0.092	105572	keystroke_l	l	n/a
52.9585	0.2265	105917	keystroke_l	l	n/a
53.392	0.113	106784	keystroke_o	o	n/a
53.554	0.14	107108	keystroke_w	w	n/a
53.671	0.046	107342	keystroke_i	i	n/a
53.822	0.0685	107644	keystroke_n	n	n/a
53.8915	0.114	107783	keystroke_g	g	n/a
53.9815	0.0915	107963	keystroke_Key.space	Key.space	n/a
54.6745	0.14	109349	keystroke_v	v	n/a
54.8155	0.1525	109631	keystroke_a	a	n/a
55.0855	0.14	110171	keystroke_c	c	n/a
55.2265	0.1355	110453	keystroke_a	a	n/a
55.339	0.1395	110678	keystroke_t	t	n/a
55.431	0.0925	110862	keystroke_i	i	n/a
55.591	0.114	111182	keystroke_o	o	n/a
55.727	0.091	111454	keystroke_n	n	n/a
55.879	0.138	111758	keystroke_s	s	n/a
56.018	0.09	112036	keystroke_Key.enter	Key.enter	n/a
56.1125	8.3415	112225	prompt	n/a	health syndication louisville dive\n
57.1045	0.114	114209	keystroke_h	h	n/a
57.1965	0.137	114393	keystroke_e	e	n/a
57.3095	0.0935	114619	keystroke_a	a	n/a
57.3345	0.1145	114669	keystroke_l	l	n/a
57.45	0.1565	114900	keystroke_t	t	n/a
57.56	0.1125	115120	keystroke_h	h	n/a
57.6955	0.138	115391	keystroke_Key.space	Key.space	n/a
57.8095	0.07	115619	keystroke_s	s	n/a
57.964	0.112	115928	keystroke_u	u	n/a
58.2335	0.0685	116467	keystroke_n	n	n/a
58.9475	0.068	117895	keystroke_Key.backspace	Key.backspace	n/a
59.0995	0.095	118199	keystroke_Key.backspace	Key.backspace	n/a
59.393	0.046	118786	keystroke_y	y	n/a
59.6295	0.095	119259	keystroke_n	n	n/a
59.7785	0.115	119557	keystroke_d	d	n/a
59.8695	0.0915	119739	keystroke_i	i	n/a
59.985	0.116	119970	keystroke_c	c	n/a
60.103	0.045	120206	keystroke_z	z	n/a
60.124	0.026	120248	keystroke_s	s	n/a
60.212	0.136	120424	keystroke_t	t	n/a
60.302	0.092	120604	keystroke_i	i	n/a
60.468	0.117	120936	keystroke_o	o	n/a
60.607	0.1105	121214	keystroke_n	n	n/a
60.8225	0.1135	121645	keystroke_Key.space	Key.space	n/a
61.121	0.117	122242	keystroke_l	l	n/a
61.433	0.117	122866	keystroke_o	o	n/a
61.671	0.0695	123342	keystroke_u	u	n/a
61.8125	0.114	123625	keystroke_i	i	n/a
62.4565	0.093	124913	keystroke_s	s	n/a
62.6915	0.115	125383	keystroke_v	v	n/a
62.8275	0.068	125655	keystroke_i	i	n/a
63.0465	0.069	126093	keystroke_l	l	n/a
63.184	0.071	126368	keystroke_l	l	n/a
63.304	0.1375	126608	keystroke_e	e	n/a
63.4425	0.112	126885	keystroke_Key.space	Key.space	n/a
63.6495	0.07	127299	keystroke_d	d	n/a
63.886	0.116	127772	keystroke_i	i	n/a
64.003	0.089	128006	keystroke_v	v	n/a
64.189	0.0735	128378	keystroke_e	e	n/a
64.3835	0.0685	128767	keystroke_Key.enter	Key.enter	n/a
64.4575	10.617	128915	prompt	n/a	pharmacy flag instead gnome\n
65.411	0.163	130822	keystroke_p	p	n/a
65.7695	0.091	131539	keystroke_h	h	n/a
66.1915	0.1385	132383	keystroke_a	a	n/a
66.353	0.114	132706	keystroke_r	r	n/a
66.49	0.091	132980	keystroke_m	m	n/a
66.744	0.1145	133488	keystroke_a	a	n/a
66.934	0.159	133868	keystroke_c	c	n/a
67.9605	0.067	135921	keystroke_y	y	n/a
68.0855	0.114	136171	keystroke_Key.space	Key.space	n/a
68.745	0.139	137490	keystroke_f	f	n/a
68.999	0.1145	137998	keystroke_l	l	n/a
69.2615	0.0945	138523	keystroke_a	a	n/a
70.075	0.137	140150	keystroke_g	g	n/a
70.3775	0.115	140755	keystroke_Key.space	Key.space	n/a
70.6425	0.1135	141285	keystroke_i	i	n/a
70.8635	0.092	141727	keystroke_n	n	n/a
70.9975	0.069	141995	keystroke_s	s	n/a
71.1745	0.1145	142349	keystroke_t	t	n/a
71.355	0.0915	142710	keystroke_e	e	n/a
71.539	0.092	143078	keystroke_r	r	n/a
71.753	0.0695	143506	keystroke_a	a	n/a
72.283	0.073	144566	keystroke_Key.backspace	Key.backspace	n/a
72.439	0.0945	144878	keystroke_Key.backspace	Key.backspace	n/a
72.5355	0.091	145071	keystroke_a	a	n/a
72.6915	0.139	145383	keystroke_d	d	n/a
72.831	0.112	145662	keystroke_Key.space	Key.space	n/a
73.632	0.138	147264	keystroke_g	g	n/a
73.8045	0.069	147609	keystroke_n	n	n/a
73.999	0.093	147998	keystroke_o	o	n/a
74.6485	0.0705	149297	keystroke_m	m	n/a
74.802	0.1115	149604	keystroke_e	e	n/a
75.0045	0.068	150009	keystroke_Key.enter	Key.enter	n/a
75.0785	9.9585	150157	prompt	n/a	causes machine attractions activities\n
75.9725	0.1855	151945	keystroke_c	c	n/a
76.133	0.137	152266	keystroke_a	a	n/a
76.5225	0.136	153045	keystroke_s	s	n/a
77.0265	0.067	154053	keystroke_Key.backspace	Key.backspace	n/a
77.3245	0.049	154649	keystroke_u	u	n/a
77.3955	0.1585	154791	keystroke_s	s	n/a
77.531	0.092	155062	keystroke_e	e	n/a
77.7145	0.115	155429	keystroke_s	s	n/a
77.8645	0.115	155729	keystroke_Key.space	Key.space	n/a
78.5255	0.114	157051	keystroke_a	a	n/a
78.6935	0.138	157387	keystroke_c	c	n/a
79.092	0.067	158184	keystroke_Key.backspace	Key.backspace	n/a
79.258	0.046	158516	keystroke_Key.backspace	Key.backspace	n/a
79.4705	0.091	158941	keystroke_m	m	n/a
79.5385	0.115	159077	keystroke_a	a	n/a
79.6055	0.1825	159211	keystroke_c	c	n/a
79.789	0.09	159578	keystroke_h	h	n/a
79.855	0.069	159710	keystroke_i	i	n/a
80.0215	0.069	160043	keystroke_n	n	n/a
80.1315	0.115	160263	keystroke_e	e	n/a
80.2675	0.1405	160535	keystroke_Key.space	Key.space	n/a
80.9455	0.1155	161891	keystroke_a	a	n/a
81.1055	0.091	162211	keystroke_t	t	n/a
81.261	0.116	162522	keystroke_t	t	n/a
81.4815	0.114	162963	keystroke_r	r	n/a
81.6265	0.1585	163253	keystroke_a	a	n/a
81.76	0.117	163520	keystroke_c	c	n/a
81.9815	0.117	163963	keystroke_t	t	n/a
82.0515	0.092	164103	keystroke_i	i	n/a
82.2135	0.093	164427	keystroke_o	o	n/a
82.382	0.093	164764	keystroke_n	n	n/a
82.511	0.112	165022	keystroke_s	s	n/a
82.599	0.136	165198	keystroke_Key.space	Key.space	n/a
82.757	0.1125	165514	keystroke_a	a	n/a
82.9185	0.092	165837	keystroke_c	c	n/a
83.112	0.138	166224	keystroke_t	t	n/a
83.202	0.116	166404	keystroke_i	i	n/a
83.411	0.1595	166822	keystroke_v	v	n/a
83.524	0.0915	167048	keystroke_i	i	n/a
84.3395	0.116	168679	keystroke_t	t	n/a
84.4565	0.0895	168913	keystroke_i	i	n/a
84.5775	0.0915	169155	keystroke_e	e	n/a
84.761	0.1375	169522	keystroke_s	s	n/a
84.9425	0.0915	169885	keystroke_Key.enter	Key.enter	n/a
85.0415	10.951	170083	prompt	n/a	knowledgestorm others moving hourly\n
86.3655	0.183	172731	keystroke_k	k	n/a
86.5705	0.1155	173141	keystroke_n	n	n/a
86.8115	0.135	173623	keystroke_o	o	n/a
86.9675	0.2025	173935	keystroke_w	w	n/a
87.0365	0.2255	174073	keystroke_e	e	n/a
87.192	0.115	174384	keystroke_l	l	n/a
87.3775	0.14	174755	keystroke_d	d	n/a
87.805	0.0685	175610	keystroke_Key.backspace	Key.backspace	n/a
87.9755	0.046	175951	keystroke_Key.backspace	Key.backspace	n/a
88.1035	0.091	176207	keystroke_Key.backspace	Key.backspace	n/a
88.3775	0.162	176755	keystroke_e	e	n/a
88.9775	0.1155	177955	keystroke_Key.backspace	Key.backspace	n/a
89.2685	0.1115	178537	keystroke_l	l	n/a
89.402	0.069	178804	keystroke_e	e	n/a
89.571	0.1145	179142	keystroke_d	d	n/a
89.7725	0.1175	179545	keystroke_g	g	n/a
89.983	0.1155	179966	keystroke_e	e	n/a
90.4785	0.139	180957	keystroke_s	s	n/a
91.043	0.091	182086	keystroke_t	t	n/a
91.171	0.0915	182342	keystroke_o	o	n/a
91.3435	0.118	182687	keystroke_r	r	n/a
91.506	0.115	183012	keystroke_m	m	n/a
92.181	0.137	184362	keystroke_Key.space	Key.space	n/a
92.4405	0.135	184881	keystroke_o	o	n/a
92.5775	0.115	185155	keystroke_t	t	n/a
92.7235	0.0915	185447	keystroke_h	h	n/a
92.7915	0.0925	185583	keystroke_e	e	n/a
92.974	0.116	185948	keystroke_r	r	n/a
93.1785	0.116	186357	keystroke_s	s	n/a
93.2955	0.1335	186591	keystroke_Key.space	Key.space	n/a
93.484	0.136	186968	keystroke_m	m	n/a
93.622	0.089	187244	keystroke_o	o	n/a
93.733	0.1175	187466	keystroke_v	v	n/a
93.8955	0.091	187791	keystroke_i	i	n/a
94.0685	0.0685	188137	keystroke_n	n	n/a
94.161	0.093	188322	keystroke_g	g	n/a
94.276	0.092	188552	keystroke_Key.space	Key.space	n/a
94.97	0.1155	189940	keystroke_h	h	n/a
95.1615	0.1585	190323	keystroke_o	o	n/a
95.2285	0.0935	190457	keystroke_u	u	n/a
95.343	0.115	190686	keystroke_r	r	n/a
95.489	0.115	190978	keystroke_l	l	n/a
95.715	0.1105	191430	keystroke_y	y	n/a
95.8755	0.116	191751	keystroke_Key.enter	Key.enter	n/a
95.998	6.3985	191996	prompt	n/a	do exclusion perceived choices\n
96.691	0.095	193382	keystroke_d	d	n/a
96.853	0.116	193706	keystroke_p	p	n/a
96.922	0.1365	193844	keystroke_Key.space	Key.space	n/a
97.0795	0.092	194159	keystroke_e	e	n/a
97.375	0.14	194750	keystroke_x	x	n/a
97.6875	0.094	195375	keystroke_c	c	n/a
97.99	0.048	195980	keystroke_l	l	n/a
98.133	0.092	196266	keystroke_u	u	n/a
98.247	0.0915	196494	keystroke_s	s	n/a
98.3685	0.091	196737	keystroke_i	i	n/a
98.5595	0.0925	197119	keystroke_o	o	n/a
98.76	0.07	197520	keystroke_n	n	n/a
98.954	0.183	197908	keystroke_Key.space	Key.space	n/a
99.139	0.111	198278	keystroke_p	p	n/a
99.2275	0.0915	198455	keystroke_e	e	n/a
99.401	0.114	198802	keystroke_r	r	n/a
99.6125	0.181	199225	keystroke_c	c	n/a
99.7015	0.1375	199403	keystroke_e	e	n/a
99.815	0.115	199630	keystroke_i	i	n/a
99.952	0.115	199904	keystroke_v	v	n/a
100.1185	0.092	200237	keystroke_e	e	n/a
100.3035	0.1135	200607	keystroke_d	d	n/a
100.439	0.116	200878	keystroke_Key.space	Key.space	n/a
100.578	0.1125	201156	keystroke_c	c	n/a
100.7425	0.0925	201485	keystroke_h	h	n/a
100.942	0.091	201884	keystroke_o	o	n/a
101.1375	0.1135	202275	keystroke_i	i	n/a
101.852	0.1595	203704	keystroke_c	c	n/a
101.941	0.1145	203882	keystroke_e	e	n/a
102.163	0.116	204326	keystroke_s	s	n/a
102.302	0.093	204604	keystroke_Key.enter	Key.enter	n/a
102.4	5.9915	204800	prompt	n/a	burton those attempted starter\n
103.5855	0.0925	207171	keystroke_b	b	n/a
103.74	0.0895	207480	keystroke_u	u	n/a
103.8515	0.0705	207703	keystroke_r	r	n/a
103.993	0.111	207986	keystroke_t	t	n/a
104.126	0.092	208252	keystroke_o	o	n/a
104.3215	0.072	208643	keystroke_n	n	n/a
104.4935	0.114	208987	keystroke_Key.space	Key.space	n/a
104.69	0.1375	209380	keystroke_t	t	n/a
104.8285	0.092	209657	keystroke_h	h	n/a
104.9215	0.1355	209843	keystroke_o	o	n/a
105.099	0.137	210198	keystroke_s	s	n/a
105.168	0.113	210336	keystroke_e	e	n/a
105.282	0.1345	210564	keystroke_Key.space	Key.space	n/a
105.4185	0.113	210837	keystroke_a	a	n/a
105.5075	0.114	211015	keystroke_t	t	n/a
105.6765	0.1375	211353	keystroke_t	t	n/a
105.837	0.162	211674	keystroke_e	e	n/a
105.907	0.115	211814	keystroke_m	m	n/a
106.074	0.1145	212148	keystroke_p	p	n/a
106.1665	0.092	212333	keystroke_t	t	n/a
106.3135	0.0885	212627	keystroke_e	e	n/a
106.5	0.096	213000	keystroke_d	d	n/a
106.618	0.1135	213236	keystroke_Key.space	Key.space	n/a
106.9855	0.1355	213971	keystroke_s	s	n/a
107.205	0.1155	214410	keystroke_t	t	n/a
107.3925	0.139	214785	keystroke_r	r	n/a
107.4625	0.1865	214925	keystroke_a	a	n/a
107.626	0.115	215252	keystroke_t	t	n/a
107.868	0.137	215736	keystroke_e	e	n/a
108.0835	0.114	216167	keystroke_r	r	n/a
108.2745	0.1155	216549	keystroke_Key.enter	Key.enter	n/a
108.395	14.3705	216790	prompt	n/a	pepper possible winter folding\n
109.164	0.1355	218328	keystroke_[	[	n/a
109.3225	0.114	218645	keystroke_e	e	n/a
109.9745	0.0685	219949	keystroke_[	[	n/a
110.7455	0.068	221491	keystroke_Key.backspace	Key.backspace	n/a
110.9035	0.0455	221807	keystroke_Key.backspace	Key.backspace	n/a
111.091	0.045	222182	keystroke_Key.backspace	Key.backspace	n/a
111.252	0.07	222504	keystroke_Key.backspace	Key.backspace	n/a
111.709	0.112	223418	keystroke_p	p	n/a
111.926	0.091	223852	keystroke_e	e	n/a
112.1125	0.114	224225	keystroke_r	r	n/a
112.416	0.0695	224832	keystroke_p	p	n/a
112.845	0.069	225690	keystroke_Key.backspace	Key.backspace	n/a
112.997	0.091	225994	keystroke_Key.backspace	Key.backspace	n/a
114.0005	0.0705	228001	keystroke_p	p	n/a
114.131	0.134	228262	keystroke_p	p	n/a
114.288	0.071	228576	keystroke_e	e	n/a
114.4565	0.113	228913	keystroke_r	r	n/a
114.5705	0.136	229141	keystroke_Key.space	Key.space	n/a
115.001	0.1135	230002	keystroke_p	p	n/a
115.1945	0.1135	230389	keystroke_o	o	n/a
115.331	0.068	230662	keystroke_s	s	n/a
115.4925	0.117	230985	keystroke_s	s	n/a
115.5845	0.117	231169	keystroke_i	i	n/a
115.7325	0.0895	231465	keystroke_b	b	n/a
115.933	0.137	231866	keystroke_l	l	n/a
116.071	0.1325	232142	keystroke_e	e	n/a
116.2045	0.157	232409	keystroke_Key.space	Key.space	n/a
116.61	0.022	233220	keystroke_e	e	n/a
117.4395	0.118	234879	keystroke_Key.backspace	Key.backspace	n/a
117.6995	0.1145	235399	keystroke_w	w	n/a
117.79	0.0705	235580	keystroke_o	o	n/a
117.957	0.071	235914	keystroke_n	n	n/a
118.088	0.137	236176	keystroke_t	t	n/a
118.3275	0.068	236655	keystroke_e	e	n/a
118.615	0.07	237230	keystroke_Key.backspace	Key.backspace	n/a
118.769	0.07	237538	keystroke_Key.backspace	Key.backspace	n/a
118.8995	0.092	237799	keystroke_Key.backspace	Key.backspace	n/a
119.0725	0.069	238145	keystroke_Key.backspace	Key.backspace	n/a
119.609	0.094	239218	keystroke_i	i	n/a
119.793	0.0925	239586	keystroke_n	n	n/a
119.8605	0.117	239721	keystroke_t	t	n/a
120.067	0.069	240134	keystroke_e	e	n/a
120.225	0.115	240450	keystroke_r	r	n/a
120.341	0.1125	240682	keystroke_Key.space	Key.space	n/a
120.4755	0.112	240951	keystroke_f	f	n/a
120.5895	0.046	241179	keystroke_o	o	n/a
120.7345	0.0895	241469	keystroke_l	l	n/a
120.846	0.134	241692	keystroke_d	d	n/a
120.982	0.0685	241964	keystroke_i	i	n/a
121.2565	0.1365	242513	keystroke_g	g	n/a
121.741	0.0675	243482	keystroke_Key.backspace	Key.backspace	n/a
122.391	0.0885	244782	keystroke_n	n	n/a
122.5495	0.117	245099	keystroke_g	g	n/a
122.6895	0.07	245379	keystroke_Key.enter	Key.enter	n/a
122.7655	12.7325	245531	prompt	n/a	transcript beyond gore voted\n
123.731	0.1155	247462	keystroke_t	t	n/a
123.9475	0.2035	247895	keystroke_r	r	n/a
124.3925	0.1575	248785	keystroke_a	a	n/a
124.584	0.1625	249168	keystroke_n	n	n/a
124.7695	0.09	249539	keystroke_s	s	n/a
124.968	0.138	249936	keystroke_c	c	n/a
125.4685	0.046	250937	keystroke_i	i	n/a
125.9845	0.115	251969	keystroke_Key.backspace	Key.backspace	n/a
126.903	0.138	253806	keystroke_r	r	n/a
127.2675	0.093	254535	keystroke_i	i	n/a
127.487	0.115	254974	keystroke_p	p	n/a
127.7	0.1175	255400	keystroke_t	t	n/a
127.9365	0.1355	255873	keystroke_Key.space	Key.space	n/a
128.5875	0.1365	257175	keystroke_b	b	n/a
128.756	0.139	257512	keystroke_e	e	n/a
129.0675	0.16	258135	keystroke_h	h	n/a
129.1135	0.069	258227	keystroke_y	y	n/a
129.8085	0.1365	259617	keystroke_Key.backspace	Key.backspace	n/a
130.028	0.115	260056	keystroke_Key.backspace	Key.backspace	n/a
130.638	0.091	261276	keystroke_y	y	n/a
130.8045	0.114	261609	keystroke_o	o	n/a
131.0625	0.1105	262125	keystroke_n	n	n/a
131.237	0.115	262474	keystroke_d	d	n/a
131.5335	0.137	263067	keystroke_Key.space	Key.space	n/a
132.4835	0.115	264967	keystroke_g	g	n/a
132.5995	0.1105	265199	keystroke_o	o	n/a
132.732	0.0935	265464	keystroke_r	r	n/a
132.9235	0.139	265847	keystroke_e	e	n/a
133.0635	0.1565	266127	keystroke_Key.space	Key.space	n/a
133.824	0.046	267648	keystroke_o	o	n/a
134.2555	0.1135	268511	keystroke_Key.backspace	Key.backspace	n/a
134.412	0.116	268824	keystroke_v	v	n/a
134.55	0.0895	269100	keystroke_o	o	n/a
134.7205	0.118	269441	keystroke_t	t	n/a
134.9245	0.0915	269849	keystroke_e	e	n/a
135.112	0.138	270224	keystroke_d	d	n/a
135.3375	0.159	270675	keystroke_Key.enter	Key.enter	n/a
135.5015	16.8185	271003	prompt	n/a	scholarships trailers amanda nationally\n
136.3845	0.114	272769	keystroke_s	s	n/a
136.5975	0.1365	273195	keystroke_h	h	n/a
136.735	0.09	273470	keystroke_c	c	n/a
136.923	0.046	273846	keystroke_p	p	n/a
137.473	0.136	274946	keystroke_Key.backspace	Key.backspace	n/a
137.7495	0.116	275499	keystroke_o	o	n/a
138.124	0.093	276248	keystroke_Key.backspace	Key.backspace	n/a
138.286	0.1145	276572	keystroke_Key.backspace	Key.backspace	n/a
138.6115	0.1165	277223	keystroke_Key.backspace	Key.backspace	n/a
138.866	0.1595	277732	keystroke_c	c	n/a
139.0945	0.094	278189	keystroke_h	h	n/a
139.27	0.115	278540	keystroke_o	o	n/a
139.457	0.161	278914	keystroke_l	l	n/a
139.595	0.137	279190	keystroke_a	a	n/a
139.733	0.1355	279466	keystroke_r	r	n/a
140.197	0.135	280394	keystroke_h	h	n/a
140.5735	0.114	281147	keystroke_Key.backspace	Key.backspace	n/a
140.798	0.1125	281596	keystroke_s	s	n/a
140.9855	0.046	281971	keystroke_h	h	n/a
141.0085	0.091	282017	keystroke_i	i	n/a
141.978	0.092	283956	keystroke_p	p	n/a
142.197	0.1165	284394	keystroke_s	s	n/a
142.3585	0.1345	284717	keystroke_Key.space	Key.space	n/a
142.8035	0.141	285607	keystroke_t	t	n/a
142.9955	0.139	285991	keystroke_r	r	n/a
143.1555	0.2035	286311	keystroke_a	a	n/a
143.5455	0.115	287091	keystroke_i	i	n/a
143.7575	0.1115	287515	keystroke_l	l	n/a
143.892	0.114	287784	keystroke_e	e	n/a
144.07	0.0925	288140	keystroke_r	r	n/a
144.2815	0.115	288563	keystroke_s	s	n/a
144.4265	0.1385	288853	keystroke_Key.space	Key.space	n/a
144.678	0.115	289356	keystroke_a	a	n/a
144.815	0.1135	289630	keystroke_m	m	n/a
144.9505	0.091	289901	keystroke_a	a	n/a
145.0905	0.092	290181	keystroke_n	n	n/a
145.218	0.114	290436	keystroke_d	d	n/a
145.406	0.113	290812	keystroke_a	a	n/a
145.5805	0.116	291161	keystroke_Key.space	Key.space	n/a
146.095	0.1585	292190	keystroke_n	n	n/a
146.3345	0.16	292669	keystroke_a	a	n/a
146.5175	0.1575	293035	keystroke_t	t	n/a
146.676	0.088	293352	keystroke_i	i	n/a
147.398	0.091	294796	keystroke_o	o	n/a
147.5845	0.071	295169	keystroke_n	n	n/a
147.6085	0.048	295217	keystroke_Key.space	Key.space	n/a
148.6385	0.138	297277	keystroke_a	a	n/a
148.8075	0.069	297615	keystroke_l	l	n/a
149.138	0.114	298276	keystroke_y	y	n/a
150.0435	0.091	300087	keystroke_Key.backspace	Key.backspace	n/a
150.2305	0.1385	300461	keystroke_Key.backspace	Key.backspace	n/a
150.4225	0.183	300845	keystroke_Key.backspace	Key.backspace	n/a
150.8795	0.0905	301759	keystroke_Key.backspace	Key.backspace	n/a
151.2095	0.139	302419	keystroke_a	a	n/a
151.5245	0.0675	303049	keystroke_l	l	n/a
151.661	0.114	303322	keystroke_l	l	n/a
152.0145	0.1355	304029	keystroke_y	y	n/a
152.202	0.1155	304404	keystroke_Key.enter	Key.enter	n/a
152.3265	9.48	304653	prompt	n/a	phantom successful eating friday\n
153.329	0.115	306658	keystroke_p	p	n/a
153.575	0.114	307150	keystroke_h	h	n/a
153.722	0.113	307444	keystroke_a	a	n/a
153.812	0.114	307624	keystroke_n	n	n/a
154.0815	0.094	308163	keystroke_t	t	n/a
154.1975	0.069	308395	keystroke_o	o	n/a
154.383	0.067	308766	keystroke_m	m	n/a
154.6895	0.161	309379	keystroke_Key.space	Key.space	n/a
155.235	0.113	310470	keystroke_s	s	n/a
155.3965	0.136	310793	keystroke_u	u	n/a
155.6235	0.0915	311247	keystroke_c	c	n/a
155.8085	0.1625	311617	keystroke_c	c	n/a
155.994	0.114	311988	keystroke_e	e	n/a
156.218	0.0895	312436	keystroke_s	s	n/a
156.3805	0.093	312761	keystroke_s	s	n/a
156.5635	0.1135	313127	keystroke_f	f	n/a
156.7	0.095	313400	keystroke_u	u	n/a
158.829	0.1135	317658	keystroke_l	l	n/a
158.974	0.1365	317948	keystroke_Key.space	Key.space	n/a
159.0875	0.137	318175	keystroke_e	e	n/a
159.2575	0.2045	318515	keystroke_a	a	n/a
159.438	0.116	318876	keystroke_t	t	n/a
159.576	0.0905	319152	keystroke_i	i	n/a
159.7955	0.071	319591	keystroke_n	n	n/a
159.8885	0.094	319777	keystroke_g	g	n/a
159.9835	0.1135	319967	keystroke_Key.space	Key.space	n/a
160.196	0.091	320392	keystroke_f	f	n/a
160.3935	0.139	320787	keystroke_r	r	n/a
160.553	0.115	321106	keystroke_i	i	n/a
161.0855	0.091	322171	keystroke_d	d	n/a
161.2115	0.1825	322423	keystroke_a	a	n/a
161.395	0.0885	322790	keystroke_y	y	n/a
161.7145	0.0895	323429	keystroke_Key.enter	Key.enter	n/a
161.81	12.099	323620	prompt	n/a	jelsoft which's villas growth\n
163.0085	0.113	326017	keystroke_j	j	n/a
163.153	0.116	326306	keystroke_e	e	n/a
163.309	0.115	326618	keystroke_l	l	n/a
163.467	0.0685	326934	keystroke_s	s	n/a
163.6445	0.139	327289	keystroke_o	o	n/a
163.8355	0.1135	327671	keystroke_f	f	n/a
164.065	0.1355	328130	keystroke_t	t	n/a
164.2705	0.138	328541	keystroke_Key.space	Key.space	n/a
164.4725	0.1135	328945	keystroke_w	w	n/a
164.609	0.069	329218	keystroke_h	h	n/a
164.769	0.115	329538	keystroke_c	c	n/a
166.132	0.136	332264	keystroke_Key.backspace	Key.backspace	n/a
166.4055	0.136	332811	keystroke_i	i	n/a
166.5425	0.1345	333085	keystroke_c	c	n/a
166.719	0.073	333438	keystroke_h	h	n/a
166.742	0.025	333484	keystroke_j	j	n/a
167.8695	0.1375	335739	keystroke_Key.backspace	Key.backspace	n/a
168.799	0.093	337598	keystroke_'	'	n/a
169.0135	0.1155	338027	keystroke_s	s	n/a
169.151	0.138	338302	keystroke_Key.space	Key.space	n/a
169.3925	0.114	338785	keystroke_v	v	n/a
169.5075	0.112	339015	keystroke_i	i	n/a
169.725	0.115	339450	keystroke_a	a	n/a
169.841	0.089	339682	keystroke_l	l	n/a
169.995	0.0695	339990	keystroke_l	l	n/a
170.333	0.071	340666	keystroke_Key.backspace	Key.backspace	n/a
170.482	0.069	340964	keystroke_Key.backspace	Key.backspace	n/a
170.623	0.1135	341246	keystroke_Key.backspace	Key.backspace	n/a
170.955	0.092	341910	keystroke_l	l	n/a
171.127	0.114	342254	keystroke_l	l	n/a
171.2715	0.113	342543	keystroke_a	a	n/a
171.4655	0.1145	342931	keystroke_s	s	n/a
171.644	0.162	343288	keystroke_Key.space	Key.space	n/a
172.315	0.1365	344630	keystroke_g	g	n/a
172.4735	0.161	344947	keystroke_r	r	n/a
172.656	0.159	345312	keystroke_o	o	n/a
172.836	0.047	345672	keystroke_w	w	n/a
173.0035	0.1835	346007	keystroke_t	t	n/a
173.188	0.113	346376	keystroke_h	h	n/a
173.751	0.1555	347502	keystroke_Key.enter	Key.enter	n/a
173.915	17.347	347830	prompt	n/a	we'd've craig vault metallic\n
175.023	0.159	350046	keystroke_w	w	n/a
175.777	0.1355	351554	keystroke_e	e	n/a
177.4355	0.1595	354871	keystroke_'	'	n/a
178.191	0.135	356382	keystroke_d	d	n/a
178.458	0.1125	356916	keystroke_v	v	n/a
179.479	0.136	358958	keystroke_Key.home	Key.home	n/a
179.8515	0.113	359703	keystroke_'	'	n/a
180.228	0.113	360456	keystroke_v	v	n/a
180.4785	0.092	360957	keystroke_e	e	n/a
180.798	0.093	361596	keystroke_Key.backspace	Key.backspace	n/a
180.963	0.0905	361926	keystroke_Key.backspace	Key.backspace	n/a
181.077	0.1385	362154	keystroke_Key.backspace	Key.backspace	n/a
182.4345	0.093	364869	keystroke_Key.right	Key.right	n/a
182.6075	0.1345	365215	keystroke_Key.right	Key.right	n/a
182.838	0.116	365676	keystroke_Key.right	Key.right	n/a
183.1075	0.161	366215	keystroke_Key.right	Key.right	n/a
183.905	0.115	367810	keystroke_'	'	n/a
184.5085	0.137	369017	keystroke_Key.right	Key.right	n/a
184.783	0.113	369566	keystroke_e	e	n/a
185.3145	0.157	370629	keystroke_Key.space	Key.space	n/a
185.806	0.137	371612	keystroke_c	c	n/a
185.974	0.1345	371948	keystroke_r	r	n/a
186.0865	0.158	372173	keystroke_a	a	n/a
186.2455	0.1155	372491	keystroke_i	i	n/a
186.449	0.116	372898	keystroke_g	g	n/a
186.566	0.1335	373132	keystroke_Key.space	Key.space	n/a
187.3615	0.137	374723	keystroke_v	v	n/a
187.4755	0.114	374951	keystroke_a	a	n/a
187.6115	0.1345	375223	keystroke_u	u	n/a
187.854	0.114	375708	keystroke_l	l	n/a
188.003	0.1135	376006	keystroke_t	t	n/a
188.1465	0.14	376293	keystroke_Key.space	Key.space	n/a
188.546	0.1385	377092	keystroke_m	m	n/a
188.7305	0.115	377461	keystroke_e	e	n/a
188.9285	0.1795	377857	keystroke_a	a	n/a
189.3305	0.113	378661	keystroke_t	t	n/a
189.684	0.0925	379368	keystroke_Key.backspace	Key.backspace	n/a
189.8425	0.114	379685	keystroke_Key.backspace	Key.backspace	n/a
189.9785	0.092	379957	keystroke_t	t	n/a
190.0935	0.1805	380187	keystroke_a	a	n/a
190.364	0.069	380728	keystroke_l	l	n/a
190.506	0.1115	381012	keystroke_l	l	n/a
190.7065	0.116	381413	keystroke_i	i	n/a
190.89	0.116	381780	keystroke_x	x	n/a
191.2125	0.048	382425	keystroke_Key.enter	Key.enter	n/a
191.267	13.6135	382534	prompt	n/a	consequence financial swim heath\n
192.439	0.1605	384878	keystroke_c	c	n/a
192.6305	0.115	385261	keystroke_o	o	n/a
192.8345	0.0895	385669	keystroke_n	n	n/a
192.948	0.091	385896	keystroke_s	s	n/a
193.112	0.1385	386224	keystroke_e	e	n/a
193.5705	0.1365	387141	keystroke_u	u	n/a
194.334	0.113	388668	keystroke_Key.backspace	Key.backspace	n/a
194.502	0.089	389004	keystroke_q	q	n/a
194.635	0.1145	389270	keystroke_i	i	n/a
195.261	0.1135	390522	keystroke_Key.backspace	Key.backspace	n/a
195.5875	0.1145	391175	keystroke_u	u	n/a
195.702	0.114	391404	keystroke_e	e	n/a
195.817	0.1135	391634	keystroke_n	n	n/a
195.9315	0.135	391863	keystroke_c	c	n/a
195.9975	0.139	391995	keystroke_e	e	n/a
196.1365	0.1575	392273	keystroke_Key.space	Key.space	n/a
196.898	0.069	393796	keystroke_i	i	n/a
197.3415	0.117	394683	keystroke_Key.backspace	Key.backspace	n/a
197.664	0.113	395328	keystroke_f	f	n/a
197.779	0.0905	395558	keystroke_i	i	n/a
197.9575	0.069	395915	keystroke_n	n	n/a
199.2195	0.138	398439	keystroke_a	a	n/a
199.551	0.1595	399102	keystroke_n	n	n/a
199.7325	0.09	399465	keystroke_i	i	n/a
199.8445	0.116	399689	keystroke_c	c	n/a
199.9355	0.092	399871	keystroke_a	a	n/a
200.057	0.135	400114	keystroke_l	l	n/a
200.214	0.135	400428	keystroke_Key.space	Key.space	n/a
200.4545	0.114	400909	keystroke_s	s	n/a
200.681	0.139	401362	keystroke_w	w	n/a
200.821	0.0655	401642	keystroke_i	i	n/a
201.0105	0.0905	402021	keystroke_m	m	n/a
201.167	0.158	402334	keystroke_Key.space	Key.space	n/a
201.5935	0.114	403187	keystroke_h	h	n/a
201.7855	0.1145	403571	keystroke_e	e	n/a
201.901	0.157	403802	keystroke_a	a	n/a
202.013	0.116	404026	keystroke_l	l	n/a
202.166	0.1625	404332	keystroke_t	t	n/a
202.3045	0.069	404609	keystroke_h	h	n/a
203.331	0.069	406662	keystroke_Key.backspace	Key.backspace	n/a
203.4775	0.071	406955	keystroke_Key.backspace	Key.backspace	n/a
203.6295	0.07	407259	keystroke_Key.backspace	Key.backspace	n/a
204.3745	0.137	408749	keystroke_t	t	n/a
204.4875	0.092	408975	keystroke_h	h	n/a
204.786	0.093	409572	keystroke_Key.enter	Key.enter	n/a
204.8865	8.945	409773	prompt	n/a	reductions recovery bracelets delay\n
205.967	0.115	411934	keystroke_r	r	n/a
206.173	0.091	412346	keystroke_e	e	n/a
206.3605	0.095	412721	keystroke_d	d	n/a
206.5035	0.139	413007	keystroke_u	u	n/a
206.6195	0.1135	413239	keystroke_c	c	n/a
206.855	0.115	413710	keystroke_t	t	n/a
206.991	0.0915	413982	keystroke_i	i	n/a
207.1585	0.089	414317	keystroke_o	o	n/a
207.341	0.093	414682	keystroke_n	n	n/a
207.6195	0.112	415239	keystroke_s	s	n/a
208.039	0.139	416078	keystroke_Key.space	Key.space	n/a
208.3495	0.119	416699	keystroke_r	r	n/a
208.5565	0.0915	417113	keystroke_e	e	n/a
208.756	0.137	417512	keystroke_c	c	n/a
208.915	0.1385	417830	keystroke_o	o	n/a
209.0535	0.091	418107	keystroke_v	v	n/a
209.2285	0.0935	418457	keystroke_e	e	n/a
209.41	0.117	418820	keystroke_r	r	n/a
209.503	0.113	419006	keystroke_y	y	n/a
209.665	0.1385	419330	keystroke_Key.space	Key.space	n/a
210.255	0.115	420510	keystroke_b	b	n/a
210.409	0.1135	420818	keystroke_r	r	n/a
210.5595	0.14	421119	keystroke_a	a	n/a
210.8115	0.1585	421623	keystroke_c	c	n/a
210.923	0.116	421846	keystroke_e	e	n/a
211.104	0.1155	422208	keystroke_l	l	n/a
211.2535	0.137	422507	keystroke_e	e	n/a
211.4445	0.138	422889	keystroke_t	t	n/a
211.697	0.113	423394	keystroke_s	s	n/a
211.833	0.1365	423666	keystroke_Key.space	Key.space	n/a
212.336	0.114	424672	keystroke_d	d	n/a
212.547	0.1135	425094	keystroke_e	e	n/a
212.9505	0.1115	425901	keystroke_l	l	n/a
213.085	0.073	426170	keystroke_a	a	n/a
213.3705	0.136	426741	keystroke_y	y	n/a
213.695	0.134	427390	keystroke_Key.enter	Key.enter	n/a
213.8345	13.749	427669	prompt	n/a	wrapped pharmaceuticals modeling borders\n
214.7365	0.206	429473	keystroke_w	w	n/a
214.9175	0.1855	429835	keystroke_e	e	n/a
215.4505	0.114	430901	keystroke_Key.backspace	Key.backspace	n/a
215.6755	0.1125	431351	keystroke_t	t	n/a
216.371	0.139	432742	keystroke_Key.backspace	Key.backspace	n/a
216.571	0.115	433142	keystroke_r	r	n/a
216.708	0.1585	433416	keystroke_a	a	n/a
216.8675	0.09	433735	keystroke_p	p	n/a
217.0275	0.1125	434055	keystroke_p	p	n/a
217.1625	0.0915	434325	keystroke_e	e	n/a
217.338	0.1375	434676	keystroke_d	d	n/a
217.431	0.1355	434862	keystroke_Key.space	Key.space	n/a
218.3915	0.1155	436783	keystroke_p	p	n/a
218.624	0.113	437248	keystroke_h	h	n/a
218.9955	0.117	437991	keystroke_a	a	n/a
219.1345	0.1365	438269	keystroke_r	r	n/a
219.6105	0.161	439221	keystroke_m	m	n/a
220.0465	0.1145	440093	keystroke_a	a	n/a
220.274	0.1375	440548	keystroke_c	c	n/a
221.9995	0.1155	443999	keystroke_e	e	n/a
222.215	0.136	444430	keystroke_u	u	n/a
222.4375	0.116	444875	keystroke_t	t	n/a
222.5765	0.116	445153	keystroke_i	i	n/a
222.6935	0.1365	445387	keystroke_c	c	n/a
222.782	0.139	445564	keystroke_a	a	n/a
222.943	0.1135	445886	keystroke_l	l	n/a
223.1415	0.113	446283	keystroke_s	s	n/a
223.2565	0.1795	446513	keystroke_Key.space	Key.space	n/a
223.4125	0.1385	446825	keystroke_m	m	n/a
224.4245	0.1595	448849	keystroke_o	o	n/a
224.65	0.091	449300	keystroke_e	e	n/a
224.8435	0.137	449687	keystroke_d	d	n/a
225.0025	0.07	450005	keystroke_l	l	n/a
225.186	0.071	450372	keystroke_i	i	n/a
225.384	0.091	450768	keystroke_n	n	n/a
225.509	0.118	451018	keystroke_g	g	n/a
225.648	0.1375	451296	keystroke_Key.space	Key.space	n/a
226.234	0.091	452468	keystroke_b	b	n/a
226.4165	0.182	452833	keystroke_o	o	n/a
226.5525	0.069	453105	keystroke_r	r	n/a
226.719	0.094	453438	keystroke_d	d	n/a
226.896	0.113	453792	keystroke_e	e	n/a
227.0835	0.115	454167	keystroke_r	r	n/a
227.2985	0.1125	454597	keystroke_s	s	n/a
227.469	0.113	454938	keystroke_Key.enter	Key.enter	n/a
227.5865	9.9515	455173	prompt	n/a	tools master search amounts\n
228.6495	0.1145	457299	keystroke_t	t	n/a
228.786	0.07	457572	keystroke_p	p	n/a
229.1765	0.048	458353	keystroke_l	l	n/a
229.3275	0.0695	458655	keystroke_l	l	n/a
229.598	0.139	459196	keystroke_s	s	n/a
229.762	0.113	459524	keystroke_Key.space	Key.space	n/a
230.1195	0.115	460239	keystroke_Key.backspace	Key.backspace	n/a
230.283	0.069	460566	keystroke_Key.backspace	Key.backspace	n/a
230.454	0.046	460908	keystroke_Key.backspace	Key.backspace	n/a
230.5895	0.072	461179	keystroke_Key.backspace	Key.backspace	n/a
230.8615	0.133	461723	keystroke_Key.backspace	Key.backspace	n/a
231.257	0.07	462514	keystroke_o	o	n/a
231.402	0.0905	462804	keystroke_o	o	n/a
231.5505	0.116	463101	keystroke_l	l	n/a
231.6885	0.1145	463377	keystroke_s	s	n/a
231.7555	0.2075	463511	keystroke_Key.space	Key.space	n/a
231.939	0.161	463878	keystroke_m	m	n/a
232.055	0.116	464110	keystroke_a	a	n/a
232.203	0.0895	464406	keystroke_t	t	n/a
233.257	0.117	466514	keystroke_Key.backspace	Key.backspace	n/a
233.394	0.115	466788	keystroke_s	s	n/a
233.5575	0.092	467115	keystroke_t	t	n/a
233.7115	0.092	467423	keystroke_e	e	n/a
233.887	0.138	467774	keystroke_r	r	n/a
234	0.137	468000	keystroke_Key.space	Key.space	n/a
234.2665	0.248	468533	keystroke_s	s	n/a
234.4265	0.1565	468853	keystroke_e	e	n/a
234.69	0.2065	469380	keystroke_a	a	n/a
234.8265	0.139	469653	keystroke_r	r	n/a
235.128	0.159	470256	keystroke_c	c	n/a
235.373	0.0905	470746	keystroke_g	g	n/a
235.83	0.113	471660	keystroke_Key.space	Key.space	n/a
236.0515	0.094	472103	keystroke_a	a	n/a
236.2065	0.092	472413	keystroke_m	m	n/a
236.4335	0.1825	472867	keystroke_o	o	n/a
236.617	0.0925	473234	keystroke_u	u	n/a
236.8365	0.091	473673	keystroke_n	n	n/a
236.988	0.115	473976	keystroke_t	t	n/a
237.227	0.1145	474454	keystroke_s	s	n/a
237.4435	0.093	474887	keystroke_Key.enter	Key.enter	n/a
237.543	9.7795	475086	prompt	n/a	assurance ntsc value updated\n
238.3525	0.0915	476705	keystroke_a	a	n/a
238.552	0.091	477104	keystroke_s	s	n/a
238.713	0.116	477426	keystroke_s	s	n/a
238.804	0.1395	477608	keystroke_u	u	n/a
238.966	0.112	477932	keystroke_r	r	n/a
239.101	0.159	478202	keystroke_a	a	n/a
239.168	0.094	478336	keystroke_n	n	n/a
239.3035	0.161	478607	keystroke_c	c	n/a
239.3715	0.185	478743	keystroke_e	e	n/a
239.5105	0.1365	479021	keystroke_Key.space	Key.space	n/a
240.544	0.1375	481088	keystroke_n	n	n/a
240.7195	0.114	481439	keystroke_t	t	n/a
240.9965	0.1125	481993	keystroke_s	s	n/a
241.218	0.137	482436	keystroke_c	c	n/a
241.446	0.1375	482892	keystroke_Key.space	Key.space	n/a
241.962	0.135	483924	keystroke_v	v	n/a
242.098	0.1345	484196	keystroke_a	a	n/a
242.2725	0.093	484545	keystroke_u	u	n/a
242.53	0.159	485060	keystroke_l	l	n/a
242.9195	0.069	485839	keystroke_Key.backspace	Key.backspace	n/a
243.0625	0.116	486125	keystroke_Key.backspace	Key.backspace	n/a
243.322	0.071	486644	keystroke_;	;	n/a
243.498	0.1145	486996	keystroke_e	e	n/a
243.952	0.068	487904	keystroke_Key.backspace	Key.backspace	n/a
244.102	0.093	488204	keystroke_Key.backspace	Key.backspace	n/a
244.3185	0.095	488637	keystroke_l	l	n/a
244.5665	0.0705	489133	keystroke_u	u	n/a
244.719	0.095	489438	keystroke_e	e	n/a
244.789	0.114	489578	keystroke_Key.space	Key.space	n/a
245.8255	0.114	491651	keystroke_u	u	n/a
246.0805	0.1365	492161	keystroke_p	p	n/a
246.239	0.118	492478	keystroke_d	d	n/a
246.332	0.162	492664	keystroke_a	a	n/a
246.447	0.1375	492894	keystroke_t	t	n/a
246.5605	0.136	493121	keystroke_e	e	n/a
246.8665	0.1395	493733	keystroke_d	d	n/a
247.208	0.113	494416	keystroke_Key.enter	Key.enter	n/a
247.3255	9.1945	494651	prompt	n/a	maintaining firm generated choices\n
248.2815	0.16	496563	keystroke_m	m	n/a
249.21	0.07	498420	keystroke_a	a	n/a
249.465	0.092	498930	keystroke_i	i	n/a
249.6805	0.071	499361	keystroke_n	n	n/a
249.7525	0.1365	499505	keystroke_t	t	n/a
249.912	0.1835	499824	keystroke_a	a	n/a
250.0965	0.066	500193	keystroke_i	i	n/a
250.28	0.07	500560	keystroke_n	n	n/a
250.8655	0.0685	501731	keystroke_i	i	n/a
251.041	0.07	502082	keystroke_n	n	n/a
251.142	0.092	502284	keystroke_g	g	n/a
251.2555	0.112	502511	keystroke_Key.space	Key.space	n/a
251.6125	0.0925	503225	keystroke_i	i	n/a
252.022	0.1125	504044	keystroke_Key.backspace	Key.backspace	n/a
252.2745	0.07	504549	keystroke_f	f	n/a
252.3675	0.0945	504735	keystroke_i	i	n/a
252.533	0.1365	505066	keystroke_r	r	n/a
252.6705	0.067	505341	keystroke_m	m	n/a
252.872	0.135	505744	keystroke_Key.space	Key.space	n/a
253.73	0.115	507460	keystroke_g	g	n/a
253.926	0.116	507852	keystroke_e	e	n/a
254.065	0.1595	508130	keystroke_n	n	n/a
254.1995	0.117	508399	keystroke_e	e	n/a
254.3845	0.119	508769	keystroke_r	r	n/a
254.5045	0.1805	509009	keystroke_a	a	n/a
254.637	0.118	509274	keystroke_t	t	n/a
254.8535	0.116	509707	keystroke_e	e	n/a
255.0535	0.1385	510107	keystroke_d	d	n/a
255.193	0.137	510386	keystroke_Key.space	Key.space	n/a
255.427	0.113	510854	keystroke_c	c	n/a
255.571	0.0895	511142	keystroke_h	h	n/a
255.7345	0.092	511469	keystroke_o	o	n/a
255.8995	0.113	511799	keystroke_i	i	n/a
256.035	0.115	512070	keystroke_c	c	n/a
256.081	0.117	512162	keystroke_e	e	n/a
256.289	0.1165	512578	keystroke_s	s	n/a
256.4065	0.112	512813	keystroke_Key.enter	Key.enter	n/a
256.523	10.6195	513046	prompt	n/a	gamma tech powers underlying\n
258.231	0.1555	516462	keystroke_g	g	n/a
258.938	0.136	517876	keystroke_a	a	n/a
259.1535	0.071	518307	keystroke_m	m	n/a
259.2895	0.114	518579	keystroke_m	m	n/a
259.471	0.069	518942	keystroke_a	a	n/a
260.268	0.116	520536	keystroke_Key.space	Key.space	n/a
260.5145	0.0905	521029	keystroke_t	t	n/a
260.6995	0.092	521399	keystroke_e	e	n/a
260.9075	0.1825	521815	keystroke_c	c	n/a
261.151	0.1815	522302	keystroke_h	h	n/a
261.3705	0.1585	522741	keystroke_Key.space	Key.space	n/a
262.1225	0.1125	524245	keystroke_p	p	n/a
262.301	0.138	524602	keystroke_o	o	n/a
262.44	0.09	524880	keystroke_e	e	n/a
262.5935	0.138	525187	keystroke_r	r	n/a
263.4805	0.091	526961	keystroke_Key.backspace	Key.backspace	n/a
263.63	0.114	527260	keystroke_Key.backspace	Key.backspace	n/a
263.745	0.2085	527490	keystroke_w	w	n/a
263.86	0.1625	527720	keystroke_e	e	n/a
264.0915	0.115	528183	keystroke_r	r	n/a
264.314	0.115	528628	keystroke_s	s	n/a
264.404	0.114	528808	keystroke_Key.space	Key.space	n/a
265.289	0.092	530578	keystroke_u	u	n/a
265.484	0.1175	530968	keystroke_n	n	n/a
265.6025	0.113	531205	keystroke_d	d	n/a
265.7985	0.1345	531597	keystroke_e	e	n/a
265.991	0.1175	531982	keystroke_r	r	n/a
266.1435	0.135	532287	keystroke_l	l	n/a
266.386	0.09	532772	keystroke_y	y	n/a
266.5595	0.092	533119	keystroke_i	i	n/a
266.725	0.07	533450	keystroke_n	n	n/a
266.828	0.112	533656	keystroke_g	g	n/a
267.049	0.0915	534098	keystroke_Key.enter	Key.enter	n/a
267.1465	6.3545	534293	prompt	n/a	junior chest leone worlds\n
268.224	0.0925	536448	keystroke_j	j	n/a
268.4055	0.07	536811	keystroke_u	u	n/a
268.5895	0.068	537179	keystroke_n	n	n/a
268.7345	0.069	537469	keystroke_i	i	n/a
268.8785	0.1145	537757	keystroke_o	o	n/a
269.025	0.091	538050	keystroke_r	r	n/a
269.153	0.1375	538306	keystroke_Key.space	Key.space	n/a
269.4765	0.1355	538953	keystroke_c	c	n/a
269.613	0.134	539226	keystroke_h	h	n/a
269.769	0.156	539538	keystroke_e	e	n/a
270.0295	0.161	540059	keystroke_s	s	n/a
270.2275	0.138	540455	keystroke_t	t	n/a
270.3675	0.1335	540735	keystroke_Key.space	Key.space	n/a
270.739	0.1595	541478	keystroke_l	l	n/a
270.9205	0.1185	541841	keystroke_e	e	n/a
271.07	0.113	542140	keystroke_o	o	n/a
271.2895	0.071	542579	keystroke_n	n	n/a
271.4115	0.091	542823	keystroke_e	e	n/a
271.5245	0.0915	543049	keystroke_Key.space	Key.space	n/a
272.306	0.138	544612	keystroke_w	w	n/a
272.467	0.1135	544934	keystroke_o	o	n/a
272.6025	0.115	545205	keystroke_r	r	n/a
272.7655	0.068	545531	keystroke_l	l	n/a
272.8555	0.1145	545711	keystroke_d	d	n/a
273.063	0.093	546126	keystroke_s	s	n/a
273.3845	0.115	546769	keystroke_Key.enter	Key.enter	n/a
273.504	19.8825	547008	prompt	n/a	cover prospective provide programme\n
274.408	0.113	548816	keystroke_c	c	n/a
274.522	0.135	549044	keystroke_o	o	n/a
274.687	0.0915	549374	keystroke_v	v	n/a
274.8455	0.115	549691	keystroke_e	e	n/a
275.0455	0.1175	550091	keystroke_r	r	n/a
275.255	0.1365	550510	keystroke_Key.space	Key.space	n/a
275.45	0.115	550900	keystroke_[	[	n/a
275.5875	0.135	551175	keystroke_r	r	n/a
275.7235	0.114	551447	keystroke_p	p	n/a
276.4325	0.0915	552865	keystroke_Key.backspace	Key.backspace	n/a
276.587	0.093	553174	keystroke_Key.backspace	Key.backspace	n/a
276.715	0.091	553430	keystroke_Key.backspace	Key.backspace	n/a
276.9135	0.112	553827	keystroke_p	p	n/a
277.0615	0.134	554123	keystroke_r	r	n/a
277.1965	0.1115	554393	keystroke_o	o	n/a
277.309	0.09	554618	keystroke_c	c	n/a
277.353	0.135	554706	keystroke_e	e	n/a
277.594	0.0925	555188	keystroke_s	s	n/a
277.7085	0.114	555417	keystroke_p	p	n/a
277.8435	0.07	555687	keystroke_e	e	n/a
278.0045	0.1385	556009	keystroke_c	c	n/a
278.279	0.093	556558	keystroke_g	g	n/a
278.302	0.093	556604	keystroke_t	t	n/a
278.43	0.069	556860	keystroke_i	i	n/a
278.5495	0.09	557099	keystroke_v	v	n/a
278.7185	0.1365	557437	keystroke_e	e	n/a
278.83	0.14	557660	keystroke_Key.space	Key.space	n/a
279.1485	0.069	558297	keystroke_Key.backspace	Key.backspace	n/a
279.2975	0.067	558595	keystroke_Key.backspace	Key.backspace	n/a
279.4355	0.069	558871	keystroke_Key.backspace	Key.backspace	n/a
279.5825	0.069	559165	keystroke_Key.backspace	Key.backspace	n/a
279.7265	0.2015	559453	keystroke_Key.backspace	Key.backspace	n/a
279.978	0.138	559956	keystroke_t	t	n/a
280.1375	0.089	560275	keystroke_i	i	n/a
280.4355	0.068	560871	keystroke_Key.backspace	Key.backspace	n/a
280.592	0.047	561184	keystroke_Key.backspace	Key.backspace	n/a
280.734	0.071	561468	keystroke_Key.backspace	Key.backspace	n/a
280.864	0.1345	561728	keystroke_t	t	n/a
281.0005	0.066	562001	keystroke_i	i	n/a
281.1305	0.092	562261	keystroke_v	v	n/a
281.288	0.14	562576	keystroke_e	e	n/a
281.403	0.093	562806	keystroke_Key.space	Key.space	n/a
283.4025	0.092	566805	keystroke_Key.backspace	Key.backspace	n/a
283.555	0.096	567110	keystroke_Key.backspace	Key.backspace	n/a
283.8355	0.14	567671	keystroke_s	s	n/a
284.0135	0.117	568027	keystroke_p	p	n/a
284.1065	0.0965	568213	keystroke_e	e	n/a
284.303	0.135	568606	keystroke_c	c	n/a
284.531	0.115	569062	keystroke_t	t	n/a
284.668	0.068	569336	keystroke_i	i	n/a
284.77	0.072	569540	keystroke_v	v	n/a
284.9395	0.068	569879	keystroke_e	e	n/a
285.0435	0.117	570087	keystroke_Key.space	Key.space	n/a
285.505	0.1835	571010	keystroke_p	p	n/a
285.7105	0.138	571421	keystroke_r	r	n/a
285.888	0.139	571776	keystroke_i	i	n/a
286.049	0.115	572098	keystroke_v	v	n/a
286.185	0.0905	572370	keystroke_i	i	n/a
286.3245	0.073	572649	keystroke_d	d	n/a
286.5005	0.116	573001	keystroke_e	e	n/a
286.6175	0.1335	573235	keystroke_Key.space	Key.space	n/a
287.1665	0.068	574333	keystroke_Key.backspace	Key.backspace	n/a
287.3365	0.0485	574673	keystroke_Key.backspace	Key.backspace	n/a
287.565	0.067	575130	keystroke_Key.backspace	Key.backspace	n/a
287.705	0.1575	575410	keystroke_Key.backspace	Key.backspace	n/a
287.9445	0.113	575889	keystroke_Key.backspace	Key.backspace	n/a
288.1235	0.0705	576247	keystroke_Key.backspace	Key.backspace	n/a
288.754	0.1135	577508	keystroke_o	o	n/a
288.9405	0.114	577881	keystroke_v	v	n/a
289.0305	0.117	578061	keystroke_i	i	n/a
289.1695	0.0715	578339	keystroke_d	d	n/a
289.346	0.138	578692	keystroke_e	e	n/a
289.436	0.139	578872	keystroke_Key.space	Key.space	n/a
290.9665	0.159	581933	keystroke_p	p	n/a
291.287	0.138	582574	keystroke_r	r	n/a
291.479	0.1345	582958	keystroke_o	o	n/a
291.6615	0.068	583323	keystroke_g	g	n/a
291.8155	0.1135	583631	keystroke_r	r	n/a
291.991	0.138	583982	keystroke_a	a	n/a
292.13	0.0675	584260	keystroke_m	m	n/a
292.2655	0.093	584531	keystroke_m	m	n/a
292.4175	0.114	584835	keystroke_e	e	n/a
293.2485	0.1365	586497	keystroke_Key.enter	Key.enter	n/a
293.39	10.2535	586780	prompt	n/a	refund ladies malta positioning\n
294.0985	0.0925	588197	keystroke_r	r	n/a
294.286	0.091	588572	keystroke_e	e	n/a
294.468	0.1135	588936	keystroke_f	f	n/a
294.6285	0.115	589257	keystroke_u	u	n/a
294.886	0.091	589772	keystroke_n	n	n/a
295.032	0.114	590064	keystroke_d	d	n/a
295.177	0.0695	590354	keystroke_Key.space	Key.space	n/a
295.4005	0.1375	590801	keystroke_l	l	n/a
295.559	0.092	591118	keystroke_a	a	n/a
295.9685	0.1135	591937	keystroke_d	d	n/a
296.13	0.1385	592260	keystroke_i	i	n/a
296.221	0.0935	592442	keystroke_e	e	n/a
296.4035	0.1145	592807	keystroke_s	s	n/a
296.519	0.115	593038	keystroke_Key.space	Key.space	n/a
296.8565	0.138	593713	keystroke_m	m	n/a
297.0585	0.115	594117	keystroke_a	a	n/a
297.207	0.121	594414	keystroke_l	l	n/a
297.45	0.1575	594900	keystroke_t	t	n/a
297.696	0.112	595392	keystroke_a	a	n/a
297.829	0.1115	595658	keystroke_Key.space	Key.space	n/a
298.869	0.09	597738	keystroke_p	p	n/a
299.043	0.1155	598086	keystroke_o	o	n/a
299.1805	0.069	598361	keystroke_s	s	n/a
299.3655	0.0905	598731	keystroke_i	i	n/a
299.516	0.09	599032	keystroke_t	t	n/a
299.628	0.094	599256	keystroke_i	i	n/a
299.8025	0.092	599605	keystroke_o	o	n/a
300.398	0.0915	600796	keystroke_n	n	n/a
300.6775	0.093	601355	keystroke_i	i	n/a
300.872	0.047	601744	keystroke_n	n	n/a
300.966	0.09	601932	keystroke_g	g	n/a
301.079	0.1135	602158	keystroke_Key.space	Key.space	n/a
303.5285	0.114	607057	keystroke_Key.enter	Key.enter	n/a
303.648	8.8545	607296	prompt	n/a	confusion spending behavioral safety\n
304.477	0.116	608954	keystroke_c	c	n/a
304.646	0.088	609292	keystroke_o	o	n/a
304.8015	0.092	609603	keystroke_n	n	n/a
304.9475	0.091	609895	keystroke_f	f	n/a
305.0885	0.092	610177	keystroke_u	u	n/a
305.2295	0.1175	610459	keystroke_s	s	n/a
305.322	0.071	610644	keystroke_i	i	n/a
305.891	0.0915	611782	keystroke_o	o	n/a
306.0995	0.067	612199	keystroke_n	n	n/a
306.264	0.094	612528	keystroke_Key.space	Key.space	n/a
306.538	0.1115	613076	keystroke_s	s	n/a
306.6505	0.091	613301	keystroke_p	p	n/a
306.7645	0.089	613529	keystroke_e	e	n/a
307.4885	0.1155	614977	keystroke_n	n	n/a
307.683	0.093	615366	keystroke_d	d	n/a
307.838	0.072	615676	keystroke_i	i	n/a
308.0115	0.07	616023	keystroke_n	n	n/a
308.1125	0.096	616225	keystroke_g	g	n/a
308.2085	0.09	616417	keystroke_Key.space	Key.space	n/a
309.0515	0.1375	618103	keystroke_b	b	n/a
309.21	0.138	618420	keystroke_e	e	n/a
309.349	0.1155	618698	keystroke_h	h	n/a
309.4655	0.114	618931	keystroke_v	v	n/a
309.5325	0.136	619065	keystroke_a	a	n/a
309.6905	0.071	619381	keystroke_i	i	n/a
309.839	0.113	619678	keystroke_o	o	n/a
309.975	0.092	619950	keystroke_r	r	n/a
310.15	0.1155	620300	keystroke_a	a	n/a
310.2665	0.114	620533	keystroke_l	l	n/a
310.4115	0.1115	620823	keystroke_Key.space	Key.space	n/a
311.276	0.117	622552	keystroke_s	s	n/a
311.394	0.2275	622788	keystroke_a	a	n/a
311.5975	0.16	623195	keystroke_f	f	n/a
311.7805	0.162	623561	keystroke_e	e	n/a
311.973	0.139	623946	keystroke_t	t	n/a
312.113	0.088	624226	keystroke_y	y	n/a
312.4095	0.091	624819	keystroke_Key.enter	Key.enter	n/a
312.506	9.2955	625012	prompt	n/a	intro option protective hottest\n
313.737	0.091	627474	keystroke_i	i	n/a
313.898	0.07	627796	keystroke_n	n	n/a
314	0.1155	628000	keystroke_t	t	n/a
314.2635	0.067	628527	keystroke_o	o	n/a
314.414	0.1615	628828	keystroke_Key.space	Key.space	n/a
314.6175	0.114	629235	keystroke_o	o	n/a
314.8135	0.0905	629627	keystroke_p	p	n/a
314.968	0.114	629936	keystroke_r	r	n/a
315.124	0.1135	630248	keystroke_i	i	n/a
315.3475	0.068	630695	keystroke_o	o	n/a
315.629	0.069	631258	keystroke_Key.backspace	Key.backspace	n/a
315.931	0.0925	631862	keystroke_Key.backspace	Key.backspace	n/a
316.0795	0.113	632159	keystroke_Key.backspace	Key.backspace	n/a
316.2145	0.114	632429	keystroke_t	t	n/a
316.397	0.05	632794	keystroke_i	i	n/a
316.421	0.073	632842	keystroke_o	o	n/a
317.4365	0.094	634873	keystroke_n	n	n/a
317.752	0.117	635504	keystroke_Key.space	Key.space	n/a
318.48	0.138	636960	keystroke_p	p	n/a
318.9475	0.091	637895	keystroke_r	r	n/a
319.0395	0.136	638079	keystroke_o	o	n/a
319.1765	0.0895	638353	keystroke_t	t	n/a
319.371	0.093	638742	keystroke_e	e	n/a
319.584	0.1155	639168	keystroke_c	c	n/a
319.8005	0.117	639601	keystroke_t	t	n/a
319.8925	0.1145	639785	keystroke_i	i	n/a
320.038	0.0675	640076	keystroke_v	v	n/a
320.1995	0.114	640399	keystroke_e	e	n/a
320.3365	0.0935	640673	keystroke_Key.space	Key.space	n/a
320.543	0.135	641086	keystroke_h	h	n/a
320.71	0.1145	641420	keystroke_o	o	n/a
320.8465	0.09	641693	keystroke_t	t	n/a
320.9975	0.114	641995	keystroke_t	t	n/a
321.204	0.115	642408	keystroke_e	e	n/a
321.397	0.137	642794	keystroke_s	s	n/a
321.555	0.1375	643110	keystroke_t	t	n/a
321.7315	0.068	643463	keystroke_Key.enter	Key.enter	n/a
321.807	16.1535	643614	prompt	n/a	unlikely themes damaged exposure\n
322.931	0.115	645862	keystroke_u	u	n/a
323.1765	0.092	646353	keystroke_n	n	n/a
323.3775	0.091	646755	keystroke_l	l	n/a
323.544	0.093	647088	keystroke_i	i	n/a
323.7725	0.0915	647545	keystroke_k	k	n/a
323.886	0.112	647772	keystroke_e	e	n/a
324.055	0.114	648110	keystroke_l	l	n/a
324.3345	0.114	648669	keystroke_y	y	n/a
324.4995	0.1615	648999	keystroke_Key.space	Key.space	n/a
324.75	0.138	649500	keystroke_t	t	n/a
324.865	0.1135	649730	keystroke_h	h	n/a
325.0915	0.049	650183	keystroke_e	e	n/a
325.2125	0.069	650425	keystroke_r	r	n/a
325.7815	0.113	651563	keystroke_Key.backspace	Key.backspace	n/a
326.079	0.07	652158	keystroke_m	m	n/a
326.171	0.113	652342	keystroke_e	e	n/a
326.362	0.1355	652724	keystroke_s	s	n/a
326.4285	0.139	652857	keystroke_e	e	n/a
326.5685	0.1145	653137	keystroke_Key.space	Key.space	n/a
326.893	0.116	653786	keystroke_d	d	n/a
327.0605	0.138	654121	keystroke_a	a	n/a
327.1995	0.092	654399	keystroke_m	m	n/a
327.3135	0.1375	654627	keystroke_a	a	n/a
327.484	0.096	654968	keystroke_g	g	n/a
327.672	0.0915	655344	keystroke_e	e	n/a
327.8435	0.115	655687	keystroke_d	d	n/a
327.9595	0.1115	655919	keystroke_Key.space	Key.space	n/a
329.2585	0.0675	658517	keystroke_Key.backspace	Key.backspace	n/a
330.0125	0.137	660025	keystroke_s	s	n/a
330.104	0.137	660208	keystroke_e	e	n/a
330.242	0.138	660484	keystroke_Key.space	Key.space	n/a
330.7825	0.069	661565	keystroke_Key.backspace	Key.backspace	n/a
331.095	0.091	662190	keystroke_Key.backspace	Key.backspace	n/a
331.263	0.0915	662526	keystroke_Key.backspace	Key.backspace	n/a
332.695	0.1135	665390	keystroke_s	s	n/a
332.8605	0.116	665721	keystroke_Key.space	Key.space	n/a
333.0685	0.0885	666137	keystroke_d	d	n/a
333.5845	0.115	667169	keystroke_e	e	n/a
334.221	0.112	668442	keystroke_Key.backspace	Key.backspace	n/a
334.479	0.071	668958	keystroke_a	a	n/a
334.594	0.0915	669188	keystroke_m	m	n/a
334.7075	0.157	669415	keystroke_a	a	n/a
334.8875	0.071	669775	keystroke_g	g	n/a
335.043	0.114	670086	keystroke_e	e	n/a
335.252	0.115	670504	keystroke_d	d	n/a
335.368	0.1385	670736	keystroke_Key.space	Key.space	n/a
336.031	0.09	672062	keystroke_e	e	n/a
336.3335	0.159	672667	keystroke_x	x	n/a
336.5675	0.118	673135	keystroke_p	p	n/a
336.762	0.116	673524	keystroke_o	o	n/a
336.948	0.092	673896	keystroke_s	s	n/a
337.2175	0.14	674435	keystroke_u	u	n/a
337.447	0.115	674894	keystroke_r	r	n/a
337.652	0.1305	675304	keystroke_e	e	n/a
337.8235	0.135	675647	keystroke_Key.enter	Key.enter	n/a
337.963	10.759	675926	prompt	n/a	boom pipes during cleveland\n
339.353	0.112	678706	keystroke_b	b	n/a
339.569	0.091	679138	keystroke_o	o	n/a
339.7185	0.116	679437	keystroke_o	o	n/a
339.9755	0.09	679951	keystroke_m	m	n/a
340.151	0.137	680302	keystroke_Key.space	Key.space	n/a
340.263	0.071	680526	keystroke_p	p	n/a
340.438	0.0905	680876	keystroke_i	i	n/a
340.6325	0.116	681265	keystroke_p	p	n/a
340.7715	0.0935	681543	keystroke_e	e	n/a
341.007	0.114	682014	keystroke_s	s	n/a
341.206	0.069	682412	keystroke_Key.space	Key.space	n/a
341.3595	0.115	682719	keystroke_d	d	n/a
341.4755	0.09	682951	keystroke_u	u	n/a
341.6095	0.115	683219	keystroke_r	r	n/a
341.7255	0.089	683451	keystroke_i	i	n/a
341.9695	0.1385	683939	keystroke_g	g	n/a
342.109	0.022	684218	keystroke_Key.space	Key.space	n/a
342.792	0.093	685584	keystroke_Key.backspace	Key.backspace	n/a
342.983	0.0915	685966	keystroke_Key.backspace	Key.backspace	n/a
343.9405	0.091	687881	keystroke_n	n	n/a
344.342	0.0915	688684	keystroke_g	g	n/a
346.18	0.1575	692360	keystroke_Key.space	Key.space	n/a
346.4435	0.114	692887	keystroke_c	c	n/a
346.989	0.1365	693978	keystroke_l	l	n/a
347.1265	0.11	694253	keystroke_e	e	n/a
347.3585	0.1125	694717	keystroke_v	v	n/a
347.531	0.114	695062	keystroke_e	e	n/a
347.716	0.0735	695432	keystroke_l	l	n/a
347.9655	0.137	695931	keystroke_a	a	n/a
348.1235	0.07	696247	keystroke_n	n	n/a
348.293	0.112	696586	keystroke_d	d	n/a
348.6055	0.115	697211	keystroke_Key.enter	Key.enter	n/a
348.7265	9.815	697453	prompt	n/a	arise depend blend batteries\n
349.6405	0.1385	699281	keystroke_a	a	n/a
349.801	0.1135	699602	keystroke_r	r	n/a
349.9475	0.138	699895	keystroke_i	i	n/a
350.388	0.228	700776	keystroke_s	s	n/a
350.592	0.094	701184	keystroke_e	e	n/a
350.708	0.1365	701416	keystroke_Key.space	Key.space	n/a
350.8215	0.0705	701643	keystroke_d	d	n/a
351.0045	0.113	702009	keystroke_e	e	n/a
351.327	0.115	702654	keystroke_e	e	n/a
351.9095	0.139	703819	keystroke_Key.backspace	Key.backspace	n/a
352.273	0.116	704546	keystroke_p	p	n/a
352.4115	0.091	704823	keystroke_e	e	n/a
352.5545	0.0915	705109	keystroke_m	m	n/a
352.724	0.138	705448	keystroke_d	d	n/a
352.837	0.1165	705674	keystroke_Key.space	Key.space	n/a
353.252	0.093	706504	keystroke_Key.backspace	Key.backspace	n/a
353.414	0.047	706828	keystroke_Key.backspace	Key.backspace	n/a
353.579	0.0685	707158	keystroke_Key.backspace	Key.backspace	n/a
353.7415	0.071	707483	keystroke_Key.backspace	Key.backspace	n/a
354.248	0.1125	708496	keystroke_e	e	n/a
354.584	0.071	709168	keystroke_n	n	n/a
354.8125	0.158	709625	keystroke_d	d	n/a
354.9715	0.1335	709943	keystroke_Key.space	Key.space	n/a
355.653	0.092	711306	keystroke_b	b	n/a
355.8445	0.115	711689	keystroke_l	l	n/a
355.9605	0.0895	711921	keystroke_e	e	n/a
356.123	0.092	712246	keystroke_n	n	n/a
356.2915	0.116	712583	keystroke_d	d	n/a
356.4425	0.114	712885	keystroke_Key.space	Key.space	n/a
357.1745	0.1355	714349	keystroke_b	b	n/a
357.311	0.134	714622	keystroke_a	a	n/a
357.399	0.092	714798	keystroke_t	t	n/a
357.582	0.093	715164	keystroke_t	t	n/a
357.7515	0.092	715503	keystroke_e	e	n/a
357.9125	0.091	715825	keystroke_r	r	n/a
358.0245	0.1145	716049	keystroke_i	i	n/a
358.14	0.089	716280	keystroke_e	e	n/a
358.327	0.093	716654	keystroke_s	s	n/a
358.45	0.0895	716900	keystroke_Key.enter	Key.enter	n/a
358.545	9.8505	717090	prompt	n/a	impression carried citysearch physically\n
359.628	0.092	719256	keystroke_i	i	n/a
359.831	0.094	719662	keystroke_m	m	n/a
360.0085	0.114	720017	keystroke_p	p	n/a
360.1865	0.115	720373	keystroke_r	r	n/a
360.381	0.092	720762	keystroke_e	e	n/a
360.558	0.089	721116	keystroke_s	s	n/a
360.7365	0.1155	721473	keystroke_s	s	n/a
360.8255	0.0945	721651	keystroke_i	i	n/a
361.003	0.091	722006	keystroke_o	o	n/a
361.2035	0.115	722407	keystroke_n	n	n/a
361.3395	0.162	722679	keystroke_Key.space	Key.space	n/a
361.4755	0.1635	722951	keystroke_c	c	n/a
361.5475	0.1385	723095	keystroke_a	a	n/a
361.64	0.091	723280	keystroke_r	r	n/a
361.82	0.1355	723640	keystroke_r	r	n/a
361.9975	0.138	723995	keystroke_i	i	n/a
362.1585	0.091	724317	keystroke_e	e	n/a
362.344	0.138	724688	keystroke_d	d	n/a
362.459	0.114	724918	keystroke_Key.space	Key.space	n/a
363.128	0.163	726256	keystroke_c	c	n/a
363.265	0.14	726530	keystroke_i	i	n/a
363.4995	0.114	726999	keystroke_t	t	n/a
363.6505	0.112	727301	keystroke_y	y	n/a
363.8005	0.2065	727601	keystroke_s	s	n/a
364.045	0.1375	728090	keystroke_e	e	n/a
364.4865	0.1825	728973	keystroke_a	a	n/a
364.644	0.138	729288	keystroke_r	r	n/a
364.9625	0.158	729925	keystroke_c	c	n/a
365.6415	0.1145	731283	keystroke_h	h	n/a
365.884	0.114	731768	keystroke_Key.space	Key.space	n/a
366.68	0.134	733360	keystroke_p	p	n/a
366.9445	0.091	733889	keystroke_h	h	n/a
367.1475	0.07	734295	keystroke_y	y	n/a
367.241	0.136	734482	keystroke_s	s	n/a
367.378	0.136	734756	keystroke_i	i	n/a
367.537	0.1175	735074	keystroke_c	c	n/a
367.6055	0.116	735211	keystroke_a	a	n/a
367.7225	0.068	735445	keystroke_l	l	n/a
367.8615	0.092	735723	keystroke_l	l	n/a
368.059	0.115	736118	keystroke_y	y	n/a
368.279	0.115	736558	keystroke_Key.enter	Key.enter	n/a
368.399	14.3015	736798	prompt	n/a	closing infected nowhere clone\n
369.209	0.1115	738418	keystroke_c	c	n/a
369.3455	0.115	738691	keystroke_l	l	n/a
369.5355	0.091	739071	keystroke_o	o	n/a
369.6475	0.1145	739295	keystroke_s	s	n/a
369.763	0.044	739526	keystroke_i	i	n/a
369.9225	0.069	739845	keystroke_n	n	n/a
370.0135	0.1155	740027	keystroke_g	g	n/a
370.104	0.117	740208	keystroke_Key.space	Key.space	n/a
370.222	0.09	740444	keystroke_i	i	n/a
370.392	0.069	740784	keystroke_n	n	n/a
370.5935	0.157	741187	keystroke_f	f	n/a
370.7745	0.1135	741549	keystroke_e	e	n/a
371.0085	0.092	742017	keystroke_c	c	n/a
371.1015	0.022	742203	keystroke_x	x	n/a
371.218	0.1145	742436	keystroke_t	t	n/a
371.3835	0.094	742767	keystroke_e	e	n/a
371.565	0.117	743130	keystroke_d	d	n/a
371.713	0.181	743426	keystroke_Key.space	Key.space	n/a
372.0555	0.07	744111	keystroke_Key.backspace	Key.backspace	n/a
372.1965	0.071	744393	keystroke_Key.backspace	Key.backspace	n/a
372.2885	0.0235	744577	keystroke_Key.backspace	Key.backspace	n/a
372.407	0.047	744814	keystroke_Key.backspace	Key.backspace	n/a
372.554	0.091	745108	keystroke_Key.backspace	Key.backspace	n/a
372.7345	0.048	745469	keystroke_Key.backspace	Key.backspace	n/a
373.291	0.139	746582	keystroke_c	c	n/a
373.4605	0.091	746921	keystroke_e	e	n/a
373.6235	0.024	747247	keystroke_e	e	n/a
373.6485	0.1395	747297	keystroke_t	t	n/a
373.738	0.1175	747476	keystroke_e	e	n/a
373.9255	0.094	747851	keystroke_d	d	n/a
374.0415	0.116	748083	keystroke_Key.space	Key.space	n/a
374.255	0.115	748510	keystroke_n	n	n/a
374.5115	0.183	749023	keystroke_w	w	n/a
374.6015	0.182	749203	keystroke_e	e	n/a
374.8265	0.1365	749653	keystroke_h	h	n/a
375.003	0.139	750006	keystroke_e	e	n/a
375.201	0.0915	750402	keystroke_r	r	n/a
375.3845	0.159	750769	keystroke_e	e	n/a
375.4735	0.14	750947	keystroke_Key.space	Key.space	n/a
375.805	0.114	751610	keystroke_Key.backspace	Key.backspace	n/a
376.001	0.069	752002	keystroke_Key.backspace	Key.backspace	n/a
376.1745	0.046	752349	keystroke_Key.backspace	Key.backspace	n/a
376.3145	0.069	752629	keystroke_Key.backspace	Key.backspace	n/a
376.4645	0.048	752929	keystroke_Key.backspace	Key.backspace	n/a
376.5985	0.0685	753197	keystroke_Key.backspace	Key.backspace	n/a
376.868	0.115	753736	keystroke_Key.backspace	Key.backspace	n/a
377.2345	0.113	754469	keystroke_o	o	n/a
377.4005	0.1585	754801	keystroke_w	w	n/a
377.4465	0.2055	754893	keystroke_e	e	n/a
377.653	0.1345	755306	keystroke_h	h	n/a
377.8545	0.138	755709	keystroke_e	e	n/a
378.062	0.092	756124	keystroke_r	r	n/a
378.266	0.1625	756532	keystroke_e	e	n/a
378.38	0.1615	756760	keystroke_Key.space	Key.space	n/a
378.883	0.07	757766	keystroke_Key.backspace	Key.backspace	n/a
379.051	0.068	758102	keystroke_Key.backspace	Key.backspace	n/a
379.205	0.069	758410	keystroke_Key.backspace	Key.backspace	n/a
379.348	0.071	758696	keystroke_Key.backspace	Key.backspace	n/a
379.498	0.0685	758996	keystroke_Key.backspace	Key.backspace	n/a
379.6415	0.092	759283	keystroke_Key.backspace	Key.backspace	n/a
380.4275	0.09	760855	keystroke_h	h	n/a
380.5625	0.1355	761125	keystroke_e	e	n/a
380.751	0.092	761502	keystroke_r	r	n/a
380.928	0.139	761856	keystroke_e	e	n/a
381.088	0.1385	762176	keystroke_Key.space	Key.space	n/a
381.9385	0.093	763877	keystroke_c	c	n/a
382.0885	0.093	764177	keystroke_l	l	n/a
382.2435	0.1165	764487	keystroke_o	o	n/a
382.361	0.157	764722	keystroke_s	s	n/a
382.45	0.136	764900	keystroke_e	e	n/a
382.608	0.0905	765216	keystroke_Key.enter	Key.enter	n/a
382.704	7.095	765408	prompt	n/a	go ricky powers besides\n
383.7185	0.092	767437	keystroke_g	g	n/a
383.936	0.138	767872	keystroke_o	o	n/a
384.05	0.139	768100	keystroke_Key.space	Key.space	n/a
384.24	0.136	768480	keystroke_r	r	n/a
384.406	0.114	768812	keystroke_i	i	n/a
384.6255	0.1365	769251	keystroke_c	c	n/a
384.763	0.114	769526	keystroke_k	k	n/a
385.0755	0.141	770151	keystroke_y	y	n/a
385.2835	0.1115	770567	keystroke_Key.space	Key.space	n/a
385.614	0.115	771228	keystroke_p	p	n/a
385.8235	0.161	771647	keystroke_o	o	n/a
386.0065	0.045	772013	keystroke_w	w	n/a
386.0525	0.048	772105	keystroke_e	e	n/a
386.187	0.137	772374	keystroke_r	r	n/a
386.8885	0.069	773777	keystroke_Key.backspace	Key.backspace	n/a
387.5985	0.1145	775197	keystroke_r	r	n/a
387.862	0.138	775724	keystroke_s	s	n/a
388.021	0.069	776042	keystroke_Key.space	Key.space	n/a
388.668	0.139	777336	keystroke_b	b	n/a
388.784	0.0905	777568	keystroke_e	e	n/a
388.9825	0.115	777965	keystroke_s	s	n/a
389.0735	0.115	778147	keystroke_i	i	n/a
389.2095	0.0915	778419	keystroke_d	d	n/a
389.415	0.119	778830	keystroke_e	e	n/a
389.613	0.0925	779226	keystroke_s	s	n/a
389.7065	0.091	779413	keystroke_Key.enter	Key.enter	n/a
389.802	9.691	779604	prompt	n/a	eight infection cure opportunity\n
390.9505	0.1865	781901	keystroke_e	e	n/a
391.11	0.118	782220	keystroke_i	i	n/a
391.273	0.093	782546	keystroke_g	g	n/a
391.342	0.093	782684	keystroke_h	h	n/a
391.458	0.1145	782916	keystroke_t	t	n/a
391.5735	0.137	783147	keystroke_Key.space	Key.space	n/a
391.6865	0.092	783373	keystroke_i	i	n/a
391.8345	0.1135	783669	keystroke_n	n	n/a
391.979	0.069	783958	keystroke_f	f	n/a
392.3215	0.0935	784643	keystroke_e	e	n/a
393.1185	0.072	786237	keystroke_c	c	n/a
393.329	0.114	786658	keystroke_t	t	n/a
393.419	0.094	786838	keystroke_i	i	n/a
393.591	0.1125	787182	keystroke_o	o	n/a
393.8305	0.091	787661	keystroke_n	n	n/a
394.07	0.1375	788140	keystroke_Key.space	Key.space	n/a
394.6345	0.116	789269	keystroke_c	c	n/a
394.8095	0.1145	789619	keystroke_u	u	n/a
394.956	0.094	789912	keystroke_r	r	n/a
395.167	0.1145	790334	keystroke_e	e	n/a
395.4505	0.136	790901	keystroke_Key.space	Key.space	n/a
396.1245	0.069	792249	keystroke_o	o	n/a
396.3315	0.0685	792663	keystroke_p	p	n/a
396.45	0.071	792900	keystroke_p	p	n/a
396.692	0.1375	793384	keystroke_o	o	n/a
396.8855	0.09	793771	keystroke_r	r	n/a
397.0695	0.093	794139	keystroke_t	t	n/a
397.253	0.116	794506	keystroke_u	u	n/a
397.476	0.067	794952	keystroke_n	n	n/a
397.6355	0.115	795271	keystroke_i	i	n/a
397.949	0.137	795898	keystroke_y	y	n/a
398.4055	0.092	796811	keystroke_Key.backspace	Key.backspace	n/a
398.5915	0.092	797183	keystroke_t	t	n/a
398.806	0.07	797612	keystroke_y	y	n/a
399.3975	0.0895	798795	keystroke_Key.enter	Key.enter	n/a
399.4965	7.004	798993	prompt	n/a	belongs skirts motel credit\n
400.519	0.068	801038	keystroke_b	b	n/a
400.658	0.1355	801316	keystroke_e	e	n/a
400.7475	0.092	801495	keystroke_l	l	n/a
400.9425	0.068	801885	keystroke_o	o	n/a
401.1035	0.1135	802207	keystroke_n	n	n/a
401.219	0.068	802438	keystroke_g	g	n/a
401.401	0.073	802802	keystroke_s	s	n/a
401.4955	0.09	802991	keystroke_Key.space	Key.space	n/a
401.6915	0.092	803383	keystroke_s	s	n/a
401.7845	0.0895	803569	keystroke_k	k	n/a
402.7055	0.1115	805411	keystroke_i	i	n/a
402.92	0.092	805840	keystroke_r	r	n/a
403.111	0.0915	806222	keystroke_t	t	n/a
403.3295	0.118	806659	keystroke_s	s	n/a
403.4485	0.0885	806897	keystroke_Key.space	Key.space	n/a
403.735	0.112	807470	keystroke_m	m	n/a
403.9415	0.114	807883	keystroke_o	o	n/a
404.0295	0.092	808059	keystroke_t	t	n/a
404.2075	0.0935	808415	keystroke_e	e	n/a
404.394	0.137	808788	keystroke_l	l	n/a
404.532	0.114	809064	keystroke_Key.space	Key.space	n/a
404.9435	0.14	809887	keystroke_c	c	n/a
405.1375	0.092	810275	keystroke_r	r	n/a
405.3325	0.068	810665	keystroke_e	e	n/a
405.508	0.113	811016	keystroke_d	d	n/a
405.623	0.091	811246	keystroke_i	i	n/a
405.836	0.0895	811672	keystroke_t	t	n/a
406.405	0.094	812810	keystroke_Key.enter	Key.enter	n/a
406.5045	6.811	813009	prompt	n/a	revenues jackets everyday swap\n
407.3305	0.0895	814661	keystroke_r	r	n/a
407.526	0.069	815052	keystroke_e	e	n/a
407.694	0.069	815388	keystroke_v	v	n/a
407.82	0.1605	815640	keystroke_e	e	n/a
407.9335	0.116	815867	keystroke_n	n	n/a
408.1885	0.1165	816377	keystroke_u	u	n/a
408.327	0.095	816654	keystroke_e	e	n/a
408.521	0.0915	817042	keystroke_s	s	n/a
408.6645	0.07	817329	keystroke_Key.space	Key.space	n/a
409.3465	0.1145	818693	keystroke_j	j	n/a
409.483	0.135	818966	keystroke_a	a	n/a
409.649	0.1125	819298	keystroke_c	c	n/a
409.7915	0.139	819583	keystroke_k	k	n/a
409.8385	0.138	819677	keystroke_e	e	n/a
410.0465	0.1135	820093	keystroke_t	t	n/a
410.263	0.0945	820526	keystroke_s	s	n/a
410.3895	0.1365	820779	keystroke_Key.space	Key.space	n/a
410.641	0.115	821282	keystroke_e	e	n/a
410.836	0.0915	821672	keystroke_v	v	n/a
411.0035	0.092	822007	keystroke_e	e	n/a
411.1765	0.0895	822353	keystroke_r	r	n/a
411.267	0.1145	822534	keystroke_y	y	n/a
411.3825	0.113	822765	keystroke_d	d	n/a
411.5265	0.1355	823053	keystroke_a	a	n/a
411.707	0.067	823414	keystroke_y	y	n/a
411.879	0.116	823758	keystroke_Key.space	Key.space	n/a
412.2635	0.1195	824527	keystroke_s	s	n/a
412.528	0.092	825056	keystroke_w	w	n/a
412.6425	0.134	825285	keystroke_a	a	n/a
412.8815	0.116	825763	keystroke_p	p	n/a
413.2215	0.093	826443	keystroke_Key.enter	Key.enter	n/a
413.3185	9.514	826637	prompt	n/a	dozen okay oxide baseball\n
415.1085	0.117	830217	keystroke_d	d	n/a
415.2675	0.1395	830535	keystroke_o	o	n/a
415.438	0.159	830876	keystroke_z	z	n/a
415.551	0.1145	831102	keystroke_e	e	n/a
415.7005	0.093	831401	keystroke_n	n	n/a
415.9535	0.1165	831907	keystroke_Key.space	Key.space	n/a
416.93	0.07	833860	keystroke_o	o	n/a
417.092	0.1125	834184	keystroke_k	k	n/a
417.2255	0.091	834451	keystroke_a	a	n/a
417.4355	0.092	834871	keystroke_y	y	n/a
417.583	0.114	835166	keystroke_Key.space	Key.space	n/a
418.4345	0.138	836869	keystroke_o	o	n/a
418.737	0.136	837474	keystroke_x	x	n/a
418.849	0.115	837698	keystroke_i	i	n/a
419.032	0.1135	838064	keystroke_d	d	n/a
419.2425	0.138	838485	keystroke_e	e	n/a
419.4025	0.114	838805	keystroke_Key.space	Key.space	n/a
420.041	0.114	840082	keystroke_b	b	n/a
420.155	0.1575	840310	keystroke_a	a	n/a
420.2905	0.162	840581	keystroke_s	s	n/a
420.3575	0.118	840715	keystroke_e	e	n/a
420.588	0.117	841176	keystroke_b	b	n/a
420.744	0.095	841488	keystroke_a	a	n/a
420.87	0.0915	841740	keystroke_l	l	n/a
421.0185	0.09	842037	keystroke_l	l	n/a
421.2135	0.046	842427	keystroke_'	'	n/a
422.484	0.1155	844968	keystroke_Key.backspace	Key.backspace	n/a
422.739	0.092	845478	keystroke_Key.enter	Key.enter	n/a
422.836	17.032	845672	prompt	n/a	responsible virgin forces retention\n
423.65	0.092	847300	keystroke_r	r	n/a
423.847	0.092	847694	keystroke_e	e	n/a
424.0285	0.112	848057	keystroke_s	s	n/a
424.1635	0.114	848327	keystroke_p	p	n/a
424.3595	0.1155	848719	keystroke_o	o	n/a
424.72	0.095	849440	keystroke_s	s	n/a
424.816	0.088	849632	keystroke_i	i	n/a
425.3285	0.1135	850657	keystroke_Key.backspace	Key.backspace	n/a
425.8615	0.1145	851723	keystroke_Key.backspace	Key.backspace	n/a
426.258	0.069	852516	keystroke_n	n	n/a
426.4085	0.115	852817	keystroke_i	i	n/a
426.5585	0.09	853117	keystroke_s	s	n/a
426.6485	0.069	853297	keystroke_b	b	n/a
426.768	0.114	853536	keystroke_l	l	n/a
426.928	0.117	853856	keystroke_e	e	n/a
427.02	0.1365	854040	keystroke_Key.space	Key.space	n/a
428.362	0.072	856724	keystroke_Key.backspace	Key.backspace	n/a
428.531	0.2255	857062	keystroke_Key.backspace	Key.backspace	n/a
428.8415	0.069	857683	keystroke_Key.backspace	Key.backspace	n/a
428.9715	0.093	857943	keystroke_Key.backspace	Key.backspace	n/a
429.086	0.114	858172	keystroke_Key.backspace	Key.backspace	n/a
429.252	0.07	858504	keystroke_Key.backspace	Key.backspace	n/a
429.813	0.115	859626	keystroke_s	s	n/a
429.929	0.089	859858	keystroke_i	i	n/a
430.0975	0.092	860195	keystroke_b	b	n/a
430.2415	0.114	860483	keystroke_l	l	n/a
430.3915	0.118	860783	keystroke_e	e	n/a
430.5095	0.1365	861019	keystroke_Key.space	Key.space	n/a
431.1275	0.135	862255	keystroke_v	v	n/a
431.3445	0.2055	862689	keystroke_i	i	n/a
431.6995	0.0925	863399	keystroke_f	f	n/a
432.5085	0.1175	865017	keystroke_Key.backspace	Key.backspace	n/a
432.706	0.091	865412	keystroke_r	r	n/a
432.873	0.07	865746	keystroke_i	i	n/a
433.005	0.0885	866010	keystroke_f	f	n/a
433.1255	0.046	866251	keystroke_i	i	n/a
433.467	0.071	866934	keystroke_Key.backspace	Key.backspace	n/a
433.628	0.047	867256	keystroke_Key.backspace	Key.backspace	n/a
433.754	0.0925	867508	keystroke_Key.backspace	Key.backspace	n/a
433.9175	0.068	867835	keystroke_f	f	n/a
434.0375	0.066	868075	keystroke_i	i	n/a
434.196	0.069	868392	keystroke_n	n	n/a
434.7125	0.072	869425	keystroke_Key.backspace	Key.backspace	n/a
434.869	0.069	869738	keystroke_Key.backspace	Key.backspace	n/a
435.003	0.089	870006	keystroke_Key.backspace	Key.backspace	n/a
435.134	0.115	870268	keystroke_g	g	n/a
435.271	0.0685	870542	keystroke_i	i	n/a
435.4295	0.07	870859	keystroke_n	n	n/a
435.6265	0.115	871253	keystroke_Key.space	Key.space	n/a
436.9925	0.137	873985	keystroke_f	f	n/a
437.2095	0.1375	874419	keystroke_o	o	n/a
437.323	0.116	874646	keystroke_r	r	n/a
437.6905	0.138	875381	keystroke_c	c	n/a
437.7805	0.113	875561	keystroke_e	e	n/a
438.0015	0.0915	876003	keystroke_s	s	n/a
438.135	0.116	876270	keystroke_Key.space	Key.space	n/a
438.227	0.114	876454	keystroke_r	r	n/a
438.404	0.1145	876808	keystroke_e	e	n/a
438.5805	0.093	877161	keystroke_t	t	n/a
438.7265	0.116	877453	keystroke_e	e	n/a
438.7935	0.072	877587	keystroke_n	n	n/a
439.034	0.114	878068	keystroke_t	t	n/a
439.125	0.069	878250	keystroke_i	i	n/a
439.2725	0.092	878545	keystroke_o	o	n/a
439.4095	0.1365	878819	keystroke_n	n	n/a
439.774	0.0925	879548	keystroke_Key.enter	Key.enter	n/a
439.871	11.872	879742	prompt	n/a	chicks milk cancellation hope\n
440.9795	0.1135	881959	keystroke_c	c	n/a
441.125	0.139	882250	keystroke_h	h	n/a
441.195	0.161	882390	keystroke_i	i	n/a
441.689	0.113	883378	keystroke_k	k	n/a
443.01	0.137	886020	keystroke_Key.backspace	Key.backspace	n/a
443.207	0.0925	886414	keystroke_c	c	n/a
443.3435	0.091	886687	keystroke_k	k	n/a
443.4955	0.093	886991	keystroke_s	s	n/a
443.6095	0.0935	887219	keystroke_Key.space	Key.space	n/a
443.871	0.1385	887742	keystroke_m	m	n/a
444.1225	0.136	888245	keystroke_i	i	n/a
444.424	0.093	888848	keystroke_l	l	n/a
444.8435	0.112	889687	keystroke_k	k	n/a
445.0375	0.1365	890075	keystroke_Key.space	Key.space	n/a
445.256	0.114	890512	keystroke_c	c	n/a
445.346	0.117	890692	keystroke_a	a	n/a
445.484	0.0705	890968	keystroke_n	n	n/a
445.5785	0.116	891157	keystroke_c	c	n/a
445.6255	0.16	891251	keystroke_e	e	n/a
445.8155	0.0685	891631	keystroke_l	l	n/a
446.0395	0.133	892079	keystroke_a	a	n/a
446.1285	0.136	892257	keystroke_t	t	n/a
446.63	0.0685	893260	keystroke_Key.backspace	Key.backspace	n/a
446.7735	0.092	893547	keystroke_Key.backspace	Key.backspace	n/a
447.072	0.113	894144	keystroke_l	l	n/a
447.27	0.135	894540	keystroke_t	t	n/a
447.293	0.046	894586	keystroke_a	a	n/a
447.427	0.071	894854	keystroke_o	o	n/a
447.5665	0.0705	895133	keystroke_o	o	n/a
448.0675	0.071	896135	keystroke_Key.backspace	Key.backspace	n/a
448.2285	0.0675	896457	keystroke_Key.backspace	Key.backspace	n/a
448.371	0.091	896742	keystroke_Key.backspace	Key.backspace	n/a
448.8335	0.116	897667	keystroke_Key.backspace	Key.backspace	n/a
449.126	0.116	898252	keystroke_a	a	n/a
449.171	0.165	898342	keystroke_t	t	n/a
449.417	0.0925	898834	keystroke_i	i	n/a
449.5955	0.136	899191	keystroke_o	o	n/a
449.8075	0.092	899615	keystroke_n	n	n/a
450.046	0.137	900092	keystroke_Key.space	Key.space	n/a
450.935	0.116	901870	keystroke_h	h	n/a
451.1345	0.115	902269	keystroke_o	o	n/a
451.3325	0.069	902665	keystroke_p	p	n/a
451.4235	0.092	902847	keystroke_e	e	n/a
451.622	0.119	903244	keystroke_Key.enter	Key.enter	n/a
451.7475	14.7095	903495	prompt	n/a	visitor satisfied changes bones\n
452.913	0.112	905826	keystroke_v	v	n/a
453.048	0.092	906096	keystroke_i	i	n/a
453.174	0.1365	906348	keystroke_s	s	n/a
453.2405	0.139	906481	keystroke_i	i	n/a
453.4505	0.1145	906901	keystroke_t	t	n/a
454.468	0.115	908936	keystroke_o	o	n/a
454.622	0.1345	909244	keystroke_r	r	n/a
454.8515	0.137	909703	keystroke_Key.space	Key.space	n/a
455.435	0.137	910870	keystroke_s	s	n/a
455.7785	0.094	911557	keystroke_a	a	n/a
456.028	0.117	912056	keystroke_t	t	n/a
456.268	0.113	912536	keystroke_i	i	n/a
457.1265	0.116	914253	keystroke_s	s	n/a
457.5455	0.1355	915091	keystroke_i	i	n/a
458.093	0.115	916186	keystroke_=	=	n/a
458.378	0.067	916756	keystroke_f	f	n/a
458.4745	0.072	916949	keystroke_i	i	n/a
458.659	0.0935	917318	keystroke_f	f	n/a
458.706	0.1385	917412	keystroke_i	i	n/a
458.8905	0.093	917781	keystroke_e	e	n/a
459.096	0.115	918192	keystroke_d	d	n/a
459.212	0.067	918424	keystroke_Key.backspace	Key.backspace	n/a
459.376	0.069	918752	keystroke_Key.backspace	Key.backspace	n/a
459.8585	0.1135	919717	keystroke_Key.backspace	Key.backspace	n/a
460.056	0.093	920112	keystroke_Key.backspace	Key.backspace	n/a
460.198	0.118	920396	keystroke_Key.backspace	Key.backspace	n/a
460.9545	0.138	921909	keystroke_Key.backspace	Key.backspace	n/a
461.3095	0.092	922619	keystroke_Key.backspace	Key.backspace	n/a
461.478	0.117	922956	keystroke_Key.backspace	Key.backspace	n/a
462.584	0.0905	925168	keystroke_f	f	n/a
462.6965	0.14	925393	keystroke_i	i	n/a
462.8765	0.091	925753	keystroke_e	e	n/a
463.0595	0.1335	926119	keystroke_d	d	n/a
463.194	0.137	926388	keystroke_Key.space	Key.space	n/a
463.9105	0.115	927821	keystroke_c	c	n/a
464.0265	0.089	928053	keystroke_h	h	n/a
464.159	0.116	928318	keystroke_a	a	n/a
464.2515	0.1135	928503	keystroke_n	n	n/a
464.366	0.069	928732	keystroke_g	g	n/a
464.536	0.0685	929072	keystroke_e	e	n/a
464.7125	0.139	929425	keystroke_s	s	n/a
464.8525	0.1365	929705	keystroke_Key.space	Key.space	n/a
465.532	0.09	931064	keystroke_b	b	n/a
465.72	0.1135	931440	keystroke_o	o	n/a
465.9125	0.067	931825	keystroke_n	n	n/a
466.0105	0.07	932021	keystroke_e	e	n/a
466.1785	0.1145	932357	keystroke_s	s	n/a
466.341	0.111	932682	keystroke_Key.enter	Key.enter	n/a
466.4595	11.6975	932919	prompt	n/a	private bizrate dude terrorism\n
467.5785	0.1375	935157	keystroke_p	p	n/a
467.717	0.113	935434	keystroke_r	r	n/a
467.831	0.135	935662	keystroke_i	i	n/a
467.967	0.1555	935934	keystroke_v	v	n/a
468.2005	0.138	936401	keystroke_a	a	n/a
468.3155	0.07	936631	keystroke_t	t	n/a
468.469	0.114	936938	keystroke_e	e	n/a
468.604	0.138	937208	keystroke_Key.space	Key.space	n/a
469.5535	0.092	939107	keystroke_b	b	n/a
469.7575	0.162	939515	keystroke_i	i	n/a
470.4595	0.117	940919	keystroke_z	z	n/a
470.712	0.114	941424	keystroke_r	r	n/a
470.857	0.2055	941714	keystroke_a	a	n/a
471.0395	0.113	942079	keystroke_t	t	n/a
471.2605	0.1355	942521	keystroke_e	e	n/a
471.451	0.134	942902	keystroke_Key.space	Key.space	n/a
472.1015	0.089	944203	keystroke_d	d	n/a
472.211	0.092	944422	keystroke_u	u	n/a
472.304	0.091	944608	keystroke_d	d	n/a
472.54	0.1575	945080	keystroke_e	e	n/a
472.6725	0.135	945345	keystroke_Key.space	Key.space	n/a
473.6805	0.0915	947361	keystroke_t	t	n/a
473.888	0.072	947776	keystroke_e	e	n/a
474.045	0.0905	948090	keystroke_r	r	n/a
474.2165	0.115	948433	keystroke_r	r	n/a
474.3755	0.1135	948751	keystroke_o	o	n/a
474.567	0.091	949134	keystroke_i	i	n/a
474.718	0.092	949436	keystroke_s	s	n/a
474.8315	0.092	949663	keystroke_m	m	n/a
476.1725	0.09	952345	keystroke_Key.backspace	Key.backspace	n/a
476.338	0.09	952676	keystroke_Key.backspace	Key.backspace	n/a
476.514	0.095	953028	keystroke_Key.backspace	Key.backspace	n/a
476.7895	0.116	953579	keystroke_r	r	n/a
477.436	0.1145	954872	keystroke_i	i	n/a
477.6145	0.091	955229	keystroke_s	s	n/a
477.7585	0.091	955517	keystroke_m	m	n/a
478.017	0.138	956034	keystroke_Key.enter	Key.enter	n/a
478.16	8.6225	956320	prompt	n/a	suspected staffing watching extending\n
478.997	0.0925	957994	keystroke_s	s	n/a
479.1205	0.111	958241	keystroke_u	u	n/a
479.2545	0.137	958509	keystroke_s	s	n/a
479.426	0.157	958852	keystroke_p	p	n/a
479.537	0.093	959074	keystroke_e	e	n/a
479.738	0.1375	959476	keystroke_c	c	n/a
479.9795	0.116	959959	keystroke_t	t	n/a
480.18	0.094	960360	keystroke_e	e	n/a
480.381	0.091	960762	keystroke_d	d	n/a
480.4945	0.113	960989	keystroke_Key.space	Key.space	n/a
480.6095	0.136	961219	keystroke_s	s	n/a
480.7835	0.1145	961567	keystroke_t	t	n/a
480.92	0.115	961840	keystroke_a	a	n/a
481.079	0.091	962158	keystroke_f	f	n/a
481.2455	0.135	962491	keystroke_f	f	n/a
481.4055	0.092	962811	keystroke_i	i	n/a
481.5905	0.0885	963181	keystroke_n	n	n/a
481.702	0.115	963404	keystroke_g	g	n/a
481.818	0.0905	963636	keystroke_Key.space	Key.space	n/a
482.817	0.1115	965634	keystroke_w	w	n/a
482.9495	0.1825	965899	keystroke_a	a	n/a
483.109	0.138	966218	keystroke_t	t	n/a
483.3685	0.136	966737	keystroke_c	c	n/a
483.5055	0.091	967011	keystroke_h	h	n/a
483.5725	0.0905	967145	keystroke_i	i	n/a
483.743	0.071	967486	keystroke_n	n	n/a
483.862	0.092	967724	keystroke_g	g	n/a
483.9765	0.136	967953	keystroke_Key.space	Key.space	n/a
484.96	0.0945	969920	keystroke_e	e	n/a
485.2265	0.16	970453	keystroke_x	x	n/a
485.519	0.071	971038	keystroke_t	t	n/a
485.707	0.0915	971414	keystroke_e	e	n/a
485.8215	0.047	971643	keystroke_n	n	n/a
485.9255	0.115	971851	keystroke_d	d	n/a
486.0165	0.09	972033	keystroke_i	i	n/a
486.211	0.071	972422	keystroke_n	n	n/a
486.305	0.114	972610	keystroke_g	g	n/a
486.6675	0.113	973335	keystroke_Key.enter	Key.enter	n/a
486.785	7.915	973570	prompt	n/a	newly belief creation basis\n
487.826	0.115	975652	keystroke_n	n	n/a
487.917	0.141	975834	keystroke_e	e	n/a
487.9875	0.162	975975	keystroke_w	w	n/a
488.1255	0.14	976251	keystroke_l	l	n/a
488.4075	0.0905	976815	keystroke_y	y	n/a
488.527	0.0695	977054	keystroke_Key.space	Key.space	n/a
488.7445	0.116	977489	keystroke_b	b	n/a
488.8925	0.115	977785	keystroke_r	r	n/a
489.0995	0.1375	978199	keystroke_i	i	n/a
489.271	0.092	978542	keystroke_e	e	n/a
489.491	0.091	978982	keystroke_f	f	n/a
489.6755	0.114	979351	keystroke_Key.space	Key.space	n/a
489.8925	0.1135	979785	keystroke_c	c	n/a
490.072	0.115	980144	keystroke_r	r	n/a
490.2655	0.1375	980531	keystroke_e	e	n/a
490.404	0.205	980808	keystroke_a	a	n/a
490.561	0.1385	981122	keystroke_t	t	n/a
490.7545	0.115	981509	keystroke_i	i	n/a
490.9575	0.093	981915	keystroke_o	o	n/a
491.246	0.05	982492	keystroke_n	n	n/a
492.1965	0.091	984393	keystroke_Key.space	Key.space	n/a
492.3795	0.091	984759	keystroke_b	b	n/a
492.5015	0.1155	985003	keystroke_a	a	n/a
493.0175	0.093	986035	keystroke_s	s	n/a
493.2525	0.091	986505	keystroke_s	s	n/a
493.9555	0.115	987911	keystroke_Key.backspace	Key.backspace	n/a
494.274	0.114	988548	keystroke_i	i	n/a
494.434	0.113	988868	keystroke_s	s	n/a
494.6075	0.091	989215	keystroke_Key.enter	Key.enter	n/a
494.704	10.1555	989408	prompt	n/a	tragedy marks kenneth gothic\n
495.748	0.137	991496	keystroke_t	t	n/a
495.984	0.114	991968	keystroke_r	r	n/a
496.1525	0.205	992305	keystroke_a	a	n/a
496.3805	0.046	992761	keystroke_g	g	n/a
496.538	0.046	993076	keystroke_e	e	n/a
496.699	0.116	993398	keystroke_d	d	n/a
496.9335	0.093	993867	keystroke_y	y	n/a
497.0975	0.138	994195	keystroke_Key.space	Key.space	n/a
497.34	0.139	994680	keystroke_m	m	n/a
497.502	0.116	995004	keystroke_a	a	n/a
497.594	0.1395	995188	keystroke_r	r	n/a
497.7575	0.114	995515	keystroke_k	k	n/a
497.9055	0.068	995811	keystroke_s	s	n/a
498.1465	0.1145	996293	keystroke_Key.space	Key.space	n/a
499.011	0.115	998022	keystroke_k	k	n/a
499.159	0.094	998318	keystroke_e	e	n/a
499.281	0.046	998562	keystroke_n	n	n/a
499.3995	0.092	998799	keystroke_n	n	n/a
499.4925	0.112	998985	keystroke_e	e	n/a
499.7025	0.1345	999405	keystroke_t	t	n/a
499.814	0.113	999628	keystroke_h	h	n/a
500.025	0.1145	1000050	keystroke_Key.space	Key.space	n/a
500.771	0.093	1001542	keystroke_g	g	n/a
501.0365	0.115	1002073	keystroke_t	t	n/a
501.521	0.092	1003042	keystroke_Key.backspace	Key.backspace	n/a
501.783	0.113	1003566	keystroke_o	o	n/a
501.977	0.1135	1003954	keystroke_t	t	n/a
502.1895	0.09	1004379	keystroke_h	h	n/a
502.2335	0.139	1004467	keystroke_i	i	n/a
502.483	0.139	1004966	keystroke_c	c	n/a
504.766	0.091	1009532	keystroke_Key.enter	Key.enter	n/a
504.862	12.428	1009724	prompt	n/a	prediction indigenous animation gods\n
506.0985	0.114	1012197	keystroke_p	p	n/a
506.2145	0.068	1012429	keystroke_r	r	n/a
506.373	0.093	1012746	keystroke_e	e	n/a
506.569	0.069	1013138	keystroke_d	d	n/a
506.679	0.1365	1013358	keystroke_i	i	n/a
506.7915	0.114	1013583	keystroke_c	c	n/a
507.448	0.113	1014896	keystroke_t	t	n/a
507.536	0.0925	1015072	keystroke_i	i	n/a
507.6925	0.115	1015385	keystroke_o	o	n/a
507.8915	0.0685	1015783	keystroke_n	n	n/a
508.05	0.205	1016100	keystroke_Key.space	Key.space	n/a
508.186	0.093	1016372	keystroke_i	i	n/a
508.364	0.1155	1016728	keystroke_n	n	n/a
509.4505	0.158	1018901	keystroke_d	d	n/a
509.8405	0.136	1019681	keystroke_i	i	n/a
510.173	0.116	1020346	keystroke_g	g	n/a
510.373	0.1345	1020746	keystroke_e	e	n/a
510.5495	0.09	1021099	keystroke_n	n	n/a
510.804	0.183	1021608	keystroke_o	o	n/a
510.871	0.091	1021742	keystroke_u	u	n/a
511.053	0.1355	1022106	keystroke_s	s	n/a
511.1655	0.139	1022331	keystroke_Key.space	Key.space	n/a
511.621	0.092	1023242	keystroke_a	a	n/a
511.767	0.093	1023534	keystroke_n	n	n/a
512.1735	0.049	1024347	keystroke_m	m	n/a
512.656	0.066	1025312	keystroke_Key.backspace	Key.backspace	n/a
512.956	0.0495	1025912	keystroke_u	u	n/a
513.464	0.047	1026928	keystroke_Key.backspace	Key.backspace	n/a
513.725	0.1155	1027450	keystroke_i	i	n/a
514.009	0.09	1028018	keystroke_m	m	n/a
514.179	0.14	1028358	keystroke_a	a	n/a
514.2715	0.1385	1028543	keystroke_t	t	n/a
514.412	0.089	1028824	keystroke_i	i	n/a
514.597	0.0905	1029194	keystroke_o	o	n/a
515.133	0.071	1030266	keystroke_n	n	n/a
515.328	0.1135	1030656	keystroke_Key.space	Key.space	n/a
515.6075	0.093	1031215	keystroke_d	d	n/a
515.7025	0.1105	1031405	keystroke_o	o	n/a
516.4525	0.068	1032905	keystroke_Key.backspace	Key.backspace	n/a
516.5925	0.0915	1033185	keystroke_Key.backspace	Key.backspace	n/a
516.724	0.068	1033448	keystroke_g	g	n/a
516.823	0.118	1033646	keystroke_o	o	n/a
516.963	0.0685	1033926	keystroke_d	d	n/a
517.1265	0.117	1034253	keystroke_s	s	n/a
517.2175	0.071	1034435	keystroke_Key.enter	Key.enter	n/a
517.2935	9.1355	1034587	prompt	n/a	citizen whom'st acrobat coding\n
518.21	0.138	1036420	keystroke_c	c	n/a
518.371	0.115	1036742	keystroke_i	i	n/a
518.5635	0.094	1037127	keystroke_t	t	n/a
518.6085	0.1395	1037217	keystroke_i	i	n/a
519	0.1165	1038000	keystroke_z	z	n/a
519.1835	0.161	1038367	keystroke_e	e	n/a
519.3215	0.07	1038643	keystroke_n	n	n/a
519.5215	0.0925	1039043	keystroke_Key.space	Key.space	n/a
520.4875	0.135	1040975	keystroke_w	w	n/a
520.6445	0.139	1041289	keystroke_h	h	n/a
520.7595	0.112	1041519	keystroke_o	o	n/a
520.9965	0.0695	1041993	keystroke_m	m	n/a
521.929	0.165	1043858	keystroke_'	'	n/a
522.067	0.0955	1044134	keystroke_s	s	n/a
522.2785	0.117	1044557	keystroke_t	t	n/a
522.4715	0.1375	1044943	keystroke_Key.space	Key.space	n/a
523.377	0.1165	1046754	keystroke_a	a	n/a
523.5595	0.093	1047119	keystroke_c	c	n/a
523.774	0.116	1047548	keystroke_r	r	n/a
523.891	0.113	1047782	keystroke_o	o	n/a
524.106	0.115	1048212	keystroke_b	b	n/a
524.197	0.1145	1048394	keystroke_a	a	n/a
524.3605	0.115	1048721	keystroke_t	t	n/a
524.5245	0.1155	1049049	keystroke_Key.space	Key.space	n/a
525.189	0.113	1050378	keystroke_c	c	n/a
525.303	0.1335	1050606	keystroke_o	o	n/a
525.438	0.09	1050876	keystroke_d	d	n/a
525.8755	0.0925	1051751	keystroke_i	i	n/a
526.057	0.07	1052114	keystroke_n	n	n/a
526.148	0.092	1052296	keystroke_g	g	n/a
526.3135	0.114	1052627	keystroke_Key.enter	Key.enter	n/a
526.4335	10.264	1052867	prompt	n/a	lamps andale lights explosion\n
527.558	0.115	1055116	keystroke_l	l	n/a
527.723	0.094	1055446	keystroke_a	a	n/a
527.8405	0.093	1055681	keystroke_m	m	n/a
528.266	0.114	1056532	keystroke_s	s	n/a
528.7505	0.114	1057501	keystroke_Key.backspace	Key.backspace	n/a
529.0395	0.093	1058079	keystroke_p	p	n/a
529.1835	0.07	1058367	keystroke_s	s	n/a
529.3685	0.1615	1058737	keystroke_Key.space	Key.space	n/a
529.782	0.135	1059564	keystroke_a	a	n/a
529.988	0.138	1059976	keystroke_n	n	n/a
530.3075	0.112	1060615	keystroke_d	d	n/a
530.4415	0.117	1060883	keystroke_a	a	n/a
530.6185	0.1345	1061237	keystroke_l	l	n/a
530.815	0.112	1061630	keystroke_e	e	n/a
531.0485	0.159	1062097	keystroke_Key.space	Key.space	n/a
531.42	0.141	1062840	keystroke_l	l	n/a
531.664	0.1125	1063328	keystroke_i	i	n/a
531.7985	0.07	1063597	keystroke_g	g	n/a
531.8915	0.095	1063783	keystroke_h	h	n/a
531.9875	0.112	1063975	keystroke_t	t	n/a
532.235	0.135	1064470	keystroke_s	s	n/a
532.325	0.134	1064650	keystroke_Key.space	Key.space	n/a
532.6765	0.116	1065353	keystroke_e	e	n/a
532.963	0.139	1065926	keystroke_x	x	n/a
533.103	0.114	1066206	keystroke_[	[	n/a
533.3295	0.138	1066659	keystroke_l	l	n/a
533.696	0.116	1067392	keystroke_o	o	n/a
534.4305	0.0915	1068861	keystroke_Key.backspace	Key.backspace	n/a
534.577	0.068	1069154	keystroke_Key.backspace	Key.backspace	n/a
534.742	0.0925	1069484	keystroke_Key.backspace	Key.backspace	n/a
535.445	0.071	1070890	keystroke_p	p	n/a
535.6065	0.0935	1071213	keystroke_l	l	n/a
535.785	0.07	1071570	keystroke_o	o	n/a
535.906	0.0945	1071812	keystroke_s	s	n/a
535.975	0.0735	1071950	keystroke_i	i	n/a
536.1265	0.069	1072253	keystroke_o	o	n/a
536.2585	0.0905	1072517	keystroke_n	n	n/a
536.602	0.0935	1073204	keystroke_Key.enter	Key.enter	n/a
536.701	6.374	1073402	prompt	n/a	shaved presents feof materials\n
537.471	0.1185	1074942	keystroke_s	s	n/a
537.5905	0.112	1075181	keystroke_h	h	n/a
537.6785	0.163	1075357	keystroke_a	a	n/a
537.8425	0.112	1075685	keystroke_v	v	n/a
538.027	0.116	1076054	keystroke_e	e	n/a
538.256	0.1585	1076512	keystroke_d	d	n/a
538.4155	0.114	1076831	keystroke_Key.space	Key.space	n/a
538.5625	0.16	1077125	keystroke_p	p	n/a
538.6985	0.0905	1077397	keystroke_r	r	n/a
538.884	0.07	1077768	keystroke_e	e	n/a
539.023	0.1845	1078046	keystroke_s	s	n/a
539.115	0.1155	1078230	keystroke_e	e	n/a
539.1835	0.093	1078367	keystroke_n	n	n/a
539.3405	0.114	1078681	keystroke_t	t	n/a
539.605	0.113	1079210	keystroke_s	s	n/a
539.741	0.1155	1079482	keystroke_Key.space	Key.space	n/a
540.5745	0.112	1081149	keystroke_f	f	n/a
540.7555	0.1135	1081511	keystroke_e	e	n/a
540.892	0.066	1081784	keystroke_o	o	n/a
540.9935	0.114	1081987	keystroke_f	f	n/a
541.1285	0.117	1082257	keystroke_Key.space	Key.space	n/a
541.543	0.1845	1083086	keystroke_m	m	n/a
541.6815	0.206	1083363	keystroke_a	a	n/a
541.7955	0.115	1083591	keystroke_t	t	n/a
541.9865	0.093	1083973	keystroke_e	e	n/a
542.1415	0.1165	1084283	keystroke_r	r	n/a
542.259	0.09	1084518	keystroke_i	i	n/a
542.441	0.1155	1084882	keystroke_a	a	n/a
542.5575	0.0915	1085115	keystroke_l	l	n/a
542.727	0.091	1085454	keystroke_s	s	n/a
542.935	0.1385	1085870	keystroke_Key.enter	Key.enter	n/a
543.078	10.565	1086156	prompt	n/a	contemporary ozone responded cannon\n
544.0095	0.1155	1088019	keystroke_c	c	n/a
544.126	0.09	1088252	keystroke_o	o	n/a
544.299	0.091	1088598	keystroke_n	n	n/a
544.412	0.0695	1088824	keystroke_t	t	n/a
544.5865	0.119	1089173	keystroke_e	e	n/a
544.6805	0.094	1089361	keystroke_m	m	n/a
544.884	0.069	1089768	keystroke_p	p	n/a
545.035	0.111	1090070	keystroke_o	o	n/a
545.189	0.1125	1090378	keystroke_r	r	n/a
545.2775	0.14	1090555	keystroke_a	a	n/a
545.4185	0.065	1090837	keystroke_t	t	n/a
545.5815	0.1165	1091163	keystroke_y	y	n/a
546.1815	0.046	1092363	keystroke_Key.backspace	Key.backspace	n/a
546.3175	0.1165	1092635	keystroke_Key.backspace	Key.backspace	n/a
546.456	0.137	1092912	keystroke_r	r	n/a
546.755	0.0705	1093510	keystroke_y	y	n/a
547.0245	0.137	1094049	keystroke_Key.space	Key.space	n/a
547.9575	0.135	1095915	keystroke_o	o	n/a
548.1145	0.0915	1096229	keystroke_z	z	n/a
548.207	0.087	1096414	keystroke_o	o	n/a
548.463	0.1335	1096926	keystroke_e	e	n/a
548.886	0.092	1097772	keystroke_Key.backspace	Key.backspace	n/a
549.4825	0.0685	1098965	keystroke_n	n	n/a
549.666	0.114	1099332	keystroke_e	e	n/a
549.814	0.1145	1099628	keystroke_Key.space	Key.space	n/a
550.4215	0.115	1100843	keystroke_r	r	n/a
550.6075	0.071	1101215	keystroke_e	e	n/a
550.767	0.114	1101534	keystroke_s	s	n/a
550.882	0.089	1101764	keystroke_p	p	n/a
551.051	0.0905	1102102	keystroke_o	o	n/a
551.2255	0.117	1102451	keystroke_n	n	n/a
551.3185	0.115	1102637	keystroke_d	d	n/a
551.5385	0.0695	1103077	keystroke_e	e	n/a
551.728	0.114	1103456	keystroke_d	d	n/a
551.881	0.1375	1103762	keystroke_Key.space	Key.space	n/a
552.4885	0.162	1104977	keystroke_c	c	n/a
552.6265	0.1385	1105253	keystroke_a	a	n/a
552.788	0.048	1105576	keystroke_n	n	n/a
552.914	0.091	1105828	keystroke_n	n	n/a
553.108	0.0685	1106216	keystroke_o	o	n/a
553.2415	0.092	1106483	keystroke_n	n	n/a
553.525	0.1165	1107050	keystroke_Key.enter	Key.enter	n/a
553.647	14.0085	1107294	prompt	n/a	ordering meta syracuse highland\n
554.7935	0.137	1109587	keystroke_o	o	n/a
554.9525	0.1145	1109905	keystroke_e	e	n/a
555.5565	0.138	1111113	keystroke_Key.backspace	Key.backspace	n/a
555.7175	0.114	1111435	keystroke_r	r	n/a
555.944	0.024	1111888	keystroke_e	e	n/a
556.093	0.09	1112186	keystroke_d	d	n/a
556.84	0.137	1113680	keystroke_Key.backspace	Key.backspace	n/a
557.0315	0.114	1114063	keystroke_Key.backspace	Key.backspace	n/a
557.2475	0.136	1114495	keystroke_d	d	n/a
557.434	0.0905	1114868	keystroke_e	e	n/a
557.6105	0.141	1115221	keystroke_r	r	n/a
557.7735	0.0915	1115547	keystroke_i	i	n/a
557.957	0.069	1115914	keystroke_n	n	n/a
558.048	0.135	1116096	keystroke_g	g	n/a
558.16	0.1135	1116320	keystroke_Key.space	Key.space	n/a
559.1335	0.139	1118267	keystroke_m	m	n/a
559.3535	0.0905	1118707	keystroke_e	e	n/a
559.535	0.116	1119070	keystroke_t	t	n/a
559.73	0.1375	1119460	keystroke_a	a	n/a
559.9155	0.137	1119831	keystroke_Key.space	Key.space	n/a
560.3285	0.137	1120657	keystroke_s	s	n/a
560.5635	0.1385	1121127	keystroke_y	y	n/a
560.703	0.09	1121406	keystroke_r	r	n/a
560.824	0.1575	1121648	keystroke_a	a	n/a
561.0835	0.137	1122167	keystroke_c	c	n/a
561.2745	0.0945	1122549	keystroke_u	u	n/a
561.402	0.159	1122804	keystroke_s	s	n/a
561.492	0.138	1122984	keystroke_e	e	n/a
561.631	0.1095	1123262	keystroke_Key.space	Key.space	n/a
563.452	0.113	1126904	keystroke_g	g	n/a
563.612	0.069	1127224	keystroke_i	i	n/a
563.77	0.12	1127540	keystroke_g	g	n/a
563.864	0.072	1127728	keystroke_h	h	n/a
564.0345	0.116	1128069	keystroke_l	l	n/a
564.2825	0.093	1128565	keystroke_n	n	n/a
564.735	0.0935	1129470	keystroke_Key.backspace	Key.backspace	n/a
564.8875	0.0695	1129775	keystroke_Key.backspace	Key.backspace	n/a
565.034	0.115	1130068	keystroke_Key.backspace	Key.backspace	n/a
565.212	0.0875	1130424	keystroke_Key.backspace	Key.backspace	n/a
565.3475	0.092	1130695	keystroke_Key.backspace	Key.backspace	n/a
565.6255	0.1135	1131251	keystroke_Key.backspace	Key.backspace	n/a
566.342	0.1365	1132684	keystroke_h	h	n/a
566.4555	0.137	1132911	keystroke_i	i	n/a
566.6225	0.114	1133245	keystroke_g	g	n/a
566.7125	0.0485	1133425	keystroke_h	h	n/a
566.884	0.117	1133768	keystroke_l	l	n/a
567.091	0.115	1134182	keystroke_a	a	n/a
567.2065	0.044	1134413	keystroke_n	n	n/a
567.3725	0.116	1134745	keystroke_d	d	n/a
567.5405	0.1135	1135081	keystroke_Key.enter	Key.enter	n/a
567.658	7.708	1135316	prompt	n/a	target province marc bracelet\n
568.634	0.1365	1137268	keystroke_t	t	n/a
568.8055	0.137	1137611	keystroke_a	a	n/a
569.1025	0.1365	1138205	keystroke_r	r	n/a
569.286	0.09	1138572	keystroke_g	g	n/a
569.47	0.0685	1138940	keystroke_e	e	n/a
569.6315	0.116	1139263	keystroke_t	t	n/a
569.7225	0.117	1139445	keystroke_Key.space	Key.space	n/a
570.155	0.1365	1140310	keystroke_p	p	n/a
570.684	0.09	1141368	keystroke_r	r	n/a
570.796	0.093	1141592	keystroke_o	o	n/a
571.1055	0.07	1142211	keystroke_i	i	n/a
571.2775	0.069	1142555	keystroke_n	n	n/a
571.4035	0.0695	1142807	keystroke_c	c	n/a
571.448	0.095	1142896	keystroke_e	e	n/a
571.566	0.115	1143132	keystroke_Key.space	Key.space	n/a
571.764	0.1145	1143528	keystroke_m	m	n/a
571.9095	0.113	1143819	keystroke_a	a	n/a
572.0235	0.0865	1144047	keystroke_r	r	n/a
572.946	0.1155	1145892	keystroke_c	c	n/a
573.3445	0.1585	1146689	keystroke_Key.space	Key.space	n/a
573.9345	0.137	1147869	keystroke_b	b	n/a
574.1215	0.095	1148243	keystroke_r	r	n/a
574.2385	0.16	1148477	keystroke_a	a	n/a
574.4285	0.137	1148857	keystroke_c	c	n/a
574.5185	0.116	1149037	keystroke_e	e	n/a
574.6565	0.1155	1149313	keystroke_l	l	n/a
574.795	0.137	1149590	keystroke_e	e	n/a
574.993	0.1575	1149986	keystroke_t	t	n/a
575.2275	0.137	1150455	keystroke_Key.enter	Key.enter	n/a
575.369	11.983	1150738	prompt	n/a	varieties agreement powell arbor\n
576.544	0.14	1153088	keystroke_v	v	n/a
576.637	0.161	1153274	keystroke_a	a	n/a
576.774	0.1125	1153548	keystroke_r	r	n/a
577.2415	0.1135	1154483	keystroke_i	i	n/a
578.513	0.136	1157026	keystroke_e	e	n/a
578.9205	0.159	1157841	keystroke_i	i	n/a
579.7225	0.114	1159445	keystroke_Key.backspace	Key.backspace	n/a
579.9055	0.1155	1159811	keystroke_t	t	n/a
580.044	0.115	1160088	keystroke_i	i	n/a
580.19	0.115	1160380	keystroke_e	e	n/a
580.403	0.1175	1160806	keystroke_s	s	n/a
580.5515	0.161	1161103	keystroke_Key.space	Key.space	n/a
581.184	0.1355	1162368	keystroke_a	a	n/a
581.4165	0.135	1162833	keystroke_g	g	n/a
581.5745	0.1145	1163149	keystroke_r	r	n/a
581.78	0.092	1163560	keystroke_e	e	n/a
581.933	0.092	1163866	keystroke_e	e	n/a
582.026	0.1115	1164052	keystroke_m	m	n/a
582.1605	0.116	1164321	keystroke_e	e	n/a
582.2775	0.045	1164555	keystroke_n	n	n/a
582.4095	0.114	1164819	keystroke_t	t	n/a
582.5245	0.137	1165049	keystroke_Key.space	Key.space	n/a
582.7155	0.1615	1165431	keystroke_p	p	n/a
583.2235	0.137	1166447	keystroke_o	o	n/a
584.396	0.1385	1168792	keystroke_w	w	n/a
584.5855	0.158	1169171	keystroke_e	e	n/a
584.7445	0.093	1169489	keystroke_l	l	n/a
584.8885	0.0945	1169777	keystroke_l	l	n/a
585.081	0.16	1170162	keystroke_Key.space	Key.space	n/a
585.736	0.136	1171472	keystroke_a	a	n/a
585.947	0.1375	1171894	keystroke_r	r	n/a
586.2655	0.156	1172531	keystroke_b	b	n/a
586.617	0.161	1173234	keystroke_o	o	n/a
586.9895	0.14	1173979	keystroke_r	r	n/a
587.258	0.092	1174516	keystroke_Key.enter	Key.enter	n/a
587.355	8.1845	1174710	prompt	n/a	boats burner taiwan city\n
588.4625	0.092	1176925	keystroke_b	b	n/a
588.6475	0.1595	1177295	keystroke_o	o	n/a
588.76	0.119	1177520	keystroke_a	a	n/a
588.853	0.138	1177706	keystroke_r	r	n/a
589.3635	0.1145	1178727	keystroke_Key.backspace	Key.backspace	n/a
589.4995	0.1145	1178999	keystroke_t	t	n/a
589.719	0.117	1179438	keystroke_s	s	n/a
589.837	0.1105	1179674	keystroke_Key.space	Key.space	n/a
590.6545	0.1125	1181309	keystroke_b	b	n/a
590.834	0.138	1181668	keystroke_u	u	n/a
591.003	0.093	1182006	keystroke_r	r	n/a
591.127	0.0915	1182254	keystroke_n	n	n/a
591.2415	0.14	1182483	keystroke_e	e	n/a
591.4565	0.1115	1182913	keystroke_r	r	n/a
591.682	0.115	1183364	keystroke_Key.space	Key.space	n/a
592.0545	0.1355	1184109	keystroke_t	t	n/a
592.191	0.1345	1184382	keystroke_a	a	n/a
592.3925	0.116	1184785	keystroke_i	i	n/a
592.93	0.113	1185860	keystroke_w	w	n/a
593.0635	0.135	1186127	keystroke_a	a	n/a
593.2525	0.092	1186505	keystroke_n	n	n/a
593.504	0.136	1187008	keystroke_Key.space	Key.space	n/a
594.217	0.1135	1188434	keystroke_c	c	n/a
594.4505	0.116	1188901	keystroke_i	i	n/a
594.998	0.1595	1189996	keystroke_t	t	n/a
595.1585	0.069	1190317	keystroke_y	y	n/a
595.403	0.135	1190806	keystroke_Key.enter	Key.enter	n/a
595.543	12.752	1191086	prompt	n/a	connect postposted ping encryption\n
596.495	0.0905	1192990	keystroke_c	c	n/a
596.6185	0.093	1193237	keystroke_o	o	n/a
596.8035	0.069	1193607	keystroke_n	n	n/a
596.9275	0.1345	1193855	keystroke_n	n	n/a
597.016	0.092	1194032	keystroke_e	e	n/a
597.235	0.1355	1194470	keystroke_c	c	n/a
597.507	0.114	1195014	keystroke_t	t	n/a
597.644	0.136	1195288	keystroke_Key.space	Key.space	n/a
598.189	0.0895	1196378	keystroke_p	p	n/a
598.3555	0.115	1196711	keystroke_o	o	n/a
598.4715	0.067	1196943	keystroke_s	s	n/a
598.6285	0.1135	1197257	keystroke_t	t	n/a
598.765	0.0905	1197530	keystroke_p	p	n/a
598.9295	0.136	1197859	keystroke_o	o	n/a
599.1395	0.1595	1198279	keystroke_s	s	n/a
599.976	0.117	1199952	keystroke_Key.backspace	Key.backspace	n/a
600.542	0.137	1201084	keystroke_n	n	n/a
600.9915	0.092	1201983	keystroke_e	e	n/a
601.1855	0.1165	1202371	keystroke_d	d	n/a
601.303	0.112	1202606	keystroke_Key.space	Key.space	n/a
601.6495	0.138	1203299	keystroke_p	p	n/a
601.9375	0.0925	1203875	keystroke_i	i	n/a
602.119	0.093	1204238	keystroke_n	n	n/a
602.233	0.1145	1204466	keystroke_g	g	n/a
602.3925	0.1125	1204785	keystroke_Key.space	Key.space	n/a
603.633	0.115	1207266	keystroke_e	e	n/a
604.1955	0.139	1208391	keystroke_n	n	n/a
604.3575	0.1385	1208715	keystroke_c	c	n/a
604.601	0.113	1209202	keystroke_r	r	n/a
606.196	0.112	1212392	keystroke_y	y	n/a
607.1445	0.139	1214289	keystroke_p	p	n/a
607.451	0.116	1214902	keystroke_t	t	n/a
607.567	0.09	1215134	keystroke_i	i	n/a
607.717	0.1365	1215434	keystroke_o	o	n/a
607.9255	0.095	1215851	keystroke_n	n	n/a
608.1805	0.1125	1216361	keystroke_Key.enter	Key.enter	n/a
608.2975	12.13	1216595	prompt	n/a	dice phantom politics functioning\n
609.79	0.115	1219580	keystroke_d	d	n/a
609.906	0.135	1219812	keystroke_i	i	n/a
610.042	0.0895	1220084	keystroke_c	c	n/a
610.244	0.184	1220488	keystroke_e	e	n/a
610.451	0.1595	1220902	keystroke_Key.space	Key.space	n/a
611.115	0.1615	1222230	keystroke_p	p	n/a
611.4195	0.092	1222839	keystroke_h	h	n/a
611.5885	0.0915	1223177	keystroke_a	a	n/a
611.681	0.068	1223362	keystroke_n	n	n/a
611.904	0.094	1223808	keystroke_t	t	n/a
612.0195	0.069	1224039	keystroke_o	o	n/a
612.2085	0.072	1224417	keystroke_m	m	n/a
612.446	0.139	1224892	keystroke_Key.space	Key.space	n/a
613.161	0.117	1226322	keystroke_p	p	n/a
613.3825	0.1135	1226765	keystroke_l	l	n/a
614.0685	0.112	1228137	keystroke_Key.backspace	Key.backspace	n/a
614.335	0.093	1228670	keystroke_o	o	n/a
614.5535	0.0945	1229107	keystroke_l	l	n/a
614.8005	0.1335	1229601	keystroke_i	i	n/a
615.039	0.092	1230078	keystroke_t	t	n/a
615.107	0.138	1230214	keystroke_i	i	n/a
615.2665	0.14	1230533	keystroke_c	c	n/a
615.3595	0.138	1230719	keystroke_e	e	n/a
615.6115	0.1375	1231223	keystroke_s	s	n/a
615.725	0.137	1231450	keystroke_Key.space	Key.space	n/a
616.053	0.07	1232106	keystroke_Key.backspace	Key.backspace	n/a
616.225	0.07	1232450	keystroke_Key.backspace	Key.backspace	n/a
616.363	0.1165	1232726	keystroke_Key.backspace	Key.backspace	n/a
616.5455	0.137	1233091	keystroke_s	s	n/a
616.7045	0.1375	1233409	keystroke_Key.space	Key.space	n/a
617.731	0.137	1235462	keystroke_f	f	n/a
617.9	0.1145	1235800	keystroke_u	u	n/a
618.1375	0.093	1236275	keystroke_n	n	n/a
618.2835	0.1155	1236567	keystroke_c	c	n/a
618.543	0.138	1237086	keystroke_t	t	n/a
618.658	0.0915	1237316	keystroke_i	i	n/a
618.834	0.117	1237668	keystroke_o	o	n/a
619.3315	0.114	1238663	keystroke_n	n	n/a
619.662	0.114	1239324	keystroke_i	i	n/a
619.866	0.069	1239732	keystroke_n	n	n/a
619.98	0.112	1239960	keystroke_g	g	n/a
620.308	0.118	1240616	keystroke_Key.enter	Key.enter	n/a
620.4305	15.2515	1240861	prompt	n/a	fraction coordinated enclosed presenting\n
621.5125	0.091	1243025	keystroke_g	g	n/a
621.995	0.1145	1243990	keystroke_Key.backspace	Key.backspace	n/a
622.1315	0.0245	1244263	keystroke_f	f	n/a
622.268	0.116	1244536	keystroke_r	r	n/a
622.385	0.134	1244770	keystroke_a	a	n/a
622.542	0.1165	1245084	keystroke_c	c	n/a
622.7605	0.117	1245521	keystroke_t	t	n/a
622.8305	0.092	1245661	keystroke_i	i	n/a
