onset	duration	sample	value	key	prompt_text
13.2225	0.0675	26445	keystroke	Key.tab	n/a
13.7065	0.0785	27413	keystroke	Key.space	n/a
14.5055	0.1015	29011	keystroke	Key.tab	n/a
15.0115	0.1355	30023	keystroke	Key.tab	n/a
15.3715	0.101	30743	keystroke	Key.tab	n/a
15.856	0.1115	31712	keystroke	j	n/a
15.911	0.1015	31822	keystroke	o	n/a
16.0015	0.092	32003	keystroke	s	n/a
16.035	0.09	32070	keystroke	e	n/a
16.1365	0.09	32273	keystroke	p	n/a
16.1825	0.1005	32365	keystroke	h	n/a
16.249	0.09	32498	keystroke	z	n/a
16.4405	0.067	32881	keystroke	Key.tab	n/a
16.7775	0.0785	33555	keystroke	Key.space	n/a
17.464	0.056	34928	keystroke	Key.down	n/a
17.599	0.09	35198	keystroke	Key.down	n/a
17.858	0.068	35716	keystroke	Key.space	n/a
18.3075	0.0795	36615	keystroke	Key.tab	n/a
18.7355	0.2135	37471	keystroke	Key.cmd	n/a
18.8475	0.102	37695	keystroke	v	n/a
19.1625	0.079	38325	keystroke	Key.tab	n/a
19.6015	0.079	39203	keystroke	Key.tab	n/a
20.322	0.078	40644	keystroke	Key.space	n/a
21.368	0.158	42736	keystroke	o	n/a
24.822	0.0895	49644	keystroke	Key.tab	n/a
25.1945	0.1	50389	keystroke	Key.space	n/a
26.116	0.0675	52232	keystroke	Key.tab	n/a
26.1925	7.3955	52385	prompt	n/a	the quick brown fox jumps over a lazy dog\n
26.4195	0.0445	52839	keystroke	Key.space	n/a
27.196	0.056	54392	keystroke	Key.backspace	n/a
28.0285	0.067	56057	keystroke	t	n/a
28.2305	0.0675	56461	keystroke	h	n/a
28.354	0.079	56708	keystroke	e	n/a
28.501	0.09	57002	keystroke	Key.space	n/a
28.6135	0.101	57227	keystroke	q	n/a
28.7935	0.1345	57587	keystroke	u	n/a
28.894	0.0795	57788	keystroke	i	n/a
28.996	0.0675	57992	keystroke	c	n/a
29.0965	0.068	58193	keystroke	k	n/a
29.187	0.124	58374	keystroke	Key.space	n/a
29.277	0.079	58554	keystroke	b	n/a
29.4685	0.0555	58937	keystroke	r	n/a
29.6255	0.0335	59251	keystroke	w	n/a
29.648	0.079	59296	keystroke	o	n/a
30.0305	0.045	60061	keystroke	Key.backspace	n/a
30.143	0.0675	60286	keystroke	Key.backspace	n/a
30.323	0.079	60646	keystroke	o	n/a
30.4355	0.079	60871	keystroke	w	n/a
30.537	0.0785	61074	keystroke	n	n/a
30.6275	0.078	61255	keystroke	Key.space	n/a
30.7165	0.0675	61433	keystroke	f	n/a
30.8065	0.068	61613	keystroke	o	n/a
30.8965	0.0675	61793	keystroke	x	n/a
30.987	0.079	61974	keystroke	Key.space	n/a
31.144	0.0675	62288	keystroke	j	n/a
31.28	0.078	62560	keystroke	u	n/a
31.4595	0.1015	62919	keystroke	m	n/a
31.527	0.0905	63054	keystroke	p	n/a
31.5945	0.0785	63189	keystroke	s	n/a
31.6845	0.079	63369	keystroke	Key.space	n/a
31.808	0.0565	63616	keystroke	o	n/a
31.842	0.1125	63684	keystroke	v	n/a
32.0445	0.101	64089	keystroke	e	n/a
32.0895	0.101	64179	keystroke	r	n/a
32.168	0.0675	64336	keystroke	Key.space	n/a
32.27	0.0675	64540	keystroke	a	n/a
32.371	0.067	64742	keystroke	Key.space	n/a
32.5165	0.079	65033	keystroke	l	n/a
32.618	0.0675	65236	keystroke	a	n/a
32.7645	0.068	65529	keystroke	z	n/a
32.888	0.068	65776	keystroke	y	n/a
32.956	0.078	65912	keystroke	Key.space	n/a
33.0795	0.0675	66159	keystroke	d	n/a
33.158	0.058	66316	keystroke	o	n/a
33.2595	0.0675	66519	keystroke	g	n/a
33.518	0.0675	67036	keystroke	Key.enter	n/a
33.595	4.559	67190	prompt	n/a	dock banks molecules paradise\n
34.272	0.0455	68544	keystroke	d	n/a
34.345	0.0625	68690	keystroke	o	n/a
34.43	0.067	68860	keystroke	c	n/a
34.508	0.068	69016	keystroke	k	n/a
34.621	0.0565	69242	keystroke	Key.space	n/a
34.8235	0.079	69647	keystroke	b	n/a
34.9135	0.09	69827	keystroke	a	n/a
35.015	0.123	70030	keystroke	n	n/a
35.116	0.0675	70232	keystroke	k	n/a
35.194	0.068	70388	keystroke	s	n/a
35.2845	0.0785	70569	keystroke	Key.space	n/a
35.4875	0.1235	70975	keystroke	m	n/a
35.579	0.077	71158	keystroke	o	n/a
35.746	0.0785	71492	keystroke	l	n/a
35.847	0.0465	71694	keystroke	e	n/a
36.3005	0.053	72601	keystroke	c	n/a
36.3985	0.0975	72797	keystroke	u	n/a
36.5825	0.063	73165	keystroke	l	n/a
36.6685	0.0765	73337	keystroke	e	n/a
36.8035	0.0955	73607	keystroke	s	n/a
36.9045	0.0905	73809	keystroke	Key.space	n/a
37.0425	0.0645	74085	keystroke	p	n/a
37.1185	0.121	74237	keystroke	a	n/a
37.1965	0.095	74393	keystroke	r	n/a
37.298	0.068	74596	keystroke	a	n/a
37.4675	0.082	74935	keystroke	d	n/a
37.597	0.0465	75194	keystroke	i	n/a
37.659	0.101	75318	keystroke	s	n/a
37.794	0.093	75588	keystroke	e	n/a
38.087	0.066	76174	keystroke	Key.enter	n/a
38.16	5.6195	76320	prompt	n/a	diagnosis journal suggests adams\n
38.685	0.0875	77370	keystroke	d	n/a
38.8285	0.0675	77657	keystroke	i	n/a
38.919	0.0895	77838	keystroke	a	n/a
39.1105	0.067	78221	keystroke	g	n/a
39.3235	0.113	78647	keystroke	n	n/a
39.4025	0.079	78805	keystroke	o	n/a
39.5375	0.067	79075	keystroke	s	n/a
39.762	0.057	79524	keystroke	i	n/a
39.8525	0.056	79705	keystroke	s	n/a
40.01	0.0565	80020	keystroke	Key.space	n/a
40.2345	0.1015	80469	keystroke	j	n/a
40.3935	0.1	80787	keystroke	o	n/a
40.471	0.09	80942	keystroke	u	n/a
40.5945	0.079	81189	keystroke	r	n/a
40.7295	0.079	81459	keystroke	n	n/a
40.8195	0.08	81639	keystroke	a	n/a
40.9095	0.079	81819	keystroke	l	n/a
41.011	0.0675	82022	keystroke	Key.space	n/a
41.1235	0.0785	82247	keystroke	s	n/a
41.2695	0.0565	82539	keystroke	u	n/a
41.337	0.0675	82674	keystroke	g	n/a
41.4725	0.101	82945	keystroke	g	n/a
41.6295	0.1705	83259	keystroke	e	n/a
41.7085	0.113	83417	keystroke	s	n/a
41.8	0.089	83600	keystroke	t	n/a
41.9335	0.09	83867	keystroke	s	n/a
42.057	0.0795	84114	keystroke	Key.space	n/a
42.283	0.1005	84566	keystroke	a	n/a
42.4735	0.056	84947	keystroke	d	n/a
42.6435	0.0665	85287	keystroke	m	n/a
42.6535	0.0905	85307	keystroke	a	n/a
42.9685	0.045	85937	keystroke	Key.backspace	n/a
43.0935	0.0665	86187	keystroke	Key.backspace	n/a
43.194	0.09	86388	keystroke	a	n/a
43.3175	0.09	86635	keystroke	m	n/a
43.43	0.0785	86860	keystroke	s	n/a
43.711	0.0675	87422	keystroke	Key.enter	n/a
43.785	4.3035	87570	prompt	n/a	court limited golden subdivision\n
44.397	0.0675	88794	keystroke	c	n/a
44.487	0.0905	88974	keystroke	o	n/a
44.5545	0.0905	89109	keystroke	u	n/a
44.634	0.067	89268	keystroke	r	n/a
44.791	0.0785	89582	keystroke	t	n/a
44.8585	0.068	89717	keystroke	Key.space	n/a
44.9715	0.1235	89943	keystroke	l	n/a
45.05	0.146	90100	keystroke	i	n/a
45.1625	0.1345	90325	keystroke	m	n/a
45.2755	0.0785	90551	keystroke	i	n/a
45.3995	0.1455	90799	keystroke	t	n/a
45.534	0.067	91068	keystroke	e	n/a
45.669	0.101	91338	keystroke	d	n/a
45.7705	0.079	91541	keystroke	Key.space	n/a
45.9165	0.0675	91833	keystroke	g	n/a
46.0175	0.056	92035	keystroke	o	n/a
46.152	0.0675	92304	keystroke	l	n/a
46.2765	0.0565	92553	keystroke	d	n/a
46.4115	0.078	92823	keystroke	e	n/a
46.501	0.0905	93002	keystroke	n	n/a
46.58	0.0675	93160	keystroke	Key.space	n/a
46.694	0.066	93388	keystroke	s	n/a
46.805	0.0785	93610	keystroke	u	n/a
46.895	0.0675	93790	keystroke	b	n/a
47.1085	0.0565	94217	keystroke	d	n/a
47.2105	0.056	94421	keystroke	i	n/a
47.3115	0.067	94623	keystroke	v	n/a
47.4125	0.066	94825	keystroke	i	n/a
47.5025	0.0565	95005	keystroke	s	n/a
47.594	0.1335	95188	keystroke	i	n/a
47.6835	0.1235	95367	keystroke	o	n/a
47.773	0.112	95546	keystroke	n	n/a
48.0315	0.056	96063	keystroke	Key.enter	n/a
48.0955	6.372	96191	prompt	n/a	thriller hourly compromise client\n
48.7175	0.056	97435	keystroke	t	n/a
48.8525	0.067	97705	keystroke	h	n/a
48.931	0.0905	97862	keystroke	r	n/a
49.1	0.0785	98200	keystroke	i	n/a
49.3025	0.0565	98605	keystroke	l	n/a
49.4265	0.078	98853	keystroke	l	n/a
49.64	0.1015	99280	keystroke	e	n/a
49.6965	0.112	99393	keystroke	r	n/a
49.854	0.067	99708	keystroke	Key.space	n/a
50.0445	0.0905	100089	keystroke	h	n/a
50.2025	0.1015	100405	keystroke	o	n/a
50.2705	0.1005	100541	keystroke	u	n/a
50.383	0.0765	100766	keystroke	r	n/a
50.506	0.124	101012	keystroke	l	n/a
50.6185	0.09	101237	keystroke	y	n/a
50.72	0.0675	101440	keystroke	Key.space	n/a
50.9115	0.067	101823	keystroke	c	n/a
51.001	0.1355	102002	keystroke	o	n/a
51.103	0.157	102206	keystroke	m	n/a
51.226	0.09	102452	keystroke	p	n/a
51.3725	0.0675	102745	keystroke	r	n/a
51.4855	0.0785	102971	keystroke	i	n/a
51.811	0.0565	103622	keystroke	Key.backspace	n/a
52.1835	0.066	104367	keystroke	Key.backspace	n/a
52.655	0.068	105310	keystroke	r	n/a
52.7455	0.078	105491	keystroke	o	n/a
52.914	0.1235	105828	keystroke	m	n/a
53.0165	0.077	106033	keystroke	i	n/a
53.15	0.1125	106300	keystroke	s	n/a
53.2735	0.1125	106547	keystroke	e	n/a
53.4085	0.079	106817	keystroke	Key.space	n/a
53.589	0.0785	107178	keystroke	c	n/a
53.7235	0.1015	107447	keystroke	l	n/a
53.791	0.0795	107582	keystroke	i	n/a
53.904	0.0565	107808	keystroke	e	n/a
53.9935	0.102	107987	keystroke	n	n/a
54.118	0.056	108236	keystroke	t	n/a
54.3985	0.068	108797	keystroke	Key.enter	n/a
54.4725	5.9005	108945	prompt	n/a	chad joint releases consortium\n
55.04	0.079	110080	keystroke	c	n/a
55.1415	0.0785	110283	keystroke	h	n/a
55.209	0.079	110418	keystroke	a	n/a
55.344	0.079	110688	keystroke	d	n/a
55.4565	0.09	110913	keystroke	Key.space	n/a
55.614	0.112	111228	keystroke	j	n/a
55.7715	0.1465	111543	keystroke	o	n/a
55.8505	0.1235	111701	keystroke	i	n/a
55.952	0.101	111904	keystroke	n	n/a
56.0415	0.0895	112083	keystroke	t	n/a
56.12	0.0465	112240	keystroke	Key.space	n/a
56.267	0.089	112534	keystroke	r	n/a
56.334	0.0785	112668	keystroke	e	n/a
56.469	0.068	112938	keystroke	l	n/a
56.5475	0.0795	113095	keystroke	e	n/a
56.6715	0.1355	113343	keystroke	a	n/a
56.7615	0.135	113523	keystroke	s	n/a
56.863	0.112	113726	keystroke	e	n/a
56.986	0.09	113972	keystroke	s	n/a
57.144	0.09	114288	keystroke	Key.space	n/a
57.5165	0.0665	115033	keystroke	c	n/a
57.8185	0.1015	115637	keystroke	o	n/a
57.886	0.1135	115772	keystroke	n	n/a
57.988	0.0785	115976	keystroke	s	n/a
58.1455	0.078	116291	keystroke	o	n/a
58.246	0.079	116492	keystroke	r	n/a
58.438	0.0785	116876	keystroke	t	n/a
58.719	0.112	117438	keystroke	i	n/a
59.2365	0.113	118473	keystroke	u	n/a
59.518	0.09	119036	keystroke	m	n/a
59.709	0.0675	119418	keystroke	Key.space	n/a
60.058	0.056	120116	keystroke	Key.backspace	n/a
60.3165	0.056	120633	keystroke	Key.enter	n/a
60.3805	9.455	120761	prompt	n/a	nano ralph november williams\n
61.441	0.045	122882	keystroke	Key.backspace	n/a
62.105	0.0675	124210	keystroke	n	n/a
62.2175	0.09	124435	keystroke	a	n/a
62.319	0.1245	124638	keystroke	n	n/a
62.431	0.102	124862	keystroke	o	n/a
64.434	0.0785	128868	keystroke	Key.space	n/a
65.2775	0.0785	130555	keystroke	r	n/a
65.3675	0.0675	130735	keystroke	a	n/a
65.4915	0.0675	130983	keystroke	l	n/a
65.672	0.1005	131344	keystroke	p	n/a
65.728	0.09	131456	keystroke	h	n/a
65.941	0.079	131882	keystroke	Key.space	n/a
66.2455	0.1005	132491	keystroke	n	n/a
67.4165	0.067	134833	keystroke	o	n/a
67.5275	0.0785	135055	keystroke	v	n/a
67.629	0.09	135258	keystroke	e	n/a
67.753	0.0905	135506	keystroke	m	n/a
68.0225	0.0785	136045	keystroke	b	n/a
68.1915	0.1125	136383	keystroke	e	n/a
68.248	0.079	136496	keystroke	r	n/a
68.45	0.0675	136900	keystroke	Key.space	n/a
68.7995	0.067	137599	keystroke	w	n/a
68.9115	0.078	137823	keystroke	i	n/a
68.9565	0.067	137913	keystroke	l	n/a
69.1025	0.1235	138205	keystroke	l	n/a
69.2035	0.1015	138407	keystroke	i	n/a
69.35	0.0785	138700	keystroke	a	n/a
69.44	0.0905	138880	keystroke	m	n/a
69.5415	0.0555	139083	keystroke	s	n/a
69.7775	0.0565	139555	keystroke	Key.enter	n/a
69.843	5.9325	139686	prompt	n/a	trinidad comfortable marks headline\n
70.475	0.056	140950	keystroke	t	n/a
70.6105	0.0785	141221	keystroke	r	n/a
70.723	0.078	141446	keystroke	i	n/a
70.8915	0.102	141783	keystroke	n	n/a
70.9705	0.1125	141941	keystroke	i	n/a
71.206	0.09	142412	keystroke	d	n/a
71.3185	0.1125	142637	keystroke	a	n/a
71.4435	0.0665	142887	keystroke	d	n/a
71.6	0.0675	143200	keystroke	Key.space	n/a
71.735	0.09	143470	keystroke	c	n/a
71.8365	0.078	143673	keystroke	o	n/a
71.8815	0.123	143763	keystroke	m	n/a
72.0505	0.0785	144101	keystroke	f	n/a
72.163	0.0675	144326	keystroke	o	n/a
72.2415	0.056	144483	keystroke	r	n/a
72.4215	0.067	144843	keystroke	t	n/a
72.545	0.101	145090	keystroke	a	n/a
72.6685	0.101	145337	keystroke	b	n/a
72.781	0.079	145562	keystroke	l	n/a
72.871	0.1015	145742	keystroke	e	n/a
72.9385	0.101	145877	keystroke	Key.space	n/a
73.1075	0.1015	146215	keystroke	m	n/a
73.2085	0.1015	146417	keystroke	a	n/a
73.2765	0.0785	146553	keystroke	r	n/a
73.4225	0.0785	146845	keystroke	k	n/a
73.49	0.056	146980	keystroke	s	n/a
73.6475	0.0675	147295	keystroke	Key.space	n/a
73.9855	0.067	147971	keystroke	h	n/a
74.064	0.067	148128	keystroke	e	n/a
74.1435	0.0895	148287	keystroke	a	n/a
74.401	0.0795	148802	keystroke	l	n/a
74.5365	0.0225	149073	keystroke	d	n/a
74.7165	0.0565	149433	keystroke	Key.backspace	n/a
74.818	0.0555	149636	keystroke	Key.backspace	n/a
74.9075	0.09	149815	keystroke	d	n/a
75.043	0.1685	150086	keystroke	l	n/a
75.1215	0.135	150243	keystroke	i	n/a
75.223	0.0895	150446	keystroke	n	n/a
75.3125	0.0785	150625	keystroke	e	n/a
75.7285	0.0455	151457	keystroke	Key.enter	n/a
75.7825	5.8195	151565	prompt	n/a	stream hang discipline indirect\n
76.37	0.1015	152740	keystroke	s	n/a
76.4495	0.078	152899	keystroke	t	n/a
76.5955	0.1125	153191	keystroke	r	n/a
76.674	0.0895	153348	keystroke	e	n/a
76.719	0.101	153438	keystroke	a	n/a
76.831	0.079	153662	keystroke	m	n/a
76.933	0.0675	153866	keystroke	Key.space	n/a
77.068	0.079	154136	keystroke	h	n/a
77.1465	0.0675	154293	keystroke	a	n/a
77.259	0.09	154518	keystroke	n	n/a
77.383	0.067	154766	keystroke	g	n/a
77.4725	0.09	154945	keystroke	Key.space	n/a
77.7435	0.0665	155487	keystroke	d	n/a
77.8665	0.056	155733	keystroke	i	n/a
77.923	0.0555	155846	keystroke	s	n/a
78.0685	0.079	156137	keystroke	c	n/a
78.3165	0.1015	156633	keystroke	i	n/a
78.834	0.112	157668	keystroke	p	n/a
79.037	0.1345	158074	keystroke	l	n/a
79.1165	0.122	158233	keystroke	i	n/a
79.1935	0.113	158387	keystroke	n	n/a
79.295	0.0785	158590	keystroke	e	n/a
79.396	0.0675	158792	keystroke	Key.space	n/a
79.6895	0.1005	159379	keystroke	i	n/a
79.7565	0.112	159513	keystroke	n	n/a
79.835	0.0905	159670	keystroke	d	n/a
80.0375	0.09	160075	keystroke	i	n/a
80.2175	0.1465	160435	keystroke	r	n/a
80.2965	0.0895	160593	keystroke	e	n/a
80.477	0.078	160954	keystroke	c	n/a
80.679	0.0785	161358	keystroke	t	n/a
81.5455	0.0555	163091	keystroke	Key.enter	n/a
81.6095	16.092	163219	prompt	n/a	accredited privilege hung slovenia\n
82.288	0.068	164576	keystroke	a	n/a
82.4575	0.062	164915	keystroke	c	n/a
82.5805	0.079	165161	keystroke	c	n/a
82.7875	0.108	165575	keystroke	r	n/a
82.839	0.079	165678	keystroke	e	n/a
83.022	0.0685	166044	keystroke	d	n/a
83.2115	0.058	166423	keystroke	i	n/a
83.357	0.067	166714	keystroke	t	n/a
83.481	0.0785	166962	keystroke	e	n/a
83.661	0.067	167322	keystroke	d	n/a
83.7505	0.09	167501	keystroke	Key.space	n/a
84.8865	0.0675	169773	keystroke	p	n/a
85.0775	0.0785	170155	keystroke	r	n/a
85.269	0.0675	170538	keystroke	i	n/a
85.494	0.079	170988	keystroke	v	n/a
85.8995	0.0895	171799	keystroke	i	n/a
86.192	0.0895	172384	keystroke	l	n/a
86.317	0.077	172634	keystroke	e	n/a
86.585	0.068	173170	keystroke	g	n/a
86.6975	0.0795	173395	keystroke	e	n/a
86.844	0.09	173688	keystroke	Key.space	n/a
87.16	0.067	174320	keystroke	h	n/a
87.317	0.0785	174634	keystroke	u	n/a
87.508	0.1025	175016	keystroke	n	n/a
87.7335	0.034	175467	keystroke	k	n/a
87.98	0.0565	175960	keystroke	Key.backspace	n/a
88.127	0.067	176254	keystroke	g	n/a
88.228	0.09	176456	keystroke	Key.space	n/a
88.79	0.068	177580	keystroke	s	n/a
89.2065	0.079	178413	keystroke	l	n/a
89.386	0.0575	178772	keystroke	o	n/a
89.5555	0.0895	179111	keystroke	v	n/a
89.679	0.09	179358	keystroke	e	n/a
90.275	0.1125	180550	keystroke	n	n/a
90.41	0.09	180820	keystroke	i	n/a
90.534	0.0895	181068	keystroke	a	n/a
93.256	0.034	186512	keystroke	Key.backspace	n/a
93.853	0.0445	187706	keystroke	Key.backspace	n/a
93.9995	0.044	187999	keystroke	Key.backspace	n/a
94.134	0.0445	188268	keystroke	Key.backspace	n/a
94.246	0.068	188492	keystroke	Key.backspace	n/a
94.3705	0.078	188741	keystroke	Key.backspace	n/a
94.505	0.068	189010	keystroke	Key.backspace	n/a
94.6405	0.067	189281	keystroke	Key.backspace	n/a
94.9665	0.0675	189933	keystroke	s	n/a
95.079	0.045	190158	keystroke	o	n/a
95.4725	0.067	190945	keystroke	Key.backspace	n/a
95.8555	0.0675	191711	keystroke	l	n/a
96.0125	0.0715	192025	keystroke	o	n/a
96.305	0.1015	192610	keystroke	v	n/a
96.4175	0.0905	192835	keystroke	e	n/a
96.543	0.1105	193086	keystroke	n	n/a
96.631	0.079	193262	keystroke	i	n/a
96.7555	0.078	193511	keystroke	a	n/a
97.633	0.067	195266	keystroke	Key.enter	n/a
97.7085	10.625	195417	prompt	n/a	cookies railroad under afternoon\n
98.4085	0.068	196817	keystroke	a	n/a
98.6	0.045	197200	keystroke	c	n/a
98.735	0.079	197470	keystroke	c	n/a
99.084	0.045	198168	keystroke	Key.backspace	n/a
99.207	0.0455	198414	keystroke	Key.backspace	n/a
99.3085	0.079	198617	keystroke	Key.backspace	n/a
99.5115	0.067	199023	keystroke	c	n/a
99.6575	0.0565	199315	keystroke	o	n/a
99.816	0.089	199632	keystroke	o	n/a
99.883	0.09	199766	keystroke	k	n/a
100.04	0.0675	200080	keystroke	i	n/a
100.164	0.1125	200328	keystroke	e	n/a
100.2425	0.1015	200485	keystroke	s	n/a
100.3775	0.09	200755	keystroke	Key.space	n/a
101.829	0.079	203658	keystroke	r	n/a
101.9425	0.1	203885	keystroke	a	n/a
102.066	0.1565	204132	keystroke	i	n/a
102.178	0.123	204356	keystroke	l	n/a
102.4475	0.102	204895	keystroke	r	n/a
102.571	0.079	205142	keystroke	o	n/a
102.6615	0.0675	205323	keystroke	a	n/a
102.808	0.0675	205616	keystroke	d	n/a
102.9535	0.09	205907	keystroke	Key.space	n/a
103.19	0.0675	206380	keystroke	u	n/a
103.348	0.0785	206696	keystroke	n	n/a
103.416	0.067	206832	keystroke	d	n/a
103.573	0.1115	207146	keystroke	e	n/a
103.629	0.101	207258	keystroke	r	n/a
103.696	0.09	207392	keystroke	Key.space	n/a
106.7115	0.078	213423	keystroke	a	n/a
107.116	0.079	214232	keystroke	f	n/a
107.308	0.056	214616	keystroke	t	n/a
107.4535	0.09	214907	keystroke	e	n/a
107.4875	0.101	214975	keystroke	r	n/a
107.701	0.1015	215402	keystroke	n	n/a
107.769	0.0565	215538	keystroke	o	n/a
107.9265	0.1235	215853	keystroke	o	n/a
108.0385	0.1125	216077	keystroke	n	n/a
108.2635	0.0675	216527	keystroke	Key.enter	n/a
108.34	8.34	216680	prompt	n/a	vertical kenneth sister receptor\n
109.805	0.0905	219610	keystroke	v	n/a
109.997	0.089	219994	keystroke	e	n/a
110.0425	0.0775	220085	keystroke	r	n/a
110.1875	0.068	220375	keystroke	t	n/a
110.3115	0.067	220623	keystroke	i	n/a
110.4015	0.079	220803	keystroke	c	n/a
110.616	0.089	221232	keystroke	a	n/a
110.7615	0.0785	221523	keystroke	l	n/a
110.919	0.0785	221838	keystroke	Key.space	n/a
111.3685	0.079	222737	keystroke	k	n/a
111.47	0.0675	222940	keystroke	e	n/a
111.5935	0.068	223187	keystroke	n	n/a
111.7515	0.079	223503	keystroke	n	n/a
111.8755	0.067	223751	keystroke	e	n/a
112.0775	0.079	224155	keystroke	t	n/a
112.19	0.0675	224380	keystroke	h	n/a
112.438	0.067	224876	keystroke	Key.space	n/a
112.5955	0.0555	225191	keystroke	s	n/a
112.685	0.0575	225370	keystroke	i	n/a
112.7755	0.0785	225551	keystroke	s	n/a
112.9105	0.0895	225821	keystroke	t	n/a
113.0455	0.1345	226091	keystroke	e	n/a
113.1125	0.113	226225	keystroke	r	n/a
113.236	0.068	226472	keystroke	Key.space	n/a
115.453	0.124	230906	keystroke	r	n/a
115.531	0.091	231062	keystroke	e	n/a
115.7115	0.0675	231423	keystroke	c	n/a
115.8925	0.055	231785	keystroke	e	n/a
116.0715	0.079	232143	keystroke	p	n/a
116.1845	0.0785	232369	keystroke	t	n/a
116.2965	0.079	232593	keystroke	o	n/a
116.3865	0.0445	232773	keystroke	r	n/a
116.6225	0.056	233245	keystroke	Key.enter	n/a
116.687	4.9315	233374	prompt	n/a	cannon excluding africa been\n
117.624	0.069	235248	keystroke	c	n/a
117.759	0.068	235518	keystroke	a	n/a
117.894	0.079	235788	keystroke	n	n/a
118.063	0.1345	236126	keystroke	n	n/a
118.1755	0.112	236351	keystroke	o	n/a
118.311	0.1	236622	keystroke	n	n/a
118.445	0.09	236890	keystroke	Key.space	n/a
118.693	0.0565	237386	keystroke	e	n/a
118.862	0.0785	237724	keystroke	x	n/a
119.0425	0.0665	238085	keystroke	c	n/a
119.188	0.101	238376	keystroke	l	n/a
119.244	0.0905	238488	keystroke	u	n/a
119.357	0.078	238714	keystroke	d	n/a
119.503	0.101	239006	keystroke	i	n/a
119.57	0.1015	239140	keystroke	n	n/a
119.6375	0.09	239275	keystroke	g	n/a
119.728	0.056	239456	keystroke	Key.space	n/a
119.84	0.1245	239680	keystroke	a	n/a
119.9425	0.0775	239885	keystroke	f	n/a
120.099	0.079	240198	keystroke	r	n/a
120.257	0.067	240514	keystroke	i	n/a
120.335	0.079	240670	keystroke	c	n/a
120.4025	0.079	240805	keystroke	a	n/a
120.5605	0.078	241121	keystroke	Key.space	n/a
120.65	0.1015	241300	keystroke	b	n/a
120.7965	0.09	241593	keystroke	e	n/a
120.9425	0.0675	241885	keystroke	e	n/a
121.055	0.1015	242110	keystroke	n	n/a
121.5615	0.056	243123	keystroke	Key.enter	n/a
121.6245	14.619	243249	prompt	n/a	capability confused displays central\n
125.7575	0.103	251515	keystroke	c	n/a
125.8705	0.034	251741	keystroke	a	n/a
126.579	0.1015	253158	keystroke	p	n/a
126.9745	0.089	253949	keystroke	a	n/a
127.1875	0.0795	254375	keystroke	b	n/a
127.301	0.1115	254602	keystroke	i	n/a
127.3895	0.1235	254779	keystroke	l	n/a
127.4795	0.09	254959	keystroke	i	n/a
127.5815	0.044	255163	keystroke	t	n/a
127.671	0.0565	255342	keystroke	y	n/a
127.762	0.0665	255524	keystroke	Key.space	n/a
129.605	0.0795	259210	keystroke	c	n/a
129.763	0.101	259526	keystroke	o	n/a
129.8425	0.111	259685	keystroke	n	n/a
129.9995	0.078	259999	keystroke	s	n/a
130.2125	0.0675	260425	keystroke	u	n/a
130.483	0.056	260966	keystroke	Key.backspace	n/a
130.6065	0.0675	261213	keystroke	Key.backspace	n/a
132.756	0.0555	265512	keystroke	f	n/a
132.857	0.078	265714	keystroke	u	n/a
133.003	0.056	266006	keystroke	s	n/a
133.16	0.0675	266320	keystroke	e	n/a
133.2955	0.056	266591	keystroke	d	n/a
133.4195	0.112	266839	keystroke	Key.space	n/a
134.0045	0.067	268009	keystroke	d	n/a
134.139	0.079	268278	keystroke	i	n/a
134.252	0.0905	268504	keystroke	s	n/a
134.4665	0.0885	268933	keystroke	p	n/a
134.51	0.1355	269020	keystroke	l	n/a
134.634	0.0785	269268	keystroke	a	n/a
134.792	0.0675	269584	keystroke	y	n/a
134.8815	0.068	269763	keystroke	s	n/a
134.994	0.0785	269988	keystroke	Key.space	n/a
135.1855	0.0675	270371	keystroke	c	n/a
135.366	0.056	270732	keystroke	e	n/a
135.478	0.101	270956	keystroke	n	n/a
135.6125	0.0565	271225	keystroke	t	n/a
135.7475	0.09	271495	keystroke	r	n/a
135.804	0.09	271608	keystroke	a	n/a
135.905	0.0905	271810	keystroke	l	n/a
136.1865	0.056	272373	keystroke	Key.enter	n/a
136.251	6.2925	272502	prompt	n/a	individuals anna jeremy ranking\n
136.8845	0.078	273769	keystroke	i	n/a
136.9175	0.113	273835	keystroke	n	n/a
136.9965	0.068	273993	keystroke	d	n/a
137.12	0.068	274240	keystroke	i	n/a
137.177	0.0785	274354	keystroke	v	n/a
137.3005	0.0785	274601	keystroke	i	n/a
137.4015	0.045	274803	keystroke	d	n/a
137.4925	0.0665	274985	keystroke	u	n/a
137.5815	0.09	275163	keystroke	a	n/a
137.6945	0.078	275389	keystroke	l	n/a
137.8295	0.056	275659	keystroke	s	n/a
138.02	0.079	276040	keystroke	Key.space	n/a
138.178	0.0785	276356	keystroke	a	n/a
138.673	0.069	277346	keystroke	n	n/a
138.8305	0.0785	277661	keystroke	n	n/a
138.9425	0.079	277885	keystroke	a	n/a
139.19	0.068	278380	keystroke	Key.space	n/a
139.5725	0.0905	279145	keystroke	j	n/a
139.697	0.0675	279394	keystroke	e	n/a
139.8995	0.0675	279799	keystroke	r	n/a
140.068	0.056	280136	keystroke	e	n/a
140.283	0.1	280566	keystroke	m	n/a
140.552	0.0785	281104	keystroke	y	n/a
140.709	0.0785	281418	keystroke	Key.space	n/a
140.867	0.1005	281734	keystroke	r	n/a
140.9455	0.0785	281891	keystroke	a	n/a
141.058	0.125	282116	keystroke	n	n/a
141.137	0.079	282274	keystroke	k	n/a
141.305	0.1245	282610	keystroke	i	n/a
141.4065	0.09	282813	keystroke	n	n/a
141.5075	0.079	283015	keystroke	g	n/a
142.4755	0.067	284951	keystroke	Key.enter	n/a
142.5495	5.4735	285099	prompt	n/a	potatoes recruiting loop utah\n
143.42	0.057	286840	keystroke	p	n/a
143.4545	0.09	286909	keystroke	o	n/a
143.578	0.0895	287156	keystroke	t	n/a
143.69	0.113	287380	keystroke	a	n/a
143.7805	0.0785	287561	keystroke	t	n/a
143.938	0.067	287876	keystroke	o	n/a
144.5905	0.0445	289181	keystroke	e	n/a
144.883	0.067	289766	keystroke	s	n/a
145.063	0.068	290126	keystroke	Key.space	n/a
145.288	0.124	290576	keystroke	r	n/a
145.378	0.079	290756	keystroke	e	n/a
145.5695	0.0715	291139	keystroke	c	n/a
145.7495	0.0785	291499	keystroke	r	n/a
145.8735	0.1345	291747	keystroke	u	n/a
145.9855	0.079	291971	keystroke	i	n/a
146.098	0.068	292196	keystroke	t	n/a
146.2105	0.124	292421	keystroke	i	n/a
146.2785	0.1115	292557	keystroke	n	n/a
146.3455	0.101	292691	keystroke	g	n/a
146.424	0.079	292848	keystroke	Key.space	n/a
146.559	0.057	293118	keystroke	l	n/a
146.737	0.0475	293474	keystroke	o	n/a
146.892	0.106	293784	keystroke	o	n/a
146.9645	0.102	293929	keystroke	p	n/a
147.0995	0.0785	294199	keystroke	Key.space	n/a
147.223	0.09	294446	keystroke	u	n/a
147.3355	0.079	294671	keystroke	t	n/a
147.448	0.0895	294896	keystroke	a	n/a
147.6275	0.079	295255	keystroke	h	n/a
147.966	0.056	295932	keystroke	Key.enter	n/a
148.0285	6.7905	296057	prompt	n/a	earrings they'll hygiene cambridge\n
148.6625	0.0795	297325	keystroke	e	n/a
148.7955	0.0925	297591	keystroke	a	n/a
148.9105	0.079	297821	keystroke	r	n/a
149.09	0.079	298180	keystroke	r	n/a
149.214	0.113	298428	keystroke	i	n/a
149.293	0.101	298586	keystroke	n	n/a
149.372	0.0895	298744	keystroke	g	n/a
149.4845	0.101	298969	keystroke	s	n/a
149.597	0.098	299194	keystroke	Key.space	n/a
149.72	0.0905	299440	keystroke	t	n/a
149.8215	0.079	299643	keystroke	h	n/a
149.912	0.067	299824	keystroke	e	n/a
150.013	0.079	300026	keystroke	y	n/a
150.193	0.09	300386	keystroke	'	n/a
150.2495	0.0785	300499	keystroke	l	n/a
150.4065	0.0795	300813	keystroke	l	n/a
150.5195	0.0785	301039	keystroke	Key.space	n/a
150.6995	0.0785	301399	keystroke	h	n/a
150.9355	0.0785	301871	keystroke	y	n/a
151.228	0.079	302456	keystroke	g	n/a
151.476	0.0905	302952	keystroke	i	n/a
151.7115	0.074	303423	keystroke	e	n/a
151.8575	0.0905	303715	keystroke	n	n/a
152.0495	0.0465	304099	keystroke	e	n/a
152.537	0.0635	305074	keystroke	Key.space	n/a
152.9605	0.0675	305921	keystroke	c	n/a
153.139	0.069	306278	keystroke	a	n/a
153.2525	0.102	306505	keystroke	m	n/a
153.467	0.078	306934	keystroke	b	n/a
153.669	0.0565	307338	keystroke	r	n/a
153.8165	0.0745	307633	keystroke	i	n/a
153.9165	0.079	307833	keystroke	d	n/a
154.0745	0.101	308149	keystroke	g	n/a
154.2095	0.0795	308419	keystroke	e	n/a
154.75	0.067	309500	keystroke	Key.enter	n/a
154.8255	4.0315	309651	prompt	n/a	opponent lawyer up yeah\n
155.4465	0.124	310893	keystroke	o	n/a
155.5375	0.112	311075	keystroke	p	n/a
155.7355	0.1165	311471	keystroke	p	n/a
155.809	0.0995	311618	keystroke	o	n/a
156.009	0.1015	312018	keystroke	n	n/a
156.144	0.09	312288	keystroke	e	n/a
156.268	0.091	312536	keystroke	n	n/a
156.3925	0.067	312785	keystroke	t	n/a
156.5045	0.0785	313009	keystroke	Key.space	n/a
156.6035	0.103	313207	keystroke	l	n/a
156.718	0.09	313436	keystroke	a	n/a
156.8415	0.091	313683	keystroke	w	n/a
157.0555	0.09	314111	keystroke	y	n/a
157.2585	0.112	314517	keystroke	e	n/a
157.326	0.1005	314652	keystroke	r	n/a
157.494	0.079	314988	keystroke	Key.space	n/a
157.645	0.0985	315290	keystroke	u	n/a
157.7085	0.112	315417	keystroke	p	n/a
157.9785	0.0895	315957	keystroke	Key.space	n/a
158.225	0.0795	316450	keystroke	y	n/a
158.293	0.101	316586	keystroke	e	n/a
158.3605	0.101	316721	keystroke	a	n/a
158.5295	0.101	317059	keystroke	h	n/a
158.788	0.068	317576	keystroke	Key.enter	n/a
158.8655	5.2	317731	prompt	n/a	rules generations besides yarn\n
159.5865	0.0675	319173	keystroke	r	n/a
159.708	0.1155	319416	keystroke	u	n/a
159.7895	0.09	319579	keystroke	l	n/a
159.892	0.1335	319784	keystroke	e	n/a
159.9805	0.09	319961	keystroke	s	n/a
160.082	0.0785	320164	keystroke	Key.space	n/a
160.2055	0.113	320411	keystroke	g	n/a
160.307	0.1125	320614	keystroke	e	n/a
160.42	0.1005	320840	keystroke	n	n/a
160.5665	0.1115	321133	keystroke	e	n/a
160.6335	0.1005	321267	keystroke	r	n/a
160.757	0.112	321514	keystroke	a	n/a
160.8355	0.079	321671	keystroke	t	n/a
160.926	0.1795	321852	keystroke	i	n/a
161.0045	0.1345	322009	keystroke	o	n/a
161.094	0.1145	322188	keystroke	n	n/a
161.2185	0.078	322437	keystroke	s	n/a
161.3535	0.067	322707	keystroke	Key.space	n/a
161.567	0.1015	323134	keystroke	b	n/a
161.7465	0.068	323493	keystroke	e	n/a
161.871	0.0785	323742	keystroke	s	n/a
162.039	0.0675	324078	keystroke	i	n/a
162.1515	0.0795	324303	keystroke	d	n/a
162.3315	0.1245	324663	keystroke	e	n/a
162.411	0.112	324822	keystroke	s	n/a
162.5565	0.079	325113	keystroke	Key.space	n/a
162.692	0.0895	325384	keystroke	y	n/a
162.8725	0.033	325745	keystroke	r	n/a
162.917	0.146	325834	keystroke	a	n/a
163.243	0.0235	326486	keystroke	Key.backspace	n/a
163.3335	0.067	326667	keystroke	Key.backspace	n/a
163.4685	0.1235	326937	keystroke	a	n/a
163.5585	0.0675	327117	keystroke	r	n/a
163.727	0.0895	327454	keystroke	n	n/a
163.9965	0.068	327993	keystroke	Key.enter	n/a
164.0715	14.101	328143	prompt	n/a	laundry messaging huge growing\n
174.133	0.011	348266	keystroke	l	n/a
174.155	0.09	348310	keystroke	a	n/a
174.291	0.0665	348582	keystroke	u	n/a
174.4815	0.1015	348963	keystroke	n	n/a
174.5605	0.0675	349121	keystroke	d	n/a
174.7965	0.0675	349593	keystroke	r	n/a
174.92	0.0675	349840	keystroke	y	n/a
175.01	0.079	350020	keystroke	Key.space	n/a
175.2465	0.09	350493	keystroke	m	n/a
175.348	0.056	350696	keystroke	e	n/a
175.494	0.0675	350988	keystroke	s	n/a
175.6405	0.09	351281	keystroke	s	n/a
175.742	0.101	351484	keystroke	a	n/a
175.8765	0.079	351753	keystroke	g	n/a
176.0005	0.135	352001	keystroke	i	n/a
176.0915	0.1115	352183	keystroke	n	n/a
176.1805	0.079	352361	keystroke	g	n/a
176.2495	0.0885	352499	keystroke	Key.space	n/a
176.372	0.056	352744	keystroke	h	n/a
176.529	0.0675	353058	keystroke	u	n/a
176.6415	0.0915	353283	keystroke	g	n/a
176.7205	0.113	353441	keystroke	e	n/a
176.8555	0.0785	353711	keystroke	Key.space	n/a
177.0015	0.0675	354003	keystroke	g	n/a
177.183	0.055	354366	keystroke	r	n/a
177.283	0.0785	354566	keystroke	o	n/a
177.373	0.056	354746	keystroke	w	n/a
177.6315	0.1015	355263	keystroke	i	n/a
177.755	0.1125	355510	keystroke	n	n/a
177.9125	0.0565	355825	keystroke	g	n/a
178.116	0.0555	356232	keystroke	Key.enter	n/a
178.1785	5.2145	356357	prompt	n/a	shadow move swimming greece\n
178.5875	0.102	357175	keystroke	l	n/a
178.869	0.0565	357738	keystroke	Key.backspace	n/a
178.993	0.079	357986	keystroke	s	n/a
179.083	0.0785	358166	keystroke	h	n/a
179.195	0.09	358390	keystroke	a	n/a
179.319	0.0675	358638	keystroke	d	n/a
179.4995	0.0785	358999	keystroke	o	n/a
179.657	0.078	359314	keystroke	w	n/a
179.87	0.079	359740	keystroke	Key.space	n/a
179.994	0.1015	359988	keystroke	m	n/a
180.073	0.09	360146	keystroke	o	n/a
180.1855	0.135	360371	keystroke	v	n/a
180.32	0.102	360640	keystroke	e	n/a
180.4665	0.0675	360933	keystroke	Key.space	n/a
180.557	0.0785	361114	keystroke	s	n/a
180.7255	0.079	361451	keystroke	w	n/a
180.8605	0.0785	361721	keystroke	i	n/a
181.0965	0.079	362193	keystroke	g	n/a
181.457	0.0555	362914	keystroke	Key.backspace	n/a
181.6595	0.067	363319	keystroke	m	n/a
181.794	0.1125	363588	keystroke	m	n/a
181.9295	0.1235	363859	keystroke	i	n/a
182.019	0.1015	364038	keystroke	n	n/a
182.1315	0.068	364263	keystroke	g	n/a
182.1875	0.102	364375	keystroke	Key.space	n/a
182.3245	0.077	364649	keystroke	g	n/a
182.5025	0.1135	365005	keystroke	r	n/a
182.5705	0.0785	365141	keystroke	e	n/a
182.7165	0.079	365433	keystroke	e	n/a
182.908	0.0565	365816	keystroke	c	n/a
183.054	0.0675	366108	keystroke	e	n/a
183.3015	0.0905	366603	keystroke	Key.enter	n/a
183.398	9.231	366796	prompt	n/a	yugoslavia loops herald lake\n
188.072	0.0785	376144	keystroke	y	n/a
188.3085	0.078	376617	keystroke	u	n/a
188.4995	0.0675	376999	keystroke	g	n/a
188.6455	0.0785	377291	keystroke	o	n/a
188.904	0.057	377808	keystroke	s	n/a
189.073	0.09	378146	keystroke	l	n/a
189.1515	0.1015	378303	keystroke	a	n/a
189.2645	0.078	378529	keystroke	v	n/a
189.4215	0.0675	378843	keystroke	i	n/a
189.534	0.0785	379068	keystroke	a	n/a
189.6805	0.0675	379361	keystroke	Key.space	n/a
189.8045	0.0785	379609	keystroke	l	n/a
189.996	0.045	379992	keystroke	o	n/a
190.153	0.101	380306	keystroke	o	n/a
190.209	0.1015	380418	keystroke	p	n/a
190.3445	0.101	380689	keystroke	s	n/a
190.434	0.079	380868	keystroke	Key.space	n/a
190.603	0.0895	381206	keystroke	h	n/a
190.704	0.079	381408	keystroke	e	n/a
190.907	0.0675	381814	keystroke	r	n/a
191.3005	0.0785	382601	keystroke	a	n/a
191.4805	0.079	382961	keystroke	l	n/a
191.616	0.067	383232	keystroke	d	n/a
191.807	0.0895	383614	keystroke	Key.space	n/a
191.9755	0.09	383951	keystroke	l	n/a
192.1105	0.0905	384221	keystroke	a	n/a
192.212	0.0895	384424	keystroke	k	n/a
192.3355	0.0675	384671	keystroke	e	n/a
192.549	0.079	385098	keystroke	Key.enter	n/a
192.634	14.059	385268	prompt	n/a	server defend students spotlight\n
200.4805	0.079	400961	keystroke	s	n/a
200.6605	0.1125	401321	keystroke	e	n/a
200.728	0.079	401456	keystroke	r	n/a
200.908	0.0895	401816	keystroke	v	n/a
201.099	0.092	402198	keystroke	e	n/a
201.144	0.0905	402288	keystroke	r	n/a
201.3015	0.09	402603	keystroke	Key.space	n/a
201.4595	0.0785	402919	keystroke	d	n/a
201.628	0.101	403256	keystroke	e	n/a
201.684	0.113	403368	keystroke	f	n/a
202.123	0.056	404246	keystroke	e	n/a
202.314	0.0905	404628	keystroke	n	n/a
202.438	0.067	404876	keystroke	d	n/a
202.5505	0.079	405101	keystroke	Key.space	n/a
202.7535	0.033	405507	keystroke	d	n/a
203.0115	0.0675	406023	keystroke	Key.backspace	n/a
203.124	0.0675	406248	keystroke	s	n/a
203.316	0.056	406632	keystroke	t	n/a
203.439	0.0675	406878	keystroke	u	n/a
203.4615	0.0225	406923	keystroke	y	n/a
203.5515	0.0675	407103	keystroke	d	n/a
203.698	0.079	407396	keystroke	e	n/a
203.7995	0.0915	407599	keystroke	n	n/a
204.081	0.0445	408162	keystroke	Key.backspace	n/a
204.2265	0.034	408453	keystroke	Key.backspace	n/a
204.339	0.0565	408678	keystroke	Key.backspace	n/a
204.4745	0.067	408949	keystroke	Key.backspace	n/a
204.6205	0.0565	409241	keystroke	d	n/a
204.7445	0.08	409489	keystroke	e	n/a
204.8575	0.078	409715	keystroke	n	n/a
204.9695	0.0565	409939	keystroke	t	n/a
205.1275	0.0785	410255	keystroke	s	n/a
205.217	0.079	410434	keystroke	Key.space	n/a
205.3295	0.091	410659	keystroke	s	n/a
205.521	0.1245	411042	keystroke	p	n/a
205.614	0.1225	411228	keystroke	o	n/a
205.769	0.08	411538	keystroke	t	n/a
205.949	0.103	411898	keystroke	l	n/a
206.017	0.101	412034	keystroke	i	n/a
206.151	0.0685	412302	keystroke	g	n/a
206.253	0.081	412506	keystroke	h	n/a
206.367	0.0675	412734	keystroke	t	n/a
206.6235	0.068	413247	keystroke	Key.enter	n/a
206.7005	4.3225	413401	prompt	n/a	pmid sample keeps pottery\n
207.355	0.104	414710	keystroke	p	n/a
207.5395	0.1305	415079	keystroke	m	n/a
207.704	0.0675	415408	keystroke	i	n/a
207.8275	0.0785	415655	keystroke	d	n/a
208.007	0.0795	416014	keystroke	Key.space	n/a
208.1875	0.139	416375	keystroke	s	n/a
208.3595	0.0865	416719	keystroke	a	n/a
208.5015	0.169	417003	keystroke	m	n/a
208.6365	0.113	417273	keystroke	p	n/a
208.7045	0.112	417409	keystroke	l	n/a
208.828	0.079	417656	keystroke	e	n/a
208.8955	0.0675	417791	keystroke	Key.space	n/a
209.0195	0.067	418039	keystroke	k	n/a
209.1325	0.067	418265	keystroke	e	n/a
209.2555	0.09	418511	keystroke	e	n/a
209.3905	0.09	418781	keystroke	p	n/a
209.469	0.1015	418938	keystroke	s	n/a
209.5595	0.09	419119	keystroke	Key.space	n/a
209.683	0.135	419366	keystroke	p	n/a
209.8295	0.078	419659	keystroke	o	n/a
210.009	0.068	420018	keystroke	t	n/a
210.1905	0.0665	420381	keystroke	t	n/a
210.3585	0.101	420717	keystroke	e	n/a
210.437	0.0675	420874	keystroke	r	n/a
210.605	0.0905	421210	keystroke	y	n/a
210.9425	0.0795	421885	keystroke	Key.enter	n/a
211.028	5.035	422056	prompt	n/a	connecting planets unix travelling\n
211.618	0.09	423236	keystroke	c	n/a
211.7195	0.0895	423439	keystroke	o	n/a
211.7865	0.079	423573	keystroke	n	n/a
211.9325	0.0905	423865	keystroke	n	n/a
212.034	0.0675	424068	keystroke	e	n/a
212.2145	0.056	424429	keystroke	c	n/a
212.3825	0.0675	424765	keystroke	t	n/a
212.484	0.1125	424968	keystroke	i	n/a
212.563	0.1125	425126	keystroke	n	n/a
212.619	0.0785	425238	keystroke	g	n/a
212.6865	0.0795	425373	keystroke	Key.space	n/a
212.833	0.1125	425666	keystroke	p	n/a
212.9005	0.101	425801	keystroke	l	n/a
212.9905	0.112	425981	keystroke	a	n/a
213.125	0.091	426250	keystroke	n	n/a
213.3165	0.079	426633	keystroke	e	n/a
213.463	0.067	426926	keystroke	t	n/a
213.609	0.079	427218	keystroke	s	n/a
213.7105	0.0785	427421	keystroke	Key.space	n/a
213.8675	0.079	427735	keystroke	u	n/a
214.0595	0.1125	428119	keystroke	n	n/a
214.138	0.0785	428276	keystroke	i	n/a
214.25	0.0795	428500	keystroke	x	n/a
214.4305	0.0785	428861	keystroke	Key.space	n/a
214.6105	0.0805	429221	keystroke	t	n/a
214.78	0.101	429560	keystroke	r	n/a
214.858	0.079	429716	keystroke	a	n/a
215.0265	0.079	430053	keystroke	v	n/a
215.1165	0.079	430233	keystroke	e	n/a
215.263	0.068	430526	keystroke	l	n/a
215.4205	0.1235	430841	keystroke	l	n/a
215.5105	0.1685	431021	keystroke	i	n/a
215.6455	0.1125	431291	keystroke	n	n/a
215.77	0.067	431540	keystroke	g	n/a
215.994	0.068	431988	keystroke	Key.enter	n/a
216.068	11.143	432136	prompt	n/a	belkin daughters organisations coach\n
216.658	0.079	433316	keystroke	b	n/a
216.793	0.09	433586	keystroke	e	n/a
216.9505	0.1575	433901	keystroke	l	n/a
217.108	0.0675	434216	keystroke	k	n/a
217.277	0.1135	434554	keystroke	i	n/a
217.3555	0.1015	434711	keystroke	n	n/a
217.479	0.068	434958	keystroke	Key.space	n/a
217.6255	0.068	435251	keystroke	d	n/a
217.727	0.0895	435454	keystroke	a	n/a
217.8735	0.0785	435747	keystroke	u	n/a
217.9855	0.09	435971	keystroke	g	n/a
218.109	0.079	436218	keystroke	h	n/a
218.2215	0.09	436443	keystroke	t	n/a
218.4015	0.0905	436803	keystroke	e	n/a
218.4465	0.0795	436893	keystroke	r	n/a
218.5935	0.1005	437187	keystroke	s	n/a
218.6945	0.0675	437389	keystroke	Key.space	n/a
218.8295	0.056	437659	keystroke	o	n/a
218.8965	0.079	437793	keystroke	r	n/a
219.0765	0.079	438153	keystroke	g	n/a
219.1335	0.0895	438267	keystroke	a	n/a
219.279	0.1125	438558	keystroke	n	n/a
219.3695	0.056	438739	keystroke	i	n/a
219.628	0.068	439256	keystroke	s	n/a
219.763	0.09	439526	keystroke	a	n/a
220.112	0.0785	440224	keystroke	t	n/a
220.2355	0.1575	440471	keystroke	i	n/a
220.314	0.158	440628	keystroke	o	n/a
220.427	0.1235	440854	keystroke	n	n/a
220.5615	0.0565	441123	keystroke	s	n/a
220.686	0.0895	441372	keystroke	Key.space	n/a
221.3495	0.067	442699	keystroke	c	n/a
221.563	0.0905	443126	keystroke	o	n/a
221.822	0.101	443644	keystroke	a	n/a
222.1825	0.056	444365	keystroke	Key.backspace	n/a
222.3405	0.044	444681	keystroke	Key.backspace	n/a
222.474	0.079	444948	keystroke	Key.backspace	n/a
222.643	0.0565	445286	keystroke	Key.backspace	n/a
222.857	0.067	445714	keystroke	Key.backspace	n/a
223.037	0.0455	446074	keystroke	Key.backspace	n/a
223.183	0.0575	446366	keystroke	Key.backspace	n/a
223.3405	0.0675	446681	keystroke	Key.backspace	n/a
223.5995	0.0675	447199	keystroke	Key.backspace	n/a
223.892	0.067	447784	keystroke	Key.backspace	n/a
224.207	0.0675	448414	keystroke	Key.backspace	n/a
224.713	0.0785	449426	keystroke	s	n/a
224.8935	0.0895	449787	keystroke	a	n/a
225.0845	0.0675	450169	keystroke	t	n/a
225.1635	0.157	450327	keystroke	i	n/a
225.253	0.135	450506	keystroke	o	n/a
225.343	0.113	450686	keystroke	n	n/a
225.456	0.0895	450912	keystroke	s	n/a
225.6015	0.0905	451203	keystroke	Key.space	n/a
226.401	0.067	452802	keystroke	c	n/a
226.513	0.09	453026	keystroke	o	n/a
226.614	0.079	453228	keystroke	a	n/a
226.716	0.078	453432	keystroke	c	n/a
226.8735	0.09	453747	keystroke	h	n/a
227.154	0.0565	454308	keystroke	Key.enter	n/a
227.217	4.6745	454434	prompt	n/a	industrial path subsequent dead\n
227.9305	0.102	455861	keystroke	i	n/a
228.0095	0.101	456019	keystroke	n	n/a
228.122	0.079	456244	keystroke	d	n/a
228.257	0.0895	456514	keystroke	u	n/a
228.358	0.101	456716	keystroke	s	n/a
228.4365	0.0905	456873	keystroke	t	n/a
228.594	0.0795	457188	keystroke	r	n/a
228.6955	0.0675	457391	keystroke	i	n/a
228.8085	0.067	457617	keystroke	a	n/a
228.898	0.079	457796	keystroke	l	n/a
228.9995	0.0675	457999	keystroke	Key.space	n/a
229.123	0.0785	458246	keystroke	p	n/a
229.213	0.09	458426	keystroke	a	n/a
229.269	0.08	458538	keystroke	t	n/a
229.4045	0.0895	458809	keystroke	h	n/a
229.5055	0.0565	459011	keystroke	Key.space	n/a
229.607	0.09	459214	keystroke	s	n/a
229.7415	0.079	459483	keystroke	u	n/a
229.854	0.0675	459708	keystroke	b	n/a
230.0455	0.0675	460091	keystroke	s	n/a
230.249	0.0555	460498	keystroke	e	n/a
230.473	0.09	460946	keystroke	q	n/a
230.608	0.0785	461216	keystroke	u	n/a
230.7205	0.079	461441	keystroke	e	n/a
230.8555	0.1015	461711	keystroke	n	n/a
230.946	0.067	461892	keystroke	t	n/a
231.058	0.09	462116	keystroke	Key.space	n/a
231.204	0.079	462408	keystroke	d	n/a
231.396	0.09	462792	keystroke	e	n/a
231.452	0.079	462904	keystroke	a	n/a
231.6205	0.045	463241	keystroke	d	n/a
231.834	0.0565	463668	keystroke	Key.enter	n/a
231.897	5.5195	463794	prompt	n/a	acer tracks peripherals settings\n
232.4535	0.067	464907	keystroke	a	n/a
232.633	0.0575	465266	keystroke	c	n/a
232.813	0.1015	465626	keystroke	e	n/a
232.881	0.123	465762	keystroke	r	n/a
233.0265	0.0675	466053	keystroke	Key.space	n/a
233.1505	0.0675	466301	keystroke	t	n/a
233.3085	0.0895	466617	keystroke	r	n/a
233.3755	0.0785	466751	keystroke	a	n/a
233.6115	0.0115	467223	keystroke	c	n/a
233.6565	0.079	467313	keystroke	k	n/a
233.7805	0.056	467561	keystroke	s	n/a
233.8825	0.0895	467765	keystroke	Key.space	n/a
234.096	0.0675	468192	keystroke	p	n/a
234.1965	0.09	468393	keystroke	e	n/a
234.2415	0.1015	468483	keystroke	r	n/a
234.456	0.0675	468912	keystroke	i	n/a
234.5685	0.067	469137	keystroke	f	n/a
234.759	0.1015	469518	keystroke	p	n/a
235.052	0.034	470104	keystroke	Key.backspace	n/a
235.176	0.057	470352	keystroke	Key.backspace	n/a
235.3905	0.1225	470781	keystroke	p	n/a
235.4905	0.09	470981	keystroke	h	n/a
235.603	0.113	471206	keystroke	e	n/a
235.6705	0.0905	471341	keystroke	r	n/a
235.828	0.1015	471656	keystroke	a	n/a
235.9975	0.078	471995	keystroke	l	n/a
236.098	0.0785	472196	keystroke	s	n/a
236.222	0.0785	472444	keystroke	Key.space	n/a
236.324	0.089	472648	keystroke	s	n/a
236.4695	0.1015	472939	keystroke	e	n/a
236.537	0.079	473074	keystroke	t	n/a
236.673	0.1	473346	keystroke	t	n/a
236.784	0.1015	473568	keystroke	i	n/a
236.863	0.103	473726	keystroke	n	n/a
236.9755	0.0675	473951	keystroke	g	n/a
237.0885	0.0785	474177	keystroke	s	n/a
237.3585	0.056	474717	keystroke	Key.enter	n/a
237.423	4.402	474846	prompt	n/a	click mitchell ghost asian\n
238.0555	0.068	476111	keystroke	c	n/a
238.179	0.113	476358	keystroke	l	n/a
238.258	0.0905	476516	keystroke	i	n/a
238.3825	0.0555	476765	keystroke	c	n/a
238.483	0.079	476966	keystroke	k	n/a
238.5735	0.0785	477147	keystroke	Key.space	n/a
238.7415	0.1245	477483	keystroke	m	n/a
238.832	0.101	477664	keystroke	i	n/a
238.967	0.0565	477934	keystroke	t	n/a
239.158	0.079	478316	keystroke	c	n/a
239.249	0.0775	478498	keystroke	h	n/a
239.3605	0.0335	478721	keystroke	e	n/a
239.5635	0.056	479127	keystroke	l	n/a
239.788	0.0675	479576	keystroke	l	n/a
240.002	0.079	480004	keystroke	Key.space	n/a
240.216	0.0565	480432	keystroke	g	n/a
240.3405	0.0885	480681	keystroke	h	n/a
240.4635	0.0675	480927	keystroke	o	n/a
240.5535	0.079	481107	keystroke	s	n/a
240.6095	0.112	481219	keystroke	t	n/a
240.7105	0.0675	481421	keystroke	Key.space	n/a
240.857	0.101	481714	keystroke	a	n/a
240.947	0.0905	481894	keystroke	s	n/a
241.116	0.078	482232	keystroke	i	n/a
241.2165	0.09	482433	keystroke	a	n/a
241.3405	0.1015	482681	keystroke	n	n/a
241.7685	0.0555	483537	keystroke	Key.enter	n/a
241.8305	7.446	483661	prompt	n/a	promo practitioners boss oclc\n
242.443	0.09	484886	keystroke	p	n/a
242.5665	0.09	485133	keystroke	r	n/a
242.6685	0.0895	485337	keystroke	o	n/a
242.7465	0.1365	485493	keystroke	m	n/a
242.8715	0.0895	485743	keystroke	o	n/a
243.0055	0.079	486011	keystroke	Key.space	n/a
243.219	0.09	486438	keystroke	p	n/a
243.3545	0.079	486709	keystroke	r	n/a
243.4785	0.0785	486957	keystroke	a	n/a
243.6465	0.068	487293	keystroke	c	n/a
243.7935	0.067	487587	keystroke	t	n/a
243.894	0.0675	487788	keystroke	i	n/a
243.9955	0.0905	487991	keystroke	c	n/a
244.142	0.101	488284	keystroke	i	n/a
244.7945	0.056	489589	keystroke	Key.backspace	n/a
244.997	0.011	489994	keystroke	Key.backspace	n/a
245.087	0.079	490174	keystroke	Key.backspace	n/a
245.8295	0.0335	491659	keystroke	Key.backspace	n/a
246.0885	0.056	492177	keystroke	t	n/a
246.156	0.0785	492312	keystroke	i	n/a
246.3805	0.0905	492761	keystroke	t	n/a
246.5045	0.1465	493009	keystroke	i	n/a
246.594	0.1355	493188	keystroke	o	n/a
246.707	0.124	493414	keystroke	n	n/a
246.9325	0.1115	493865	keystroke	e	n/a
247.0215	0.0795	494043	keystroke	r	n/a
247.168	0.0675	494336	keystroke	s	n/a
247.281	0.078	494562	keystroke	Key.space	n/a
247.461	0.0895	494922	keystroke	b	n/a
247.5845	0.056	495169	keystroke	o	n/a
247.6855	0.0675	495371	keystroke	s	n/a
247.843	0.0785	495686	keystroke	s	n/a
247.956	0.079	495912	keystroke	Key.space	n/a
248.2935	0.068	496587	keystroke	o	n/a
248.3945	0.079	496789	keystroke	c	n/a
248.5415	0.1015	497083	keystroke	l	n/a
248.791	0.054	497582	keystroke	c	n/a
249.212	0.0615	498424	keystroke	Key.enter	n/a
249.2875	5.4075	498575	prompt	n/a	overhead reward spreading conditional\n
249.9855	0.075	499971	keystroke	o	n/a
250.0885	0.0945	500177	keystroke	v	n/a
250.284	0.1015	500568	keystroke	e	n/a
250.3185	0.1005	500637	keystroke	r	n/a
250.5655	0.0785	501131	keystroke	h	n/a
250.6555	0.0785	501311	keystroke	e	n/a
250.7455	0.101	501491	keystroke	a	n/a
250.858	0.1125	501716	keystroke	d	n/a
250.959	0.1015	501918	keystroke	Key.space	n/a
251.128	0.124	502256	keystroke	r	n/a
251.207	0.1015	502414	keystroke	e	n/a
251.3535	0.1345	502707	keystroke	w	n/a
251.499	0.0795	502998	keystroke	a	n/a
251.5555	0.1015	503111	keystroke	r	n/a
251.7355	0.102	503471	keystroke	d	n/a
251.826	0.09	503652	keystroke	Key.space	n/a
252.0505	0.0675	504101	keystroke	s	n/a
252.174	0.0905	504348	keystroke	p	n/a
252.3325	0.146	504665	keystroke	r	n/a
252.467	0.101	504934	keystroke	e	n/a
252.5455	0.1235	505091	keystroke	a	n/a
252.658	0.101	505316	keystroke	d	n/a
252.804	0.1355	505608	keystroke	i	n/a
252.8945	0.112	505789	keystroke	n	n/a
252.962	0.1125	505924	keystroke	g	n/a
253.0515	0.102	506103	keystroke	Key.space	n/a
253.254	0.0795	506508	keystroke	c	n/a
253.356	0.112	506712	keystroke	o	n/a
253.423	0.1235	506846	keystroke	n	n/a
253.5355	0.0675	507071	keystroke	d	n/a
253.6595	0.079	507319	keystroke	i	n/a
253.761	0.067	507522	keystroke	t	n/a
253.862	0.135	507724	keystroke	i	n/a
253.9295	0.135	507859	keystroke	o	n/a
254.031	0.112	508062	keystroke	n	n/a
254.1545	0.0785	508309	keystroke	a	n/a
254.278	0.09	508556	keystroke	l	n/a
254.627	0.067	509254	keystroke	Key.enter	n/a
254.703	4.605	509406	prompt	n/a	lost storm outreach declaration\n
255.201	0.078	510402	keystroke	l	n/a
255.3805	0.0565	510761	keystroke	o	n/a
255.471	0.0785	510942	keystroke	s	n/a
255.5045	0.0895	511009	keystroke	t	n/a
255.583	0.068	511166	keystroke	Key.space	n/a
255.696	0.1005	511392	keystroke	s	n/a
255.752	0.09	511504	keystroke	t	n/a
255.899	0.0775	511798	keystroke	o	n/a
255.999	0.068	511998	keystroke	r	n/a
256.101	0.1005	512202	keystroke	m	n/a
256.1905	0.079	512381	keystroke	Key.space	n/a
256.326	0.0785	512652	keystroke	o	n/a
256.44	0.1105	512880	keystroke	u	n/a
256.5735	0.067	513147	keystroke	t	n/a
256.877	0.113	513754	keystroke	r	n/a
256.967	0.09	513934	keystroke	e	n/a
257.113	0.103	514226	keystroke	a	n/a
257.2035	0.0895	514407	keystroke	c	n/a
257.338	0.1015	514676	keystroke	h	n/a
257.4615	0.0905	514923	keystroke	Key.space	n/a
257.586	0.1345	515172	keystroke	d	n/a
257.811	0.067	515622	keystroke	e	n/a
258.0355	0.091	516071	keystroke	c	n/a
258.1595	0.08	516319	keystroke	l	n/a
258.351	0.135	516702	keystroke	a	n/a
258.497	0.0895	516994	keystroke	r	n/a
258.599	0.1115	517198	keystroke	a	n/a
258.722	0.079	517444	keystroke	t	n/a
258.812	0.1575	517624	keystroke	i	n/a
258.9015	0.1245	517803	keystroke	o	n/a
258.992	0.1125	517984	keystroke	n	n/a
259.2505	0.0565	518501	keystroke	Key.enter	n/a
259.3135	5.4735	518627	prompt	n/a	classic consciousness morgan how's\n
259.858	0.101	519716	keystroke	c	n/a
259.9935	0.0675	519987	keystroke	l	n/a
260.1055	0.0565	520211	keystroke	a	n/a
260.2295	0.0565	520459	keystroke	s	n/a
260.3535	0.0895	520707	keystroke	s	n/a
260.5105	0.0675	521021	keystroke	i	n/a
260.5665	0.079	521133	keystroke	c	n/a
260.7465	0.0675	521493	keystroke	Key.space	n/a
261.0845	0.067	522169	keystroke	c	n/a
261.208	0.146	522416	keystroke	o	n/a
261.3205	0.124	522641	keystroke	n	n/a
261.5685	0.0785	523137	keystroke	s	n/a
261.7035	0.079	523407	keystroke	c	n/a
261.827	0.18	523654	keystroke	i	n/a
261.894	0.1465	523788	keystroke	o	n/a
261.996	0.1125	523992	keystroke	u	n/a
262.1195	0.067	524239	keystroke	s	n/a
262.3335	0.0895	524667	keystroke	n	n/a
262.468	0.045	524936	keystroke	e	n/a
262.614	0.0565	525228	keystroke	s	n/a
262.7605	0.101	525521	keystroke	s	n/a
262.8395	0.0785	525679	keystroke	Key.space	n/a
262.986	0.123	525972	keystroke	m	n/a
263.0865	0.0905	526173	keystroke	o	n/a
263.1655	0.0905	526331	keystroke	r	n/a
263.3235	0.0895	526647	keystroke	g	n/a
263.4245	0.0785	526849	keystroke	a	n/a
263.537	0.101	527074	keystroke	n	n/a
263.6605	0.0675	527321	keystroke	Key.space	n/a
263.773	0.113	527546	keystroke	h	n/a
263.8635	0.112	527727	keystroke	o	n/a
263.9865	0.079	527973	keystroke	w	n/a
264.1785	0.0785	528357	keystroke	'	n/a
264.3015	0.0675	528603	keystroke	s	n/a
264.7295	0.0565	529459	keystroke	Key.enter	n/a
264.792	5.451	529584	prompt	n/a	founded reef tackle leaders\n
265.4495	0.0675	530899	keystroke	f	n/a
265.562	0.113	531124	keystroke	o	n/a
265.6405	0.079	531281	keystroke	u	n/a
265.8205	0.079	531641	keystroke	n	n/a
265.9225	0.0675	531845	keystroke	d	n/a
266.068	0.0675	532136	keystroke	e	n/a
266.2145	0.0785	532429	keystroke	d	n/a
266.3045	0.09	532609	keystroke	Key.space	n/a
266.428	0.1355	532856	keystroke	r	n/a
266.5185	0.09	533037	keystroke	e	n/a
266.709	0.068	533418	keystroke	f	n/a
266.968	0.0565	533936	keystroke	f	n/a
267.227	0.056	534454	keystroke	Key.backspace	n/a
267.3395	0.0675	534679	keystroke	Key.backspace	n/a
267.452	0.0785	534904	keystroke	e	n/a
267.598	0.0905	535196	keystroke	f	n/a
267.756	0.101	535512	keystroke	Key.space	n/a
267.9695	0.09	535939	keystroke	t	n/a
268.161	0.0675	536322	keystroke	e	n/a
268.464	0.0565	536928	keystroke	Key.backspace	n/a
268.5325	0.0785	537065	keystroke	a	n/a
268.667	0.0895	537334	keystroke	c	n/a
268.768	0.09	537536	keystroke	k	n/a
268.9595	0.0675	537919	keystroke	l	n/a
269.061	0.101	538122	keystroke	e	n/a
269.151	0.0785	538302	keystroke	Key.space	n/a
269.2745	0.0785	538549	keystroke	l	n/a
269.342	0.1015	538684	keystroke	e	n/a
269.443	0.1015	538886	keystroke	a	n/a
269.5665	0.0905	539133	keystroke	d	n/a
269.7355	0.1015	539471	keystroke	e	n/a
269.792	0.079	539584	keystroke	r	n/a
269.9495	0.0785	539899	keystroke	s	n/a
270.197	0.045	540394	keystroke	Key.enter	n/a
270.2485	4.068	540497	prompt	n/a	skating must password element\n
270.8265	0.09	541653	keystroke	s	n/a
271.029	0.068	542058	keystroke	k	n/a
271.108	0.0785	542216	keystroke	a	n/a
271.311	0.0785	542622	keystroke	t	n/a
271.4235	0.123	542847	keystroke	i	n/a
271.5015	0.114	543003	keystroke	n	n/a
271.592	0.0785	543184	keystroke	g	n/a
271.6825	0.067	543365	keystroke	Key.space	n/a
271.772	0.0785	543544	keystroke	m	n/a
271.952	0.0785	543904	keystroke	u	n/a
272.0415	0.079	544083	keystroke	s	n/a
272.0755	0.1015	544151	keystroke	t	n/a
272.143	0.056	544286	keystroke	Key.space	n/a
272.2665	0.0905	544533	keystroke	p	n/a
272.379	0.079	544758	keystroke	a	n/a
272.4355	0.0785	544871	keystroke	s	n/a
272.6155	0.0675	545231	keystroke	s	n/a
272.762	0.0785	545524	keystroke	w	n/a
272.874	0.0795	545748	keystroke	o	n/a
272.9655	0.0775	545931	keystroke	r	n/a
273.122	0.079	546244	keystroke	d	n/a
273.2455	0.0785	546491	keystroke	Key.space	n/a
273.358	0.091	546716	keystroke	e	n/a
273.4825	0.089	546965	keystroke	l	n/a
273.6165	0.068	547233	keystroke	e	n/a
273.696	0.09	547392	keystroke	m	n/a
273.8085	0.078	547617	keystroke	e	n/a
273.887	0.0895	547774	keystroke	n	n/a
274.0105	0.079	548021	keystroke	t	n/a
274.2465	0.069	548493	keystroke	Key.enter	n/a
274.3215	5.0785	548643	prompt	n/a	gourmet becoming blog finder\n
274.9335	0.0785	549867	keystroke	g	n/a
275.046	0.112	550092	keystroke	o	n/a
275.136	0.078	550272	keystroke	u	n/a
275.203	0.0835	550406	keystroke	r	n/a
275.3495	0.1125	550699	keystroke	m	n/a
275.4735	0.056	550947	keystroke	e	n/a
275.754	0.079	551508	keystroke	t	n/a
275.9005	0.0785	551801	keystroke	Key.space	n/a
276.294	0.0825	552588	keystroke	b	n/a
276.463	0.056	552926	keystroke	e	n/a
276.6205	0.0785	553241	keystroke	c	n/a
276.7105	0.101	553421	keystroke	o	n/a
276.7895	0.1235	553579	keystroke	m	n/a
276.958	0.1015	553916	keystroke	i	n/a
277.026	0.112	554052	keystroke	n	n/a
277.116	0.0895	554232	keystroke	g	n/a
277.2055	0.079	554411	keystroke	Key.space	n/a
277.352	0.0785	554704	keystroke	f	n/a
277.667	0.067	555334	keystroke	Key.backspace	n/a
277.824	0.068	555648	keystroke	b	n/a
277.9365	0.0685	555873	keystroke	l	n/a
278.1165	0.068	556233	keystroke	o	n/a
278.2295	0.09	556459	keystroke	g	n/a
278.331	0.078	556662	keystroke	Key.space	n/a
278.4655	0.1015	556931	keystroke	f	n/a
278.6345	0.1125	557269	keystroke	i	n/a
278.7245	0.1125	557449	keystroke	n	n/a
278.8595	0.08	557719	keystroke	d	n/a
279.017	0.1235	558034	keystroke	e	n/a
279.0955	0.0785	558191	keystroke	r	n/a
279.332	0.067	558664	keystroke	Key.enter	n/a
279.4055	5.642	558811	prompt	n/a	alice experiences troops she's\n
279.928	0.0905	559856	keystroke	a	n/a
280.086	0.1345	560172	keystroke	l	n/a
280.199	0.0775	560398	keystroke	i	n/a
280.3105	0.056	560621	keystroke	c	n/a
280.457	0.09	560914	keystroke	e	n/a
280.558	0.079	561116	keystroke	Key.space	n/a
280.716	0.067	561432	keystroke	e	n/a
280.896	0.0785	561792	keystroke	x	n/a
281.0755	0.1015	562151	keystroke	p	n/a
281.256	0.1125	562512	keystroke	e	n/a
281.481	0.0785	562962	keystroke	r	n/a
281.627	0.0675	563254	keystroke	i	n/a
281.841	0.0675	563682	keystroke	e	n/a
281.9535	0.0895	563907	keystroke	n	n/a
282.077	0.079	564154	keystroke	c	n/a
282.2565	0.135	564513	keystroke	e	n/a
282.358	0.113	564716	keystroke	s	n/a
282.493	0.101	564986	keystroke	Key.space	n/a
282.572	0.09	565144	keystroke	t	n/a
282.7405	0.0905	565481	keystroke	r	n/a
282.864	0.135	565728	keystroke	o	n/a
283.0105	0.0905	566021	keystroke	u	n/a
283.3155	0.044	566631	keystroke	Key.backspace	n/a
283.5165	0.0905	567033	keystroke	o	n/a
283.663	0.0905	567326	keystroke	p	n/a
283.7985	0.146	567597	keystroke	s	n/a
283.9335	0.101	567867	keystroke	Key.space	n/a
284.0685	0.067	568137	keystroke	s	n/a
284.158	0.113	568316	keystroke	h	n/a
284.3155	0.0675	568631	keystroke	e	n/a
284.4625	0.078	568925	keystroke	'	n/a
284.586	0.0795	569172	keystroke	s	n/a
284.9685	0.0785	569937	keystroke	Key.enter	n/a
285.053	4.2245	570106	prompt	n/a	thumbs faster parks reception\n
285.609	0.068	571218	keystroke	t	n/a
285.6885	0.0675	571377	keystroke	h	n/a
285.8575	0.0555	571715	keystroke	u	n/a
286.0155	0.0885	572031	keystroke	m	n/a
286.093	0.068	572186	keystroke	b	n/a
286.2395	0.124	572479	keystroke	s	n/a
286.352	0.0675	572704	keystroke	Key.space	n/a
286.4655	0.134	572931	keystroke	f	n/a
286.611	0.112	573222	keystroke	a	n/a
286.667	0.1235	573334	keystroke	s	n/a
286.757	0.1235	573514	keystroke	t	n/a
286.937	0.146	573874	keystroke	e	n/a
287.016	0.1235	574032	keystroke	r	n/a
287.1165	0.0795	574233	keystroke	Key.space	n/a
287.252	0.101	574504	keystroke	p	n/a
287.3755	0.101	574751	keystroke	a	n/a
287.4545	0.079	574909	keystroke	r	n/a
287.6235	0.078	575247	keystroke	k	n/a
287.7245	0.079	575449	keystroke	s	n/a
287.826	0.0675	575652	keystroke	Key.space	n/a
287.939	0.134	575878	keystroke	r	n/a
288.028	0.09	576056	keystroke	e	n/a
288.2415	0.045	576483	keystroke	c	n/a
288.3995	0.0565	576799	keystroke	e	n/a
288.5235	0.101	577047	keystroke	p	n/a
288.6355	0.056	577271	keystroke	t	n/a
288.737	0.135	577474	keystroke	i	n/a
288.805	0.146	577610	keystroke	o	n/a
288.9395	0.1015	577879	keystroke	n	n/a
289.209	0.0675	578418	keystroke	Key.enter	n/a
289.283	8.4435	578566	prompt	n/a	artist kenneth payday wait\n
292.832	0.0905	585664	keystroke	a	n/a
292.9895	0.079	585979	keystroke	r	n/a
293.1695	0.067	586339	keystroke	t	n/a
293.316	0.067	586632	keystroke	i	n/a
293.4735	0.0675	586947	keystroke	s	n/a
293.5975	0.089	587195	keystroke	t	n/a
293.743	0.0675	587486	keystroke	Key.space	n/a
293.8895	0.079	587779	keystroke	k	n/a
293.9905	0.068	587981	keystroke	e	n/a
294.1145	0.079	588229	keystroke	n	n/a
294.283	0.0785	588566	keystroke	n	n/a
294.384	0.0675	588768	keystroke	e	n/a
294.5985	0.0785	589197	keystroke	t	n/a
294.812	0.0785	589624	keystroke	h	n/a
294.9925	0.078	589985	keystroke	Key.space	n/a
295.1495	0.1125	590299	keystroke	p	n/a
295.2505	0.0905	590501	keystroke	a	n/a
295.3855	0.1015	590771	keystroke	y	n/a
295.5205	0.0795	591041	keystroke	d	n/a
295.6335	0.0905	591267	keystroke	a	n/a
295.7905	0.0905	591581	keystroke	y	n/a
296.443	0.0795	592886	keystroke	Key.space	n/a
296.9395	0.0885	593879	keystroke	w	n/a
297.1295	0.09	594259	keystroke	a	n/a
297.287	0.069	594574	keystroke	i	n/a
297.4	0.067	594800	keystroke	t	n/a
297.647	0.0785	595294	keystroke	Key.enter	n/a
297.7315	5.9805	595463	prompt	n/a	multiple liabilities ceramic section\n
298.412	0.101	596824	keystroke	m	n/a
298.6035	0.0675	597207	keystroke	u	n/a
298.783	0.0785	597566	keystroke	l	n/a
298.963	0.079	597926	keystroke	t	n/a
299.0985	0.1125	598197	keystroke	i	n/a
299.3685	0.112	598737	keystroke	p	n/a
299.5485	0.078	599097	keystroke	l	n/a
299.6725	0.078	599345	keystroke	e	n/a
299.8295	0.09	599659	keystroke	Key.space	n/a
299.964	0.0905	599928	keystroke	l	n/a
300.133	0.0795	600266	keystroke	i	n/a
300.2575	0.089	600515	keystroke	a	n/a
300.449	0.078	600898	keystroke	b	n/a
300.561	0.1125	601122	keystroke	i	n/a
300.6505	0.169	601301	keystroke	l	n/a
300.808	0.0785	601616	keystroke	i	n/a
300.9095	0.0895	601819	keystroke	t	n/a
301.0335	0.0785	602067	keystroke	i	n/a
301.1345	0.135	602269	keystroke	e	n/a
301.213	0.113	602426	keystroke	s	n/a
301.3375	0.089	602675	keystroke	Key.space	n/a
301.6635	0.0565	603327	keystroke	c	n/a
301.843	0.1015	603686	keystroke	e	n/a
301.8995	0.0895	603799	keystroke	r	n/a
302.0235	0.0895	604047	keystroke	a	n/a
302.1805	0.1355	604361	keystroke	m	n/a
302.2935	0.0895	604587	keystroke	i	n/a
302.4055	0.0785	604811	keystroke	c	n/a
302.5515	0.0905	605103	keystroke	Key.space	n/a
302.6535	0.123	605307	keystroke	s	n/a
302.7545	0.0895	605509	keystroke	e	n/a
302.946	0.067	605892	keystroke	c	n/a
303.1155	0.0665	606231	keystroke	t	n/a
303.1935	0.168	606387	keystroke	i	n/a
303.3055	0.135	606611	keystroke	o	n/a
303.418	0.102	606836	keystroke	n	n/a
303.643	0.068	607286	keystroke	Key.enter	n/a
303.7175	10.862	607435	prompt	n/a	massive conservative feat flights\n
310.5055	0.056	621011	keystroke	m	n/a
310.607	0.079	621214	keystroke	a	n/a
310.7755	0.0905	621551	keystroke	s	n/a
310.8995	0.0675	621799	keystroke	s	n/a
311.0115	0.0675	622023	keystroke	i	n/a
311.113	0.103	622226	keystroke	v	n/a
311.2035	0.1235	622407	keystroke	e	n/a
311.316	0.078	622632	keystroke	Key.space	n/a
311.5295	0.079	623059	keystroke	c	n/a
311.631	0.112	623262	keystroke	o	n/a
311.7205	0.0905	623441	keystroke	n	n/a
311.811	0.078	623622	keystroke	s	n/a
311.9005	0.135	623801	keystroke	e	n/a
312.013	0.0695	624026	keystroke	r	n/a
312.182	0.112	624364	keystroke	v	n/a
312.3055	0.101	624611	keystroke	a	n/a
312.4405	0.079	624881	keystroke	t	n/a
312.564	0.0565	625128	keystroke	i	n/a
312.666	0.09	625332	keystroke	v	n/a
312.7225	0.1235	625445	keystroke	e	n/a
312.857	0.1235	625714	keystroke	Key.space	n/a
312.9465	0.1465	625893	keystroke	f	n/a
313.0595	0.1015	626119	keystroke	e	n/a
313.1275	0.1345	626255	keystroke	a	n/a
313.2505	0.1015	626501	keystroke	t	n/a
313.386	0.0895	626772	keystroke	Key.space	n/a
313.599	0.079	627198	keystroke	f	n/a
313.712	0.101	627424	keystroke	l	n/a
313.779	0.102	627558	keystroke	i	n/a
313.9035	0.056	627807	keystroke	g	n/a
314.005	0.1005	628010	keystroke	h	n/a
314.094	0.0795	628188	keystroke	t	n/a
314.263	0.0675	628526	keystroke	s	n/a
314.5225	0.056	629045	keystroke	Key.enter	n/a
314.5845	12.2125	629169	prompt	n/a	second killer amenities http\n
322.7905	0.0785	645581	keystroke	s	n/a
322.9485	0.078	645897	keystroke	e	n/a
323.1285	0.078	646257	keystroke	c	n/a
323.2295	0.112	646459	keystroke	o	n/a
323.319	0.09	646638	keystroke	n	n/a
323.3865	0.1025	646773	keystroke	d	n/a
323.4545	0.0895	646909	keystroke	Key.space	n/a
323.724	0.0675	647448	keystroke	k	n/a
323.882	0.101	647764	keystroke	i	n/a
323.9495	0.0905	647899	keystroke	l	n/a
324.1405	0.0675	648281	keystroke	l	n/a
324.242	0.135	648484	keystroke	e	n/a
324.3225	0.0995	648645	keystroke	r	n/a
324.3995	0.067	648799	keystroke	Key.space	n/a
324.523	0.0785	649046	keystroke	a	n/a
324.624	0.079	649248	keystroke	m	n/a
324.7825	0.0665	649565	keystroke	e	n/a
324.894	0.1015	649788	keystroke	n	n/a
325.108	0.058	650216	keystroke	i	n/a
325.233	0.0665	650466	keystroke	t	n/a
325.3445	0.09	650689	keystroke	i	n/a
325.547	0.069	651094	keystroke	e	n/a
325.683	0.089	651366	keystroke	s	n/a
325.817	0.079	651634	keystroke	Key.space	n/a
325.975	0.0785	651950	keystroke	h	n/a
326.1325	0.0565	652265	keystroke	t	n/a
326.2565	0.0785	652513	keystroke	t	n/a
326.3795	0.09	652759	keystroke	p	n/a
326.728	0.068	653456	keystroke	Key.enter	n/a
326.8055	4.7875	653611	prompt	n/a	reflected evil pregnant rider\n
327.5275	0.1005	655055	keystroke	r	n/a
327.5945	0.09	655189	keystroke	e	n/a
327.8195	0.0785	655639	keystroke	f	n/a
327.943	0.0905	655886	keystroke	l	n/a
328.0445	0.0675	656089	keystroke	e	n/a
328.2355	0.0675	656471	keystroke	c	n/a
328.4155	0.124	656831	keystroke	t	n/a
328.5055	0.0915	657011	keystroke	e	n/a
328.6755	0.0905	657351	keystroke	d	n/a
328.7875	0.1025	657575	keystroke	Key.space	n/a
328.9225	0.0895	657845	keystroke	e	n/a
329.08	0.091	658160	keystroke	v	n/a
329.2275	0.1355	658455	keystroke	i	n/a
329.304	0.125	658608	keystroke	l	n/a
329.4405	0.09	658881	keystroke	Key.space	n/a
329.575	0.1155	659150	keystroke	p	n/a
329.6765	0.1135	659353	keystroke	r	n/a
329.7575	0.0545	659515	keystroke	e	n/a
329.8925	0.088	659785	keystroke	g	n/a
330.085	0.1	660170	keystroke	n	n/a
330.217	0.101	660434	keystroke	a	n/a
330.402	0.098	660804	keystroke	n	n/a
330.5245	0.0855	661049	keystroke	t	n/a
330.6455	0.0785	661291	keystroke	Key.space	n/a
330.836	0.0775	661672	keystroke	r	n/a
330.9585	0.0825	661917	keystroke	i	n/a
331.072	0.069	662144	keystroke	d	n/a
331.2295	0.1235	662459	keystroke	e	n/a
331.3075	0.0795	662615	keystroke	r	n/a
331.51	0.0805	663020	keystroke	Key.enter	n/a
331.605	5.7115	663210	prompt	n/a	problem installed macedonia learned\n
332.252	0.0895	664504	keystroke	p	n/a
332.365	0.067	664730	keystroke	r	n/a
332.4665	0.0775	664933	keystroke	o	n/a
332.5555	0.079	665111	keystroke	b	n/a
332.6905	0.09	665381	keystroke	l	n/a
332.8155	0.078	665631	keystroke	e	n/a
332.927	0.0785	665854	keystroke	m	n/a
333.028	0.079	666056	keystroke	Key.space	n/a
333.1865	0.1	666373	keystroke	i	n/a
333.2655	0.1	666531	keystroke	n	n/a
333.3555	0.123	666711	keystroke	s	n/a
333.4105	0.1125	666821	keystroke	t	n/a
333.478	0.09	666956	keystroke	a	n/a
333.602	0.045	667204	keystroke	l	n/a
333.7155	0.067	667431	keystroke	l	n/a
333.8045	0.0785	667609	keystroke	e	n/a
333.9845	0.0895	667969	keystroke	d	n/a
334.063	0.09	668126	keystroke	Key.space	n/a
334.187	0.079	668374	keystroke	a	n/a
334.3	0.09	668600	keystroke	m	n/a
334.5695	0.046	669139	keystroke	Key.backspace	n/a
334.6715	0.089	669343	keystroke	Key.backspace	n/a
334.885	0.0895	669770	keystroke	m	n/a
334.99	0.0755	669980	keystroke	a	n/a
335.098	0.1015	670196	keystroke	c	n/a
335.3125	0.078	670625	keystroke	e	n/a
335.5155	0.0675	671031	keystroke	d	n/a
335.661	0.1015	671322	keystroke	o	n/a
335.7745	0.1225	671549	keystroke	n	n/a
335.875	0.101	671750	keystroke	i	n/a
336.0095	0.0795	672019	keystroke	a	n/a
336.19	0.067	672380	keystroke	Key.space	n/a
336.2905	0.079	672581	keystroke	l	n/a
336.4055	0.077	672811	keystroke	e	n/a
336.471	0.135	672942	keystroke	a	n/a
336.5725	0.0895	673145	keystroke	r	n/a
336.752	0.0675	673504	keystroke	n	n/a
336.8655	0.0775	673731	keystroke	e	n/a
337.011	0.09	674022	keystroke	d	n/a
337.247	0.0685	674494	keystroke	Key.enter	n/a
337.3225	4.178	674645	prompt	n/a	bleeding pants nasty stomach\n
337.866	0.0555	675732	keystroke	b	n/a
337.9555	0.056	675911	keystroke	l	n/a
338.0685	0.0555	676137	keystroke	e	n/a
338.2155	0.055	676431	keystroke	e	n/a
338.3495	0.101	676699	keystroke	d	n/a
338.4615	0.1125	676923	keystroke	i	n/a
338.5515	0.102	677103	keystroke	n	n/a
338.619	0.1015	677238	keystroke	g	n/a
338.7095	0.0565	677419	keystroke	Key.space	n/a
338.8335	0.1125	677667	keystroke	p	n/a
338.957	0.09	677914	keystroke	a	n/a
339.1155	0.1	678231	keystroke	n	n/a
339.2265	0.0675	678453	keystroke	t	n/a
339.373	0.1015	678746	keystroke	s	n/a
339.441	0.0675	678882	keystroke	Key.space	n/a
339.5755	0.113	679151	keystroke	n	n/a
339.677	0.0905	679354	keystroke	a	n/a
339.734	0.1	679468	keystroke	s	n/a
339.8115	0.079	679623	keystroke	t	n/a
340.0595	0.09	680119	keystroke	y	n/a
340.228	0.079	680456	keystroke	Key.space	n/a
340.386	0.0895	680772	keystroke	s	n/a
340.465	0.089	680930	keystroke	t	n/a
340.6215	0.1355	681243	keystroke	o	n/a
340.768	0.09	681536	keystroke	m	n/a
340.892	0.068	681784	keystroke	a	n/a
341.016	0.067	682032	keystroke	c	n/a
341.128	0.09	682256	keystroke	h	n/a
341.443	0.0565	682886	keystroke	Key.enter	n/a
341.5055	6.52	683011	prompt	n/a	purpose generous acoustic sudden\n
342.141	0.1125	684282	keystroke	p	n/a
342.22	0.1015	684440	keystroke	u	n/a
342.3095	0.0785	684619	keystroke	r	n/a
342.433	0.1125	684866	keystroke	p	n/a
342.5005	0.1235	685001	keystroke	o	n/a
342.613	0.0905	685226	keystroke	s	n/a
342.682	0.1115	685364	keystroke	e	n/a
342.7825	0.067	685565	keystroke	Key.space	n/a
342.9055	0.09	685811	keystroke	g	n/a
343.0065	0.0905	686013	keystroke	e	n/a
343.1195	0.1235	686239	keystroke	n	n/a
343.232	0.0905	686464	keystroke	e	n/a
343.266	0.0785	686532	keystroke	r	n/a
343.4235	0.123	686847	keystroke	o	n/a
343.5015	0.114	687003	keystroke	u	n/a
343.626	0.0785	687252	keystroke	s	n/a
343.7385	0.078	687477	keystroke	Key.space	n/a
343.9185	0.09	687837	keystroke	a	n/a
344.1095	0.09	688219	keystroke	c	n/a
344.2445	0.1235	688489	keystroke	o	n/a
344.334	0.1125	688668	keystroke	u	n/a
344.526	0.1345	689052	keystroke	s	n/a
344.627	0.0895	689254	keystroke	t	n/a
344.8295	0.0675	689659	keystroke	i	n/a
344.9085	0.067	689817	keystroke	c	n/a
345.032	0.079	690064	keystroke	k	n/a
345.1225	0.067	690245	keystroke	Key.space	n/a
345.212	0.0785	690424	keystroke	s	n/a
345.3245	0.0785	690649	keystroke	u	n/a
345.4155	0.0665	690831	keystroke	d	n/a
345.5495	0.0785	691099	keystroke	d	n/a
345.8085	0.0565	691617	keystroke	Key.backspace	n/a
345.943	0.0565	691886	keystroke	Key.backspace	n/a
346.0785	0.0675	692157	keystroke	Key.backspace	n/a
346.213	0.0565	692426	keystroke	Key.backspace	n/a
346.3595	0.0565	692719	keystroke	Key.backspace	n/a
346.5845	0.011	693169	keystroke	Key.backspace	n/a
346.708	0.0675	693416	keystroke	Key.space	n/a
347.012	0.0675	694024	keystroke	s	n/a
347.1695	0.056	694339	keystroke	u	n/a
347.2935	0.056	694587	keystroke	d	n/a
347.417	0.09	694834	keystroke	d	n/a
347.597	0.0575	695194	keystroke	e	n/a
347.7095	0.09	695419	keystroke	n	n/a
347.957	0.0675	695914	keystroke	Key.enter	n/a
348.031	4.191	696062	prompt	n/a	immigrants north produce ultra\n
348.599	0.1005	697198	keystroke	i	n/a
348.666	0.0895	697332	keystroke	m	n/a
348.812	0.1465	697624	keystroke	m	n/a
348.947	0.0685	697894	keystroke	i	n/a
349.071	0.09	698142	keystroke	g	n/a
349.2735	0.0785	698547	keystroke	r	n/a
349.3635	0.0895	698727	keystroke	a	n/a
349.488	0.078	698976	keystroke	n	n/a
349.577	0.0565	699154	keystroke	t	n/a
349.6895	0.101	699379	keystroke	s	n/a
349.7795	0.056	699559	keystroke	Key.space	n/a
349.892	0.1015	699784	keystroke	n	n/a
349.96	0.1005	699920	keystroke	o	n/a
350.072	0.0785	700144	keystroke	r	n/a
350.207	0.0795	700414	keystroke	t	n/a
350.3305	0.1015	700661	keystroke	h	n/a
350.421	0.0675	700842	keystroke	Key.space	n/a
350.5445	0.0905	701089	keystroke	p	n/a
350.6685	0.067	701337	keystroke	r	n/a
350.758	0.0675	701516	keystroke	o	n/a
350.8595	0.079	701719	keystroke	d	n/a
350.9725	0.0785	701945	keystroke	u	n/a
351.0615	0.0795	702123	keystroke	c	n/a
351.22	0.0895	702440	keystroke	e	n/a
351.3095	0.0675	702619	keystroke	Key.space	n/a
351.4335	0.09	702867	keystroke	u	n/a
351.6245	0.0685	703249	keystroke	l	n/a
351.7385	0.0545	703477	keystroke	t	n/a
351.883	0.1125	703766	keystroke	r	n/a
351.9735	0.09	703947	keystroke	a	n/a
352.1425	0.078	704285	keystroke	Key.enter	n/a
352.227	7.5665	704454	prompt	n/a	apartment beauty ireland pharmaceuticals\n
352.817	0.0785	705634	keystroke	a	n/a
352.93	0.056	705860	keystroke	p	n/a
353.076	0.1125	706152	keystroke	a	n/a
353.1655	0.079	706331	keystroke	r	n/a
353.3345	0.0675	706669	keystroke	t	n/a
353.447	0.0915	706894	keystroke	m	n/a
353.593	0.0795	707186	keystroke	e	n/a
353.683	0.0795	707366	keystroke	n	n/a
353.7735	0.079	707547	keystroke	t	n/a
353.853	0.079	707706	keystroke	Key.space	n/a
354.0095	0.079	708019	keystroke	b	n/a
354.1335	0.1125	708267	keystroke	e	n/a
354.2235	0.0785	708447	keystroke	a	n/a
354.358	0.091	708716	keystroke	u	n/a
354.46	0.078	708920	keystroke	t	n/a
354.5945	0.0785	709189	keystroke	y	n/a
354.6735	0.056	709347	keystroke	Key.space	n/a
354.855	0.033	709710	keystroke	r	n/a
354.943	0.057	709886	keystroke	i	n/a
355.168	0.0455	710336	keystroke	Key.backspace	n/a
355.2805	0.0685	710561	keystroke	Key.backspace	n/a
355.4605	0.068	710921	keystroke	i	n/a
355.562	0.135	711124	keystroke	r	n/a
355.663	0.079	711326	keystroke	e	n/a
355.7985	0.0675	711597	keystroke	l	n/a
355.922	0.0785	711844	keystroke	a	n/a
356.0235	0.0895	712047	keystroke	n	n/a
356.1245	0.091	712249	keystroke	d	n/a
356.2485	0.079	712497	keystroke	Key.space	n/a
356.3945	0.1355	712789	keystroke	p	n/a
356.564	0.0905	713128	keystroke	h	n/a
356.688	0.112	713376	keystroke	a	n/a
356.8225	0.0785	713645	keystroke	r	n/a
356.9575	0.1125	713915	keystroke	m	n/a
357.1705	0.102	714341	keystroke	e	n/a
357.6655	0.079	715331	keystroke	Key.backspace	n/a
357.778	0.0905	715556	keystroke	a	n/a
358.0705	0.102	716141	keystroke	c	n/a
358.3525	0.067	716705	keystroke	e	n/a
358.4875	0.09	716975	keystroke	u	n/a
358.667	0.079	717334	keystroke	t	n/a
358.9035	0.0785	717807	keystroke	i	n/a
359.0155	0.1015	718031	keystroke	c	n/a
359.128	0.079	718256	keystroke	a	n/a
359.241	0.0905	718482	keystroke	l	n/a
359.3985	0.0565	718797	keystroke	s	n/a
359.7245	0.068	719449	keystroke	Key.enter	n/a
359.7985	3.178	719597	prompt	n/a	drew meaning inch wifi\n
360.422	0.0675	720844	keystroke	d	n/a
360.602	0.114	721204	keystroke	r	n/a
360.67	0.146	721340	keystroke	e	n/a
360.782	0.1015	721564	keystroke	w	n/a
360.884	0.078	721768	keystroke	Key.space	n/a
360.9955	0.1015	721991	keystroke	m	n/a
361.086	0.079	722172	keystroke	e	n/a
361.12	0.1005	722240	keystroke	a	n/a
361.2665	0.112	722533	keystroke	n	n/a
361.4015	0.123	722803	keystroke	i	n/a
361.4905	0.1015	722981	keystroke	n	n/a
361.5695	0.1125	723139	keystroke	g	n/a
361.6485	0.1015	723297	keystroke	Key.space	n/a
361.761	0.112	723522	keystroke	i	n/a
361.851	0.1125	723702	keystroke	n	n/a
361.975	0.0905	723950	keystroke	c	n/a
362.088	0.1005	724176	keystroke	h	n/a
362.2105	0.0675	724421	keystroke	Key.space	n/a
362.3795	0.0675	724759	keystroke	w	n/a
362.47	0.0555	724940	keystroke	i	n/a
362.571	0.067	725142	keystroke	f	n/a
362.683	0.0795	725366	keystroke	i	n/a
362.9195	0.056	725839	keystroke	Key.enter	n/a
362.982	6.115	725964	prompt	n/a	convergence houston rehab taylor\n
363.5945	0.0795	727189	keystroke	c	n/a
363.6845	0.137	727369	keystroke	o	n/a
363.9775	0.0895	727955	keystroke	n	n/a
364.1345	0.1125	728269	keystroke	v	n/a
364.36	0.123	728720	keystroke	e	n/a
364.427	0.079	728854	keystroke	r	n/a
364.6075	0.0785	729215	keystroke	g	n/a
364.675	0.112	729350	keystroke	e	n/a
364.821	0.101	729642	keystroke	n	n/a
364.933	0.068	729866	keystroke	c	n/a
365.0905	0.079	730181	keystroke	e	n/a
365.1585	0.079	730317	keystroke	Key.space	n/a
365.2485	0.09	730497	keystroke	h	n/a
365.428	0.102	730856	keystroke	o	n/a
365.4955	0.0905	730991	keystroke	u	n/a
365.698	0.113	731396	keystroke	s	n/a
365.7885	0.101	731577	keystroke	t	n/a
365.8785	0.101	731757	keystroke	a	n/a
366.25	0.078	732500	keystroke	Key.backspace	n/a
366.6205	0.1355	733241	keystroke	o	n/a
366.7555	0.102	733511	keystroke	n	n/a
366.902	0.09	733804	keystroke	Key.space	n/a
367.1945	0.1015	734389	keystroke	r	n/a
367.2625	0.1005	734525	keystroke	e	n/a
367.5205	0.09	735041	keystroke	h	n/a
367.645	0.0785	735290	keystroke	a	n/a
367.7795	0.0905	735559	keystroke	b	n/a
367.9705	0.079	735941	keystroke	Key.space	n/a
368.1395	0.0785	736279	keystroke	t	n/a
368.275	0.09	736550	keystroke	a	n/a
368.3305	0.1015	736661	keystroke	y	n/a
368.556	0.056	737112	keystroke	l	n/a
368.702	0.08	737404	keystroke	o	n/a
368.826	0.079	737652	keystroke	r	n/a
369.028	0.068	738056	keystroke	Key.enter	n/a
369.102	4.2925	738204	prompt	n/a	tech marc protocol summer\n
369.636	0.09	739272	keystroke	t	n/a
369.7825	0.09	739565	keystroke	e	n/a
369.9845	0.056	739969	keystroke	c	n/a
370.0635	0.09	740127	keystroke	h	n/a
370.176	0.08	740352	keystroke	Key.space	n/a
370.2995	0.102	740599	keystroke	m	n/a
370.4125	0.09	740825	keystroke	a	n/a
370.4575	0.056	740915	keystroke	r	n/a
370.5805	0.0905	741161	keystroke	k	n/a
370.683	0.0665	741366	keystroke	Key.space	n/a
370.9305	0.0575	741861	keystroke	Key.backspace	n/a
371.0545	0.0785	742109	keystroke	Key.backspace	n/a
371.1885	0.057	742377	keystroke	c	n/a
371.3465	0.079	742693	keystroke	Key.space	n/a
371.572	0.078	743144	keystroke	p	n/a
371.6845	0.0905	743369	keystroke	r	n/a
371.797	0.0855	743594	keystroke	o	n/a
371.9205	0.0555	743841	keystroke	t	n/a
372.021	0.0605	744042	keystroke	o	n/a
372.1225	0.079	744245	keystroke	c	n/a
372.224	0.0555	744448	keystroke	o	n/a
372.3845	0.0755	744769	keystroke	l	n/a
372.499	0.052	744998	keystroke	Key.space	n/a
372.528	0.0895	745056	keystroke	s	n/a
372.664	0.055	745328	keystroke	u	n/a
372.8425	0.056	745685	keystroke	m	n/a
372.9655	0.0675	745931	keystroke	m	n/a
373.1005	0.1015	746201	keystroke	e	n/a
373.157	0.09	746314	keystroke	r	n/a
373.3265	0.067	746653	keystroke	Key.enter	n/a
373.3995	5.147	746799	prompt	n/a	evaluating webpage dubai voices\n
373.8885	0.0565	747777	keystroke	e	n/a
374.0575	0.09	748115	keystroke	v	n/a
374.1135	0.09	748227	keystroke	a	n/a
374.2375	0.1015	748475	keystroke	l	n/a
374.316	0.0785	748632	keystroke	u	n/a
374.4735	0.101	748947	keystroke	a	n/a
374.541	0.0895	749082	keystroke	t	n/a
374.7205	0.0905	749441	keystroke	i	n/a
374.7665	0.101	749533	keystroke	n	n/a
374.845	0.101	749690	keystroke	g	n/a
374.935	0.067	749870	keystroke	Key.space	n/a
375.036	0.102	750072	keystroke	w	n/a
375.1035	0.09	750207	keystroke	e	n/a
375.283	0.0905	750566	keystroke	b	n/a
375.5085	0.045	751017	keystroke	Key.space	n/a
375.6545	0.0675	751309	keystroke	p	n/a
375.902	0.0565	751804	keystroke	Key.backspace	n/a
376.0155	0.078	752031	keystroke	Key.backspace	n/a
376.228	0.079	752456	keystroke	p	n/a
376.318	0.079	752636	keystroke	a	n/a
376.3855	0.1125	752771	keystroke	g	n/a
376.476	0.124	752952	keystroke	e	n/a
376.566	0.079	753132	keystroke	Key.space	n/a
376.701	0.09	753402	keystroke	d	n/a
376.8245	0.101	753649	keystroke	u	n/a
376.9375	0.0785	753875	keystroke	b	n/a
377.061	0.079	754122	keystroke	a	n/a
377.1735	0.0895	754347	keystroke	i	n/a
377.3425	0.067	754685	keystroke	Key.space	n/a
377.556	0.0785	755112	keystroke	v	n/a
377.6685	0.114	755337	keystroke	o	n/a
377.747	0.102	755494	keystroke	i	n/a
377.86	0.09	755720	keystroke	c	n/a
378.0395	0.068	756079	keystroke	e	n/a
378.2305	0.068	756461	keystroke	s	n/a
378.4785	0.067	756957	keystroke	Key.enter	n/a
378.5515	4.394	757103	prompt	n/a	fuji shapes blind distant\n
379.12	0.079	758240	keystroke	f	n/a
379.2435	0.079	758487	keystroke	u	n/a
379.5355	0.08	759071	keystroke	j	n/a
379.7495	0.0785	759499	keystroke	i	n/a
380.0325	0.066	760065	keystroke	Key.space	n/a
380.2445	0.068	760489	keystroke	s	n/a
380.346	0.09	760692	keystroke	h	n/a
380.4355	0.08	760871	keystroke	a	n/a
380.549	0.0895	761098	keystroke	p	n/a
380.65	0.101	761300	keystroke	e	n/a
380.7055	0.124	761411	keystroke	s	n/a
380.8405	0.0675	761681	keystroke	Key.space	n/a
380.999	0.0675	761998	keystroke	b	n/a
381.1	0.135	762200	keystroke	l	n/a
381.201	0.202	762402	keystroke	i	n/a
381.3925	0.0895	762785	keystroke	n	n/a
381.5385	0.09	763077	keystroke	d	n/a
381.6515	0.09	763303	keystroke	Key.space	n/a
381.855	0.0885	763710	keystroke	d	n/a
381.966	0.068	763932	keystroke	i	n/a
382.067	0.0905	764134	keystroke	s	n/a
382.1235	0.0895	764247	keystroke	t	n/a
382.2245	0.0795	764449	keystroke	a	n/a
382.3485	0.09	764697	keystroke	n	n/a
382.585	0.056	765170	keystroke	t	n/a
382.8885	0.056	765777	keystroke	Key.enter	n/a
382.951	4.1125	765902	prompt	n/a	getting boxed calvin itunes\n
383.5635	0.079	767127	keystroke	g	n/a
383.6985	0.1015	767397	keystroke	e	n/a
383.766	0.0675	767532	keystroke	t	n/a
383.901	0.0895	767802	keystroke	t	n/a
384.047	0.1015	768094	keystroke	i	n/a
384.115	0.1005	768230	keystroke	n	n/a
384.194	0.0785	768388	keystroke	g	n/a
384.273	0.055	768546	keystroke	Key.space	n/a
384.385	0.0785	768770	keystroke	b	n/a
384.532	0.0665	769064	keystroke	o	n/a
384.588	0.0665	769176	keystroke	x	n/a
384.7785	0.0675	769557	keystroke	e	n/a
384.925	0.079	769850	keystroke	d	n/a
385.026	0.068	770052	keystroke	Key.space	n/a
385.1495	0.0675	770299	keystroke	c	n/a
385.262	0.079	770524	keystroke	a	n/a
385.3985	0.0775	770797	keystroke	l	n/a
385.488	0.0785	770976	keystroke	v	n/a
385.634	0.1125	771268	keystroke	i	n/a
385.7125	0.101	771425	keystroke	n	n/a
385.802	0.0675	771604	keystroke	Key.space	n/a
385.9375	0.09	771875	keystroke	i	n/a
386.061	0.0675	772122	keystroke	t	n/a
386.185	0.079	772370	keystroke	u	n/a
386.376	0.1015	772752	keystroke	n	n/a
386.489	0.1345	772978	keystroke	e	n/a
386.657	0.09	773314	keystroke	s	n/a
386.9945	0.0675	773989	keystroke	Key.enter	n/a
387.07	4.673	774140	prompt	n/a	leader persistent trinity according\n
387.6135	0.079	775227	keystroke	l	n/a
387.7155	0.078	775431	keystroke	e	n/a
387.7825	0.078	775565	keystroke	a	n/a
387.8945	0.079	775789	keystroke	d	n/a
388.0415	0.1125	776083	keystroke	e	n/a
388.109	0.1005	776218	keystroke	r	n/a
388.1985	0.067	776397	keystroke	Key.space	n/a
388.3335	0.101	776667	keystroke	p	n/a
388.446	0.1125	776892	keystroke	e	n/a
388.502	0.08	777004	keystroke	r	n/a
388.6485	0.079	777297	keystroke	s	n/a
388.7725	0.067	777545	keystroke	i	n/a
388.851	0.079	777702	keystroke	s	n/a
388.987	0.1225	777974	keystroke	t	n/a
389.087	0.0905	778174	keystroke	e	n/a
389.2105	0.0905	778421	keystroke	n	n/a
389.312	0.09	778624	keystroke	t	n/a
389.413	0.07	778826	keystroke	Key.space	n/a
389.56	0.068	779120	keystroke	t	n/a
389.695	0.078	779390	keystroke	r	n/a
389.807	0.101	779614	keystroke	i	n/a
389.9535	0.1235	779907	keystroke	n	n/a
390.0325	0.112	780065	keystroke	i	n/a
390.1785	0.067	780357	keystroke	t	n/a
390.2795	0.09	780559	keystroke	y	n/a
390.382	0.0775	780764	keystroke	Key.space	n/a
390.5385	0.0785	781077	keystroke	a	n/a
390.696	0.0675	781392	keystroke	c	n/a
390.832	0.0775	781664	keystroke	c	n/a
390.932	0.056	781864	keystroke	o	n/a
391.0445	0.0785	782089	keystroke	r	n/a
391.191	0.079	782382	keystroke	d	n/a
391.282	0.1005	782564	keystroke	i	n/a
391.371	0.079	782742	keystroke	n	n/a
391.4835	0.079	782967	keystroke	g	n/a
391.675	0.067	783350	keystroke	Key.enter	n/a
391.75	5.2695	783500	prompt	n/a	organisations aggregate looking saddam\n
392.26	0.067	784520	keystroke	o	n/a
392.372	0.0675	784744	keystroke	r	n/a
392.541	0.091	785082	keystroke	g	n/a
392.62	0.0895	785240	keystroke	a	n/a
392.755	0.101	785510	keystroke	n	n/a
392.822	0.079	785644	keystroke	i	n/a
392.9345	0.09	785869	keystroke	s	n/a
393.1035	0.1125	786207	keystroke	a	n/a
393.2275	0.067	786455	keystroke	t	n/a
393.317	0.1465	786634	keystroke	i	n/a
393.3965	0.1235	786793	keystroke	o	n/a
393.4875	0.111	786975	keystroke	n	n/a
393.5875	0.0785	787175	keystroke	s	n/a
393.688	0.068	787376	keystroke	Key.space	n/a
393.7785	0.0905	787557	keystroke	a	n/a
393.902	0.08	787804	keystroke	g	n/a
394.038	0.089	788076	keystroke	g	n/a
394.2395	0.1235	788479	keystroke	r	n/a
394.341	0.1015	788682	keystroke	e	n/a
394.476	0.1125	788952	keystroke	g	n/a
394.611	0.1125	789222	keystroke	a	n/a
394.7125	0.1235	789425	keystroke	t	n/a
394.8245	0.1015	789649	keystroke	e	n/a
394.9375	0.0705	789875	keystroke	Key.space	n/a
395.083	0.079	790166	keystroke	l	n/a
395.2525	0.056	790505	keystroke	o	n/a
395.4095	0.0675	790819	keystroke	o	n/a
395.4555	0.089	790911	keystroke	k	n/a
395.6465	0.1005	791293	keystroke	i	n/a
395.713	0.1025	791426	keystroke	n	n/a
395.7585	0.1015	791517	keystroke	g	n/a
395.8485	0.0565	791697	keystroke	Key.space	n/a
395.961	0.113	791922	keystroke	s	n/a
396.0615	0.0905	792123	keystroke	a	n/a
396.22	0.101	792440	keystroke	d	n/a
396.423	0.067	792846	keystroke	d	n/a
396.536	0.089	793072	keystroke	a	n/a
396.6485	0.111	793297	keystroke	m	n/a
396.951	0.067	793902	keystroke	Key.enter	n/a
397.026	3.863	794052	prompt	n/a	boating second of compound\n
397.592	0.079	795184	keystroke	b	n/a
397.7275	0.056	795455	keystroke	o	n/a
397.851	0.09	795702	keystroke	a	n/a
397.9975	0.0785	795995	keystroke	t	n/a
398.143	0.1125	796286	keystroke	i	n/a
398.222	0.1015	796444	keystroke	n	n/a
398.3125	0.0895	796625	keystroke	g	n/a
398.402	0.0805	796804	keystroke	Key.space	n/a
398.5485	0.09	797097	keystroke	s	n/a
398.616	0.0845	797232	keystroke	e	n/a
398.807	0.0675	797614	keystroke	c	n/a
398.92	0.112	797840	keystroke	o	n/a
399.0095	0.09	798019	keystroke	n	n/a
399.0545	0.101	798109	keystroke	d	n/a
399.1445	0.0795	798289	keystroke	Key.space	n/a
399.2805	0.108	798561	keystroke	o	n/a
399.358	0.102	798716	keystroke	f	n/a
399.437	0.079	798874	keystroke	Key.space	n/a
399.5945	0.1005	799189	keystroke	c	n/a
399.7075	0.113	799415	keystroke	o	n/a
399.797	0.169	799594	keystroke	m	n/a
399.9545	0.1235	799909	keystroke	p	n/a
400.0445	0.18	800089	keystroke	o	n/a
400.2135	0.0685	800427	keystroke	u	n/a
400.3935	0.09	800787	keystroke	n	n/a
400.506	0.0675	801012	keystroke	d	n/a
400.85	0.0385	801700	keystroke	Key.enter	n/a
400.8945	4.755	801789	prompt	n/a	scratch peers children expenses\n
401.451	0.0565	802902	keystroke	s	n/a
401.598	0.0895	803196	keystroke	c	n/a
401.7775	0.09	803555	keystroke	r	n/a
401.856	0.1235	803712	keystroke	a	n/a
401.9685	0.0685	803937	keystroke	t	n/a
402.1485	0.0675	804297	keystroke	c	n/a
402.261	0.0785	804522	keystroke	h	n/a
402.362	0.057	804724	keystroke	Key.space	n/a
402.4875	0.0775	804975	keystroke	p	n/a
402.632	0.068	805264	keystroke	e	n/a
402.7895	0.1015	805579	keystroke	e	n/a
402.857	0.0675	805714	keystroke	r	n/a
403.0035	0.0785	806007	keystroke	s	n/a
403.1045	0.068	806209	keystroke	Key.space	n/a
403.296	0.0675	806592	keystroke	c	n/a
403.4545	0.168	806909	keystroke	h	n/a
403.5885	0.124	807177	keystroke	i	n/a
403.69	0.0895	807380	keystroke	l	n/a
403.769	0.1005	807538	keystroke	d	n/a
403.9825	0.112	807965	keystroke	r	n/a
404.0725	0.09	808145	keystroke	e	n/a
404.2535	0.089	808507	keystroke	n	n/a
404.376	0.0785	808752	keystroke	Key.space	n/a
404.4995	0.0675	808999	keystroke	e	n/a
404.6685	0.056	809337	keystroke	x	n/a
404.758	0.0795	809516	keystroke	p	n/a
404.86	0.0675	809720	keystroke	e	n/a
405.006	0.0785	810012	keystroke	n	n/a
405.0745	0.1	810149	keystroke	s	n/a
405.152	0.124	810304	keystroke	e	n/a
405.265	0.067	810530	keystroke	s	n/a
405.591	0.0575	811182	keystroke	Key.enter	n/a
405.655	8.802	811310	prompt	n/a	gardening builder cargo newsletter\n
410.0345	0.103	820069	keystroke	g	n/a
410.1585	0.1125	820317	keystroke	a	n/a
410.237	0.079	820474	keystroke	r	n/a
410.3945	0.0675	820789	keystroke	d	n/a
410.6325	0.01	821265	keystroke	e	n/a
410.6755	0.1355	821351	keystroke	n	n/a
410.8335	0.135	821667	keystroke	i	n/a
410.9235	0.1235	821847	keystroke	n	n/a
411.0245	0.1015	822049	keystroke	g	n/a
411.0925	0.079	822185	keystroke	Key.space	n/a
411.2275	0.0895	822455	keystroke	b	n/a
411.351	0.146	822702	keystroke	u	n/a
411.4305	0.1455	822861	keystroke	i	n/a
411.5085	0.1125	823017	keystroke	l	n/a
411.6325	0.0555	823265	keystroke	d	n/a
411.7905	0.089	823581	keystroke	e	n/a
411.835	0.102	823670	keystroke	r	n/a
411.9245	0.068	823849	keystroke	Key.space	n/a
412.116	0.0785	824232	keystroke	c	n/a
412.2285	0.135	824457	keystroke	a	n/a
412.341	0.0675	824682	keystroke	r	n/a
412.5885	0.0565	825177	keystroke	g	n/a
412.69	0.101	825380	keystroke	o	n/a
412.836	0.046	825672	keystroke	Key.space	n/a
413.0725	0.1015	826145	keystroke	n	n/a
413.185	0.102	826370	keystroke	e	n/a
413.275	0.079	826550	keystroke	w	n/a
413.4435	0.067	826887	keystroke	s	n/a
413.5675	0.0785	827135	keystroke	l	n/a
413.7135	0.1125	827427	keystroke	e	n/a
413.804	0.0785	827608	keystroke	t	n/a
413.95	0.0785	827900	keystroke	t	n/a
414.096	0.1025	828192	keystroke	e	n/a
414.1525	0.079	828305	keystroke	r	n/a
414.4	0.056	828800	keystroke	Key.enter	n/a
414.462	9.1525	828924	prompt	n/a	handhelds seller enhanced soldiers\n
415.0525	0.08	830105	keystroke	h	n/a
415.1325	0.077	830265	keystroke	a	n/a
415.2435	0.101	830487	keystroke	n	n/a
415.322	0.113	830644	keystroke	d	n/a
415.424	0.1005	830848	keystroke	s	n/a
415.66	0.0675	831320	keystroke	h	n/a
415.7835	0.079	831567	keystroke	e	n/a
415.885	0.09	831770	keystroke	l	n/a
416.0085	0.146	832017	keystroke	d	n/a
416.0985	0.1125	832197	keystroke	s	n/a
417.055	0.0565	834110	keystroke	Key.backspace	n/a
417.212	0.045	834424	keystroke	Key.backspace	n/a
417.336	0.056	834672	keystroke	Key.backspace	n/a
417.4825	0.0675	834965	keystroke	Key.backspace	n/a
417.6395	0.057	835279	keystroke	Key.backspace	n/a
417.798	0.0555	835596	keystroke	Key.backspace	n/a
418.1235	0.079	836247	keystroke	h	n/a
418.3935	0.0675	836787	keystroke	e	n/a
418.562	0.056	837124	keystroke	l	n/a
418.6525	0.1235	837305	keystroke	d	n/a
418.7425	0.0895	837485	keystroke	s	n/a
418.9	0.0895	837800	keystroke	Key.space	n/a
419.0125	0.0785	838025	keystroke	s	n/a
419.1245	0.0675	838249	keystroke	e	n/a
419.2935	0.056	838587	keystroke	l	n/a
419.4395	0.0565	838879	keystroke	l	n/a
419.564	0.135	839128	keystroke	e	n/a
419.654	0.1005	839308	keystroke	r	n/a
419.7325	0.0785	839465	keystroke	Key.space	n/a
419.957	0.08	839914	keystroke	e	n/a
420.2725	0.0785	840545	keystroke	n	n/a
420.4975	0.068	840995	keystroke	h	n/a
420.587	0.079	841174	keystroke	a	n/a
420.7115	0.09	841423	keystroke	n	n/a
420.8125	0.0565	841625	keystroke	c	n/a
420.982	0.0445	841964	keystroke	e	n/a
421.1275	0.0785	842255	keystroke	d	n/a
421.2065	0.09	842413	keystroke	Key.space	n/a
421.3205	0.0885	842641	keystroke	s	n/a
421.454	0.09	842908	keystroke	o	n/a
421.645	0.1235	843290	keystroke	l	n/a
421.7235	0.101	843447	keystroke	i	n/a
422.332	0.0555	844664	keystroke	Key.backspace	n/a
422.6795	0.069	845359	keystroke	d	n/a
422.804	0.0675	845608	keystroke	i	n/a
422.9275	0.112	845855	keystroke	e	n/a
423.051	0.045	846102	keystroke	r	n/a
423.1635	0.0785	846327	keystroke	s	n/a
423.5345	0.079	847069	keystroke	Key.enter	n/a
423.6195	4.124	847239	prompt	n/a	lights involved knows contrary\n
424.154	0.0895	848308	keystroke	l	n/a
424.2435	0.101	848487	keystroke	i	n/a
424.3785	0.0675	848757	keystroke	g	n/a
424.469	0.078	848938	keystroke	h	n/a
424.5815	0.0335	849163	keystroke	t	n/a
424.6715	0.101	849343	keystroke	s	n/a
424.7615	0.0555	849523	keystroke	Key.space	n/a
424.885	0.1015	849770	keystroke	i	n/a
424.941	0.101	849882	keystroke	n	n/a
425.076	0.0785	850152	keystroke	v	n/a
425.1775	0.067	850355	keystroke	o	n/a
425.3465	0.0665	850693	keystroke	l	n/a
425.4245	0.0905	850849	keystroke	v	n/a
425.526	0.101	851052	keystroke	e	n/a
425.7285	0.0915	851457	keystroke	d	n/a
425.796	0.0675	851592	keystroke	Key.space	n/a
425.898	0.123	851796	keystroke	k	n/a
425.976	0.135	851952	keystroke	n	n/a
426.1225	0.0785	852245	keystroke	o	n/a
426.2795	0.0565	852559	keystroke	w	n/a
426.437	0.068	852874	keystroke	s	n/a
426.527	0.0675	853054	keystroke	Key.space	n/a
426.685	0.1015	853370	keystroke	c	n/a
426.798	0.089	853596	keystroke	o	n/a
426.865	0.101	853730	keystroke	n	n/a
426.977	0.0565	853954	keystroke	t	n/a
427.135	0.0895	854270	keystroke	r	n/a
427.2135	0.1015	854427	keystroke	a	n/a
427.292	0.0795	854584	keystroke	r	n/a
427.4165	0.078	854833	keystroke	y	n/a
427.675	0.0675	855350	keystroke	Key.enter	n/a
427.749	7.6895	855498	prompt	n/a	teenage teaches hunter download\n
428.5865	0.045	857173	keystroke	t	n/a
428.7435	0.056	857487	keystroke	e	n/a
428.8785	0.0675	857757	keystroke	e	n/a
429.002	0.0795	858004	keystroke	n	n/a
429.6095	0.068	859219	keystroke	a	n/a
429.7565	0.0895	859513	keystroke	g	n/a
429.902	0.0905	859804	keystroke	e	n/a
430.195	0.0675	860390	keystroke	Key.space	n/a
430.32	0.0885	860640	keystroke	t	n/a
430.399	0.077	860798	keystroke	e	n/a
430.7685	0.0795	861537	keystroke	a	n/a
430.9155	0.0895	861831	keystroke	c	n/a
431.016	0.0785	862032	keystroke	h	n/a
431.1285	0.113	862257	keystroke	e	n/a
431.2075	0.0905	862415	keystroke	s	n/a
431.342	0.079	862684	keystroke	Key.space	n/a
431.9385	0.0565	863877	keystroke	h	n/a
432.107	0.0565	864214	keystroke	u	n/a
432.276	0.0785	864552	keystroke	n	n/a
432.6815	0.067	865363	keystroke	t	n/a
432.951	0.079	865902	keystroke	e	n/a
433.1315	0.0555	866263	keystroke	r	n/a
433.5135	0.0565	867027	keystroke	Key.space	n/a
433.8845	0.0565	867769	keystroke	d	n/a
433.997	0.09	867994	keystroke	o	n/a
434.121	0.079	868242	keystroke	w	n/a
434.222	0.0905	868444	keystroke	n	n/a
434.4815	0.067	868963	keystroke	l	n/a
434.6275	0.0785	869255	keystroke	o	n/a
434.717	0.079	869434	keystroke	a	n/a
434.7735	0.068	869547	keystroke	d	n/a
435.382	0.0555	870764	keystroke	Key.enter	n/a
435.443	9.6955	870886	prompt	n/a	cartoon cheers should rosa\n
437.2825	0.045	874565	keystroke	c	n/a
437.406	0.113	874812	keystroke	a	n/a
437.4865	0.066	874973	keystroke	r	n/a
437.811	0.045	875622	keystroke	t	n/a
437.991	0.0455	875982	keystroke	o	n/a
438.149	0.0675	876298	keystroke	o	n/a
438.317	0.0675	876634	keystroke	n	n/a
438.4295	0.057	876859	keystroke	Key.space	n/a
442.57	0.09	885140	keystroke	c	n/a
442.739	0.0555	885478	keystroke	h	n/a
442.862	0.057	885724	keystroke	e	n/a
442.987	0.1	885974	keystroke	e	n/a
443.1095	0.034	886219	keystroke	r	n/a
443.357	0.1245	886714	keystroke	s	n/a
443.5265	0.045	887053	keystroke	Key.space	n/a
443.616	0.079	887232	keystroke	s	n/a
443.717	0.181	887434	keystroke	h	n/a
443.909	0.1005	887818	keystroke	o	n/a
443.9875	0.09	887975	keystroke	u	n/a
444.1225	0.0895	888245	keystroke	l	n/a
444.2345	0.0685	888469	keystroke	d	n/a
444.291	0.113	888582	keystroke	Key.space	n/a
444.4825	0.079	888965	keystroke	r	n/a
444.606	0.113	889212	keystroke	o	n/a
444.73	0.09	889460	keystroke	s	n/a
444.842	0.1015	889684	keystroke	a	n/a
445.079	0.058	890158	keystroke	Key.enter	n/a
445.145	6.9095	890290	prompt	n/a	playback heavy accurately girlfriend\n
446.4285	0.124	892857	keystroke	p	n/a
446.5075	0.1125	893015	keystroke	l	n/a
446.6315	0.0785	893263	keystroke	a	n/a
446.71	0.101	893420	keystroke	y	n/a
446.8675	0.079	893735	keystroke	b	n/a
446.991	0.113	893982	keystroke	a	n/a
447.0365	0.112	894073	keystroke	c	n/a
447.1715	0.0785	894343	keystroke	k	n/a
447.3285	0.0675	894657	keystroke	Key.space	n/a
447.621	0.0905	895242	keystroke	h	n/a
447.7115	0.0895	895423	keystroke	e	n/a
447.79	0.101	895580	keystroke	a	n/a
447.892	0.0775	895784	keystroke	v	n/a
448.0035	0.091	896007	keystroke	y	n/a
448.105	0.0785	896210	keystroke	Key.space	n/a
448.2395	0.0905	896479	keystroke	a	n/a
448.42	0.0565	896840	keystroke	c	n/a
448.5435	0.09	897087	keystroke	c	n/a
448.6675	0.078	897335	keystroke	u	n/a
448.7685	0.101	897537	keystroke	r	n/a
448.847	0.0675	897694	keystroke	a	n/a
449.252	0.068	898504	keystroke	t	n/a
449.4095	0.068	898819	keystroke	e	n/a
449.545	0.146	899090	keystroke	l	n/a
449.6575	0.0905	899315	keystroke	y	n/a
449.782	0.0895	899564	keystroke	Key.space	n/a
449.9725	0.0785	899945	keystroke	g	n/a
450.13	0.0785	900260	keystroke	i	n/a
450.3665	0.0785	900733	keystroke	r	n/a
450.682	0.0775	901364	keystroke	l	n/a
451.142	0.0565	902284	keystroke	f	n/a
451.3	0.067	902600	keystroke	r	n/a
451.412	0.0675	902824	keystroke	i	n/a
451.5035	0.078	903007	keystroke	e	n/a
451.592	0.09	903184	keystroke	n	n/a
451.694	0.0555	903388	keystroke	d	n/a
451.9865	0.067	903973	keystroke	Key.enter	n/a
452.0595	6.1375	904119	prompt	n/a	units atmospheric spice starring\n
452.7535	0.055	905507	keystroke	u	n/a
452.932	0.0895	905864	keystroke	n	n/a
452.9775	0.078	905955	keystroke	i	n/a
453.0665	0.0675	906133	keystroke	t	n/a
453.213	0.1025	906426	keystroke	s	n/a
453.2825	0.077	906565	keystroke	Key.space	n/a
453.438	0.079	906876	keystroke	a	n/a
453.6185	0.068	907237	keystroke	t	n/a
453.7535	0.1125	907507	keystroke	o	n/a
453.833	0.1495	907666	keystroke	m	n/a
454.788	0.056	909576	keystroke	Key.backspace	n/a
454.923	0.068	909846	keystroke	Key.backspace	n/a
455.1595	0.09	910319	keystroke	m	n/a
455.2175	0.077	910435	keystroke	o	n/a
455.328	0.101	910656	keystroke	s	n/a
455.5305	0.1015	911061	keystroke	p	n/a
455.5865	0.0895	911173	keystroke	h	n/a
455.732	0.1245	911464	keystroke	e	n/a
455.7995	0.0905	911599	keystroke	r	n/a
455.9465	0.09	911893	keystroke	i	n/a
456.0585	0.068	912117	keystroke	c	n/a
456.2165	0.078	912433	keystroke	Key.space	n/a
456.34	0.0785	912680	keystroke	s	n/a
456.4635	0.135	912927	keystroke	p	n/a
456.5425	0.124	913085	keystroke	i	n/a
456.632	0.0905	913264	keystroke	c	n/a
456.824	0.0895	913648	keystroke	e	n/a
456.9025	0.079	913805	keystroke	Key.space	n/a
457.015	0.112	914030	keystroke	s	n/a
457.094	0.0895	914188	keystroke	t	n/a
457.217	0.1245	914434	keystroke	a	n/a
457.2845	0.0805	914569	keystroke	r	n/a
457.4205	0.078	914841	keystroke	r	n/a
457.577	0.1015	915154	keystroke	i	n/a
457.6445	0.1135	915289	keystroke	n	n/a
457.7685	0.056	915537	keystroke	g	n/a
458.1285	0.0675	916257	keystroke	Key.enter	n/a
458.203	4.5725	916406	prompt	n/a	integrity experiment internet evans\n
458.9045	0.0905	917809	keystroke	i	n/a
458.961	0.09	917922	keystroke	n	n/a
459.0625	0.1015	918125	keystroke	t	n/a
459.1415	0.0905	918283	keystroke	e	n/a
459.276	0.09	918552	keystroke	g	n/a
459.4675	0.067	918935	keystroke	r	n/a
459.546	0.09	919092	keystroke	i	n/a
459.6585	0.0565	919317	keystroke	t	n/a
459.76	0.079	919520	keystroke	y	n/a
459.8495	0.1015	919699	keystroke	Key.space	n/a
459.9395	0.0795	919879	keystroke	e	n/a
460.1195	0.0565	920239	keystroke	x	n/a
460.232	0.102	920464	keystroke	p	n/a
460.3	0.112	920600	keystroke	e	n/a
460.368	0.0895	920736	keystroke	r	n/a
460.5025	0.0895	921005	keystroke	i	n/a
460.559	0.09	921118	keystroke	m	n/a
460.6825	0.0785	921365	keystroke	e	n/a
460.7835	0.1015	921567	keystroke	n	n/a
460.8735	0.0785	921747	keystroke	t	n/a
460.9185	0.09	921837	keystroke	Key.space	n/a
461.065	0.135	922130	keystroke	i	n/a
461.1545	0.113	922309	keystroke	n	n/a
461.2565	0.101	922513	keystroke	t	n/a
461.391	0.1235	922782	keystroke	e	n/a
461.4585	0.09	922917	keystroke	r	n/a
461.6385	0.1125	923277	keystroke	n	n/a
461.7395	0.08	923479	keystroke	e	n/a
461.7855	0.089	923571	keystroke	t	n/a
461.875	0.09	923750	keystroke	Key.space	n/a
461.976	0.09	923952	keystroke	e	n/a
462.1335	0.113	924267	keystroke	v	n/a
462.203	0.1105	924406	keystroke	a	n/a
462.359	0.09	924718	keystroke	n	n/a
462.46	0.067	924920	keystroke	s	n/a
462.707	0.0675	925414	keystroke	Key.enter	n/a
462.7805	3.843	925561	prompt	n/a	unable finance garlic artist\n
463.371	0.056	926742	keystroke	u	n/a
463.551	0.068	927102	keystroke	n	n/a
463.619	0.09	927238	keystroke	a	n/a
463.754	0.0895	927508	keystroke	b	n/a
463.8775	0.068	927755	keystroke	l	n/a
463.945	0.101	927890	keystroke	e	n/a
464.0365	0.088	928073	keystroke	Key.space	n/a
464.204	0.09	928408	keystroke	f	n/a
464.305	0.135	928610	keystroke	i	n/a
464.406	0.0905	928812	keystroke	n	n/a
464.485	0.09	928970	keystroke	a	n/a
464.6315	0.078	929263	keystroke	n	n/a
464.6985	0.0675	929397	keystroke	c	n/a
464.8675	0.079	929735	keystroke	e	n/a
464.935	0.0785	929870	keystroke	Key.space	n/a
465.07	0.0905	930140	keystroke	g	n/a
465.171	0.1125	930342	keystroke	a	n/a
465.2725	0.0675	930545	keystroke	r	n/a
465.4075	0.124	930815	keystroke	l	n/a
465.5085	0.079	931017	keystroke	i	n/a
465.6215	0.068	931243	keystroke	c	n/a
465.7675	0.09	931535	keystroke	Key.space	n/a
465.869	0.1005	931738	keystroke	a	n/a
465.936	0.0675	931872	keystroke	r	n/a
466.071	0.079	932142	keystroke	t	n/a
466.195	0.0675	932390	keystroke	i	n/a
466.274	0.1125	932548	keystroke	s	n/a
466.3415	0.079	932683	keystroke	t	n/a
466.555	0.0675	933110	keystroke	Key.enter	n/a
466.6285	6.0475	933257	prompt	n/a	writes mumbai reporting attending\n
467.2635	0.079	934527	keystroke	w	n/a
467.387	0.102	934774	keystroke	r	n/a
467.5335	0.0565	935067	keystroke	i	n/a
467.613	0.078	935226	keystroke	t	n/a
467.804	0.0895	935608	keystroke	s	n/a
467.95	0.056	935900	keystroke	Key.space	n/a
468.2315	0.056	936463	keystroke	Key.backspace	n/a
468.3435	0.09	936687	keystroke	Key.backspace	n/a
468.4445	0.079	936889	keystroke	e	n/a
468.591	0.113	937182	keystroke	s	n/a
468.715	0.034	937430	keystroke	Key.space	n/a
468.7605	0.0895	937521	keystroke	m	n/a
468.9405	0.0675	937881	keystroke	u	n/a
469.1085	0.09	938217	keystroke	m	n/a
469.244	0.1015	938488	keystroke	b	n/a
469.3895	0.09	938779	keystroke	a	n/a
469.503	0.0665	939006	keystroke	i	n/a
469.6265	0.0675	939253	keystroke	Key.space	n/a
469.9305	0.1235	939861	keystroke	r	n/a
470.02	0.067	940040	keystroke	e	n/a
470.1545	0.113	940309	keystroke	p	n/a
470.2225	0.1125	940445	keystroke	o	n/a
470.3465	0.056	940693	keystroke	r	n/a
470.4815	0.1005	940963	keystroke	t	n/a
470.706	0.1235	941412	keystroke	i	n/a
470.774	0.124	941548	keystroke	n	n/a
470.9425	0.112	941885	keystroke	g	n/a
471.167	0.0795	942334	keystroke	Key.space	n/a
471.336	0.079	942672	keystroke	a	n/a
471.4375	0.0675	942875	keystroke	t	n/a
471.5835	0.135	943167	keystroke	t	n/a
471.685	0.1015	943370	keystroke	e	n/a
471.8425	0.0785	943685	keystroke	n	n/a
471.932	0.0795	943864	keystroke	d	n/a
472.0675	0.1125	944135	keystroke	i	n/a
472.1355	0.1125	944271	keystroke	n	n/a
472.27	0.0785	944540	keystroke	g	n/a
472.619	0.056	945238	keystroke	Key.enter	n/a
472.683	5.1405	945366	prompt	n/a	calgary roland lyrics boston\n
473.3275	0.0785	946655	keystroke	c	n/a
473.44	0.079	946880	keystroke	a	n/a
473.586	0.079	947172	keystroke	l	n/a
473.744	0.09	947488	keystroke	g	n/a
473.9025	0.122	947805	keystroke	a	n/a
474.0025	0.079	948005	keystroke	r	n/a
474.149	0.0895	948298	keystroke	y	n/a
474.2495	0.0675	948499	keystroke	Key.space	n/a
474.4525	0.0675	948905	keystroke	r	n/a
474.5425	0.056	949085	keystroke	o	n/a
474.7675	0.0115	949535	keystroke	l	n/a
474.79	0.056	949580	keystroke	a	n/a
474.9135	0.1015	949827	keystroke	n	n/a
475.0035	0.0795	950007	keystroke	d	n/a
475.094	0.0675	950188	keystroke	Key.space	n/a
475.2175	0.079	950435	keystroke	l	n/a
475.3985	0.0775	950797	keystroke	y	n/a
475.51	0.09	951020	keystroke	r	n/a
475.6565	0.0465	951313	keystroke	i	n/a
475.7685	0.1135	951537	keystroke	c	n/a
475.8485	0.1005	951697	keystroke	s	n/a
476.095	0.0785	952190	keystroke	Key.space	n/a
476.2635	0.0905	952527	keystroke	b	n/a
476.3875	0.068	952775	keystroke	o	n/a
476.4665	0.103	952933	keystroke	s	n/a
476.534	0.09	953068	keystroke	t	n/a
477.074	0.045	954148	keystroke	o	n/a
477.445	0.1015	954890	keystroke	n	n/a
477.7605	0.056	955521	keystroke	Key.enter	n/a
477.824	21.6945	955648	prompt	n/a	screensaver chip smaller surgeon\n
494.1415	0.0595	988283	keystroke	s	n/a
494.2995	0.0675	988599	keystroke	c	n/a
494.6595	0.0915	989319	keystroke	r	n/a
494.8155	0.0785	989631	keystroke	e	n/a
494.973	0.073	989946	keystroke	e	n/a
495.12	0.1005	990240	keystroke	n	n/a
495.435	0.0885	990870	keystroke	s	n/a
495.5575	0.135	991115	keystroke	a	n/a
495.67	0.1235	991340	keystroke	v	n/a
495.85	0.146	991700	keystroke	e	n/a
495.952	0.123	991904	keystroke	r	n/a
496.0525	0.056	992105	keystroke	Key.space	n/a
496.221	0.09	992442	keystroke	c	n/a
496.356	0.135	992712	keystroke	h	n/a
496.402	0.1345	992804	keystroke	i	n/a
496.504	0.1265	993008	keystroke	p	n/a
496.632	0.0615	993264	keystroke	Key.space	n/a
496.987	0.067	993974	keystroke	m	n/a
497.043	0.0555	994086	keystroke	a	n/a
497.346	0.0455	994692	keystroke	Key.backspace	n/a
497.4485	0.0895	994897	keystroke	Key.backspace	n/a
497.594	0.0675	995188	keystroke	s	n/a
497.6835	0.079	995367	keystroke	m	n/a
497.7855	0.0795	995571	keystroke	a	n/a
497.8985	0.044	995797	keystroke	l	n/a
498.021	0.057	996042	keystroke	l	n/a
498.0665	0.1355	996133	keystroke	e	n/a
498.134	0.079	996268	keystroke	r	n/a
498.202	0.067	996404	keystroke	Key.space	n/a
498.325	0.079	996650	keystroke	s	n/a
498.449	0.067	996898	keystroke	u	n/a
498.527	0.068	997054	keystroke	r	n/a
498.674	0.1125	997348	keystroke	g	n/a
498.7755	0.1005	997551	keystroke	e	n/a
498.8985	0.1015	997797	keystroke	o	n/a
498.9665	0.112	997933	keystroke	n	n/a
499.4615	0.056	998923	keystroke	Key.enter	n/a
499.5235	5.5305	999047	prompt	n/a	welfare surely abuse simpson\n
500.2265	0.0675	1000453	keystroke	w	n/a
500.2605	0.09	1000521	keystroke	e	n/a
500.4735	0.068	1000947	keystroke	l	n/a
500.575	0.101	1001150	keystroke	f	n/a
500.744	0.101	1001488	keystroke	a	n/a
501.0135	0.124	1002027	keystroke	r	n/a
