onset	duration	sample	value	key	prompt_text
6.2155	13.8535	12431	prompt	n/a	the quick brown fox jumps over a lazy dog\n
7.4965	0.088	14993	keystroke_t	t	n/a
7.5695	0.136	15139	keystroke_h	h	n/a
7.6755	0.12	15351	keystroke_e	e	n/a
7.811	0.1345	15622	keystroke_Key.space	Key.space	n/a
8.051	0.09	16102	keystroke_q	q	n/a
8.231	0.225	16462	keystroke_u	u	n/a
8.366	0.165	16732	keystroke_i	i	n/a
8.576	0.1355	17152	keystroke_c	c	n/a
8.7415	0.24	17483	keystroke_k	k	n/a
8.8915	0.195	17783	keystroke_Key.space	Key.space	n/a
9.1315	0.105	18263	keystroke_b	b	n/a
9.2665	0.105	18533	keystroke_r	r	n/a
9.3865	0.135	18773	keystroke_o	o	n/a
9.5065	0.135	19013	keystroke_w	w	n/a
9.6115	0.195	19223	keystroke_n	n	n/a
9.7315	0.135	19463	keystroke_Key.space	Key.space	n/a
9.8515	0.12	19703	keystroke_f	f	n/a
10.0165	0.1345	20033	keystroke_o	o	n/a
10.271	0.15	20542	keystroke_x	x	n/a
10.391	0.195	20782	keystroke_Key.space	Key.space	n/a
10.556	0.0905	21112	keystroke_j	j	n/a
10.7365	0.09	21473	keystroke_u	u	n/a
11.0815	0.165	22163	keystroke_p	p	n/a
11.2465	0.135	22493	keystroke_s	s	n/a
11.3215	0.225	22643	keystroke_Key.space	Key.space	n/a
11.4565	0.135	22913	keystroke_o	o	n/a
11.5765	0.12	23153	keystroke_v	v	n/a
11.9965	0.06	23993	keystroke_Key.backspace	Key.backspace	n/a
12.1165	0.09	24233	keystroke_Key.backspace	Key.backspace	n/a
12.2665	0.06	24533	keystroke_Key.backspace	Key.backspace	n/a
12.3865	0.09	24773	keystroke_Key.backspace	Key.backspace	n/a
12.7315	0.225	25463	keystroke_m	m	n/a
12.8665	0.165	25733	keystroke_p	p	n/a
13.1965	0.045	26393	keystroke_Key.backspace	Key.backspace	n/a
13.5265	0.09	27053	keystroke_Key.backspace	Key.backspace	n/a
13.6915	0.075	27383	keystroke_Key.backspace	Key.backspace	n/a
14.022	0.105	28044	keystroke_m	m	n/a
14.307	0.104	28614	keystroke_p	p	n/a
14.517	0.104	29034	keystroke_v	v	n/a
14.952	0.074	29904	keystroke_Key.backspace	Key.backspace	n/a
15.072	0.12	30144	keystroke_s	s	n/a
15.267	0.165	30534	keystroke_Key.space	Key.space	n/a
15.447	0.12	30894	keystroke_i	i	n/a
15.642	0.09	31284	keystroke_v	v	n/a
15.941	0.06	31882	keystroke_Key.backspace	Key.backspace	n/a
16.076	0.06	32152	keystroke_Key.backspace	Key.backspace	n/a
17.1865	0.12	34373	keystroke_o	o	n/a
17.3215	0.105	34643	keystroke_v	v	n/a
17.5915	0.165	35183	keystroke_e	e	n/a
17.6815	0.135	35363	keystroke_r	r	n/a
17.8165	0.12	35633	keystroke_Key.space	Key.space	n/a
17.9515	0.12	35903	keystroke_a	a	n/a
18.0865	0.105	36173	keystroke_Key.space	Key.space	n/a
18.5065	0.12	37013	keystroke_l	l	n/a
18.6565	0.12	37313	keystroke_a	a	n/a
18.8665	0.135	37733	keystroke_z	z	n/a
19.0615	0.195	38123	keystroke_y	y	n/a
19.1965	0.135	38393	keystroke_Key.space	Key.space	n/a
19.3015	0.1195	38603	keystroke_d	d	n/a
19.422	0.134	38844	keystroke_o	o	n/a
19.646	0.12	39292	keystroke_g	g	n/a
19.9465	0.12	39893	keystroke_Key.enter	Key.enter	n/a
20.073	5.875	40146	prompt	n/a	comm study milan visit\n
20.741	0.12	41482	keystroke_c	c	n/a
21.0865	0.105	42173	keystroke_o	o	n/a
21.3715	0.075	42743	keystroke_m	m	n/a
21.551	0.075	43102	keystroke_m	m	n/a
21.716	0.15	43432	keystroke_Key.space	Key.space	n/a
21.836	0.1205	43672	keystroke_s	s	n/a
22.0765	0.12	44153	keystroke_t	t	n/a
22.3015	0.105	44603	keystroke_u	u	n/a
22.5265	0.105	45053	keystroke_d	d	n/a
22.7515	0.105	45503	keystroke_y	y	n/a
23.1115	0.12	46223	keystroke_Key.space	Key.space	n/a
23.4565	0.12	46913	keystroke_m	m	n/a
23.7715	0.09	47543	keystroke_i	i	n/a
23.9365	0.135	47873	keystroke_l	l	n/a
24.2215	0.15	48443	keystroke_a	a	n/a
24.3265	0.1805	48653	keystroke_n	n	n/a
24.4465	0.1505	48893	keystroke_Key.space	Key.space	n/a
24.627	0.135	49254	keystroke_v	v	n/a
24.957	0.1195	49914	keystroke_i	i	n/a
25.2715	0.12	50543	keystroke_s	s	n/a
25.4815	0.105	50963	keystroke_i	i	n/a
25.6315	0.105	51263	keystroke_t	t	n/a
25.8265	0.12	51653	keystroke_Key.enter	Key.enter	n/a
25.9515	5.6065	51903	prompt	n/a	achieve ports worth bobby\n
26.6515	0.12	53303	keystroke_a	a	n/a
26.9515	0.12	53903	keystroke_c	c	n/a
27.1765	0.165	54353	keystroke_h	h	n/a
27.3115	0.15	54623	keystroke_i	i	n/a
27.3865	0.165	54773	keystroke_e	e	n/a
27.6565	0.18	55313	keystroke_v	v	n/a
27.8065	0.135	55613	keystroke_e	e	n/a
27.9265	0.2395	55853	keystroke_Key.space	Key.space	n/a
28.062	0.2395	56124	keystroke_p	p	n/a
28.212	0.1795	56424	keystroke_o	o	n/a
28.3315	0.12	56663	keystroke_r	r	n/a
28.8415	0.12	57683	keystroke_t	t	n/a
29.127	0.105	58254	keystroke_s	s	n/a
29.216	0.15	58432	keystroke_Key.space	Key.space	n/a
29.427	0.12	58854	keystroke_w	w	n/a
29.562	0.135	59124	keystroke_o	o	n/a
29.682	0.12	59364	keystroke_r	r	n/a
29.907	0.09	59814	keystroke_t	t	n/a
30.012	0.194	60024	keystroke_h	h	n/a
30.131	0.165	60262	keystroke_Key.space	Key.space	n/a
30.356	0.181	60712	keystroke_b	b	n/a
30.521	0.226	61042	keystroke_o	o	n/a
30.687	0.089	61374	keystroke_b	b	n/a
30.851	0.105	61702	keystroke_b	b	n/a
31.107	0.12	62214	keystroke_y	y	n/a
31.4515	0.105	62903	keystroke_Key.enter	Key.enter	n/a
31.5615	6.7615	63123	prompt	n/a	discussions jokes modified subaru\n
32.652	0.105	65304	keystroke_d	d	n/a
32.907	0.105	65814	keystroke_i	i	n/a
33.072	0.134	66144	keystroke_s	s	n/a
33.522	0.105	67044	keystroke_c	c	n/a
33.8215	0.09	67643	keystroke_u	u	n/a
34.0765	0.06	68153	keystroke_s	s	n/a
34.2265	0.105	68453	keystroke_s	s	n/a
34.3165	0.27	68633	keystroke_i	i	n/a
34.3915	0.21	68783	keystroke_o	o	n/a
34.4815	0.18	68963	keystroke_n	n	n/a
34.6465	0.12	69293	keystroke_s	s	n/a
34.7815	0.2255	69563	keystroke_Key.space	Key.space	n/a
34.947	0.2545	69894	keystroke_j	j	n/a
35.1115	0.21	70223	keystroke_o	o	n/a
35.3065	0.15	70613	keystroke_k	k	n/a
35.3815	0.18	70763	keystroke_e	e	n/a
35.4865	0.165	70973	keystroke_s	s	n/a
35.5615	0.195	71123	keystroke_Key.space	Key.space	n/a
35.6965	0.21	71393	keystroke_m	m	n/a
35.8015	0.165	71603	keystroke_o	o	n/a
35.9515	0.12	71903	keystroke_d	d	n/a
36.1315	0.135	72263	keystroke_i	i	n/a
36.5365	0.105	73073	keystroke_f	f	n/a
36.7015	0.1355	73403	keystroke_i	i	n/a
36.792	0.195	73584	keystroke_e	e	n/a
36.911	0.165	73822	keystroke_d	d	n/a
37.077	0.149	74154	keystroke_Key.space	Key.space	n/a
37.212	0.119	74424	keystroke_s	s	n/a
37.317	0.105	74634	keystroke_u	u	n/a
37.556	0.135	75112	keystroke_b	b	n/a
37.676	0.18	75352	keystroke_a	a	n/a
37.811	0.18	75622	keystroke_r	r	n/a
37.976	0.105	75952	keystroke_u	u	n/a
38.216	0.105	76432	keystroke_Key.enter	Key.enter	n/a
38.3265	7.812	76653	prompt	n/a	associate anything ieee address\n
38.952	0.119	77904	keystroke_a	a	n/a
39.117	0.074	78234	keystroke_s	s	n/a
39.296	0.091	78592	keystroke_s	s	n/a
39.401	0.135	78802	keystroke_o	o	n/a
39.581	0.075	79162	keystroke_c	c	n/a
39.671	0.105	79342	keystroke_i	i	n/a
39.821	0.105	79642	keystroke_a	a	n/a
40.046	0.165	80092	keystroke_t	t	n/a
40.151	0.136	80302	keystroke_e	e	n/a
40.436	0.105	80872	keystroke_Key.space	Key.space	n/a
40.916	0.12	81832	keystroke_a	a	n/a
41.051	0.12	82102	keystroke_n	n	n/a
41.306	0.09	82612	keystroke_y	y	n/a
41.456	0.105	82912	keystroke_t	t	n/a
41.546	0.12	83092	keystroke_h	h	n/a
41.636	0.225	83272	keystroke_i	i	n/a
41.756	0.15	83512	keystroke_n	n	n/a
41.891	0.105	83782	keystroke_g	g	n/a
42.011	0.15	84022	keystroke_Key.space	Key.space	n/a
42.191	0.1205	84382	keystroke_i	i	n/a
42.5815	0.105	85163	keystroke_e	e	n/a
42.8215	0.075	85643	keystroke_e	e	n/a
43.0465	0.06	86093	keystroke_e	e	n/a
43.2415	0.15	86483	keystroke_Key.space	Key.space	n/a
43.3765	0.135	86753	keystroke_a	a	n/a
43.7665	0.1045	87533	keystroke_d	d	n/a
44.096	0.105	88192	keystroke_d	d	n/a
44.366	0.075	88732	keystroke_r	r	n/a
44.7565	0.0895	89513	keystroke_e	e	n/a
45.341	0.045	90682	keystroke_s	s	n/a
45.656	0.12	91312	keystroke_s	s	n/a
46.0165	0.12	92033	keystroke_Key.enter	Key.enter	n/a
46.1415	5.787	92283	prompt	n/a	checkout wanting wishes birth\n
46.9315	0.09	93863	keystroke_c	c	n/a
47.1715	0.15	94343	keystroke_h	h	n/a
47.3065	0.12	94613	keystroke_e	e	n/a
47.5025	0.1345	95005	keystroke_c	c	n/a
47.637	0.09	95274	keystroke_k	k	n/a
47.8765	0.195	95753	keystroke_o	o	n/a
47.9815	0.15	95963	keystroke_u	u	n/a
48.1165	0.09	96233	keystroke_t	t	n/a
48.2965	0.15	96593	keystroke_Key.space	Key.space	n/a
48.4615	0.18	96923	keystroke_w	w	n/a
48.6715	0.135	97343	keystroke_a	a	n/a
48.8215	0.105	97643	keystroke_n	n	n/a
49.0015	0.09	98003	keystroke_t	t	n/a
49.1215	0.225	98243	keystroke_i	i	n/a
49.2415	0.18	98483	keystroke_n	n	n/a
49.4365	0.105	98873	keystroke_g	g	n/a
49.6015	0.15	99203	keystroke_Key.space	Key.space	n/a
49.7665	0.105	99533	keystroke_w	w	n/a
49.9015	0.135	99803	keystroke_i	i	n/a
50.0965	0.105	100193	keystroke_s	s	n/a
50.2615	0.135	100523	keystroke_h	h	n/a
50.4415	0.2255	100883	keystroke_e	e	n/a
50.5765	0.1655	101153	keystroke_s	s	n/a
50.727	0.12	101454	keystroke_Key.space	Key.space	n/a
50.967	0.075	101934	keystroke_b	b	n/a
51.177	0.1045	102354	keystroke_i	i	n/a
51.2515	0.075	102503	keystroke_r	r	n/a
51.4315	0.1055	102863	keystroke_t	t	n/a
51.552	0.12	103104	keystroke_h	h	n/a
51.777	0.15	103554	keystroke_Key.enter	Key.enter	n/a
51.932	6.672	103864	prompt	n/a	exempt default notice therefore\n
52.572	0.12	105144	keystroke_e	e	n/a
53.0815	0.12	106163	keystroke_x	x	n/a
53.3665	0.09	106733	keystroke_e	e	n/a
53.4865	0.105	106973	keystroke_m	m	n/a
53.6665	0.15	107333	keystroke_p	p	n/a
53.8015	0.135	107603	keystroke_t	t	n/a
53.9215	0.165	107843	keystroke_Key.space	Key.space	n/a
54.2065	0.09	108413	keystroke_e	e	n/a
54.8215	0.075	109643	keystroke_Key.backspace	Key.backspace	n/a
54.9265	0.15	109853	keystroke_d	d	n/a
55.0315	0.135	110063	keystroke_e	e	n/a
55.2865	0.105	110573	keystroke_f	f	n/a
55.4365	0.135	110873	keystroke_a	a	n/a
55.5865	0.225	111173	keystroke_u	u	n/a
55.7215	0.195	111443	keystroke_l	l	n/a
55.8715	0.12	111743	keystroke_t	t	n/a
56.0065	0.135	112013	keystroke_Key.space	Key.space	n/a
56.3365	0.18	112673	keystroke_n	n	n/a
56.4565	0.15	112913	keystroke_o	o	n/a
56.5915	0.105	113183	keystroke_t	t	n/a
56.7115	0.12	113423	keystroke_i	i	n/a
56.907	0.165	113814	keystroke_c	c	n/a
57.027	0.165	114054	keystroke_e	e	n/a
57.147	0.15	114294	keystroke_Key.space	Key.space	n/a
57.282	0.09	114564	keystroke_t	t	n/a
57.387	0.1195	114774	keystroke_h	h	n/a
57.5365	0.12	115073	keystroke_e	e	n/a
57.6265	0.165	115253	keystroke_r	r	n/a
57.7315	0.12	115463	keystroke_e	e	n/a
57.9415	0.12	115883	keystroke_f	f	n/a
58.1065	0.135	116213	keystroke_o	o	n/a
58.1965	0.15	116393	keystroke_r	r	n/a
58.3015	0.15	116603	keystroke_e	e	n/a
58.4815	0.12	116963	keystroke_Key.enter	Key.enter	n/a
58.6085	9.4595	117217	prompt	n/a	winner procedures independence creation\n
59.3215	0.09	118643	keystroke_w	w	n/a
59.4415	0.255	118883	keystroke_i	i	n/a
59.6515	0.12	119303	keystroke_n	n	n/a
59.8315	0.09	119663	keystroke_n	n	n/a
59.9365	0.105	119873	keystroke_e	e	n/a
59.9965	0.105	119993	keystroke_r	r	n/a
60.1165	0.21	120233	keystroke_Key.space	Key.space	n/a
60.2665	0.165	120533	keystroke_p	p	n/a
60.4165	0.075	120833	keystroke_r	r	n/a
60.5965	0.0905	121193	keystroke_o	o	n/a
61.181	0.21	122362	keystroke_c	c	n/a
61.541	0.105	123082	keystroke_e	e	n/a
61.7965	0.105	123593	keystroke_d	d	n/a
62.0065	0.1055	124013	keystroke_u	u	n/a
62.142	0.225	124284	keystroke_r	r	n/a
62.232	0.225	124464	keystroke_e	e	n/a
62.292	0.195	124584	keystroke_s	s	n/a
62.502	0.135	125004	keystroke_Key.space	Key.space	n/a
62.652	0.21	125304	keystroke_i	i	n/a
62.772	0.165	125544	keystroke_n	n	n/a
62.952	0.09	125904	keystroke_d	d	n/a
63.072	0.18	126144	keystroke_e	e	n/a
63.267	0.135	126534	keystroke_p	p	n/a
64.152	0.0145	128304	keystroke_e	e	n/a
64.4365	0.045	128873	keystroke_n	n	n/a
64.7215	0.135	129443	keystroke_d	d	n/a
65.0515	0.1205	130103	keystroke_e	e	n/a
65.277	0.105	130554	keystroke_n	n	n/a
65.8765	0.12	131753	keystroke_c	c	n/a
66.1015	0.105	132203	keystroke_e	e	n/a
66.2665	0.135	132533	keystroke_Key.space	Key.space	n/a
66.627	0.015	133254	keystroke_c	c	n/a
66.777	0.195	133554	keystroke_r	r	n/a
66.882	0.165	133764	keystroke_e	e	n/a
67.122	0.09	134244	keystroke_a	a	n/a
67.302	0.105	134604	keystroke_t	t	n/a
67.437	0.3	134874	keystroke_i	i	n/a
67.572	0.24	135144	keystroke_o	o	n/a
67.662	0.135	135324	keystroke_n	n	n/a
67.9615	0.105	135923	keystroke_Key.enter	Key.enter	n/a
68.071	6.2675	136142	prompt	n/a	chef everyday operating ontario\n
68.7865	0.12	137573	keystroke_c	c	n/a
68.9965	0.12	137993	keystroke_h	h	n/a
69.1465	0.1655	138293	keystroke_e	e	n/a
69.267	0.135	138534	keystroke_f	f	n/a
69.402	0.135	138804	keystroke_Key.space	Key.space	n/a
69.507	0.075	139014	keystroke_e	e	n/a
69.762	0.09	139524	keystroke_v	v	n/a
69.972	0.135	139944	keystroke_e	e	n/a
70.062	0.105	140124	keystroke_r	r	n/a
70.377	0.09	140754	keystroke_y	y	n/a
70.557	0.195	141114	keystroke_d	d	n/a
70.662	0.24	141324	keystroke_a	a	n/a
70.887	0.12	141774	keystroke_y	y	n/a
71.037	0.135	142074	keystroke_Key.space	Key.space	n/a
71.277	0.2245	142554	keystroke_o	o	n/a
71.4115	0.1655	142823	keystroke_p	p	n/a
71.562	0.1645	143124	keystroke_e	e	n/a
71.6665	0.12	143333	keystroke_r	r	n/a
71.8915	0.1355	143783	keystroke_a	a	n/a
72.1165	0.105	144233	keystroke_t	t	n/a
72.2065	0.225	144413	keystroke_i	i	n/a
72.3115	0.165	144623	keystroke_n	n	n/a
72.4465	0.105	144893	keystroke_g	g	n/a
72.6115	0.15	145223	keystroke_Key.space	Key.space	n/a
72.7915	0.21	145583	keystroke_o	o	n/a
72.9265	0.165	145853	keystroke_n	n	n/a
73.241	0.076	146482	keystroke_t	t	n/a
73.467	0.194	146934	keystroke_a	a	n/a
73.631	0.091	147262	keystroke_r	r	n/a
73.7815	0.195	147563	keystroke_i	i	n/a
73.8865	0.165	147773	keystroke_o	o	n/a
74.2165	0.12	148433	keystroke_Key.enter	Key.enter	n/a
74.341	7.4825	148682	prompt	n/a	slovak pmid scanned significant\n
75.222	0.105	150444	keystroke_s	s	n/a
75.387	0.105	150774	keystroke_l	l	n/a
75.597	0.12	151194	keystroke_o	o	n/a
75.747	0.09	151494	keystroke_v	v	n/a
76.0915	0.09	152183	keystroke_a	a	n/a
76.362	0.135	152724	keystroke_k	k	n/a
76.632	0.12	153264	keystroke_Key.space	Key.space	n/a
76.9165	0.12	153833	keystroke_p	p	n/a
77.2915	0.09	154583	keystroke_m	m	n/a
77.5465	0.09	155093	keystroke_i	i	n/a
77.772	0.105	155544	keystroke_d	d	n/a
77.982	0.165	155964	keystroke_Key.space	Key.space	n/a
78.132	0.105	156264	keystroke_s	s	n/a
78.462	0.105	156924	keystroke_c	c	n/a
78.717	0.105	157434	keystroke_a	a	n/a
78.9715	0.075	157943	keystroke_n	n	n/a
79.1515	0.075	158303	keystroke_n	n	n/a
79.2265	0.195	158453	keystroke_e	e	n/a
79.3465	0.18	158693	keystroke_d	d	n/a
79.6015	0.15	159203	keystroke_Key.space	Key.space	n/a
79.8115	0.12	159623	keystroke_s	s	n/a
79.9765	0.105	159953	keystroke_i	i	n/a
80.1865	0.105	160373	keystroke_g	g	n/a
80.4115	0.1205	160823	keystroke_n	n	n/a
80.666	0.106	161332	keystroke_i	i	n/a
80.787	0.09	161574	keystroke_f	f	n/a
80.952	0.105	161904	keystroke_i	i	n/a
81.072	0.18	162144	keystroke_c	c	n/a
81.192	0.165	162384	keystroke_a	a	n/a
81.357	0.1045	162714	keystroke_n	n	n/a
81.5065	0.091	163013	keystroke_t	t	n/a
81.7015	0.1205	163403	keystroke_Key.enter	Key.enter	n/a
81.8265	8.9365	163653	prompt	n/a	riders healthcare registrar thee\n
82.842	0.09	165684	keystroke_r	r	n/a
83.007	0.105	166014	keystroke_i	i	n/a
83.127	0.105	166254	keystroke_d	d	n/a
83.262	0.12	166524	keystroke_e	e	n/a
83.337	0.12	166674	keystroke_r	r	n/a
83.592	0.105	167184	keystroke_s	s	n/a
83.787	0.1945	167574	keystroke_Key.space	Key.space	n/a
83.9215	0.15	167843	keystroke_h	h	n/a
84.0865	0.1655	168173	keystroke_e	e	n/a
84.162	0.165	168324	keystroke_a	a	n/a
84.327	0.135	168654	keystroke_l	l	n/a
84.477	0.09	168954	keystroke_t	t	n/a
84.657	0.12	169314	keystroke_h	h	n/a
84.987	0.105	169974	keystroke_c	c	n/a
85.362	0.12	170724	keystroke_a	a	n/a
85.602	0.105	171204	keystroke_r	r	n/a
85.827	0.12	171654	keystroke_e	e	n/a
85.977	0.15	171954	keystroke_Key.space	Key.space	n/a
86.052	0.195	172104	keystroke_r	r	n/a
86.187	0.165	172374	keystroke_e	e	n/a
86.832	0.0895	173664	keystroke_g	g	n/a
87.0115	0.09	174023	keystroke_i	i	n/a
88.227	0.1195	176454	keystroke_s	s	n/a
88.5565	0.105	177113	keystroke_t	t	n/a
88.8265	0.12	177653	keystroke_r	r	n/a
89.0065	0.12	178013	keystroke_a	a	n/a
89.3215	0.09	178643	keystroke_r	r	n/a
89.5165	0.15	179033	keystroke_Key.space	Key.space	n/a
89.7115	0.09	179423	keystroke_t	t	n/a
90.0565	0.135	180113	keystroke_h	h	n/a
90.2965	0.075	180593	keystroke_e	e	n/a
90.5215	0.075	181043	keystroke_e	e	n/a
90.7165	0.045	181433	keystroke_Key.enter	Key.enter	n/a
90.7665	6.867	181533	prompt	n/a	machinery licensing assist closure\n
91.677	0.1045	183354	keystroke_m	m	n/a
91.767	0.1195	183534	keystroke_a	a	n/a
91.9765	0.135	183953	keystroke_c	c	n/a
92.1265	0.105	184253	keystroke_h	h	n/a
92.3065	0.09	184613	keystroke_i	i	n/a
92.4715	0.135	184943	keystroke_n	n	n/a
92.6515	0.195	185303	keystroke_e	e	n/a
92.7865	0.165	185573	keystroke_r	r	n/a
93.0265	0.1805	186053	keystroke_y	y	n/a
93.132	0.18	186264	keystroke_Key.space	Key.space	n/a
93.402	0.15	186804	keystroke_l	l	n/a
93.507	0.165	187014	keystroke_i	i	n/a
93.702	0.1945	187404	keystroke_c	c	n/a
93.8215	0.15	187643	keystroke_e	e	n/a
94.0615	0.12	188123	keystroke_n	n	n/a
94.3465	0.12	188693	keystroke_s	s	n/a
94.4965	0.225	188993	keystroke_i	i	n/a
94.6315	0.15	189263	keystroke_n	n	n/a
94.7665	0.09	189533	keystroke_g	g	n/a
94.9165	0.15	189833	keystroke_Key.space	Key.space	n/a
95.0515	0.18	190103	keystroke_a	a	n/a
95.2015	0.12	190403	keystroke_s	s	n/a
95.4415	0.12	190883	keystroke_s	s	n/a
95.5915	0.09	191183	keystroke_i	i	n/a
95.7265	0.1355	191453	keystroke_s	s	n/a
95.967	0.105	191934	keystroke_t	t	n/a
96.087	0.135	192174	keystroke_Key.space	Key.space	n/a
96.252	0.105	192504	keystroke_c	c	n/a
96.372	0.09	192744	keystroke_l	l	n/a
96.582	0.105	193164	keystroke_o	o	n/a
96.702	0.1195	193404	keystroke_s	s	n/a
96.8815	0.105	193763	keystroke_u	u	n/a
97.0615	0.195	194123	keystroke_r	r	n/a
97.1815	0.18	194363	keystroke_e	e	n/a
97.4965	0.135	194993	keystroke_Key.enter	Key.enter	n/a
97.636	9.6575	195272	prompt	n/a	methods video understood count\n
98.562	0.09	197124	keystroke_m	m	n/a
98.742	0.09	197484	keystroke_e	e	n/a
98.937	0.105	197874	keystroke_t	t	n/a
99.042	0.18	198084	keystroke_h	h	n/a
99.147	0.195	198294	keystroke_o	o	n/a
99.297	0.21	198594	keystroke_d	d	n/a
99.402	0.165	198804	keystroke_s	s	n/a
99.537	0.135	199074	keystroke_Key.space	Key.space	n/a
99.8065	0.06	199613	keystroke_b	b	n/a
99.8215	0.046	199643	keystroke_v	v	n/a
100.242	0.06	200484	keystroke_Key.backspace	Key.backspace	n/a
100.332	0.06	200664	keystroke_Key.backspace	Key.backspace	n/a
100.452	0.06	200904	keystroke_Key.backspace	Key.backspace	n/a
101.562	0.12	203124	keystroke_Key.space	Key.space	n/a
102.192	0.12	204384	keystroke_v	v	n/a
102.402	0.12	204804	keystroke_i	i	n/a
102.582	0.195	205164	keystroke_d	d	n/a
102.717	0.18	205434	keystroke_e	e	n/a
102.882	0.18	205764	keystroke_o	o	n/a
102.987	0.165	205974	keystroke_Key.space	Key.space	n/a
103.212	0.18	206424	keystroke_u	u	n/a
104.097	0.135	208194	keystroke_n	n	n/a
104.441	0.046	208882	keystroke_d	d	n/a
104.787	0.135	209574	keystroke_e	e	n/a
104.861	0.15	209722	keystroke_r	r	n/a
105.177	0.135	210354	keystroke_s	s	n/a
105.4465	0.09	210893	keystroke_t	t	n/a
105.717	0.075	211434	keystroke_o	o	n/a
105.867	0.12	211734	keystroke_o	o	n/a
105.957	0.12	211914	keystroke_d	d	n/a
106.107	0.15	212214	keystroke_Key.space	Key.space	n/a
106.332	0.105	212664	keystroke_c	c	n/a
106.452	0.21	212904	keystroke_o	o	n/a
106.557	0.135	213114	keystroke_u	u	n/a
106.842	0.09	213684	keystroke_n	n	n/a
106.977	0.09	213954	keystroke_t	t	n/a
107.157	0.135	214314	keystroke_Key.enter	Key.enter	n/a
107.2965	5.787	214593	prompt	n/a	shorts certain ultimately worried\n
107.9365	0.12	215873	keystroke_s	s	n/a
108.1165	0.18	216233	keystroke_h	h	n/a
108.2065	0.165	216413	keystroke_o	o	n/a
108.3115	0.075	216623	keystroke_r	r	n/a
108.5365	0.09	217073	keystroke_t	t	n/a
108.747	0.12	217494	keystroke_s	s	n/a
108.927	0.15	217854	keystroke_Key.space	Key.space	n/a
109.167	0.09	218334	keystroke_c	c	n/a
109.392	0.135	218784	keystroke_e	e	n/a
109.482	0.105	218964	keystroke_r	r	n/a
109.707	0.09	219414	keystroke_t	t	n/a
109.962	0.03	219924	keystroke_a	a	n/a
109.977	0.2395	219954	keystroke_i	i	n/a
110.0965	0.15	220193	keystroke_n	n	n/a
110.1715	0.165	220343	keystroke_Key.space	Key.space	n/a
110.4415	0.21	220883	keystroke_u	u	n/a
110.5765	0.18	221153	keystroke_l	l	n/a
110.7865	0.09	221573	keystroke_t	t	n/a
110.8915	0.181	221783	keystroke_i	i	n/a
110.9965	0.15	221993	keystroke_m	m	n/a
111.1315	0.12	222263	keystroke_a	a	n/a
111.2675	0.18	222535	keystroke_t	t	n/a
111.3715	0.151	222743	keystroke_e	e	n/a
111.4615	0.21	222923	keystroke_l	l	n/a
111.5975	0.255	223195	keystroke_y	y	n/a
111.7165	0.18	223433	keystroke_Key.space	Key.space	n/a
111.8825	0.104	223765	keystroke_w	w	n/a
112.0165	0.1195	224033	keystroke_o	o	n/a
112.2115	0.075	224423	keystroke_r	r	n/a
112.391	0.0905	224782	keystroke_r	r	n/a
112.526	0.1365	225052	keystroke_i	i	n/a
112.601	0.2105	225202	keystroke_e	e	n/a
112.7525	0.134	225505	keystroke_d	d	n/a
112.9465	0.135	225893	keystroke_Key.enter	Key.enter	n/a
113.0865	4.8115	226173	prompt	n/a	guns wolf estate highway\n
113.817	0.09	227634	keystroke_g	g	n/a
113.937	0.21	227874	keystroke_u	u	n/a
114.042	0.15	228084	keystroke_n	n	n/a
114.162	0.09	228324	keystroke_s	s	n/a
114.267	0.135	228534	keystroke_Key.space	Key.space	n/a
114.402	0.105	228804	keystroke_w	w	n/a
114.492	0.12	228984	keystroke_o	o	n/a
114.702	0.1345	229404	keystroke_l	l	n/a
114.8665	0.09	229733	keystroke_f	f	n/a
114.9715	0.165	229943	keystroke_Key.space	Key.space	n/a
115.6465	0.105	231293	keystroke_e	e	n/a
115.8715	0.105	231743	keystroke_s	s	n/a
116.1415	0.09	232283	keystroke_t	t	n/a
116.3365	0.105	232673	keystroke_a	a	n/a
116.487	0.165	232974	keystroke_t	t	n/a
116.577	0.135	233154	keystroke_e	e	n/a
116.697	0.15	233394	keystroke_Key.space	Key.space	n/a
116.787	0.195	233574	keystroke_h	h	n/a
116.922	0.12	233844	keystroke_i	i	n/a
117.012	0.09	234024	keystroke_g	g	n/a
117.147	0.105	234294	keystroke_h	h	n/a
117.267	0.21	234534	keystroke_w	w	n/a
117.342	0.1945	234684	keystroke_a	a	n/a
117.507	0.12	235014	keystroke_y	y	n/a
117.762	0.134	235524	keystroke_Key.enter	Key.enter	n/a
117.821	0.03	235642	keystroke_Key.shift_r	Key.shift_r	n/a
117.9015	11.502	235803	prompt	n/a	valium cons transmitted singing\n
118.5865	0.256	237173	keystroke_w	w	n/a
118.7215	0.226	237443	keystroke_a	a	n/a
119.1115	0.121	238223	keystroke_l	l	n/a
119.3675	0.089	238735	keystroke_i	i	n/a
119.7425	0.104	239485	keystroke_u	u	n/a
120.2215	0.06	240443	keystroke_Key.backspace	Key.backspace	n/a
120.3575	0.059	240715	keystroke_Key.backspace	Key.backspace	n/a
120.4615	0.06	240923	keystroke_Key.backspace	Key.backspace	n/a
120.5825	0.164	241165	keystroke_Key.backspace	Key.backspace	n/a
120.9265	0.0905	241853	keystroke_Key.backspace	Key.backspace	n/a
121.767	0.105	243534	keystroke_v	v	n/a
122.022	0.105	244044	keystroke_a	a	n/a
122.187	0.09	244374	keystroke_l	l	n/a
122.427	0.075	244854	keystroke_i	i	n/a
122.862	0.075	245724	keystroke_u	u	n/a
123.5965	0.075	247193	keystroke_m	m	n/a
124.0765	0.195	248153	keystroke_Key.space	Key.space	n/a
124.3315	0.15	248663	keystroke_c	c	n/a
124.4965	0.285	248993	keystroke_o	o	n/a
124.6615	0.121	249323	keystroke_b	b	n/a
124.6625	0.194	249325	keystroke_n	n	n/a
125.3665	0.12	250733	keystroke_Key.backspace	Key.backspace	n/a
125.5015	0.06	251003	keystroke_Key.backspace	Key.backspace	n/a
125.7715	0.105	251543	keystroke_n	n	n/a
125.9215	0.12	251843	keystroke_s	s	n/a
126.0715	0.12	252143	keystroke_Key.space	Key.space	n/a
126.2215	0.12	252443	keystroke_t	t	n/a
126.462	0.12	252924	keystroke_r	r	n/a
126.702	0.105	253404	keystroke_a	a	n/a
126.822	0.12	253644	keystroke_n	n	n/a
126.987	0.105	253974	keystroke_s	s	n/a
127.152	0.195	254304	keystroke_m	m	n/a
127.302	0.18	254604	keystroke_i	i	n/a
127.437	0.09	254874	keystroke_t	t	n/a
127.602	0.105	255204	keystroke_t	t	n/a
127.782	0.21	255564	keystroke_e	e	n/a
127.917	0.165	255834	keystroke_d	d	n/a
128.067	0.135	256134	keystroke_Key.space	Key.space	n/a
128.247	0.15	256494	keystroke_s	s	n/a
128.382	0.195	256764	keystroke_i	i	n/a
128.502	0.15	257004	keystroke_n	n	n/a
128.667	0.105	257334	keystroke_g	g	n/a
128.847	0.195	257694	keystroke_i	i	n/a
128.937	0.15	257874	keystroke_n	n	n/a
129.057	0.0745	258114	keystroke_g	g	n/a
129.2665	0.135	258533	keystroke_Key.enter	Key.enter	n/a
129.4065	16.092	258813	prompt	n/a	effect ever white craps\n
130.0775	0.104	260155	keystroke_e	e	n/a
130.2715	0.09	260543	keystroke_f	f	n/a
130.4365	0.075	260873	keystroke_f	f	n/a
130.6015	0.105	261203	keystroke_e	e	n/a
131.4115	0.015	262823	keystroke_c	c	n/a
131.6065	0.105	263213	keystroke_t	t	n/a
131.9515	0.15	263903	keystroke_Key.space	Key.space	n/a
132.2815	0.105	264563	keystroke_e	e	n/a
132.5515	0.09	265103	keystroke_v	v	n/a
132.8065	0.135	265613	keystroke_e	e	n/a
132.8815	0.135	265763	keystroke_r	r	n/a
133.0615	0.135	266123	keystroke_Key.space	Key.space	n/a
133.347	0.105	266694	keystroke_w	w	n/a
133.602	0.225	267204	keystroke_h	h	n/a
133.737	0.195	267474	keystroke_i	i	n/a
133.887	0.195	267774	keystroke_t	t	n/a
134.022	0.135	268044	keystroke_e	e	n/a
134.232	0.195	268464	keystroke_Key.space	Key.space	n/a
141.644	0.088	283288	keystroke_c	c	n/a
142.1225	0.104	284245	keystroke_r	r	n/a
142.3165	0.15	284633	keystroke_a	a	n/a
142.5265	0.1505	285053	keystroke_o	o	n/a
142.6315	0.1505	285263	keystroke_s	s	n/a
143.292	0.06	286584	keystroke_Key.backspace	Key.backspace	n/a
143.487	0.09	286974	keystroke_Key.backspace	Key.backspace	n/a
144.717	0.105	289434	keystroke_p	p	n/a
144.912	0.135	289824	keystroke_s	s	n/a
145.362	0.1345	290724	keystroke_Key.enter	Key.enter	n/a
145.502	7.797	291004	prompt	n/a	officers donation something's scenic\n
146.307	0.105	292614	keystroke_o	o	n/a
146.547	0.075	293094	keystroke_f	f	n/a
146.727	0.105	293454	keystroke_f	f	n/a
146.937	0.135	293874	keystroke_i	i	n/a
147.102	0.135	294204	keystroke_c	c	n/a
147.387	0.12	294774	keystroke_e	e	n/a
147.447	0.12	294894	keystroke_r	r	n/a
148.077	0.1495	296154	keystroke_s	s	n/a
148.2415	0.1205	296483	keystroke_Key.space	Key.space	n/a
148.362	0.105	296724	keystroke_d	d	n/a
148.512	0.195	297024	keystroke_o	o	n/a
148.632	0.18	297264	keystroke_n	n	n/a
148.947	0.15	297894	keystroke_a	a	n/a
149.262	0.09	298524	keystroke_t	t	n/a
149.367	0.285	298734	keystroke_i	i	n/a
149.472	0.24	298944	keystroke_o	o	n/a
149.517	0.225	299034	keystroke_n	n	n/a
149.727	0.09	299454	keystroke_Key.space	Key.space	n/a
150.132	0.105	300264	keystroke_s	s	n/a
150.297	0.195	300594	keystroke_o	o	n/a
150.402	0.15	300804	keystroke_m	m	n/a
150.507	0.105	301014	keystroke_e	e	n/a
150.732	0.1195	301464	keystroke_t	t	n/a
150.8515	0.121	301703	keystroke_h	h	n/a
150.9425	0.255	301885	keystroke_i	i	n/a
151.0625	0.195	302125	keystroke_n	n	n/a
151.2425	0.105	302485	keystroke_g	g	n/a
151.3915	0.151	302783	keystroke_Key.space	Key.space	n/a
151.6775	0.135	303355	keystroke_s	s	n/a
151.9175	0.12	303835	keystroke_c	c	n/a
152.1875	0.0895	304375	keystroke_e	e	n/a
152.382	0.105	304764	keystroke_n	n	n/a
152.562	0.165	305124	keystroke_i	i	n/a
152.817	0.1045	305634	keystroke_c	c	n/a
153.2065	0.09	306413	keystroke_Key.enter	Key.enter	n/a
153.302	6.4915	306604	prompt	n/a	require listing mesh yesterday\n
154.062	0.12	308124	keystroke_r	r	n/a
154.107	0.135	308214	keystroke_e	e	n/a
154.3915	0.105	308783	keystroke_q	q	n/a
154.6315	0.24	309263	keystroke_u	u	n/a
154.7665	0.2255	309533	keystroke_i	i	n/a
154.8865	0.1505	309773	keystroke_r	r	n/a
154.977	0.135	309954	keystroke_e	e	n/a
155.097	0.135	310194	keystroke_Key.space	Key.space	n/a
155.322	0.21	310644	keystroke_l	l	n/a
155.442	0.15	310884	keystroke_i	i	n/a
155.547	0.1345	311094	keystroke_s	s	n/a
155.8165	0.12	311633	keystroke_t	t	n/a
155.9215	0.195	311843	keystroke_i	i	n/a
155.9965	0.165	311993	keystroke_n	n	n/a
156.1465	0.09	312293	keystroke_g	g	n/a
156.2515	0.135	312503	keystroke_Key.space	Key.space	n/a
156.552	0.09	313104	keystroke_m	m	n/a
156.672	0.06	313344	keystroke_e	e	n/a
156.942	0.105	313884	keystroke_s	s	n/a
157.092	0.18	314184	keystroke_h	h	n/a
157.227	0.165	314454	keystroke_Key.space	Key.space	n/a
157.407	0.09	314814	keystroke_e	e	n/a
157.797	0.105	315594	keystroke_Key.backspace	Key.backspace	n/a
158.067	0.1045	316134	keystroke_y	y	n/a
158.1865	0.18	316373	keystroke_e	e	n/a
158.262	0.1495	316524	keystroke_s	s	n/a
158.4715	0.12	316943	keystroke_t	t	n/a
158.6515	0.15	317303	keystroke_e	e	n/a
158.7415	0.12	317483	keystroke_r	r	n/a
158.9965	0.2105	317993	keystroke_d	d	n/a
159.132	0.18	318264	keystroke_a	a	n/a
159.267	0.105	318534	keystroke_y	y	n/a
159.6725	0.12	319345	keystroke_Key.enter	Key.enter	n/a
159.7975	8.936	319595	prompt	n/a	assumes effect mayor announcement\n
160.4375	0.12	320875	keystroke_a	a	n/a
160.6925	0.09	321385	keystroke_s	s	n/a
160.872	0.105	321744	keystroke_s	s	n/a
161.022	0.12	322044	keystroke_u	u	n/a
161.3525	0.12	322705	keystroke_m	m	n/a
161.4425	0.195	322885	keystroke_e	e	n/a
161.5475	0.18	323095	keystroke_d	d	n/a
161.7425	0.134	323485	keystroke_Key.space	Key.space	n/a
161.8175	0.135	323635	keystroke_e	e	n/a
162.1625	0.09	324325	keystroke_Key.backspace	Key.backspace	n/a
162.2965	0.091	324593	keystroke_Key.backspace	Key.backspace	n/a
162.4625	0.1045	324925	keystroke_Key.backspace	Key.backspace	n/a
162.612	0.105	325224	keystroke_s	s	n/a
162.762	0.1355	325524	keystroke_Key.space	Key.space	n/a
162.8675	0.09	325735	keystroke_e	e	n/a
163.0475	0.089	326095	keystroke_f	f	n/a
163.2415	0.106	326483	keystroke_f	f	n/a
163.3925	0.165	326785	keystroke_e	e	n/a
163.5265	0.1505	327053	keystroke_c	c	n/a
163.842	0.15	327684	keystroke_t	t	n/a
163.932	0.2395	327864	keystroke_Key.space	Key.space	n/a
164.1425	0.134	328285	keystroke_m	m	n/a
164.3825	0.134	328765	keystroke_a	a	n/a
164.5915	0.105	329183	keystroke_y	y	n/a
164.8465	0.15	329693	keystroke_o	o	n/a
165.0265	0.12	330053	keystroke_r	r	n/a
165.1915	0.15	330383	keystroke_Key.space	Key.space	n/a
165.3725	0.134	330745	keystroke_a	a	n/a
165.5815	0.06	331163	keystroke_n	n	n/a
165.717	0.105	331434	keystroke_n	n	n/a
165.897	0.045	331794	keystroke_n	n	n/a
166.587	0.045	333174	keystroke_Key.backspace	Key.backspace	n/a
166.857	0.24	333714	keystroke_o	o	n/a
167.022	0.1345	334044	keystroke_u	u	n/a
167.322	0.165	334644	keystroke_n	n	n/a
167.472	0.195	334944	keystroke_c	c	n/a
167.562	0.1655	335124	keystroke_e	e	n/a
167.6825	0.135	335365	keystroke_m	m	n/a
167.8325	0.12	335665	keystroke_e	e	n/a
167.9675	0.105	335935	keystroke_n	n	n/a
168.1625	0.105	336325	keystroke_t	t	n/a
168.642	0.09	337284	keystroke_Key.enter	Key.enter	n/a
168.737	8.5765	337474	prompt	n/a	directed procurement cheers trim\n
169.512	0.105	339024	keystroke_d	d	n/a
169.647	0.105	339294	keystroke_i	i	n/a
169.797	0.165	339594	keystroke_r	r	n/a
169.917	0.18	339834	keystroke_e	e	n/a
170.217	0.15	340434	keystroke_c	c	n/a
170.5475	0.119	341095	keystroke_t	t	n/a
170.6525	0.18	341305	keystroke_e	e	n/a
170.8465	0.151	341693	keystroke_d	d	n/a
171.0265	0.2555	342053	keystroke_Key.space	Key.space	n/a
171.1325	0.1945	342265	keystroke_p	p	n/a
171.297	0.105	342594	keystroke_r	r	n/a
171.432	0.12	342864	keystroke_o	o	n/a
172.062	0.135	344124	keystroke_c	c	n/a
173.1565	0.12	346313	keystroke_u	u	n/a
173.3215	0.195	346643	keystroke_r	r	n/a
173.4265	0.15	346853	keystroke_e	e	n/a
173.5315	0.1355	347063	keystroke_m	m	n/a
173.6965	0.12	347393	keystroke_e	e	n/a
173.8015	0.09	347603	keystroke_n	n	n/a
173.8925	0.119	347785	keystroke_t	t	n/a
174.042	0.12	348084	keystroke_Key.space	Key.space	n/a
174.177	0.135	348354	keystroke_c	c	n/a
174.357	0.09	348714	keystroke_h	h	n/a
174.732	0.06	349464	keystroke_e	e	n/a
174.897	0.18	349794	keystroke_e	e	n/a
175.242	0.075	350484	keystroke_r	r	n/a
175.5115	0.12	351023	keystroke_s	s	n/a
175.7065	0.105	351413	keystroke_Key.space	Key.space	n/a
175.9015	0.195	351803	keystroke_t	t	n/a
175.9765	0.2255	351953	keystroke_r	r	n/a
176.262	0.24	352524	keystroke_i	i	n/a
176.412	0.165	352824	keystroke_m	m	n/a
177.192	0.12	354384	keystroke_Key.enter	Key.enter	n/a
177.317	15.9115	354634	prompt	n/a	works bankruptcy provincial ratios\n
178.347	0.105	356694	keystroke_w	w	n/a
178.497	0.12	356994	keystroke_o	o	n/a
178.572	0.105	357144	keystroke_r	r	n/a
178.692	0.12	357384	keystroke_k	k	n/a
178.842	0.105	357684	keystroke_s	s	n/a
178.917	0.135	357834	keystroke_Key.space	Key.space	n/a
179.097	0.135	358194	keystroke_b	b	n/a
179.277	0.135	358554	keystroke_a	a	n/a
179.757	0.225	359514	keystroke_n	n	n/a
179.907	0.15	359814	keystroke_k	k	n/a
180.3725	0.0895	360745	keystroke_r	r	n/a
180.627	0.1205	361254	keystroke_u	u	n/a
181.062	0.1355	362124	keystroke_p	p	n/a
181.4975	0.12	362995	keystroke_t	t	n/a
182.217	0.12	364434	keystroke_c	c	n/a
182.382	0.12	364764	keystroke_y	y	n/a
182.652	0.135	365304	keystroke_Key.space	Key.space	n/a
183.432	0.105	366864	keystroke_p	p	n/a
183.642	0.12	367284	keystroke_r	r	n/a
183.807	0.12	367614	keystroke_p	p	n/a
184.347	0.075	368694	keystroke_Key.backspace	Key.backspace	n/a
184.602	0.105	369204	keystroke_i	i	n/a
184.902	0.105	369804	keystroke_v	v	n/a
185.277	0.075	370554	keystroke_Key.backspace	Key.backspace	n/a
185.967	0.075	371934	keystroke_Key.backspace	Key.backspace	n/a
186.252	0.09	372504	keystroke_o	o	n/a
186.672	0.135	373344	keystroke_v	v	n/a
186.987	0.12	373974	keystroke_i	i	n/a
187.407	0.105	374814	keystroke_c	c	n/a
187.527	0.09	375054	keystroke_i	i	n/a
189.9295	0.028	379859	keystroke_Key.backspace	Key.backspace	n/a
190.0615	0.105	380123	keystroke_Key.backspace	Key.backspace	n/a
191.0965	0.136	382193	keystroke_n	n	n/a
191.2475	0.1645	382495	keystroke_c	c	n/a
191.397	0.12	382794	keystroke_i	i	n/a
191.532	0.135	383064	keystroke_a	a	n/a
191.652	0.2095	383304	keystroke_l	l	n/a
191.7565	0.165	383513	keystroke_Key.space	Key.space	n/a
191.9065	0.165	383813	keystroke_r	r	n/a
191.9965	0.165	383993	keystroke_a	a	n/a
192.282	0.09	384564	keystroke_t	t	n/a
192.582	0.12	385164	keystroke_i	i	n/a
192.597	0.18	385194	keystroke_o	o	n/a
192.717	0.105	385434	keystroke_s	s	n/a
193.092	0.1345	386184	keystroke_Key.enter	Key.enter	n/a
193.232	8.7415	386464	prompt	n/a	advertisers transactions agency fifteen\n
193.8425	0.135	387685	keystroke_a	a	n/a
194.0065	0.105	388013	keystroke_d	d	n/a
194.2465	0.121	388493	keystroke_v	v	n/a
194.4875	0.15	388975	keystroke_e	e	n/a
194.5775	0.135	389155	keystroke_r	r	n/a
194.8165	0.076	389633	keystroke_t	t	n/a
194.9975	0.105	389995	keystroke_i	i	n/a
195.1175	0.135	390235	keystroke_s	s	n/a
195.3425	0.15	390685	keystroke_e	e	n/a
195.4015	0.121	390803	keystroke_r	r	n/a
195.6865	0.12	391373	keystroke_s	s	n/a
195.8965	0.15	391793	keystroke_Key.space	Key.space	n/a
196.0165	0.091	392033	keystroke_t	t	n/a
196.2115	0.105	392423	keystroke_r	r	n/a
196.3615	0.06	392723	keystroke_q	q	n/a
196.7815	0.105	393563	keystroke_Key.backspace	Key.backspace	n/a
196.9615	0.1205	393923	keystroke_a	a	n/a
197.2615	0.135	394523	keystroke_n	n	n/a
197.502	0.12	395004	keystroke_s	s	n/a
197.697	0.15	395394	keystroke_a	a	n/a
197.892	0.135	395784	keystroke_c	c	n/a
198.222	0.105	396444	keystroke_t	t	n/a
198.342	0.3	396684	keystroke_i	i	n/a
198.462	0.255	396924	keystroke_o	o	n/a
198.552	0.18	397104	keystroke_n	n	n/a
198.672	0.135	397344	keystroke_s	s	n/a
198.852	0.165	397704	keystroke_Key.space	Key.space	n/a
198.987	0.105	397974	keystroke_a	a	n/a
199.227	0.18	398454	keystroke_g	g	n/a
199.347	0.15	398694	keystroke_e	e	n/a
199.512	0.15	399024	keystroke_n	n	n/a
199.7065	0.135	399413	keystroke_c	c	n/a
199.8865	0.2405	399773	keystroke_y	y	n/a
200.022	0.195	400044	keystroke_Key.space	Key.space	n/a
200.412	0.12	400824	keystroke_f	f	n/a
200.577	0.12	401154	keystroke_i	i	n/a
200.682	0.12	401364	keystroke_f	f	n/a
200.967	0.075	401934	keystroke_t	t	n/a
201.207	0.06	402414	keystroke_e	e	n/a
201.402	0.06	402804	keystroke_e	e	n/a
201.552	0.12	403104	keystroke_n	n	n/a
201.8365	0.135	403673	keystroke_Key.enter	Key.enter	n/a
201.977	7.7065	403954	prompt	n/a	reggae roster detect sociology\n
202.6465	0.18	405293	keystroke_r	r	n/a
202.7365	0.18	405473	keystroke_e	e	n/a
203.0065	0.076	406013	keystroke_g	g	n/a
203.1425	0.089	406285	keystroke_g	g	n/a
203.3365	0.21	406673	keystroke_a	a	n/a
203.4565	0.18	406913	keystroke_e	e	n/a
203.7865	0.165	407573	keystroke_Key.space	Key.space	n/a
204.3265	0.075	408653	keystroke_r	r	n/a
204.4615	0.15	408923	keystroke_o	o	n/a
204.6415	0.12	409283	keystroke_s	s	n/a
204.9115	0.12	409823	keystroke_t	t	n/a
205.0915	0.18	410183	keystroke_e	e	n/a
205.1665	0.136	410333	keystroke_r	r	n/a
205.407	0.135	410814	keystroke_Key.space	Key.space	n/a
205.557	0.18	411114	keystroke_d	d	n/a
205.677	0.195	411354	keystroke_e	e	n/a
206.007	0.12	412014	keystroke_t	t	n/a
206.142	0.1495	412284	keystroke_e	e	n/a
206.5015	0.12	413003	keystroke_c	c	n/a
206.817	0.09	413634	keystroke_t	t	n/a
207.012	0.12	414024	keystroke_Key.space	Key.space	n/a
207.192	0.15	414384	keystroke_s	s	n/a
207.387	0.12	414774	keystroke_o	o	n/a
207.612	0.15	415224	keystroke_c	c	n/a
208.152	0.12	416304	keystroke_i	i	n/a
208.452	0.135	416904	keystroke_o	o	n/a
208.737	0.09	417474	keystroke_l	l	n/a
208.917	0.075	417834	keystroke_o	o	n/a
209.037	0.105	418074	keystroke_g	g	n/a
209.217	0.12	418434	keystroke_y	y	n/a
209.562	0.12	419124	keystroke_Key.enter	Key.enter	n/a
209.6865	13.002	419373	prompt	n/a	zdnet gourmet respiratory classification\n
210.8075	0.1345	421615	keystroke_s	s	n/a
211.572	0.09	423144	keystroke_Key.backspace	Key.backspace	n/a
212.757	0.12	425514	keystroke_z	z	n/a
213.462	0.1345	426924	keystroke_d	d	n/a
213.957	0.135	427914	keystroke_n	n	n/a
214.077	0.195	428154	keystroke_e	e	n/a
214.212	0.15	428424	keystroke_t	t	n/a
214.392	0.1495	428784	keystroke_Key.space	Key.space	n/a
214.6015	0.09	429203	keystroke_g	g	n/a
214.7665	0.2705	429533	keystroke_o	o	n/a
214.917	0.15	429834	keystroke_u	u	n/a
215.082	0.15	430164	keystroke_r	r	n/a
215.487	0.135	430974	keystroke_m	m	n/a
215.682	0.195	431364	keystroke_e	e	n/a
215.802	0.165	431604	keystroke_t	t	n/a
216.012	0.12	432024	keystroke_Key.space	Key.space	n/a
216.387	0.135	432774	keystroke_r	r	n/a
217.512	0.09	435024	keystroke_e	e	n/a
217.7815	0.09	435563	keystroke_s	s	n/a
218.1115	0.135	436223	keystroke_p	p	n/a
218.4115	0.105	436823	keystroke_i	i	n/a
218.5915	0.12	437183	keystroke_r	r	n/a
218.7715	0.12	437543	keystroke_a	a	n/a
219.0265	0.105	438053	keystroke_t	t	n/a
219.2215	0.135	438443	keystroke_o	o	n/a
219.3415	0.09	438683	keystroke_r	r	n/a
219.4765	0.2105	438953	keystroke_y	y	n/a
219.5815	0.1655	439163	keystroke_Key.space	Key.space	n/a
219.822	0.15	439644	keystroke_c	c	n/a
220.017	0.135	440034	keystroke_l	l	n/a
220.152	0.12	440304	keystroke_a	a	n/a
220.467	0.075	440934	keystroke_s	s	n/a
220.647	0.09	441294	keystroke_s	s	n/a
220.842	0.075	441684	keystroke_i	i	n/a
221.007	0.105	442014	keystroke_f	f	n/a
221.1565	0.09	442313	keystroke_i	i	n/a
221.3665	0.165	442733	keystroke_a	a	n/a
221.6515	0.075	443303	keystroke_t	t	n/a
221.7275	0.329	443455	keystroke_i	i	n/a
221.8165	0.241	443633	keystroke_o	o	n/a
221.9215	0.165	443843	keystroke_n	n	n/a
222.582	0.105	445164	keystroke_Key.enter	Key.enter	n/a
222.692	7.4215	445384	prompt	n/a	choosing musical warnings automotive\n
223.617	0.1045	447234	keystroke_c	c	n/a
223.7815	0.135	447563	keystroke_h	h	n/a
223.9315	0.09	447863	keystroke_o	o	n/a
224.1115	0.105	448223	keystroke_o	o	n/a
224.2765	0.12	448553	keystroke_s	s	n/a
224.4115	0.2255	448823	keystroke_i	i	n/a
224.517	0.165	449034	keystroke_n	n	n/a
224.697	0.105	449394	keystroke_g	g	n/a
224.832	0.135	449664	keystroke_Key.space	Key.space	n/a
225.057	0.105	450114	keystroke_m	m	n/a
225.297	0.135	450594	keystroke_u	u	n/a
225.402	0.135	450804	keystroke_s	s	n/a
225.552	0.135	451104	keystroke_i	i	n/a
225.6715	0.195	451343	keystroke_c	c	n/a
225.807	0.1645	451614	keystroke_a	a	n/a
225.8815	0.18	451763	keystroke_l	l	n/a
225.9865	0.165	451973	keystroke_Key.space	Key.space	n/a
226.2265	0.315	452453	keystroke_w	w	n/a
226.3615	0.225	452723	keystroke_a	a	n/a
226.5265	0.15	453053	keystroke_r	r	n/a
226.7815	0.12	453563	keystroke_n	n	n/a
226.9765	0.195	453953	keystroke_i	i	n/a
227.1415	0.15	454283	keystroke_n	n	n/a
227.2765	0.09	454553	keystroke_g	g	n/a
227.5465	0.135	455093	keystroke_s	s	n/a
227.7115	0.12	455423	keystroke_Key.space	Key.space	n/a
227.7865	0.12	455573	keystroke_a	a	n/a
228.0415	0.12	456083	keystroke_u	u	n/a
228.1765	0.135	456353	keystroke_t	t	n/a
228.3415	0.15	456683	keystroke_o	o	n/a
228.6865	0.12	457373	keystroke_m	m	n/a
228.9865	0.135	457973	keystroke_o	o	n/a
229.1365	0.135	458273	keystroke_t	t	n/a
229.3015	0.12	458603	keystroke_i	i	n/a
229.4965	0.2105	458993	keystroke_v	v	n/a
229.6315	0.1955	459263	keystroke_e	e	n/a
229.9915	0.12	459983	keystroke_Key.enter	Key.enter	n/a
230.1175	9.9265	460235	prompt	n/a	vaccine subject batch characterized\n
230.8465	0.105	461693	keystroke_v	v	n/a
231.1015	0.105	462203	keystroke_a	a	n/a
231.552	0.12	463104	keystroke_c	c	n/a
231.837	0.105	463674	keystroke_c	c	n/a
232.137	0.225	464274	keystroke_i	i	n/a
232.287	0.18	464574	keystroke_n	n	n/a
232.482	0.135	464964	keystroke_e	e	n/a
232.632	0.15	465264	keystroke_Key.space	Key.space	n/a
232.782	0.15	465564	keystroke_s	s	n/a
232.902	0.105	465804	keystroke_u	u	n/a
233.097	0.09	466194	keystroke_b	b	n/a
233.292	0.12	466584	keystroke_j	j	n/a
233.352	0.12	466704	keystroke_e	e	n/a
233.532	0.105	467064	keystroke_c	c	n/a
233.547	0.03	467094	keystroke_e	e	n/a
233.847	0.09	467694	keystroke_t	t	n/a
234.342	0.03	468684	keystroke_Key.backspace	Key.backspace	n/a
234.432	0.1045	468864	keystroke_Key.backspace	Key.backspace	n/a
235.0615	0.12	470123	keystroke_t	t	n/a
235.2565	0.135	470513	keystroke_Key.space	Key.space	n/a
235.5125	0.134	471025	keystroke_b	b	n/a
235.6475	0.134	471295	keystroke_a	a	n/a
235.9015	0.12	471803	keystroke_t	t	n/a
236.2465	0.075	472493	keystroke_c	c	n/a
236.4125	0.1945	472825	keystroke_h	h	n/a
236.5015	0.195	473003	keystroke_Key.space	Key.space	n/a
236.6975	0.1345	473395	keystroke_c	c	n/a
236.877	0.12	473754	keystroke_h	h	n/a
237.147	0.06	474294	keystroke_r	r	n/a
237.462	0.0745	474924	keystroke_Key.backspace	Key.backspace	n/a
237.5965	0.12	475193	keystroke_a	a	n/a
237.7765	0.105	475553	keystroke_r	r	n/a
237.9565	0.12	475913	keystroke_a	a	n/a
238.272	0.09	476544	keystroke_c	c	n/a
238.572	0.09	477144	keystroke_t	t	n/a
238.767	0.12	477534	keystroke_e	e	n/a
238.842	0.12	477684	keystroke_r	r	n/a
239.082	0.12	478164	keystroke_i	i	n/a
239.292	0.105	478584	keystroke_z	z	n/a
239.532	0.075	479064	keystroke_e	e	n/a
239.7265	0.105	479453	keystroke_d	d	n/a
239.9515	0.105	479903	keystroke_]	]	n/a
239.9665	0.075	479933	keystroke_Key.enter	Key.enter	n/a
240.047	9.3565	480094	prompt	n/a	usual bibliographic copper monitor\n
240.822	0.09	481644	keystroke_u	u	n/a
240.927	0.105	481854	keystroke_s	s	n/a
241.017	0.105	482034	keystroke_u	u	n/a
241.167	0.105	482334	keystroke_a	a	n/a
241.2875	0.224	482575	keystroke_l	l	n/a
241.3925	0.209	482785	keystroke_Key.space	Key.space	n/a
241.9775	0.105	483955	keystroke_b	b	n/a
242.3215	0.121	484643	keystroke_i	i	n/a
242.9975	0.045	485995	keystroke_b	b	n/a
243.5665	0.1505	487133	keystroke_l	l	n/a
243.912	0.12	487824	keystroke_i	i	n/a
244.092	0.105	488184	keystroke_o	o	n/a
244.242	0.105	488484	keystroke_g	g	n/a
244.467	0.165	488934	keystroke_r	r	n/a
244.587	0.18	489174	keystroke_a	a	n/a
244.722	0.135	489444	keystroke_p	p	n/a
244.842	0.2395	489684	keystroke_h	h	n/a
244.9765	0.21	489953	keystroke_i	i	n/a
245.2315	0.135	490463	keystroke_c	c	n/a
245.5315	0.1955	491063	keystroke_Key.space	Key.space	n/a
245.832	0.135	491664	keystroke_c	c	n/a
246.012	0.135	492024	keystroke_o	o	n/a
246.267	0.09	492534	keystroke_p	p	n/a
246.477	0.075	492954	keystroke_p	p	n/a
246.582	0.15	493164	keystroke_e	e	n/a
246.657	0.15	493314	keystroke_r	r	n/a
246.822	0.15	493644	keystroke_Key.space	Key.space	n/a
247.077	0.09	494154	keystroke_m	m	n/a
247.2265	0.105	494453	keystroke_o	o	n/a
247.4365	0.105	494873	keystroke_n	n	n/a
247.7515	0.105	495503	keystroke_i	i	n/a
247.9615	0.135	495923	keystroke_t	t	n/a
248.502	0.105	497004	keystroke_o	o	n/a
248.892	0.105	497784	keystroke_r	r	n/a
249.387	0.015	498774	keystroke_Key.enter	Key.enter	n/a
249.407	9.0415	498814	prompt	n/a	forests commonwealth thumbnails intent\n
250.3165	0.12	500633	keystroke_f	f	n/a
250.4815	0.135	500963	keystroke_o	o	n/a
250.6465	0.1955	501293	keystroke_r	r	n/a
250.737	0.21	501474	keystroke_e	e	n/a
251.052	0.105	502104	keystroke_s	s	n/a
251.292	0.09	502584	keystroke_t	t	n/a
251.4725	0.12	502945	keystroke_s	s	n/a
251.6375	0.1345	503275	keystroke_Key.space	Key.space	n/a
251.787	0.105	503574	keystroke_c	c	n/a
251.937	0.21	503874	keystroke_o	o	n/a
252.072	0.1195	504144	keystroke_m	m	n/a
252.2665	0.135	504533	keystroke_m	m	n/a
252.3865	0.225	504773	keystroke_o	o	n/a
252.552	0.135	505104	keystroke_n	n	n/a
252.672	0.2095	505344	keystroke_w	w	n/a
252.8065	0.165	505613	keystroke_e	e	n/a
252.9115	0.166	505823	keystroke_a	a	n/a
253.0615	0.0905	506123	keystroke_l	l	n/a
253.167	0.075	506334	keystroke_t	t	n/a
253.272	0.2695	506544	keystroke_h	h	n/a
253.4515	0.2255	506903	keystroke_Key.space	Key.space	n/a
253.9025	0.105	507805	keystroke_h	h	n/a
254.2925	0.03	508585	keystroke_Key.backspace	Key.backspace	n/a
254.3675	0.1045	508735	keystroke_t	t	n/a
254.517	0.195	509034	keystroke_h	h	n/a
254.637	0.165	509274	keystroke_u	u	n/a
255.282	0.105	510564	keystroke_m	m	n/a
255.762	0.0895	511524	keystroke_b	b	n/a
256.4825	0.12	512965	keystroke_n	n	n/a
256.6475	0.1045	513295	keystroke_a	a	n/a
256.797	0.21	513594	keystroke_i	i	n/a
256.887	0.165	513774	keystroke_l	l	n/a
257.022	0.09	514044	keystroke_s	s	n/a
257.127	0.195	514254	keystroke_Key.space	Key.space	n/a
257.262	0.255	514524	keystroke_i	i	n/a
257.397	0.18	514794	keystroke_n	n	n/a
257.562	0.1945	515124	keystroke_t	t	n/a
257.6665	0.18	515333	keystroke_e	e	n/a
257.8915	0.166	515783	keystroke_n	n	n/a
258.0415	0.091	516083	keystroke_t	t	n/a
258.3415	0.105	516683	keystroke_Key.enter	Key.enter	n/a
258.4525	6.686	516905	prompt	n/a	sign drawing payable bulletin\n
259.272	0.12	518544	keystroke_s	s	n/a
259.542	0.12	519084	keystroke_i	i	n/a
259.707	0.135	519414	keystroke_g	g	n/a
259.857	0.2105	519714	keystroke_n	n	n/a
259.9915	0.165	519983	keystroke_Key.space	Key.space	n/a
260.1275	0.12	520255	keystroke_d	d	n/a
260.4575	0.09	520915	keystroke_r	r	n/a
261.2225	0.1495	522445	keystroke_a	a	n/a
261.357	0.135	522714	keystroke_w	w	n/a
261.507	0.24	523014	keystroke_i	i	n/a
261.612	0.18	523224	keystroke_n	n	n/a
261.762	0.09	523524	keystroke_g	g	n/a
261.912	0.15	523824	keystroke_Key.space	Key.space	n/a
262.122	0.135	524244	keystroke_p	p	n/a
262.302	0.105	524604	keystroke_a	a	n/a
262.512	0.135	525024	keystroke_y	y	n/a
262.797	0.1195	525594	keystroke_a	a	n/a
263.0065	0.18	526013	keystroke_b	b	n/a
263.1265	0.165	526253	keystroke_l	l	n/a
263.2315	0.12	526463	keystroke_e	e	n/a
263.3815	0.135	526763	keystroke_Key.space	Key.space	n/a
263.5765	0.1055	527153	keystroke_b	b	n/a
263.787	0.1045	527574	keystroke_u	u	n/a
264.0715	0.06	528143	keystroke_l	l	n/a
264.2215	0.105	528443	keystroke_l	l	n/a
264.3115	0.12	528623	keystroke_e	e	n/a
264.4915	0.105	528983	keystroke_t	t	n/a
264.5975	0.224	529195	keystroke_i	i	n/a
264.7165	0.15	529433	keystroke_n	n	n/a
265.0015	0.135	530003	keystroke_Key.enter	Key.enter	n/a
265.143	6.3405	530286	prompt	n/a	rely stripes roll terrain\n
265.8425	0.18	531685	keystroke_r	r	n/a
265.9465	0.166	531893	keystroke_e	e	n/a
266.0675	0.21	532135	keystroke_l	l	n/a
266.2475	0.2095	532495	keystroke_y	y	n/a
266.367	0.18	532734	keystroke_Key.space	Key.space	n/a
267.492	0.075	534984	keystroke_s	s	n/a
267.7615	0.18	535523	keystroke_t	t	n/a
267.8815	0.12	535763	keystroke_r	r	n/a
268.0465	0.2855	536093	keystroke_i	i	n/a
268.197	0.195	536394	keystroke_p	p	n/a
268.317	0.285	536634	keystroke_e	e	n/a
268.452	0.165	536904	keystroke_s	s	n/a
268.617	0.165	537234	keystroke_Key.space	Key.space	n/a
268.827	0.09	537654	keystroke_r	r	n/a
268.977	0.135	537954	keystroke_o	o	n/a
269.247	0.09	538494	keystroke_l	l	n/a
269.412	0.1795	538824	keystroke_l	l	n/a
269.5015	0.18	539003	keystroke_Key.space	Key.space	n/a
269.7565	0.045	539513	keystroke_t	t	n/a
270.2065	0.12	540413	keystroke_e	e	n/a
270.4465	0.06	540893	keystroke_r	r	n/a
270.5815	0.075	541163	keystroke_r	r	n/a
270.8065	0.015	541613	keystroke_a	a	n/a
270.8225	0.269	541645	keystroke_i	i	n/a
270.9565	0.18	541913	keystroke_n	n	n/a
271.362	0.12	542724	keystroke_Key.enter	Key.enter	n/a
271.4875	6.611	542975	prompt	n/a	tender snapshot reviewed foods\n
272.217	0.1055	544434	keystroke_t	t	n/a
272.3675	0.12	544735	keystroke_e	e	n/a
272.5175	0.1195	545035	keystroke_n	n	n/a
272.667	0.135	545334	keystroke_d	d	n/a
272.787	0.15	545574	keystroke_e	e	n/a
272.907	0.15	545814	keystroke_r	r	n/a
273.042	0.15	546084	keystroke_Key.space	Key.space	n/a
273.177	0.12	546354	keystroke_s	s	n/a
273.327	0.105	546654	keystroke_n	n	n/a
273.477	0.0895	546954	keystroke_a	a	n/a
273.6115	0.136	547223	keystroke_p	p	n/a
273.8075	0.12	547615	keystroke_s	s	n/a
273.9715	0.196	547943	keystroke_h	h	n/a
274.0625	0.164	548125	keystroke_o	o	n/a
274.1815	0.12	548363	keystroke_t	t	n/a
274.3165	0.15	548633	keystroke_Key.space	Key.space	n/a
274.5575	0.255	549115	keystroke_r	r	n/a
274.7515	0.1805	549503	keystroke_e	e	n/a
275.067	0.135	550134	keystroke_v	v	n/a
275.532	0.12	551064	keystroke_i	i	n/a
275.8765	0.165	551753	keystroke_e	e	n/a
275.9965	0.24	551993	keystroke_w	w	n/a
276.1765	0.15	552353	keystroke_e	e	n/a
276.4465	0.12	552893	keystroke_d	d	n/a
276.7015	0.135	553403	keystroke_Key.space	Key.space	n/a
276.9265	0.105	553853	keystroke_f	f	n/a
277.2415	0.075	554483	keystroke_o	o	n/a
277.3915	0.106	554783	keystroke_o	o	n/a
277.5265	0.21	555053	keystroke_d	d	n/a
277.6315	0.195	555263	keystroke_s	s	n/a
278.0215	0.075	556043	keystroke_Key.enter	Key.enter	n/a
278.103	6.3855	556206	prompt	n/a	uploaded maintenance tray rocks\n
278.847	0.1945	557694	keystroke_u	u	n/a
278.967	0.1495	557934	keystroke_p	p	n/a
279.2365	0.075	558473	keystroke_l	l	n/a
279.4315	0.075	558863	keystroke_o	o	n/a
279.5215	0.12	559043	keystroke_a	a	n/a
279.717	0.165	559434	keystroke_d	d	n/a
279.8515	0.21	559703	keystroke_e	e	n/a
280.047	0.1195	560094	keystroke_d	d	n/a
280.137	0.1495	560274	keystroke_Key.space	Key.space	n/a
280.4375	0.105	560875	keystroke_m	m	n/a
280.5875	0.105	561175	keystroke_a	a	n/a
280.7375	0.21	561475	keystroke_i	i	n/a
280.8575	0.165	561715	keystroke_n	n	n/a
281.0075	0.18	562015	keystroke_t	t	n/a
281.1275	0.165	562255	keystroke_e	e	n/a
281.7575	0.135	563515	keystroke_n	n	n/a
282.0425	0.12	564085	keystroke_a	a	n/a
282.1775	0.105	564355	keystroke_n	n	n/a
282.3425	0.165	564685	keystroke_c	c	n/a
282.4325	0.165	564865	keystroke_e	e	n/a
282.5525	0.165	565105	keystroke_Key.space	Key.space	n/a
282.7325	0.075	565465	keystroke_t	t	n/a
282.9425	0.15	565885	keystroke_r	r	n/a
283.1525	0.15	566305	keystroke_a	a	n/a
283.2875	0.225	566575	keystroke_y	y	n/a
283.4075	0.165	566815	keystroke_Key.space	Key.space	n/a
283.5425	0.105	567085	keystroke_r	r	n/a
283.6925	0.12	567385	keystroke_o	o	n/a
283.8275	0.12	567655	keystroke_c	c	n/a
284.0225	0.105	568045	keystroke_k	k	n/a
284.1725	0.105	568345	keystroke_s	s	n/a
284.3675	0.12	568735	keystroke_Key.enter	Key.enter	n/a
284.4915	7.842	568983	prompt	n/a	great mozilla proportion morning\n
285.3125	0.09	570625	keystroke_g	g	n/a
285.5375	0.1795	571075	keystroke_r	r	n/a
285.6275	0.1945	571255	keystroke_e	e	n/a
285.852	0.15	571704	keystroke_a	a	n/a
286.062	0.12	572124	keystroke_t	t	n/a
286.242	0.135	572484	keystroke_Key.space	Key.space	n/a
286.557	0.12	573114	keystroke_m	m	n/a
286.767	0.105	573534	keystroke_o	o	n/a
286.917	0.12	573834	keystroke_z	z	n/a
287.127	0.1955	574254	keystroke_i	i	n/a
287.2175	0.165	574435	keystroke_l	l	n/a
287.6975	0.15	575395	keystroke_l	l	n/a
287.9675	0.165	575935	keystroke_a	a	n/a
288.1625	0.12	576325	keystroke_Key.space	Key.space	n/a
288.4475	0.255	576895	keystroke_p	p	n/a
288.7475	0.12	577495	keystroke_r	r	n/a
289.0775	0.09	578155	keystroke_o	o	n/a
289.4675	0.075	578935	keystroke_p	p	n/a
289.8275	0.09	579655	keystroke_o	o	n/a
290.0515	0.121	580103	keystroke_r	r	n/a
290.3225	0.09	580645	keystroke_t	t	n/a
290.4125	0.27	580825	keystroke_i	i	n/a
290.5175	0.225	581035	keystroke_o	o	n/a
290.5775	0.18	581155	keystroke_n	n	n/a
290.8775	0.15	581755	keystroke_Key.space	Key.space	n/a
291.1625	0.18	582325	keystroke_m	m	n/a
291.2375	0.18	582475	keystroke_o	o	n/a
291.4025	0.15	582805	keystroke_r	r	n/a
291.5975	0.15	583195	keystroke_n	n	n/a
291.7325	0.255	583465	keystroke_i	i	n/a
291.8675	0.165	583735	keystroke_n	n	n/a
292.0175	0.105	584035	keystroke_g	g	n/a
292.2275	0.105	584455	keystroke_Key.enter	Key.enter	n/a
292.337	6.687	584674	prompt	n/a	laptop ranges craps dependent\n
293.097	0.12	586194	keystroke_l	l	n/a
293.202	0.12	586404	keystroke_a	a	n/a
293.412	0.105	586824	keystroke_p	p	n/a
293.697	0.105	587394	keystroke_t	t	n/a
293.817	0.21	587634	keystroke_o	o	n/a
293.907	0.18	587814	keystroke_p	p	n/a
294.042	0.15	588084	keystroke_Key.space	Key.space	n/a
294.282	0.165	588564	keystroke_r	r	n/a
294.387	0.18	588774	keystroke_a	a	n/a
294.672	0.135	589344	keystroke_n	n	n/a
294.942	0.09	589884	keystroke_g	g	n/a
295.212	0.12	590424	keystroke_e	e	n/a
295.4515	0.151	590903	keystroke_s	s	n/a
295.6765	0.135	591353	keystroke_Key.space	Key.space	n/a
295.9315	0.105	591863	keystroke_c	c	n/a
296.3515	0.091	592703	keystroke_r	r	n/a
296.6075	0.119	593215	keystroke_a	a	n/a
296.802	0.165	593604	keystroke_p	p	n/a
296.952	0.105	593904	keystroke_s	s	n/a
297.087	0.135	594174	keystroke_Key.space	Key.space	n/a
297.297	0.225	594594	keystroke_d	d	n/a
297.462	0.135	594924	keystroke_e	e	n/a
297.7015	0.12	595403	keystroke_p	p	n/a
297.8525	0.104	595705	keystroke_e	e	n/a
298.0615	0.12	596123	keystroke_n	n	n/a
298.2265	0.18	596453	keystroke_d	d	n/a
298.3315	0.15	596663	keystroke_e	e	n/a
298.5115	0.105	597023	keystroke_n	n	n/a
298.6315	0.105	597263	keystroke_t	t	n/a
298.8865	0.135	597773	keystroke_Key.enter	Key.enter	n/a
299.027	9.567	598054	prompt	n/a	infrared diamond saudi organizational\n
299.862	0.195	599724	keystroke_i	i	n/a
299.967	0.165	599934	keystroke_n	n	n/a
300.222	0.105	600444	keystroke_f	f	n/a
301.0175	0.104	602035	keystroke_r	r	n/a
301.2415	0.135	602483	keystroke_a	a	n/a
301.422	0.195	602844	keystroke_r	r	n/a
301.572	0.21	603144	keystroke_e	e	n/a
301.857	0.12	603714	keystroke_d	d	n/a
302.022	0.15	604044	keystroke_Key.space	Key.space	n/a
302.232	0.15	604464	keystroke_d	d	n/a
302.502	0.135	605004	keystroke_i	i	n/a
302.772	0.105	605544	keystroke_a	a	n/a
302.967	0.18	605934	keystroke_m	m	n/a
303.117	0.27	606234	keystroke_o	o	n/a
303.282	0.18	606564	keystroke_n	n	n/a
303.477	0.1345	606954	keystroke_d	d	n/a
303.5965	0.1505	607193	keystroke_Key.space	Key.space	n/a
303.792	0.15	607584	keystroke_s	s	n/a
304.122	0.12	608244	keystroke_a	a	n/a
304.362	0.105	608724	keystroke_u	u	n/a
304.572	0.165	609144	keystroke_d	d	n/a
304.707	0.225	609414	keystroke_i	i	n/a
304.842	0.195	609684	keystroke_Key.space	Key.space	n/a
305.172	0.105	610344	keystroke_o	o	n/a
305.292	0.12	610584	keystroke_r	r	n/a
305.787	0.09	611574	keystroke_g	g	n/a
306.117	0.105	612234	keystroke_a	a	n/a
306.312	0.09	612624	keystroke_n	n	n/a
306.507	0.15	613014	keystroke_i	i	n/a
306.732	0.2245	613464	keystroke_z	z	n/a
307.1375	0.105	614275	keystroke_a	a	n/a
307.4375	0.105	614875	keystroke_t	t	n/a
307.5425	0.2845	615085	keystroke_i	i	n/a
307.6325	0.2245	615265	keystroke_o	o	n/a
307.737	0.18	615474	keystroke_n	n	n/a
307.932	0.135	615864	keystroke_a	a	n/a
308.097	0.135	616194	keystroke_l	l	n/a
308.487	0.105	616974	keystroke_Key.enter	Key.enter	n/a
308.597	7.902	617194	prompt	n/a	rays comm zealand sustained\n
309.267	0.195	618534	keystroke_r	r	n/a
309.492	0.15	618984	keystroke_y	y	n/a
309.522	0.03	619044	keystroke_a	a	n/a
309.882	0.135	619764	keystroke_s	s	n/a
310.197	0.045	620394	keystroke_Key.backspace	Key.backspace	n/a
310.317	0.09	620634	keystroke_Key.backspace	Key.backspace	n/a
310.482	0.045	620964	keystroke_Key.backspace	Key.backspace	n/a
310.902	0.12	621804	keystroke_a	a	n/a
311.127	0.12	622254	keystroke_y	y	n/a
311.232	0.105	622464	keystroke_s	s	n/a
311.337	0.1205	622674	keystroke_Key.space	Key.space	n/a
311.4725	0.15	622945	keystroke_c	c	n/a
311.6375	0.1945	623275	keystroke_o	o	n/a
311.772	0.12	623544	keystroke_m	m	n/a
312.072	0.12	624144	keystroke_m	m	n/a
312.207	0.15	624414	keystroke_Key.space	Key.space	n/a
312.852	0.135	625704	keystroke_z	z	n/a
313.1825	0.075	626365	keystroke_e	e	n/a
313.7525	0.12	627505	keystroke_a	a	n/a
313.932	0.15	627864	keystroke_l	l	n/a
314.097	0.105	628194	keystroke_a	a	n/a
314.217	0.105	628434	keystroke_n	n	n/a
314.337	0.105	628674	keystroke_d	d	n/a
314.472	0.135	628944	keystroke_Key.space	Key.space	n/a
314.637	0.09	629274	keystroke_s	s	n/a
314.742	0.12	629484	keystroke_u	u	n/a
314.937	0.135	629874	keystroke_s	s	n/a
315.357	0.105	630714	keystroke_t	t	n/a
315.582	0.105	631164	keystroke_a	a	n/a
315.732	0.2855	631464	keystroke_i	i	n/a
315.8675	0.18	631735	keystroke_n	n	n/a
315.9725	0.165	631945	keystroke_e	e	n/a
316.1075	0.165	632215	keystroke_d	d	n/a
316.3925	0.1045	632785	keystroke_Key.enter	Key.enter	n/a
316.502	9.1165	633004	prompt	n/a	brunei ocean aviation constitutional\n
317.3975	0.12	634795	keystroke_b	b	n/a
317.5925	0.0895	635185	keystroke_r	r	n/a
317.862	0.105	635724	keystroke_u	u	n/a
318.162	0.135	636324	keystroke_n	n	n/a
318.447	0.12	636894	keystroke_e	e	n/a
318.717	0.21	637434	keystroke_i	i	n/a
318.822	0.195	637644	keystroke_Key.space	Key.space	n/a
319.077	0.12	638154	keystroke_o	o	n/a
319.212	0.135	638424	keystroke_c	c	n/a
319.572	0.075	639144	keystroke_e	e	n/a
320.292	0.12	640584	keystroke_a	a	n/a
320.562	0.21	641124	keystroke_n	n	n/a
320.652	0.225	641304	keystroke_Key.space	Key.space	n/a
320.892	0.135	641784	keystroke_a	a	n/a
321.162	0.105	642324	keystroke_v	v	n/a
321.402	0.135	642804	keystroke_i	i	n/a
321.538	0.134	643076	keystroke_a	a	n/a
321.792	0.105	643584	keystroke_t	t	n/a
321.912	0.225	643824	keystroke_i	i	n/a
322.032	0.27	644064	keystroke_o	o	n/a
322.107	0.21	644214	keystroke_n	n	n/a
322.242	0.195	644484	keystroke_Key.space	Key.space	n/a
322.8865	0.12	645773	keystroke_c	c	n/a
323.0815	0.2705	646163	keystroke_o	o	n/a
323.202	0.195	646404	keystroke_n	n	n/a
323.412	0.075	646824	keystroke_s	s	n/a
323.7575	0.12	647515	keystroke_t	t	n/a
324.1025	0.105	648205	keystroke_i	i	n/a
324.2825	0.12	648565	keystroke_t	t	n/a
324.4625	0.075	648925	keystroke_u	u	n/a
324.5675	0.09	649135	keystroke_t	t	n/a
324.6875	0.21	649375	keystroke_i	i	n/a
324.7925	0.165	649585	keystroke_o	o	n/a
324.8525	0.135	649705	keystroke_n	n	n/a
324.9725	0.12	649945	keystroke_a	a	n/a
325.1075	0.105	650215	keystroke_l	l	n/a
325.527	0.09	651054	keystroke_Key.enter	Key.enter	n/a
325.6215	6.3425	651243	prompt	n/a	died irish consumer sheet\n
326.307	0.105	652614	keystroke_d	d	n/a
326.562	0.1645	653124	keystroke_i	i	n/a
326.682	0.2245	653364	keystroke_e	e	n/a
326.8165	0.165	653633	keystroke_d	d	n/a
326.9515	0.165	653903	keystroke_Key.space	Key.space	n/a
327.1615	0.09	654323	keystroke_r	r	n/a
327.2815	0.165	654563	keystroke_i	i	n/a
327.6115	0.045	655223	keystroke_Key.backspace	Key.backspace	n/a
327.717	0.045	655434	keystroke_Key.backspace	Key.backspace	n/a
328.062	0.105	656124	keystroke_i	i	n/a
328.197	0.105	656394	keystroke_r	r	n/a
328.662	0.105	657324	keystroke_i	i	n/a
328.857	0.15	657714	keystroke_s	s	n/a
328.992	0.24	657984	keystroke_h	h	n/a
329.097	0.225	658194	keystroke_Key.space	Key.space	n/a
329.352	0.105	658704	keystroke_c	c	n/a
329.442	0.18	658884	keystroke_o	o	n/a
329.547	0.12	659094	keystroke_n	n	n/a
329.682	0.09	659364	keystroke_s	s	n/a
329.847	0.105	659694	keystroke_u	u	n/a
330.162	0.135	660324	keystroke_m	m	n/a
330.342	0.195	660684	keystroke_e	e	n/a
330.447	0.165	660894	keystroke_r	r	n/a
330.627	0.15	661254	keystroke_Key.space	Key.space	n/a
330.8225	0.12	661645	keystroke_s	s	n/a
330.9725	0.12	661945	keystroke_h	h	n/a
331.1225	0.045	662245	keystroke_e	e	n/a
331.2575	0.12	662515	keystroke_e	e	n/a
331.5725	0.105	663145	keystroke_t	t	n/a
331.8415	0.121	663683	keystroke_Key.enter	Key.enter	n/a
331.8575	0.09	663715	keystroke_]	]	n/a
331.967	6.612	663934	prompt	n/a	comics educational snow clinical\n
332.6225	0.074	665245	keystroke_o	o	n/a
332.7425	0.12	665485	keystroke_c	c	n/a
333.0415	0.0605	666083	keystroke_Key.backspace	Key.backspace	n/a
333.162	0.06	666324	keystroke_Key.backspace	Key.backspace	n/a
333.282	0.12	666564	keystroke_c	c	n/a
333.417	0.165	666834	keystroke_o	o	n/a
333.522	0.2105	667044	keystroke_m	m	n/a
333.6725	0.165	667345	keystroke_i	i	n/a
333.8525	0.21	667705	keystroke_c	c	n/a
333.9575	0.21	667915	keystroke_s	s	n/a
334.2715	0.121	668543	keystroke_Key.space	Key.space	n/a
334.5725	0.0895	669145	keystroke_e	e	n/a
334.767	0.12	669534	keystroke_d	d	n/a
334.962	0.135	669924	keystroke_u	u	n/a
335.082	0.18	670164	keystroke_c	c	n/a
335.217	0.18	670434	keystroke_a	a	n/a
335.5475	0.075	671095	keystroke_t	t	n/a
335.6515	0.346	671303	keystroke_i	i	n/a
335.7425	0.21	671485	keystroke_o	o	n/a
335.8775	0.1645	671755	keystroke_n	n	n/a
336.072	0.075	672144	keystroke_a	a	n/a
336.192	0.195	672384	keystroke_l	l	n/a
336.312	0.1505	672624	keystroke_Key.space	Key.space	n/a
336.432	0.1505	672864	keystroke_s	s	n/a
336.5995	0.1925	673199	keystroke_n	n	n/a
336.687	0.165	673374	keystroke_o	o	n/a
336.867	0.105	673734	keystroke_w	w	n/a
337.002	0.135	674004	keystroke_Key.space	Key.space	n/a
337.197	0.135	674394	keystroke_c	c	n/a
337.347	0.135	674694	keystroke_l	l	n/a
337.483	0.224	674966	keystroke_i	i	n/a
337.662	0.21	675324	keystroke_n	n	n/a
337.827	0.135	675654	keystroke_i	i	n/a
337.932	0.21	675864	keystroke_c	c	n/a
338.052	0.165	676104	keystroke_a	a	n/a
338.202	0.15	676404	keystroke_l	l	n/a
338.472	0.075	676944	keystroke_\	\	n/a
338.473	0.104	676946	keystroke_Key.enter	Key.enter	n/a
338.582	8.2765	677164	prompt	n/a	cache chess myanmar renewable\n
339.7775	0.135	679555	keystroke_c	c	n/a
339.9875	0.15	679975	keystroke_a	a	n/a
340.2575	0.12	680515	keystroke_c	c	n/a
340.4375	0.135	680875	keystroke_h	h	n/a
340.5725	0.105	681145	keystroke_e	e	n/a
340.7225	0.165	681445	keystroke_Key.space	Key.space	n/a
340.9475	0.15	681895	keystroke_c	c	n/a
341.157	0.1355	682314	keystroke_h	h	n/a
341.367	0.12	682734	keystroke_e	e	n/a
341.6825	0.09	683365	keystroke_s	s	n/a
341.9075	0.09	683815	keystroke_s	s	n/a
342.012	0.135	684024	keystroke_Key.space	Key.space	n/a
342.4175	0.12	684835	keystroke_m	m	n/a
342.7925	0.135	685585	keystroke_y	y	n/a
343.257	0.105	686514	keystroke_a	a	n/a
343.482	0.135	686964	keystroke_n	n	n/a
343.767	0.075	687534	keystroke_m	m	n/a
343.932	0.15	687864	keystroke_a	a	n/a
344.262	0.105	688524	keystroke_r	r	n/a
344.487	0.15	688974	keystroke_Key.space	Key.space	n/a
344.697	0.165	689394	keystroke_r	r	n/a
344.802	0.1805	689604	keystroke_e	e	n/a
345.1925	0.12	690385	keystroke_n	n	n/a
345.5525	0.225	691105	keystroke_e	e	n/a
345.6875	0.1645	691375	keystroke_w	w	n/a
345.987	0.105	691974	keystroke_a	a	n/a
346.182	0.18	692364	keystroke_b	b	n/a
346.347	0.18	692694	keystroke_l	l	n/a
346.512	0.12	693024	keystroke_e	e	n/a
346.782	0.075	693564	keystroke_Key.enter	Key.enter	n/a
346.864	9.8345	693728	prompt	n/a	witnesses payment crime satisfactory\n
347.652	0.09	695304	keystroke_w	w	n/a
347.787	0.12	695574	keystroke_i	i	n/a
347.967	0.12	695934	keystroke_t	t	n/a
348.207	0.105	696414	keystroke_n	n	n/a
348.582	0.12	697164	keystroke_e	e	n/a
348.882	0.09	697764	keystroke_s	s	n/a
349.092	0.0905	698184	keystroke_s	s	n/a
349.3475	0.09	698695	keystroke_e	e	n/a
349.5275	0.09	699055	keystroke_s	s	n/a
349.842	0.12	699684	keystroke_Key.space	Key.space	n/a
349.992	0.12	699984	keystroke_p	p	n/a
350.217	0.105	700434	keystroke_a	a	n/a
350.337	0.105	700674	keystroke_y	y	n/a
350.682	0.105	701364	keystroke_m	m	n/a
350.802	0.105	701604	keystroke_e	e	n/a
350.952	0.09	701904	keystroke_n	n	n/a
351.057	0.09	702114	keystroke_t	t	n/a
351.177	0.135	702354	keystroke_Key.space	Key.space	n/a
351.327	0.12	702654	keystroke_c	c	n/a
351.612	0.09	703224	keystroke_r	r	n/a
351.792	0.21	703584	keystroke_i	i	n/a
351.897	0.18	703794	keystroke_m	m	n/a
352.092	0.105	704184	keystroke_e	e	n/a
352.392	0.135	704784	keystroke_Key.space	Key.space	n/a
352.542	0.15	705084	keystroke_s	s	n/a
352.962	0.0895	705924	keystroke_t	t	n/a
353.5165	0.075	707033	keystroke_Key.backspace	Key.backspace	n/a
353.6365	0.135	707273	keystroke_a	a	n/a
353.9365	0.09	707873	keystroke_t	t	n/a
354.2665	0.09	708533	keystroke_i	i	n/a
354.3715	0.105	708743	keystroke_s	s	n/a
354.6565	0.09	709313	keystroke_f	f	n/a
354.8365	0.135	709673	keystroke_a	a	n/a
355.0615	0.105	710123	keystroke_c	c	n/a
355.4515	0.12	710903	keystroke_t	t	n/a
355.8415	0.105	711683	keystroke_o	o	n/a
356.0365	0.09	712073	keystroke_r	r	n/a
356.2465	0.105	712493	keystroke_y	y	n/a
356.5915	0.105	713183	keystroke_Key.enter	Key.enter	n/a
356.7025	7.0615	713405	prompt	n/a	geek remarkable climb figure\n
357.5215	0.105	715043	keystroke_g	g	n/a
357.8215	0.06	715643	keystroke_e	e	n/a
358.0015	0.06	716003	keystroke_e	e	n/a
358.2565	0.195	716513	keystroke_k	k	n/a
358.3915	0.18	716783	keystroke_Key.space	Key.space	n/a
358.7515	0.21	717503	keystroke_r	r	n/a
358.8715	0.165	717743	keystroke_e	e	n/a
359.1415	0.135	718283	keystroke_m	m	n/a
359.3065	0.151	718613	keystroke_a	a	n/a
359.4265	0.135	718853	keystroke_r	r	n/a
359.6065	0.075	719213	keystroke_k	k	n/a
359.7575	0.104	719515	keystroke_a	a	n/a
359.9215	0.2405	719843	keystroke_b	b	n/a
360.057	0.21	720114	keystroke_l	l	n/a
360.222	0.105	720444	keystroke_e	e	n/a
360.492	0.135	720984	keystroke_Key.space	Key.space	n/a
360.657	0.135	721314	keystroke_c	c	n/a
360.807	0.15	721614	keystroke_l	l	n/a
360.912	0.24	721824	keystroke_i	i	n/a
361.497	0.135	722994	keystroke_m	m	n/a
361.9615	0.06	723923	keystroke_b	b	n/a
362.637	0.12	725274	keystroke_Key.space	Key.space	n/a
362.772	0.135	725544	keystroke_f	f	n/a
362.922	0.091	725844	keystroke_i	i	n/a
363.042	0.075	726084	keystroke_g	g	n/a
363.177	0.105	726354	keystroke_u	u	n/a
363.312	0.1645	726624	keystroke_r	r	n/a
363.3865	0.165	726773	keystroke_e	e	n/a
363.6565	0.105	727313	keystroke_Key.enter	Key.enter	n/a
363.77	8.919	727540	prompt	n/a	fuji minimum croatia lingerie\n
364.5115	0.09	729023	keystroke_f	f	n/a
364.962	0.0755	729924	keystroke_u	u	n/a
365.5465	0.1505	731093	keystroke_j	j	n/a
366.1775	0.1345	732355	keystroke_i	i	n/a
366.432	0.1205	732864	keystroke_Key.space	Key.space	n/a
366.7025	0.105	733405	keystroke_m	m	n/a
367.0175	0.105	734035	keystroke_i	i	n/a
367.8575	0.135	735715	keystroke_n	n	n/a
368.1425	0.09	736285	keystroke_i	i	n/a
368.3675	0.09	736735	keystroke_m	m	n/a
368.6075	0.12	737215	keystroke_u	u	n/a
368.8925	0.12	737785	keystroke_m	m	n/a
369.0875	0.12	738175	keystroke_Key.space	Key.space	n/a
369.2075	0.165	738415	keystroke_c	c	n/a
369.5835	0.089	739167	keystroke_r	r	n/a
369.8075	0.12	739615	keystroke_o	o	n/a
370.0475	0.135	740095	keystroke_a	a	n/a
370.3475	0.12	740695	keystroke_t	t	n/a
370.5125	0.165	741025	keystroke_i	i	n/a
370.6925	0.105	741385	keystroke_a	a	n/a
370.8275	0.15	741655	keystroke_Key.space	Key.space	n/a
371.1875	0.12	742375	keystroke_l	l	n/a
371.3375	0.225	742675	keystroke_i	i	n/a
371.5025	0.135	743005	keystroke_n	n	n/a
371.6525	0.0895	743305	keystroke_g	g	n/a
371.847	0.166	743694	keystroke_e	e	n/a
371.967	0.135	743934	keystroke_r	r	n/a
372.222	0.09	744444	keystroke_i	i	n/a
372.342	0.105	744684	keystroke_e	e	n/a
372.582	0.105	745164	keystroke_Key.enter	Key.enter	n/a
372.6935	6.61	745387	prompt	n/a	outcome searching keno edit\n
373.542	0.18	747084	keystroke_o	o	n/a
373.632	0.135	747264	keystroke_u	u	n/a
373.722	0.09	747444	keystroke_t	t	n/a
373.962	0.105	747924	keystroke_c	c	n/a
374.052	0.18	748104	keystroke_o	o	n/a
374.247	0.09	748494	keystroke_e	e	n/a
374.367	0.15	748734	keystroke_Key.space	Key.space	n/a
374.727	0.06	749454	keystroke_Key.backspace	Key.backspace	n/a
374.847	0.06	749694	keystroke_Key.backspace	Key.backspace	n/a
375.147	0.0755	750294	keystroke_m	m	n/a
375.2075	0.105	750415	keystroke_e	e	n/a
375.5375	0.134	751075	keystroke_Key.space	Key.space	n/a
375.7025	0.119	751405	keystroke_s	s	n/a
375.9125	0.09	751825	keystroke_e	e	n/a
376.0325	0.194	752065	keystroke_a	a	n/a
376.1815	0.12	752363	keystroke_r	r	n/a
376.5115	0.12	753023	keystroke_c	c	n/a
376.6165	0.12	753233	keystroke_h	h	n/a
376.7215	0.24	753443	keystroke_i	i	n/a
376.8265	0.165	753653	keystroke_n	n	n/a
376.9765	0.09	753953	keystroke_g	g	n/a
377.0965	0.1355	754193	keystroke_Key.space	Key.space	n/a
377.532	0.105	755064	keystroke_k	k	n/a
377.6965	0.12	755393	keystroke_e	e	n/a
377.8765	0.18	755753	keystroke_n	n	n/a
377.9815	0.166	755963	keystroke_o	o	n/a
378.2215	0.135	756443	keystroke_Key.space	Key.space	n/a
378.3415	0.225	756683	keystroke_e	e	n/a
378.5065	0.135	757013	keystroke_d	d	n/a
378.7615	0.12	757523	keystroke_i	i	n/a
378.9865	0.09	757973	keystroke_t	t	n/a
379.2115	0.09	758423	keystroke_Key.enter	Key.enter	n/a
379.3065	8.772	758613	prompt	n/a	fairy derek brazilian security\n
380.0375	0.135	760075	keystroke_f	f	n/a
380.1125	0.15	760225	keystroke_a	a	n/a
380.3075	0.12	760615	keystroke_i	i	n/a
380.4425	0.075	760885	keystroke_r	r	n/a
380.5625	0.21	761125	keystroke_y	y	n/a
380.6825	0.179	761365	keystroke_Key.space	Key.space	n/a
380.8925	0.135	761785	keystroke_d	d	n/a
381.1925	0.09	762385	keystroke_e	e	n/a
381.4175	0.195	762835	keystroke_r	r	n/a
381.5525	0.165	763105	keystroke_e	e	n/a
381.7175	0.254	763435	keystroke_k	k	n/a
381.8525	0.2245	763705	keystroke_Key.space	Key.space	n/a
382.482	0.09	764964	keystroke_b	b	n/a
382.6615	0.18	765323	keystroke_r	r	n/a
382.9015	0.045	765803	keystroke_a	a	n/a
383.1415	0.165	766283	keystroke_z	z	n/a
383.5915	0.0905	767183	keystroke_i	i	n/a
383.787	0.195	767574	keystroke_l	l	n/a
383.802	0.09	767604	keystroke_o	o	n/a
383.907	0.18	767814	keystroke_i	i	n/a
384.162	0.12	768324	keystroke_a	a	n/a
384.462	0.06	768924	keystroke_Key.backspace	Key.backspace	n/a
384.597	0.075	769194	keystroke_Key.backspace	Key.backspace	n/a
384.747	0.075	769494	keystroke_Key.backspace	Key.backspace	n/a
385.497	0.165	770994	keystroke_i	i	n/a
385.827	0.12	771654	keystroke_a	a	n/a
386.022	0.225	772044	keystroke_n	n	n/a
386.142	0.1495	772284	keystroke_Key.space	Key.space	n/a
386.4565	0.105	772913	keystroke_s	s	n/a
386.6515	0.105	773303	keystroke_e	e	n/a
386.8915	0.121	773783	keystroke_c	c	n/a
387.1165	0.1055	774233	keystroke_u	u	n/a
387.3115	0.105	774623	keystroke_r	r	n/a
387.4465	0.105	774893	keystroke_i	i	n/a
387.5965	0.1055	775193	keystroke_t	t	n/a
387.807	0.075	775614	keystroke_y	y	n/a
387.957	0.1195	775914	keystroke_Key.enter	Key.enter	n/a
388.081	9.793	776162	prompt	n/a	predict learners legend recognized\n
388.8425	0.12	777685	keystroke_p	p	n/a
388.9325	0.165	777865	keystroke_r	r	n/a
389.0375	0.135	778075	keystroke_e	e	n/a
389.2475	0.135	778495	keystroke_d	d	n/a
389.3825	0.12	778765	keystroke_i	i	n/a
389.5175	0.135	779035	keystroke_c	c	n/a
389.8025	0.09	779605	keystroke_t	t	n/a
389.9675	0.135	779935	keystroke_Key.space	Key.space	n/a
390.3275	0.12	780655	keystroke_l	l	n/a
390.4325	0.15	780865	keystroke_e	e	n/a
390.5075	0.15	781015	keystroke_a	a	n/a
390.7475	0.105	781495	keystroke_r	r	n/a
390.9725	0.12	781945	keystroke_n	n	n/a
391.0475	0.12	782095	keystroke_e	e	n/a
391.1075	0.12	782215	keystroke_r	r	n/a
391.3325	0.105	782665	keystroke_s	s	n/a
391.5425	0.12	783085	keystroke_Key.space	Key.space	n/a
391.737	0.135	783474	keystroke_l	l	n/a
391.827	0.075	783654	keystroke_e	e	n/a
392.052	0.1505	784104	keystroke_g	g	n/a
392.1875	0.135	784375	keystroke_e	e	n/a
392.5165	0.09	785033	keystroke_n	n	n/a
393.3275	0.12	786655	keystroke_d	d	n/a
393.492	0.1495	786984	keystroke_Key.space	Key.space	n/a
393.6425	0.179	787285	keystroke_r	r	n/a
393.7465	0.165	787493	keystroke_e	e	n/a
394.4065	0.075	788813	keystroke_f	f	n/a
394.4215	0.045	788843	keystroke_g	g	n/a
394.5715	0.105	789143	keystroke_o	o	n/a
394.9465	0.045	789893	keystroke_Key.backspace	Key.backspace	n/a
395.0815	0.075	790163	keystroke_Key.backspace	Key.backspace	n/a
395.9065	0.105	791813	keystroke_Key.backspace	Key.backspace	n/a
396.3875	0.119	792775	keystroke_c	c	n/a
396.672	0.105	793344	keystroke_o	o	n/a
396.792	0.09	793584	keystroke_g	g	n/a
396.927	0.225	793854	keystroke_n	n	n/a
397.062	0.165	794124	keystroke_i	i	n/a
397.182	0.105	794364	keystroke_z	z	n/a
397.407	0.075	794814	keystroke_e	e	n/a
397.602	0.0895	795204	keystroke_d	d	n/a
397.7365	0.135	795473	keystroke_Key.enter	Key.enter	n/a
397.8775	7.901	795755	prompt	n/a	partly fabric banana territories\n
398.697	0.105	797394	keystroke_p	p	n/a
398.817	0.18	797634	keystroke_a	a	n/a
398.937	0.165	797874	keystroke_r	r	n/a
399.222	0.12	798444	keystroke_t	t	n/a
399.537	0.2255	799074	keystroke_l	l	n/a
399.6725	0.255	799345	keystroke_y	y	n/a
399.8225	0.21	799645	keystroke_Key.space	Key.space	n/a
399.9725	0.135	799945	keystroke_f	f	n/a
400.2125	0.15	800425	keystroke_a	a	n/a
400.5575	0.12	801115	keystroke_b	b	n/a
400.6775	0.09	801355	keystroke_r	r	n/a
400.8275	0.12	801655	keystroke_i	i	n/a
400.9775	0.12	801955	keystroke_c	c	n/a
401.1125	0.12	802225	keystroke_Key.space	Key.space	n/a
401.3675	0.105	802735	keystroke_b	b	n/a
401.4875	0.135	802975	keystroke_a	a	n/a
401.6675	0.1495	803335	keystroke_n	n	n/a
401.832	0.135	803664	keystroke_a	a	n/a
402.282	0.09	804564	keystroke_n	n	n/a
402.357	0.135	804714	keystroke_a	a	n/a
402.552	0.18	805104	keystroke_Key.space	Key.space	n/a
403.1225	0.105	806245	keystroke_t	t	n/a
403.3625	0.135	806725	keystroke_e	e	n/a
403.6325	0.0745	807265	keystroke_r	r	n/a
403.797	0.1055	807594	keystroke_r	r	n/a
403.9625	0.105	807925	keystroke_i	i	n/a
404.3825	0.105	808765	keystroke_t	t	n/a
404.8925	0.104	809785	keystroke_o	o	n/a
405.0125	0.105	810025	keystroke_r	r	n/a
405.1325	0.135	810265	keystroke_i	i	n/a
405.2375	0.225	810475	keystroke_e	e	n/a
405.3425	0.195	810685	keystroke_s	s	n/a
405.6575	0.12	811315	keystroke_Key.enter	Key.enter	n/a
405.782	12.852	811564	prompt	n/a	count face longitude achieve\n
406.782	0.12	813564	keystroke_c	c	n/a
406.887	0.18	813774	keystroke_o	o	n/a
406.977	0.105	813954	keystroke_u	u	n/a
407.2175	0.105	814435	keystroke_n	n	n/a
407.2775	0.09	814555	keystroke_t	t	n/a
407.4125	0.135	814825	keystroke_Key.space	Key.space	n/a
407.5175	0.135	815035	keystroke_f	f	n/a
407.682	0.195	815364	keystroke_a	a	n/a
407.937	0.12	815874	keystroke_c	c	n/a
408.192	0.09	816384	keystroke_t	t	n/a
408.312	0.21	816624	keystroke_Key.space	Key.space	n/a
408.432	0.105	816864	keystroke_l	l	n/a
408.792	0.18	817584	keystroke_o	o	n/a
408.912	0.15	817824	keystroke_n	n	n/a
409.077	0.12	818154	keystroke_g	g	n/a
409.377	0.105	818754	keystroke_i	i	n/a
409.572	0.1055	819144	keystroke_t	t	n/a
409.767	0.105	819534	keystroke_u	u	n/a
409.902	0.18	819804	keystroke_t	t	n/a
410.067	0.1355	820134	keystroke_e	e	n/a
410.3225	0.15	820645	keystroke_Key.space	Key.space	n/a
411.1475	0.06	822295	keystroke_Key.backspace	Key.backspace	n/a
411.282	0.045	822564	keystroke_Key.backspace	Key.backspace	n/a
411.3875	0.075	822775	keystroke_Key.backspace	Key.backspace	n/a
411.5375	0.12	823075	keystroke_Key.backspace	Key.backspace	n/a
413.457	0.075	826914	keystroke_Key.backspace	Key.backspace	n/a
414.912	0.1805	829824	keystroke_t	t	n/a
415.3475	0.15	830695	keystroke_u	u	n/a
415.5725	0.225	831145	keystroke_d	d	n/a
415.6925	0.195	831385	keystroke_e	e	n/a
415.9325	0.15	831865	keystroke_Key.space	Key.space	n/a
416.0525	0.135	832105	keystroke_a	a	n/a
416.3825	0.15	832765	keystroke_c	c	n/a
416.6525	0.2245	833305	keystroke_h	h	n/a
416.802	0.18	833604	keystroke_i	i	n/a
417.267	0.18	834534	keystroke_e	e	n/a
417.8375	0.15	835675	keystroke_v	v	n/a
418.0775	0.09	836155	keystroke_e	e	n/a
418.5125	0.1195	837025	keystroke_Key.enter	Key.enter	n/a
418.637	7.4665	837274	prompt	n/a	agreement barbados italian efficiency\n
419.292	0.09	838584	keystroke_a	a	n/a
419.502	0.09	839004	keystroke_g	g	n/a
419.742	0.135	839484	keystroke_r	r	n/a
420.087	0.075	840174	keystroke_e	e	n/a
420.252	0.06	840504	keystroke_e	e	n/a
420.357	0.12	840714	keystroke_m	m	n/a
420.522	0.105	841044	keystroke_e	e	n/a
420.642	0.1195	841284	keystroke_n	n	n/a
420.7765	0.121	841553	keystroke_t	t	n/a
420.9115	0.135	841823	keystroke_Key.space	Key.space	n/a
421.1965	0.105	842393	keystroke_b	b	n/a
421.3325	0.1645	842665	keystroke_a	a	n/a
421.467	0.12	842934	keystroke_r	r	n/a
421.647	0.12	843294	keystroke_b	b	n/a
421.752	0.15	843504	keystroke_a	a	n/a
421.872	0.165	843744	keystroke_d	d	n/a
422.067	0.1345	844134	keystroke_o	o	n/a
422.1715	0.09	844343	keystroke_s	s	n/a
422.2765	0.15	844553	keystroke_Key.space	Key.space	n/a
422.5315	0.135	845063	keystroke_i	i	n/a
422.6965	0.075	845393	keystroke_t	t	n/a
423.087	0.12	846174	keystroke_a	a	n/a
423.297	0.165	846594	keystroke_l	l	n/a
423.387	0.18	846774	keystroke_i	i	n/a
423.522	0.1195	847044	keystroke_a	a	n/a
423.6715	0.2105	847343	keystroke_n	n	n/a
423.822	0.1655	847644	keystroke_Key.space	Key.space	n/a
423.897	0.1505	847794	keystroke_e	e	n/a
424.0925	0.09	848185	keystroke_f	f	n/a
424.2725	0.105	848545	keystroke_f	f	n/a
424.6025	0.105	849205	keystroke_i	i	n/a
424.7375	0.1345	849475	keystroke_c	c	n/a
424.857	0.12	849714	keystroke_i	i	n/a
425.262	0.09	850524	keystroke_e	e	n/a
425.367	0.12	850734	keystroke_n	n	n/a
425.517	0.105	851034	keystroke_c	c	n/a
425.682	0.105	851364	keystroke_y	y	n/a
425.952	0.15	851904	keystroke_Key.enter	Key.enter	n/a
426.106	9.553	852212	prompt	n/a	genealogy extensions luggage representations\n
426.897	0.09	853794	keystroke_g	g	n/a
427.092	0.09	854184	keystroke_e	e	n/a
427.497	0.1345	854994	keystroke_n	n	n/a
427.782	0.09	855564	keystroke_e	e	n/a
428.052	0.12	856104	keystroke_a	a	n/a
428.457	0.105	856914	keystroke_l	l	n/a
428.712	0.09	857424	keystroke_o	o	n/a
428.892	0.09	857784	keystroke_g	g	n/a
429.087	0.225	858174	keystroke_y	y	n/a
429.207	0.195	858414	keystroke_Key.space	Key.space	n/a
429.7025	0.105	859405	keystroke_e	e	n/a
429.9575	0.135	859915	keystroke_x	x	n/a
430.2725	0.1195	860545	keystroke_t	t	n/a
430.377	0.1205	860754	keystroke_e	e	n/a
430.542	0.135	861084	keystroke_n	n	n/a
430.707	0.135	861414	keystroke_s	s	n/a
430.857	0.255	861714	keystroke_i	i	n/a
430.917	0.3	861834	keystroke_o	o	n/a
431.037	0.15	862074	keystroke_n	n	n/a
431.218	0.104	862436	keystroke_s	s	n/a
431.322	0.195	862644	keystroke_Key.space	Key.space	n/a
431.457	0.15	862914	keystroke_l	l	n/a
431.682	0.105	863364	keystroke_u	u	n/a
431.832	0.075	863664	keystroke_g	g	n/a
431.982	0.075	863964	keystroke_g	g	n/a
432.132	0.135	864264	keystroke_a	a	n/a
432.327	0.225	864654	keystroke_g	g	n/a
432.492	0.135	864984	keystroke_e	e	n/a
432.717	0.165	865434	keystroke_Key.space	Key.space	n/a
432.897	0.195	865794	keystroke_r	r	n/a
433.002	0.15	866004	keystroke_e	e	n/a
433.197	0.15	866394	keystroke_p	p	n/a
433.332	0.15	866664	keystroke_r	r	n/a
433.407	0.135	866814	keystroke_e	e	n/a
433.662	0.0905	867324	keystroke_s	s	n/a
433.9025	0.12	867805	keystroke_e	e	n/a
434.0825	0.135	868165	keystroke_n	n	n/a
434.2325	0.105	868465	keystroke_t	t	n/a
434.472	0.105	868944	keystroke_a	a	n/a
434.667	0.09	869334	keystroke_t	t	n/a
434.817	0.196	869634	keystroke_i	i	n/a
434.952	0.21	869904	keystroke_o	o	n/a
435.027	0.165	870054	keystroke_n	n	n/a
435.222	0.105	870444	keystroke_s	s	n/a
435.552	0.105	871104	keystroke_Key.enter	Key.enter	n/a
435.6615	7.407	871323	prompt	n/a	arrest fits primarily plaza\n
436.4825	0.135	872965	keystroke_a	a	n/a
436.767	0.045	873534	keystroke_r	r	n/a
436.917	0.1055	873834	keystroke_r	r	n/a
437.1575	0.105	874315	keystroke_e	e	n/a
437.3375	0.18	874675	keystroke_s	s	n/a
437.5025	0.105	875005	keystroke_t	t	n/a
437.6375	0.1495	875275	keystroke_Key.space	Key.space	n/a
437.877	0.15	875754	keystroke_f	f	n/a
438.117	0.12	876234	keystroke_i	i	n/a
438.252	0.21	876504	keystroke_t	t	n/a
438.372	0.1655	876744	keystroke_s	s	n/a
438.5225	0.135	877045	keystroke_Key.space	Key.space	n/a
438.6875	0.135	877375	keystroke_p	p	n/a
438.8975	0.135	877795	keystroke_r	r	n/a
439.0925	0.12	878185	keystroke_i	i	n/a
439.3775	0.105	878755	keystroke_m	m	n/a
439.6325	0.165	879265	keystroke_a	a	n/a
439.9925	0.105	879985	keystroke_r	r	n/a
440.2015	0.106	880403	keystroke_i	i	n/a
440.3665	0.121	880733	keystroke_l	l	n/a
440.5925	0.075	881185	keystroke_y	y	n/a
440.8165	0.136	881633	keystroke_Key.space	Key.space	n/a
440.9825	0.12	881965	keystroke_p	p	n/a
441.1765	0.1355	882353	keystroke_l	l	n/a
441.417	0.105	882834	keystroke_z	z	n/a
441.9715	0.09	883943	keystroke_Key.backspace	Key.backspace	n/a
442.0915	0.165	884183	keystroke_a	a	n/a
442.3165	0.075	884633	keystroke_z	z	n/a
442.617	0.12	885234	keystroke_a	a	n/a
442.947	0.12	885894	keystroke_Key.enter	Key.enter	n/a
443.0735	4.735	886147	prompt	n/a	genome beats wood read\n
443.6965	0.09	887393	keystroke_g	g	n/a
443.9365	0.06	887873	keystroke_e	e	n/a
444.1315	0.105	888263	keystroke_n	n	n/a
444.3415	0.21	888683	keystroke_o	o	n/a
444.4765	0.165	888953	keystroke_m	m	n/a
444.7015	0.09	889403	keystroke_e	e	n/a
444.8515	0.195	889703	keystroke_Key.space	Key.space	n/a
445.0315	0.09	890063	keystroke_b	b	n/a
445.1365	0.165	890273	keystroke_e	e	n/a
445.2115	0.165	890423	keystroke_a	a	n/a
445.4515	0.106	890903	keystroke_t	t	n/a
445.6615	0.1055	891323	keystroke_s	s	n/a
445.812	0.135	891624	keystroke_Key.space	Key.space	n/a
445.977	0.105	891954	keystroke_w	w	n/a
446.142	0.09	892284	keystroke_o	o	n/a
446.322	0.12	892644	keystroke_o	o	n/a
446.502	0.135	893004	keystroke_d	d	n/a
446.667	0.135	893334	keystroke_Key.space	Key.space	n/a
446.907	0.21	893814	keystroke_r	r	n/a
447.042	0.15	894084	keystroke_e	e	n/a
447.282	0.18	894564	keystroke_a	a	n/a
447.417	0.165	894834	keystroke_d	d	n/a
447.6875	0.12	895375	keystroke_Key.enter	Key.enter	n/a
447.8115	7.512	895623	prompt	n/a	buyer asthma hazards celebrate\n
448.6925	0.0895	897385	keystroke_b	b	n/a
448.887	0.075	897774	keystroke_u	u	n/a
449.097	0.105	898194	keystroke_y	y	n/a
449.217	0.195	898434	keystroke_e	e	n/a
449.322	0.195	898644	keystroke_r	r	n/a
449.622	0.12	899244	keystroke_Key.space	Key.space	n/a
449.967	0.15	899934	keystroke_a	a	n/a
450.252	0.15	900504	keystroke_s	s	n/a
450.582	0.105	901164	keystroke_t	t	n/a
450.732	0.105	901464	keystroke_h	h	n/a
451.182	0.105	902364	keystroke_m	m	n/a
451.407	0.135	902814	keystroke_a	a	n/a
451.557	0.12	903114	keystroke_Key.space	Key.space	n/a
451.722	0.135	903444	keystroke_h	h	n/a
451.842	0.12	903684	keystroke_a	a	n/a
452.097	0.135	904194	keystroke_z	z	n/a
452.307	0.135	904614	keystroke_a	a	n/a
452.607	0.09	905214	keystroke_r	r	n/a
452.907	0.18	905814	keystroke_d	d	n/a
453.012	0.135	906024	keystroke_s	s	n/a
453.132	0.15	906264	keystroke_Key.space	Key.space	n/a
453.297	0.135	906594	keystroke_c	c	n/a
453.597	0.105	907194	keystroke_e	e	n/a
453.807	0.135	907614	keystroke_l	l	n/a
453.957	0.06	907914	keystroke_e	e	n/a
454.152	0.09	908304	keystroke_b	b	n/a
454.377	0.12	908754	keystroke_r	r	n/a
454.587	0.105	909174	keystroke_a	a	n/a
454.812	0.09	909624	keystroke_t	t	n/a
454.962	0.12	909924	keystroke_e	e	n/a
455.202	0.12	910404	keystroke_Key.enter	Key.enter	n/a
455.3265	9.6275	910653	prompt	n/a	pipe collar crack olympus\n
456.027	0.15	912054	keystroke_p	p	n/a
456.147	0.195	912294	keystroke_i	i	n/a
456.282	0.165	912564	keystroke_p	p	n/a
456.432	0.09	912864	keystroke_e	e	n/a
456.597	0.1205	913194	keystroke_Key.space	Key.space	n/a
456.7475	0.135	913495	keystroke_c	c	n/a
456.9575	0.12	913915	keystroke_o	o	n/a
457.2575	0.075	914515	keystroke_l	l	n/a
457.4075	0.12	914815	keystroke_l	l	n/a
457.4675	0.135	914935	keystroke_a	a	n/a
457.557	0.12	915114	keystroke_r	r	n/a
457.678	0.149	915356	keystroke_Key.space	Key.space	n/a
457.842	0.12	915684	keystroke_c	c	n/a
458.082	0.09	916164	keystroke_r	r	n/a
458.247	0.135	916494	keystroke_a	a	n/a
458.442	0.12	916884	keystroke_c	c	n/a
458.577	0.195	917154	keystroke_k	k	n/a
458.697	0.15	917394	keystroke_Key.space	Key.space	n/a
459.3575	0.105	918715	keystroke_i	i	n/a
459.3875	0.045	918775	keystroke_o	o	n/a
459.9125	0.075	919825	keystroke_Key.backspace	Key.backspace	n/a
460.1525	0.075	920305	keystroke_Key.backspace	Key.backspace	n/a
460.3925	0.105	920785	keystroke_o	o	n/a
460.9775	0.12	921955	keystroke_l	l	n/a
461.3525	0.06	922705	keystroke_u	u	n/a
461.3675	0.03	922735	keystroke_y	y	n/a
461.8925	0.06	923785	keystroke_Key.backspace	Key.backspace	n/a
462.2225	0.105	924445	keystroke_Key.backspace	Key.backspace	n/a
463.3775	0.09	926755	keystroke_y	y	n/a
463.677	0.1055	927354	keystroke_m	m	n/a
463.9325	0.1195	927865	keystroke_p	p	n/a
464.1875	0.1045	928375	keystroke_u	u	n/a
464.4725	0.12	928945	keystroke_s	s	n/a
464.8775	0.09	929755	keystroke_\	\	n/a
464.9225	0.03	929845	keystroke_Key.enter	Key.enter	n/a
464.9565	13.962	929913	prompt	n/a	priorities executive processor populations\n
465.8525	0.09	931705	keystroke_p	p	n/a
466.1225	0.105	932245	keystroke_r	r	n/a
466.737	0.1055	933474	keystroke_o	o	n/a
467.307	0.09	934614	keystroke_Key.backspace	Key.backspace	n/a
468.342	0.12	936684	keystroke_i	i	n/a
469.182	0.105	938364	keystroke_o	o	n/a
470.442	0.15	940884	keystroke_r	r	n/a
470.742	0.12	941484	keystroke_i	i	n/a
471.162	0.1355	942324	keystroke_t	t	n/a
471.3725	0.135	942745	keystroke_i	i	n/a
471.4925	0.255	942985	keystroke_e	e	n/a
471.5975	0.165	943195	keystroke_s	s	n/a
471.7625	0.15	943525	keystroke_Key.space	Key.space	n/a
471.8825	0.12	943765	keystroke_e	e	n/a
472.1675	0.15	944335	keystroke_x	x	n/a
472.4525	0.1195	944905	keystroke_e	e	n/a
472.722	0.135	945444	keystroke_c	c	n/a
472.992	0.12	945984	keystroke_u	u	n/a
473.142	0.09	946284	keystroke_t	t	n/a
473.277	0.12	946554	keystroke_i	i	n/a
473.412	0.165	946824	keystroke_v	v	n/a
473.547	0.1355	947094	keystroke_e	e	n/a
473.652	0.1655	947304	keystroke_Key.space	Key.space	n/a
473.8475	0.135	947695	keystroke_p	p	n/a
473.9675	0.1345	947935	keystroke_r	r	n/a
474.087	0.12	948174	keystroke_o	o	n/a
474.267	0.165	948534	keystroke_c	c	n/a
474.372	0.18	948744	keystroke_e	e	n/a
474.492	0.105	948984	keystroke_s	s	n/a
474.747	0.12	949494	keystroke_s	s	n/a
474.897	0.15	949794	keystroke_o	o	n/a
475.032	0.105	950064	keystroke_r	r	n/a
475.182	0.18	950364	keystroke_Key.space	Key.space	n/a
475.407	0.105	950814	keystroke_p	p	n/a
475.887	0.09	951774	keystroke_i	i	n/a
475.917	0.21	951834	keystroke_o	o	n/a
476.007	0.105	952014	keystroke_p	p	n/a
476.4565	0.045	952913	keystroke_Key.backspace	Key.backspace	n/a
476.5615	0.12	953123	keystroke_Key.backspace	Key.backspace	n/a
476.727	0.075	953454	keystroke_Key.backspace	Key.backspace	n/a
477.1475	0.12	954295	keystroke_o	o	n/a
477.447	0.1055	954894	keystroke_p	p	n/a
477.6425	0.12	955285	keystroke_u	u	n/a
477.8825	0.12	955765	keystroke_l	l	n/a
477.9725	0.15	955945	keystroke_a	a	n/a
478.1675	0.1345	956335	keystroke_t	t	n/a
478.287	0.27	956574	keystroke_i	i	n/a
478.347	0.225	956694	keystroke_o	o	n/a
478.452	0.135	956904	keystroke_n	n	n/a
478.602	0.135	957204	keystroke_s	s	n/a
478.797	0.12	957594	keystroke_Key.enter	Key.enter	n/a
478.9215	5.6225	957843	prompt	n/a	helen floor general instructional\n
479.637	0.12	959274	keystroke_h	h	n/a
479.742	0.12	959484	keystroke_e	e	n/a
479.892	0.09	959784	keystroke_l	l	n/a
479.983	0.119	959966	keystroke_e	e	n/a
480.087	0.15	960174	keystroke_n	n	n/a
480.192	0.15	960384	keystroke_Key.space	Key.space	n/a
480.357	0.105	960714	keystroke_f	f	n/a
480.507	0.105	961014	keystroke_l	l	n/a
480.8825	0.075	961765	keystroke_o	o	n/a
481.0325	0.105	962065	keystroke_o	o	n/a
481.1525	0.135	962305	keystroke_r	r	n/a
481.4075	0.15	962815	keystroke_Key.space	Key.space	n/a
481.6475	0.075	963295	keystroke_g	g	n/a
481.7675	0.09	963535	keystroke_e	e	n/a
481.9175	0.105	963835	keystroke_n	n	n/a
482.0075	0.1495	964015	keystroke_e	e	n/a
482.0975	0.1045	964195	keystroke_r	r	n/a
482.247	0.12	964494	keystroke_a	a	n/a
482.352	0.12	964704	keystroke_l	l	n/a
482.412	0.15	964824	keystroke_Key.space	Key.space	n/a
482.563	0.209	965126	keystroke_i	i	n/a
482.697	0.135	965394	keystroke_n	n	n/a
482.787	0.12	965574	keystroke_s	s	n/a
483.027	0.15	966054	keystroke_t	t	n/a
483.117	0.135	966234	keystroke_r	r	n/a
483.253	0.074	966506	keystroke_u	u	n/a
483.417	0.0905	966834	keystroke_c	c	n/a
483.6275	0.105	967255	keystroke_t	t	n/a
483.7175	0.225	967435	keystroke_i	i	n/a
483.7775	0.195	967555	keystroke_o	o	n/a
483.8825	0.15	967765	keystroke_n	n	n/a
484.0175	0.12	968035	keystroke_a	a	n/a
484.1225	0.12	968245	keystroke_l	l	n/a
484.467	0.075	968934	keystroke_Key.enter	Key.enter	n/a
484.5485	6.745	969097	prompt	n/a	failing rides wrong split\n
485.247	0.165	970494	keystroke_f	f	n/a
485.367	0.21	970734	keystroke_a	a	n/a
485.562	0.1205	971124	keystroke_i	i	n/a
485.637	0.1655	971274	keystroke_l	l	n/a
486.1775	0.2095	972355	keystroke_i	i	n/a
486.267	0.18	972534	keystroke_n	n	n/a
486.402	0.105	972804	keystroke_g	g	n/a
486.552	0.1505	973104	keystroke_Key.space	Key.space	n/a
486.7325	0.119	973465	keystroke_r	r	n/a
486.9275	0.134	973855	keystroke_i	i	n/a
487.0475	0.269	974095	keystroke_d	d	n/a
487.1975	0.239	974395	keystroke_e	e	n/a
487.3315	0.151	974663	keystroke_s	s	n/a
487.4975	0.135	974995	keystroke_Key.space	Key.space	n/a
487.6165	0.151	975233	keystroke_w	w	n/a
487.6915	0.165	975383	keystroke_r	r	n/a
487.9015	0.271	975803	keystroke_o	o	n/a
488.0215	0.196	976043	keystroke_n	n	n/a
488.1725	0.12	976345	keystroke_g	g	n/a
488.3515	0.136	976703	keystroke_Key.space	Key.space	n/a
488.5175	0.12	977035	keystroke_s	s	n/a
488.6225	0.3	977245	keystroke_p	p	n/a
488.8025	0.179	977605	keystroke_l	l	n/a
490.8565	0.1205	981713	keystroke_i	i	n/a
491.007	0.135	982014	keystroke_t	t	n/a
491.172	0.12	982344	keystroke_Key.enter	Key.enter	n/a
491.2965	11.3375	982593	prompt	n/a	immunology fourth certainly purchase\n
492.0715	0.09	984143	keystroke_i	i	n/a
492.3565	0.075	984713	keystroke_m	m	n/a
492.5065	0.091	985013	keystroke_m	m	n/a
492.7325	0.134	985465	keystroke_u	u	n/a
492.9415	0.0905	985883	keystroke_n	n	n/a
493.212	0.105	986424	keystroke_o	o	n/a
493.452	0.09	986904	keystroke_l	l	n/a
493.692	0.12	987384	keystroke_g	g	n/a
494.892	0.15	989784	keystroke_Key.backspace	Key.backspace	n/a
495.057	0.015	990114	keystroke_Key.backspace	Key.backspace	n/a
495.207	0.075	990414	keystroke_Key.backspace	Key.backspace	n/a
495.372	0.09	990744	keystroke_Key.backspace	Key.backspace	n/a
496.437	0.105	992874	keystroke_n	n	n/a
496.752	0.105	993504	keystroke_o	o	n/a
497.217	0.1195	994434	keystroke_l	l	n/a
497.4265	0.075	994853	keystroke_o	o	n/a
497.5165	0.12	995033	keystroke_g	g	n/a
497.6825	0.21	995365	keystroke_y	y	n/a
497.8175	0.165	995635	keystroke_Key.space	Key.space	n/a
498.5075	0.135	997015	keystroke_f	f	n/a
498.6425	0.21	997285	keystroke_o	o	n/a
498.7175	0.15	997435	keystroke_u	u	n/a
498.8375	0.105	997675	keystroke_r	r	n/a
499.0325	0.105	998065	keystroke_t	t	n/a
499.1075	0.18	998215	keystroke_h	h	n/a
499.1825	0.21	998365	keystroke_Key.space	Key.space	n/a
499.4225	0.135	998845	keystroke_c	c	n/a
499.602	0.2105	999204	keystroke_e	e	n/a
499.7225	0.15	999445	keystroke_r	r	n/a
499.9925	0.09	999985	keystroke_t	t	n/a
500.1275	0.15	1000255	keystroke_a	a	n/a
500.2325	0.18	1000465	keystroke_i	i	n/a
500.3225	0.15	1000645	keystroke_n	n	n/a
500.5325	0.21	1001065	keystroke_l	l	n/a
500.6525	0.165	1001305	keystroke_y	y	n/a
500.7275	0.18	1001455	keystroke_Key.space	Key.space	n/a
500.9225	0.21	1001845	keystroke_p	p	n/a
501.0425	0.12	1002085	keystroke_u	u	n/a
501.1775	0.075	1002355	keystroke_r	r	n/a
501.4625	0.06	1002925	keystroke_c	c	n/a
501.8215	0.106	1003643	keystroke_h	h	n/a
501.9575	0.164	1003915	keystroke_a	a	n/a
502.0775	0.24	1004155	keystroke_s	s	n/a
502.2715	0.135	1004543	keystroke_e	e	n/a
502.4815	0.15	1004963	keystroke_Key.enter	Key.enter	n/a
502.6365	10.4075	1005273	prompt	n/a	specify exhibits alarm nasa\n
503.2475	0.134	1006495	keystroke_s	s	n/a
503.5325	0.12	1007065	keystroke_p	p	n/a
503.6375	0.104	1007275	keystroke_e	e	n/a
503.8465	0.1205	1007693	keystroke_c	c	n/a
504.102	0.09	1008204	keystroke_f	f	n/a
504.222	0.2105	1008444	keystroke_i	i	n/a
504.3875	0.195	1008775	keystroke_y	y	n/a
504.5225	0.195	1009045	keystroke_Key.space	Key.space	n/a
505.0625	0.045	1010125	keystroke_Key.backspace	Key.backspace	n/a
505.2575	0.03	1010515	keystroke_Key.backspace	Key.backspace	n/a
505.3775	0.075	1010755	keystroke_Key.backspace	Key.backspace	n/a
505.692	0.09	1011384	keystroke_Key.backspace	Key.backspace	n/a
506.442	0.075	1012884	keystroke_i	i	n/a
507.012	0.135	1014024	keystroke_f	f	n/a
507.207	0.12	1014414	keystroke_y	y	n/a
507.417	0.135	1014834	keystroke_Key.space	Key.space	n/a
508.152	0.135	1016304	keystroke_e	e	n/a
508.407	0.12	1016814	keystroke_x	x	n/a
508.722	0.12	1017444	keystroke_h	h	n/a
509.052	0.105	1018104	keystroke_i	i	n/a
509.307	0.075	1018614	keystroke_b	b	n/a
509.5325	0.105	1019065	keystroke_i	i	n/a
509.6075	0.2395	1019215	keystroke_t	t	n/a
509.757	0.18	1019514	keystroke_s	s	n/a
509.922	0.135	1019844	keystroke_Key.space	Key.space	n/a
510.132	0.1505	1020264	keystroke_a	a	n/a
510.327	0.1055	1020654	keystroke_l	l	n/a
510.4025	0.1645	1020805	keystroke_a	a	n/a
510.522	0.15	1021044	keystroke_r	r	n/a
510.657	0.1645	1021314	keystroke_m	m	n/a
510.7615	0.165	1021523	keystroke_Key.space	Key.space	n/a
510.9865	0.1355	1021973	keystroke_b	b	n/a
511.0015	0.09	1022003	keystroke_n	n	n/a
511.107	0.105	1022214	keystroke_a	a	n/a
511.482	0.045	1022964	keystroke_Key.backspace	Key.backspace	n/a
511.602	0.09	1023204	keystroke_Key.backspace	Key.backspace	n/a
511.7515	0.0755	1023503	keystroke_Key.backspace	Key.backspace	n/a
512.022	0.09	1024044	keystroke_n	n	n/a
512.232	0.12	1024464	keystroke_a	a	n/a
512.412	0.135	1024824	keystroke_s	s	n/a
512.712	0.1205	1025424	keystroke_a	a	n/a
512.9375	0.105	1025875	keystroke_Key.enter	Key.enter	n/a
513.047	7.362	1026094	prompt	n/a	moments driven focused outlined\n
513.807	0.1505	1027614	keystroke_m	m	n/a
513.942	0.225	1027884	keystroke_o	o	n/a
514.002	0.09	1028004	keystroke_p	p	n/a
514.077	0.165	1028154	keystroke_m	m	n/a
514.272	0.105	1028544	keystroke_e	e	n/a
514.572	0.09	1029144	keystroke_Key.backspace	Key.backspace	n/a
514.692	0.1795	1029384	keystroke_Key.backspace	Key.backspace	n/a
515.0215	0.03	1030043	keystroke_Key.backspace	Key.backspace	n/a
515.4725	0.105	1030945	keystroke_m	m	n/a
515.6375	0.0895	1031275	keystroke_e	e	n/a
515.847	0.09	1031694	keystroke_n	n	n/a
515.982	0.2095	1031964	keystroke_t	t	n/a
516.102	0.1805	1032204	keystroke_s	s	n/a
516.2965	0.15	1032593	keystroke_Key.space	Key.space	n/a
516.4925	0.134	1032985	keystroke_d	d	n/a
516.7615	0.09	1033523	keystroke_r	r	n/a
516.8665	0.135	1033733	keystroke_i	i	n/a
517.0315	0.18	1034063	keystroke_v	v	n/a
517.1515	0.15	1034303	keystroke_e	e	n/a
517.2565	0.135	1034513	keystroke_n	n	n/a
517.3315	0.165	1034663	keystroke_Key.space	Key.space	n/a
517.4815	0.1205	1034963	keystroke_f	f	n/a
517.647	0.1345	1035294	keystroke_o	o	n/a
517.8115	0.135	1035623	keystroke_c	c	n/a
517.9615	0.09	1035923	keystroke_u	u	n/a
518.472	0.1055	1036944	keystroke_s	s	n/a
518.6675	0.195	1037335	keystroke_e	e	n/a
518.7875	0.165	1037575	keystroke_d	d	n/a
518.9975	0.15	1037995	keystroke_Key.space	Key.space	n/a
519.2375	0.195	1038475	keystroke_o	o	n/a
519.3275	0.15	1038655	keystroke_u	u	n/a
519.4325	0.105	1038865	keystroke_t	t	n/a
519.6275	0.2545	1039255	keystroke_l	l	n/a
519.702	0.2395	1039404	keystroke_i	i	n/a
519.837	0.1345	1039674	keystroke_n	n	n/a
519.9265	0.211	1039853	keystroke_e	e	n/a
520.0615	0.165	1040123	keystroke_d	d	n/a
520.2865	0.12	1040573	keystroke_Key.enter	Key.enter	n/a
520.4135	6.415	1040827	prompt	n/a	constraints detailed treasure estate\n
521.0515	0.12	1042103	keystroke_c	c	n/a
521.2025	0.209	1042405	keystroke_o	o	n/a
521.3215	0.151	1042643	keystroke_n	n	n/a
521.4415	0.165	1042883	keystroke_s	s	n/a
521.7275	0.09	1043455	keystroke_t	t	n/a
521.9375	0.135	1043875	keystroke_r	r	n/a
522.0425	0.15	1044085	keystroke_a	a	n/a
522.1775	0.195	1044355	keystroke_i	i	n/a
522.2525	0.18	1044505	keystroke_n	n	n/a
522.3575	0.225	1044715	keystroke_t	t	n/a
522.4475	0.18	1044895	keystroke_s	s	n/a
522.6725	0.15	1045345	keystroke_Key.space	Key.space	n/a
522.8375	0.1945	1045675	keystroke_d	d	n/a
522.987	0.15	1045974	keystroke_e	e	n/a
523.227	0.045	1046454	keystroke_t	t	n/a
523.392	0.09	1046784	keystroke_a	a	n/a
523.497	0.2095	1046994	keystroke_i	i	n/a
523.572	0.2245	1047144	keystroke_l	l	n/a
523.6915	0.241	1047383	keystroke_e	e	n/a
523.8565	0.165	1047713	keystroke_d	d	n/a
524.0225	0.134	1048045	keystroke_Key.space	Key.space	n/a
524.1875	0.09	1048375	keystroke_t	t	n/a
524.3975	0.165	1048795	keystroke_r	r	n/a
524.4425	0.165	1048885	keystroke_e	e	n/a
524.6675	0.1045	1049335	keystroke_a	a	n/a
524.877	0.105	1049754	keystroke_s	s	n/a
525.027	0.105	1050054	keystroke_u	u	n/a
525.162	0.15	1050324	keystroke_r	r	n/a
525.237	0.135	1050474	keystroke_e	e	n/a
525.357	0.165	1050714	keystroke_Key.space	Key.space	n/a
525.507	0.12	1051014	keystroke_e	e	n/a
525.747	0.135	1051494	keystroke_s	s	n/a
526.002	0.105	1052004	keystroke_t	t	n/a
526.182	0.15	1052364	keystroke_a	a	n/a
526.362	0.195	1052724	keystroke_t	t	n/a
526.497	0.12	1052994	keystroke_e	e	n/a
526.692	0.135	1053384	keystroke_Key.enter	Key.enter	n/a
526.8315	5.6975	1053663	prompt	n/a	using up hunting consolidation\n
527.577	0.105	1055154	keystroke_u	u	n/a
527.757	0.135	1055514	keystroke_s	s	n/a
527.907	0.195	1055814	keystroke_i	i	n/a
527.997	0.135	1055994	keystroke_n	n	n/a
528.117	0.09	1056234	keystroke_g	g	n/a
528.267	0.1805	1056534	keystroke_Key.space	Key.space	n/a
528.432	0.1805	1056864	keystroke_u	u	n/a
528.5525	0.15	1057105	keystroke_p	p	n/a
528.8375	0.195	1057675	keystroke_Key.space	Key.space	n/a
528.9725	0.18	1057945	keystroke_h	h	n/a
529.1075	0.24	1058215	keystroke_u	u	n/a
529.2875	0.12	1058575	keystroke_n	n	n/a
529.4225	0.12	1058845	keystroke_t	t	n/a
529.5575	0.18	1059115	keystroke_i	i	n/a
529.6475	0.15	1059295	keystroke_n	n	n/a
529.8125	0.091	1059625	keystroke_g	g	n/a
529.9175	0.135	1059835	keystroke_Key.space	Key.space	n/a
530.2175	0.12	1060435	keystroke_c	c	n/a
530.4575	0.18	1060915	keystroke_o	o	n/a
530.5475	0.165	1061095	keystroke_n	n	n/a
530.9375	0.09	1061875	keystroke_s	s	n/a
531.0725	0.075	1062145	keystroke_o	o	n/a
531.267	0.075	1062534	keystroke_l	l	n/a
531.462	0.09	1062924	keystroke_i	i	n/a
531.567	0.135	1063134	keystroke_d	d	n/a
531.657	0.15	1063314	keystroke_a	a	n/a
531.9725	0.03	1063945	keystroke_t	t	n/a
531.9875	0.165	1063975	keystroke_i	i	n/a
532.0625	0.21	1064125	keystroke_o	o	n/a
532.1375	0.15	1064275	keystroke_n	n	n/a
532.4225	0.105	1064845	keystroke_Key.enter	Key.enter	n/a
532.5335	24.3555	1065067	prompt	n/a	precise hungry thoroughly hepatitis\n
533.172	0.09	1066344	keystroke_p	p	n/a
533.307	0.18	1066614	keystroke_r	r	n/a
533.412	0.165	1066824	keystroke_e	e	n/a
533.727	0.12	1067454	keystroke_c	c	n/a
534.1175	0.1045	1068235	keystroke_i	i	n/a
534.252	0.165	1068504	keystroke_s	s	n/a
534.372	0.15	1068744	keystroke_e	e	n/a
534.462	0.1655	1068924	keystroke_Key.space	Key.space	n/a
534.6125	0.18	1069225	keystroke_h	h	n/a
534.7175	0.12	1069435	keystroke_u	u	n/a
534.9575	0.12	1069915	keystroke_n	n	n/a
535.1075	0.2245	1070215	keystroke_g	g	n/a
535.257	0.15	1070514	keystroke_r	r	n/a
535.422	0.195	1070844	keystroke_y	y	n/a
535.527	0.1655	1071054	keystroke_Key.space	Key.space	n/a
535.7975	0.12	1071595	keystroke_t	t	n/a
535.9625	0.135	1071925	keystroke_h	h	n/a
536.6525	0.12	1073305	keystroke_o	o	n/a
536.952	0.09	1073904	keystroke_r	r	n/a
537.867	0.075	1075734	keystroke_Key.backspace	Key.backspace	n/a
538.1665	0.091	1076333	keystroke_u	u	n/a
538.4365	0.09	1076873	keystroke_r	r	n/a
538.6775	0.18	1077355	keystroke_o	o	n/a
538.7675	0.135	1077535	keystroke_u	u	n/a
538.9315	0.09	1077863	keystroke_g	g	n/a
539.0365	0.105	1078073	keystroke_h	h	n/a
539.2465	0.1955	1078493	keystroke_l	l	n/a
539.367	0.195	1078734	keystroke_y	y	n/a
539.472	0.15	1078944	keystroke_Key.space	Key.space	n/a
540.042	0.075	1080084	keystroke_Key.backspace	Key.backspace	n/a
540.177	0.075	1080354	keystroke_Key.backspace	Key.backspace	n/a
540.312	0.075	1080624	keystroke_Key.backspace	Key.backspace	n/a
540.447	0.0905	1080894	keystroke_Key.backspace	Key.backspace	n/a
540.597	0.075	1081194	keystroke_Key.backspace	Key.backspace	n/a
540.732	0.09	1081464	keystroke_Key.backspace	Key.backspace	n/a
540.882	0.09	1081764	keystroke_Key.backspace	Key.backspace	n/a
541.032	0.105	1082064	keystroke_Key.backspace	Key.backspace	n/a
541.7965	0.0905	1083593	keystroke_Key.backspace	Key.backspace	n/a
543.9745	0.058	1087949	keystroke_t	t	n/a
544.0475	0.24	1088095	keystroke_o	o	n/a
544.1525	0.195	1088305	keystroke_u	u	n/a
544.5425	0.09	1089085	keystroke_h	h	n/a
544.6475	0.12	1089295	keystroke_h	h	n/a
544.812	0.165	1089624	keystroke_l	l	n/a
545.037	0.135	1090074	keystroke_y	y	n/a
545.7425	0.045	1091485	keystroke_Key.backspace	Key.backspace	n/a
545.8325	0.075	1091665	keystroke_Key.backspace	Key.backspace	n/a
545.9675	0.09	1091935	keystroke_Key.backspace	Key.backspace	n/a
546.1025	0.09	1092205	keystroke_Key.backspace	Key.backspace	n/a
546.2375	0.105	1092475	keystroke_Key.backspace	Key.backspace	n/a
546.4025	0.09	1092805	keystroke_Key.backspace	Key.backspace	n/a
546.6725	0.06	1093345	keystroke_Key.backspace	Key.backspace	n/a
547.767	0.12	1095534	keystroke_r	r	n/a
547.782	0.12	1095564	keystroke_t	t	n/a
548.277	0.105	1096554	keystroke_Key.backspace	Key.backspace	n/a
548.652	0.1795	1097304	keystroke_r	r	n/a
549.372	0.06	1098744	keystroke_Key.backspace	Key.backspace	n/a
549.567	0.06	1099134	keystroke_Key.backspace	Key.backspace	n/a
