onset	duration	sample	value	key	prompt_text
1.5005	10.5425	3001	prompt	n/a	the quick brown fox jumps over a lazy dog\n
4.8465	0.042	9693	keystroke	t	n/a
4.8895	0.059	9779	keystroke	h	n/a
4.9485	0.1195	9897	keystroke	e	n/a
5.038	0.119	10076	keystroke	Key.space	n/a
5.1875	0.12	10375	keystroke	q	n/a
5.2775	0.06	10555	keystroke	u	n/a
5.397	0.09	10794	keystroke	i	n/a
5.5465	0.09	11093	keystroke	c	n/a
5.651	0.1495	11302	keystroke	k	n/a
5.7555	0.135	11511	keystroke	Key.space	n/a
5.9205	0.1045	11841	keystroke	b	n/a
6.1295	0.12	12259	keystroke	r	n/a
6.2345	0.06	12469	keystroke	o	n/a
6.3715	0.0995	12743	keystroke	w	n/a
6.4545	0.166	12909	keystroke	n	n/a
6.604	0.133	13208	keystroke	Key.space	n/a
6.7535	0.133	13507	keystroke	f	n/a
6.888	0.0815	13776	keystroke	o	n/a
7.036	0.133	14072	keystroke	x	n/a
7.219	0.1165	14438	keystroke	Key.space	n/a
7.4355	0.0835	14871	keystroke	j	n/a
7.635	0.0655	15270	keystroke	u	n/a
7.8345	0.1	15669	keystroke	m	n/a
7.9995	0.0665	15999	keystroke	p	n/a
8.1835	0.1165	16367	keystroke	s	n/a
8.3	0.082	16600	keystroke	Key.space	n/a
8.3655	0.1005	16731	keystroke	o	n/a
8.515	0.1495	17030	keystroke	v	n/a
8.699	0.19	17398	keystroke	e	n/a
8.8295	0.1195	17659	keystroke	r	n/a
8.904	0.075	17808	keystroke	Key.space	n/a
9.069	0.12	18138	keystroke	a	n/a
9.129	0.165	18258	keystroke	Key.space	n/a
9.4745	0.0895	18949	keystroke	a	n/a
9.819	0.09	19638	keystroke	Key.backspace	n/a
10.1365	0.1195	20273	keystroke	l	n/a
10.316	0.03	20632	keystroke	a	n/a
10.9755	0.1645	21951	keystroke	z	n/a
11.156	0.1195	22312	keystroke	y	n/a
11.2445	0.135	22489	keystroke	Key.space	n/a
11.4105	0.1355	22821	keystroke	d	n/a
11.4845	0.1055	22969	keystroke	o	n/a
11.665	0.105	23330	keystroke	g	n/a
11.7845	0.09	23569	keystroke	Key.space	n/a
11.9645	0.0745	23929	keystroke	Key.enter	n/a
12.0485	8.2565	24097	prompt	n/a	alexandria myself craps plays\n
12.8045	0.12	25609	keystroke	a	n/a
12.9095	0.09	25819	keystroke	l	n/a
13.0595	0.09	26119	keystroke	w	n/a
13.704	0.105	27408	keystroke	x	n/a
13.914	0.1045	27828	keystroke	a	n/a
14.274	0.075	28548	keystroke	Key.backspace	n/a
14.439	0.0595	28878	keystroke	Key.backspace	n/a
14.5885	0.09	29177	keystroke	Key.backspace	n/a
14.7385	0.105	29477	keystroke	e	n/a
14.9785	0.1055	29957	keystroke	x	n/a
15.174	0.104	30348	keystroke	a	n/a
15.308	0.091	30616	keystroke	n	n/a
15.5035	0.1045	31007	keystroke	d	n/a
15.713	0.0895	31426	keystroke	r	n/a
15.8175	0.075	31635	keystroke	i	n/a
15.9525	0.106	31905	keystroke	a	n/a
16.0725	0.0755	32145	keystroke	Key.space	n/a
16.223	0.09	32446	keystroke	m	n/a
16.463	0.091	32926	keystroke	y	n/a
16.599	0.1045	33198	keystroke	s	n/a
16.7635	0.091	33527	keystroke	e	n/a
16.9585	0.075	33917	keystroke	l	n/a
17.5285	0.0895	35057	keystroke	f	n/a
17.724	0.0895	35448	keystroke	Key.space	n/a
18.428	0.105	36856	keystroke	c	n/a
18.638	0.0895	37276	keystroke	r	n/a
18.8025	0.121	37605	keystroke	a	n/a
18.9525	0.09	37905	keystroke	p	n/a
19.0875	0.12	38175	keystroke	s	n/a
19.1925	0.105	38385	keystroke	Key.space	n/a
19.3875	0.045	38775	keystroke	p	n/a
19.5375	0.091	39075	keystroke	l	n/a
19.6885	0.1195	39377	keystroke	a	n/a
19.824	0.105	39648	keystroke	y	n/a
20.003	0.135	40006	keystroke	s	n/a
20.2125	0.09	40425	keystroke	Key.enter	n/a
20.311	8.424	40622	prompt	n/a	hudson problems implied facilities\n
21.0535	0.089	42107	keystroke	h	n/a
21.2325	0.091	42465	keystroke	u	n/a
21.3685	0.089	42737	keystroke	d	n/a
21.5485	0.105	43097	keystroke	s	n/a
21.6675	0.2255	43335	keystroke	o	n/a
21.7875	0.1805	43575	keystroke	n	n/a
21.907	0.15	43814	keystroke	Key.space	n/a
22.043	0.089	44086	keystroke	p	n/a
22.147	0.09	44294	keystroke	r	n/a
22.253	0.104	44506	keystroke	o	n/a
22.418	0.0735	44836	keystroke	b	n/a
22.5365	0.075	45073	keystroke	l	n/a
22.6725	0.075	45345	keystroke	e	n/a
22.7775	0.0905	45555	keystroke	m	n/a
22.912	0.075	45824	keystroke	s	n/a
23.032	0.091	46064	keystroke	Key.space	n/a
23.212	0.061	46424	keystroke	i	n/a
23.378	0.104	46756	keystroke	m	n/a
23.573	0.014	47146	keystroke	p	n/a
23.707	0.076	47414	keystroke	l	n/a
23.8435	0.09	47687	keystroke	i	n/a
24.0235	0.059	48047	keystroke	e	n/a
24.173	0.135	48346	keystroke	d	n/a
24.293	0.0745	48586	keystroke	Key.space	n/a
24.5785	0.134	49157	keystroke	f	n/a
24.7285	0.135	49457	keystroke	a	n/a
24.9685	0.089	49937	keystroke	c	n/a
25.0735	0.059	50147	keystroke	i	n/a
25.493	0.089	50986	keystroke	l	n/a
25.703	0.075	51406	keystroke	i	n/a
26.182	0.075	52364	keystroke	Key.backspace	n/a
26.722	0.0895	53444	keystroke	Key.backspace	n/a
27.4575	0.09	54915	keystroke	l	n/a
27.6365	0.076	55273	keystroke	i	n/a
27.9375	0.09	55875	keystroke	t	n/a
28.0115	0.075	56023	keystroke	i	n/a
28.1615	0.09	56323	keystroke	e	n/a
28.3575	0.0905	56715	keystroke	s	n/a
28.462	0.091	56924	keystroke	Key.space	n/a
28.657	0.075	57314	keystroke	Key.enter	n/a
28.739	5.515	57478	prompt	n/a	fully explicit college fact\n
29.348	0.1195	58696	keystroke	f	n/a
29.4675	0.089	58935	keystroke	u	n/a
29.6475	0.059	59295	keystroke	l	n/a
29.903	0.015	59806	keystroke	l	n/a
29.978	0.12	59956	keystroke	y	n/a
30.037	0.136	60074	keystroke	Key.space	n/a
30.188	0.09	60376	keystroke	e	n/a
30.398	0.1495	60796	keystroke	x	n/a
30.5765	0.061	61153	keystroke	p	n/a
30.8025	0.09	61605	keystroke	l	n/a
30.938	0.09	61876	keystroke	i	n/a
31.193	0.1185	62386	keystroke	c	n/a
31.298	0.075	62596	keystroke	i	n/a
31.508	0.075	63016	keystroke	t	n/a
31.612	0.091	63224	keystroke	Key.space	n/a
32.0175	0.09	64035	keystroke	c	n/a
32.1215	0.076	64243	keystroke	o	n/a
32.3475	0.029	64695	keystroke	l	n/a
32.4525	0.074	64905	keystroke	l	n/a
32.5865	0.165	65173	keystroke	e	n/a
32.7975	0.12	65595	keystroke	g	n/a
32.9025	0.1195	65805	keystroke	e	n/a
33.022	0.104	66044	keystroke	Key.space	n/a
33.186	0.136	66372	keystroke	f	n/a
33.411	0.1065	66822	keystroke	a	n/a
33.5775	0.12	67155	keystroke	c	n/a
33.832	0.0755	67664	keystroke	t	n/a
33.9515	0.09	67903	keystroke	Key.space	n/a
34.1925	0.059	68385	keystroke	Key.enter	n/a
34.259	6.7155	68518	prompt	n/a	individual dana skill trembl\n
34.9125	0.06	69825	keystroke	i	n/a
35.0925	0.06	70185	keystroke	n	n/a
35.2115	0.121	70423	keystroke	d	n/a
35.3175	0.075	70635	keystroke	i	n/a
35.6475	0.075	71295	keystroke	v	n/a
35.7525	0.09	71505	keystroke	i	n/a
36.0525	0.104	72105	keystroke	d	n/a
36.1875	0.075	72375	keystroke	u	n/a
36.3675	0.105	72735	keystroke	a	n/a
36.4575	0.179	72915	keystroke	l	n/a
36.6065	0.136	73213	keystroke	Key.space	n/a
36.9525	0.1345	73905	keystroke	d	n/a
37.117	0.12	74234	keystroke	a	n/a
37.251	0.105	74502	keystroke	n	n/a
37.417	0.1055	74834	keystroke	a	n/a
37.5065	0.106	75013	keystroke	Key.space	n/a
37.7925	0.09	75585	keystroke	s	n/a
37.8965	0.061	75793	keystroke	k	n/a
38.0615	0.076	76123	keystroke	i	n/a
38.2425	0.06	76485	keystroke	l	n/a
38.3925	0.15	76785	keystroke	l	n/a
38.4975	0.1335	76995	keystroke	Key.space	n/a
38.692	0.12	77384	keystroke	t	n/a
38.842	0.135	77684	keystroke	e	n/a
39.5925	0.089	79185	keystroke	Key.backspace	n/a
39.7425	0.135	79485	keystroke	r	n/a
39.9065	0.121	79813	keystroke	e	n/a
40.057	0.105	80114	keystroke	m	n/a
40.372	0.09	80744	keystroke	b	n/a
40.492	0.09	80984	keystroke	l	n/a
40.882	0.09	81764	keystroke	Key.enter	n/a
40.9795	7.569	81959	prompt	n/a	stanford elimination blocks directors\n
41.917	0.105	83834	keystroke	s	n/a
42.157	0.09	84314	keystroke	t	n/a
42.322	0.105	84644	keystroke	a	n/a
42.457	0.09	84914	keystroke	n	n/a
42.922	0.105	85844	keystroke	f	n/a
43.027	0.09	86054	keystroke	o	n/a
43.131	0.061	86262	keystroke	r	n/a
43.357	0.09	86714	keystroke	d	n/a
43.492	0.12	86984	keystroke	Key.space	n/a
43.672	0.0905	87344	keystroke	e	n/a
44.0175	0.09	88035	keystroke	l	n/a
44.1375	0.09	88275	keystroke	i	n/a
44.317	0.09	88634	keystroke	m	n/a
44.452	0.06	88904	keystroke	i	n/a
44.647	0.045	89294	keystroke	n	n/a
44.812	0.1045	89624	keystroke	a	n/a
45.0815	0.09	90163	keystroke	t	n/a
45.1865	0.315	90373	keystroke	i	n/a
45.3215	0.24	90643	keystroke	o	n/a
45.4115	0.18	90823	keystroke	n	n/a
45.5475	0.104	91095	keystroke	Key.space	n/a
45.846	0.105	91692	keystroke	b	n/a
45.966	0.06	91932	keystroke	l	n/a
46.116	0.06	92232	keystroke	o	n/a
46.281	0.105	92562	keystroke	c	n/a
46.356	0.135	92712	keystroke	k	n/a
46.536	0.09	93072	keystroke	s	n/a
46.656	0.09	93312	keystroke	Key.space	n/a
46.8515	0.165	93703	keystroke	d	n/a
46.9565	0.075	93913	keystroke	i	n/a
47.1365	0.12	94273	keystroke	r	n/a
47.2715	0.0895	94543	keystroke	e	n/a
47.496	0.09	94992	keystroke	c	n/a
47.736	0.0905	95472	keystroke	t	n/a
47.8415	0.09	95683	keystroke	o	n/a
47.9615	0.105	95923	keystroke	r	n/a
48.1715	0.1495	96343	keystroke	s	n/a
48.3065	0.0745	96613	keystroke	Key.space	n/a
48.456	0.0905	96912	keystroke	Key.enter	n/a
48.5545	4.4795	97109	prompt	n/a	major news receive items\n
49.206	0.075	98412	keystroke	m	n/a
49.341	0.12	98682	keystroke	a	n/a
49.476	0.075	98952	keystroke	j	n/a
49.611	0.09	99222	keystroke	o	n/a
49.731	0.105	99462	keystroke	r	n/a
49.866	0.09	99732	keystroke	Key.space	n/a
50.001	0.09	100002	keystroke	n	n/a
50.106	0.15	100212	keystroke	e	n/a
50.211	0.12	100422	keystroke	w	n/a
50.466	0.09	100932	keystroke	s	n/a
50.571	0.075	101142	keystroke	Key.space	n/a
50.841	0.105	101682	keystroke	r	n/a
50.916	0.136	101832	keystroke	e	n/a
51.186	0.075	102372	keystroke	c	n/a
51.322	0.134	102644	keystroke	e	n/a
51.471	0.06	102942	keystroke	i	n/a
51.606	0.18	103212	keystroke	v	n/a
51.726	0.15	103452	keystroke	e	n/a
51.906	0.0755	103812	keystroke	Key.space	n/a
52.0715	0.075	104143	keystroke	i	n/a
52.2515	0.105	104503	keystroke	t	n/a
52.4165	0.1345	104833	keystroke	e	n/a
52.536	0.09	105072	keystroke	m	n/a
52.686	0.105	105372	keystroke	s	n/a
52.806	0.075	105612	keystroke	Key.space	n/a
52.971	0.06	105942	keystroke	Key.enter	n/a
53.041	9.187	106082	prompt	n/a	grid demonstrate momentum tales\n
53.871	0.09	107742	keystroke	g	n/a
54.156	0.075	108312	keystroke	r	n/a
54.261	0.075	108522	keystroke	i	n/a
54.396	0.1045	108792	keystroke	d	n/a
54.5155	0.075	109031	keystroke	Key.space	n/a
54.6955	0.09	109391	keystroke	e	n/a
55.0555	0.135	110111	keystroke	m	n/a
55.3405	0.075	110681	keystroke	o	n/a
55.746	0.075	111492	keystroke	Key.backspace	n/a
55.926	0.03	111852	keystroke	Key.backspace	n/a
56.061	0.075	112122	keystroke	Key.backspace	n/a
56.151	0.105	112302	keystroke	d	n/a
56.331	0.135	112662	keystroke	e	n/a
56.451	0.105	112902	keystroke	m	n/a
56.5855	0.105	113171	keystroke	o	n/a
56.751	0.075	113502	keystroke	n	n/a
56.856	0.15	113712	keystroke	s	n/a
57.111	0.06	114222	keystroke	t	n/a
57.261	0.09	114522	keystroke	r	n/a
57.456	0.225	114912	keystroke	a	n/a
57.696	0.105	115392	keystroke	t	n/a
57.816	0.105	115632	keystroke	e	n/a
57.951	0.12	115902	keystroke	Key.space	n/a
58.3865	0.09	116773	keystroke	o	n/a
58.806	0.03	117612	keystroke	Key.backspace	n/a
59.467	0.119	118934	keystroke	m	n/a
59.722	0.075	119444	keystroke	o	n/a
59.947	0.104	119894	keystroke	m	n/a
60.261	0.031	120522	keystroke	e	n/a
60.276	0.075	120552	keystroke	n	n/a
60.456	0.09	120912	keystroke	t	n/a
60.6215	0.0895	121243	keystroke	u	n/a
60.861	0.2115	121722	keystroke	m	n/a
61.026	0.1055	122052	keystroke	Key.space	n/a
61.296	0.091	122592	keystroke	t	n/a
61.461	0.135	122922	keystroke	a	n/a
61.581	0.09	123162	keystroke	l	n/a
61.686	0.075	123372	keystroke	e	n/a
61.836	0.12	123672	keystroke	s	n/a
61.971	0.075	123942	keystroke	Key.space	n/a
62.151	0.075	124302	keystroke	Key.enter	n/a
62.2325	12.492	124465	prompt	n/a	teen optimum efforts realtors\n
62.917	0.089	125834	keystroke	t	n/a
63.111	0.0755	126222	keystroke	e	n/a
63.2465	0.105	126493	keystroke	e	n/a
63.4425	0.18	126885	keystroke	n	n/a
63.5315	0.135	127063	keystroke	Key.space	n/a
63.8175	0.059	127635	keystroke	p	n/a
64.251	0.075	128502	keystroke	Key.backspace	n/a
64.477	0.119	128954	keystroke	o	n/a
64.671	0.09	129342	keystroke	p	n/a
65.047	0.104	130094	keystroke	t	n/a
65.166	0.09	130332	keystroke	i	n/a
65.797	0.075	131594	keystroke	n	n/a
66.126	0.105	132252	keystroke	u	n/a
66.5015	0.1195	133003	keystroke	m	n/a
66.816	0.0895	133632	keystroke	Key.backspace	n/a
66.9805	0.06	133961	keystroke	Key.backspace	n/a
67.1155	0.09	134231	keystroke	Key.backspace	n/a
67.417	0.104	134834	keystroke	m	n/a
67.687	0.06	135374	keystroke	u	n/a
67.897	0.104	135794	keystroke	m	n/a
70.4025	0.026	140805	keystroke	Key.space	n/a
70.67	0.09	141340	keystroke	e	n/a
70.94	0.059	141880	keystroke	f	n/a
71.06	0.106	142120	keystroke	f	n/a
71.225	0.091	142450	keystroke	o	n/a
71.286	0.105	142572	keystroke	r	n/a
71.556	0.1055	143112	keystroke	e	n/a
72.006	0.09	144012	keystroke	Key.backspace	n/a
72.2755	0.106	144551	keystroke	t	n/a
72.5165	0.1195	145033	keystroke	s	n/a
72.6515	0.09	145303	keystroke	Key.space	n/a
73.0565	0.105	146113	keystroke	r	n/a
73.1465	0.1645	146293	keystroke	e	n/a
73.356	0.105	146712	keystroke	a	n/a
73.446	0.09	146892	keystroke	l	n/a
73.9565	0.075	147913	keystroke	t	n/a
74.0615	0.075	148123	keystroke	o	n/a
74.1515	0.1045	148303	keystroke	r	n/a
74.346	0.105	148692	keystroke	s	n/a
74.466	0.075	148932	keystroke	Key.space	n/a
74.6315	0.0895	149263	keystroke	Key.enter	n/a
74.7305	8.558	149461	prompt	n/a	computing prices counting unfortunately\n
75.5015	0.12	151003	keystroke	c	n/a
75.6065	0.075	151213	keystroke	o	n/a
75.966	0.12	151932	keystroke	m	n/a
76.1915	0.0895	152383	keystroke	p	n/a
76.326	0.075	152652	keystroke	u	n/a
76.5365	0.075	153073	keystroke	t	n/a
76.6415	0.09	153283	keystroke	i	n/a
76.7915	0.135	153583	keystroke	n	n/a
76.9865	0.09	153973	keystroke	g	n/a
77.1065	0.09	154213	keystroke	Key.space	n/a
77.2565	0.075	154513	keystroke	p	n/a
77.3915	0.105	154783	keystroke	r	n/a
77.4965	0.09	154993	keystroke	i	n/a
77.6765	0.075	155353	keystroke	c	n/a
77.841	0.09	155682	keystroke	e	n/a
78.006	0.1205	156012	keystroke	s	n/a
78.1415	0.06	156283	keystroke	Key.space	n/a
78.306	0.1495	156612	keystroke	c	n/a
78.4405	0.165	156881	keystroke	o	n/a
78.5455	0.09	157091	keystroke	u	n/a
78.815	0.0445	157630	keystroke	n	n/a
78.9945	0.09	157989	keystroke	t	n/a
79.0995	0.06	158199	keystroke	i	n/a
79.2495	0.075	158499	keystroke	n	n/a
79.3995	0.09	158799	keystroke	g	n/a
79.5195	0.075	159039	keystroke	Key.space	n/a
79.6695	0.06	159339	keystroke	u	n/a
80.1205	0.105	160241	keystroke	n	n/a
80.361	0.105	160722	keystroke	f	n/a
80.467	0.074	160934	keystroke	o	n/a
80.616	0.105	161232	keystroke	r	n/a
80.9015	0.075	161803	keystroke	t	n/a
81.0215	0.075	162043	keystroke	u	n/a
81.2315	0.075	162463	keystroke	n	n/a
81.9065	0.075	163813	keystroke	a	n/a
82.1315	0.105	164263	keystroke	t	n/a
82.2515	0.105	164503	keystroke	e	n/a
82.3865	0.0595	164773	keystroke	l	n/a
82.641	0.1055	165282	keystroke	y	n/a
82.986	0.105	165972	keystroke	Key.space	n/a
83.211	0.075	166422	keystroke	Key.enter	n/a
83.293	5.5005	166586	prompt	n/a	pipeline depend nurse booth\n
84.096	0.06	168192	keystroke	p	n/a
84.261	0.105	168522	keystroke	i	n/a
84.441	0.121	168882	keystroke	p	n/a
84.621	0.075	169242	keystroke	e	n/a
84.816	0.09	169632	keystroke	l	n/a
84.966	0.075	169932	keystroke	i	n/a
85.206	0.09	170412	keystroke	n	n/a
85.416	0.075	170832	keystroke	e	n/a
85.521	0.075	171042	keystroke	Key.space	n/a
85.746	0.075	171492	keystroke	d	n/a
85.896	0.12	171792	keystroke	e	n/a
86.076	0.09	172152	keystroke	p	n/a
86.226	0.12	172452	keystroke	e	n/a
86.361	0.075	172722	keystroke	n	n/a
86.526	0.0745	173052	keystroke	d	n/a
86.6305	0.06	173261	keystroke	Key.space	n/a
86.8255	0.0905	173651	keystroke	n	n/a
87.021	0.0745	174042	keystroke	u	n/a
87.1105	0.12	174221	keystroke	r	n/a
87.2905	0.18	174581	keystroke	s	n/a
87.4555	0.1355	174911	keystroke	e	n/a
87.576	0.09	175152	keystroke	Key.space	n/a
87.771	0.09	175542	keystroke	b	n/a
87.876	0.06	175752	keystroke	o	n/a
88.011	0.075	176022	keystroke	o	n/a
88.146	0.09	176292	keystroke	t	n/a
88.296	0.195	176592	keystroke	h	n/a
88.461	0.105	176922	keystroke	Key.space	n/a
88.7165	0.075	177433	keystroke	Key.enter	n/a
88.7975	7.092	177595	prompt	n/a	oracle ma'am mobile moderate\n
89.5865	0.12	179173	keystroke	o	n/a
89.7515	0.105	179503	keystroke	r	n/a
89.9465	0.12	179893	keystroke	a	n/a
90.3075	0.074	180615	keystroke	c	n/a
90.3965	0.06	180793	keystroke	l	n/a
90.5315	0.1045	181063	keystroke	e	n/a
90.651	0.0755	181302	keystroke	Key.space	n/a
90.8015	0.105	181603	keystroke	m	n/a
91.0115	0.09	182023	keystroke	a	n/a
91.2215	0.12	182443	keystroke	'	n/a
91.5815	0.1045	183163	keystroke	m	n/a
92.031	0.075	184062	keystroke	Key.backspace	n/a
92.286	0.105	184572	keystroke	a	n/a
92.406	0.195	184812	keystroke	m	n/a
92.571	0.12	185142	keystroke	Key.space	n/a
92.736	0.195	185472	keystroke	m	n/a
92.916	0.09	185832	keystroke	o	n/a
93.201	0.075	186402	keystroke	b	n/a
93.6665	0.0745	187333	keystroke	i	n/a
93.8765	0.075	187753	keystroke	l	n/a
94.0415	0.12	188083	keystroke	e	n/a
94.1765	0.0445	188353	keystroke	Key.space	n/a
94.341	0.15	188682	keystroke	m	n/a
94.476	0.0905	188952	keystroke	o	n/a
94.701	0.09	189402	keystroke	d	n/a
94.881	0.1805	189762	keystroke	e	n/a
94.986	0.1505	189972	keystroke	r	n/a
95.2115	0.195	190423	keystroke	a	n/a
95.3765	0.15	190753	keystroke	t	n/a
95.5115	0.12	191023	keystroke	e	n/a
95.6465	0.075	191293	keystroke	Key.space	n/a
95.8265	0.06	191653	keystroke	Key.enter	n/a
95.8945	6.5195	191789	prompt	n/a	tackle lunch perfectly lover\n
96.6815	0.09	193363	keystroke	t	n/a
96.8465	0.15	193693	keystroke	a	n/a
97.1175	0.1045	194235	keystroke	c	n/a
97.2365	0.0905	194473	keystroke	k	n/a
97.4315	0.075	194863	keystroke	l	n/a
97.5965	0.105	195193	keystroke	e	n/a
97.7165	0.0905	195433	keystroke	Key.space	n/a
98.1965	0.06	196393	keystroke	l	n/a
98.3615	0.06	196723	keystroke	u	n/a
98.5565	0.076	197113	keystroke	n	n/a
98.7365	0.1195	197473	keystroke	c	n/a
98.856	0.18	197712	keystroke	h	n/a
98.976	0.15	197952	keystroke	Key.space	n/a
99.141	0.0905	198282	keystroke	p	n/a
99.3665	0.315	198733	keystroke	e	n/a
99.6065	0.12	199213	keystroke	r	n/a
99.8925	0.119	199785	keystroke	f	n/a
100.0125	0.089	200025	keystroke	e	n/a
100.2215	0.105	200443	keystroke	c	n/a
100.461	0.09	200922	keystroke	t	n/a
100.6115	0.09	201223	keystroke	l	n/a
100.8965	0.15	201793	keystroke	y	n/a
101.0015	0.12	202003	keystroke	Key.space	n/a
101.2265	0.091	202453	keystroke	l	n/a
101.4365	0.06	202873	keystroke	o	n/a
101.5565	0.135	203113	keystroke	v	n/a
101.7065	0.3	203413	keystroke	e	n/a
101.9165	0.1655	203833	keystroke	r	n/a
102.172	0.135	204344	keystroke	Key.space	n/a
102.322	0.09	204644	keystroke	Key.enter	n/a
102.4185	6.625	204837	prompt	n/a	lewis comparing pentium robert\n
103.0415	0.105	206083	keystroke	l	n/a
103.1625	0.105	206325	keystroke	e	n/a
103.522	0.104	207044	keystroke	w	n/a
103.612	0.06	207224	keystroke	i	n/a
103.792	0.104	207584	keystroke	s	n/a
103.911	0.09	207822	keystroke	Key.space	n/a
104.092	0.134	208184	keystroke	c	n/a
104.182	0.18	208364	keystroke	o	n/a
104.271	0.196	208542	keystroke	m	n/a
104.407	0.105	208814	keystroke	p	n/a
104.556	0.136	209112	keystroke	a	n/a
104.751	0.091	209502	keystroke	r	n/a
104.857	0.09	209714	keystroke	i	n/a
104.9765	0.09	209953	keystroke	n	n/a
105.1415	0.074	210283	keystroke	g	n/a
105.1855	0.09	210371	keystroke	Key.space	n/a
105.442	0.0895	210884	keystroke	p	n/a
105.5755	0.121	211151	keystroke	e	n/a
105.7115	0.0755	211423	keystroke	n	n/a
105.967	0.09	211934	keystroke	t	n/a
106.072	0.06	212144	keystroke	i	n/a
106.702	0.09	213404	keystroke	u	n/a
107.106	0.121	214212	keystroke	m	n/a
107.361	0.075	214722	keystroke	Key.space	n/a
107.721	0.09	215442	keystroke	r	n/a
107.796	0.091	215592	keystroke	o	n/a
108.0065	0.1055	216013	keystroke	b	n/a
108.157	0.225	216314	keystroke	e	n/a
108.276	0.166	216552	keystroke	r	n/a
108.547	0.104	217094	keystroke	t	n/a
108.712	0.1195	217424	keystroke	Key.space	n/a
108.9515	0.09	217903	keystroke	Key.enter	n/a
109.048	8.381	218096	prompt	n/a	adopt exotic domains skirts\n
109.777	0.105	219554	keystroke	a	n/a
110.257	0.119	220514	keystroke	d	n/a
110.437	0.105	220874	keystroke	o	n/a
110.646	0.076	221292	keystroke	p	n/a
110.887	0.12	221774	keystroke	t	n/a
111.021	0.105	222042	keystroke	Key.space	n/a
111.1865	0.1055	222373	keystroke	e	n/a
111.426	0.136	222852	keystroke	x	n/a
111.742	0.12	223484	keystroke	o	n/a
112.042	0.075	224084	keystroke	t	n/a
112.132	0.075	224264	keystroke	i	n/a
112.326	0.106	224652	keystroke	c	n/a
112.551	0.091	225102	keystroke	e	n/a
112.746	0.03	225492	keystroke	Key.space	n/a
113.346	0.06	226692	keystroke	Key.backspace	n/a
113.467	0.09	226934	keystroke	Key.backspace	n/a
113.6905	0.105	227381	keystroke	Key.space	n/a
113.9765	0.09	227953	keystroke	d	n/a
114.667	0.0745	229334	keystroke	o	n/a
114.8315	0.09	229663	keystroke	m	n/a
114.9955	0.091	229991	keystroke	a	n/a
115.1165	0.075	230233	keystroke	i	n/a
115.2815	0.06	230563	keystroke	n	n/a
115.4015	0.12	230803	keystroke	s	n/a
115.5365	0.075	231073	keystroke	Key.space	n/a
115.8065	0.12	231613	keystroke	s	n/a
115.9415	0.0755	231883	keystroke	k	n/a
116.122	0.075	232244	keystroke	i	n/a
116.272	0.21	232544	keystroke	r	n/a
116.827	0.09	233654	keystroke	t	n/a
117.022	0.09	234044	keystroke	s	n/a
117.126	0.091	234252	keystroke	Key.space	n/a
117.367	0.059	234734	keystroke	Key.enter	n/a
117.436	8.829	234872	prompt	n/a	information subtle gazette that\n
118.1325	0.075	236265	keystroke	i	n/a
118.3125	0.075	236625	keystroke	n	n/a
118.4325	0.105	236865	keystroke	f	n/a
118.5385	0.059	237077	keystroke	o	n/a
118.6425	0.105	237285	keystroke	r	n/a
118.7175	0.075	237435	keystroke	m	n/a
118.8675	0.2245	237735	keystroke	a	n/a
119.062	0.135	238124	keystroke	t	n/a
119.212	0.3	238424	keystroke	i	n/a
119.302	0.24	238604	keystroke	o	n/a
119.407	0.181	238814	keystroke	n	n/a
119.527	0.135	239054	keystroke	Key.space	n/a
119.6925	0.12	239385	keystroke	s	n/a
119.8425	0.075	239685	keystroke	u	n/a
120.007	0.09	240014	keystroke	b	n/a
120.142	0.0905	240284	keystroke	l	n/a
120.667	0.045	241334	keystroke	t	n/a
121.747	0.09	243494	keystroke	e	n/a
122.092	0.09	244184	keystroke	Key.backspace	n/a
122.257	0.06	244514	keystroke	Key.backspace	n/a
122.422	0.06	244844	keystroke	Key.backspace	n/a
122.827	0.075	245654	keystroke	t	n/a
123.022	0.135	246044	keystroke	l	n/a
123.352	0.075	246704	keystroke	e	n/a
123.517	0.0895	247034	keystroke	Key.space	n/a
123.997	0.0895	247994	keystroke	g	n/a
124.1465	0.091	248293	keystroke	a	n/a
124.3875	0.119	248775	keystroke	z	n/a
124.5825	0.119	249165	keystroke	e	n/a
124.9425	0.074	249885	keystroke	t	n/a
125.0915	0.09	250183	keystroke	t	n/a
125.2265	0.15	250453	keystroke	e	n/a
125.3765	0.09	250753	keystroke	Key.space	n/a
125.5415	0.12	251083	keystroke	t	n/a
125.6465	0.09	251293	keystroke	h	n/a
125.7515	0.21	251503	keystroke	a	n/a
125.8865	0.12	251773	keystroke	t	n/a
126.0215	0.075	252043	keystroke	Key.space	n/a
126.1865	0.0755	252373	keystroke	Key.enter	n/a
126.271	5.8135	252542	prompt	n/a	cream http swift encouraged\n
126.937	0.1205	253874	keystroke	c	n/a
127.162	0.15	254324	keystroke	r	n/a
127.267	0.225	254534	keystroke	e	n/a
127.462	0.15	254924	keystroke	a	n/a
127.597	0.1345	255194	keystroke	m	n/a
127.7015	0.15	255403	keystroke	Key.space	n/a
127.9715	0.09	255943	keystroke	h	n/a
128.167	0.0595	256334	keystroke	t	n/a
128.2865	0.12	256573	keystroke	t	n/a
128.5265	0.106	257053	keystroke	p	n/a
128.707	0.105	257414	keystroke	Key.space	n/a
128.872	0.105	257744	keystroke	s	n/a
129.082	0.12	258164	keystroke	w	n/a
129.188	0.075	258376	keystroke	i	n/a
129.352	0.105	258704	keystroke	f	n/a
129.577	0.12	259154	keystroke	t	n/a
129.712	0.12	259424	keystroke	Key.space	n/a
129.997	0.091	259994	keystroke	e	n/a
130.147	0.1055	260294	keystroke	n	n/a
130.402	0.12	260804	keystroke	c	n/a
130.537	0.18	261074	keystroke	o	n/a
130.658	0.089	261316	keystroke	u	n/a
130.942	0.105	261884	keystroke	r	n/a
131.167	0.1215	262334	keystroke	a	n/a
131.407	0.105	262814	keystroke	g	n/a
131.527	0.0905	263054	keystroke	e	n/a
131.7225	0.105	263445	keystroke	d	n/a
131.8125	0.1045	263625	keystroke	Key.space	n/a
132.007	0.075	264014	keystroke	Key.enter	n/a
132.089	7.0905	264178	prompt	n/a	standings joshua countries author\n
132.802	0.121	265604	keystroke	s	n/a
133.012	0.09	266024	keystroke	t	n/a
133.192	0.135	266384	keystroke	a	n/a
133.312	0.045	266624	keystroke	n	n/a
133.447	0.105	266894	keystroke	d	n/a
133.537	0.09	267074	keystroke	i	n/a
133.718	0.059	267436	keystroke	n	n/a
133.792	0.09	267584	keystroke	g	n/a
134.002	0.105	268004	keystroke	s	n/a
134.092	0.09	268184	keystroke	Key.space	n/a
134.272	0.091	268544	keystroke	j	n/a
134.3925	0.104	268785	keystroke	o	n/a
134.557	0.195	269114	keystroke	s	n/a
134.692	0.09	269384	keystroke	h	n/a
134.9015	0.075	269803	keystroke	u	n/a
135.0515	0.135	270103	keystroke	a	n/a
135.1875	0.089	270375	keystroke	Key.space	n/a
135.4115	0.105	270823	keystroke	c	n/a
135.5015	0.09	271003	keystroke	o	n/a
135.7265	0.075	271453	keystroke	u	n/a
135.9215	0.075	271843	keystroke	n	n/a
136.0715	0.075	272143	keystroke	t	n/a
136.2365	0.121	272473	keystroke	r	n/a
136.3425	0.075	272685	keystroke	i	n/a
136.4465	0.1205	272893	keystroke	e	n/a
136.702	0.135	273404	keystroke	s	n/a
136.852	0.105	273704	keystroke	Key.space	n/a
137.197	0.135	274394	keystroke	a	n/a
137.363	0.089	274726	keystroke	u	n/a
138.202	0.091	276404	keystroke	t	n/a
138.277	0.091	276554	keystroke	h	n/a
138.5165	0.0905	277033	keystroke	o	n/a
138.727	0.075	277454	keystroke	r	n/a
138.847	0.075	277694	keystroke	Key.space	n/a
139.1015	0.075	278203	keystroke	Key.enter	n/a
139.186	6.593	278372	prompt	n/a	apnic quotes planes appointed\n
139.883	0.105	279766	keystroke	a	n/a
140.092	0.0595	280184	keystroke	p	n/a
140.3615	0.06	280723	keystroke	n	n/a
140.527	0.045	281054	keystroke	i	n/a
140.7965	0.016	281593	keystroke	c	n/a
140.8265	0.045	281653	keystroke	Key.space	n/a
141.397	0.121	282794	keystroke	q	n/a
141.592	0.105	283184	keystroke	u	n/a
141.742	0.105	283484	keystroke	o	n/a
142.013	0.089	284026	keystroke	t	n/a
142.163	0.105	284326	keystroke	e	n/a
142.342	0.121	284684	keystroke	s	n/a
142.463	0.089	284926	keystroke	Key.space	n/a
142.627	0.075	285254	keystroke	p	n/a
142.793	0.104	285586	keystroke	l	n/a
142.972	0.121	285944	keystroke	a	n/a
143.108	0.059	286216	keystroke	n	n/a
143.212	0.075	286424	keystroke	e	n/a
143.482	0.015	286964	keystroke	s	n/a
143.512	0.06	287024	keystroke	Key.space	n/a
143.6765	0.1055	287353	keystroke	a	n/a
143.797	0.061	287594	keystroke	p	n/a
143.962	0.106	287924	keystroke	p	n/a
144.1125	0.18	288225	keystroke	o	n/a
144.2765	0.105	288553	keystroke	i	n/a
144.4715	0.075	288943	keystroke	n	n/a
145.0575	0.074	290115	keystroke	t	n/a
145.1765	0.12	290353	keystroke	e	n/a
145.3875	0.119	290775	keystroke	d	n/a
145.4765	0.105	290953	keystroke	Key.space	n/a
145.7015	0.075	291403	keystroke	Key.enter	n/a
145.783	14.022	291566	prompt	n/a	christina slave administered containing\n
146.738	0.119	293476	keystroke	c	n/a
146.842	0.105	293684	keystroke	h	n/a
147.037	0.09	294074	keystroke	r	n/a
147.142	0.075	294284	keystroke	i	n/a
147.232	0.15	294464	keystroke	s	n/a
147.472	0.075	294944	keystroke	t	n/a
147.547	0.135	295094	keystroke	i	n/a
147.667	0.1355	295334	keystroke	n	n/a
147.877	0.12	295754	keystroke	a	n/a
148.012	0.06	296024	keystroke	Key.space	n/a
148.192	0.105	296384	keystroke	s	n/a
148.3125	0.0745	296625	keystroke	l	n/a
148.447	0.18	296894	keystroke	a	n/a
148.642	0.195	297284	keystroke	v	n/a
148.792	0.135	297584	keystroke	e	n/a
148.942	0.075	297884	keystroke	Key.space	n/a
149.3025	0.1045	298605	keystroke	a	n/a
149.527	0.09	299054	keystroke	d	n/a
149.6625	0.135	299325	keystroke	m	n/a
149.813	0.074	299626	keystroke	i	n/a
150.007	0.045	300014	keystroke	n	n/a
150.142	0.0455	300284	keystroke	i	n/a
150.2475	0.1645	300495	keystroke	s	n/a
150.547	0.105	301094	keystroke	t	n/a
152.5865	0.18	305173	keystroke	e	n/a
152.8115	0.165	305623	keystroke	r	n/a
152.9315	0.12	305863	keystroke	e	n/a
153.1415	0.1055	306283	keystroke	d	n/a
153.247	0.09	306494	keystroke	Key.space	n/a
153.442	0.105	306884	keystroke	c	n/a
153.517	0.135	307034	keystroke	o	n/a
153.637	0.105	307274	keystroke	n	n/a
153.862	0.09	307724	keystroke	t	n/a
154.057	0.105	308114	keystroke	a	n/a
154.177	0.075	308354	keystroke	n	n/a
154.357	0.075	308714	keystroke	i	n/a
154.492	0.09	308984	keystroke	n	n/a
154.717	0.09	309434	keystroke	g	n/a
156.0375	0.09	312075	keystroke	Key.backspace	n/a
156.2475	0.045	312495	keystroke	Key.backspace	n/a
156.3825	0.06	312765	keystroke	Key.backspace	n/a
156.5475	0.045	313095	keystroke	Key.backspace	n/a
156.6825	0.09	313365	keystroke	Key.backspace	n/a
156.9975	0.105	313995	keystroke	i	n/a
157.2225	0.09	314445	keystroke	n	n/a
158.078	0.0745	316156	keystroke	Key.backspace	n/a
158.2275	0.075	316455	keystroke	Key.backspace	n/a
158.663	0.0755	317326	keystroke	a	n/a
158.7825	0.075	317565	keystroke	i	n/a
158.9475	0.075	317895	keystroke	n	n/a
159.1125	0.075	318225	keystroke	i	n/a
159.2475	0.09	318495	keystroke	n	n/a
159.4275	0.075	318855	keystroke	g	n/a
159.5475	0.09	319095	keystroke	Key.space	n/a
159.7125	0.09	319425	keystroke	Key.enter	n/a
159.81	12.909	319620	prompt	n/a	machinery realtor ebooks earnings\n
160.4475	0.045	320895	keystroke	c	n/a
160.5375	0.12	321075	keystroke	m	n/a
160.9125	0.06	321825	keystroke	Key.backspace	n/a
161.0475	0.075	322095	keystroke	Key.backspace	n/a
161.2435	0.1185	322487	keystroke	m	n/a
161.392	0.0905	322784	keystroke	a	n/a
161.5875	0.105	323175	keystroke	c	n/a
161.6775	0.06	323355	keystroke	h	n/a
161.8125	0.075	323625	keystroke	i	n/a
161.9785	0.074	323957	keystroke	n	n/a
162.1425	0.2245	324285	keystroke	e	n/a
162.3375	0.1195	324675	keystroke	r	n/a
162.532	0.135	325064	keystroke	y	n/a
162.637	0.12	325274	keystroke	Key.space	n/a
162.862	0.12	325724	keystroke	r	n/a
162.967	0.15	325934	keystroke	e	n/a
163.147	0.03	326294	keystroke	e	n/a
163.162	0.1055	326324	keystroke	a	n/a
163.2525	0.09	326505	keystroke	l	n/a
163.522	0.09	327044	keystroke	t	n/a
163.597	0.075	327194	keystroke	o	n/a
163.7625	0.075	327525	keystroke	r	n/a
163.8675	0.09	327735	keystroke	Key.space	n/a
164.1075	0.09	328215	keystroke	e	n/a
164.4825	0.075	328965	keystroke	b	n/a
164.5885	0.059	329177	keystroke	o	n/a
164.7225	0.06	329445	keystroke	o	n/a
164.8875	0.12	329775	keystroke	k	n/a
165.3975	0.075	330795	keystroke	Key.backspace	n/a
165.547	0.06	331094	keystroke	Key.backspace	n/a
165.712	0.03	331424	keystroke	Key.backspace	n/a
165.847	0.045	331694	keystroke	Key.backspace	n/a
165.982	0.045	331964	keystroke	Key.backspace	n/a
166.102	0.075	332204	keystroke	Key.backspace	n/a
166.2525	0.06	332505	keystroke	Key.backspace	n/a
166.3875	0.075	332775	keystroke	Key.backspace	n/a
166.552	0.06	333104	keystroke	Key.backspace	n/a
166.7175	0.0445	333435	keystroke	Key.backspace	n/a
167.017	0.09	334034	keystroke	Key.backspace	n/a
167.182	0.06	334364	keystroke	Key.backspace	n/a
167.332	0.06	334664	keystroke	Key.backspace	n/a
168.0375	0.1045	336075	keystroke	e	n/a
168.232	0.135	336464	keystroke	a	n/a
168.397	0.075	336794	keystroke	l	n/a
168.6825	0.075	337365	keystroke	t	n/a
168.7725	0.06	337545	keystroke	o	n/a
168.9075	0.09	337815	keystroke	r	n/a
169.0125	0.09	338025	keystroke	Key.space	n/a
169.2225	0.105	338445	keystroke	e	n/a
169.5675	0.06	339135	keystroke	b	n/a
169.6725	0.075	339345	keystroke	o	n/a
169.8225	0.06	339645	keystroke	o	n/a
169.9575	0.135	339915	keystroke	k	n/a
170.1225	0.15	340245	keystroke	s	n/a
170.4675	0.135	340935	keystroke	Key.space	n/a
170.7675	0.135	341535	keystroke	e	n/a
171.3225	0.15	342645	keystroke	a	n/a
171.5925	0.09	343185	keystroke	r	n/a
171.742	0.0755	343484	keystroke	n	n/a
171.8925	0.09	343785	keystroke	i	n/a
172.0125	0.09	344025	keystroke	n	n/a
172.1625	0.0895	344325	keystroke	g	n/a
172.358	0.089	344716	keystroke	s	n/a
172.447	0.09	344894	keystroke	Key.space	n/a
172.642	0.0755	345284	keystroke	Key.enter	n/a
172.723	6.4015	345446	prompt	n/a	queens growing logo thursday\n
173.4685	0.09	346937	keystroke	q	n/a
173.6475	0.075	347295	keystroke	u	n/a
173.813	0.075	347626	keystroke	e	n/a
173.932	0.12	347864	keystroke	e	n/a
174.082	0.0905	348164	keystroke	n	n/a
174.2325	0.0895	348465	keystroke	s	n/a
174.337	0.075	348674	keystroke	Key.space	n/a
174.532	0.0755	349064	keystroke	g	n/a
174.7135	0.0885	349427	keystroke	r	n/a
174.817	0.09	349634	keystroke	o	n/a
174.937	0.09	349874	keystroke	w	n/a
175.028	0.074	350056	keystroke	i	n/a
175.147	0.105	350294	keystroke	n	n/a
175.312	0.09	350624	keystroke	g	n/a
175.417	0.09	350834	keystroke	Key.space	n/a
175.612	0.06	351224	keystroke	l	n/a
175.777	0.075	351554	keystroke	o	n/a
175.942	0.091	351884	keystroke	g	n/a
176.033	0.104	352066	keystroke	o	n/a
176.287	0.045	352574	keystroke	Key.space	n/a
176.542	0.0905	353084	keystroke	h	n/a
176.9925	0.075	353985	keystroke	Key.backspace	n/a
177.1725	0.091	354345	keystroke	t	n/a
177.2475	0.075	354495	keystroke	h	n/a
177.4275	0.09	354855	keystroke	u	n/a
177.6675	0.105	355335	keystroke	r	n/a
177.952	0.12	355904	keystroke	s	n/a
178.282	0.12	356564	keystroke	d	n/a
178.447	0.135	356894	keystroke	a	n/a
178.642	0.165	357284	keystroke	y	n/a
178.762	0.12	357524	keystroke	Key.space	n/a
179.047	0.075	358094	keystroke	Key.enter	n/a
179.1285	7.136	358257	prompt	n/a	department reduction release signals\n
179.722	0.0915	359444	keystroke	d	n/a
179.9175	0.121	359835	keystroke	e	n/a
180.0675	0.091	360135	keystroke	p	n/a
180.2025	0.195	360405	keystroke	a	n/a
180.3825	0.076	360765	keystroke	r	n/a
180.563	0.0895	361126	keystroke	t	n/a
180.683	0.09	361366	keystroke	m	n/a
180.833	0.135	361666	keystroke	e	n/a
180.938	0.075	361876	keystroke	n	n/a
181.073	0.09	362146	keystroke	t	n/a
181.208	0.105	362416	keystroke	Key.space	n/a
181.373	0.135	362746	keystroke	e	n/a
181.808	0.089	363616	keystroke	Key.backspace	n/a
181.958	0.134	363916	keystroke	r	n/a
182.063	0.105	364126	keystroke	e	n/a
182.288	0.09	364576	keystroke	d	n/a
182.393	0.09	364786	keystroke	u	n/a
182.528	0.135	365056	keystroke	c	n/a
182.753	0.09	365506	keystroke	t	n/a
182.828	0.315	365656	keystroke	i	n/a
182.918	0.24	365836	keystroke	o	n/a
183.038	0.165	366076	keystroke	n	n/a
183.172	0.12	366344	keystroke	Key.space	n/a
183.473	0.12	366946	keystroke	r	n/a
183.563	0.135	367126	keystroke	e	n/a
183.683	0.09	367366	keystroke	l	n/a
184.133	0.105	368266	keystroke	e	n/a
184.343	0.135	368686	keystroke	a	n/a
184.463	0.18	368926	keystroke	s	n/a
184.613	0.105	369226	keystroke	e	n/a
184.733	0.075	369466	keystroke	Key.space	n/a
184.883	0.135	369766	keystroke	s	n/a
184.973	0.075	369946	keystroke	i	n/a
185.168	0.09	370336	keystroke	g	n/a
185.318	0.06	370636	keystroke	n	n/a
185.483	0.105	370966	keystroke	a	n/a
185.708	0.105	371416	keystroke	l	n/a
185.888	0.12	371776	keystroke	s	n/a
185.993	0.09	371986	keystroke	Key.space	n/a
186.158	0.105	372316	keystroke	Key.enter	n/a
186.2685	8.5015	372537	prompt	n/a	actual instantly hybrid subscription\n
187.028	0.089	374056	keystroke	a	n/a
187.223	0.12	374446	keystroke	c	n/a
187.508	0.075	375016	keystroke	t	n/a
187.613	0.09	375226	keystroke	u	n/a
187.808	0.12	375616	keystroke	a	n/a
187.898	0.135	375796	keystroke	l	n/a
188.003	0.165	376006	keystroke	Key.space	n/a
188.138	0.09	376276	keystroke	i	n/a
188.303	0.09	376606	keystroke	n	n/a
188.468	0.195	376936	keystroke	s	n/a
188.828	0.09	377656	keystroke	t	n/a
188.993	0.12	377986	keystroke	a	n/a
189.098	0.09	378196	keystroke	n	n/a
189.323	0.075	378646	keystroke	t	n/a
189.443	0.09	378886	keystroke	l	n/a
189.728	0.15	379456	keystroke	y	n/a
189.848	0.105	379696	keystroke	Key.space	n/a
190.073	0.09	380146	keystroke	h	n/a
190.313	0.105	380626	keystroke	y	n/a
190.763	0.075	381526	keystroke	b	n/a
190.958	0.09	381916	keystroke	r	n/a
191.063	0.09	382126	keystroke	i	n/a
191.243	0.105	382486	keystroke	d	n/a
191.333	0.09	382666	keystroke	Key.space	n/a
191.618	0.12	383236	keystroke	s	n/a
191.768	0.09	383536	keystroke	u	n/a
192.458	0.09	384916	keystroke	b	n/a
192.608	0.135	385216	keystroke	s	n/a
193.313	0.12	386626	keystroke	c	n/a
193.568	0.09	387136	keystroke	r	n/a
193.643	0.105	387286	keystroke	i	n/a
193.8075	0.075	387615	keystroke	p	n/a
193.988	0.09	387976	keystroke	t	n/a
194.093	0.33	388186	keystroke	i	n/a
194.198	0.21	388396	keystroke	o	n/a
194.333	0.165	388666	keystroke	n	n/a
194.453	0.12	388906	keystroke	Key.space	n/a
194.678	0.09	389356	keystroke	Key.enter	n/a
194.7755	7.2105	389551	prompt	n/a	curves editions revealed broadway\n
195.383	0.105	390766	keystroke	c	n/a
195.533	0.075	391066	keystroke	u	n/a
195.668	0.105	391336	keystroke	r	n/a
195.968	0.075	391936	keystroke	v	n/a
196.103	0.09	392206	keystroke	e	n/a
196.2835	0.1195	392567	keystroke	s	n/a
196.3885	0.0895	392777	keystroke	Key.space	n/a
196.568	0.09	393136	keystroke	e	n/a
196.763	0.075	393526	keystroke	d	n/a
197.108	0.075	394216	keystroke	i	n/a
197.423	0.105	394846	keystroke	t	n/a
197.498	0.285	394996	keystroke	i	n/a
197.603	0.195	395206	keystroke	o	n/a
197.708	0.15	395416	keystroke	n	n/a
197.843	0.105	395686	keystroke	s	n/a
197.963	0.075	395926	keystroke	Key.space	n/a
198.323	0.135	396646	keystroke	r	n/a
198.488	0.06	396976	keystroke	e	n/a
198.683	0.075	397366	keystroke	v	n/a
198.833	0.105	397666	keystroke	e	n/a
199.0725	0.1355	398145	keystroke	a	n/a
199.253	0.12	398506	keystroke	l	n/a
199.433	0.0895	398866	keystroke	e	n/a
199.6275	0.105	399255	keystroke	d	n/a
199.7175	0.0905	399435	keystroke	Key.space	n/a
199.928	0.0745	399856	keystroke	b	n/a
200.1075	0.09	400215	keystroke	r	n/a
200.2275	0.075	400455	keystroke	o	n/a
200.5275	0.106	401055	keystroke	a	n/a
200.753	0.075	401506	keystroke	d	n/a
201.1125	0.0905	402225	keystroke	w	n/a
201.353	0.12	402706	keystroke	a	n/a
201.518	0.135	403036	keystroke	y	n/a
201.623	0.12	403246	keystroke	Key.space	n/a
201.923	0.06	403846	keystroke	Key.enter	n/a
201.9905	6.579	403981	prompt	n/a	open configure minimal buying\n
202.628	0.075	405256	keystroke	o	n/a
202.748	0.09	405496	keystroke	p	n/a
202.898	0.105	405796	keystroke	e	n/a
203.048	0.1645	406096	keystroke	n	n/a
203.1675	0.1505	406335	keystroke	Key.space	n/a
203.423	0.15	406846	keystroke	c	n/a
203.528	0.0895	407056	keystroke	o	n/a
203.903	0.09	407806	keystroke	n	n/a
204.2025	0.12	408405	keystroke	f	n/a
204.3075	0.075	408615	keystroke	i	n/a
204.653	0.06	409306	keystroke	g	n/a
204.743	0.075	409486	keystroke	u	n/a
204.848	0.15	409696	keystroke	r	n/a
204.983	0.165	409966	keystroke	e	n/a
205.133	0.1045	410266	keystroke	Key.space	n/a
205.3575	0.1055	410715	keystroke	m	n/a
205.523	0.09	411046	keystroke	i	n/a
205.7175	0.06	411435	keystroke	n	n/a
205.8525	0.0755	411705	keystroke	i	n/a
206.078	0.09	412156	keystroke	m	n/a
206.318	0.075	412636	keystroke	a	n/a
206.408	0.18	412816	keystroke	l	n/a
206.558	0.105	413116	keystroke	Key.space	n/a
206.993	0.075	413986	keystroke	b	n/a
207.098	0.09	414196	keystroke	u	n/a
207.713	0.0895	415426	keystroke	y	n/a
207.9225	0.195	415845	keystroke	i	n/a
208.0575	0.12	416115	keystroke	n	n/a
208.2075	0.105	416415	keystroke	g	n/a
208.3275	0.075	416655	keystroke	Key.space	n/a
208.4925	0.075	416985	keystroke	Key.enter	n/a
208.575	15.2805	417150	prompt	n/a	nutrition confirm tanzania acceptance\n
209.1975	0.075	418395	keystroke	n	n/a
209.4225	0.045	418845	keystroke	u	n/a
209.6175	0.06	419235	keystroke	t	n/a
209.7825	0.09	419565	keystroke	r	n/a
209.8425	0.09	419685	keystroke	i	n/a
210.1425	0.091	420285	keystroke	t	n/a
210.2175	0.075	420435	keystroke	i	n/a
210.4275	0.075	420855	keystroke	a	n/a
210.4875	0.195	420975	keystroke	l	n/a
210.6375	0.12	421275	keystroke	Key.space	n/a
211.2075	0.09	422415	keystroke	c	n/a
211.2825	0.105	422565	keystroke	o	n/a
211.4175	0.09	422835	keystroke	n	n/a
211.8675	0.075	423735	keystroke	Key.backspace	n/a
212.0325	0.06	424065	keystroke	Key.backspace	n/a
212.1675	0.06	424335	keystroke	Key.backspace	n/a
212.3325	0.045	424665	keystroke	Key.backspace	n/a
212.4525	0.06	424905	keystroke	Key.backspace	n/a
212.5725	0.075	425145	keystroke	Key.backspace	n/a
213.3525	0.1055	426705	keystroke	a	n/a
213.488	0.1195	426976	keystroke	n	n/a
213.7125	0.09	427425	keystroke	Key.space	n/a
214.2975	0.075	428595	keystroke	Key.backspace	n/a
214.4775	0.045	428955	keystroke	Key.backspace	n/a
214.6125	0.075	429225	keystroke	Key.backspace	n/a
214.7625	0.06	429525	keystroke	Key.backspace	n/a
214.9125	0.2255	429825	keystroke	Key.backspace	n/a
215.2275	0.075	430455	keystroke	Key.backspace	n/a
216.188	0.075	432376	keystroke	i	n/a
216.788	0.12	433576	keystroke	t	n/a
216.923	0.06	433846	keystroke	i	n/a
217.058	0.076	434116	keystroke	o	n/a
217.223	0.09	434446	keystroke	n	n/a
217.418	0.09	434836	keystroke	Key.space	n/a
217.613	0.1195	435226	keystroke	c	n/a
217.703	0.1345	435406	keystroke	o	n/a
217.823	0.09	435646	keystroke	n	n/a
218.003	0.105	436006	keystroke	f	n/a
218.123	0.03	436246	keystroke	i	n/a
218.213	0.1045	436426	keystroke	r	n/a
218.3475	0.1355	436695	keystroke	m	n/a
218.528	0.075	437056	keystroke	Key.space	n/a
218.7675	0.0905	437535	keystroke	t	n/a
218.948	0.135	437896	keystroke	a	n/a
219.218	0.09	438436	keystroke	s	n/a
219.998	0.075	439996	keystroke	Key.backspace	n/a
220.223	0.075	440446	keystroke	n	n/a
220.643	0.105	441286	keystroke	z	n/a
220.868	0.105	441736	keystroke	a	n/a
221.018	0.075	442036	keystroke	n	n/a
221.168	0.075	442336	keystroke	i	n/a
221.453	0.12	442906	keystroke	a	n/a
221.618	0.09	443236	keystroke	Key.space	n/a
221.888	0.075	443776	keystroke	a	n/a
222.098	0.06	444196	keystroke	c	n/a
222.203	0.12	444406	keystroke	c	n/a
222.413	0.12	444826	keystroke	e	n/a
222.549	0.059	445098	keystroke	p	n/a
222.803	0.105	445606	keystroke	t	n/a
223.028	0.105	446056	keystroke	a	n/a
223.118	0.075	446236	keystroke	n	n/a
223.268	0.09	446536	keystroke	c	n/a
223.478	0.12	446956	keystroke	e	n/a
223.583	0.09	447166	keystroke	Key.space	n/a
223.7635	0.09	447527	keystroke	Key.enter	n/a
223.8625	8.709	447725	prompt	n/a	lips extract coating interact\n
224.543	0.091	449086	keystroke	l	n/a
224.663	0.105	449326	keystroke	i	n/a
224.8435	0.06	449687	keystroke	p	n/a
224.9485	0.1195	449897	keystroke	s	n/a
225.068	0.06	450136	keystroke	Key.space	n/a
225.188	0.09	450376	keystroke	e	n/a
225.398	0.12	450796	keystroke	x	n/a
225.698	0.09	451396	keystroke	t	n/a
225.923	0.09	451846	keystroke	r	n/a
226.118	0.12	452236	keystroke	a	n/a
226.328	0.105	452656	keystroke	c	n/a
226.583	0.075	453166	keystroke	t	n/a
226.718	0.09	453436	keystroke	Key.space	n/a
226.958	0.105	453916	keystroke	c	n/a
227.033	0.075	454066	keystroke	o	n/a
227.168	0.15	454336	keystroke	a	n/a
227.468	0.075	454936	keystroke	t	n/a
227.558	0.15	455116	keystroke	i	n/a
227.678	0.135	455356	keystroke	n	n/a
227.858	0.105	455716	keystroke	g	n/a
227.948	0.09	455896	keystroke	Key.space	n/a
228.128	0.06	456256	keystroke	i	n/a
228.278	0.075	456556	keystroke	n	n/a
228.563	0.015	457126	keystroke	t	n/a
228.653	0.015	457306	keystroke	e	n/a
228.684	0.119	457368	keystroke	r	n/a
228.698	0.015	457396	keystroke	e	n/a
229.523	0.105	459046	keystroke	a	n/a
229.733	0.105	459466	keystroke	c	n/a
230.003	0.105	460006	keystroke	t	n/a
230.167	0.106	460334	keystroke	Key.space	n/a
230.603	0.075	461206	keystroke	Key.backspace	n/a
230.8425	0.015	461685	keystroke	Key.backspace	n/a
230.918	0.0895	461836	keystroke	Key.backspace	n/a
231.0675	0.075	462135	keystroke	Key.backspace	n/a
231.2175	0.105	462435	keystroke	Key.backspace	n/a
231.7425	0.09	463485	keystroke	a	n/a
231.923	0.1205	463846	keystroke	c	n/a
232.179	0.075	464358	keystroke	t	n/a
232.299	0.0905	464598	keystroke	Key.space	n/a
232.4945	0.0755	464989	keystroke	Key.enter	n/a
232.5765	6.3555	465153	prompt	n/a	painted paths hope apparently\n
233.262	0.09	466524	keystroke	p	n/a
233.4125	0.104	466825	keystroke	a	n/a
233.5025	0.0605	467005	keystroke	i	n/a
233.668	0.0905	467336	keystroke	n	n/a
233.8785	0.1055	467757	keystroke	t	n/a
234.014	0.09	468028	keystroke	e	n/a
234.2095	0.09	468419	keystroke	d	n/a
234.3295	0.075	468659	keystroke	Key.space	n/a
234.3895	0.1205	468779	keystroke	p	n/a
234.6005	0.135	469201	keystroke	a	n/a
234.841	0.075	469682	keystroke	t	n/a
234.9305	0.075	469861	keystroke	h	n/a
235.081	0.1355	470162	keystroke	s	n/a
235.2175	0.059	470435	keystroke	Key.space	n/a
235.3515	0.1205	470703	keystroke	h	n/a
235.4565	0.1805	470913	keystroke	o	n/a
235.607	0.1355	471214	keystroke	p	n/a
235.7725	0.1355	471545	keystroke	e	n/a
235.893	0.075	471786	keystroke	Key.space	n/a
236.028	0.1205	472056	keystroke	a	n/a
236.1635	0.075	472327	keystroke	p	n/a
236.329	0.075	472658	keystroke	p	n/a
236.434	0.2115	472868	keystroke	a	n/a
236.6895	0.1655	473379	keystroke	r	n/a
236.856	0.1045	473712	keystroke	e	n/a
237.216	0.075	474432	keystroke	n	n/a
237.5315	0.0755	475063	keystroke	t	n/a
238.178	0.0915	476356	keystroke	l	n/a
238.434	0.105	476868	keystroke	y	n/a
238.554	0.0905	477108	keystroke	Key.space	n/a
238.855	0.075	477710	keystroke	Key.enter	n/a
238.936	6.688	477872	prompt	n/a	so discussion offered protocol\n
239.5775	0.1645	479155	keystroke	s	n/a
239.682	0.18	479364	keystroke	o	n/a
239.802	0.1205	479604	keystroke	Key.space	n/a
240.0275	0.1205	480055	keystroke	d	n/a
240.133	0.075	480266	keystroke	i	n/a
240.268	0.1065	480536	keystroke	s	n/a
240.494	0.105	480988	keystroke	c	n/a
240.629	0.0455	481258	keystroke	u	n/a
240.7495	0.075	481499	keystroke	s	n/a
240.8845	0.1055	481769	keystroke	s	n/a
241.095	0.0755	482190	keystroke	e	n/a
241.2905	0.1055	482581	keystroke	d	n/a
241.411	0.09	482822	keystroke	Key.space	n/a
241.6515	0.09	483303	keystroke	o	n/a
241.832	0.06	483664	keystroke	f	n/a
241.9825	0.105	483965	keystroke	f	n/a
242.1175	0.1655	484235	keystroke	e	n/a
242.268	0.1355	484536	keystroke	r	n/a
242.388	0.1205	484776	keystroke	e	n/a
242.5835	0.0765	485167	keystroke	n	n/a
243.1695	0.0905	486339	keystroke	Key.backspace	n/a
243.381	0.0905	486762	keystroke	d	n/a
243.5315	0.075	487063	keystroke	Key.space	n/a
243.8915	0.076	487783	keystroke	p	n/a
244.0425	0.1055	488085	keystroke	r	n/a
244.133	0.075	488266	keystroke	o	n/a
244.3585	0.09	488717	keystroke	t	n/a
244.4635	0.0905	488927	keystroke	o	n/a
244.945	0.09	489890	keystroke	c	n/a
245.05	0.0755	490100	keystroke	o	n/a
245.2605	0.1205	490521	keystroke	l	n/a
245.5465	0.075	491093	keystroke	Key.enter	n/a
245.634	12.6935	491268	prompt	n/a	elliott emergency distances somebody's\n
246.4185	0.075	492837	keystroke	e	n/a
246.614	0.075	493228	keystroke	l	n/a
246.749	0.0755	493498	keystroke	l	n/a
246.9145	0.06	493829	keystroke	i	n/a
247.2455	0.075	494491	keystroke	o	n/a
247.8015	0.0905	495603	keystroke	t	n/a
247.952	0.105	495904	keystroke	t	n/a
248.2375	0.0905	496475	keystroke	Key.space	n/a
248.5985	0.09	497197	keystroke	e	n/a
248.734	0.105	497468	keystroke	m	n/a
248.854	0.1955	497708	keystroke	e	n/a
249.0045	0.09	498009	keystroke	r	n/a
249.23	0.09	498460	keystroke	g	n/a
249.8315	0.09	499663	keystroke	e	n/a
250.162	0.1205	500324	keystroke	c	n/a
251.1095	0.045	502219	keystroke	Key.backspace	n/a
251.32	0.075	502640	keystroke	n	n/a
251.5455	0.12	503091	keystroke	c	n/a
251.741	0.135	503482	keystroke	y	n/a
251.831	0.1355	503662	keystroke	Key.space	n/a
252.0115	0.1205	504023	keystroke	d	n/a
252.0865	0.0755	504173	keystroke	i	n/a
252.237	0.1205	504474	keystroke	s	n/a
252.553	0.075	505106	keystroke	t	n/a
252.733	0.1355	505466	keystroke	a	n/a
252.8385	0.09	505677	keystroke	n	n/a
253.019	0.09	506038	keystroke	c	n/a
253.1845	0.09	506369	keystroke	e	n/a
253.3495	0.1055	506699	keystroke	s	n/a
253.485	0.09	506970	keystroke	Key.space	n/a
253.6355	0.09	507271	keystroke	s	n/a
253.7265	0.089	507453	keystroke	o	n/a
253.966	0.0755	507932	keystroke	b	n/a
254.1015	0.09	508203	keystroke	o	n/a
254.733	0.09	509466	keystroke	d	n/a
254.958	0.1055	509916	keystroke	y	n/a
255.289	0.0755	510578	keystroke	Key.backspace	n/a
255.4395	0.075	510879	keystroke	Key.backspace	n/a
255.59	0.06	511180	keystroke	Key.backspace	n/a
255.725	0.0905	511450	keystroke	Key.backspace	n/a
256.026	0.075	512052	keystroke	m	n/a
256.161	0.0905	512322	keystroke	e	n/a
256.973	0.075	513946	keystroke	b	n/a
257.078	0.061	514156	keystroke	o	n/a
257.273	0.1055	514546	keystroke	d	n/a
257.3935	0.09	514787	keystroke	y	n/a
257.649	0.1055	515298	keystroke	'	n/a
257.8295	0.105	515659	keystroke	s	n/a
257.9495	0.0905	515899	keystroke	Key.space	n/a
258.2655	0.06	516531	keystroke	Key.enter	n/a
258.3315	8.5965	516663	prompt	n/a	bouquet relate concentrations gonna\n
259.1075	0.06	518215	keystroke	b	n/a
259.2135	0.1805	518427	keystroke	o	n/a
259.364	0.119	518728	keystroke	u	n/a
260.0545	0.105	520109	keystroke	q	n/a
260.1745	0.0755	520349	keystroke	u	n/a
260.34	0.1205	520680	keystroke	e	n/a
261.137	0.105	522274	keystroke	t	n/a
261.4225	0.015	522845	keystroke	Key.space	n/a
261.604	0.12	523208	keystroke	r	n/a
261.679	0.1355	523358	keystroke	e	n/a
261.8285	0.0905	523657	keystroke	l	n/a
262.009	0.15	524018	keystroke	a	n/a
262.175	0.1195	524350	keystroke	t	n/a
262.2795	0.1515	524559	keystroke	e	n/a
262.46	0.09	524920	keystroke	Key.space	n/a
262.6255	0.135	525251	keystroke	c	n/a
262.7465	0.089	525493	keystroke	o	n/a
262.8815	0.1045	525763	keystroke	n	n/a
263.0315	0.09	526063	keystroke	c	n/a
263.1975	0.12	526395	keystroke	e	n/a
263.332	0.06	526664	keystroke	n	n/a
263.4975	0.06	526995	keystroke	t	n/a
263.829	0.089	527658	keystroke	a	n/a
264.234	0.09	528468	keystroke	Key.backspace	n/a
264.444	0.1055	528888	keystroke	r	n/a
264.9565	0.1345	529913	keystroke	a	n/a
265.212	0.0905	530424	keystroke	t	n/a
265.287	0.2995	530574	keystroke	i	n/a
265.4075	0.2095	530815	keystroke	o	n/a
265.4965	0.1655	530993	keystroke	n	n/a
265.663	0.1055	531326	keystroke	s	n/a
265.7975	0.075	531595	keystroke	Key.space	n/a
266.024	0.104	532048	keystroke	g	n/a
266.113	0.0605	532226	keystroke	o	n/a
266.3095	0.045	532619	keystroke	n	n/a
266.4285	0.0905	532857	keystroke	n	n/a
266.579	0.12	533158	keystroke	a	n/a
266.685	0.0895	533370	keystroke	Key.space	n/a
266.8205	0.1045	533641	keystroke	Key.enter	n/a
266.934	7.1785	533868	prompt	n/a	interval procedures watershed joan\n
267.7075	0.059	535415	keystroke	i	n/a
267.888	0.089	535776	keystroke	n	n/a
268.038	0.1195	536076	keystroke	t	n/a
268.1885	0.2255	536377	keystroke	e	n/a
268.339	0.105	536678	keystroke	r	n/a
268.5945	0.12	537189	keystroke	v	n/a
268.7445	0.1655	537489	keystroke	a	n/a
268.879	0.1505	537758	keystroke	l	n/a
269.0145	0.12	538029	keystroke	Key.space	n/a
269.1205	0.09	538241	keystroke	p	n/a
269.2545	0.1055	538509	keystroke	r	n/a
269.345	0.0905	538690	keystroke	o	n/a
269.5115	0.105	539023	keystroke	c	n/a
269.6915	0.0755	539383	keystroke	e	n/a
269.9015	0.136	539803	keystroke	d	n/a
270.0225	0.059	540045	keystroke	u	n/a
270.1575	0.1355	540315	keystroke	r	n/a
270.277	0.1055	540554	keystroke	e	n/a
270.4575	0.136	540915	keystroke	s	n/a
270.6075	0.0755	541215	keystroke	Key.space	n/a
270.803	0.0915	541606	keystroke	w	n/a
271.0145	0.1655	542029	keystroke	a	n/a
271.21	0.105	542420	keystroke	t	n/a
271.316	0.2095	542632	keystroke	e	n/a
271.4505	0.089	542901	keystroke	r	n/a
271.676	0.149	543352	keystroke	s	n/a
271.811	0.0905	543622	keystroke	h	n/a
272.0055	0.1215	544011	keystroke	e	n/a
272.277	0.1205	544554	keystroke	d	n/a
272.4265	0.0905	544853	keystroke	Key.space	n/a
273.059	0.074	546118	keystroke	j	n/a
273.224	0.075	546448	keystroke	o	n/a
273.4045	0.1205	546809	keystroke	a	n/a
273.705	0.06	547410	keystroke	n	n/a
273.8545	0.1055	547709	keystroke	Key.space	n/a
274.035	0.075	548070	keystroke	Key.enter	n/a
274.117	9.477	548234	prompt	n/a	desktops precisely dried rental\n
274.742	0.09	549484	keystroke	d	n/a
274.9375	0.075	549875	keystroke	e	n/a
275.088	0.09	550176	keystroke	s	n/a
275.283	0.09	550566	keystroke	k	n/a
275.5385	0.0605	551077	keystroke	p	n/a
275.854	0.0755	551708	keystroke	Key.backspace	n/a
276.0195	0.0905	552039	keystroke	t	n/a
276.125	0.075	552250	keystroke	o	n/a
276.32	0.06	552640	keystroke	p	n/a
276.5005	0.0905	553001	keystroke	s	n/a
276.636	0.06	553272	keystroke	Key.space	n/a
276.846	0.0605	553692	keystroke	p	n/a
276.9365	0.15	553873	keystroke	r	n/a
277.0415	0.1355	554083	keystroke	e	n/a
277.297	0.075	554594	keystroke	c	n/a
277.4625	0.105	554925	keystroke	e	n/a
277.703	0.075	555406	keystroke	l	n/a
278.635	0.075	557270	keystroke	Key.backspace	n/a
278.785	0.09	557570	keystroke	Key.backspace	n/a
279.5965	0.09	559193	keystroke	i	n/a
280.4985	0.075	560997	keystroke	s	n/a
280.6335	0.12	561267	keystroke	e	n/a
280.8585	0.1055	561717	keystroke	l	n/a
281.1745	0.15	562349	keystroke	y	n/a
281.2945	0.135	562589	keystroke	Key.space	n/a
281.52	0.1355	563040	keystroke	d	n/a
281.7005	0.105	563401	keystroke	r	n/a
281.8205	0.06	563641	keystroke	i	n/a
281.9255	0.075	563851	keystroke	e	n/a
282.106	0.09	564212	keystroke	d	n/a
282.211	0.0755	564422	keystroke	Key.space	n/a
282.4065	0.135	564813	keystroke	r	n/a
282.5265	0.1355	565053	keystroke	e	n/a
282.677	0.105	565354	keystroke	n	n/a
282.872	0.06	565744	keystroke	t	n/a
283.067	0.105	566134	keystroke	a	n/a
283.157	0.165	566314	keystroke	l	n/a
283.292	0.0905	566584	keystroke	Key.space	n/a
283.5025	0.0895	567005	keystroke	Key.enter	n/a
283.5995	6.1875	567199	prompt	n/a	space fish algorithm orange\n
284.297	0.1055	568594	keystroke	s	n/a
284.3875	0.105	568775	keystroke	p	n/a
284.5375	0.0895	569075	keystroke	a	n/a
284.702	0.09	569404	keystroke	c	n/a
284.8825	0.105	569765	keystroke	e	n/a
285.0025	0.06	570005	keystroke	Key.space	n/a
285.2265	0.105	570453	keystroke	f	n/a
285.3165	0.0755	570633	keystroke	i	n/a
285.437	0.12	570874	keystroke	s	n/a
285.587	0.1635	571174	keystroke	h	n/a
285.7355	0.0905	571471	keystroke	Key.space	n/a
286.021	0.09	572042	keystroke	a	n/a
286.141	0.0745	572282	keystroke	l	n/a
286.3805	0.0905	572761	keystroke	g	n/a
286.845	0.0755	573690	keystroke	o	n/a
287.0105	0.09	574021	keystroke	r	n/a
287.1755	0.09	574351	keystroke	i	n/a
287.6405	0.075	575281	keystroke	t	n/a
287.7305	0.09	575461	keystroke	h	n/a
288.076	0.105	576152	keystroke	m	n/a
288.286	0.0895	576572	keystroke	Key.space	n/a
288.721	0.09	577442	keystroke	o	n/a
288.855	0.105	577710	keystroke	r	n/a
289.035	0.1205	578070	keystroke	a	n/a
289.1405	0.105	578281	keystroke	n	n/a
289.3055	0.104	578611	keystroke	g	n/a
289.4245	0.1205	578849	keystroke	e	n/a
289.53	0.09	579060	keystroke	Key.space	n/a
289.68	0.105	579360	keystroke	Key.enter	n/a
289.793	7.267	579586	prompt	n/a	successful drain float crew\n
290.43	0.09	580860	keystroke	s	n/a
290.55	0.075	581100	keystroke	u	n/a
290.925	0.074	581850	keystroke	c	n/a
291.0595	0.06	582119	keystroke	c	n/a
291.224	0.075	582448	keystroke	e	n/a
291.419	0.061	582838	keystroke	s	n/a
291.5395	0.089	583079	keystroke	s	n/a
291.7945	0.074	583589	keystroke	f	n/a
291.8835	0.076	583767	keystroke	u	n/a
292.0345	0.18	584069	keystroke	l	n/a
292.1685	0.12	584337	keystroke	Key.space	n/a
292.3935	0.135	584787	keystroke	d	n/a
292.604	0.0895	585208	keystroke	r	n/a
293.264	0.09	586528	keystroke	a	n/a
293.384	0.075	586768	keystroke	i	n/a
293.548	0.1505	587096	keystroke	n	n/a
293.8195	0.09	587639	keystroke	f	n/a
294.5095	0.074	589019	keystroke	Key.backspace	n/a
294.673	0.105	589346	keystroke	Key.space	n/a
294.959	0.12	589918	keystroke	f	n/a
295.034	0.074	590068	keystroke	l	n/a
295.213	0.076	590426	keystroke	o	n/a
295.379	0.105	590758	keystroke	a	n/a
295.798	0.0915	591596	keystroke	t	n/a
295.9035	0.075	591807	keystroke	Key.space	n/a
296.1435	0.1345	592287	keystroke	c	n/a
296.384	0.074	592768	keystroke	r	n/a
296.474	0.165	592948	keystroke	e	n/a
296.594	0.1345	593188	keystroke	w	n/a
296.8025	0.09	593605	keystroke	Key.space	n/a
296.9835	0.0745	593967	keystroke	Key.enter	n/a
297.0645	12.5305	594129	prompt	n/a	adopted suggested belgium enrollment\n
297.7625	0.105	595525	keystroke	a	n/a
297.9415	0.105	595883	keystroke	d	n/a
298.273	0.089	596546	keystroke	o	n/a
298.438	0.075	596876	keystroke	p	n/a
298.783	0.089	597566	keystroke	t	n/a
298.947	0.091	597894	keystroke	e	n/a
299.142	0.0915	598284	keystroke	d	n/a
299.2475	0.0895	598495	keystroke	Key.space	n/a
299.383	0.119	598766	keystroke	s	n/a
299.488	0.075	598976	keystroke	u	n/a
299.713	0.045	599426	keystroke	g	n/a
299.8625	0.075	599725	keystroke	g	n/a
299.9825	0.104	599965	keystroke	e	n/a
300.162	0.105	600324	keystroke	s	n/a
300.343	0.089	600686	keystroke	t	n/a
300.446	0.105	600892	keystroke	e	n/a
300.672	0.0905	601344	keystroke	d	n/a
300.7765	0.105	601553	keystroke	Key.space	n/a
301.017	0.075	602034	keystroke	b	n/a
301.1965	0.09	602393	keystroke	e	n/a
301.3175	0.074	602635	keystroke	l	n/a
301.721	0.091	603442	keystroke	g	n/a
301.841	0.105	603682	keystroke	i	n/a
302.1865	0.09	604373	keystroke	u	n/a
302.4565	0.1795	604913	keystroke	m	n/a
302.606	0.1045	605212	keystroke	Key.space	n/a
302.8605	0.136	605721	keystroke	e	n/a
302.9965	0.074	605993	keystroke	n	n/a
303.895	0.016	607790	keystroke	t	n/a
304.016	0.104	608032	keystroke	r	n/a
304.106	0.075	608212	keystroke	o	n/a
304.331	0.029	608662	keystroke	l	n/a
304.42	0.0905	608840	keystroke	l	n/a
304.6	0.0905	609200	keystroke	m	n/a
304.7655	0.105	609531	keystroke	e	n/a
304.8715	0.089	609743	keystroke	n	n/a
305.1095	0.09	610219	keystroke	t	n/a
305.6495	0.045	611299	keystroke	Key.backspace	n/a
305.7845	0.06	611569	keystroke	Key.backspace	n/a
305.9345	0.0455	611869	keystroke	Key.backspace	n/a
306.069	0.045	612138	keystroke	Key.backspace	n/a
306.204	0.06	612408	keystroke	Key.backspace	n/a
306.309	0.06	612618	keystroke	Key.backspace	n/a
306.444	0.06	612888	keystroke	Key.backspace	n/a
306.5785	0.06	613157	keystroke	Key.backspace	n/a
307.134	0.09	614268	keystroke	r	n/a
307.464	0.075	614928	keystroke	Key.backspace	n/a
307.6285	0.03	615257	keystroke	Key.backspace	n/a
307.7785	0.105	615557	keystroke	r	n/a
308.123	0.09	616246	keystroke	o	n/a
308.423	0.06	616846	keystroke	l	n/a
308.5435	0.104	617087	keystroke	l	n/a
308.7225	0.105	617445	keystroke	m	n/a
308.903	0.15	617806	keystroke	e	n/a
309.023	0.06	618046	keystroke	n	n/a
309.2175	0.105	618435	keystroke	t	n/a
309.3375	0.09	618675	keystroke	Key.space	n/a
309.5025	0.09	619005	keystroke	Key.enter	n/a
309.6	8.6465	619200	prompt	n/a	butterfly newspapers pain illustration\n
310.973	0.074	621946	keystroke	b	n/a
311.0625	0.075	622125	keystroke	u	n/a
311.392	0.06	622784	keystroke	t	n/a
311.527	0.105	623054	keystroke	t	n/a
311.6925	0.2095	623385	keystroke	e	n/a
311.812	0.136	623624	keystroke	r	n/a
312.1575	0.12	624315	keystroke	f	n/a
312.892	0.12	625784	keystroke	l	n/a
313.192	0.06	626384	keystroke	y	n/a
313.237	0.105	626474	keystroke	Key.space	n/a
313.4465	0.075	626893	keystroke	n	n/a
313.5965	0.18	627193	keystroke	e	n/a
313.6865	0.166	627373	keystroke	w	n/a
313.9865	0.075	627973	keystroke	s	n/a
314.3165	0.1045	628633	keystroke	p	n/a
314.496	0.09	628992	keystroke	a	n/a
314.631	0.075	629262	keystroke	p	n/a
314.766	0.1795	629532	keystroke	e	n/a
314.886	0.0895	629772	keystroke	r	n/a
315.0505	0.12	630101	keystroke	s	n/a
315.1555	0.09	630311	keystroke	Key.space	n/a
315.261	0.09	630522	keystroke	p	n/a
315.471	0.134	630942	keystroke	a	n/a
315.515	0.1955	631030	keystroke	i	n/a
315.6805	0.195	631361	keystroke	n	n/a
315.8155	0.165	631631	keystroke	Key.space	n/a
315.9655	0.09	631931	keystroke	i	n/a
316.1755	0.06	632351	keystroke	l	n/a
316.2955	0.09	632591	keystroke	l	n/a
316.52	0.09	633040	keystroke	u	n/a
316.685	0.12	633370	keystroke	s	n/a
316.985	0.06	633970	keystroke	t	n/a
317.1345	0.09	634269	keystroke	r	n/a
317.2995	0.1655	634599	keystroke	a	n/a
317.495	0.104	634990	keystroke	t	n/a
317.629	0.3	635258	keystroke	i	n/a
317.719	0.195	635438	keystroke	o	n/a
317.824	0.18	635648	keystroke	n	n/a
317.944	0.12	635888	keystroke	Key.space	n/a
318.1535	0.09	636307	keystroke	Key.enter	n/a
318.2535	10.0985	636507	prompt	n/a	book consultancy browsers doctors\n
318.9495	0.074	637899	keystroke	b	n/a
319.0985	0.0745	638197	keystroke	o	n/a
319.248	0.0765	638496	keystroke	o	n/a
319.3985	0.195	638797	keystroke	k	n/a
319.5335	0.1195	639067	keystroke	Key.space	n/a
319.788	0.15	639576	keystroke	c	n/a
319.893	0.1655	639786	keystroke	o	n/a
320.0135	0.135	640027	keystroke	n	n/a
320.1775	0.105	640355	keystroke	s	n/a
320.5825	0.0605	641165	keystroke	u	n/a
320.7325	0.075	641465	keystroke	l	n/a
321.768	0.1045	643536	keystroke	t	n/a
321.9775	0.12	643955	keystroke	a	n/a
322.2925	0.12	644585	keystroke	n	n/a
322.5625	0.105	645125	keystroke	c	n/a
322.817	0.105	645634	keystroke	y	n/a
322.892	0.12	645784	keystroke	Key.space	n/a
323.087	0.09	646174	keystroke	b	n/a
323.267	0.134	646534	keystroke	r	n/a
323.386	0.09	646772	keystroke	o	n/a
323.611	0.075	647222	keystroke	w	n/a
323.911	0.195	647822	keystroke	s	n/a
324.121	0.21	648242	keystroke	e	n/a
324.271	0.12	648542	keystroke	r	n/a
324.466	0.12	648932	keystroke	s	n/a
324.616	0.09	649232	keystroke	Key.space	n/a
324.856	0.1345	649712	keystroke	d	n/a
324.9455	0.09	649891	keystroke	o	n/a
325.0655	0.075	650131	keystroke	w	n/a
325.2755	0.12	650551	keystroke	c	n/a
325.5305	0.09	651061	keystroke	t	n/a
325.6055	0.075	651211	keystroke	o	n/a
325.8605	0.075	651721	keystroke	r	n/a
326.2655	0.06	652531	keystroke	Key.backspace	n/a
326.4455	0.044	652891	keystroke	Key.backspace	n/a
326.5795	0.045	653159	keystroke	Key.backspace	n/a
326.7145	0.06	653429	keystroke	Key.backspace	n/a
327.06	0.105	654120	keystroke	Key.backspace	n/a
327.33	0.1495	654660	keystroke	c	n/a
327.6305	0.09	655261	keystroke	t	n/a
327.7355	0.09	655471	keystroke	o	n/a
327.8555	0.09	655711	keystroke	r	n/a
328.08	0.074	656160	keystroke	s	n/a
328.2745	0.076	656549	keystroke	Key.enter	n/a
328.3565	5.3035	656713	prompt	n/a	expense clarity crop pointer\n
328.9945	0.075	657989	keystroke	e	n/a
329.1895	0.1355	658379	keystroke	x	n/a
329.339	0.046	658678	keystroke	p	n/a
329.49	0.0895	658980	keystroke	e	n/a
329.6085	0.076	659217	keystroke	n	n/a
329.7135	0.165	659427	keystroke	s	n/a
329.8635	0.121	659727	keystroke	e	n/a
330.0285	0.0745	660057	keystroke	Key.space	n/a
330.209	0.135	660418	keystroke	c	n/a
330.329	0.09	660658	keystroke	l	n/a
330.464	0.135	660928	keystroke	a	n/a
330.644	0.105	661288	keystroke	r	n/a
330.749	0.075	661498	keystroke	i	n/a
330.928	0.091	661856	keystroke	t	n/a
331.034	0.1495	662068	keystroke	y	n/a
331.1525	0.15	662305	keystroke	Key.space	n/a
331.3185	0.134	662637	keystroke	c	n/a
331.5275	0.091	663055	keystroke	r	n/a
331.6335	0.195	663267	keystroke	o	n/a
331.7835	0.15	663567	keystroke	p	n/a
331.9335	0.135	663867	keystroke	Key.space	n/a
332.1435	0.104	664287	keystroke	p	n/a
332.2925	0.225	664585	keystroke	o	n/a
332.3675	0.2555	664735	keystroke	i	n/a
332.5775	0.3605	665155	keystroke	n	n/a
332.982	0.151	665964	keystroke	t	n/a
333.163	0.195	666326	keystroke	e	n/a
333.297	0.121	666594	keystroke	r	n/a
333.388	0.105	666776	keystroke	Key.space	n/a
333.553	0.104	667106	keystroke	Key.enter	n/a
333.665	4.4925	667330	prompt	n/a	pork visits sonic rely\n
334.3325	0.06	668665	keystroke	p	n/a
334.4675	0.105	668935	keystroke	o	n/a
334.6175	0.075	669235	keystroke	r	n/a
334.7525	0.21	669505	keystroke	k	n/a
334.8865	0.135	669773	keystroke	Key.space	n/a
335.1425	0.089	670285	keystroke	v	n/a
335.2175	0.0745	670435	keystroke	i	n/a
335.442	0.09	670884	keystroke	s	n/a
335.517	0.075	671034	keystroke	i	n/a
335.712	0.0885	671424	keystroke	t	n/a
335.9065	0.12	671813	keystroke	s	n/a
336.0105	0.091	672021	keystroke	Key.space	n/a
336.1915	0.1195	672383	keystroke	s	n/a
336.296	0.06	672592	keystroke	o	n/a
336.476	0.06	672952	keystroke	n	n/a
336.611	0.059	673222	keystroke	i	n/a
336.7305	0.135	673461	keystroke	c	n/a
336.8955	0.059	673791	keystroke	Key.space	n/a
337.1355	0.135	674271	keystroke	r	n/a
337.2555	0.15	674511	keystroke	e	n/a
337.4205	0.09	674841	keystroke	l	n/a
337.6905	0.135	675381	keystroke	y	n/a
337.7795	0.136	675559	keystroke	Key.space	n/a
338.0805	0.075	676161	keystroke	Key.enter	n/a
338.165	5.915	676330	prompt	n/a	thongs principles stuff breeding\n
339.0105	0.105	678021	keystroke	t	n/a
339.1305	0.09	678261	keystroke	h	n/a
339.2045	0.166	678409	keystroke	o	n/a
339.3405	0.105	678681	keystroke	n	n/a
339.5055	0.09	679011	keystroke	g	n/a
339.6555	0.1495	679311	keystroke	s	n/a
339.7905	0.1045	679581	keystroke	Key.space	n/a
339.8805	0.075	679761	keystroke	p	n/a
340.0455	0.105	680091	keystroke	r	n/a
340.1205	0.075	680241	keystroke	i	n/a
340.3005	0.0745	680601	keystroke	n	n/a
340.51	0.105	681020	keystroke	c	n/a
340.6	0.075	681200	keystroke	i	n/a
340.78	0.06	681560	keystroke	p	n/a
341.0195	0.09	682039	keystroke	l	n/a
341.2295	0.105	682459	keystroke	e	n/a
341.4235	0.135	682847	keystroke	s	n/a
341.5435	0.09	683087	keystroke	Key.space	n/a
341.6785	0.15	683357	keystroke	s	n/a
341.918	0.075	683836	keystroke	t	n/a
342.008	0.09	684016	keystroke	u	n/a
342.188	0.075	684376	keystroke	f	n/a
342.338	0.12	684676	keystroke	f	n/a
342.459	0.104	684918	keystroke	Key.space	n/a
342.683	0.09	685366	keystroke	b	n/a
342.863	0.09	685726	keystroke	r	n/a
343.073	0.06	686146	keystroke	e	n/a
343.208	0.06	686416	keystroke	e	n/a
343.358	0.1345	686716	keystroke	d	n/a
343.433	0.1645	686866	keystroke	i	n/a
343.5675	0.12	687135	keystroke	n	n/a
343.7175	0.09	687435	keystroke	g	n/a
343.8225	0.09	687645	keystroke	Key.space	n/a
344.0175	0.06	688035	keystroke	Key.enter	n/a
344.084	8.257	688168	prompt	n/a	measured ambassador agreements shorts\n
344.8875	0.075	689775	keystroke	m	n/a
345.0225	0.0895	690045	keystroke	e	n/a
345.172	0.12	690344	keystroke	a	n/a
345.397	0.15	690794	keystroke	s	n/a
345.532	0.075	691064	keystroke	u	n/a
345.637	0.12	691274	keystroke	r	n/a
345.712	0.135	691424	keystroke	e	n/a
345.952	0.1195	691904	keystroke	d	n/a
346.1015	0.09	692203	keystroke	Key.space	n/a
347.691	0.09	695382	keystroke	a	n/a
347.886	0.075	695772	keystroke	m	n/a
348.081	0.09	696162	keystroke	b	n/a
348.231	0.105	696462	keystroke	a	n/a
348.426	0.075	696852	keystroke	s	n/a
348.576	0.0895	697152	keystroke	s	n/a
348.7255	0.12	697451	keystroke	a	n/a
349.0255	0.105	698051	keystroke	d	n/a
349.1155	0.09	698231	keystroke	o	n/a
349.2355	0.105	698471	keystroke	r	n/a
349.3855	0.075	698771	keystroke	Key.space	n/a
349.5505	0.12	699101	keystroke	a	n/a
349.745	0.09	699490	keystroke	g	n/a
349.925	0.09	699850	keystroke	r	n/a
350.135	0.06	700270	keystroke	e	n/a
350.2695	0.09	700539	keystroke	e	n/a
350.3895	0.105	700779	keystroke	m	n/a
350.5245	0.165	701049	keystroke	e	n/a
350.6445	0.0605	701289	keystroke	n	n/a
350.75	0.105	701500	keystroke	t	n/a
350.96	0.105	701920	keystroke	s	n/a
351.08	0.06	702160	keystroke	Key.space	n/a
351.245	0.1345	702490	keystroke	s	n/a
351.3345	0.09	702669	keystroke	h	n/a
351.4545	0.105	702909	keystroke	o	n/a
351.5745	0.09	703149	keystroke	r	n/a
351.7545	0.09	703509	keystroke	t	n/a
351.9495	0.12	703899	keystroke	s	n/a
352.0845	0.06	704169	keystroke	Key.space	n/a
352.2495	0.09	704499	keystroke	Key.enter	n/a
352.3455	6.338	704691	prompt	n/a	bikini cooler scholars webmaster\n
353.1045	0.075	706209	keystroke	b	n/a
353.2845	0.075	706569	keystroke	i	n/a
353.539	0.09	707078	keystroke	k	n/a
353.719	0.075	707438	keystroke	i	n/a
353.899	0.075	707798	keystroke	n	n/a
354.064	0.075	708128	keystroke	i	n/a
354.214	0.105	708428	keystroke	Key.space	n/a
354.409	0.1045	708818	keystroke	c	n/a
354.5585	0.03	709117	keystroke	o	n/a
354.6935	0.06	709387	keystroke	o	n/a
354.8885	0.09	709777	keystroke	l	n/a
355.023	0.195	710046	keystroke	e	n/a
355.173	0.135	710346	keystroke	r	n/a
355.308	0.09	710616	keystroke	Key.space	n/a
355.458	0.09	710916	keystroke	s	n/a
355.653	0.09	711306	keystroke	c	n/a
355.758	0.105	711516	keystroke	h	n/a
355.923	0.105	711846	keystroke	o	n/a
356.1475	0.12	712295	keystroke	l	n/a
356.3275	0.165	712655	keystroke	a	n/a
356.5075	0.1195	713015	keystroke	r	n/a
356.732	0.09	713464	keystroke	s	n/a
356.837	0.09	713674	keystroke	Key.space	n/a
356.957	0.1805	713914	keystroke	w	n/a
357.1225	0.105	714245	keystroke	e	n/a
357.3475	0.09	714695	keystroke	b	n/a
357.5575	0.0895	715115	keystroke	m	n/a
357.692	0.105	715384	keystroke	a	n/a
357.812	0.165	715624	keystroke	s	n/a
358.052	0.0745	716104	keystroke	t	n/a
358.1715	0.18	716343	keystroke	e	n/a
358.3065	0.105	716613	keystroke	r	n/a
358.4265	0.105	716853	keystroke	Key.space	n/a
358.5915	0.09	717183	keystroke	Key.enter	n/a
358.6895	6.052	717379	prompt	n/a	arrest specialists only grain\n
359.3415	0.12	718683	keystroke	a	n/a
359.5965	0.06	719193	keystroke	r	n/a
359.7315	0.09	719463	keystroke	r	n/a
359.8365	0.18	719673	keystroke	e	n/a
359.9865	0.24	719973	keystroke	s	n/a
360.4965	0.09	720993	keystroke	t	n/a
360.6915	0.105	721383	keystroke	Key.space	n/a
360.9165	0.12	721833	keystroke	s	n/a
361.0375	0.089	722075	keystroke	p	n/a
361.1415	0.09	722283	keystroke	e	n/a
361.3505	0.135	722701	keystroke	c	n/a
361.4555	0.075	722911	keystroke	i	n/a
361.5905	0.105	723181	keystroke	a	n/a
361.6805	0.075	723361	keystroke	l	n/a
361.815	0.075	723630	keystroke	i	n/a
361.98	0.12	723960	keystroke	s	n/a
362.28	0.09	724560	keystroke	t	n/a
362.58	0.1045	725160	keystroke	s	n/a
362.7295	0.075	725459	keystroke	Key.space	n/a
362.9995	0.075	725999	keystroke	o	n/a
363.1195	0.105	726239	keystroke	n	n/a
363.2695	0.105	726539	keystroke	l	n/a
363.4795	0.12	726959	keystroke	y	n/a
363.5695	0.135	727139	keystroke	Key.space	n/a
363.7345	0.075	727469	keystroke	g	n/a
363.899	0.075	727798	keystroke	r	n/a
364.049	0.12	728098	keystroke	a	n/a
364.184	0.21	728368	keystroke	i	n/a
364.319	0.165	728638	keystroke	n	n/a
364.454	0.105	728908	keystroke	Key.space	n/a
364.664	0.075	729328	keystroke	Key.enter	n/a
364.7465	8.3305	729493	prompt	n/a	communication liked introduced exit\n
365.4435	0.09	730887	keystroke	c	n/a
365.5035	0.09	731007	keystroke	o	n/a
365.6985	0.075	731397	keystroke	m	n/a
365.8485	0.0745	731697	keystroke	m	n/a
366.073	0.045	732146	keystroke	u	n/a
366.238	0.075	732476	keystroke	n	n/a
366.358	0.0595	732716	keystroke	i	n/a
366.5375	0.105	733075	keystroke	c	n/a
366.6725	0.135	733345	keystroke	a	n/a
366.8525	0.135	733705	keystroke	t	n/a
366.9725	0.225	733945	keystroke	i	n/a
367.0625	0.165	734125	keystroke	o	n/a
367.1375	0.15	734275	keystroke	n	n/a
367.2125	0.18	734425	keystroke	Key.space	n/a
367.3625	0.12	734725	keystroke	l	n/a
367.4675	0.075	734935	keystroke	i	n/a
367.6475	0.09	735295	keystroke	k	n/a
367.7525	0.0745	735505	keystroke	e	n/a
367.917	0.135	735834	keystroke	d	n/a
368.037	0.06	736074	keystroke	Key.space	n/a
368.157	0.075	736314	keystroke	i	n/a
368.322	0.06	736644	keystroke	n	n/a
368.502	0.06	737004	keystroke	t	n/a
368.682	0.075	737364	keystroke	r	n/a
368.787	0.075	737574	keystroke	o	n/a
368.982	0.09	737964	keystroke	d	n/a
369.941	0.075	739882	keystroke	c	n/a
370.5405	0.075	741081	keystroke	Key.backspace	n/a
371.2005	0.075	742401	keystroke	u	n/a
371.4855	0.09	742971	keystroke	c	n/a
371.6805	0.075	743361	keystroke	e	n/a
371.8605	0.105	743721	keystroke	d	n/a
371.9805	0.075	743961	keystroke	Key.space	n/a
372.1455	0.09	744291	keystroke	e	n/a
372.3555	0.135	744711	keystroke	x	n/a
372.4905	0.075	744981	keystroke	i	n/a
372.7155	0.09	745431	keystroke	t	n/a
372.8205	0.09	745641	keystroke	Key.space	n/a
373.0005	0.075	746001	keystroke	Key.enter	n/a
373.0815	7.388	746163	prompt	n/a	criteria significant common ringtones\n
373.9	0.21	747800	keystroke	c	n/a
374.29	0.104	748580	keystroke	r	n/a
374.409	0.075	748818	keystroke	i	n/a
374.589	0.105	749178	keystroke	t	n/a
374.754	0.2245	749508	keystroke	e	n/a
374.9035	0.12	749807	keystroke	r	n/a
375.0685	0.09	750137	keystroke	i	n/a
375.2635	0.105	750527	keystroke	a	n/a
375.4135	0.06	750827	keystroke	Key.space	n/a
375.6245	0.119	751249	keystroke	s	n/a
375.7285	0.09	751457	keystroke	i	n/a
375.953	0.09	751906	keystroke	g	n/a
376.118	0.075	752236	keystroke	n	n/a
376.298	0.09	752596	keystroke	i	n/a
376.553	0.09	753106	keystroke	f	n/a
376.658	0.06	753316	keystroke	i	n/a
376.823	0.165	753646	keystroke	c	n/a
376.973	0.15	753946	keystroke	a	n/a
377.138	0.105	754276	keystroke	n	n/a
377.348	0.12	754696	keystroke	t	n/a
377.483	0.06	754966	keystroke	Key.space	n/a
377.663	0.105	755326	keystroke	c	n/a
377.739	0.074	755478	keystroke	o	n/a
377.948	0.06	755896	keystroke	m	n/a
378.068	0.09	756136	keystroke	m	n/a
378.2475	0.135	756495	keystroke	o	n/a
378.3525	0.195	756705	keystroke	n	n/a
378.5025	0.105	757005	keystroke	Key.space	n/a
378.6525	0.12	757305	keystroke	r	n/a
378.7575	0.09	757515	keystroke	i	n/a
378.9375	0.075	757875	keystroke	n	n/a
379.1175	0.105	758235	keystroke	g	n/a
379.5675	0.09	759135	keystroke	t	n/a
379.6725	0.06	759345	keystroke	o	n/a
379.7925	0.075	759585	keystroke	n	n/a
379.8975	0.1195	759795	keystroke	e	n/a
380.077	0.135	760154	keystroke	s	n/a
380.227	0.06	760454	keystroke	Key.space	n/a
380.392	0.075	760784	keystroke	Key.enter	n/a
380.475	5.1515	760950	prompt	n/a	glen material system teens\n
381.201	0.06	762402	keystroke	g	n/a
381.366	0.075	762732	keystroke	l	n/a
381.517	0.089	763034	keystroke	e	n/a
381.621	0.09	763242	keystroke	n	n/a
381.771	0.09	763542	keystroke	Key.space	n/a
381.951	0.075	763902	keystroke	m	n/a
382.071	0.105	764142	keystroke	a	n/a
382.266	0.105	764532	keystroke	t	n/a
382.386	0.18	764772	keystroke	e	n/a
382.506	0.105	765012	keystroke	r	n/a
382.596	0.075	765192	keystroke	i	n/a
382.8055	0.1205	765611	keystroke	a	n/a
382.8655	0.165	765731	keystroke	l	n/a
383.0005	0.135	766001	keystroke	Key.space	n/a
383.1505	0.09	766301	keystroke	s	n/a
383.2855	0.045	766571	keystroke	y	n/a
383.3605	0.225	766721	keystroke	s	n/a
383.825	0.105	767650	keystroke	t	n/a
383.99	0.12	767980	keystroke	e	n/a
384.155	0.165	768310	keystroke	m	n/a
384.2755	0.1345	768551	keystroke	Key.space	n/a
384.71	0.09	769420	keystroke	t	n/a
384.905	0.06	769810	keystroke	e	n/a
385.04	0.09	770080	keystroke	e	n/a
385.145	0.09	770290	keystroke	m	n/a
385.2945	0.09	770589	keystroke	s	n/a
385.3995	0.075	770799	keystroke	Key.space	n/a
385.5345	0.09	771069	keystroke	Key.enter	n/a
385.6315	5.768	771263	prompt	n/a	beginner claim matching julie\n
386.359	0.075	772718	keystroke	b	n/a
386.494	0.09	772988	keystroke	e	n/a
386.779	0.0745	773558	keystroke	g	n/a
386.8685	0.075	773737	keystroke	i	n/a
387.0485	0.075	774097	keystroke	n	n/a
387.1835	0.09	774367	keystroke	n	n/a
387.2885	0.195	774577	keystroke	e	n/a
387.4235	0.12	774847	keystroke	r	n/a
387.5585	0.075	775117	keystroke	Key.space	n/a
387.7535	0.1045	775507	keystroke	c	n/a
387.843	0.09	775686	keystroke	l	n/a
387.993	0.12	775986	keystroke	a	n/a
388.098	0.06	776196	keystroke	i	n/a
388.263	0.18	776526	keystroke	m	n/a
388.458	0.105	776916	keystroke	Key.space	n/a
389.0885	0.135	778177	keystroke	m	n/a
389.3135	0.06	778627	keystroke	a	n/a
389.5235	0.09	779047	keystroke	t	n/a
389.7785	0.105	779557	keystroke	c	n/a
389.8535	0.09	779707	keystroke	h	n/a
389.9735	0.165	779947	keystroke	i	n/a
390.0785	0.135	780157	keystroke	n	n/a
390.2435	0.1045	780487	keystroke	g	n/a
390.333	0.09	780666	keystroke	Key.space	n/a
390.4685	0.09	780937	keystroke	j	n/a
390.6335	0.075	781267	keystroke	u	n/a
390.7985	0.075	781597	keystroke	l	n/a
390.9185	0.0745	781837	keystroke	i	n/a
391.083	0.09	782166	keystroke	e	n/a
391.158	0.075	782316	keystroke	Key.space	n/a
391.353	0.044	782706	keystroke	Key.enter	n/a
391.4035	5.8435	782807	prompt	n/a	i've idle artistic reach\n
392.1925	0.075	784385	keystroke	i	n/a
392.3875	0.09	784775	keystroke	'	n/a
392.6125	0.18	785225	keystroke	v	n/a
392.7625	0.15	785525	keystroke	e	n/a
392.8825	0.09	785765	keystroke	Key.space	n/a
393.0925	0.06	786185	keystroke	i	n/a
393.2725	0.105	786545	keystroke	d	n/a
393.4225	0.105	786845	keystroke	l	n/a
393.557	0.135	787114	keystroke	e	n/a
394.022	0.09	788044	keystroke	Key.space	n/a
394.172	0.165	788344	keystroke	a	n/a
394.382	0.105	788764	keystroke	r	n/a
394.6065	0.075	789213	keystroke	t	n/a
394.7265	0.09	789453	keystroke	i	n/a
395.326	0.105	790652	keystroke	s	n/a
395.596	0.0745	791192	keystroke	t	n/a
395.686	0.0595	791372	keystroke	i	n/a
395.8805	0.135	791761	keystroke	c	n/a
396.0005	0.075	792001	keystroke	Key.space	n/a
396.1805	0.15	792361	keystroke	r	n/a
396.2855	0.1645	792571	keystroke	e	n/a
396.5105	0.1045	793021	keystroke	a	n/a
396.72	0.09	793440	keystroke	c	n/a
396.84	0.15	793680	keystroke	h	n/a
396.96	0.105	793920	keystroke	Key.space	n/a
397.155	0.09	794310	keystroke	Key.enter	n/a
397.252	4.3885	794504	prompt	n/a	oasis china hair british\n
397.8745	0.09	795749	keystroke	o	n/a
398.0395	0.1055	796079	keystroke	a	n/a
398.3245	0.105	796649	keystroke	s	n/a
398.4445	0.075	796889	keystroke	i	n/a
398.5645	0.1055	797129	keystroke	s	n/a
398.685	0.075	797370	keystroke	Key.space	n/a
398.8495	0.15	797699	keystroke	c	n/a
398.9545	0.075	797909	keystroke	h	n/a
399.0745	0.165	798149	keystroke	i	n/a
399.2095	0.135	798419	keystroke	n	n/a
399.4195	0.105	798839	keystroke	a	n/a
399.5095	0.045	799019	keystroke	Key.space	n/a
399.6745	0.09	799349	keystroke	h	n/a
399.8245	0.135	799649	keystroke	a	n/a
399.9295	0.075	799859	keystroke	i	n/a
400.0645	0.12	800129	keystroke	r	n/a
400.1995	0.075	800399	keystroke	Key.space	n/a
400.3795	0.075	800759	keystroke	b	n/a
400.5595	0.09	801119	keystroke	r	n/a
400.6645	0.06	801329	keystroke	i	n/a
400.8145	0.075	801629	keystroke	t	n/a
400.9195	0.075	801839	keystroke	i	n/a
401.0845	0.1195	802169	keystroke	s	n/a
401.219	0.135	802438	keystroke	h	n/a
401.384	0.105	802768	keystroke	Key.space	n/a
401.564	0.075	803128	keystroke	Key.enter	n/a
401.646	10.1765	803292	prompt	n/a	logged gone technique scholarships\n
402.5235	0.0745	805047	keystroke	l	n/a
402.688	0.09	805376	keystroke	o	n/a
402.823	0.075	805646	keystroke	g	n/a
402.958	0.075	805916	keystroke	g	n/a
403.123	0.09	806246	keystroke	e	n/a
403.318	0.135	806636	keystroke	d	n/a
403.423	0.075	806846	keystroke	Key.space	n/a
403.618	0.075	807236	keystroke	g	n/a
403.678	0.06	807356	keystroke	o	n/a
403.828	0.06	807656	keystroke	n	n/a
403.918	0.105	807836	keystroke	e	n/a
404.053	0.075	808106	keystroke	Key.space	n/a
404.248	0.0745	808496	keystroke	t	n/a
404.4125	0.105	808825	keystroke	e	n/a
404.6675	0.105	809335	keystroke	c	n/a
404.802	0.06	809604	keystroke	h	n/a
405.027	0.06	810054	keystroke	n	n/a
405.162	0.06	810324	keystroke	i	n/a
405.3865	0.105	810773	keystroke	q	n/a
405.6415	0.075	811283	keystroke	e	n/a
405.7615	0.09	811523	keystroke	Key.space	n/a
406.406	0.075	812812	keystroke	Key.backspace	n/a
406.571	0.075	813142	keystroke	Key.backspace	n/a
406.721	0.06	813442	keystroke	Key.backspace	n/a
406.856	0.06	813712	keystroke	Key.backspace	n/a
407.532	0.074	815064	keystroke	i	n/a
408.371	0.105	816742	keystroke	q	n/a
408.461	0.09	816922	keystroke	u	n/a
408.596	0.09	817192	keystroke	e	n/a
408.701	0.09	817402	keystroke	Key.space	n/a
409.4955	0.09	818991	keystroke	s	n/a
409.6905	0.12	819381	keystroke	c	n/a
409.8255	0.12	819651	keystroke	h	n/a
409.9155	0.12	819831	keystroke	o	n/a
410.1105	0.121	820221	keystroke	l	n/a
410.3505	0.1345	820701	keystroke	a	n/a
410.5305	0.09	821061	keystroke	r	n/a
410.7705	0.09	821541	keystroke	s	n/a
410.8755	0.09	821751	keystroke	h	n/a
411.0105	0.1045	822021	keystroke	i	n/a
411.25	0.06	822500	keystroke	p	n/a
411.4	0.12	822800	keystroke	s	n/a
411.535	0.06	823070	keystroke	Key.space	n/a
411.76	0.06	823520	keystroke	Key.enter	n/a
411.8305	7.443	823661	prompt	n/a	realized charging baseline redhead\n
412.5695	0.1355	825139	keystroke	r	n/a
412.689	0.12	825378	keystroke	e	n/a
412.854	0.09	825708	keystroke	l	n/a
413.4535	0.075	826907	keystroke	Key.backspace	n/a
413.6035	0.135	827207	keystroke	a	n/a
413.6935	0.09	827387	keystroke	l	n/a
413.8735	0.06	827747	keystroke	i	n/a
414.0535	0.1045	828107	keystroke	z	n/a
414.203	0.09	828406	keystroke	e	n/a
414.383	0.135	828766	keystroke	d	n/a
414.533	0.075	829066	keystroke	Key.space	n/a
414.788	0.15	829576	keystroke	c	n/a
414.878	0.09	829756	keystroke	h	n/a
414.983	0.18	829966	keystroke	a	n/a
415.163	0.105	830326	keystroke	r	n/a
415.553	0.0745	831106	keystroke	g	n/a
415.6425	0.075	831285	keystroke	i	n/a
415.8075	0.075	831615	keystroke	n	n/a
415.9275	0.105	831855	keystroke	g	n/a
416.0475	0.075	832095	keystroke	Key.space	n/a
416.2285	0.104	832457	keystroke	b	n/a
416.3775	0.135	832755	keystroke	a	n/a
416.5275	0.18	833055	keystroke	s	n/a
416.7225	0.075	833445	keystroke	e	n/a
416.9175	0.06	833835	keystroke	l	n/a
417.0825	0.06	834165	keystroke	i	n/a
417.247	0.075	834494	keystroke	n	n/a
417.367	0.09	834734	keystroke	e	n/a
417.517	0.06	835034	keystroke	Key.space	n/a
417.7265	0.105	835453	keystroke	r	n/a
417.8165	0.135	835633	keystroke	e	n/a
418.0865	0.105	836173	keystroke	d	n/a
418.4015	0.105	836803	keystroke	h	n/a
418.5515	0.15	837103	keystroke	e	n/a
418.7465	0.195	837493	keystroke	a	n/a
418.9115	0.15	837823	keystroke	d	n/a
419.0315	0.09	838063	keystroke	Key.space	n/a
419.1815	0.09	838363	keystroke	Key.enter	n/a
419.2775	5.3485	838555	prompt	n/a	margin loud running thoughts\n
419.946	0.075	839892	keystroke	m	n/a
420.066	0.165	840132	keystroke	a	n/a
420.246	0.09	840492	keystroke	r	n/a
420.471	0.09	840942	keystroke	g	n/a
420.562	0.164	841124	keystroke	i	n/a
420.681	0.21	841362	keystroke	n	n/a
420.831	0.255	841662	keystroke	Key.space	n/a
421.251	0.135	842502	keystroke	l	n/a
421.565	0.18	843130	keystroke	o	n/a
421.7	0.12	843400	keystroke	u	n/a
421.91	0.105	843820	keystroke	d	n/a
422.03	0.09	844060	keystroke	Key.space	n/a
422.2695	0.105	844539	keystroke	r	n/a
422.3595	0.09	844719	keystroke	u	n/a
422.5995	0.045	845199	keystroke	n	n/a
422.7195	0.075	845439	keystroke	n	n/a
422.8545	0.135	845709	keystroke	i	n/a
422.9745	0.105	845949	keystroke	n	n/a
423.0645	0.12	846129	keystroke	g	n/a
423.1995	0.06	846399	keystroke	Key.space	n/a
423.3795	0.105	846759	keystroke	t	n/a
423.4395	0.12	846879	keystroke	h	n/a
423.5895	0.15	847179	keystroke	o	n/a
423.6795	0.09	847359	keystroke	u	n/a
423.8295	0.105	847659	keystroke	g	n/a
423.9045	0.09	847809	keystroke	h	n/a
424.0395	0.105	848079	keystroke	t	n/a
424.2495	0.12	848499	keystroke	s	n/a
424.3545	0.075	848709	keystroke	Key.space	n/a
424.5495	0.075	849099	keystroke	Key.enter	n/a
424.63	7.3735	849260	prompt	n/a	investors pursue compensation ctrl\n
425.2545	0.075	850509	keystroke	i	n/a
425.434	0.075	850868	keystroke	n	n/a
425.5695	0.105	851139	keystroke	v	n/a
425.7345	0.12	851469	keystroke	e	n/a
425.8995	0.1495	851799	keystroke	s	n/a
426.184	0.075	852368	keystroke	t	n/a
426.274	0.06	852548	keystroke	o	n/a
426.379	0.09	852758	keystroke	r	n/a
426.575	0.104	853150	keystroke	s	n/a
426.694	0.0745	853388	keystroke	Key.space	n/a
426.8735	0.075	853747	keystroke	p	n/a
427.0685	0.075	854137	keystroke	u	n/a
427.1885	0.105	854377	keystroke	r	n/a
427.4435	0.12	854887	keystroke	s	n/a
427.5785	0.0895	855157	keystroke	u	n/a
427.728	0.105	855456	keystroke	e	n/a
427.863	0.09	855726	keystroke	Key.space	n/a
428.194	0.104	856388	keystroke	c	n/a
428.313	0.09	856626	keystroke	o	n/a
428.9125	0.075	857825	keystroke	m	n/a
429.1225	0.09	858245	keystroke	p	n/a
429.3025	0.1195	858605	keystroke	e	n/a
429.4235	0.0585	858847	keystroke	n	n/a
429.587	0.09	859174	keystroke	s	n/a
429.798	0.119	859596	keystroke	a	n/a
430.022	0.105	860044	keystroke	t	n/a
430.142	0.255	860284	keystroke	i	n/a
430.217	0.225	860434	keystroke	o	n/a
430.307	0.195	860614	keystroke	n	n/a
430.427	0.15	860854	keystroke	Key.space	n/a
430.742	0.105	861484	keystroke	c	n/a
431.057	0.06	862114	keystroke	t	n/a
431.297	0.075	862594	keystroke	r	n/a
431.537	0.165	863074	keystroke	l	n/a
431.657	0.105	863314	keystroke	Key.space	n/a
431.9265	0.075	863853	keystroke	Key.enter	n/a
432.008	7.869	864016	prompt	n/a	forums interracial british gnome\n
432.751	0.1355	865502	keystroke	f	n/a
432.8715	0.075	865743	keystroke	o	n/a
433.111	0.09	866222	keystroke	r	n/a
433.216	0.09	866432	keystroke	u	n/a
433.426	0.09	866852	keystroke	m	n/a
433.576	0.12	867152	keystroke	s	n/a
433.666	0.09	867332	keystroke	Key.space	n/a
433.817	0.059	867634	keystroke	i	n/a
433.981	0.06	867962	keystroke	n	n/a
434.1605	0.12	868321	keystroke	t	n/a
434.341	0.2395	868682	keystroke	e	n/a
434.491	0.1045	868982	keystroke	r	n/a
434.956	0.09	869912	keystroke	r	n/a
435.4055	0.09	870811	keystroke	a	n/a
436.02	0.09	872040	keystroke	c	n/a
436.095	0.075	872190	keystroke	i	n/a
436.26	0.105	872520	keystroke	a	n/a
436.35	0.1945	872700	keystroke	l	n/a
436.4995	0.135	872999	keystroke	Key.space	n/a
436.7395	0.045	873479	keystroke	b	n/a
436.8895	0.09	873779	keystroke	r	n/a
436.9955	0.074	873991	keystroke	i	n/a
437.1595	0.09	874319	keystroke	t	n/a
437.2645	0.06	874529	keystroke	i	n/a
437.4145	0.09	874829	keystroke	s	n/a
437.5945	0.1795	875189	keystroke	h	n/a
437.729	0.12	875458	keystroke	Key.space	n/a
437.9405	0.075	875881	keystroke	g	n/a
438.1195	0.09	876239	keystroke	n	n/a
438.299	0.06	876598	keystroke	o	n/a
439.1245	0.136	878249	keystroke	m	n/a
439.4095	0.06	878819	keystroke	e	n/a
439.6195	0.075	879239	keystroke	Key.space	n/a
439.7695	0.105	879539	keystroke	Key.enter	n/a
439.882	7.237	879764	prompt	n/a	wanna tutorials heaven disclaimers\n
440.579	0.075	881158	keystroke	w	n/a
440.7285	0.15	881457	keystroke	a	n/a
440.8645	0.044	881729	keystroke	n	n/a
440.9835	0.075	881967	keystroke	n	n/a
441.2235	0.135	882447	keystroke	a	n/a
441.4035	0.075	882807	keystroke	Key.space	n/a
441.598	0.09	883196	keystroke	t	n/a
441.718	0.06	883436	keystroke	u	n/a
442.033	0.075	884066	keystroke	t	n/a
442.139	0.074	884278	keystroke	o	n/a
442.333	0.105	884666	keystroke	r	n/a
442.409	0.074	884818	keystroke	i	n/a
442.603	0.12	885206	keystroke	a	n/a
442.769	0.0895	885538	keystroke	l	n/a
442.9475	0.12	885895	keystroke	s	n/a
443.0525	0.06	886105	keystroke	Key.space	n/a
443.3225	0.09	886645	keystroke	h	n/a
443.6225	0.091	887245	keystroke	e	n/a
443.8025	0.105	887605	keystroke	a	n/a
444.0575	0.09	888115	keystroke	v	n/a
444.2225	0.105	888445	keystroke	e	n/a
444.3725	0.1945	888745	keystroke	n	n/a
444.5075	0.1195	889015	keystroke	Key.space	n/a
444.657	0.15	889314	keystroke	d	n/a
444.777	0.075	889554	keystroke	i	n/a
444.912	0.12	889824	keystroke	s	n/a
445.122	0.075	890244	keystroke	l	n/a
445.482	0.045	890964	keystroke	Key.backspace	n/a
445.633	0.135	891266	keystroke	c	n/a
445.722	0.12	891444	keystroke	l	n/a
445.902	0.136	891804	keystroke	a	n/a
446.022	0.075	892044	keystroke	i	n/a
446.2015	0.075	892403	keystroke	m	n/a
446.427	0.1945	892854	keystroke	e	n/a
446.547	0.1195	893094	keystroke	r	n/a
446.7715	0.105	893543	keystroke	s	n/a
446.8615	0.06	893723	keystroke	Key.space	n/a
447.0415	0.075	894083	keystroke	Key.enter	n/a
447.124	10.3725	894248	prompt	n/a	mysql screenshots alexander variables\n
447.8815	0.075	895763	keystroke	m	n/a
448.511	0.09	897022	keystroke	y	n/a
448.766	0.105	897532	keystroke	s	n/a
449.3205	0.091	898641	keystroke	q	n/a
449.651	0.106	899302	keystroke	l	n/a
449.846	0.105	899692	keystroke	Key.space	n/a
450.086	0.1045	900172	keystroke	s	n/a
450.2805	0.165	900561	keystroke	c	n/a
450.5365	0.089	901073	keystroke	r	n/a
450.7615	0.075	901523	keystroke	e	n/a
450.8955	0.105	901791	keystroke	e	n/a
451.0155	0.09	902031	keystroke	n	n/a
451.1815	0.134	902363	keystroke	s	n/a
451.3005	0.075	902601	keystroke	h	n/a
451.4205	0.121	902841	keystroke	o	n/a
451.8565	0.074	903713	keystroke	t	n/a
452.065	0.0905	904130	keystroke	s	n/a
452.2005	0.075	904401	keystroke	Key.space	n/a
453.1605	0.075	906321	keystroke	a	n/a
453.2495	0.091	906499	keystroke	l	n/a
453.3695	0.106	906739	keystroke	e	n/a
453.5945	0.136	907189	keystroke	x	n/a
453.7905	0.12	907581	keystroke	a	n/a
453.8945	0.075	907789	keystroke	n	n/a
454.0295	0.121	908059	keystroke	d	n/a
454.2395	0.181	908479	keystroke	e	n/a
454.3605	0.165	908721	keystroke	r	n/a
454.5395	0.075	909079	keystroke	Key.space	n/a
455.2895	0.136	910579	keystroke	c	n/a
455.7545	0.09	911509	keystroke	Key.backspace	n/a
455.9055	0.134	911811	keystroke	v	n/a
456.0545	0.106	912109	keystroke	a	n/a
456.2495	0.0895	912499	keystroke	r	n/a
456.355	0.06	912710	keystroke	i	n/a
456.475	0.135	912950	keystroke	a	n/a
456.7	0.074	913400	keystroke	b	n/a
456.789	0.0595	913578	keystroke	l	n/a
456.9095	0.104	913819	keystroke	e	n/a
457.1045	0.105	914209	keystroke	s	n/a
457.2245	0.06	914449	keystroke	Key.space	n/a
457.4645	0.029	914929	keystroke	Key.enter	n/a
457.5015	8.0485	915003	prompt	n/a	parenting incl slightly cisco\n
458.259	0.045	916518	keystroke	m	n/a
458.723	0.12	917446	keystroke	Key.backspace	n/a
459.144	0.074	918288	keystroke	p	n/a
459.309	0.105	918618	keystroke	a	n/a
459.593	0.121	919186	keystroke	r	n/a
459.789	0.12	919578	keystroke	e	n/a
459.924	0.075	919848	keystroke	n	n/a
460.119	0.075	920238	keystroke	t	n/a
460.209	0.03	920418	keystroke	i	n/a
460.344	0.045	920688	keystroke	n	n/a
460.434	0.105	920868	keystroke	g	n/a
460.554	0.06	921108	keystroke	Key.space	n/a
460.779	0.06	921558	keystroke	i	n/a
461.004	0.075	922008	keystroke	n	n/a
461.229	0.1195	922458	keystroke	c	n/a
461.3785	0.075	922757	keystroke	l	n/a
461.6335	0.044	923267	keystroke	Key.space	n/a
462.653	0.165	925306	keystroke	s	n/a
462.728	0.075	925456	keystroke	l	n/a
462.878	0.09	925756	keystroke	i	n/a
463.148	0.09	926296	keystroke	g	n/a
463.222	0.091	926444	keystroke	h	n/a
463.508	0.09	927016	keystroke	t	n/a
463.673	0.089	927346	keystroke	l	n/a
463.973	0.12	927946	keystroke	y	n/a
464.078	0.1335	928156	keystroke	Key.space	n/a
464.2725	0.105	928545	keystroke	c	n/a
464.3625	0.075	928725	keystroke	i	n/a
464.7225	0.105	929445	keystroke	s	n/a
464.9925	0.09	929985	keystroke	c	n/a
465.0975	0.075	930195	keystroke	o	n/a
465.2775	0.105	930555	keystroke	Key.space	n/a
465.4715	0.075	930943	keystroke	Key.enter	n/a
465.5575	7.9395	931115	prompt	n/a	creatures nurse integrating customized\n
466.3725	0.135	932745	keystroke	c	n/a
466.5975	0.12	933195	keystroke	r	n/a
466.7325	0.18	933465	keystroke	e	n/a
466.8975	0.1795	933795	keystroke	a	n/a
467.347	0.075	934694	keystroke	t	n/a
467.422	0.09	934844	keystroke	u	n/a
467.587	0.044	935174	keystroke	r	n/a
467.602	0.135	935204	keystroke	e	n/a
467.812	0.15	935624	keystroke	s	n/a
467.977	0.075	935954	keystroke	Key.space	n/a
468.157	0.075	936314	keystroke	n	n/a
468.352	0.075	936704	keystroke	u	n/a
468.442	0.12	936884	keystroke	r	n/a
468.6215	0.18	937243	keystroke	s	n/a
468.7705	0.151	937541	keystroke	e	n/a
468.9365	0.09	937873	keystroke	Key.space	n/a
469.0715	0.075	938143	keystroke	i	n/a
469.2365	0.075	938473	keystroke	n	n/a
469.4615	0.105	938923	keystroke	t	n/a
469.7015	0.1345	939403	keystroke	e	n/a
470.091	0.0605	940182	keystroke	g	n/a
470.2405	0.1195	940481	keystroke	r	n/a
470.42	0.106	940840	keystroke	a	n/a
470.631	0.075	941262	keystroke	t	n/a
470.721	0.059	941442	keystroke	i	n/a
470.826	0.09	941652	keystroke	n	n/a
470.96	0.105	941920	keystroke	g	n/a
471.08	0.06	942160	keystroke	Key.space	n/a
471.276	0.0445	942552	keystroke	c	n/a
471.3955	0.06	942791	keystroke	u	n/a
471.8605	0.105	943721	keystroke	s	n/a
472.1455	0.09	944291	keystroke	t	n/a
472.2355	0.074	944471	keystroke	o	n/a
472.3405	0.135	944681	keystroke	m	n/a
472.4595	0.091	944919	keystroke	i	n/a
472.7605	0.0445	945521	keystroke	z	n/a
472.91	0.075	945820	keystroke	e	n/a
473.105	0.105	946210	keystroke	d	n/a
473.24	0.089	946480	keystroke	Key.space	n/a
473.435	0.06	946870	keystroke	Key.enter	n/a
473.5025	8.6765	947005	prompt	n/a	warriors waste contests acknowledged\n
474.245	0.09	948490	keystroke	w	n/a
474.41	0.105	948820	keystroke	a	n/a
474.65	0.075	949300	keystroke	r	n/a
474.785	0.09	949570	keystroke	r	n/a
474.905	0.075	949810	keystroke	i	n/a
475.025	0.075	950050	keystroke	o	n/a
475.175	0.09	950350	keystroke	r	n/a
475.385	0.1045	950770	keystroke	s	n/a
475.5195	0.074	951039	keystroke	Key.space	n/a
475.6545	0.105	951309	keystroke	w	n/a
475.8645	0.15	951729	keystroke	a	n/a
475.9845	0.165	951969	keystroke	s	n/a
476.2095	0.105	952419	keystroke	t	n/a
476.3295	0.12	952659	keystroke	e	n/a
476.4495	0.105	952899	keystroke	Key.space	n/a
476.6295	0.12	953259	keystroke	c	n/a
476.7045	0.12	953409	keystroke	o	n/a
476.8095	0.12	953619	keystroke	n	n/a
477.0045	0.1045	954009	keystroke	t	n/a
477.183	0.136	954366	keystroke	e	n/a
477.439	0.15	954878	keystroke	s	n/a
477.739	0.075	955478	keystroke	t	n/a
477.919	0.12	955838	keystroke	s	n/a
478.069	0.105	956138	keystroke	Key.space	n/a
478.594	0.12	957188	keystroke	a	n/a
478.7885	0.12	957577	keystroke	c	n/a
479.4485	0.09	958897	keystroke	k	n/a
479.6585	0.12	959317	keystroke	n	n/a
479.8085	0.105	959617	keystroke	o	n/a
479.9585	0.06	959917	keystroke	w	n/a
480.9335	0.075	961867	keystroke	l	n/a
481.068	0.075	962136	keystroke	e	n/a
481.248	0.18	962496	keystroke	d	n/a
481.488	0.1205	962976	keystroke	g	n/a
481.6225	0.0895	963245	keystroke	e	n/a
481.802	0.135	963604	keystroke	d	n/a
481.922	0.075	963844	keystroke	Key.space	n/a
482.087	0.09	964174	keystroke	Key.enter	n/a
482.1845	6.6985	964369	prompt	n/a	gambling inter oughtn't wendy\n
482.8975	0.074	965795	keystroke	g	n/a
483.3615	0.12	966723	keystroke	a	n/a
483.4965	0.09	966993	keystroke	m	n/a
483.7215	0.075	967443	keystroke	b	n/a
483.8115	0.06	967623	keystroke	l	n/a
483.9615	0.075	967923	keystroke	i	n/a
484.1115	0.075	968223	keystroke	n	n/a
484.2015	0.105	968403	keystroke	g	n/a
484.3365	0.12	968673	keystroke	Key.space	n/a
484.4865	0.06	968973	keystroke	i	n/a
484.5915	0.12	969183	keystroke	n	n/a
484.772	0.089	969544	keystroke	t	n/a
484.891	0.2105	969782	keystroke	e	n/a
485.0115	0.135	970023	keystroke	r	n/a
485.1765	0.105	970353	keystroke	Key.space	n/a
485.2965	0.196	970593	keystroke	o	n/a
485.4465	0.105	970893	keystroke	u	n/a
485.8065	0.12	971613	keystroke	g	n/a
485.8965	0.105	971793	keystroke	h	n/a
486.181	0.09	972362	keystroke	t	n/a
486.976	0.135	973952	keystroke	n	n/a
487.231	0.15	974462	keystroke	'	n/a
487.502	0.104	975004	keystroke	t	n/a
487.636	0.075	975272	keystroke	Key.space	n/a
487.786	0.105	975572	keystroke	w	n/a
487.996	0.09	975992	keystroke	e	n/a
488.101	0.076	976202	keystroke	n	n/a
488.236	0.136	976472	keystroke	d	n/a
488.431	0.135	976862	keystroke	y	n/a
488.551	0.09	977102	keystroke	Key.space	n/a
488.8355	0.045	977671	keystroke	Key.enter	n/a
488.888	14.6015	977776	prompt	n/a	representing hurt rapids gravity\n
490.5005	0.105	981001	keystroke	r	n/a
490.5895	0.12	981179	keystroke	e	n/a
490.8595	0.075	981719	keystroke	p	n/a
491.0105	0.134	982021	keystroke	r	n/a
491.1295	0.075	982259	keystroke	e	n/a
491.3095	0.075	982619	keystroke	s	n/a
491.4455	0.104	982891	keystroke	e	n/a
491.5645	0.061	983129	keystroke	n	n/a
491.6695	0.12	983339	keystroke	d	n/a
491.7595	0.075	983519	keystroke	i	n/a
491.8955	0.059	983791	keystroke	n	n/a
491.9845	0.135	983969	keystroke	g	n/a
492.1045	0.075	984209	keystroke	Key.space	n/a
492.3445	0.075	984689	keystroke	h	n/a
492.5405	0.074	985081	keystroke	u	n/a
492.6745	0.09	985349	keystroke	r	n/a
492.8995	0.09	985799	keystroke	t	n/a
493.0195	0.09	986039	keystroke	Key.space	n/a
493.1705	0.119	986341	keystroke	r	n/a
493.3945	0.09	986789	keystroke	a	n/a
493.4995	0.09	986999	keystroke	p	n/a
493.7405	0.059	987481	keystroke	i	n/a
494.2945	0.075	988589	keystroke	Key.backspace	n/a
494.4595	0.06	988919	keystroke	Key.backspace	n/a
494.6245	0.045	989249	keystroke	Key.backspace	n/a
494.7595	0.06	989519	keystroke	Key.backspace	n/a
494.8795	0.075	989759	keystroke	Key.backspace	n/a
495.0295	0.06	990059	keystroke	Key.backspace	n/a
495.194	0.045	990388	keystroke	Key.backspace	n/a
495.329	0.06	990658	keystroke	Key.backspace	n/a
495.464	0.075	990928	keystroke	Key.backspace	n/a
495.614	0.0745	991228	keystroke	Key.backspace	n/a
495.7485	0.075	991497	keystroke	Key.backspace	n/a
495.9135	0.045	991827	keystroke	Key.backspace	n/a
496.0635	0.045	992127	keystroke	Key.backspace	n/a
496.4535	0.075	992907	keystroke	Key.backspace	n/a
496.964	0.089	993928	keystroke	t	n/a
497.039	0.044	994078	keystroke	i	n/a
497.158	0.0755	994316	keystroke	n	n/a
497.969	0.074	995938	keystroke	g	n/a
498.058	0.09	996116	keystroke	Key.space	n/a
498.388	0.045	996776	keystroke	g	n/a
499.018	0.12	998036	keystroke	Key.backspace	n/a
499.588	0.09	999176	keystroke	h	n/a
499.783	0.09	999566	keystroke	u	n/a
499.903	0.105	999806	keystroke	r	n/a
500.128	0.12	1000256	keystroke	t	n/a
500.2625	0.0755	1000525	keystroke	Key.space	n/a
500.563	0.106	1001126	keystroke	r	n/a
500.968	0.105	1001936	keystroke	a	n/a
501.163	0.06	1002326	keystroke	p	n/a
501.328	0.075	1002656	keystroke	i	n/a
501.493	0.12	1002986	keystroke	d	n/a
501.643	0.1645	1003286	keystroke	s	n/a
501.7925	0.06	1003585	keystroke	Key.space	n/a
501.958	0.075	1003916	keystroke	g	n/a
502.1075	0.09	1004215	keystroke	r	n/a
502.2875	0.12	1004575	keystroke	a	n/a
502.558	0.075	1005116	keystroke	v	n/a
502.648	0.075	1005296	keystroke	i	n/a
502.9325	0.06	1005865	keystroke	t	n/a
503.0225	0.165	1006045	keystroke	y	n/a
503.1425	0.105	1006285	keystroke	Key.space	n/a
503.4275	0.06	1006855	keystroke	Key.enter	n/a
503.4955	7.326	1006991	prompt	n/a	one banner descriptions adopted\n
504.1925	0.06	1008385	keystroke	o	n/a
504.3425	0.06	1008685	keystroke	n	n/a
504.4175	0.105	1008835	keystroke	e	n/a
504.5525	0.075	1009105	keystroke	Key.space	n/a
505.197	0.075	1010394	keystroke	b	n/a
505.347	0.12	1010694	keystroke	a	n/a
505.557	0.045	1011114	keystroke	n	n/a
505.692	0.06	1011384	keystroke	n	n/a
505.902	0.21	1011804	keystroke	e	n/a
506.022	0.15	1012044	keystroke	r	n/a
506.157	0.075	1012314	keystroke	Key.space	n/a
506.487	0.0595	1012974	keystroke	e	n/a
506.8015	0.09	1013603	keystroke	Key.backspace	n/a
506.9515	0.105	1013903	keystroke	d	n/a
507.162	0.075	1014324	keystroke	e	n/a
507.312	0.135	1014624	keystroke	s	n/a
507.5515	0.105	1015103	keystroke	c	n/a
507.7315	0.105	1015463	keystroke	r	n/a
507.8065	0.075	1015613	keystroke	i	n/a
508.0915	0.1045	1016183	keystroke	p	n/a
508.361	0.09	1016722	keystroke	t	n/a
508.481	0.27	1016962	keystroke	i	n/a
508.601	0.18	1017202	keystroke	o	n/a
508.691	0.15	1017382	keystroke	n	n/a
508.856	0.135	1017712	keystroke	s	n/a
508.976	0.075	1017952	keystroke	Key.space	n/a
509.186	0.105	1018372	keystroke	a	n/a
509.426	0.105	1018852	keystroke	d	n/a
509.591	0.09	1019182	keystroke	o	n/a
509.8905	0.06	1019781	keystroke	p	n/a
510.1305	0.09	1020261	keystroke	t	n/a
510.2655	0.12	1020531	keystroke	e	n/a
510.4905	0.105	1020981	keystroke	d	n/a
510.5805	0.075	1021161	keystroke	Key.space	n/a
510.7755	0.045	1021551	keystroke	Key.enter	n/a
510.8285	6.9215	1021657	prompt	n/a	voted manitoba jackson eleven\n
511.495	0.105	1022990	keystroke	v	n/a
511.615	0.075	1023230	keystroke	o	n/a
511.81	0.06	1023620	keystroke	t	n/a
511.915	0.105	1023830	keystroke	e	n/a
512.125	0.12	1024250	keystroke	d	n/a
512.23	0.1945	1024460	keystroke	Key.space	n/a
512.3795	0.135	1024759	keystroke	m	n/a
512.6495	0.12	1025299	keystroke	a	n/a
512.7545	0.075	1025509	keystroke	n	n/a
512.919	0.06	1025838	keystroke	i	n/a
513.758	0.105	1027516	keystroke	t	n/a
513.878	0.0615	1027756	keystroke	o	n/a
514.073	0.09	1028146	keystroke	b	n/a
514.239	0.164	1028478	keystroke	a	n/a
514.373	0.1055	1028746	keystroke	Key.space	n/a
514.5845	0.089	1029169	keystroke	j	n/a
514.7645	0.089	1029529	keystroke	a	n/a
514.9445	0.12	1029889	keystroke	c	n/a
515.0345	0.075	1030069	keystroke	k	n/a
515.168	0.135	1030336	keystroke	s	n/a
515.289	0.134	1030578	keystroke	o	n/a
515.378	0.165	1030756	keystroke	n	n/a
515.513	0.12	1031026	keystroke	Key.space	n/a
515.634	0.105	1031268	keystroke	e	n/a
515.723	0.105	1031446	keystroke	l	n/a
515.874	0.119	1031748	keystroke	e	n/a
516.969	0.104	1033938	keystroke	v	n/a
517.148	0.12	1034296	keystroke	e	n/a
517.284	0.194	1034568	keystroke	n	n/a
517.508	0.18	1035016	keystroke	Key.space	n/a
517.658	0.09	1035316	keystroke	Key.enter	n/a
517.755	9.3395	1035510	prompt	n/a	habitat bradford rabbit announcement\n
518.604	0.06	1037208	keystroke	b	n/a
518.753	0.091	1037506	keystroke	a	n/a
520.059	0.089	1040118	keystroke	Key.backspace	n/a
520.208	0.075	1040416	keystroke	Key.backspace	n/a
520.448	0.091	1040896	keystroke	h	n/a
520.614	0.074	1041228	keystroke	a	n/a
520.853	0.105	1041706	keystroke	b	n/a
520.959	0.059	1041918	keystroke	i	n/a
521.259	0.089	1042518	keystroke	t	n/a
521.453	0.225	1042906	keystroke	a	n/a
521.663	0.09	1043326	keystroke	t	n/a
521.813	0.0895	1043626	keystroke	Key.space	n/a
522.0225	0.075	1044045	keystroke	b	n/a
522.2025	0.09	1044405	keystroke	r	n/a
522.353	0.1655	1044706	keystroke	a	n/a
522.5475	0.105	1045095	keystroke	d	n/a
522.8475	0.106	1045695	keystroke	f	n/a
522.9535	0.074	1045907	keystroke	o	n/a
523.0435	0.089	1046087	keystroke	r	n/a
523.2385	0.104	1046477	keystroke	d	n/a
523.3725	0.12	1046745	keystroke	Key.space	n/a
523.5385	0.134	1047077	keystroke	r	n/a
523.7475	0.12	1047495	keystroke	a	n/a
524.003	0.06	1048006	keystroke	b	n/a
524.152	0.075	1048304	keystroke	b	n/a
524.243	0.104	1048486	keystroke	i	n/a
524.422	0.12	1048844	keystroke	t	n/a
524.527	0.09	1049054	keystroke	Key.space	n/a
524.752	0.106	1049504	keystroke	a	n/a
524.917	0.075	1049834	keystroke	n	n/a
525.053	0.105	1050106	keystroke	n	n/a
525.172	0.1195	1050344	keystroke	o	n/a
525.533	0.105	1051066	keystroke	u	n/a
525.788	0.075	1051576	keystroke	n	n/a
525.968	0.1035	1051936	keystroke	c	n/a
526.1465	0.105	1052293	keystroke	e	n/a
526.2375	0.089	1052475	keystroke	m	n/a
526.4015	0.195	1052803	keystroke	e	n/a
526.4915	0.12	1052983	keystroke	n	n/a
526.7325	0.029	1053465	keystroke	t	n/a
526.8065	0.09	1053613	keystroke	Key.space	n/a
527.0315	0.06	1054063	keystroke	Key.enter	n/a
527.1005	7.1465	1054201	prompt	n/a	spyware second trusts horizontal\n
527.9015	0.091	1055803	keystroke	s	n/a
528.2315	0.1505	1056463	keystroke	p	n/a
528.471	0.061	1056942	keystroke	y	n/a
528.817	0.059	1057634	keystroke	w	n/a
528.982	0.21	1057964	keystroke	a	n/a
529.161	0.18	1058322	keystroke	r	n/a
529.282	0.15	1058564	keystroke	e	n/a
529.432	0.089	1058864	keystroke	Key.space	n/a
529.596	0.091	1059192	keystroke	s	n/a
529.746	0.075	1059492	keystroke	e	n/a
529.957	0.104	1059914	keystroke	c	n/a
530.002	0.105	1060004	keystroke	o	n/a
530.137	0.089	1060274	keystroke	n	n/a
530.271	0.12	1060542	keystroke	d	n/a
530.376	0.06	1060752	keystroke	Key.space	n/a
530.557	0.059	1061114	keystroke	t	n/a
530.707	0.0885	1061414	keystroke	r	n/a
530.7815	0.089	1061563	keystroke	u	n/a
530.9315	0.135	1061863	keystroke	s	n/a
