onset	duration	sample	value	key	prompt_text
1.58	16.2215	3160	prompt	n/a	the quick brown fox jumps over a lazy dog\n
3.848	0.0295	7696	keystroke_t	t	n/a
3.919	0.062	7838	keystroke_h	h	n/a
3.981	0.105	7962	keystroke_e	e	n/a
4.094	0.127	8188	keystroke_Key.space	Key.space	n/a
4.429	0.0875	8858	keystroke_q	q	n/a
4.9365	0.087	9873	keystroke_u	u	n/a
5.1015	0.088	10203	keystroke_i	i	n/a
5.356	0.089	10712	keystroke_c	c	n/a
5.463	0.1795	10926	keystroke_k	k	n/a
5.6105	0.0765	11221	keystroke_Key.space	Key.space	n/a
5.7755	0.0765	11551	keystroke_b	b	n/a
5.9715	0.075	11943	keystroke_r	r	n/a
6.0615	0.0595	12123	keystroke_o	o	n/a
6.181	0.09	12362	keystroke_w	w	n/a
6.256	0.1495	12512	keystroke_n	n	n/a
6.3905	0.09	12781	keystroke_Key.space	Key.space	n/a
6.615	0.09	13230	keystroke_f	f	n/a
6.6895	0.06	13379	keystroke_o	o	n/a
6.8845	0.0895	13769	keystroke_x	x	n/a
7.109	0.0785	14218	keystroke_Key.space	Key.space	n/a
7.3705	0.0805	14741	keystroke_j	j	n/a
7.586	0.0765	15172	keystroke_p	p	n/a
7.9	0.089	15800	keystroke_m	m	n/a
8.1245	0.06	16249	keystroke_p	p	n/a
8.3345	0.075	16669	keystroke_s	s	n/a
8.454	0.06	16908	keystroke_Key.space	Key.space	n/a
9.1115	0.075	18223	keystroke_Key.backspace	Key.backspace	n/a
9.2785	0.045	18557	keystroke_Key.backspace	Key.backspace	n/a
9.427	0.075	18854	keystroke_Key.backspace	Key.backspace	n/a
9.6225	0.03	19245	keystroke_Key.backspace	Key.backspace	n/a
9.7725	0.09	19545	keystroke_Key.backspace	Key.backspace	n/a
10.1315	0.091	20263	keystroke_u	u	n/a
10.4165	0.135	20833	keystroke_m	m	n/a
10.626	0.104	21252	keystroke_p	p	n/a
10.8505	0.075	21701	keystroke_s	s	n/a
10.969	0.09	21938	keystroke_Key.space	Key.space	n/a
11.075	0.0745	22150	keystroke_o	o	n/a
11.2085	0.136	22417	keystroke_v	v	n/a
11.3585	0.195	22717	keystroke_e	e	n/a
11.508	0.1495	23016	keystroke_r	r	n/a
11.5825	0.06	23165	keystroke_Key.space	Key.space	n/a
11.7785	0.1065	23557	keystroke_a	a	n/a
11.822	0.1245	23644	keystroke_Key.space	Key.space	n/a
11.9325	0.104	23865	keystroke_l	l	n/a
12.0975	0.1045	24195	keystroke_a	a	n/a
12.8175	0.1505	25635	keystroke_z	z	n/a
13.2225	0.0745	26445	keystroke_Key.space	Key.space	n/a
14.0635	0.06	28127	keystroke_=	=	n/a
15.143	0.105	30286	keystroke_Key.backspace	Key.backspace	n/a
15.413	0.1205	30826	keystroke_Key.backspace	Key.backspace	n/a
16.643	0.1495	33286	keystroke_y	y	n/a
16.7625	0.1195	33525	keystroke_Key.space	Key.space	n/a
17.003	0.1185	34006	keystroke_d	d	n/a
17.0915	0.09	34183	keystroke_o	o	n/a
17.391	0.075	34782	keystroke_g	g	n/a
17.496	0.076	34992	keystroke_Key.space	Key.space	n/a
17.722	0.0745	35444	keystroke_Key.enter	Key.enter	n/a
17.8085	8.5335	35617	prompt	n/a	transactions acrylic sides quit\n
19.2355	0.06	38471	keystroke_t	t	n/a
19.385	0.091	38770	keystroke_r	r	n/a
19.52	0.1525	39040	keystroke_a	a	n/a
19.7165	0.091	39433	keystroke_n	n	n/a
20.031	0.076	40062	keystroke_s	s	n/a
20.242	0.12	40484	keystroke_a	a	n/a
20.4665	0.1365	40933	keystroke_c	c	n/a
20.707	0.09	41414	keystroke_t	t	n/a
20.843	0.0735	41686	keystroke_i	i	n/a
20.9615	0.091	41923	keystroke_o	o	n/a
21.098	0.0755	42196	keystroke_n	n	n/a
21.262	0.105	42524	keystroke_s	s	n/a
21.382	0.075	42764	keystroke_Key.space	Key.space	n/a
21.847	0.089	43694	keystroke_a	a	n/a
22.0405	0.1355	44081	keystroke_c	c	n/a
22.2805	0.089	44561	keystroke_r	r	n/a
22.4	0.0745	44800	keystroke_y	y	n/a
22.6225	0.017	45245	keystroke_l	l	n/a
22.6515	0.04	45303	keystroke_i	i	n/a
22.748	0.004	45496	keystroke_c	c	n/a
22.7555	0.048	45511	keystroke_Key.space	Key.space	n/a
22.8285	0.095	45657	keystroke_s	s	n/a
23.1365	0.05	46273	keystroke_i	i	n/a
23.306	0.045	46612	keystroke_l	l	n/a
23.7405	0.0295	47481	keystroke_Key.backspace	Key.backspace	n/a
24.2345	0.09	48469	keystroke_d	d	n/a
24.444	0.09	48888	keystroke_e	e	n/a
24.669	0.0905	49338	keystroke_s	s	n/a
24.7435	0.095	49487	keystroke_Key.space	Key.space	n/a
25.0185	0.0895	50037	keystroke_q	q	n/a
25.5455	0.075	51091	keystroke_u	u	n/a
25.7105	0.09	51421	keystroke_i	i	n/a
25.951	0.105	51902	keystroke_t	t	n/a
26.071	0.0745	52142	keystroke_Key.space	Key.space	n/a
26.2655	0.075	52531	keystroke_Key.enter	Key.enter	n/a
26.348	12.369	52696	prompt	n/a	analyze chemistry favorite anticipated\n
27.002	0.09	54004	keystroke_a	a	n/a
27.137	0.075	54274	keystroke_n	n	n/a
27.287	0.1345	54574	keystroke_a	a	n/a
27.452	0.12	54904	keystroke_l	l	n/a
27.7065	0.06	55413	keystroke_y	y	n/a
28.337	0.1195	56674	keystroke_z	z	n/a
28.921	0.12	57842	keystroke_e	e	n/a
29.146	0.0595	58292	keystroke_Key.space	Key.space	n/a
29.521	0.105	59042	keystroke_c	c	n/a
29.641	0.075	59282	keystroke_h	h	n/a
29.746	0.075	59492	keystroke_e	e	n/a
29.9565	0.089	59913	keystroke_m	m	n/a
30.5105	0.06	61021	keystroke_i	i	n/a
30.6305	0.1645	61261	keystroke_s	s	n/a
30.9	0.075	61800	keystroke_t	t	n/a
31.08	0.0745	62160	keystroke_r	r	n/a
31.2595	0.105	62519	keystroke_y	y	n/a
31.3495	0.1205	62699	keystroke_Key.space	Key.space	n/a
31.5	0.105	63000	keystroke_f	f	n/a
31.8445	0.015	63689	keystroke_a	a	n/a
31.8745	0.1215	63749	keystroke_m	m	n/a
32.3405	0.105	64681	keystroke_Key.backspace	Key.backspace	n/a
32.7	0.15	65400	keystroke_v	v	n/a
32.835	0.06	65670	keystroke_o	o	n/a
33.0445	0.1045	66089	keystroke_r	r	n/a
33.164	0.045	66328	keystroke_i	i	n/a
33.329	0.105	66658	keystroke_t	t	n/a
33.494	0.121	66988	keystroke_e	e	n/a
33.66	0.09	67320	keystroke_Key.space	Key.space	n/a
33.84	0.105	67680	keystroke_a	a	n/a
33.96	0.06	67920	keystroke_n	n	n/a
34.185	0.105	68370	keystroke_t	t	n/a
34.305	0.06	68610	keystroke_i	i	n/a
34.5745	0.0915	69149	keystroke_c	c	n/a
34.786	0.1195	69572	keystroke_a	a	n/a
35.701	0.075	71402	keystroke_Key.backspace	Key.backspace	n/a
36.4955	0.0895	72991	keystroke_i	i	n/a
36.69	0.12	73380	keystroke_c	c	n/a
37.199	0.105	74398	keystroke_Key.backspace	Key.backspace	n/a
37.619	0.0745	75238	keystroke_p	p	n/a
37.813	0.105	75626	keystroke_a	a	n/a
38.0675	0.12	76135	keystroke_t	t	n/a
38.279	0.045	76558	keystroke_e	e	n/a
38.43	0.0885	76860	keystroke_d	d	n/a
38.6235	0.09	77247	keystroke_Key.enter	Key.enter	n/a
38.7255	8.4505	77451	prompt	n/a	firewire movements namespace jake\n
40.834	0.0425	81668	keystroke_f	f	n/a
40.846	0.105	81692	keystroke_i	i	n/a
40.966	0.12	81932	keystroke_r	r	n/a
41.057	0.134	82114	keystroke_e	e	n/a
41.3575	0.119	82715	keystroke_w	w	n/a
41.4625	0.089	82925	keystroke_i	i	n/a
41.626	0.135	83252	keystroke_r	r	n/a
41.746	0.12	83492	keystroke_e	e	n/a
41.911	0.075	83822	keystroke_Key.space	Key.space	n/a
42.046	0.12	84092	keystroke_m	m	n/a
42.136	0.1045	84272	keystroke_o	o	n/a
42.2705	0.136	84541	keystroke_v	v	n/a
42.3905	0.091	84781	keystroke_e	e	n/a
42.5115	0.089	85023	keystroke_m	m	n/a
42.6605	0.135	85321	keystroke_e	e	n/a
42.7505	0.075	85501	keystroke_n	n	n/a
42.932	0.089	85864	keystroke_t	t	n/a
43.141	0.105	86282	keystroke_s	s	n/a
43.291	0.06	86582	keystroke_Key.space	Key.space	n/a
43.457	0.089	86914	keystroke_n	n	n/a
43.591	0.1045	87182	keystroke_a	a	n/a
43.7115	0.089	87423	keystroke_m	m	n/a
43.8155	0.075	87631	keystroke_e	e	n/a
43.9655	0.105	87931	keystroke_s	s	n/a
44.656	0.074	89312	keystroke_p	p	n/a
45.09	0.091	90180	keystroke_a	a	n/a
45.27	0.1045	90540	keystroke_c	c	n/a
45.4795	0.1195	90959	keystroke_e	e	n/a
45.614	0.075	91228	keystroke_Key.space	Key.space	n/a
45.78	0.089	91560	keystroke_j	j	n/a
46.0635	0.0595	92127	keystroke_k	k	n/a
46.467	0.1055	92934	keystroke_Key.backspace	Key.backspace	n/a
46.6435	0.104	93287	keystroke_a	a	n/a
46.7625	0.134	93525	keystroke_k	k	n/a
46.9075	0.087	93815	keystroke_e	e	n/a
47.0095	0.0765	94019	keystroke_Key.space	Key.space	n/a
47.144	0.029	94288	keystroke_Key.enter	Key.enter	n/a
47.1795	4.2635	94359	prompt	n/a	recorded oaks music appears\n
47.62	0.133	95240	keystroke_r	r	n/a
47.7085	0.1345	95417	keystroke_e	e	n/a
47.977	0.1055	95954	keystroke_c	c	n/a
48.0675	0.09	96135	keystroke_o	o	n/a
48.187	0.1365	96374	keystroke_r	r	n/a
48.342	0.0455	96684	keystroke_d	d	n/a
48.449	0.067	96898	keystroke_e	e	n/a
48.6665	0.0515	97333	keystroke_d	d	n/a
48.751	0.0385	97502	keystroke_Key.space	Key.space	n/a
48.894	0.0055	97788	keystroke_o	o	n/a
48.9605	0.0455	97921	keystroke_a	a	n/a
49.076	0.073	98152	keystroke_k	k	n/a
49.216	0.026	98432	keystroke_s	s	n/a
49.2515	0.004	98503	keystroke_Key.space	Key.space	n/a
49.3	0.054	98600	keystroke_m	m	n/a
49.428	0.0175	98856	keystroke_u	u	n/a
49.488	0.04	98976	keystroke_s	s	n/a
49.5235	0.028	99047	keystroke_i	i	n/a
49.575	0.0485	99150	keystroke_c	c	n/a
49.6235	0.012	99247	keystroke_Key.space	Key.space	n/a
49.672	0.0165	99344	keystroke_a	a	n/a
49.7025	0.019	99405	keystroke_p	p	n/a
49.901	0.0145	99802	keystroke_p	p	n/a
50.126	0.15	100252	keystroke_e	e	n/a
50.711	0.196	101422	keystroke_a	a	n/a
50.937	0.104	101874	keystroke_r	r	n/a
51.1675	0.1085	102335	keystroke_s	s	n/a
51.366	0.075	102732	keystroke_Key.enter	Key.enter	n/a
51.4485	6.093	102897	prompt	n/a	success terrain width feat\n
52.1045	0.107	104209	keystroke_s	s	n/a
52.2415	0.075	104483	keystroke_u	u	n/a
52.3765	0.105	104753	keystroke_c	c	n/a
52.5265	0.104	105053	keystroke_c	c	n/a
52.7375	0.075	105475	keystroke_e	e	n/a
52.9315	0.031	105863	keystroke_s	s	n/a
53.0525	0.09	106105	keystroke_s	s	n/a
53.1875	0.1045	106375	keystroke_Key.space	Key.space	n/a
53.397	0.12	106794	keystroke_t	t	n/a
54.072	0.135	108144	keystroke_e	e	n/a
54.312	0.06	108624	keystroke_r	r	n/a
54.432	0.09	108864	keystroke_r	r	n/a
54.672	0.105	109344	keystroke_a	a	n/a
54.792	0.105	109584	keystroke_i	i	n/a
55.002	0.075	110004	keystroke_n	n	n/a
55.182	0.06	110364	keystroke_Key.space	Key.space	n/a
55.287	0.1205	110574	keystroke_w	w	n/a
55.4225	0.06	110845	keystroke_i	i	n/a
55.7525	0.09	111505	keystroke_d	d	n/a
56.0975	0.09	112195	keystroke_t	t	n/a
56.2325	0.195	112465	keystroke_h	h	n/a
56.3675	0.12	112735	keystroke_Key.space	Key.space	n/a
56.6075	0.165	113215	keystroke_f	f	n/a
56.7875	0.1945	113575	keystroke_e	e	n/a
56.997	0.18	113994	keystroke_a	a	n/a
57.238	0.105	114476	keystroke_t	t	n/a
57.4475	0.09	114895	keystroke_Key.enter	Key.enter	n/a
57.5495	7.7145	115099	prompt	n/a	help emergency reliance descending\n
58.3185	0.089	116637	keystroke_h	h	n/a
58.467	0.1065	116934	keystroke_e	e	n/a
58.5435	0.089	117087	keystroke_l	l	n/a
58.7075	0.136	117415	keystroke_p	p	n/a
58.8575	0.1045	117715	keystroke_Key.space	Key.space	n/a
59.068	0.089	118136	keystroke_e	e	n/a
59.187	0.09	118374	keystroke_m	m	n/a
59.337	0.1945	118674	keystroke_e	e	n/a
59.4865	0.106	118973	keystroke_r	r	n/a
59.7265	0.075	119453	keystroke_g	g	n/a
59.9365	0.1195	119873	keystroke_e	e	n/a
60.371	0.09	120742	keystroke_c	c	n/a
60.9405	0.0905	121881	keystroke_Key.backspace	Key.backspace	n/a
61.241	0.076	122482	keystroke_n	n	n/a
61.451	0.12	122902	keystroke_c	c	n/a
61.6915	0.1645	123383	keystroke_y	y	n/a
61.8265	0.1195	123653	keystroke_Key.space	Key.space	n/a
62.126	0.1045	124252	keystroke_r	r	n/a
62.2005	0.135	124401	keystroke_e	e	n/a
62.2905	0.076	124581	keystroke_l	l	n/a
62.5005	0.045	125001	keystroke_i	i	n/a
62.667	0.119	125334	keystroke_a	a	n/a
62.8455	0.06	125691	keystroke_n	n	n/a
62.9505	0.091	125901	keystroke_c	c	n/a
63.1605	0.1195	126321	keystroke_e	e	n/a
63.295	0.075	126590	keystroke_Key.space	Key.space	n/a
63.49	0.09	126980	keystroke_d	d	n/a
63.685	0.1065	127370	keystroke_e	e	n/a
63.8505	0.135	127701	keystroke_s	s	n/a
64.0755	0.091	128151	keystroke_c	c	n/a
64.2855	0.0905	128571	keystroke_e	e	n/a
64.391	0.045	128782	keystroke_n	n	n/a
64.557	0.134	129114	keystroke_d	d	n/a
64.661	0.06	129322	keystroke_i	i	n/a
64.8415	0.03	129683	keystroke_n	n	n/a
64.9165	0.12	129833	keystroke_g	g	n/a
65.0515	0.105	130103	keystroke_Key.space	Key.space	n/a
65.1865	0.075	130373	keystroke_Key.enter	Key.enter	n/a
65.271	9.3215	130542	prompt	n/a	coordinates where're honolulu omissions\n
65.9975	0.105	131995	keystroke_c	c	n/a
66.1775	0.045	132355	keystroke_o	o	n/a
66.2975	0.0745	132595	keystroke_o	o	n/a
66.4775	0.09	132955	keystroke_r	r	n/a
66.8075	0.12	133615	keystroke_d	d	n/a
66.9125	0.075	133825	keystroke_i	i	n/a
67.0925	0.15	134185	keystroke_a	a	n/a
67.947	0.06	135894	keystroke_Key.backspace	Key.backspace	n/a
68.172	0.075	136344	keystroke_n	n	n/a
68.322	0.119	136644	keystroke_a	a	n/a
68.591	0.12	137182	keystroke_t	t	n/a
68.741	0.12	137482	keystroke_e	e	n/a
68.921	0.1355	137842	keystroke_s	s	n/a
69.0265	0.105	138053	keystroke_Key.space	Key.space	n/a
69.2965	0.135	138593	keystroke_w	w	n/a
69.3865	0.075	138773	keystroke_h	h	n/a
69.4915	0.195	138983	keystroke_e	e	n/a
69.6715	0.135	139343	keystroke_r	r	n/a
69.7765	0.105	139553	keystroke_e	e	n/a
69.9265	0.121	139853	keystroke_'	'	n/a
70.2725	0.1205	140545	keystroke_r	r	n/a
70.3475	0.1805	140695	keystroke_e	e	n/a
70.5575	0.09	141115	keystroke_Key.space	Key.space	n/a
71.052	0.0745	142104	keystroke_h	h	n/a
71.1565	0.09	142313	keystroke_o	o	n/a
71.352	0.0745	142704	keystroke_n	n	n/a
71.5015	0.075	143003	keystroke_o	o	n/a
71.7415	0.06	143483	keystroke_l	l	n/a
71.9515	0.075	143903	keystroke_u	u	n/a
72.3105	0.105	144621	keystroke_l	l	n/a
72.5805	0.104	145161	keystroke_u	u	n/a
72.7145	0.105	145429	keystroke_Key.space	Key.space	n/a
72.8645	0.09	145729	keystroke_o	o	n/a
73.1045	0.075	146209	keystroke_m	m	n/a
73.224	0.0905	146448	keystroke_m	m	n/a
73.3895	0.075	146779	keystroke_i	i	n/a
73.6145	0.06	147229	keystroke_s	s	n/a
73.765	0.075	147530	keystroke_s	s	n/a
73.915	0.315	147830	keystroke_i	i	n/a
74.065	0.1805	148130	keystroke_o	o	n/a
74.17	0.1055	148340	keystroke_n	n	n/a
74.3355	0.12	148671	keystroke_s	s	n/a
74.5005	0.09	149001	keystroke_Key.enter	Key.enter	n/a
74.5965	7.3325	149193	prompt	n/a	vancouver hint single lately\n
75.4465	0.105	150893	keystroke_v	v	n/a
75.6265	0.105	151253	keystroke_a	a	n/a
76.2565	0.075	152513	keystroke_n	n	n/a
76.4215	0.12	152843	keystroke_c	c	n/a
76.5425	0.194	153085	keystroke_o	o	n/a
76.6765	0.09	153353	keystroke_u	u	n/a
76.9315	0.165	153863	keystroke_v	v	n/a
77.1265	0.2705	154253	keystroke_e	e	n/a
77.3215	0.1505	154643	keystroke_r	r	n/a
77.517	0.09	155034	keystroke_Key.space	Key.space	n/a
78.1915	0.06	156383	keystroke_h	h	n/a
78.2965	0.12	156593	keystroke_i	i	n/a
78.521	0.06	157042	keystroke_n	n	n/a
78.821	0.135	157642	keystroke_t	t	n/a
78.971	0.075	157942	keystroke_Key.space	Key.space	n/a
79.166	0.12	158332	keystroke_s	s	n/a
79.226	0.075	158452	keystroke_i	i	n/a
79.436	0.03	158872	keystroke_n	n	n/a
79.541	0.09	159082	keystroke_g	g	n/a
79.691	0.075	159382	keystroke_l	l	n/a
79.841	0.105	159682	keystroke_e	e	n/a
79.991	0.0605	159982	keystroke_Key.space	Key.space	n/a
80.4865	0.0745	160973	keystroke_l	l	n/a
80.636	0.1355	161272	keystroke_a	a	n/a
80.8915	0.12	161783	keystroke_t	t	n/a
81.0415	0.1205	162083	keystroke_e	e	n/a
81.177	0.075	162354	keystroke_l	l	n/a
81.462	0.165	162924	keystroke_y	y	n/a
81.597	0.12	163194	keystroke_Key.space	Key.space	n/a
81.8525	0.0745	163705	keystroke_Key.enter	Key.enter	n/a
81.9335	10.422	163867	prompt	n/a	thanksgiving vegetation implied dictionaries\n
82.8125	0.074	165625	keystroke_t	t	n/a
82.9915	0.15	165983	keystroke_a	a	n/a
83.712	0.0905	167424	keystroke_Key.backspace	Key.backspace	n/a
83.9525	0.0745	167905	keystroke_h	h	n/a
84.102	0.1365	168204	keystroke_a	a	n/a
84.2075	0.105	168415	keystroke_n	n	n/a
84.327	0.105	168654	keystroke_k	k	n/a
84.507	0.105	169014	keystroke_s	s	n/a
85.092	0.06	170184	keystroke_g	g	n/a
85.212	0.06	170424	keystroke_i	i	n/a
85.362	0.09	170724	keystroke_v	v	n/a
85.468	0.044	170936	keystroke_i	i	n/a
85.618	0.059	171236	keystroke_n	n	n/a
85.722	0.12	171444	keystroke_g	g	n/a
86.202	0.09	172404	keystroke_Key.space	Key.space	n/a
86.382	0.135	172764	keystroke_v	v	n/a
86.622	0.1055	173244	keystroke_e	e	n/a
86.9525	0.075	173905	keystroke_g	g	n/a
87.1775	0.09	174355	keystroke_e	e	n/a
87.4185	0.1035	174837	keystroke_t	t	n/a
87.657	0.12	175314	keystroke_a	a	n/a
87.912	0.0605	175824	keystroke_t	t	n/a
88.0635	0.059	176127	keystroke_i	i	n/a
88.2275	0.061	176455	keystroke_o	o	n/a
88.408	0.075	176816	keystroke_n	n	n/a
88.528	0.1195	177056	keystroke_Key.space	Key.space	n/a
88.6635	0.104	177327	keystroke_i	i	n/a
88.8425	0.09	177685	keystroke_m	m	n/a
89.0385	0.059	178077	keystroke_p	p	n/a
89.2185	0.0745	178437	keystroke_l	l	n/a
89.353	0.061	178706	keystroke_i	i	n/a
89.503	0.0895	179006	keystroke_e	e	n/a
89.7135	0.134	179427	keystroke_d	d	n/a
89.8485	0.074	179697	keystroke_Key.space	Key.space	n/a
90.1025	0.1205	180205	keystroke_d	d	n/a
90.208	0.075	180416	keystroke_i	i	n/a
90.388	0.12	180776	keystroke_c	c	n/a
90.6575	0.09	181315	keystroke_t	t	n/a
90.7775	0.075	181555	keystroke_i	i	n/a
90.9275	0.075	181855	keystroke_o	o	n/a
91.1075	0.06	182215	keystroke_n	n	n/a
91.2425	0.12	182485	keystroke_a	a	n/a
91.498	0.09	182996	keystroke_r	r	n/a
91.603	0.045	183206	keystroke_i	i	n/a
91.708	0.12	183416	keystroke_e	e	n/a
91.933	0.12	183866	keystroke_s	s	n/a
92.068	0.075	184136	keystroke_Key.space	Key.space	n/a
92.2475	0.104	184495	keystroke_Key.enter	Key.enter	n/a
92.3605	9.204	184721	prompt	n/a	veterinary francisco actor citizenship\n
93.0425	0.105	186085	keystroke_v	v	n/a
93.2525	0.09	186505	keystroke_e	e	n/a
93.5225	0.12	187045	keystroke_t	t	n/a
94.5725	0.15	189145	keystroke_e	e	n/a
94.857	0.105	189714	keystroke_r	r	n/a
95.022	0.075	190044	keystroke_i	i	n/a
95.218	0.073	190436	keystroke_n	n	n/a
95.381	0.105	190762	keystroke_a	a	n/a
95.6205	0.091	191241	keystroke_r	r	n/a
95.816	0.134	191632	keystroke_y	y	n/a
95.92	0.135	191840	keystroke_Key.space	Key.space	n/a
96.071	0.119	192142	keystroke_f	f	n/a
96.28	0.09	192560	keystroke_r	r	n/a
96.461	0.134	192922	keystroke_a	a	n/a
96.581	0.075	193162	keystroke_n	n	n/a
96.836	0.105	193672	keystroke_c	c	n/a
96.956	0.076	193912	keystroke_i	i	n/a
97.076	0.12	194152	keystroke_s	s	n/a
97.4215	0.121	194843	keystroke_c	c	n/a
97.5265	0.091	195053	keystroke_o	o	n/a
97.6915	0.09	195383	keystroke_Key.space	Key.space	n/a
97.9315	0.12	195863	keystroke_a	a	n/a
98.3965	0.15	196793	keystroke_c	c	n/a
98.7265	0.075	197453	keystroke_t	t	n/a
98.8315	0.06	197663	keystroke_o	o	n/a
98.9675	0.09	197935	keystroke_r	r	n/a
99.0875	0.075	198175	keystroke_Key.space	Key.space	n/a
99.2825	0.09	198565	keystroke_c	c	n/a
99.3875	0.075	198775	keystroke_i	i	n/a
99.612	0.09	199224	keystroke_t	t	n/a
99.7325	0.06	199465	keystroke_i	i	n/a
99.9575	0.1045	199915	keystroke_z	z	n/a
100.197	0.09	200394	keystroke_e	e	n/a
100.302	0.075	200604	keystroke_n	n	n/a
100.482	0.12	200964	keystroke_s	s	n/a
100.617	0.075	201234	keystroke_h	h	n/a
100.752	0.105	201504	keystroke_i	i	n/a
100.977	0.075	201954	keystroke_p	p	n/a
101.1415	0.075	202283	keystroke_Key.space	Key.space	n/a
101.4715	0.09	202943	keystroke_Key.enter	Key.enter	n/a
101.5705	9.7295	203141	prompt	n/a	enlargement neural sponsored music\n
102.221	0.0905	204442	keystroke_e	e	n/a
102.5065	0.09	205013	keystroke_n	n	n/a
102.7465	0.0755	205493	keystroke_l	l	n/a
102.912	0.15	205824	keystroke_a	a	n/a
103.122	0.09	206244	keystroke_r	r	n/a
103.5275	0.105	207055	keystroke_g	g	n/a
104.563	0.09	209126	keystroke_e	e	n/a
104.7425	0.075	209485	keystroke_m	m	n/a
104.8775	0.165	209755	keystroke_e	e	n/a
104.9975	0.06	209995	keystroke_n	n	n/a
105.1775	0.105	210355	keystroke_t	t	n/a
105.2975	0.075	210595	keystroke_Key.space	Key.space	n/a
105.4475	0.09	210895	keystroke_n	n	n/a
105.5825	0.09	211165	keystroke_e	e	n/a
105.792	0.06	211584	keystroke_u	u	n/a
105.9875	0.0905	211975	keystroke_r	r	n/a
106.783	0.12	213566	keystroke_a	a	n/a
106.933	0.09	213866	keystroke_l	l	n/a
107.098	0.105	214196	keystroke_Key.space	Key.space	n/a
107.398	0.105	214796	keystroke_s	s	n/a
107.578	0.075	215156	keystroke_p	p	n/a
107.7435	0.0895	215487	keystroke_o	o	n/a
107.908	0.06	215816	keystroke_n	n	n/a
108.028	0.12	216056	keystroke_s	s	n/a
108.148	0.075	216296	keystroke_o	o	n/a
108.508	0.09	217016	keystroke_r	r	n/a
108.599	0.149	217198	keystroke_e	e	n/a
108.853	0.09	217706	keystroke_d	d	n/a
108.958	0.09	217916	keystroke_Key.space	Key.space	n/a
109.333	0.105	218666	keystroke_m	m	n/a
109.483	0.0905	218966	keystroke_o	o	n/a
110.173	0.075	220346	keystroke_Key.backspace	Key.backspace	n/a
110.428	0.0595	220856	keystroke_u	u	n/a
110.5775	0.12	221155	keystroke_s	s	n/a
110.6825	0.09	221365	keystroke_i	i	n/a
111.012	0.105	222024	keystroke_c	c	n/a
111.207	0.09	222414	keystroke_Key.enter	Key.enter	n/a
111.3065	6.338	222613	prompt	n/a	bids seeking lighter hebrew\n
112.2115	0.075	224423	keystroke_b	b	n/a
112.3315	0.06	224663	keystroke_i	i	n/a
112.4965	0.12	224993	keystroke_d	d	n/a
112.7075	0.089	225415	keystroke_s	s	n/a
112.8415	0.09	225683	keystroke_Key.space	Key.space	n/a
113.0215	0.091	226043	keystroke_s	s	n/a
113.217	0.074	226434	keystroke_e	e	n/a
113.351	0.09	226702	keystroke_e	e	n/a
113.471	0.075	226942	keystroke_k	k	n/a
113.621	0.075	227242	keystroke_i	i	n/a
113.787	0.059	227574	keystroke_n	n	n/a
113.862	0.104	227724	keystroke_g	g	n/a
113.981	0.105	227962	keystroke_Key.space	Key.space	n/a
114.102	0.104	228204	keystroke_l	l	n/a
114.176	0.106	228352	keystroke_i	i	n/a
114.341	0.075	228682	keystroke_g	g	n/a
114.462	0.059	228924	keystroke_h	h	n/a
114.732	0.061	229464	keystroke_t	t	n/a
114.852	0.195	229704	keystroke_e	e	n/a
115.002	0.121	230004	keystroke_r	r	n/a
115.152	0.075	230304	keystroke_Key.space	Key.space	n/a
115.3025	0.075	230605	keystroke_h	h	n/a
115.4685	0.104	230937	keystroke_e	e	n/a
116.0225	0.061	232045	keystroke_b	b	n/a
116.2325	0.09	232465	keystroke_r	r	n/a
116.3975	0.135	232795	keystroke_w	w	n/a
116.863	0.1045	233726	keystroke_Key.backspace	Key.backspace	n/a
116.9975	0.18	233995	keystroke_e	e	n/a
117.1325	0.165	234265	keystroke_w	w	n/a
117.3275	0.09	234655	keystroke_Key.space	Key.space	n/a
117.5375	0.105	235075	keystroke_Key.enter	Key.enter	n/a
117.6495	4.932	235299	prompt	n/a	unique below wider allow\n
118.4085	0.0755	236817	keystroke_u	u	n/a
118.618	0.09	237236	keystroke_n	n	n/a
118.753	0.075	237506	keystroke_i	i	n/a
118.948	0.121	237896	keystroke_q	q	n/a
119.113	0.075	238226	keystroke_u	u	n/a
119.264	0.104	238528	keystroke_e	e	n/a
119.398	0.1045	238796	keystroke_Key.space	Key.space	n/a
119.653	0.075	239306	keystroke_b	b	n/a
119.788	0.105	239576	keystroke_e	e	n/a
119.923	0.076	239846	keystroke_l	l	n/a
120.103	0.075	240206	keystroke_o	o	n/a
120.239	0.119	240478	keystroke_w	w	n/a
120.388	0.09	240776	keystroke_Key.space	Key.space	n/a
120.659	0.089	241318	keystroke_w	w	n/a
120.764	0.044	241528	keystroke_i	i	n/a
120.943	0.1205	241886	keystroke_d	d	n/a
121.139	0.254	242278	keystroke_e	e	n/a
121.319	0.149	242638	keystroke_r	r	n/a
121.483	0.0745	242966	keystroke_Key.space	Key.space	n/a
121.6635	0.0895	243327	keystroke_a	a	n/a
121.769	0.029	243538	keystroke_l	l	n/a
121.889	0.059	243778	keystroke_l	l	n/a
122.0525	0.075	244105	keystroke_o	o	n/a
122.1735	0.1345	244347	keystroke_w	w	n/a
122.323	0.06	244646	keystroke_Key.space	Key.space	n/a
122.518	0.0595	245036	keystroke_Key.enter	Key.enter	n/a
122.587	16.0735	245174	prompt	n/a	pennsylvania intent naughty oscar\n
123.3585	0.074	246717	keystroke_p	p	n/a
123.4635	0.104	246927	keystroke_e	e	n/a
123.5835	0.074	247167	keystroke_n	n	n/a
123.7325	0.091	247465	keystroke_n	n	n/a
123.9725	0.091	247945	keystroke_y	y	n/a
124.1225	0.0895	248245	keystroke_s	s	n/a
124.5875	0.09	249175	keystroke_l	l	n/a
125.487	0.09	250974	keystroke_Key.backspace	Key.backspace	n/a
125.8465	0.091	251693	keystroke_y	y	n/a
126.4165	0.105	252833	keystroke_Key.backspace	Key.backspace	n/a
126.5965	0.075	253193	keystroke_Key.backspace	Key.backspace	n/a
127.677	0.105	255354	keystroke_Key.backspace	Key.backspace	n/a
129.8835	0.029	259767	keystroke_s	s	n/a
130.016	0.1215	260032	keystroke_y	y	n/a
131.006	0.09	262012	keystroke_l	l	n/a
131.201	0.12	262402	keystroke_v	v	n/a
131.366	0.121	262732	keystroke_a	a	n/a
131.471	0.061	262942	keystroke_n	n	n/a
131.6365	0.0445	263273	keystroke_i	i	n/a
132.2965	0.045	264593	keystroke_a	a	n/a
133.1215	0.075	266243	keystroke_Key.space	Key.space	n/a
134.4575	0.075	268915	keystroke_i	i	n/a
134.6215	0.09	269243	keystroke_n	n	n/a
134.863	0.089	269726	keystroke_t	t	n/a
135.013	0.104	270026	keystroke_e	e	n/a
135.118	0.0905	270236	keystroke_n	n	n/a
135.2825	0.106	270565	keystroke_t	t	n/a
135.4025	0.06	270805	keystroke_Key.space	Key.space	n/a
135.5675	0.091	271135	keystroke_n	n	n/a
135.6875	0.136	271375	keystroke_a	a	n/a
135.8385	0.059	271677	keystroke_u	u	n/a
136.0025	0.0915	272005	keystroke_g	g	n/a
136.078	0.091	272156	keystroke_h	h	n/a
136.243	0.091	272486	keystroke_t	t	n/a
136.409	0.15	272818	keystroke_y	y	n/a
136.603	0.1055	273206	keystroke_Key.space	Key.space	n/a
136.919	0.074	273838	keystroke_o	o	n/a
137.114	0.045	274228	keystroke_a	a	n/a
137.458	0.075	274916	keystroke_Key.backspace	Key.backspace	n/a
137.668	0.076	275336	keystroke_s	s	n/a
137.894	0.165	275788	keystroke_c	c	n/a
138.088	0.151	276176	keystroke_a	a	n/a
138.299	0.12	276598	keystroke_r	r	n/a
138.433	0.075	276866	keystroke_Key.space	Key.space	n/a
138.568	0.09	277136	keystroke_Key.enter	Key.enter	n/a
138.666	13.0745	277332	prompt	n/a	pledge margaret emphasis transmit\n
139.3475	0.0755	278695	keystroke_p	p	n/a
139.633	0.015	279266	keystroke_l	l	n/a
139.692	0.076	279384	keystroke_e	e	n/a
139.858	0.1195	279716	keystroke_d	d	n/a
140.1125	0.12	280225	keystroke_g	g	n/a
140.2165	0.15	280433	keystroke_e	e	n/a
140.352	0.0895	280704	keystroke_Key.space	Key.space	n/a
140.5025	0.09	281005	keystroke_m	m	n/a
140.6675	0.135	281335	keystroke_a	a	n/a
140.8325	0.1205	281665	keystroke_r	r	n/a
141.088	0.09	282176	keystroke_g	g	n/a
141.268	0.18	282536	keystroke_a	a	n/a
141.433	0.135	282866	keystroke_r	r	n/a
141.628	0.165	283256	keystroke_e	e	n/a
141.8535	0.09	283707	keystroke_t	t	n/a
141.9885	0.075	283977	keystroke_Key.space	Key.space	n/a
142.1385	0.12	284277	keystroke_e	e	n/a
142.2735	0.105	284547	keystroke_m	m	n/a
142.3935	0.03	284787	keystroke_m	m	n/a
142.4385	0.06	284877	keystroke_p	p	n/a
142.6335	0.075	285267	keystroke_h	h	n/a
142.7685	0.09	285537	keystroke_a	a	n/a
143.3385	0.075	286677	keystroke_s	s	n/a
143.4435	0.075	286887	keystroke_i	i	n/a
143.5635	0.12	287127	keystroke_s	s	n/a
143.6985	0.09	287397	keystroke_Key.space	Key.space	n/a
144.013	0.045	288026	keystroke_t	t	n/a
144.163	0.075	288326	keystroke_r	r	n/a
144.3135	0.1345	288627	keystroke_a	a	n/a
144.463	0.0755	288926	keystroke_n	n	n/a
144.6435	0.09	289287	keystroke_s	s	n/a
144.7635	0.09	289527	keystroke_m	m	n/a
144.9585	0.09	289917	keystroke_i	i	n/a
145.3785	0.075	290757	keystroke_Key.backspace	Key.backspace	n/a
145.5585	0.045	291117	keystroke_Key.backspace	Key.backspace	n/a
145.7235	0.03	291447	keystroke_Key.backspace	Key.backspace	n/a
146.008	0.045	292016	keystroke_Key.backspace	Key.backspace	n/a
146.143	0.075	292286	keystroke_Key.backspace	Key.backspace	n/a
146.308	0.06	292616	keystroke_Key.backspace	Key.backspace	n/a
146.458	0.06	292916	keystroke_Key.backspace	Key.backspace	n/a
146.608	0.06	293216	keystroke_Key.backspace	Key.backspace	n/a
146.758	0.06	293516	keystroke_Key.backspace	Key.backspace	n/a
146.9235	0.06	293847	keystroke_Key.backspace	Key.backspace	n/a
147.103	0.045	294206	keystroke_Key.backspace	Key.backspace	n/a
147.253	0.06	294506	keystroke_Key.backspace	Key.backspace	n/a
147.418	0.06	294836	keystroke_Key.backspace	Key.backspace	n/a
147.5825	0.075	295165	keystroke_Key.backspace	Key.backspace	n/a
147.7925	0.06	295585	keystroke_Key.backspace	Key.backspace	n/a
148.272	0.105	296544	keystroke_p	p	n/a
148.4975	0.045	296995	keystroke_h	h	n/a
148.647	0.075	297294	keystroke_a	a	n/a
148.917	0.105	297834	keystroke_s	s	n/a
149.037	0.0755	298074	keystroke_i	i	n/a
149.1575	0.105	298315	keystroke_s	s	n/a
149.2775	0.09	298555	keystroke_Key.space	Key.space	n/a
150.073	0.09	300146	keystroke_t	t	n/a
150.238	0.12	300476	keystroke_r	r	n/a
150.403	0.15	300806	keystroke_a	a	n/a
150.538	0.075	301076	keystroke_n	n	n/a
150.6885	0.09	301377	keystroke_s	s	n/a
150.8385	0.12	301677	keystroke_m	m	n/a
151.0185	0.075	302037	keystroke_i	i	n/a
151.3185	0.09	302637	keystroke_t	t	n/a
151.4835	0.075	302967	keystroke_Key.space	Key.space	n/a
151.6485	0.09	303297	keystroke_Key.enter	Key.enter	n/a
151.747	7.6885	303494	prompt	n/a	furniture arabia expert demonstrated\n
152.459	0.105	304918	keystroke_f	f	n/a
152.579	0.09	305158	keystroke_u	u	n/a
152.714	0.0895	305428	keystroke_r	r	n/a
152.924	0.045	305848	keystroke_n	n	n/a
153.029	0.075	306058	keystroke_i	i	n/a
153.209	0.0895	306418	keystroke_t	t	n/a
153.3145	0.074	306629	keystroke_u	u	n/a
153.449	0.09	306898	keystroke_r	r	n/a
153.554	0.135	307108	keystroke_e	e	n/a
153.704	0.0895	307408	keystroke_Key.space	Key.space	n/a
153.8685	0.1215	307737	keystroke_a	a	n/a
154.124	0.105	308248	keystroke_r	r	n/a
154.7385	0.105	309477	keystroke_a	a	n/a
155.0985	0.075	310197	keystroke_b	b	n/a
155.1885	0.0905	310377	keystroke_i	i	n/a
155.3685	0.135	310737	keystroke_a	a	n/a
155.5185	0.075	311037	keystroke_Key.space	Key.space	n/a
155.7135	0.09	311427	keystroke_e	e	n/a
155.9235	0.135	311847	keystroke_x	x	n/a
156.0735	0.075	312147	keystroke_p	p	n/a
156.2385	0.1945	312477	keystroke_e	e	n/a
156.3885	0.1195	312777	keystroke_r	r	n/a
156.658	0.1055	313316	keystroke_t	t	n/a
156.8235	0.09	313647	keystroke_Key.space	Key.space	n/a
157.0485	0.12	314097	keystroke_d	d	n/a
157.2435	0.105	314487	keystroke_e	e	n/a
157.3785	0.15	314757	keystroke_m	m	n/a
157.5435	0.075	315087	keystroke_o	o	n/a
157.6935	0.075	315387	keystroke_n	n	n/a
157.7985	0.135	315597	keystroke_s	s	n/a
158.0385	0.075	316077	keystroke_t	t	n/a
158.2185	0.09	316437	keystroke_r	r	n/a
158.4585	0.15	316917	keystroke_a	a	n/a
158.7285	0.09	317457	keystroke_t	t	n/a
158.8185	0.135	317637	keystroke_e	e	n/a
159.0585	0.105	318117	keystroke_d	d	n/a
159.1645	0.089	318329	keystroke_Key.space	Key.space	n/a
159.3285	0.105	318657	keystroke_Key.enter	Key.enter	n/a
159.44	6.5065	318880	prompt	n/a	it'll comp speaks louis\n
160.243	0.03	320486	keystroke_i	i	n/a
160.7235	0.105	321447	keystroke_t	t	n/a
161.0845	0.134	322169	keystroke_'	'	n/a
161.3845	0.089	322769	keystroke_l	l	n/a
161.5485	0.105	323097	keystroke_l	l	n/a
161.7885	0.075	323577	keystroke_Key.space	Key.space	n/a
162.0595	0.134	324119	keystroke_c	c	n/a
162.2085	0.105	324417	keystroke_o	o	n/a
162.2385	0.3	324477	keystroke_m	m	n/a
162.5535	0.12	325107	keystroke_p	p	n/a
163.063	0.09	326126	keystroke_Key.space	Key.space	n/a
163.3335	0.1345	326667	keystroke_s	s	n/a
163.483	0.06	326966	keystroke_p	p	n/a
163.588	0.105	327176	keystroke_e	e	n/a
163.798	0.135	327596	keystroke_a	a	n/a
163.888	0.105	327776	keystroke_k	k	n/a
164.068	0.12	328136	keystroke_s	s	n/a
164.173	0.3895	328346	keystroke_Key.space	Key.space	n/a
164.4285	0.074	328857	keystroke_l	l	n/a
164.9975	0.225	329995	keystroke_o	o	n/a
165.1925	0.1055	330385	keystroke_u	u	n/a
165.358	0.0895	330716	keystroke_i	i	n/a
165.5975	0.09	331195	keystroke_s	s	n/a
165.7325	0.075	331465	keystroke_Key.space	Key.space	n/a
165.8675	0.075	331735	keystroke_Key.enter	Key.enter	n/a
165.954	6.082	331908	prompt	n/a	islands appointed adrian williams\n
166.7225	0.075	333445	keystroke_i	i	n/a
166.8425	0.12	333685	keystroke_s	s	n/a
166.9925	0.09	333985	keystroke_l	l	n/a
167.0975	0.12	334195	keystroke_a	a	n/a
167.2185	0.074	334437	keystroke_n	n	n/a
167.3075	0.12	334615	keystroke_d	d	n/a
167.4585	0.134	334917	keystroke_s	s	n/a
167.6075	0.105	335215	keystroke_Key.space	Key.space	n/a
167.8335	0.119	335667	keystroke_a	a	n/a
167.9535	0.089	335907	keystroke_p	p	n/a
168.1025	0.105	336205	keystroke_p	p	n/a
168.2835	0.134	336567	keystroke_o	o	n/a
168.4025	0.12	336805	keystroke_i	i	n/a
168.583	0.1195	337166	keystroke_n	n	n/a
168.7475	0.105	337495	keystroke_t	t	n/a
168.9125	0.09	337825	keystroke_e	e	n/a
169.109	0.104	338218	keystroke_d	d	n/a
169.198	0.09	338396	keystroke_Key.space	Key.space	n/a
169.423	0.0905	338846	keystroke_a	a	n/a
169.6345	0.134	339269	keystroke_d	d	n/a
169.9495	0.119	339899	keystroke_r	r	n/a
170.0535	0.09	340107	keystroke_i	i	n/a
170.2485	0.105	340497	keystroke_a	a	n/a
170.3845	0.164	340769	keystroke_n	n	n/a
170.5635	0.09	341127	keystroke_Key.space	Key.space	n/a
170.744	0.1045	341488	keystroke_w	w	n/a
170.8335	0.06	341667	keystroke_i	i	n/a
171.0295	0.03	342059	keystroke_l	l	n/a
171.1345	0.059	342269	keystroke_l	l	n/a
171.2685	0.0745	342537	keystroke_i	i	n/a
171.418	0.1205	342836	keystroke_a	a	n/a
171.5235	0.061	343047	keystroke_m	m	n/a
171.6595	0.104	343319	keystroke_s	s	n/a
171.7785	0.075	343557	keystroke_Key.space	Key.space	n/a
171.943	0.09	343886	keystroke_Key.enter	Key.enter	n/a
172.0405	11.4705	344081	prompt	n/a	guyana arbor goes affecting\n
172.8145	0.089	345629	keystroke_g	g	n/a
173.4595	0.104	346919	keystroke_u	u	n/a
173.6985	0.075	347397	keystroke_y	y	n/a
173.8785	0.1195	347757	keystroke_a	a	n/a
174.134	0.134	348268	keystroke_n	n	n/a
174.598	0.136	349196	keystroke_a	a	n/a
175.0925	0.09	350185	keystroke_Key.backspace	Key.backspace	n/a
175.273	0.075	350546	keystroke_Key.backspace	Key.backspace	n/a
175.438	0.0745	350876	keystroke_Key.backspace	Key.backspace	n/a
175.6175	0.06	351235	keystroke_Key.backspace	Key.backspace	n/a
175.7675	0.075	351535	keystroke_Key.backspace	Key.backspace	n/a
175.9325	0.09	351865	keystroke_Key.backspace	Key.backspace	n/a
176.2175	0.03	352435	keystroke_Key.shift	Key.shift	n/a
176.3075	0.135	352615	keystroke_g	g	n/a
177.3435	0.0745	354687	keystroke_u	u	n/a
177.9585	0.09	355917	keystroke_y	y	n/a
178.153	0.09	356306	keystroke_a	a	n/a
178.2885	0.09	356577	keystroke_n	n	n/a
178.4685	0.09	356937	keystroke_a	a	n/a
178.9635	0.09	357927	keystroke_Key.space	Key.space	n/a
179.1885	0.15	358377	keystroke_a	a	n/a
179.3985	0.105	358797	keystroke_r	r	n/a
179.6835	0.075	359367	keystroke_b	b	n/a
179.7735	0.09	359547	keystroke_o	o	n/a
180.1635	0.09	360327	keystroke_r	r	n/a
180.8085	0.045	361617	keystroke_Key.space	Key.space	n/a
181.168	0.105	362336	keystroke_g	g	n/a
181.259	0.075	362518	keystroke_o	o	n/a
181.348	0.12	362696	keystroke_e	e	n/a
181.528	0.136	363056	keystroke_s	s	n/a
181.648	0.0905	363296	keystroke_Key.space	Key.space	n/a
181.8435	0.105	363687	keystroke_a	a	n/a
182.0535	0.045	364107	keystroke_f	f	n/a
182.1735	0.121	364347	keystroke_f	f	n/a
182.3235	0.106	364647	keystroke_e	e	n/a
182.5485	0.121	365097	keystroke_c	c	n/a
182.7735	0.09	365547	keystroke_t	t	n/a
182.8785	0.06	365757	keystroke_i	i	n/a
183.0295	0.06	366059	keystroke_n	n	n/a
183.1345	0.074	366269	keystroke_g	g	n/a
183.2535	0.106	366507	keystroke_Key.space	Key.space	n/a
183.4345	0.074	366869	keystroke_Key.enter	Key.enter	n/a
183.515	7.0165	367030	prompt	n/a	ctrl technical leadership daily\n
184.3645	0.12	368729	keystroke_c	c	n/a
184.7385	0.091	369477	keystroke_t	t	n/a
185.0385	0.091	370077	keystroke_r	r	n/a
185.2495	0.105	370499	keystroke_l	l	n/a
185.3845	0.119	370769	keystroke_Key.space	Key.space	n/a
185.6235	0.09	371247	keystroke_t	t	n/a
185.7745	0.1355	371549	keystroke_e	e	n/a
186.195	0.1035	372390	keystroke_c	c	n/a
186.3295	0.075	372659	keystroke_h	h	n/a
186.5395	0.1055	373079	keystroke_n	n	n/a
186.6595	0.0755	373319	keystroke_i	i	n/a
186.7935	0.136	373587	keystroke_c	c	n/a
186.9745	0.149	373949	keystroke_a	a	n/a
187.1095	0.165	374219	keystroke_l	l	n/a
187.2435	0.12	374487	keystroke_Key.space	Key.space	n/a
187.3945	0.09	374789	keystroke_l	l	n/a
187.5135	0.18	375027	keystroke_e	e	n/a
187.7085	0.166	375417	keystroke_a	a	n/a
187.9635	0.105	375927	keystroke_d	d	n/a
188.1595	0.195	376319	keystroke_e	e	n/a
188.2935	0.136	376587	keystroke_r	r	n/a
188.5185	0.121	377037	keystroke_s	s	n/a
188.6695	0.074	377339	keystroke_h	h	n/a
188.8045	0.15	377609	keystroke_i	i	n/a
189.0145	0.09	378029	keystroke_p	p	n/a
189.2235	0.075	378447	keystroke_Key.space	Key.space	n/a
189.404	0.18	378808	keystroke_d	d	n/a
189.568	0.151	379136	keystroke_a	a	n/a
189.674	0.074	379348	keystroke_i	i	n/a
189.839	0.09	379678	keystroke_l	l	n/a
190.064	0.165	380128	keystroke_y	y	n/a
190.198	0.12	380396	keystroke_Key.space	Key.space	n/a
190.453	0.076	380906	keystroke_Key.enter	Key.enter	n/a
190.537	6.265	381074	prompt	n/a	conducted tend para strain\n
191.3545	0.0745	382709	keystroke_c	c	n/a
191.3995	0.0895	382799	keystroke_o	o	n/a
191.564	0.09	383128	keystroke_n	n	n/a
192.029	0.12	384058	keystroke_d	d	n/a
192.404	0.09	384808	keystroke_u	u	n/a
192.629	0.135	385258	keystroke_c	c	n/a
192.929	0.135	385858	keystroke_t	t	n/a
193.124	0.12	386248	keystroke_e	e	n/a
193.364	0.105	386728	keystroke_d	d	n/a
193.484	0.09	386968	keystroke_Key.space	Key.space	n/a
193.739	0.1205	387478	keystroke_t	t	n/a
194.0545	0.015	388109	keystroke_e	e	n/a
194.0845	0.075	388169	keystroke_n	n	n/a
194.2195	0.12	388439	keystroke_d	d	n/a
194.3545	0.075	388709	keystroke_Key.space	Key.space	n/a
194.5195	0.06	389039	keystroke_p	p	n/a
194.6695	0.135	389339	keystroke_a	a	n/a
194.9395	0.105	389879	keystroke_r	r	n/a
195.1495	0.135	390299	keystroke_a	a	n/a
195.2995	0.075	390599	keystroke_Key.space	Key.space	n/a
195.4495	0.135	390899	keystroke_s	s	n/a
195.7045	0.06	391409	keystroke_t	t	n/a
195.8845	0.09	391769	keystroke_r	r	n/a
196.0945	0.105	392189	keystroke_a	a	n/a
196.2445	0.2245	392489	keystroke_i	i	n/a
196.4095	0.1505	392819	keystroke_n	n	n/a
196.529	0.09	393058	keystroke_Key.space	Key.space	n/a
196.709	0.09	393418	keystroke_Key.enter	Key.enter	n/a
196.8075	7.808	393615	prompt	n/a	possibly behalf automobiles arranged\n
197.594	0.06	395188	keystroke_p	p	n/a
197.729	0.09	395458	keystroke_o	o	n/a
197.88	0.074	395760	keystroke_s	s	n/a
198.014	0.1045	396028	keystroke_s	s	n/a
198.2095	0.1195	396419	keystroke_i	i	n/a
198.5845	0.075	397169	keystroke_b	b	n/a
198.7185	0.091	397437	keystroke_l	l	n/a
199.0045	0.119	398009	keystroke_y	y	n/a
199.0935	0.1495	398187	keystroke_Key.space	Key.space	n/a
199.379	0.075	398758	keystroke_b	b	n/a
199.5135	0.105	399027	keystroke_e	e	n/a
199.648	0.075	399296	keystroke_h	h	n/a
199.828	0.106	399656	keystroke_a	a	n/a
199.9485	0.075	399897	keystroke_l	l	n/a
200.368	0.105	400736	keystroke_f	f	n/a
200.578	0.105	401156	keystroke_Key.space	Key.space	n/a
200.788	0.151	401576	keystroke_a	a	n/a
200.954	0.075	401908	keystroke_u	u	n/a
201.149	0.105	402298	keystroke_t	t	n/a
201.224	0.1355	402448	keystroke_o	o	n/a
201.3445	0.195	402689	keystroke_m	m	n/a
201.7195	0.1045	403439	keystroke_o	o	n/a
202.0645	0.06	404129	keystroke_b	b	n/a
202.1845	0.06	404369	keystroke_i	i	n/a
202.349	0.06	404698	keystroke_l	l	n/a
202.484	0.1055	404968	keystroke_e	e	n/a
202.6645	0.15	405329	keystroke_s	s	n/a
202.859	0.075	405718	keystroke_Key.space	Key.space	n/a
203.054	0.135	406108	keystroke_a	a	n/a
203.309	0.075	406618	keystroke_r	r	n/a
203.444	0.075	406888	keystroke_r	r	n/a
203.639	0.105	407278	keystroke_a	a	n/a
203.729	0.06	407458	keystroke_n	n	n/a
203.924	0.0605	407848	keystroke_g	g	n/a
203.9995	0.135	407999	keystroke_e	e	n/a
204.2695	0.135	408539	keystroke_d	d	n/a
204.3895	0.0745	408779	keystroke_Key.space	Key.space	n/a
204.554	0.06	409108	keystroke_Key.enter	Key.enter	n/a
204.622	5.6635	409244	prompt	n/a	arrest evil gotta goal\n
205.3795	0.15	410759	keystroke_a	a	n/a
205.6345	0.059	411269	keystroke_r	r	n/a
205.7545	0.105	411509	keystroke_r	r	n/a
205.9035	0.135	411807	keystroke_e	e	n/a
206.0835	0.151	412167	keystroke_s	s	n/a
206.2795	0.1045	412559	keystroke_t	t	n/a
206.444	0.06	412888	keystroke_Key.space	Key.space	n/a
206.549	0.135	413098	keystroke_e	e	n/a
207.014	0.09	414028	keystroke_v	v	n/a
207.209	0.06	414418	keystroke_i	i	n/a
207.374	0.12	414748	keystroke_l	l	n/a
207.524	0.105	415048	keystroke_Key.space	Key.space	n/a
207.8095	0.12	415619	keystroke_g	g	n/a
207.9145	0.06	415829	keystroke_o	o	n/a
208.0795	0.06	416159	keystroke_t	t	n/a
208.1845	0.105	416369	keystroke_t	t	n/a
208.4095	0.135	416819	keystroke_a	a	n/a
208.5745	0.09	417149	keystroke_Key.space	Key.space	n/a
208.8595	0.09	417719	keystroke_g	g	n/a
208.9645	0.075	417929	keystroke_o	o	n/a
209.1295	0.105	418259	keystroke_a	a	n/a
209.4445	0.09	418889	keystroke_l	l	n/a
209.9845	0.075	419969	keystroke_Key.space	Key.space	n/a
210.209	0.075	420418	keystroke_Key.enter	Key.enter	n/a
210.29	8.292	420580	prompt	n/a	ambien terrorists enhance battle\n
211.259	0.135	422518	keystroke_a	a	n/a
211.409	0.075	422818	keystroke_m	m	n/a
211.724	0.06	423448	keystroke_b	b	n/a
211.919	0.06	423838	keystroke_i	i	n/a
212.1295	0.075	424259	keystroke_e	e	n/a
212.354	0.09	424708	keystroke_n	n	n/a
212.549	0.06	425098	keystroke_Key.space	Key.space	n/a
212.939	0.105	425878	keystroke_t	t	n/a
213.164	0.1195	426328	keystroke_e	e	n/a
213.419	0.075	426838	keystroke_r	r	n/a
213.569	0.075	427138	keystroke_r	r	n/a
213.674	0.09	427348	keystroke_o	o	n/a
213.809	0.105	427618	keystroke_r	r	n/a
213.929	0.06	427858	keystroke_i	i	n/a
214.589	0.18	429178	keystroke_s	s	n/a
214.994	0.075	429988	keystroke_t	t	n/a
215.174	0.12	430348	keystroke_s	s	n/a
215.729	0.075	431458	keystroke_Key.space	Key.space	n/a
215.8485	0.1205	431697	keystroke_e	e	n/a
215.985	0.059	431970	keystroke_n	n	n/a
216.224	0.075	432448	keystroke_h	h	n/a
216.3585	0.12	432717	keystroke_a	a	n/a
216.4495	0.074	432899	keystroke_n	n	n/a
216.5985	0.1055	433197	keystroke_c	c	n/a
216.794	0.1045	433588	keystroke_e	e	n/a
216.9135	0.06	433827	keystroke_Key.space	Key.space	n/a
217.124	0.075	434248	keystroke_b	b	n/a
217.304	0.135	434608	keystroke_a	a	n/a
217.665	0.059	435330	keystroke_t	t	n/a
217.799	0.0895	435598	keystroke_t	t	n/a
218.0085	0.0905	436017	keystroke_l	l	n/a
218.174	0.105	436348	keystroke_e	e	n/a
218.294	0.06	436588	keystroke_Key.space	Key.space	n/a
218.519	0.06	437038	keystroke_Key.enter	Key.enter	n/a
218.5875	10.9585	437175	prompt	n/a	assignment international continuously oxygen\n
219.269	0.12	438538	keystroke_a	a	n/a
219.554	0.075	439108	keystroke_s	s	n/a
219.719	0.105	439438	keystroke_s	s	n/a
219.794	0.075	439588	keystroke_i	i	n/a
219.989	0.075	439978	keystroke_g	g	n/a
220.305	0.104	440610	keystroke_n	n	n/a
220.574	0.09	441148	keystroke_m	m	n/a
220.724	0.12	441448	keystroke_e	e	n/a
220.859	0.06	441718	keystroke_n	n	n/a
221.009	0.105	442018	keystroke_t	t	n/a
221.115	0.134	442230	keystroke_Key.space	Key.space	n/a
221.235	0.089	442470	keystroke_i	i	n/a
221.384	0.09	442768	keystroke_n	n	n/a
221.549	0.09	443098	keystroke_t	t	n/a
221.669	0.2555	443338	keystroke_e	e	n/a
221.7895	0.165	443579	keystroke_r	r	n/a
222.659	0.075	445318	keystroke_n	n	n/a
222.809	0.121	445618	keystroke_a	a	n/a
223.049	0.09	446098	keystroke_t	t	n/a
223.094	0.27	446188	keystroke_i	i	n/a
223.199	0.181	446398	keystroke_o	o	n/a
223.289	0.136	446578	keystroke_n	n	n/a
223.589	0.091	447178	keystroke_a	a	n/a
223.709	0.21	447418	keystroke_l	l	n/a
223.979	0.12	447958	keystroke_Key.space	Key.space	n/a
224.324	0.135	448648	keystroke_c	c	n/a
224.414	0.091	448828	keystroke_o	o	n/a
224.534	0.09	449068	keystroke_n	n	n/a
224.939	0.09	449878	keystroke_t	t	n/a
225.014	0.06	450028	keystroke_i	i	n/a
225.18	0.09	450360	keystroke_n	n	n/a
225.509	0.121	451018	keystroke_u	u	n/a
225.719	0.421	451438	keystroke_o	o	n/a
226.109	0.1195	452218	keystroke_u	u	n/a
226.4985	0.075	452997	keystroke_s	s	n/a
226.65	0.104	453300	keystroke_l	l	n/a
226.9495	0.089	453899	keystroke_y	y	n/a
227.1435	0.12	454287	keystroke_Key.space	Key.space	n/a
227.4445	0.074	454889	keystroke_o	o	n/a
228.0135	0.15	456027	keystroke_x	x	n/a
228.2245	0.075	456449	keystroke_y	y	n/a
228.7335	0.136	457467	keystroke_g	g	n/a
228.8695	0.134	457739	keystroke_e	e	n/a
229.0345	0.1955	458069	keystroke_n	n	n/a
229.214	0.091	458428	keystroke_Key.space	Key.space	n/a
229.439	0.1045	458878	keystroke_Key.enter	Key.enter	n/a
229.5505	9.0415	459101	prompt	n/a	she'll driven reward senator\n
230.519	0.1505	461038	keystroke_s	s	n/a
230.6705	0.104	461341	keystroke_h	h	n/a
230.8505	0.119	461701	keystroke_'	'	n/a
231.5695	0.091	463139	keystroke_=	=	n/a
231.7805	0.075	463561	keystroke_e	e	n/a
232.3795	0.075	464759	keystroke_Key.backspace	Key.backspace	n/a
232.5295	0.075	465059	keystroke_Key.backspace	Key.backspace	n/a
232.6945	0.105	465389	keystroke_Key.backspace	Key.backspace	n/a
233.0695	0.091	466139	keystroke_e	e	n/a
233.2805	0.06	466561	keystroke_'	'	n/a
233.7755	0.105	467551	keystroke_l	l	n/a
233.9555	0.15	467911	keystroke_l	l	n/a
234.1945	0.075	468389	keystroke_Key.space	Key.space	n/a
234.7055	0.12	469411	keystroke_d	d	n/a
234.8845	0.105	469769	keystroke_r	r	n/a
234.9755	0.089	469951	keystroke_i	i	n/a
235.1395	0.15	470279	keystroke_v	v	n/a
235.2305	0.195	470461	keystroke_e	e	n/a
235.4105	0.195	470821	keystroke_n	n	n/a
235.5605	0.104	471121	keystroke_Key.space	Key.space	n/a
235.7395	0.121	471479	keystroke_r	r	n/a
235.8605	0.15	471721	keystroke_e	e	n/a
236.2645	0.091	472529	keystroke_w	w	n/a
236.4595	0.21	472919	keystroke_a	a	n/a
236.6255	0.119	473251	keystroke_r	r	n/a
236.8355	0.12	473671	keystroke_d	d	n/a
236.9695	0.09	473939	keystroke_Key.space	Key.space	n/a
237.1055	0.105	474211	keystroke_s	s	n/a
237.2695	0.106	474539	keystroke_e	e	n/a
237.4055	0.075	474811	keystroke_n	n	n/a
237.674	0.135	475348	keystroke_a	a	n/a
237.9755	0.075	475951	keystroke_t	t	n/a
238.0655	0.074	476131	keystroke_o	o	n/a
238.2005	0.089	476401	keystroke_r	r	n/a
238.3195	0.075	476639	keystroke_Key.space	Key.space	n/a
238.5305	0.059	477061	keystroke_Key.enter	Key.enter	n/a
238.598	9.2375	477196	prompt	n/a	decisions begin supplemental some\n
239.4155	0.09	478831	keystroke_d	d	n/a
239.5805	0.075	479161	keystroke_e	e	n/a
239.79	0.1055	479580	keystroke_c	c	n/a
239.9095	0.046	479819	keystroke_i	i	n/a
240.0005	0.105	480001	keystroke_s	s	n/a
240.1065	0.299	480213	keystroke_i	i	n/a
240.2255	0.194	480451	keystroke_o	o	n/a
240.5555	0.12	481111	keystroke_s	s	n/a
240.6755	0.059	481351	keystroke_Key.space	Key.space	n/a
241.0195	0.075	482039	keystroke_b	b	n/a
241.5605	0.074	483121	keystroke_Key.backspace	Key.backspace	n/a
241.7555	0.044	483511	keystroke_Key.backspace	Key.backspace	n/a
241.8895	0.045	483779	keystroke_Key.backspace	Key.backspace	n/a
242.0245	0.045	484049	keystroke_Key.backspace	Key.backspace	n/a
242.7605	0.0745	485521	keystroke_o	o	n/a
242.939	0.061	485878	keystroke_n	n	n/a
243.09	0.09	486180	keystroke_s	s	n/a
243.18	0.0755	486360	keystroke_Key.space	Key.space	n/a
243.345	0.105	486690	keystroke_b	b	n/a
243.494	0.106	486988	keystroke_e	e	n/a
243.764	0.091	487528	keystroke_g	g	n/a
243.855	0.06	487710	keystroke_i	i	n/a
244.02	0.075	488040	keystroke_n	n	n/a
244.2145	0.091	488429	keystroke_Key.space	Key.space	n/a
244.3205	0.0885	488641	keystroke_s	s	n/a
244.439	0.091	488878	keystroke_u	u	n/a
244.6505	0.075	489301	keystroke_p	p	n/a
244.7405	0.1345	489481	keystroke_p	p	n/a
245.775	0.089	491550	keystroke_l	l	n/a
245.909	0.1215	491818	keystroke_e	e	n/a
246.0605	0.09	492121	keystroke_m	m	n/a
246.211	0.1655	492422	keystroke_e	e	n/a
246.315	0.105	492630	keystroke_n	n	n/a
246.4965	0.089	492993	keystroke_t	t	n/a
246.737	0.1205	493474	keystroke_a	a	n/a
246.8725	0.165	493745	keystroke_l	l	n/a
246.9775	0.105	493955	keystroke_Key.space	Key.space	n/a
247.1125	0.1355	494225	keystroke_s	s	n/a
247.233	0.1655	494466	keystroke_o	o	n/a
247.3085	0.12	494617	keystroke_m	m	n/a
247.4425	0.121	494885	keystroke_e	e	n/a
247.5785	0.0755	495157	keystroke_Key.space	Key.space	n/a
247.773	0.0615	495546	keystroke_Key.enter	Key.enter	n/a
247.84	6.0075	495680	prompt	n/a	awards lined hello exempt\n
248.4805	0.105	496961	keystroke_a	a	n/a
248.72	0.0915	497440	keystroke_w	w	n/a
248.9015	0.2405	497803	keystroke_a	a	n/a
249.1115	0.1205	498223	keystroke_r	r	n/a
249.3525	0.105	498705	keystroke_d	d	n/a
249.5325	0.105	499065	keystroke_s	s	n/a
249.683	0.059	499366	keystroke_Key.space	Key.space	n/a
249.803	0.09	499606	keystroke_l	l	n/a
249.9085	0.089	499817	keystroke_i	i	n/a
250.1185	0.045	500237	keystroke_n	n	n/a
250.224	0.09	500448	keystroke_e	e	n/a
250.4045	0.12	500809	keystroke_d	d	n/a
250.855	0.0905	501710	keystroke_Key.space	Key.space	n/a
251.1545	0.0915	502309	keystroke_h	h	n/a
251.351	0.1205	502702	keystroke_e	e	n/a
251.4565	0.06	502913	keystroke_l	l	n/a
251.5915	0.06	503183	keystroke_l	l	n/a
251.757	0.165	503514	keystroke_o	o	n/a
251.906	0.0915	503812	keystroke_Key.space	Key.space	n/a
252.0575	0.105	504115	keystroke_e	e	n/a
252.313	0.135	504626	keystroke_x	x	n/a
252.7035	0.0755	505407	keystroke_e	e	n/a
252.854	0.1355	505708	keystroke_m	m	n/a
253.1095	0.075	506219	keystroke_p	p	n/a
253.395	0.1045	506790	keystroke_t	t	n/a
253.5305	0.12	507061	keystroke_Key.space	Key.space	n/a
253.7555	0.0905	507511	keystroke_Key.enter	Key.enter	n/a
253.856	6.379	507712	prompt	n/a	animals horizon pharmacy insert\n
254.5675	0.075	509135	keystroke_a	a	n/a
254.6725	0.06	509345	keystroke_n	n	n/a
254.8075	0.0755	509615	keystroke_i	i	n/a
254.988	0.0755	509976	keystroke_m	m	n/a
255.1535	0.105	510307	keystroke_a	a	n/a
255.2735	0.0755	510547	keystroke_l	l	n/a
255.379	0.135	510758	keystroke_s	s	n/a
255.529	0.0605	511058	keystroke_Key.space	Key.space	n/a
255.7845	0.1055	511569	keystroke_h	h	n/a
255.8595	0.1205	511719	keystroke_o	o	n/a
256.055	0.1355	512110	keystroke_r	r	n/a
256.1605	0.075	512321	keystroke_i	i	n/a
256.401	0.135	512802	keystroke_z	z	n/a
256.566	0.0605	513132	keystroke_o	o	n/a
256.7465	0.09	513493	keystroke_n	n	n/a
256.8965	0.0905	513793	keystroke_Key.space	Key.space	n/a
257.122	0.0605	514244	keystroke_p	p	n/a
257.2725	0.075	514545	keystroke_h	h	n/a
257.498	0.1805	514996	keystroke_a	a	n/a
257.7235	0.15	515447	keystroke_r	r	n/a
257.9035	0.1055	515807	keystroke_m	m	n/a
258.129	0.1055	516258	keystroke_a	a	n/a
258.3395	0.1205	516679	keystroke_c	c	n/a
258.565	0.1205	517130	keystroke_y	y	n/a
258.655	0.1055	517310	keystroke_Key.space	Key.space	n/a
258.8655	0.09	517731	keystroke_i	i	n/a
259.061	0.06	518122	keystroke_n	n	n/a
259.2415	0.12	518483	keystroke_s	s	n/a
259.4215	0.2405	518843	keystroke_e	e	n/a
259.557	0.15	519114	keystroke_r	r	n/a
259.7825	0.09	519565	keystroke_t	t	n/a
259.9625	0.0755	519925	keystroke_Key.space	Key.space	n/a
260.143	0.0905	520286	keystroke_Key.enter	Key.enter	n/a
260.239	8.292	520478	prompt	n/a	tactics achievements patrick sources\n
261.0145	0.0605	522029	keystroke_t	t	n/a
261.195	0.1355	522390	keystroke_a	a	n/a
261.4055	0.1055	522811	keystroke_c	c	n/a
261.631	0.105	523262	keystroke_t	t	n/a
261.737	0.0745	523474	keystroke_i	i	n/a
261.9315	0.075	523863	keystroke_c	c	n/a
262.082	0.15	524164	keystroke_s	s	n/a
262.3225	0.06	524645	keystroke_Key.space	Key.space	n/a
262.4725	0.1205	524945	keystroke_a	a	n/a
262.668	0.105	525336	keystroke_c	c	n/a
262.803	0.0755	525606	keystroke_h	h	n/a
262.8935	0.075	525787	keystroke_i	i	n/a
263.0585	0.1355	526117	keystroke_e	e	n/a
263.3745	0.105	526749	keystroke_v	v	n/a
263.5845	0.1355	527169	keystroke_e	e	n/a
264.351	0.1055	528702	keystroke_m	m	n/a
264.742	0.12	529484	keystroke_e	e	n/a
264.847	0.0905	529694	keystroke_n	n	n/a
264.9975	0.09	529995	keystroke_t	t	n/a
265.208	0.105	530416	keystroke_s	s	n/a
265.328	0.0905	530656	keystroke_Key.space	Key.space	n/a
265.5085	0.075	531017	keystroke_p	p	n/a
265.6435	0.1655	531287	keystroke_a	a	n/a
265.899	0.0605	531798	keystroke_t	t	n/a
266.0645	0.09	532129	keystroke_r	r	n/a
266.1695	0.0755	532339	keystroke_i	i	n/a
266.4855	0.09	532971	keystroke_c	c	n/a
266.6055	0.105	533211	keystroke_k	k	n/a
266.846	0.06	533692	keystroke_Key.space	Key.space	n/a
267.1015	0.1655	534203	keystroke_s	s	n/a
267.2065	0.1805	534413	keystroke_o	o	n/a
267.327	0.09	534654	keystroke_u	u	n/a
267.5075	0.09	535015	keystroke_r	r	n/a
267.7325	0.0905	535465	keystroke_c	c	n/a
267.913	0.09	535826	keystroke_e	e	n/a
268.0935	0.105	536187	keystroke_s	s	n/a
268.2435	0.0905	536487	keystroke_Key.space	Key.space	n/a
268.439	0.09	536878	keystroke_Key.enter	Key.enter	n/a
268.5375	7.1315	537075	prompt	n/a	ended connect delayed refresh\n
269.3405	0.0755	538681	keystroke_e	e	n/a
269.446	0.09	538892	keystroke_n	n	n/a
269.581	0.1055	539162	keystroke_d	d	n/a
269.7615	0.09	539523	keystroke_e	e	n/a
269.942	0.12	539884	keystroke_d	d	n/a
270.152	0.0755	540304	keystroke_Key.space	Key.space	n/a
270.468	0.12	540936	keystroke_c	c	n/a
270.573	0.06	541146	keystroke_o	o	n/a
270.7835	0.03	541567	keystroke_n	n	n/a
270.9035	0.0755	541807	keystroke_n	n	n/a
270.994	0.09	541988	keystroke_e	e	n/a
271.2045	0.105	542409	keystroke_c	c	n/a
271.4295	0.0905	542859	keystroke_t	t	n/a
271.7	0.0605	543400	keystroke_Key.space	Key.space	n/a
272.121	0.075	544242	keystroke_d	d	n/a
272.2865	0.105	544573	keystroke_e	e	n/a
272.4365	0.075	544873	keystroke_l	l	n/a
272.632	0.105	545264	keystroke_a	a	n/a
272.782	0.0755	545564	keystroke_y	y	n/a
272.9325	0.09	545865	keystroke_e	e	n/a
273.128	0.135	546256	keystroke_d	d	n/a
273.218	0.09	546436	keystroke_Key.space	Key.space	n/a
273.639	0.2555	547278	keystroke_r	r	n/a
274.0895	0.0755	548179	keystroke_e	e	n/a
274.33	0.0905	548660	keystroke_f	f	n/a
274.691	0.165	549382	keystroke_r	r	n/a
274.841	0.1355	549682	keystroke_e	e	n/a
275.0965	0.09	550193	keystroke_s	s	n/a
275.247	0.09	550494	keystroke_h	h	n/a
275.412	0.1205	550824	keystroke_Key.space	Key.space	n/a
275.5775	0.09	551155	keystroke_Key.enter	Key.enter	n/a
275.6745	5.5405	551349	prompt	n/a	underwear april thinks never\n
276.524	0.0605	553048	keystroke_u	u	n/a
276.7045	0.075	553409	keystroke_n	n	n/a
276.855	0.09	553710	keystroke_d	d	n/a
277.05	0.1955	554100	keystroke_e	e	n/a
277.1855	0.12	554371	keystroke_r	r	n/a
277.411	0.105	554822	keystroke_w	w	n/a
277.666	0.241	555332	keystroke_e	e	n/a
277.877	0.21	555754	keystroke_a	a	n/a
278.057	0.135	556114	keystroke_r	r	n/a
278.207	0.1355	556414	keystroke_Key.space	Key.space	n/a
278.4175	0.1505	556835	keystroke_a	a	n/a
278.553	0.06	557106	keystroke_p	p	n/a
278.733	0.1055	557466	keystroke_r	r	n/a
278.8235	0.075	557647	keystroke_i	i	n/a
279.004	0.18	558008	keystroke_l	l	n/a
279.154	0.12	558308	keystroke_Key.space	Key.space	n/a
279.3495	0.105	558699	keystroke_t	t	n/a
279.4245	0.075	558849	keystroke_h	h	n/a
279.4695	0.1805	558939	keystroke_i	i	n/a
279.635	0.165	559270	keystroke_n	n	n/a
279.785	0.09	559570	keystroke_k	k	n/a
279.9505	0.09	559901	keystroke_s	s	n/a
280.0555	0.0455	560111	keystroke_Key.space	Key.space	n/a
280.236	0.06	560472	keystroke_n	n	n/a
280.326	0.1215	560652	keystroke_e	e	n/a
280.5065	0.135	561013	keystroke_v	v	n/a
280.672	0.225	561344	keystroke_e	e	n/a
280.807	0.1805	561614	keystroke_r	r	n/a
280.9725	0.075	561945	keystroke_Key.space	Key.space	n/a
281.0925	0.12	562185	keystroke_Key.enter	Key.enter	n/a
281.22	9.8375	562440	prompt	n/a	maintains towers genealogy associate\n
281.904	0.06	563808	keystroke_m	m	n/a
281.994	0.1205	563988	keystroke_a	a	n/a
282.1145	0.06	564229	keystroke_i	i	n/a
282.2645	0.06	564529	keystroke_n	n	n/a
282.4	0.09	564800	keystroke_t	t	n/a
282.5955	0.12	565191	keystroke_a	a	n/a
282.7005	0.06	565401	keystroke_i	i	n/a
282.8505	0.09	565701	keystroke_n	n	n/a
282.971	0.105	565942	keystroke_s	s	n/a
283.106	0.0755	566212	keystroke_Key.space	Key.space	n/a
283.3765	0.09	566753	keystroke_t	t	n/a
283.4815	0.0755	566963	keystroke_o	o	n/a
283.602	0.2705	567204	keystroke_w	w	n/a
283.7825	0.21	567565	keystroke_e	e	n/a
283.9175	0.1205	567835	keystroke_r	r	n/a
284.173	0.09	568346	keystroke_s	s	n/a
284.293	0.0905	568586	keystroke_Key.space	Key.space	n/a
284.4735	0.1355	568947	keystroke_g	g	n/a
284.654	0.12	569308	keystroke_e	e	n/a
285.09	0.12	570180	keystroke_n	n	n/a
285.33	0.105	570660	keystroke_e	e	n/a
285.5105	0.105	571021	keystroke_o	o	n/a
286.066	0.1355	572132	keystroke_a	a	n/a
287.043	0.075	574086	keystroke_Key.backspace	Key.backspace	n/a
287.193	0.0905	574386	keystroke_Key.backspace	Key.backspace	n/a
287.479	0.135	574958	keystroke_a	a	n/a
287.689	0.1505	575378	keystroke_l	l	n/a
287.9895	0.0905	575979	keystroke_o	o	n/a
288.2755	0.105	576551	keystroke_g	g	n/a
288.4855	0.12	576971	keystroke_y	y	n/a
288.5755	0.1355	577151	keystroke_Key.space	Key.space	n/a
289.4925	0.09	578985	keystroke_a	a	n/a
289.6575	0.075	579315	keystroke_s	s	n/a
289.7925	0.1055	579585	keystroke_s	s	n/a
289.913	0.075	579826	keystroke_o	o	n/a
290.063	0.1205	580126	keystroke_c	c	n/a
290.1535	0.06	580307	keystroke_i	i	n/a
290.2585	0.1655	580517	keystroke_a	a	n/a
290.499	0.1505	580998	keystroke_t	t	n/a
290.6345	0.1345	581269	keystroke_e	e	n/a
290.785	0.104	581570	keystroke_Key.space	Key.space	n/a
290.9805	0.074	581961	keystroke_Key.enter	Key.enter	n/a
291.064	9.242	582128	prompt	n/a	crowd consisting i'd argument\n
292.4075	0.1355	584815	keystroke_c	c	n/a
292.558	0.09	585116	keystroke_o	o	n/a
292.693	0.0905	585386	keystroke_r	r	n/a
292.9475	0.0615	585895	keystroke_d	d	n/a
293.068	0.075	586136	keystroke_Key.space	Key.space	n/a
293.715	0.074	587430	keystroke_Key.backspace	Key.backspace	n/a
293.894	0.015	587788	keystroke_Key.backspace	Key.backspace	n/a
294.0295	0.045	588059	keystroke_Key.backspace	Key.backspace	n/a
294.1495	0.09	588299	keystroke_Key.backspace	Key.backspace	n/a
294.406	0.09	588812	keystroke_r	r	n/a
294.585	0.1065	589170	keystroke_o	o	n/a
294.7355	0.091	589471	keystroke_w	w	n/a
295.0065	0.1195	590013	keystroke_d	d	n/a
295.156	0.075	590312	keystroke_Key.space	Key.space	n/a
295.5325	0.1355	591065	keystroke_c	c	n/a
295.713	0.09	591426	keystroke_o	o	n/a
295.893	0.075	591786	keystroke_n	n	n/a
296.027	0.1055	592054	keystroke_s	s	n/a
296.1335	0.06	592267	keystroke_i	i	n/a
296.599	0.12	593198	keystroke_s	s	n/a
296.9595	0.075	593919	keystroke_t	t	n/a
297.0345	0.059	594069	keystroke_i	i	n/a
297.1845	0.06	594369	keystroke_n	n	n/a
297.3195	0.1045	594639	keystroke_g	g	n/a
297.439	0.075	594878	keystroke_Key.space	Key.space	n/a
297.65	0.074	595300	keystroke_i	i	n/a
297.86	0.105	595720	keystroke_'	'	n/a
298.16	0.105	596320	keystroke_d	d	n/a
298.3545	0.075	596709	keystroke_Key.space	Key.space	n/a
298.6105	0.0895	597221	keystroke_a	a	n/a
298.82	0.12	597640	keystroke_r	r	n/a
299.09	0.0755	598180	keystroke_g	g	n/a
299.2245	0.06	598449	keystroke_u	u	n/a
299.4485	0.076	598897	keystroke_m	m	n/a
299.5835	0.1655	599167	keystroke_e	e	n/a
299.6895	0.0605	599379	keystroke_n	n	n/a
299.8845	0.105	599769	keystroke_t	t	n/a
300.0335	0.09	600067	keystroke_Key.space	Key.space	n/a
300.1995	0.1035	600399	keystroke_Key.enter	Key.enter	n/a
300.311	6.3105	600622	prompt	n/a	comics remix inside therapy\n
301.2195	0.118	602439	keystroke_c	c	n/a
301.2935	0.105	602587	keystroke_o	o	n/a
301.474	0.09	602948	keystroke_m	m	n/a
301.728	0.061	603456	keystroke_i	i	n/a
301.878	0.135	603756	keystroke_c	c	n/a
302.073	0.1045	604146	keystroke_s	s	n/a
302.2525	0.061	604505	keystroke_Key.space	Key.space	n/a
302.5985	0.104	605197	keystroke_r	r	n/a
302.6585	0.149	605317	keystroke_e	e	n/a
302.8235	0.0895	605647	keystroke_m	m	n/a
302.927	0.1055	605854	keystroke_i	i	n/a
303.2885	0.0885	606577	keystroke_x	x	n/a
303.5435	0.045	607087	keystroke_Key.space	Key.space	n/a
303.9485	0.0895	607897	keystroke_i	i	n/a
304.113	0.0895	608226	keystroke_n	n	n/a
304.3225	0.12	608645	keystroke_s	s	n/a
304.4275	0.075	608855	keystroke_i	i	n/a
304.5475	0.091	609095	keystroke_d	d	n/a
304.774	0.074	609548	keystroke_e	e	n/a
304.908	0.0745	609816	keystroke_Key.space	Key.space	n/a
305.1475	0.1055	610295	keystroke_t	t	n/a
305.238	0.076	610476	keystroke_h	h	n/a
305.358	0.1795	610716	keystroke_e	e	n/a
305.5225	0.105	611045	keystroke_r	r	n/a
305.7925	0.09	611585	keystroke_a	a	n/a
305.9275	0.12	611855	keystroke_p	p	n/a
306.1685	0.134	612337	keystroke_y	y	n/a
306.2575	0.135	612515	keystroke_Key.space	Key.space	n/a
306.5275	0.09	613055	keystroke_Key.enter	Key.enter	n/a
306.626	4.8675	613252	prompt	n/a	income else road cursor\n
307.2925	0.06	614585	keystroke_i	i	n/a
307.4725	0.059	614945	keystroke_n	n	n/a
307.637	0.12	615274	keystroke_c	c	n/a
307.712	0.09	615424	keystroke_o	o	n/a
307.862	0.105	615724	keystroke_m	m	n/a
307.982	0.1045	615964	keystroke_e	e	n/a
308.1165	0.06	616233	keystroke_Key.space	Key.space	n/a
308.2815	0.105	616563	keystroke_e	e	n/a
308.5375	0.089	617075	keystroke_l	l	n/a
308.7925	0.12	617585	keystroke_s	s	n/a
308.9565	0.119	617913	keystroke_e	e	n/a
309.0915	0.0895	618183	keystroke_Key.space	Key.space	n/a
309.317	0.104	618634	keystroke_r	r	n/a
309.391	0.06	618782	keystroke_o	o	n/a
309.556	0.15	619112	keystroke_a	a	n/a
309.722	0.15	619444	keystroke_d	d	n/a
309.8865	0.09	619773	keystroke_Key.space	Key.space	n/a
310.0675	0.1335	620135	keystroke_c	c	n/a
310.217	0.089	620434	keystroke_u	u	n/a
310.412	0.105	620824	keystroke_r	r	n/a
310.8165	0.149	621633	keystroke_s	s	n/a
310.9355	0.0905	621871	keystroke_o	o	n/a
311.1455	0.075	622291	keystroke_r	r	n/a
311.2505	0.1055	622501	keystroke_Key.space	Key.space	n/a
311.417	0.074	622834	keystroke_Key.enter	Key.enter	n/a
311.5	9.2605	623000	prompt	n/a	advantages there's configurations committed\n
312.332	0.105	624664	keystroke_a	a	n/a
312.557	0.119	625114	keystroke_d	d	n/a
312.7955	0.09	625591	keystroke_v	v	n/a
312.9755	0.091	625951	keystroke_a	a	n/a
313.0805	0.045	626161	keystroke_n	n	n/a
313.306	0.074	626612	keystroke_t	t	n/a
313.905	0.165	627810	keystroke_a	a	n/a
314.205	0.1055	628410	keystroke_g	g	n/a
314.3555	0.105	628711	keystroke_e	e	n/a
314.5355	0.119	629071	keystroke_s	s	n/a
315.074	0.09	630148	keystroke_Key.space	Key.space	n/a
315.3005	0.09	630601	keystroke_t	t	n/a
315.3755	0.075	630751	keystroke_h	h	n/a
315.4655	0.15	630931	keystroke_e	e	n/a
315.6005	0.135	631201	keystroke_r	r	n/a
315.7055	0.119	631411	keystroke_e	e	n/a
315.8555	0.119	631711	keystroke_'	'	n/a
316.1555	0.089	632311	keystroke_s	s	n/a
316.2595	0.09	632519	keystroke_Key.space	Key.space	n/a
316.694	0.105	633388	keystroke_c	c	n/a
316.769	0.076	633538	keystroke_o	o	n/a
316.919	0.061	633838	keystroke_n	n	n/a
317.115	0.104	634230	keystroke_f	f	n/a
317.205	0.06	634410	keystroke_i	i	n/a
317.473	0.091	634946	keystroke_g	g	n/a
317.579	0.06	635158	keystroke_u	u	n/a
317.698	0.1065	635396	keystroke_r	r	n/a
317.9095	0.1335	635819	keystroke_a	a	n/a
318.088	0.121	636176	keystroke_t	t	n/a
318.194	0.225	636388	keystroke_i	i	n/a
318.283	0.151	636566	keystroke_o	o	n/a
318.373	0.106	636746	keystroke_n	n	n/a
318.5225	0.12	637045	keystroke_s	s	n/a
318.6275	0.0755	637255	keystroke_Key.space	Key.space	n/a
318.793	0.135	637586	keystroke_c	c	n/a
318.898	0.091	637796	keystroke_o	o	n/a
319.1085	0.075	638217	keystroke_m	m	n/a
319.2425	0.091	638485	keystroke_m	m	n/a
319.4085	0.089	638817	keystroke_i	i	n/a
319.7385	0.0595	639477	keystroke_t	t	n/a
319.859	0.12	639718	keystroke_t	t	n/a
320.0675	0.091	640135	keystroke_e	e	n/a
320.2785	0.105	640557	keystroke_d	d	n/a
320.459	0.1035	640918	keystroke_Key.space	Key.space	n/a
320.6525	0.105	641305	keystroke_Key.enter	Key.enter	n/a
320.765	11.7365	641530	prompt	n/a	textbook hollywood rescue hand\n
321.537	0.105	643074	keystroke_t	t	n/a
321.702	0.12	643404	keystroke_e	e	n/a
321.972	0.135	643944	keystroke_x	x	n/a
322.287	0.075	644574	keystroke_b	b	n/a
322.587	0.045	645174	keystroke_o	o	n/a
322.707	0.09	645414	keystroke_o	o	n/a
322.9775	0.12	645955	keystroke_k	k	n/a
323.292	0.075	646584	keystroke_Key.space	Key.space	n/a
323.7575	0.134	647515	keystroke_h	h	n/a
323.8615	0.12	647723	keystroke_o	o	n/a
324.1465	0.0595	648293	keystroke_l	l	n/a
324.2815	0.12	648563	keystroke_l	l	n/a
324.6265	0.104	649253	keystroke_y	y	n/a
325.046	0.075	650092	keystroke_Key.backspace	Key.backspace	n/a
325.226	0.059	650452	keystroke_Key.backspace	Key.backspace	n/a
325.39	0.06	650780	keystroke_Key.backspace	Key.backspace	n/a
325.555	0.06	651110	keystroke_Key.backspace	Key.backspace	n/a
325.705	0.0605	651410	keystroke_Key.backspace	Key.backspace	n/a
325.9305	0.015	651861	keystroke_Key.backspace	Key.backspace	n/a
325.9905	0.075	651981	keystroke_Key.backspace	Key.backspace	n/a
326.1555	0.075	652311	keystroke_Key.backspace	Key.backspace	n/a
326.3205	0.06	652641	keystroke_Key.backspace	Key.backspace	n/a
326.4855	0.09	652971	keystroke_Key.backspace	Key.backspace	n/a
326.7115	0.089	653423	keystroke_t	t	n/a
326.9955	0.075	653991	keystroke_b	b	n/a
327.2205	0.0445	654441	keystroke_o	o	n/a
327.3555	0.06	654711	keystroke_o	o	n/a
327.5055	0.12	655011	keystroke_k	k	n/a
327.7155	0.0745	655431	keystroke_Key.space	Key.space	n/a
327.925	0.0905	655850	keystroke_h	h	n/a
328.0305	0.12	656061	keystroke_o	o	n/a
328.2705	0.0745	656541	keystroke_l	l	n/a
328.421	0.105	656842	keystroke_l	l	n/a
328.661	0.059	657322	keystroke_y	y	n/a
328.8705	0.09	657741	keystroke_w	w	n/a
328.9905	0.09	657981	keystroke_o	o	n/a
329.1555	0.075	658311	keystroke_o	o	n/a
329.3055	0.09	658611	keystroke_d	d	n/a
329.4255	0.089	658851	keystroke_Key.space	Key.space	n/a
329.6955	0.15	659391	keystroke_r	r	n/a
329.86	0.075	659720	keystroke_e	e	n/a
330.04	0.135	660080	keystroke_s	s	n/a
330.4145	0.105	660829	keystroke_c	c	n/a
330.5345	0.0605	661069	keystroke_u	u	n/a
330.73	0.12	661460	keystroke_e	e	n/a
330.88	0.0895	661760	keystroke_Key.space	Key.space	n/a
331.7645	0.075	663529	keystroke_h	h	n/a
331.9295	0.105	663859	keystroke_a	a	n/a
332.0195	0.06	664039	keystroke_n	n	n/a
332.1245	0.12	664249	keystroke_d	d	n/a
332.2595	0.105	664519	keystroke_Key.space	Key.space	n/a
332.4095	0.09	664819	keystroke_Key.enter	Key.enter	n/a
332.506	10.5505	665012	prompt	n/a	exhaust promote earrings documentation\n
333.219	0.075	666438	keystroke_e	e	n/a
333.744	0.12	667488	keystroke_h	h	n/a
334.194	0.074	668388	keystroke_Key.backspace	Key.backspace	n/a
334.389	0.15	668778	keystroke_x	x	n/a
334.569	0.1045	669138	keystroke_h	h	n/a
334.7935	0.135	669587	keystroke_a	a	n/a
334.9435	0.075	669887	keystroke_u	u	n/a
335.0935	0.1795	670187	keystroke_s	s	n/a
335.348	0.09	670696	keystroke_t	t	n/a
335.453	0.089	670906	keystroke_Key.space	Key.space	n/a
335.663	0.0595	671326	keystroke_p	p	n/a
335.7525	0.105	671505	keystroke_r	r	n/a
335.8425	0.0905	671685	keystroke_o	o	n/a
336.4125	0.135	672825	keystroke_m	m	n/a
336.6075	0.105	673215	keystroke_o	o	n/a
336.7725	0.105	673545	keystroke_t	t	n/a
336.9675	0.09	673935	keystroke_e	e	n/a
337.1325	0.074	674265	keystroke_Key.space	Key.space	n/a
337.3275	0.105	674655	keystroke_e	e	n/a
337.5525	0.12	675105	keystroke_w	w	n/a
337.972	0.089	675944	keystroke_Key.backspace	Key.backspace	n/a
338.1525	0.1195	676305	keystroke_a	a	n/a
338.422	0.075	676844	keystroke_r	r	n/a
338.557	0.09	677114	keystroke_r	r	n/a
338.662	0.075	677324	keystroke_i	i	n/a
338.797	0.0745	677594	keystroke_n	n	n/a
338.9465	0.09	677893	keystroke_g	g	n/a
339.1415	0.12	678283	keystroke_s	s	n/a
339.2315	0.09	678463	keystroke_Key.space	Key.space	n/a
339.4265	0.105	678853	keystroke_c	c	n/a
339.8155	0.0605	679631	keystroke_Key.backspace	Key.backspace	n/a
339.951	0.12	679902	keystroke_d	d	n/a
340.101	0.105	680202	keystroke_o	o	n/a
340.341	0.0595	680682	keystroke_u	u	n/a
340.8355	0.044	681671	keystroke_Key.backspace	Key.backspace	n/a
341.0155	0.135	682031	keystroke_c	c	n/a
341.1355	0.075	682271	keystroke_u	u	n/a
341.3605	0.075	682721	keystroke_m	m	n/a
341.525	0.15	683050	keystroke_e	e	n/a
341.615	0.075	683230	keystroke_n	n	n/a
341.8105	0.09	683621	keystroke_t	t	n/a
342.035	0.15	684070	keystroke_a	a	n/a
342.2	0.105	684400	keystroke_t	t	n/a
342.38	0.3595	684760	keystroke_i	i	n/a
342.5595	0.195	685119	keystroke_o	o	n/a
342.6645	0.1645	685329	keystroke_n	n	n/a
342.979	0.0755	685958	keystroke_Key.enter	Key.enter	n/a
343.066	9.617	686132	prompt	n/a	totals cosmetic carey mechanism\n
343.8195	0.075	687639	keystroke_t	t	n/a
343.9095	0.06	687819	keystroke_o	o	n/a
344.0295	0.0895	688059	keystroke_t	t	n/a
344.239	0.105	688478	keystroke_a	a	n/a
344.359	0.105	688718	keystroke_l	l	n/a
344.5095	0.09	689019	keystroke_s	s	n/a
344.6145	0.075	689229	keystroke_Key.space	Key.space	n/a
344.8095	0.105	689619	keystroke_c	c	n/a
344.9295	0.075	689859	keystroke_o	o	n/a
345.4245	0.09	690849	keystroke_s	s	n/a
345.694	0.12	691388	keystroke_m	m	n/a
345.874	0.12	691748	keystroke_e	e	n/a
346.1735	0.09	692347	keystroke_t	t	n/a
346.2785	0.06	692557	keystroke_i	i	n/a
346.4885	0.1205	692977	keystroke_c	c	n/a
346.61	0.0745	693220	keystroke_Key.space	Key.space	n/a
346.788	0.12	693576	keystroke_a	a	n/a
348.183	0.09	696366	keystroke_Key.backspace	Key.backspace	n/a
348.333	0.18	696666	keystroke_c	c	n/a
348.558	0.135	697116	keystroke_a	a	n/a
348.813	0.135	697626	keystroke_r	r	n/a
348.979	0.134	697958	keystroke_e	e	n/a
349.188	0.12	698376	keystroke_y	y	n/a
349.278	0.105	698556	keystroke_Key.space	Key.space	n/a
349.503	0.075	699006	keystroke_m	m	n/a
349.608	0.105	699216	keystroke_e	e	n/a
349.773	0.03	699546	keystroke_h	h	n/a
350.6875	0.09	701375	keystroke_Key.backspace	Key.backspace	n/a
350.913	0.1345	701826	keystroke_c	c	n/a
351.017	0.09	702034	keystroke_h	h	n/a
351.4365	0.12	702873	keystroke_a	a	n/a
351.5575	0.074	703115	keystroke_n	n	n/a
351.7215	0.06	703443	keystroke_i	i	n/a
352.0665	0.09	704133	keystroke_s	s	n/a
352.2025	0.089	704405	keystroke_m	m	n/a
352.441	0.075	704882	keystroke_Key.space	Key.space	n/a
352.606	0.075	705212	keystroke_Key.enter	Key.enter	n/a
352.6875	6.7895	705375	prompt	n/a	girlfriend heat lucas pain\n
353.446	0.075	706892	keystroke_g	g	n/a
353.566	0.075	707132	keystroke_i	i	n/a
353.671	0.076	707342	keystroke_r	r	n/a
353.777	0.075	707554	keystroke_l	l	n/a
353.986	0.09	707972	keystroke_f	f	n/a
354.211	0.075	708422	keystroke_i	i	n/a
354.796	0.06	709592	keystroke_Key.backspace	Key.backspace	n/a
355.007	0.1035	710014	keystroke_r	r	n/a
355.1265	0.059	710253	keystroke_i	i	n/a
355.2755	0.105	710551	keystroke_e	e	n/a
355.3955	0.06	710791	keystroke_n	n	n/a
355.531	0.1205	711062	keystroke_d	d	n/a
355.6655	0.076	711331	keystroke_Key.space	Key.space	n/a
355.8755	0.0755	711751	keystroke_h	h	n/a
355.9965	0.1645	711993	keystroke_e	e	n/a
356.1755	0.121	712351	keystroke_a	a	n/a
356.5815	0.09	713163	keystroke_t	t	n/a
356.7305	0.12	713461	keystroke_Key.space	Key.space	n/a
356.8815	0.104	713763	keystroke_l	l	n/a
357.0905	0.075	714181	keystroke_u	u	n/a
357.285	0.15	714570	keystroke_c	c	n/a
357.48	0.121	714960	keystroke_a	a	n/a
357.675	0.135	715350	keystroke_s	s	n/a
358.215	0.12	716430	keystroke_Key.space	Key.space	n/a
358.605	0.075	717210	keystroke_p	p	n/a
358.755	0.12	717510	keystroke_a	a	n/a
358.846	0.134	717692	keystroke_i	i	n/a
359.04	0.181	718080	keystroke_n	n	n/a
359.175	0.12	718350	keystroke_Key.space	Key.space	n/a
359.385	0.0895	718770	keystroke_Key.enter	Key.enter	n/a
359.484	6.0655	718968	prompt	n/a	liable labs idle interfaces\n
360.1655	0.06	720331	keystroke_l	l	n/a
360.2705	0.089	720541	keystroke_i	i	n/a
360.449	0.09	720898	keystroke_a	a	n/a
360.674	0.091	721348	keystroke_b	b	n/a
360.795	0.075	721590	keystroke_l	l	n/a
360.975	0.074	721950	keystroke_e	e	n/a
361.064	0.075	722128	keystroke_Key.space	Key.space	n/a
361.634	0.0905	723268	keystroke_l	l	n/a
361.8	0.1335	723600	keystroke_a	a	n/a
362.0235	0.075	724047	keystroke_b	b	n/a
362.2195	0.105	724439	keystroke_s	s	n/a
362.3835	0.061	724767	keystroke_Key.space	Key.space	n/a
362.519	0.075	725038	keystroke_i	i	n/a
362.729	0.104	725458	keystroke_d	d	n/a
362.849	0.09	725698	keystroke_l	l	n/a
362.983	0.1055	725966	keystroke_e	e	n/a
363.1025	0.09	726205	keystroke_Key.space	Key.space	n/a
363.2525	0.09	726505	keystroke_i	i	n/a
363.4935	0.0585	726987	keystroke_n	n	n/a
363.718	0.12	727436	keystroke_t	t	n/a
363.853	0.24	727706	keystroke_e	e	n/a
364.002	0.105	728004	keystroke_r	r	n/a
364.288	0.09	728576	keystroke_f	f	n/a
364.512	0.181	729024	keystroke_a	a	n/a
364.783	0.09	729566	keystroke_c	c	n/a
364.993	0.075	729986	keystroke_e	e	n/a
365.157	0.136	730314	keystroke_s	s	n/a
365.307	0.09	730614	keystroke_Key.space	Key.space	n/a
365.442	0.105	730884	keystroke_Key.enter	Key.enter	n/a
365.5535	5.514	731107	prompt	n/a	threads wonder flashers plot\n
366.2975	0.074	732595	keystroke_t	t	n/a
366.4625	0.09	732925	keystroke_h	h	n/a
366.6425	0.1345	733285	keystroke_r	r	n/a
366.747	0.15	733494	keystroke_e	e	n/a
366.927	0.18	733854	keystroke_a	a	n/a
367.122	0.12	734244	keystroke_d	d	n/a
367.287	0.135	734574	keystroke_s	s	n/a
367.437	0.09	734874	keystroke_Key.space	Key.space	n/a
367.617	0.0745	735234	keystroke_w	w	n/a
367.6765	0.06	735353	keystroke_o	o	n/a
367.8415	0.06	735683	keystroke_n	n	n/a
367.9315	0.105	735863	keystroke_d	d	n/a
368.1265	0.21	736253	keystroke_e	e	n/a
368.2915	0.12	736583	keystroke_r	r	n/a
368.4265	0.09	736853	keystroke_Key.space	Key.space	n/a
368.5765	0.105	737153	keystroke_f	f	n/a
368.6665	0.09	737333	keystroke_l	l	n/a
368.8315	0.12	737663	keystroke_a	a	n/a
368.9365	0.12	737873	keystroke_s	s	n/a
369.1015	0.075	738203	keystroke_h	h	n/a
369.2665	0.195	738533	keystroke_e	e	n/a
369.4015	0.12	738803	keystroke_r	r	n/a
369.6265	0.105	739253	keystroke_s	s	n/a
369.7465	0.0895	739493	keystroke_Key.space	Key.space	n/a
370.031	0.06	740062	keystroke_p	p	n/a
370.181	0.1045	740362	keystroke_l	l	n/a
370.4055	0.075	740811	keystroke_o	o	n/a
370.6605	0.105	741321	keystroke_t	t	n/a
370.81	0.075	741620	keystroke_Key.space	Key.space	n/a
370.96	0.105	741920	keystroke_Key.enter	Key.enter	n/a
371.073	5.592	742146	prompt	n/a	math atom tuesday chick\n
371.741	0.074	743482	keystroke_m	m	n/a
371.8605	0.15	743721	keystroke_a	a	n/a
372.1155	0.075	744231	keystroke_t	t	n/a
372.2505	0.1495	744501	keystroke_h	h	n/a
372.355	0.12	744710	keystroke_Key.space	Key.space	n/a
372.595	0.12	745190	keystroke_a	a	n/a
372.865	0.09	745730	keystroke_t	t	n/a
372.985	0.195	745970	keystroke_o	o	n/a
373.225	0.075	746450	keystroke_Key.space	Key.space	n/a
373.7045	0.075	747409	keystroke_Key.backspace	Key.backspace	n/a
373.9295	0.195	747859	keystroke_m	m	n/a
374.1395	0.06	748279	keystroke_Key.space	Key.space	n/a
374.2745	0.09	748549	keystroke_t	t	n/a
374.3945	0.075	748789	keystroke_u	u	n/a
374.5445	0.12	749089	keystroke_e	e	n/a
374.7545	0.105	749509	keystroke_s	s	n/a
375.084	0.12	750168	keystroke_d	d	n/a
375.234	0.165	750468	keystroke_a	a	n/a
375.414	0.12	750828	keystroke_y	y	n/a
375.489	0.12	750978	keystroke_Key.space	Key.space	n/a
375.654	0.12	751308	keystroke_c	c	n/a
375.759	0.105	751518	keystroke_h	h	n/a
375.879	0.075	751758	keystroke_i	i	n/a
376.089	0.12	752178	keystroke_c	c	n/a
376.224	0.165	752448	keystroke_k	k	n/a
376.359	0.105	752718	keystroke_Key.space	Key.space	n/a
376.5835	0.075	753167	keystroke_Key.enter	Key.enter	n/a
376.666	7.4465	753332	prompt	n/a	expressed grenada involvement legally\n
377.723	0.09	755446	keystroke_e	e	n/a
377.918	0.15	755836	keystroke_x	x	n/a
378.083	0.09	756166	keystroke_p	p	n/a
378.308	0.075	756616	keystroke_r	r	n/a
378.353	0.135	756706	keystroke_e	e	n/a
378.578	0.075	757156	keystroke_s	s	n/a
378.728	0.09	757456	keystroke_s	s	n/a
378.878	0.075	757756	keystroke_e	e	n/a
379.043	0.121	758086	keystroke_d	d	n/a
379.148	0.105	758296	keystroke_Key.space	Key.space	n/a
379.343	0.1045	758686	keystroke_g	g	n/a
379.7475	0.165	759495	keystroke_r	r	n/a
379.8825	0.135	759765	keystroke_e	e	n/a
380.0625	0.075	760125	keystroke_n	n	n/a
380.257	0.09	760514	keystroke_a	a	n/a
380.437	0.105	760874	keystroke_d	d	n/a
380.587	0.181	761174	keystroke_a	a	n/a
380.782	0.075	761564	keystroke_Key.space	Key.space	n/a
380.902	0.09	761804	keystroke_i	i	n/a
381.097	0.075	762194	keystroke_n	n	n/a
381.247	0.12	762494	keystroke_v	v	n/a
381.352	0.06	762704	keystroke_o	o	n/a
381.532	0.09	763064	keystroke_l	l	n/a
381.682	0.1645	763364	keystroke_v	v	n/a
381.8615	0.075	763723	keystroke_e	e	n/a
381.9815	0.045	763963	keystroke_m	m	n/a
382.1015	0.15	764203	keystroke_e	e	n/a
382.2065	0.075	764413	keystroke_n	n	n/a
382.3415	0.12	764683	keystroke_t	t	n/a
382.4765	0.09	764953	keystroke_Key.space	Key.space	n/a
382.5965	0.09	765193	keystroke_l	l	n/a
382.7165	0.1345	765433	keystroke_e	e	n/a
382.941	0.105	765882	keystroke_g	g	n/a
383.121	0.135	766242	keystroke_a	a	n/a
383.3155	0.075	766631	keystroke_l	l	n/a
383.4955	0.075	766991	keystroke_l	l	n/a
383.6905	0.135	767381	keystroke_y	y	n/a
383.8105	0.09	767621	keystroke_Key.space	Key.space	n/a
384.0355	0.075	768071	keystroke_Key.enter	Key.enter	n/a
384.1165	4.96	768233	prompt	n/a	lamps stuck thai cuba\n
384.8455	0.075	769691	keystroke_l	l	n/a
384.9655	0.105	769931	keystroke_a	a	n/a
385.0555	0.09	770111	keystroke_m	m	n/a
385.2655	0.0595	770531	keystroke_p	p	n/a
385.4	0.12	770800	keystroke_s	s	n/a
385.535	0.059	771070	keystroke_Key.space	Key.space	n/a
385.94	0.12	771880	keystroke_s	s	n/a
386.1805	0.1045	772361	keystroke_t	t	n/a
386.3	0.06	772600	keystroke_u	u	n/a
386.495	0.09	772990	keystroke_c	c	n/a
386.555	0.225	773110	keystroke_k	k	n/a
386.719	0.106	773438	keystroke_Key.space	Key.space	n/a
386.8995	0.09	773799	keystroke_t	t	n/a
387.0195	0.075	774039	keystroke_h	h	n/a
387.1995	0.135	774399	keystroke_a	a	n/a
387.3945	0.18	774789	keystroke_i	i	n/a
387.5295	0.15	775059	keystroke_Key.space	Key.space	n/a
388.039	0.09	776078	keystroke_c	c	n/a
388.099	0.09	776198	keystroke_u	u	n/a
388.474	0.015	776948	keystroke_b	b	n/a
388.609	0.15	777218	keystroke_a	a	n/a
388.789	0.075	777578	keystroke_Key.space	Key.space	n/a
388.984	0.09	777968	keystroke_Key.enter	Key.enter	n/a
389.081	9.8915	778162	prompt	n/a	windsor objects selected statutes\n
389.8685	0.06	779737	keystroke_w	w	n/a
389.9585	0.09	779917	keystroke_i	i	n/a
390.1985	0.075	780397	keystroke_n	n	n/a
390.3785	0.135	780757	keystroke_d	d	n/a
390.9335	0.1345	781867	keystroke_s	s	n/a
391.023	0.075	782046	keystroke_o	o	n/a
391.218	0.105	782436	keystroke_r	r	n/a
391.338	0.105	782676	keystroke_Key.space	Key.space	n/a
391.503	0.089	783006	keystroke_o	o	n/a
391.712	0.076	783424	keystroke_b	b	n/a
392.0865	0.015	784173	keystroke_e	e	n/a
392.4915	0.09	784983	keystroke_Key.backspace	Key.backspace	n/a
392.7615	0.06	785523	keystroke_j	j	n/a
392.8965	0.09	785793	keystroke_e	e	n/a
393.1075	0.149	786215	keystroke_c	c	n/a
393.3915	0.091	786783	keystroke_t	t	n/a
393.6165	0.1055	787233	keystroke_s	s	n/a
393.797	0.105	787594	keystroke_Key.space	Key.space	n/a
393.992	0.06	787984	keystroke_d	d	n/a
394.4115	0.06	788823	keystroke_Key.backspace	Key.backspace	n/a
394.5765	0.12	789153	keystroke_s	s	n/a
394.771	0.09	789542	keystroke_e	e	n/a
394.891	0.1045	789782	keystroke_l	l	n/a
395.0405	0.105	790081	keystroke_e	e	n/a
395.2655	0.1205	790531	keystroke_c	c	n/a
395.506	0.12	791012	keystroke_t	t	n/a
395.671	0.105	791342	keystroke_e	e	n/a
395.881	0.105	791762	keystroke_d	d	n/a
396.016	0.09	792032	keystroke_Key.space	Key.space	n/a
396.196	0.15	792392	keystroke_s	s	n/a
396.526	0.135	793052	keystroke_t	t	n/a
396.7965	0.119	793593	keystroke_a	a	n/a
397.0355	0.09	794071	keystroke_t	t	n/a
397.1405	0.06	794281	keystroke_u	u	n/a
398.25	0.091	796500	keystroke_t	t	n/a
398.385	0.105	796770	keystroke_e	e	n/a
398.565	0.18	797130	keystroke_s	s	n/a
398.715	0.075	797430	keystroke_Key.space	Key.space	n/a
398.88	0.09	797760	keystroke_Key.enter	Key.enter	n/a
398.9795	9.89	797959	prompt	n/a	bahrain wooden sponsorship tight\n
400.1245	0.076	800249	keystroke_b	b	n/a
400.6655	0.1045	801331	keystroke_a	a	n/a
400.815	0.075	801630	keystroke_h	h	n/a
401.0695	0.105	802139	keystroke_r	r	n/a
401.2495	0.15	802499	keystroke_a	a	n/a
401.3845	0.195	802769	keystroke_i	i	n/a
401.5045	0.165	803009	keystroke_n	n	n/a
401.6245	0.12	803249	keystroke_Key.space	Key.space	n/a
401.7895	0.0905	803579	keystroke_w	w	n/a
401.955	0.045	803910	keystroke_o	o	n/a
402.09	0.09	804180	keystroke_o	o	n/a
402.209	0.121	804418	keystroke_d	d	n/a
402.435	0.1345	804870	keystroke_e	e	n/a
402.5535	0.166	805107	keystroke_n	n	n/a
402.6885	0.105	805377	keystroke_Key.space	Key.space	n/a
402.8085	0.181	805617	keystroke_s	s	n/a
402.9745	0.045	805949	keystroke_p	p	n/a
403.2145	0.015	806429	keystroke_o	o	n/a
403.2745	0.09	806549	keystroke_n	n	n/a
403.3795	0.195	806759	keystroke_s	s	n/a
403.9645	0.0745	807929	keystroke_h	h	n/a
404.099	0.09	808198	keystroke_o	o	n/a
404.7295	0.104	809459	keystroke_Key.backspace	Key.backspace	n/a
404.9085	0.12	809817	keystroke_r	r	n/a
405.2235	0.075	810447	keystroke_Key.backspace	Key.backspace	n/a
405.3735	0.0745	810747	keystroke_Key.backspace	Key.backspace	n/a
405.568	0.105	811136	keystroke_r	r	n/a
406.1825	0.06	812365	keystroke_Key.backspace	Key.backspace	n/a
406.4235	0.089	812847	keystroke_o	o	n/a
406.6025	0.09	813205	keystroke_r	r	n/a
407.0075	0.091	814015	keystroke_s	s	n/a
407.1275	0.12	814255	keystroke_h	h	n/a
407.2325	0.195	814465	keystroke_i	i	n/a
407.4575	0.0745	814915	keystroke_p	p	n/a
407.653	0.059	815306	keystroke_Key.space	Key.space	n/a
407.9225	0.075	815845	keystroke_t	t	n/a
408.0115	0.076	816023	keystroke_i	i	n/a
408.1325	0.074	816265	keystroke_g	g	n/a
408.2225	0.075	816445	keystroke_h	h	n/a
408.3425	0.075	816685	keystroke_t	t	n/a
408.777	0.089	817554	keystroke_Key.enter	Key.enter	n/a
408.875	9.0805	817750	prompt	n/a	suspected gains afraid incorporated\n
409.7665	0.105	819533	keystroke_s	s	n/a
409.9015	0.075	819803	keystroke_u	u	n/a
410.0215	0.105	820043	keystroke_s	s	n/a
410.1415	0.06	820283	keystroke_p	p	n/a
410.2915	0.09	820583	keystroke_e	e	n/a
410.5015	0.105	821003	keystroke_c	c	n/a
410.7265	0.105	821453	keystroke_t	t	n/a
410.8465	0.1195	821693	keystroke_e	e	n/a
411.085	0.091	822170	keystroke_d	d	n/a
411.16	0.09	822320	keystroke_Key.space	Key.space	n/a
411.4005	0.091	822801	keystroke_g	g	n/a
411.61	0.136	823220	keystroke_a	a	n/a
411.701	0.09	823402	keystroke_i	i	n/a
411.8965	0.0895	823793	keystroke_n	n	n/a
412.046	0.12	824092	keystroke_s	s	n/a
412.196	0.075	824392	keystroke_Key.space	Key.space	n/a
412.526	0.12	825052	keystroke_a	a	n/a
412.721	0.09	825442	keystroke_f	f	n/a
413.0955	0.09	826191	keystroke_a	a	n/a
413.485	0.075	826970	keystroke_Key.backspace	Key.backspace	n/a
413.665	0.09	827330	keystroke_r	r	n/a
413.875	0.105	827750	keystroke_a	a	n/a
413.981	0.074	827962	keystroke_i	i	n/a
414.13	0.12	828260	keystroke_d	d	n/a
414.2645	0.075	828529	keystroke_Key.space	Key.space	n/a
414.4	0.0745	828800	keystroke_i	i	n/a
414.5795	0.06	829159	keystroke_n	n	n/a
414.8495	0.12	829699	keystroke_d	d	n/a
415.284	0.075	830568	keystroke_Key.backspace	Key.backspace	n/a
415.449	0.165	830898	keystroke_c	c	n/a
415.569	0.075	831138	keystroke_o	o	n/a
416.154	0.105	832308	keystroke_r	r	n/a
416.409	0.075	832818	keystroke_p	p	n/a
416.5885	0.075	833177	keystroke_o	o	n/a
416.7385	0.12	833477	keystroke_r	r	n/a
416.9935	0.075	833987	keystroke_a	a	n/a
417.0985	0.0305	834197	keystroke_a	a	n/a
417.1735	0.09	834347	keystroke_t	t	n/a
417.3085	0.105	834617	keystroke_e	e	n/a
417.5335	0.1505	835067	keystroke_d	d	n/a
417.684	0.045	835368	keystroke_Key.space	Key.space	n/a
417.8785	0.075	835757	keystroke_Key.enter	Key.enter	n/a
417.962	9.7555	835924	prompt	n/a	scientist therefore bolt outer\n
418.7635	0.12	837527	keystroke_e	e	n/a
419.558	0.09	839116	keystroke_Key.backspace	Key.backspace	n/a
419.708	0.12	839416	keystroke_s	s	n/a
419.918	0.105	839836	keystroke_c	c	n/a
420.053	0.075	840106	keystroke_i	i	n/a
420.218	0.12	840436	keystroke_e	e	n/a
420.323	0.075	840646	keystroke_n	n	n/a
420.518	0.09	841036	keystroke_t	t	n/a
420.638	0.075	841276	keystroke_i	i	n/a
420.803	0.1195	841606	keystroke_s	s	n/a
421.1175	0.075	842235	keystroke_t	t	n/a
421.2225	0.0755	842445	keystroke_Key.space	Key.space	n/a
421.448	0.09	842896	keystroke_t	t	n/a
421.523	0.075	843046	keystroke_h	h	n/a
421.628	0.1345	843256	keystroke_e	e	n/a
421.7775	0.09	843555	keystroke_r	r	n/a
421.8375	0.135	843675	keystroke_e	e	n/a
422.1675	0.075	844335	keystroke_f	f	n/a
422.1975	0.09	844395	keystroke_o	o	n/a
423.3225	0.1195	846645	keystroke_r	r	n/a
423.517	0.075	847034	keystroke_e	e	n/a
423.697	0.075	847394	keystroke_Key.space	Key.space	n/a
424.2815	0.075	848563	keystroke_b	b	n/a
424.3715	0.06	848743	keystroke_o	o	n/a
424.5365	0.105	849073	keystroke_l	l	n/a
424.746	0.105	849492	keystroke_t	t	n/a
424.866	0.075	849732	keystroke_Key.space	Key.space	n/a
425.376	0.15	850752	keystroke_o	o	n/a
425.4965	0.0895	850993	keystroke_u	u	n/a
425.751	0.075	851502	keystroke_t	t	n/a
426.156	0.27	852312	keystroke_r	r	n/a
426.786	0.09	853572	keystroke_Key.backspace	Key.backspace	n/a
427.2355	0.21	854471	keystroke_e	e	n/a
427.3705	0.165	854741	keystroke_r	r	n/a
427.6105	0.105	855221	keystroke_Key.enter	Key.enter	n/a
427.7265	9.544	855453	prompt	n/a	controllers shoulder simulations taxation\n
428.4365	0.135	856873	keystroke_c	c	n/a
428.5255	0.105	857051	keystroke_o	o	n/a
429.2905	0.09	858581	keystroke_n	n	n/a
429.4705	0.075	858941	keystroke_t	t	n/a
429.636	0.119	859272	keystroke_r	r	n/a
429.74	0.06	859480	keystroke_o	o	n/a
429.935	0.045	859870	keystroke_l	l	n/a
430.041	0.089	860082	keystroke_l	l	n/a
430.131	0.164	860262	keystroke_e	e	n/a
430.235	0.1205	860470	keystroke_r	r	n/a
430.43	0.136	860860	keystroke_s	s	n/a
430.566	0.074	861132	keystroke_Key.space	Key.space	n/a
430.82	0.135	861640	keystroke_s	s	n/a
430.911	0.194	861822	keystroke_h	h	n/a
431.195	0.18	862390	keystroke_o	o	n/a
431.3	0.105	862600	keystroke_u	u	n/a
431.48	0.0895	862960	keystroke_l	l	n/a
431.6445	0.12	863289	keystroke_d	d	n/a
431.9295	0.225	863859	keystroke_e	e	n/a
432.0645	0.165	864129	keystroke_r	r	n/a
432.2445	0.09	864489	keystroke_Key.space	Key.space	n/a
432.4395	0.09	864879	keystroke_s	s	n/a
432.5745	0.0595	865149	keystroke_i	i	n/a
433.054	0.091	866108	keystroke_m	m	n/a
433.294	0.075	866588	keystroke_u	u	n/a
433.534	0.075	867068	keystroke_l	l	n/a
433.804	0.181	867608	keystroke_a	a	n/a
434.194	0.1195	868388	keystroke_t	t	n/a
434.2845	0.269	868569	keystroke_i	i	n/a
434.4035	0.165	868807	keystroke_o	o	n/a
434.4785	0.12	868957	keystroke_n	n	n/a
434.6145	0.134	869229	keystroke_s	s	n/a
434.7335	0.075	869467	keystroke_Key.space	Key.space	n/a
434.8995	0.104	869799	keystroke_t	t	n/a
435.1245	0.135	870249	keystroke_a	a	n/a
435.7985	0.151	871597	keystroke_x	x	n/a
436.0985	0.136	872197	keystroke_a	a	n/a
436.4595	0.119	872919	keystroke_t	t	n/a
436.5935	0.345	873187	keystroke_i	i	n/a
436.7145	0.239	873429	keystroke_o	o	n/a
436.8045	0.209	873609	keystroke_n	n	n/a
436.9685	0.12	873937	keystroke_Key.space	Key.space	n/a
437.1935	0.075	874387	keystroke_Key.enter	Key.enter	n/a
437.275	7.3275	874550	prompt	n/a	peter truck safer surfing\n
438.0335	0.075	876067	keystroke_p	p	n/a
438.1835	0.119	876367	keystroke_e	e	n/a
438.4225	0.0915	876845	keystroke_t	t	n/a
438.5425	0.21	877085	keystroke_e	e	n/a
438.6785	0.135	877357	keystroke_r	r	n/a
438.7975	0.105	877595	keystroke_Key.space	Key.space	n/a
438.9775	0.06	877955	keystroke_t	t	n/a
439.1425	0.105	878285	keystroke_r	r	n/a
439.2625	0.075	878525	keystroke_u	u	n/a
439.4725	0.091	878945	keystroke_c	c	n/a
439.5335	0.2245	879067	keystroke_k	k	n/a
439.697	0.105	879394	keystroke_Key.space	Key.space	n/a
439.833	0.105	879666	keystroke_s	s	n/a
440.042	0.135	880084	keystroke_a	a	n/a
440.282	0.09	880564	keystroke_f	f	n/a
440.718	0.09	881436	keystroke_t	t	n/a
440.852	0.24	881704	keystroke_e	e	n/a
440.987	0.135	881974	keystroke_r	r	n/a
441.137	0.075	882274	keystroke_Key.space	Key.space	n/a
441.9465	0.105	883893	keystroke_Key.backspace	Key.backspace	n/a
442.1115	0.06	884223	keystroke_Key.backspace	Key.backspace	n/a
442.2615	0.03	884523	keystroke_Key.backspace	Key.backspace	n/a
442.3665	0.09	884733	keystroke_Key.backspace	Key.backspace	n/a
442.6225	0.239	885245	keystroke_e	e	n/a
442.7715	0.15	885543	keystroke_r	r	n/a
442.9365	0.09	885873	keystroke_Key.space	Key.space	n/a
443.1165	0.121	886233	keystroke_s	s	n/a
443.2525	0.0745	886505	keystroke_u	u	n/a
443.387	0.105	886774	keystroke_r	r	n/a
443.776	0.106	887552	keystroke_f	f	n/a
443.897	0.06	887794	keystroke_i	i	n/a
444.062	0.059	888124	keystroke_n	n	n/a
444.152	0.1185	888304	keystroke_g	g	n/a
444.2855	0.06	888571	keystroke_Key.space	Key.space	n/a
444.5105	0.09	889021	keystroke_Key.enter	Key.enter	n/a
444.6075	8.363	889215	prompt	n/a	partners troops committed cookbook\n
445.531	0.059	891062	keystroke_p	p	n/a
445.725	0.15	891450	keystroke_a	a	n/a
445.936	0.104	891872	keystroke_r	r	n/a
446.161	0.074	892322	keystroke_t	t	n/a
446.2945	0.076	892589	keystroke_n	n	n/a
446.4295	0.166	892859	keystroke_e	e	n/a
446.5195	0.106	893039	keystroke_r	r	n/a
446.7155	0.1345	893431	keystroke_s	s	n/a
446.835	0.09	893670	keystroke_Key.space	Key.space	n/a
447.075	0.075	894150	keystroke_t	t	n/a
447.27	0.075	894540	keystroke_r	r	n/a
447.39	0.0755	894780	keystroke_o	o	n/a
447.555	0.075	895110	keystroke_o	o	n/a
447.765	0.0755	895530	keystroke_p	p	n/a
447.9005	0.12	895801	keystroke_s	s	n/a
448.0505	0.075	896101	keystroke_Key.space	Key.space	n/a
448.2155	0.135	896431	keystroke_c	c	n/a
448.3205	0.09	896641	keystroke_o	o	n/a
448.5155	0.06	897031	keystroke_m	m	n/a
448.6505	0.075	897301	keystroke_m	m	n/a
448.8305	0.075	897661	keystroke_i	i	n/a
449.0705	0.045	898141	keystroke_t	t	n/a
449.1755	0.1045	898351	keystroke_t	t	n/a
449.355	0.105	898710	keystroke_e	e	n/a
449.625	0.135	899250	keystroke_d	d	n/a
449.775	0.075	899550	keystroke_Key.space	Key.space	n/a
450.6445	0.105	901289	keystroke_c	c	n/a
450.7945	0.06	901589	keystroke_o	o	n/a
450.9295	0.09	901859	keystroke_o	o	n/a
451.529	0.075	903058	keystroke_k	k	n/a
452.024	0.075	904048	keystroke_b	b	n/a
452.219	0.045	904438	keystroke_o	o	n/a
452.354	0.075	904708	keystroke_o	o	n/a
452.5185	0.196	905037	keystroke_k	k	n/a
452.6985	0.09	905397	keystroke_Key.space	Key.space	n/a
452.8785	0.09	905757	keystroke_Key.enter	Key.enter	n/a
452.9755	8.0625	905951	prompt	n/a	backup merger amend requirements\n
453.6875	0.105	907375	keystroke_b	b	n/a
453.8225	0.135	907645	keystroke_a	a	n/a
454.0475	0.1345	908095	keystroke_c	c	n/a
454.167	0.09	908334	keystroke_k	k	n/a
454.408	0.179	908816	keystroke_u	u	n/a
454.557	0.165	909114	keystroke_p	p	n/a
454.722	0.105	909444	keystroke_Key.space	Key.space	n/a
454.962	0.076	909924	keystroke_m	m	n/a
455.082	0.225	910164	keystroke_e	e	n/a
455.233	0.119	910466	keystroke_r	r	n/a
455.488	0.134	910976	keystroke_g	g	n/a
455.637	0.21	911274	keystroke_e	e	n/a
455.757	0.151	911514	keystroke_r	r	n/a
455.922	0.075	911844	keystroke_Key.space	Key.space	n/a
456.222	0.15	912444	keystroke_a	a	n/a
456.373	0.105	912746	keystroke_m	m	n/a
456.567	0.091	913134	keystroke_e	e	n/a
456.672	0.075	913344	keystroke_n	n	n/a
456.792	0.135	913584	keystroke_d	d	n/a
456.987	0.06	913974	keystroke_Key.space	Key.space	n/a
457.152	0.12	914304	keystroke_a	a	n/a
457.797	0.105	915594	keystroke_Key.backspace	Key.backspace	n/a
458.008	0.149	916016	keystroke_r	r	n/a
458.127	0.18	916254	keystroke_e	e	n/a
458.472	0.09	916944	keystroke_u	u	n/a
458.607	0.09	917214	keystroke_i	i	n/a
459.0865	0.09	918173	keystroke_Key.backspace	Key.backspace	n/a
459.2665	0.06	918533	keystroke_Key.backspace	Key.backspace	n/a
459.3865	0.135	918773	keystroke_q	q	n/a
459.5065	0.09	919013	keystroke_u	u	n/a
459.6415	0.105	919283	keystroke_i	i	n/a
459.7915	0.15	919583	keystroke_r	r	n/a
459.8965	0.136	919793	keystroke_e	e	n/a
460.0465	0.09	920093	keystroke_m	m	n/a
460.1665	0.166	920333	keystroke_e	e	n/a
460.2715	0.09	920543	keystroke_n	n	n/a
460.4075	0.104	920815	keystroke_t	t	n/a
460.6165	0.1205	921233	keystroke_s	s	n/a
460.737	0.0895	921474	keystroke_Key.space	Key.space	n/a
460.9315	0.105	921863	keystroke_Key.enter	Key.enter	n/a
461.044	12.3215	922088	prompt	n/a	seminars infrared frontpage browser\n
461.786	0.09	923572	keystroke_s	s	n/a
461.966	0.075	923932	keystroke_e	e	n/a
462.101	0.075	924202	keystroke_m	m	n/a
462.416	0.045	924832	keystroke_n	n	n/a
462.566	0.135	925132	keystroke_a	a	n/a
462.761	0.105	925522	keystroke_r	r	n/a
462.971	0.135	925942	keystroke_s	s	n/a
463.121	0.12	926242	keystroke_Key.space	Key.space	n/a
463.286	0.06	926572	keystroke_i	i	n/a
463.466	0.03	926932	keystroke_n	n	n/a
464.111	0.0745	928222	keystroke_Key.backspace	Key.backspace	n/a
464.2755	0.075	928551	keystroke_Key.backspace	Key.backspace	n/a
464.4255	0.075	928851	keystroke_Key.backspace	Key.backspace	n/a
464.5755	0.075	929151	keystroke_Key.backspace	Key.backspace	n/a
464.7405	0.06	929481	keystroke_Key.backspace	Key.backspace	n/a
464.8905	0.06	929781	keystroke_Key.backspace	Key.backspace	n/a
465.0555	0.09	930111	keystroke_Key.backspace	Key.backspace	n/a
466.181	0.074	932362	keystroke_i	i	n/a
466.36	0.09	932720	keystroke_n	n	n/a
466.54	0.18	933080	keystroke_a	a	n/a
466.78	0.105	933560	keystroke_r	r	n/a
466.99	0.1045	933980	keystroke_s	s	n/a
467.1545	0.075	934309	keystroke_Key.space	Key.space	n/a
467.3945	0.075	934789	keystroke_i	i	n/a
467.5895	0.075	935179	keystroke_n	n	n/a
467.8005	0.104	935601	keystroke_f	f	n/a
468.5195	0.09	937039	keystroke_r	r	n/a
468.6995	0.1495	937399	keystroke_a	a	n/a
468.999	0.165	937998	keystroke_r	r	n/a
469.179	0.105	938358	keystroke_e	e	n/a
469.404	0.12	938808	keystroke_d	d	n/a
469.569	0.075	939138	keystroke_Key.space	Key.space	n/a
469.764	0.105	939528	keystroke_f	f	n/a
469.929	0.105	939858	keystroke_r	r	n/a
470.049	0.076	940098	keystroke_o	o	n/a
470.184	0.076	940368	keystroke_n	n	n/a
470.334	0.09	940668	keystroke_t	t	n/a
470.619	0.0595	941238	keystroke_p	p	n/a
470.7545	0.2095	941509	keystroke_a	a	n/a
470.919	0.15	941838	keystroke_g	g	n/a
471.039	0.15	942078	keystroke_e	e	n/a
471.174	0.075	942348	keystroke_Key.space	Key.space	n/a
471.414	0.075	942828	keystroke_b	b	n/a
471.744	0.0895	943488	keystroke_r	r	n/a
471.8485	0.075	943697	keystroke_o	o	n/a
471.9995	0.089	943999	keystroke_w	w	n/a
472.5385	0.12	945077	keystroke_s	s	n/a
472.7635	0.225	945527	keystroke_e	e	n/a
472.9285	0.15	945857	keystroke_r	r	n/a
473.0635	0.09	946127	keystroke_Key.space	Key.space	n/a
473.2885	0.075	946577	keystroke_Key.enter	Key.enter	n/a
473.3695	7.6445	946739	prompt	n/a	selections spanking ebooks translate\n
473.963	0.105	947926	keystroke_s	s	n/a
474.143	0.09	948286	keystroke_e	e	n/a
474.248	0.076	948496	keystroke_l	l	n/a
474.369	0.074	948738	keystroke_e	e	n/a
474.563	0.105	949126	keystroke_c	c	n/a
474.788	0.061	949576	keystroke_t	t	n/a
474.879	0.254	949758	keystroke_i	i	n/a
474.938	0.21	949876	keystroke_o	o	n/a
475.074	0.149	950148	keystroke_n	n	n/a
475.238	0.105	950476	keystroke_s	s	n/a
475.358	0.09	950716	keystroke_Key.space	Key.space	n/a
475.553	0.135	951106	keystroke_s	s	n/a
475.673	0.09	951346	keystroke_p	p	n/a
475.838	0.135	951676	keystroke_a	a	n/a
475.958	0.075	951916	keystroke_n	n	n/a
476.2735	0.075	952547	keystroke_k	k	n/a
476.4535	0.06	952907	keystroke_i	i	n/a
476.603	0.045	953206	keystroke_n	n	n/a
476.708	0.105	953416	keystroke_g	g	n/a
476.857	0.061	953714	keystroke_Key.space	Key.space	n/a
477.053	0.09	954106	keystroke_e	e	n/a
477.338	0.03	954676	keystroke_b	b	n/a
477.458	0.06	954916	keystroke_o	o	n/a
477.608	0.075	955216	keystroke_o	o	n/a
477.758	0.12	955516	keystroke_k	k	n/a
478.028	0.06	956056	keystroke_Key.space	Key.space	n/a
478.7625	0.015	957525	keystroke_Key.backspace	Key.backspace	n/a
478.8225	0.165	957645	keystroke_s	s	n/a
478.9725	0.075	957945	keystroke_Key.space	Key.space	n/a
479.2725	0.075	958545	keystroke_t	t	n/a
479.4525	0.09	958905	keystroke_r	r	n/a
479.6775	0.135	959355	keystroke_a	a	n/a
479.7975	0.075	959595	keystroke_n	n	n/a
479.9625	0.105	959925	keystroke_s	s	n/a
480.157	0.075	960314	keystroke_l	l	n/a
480.322	0.18	960644	keystroke_a	a	n/a
480.472	0.165	960944	keystroke_v	v	n/a
480.622	0.165	961244	keystroke_e	e	n/a
480.772	0.12	961544	keystroke_Key.space	Key.space	n/a
480.907	0.105	961814	keystroke_Key.enter	Key.enter	n/a
481.0175	7.2995	962035	prompt	n/a	motorcycles single deep given\n
482.6765	0.105	965353	keystroke_m	m	n/a
482.7965	0.09	965593	keystroke_o	o	n/a
483.0365	0.09	966073	keystroke_t	t	n/a
483.1415	0.075	966283	keystroke_o	o	n/a
483.2465	0.09	966493	keystroke_r	r	n/a
483.591	0.105	967182	keystroke_c	c	n/a
483.756	0.075	967512	keystroke_y	y	n/a
484.011	0.105	968022	keystroke_c	c	n/a
484.131	0.06	968262	keystroke_l	l	n/a
484.281	0.09	968562	keystroke_e	e	n/a
484.461	0.18	968922	keystroke_s	s	n/a
484.626	0.09	969252	keystroke_Key.space	Key.space	n/a
484.866	0.18	969732	keystroke_s	s	n/a
484.956	0.06	969912	keystroke_i	i	n/a
485.151	0.045	970302	keystroke_n	n	n/a
485.361	0.015	970722	keystroke_g	g	n/a
485.391	0.075	970782	keystroke_l	l	n/a
485.496	0.12	970992	keystroke_e	e	n/a
485.631	0.075	971262	keystroke_Key.space	Key.space	n/a
485.796	0.09	971592	keystroke_d	d	n/a
485.991	0.075	971982	keystroke_e	e	n/a
486.276	0.075	972552	keystroke_p	p	n/a
486.6965	0.059	973393	keystroke_Key.backspace	Key.backspace	n/a
486.8305	0.12	973661	keystroke_e	e	n/a
487.0255	0.09	974051	keystroke_p	p	n/a
487.2205	0.06	974441	keystroke_Key.space	Key.space	n/a
487.4005	0.09	974801	keystroke_g	g	n/a
487.5055	0.06	975011	keystroke_i	i	n/a
487.6255	0.135	975251	keystroke_v	v	n/a
487.7005	0.195	975401	keystroke_e	e	n/a
487.9105	0.18	975821	keystroke_n	n	n/a
488.0455	0.105	976091	keystroke_Key.space	Key.space	n/a
488.2555	0.06	976511	keystroke_Key.enter	Key.enter	n/a
488.321	6.609	976642	prompt	n/a	wiki handheld recruiting tasks\n
489.05	0.075	978100	keystroke_w	w	n/a
489.155	0.075	978310	keystroke_i	i	n/a
489.365	0.09	978730	keystroke_k	k	n/a
489.545	0.075	979090	keystroke_i	i	n/a
489.725	0.09	979450	keystroke_Key.space	Key.space	n/a
489.86	0.09	979720	keystroke_h	h	n/a
490.01	0.09	980020	keystroke_a	a	n/a
490.115	0.0745	980230	keystroke_n	n	n/a
490.2345	0.12	980469	keystroke_d	d	n/a
490.6395	0.075	981279	keystroke_h	h	n/a
490.7595	0.105	981519	keystroke_e	e	n/a
490.8795	0.06	981759	keystroke_l	l	n/a
491.2995	0.12	982599	keystroke_d	d	n/a
491.4945	0.06	982989	keystroke_Key.space	Key.space	n/a
491.7195	0.1195	983439	keystroke_r	r	n/a
491.809	0.15	983618	keystroke_e	e	n/a
492.109	0.1355	984218	keystroke_c	c	n/a
492.3195	0.105	984639	keystroke_r	r	n/a
492.4095	0.075	984819	keystroke_u	u	n/a
492.5445	0.0755	985089	keystroke_i	i	n/a
492.679	0.09	985358	keystroke_t	t	n/a
492.784	0.075	985568	keystroke_i	i	n/a
492.9335	0.09	985867	keystroke_n	n	n/a
493.0695	0.089	986139	keystroke_g	g	n/a
493.1595	0.0895	986319	keystroke_Key.space	Key.space	n/a
493.3985	0.106	986797	keystroke_t	t	n/a
493.6085	0.15	987217	keystroke_a	a	n/a
493.7885	0.12	987577	keystroke_s	s	n/a
493.8785	0.105	987757	keystroke_k	k	n/a
494.3585	0.105	988717	keystroke_s	s	n/a
494.5235	0.09	989047	keystroke_Key.space	Key.space	n/a
494.8385	0.09	989677	keystroke_Key.enter	Key.enter	n/a
494.934	31.9855	989868	prompt	n/a	spyware homes champagne portions\n
521.356	0.027	1042712	keystroke_s	s	n/a
521.562	0.075	1043124	keystroke_p	p	n/a
521.758	0.074	1043516	keystroke_y	y	n/a
522.328	0.09	1044656	keystroke_w	w	n/a
522.522	0.18	1045044	keystroke_a	a	n/a
522.672	0.136	1045344	keystroke_r	r	n/a
522.793	0.135	1045586	keystroke_e	e	n/a
522.957	0.105	1045914	keystroke_Key.space	Key.space	n/a
523.093	0.119	1046186	keystroke_h	h	n/a
523.198	0.105	1046396	keystroke_o	o	n/a
523.363	0.09	1046726	keystroke_m	m	n/a
523.497	0.091	1046994	keystroke_e	e	n/a
523.647	0.15	1047294	keystroke_s	s	n/a
523.783	0.089	1047566	keystroke_Key.space	Key.space	n/a
523.947	0.136	1047894	keystroke_c	c	n/a
524.053	0.075	1048106	keystroke_h	h	n/a
524.187	0.151	1048374	keystroke_a	a	n/a
524.293	0.105	1048586	keystroke_m	m	n/a
524.503	0.075	1049006	keystroke_p	p	n/a
524.788	0.015	1049576	keystroke_a	a	n/a
525.043	0.09	1050086	keystroke_g	g	n/a
525.178	0.09	1050356	keystroke_n	n	n/a
525.403	0.089	1050806	keystroke_e	e	n/a
525.522	0.075	1051044	keystroke_Key.space	Key.space	n/a
525.792	0.061	1051584	keystroke_p	p	n/a
525.928	0.089	1051856	keystroke_o	o	n/a
526.033	0.089	1052066	keystroke_r	r	n/a
526.227	0.061	1052454	keystroke_t	t	n/a
526.333	0.239	1052666	keystroke_i	i	n/a
526.4525	0.15	1052905	keystroke_o	o	n/a
526.5275	0.119	1053055	keystroke_n	n	n/a
526.6775	0.105	1053355	keystroke_s	s	n/a
526.8415	0.075	1053683	keystroke_Key.enter	Key.enter	n/a
526.926	6.0975	1053852	prompt	n/a	matched goal retained equation\n
527.6225	0.074	1055245	keystroke_m	m	n/a
527.7275	0.119	1055455	keystroke_a	a	n/a
527.9975	0.06	1055995	keystroke_t	t	n/a
528.2075	0.105	1056415	keystroke_c	c	n/a
528.3275	0.06	1056655	keystroke_h	h	n/a
528.4475	0.075	1056895	keystroke_e	e	n/a
528.5965	0.12	1057193	keystroke_d	d	n/a
528.732	0.074	1057464	keystroke_Key.space	Key.space	n/a
528.927	0.075	1057854	keystroke_g	g	n/a
528.987	0.09	1057974	keystroke_o	o	n/a
529.167	0.09	1058334	keystroke_a	a	n/a
529.436	0.106	1058872	keystroke_l	l	n/a
529.602	0.09	1059204	keystroke_Key.space	Key.space	n/a
530.187	0.12	1060374	keystroke_r	r	n/a
530.292	0.135	1060584	keystroke_e	e	n/a
530.547	0.075	1061094	keystroke_t	t	n/a
530.727	0.119	1061454	keystroke_a	a	n/a
530.861	0.061	1061722	keystroke_i	i	n/a
531.027	0.089	1062054	keystroke_n	n	n/a
531.132	0.075	1062264	keystroke_e	e	n/a
531.282	0.12	1062564	keystroke_d	d	n/a
531.416	0.075	1062832	keystroke_Key.space	Key.space	n/a
531.597	0.135	1063194	keystroke_e	e	n/a
531.852	0.105	1063704	keystroke_q	q	n/a
531.987	0.06	1063974	keystroke_u	u	n/a
532.1355	0.1505	1064271	keystroke_a	a	n/a
532.332	0.089	1064664	keystroke_t	t	n/a
532.437	0.2695	1064874	keystroke_i	i	n/a
532.5265	0.195	1065053	keystroke_o	o	n/a
532.6315	0.165	1065263	keystroke_n	n	n/a
532.7505	0.12	1065501	keystroke_Key.space	Key.space	n/a
532.9305	0.09	1065861	keystroke_Key.enter	Key.enter	n/a
533.028	17.047	1066056	prompt	n/a	closure mature sticks campaign\n
533.7405	0.1355	1067481	keystroke_c	c	n/a
533.846	0.09	1067692	keystroke_o	o	n/a
534.026	0.09	1068052	keystroke_l	l	n/a
534.386	0.09	1068772	keystroke_s	s	n/a
534.477	0.074	1068954	keystroke_u	u	n/a
534.671	0.135	1069342	keystroke_r	r	n/a
534.761	0.165	1069522	keystroke_e	e	n/a
534.911	0.075	1069822	keystroke_Key.space	Key.space	n/a
535.046	0.09	1070092	keystroke_m	m	n/a
535.196	0.105	1070392	keystroke_a	a	n/a
535.4055	0.09	1070811	keystroke_t	t	n/a
535.5105	0.0755	1071021	keystroke_u	u	n/a
535.6455	0.09	1071291	keystroke_r	r	n/a
535.7205	0.15	1071441	keystroke_e	e	n/a
535.8855	0.075	1071771	keystroke_Key.space	Key.space	n/a
536.1855	0.09	1072371	keystroke_Key.backspace	Key.backspace	n/a
536.35	0.06	1072700	keystroke_Key.backspace	Key.backspace	n/a
536.485	0.075	1072970	keystroke_Key.backspace	Key.backspace	n/a
536.635	0.045	1073270	keystroke_Key.backspace	Key.backspace	n/a
