onset	duration	sample	value	key	prompt_text
14.5105	15.825	29021	prompt	n/a	the quick brown fox jumps over a lazy dog\n
17.5995	0.013	35199	keystroke_t	t	n/a
17.7925	0.105	35585	keystroke_h	h	n/a
17.9425	0.075	35885	keystroke_e	e	n/a
18.6325	0.075	37265	keystroke_Key.space	Key.space	n/a
19.5925	0.09	39185	keystroke_q	q	n/a
19.7575	0.09	39515	keystroke_u	u	n/a
20.523	0.075	41046	keystroke_i	i	n/a
20.613	0.045	41226	keystroke_c	c	n/a
20.763	0.09	41526	keystroke_k	k	n/a
20.958	0.0745	41916	keystroke_Key.space	Key.space	n/a
21.423	0.075	42846	keystroke_b	b	n/a
21.693	0.075	43386	keystroke_r	r	n/a
21.783	0.135	43566	keystroke_o	o	n/a
21.933	0.09	43866	keystroke_w	w	n/a
22.053	0.105	44106	keystroke_n	n	n/a
22.233	0.0895	44466	keystroke_Key.space	Key.space	n/a
22.787	0.106	45574	keystroke_f	f	n/a
22.907	0.136	45814	keystroke_o	o	n/a
23.162	0.091	46324	keystroke_x	x	n/a
23.313	0.105	46626	keystroke_Key.space	Key.space	n/a
23.508	0.075	47016	keystroke_j	j	n/a
23.688	0.074	47376	keystroke_u	u	n/a
23.912	0.076	47824	keystroke_m	m	n/a
24.137	0.061	48274	keystroke_p	p	n/a
24.438	0.075	48876	keystroke_s	s	n/a
24.947	0.075	49894	keystroke_Key.space	Key.space	n/a
25.277	0.106	50554	keystroke_o	o	n/a
25.398	0.075	50796	keystroke_v	v	n/a
25.578	0.105	51156	keystroke_e	e	n/a
25.728	0.09	51456	keystroke_r	r	n/a
25.848	0.09	51696	keystroke_Key.space	Key.space	n/a
26.058	0.12	52116	keystroke_a	a	n/a
26.223	0.075	52446	keystroke_Key.space	Key.space	n/a
26.463	0.09	52926	keystroke_l	l	n/a
26.598	0.06	53196	keystroke_a	a	n/a
28.068	0.09	56136	keystroke_z	z	n/a
28.203	0.075	56406	keystroke_y	y	n/a
28.413	0.09	56826	keystroke_Key.space	Key.space	n/a
28.9225	0.06	57845	keystroke_d	d	n/a
29.1325	0.105	58265	keystroke_o	o	n/a
29.5225	0.075	59045	keystroke_g	g	n/a
30.2575	0.075	60515	keystroke_Key.enter	Key.enter	n/a
30.3505	13.019	60701	prompt	n/a	melbourne jeffrey discounts hope\n
31.503	0.105	63006	keystroke_m	m	n/a
31.6975	0.075	63395	keystroke_e	e	n/a
31.803	0.09	63606	keystroke_l	l	n/a
32.1325	0.06	64265	keystroke_b	b	n/a
32.2075	0.105	64415	keystroke_o	o	n/a
32.4325	0.075	64865	keystroke_u	u	n/a
32.5975	0.075	65195	keystroke_r	r	n/a
32.6875	0.105	65375	keystroke_n	n	n/a
32.8225	0.09	65645	keystroke_e	e	n/a
33.0475	0.09	66095	keystroke_Key.space	Key.space	n/a
33.2725	0.09	66545	keystroke_j	j	n/a
33.4075	0.105	66815	keystroke_e	e	n/a
33.6625	0.075	67325	keystroke_f	f	n/a
33.7825	0.09	67565	keystroke_f	f	n/a
33.9475	0.105	67895	keystroke_e	e	n/a
34.1875	0.06	68375	keystroke_r	r	n/a
34.3675	0.09	68735	keystroke_y	y	n/a
36.2125	0.075	72425	keystroke_Key.backspace	Key.backspace	n/a
36.4075	0.075	72815	keystroke_Key.backspace	Key.backspace	n/a
36.6325	0.09	73265	keystroke_Key.backspace	Key.backspace	n/a
37.563	0.1195	75126	keystroke_r	r	n/a
37.6975	0.105	75395	keystroke_e	e	n/a
37.8775	0.075	75755	keystroke_y	y	n/a
38.853	0.075	77706	keystroke_Key.space	Key.space	n/a
39.678	0.075	79356	keystroke_d	d	n/a
39.783	0.09	79566	keystroke_i	i	n/a
39.948	0.09	79896	keystroke_s	s	n/a
40.173	0.075	80346	keystroke_c	c	n/a
40.263	0.09	80526	keystroke_o	o	n/a
40.383	0.075	80766	keystroke_u	u	n/a
40.593	0.105	81186	keystroke_n	n	n/a
40.803	0.075	81606	keystroke_t	t	n/a
41.583	0.09	83166	keystroke_s	s	n/a
41.763	0.075	83526	keystroke_Key.space	Key.space	n/a
41.958	0.105	83916	keystroke_h	h	n/a
42.138	0.09	84276	keystroke_o	o	n/a
42.273	0.12	84546	keystroke_p	p	n/a
42.453	0.09	84906	keystroke_e	e	n/a
43.2775	0.09	86555	keystroke_Key.enter	Key.enter	n/a
43.373	11.727	86746	prompt	n/a	replaced colors malaysia logic\n
46.28	0.013	92560	keystroke_r	r	n/a
46.308	0.135	92616	keystroke_e	e	n/a
46.473	0.12	92946	keystroke_p	p	n/a
46.668	0.15	93336	keystroke_l	l	n/a
46.803	0.12	93606	keystroke_a	a	n/a
47.013	0.075	94026	keystroke_c	c	n/a
47.2375	0.0755	94475	keystroke_e	e	n/a
47.433	0.0745	94866	keystroke_d	d	n/a
47.6575	0.0605	95315	keystroke_Key.space	Key.space	n/a
47.973	0.135	95946	keystroke_c	c	n/a
48.123	0.105	96246	keystroke_o	o	n/a
48.318	0.105	96636	keystroke_l	l	n/a
48.513	0.105	97026	keystroke_o	o	n/a
48.648	0.105	97296	keystroke_r	r	n/a
48.903	0.12	97806	keystroke_s	s	n/a
49.038	0.09	98076	keystroke_Key.space	Key.space	n/a
49.233	0.105	98466	keystroke_m	m	n/a
49.398	0.12	98796	keystroke_a	a	n/a
49.473	0.135	98946	keystroke_l	l	n/a
50.433	0.09	100866	keystroke_a	a	n/a
50.643	0.075	101286	keystroke_y	y	n/a
50.808	0.105	101616	keystroke_s	s	n/a
51.6175	0.09	103235	keystroke_i	i	n/a
51.7375	0.09	103475	keystroke_a	a	n/a
51.8575	0.09	103715	keystroke_Key.space	Key.space	n/a
52.0225	0.105	104045	keystroke_l	l	n/a
52.2175	0.105	104435	keystroke_o	o	n/a
52.3975	0.09	104795	keystroke_g	g	n/a
52.5025	0.12	105005	keystroke_i	i	n/a
52.9675	0.075	105935	keystroke_c	c	n/a
55.023	0.075	110046	keystroke_Key.enter	Key.enter	n/a
55.103	13.8415	110206	prompt	n/a	nevertheless quantity close tripadvisor\n
56.1035	0.074	112207	keystroke_n	n	n/a
56.2525	0.091	112505	keystroke_e	e	n/a
56.4925	0.091	112985	keystroke_v	v	n/a
56.6435	0.104	113287	keystroke_e	e	n/a
56.8825	0.075	113765	keystroke_r	r	n/a
57.378	0.09	114756	keystroke_t	t	n/a
57.528	0.1045	115056	keystroke_h	h	n/a
57.6475	0.075	115295	keystroke_e	e	n/a
57.7975	0.15	115595	keystroke_l	l	n/a
57.9925	0.105	115985	keystroke_e	e	n/a
58.2775	0.09	116555	keystroke_s	s	n/a
58.4725	0.09	116945	keystroke_s	s	n/a
58.6075	0.09	117215	keystroke_Key.space	Key.space	n/a
58.983	0.09	117966	keystroke_w	w	n/a
59.718	0.015	119436	keystroke_Key.backspace	Key.backspace	n/a
60.5575	0.105	121115	keystroke_q	q	n/a
60.7825	0.09	121565	keystroke_u	u	n/a
61.1125	0.09	122225	keystroke_a	a	n/a
61.2625	0.0905	122525	keystroke_n	n	n/a
61.533	0.06	123066	keystroke_t	t	n/a
61.638	0.135	123276	keystroke_i	i	n/a
61.848	0.09	123696	keystroke_t	t	n/a
62.5075	0.075	125015	keystroke_y	y	n/a
62.7175	0.09	125435	keystroke_Key.space	Key.space	n/a
62.9425	0.09	125885	keystroke_c	c	n/a
63.0175	0.09	126035	keystroke_l	l	n/a
64.068	0.09	128136	keystroke_o	o	n/a
64.1725	0.0905	128345	keystroke_s	s	n/a
64.4125	0.06	128825	keystroke_e	e	n/a
64.533	0.09	129066	keystroke_Key.space	Key.space	n/a
65.043	0.06	130086	keystroke_t	t	n/a
65.238	0.09	130476	keystroke_r	r	n/a
65.343	0.09	130686	keystroke_i	i	n/a
65.523	0.1195	131046	keystroke_p	p	n/a
65.6575	0.105	131315	keystroke_a	a	n/a
66.1375	0.06	132275	keystroke_d	d	n/a
66.693	0.075	133386	keystroke_v	v	n/a
66.873	0.09	133746	keystroke_i	i	n/a
68.058	0.09	136116	keystroke_s	s	n/a
68.238	0.12	136476	keystroke_o	o	n/a
68.373	0.0895	136746	keystroke_r	r	n/a
68.853	0.0895	137706	keystroke_Key.enter	Key.enter	n/a
68.9475	9.867	137895	prompt	n/a	contracts likewise elvis accounts\n
69.873	0.0745	139746	keystroke_c	c	n/a
70.052	0.136	140104	keystroke_o	o	n/a
70.413	0.1045	140826	keystroke_n	n	n/a
70.6675	0.06	141335	keystroke_t	t	n/a
70.8325	0.09	141665	keystroke_r	r	n/a
71.2225	0.105	142445	keystroke_a	a	n/a
71.4925	0.075	142985	keystroke_c	c	n/a
71.7775	0.06	143555	keystroke_t	t	n/a
71.9875	0.0895	143975	keystroke_s	s	n/a
72.2575	0.075	144515	keystroke_Key.space	Key.space	n/a
72.467	0.1205	144934	keystroke_l	l	n/a
72.6925	0.075	145385	keystroke_i	i	n/a
72.873	0.12	145746	keystroke_k	k	n/a
72.978	0.075	145956	keystroke_e	e	n/a
74.0875	0.075	148175	keystroke_w	w	n/a
74.2075	0.105	148415	keystroke_i	i	n/a
74.417	0.045	148834	keystroke_s	s	n/a
74.672	0.09	149344	keystroke_e	e	n/a
75.4975	0.075	150995	keystroke_Key.space	Key.space	n/a
75.933	0.105	151866	keystroke_l	l	n/a
76.053	0.075	152106	keystroke_e	e	n/a
76.263	0.105	152526	keystroke_v	v	n/a
76.383	0.09	152766	keystroke_i	i	n/a
76.533	0.12	153066	keystroke_s	s	n/a
76.683	0.09	153366	keystroke_Key.space	Key.space	n/a
76.848	0.12	153696	keystroke_a	a	n/a
77.088	0.075	154176	keystroke_c	c	n/a
77.253	0.075	154506	keystroke_c	c	n/a
77.313	0.105	154626	keystroke_o	o	n/a
77.463	0.075	154926	keystroke_u	u	n/a
77.6725	0.105	155345	keystroke_n	n	n/a
77.7925	0.075	155585	keystroke_t	t	n/a
78.0175	0.105	156035	keystroke_s	s	n/a
78.7975	0.015	157595	keystroke_Key.enter	Key.enter	n/a
78.8175	11.907	157635	prompt	n/a	scanning islamic allowing interfaces\n
80.462	0.106	160924	keystroke_s	s	n/a
80.747	0.09	161494	keystroke_c	c	n/a
80.882	0.135	161764	keystroke_a	a	n/a
81.077	0.06	162154	keystroke_n	n	n/a
81.2125	0.09	162425	keystroke_n	n	n/a
81.4075	0.09	162815	keystroke_i	i	n/a
81.5725	0.105	163145	keystroke_n	n	n/a
81.6925	0.075	163385	keystroke_g	g	n/a
82.4725	0.075	164945	keystroke_Key.space	Key.space	n/a
82.8175	0.09	165635	keystroke_i	i	n/a
82.9225	0.12	165845	keystroke_s	s	n/a
83.0275	0.1345	166055	keystroke_l	l	n/a
83.1475	0.1505	166295	keystroke_a	a	n/a
83.313	0.075	166626	keystroke_m	m	n/a
83.523	0.105	167046	keystroke_i	i	n/a
83.778	0.105	167556	keystroke_c	c	n/a
84.018	0.06	168036	keystroke_Key.space	Key.space	n/a
84.6025	0.045	169205	keystroke_a	a	n/a
84.6175	0.09	169235	keystroke_l	l	n/a
84.8125	0.09	169625	keystroke_l	l	n/a
85.0225	0.075	170045	keystroke_o	o	n/a
86.6725	0.09	173345	keystroke_w	w	n/a
86.7925	0.075	173585	keystroke_i	i	n/a
86.9875	0.09	173975	keystroke_n	n	n/a
87.1375	0.09	174275	keystroke_g	g	n/a
87.6925	0.075	175385	keystroke_Key.space	Key.space	n/a
87.8875	0.045	175775	keystroke_i	i	n/a
88.0375	0.105	176075	keystroke_n	n	n/a
88.2175	0.0895	176435	keystroke_t	t	n/a
88.397	0.09	176794	keystroke_e	e	n/a
88.592	0.0905	177184	keystroke_r	r	n/a
88.9675	0.105	177935	keystroke_f	f	n/a
89.4775	0.09	178955	keystroke_a	a	n/a
89.7025	0.075	179405	keystroke_c	c	n/a
89.9125	0.105	179825	keystroke_e	e	n/a
90.1225	0.105	180245	keystroke_s	s	n/a
90.6325	0.0895	181265	keystroke_Key.enter	Key.enter	n/a
90.6625	0.015	181325	keystroke_]	]	n/a
90.7285	15.1605	181457	prompt	n/a	subjective msgstr reproductive actively\n
91.683	0.0895	183366	keystroke_s	s	n/a
91.7875	0.12	183575	keystroke_u	u	n/a
91.9825	0.075	183965	keystroke_b	b	n/a
92.1625	0.105	184325	keystroke_j	j	n/a
92.3125	0.09	184625	keystroke_e	e	n/a
92.5825	0.075	185165	keystroke_c	c	n/a
92.7175	0.105	185435	keystroke_i	i	n/a
93.302	0.105	186604	keystroke_Key.backspace	Key.backspace	n/a
93.4825	0.075	186965	keystroke_t	t	n/a
94.0525	0.0905	188105	keystroke_v	v	n/a
94.1725	0.105	188345	keystroke_i	i	n/a
94.308	0.09	188616	keystroke_e	e	n/a
94.593	0.0745	189186	keystroke_Key.space	Key.space	n/a
96.2725	0.0905	192545	keystroke_m	m	n/a
96.4225	0.105	192845	keystroke_s	s	n/a
97.0525	0.0755	194105	keystroke_g	g	n/a
97.5025	0.105	195005	keystroke_s	s	n/a
99.092	0.06	198184	keystroke_t	t	n/a
99.257	0.075	198514	keystroke_r	r	n/a
99.647	0.075	199294	keystroke_Key.space	Key.space	n/a
99.9925	0.06	199985	keystroke_r	r	n/a
100.1125	0.09	200225	keystroke_e	e	n/a
100.322	0.105	200644	keystroke_p	p	n/a
100.712	0.075	201424	keystroke_r	r	n/a
100.832	0.135	201664	keystroke_o	o	n/a
101.478	0.074	202956	keystroke_d	d	n/a
101.583	0.104	203166	keystroke_u	u	n/a
101.792	0.09	203584	keystroke_c	c	n/a
102.152	0.06	204304	keystroke_t	t	n/a
102.288	0.12	204576	keystroke_i	i	n/a
102.422	0.105	204844	keystroke_v	v	n/a
102.648	0.074	205296	keystroke_e	e	n/a
103.113	0.074	206226	keystroke_Key.space	Key.space	n/a
103.307	0.106	206614	keystroke_a	a	n/a
103.502	0.091	207004	keystroke_c	c	n/a
103.802	0.075	207604	keystroke_t	t	n/a
103.893	0.119	207786	keystroke_i	i	n/a
104.072	0.12	208144	keystroke_v	v	n/a
104.297	0.105	208594	keystroke_e	e	n/a
104.447	0.12	208894	keystroke_l	l	n/a
104.732	0.09	209464	keystroke_y	y	n/a
105.7975	0.09	211595	keystroke_Key.enter	Key.enter	n/a
105.8935	10.9305	211787	prompt	n/a	smoke instructor javascript speaks\n
106.788	0.105	213576	keystroke_s	s	n/a
106.8775	0.1205	213755	keystroke_m	m	n/a
107.088	0.104	214176	keystroke_o	o	n/a
107.252	0.105	214504	keystroke_k	k	n/a
107.402	0.105	214804	keystroke_e	e	n/a
107.552	0.09	215104	keystroke_Key.space	Key.space	n/a
107.792	0.075	215584	keystroke_i	i	n/a
107.972	0.075	215944	keystroke_n	n	n/a
108.182	0.135	216364	keystroke_s	s	n/a
108.6025	0.075	217205	keystroke_t	t	n/a
108.7675	0.105	217535	keystroke_r	r	n/a
108.8875	0.09	217775	keystroke_u	u	n/a
109.0975	0.09	218195	keystroke_c	c	n/a
109.4275	0.09	218855	keystroke_t	t	n/a
109.5775	0.12	219155	keystroke_o	o	n/a
109.832	0.09	219664	keystroke_r	r	n/a
110.6875	0.075	221375	keystroke_Key.space	Key.space	n/a
110.8825	0.09	221765	keystroke_j	j	n/a
111.0175	0.15	222035	keystroke_a	a	n/a
111.317	0.105	222634	keystroke_v	v	n/a
111.497	0.12	222994	keystroke_a	a	n/a
111.752	0.105	223504	keystroke_s	s	n/a
112.337	0.075	224674	keystroke_c	c	n/a
112.6375	0.075	225275	keystroke_r	r	n/a
112.7425	0.09	225485	keystroke_i	i	n/a
112.9375	0.105	225875	keystroke_p	p	n/a
113.0875	0.09	226175	keystroke_t	t	n/a
113.507	0.06	227014	keystroke_Key.space	Key.space	n/a
113.867	0.105	227734	keystroke_s	s	n/a
113.987	0.1055	227974	keystroke_p	p	n/a
114.843	0.09	229686	keystroke_e	e	n/a
115.068	0.105	230136	keystroke_a	a	n/a
115.6225	0.075	231245	keystroke_k	k	n/a
115.7275	0.075	231455	keystroke_s	s	n/a
116.7325	0.09	233465	keystroke_Key.enter	Key.enter	n/a
116.827	10.362	233654	prompt	n/a	tasks queries alias saudi\n
117.767	0.105	235534	keystroke_t	t	n/a
117.962	0.1205	235924	keystroke_a	a	n/a
118.1875	0.105	236375	keystroke_s	s	n/a
118.3375	0.135	236675	keystroke_k	k	n/a
118.8625	0.09	237725	keystroke_s	s	n/a
119.1325	0.0605	238265	keystroke_Key.space	Key.space	n/a
120.3925	0.105	240785	keystroke_q	q	n/a
120.6025	0.075	241205	keystroke_u	u	n/a
120.8125	0.09	241625	keystroke_e	e	n/a
121.1125	0.075	242225	keystroke_r	r	n/a
121.2475	0.105	242495	keystroke_i	i	n/a
121.3375	0.09	242675	keystroke_e	e	n/a
121.592	0.105	243184	keystroke_s	s	n/a
121.847	0.075	243694	keystroke_Key.space	Key.space	n/a
122.087	0.105	244174	keystroke_a	a	n/a
122.312	0.105	244624	keystroke_l	l	n/a
122.912	0.09	245824	keystroke_i	i	n/a
123.077	0.015	246154	keystroke_s	s	n/a
123.257	0.12	246514	keystroke_a	a	n/a
124.3675	0.105	248735	keystroke_Key.backspace	Key.backspace	n/a
124.4875	0.045	248975	keystroke_Key.backspace	Key.backspace	n/a
124.6525	0.12	249305	keystroke_a	a	n/a
124.9075	0.09	249815	keystroke_s	s	n/a
125.463	0.09	250926	keystroke_Key.space	Key.space	n/a
125.8825	0.195	251765	keystroke_s	s	n/a
126.0325	0.165	252065	keystroke_a	a	n/a
126.2725	0.09	252545	keystroke_u	u	n/a
126.4375	0.105	252875	keystroke_d	d	n/a
126.5575	0.0895	253115	keystroke_i	i	n/a
127.112	0.075	254224	keystroke_Key.enter	Key.enter	n/a
127.1925	9.4315	254385	prompt	n/a	live forget proceeding minnesota\n
127.907	0.105	255814	keystroke_l	l	n/a
128.117	0.09	256234	keystroke_i	i	n/a
128.267	0.12	256534	keystroke_v	v	n/a
128.492	0.105	256984	keystroke_e	e	n/a
129.0625	0.06	258125	keystroke_Key.space	Key.space	n/a
129.677	0.075	259354	keystroke_f	f	n/a
129.842	0.12	259684	keystroke_o	o	n/a
130.052	0.075	260104	keystroke_r	r	n/a
130.232	0.09	260464	keystroke_g	g	n/a
130.397	0.12	260794	keystroke_e	e	n/a
130.637	0.106	261274	keystroke_t	t	n/a
130.817	0.105	261634	keystroke_Key.space	Key.space	n/a
131.058	0.074	262116	keystroke_p	p	n/a
131.237	0.12	262474	keystroke_r	r	n/a
131.418	0.089	262836	keystroke_e	e	n/a
132.1075	0.075	264215	keystroke_Key.backspace	Key.backspace	n/a
132.7825	0.105	265565	keystroke_o	o	n/a
132.9175	0.0895	265835	keystroke_c	c	n/a
133.172	0.06	266344	keystroke_e	e	n/a
133.322	0.075	266644	keystroke_e	e	n/a
133.532	0.091	267064	keystroke_d	d	n/a
133.637	0.091	267274	keystroke_i	i	n/a
133.833	0.119	267666	keystroke_n	n	n/a
134.057	0.0905	268114	keystroke_g	g	n/a
134.2975	0.075	268595	keystroke_Key.space	Key.space	n/a
134.4925	0.09	268985	keystroke_m	m	n/a
134.7175	0.06	269435	keystroke_i	i	n/a
134.9125	0.075	269825	keystroke_n	n	n/a
135.0775	0.09	270155	keystroke_n	n	n/a
135.2275	0.105	270455	keystroke_e	e	n/a
135.4525	0.105	270905	keystroke_s	s	n/a
135.6775	0.09	271355	keystroke_o	o	n/a
135.8725	0.105	271745	keystroke_t	t	n/a
136.0975	0.12	272195	keystroke_a	a	n/a
136.532	0.09	273064	keystroke_Key.enter	Key.enter	n/a
136.627	8.907	273254	prompt	n/a	soon contents complaints trinity\n
137.462	0.09	274924	keystroke_s	s	n/a
137.582	0.075	275164	keystroke_o	o	n/a
137.762	0.09	275524	keystroke_o	o	n/a
137.927	0.12	275854	keystroke_n	n	n/a
138.137	0.06	276274	keystroke_Key.space	Key.space	n/a
138.5725	0.09	277145	keystroke_c	c	n/a
138.6775	0.09	277355	keystroke_o	o	n/a
138.8425	0.105	277685	keystroke_n	n	n/a
139.2925	0.075	278585	keystroke_t	t	n/a
139.4875	0.12	278975	keystroke_e	e	n/a
139.7725	0.09	279545	keystroke_n	n	n/a
140.507	0.06	281014	keystroke_t	t	n/a
140.7775	0.0895	281555	keystroke_s	s	n/a
140.9725	0.0895	281945	keystroke_Key.space	Key.space	n/a
141.377	0.106	282754	keystroke_c	c	n/a
141.513	0.105	283026	keystroke_o	o	n/a
141.693	0.105	283386	keystroke_m	m	n/a
141.888	0.074	283776	keystroke_p	p	n/a
142.082	0.12	284164	keystroke_l	l	n/a
142.217	0.106	284434	keystroke_a	a	n/a
142.367	0.075	284734	keystroke_i	i	n/a
142.518	0.1195	285036	keystroke_n	n	n/a
142.7575	0.105	285515	keystroke_t	t	n/a
143.0425	0.105	286085	keystroke_s	s	n/a
143.4325	0.0895	286865	keystroke_Key.space	Key.space	n/a
143.852	0.0755	287704	keystroke_t	t	n/a
144.0475	0.09	288095	keystroke_r	r	n/a
144.1825	0.105	288365	keystroke_i	i	n/a
144.4675	0.015	288935	keystroke_n	n	n/a
144.5725	0.105	289145	keystroke_i	i	n/a
144.7225	0.105	289445	keystroke_t	t	n/a
144.9025	0.075	289805	keystroke_u	u	n/a
144.9025	0.09	289805	keystroke_y	y	n/a
145.4425	0.09	290885	keystroke_Key.enter	Key.enter	n/a
145.537	9.0865	291074	prompt	n/a	hopefully minutes marble bedroom\n
146.3875	0.09	292775	keystroke_h	h	n/a
146.5225	0.12	293045	keystroke_o	o	n/a
146.957	0.12	293914	keystroke_p	p	n/a
147.857	0.091	295714	keystroke_e	e	n/a
148.1125	0.105	296225	keystroke_f	f	n/a
148.1575	0.12	296315	keystroke_u	u	n/a
148.4125	0.075	296825	keystroke_l	l	n/a
148.5775	0.09	297155	keystroke_l	l	n/a
148.8625	0.075	297725	keystroke_y	y	n/a
149.1325	0.075	298265	keystroke_Key.space	Key.space	n/a
149.5525	0.03	299105	keystroke_m	m	n/a
149.6875	0.045	299375	keystroke_i	i	n/a
149.7925	0.105	299585	keystroke_n	n	n/a
150.0325	0.06	300065	keystroke_u	u	n/a
150.1675	0.105	300335	keystroke_t	t	n/a
150.332	0.09	300664	keystroke_e	e	n/a
150.572	0.105	301144	keystroke_s	s	n/a
150.767	0.0905	301534	keystroke_Key.space	Key.space	n/a
151.0525	0.105	302105	keystroke_m	m	n/a
151.1875	0.105	302375	keystroke_a	a	n/a
151.472	0.06	302944	keystroke_r	r	n/a
151.682	0.09	303364	keystroke_b	b	n/a
151.862	0.12	303724	keystroke_l	l	n/a
151.997	0.105	303994	keystroke_e	e	n/a
152.132	0.09	304264	keystroke_Key.space	Key.space	n/a
152.312	0.075	304624	keystroke_b	b	n/a
152.537	0.09	305074	keystroke_e	e	n/a
152.762	0.075	305524	keystroke_d	d	n/a
153.257	0.075	306514	keystroke_r	r	n/a
153.422	0.075	306844	keystroke_o	o	n/a
153.587	0.105	307174	keystroke_o	o	n/a
154.023	0.089	308046	keystroke_m	m	n/a
154.607	0.015	309214	keystroke_Key.enter	Key.enter	n/a
154.627	11.202	309254	prompt	n/a	fathers characters mardi exceptions\n
155.897	0.075	311794	keystroke_f	f	n/a
156.5125	0.075	313025	keystroke_a	a	n/a
156.8125	0.075	313625	keystroke_t	t	n/a
156.9625	0.105	313925	keystroke_h	h	n/a
157.0375	0.105	314075	keystroke_e	e	n/a
157.2475	0.0895	314495	keystroke_r	r	n/a
157.487	0.12	314974	keystroke_s	s	n/a
157.637	0.105	315274	keystroke_Key.space	Key.space	n/a
157.847	0.09	315694	keystroke_c	c	n/a
157.938	0.104	315876	keystroke_h	h	n/a
158.087	0.105	316174	keystroke_a	a	n/a
158.357	0.105	316714	keystroke_r	r	n/a
158.522	0.135	317044	keystroke_a	a	n/a
158.778	0.089	317556	keystroke_c	c	n/a
159.5575	0.0745	319115	keystroke_t	t	n/a
159.722	0.105	319444	keystroke_e	e	n/a
159.917	0.075	319834	keystroke_r	r	n/a
160.142	0.105	320284	keystroke_s	s	n/a
160.3525	0.075	320705	keystroke_Key.space	Key.space	n/a
160.5925	0.12	321185	keystroke_m	m	n/a
161.1625	0.09	322325	keystroke_a	a	n/a
161.6725	0.09	323345	keystroke_r	r	n/a
161.9425	0.09	323885	keystroke_d	d	n/a
162.0775	0.12	324155	keystroke_i	i	n/a
162.2425	0.09	324485	keystroke_Key.space	Key.space	n/a
162.4525	0.075	324905	keystroke_e	e	n/a
162.6775	0.105	325355	keystroke_x	x	n/a
163.322	0.075	326644	keystroke_c	c	n/a
163.607	0.06	327214	keystroke_e	e	n/a
163.727	0.105	327454	keystroke_p	p	n/a
164.3875	0.18	328775	keystroke_t	t	n/a
164.5825	0.03	329165	keystroke_i	i	n/a
164.5975	0.12	329195	keystroke_o	o	n/a
164.7625	0.12	329525	keystroke_n	n	n/a
164.9575	0.09	329915	keystroke_s	s	n/a
165.7525	0.075	331505	keystroke_Key.enter	Key.enter	n/a
165.832	15.6265	331664	prompt	n/a	forever hospitality debian thousand\n
166.877	0.075	333754	keystroke_f	f	n/a
166.967	0.1505	333934	keystroke_o	o	n/a
167.1325	0.12	334265	keystroke_r	r	n/a
167.2375	0.104	334475	keystroke_e	e	n/a
167.4465	0.121	334893	keystroke_v	v	n/a
167.5975	0.105	335195	keystroke_e	e	n/a
167.8075	0.09	335615	keystroke_r	r	n/a
167.9275	0.104	335855	keystroke_Key.space	Key.space	n/a
168.1525	0.12	336305	keystroke_h	h	n/a
168.3475	0.12	336695	keystroke_o	o	n/a
169.0525	0.074	338105	keystroke_s	s	n/a
169.1715	0.091	338343	keystroke_p	p	n/a
169.3375	0.12	338675	keystroke_i	i	n/a
169.5325	0.09	339065	keystroke_t	t	n/a
169.7415	0.09	339483	keystroke_a	a	n/a
170.3125	0.09	340625	keystroke_l	l	n/a
170.4915	0.105	340983	keystroke_i	i	n/a
170.9565	0.106	341913	keystroke_r	r	n/a
171.1225	0.105	342245	keystroke_y	y	n/a
171.3615	0.09	342723	keystroke_Key.space	Key.space	n/a
172.0515	0.09	344103	keystroke_d	d	n/a
172.3065	0.075	344613	keystroke_e	e	n/a
172.652	0.09	345304	keystroke_b	b	n/a
172.862	0.12	345724	keystroke_i	i	n/a
172.967	0.135	345934	keystroke_a	a	n/a
176.7945	0	353589	keystroke_n	n	n/a
177.3775	0.075	354755	keystroke_Key.space	Key.space	n/a
177.6925	0.0895	355385	keystroke_t	t	n/a
177.797	0.12	355594	keystroke_h	h	n/a
177.887	0.1505	355774	keystroke_o	o	n/a
178.0525	0.104	356105	keystroke_u	u	n/a
178.3065	0.15	356613	keystroke_s	s	n/a
178.4275	0.195	356855	keystroke_a	a	n/a
178.6075	0.165	357215	keystroke_n	n	n/a
178.7575	0.09	357515	keystroke_d	d	n/a
179.312	0.12	358624	keystroke_'	'	n/a
180.347	0.075	360694	keystroke_Key.backspace	Key.backspace	n/a
181.3675	0.09	362735	keystroke_Key.enter	Key.enter	n/a
181.462	9.2815	362924	prompt	n/a	divorce commercial calculated appeals\n
182.7025	0.12	365405	keystroke_d	d	n/a
182.8075	0.09	365615	keystroke_i	i	n/a
183.0025	0.1195	366005	keystroke_v	v	n/a
183.137	0.12	366274	keystroke_o	o	n/a
183.347	0.09	366694	keystroke_r	r	n/a
183.587	0.075	367174	keystroke_c	c	n/a
183.827	0.06	367654	keystroke_e	e	n/a
184.4875	0.09	368975	keystroke_Key.space	Key.space	n/a
184.787	0.105	369574	keystroke_c	c	n/a
184.877	0.12	369754	keystroke_o	o	n/a
185.072	0.09	370144	keystroke_m	m	n/a
185.222	0.12	370444	keystroke_m	m	n/a
185.402	0.12	370804	keystroke_e	e	n/a
185.597	0.09	371194	keystroke_r	r	n/a
185.852	0.09	371704	keystroke_c	c	n/a
185.972	0.135	371944	keystroke_i	i	n/a
186.152	0.135	372304	keystroke_a	a	n/a
186.257	0.15	372514	keystroke_l	l	n/a
186.437	0.105	372874	keystroke_Key.space	Key.space	n/a
186.647	0.12	373294	keystroke_c	c	n/a
186.842	0.12	373684	keystroke_a	a	n/a
186.992	0.135	373984	keystroke_l	l	n/a
187.487	0.105	374974	keystroke_c	c	n/a
187.577	0.09	375154	keystroke_u	u	n/a
187.787	0.15	375574	keystroke_l	l	n/a
187.907	0.15	375814	keystroke_a	a	n/a
188.192	0.12	376384	keystroke_t	t	n/a
188.387	0.09	376774	keystroke_e	e	n/a
188.597	0.09	377194	keystroke_d	d	n/a
188.717	0.105	377434	keystroke_Key.space	Key.space	n/a
188.912	0.135	377824	keystroke_a	a	n/a
189.077	0.076	378154	keystroke_p	p	n/a
189.212	0.15	378424	keystroke_p	p	n/a
189.422	0.1355	378844	keystroke_e	e	n/a
189.6175	0.149	379235	keystroke_a	a	n/a
189.9475	0.134	379895	keystroke_l	l	n/a
190.0975	0.104	380195	keystroke_s	s	n/a
190.6515	0.09	381303	keystroke_Key.enter	Key.enter	n/a
190.7545	12.6195	381509	prompt	n/a	recordings sustained consumer army\n
191.702	0.105	383404	keystroke_r	r	n/a
191.867	0.075	383734	keystroke_e	e	n/a
192.107	0.075	384214	keystroke_c	c	n/a
192.212	0.135	384424	keystroke_o	o	n/a
192.482	0.105	384964	keystroke_r	r	n/a
192.767	0.09	385534	keystroke_d	d	n/a
192.872	0.09	385744	keystroke_i	i	n/a
193.067	0.12	386134	keystroke_n	n	n/a
193.3675	0.03	386735	keystroke_f	f	n/a
193.9675	0.09	387935	keystroke_Key.backspace	Key.backspace	n/a
194.147	0.075	388294	keystroke_g	g	n/a
194.6575	0.045	389315	keystroke_s	s	n/a
195.3765	0.105	390753	keystroke_Key.space	Key.space	n/a
195.7065	0.0905	391413	keystroke_s	s	n/a
195.857	0.09	391714	keystroke_u	u	n/a
196.0665	0.0905	392133	keystroke_s	s	n/a
196.3375	0.105	392675	keystroke_t	t	n/a
196.5175	0.12	393035	keystroke_a	a	n/a
196.6525	0.09	393305	keystroke_i	i	n/a
196.8625	0.105	393725	keystroke_n	n	n/a
197.0125	0.06	394025	keystroke_e	e	n/a
197.642	0.075	395284	keystroke_d	d	n/a
197.837	0.09	395674	keystroke_Key.space	Key.space	n/a
198.287	0.09	396574	keystroke_c	c	n/a
198.407	0.105	396814	keystroke_o	o	n/a
198.572	0.09	397144	keystroke_n	n	n/a
198.8875	0.1045	397775	keystroke_s	s	n/a
199.037	0.045	398074	keystroke_u	u	n/a
199.247	0.15	398494	keystroke_m	m	n/a
199.382	0.105	398764	keystroke_e	e	n/a
199.6075	0.09	399215	keystroke_r	r	n/a
199.7875	0.0895	399575	keystroke_Key.space	Key.space	n/a
200.0115	0.1205	400023	keystroke_a	a	n/a
200.2965	0.091	400593	keystroke_r	r	n/a
200.3715	0.105	400743	keystroke_m	m	n/a
200.687	0.0895	401374	keystroke_u	u	n/a
200.7015	0.045	401403	keystroke_y	y	n/a
201.4675	0.09	402935	keystroke_Key.backspace	Key.backspace	n/a
201.6775	0.12	403355	keystroke_Key.backspace	Key.backspace	n/a
202.7425	0.09	405485	keystroke_y	y	n/a
203.2825	0.09	406565	keystroke_Key.enter	Key.enter	n/a
203.3775	24.042	406755	prompt	n/a	addressing constraints scotland consultancy\n
204.257	0.135	408514	keystroke_a	a	n/a
204.482	0.075	408964	keystroke_d	d	n/a
204.617	0.105	409234	keystroke_d	d	n/a
204.887	0.12	409774	keystroke_r	r	n/a
205.052	0.09	410104	keystroke_e	e	n/a
205.277	0.09	410554	keystroke_s	s	n/a
205.442	0.12	410884	keystroke_s	s	n/a
205.577	0.09	411154	keystroke_i	i	n/a
205.772	0.1205	411544	keystroke_n	n	n/a
205.9665	0.09	411933	keystroke_g	g	n/a
206.1465	0.105	412293	keystroke_Key.space	Key.space	n/a
206.3575	0.105	412715	keystroke_c	c	n/a
206.4315	0.105	412863	keystroke_o	o	n/a
206.6115	0.105	413223	keystroke_n	n	n/a
207.1365	0.06	414273	keystroke_s	s	n/a
215.614	0.028	431228	keystroke_s	s	n/a
216.962	0.0605	433924	keystroke_Key.backspace	Key.backspace	n/a
218.8075	0.075	437615	keystroke_t	t	n/a
219.003	0.09	438006	keystroke_r	r	n/a
219.2425	0.105	438485	keystroke_a	a	n/a
219.4075	0.1055	438815	keystroke_i	i	n/a
219.678	0.059	439356	keystroke_n	n	n/a
220.0825	0.0905	440165	keystroke_t	t	n/a
220.307	0.09	440614	keystroke_s	s	n/a
220.9525	0.105	441905	keystroke_Key.space	Key.space	n/a
221.253	0.0895	442506	keystroke_s	s	n/a
221.4775	0.075	442955	keystroke_c	c	n/a
221.5675	0.1355	443135	keystroke_o	o	n/a
221.8975	0.1045	443795	keystroke_t	t	n/a
222.1825	0.105	444365	keystroke_l	l	n/a
222.2725	0.12	444545	keystroke_a	a	n/a
222.4525	0.105	444905	keystroke_n	n	n/a
222.618	0.09	445236	keystroke_d	d	n/a
222.783	0.104	445566	keystroke_Key.space	Key.space	n/a
223.112	0.091	446224	keystroke_c	c	n/a
223.998	0.0895	447996	keystroke_o	o	n/a
224.178	0.074	448356	keystroke_n	n	n/a
224.808	0.075	449616	keystroke_s	s	n/a
224.897	0.09	449794	keystroke_u	u	n/a
225.138	0.105	450276	keystroke_l	l	n/a
225.933	0.089	451866	keystroke_t	t	n/a
226.112	0.12	452224	keystroke_a	a	n/a
226.2775	0.09	452555	keystroke_n	n	n/a
226.382	0.135	452764	keystroke_c	c	n/a
226.6375	0.075	453275	keystroke_y	y	n/a
227.312	0.1055	454624	keystroke_Key.enter	Key.enter	n/a
227.4255	11.454	454851	prompt	n/a	johnston nail rehabilitation truth\n
228.8575	0.1205	457715	keystroke_j	j	n/a
228.9475	0.135	457895	keystroke_o	o	n/a
229.173	0.0745	458346	keystroke_h	h	n/a
229.3675	0.1055	458735	keystroke_n	n	n/a
230.117	0.1205	460234	keystroke_s	s	n/a
230.478	0.1045	460956	keystroke_t	t	n/a
230.6425	0.1345	461285	keystroke_o	o	n/a
230.867	0.106	461734	keystroke_n	n	n/a
231.108	0.074	462216	keystroke_Key.space	Key.space	n/a
232.128	0.09	464256	keystroke_n	n	n/a
232.788	0.119	465576	keystroke_a	a	n/a
232.863	0.105	465726	keystroke_i	i	n/a
233.088	0.105	466176	keystroke_l	l	n/a
233.3425	0.1045	466685	keystroke_Key.space	Key.space	n/a
233.582	0.1355	467164	keystroke_r	r	n/a
233.747	0.1055	467494	keystroke_e	e	n/a
234.1225	0.09	468245	keystroke_h	h	n/a
234.2425	0.135	468485	keystroke_a	a	n/a
234.7525	0.1205	469505	keystroke_b	b	n/a
234.858	0.09	469716	keystroke_i	i	n/a
235.0525	0.0895	470105	keystroke_l	l	n/a
235.1575	0.0745	470315	keystroke_i	i	n/a
235.367	0.1055	470734	keystroke_t	t	n/a
235.787	0.106	471574	keystroke_a	a	n/a
236.058	0.104	472116	keystroke_t	t	n/a
236.1775	0.1495	472355	keystroke_i	i	n/a
236.2525	0.1805	472505	keystroke_o	o	n/a
236.4625	0.12	472925	keystroke_n	n	n/a
236.6875	0.075	473375	keystroke_Key.space	Key.space	n/a
237.2425	0.075	474485	keystroke_t	t	n/a
237.438	0.1045	474876	keystroke_r	r	n/a
237.933	0.0595	475866	keystroke_u	u	n/a
238.2175	0.0905	476435	keystroke_t	t	n/a
238.322	0.091	476644	keystroke_h	h	n/a
238.8025	0.075	477605	keystroke_Key.enter	Key.enter	n/a
238.8885	12.351	477777	prompt	n/a	compute invite neighbors fingers\n
239.8375	0.09	479675	keystroke_c	c	n/a
239.988	0.1345	479976	keystroke_o	o	n/a
240.1975	0.12	480395	keystroke_m	m	n/a
240.6175	0.106	481235	keystroke_p	p	n/a
240.8575	0.075	481715	keystroke_u	u	n/a
241.548	0.0745	483096	keystroke_t	t	n/a
241.6375	0.12	483275	keystroke_i	i	n/a
241.818	0.1195	483636	keystroke_v	v	n/a
242.5225	0.1045	485045	keystroke_Key.backspace	Key.backspace	n/a
242.8225	0.1045	485645	keystroke_Key.backspace	Key.backspace	n/a
243.4525	0.075	486905	keystroke_e	e	n/a
244.4125	0.09	488825	keystroke_Key.space	Key.space	n/a
244.6075	0.075	489215	keystroke_i	i	n/a
244.788	0.075	489576	keystroke_n	n	n/a
244.9525	0.0905	489905	keystroke_v	v	n/a
245.058	0.104	490116	keystroke_i	i	n/a
245.223	0.119	490446	keystroke_t	t	n/a
245.4175	0.0895	490835	keystroke_e	e	n/a
245.612	0.09	491224	keystroke_Key.space	Key.space	n/a
245.928	0.104	491856	keystroke_n	n	n/a
246.1375	0.06	492275	keystroke_e	e	n/a
246.7375	0.0895	493475	keystroke_i	i	n/a
247.007	0.075	494014	keystroke_g	g	n/a
247.442	0.0755	494884	keystroke_h	h	n/a
248.162	0.09	496324	keystroke_b	b	n/a
248.283	0.135	496566	keystroke_o	o	n/a
248.462	0.106	496924	keystroke_r	r	n/a
248.732	0.1055	497464	keystroke_s	s	n/a
249.377	0.105	498754	keystroke_Key.space	Key.space	n/a
249.572	0.09	499144	keystroke_f	f	n/a
249.632	0.105	499264	keystroke_i	i	n/a
249.828	0.1195	499656	keystroke_n	n	n/a
249.9625	0.105	499925	keystroke_g	g	n/a
250.1725	0.1045	500345	keystroke_e	e	n/a
250.3975	0.0905	500795	keystroke_r	r	n/a
250.638	0.09	501276	keystroke_s	s	n/a
251.1465	0.091	502293	keystroke_Key.enter	Key.enter	n/a
251.245	8.4995	502490	prompt	n/a	cuts worm everyday hands\n
252.198	0.105	504396	keystroke_c	c	n/a
252.3325	0.0905	504665	keystroke_u	u	n/a
252.543	0.1045	505086	keystroke_t	t	n/a
252.798	0.12	505596	keystroke_s	s	n/a
253.037	0.0455	506074	keystroke_Key.space	Key.space	n/a
253.5175	0.1045	507035	keystroke_w	w	n/a
253.592	0.135	507184	keystroke_o	o	n/a
253.8325	0.12	507665	keystroke_m	m	n/a
254.4625	0.09	508925	keystroke_Key.backspace	Key.backspace	n/a
254.6425	0.0595	509285	keystroke_r	r	n/a
254.762	0.1205	509524	keystroke_m	m	n/a
255.092	0.09	510184	keystroke_Key.space	Key.space	n/a
255.5875	0.0745	511175	keystroke_e	e	n/a
255.7675	0.1195	511535	keystroke_v	v	n/a
255.932	0.1055	511864	keystroke_e	e	n/a
256.142	0.09	512284	keystroke_r	r	n/a
256.307	0.09	512614	keystroke_y	y	n/a
256.9075	0.1655	513815	keystroke_d	d	n/a
257.0125	0.1495	514025	keystroke_a	a	n/a
257.2225	0.104	514445	keystroke_y	y	n/a
257.882	0.075	515764	keystroke_Key.space	Key.space	n/a
258.167	0.105	516334	keystroke_h	h	n/a
258.302	0.1655	516604	keystroke_a	a	n/a
258.4525	0.12	516905	keystroke_n	n	n/a
258.5875	0.1205	517175	keystroke_d	d	n/a
258.8125	0.12	517625	keystroke_s	s	n/a
259.6665	0.076	519333	keystroke_Key.enter	Key.enter	n/a
259.749	10.885	519498	prompt	n/a	talent vertical indirect barry\n
260.8225	0.075	521645	keystroke_t	t	n/a
261.137	0.1055	522274	keystroke_a	a	n/a
261.3925	0.1345	522785	keystroke_l	l	n/a
261.512	0.0755	523024	keystroke_e	e	n/a
261.6925	0.075	523385	keystroke_n	n	n/a
261.873	0.09	523746	keystroke_t	t	n/a
263.2525	0.0895	526505	keystroke_Key.space	Key.space	n/a
263.7475	0.0905	527495	keystroke_v	v	n/a
263.942	0.0905	527884	keystroke_e	e	n/a
264.152	0.06	528304	keystroke_r	r	n/a
264.332	0.075	528664	keystroke_t	t	n/a
264.498	0.1185	528996	keystroke_i	i	n/a
264.6475	0.18	529295	keystroke_c	c	n/a
264.8125	0.12	529625	keystroke_a	a	n/a
264.978	0.134	529956	keystroke_l	l	n/a
265.8615	0.0755	531723	keystroke_Key.space	Key.space	n/a
266.177	0.1055	532354	keystroke_i	i	n/a
266.3725	0.105	532745	keystroke_n	n	n/a
267.242	0.0755	534484	keystroke_d	d	n/a
267.3475	0.105	534695	keystroke_i	i	n/a
267.9025	0.105	535805	keystroke_r	r	n/a
268.0825	0.075	536165	keystroke_e	e	n/a
268.3215	0.09	536643	keystroke_c	c	n/a
268.6225	0.0895	537245	keystroke_t	t	n/a
268.8475	0.075	537695	keystroke_Key.space	Key.space	n/a
269.2825	0.105	538565	keystroke_b	b	n/a
269.4475	0.12	538895	keystroke_a	a	n/a
269.7025	0.06	539405	keystroke_r	r	n/a
269.8225	0.0895	539645	keystroke_r	r	n/a
270.002	0.105	540004	keystroke_y	y	n/a
270.5425	0.0895	541085	keystroke_Key.enter	Key.enter	n/a
270.637	7.962	541274	prompt	n/a	flight controversial toner royal\n
271.6075	0.09	543215	keystroke_f	f	n/a
271.6825	0.1055	543365	keystroke_l	l	n/a
271.8775	0.1045	543755	keystroke_i	i	n/a
272.042	0.0755	544084	keystroke_g	g	n/a
272.148	0.089	544296	keystroke_h	h	n/a
272.282	0.09	544564	keystroke_t	t	n/a
272.807	0.075	545614	keystroke_Key.space	Key.space	n/a
273.032	0.105	546064	keystroke_c	c	n/a
273.122	0.0905	546244	keystroke_o	o	n/a
273.2725	0.12	546545	keystroke_n	n	n/a
273.4225	0.09	546845	keystroke_t	t	n/a
273.6175	0.09	547235	keystroke_r	r	n/a
273.8875	0.0895	547775	keystroke_o	o	n/a
274.547	0.1055	549094	keystroke_v	v	n/a
274.727	0.105	549454	keystroke_e	e	n/a
274.908	0.089	549816	keystroke_r	r	n/a
275.177	0.0755	550354	keystroke_s	s	n/a
275.2375	0.105	550475	keystroke_i	i	n/a
275.4475	0.12	550895	keystroke_a	a	n/a
275.6275	0.1195	551255	keystroke_l	l	n/a
276.0325	0.075	552065	keystroke_Key.space	Key.space	n/a
276.2875	0.105	552575	keystroke_t	t	n/a
276.3775	0.105	552755	keystroke_o	o	n/a
276.5425	0.1345	553085	keystroke_n	n	n/a
276.692	0.09	553384	keystroke_e	e	n/a
276.9025	0.09	553805	keystroke_r	r	n/a
277.0375	0.0895	554075	keystroke_Key.space	Key.space	n/a
277.5175	0.0745	555035	keystroke_r	r	n/a
277.577	0.1205	555154	keystroke_o	o	n/a
277.8165	0.1055	555633	keystroke_y	y	n/a
277.9825	0.12	555965	keystroke_a	a	n/a
278.2675	0.09	556535	keystroke_l	l	n/a
278.5225	0.0745	557045	keystroke_Key.enter	Key.enter	n/a
278.6035	8.5905	557207	prompt	n/a	bent composed villa temporarily\n
279.738	0.0895	559476	keystroke_b	b	n/a
279.918	0.104	559836	keystroke_e	e	n/a
280.0375	0.0905	560075	keystroke_n	n	n/a
280.2175	0.105	560435	keystroke_t	t	n/a
280.472	0.0905	560944	keystroke_Key.space	Key.space	n/a
280.712	0.12	561424	keystroke_c	c	n/a
280.817	0.1205	561634	keystroke_o	o	n/a
281.1175	0.105	562235	keystroke_m	m	n/a
281.3725	0.105	562745	keystroke_p	p	n/a
282.077	0.1055	564154	keystroke_o	o	n/a
282.2425	0.09	564485	keystroke_s	s	n/a
282.4375	0.075	564875	keystroke_e	e	n/a
282.6325	0.075	565265	keystroke_d	d	n/a
282.7975	0.06	565595	keystroke_Key.space	Key.space	n/a
283.2775	0.12	566555	keystroke_v	v	n/a
283.4125	0.09	566825	keystroke_i	i	n/a
283.6965	0.015	567393	keystroke_l	l	n/a
283.757	0.1055	567514	keystroke_l	l	n/a
283.922	0.1205	567844	keystroke_a	a	n/a
284.012	0.105	568024	keystroke_Key.space	Key.space	n/a
284.2675	0.0895	568535	keystroke_t	t	n/a
284.462	0.1055	568924	keystroke_e	e	n/a
284.913	0.0745	569826	keystroke_m	m	n/a
285.107	0.0905	570214	keystroke_p	p	n/a
285.513	0.0595	571026	keystroke_r	r	n/a
285.707	0.1205	571414	keystroke_a	a	n/a
285.9925	0.1055	571985	keystroke_r	r	n/a
286.127	0.0905	572254	keystroke_i	i	n/a
286.293	0.119	572586	keystroke_l	l	n/a
286.547	0.0905	573094	keystroke_y	y	n/a
287.102	0.09	574204	keystroke_Key.enter	Key.enter	n/a
287.199	9.595	574398	prompt	n/a	substantial travel cool voice\n
287.852	0.12	575704	keystroke_s	s	n/a
287.987	0.075	575974	keystroke_u	u	n/a
288.7075	0.075	577415	keystroke_b	b	n/a
288.932	0.09	577864	keystroke_s	s	n/a
289.157	0.0905	578314	keystroke_t	t	n/a
289.307	0.1205	578614	keystroke_a	a	n/a
289.5625	0.0895	579125	keystroke_n	n	n/a
289.8325	0.09	579665	keystroke_t	t	n/a
290.7625	0.075	581525	keystroke_i	i	n/a
291.092	0.105	582184	keystroke_a	a	n/a
291.182	0.12	582364	keystroke_l	l	n/a
291.4375	0.0745	582875	keystroke_Key.space	Key.space	n/a
291.843	0.074	583686	keystroke_t	t	n/a
292.0525	0.105	584105	keystroke_r	r	n/a
292.2775	0.03	584555	keystroke_d	d	n/a
292.7875	0.0895	585575	keystroke_Key.backspace	Key.backspace	n/a
293.043	0.1045	586086	keystroke_a	a	n/a
293.2675	0.0745	586535	keystroke_v	v	n/a
293.4165	0.106	586833	keystroke_e	e	n/a
294.047	0.09	588094	keystroke_l	l	n/a
294.287	0.0905	588574	keystroke_Key.space	Key.space	n/a
294.497	0.1205	588994	keystroke_c	c	n/a
294.6325	0.0755	589265	keystroke_o	o	n/a
294.7825	0.09	589565	keystroke_o	o	n/a
294.9925	0.105	589985	keystroke_l	l	n/a
295.127	0.1055	590254	keystroke_Key.space	Key.space	n/a
295.622	0.0755	591244	keystroke_v	v	n/a
295.757	0.09	591514	keystroke_o	o	n/a
295.922	0.0905	591844	keystroke_i	i	n/a
296.042	0.075	592084	keystroke_c	c	n/a
296.282	0.0755	592564	keystroke_e	e	n/a
296.717	0.075	593434	keystroke_Key.enter	Key.enter	n/a
296.799	9.385	593598	prompt	n/a	billing presents angry survivor\n
297.7225	0.1055	595445	keystroke_b	b	n/a
297.843	0.119	595686	keystroke_i	i	n/a
298.1575	0.0145	596315	keystroke_l	l	n/a
298.2325	0.09	596465	keystroke_l	l	n/a
298.4275	0.075	596855	keystroke_i	i	n/a
298.7125	0.09	597425	keystroke_n	n	n/a
299.268	0.0745	598536	keystroke_g	g	n/a
299.4025	0.0895	598805	keystroke_Key.space	Key.space	n/a
299.6275	0.0595	599255	keystroke_p	p	n/a
299.7775	0.105	599555	keystroke_r	r	n/a
299.9425	0.09	599885	keystroke_e	e	n/a
300.152	0.09	600304	keystroke_s	s	n/a
300.422	0.0755	600844	keystroke_e	e	n/a
300.9625	0.075	601925	keystroke_n	n	n/a
301.2025	0.075	602405	keystroke_t	t	n/a
301.4575	0.075	602915	keystroke_s	s	n/a
301.6825	0.075	603365	keystroke_Key.space	Key.space	n/a
301.9675	0.12	603935	keystroke_a	a	n/a
302.0725	0.105	604145	keystroke_n	n	n/a
302.357	0.0605	604714	keystroke_g	g	n/a
302.5675	0.0745	605135	keystroke_r	r	n/a
302.702	0.1055	605404	keystroke_y	y	n/a
302.912	0.09	605824	keystroke_Key.space	Key.space	n/a
303.6325	0.1055	607265	keystroke_s	s	n/a
303.768	0.074	607536	keystroke_u	u	n/a
303.932	0.0755	607864	keystroke_r	r	n/a
304.1275	0.105	608255	keystroke_v	v	n/a
304.2475	0.12	608495	keystroke_i	i	n/a
304.6075	0.075	609215	keystroke_v	v	n/a
305.3575	0.0745	610715	keystroke_o	o	n/a
305.537	0.0905	611074	keystroke_r	r	n/a
306.1075	0.074	612215	keystroke_Key.enter	Key.enter	n/a
306.188	11.501	612376	prompt	n/a	thumbzilla snake intensity karl\n
307.5925	0.075	615185	keystroke_t	t	n/a
307.6975	0.09	615395	keystroke_h	h	n/a
308.988	0.0895	617976	keystroke_m	m	n/a
309.602	0.0905	619204	keystroke_b	b	n/a
309.8425	0.1195	619685	keystroke_z	z	n/a
311.2525	0.09	622505	keystroke_i	i	n/a
311.462	0.0605	622924	keystroke_l	l	n/a
311.598	0.1045	623196	keystroke_l	l	n/a
311.7175	0.105	623435	keystroke_a	a	n/a
312.2425	0.089	624485	keystroke_Key.space	Key.space	n/a
312.4525	0.0905	624905	keystroke_s	s	n/a
312.5275	0.105	625055	keystroke_n	n	n/a
312.6625	0.1355	625325	keystroke_a	a	n/a
312.783	0.119	625566	keystroke_k	k	n/a
313.2025	0.0595	626405	keystroke_e	e	n/a
313.352	0.075	626704	keystroke_Key.space	Key.space	n/a
313.5325	0.06	627065	keystroke_i	i	n/a
313.697	0.105	627394	keystroke_n	n	n/a
313.832	0.1055	627664	keystroke_t	t	n/a
314.027	0.091	628054	keystroke_e	e	n/a
314.207	0.0905	628414	keystroke_n	n	n/a
314.8675	0.1205	629735	keystroke_s	s	n/a
315.0325	0.12	630065	keystroke_i	i	n/a
315.8275	0.045	631655	keystroke_t	t	n/a
315.902	0.0755	631804	keystroke_y	y	n/a
316.067	0.105	632134	keystroke_Key.space	Key.space	n/a
316.4275	0.105	632855	keystroke_k	k	n/a
316.548	0.134	633096	keystroke_a	a	n/a
316.847	0.0905	633694	keystroke_r	r	n/a
316.9375	0.12	633875	keystroke_l	l	n/a
317.612	0.075	635224	keystroke_Key.enter	Key.enter	n/a
317.6925	11.6815	635385	prompt	n/a	predictions considerations reid avon\n
318.452	0.1055	636904	keystroke_p	p	n/a
318.587	0.1505	637174	keystroke_r	r	n/a
318.722	0.09	637444	keystroke_e	e	n/a
318.962	0.0905	637924	keystroke_d	d	n/a
319.1425	0.105	638285	keystroke_i	i	n/a
319.548	0.0745	639096	keystroke_c	c	n/a
319.7425	0.0755	639485	keystroke_i	i	n/a
319.983	0.0895	639966	keystroke_t	t	n/a
320.6415	0.075	641283	keystroke_Key.backspace	Key.backspace	n/a
320.852	0.09	641704	keystroke_Key.backspace	Key.backspace	n/a
321.362	0.105	642724	keystroke_t	t	n/a
321.482	0.105	642964	keystroke_i	i	n/a
321.542	0.15	643084	keystroke_o	o	n/a
321.737	0.12	643474	keystroke_n	n	n/a
321.902	0.12	643804	keystroke_s	s	n/a
322.652	0.0905	645304	keystroke_Key.space	Key.space	n/a
322.8475	0.075	645695	keystroke_c	c	n/a
322.892	0.105	645784	keystroke_o	o	n/a
323.042	0.105	646084	keystroke_n	n	n/a
323.417	0.105	646834	keystroke_s	s	n/a
323.8525	0.0895	647705	keystroke_i	i	n/a
324.077	0.0905	648154	keystroke_d	d	n/a
324.4525	0.09	648905	keystroke_e	e	n/a
324.6625	0.09	649325	keystroke_r	r	n/a
324.8425	0.12	649685	keystroke_a	a	n/a
325.0975	0.0745	650195	keystroke_t	t	n/a
325.1725	0.1195	650345	keystroke_i	i	n/a
325.2475	0.165	650495	keystroke_o	o	n/a
325.6225	0.12	651245	keystroke_n	n	n/a
325.8175	0.105	651635	keystroke_s	s	n/a
326.057	0.0745	652114	keystroke_Key.space	Key.space	n/a
326.7475	0.1345	653495	keystroke_r	r	n/a
326.837	0.1205	653674	keystroke_e	e	n/a
327.0775	0.09	654155	keystroke_i	i	n/a
327.6625	0.0745	655325	keystroke_d	d	n/a
327.902	0.075	655804	keystroke_Key.space	Key.space	n/a
328.217	0.12	656434	keystroke_a	a	n/a
328.4575	0.075	656915	keystroke_v	v	n/a
328.562	0.12	657124	keystroke_o	o	n/a
328.7425	0.1195	657485	keystroke_n	n	n/a
329.297	0.075	658594	keystroke_Key.enter	Key.enter	n/a
329.385	11.839	658770	prompt	n/a	temporarily bless alliance humans\n
330.498	0.074	660996	keystroke_t	t	n/a
331.068	0.029	662136	keystroke_e	e	n/a
331.082	0.075	662164	keystroke_m	m	n/a
331.2765	0.105	662553	keystroke_p	p	n/a
331.8175	0.0905	663635	keystroke_r	r	n/a
332.0415	0.106	664083	keystroke_a	a	n/a
332.7925	0.0895	665585	keystroke_Key.backspace	Key.backspace	n/a
333.0175	0.089	666035	keystroke_Key.backspace	Key.backspace	n/a
333.5725	0.0895	667145	keystroke_o	o	n/a
333.722	0.15	667444	keystroke_r	r	n/a
333.887	0.1505	667774	keystroke_a	a	n/a
334.3075	0.105	668615	keystroke_r	r	n/a
334.4425	0.09	668885	keystroke_i	i	n/a
334.6515	0.076	669303	keystroke_l	l	n/a
334.8925	0.075	669785	keystroke_y	y	n/a
335.1165	0.0905	670233	keystroke_Key.space	Key.space	n/a
335.5675	0.1045	671135	keystroke_b	b	n/a
335.7475	0.1195	671495	keystroke_l	l	n/a
335.852	0.1055	671704	keystroke_e	e	n/a
336.1525	0.089	672305	keystroke_s	s	n/a
336.392	0.09	672784	keystroke_s	s	n/a
336.677	0.075	673354	keystroke_Key.space	Key.space	n/a
337.262	0.105	674524	keystroke_a	a	n/a
337.352	0.09	674704	keystroke_l	l	n/a
337.5175	0.09	675035	keystroke_l	l	n/a
337.7125	0.075	675425	keystroke_i	i	n/a
337.8625	0.1045	675725	keystroke_a	a	n/a
337.982	0.0905	675964	keystroke_n	n	n/a
338.162	0.0755	676324	keystroke_c	c	n/a
338.4025	0.06	676805	keystroke_e	e	n/a
339.032	0.0145	678064	keystroke_Key.space	Key.space	n/a
339.2125	0.0755	678425	keystroke_h	h	n/a
339.7525	0.075	679505	keystroke_u	u	n/a
340.0075	0.1045	680015	keystroke_m	m	n/a
340.188	0.1195	680376	keystroke_a	a	n/a
340.292	0.1055	680584	keystroke_n	n	n/a
340.457	0.105	680914	keystroke_s	s	n/a
341.132	0.09	682264	keystroke_Key.enter	Key.enter	n/a
341.2285	10.0155	682457	prompt	n/a	caps flying constraints virtue\n
342.3625	0.105	684725	keystroke_c	c	n/a
342.6025	0.1045	685205	keystroke_a	a	n/a
342.8575	0.1195	685715	keystroke_p	p	n/a
343.323	0.0745	686646	keystroke_s	s	n/a
343.487	0.075	686974	keystroke_Key.space	Key.space	n/a
343.8165	0.076	687633	keystroke_f	f	n/a
343.8625	0.135	687725	keystroke_l	l	n/a
344.1625	0.09	688325	keystroke_y	y	n/a
344.3575	0.09	688715	keystroke_i	i	n/a
344.5675	0.1045	689135	keystroke_n	n	n/a
344.747	0.105	689494	keystroke_g	g	n/a
345.3015	0.091	690603	keystroke_Key.space	Key.space	n/a
345.572	0.0905	691144	keystroke_c	c	n/a
345.6765	0.121	691353	keystroke_o	o	n/a
345.9015	0.121	691803	keystroke_n	n	n/a
346.5325	0.105	693065	keystroke_s	s	n/a
346.8175	0.0895	693635	keystroke_t	t	n/a
347.0125	0.105	694025	keystroke_r	r	n/a
347.238	0.1045	694476	keystroke_a	a	n/a
347.4325	0.09	694865	keystroke_i	i	n/a
347.657	0.1205	695314	keystroke_n	n	n/a
347.882	0.09	695764	keystroke_t	t	n/a
348.5275	0.0895	697055	keystroke_s	s	n/a
348.722	0.0895	697444	keystroke_Key.space	Key.space	n/a
349.5625	0.075	699125	keystroke_v	v	n/a
349.7275	0.075	699455	keystroke_i	i	n/a
349.9665	0.076	699933	keystroke_r	r	n/a
350.2675	0.074	700535	keystroke_t	t	n/a
350.477	0.09	700954	keystroke_u	u	n/a
350.598	0.0745	701196	keystroke_e	e	n/a
351.1525	0.0895	702305	keystroke_Key.enter	Key.enter	n/a
351.2535	7.8505	702507	prompt	n/a	offer surname cents feeling\n
352.022	0.105	704044	keystroke_o	o	n/a
352.278	0.0745	704556	keystroke_f	f	n/a
352.4125	0.09	704825	keystroke_f	f	n/a
352.6525	0.09	705305	keystroke_e	e	n/a
352.877	0.09	705754	keystroke_r	r	n/a
353.0275	0.09	706055	keystroke_Key.space	Key.space	n/a
353.6275	0.09	707255	keystroke_s	s	n/a
353.7475	0.075	707495	keystroke_u	u	n/a
354.3925	0.075	708785	keystroke_r	r	n/a
354.9025	0.105	709805	keystroke_n	n	n/a
355.0215	0.151	710043	keystroke_a	a	n/a
355.233	0.1495	710466	keystroke_m	m	n/a
355.3975	0.075	710795	keystroke_e	e	n/a
355.6075	0.074	711215	keystroke_Key.space	Key.space	n/a
355.8175	0.075	711635	keystroke_c	c	n/a
356.0425	0.045	712085	keystroke_e	e	n/a
356.162	0.135	712324	keystroke_n	n	n/a
356.327	0.09	712654	keystroke_t	t	n/a
356.5825	0.1345	713165	keystroke_s	s	n/a
356.7615	0.09	713523	keystroke_Key.space	Key.space	n/a
356.9865	0.105	713973	keystroke_f	f	n/a
357.2115	0.0755	714423	keystroke_e	e	n/a
357.407	0.0905	714814	keystroke_e	e	n/a
357.887	0.135	715774	keystroke_l	l	n/a
358.1415	0.091	716283	keystroke_i	i	n/a
358.3225	0.1645	716645	keystroke_n	n	n/a
358.5175	0.09	717035	keystroke_g	g	n/a
359.0115	0.091	718023	keystroke_Key.enter	Key.enter	n/a
359.109	8.4395	718218	prompt	n/a	commands lender you ware\n
359.912	0.0745	719824	keystroke_c	c	n/a
360.167	0.12	720334	keystroke_o	o	n/a
360.392	0.0605	720784	keystroke_m	m	n/a
360.5125	0.089	721025	keystroke_m	m	n/a
360.7525	0.12	721505	keystroke_a	a	n/a
361.3675	0.105	722735	keystroke_n	n	n/a
361.6075	0.105	723215	keystroke_d	d	n/a
361.8625	0.105	723725	keystroke_s	s	n/a
362.132	0.06	724264	keystroke_Key.space	Key.space	n/a
362.312	0.136	724624	keystroke_l	l	n/a
362.463	0.059	724926	keystroke_e	e	n/a
362.627	0.0905	725254	keystroke_n	n	n/a
364.337	0.075	728674	keystroke_d	d	n/a
364.533	0.0745	729066	keystroke_e	e	n/a
364.757	0.06	729514	keystroke_r	r	n/a
364.952	0.075	729904	keystroke_Key.space	Key.space	n/a
365.4175	0.044	730835	keystroke_y	y	n/a
365.5525	0.15	731105	keystroke_o	o	n/a
365.7325	0.105	731465	keystroke_u	u	n/a
365.957	0.09	731914	keystroke_Key.space	Key.space	n/a
366.512	0.1045	733024	keystroke_w	w	n/a
366.7065	0.1205	733413	keystroke_a	a	n/a
366.9775	0.104	733955	keystroke_r	r	n/a
367.1415	0.1055	734283	keystroke_e	e	n/a
367.487	0.06	734974	keystroke_Key.enter	Key.enter	n/a
367.5515	11.9075	735103	prompt	n/a	germany mcdonald wicked install\n
368.6425	0.075	737285	keystroke_g	g	n/a
368.8375	0.09	737675	keystroke_r	r	n/a
369.077	0.105	738154	keystroke_m	m	n/a
369.228	0.104	738456	keystroke_a	a	n/a
369.347	0.09	738694	keystroke_n	n	n/a
369.9315	0.015	739863	keystroke_Key.backspace	Key.backspace	n/a
370.0515	0.091	740103	keystroke_Key.backspace	Key.backspace	n/a
370.2775	0.1045	740555	keystroke_Key.backspace	Key.backspace	n/a
371.027	0.09	742054	keystroke_Key.backspace	Key.backspace	n/a
371.418	0.0895	742836	keystroke_e	e	n/a
371.6275	0.0895	743255	keystroke_r	r	n/a
371.7475	0.105	743495	keystroke_m	m	n/a
372.782	0.1205	745564	keystroke_a	a	n/a
372.917	0.0755	745834	keystroke_n	n	n/a
373.1575	0.075	746315	keystroke_y	y	n/a
373.7425	0.0895	747485	keystroke_Key.space	Key.space	n/a
373.9375	0.1195	747875	keystroke_m	m	n/a
374.1915	0.076	748383	keystroke_c	c	n/a
374.5075	0.06	749015	keystroke_d	d	n/a
374.6125	0.1055	749225	keystroke_o	o	n/a
374.9415	0.1055	749883	keystroke_n	n	n/a
375.107	0.0905	750214	keystroke_a	a	n/a
375.2425	0.135	750485	keystroke_l	l	n/a
375.4065	0.09	750813	keystroke_d	d	n/a
375.6175	0.0895	751235	keystroke_Key.space	Key.space	n/a
375.902	0.0905	751804	keystroke_w	w	n/a
375.9775	0.1345	751955	keystroke_i	i	n/a
376.1725	0.09	752345	keystroke_c	c	n/a
376.2775	0.135	752555	keystroke_k	k	n/a
376.4575	0.09	752915	keystroke_e	e	n/a
376.6975	0.105	753395	keystroke_d	d	n/a
376.8315	0.091	753663	keystroke_Key.space	Key.space	n/a
376.9975	0.0895	753995	keystroke_i	i	n/a
377.192	0.0755	754384	keystroke_n	n	n/a
377.3425	0.1195	754685	keystroke_s	s	n/a
377.627	0.105	755254	keystroke_t	t	n/a
377.867	0.12	755734	keystroke_a	a	n/a
378.0625	0.09	756125	keystroke_l	l	n/a
378.2265	0.1055	756453	keystroke_l	l	n/a
379.367	0.09	758734	keystroke_Key.enter	Key.enter	n/a
379.464	9.25	758928	prompt	n/a	downloadable cheque poem voip\n
380.492	0.0455	760984	keystroke_d	d	n/a
380.552	0.12	761104	keystroke_o	o	n/a
381.227	0.1205	762454	keystroke_w	w	n/a
381.3625	0.0295	762725	keystroke_n	n	n/a
381.482	0.09	762964	keystroke_l	l	n/a
381.6925	0.0745	763385	keystroke_o	o	n/a
381.813	0.105	763626	keystroke_a	a	n/a
382.1125	0.12	764225	keystroke_d	d	n/a
382.2775	0.12	764555	keystroke_a	a	n/a
382.5475	0.075	765095	keystroke_b	b	n/a
382.6975	0.0605	765395	keystroke_l	l	n/a
382.8175	0.1045	765635	keystroke_e	e	n/a
382.982	0.09	765964	keystroke_Key.space	Key.space	n/a
383.3575	0.105	766715	keystroke_c	c	n/a
383.7475	0.0895	767495	keystroke_h	h	n/a
384.363	0.09	768726	keystroke_e	e	n/a
384.7375	0.1045	769475	keystroke_q	q	n/a
385.127	0.105	770254	keystroke_u	u	n/a
385.262	0.075	770524	keystroke_e	e	n/a
385.4725	0.075	770945	keystroke_Key.space	Key.space	n/a
385.6975	0.165	771395	keystroke_p	p	n/a
385.8475	0.135	771695	keystroke_o	o	n/a
386.0575	0.104	772115	keystroke_e	e	n/a
386.207	0.151	772414	keystroke_m	m	n/a
386.432	0.075	772864	keystroke_Key.space	Key.space	n/a
387.0775	0.0145	774155	keystroke_v	v	n/a
387.4815	0.106	774963	keystroke_o	o	n/a
387.6325	0.0745	775265	keystroke_i	i	n/a
387.812	0.105	775624	keystroke_p	p	n/a
388.6225	0.09	777245	keystroke_Key.enter	Key.enter	n/a
388.7195	11.4395	777439	prompt	n/a	canvas batteries interpreted blackberry\n
389.8525	0.12	779705	keystroke_c	c	n/a
390.0775	0.1355	780155	keystroke_a	a	n/a
390.2275	0.0905	780455	keystroke_n	n	n/a
390.363	0.119	780726	keystroke_v	v	n/a
390.6175	0.0445	781235	keystroke_e	e	n/a
391.2015	0.105	782403	keystroke_Key.backspace	Key.backspace	n/a
391.3525	0.12	782705	keystroke_a	a	n/a
391.5765	0.1055	783153	keystroke_s	s	n/a
391.8325	0.074	783665	keystroke_Key.space	Key.space	n/a
392.2515	0.1205	784503	keystroke_b	b	n/a
392.3875	0.1195	784775	keystroke_a	a	n/a
392.6725	0.0755	785345	keystroke_t	t	n/a
392.807	0.09	785614	keystroke_t	t	n/a
393.002	0.135	786004	keystroke_e	e	n/a
393.2125	0.1045	786425	keystroke_r	r	n/a
393.347	0.1205	786694	keystroke_i	i	n/a
393.632	0.105	787264	keystroke_e	e	n/a
393.917	0.12	787834	keystroke_s	s	n/a
394.217	0.075	788434	keystroke_Key.space	Key.space	n/a
394.4575	0.104	788915	keystroke_i	i	n/a
394.8775	0.09	789755	keystroke_n	n	n/a
395.1165	0.106	790233	keystroke_t	t	n/a
395.2965	0.1055	790593	keystroke_e	e	n/a
395.4765	0.091	790953	keystroke_r	r	n/a
396.1825	0.12	792365	keystroke_p	p	n/a
396.347	0.135	792694	keystroke_r	r	n/a
396.437	0.15	792874	keystroke_e	e	n/a
396.7075	0.1045	793415	keystroke_t	t	n/a
396.842	0.09	793684	keystroke_e	e	n/a
397.067	0.0905	794134	keystroke_d	d	n/a
397.2325	0.0895	794465	keystroke_Key.space	Key.space	n/a
397.5625	0.075	795125	keystroke_b	b	n/a
397.6965	0.136	795393	keystroke_l	l	n/a
397.8025	0.12	795605	keystroke_a	a	n/a
398.2515	0.076	796503	keystroke_c	c	n/a
398.3275	0.105	796655	keystroke_k	k	n/a
398.687	0.075	797374	keystroke_b	b	n/a
398.912	0.105	797824	keystroke_e	e	n/a
399.1375	0.045	798275	keystroke_r	r	n/a
399.2425	0.09	798485	keystroke_r	r	n/a
399.407	0.1055	798814	keystroke_y	y	n/a
400.067	0.0905	800134	keystroke_Key.enter	Key.enter	n/a
400.1635	7.9005	800327	prompt	n/a	towns academic wanted admin\n
401.5075	0.09	803015	keystroke_t	t	n/a
401.6275	0.1495	803255	keystroke_o	o	n/a
401.837	0.1055	803674	keystroke_w	w	n/a
402.3025	0.105	804605	keystroke_n	n	n/a
402.4675	0.1045	804935	keystroke_s	s	n/a
402.722	0.0745	805444	keystroke_Key.space	Key.space	n/a
403.0075	0.105	806015	keystroke_a	a	n/a
403.2775	0.1045	806555	keystroke_c	c	n/a
403.4565	0.136	806913	keystroke_a	a	n/a
403.7575	0.06	807515	keystroke_d	d	n/a
403.9225	0.09	807845	keystroke_e	e	n/a
404.042	0.1055	808084	keystroke_m	m	n/a
404.252	0.1205	808504	keystroke_i	i	n/a
404.4625	0.1045	808925	keystroke_c	c	n/a
404.6125	0.0895	809225	keystroke_Key.space	Key.space	n/a
404.852	0.105	809704	keystroke_w	w	n/a
405.0625	0.1345	810125	keystroke_a	a	n/a
405.227	0.1045	810454	keystroke_n	n	n/a
405.392	0.1055	810784	keystroke_t	t	n/a
405.602	0.09	811204	keystroke_e	e	n/a
405.797	0.0905	811594	keystroke_d	d	n/a
405.977	0.0755	811954	keystroke_Key.space	Key.space	n/a
406.142	0.1355	812284	keystroke_a	a	n/a
406.367	0.1055	812734	keystroke_d	d	n/a
406.4875	0.105	812975	keystroke_m	m	n/a
407.2525	0.1045	814505	keystroke_i	i	n/a
407.463	0.0895	814926	keystroke_n	n	n/a
407.972	0.0905	815944	keystroke_Key.enter	Key.enter	n/a
408.0695	14.1245	816139	prompt	n/a	accordingly msgstr relationship told\n
408.8725	0.104	817745	keystroke_a	a	n/a
409.0815	0.075	818163	keystroke_c	c	n/a
409.2325	0.09	818465	keystroke_c	c	n/a
409.4125	0.135	818825	keystroke_o	o	n/a
409.652	0.1055	819304	keystroke_r	r	n/a
410.3715	0.0605	820743	keystroke_d	d	n/a
410.477	0.12	820954	keystroke_i	i	n/a
410.6875	0.1045	821375	keystroke_n	n	n/a
411.0625	0.0745	822125	keystroke_g	g	n/a
411.212	0.1205	822424	keystroke_l	l	n/a
411.557	0.105	823114	keystroke_y	y	n/a
411.872	0.06	823744	keystroke_Key.space	Key.space	n/a
413.087	0.1055	826174	keystroke_m	m	n/a
414.0475	0.089	828095	keystroke_s	s	n/a
415.457	0.0755	830914	keystroke_g	g	n/a
415.7275	0.105	831455	keystroke_s	s	n/a
416.6715	0.076	833343	keystroke_t	t	n/a
417.2125	0.075	834425	keystroke_r	r	n/a
417.5115	0.075	835023	keystroke_Key.space	Key.space	n/a
417.7675	0.134	835535	keystroke_r	r	n/a
417.8715	0.135	835743	keystroke_e	e	n/a
418.0225	0.1355	836045	keystroke_l	l	n/a
418.1725	0.12	836345	keystroke_a	a	n/a
418.4565	0.091	836913	keystroke_t	t	n/a
418.5775	0.1045	837155	keystroke_i	i	n/a
418.5925	0.1795	837185	keystroke_o	o	n/a
418.832	0.1055	837664	keystroke_n	n	n/a
419.342	0.075	838684	keystroke_s	s	n/a
419.4625	0.1195	838925	keystroke_h	h	n/a
419.672	0.1205	839344	keystroke_i	i	n/a
419.8525	0.1195	839705	keystroke_p	p	n/a
420.3025	0.0595	840605	keystroke_Key.space	Key.space	n/a
420.662	0.0755	841324	keystroke_t	t	n/a
420.812	0.12	841624	keystroke_o	o	n/a
421.0525	0.1045	842105	keystroke_l	l	n/a
421.6965	0.075	843393	keystroke_d	d	n/a
422.087	0.105	844174	keystroke_Key.enter	Key.enter	n/a
422.199	8.86	844398	prompt	n/a	selecting ethical hill insights\n
423.167	0.105	846334	keystroke_s	s	n/a
423.3925	0.0895	846785	keystroke_e	e	n/a
423.542	0.1355	847084	keystroke_l	l	n/a
423.6925	0.0745	847385	keystroke_e	e	n/a
423.917	0.0905	847834	keystroke_c	c	n/a
424.217	0.075	848434	keystroke_t	t	n/a
424.2775	0.1195	848555	keystroke_i	i	n/a
424.4725	0.119	848945	keystroke_n	n	n/a
424.6375	0.075	849275	keystroke_g	g	n/a
424.7715	0.09	849543	keystroke_Key.space	Key.space	n/a
425.717	0.09	851434	keystroke_e	e	n/a
425.9875	0.0895	851975	keystroke_t	t	n/a
426.092	0.12	852184	keystroke_h	h	n/a
426.152	0.165	852304	keystroke_i	i	n/a
426.332	0.2105	852664	keystroke_c	c	n/a
426.5125	0.135	853025	keystroke_a	a	n/a
426.7075	0.12	853415	keystroke_l	l	n/a
426.9025	0.089	853805	keystroke_Key.space	Key.space	n/a
427.1265	0.0755	854253	keystroke_h	h	n/a
427.292	0.09	854584	keystroke_i	i	n/a
427.5025	0.0895	855005	keystroke_l	l	n/a
427.6975	0.1045	855395	keystroke_l	l	n/a
427.847	0.1055	855694	keystroke_Key.space	Key.space	n/a
428.0125	0.09	856025	keystroke_i	i	n/a
428.207	0.09	856414	keystroke_n	n	n/a
428.972	0.075	857944	keystroke_s	s	n/a
429.6175	0.12	859235	keystroke_i	i	n/a
429.8725	0.075	859745	keystroke_g	g	n/a
429.977	0.12	859954	keystroke_h	h	n/a
430.187	0.105	860374	keystroke_t	t	n/a
431.042	0.0155	862084	keystroke_Key.enter	Key.enter	n/a
431.0645	13.269	862129	prompt	n/a	foundations highlight wyoming gravity\n
432.242	0.0905	864484	keystroke_f	f	n/a
432.3175	0.06	864635	keystroke_o	o	n/a
432.4075	0.0905	864815	keystroke_u	u	n/a
432.6325	0.12	865265	keystroke_n	n	n/a
432.767	0.135	865534	keystroke_d	d	n/a
432.8725	0.1195	865745	keystroke_a	a	n/a
433.1425	0.1045	866285	keystroke_t	t	n/a
433.322	0.1655	866644	keystroke_i	i	n/a
436.1595	0.043	872319	keystroke_o	o	n/a
436.2615	0.1055	872523	keystroke_n	n	n/a
436.442	0.1205	872884	keystroke_s	s	n/a
436.817	0.0905	873634	keystroke_Key.space	Key.space	n/a
437.0725	0.12	874145	keystroke_h	h	n/a
437.1775	0.1345	874355	keystroke_i	i	n/a
437.4765	0.0905	874953	keystroke_g	g	n/a
437.612	0.0905	875224	keystroke_h	h	n/a
438.002	0.09	876004	keystroke_l	l	n/a
438.1675	0.09	876335	keystroke_i	i	n/a
438.4525	0.075	876905	keystroke_g	g	n/a
438.5575	0.105	877115	keystroke_h	h	n/a
438.7675	0.1045	877535	keystroke_t	t	n/a
439.097	0.0745	878194	keystroke_Key.space	Key.space	n/a
440.2525	0.1495	880505	keystroke_w	w	n/a
440.447	0.0755	880894	keystroke_y	y	n/a
440.5815	0.12	881163	keystroke_o	o	n/a
440.8225	0.105	881645	keystroke_m	m	n/a
441.0175	0.0895	882035	keystroke_i	i	n/a
441.1675	0.105	882335	keystroke_n	n	n/a
441.3315	0.09	882663	keystroke_g	g	n/a
441.857	0.0905	883714	keystroke_Key.space	Key.space	n/a
442.6225	0.075	885245	keystroke_g	g	n/a
442.8475	0.12	885695	keystroke_r	r	n/a
442.9825	0.2545	885965	keystroke_a	a	n/a
443.192	0.09	886384	keystroke_v	v	n/a
443.312	0.1205	886624	keystroke_i	i	n/a
443.522	0.1055	887044	keystroke_t	t	n/a
443.6575	0.104	887315	keystroke_y	y	n/a
444.2265	0.105	888453	keystroke_Key.enter	Key.enter	n/a
444.3375	13.2575	888675	prompt	n/a	expanded finals where're marketplace\n
445.3975	0.0895	890795	keystroke_e	e	n/a
446.072	0.0905	892144	keystroke_x	x	n/a
446.2225	0.105	892445	keystroke_p	p	n/a
446.4015	0.1355	892803	keystroke_a	a	n/a
446.5515	0.151	893103	keystroke_n	n	n/a
446.7175	0.075	893435	keystroke_d	d	n/a
446.912	0.0905	893824	keystroke_e	e	n/a
447.1225	0.0895	894245	keystroke_d	d	n/a
447.917	0.09	895834	keystroke_Key.space	Key.space	n/a
448.502	0.0905	897004	keystroke_f	f	n/a
448.5925	0.1045	897185	keystroke_i	i	n/a
448.817	0.075	897634	keystroke_n	n	n/a
448.952	0.135	897904	keystroke_a	a	n/a
449.1765	0.136	898353	keystroke_l	l	n/a
449.4775	0.075	898955	keystroke_s	s	n/a
449.732	0.09	899464	keystroke_Key.space	Key.space	n/a
450.992	0.076	901984	keystroke_w	w	n/a
451.1425	0.105	902285	keystroke_h	h	n/a
451.2475	0.105	902495	keystroke_e	e	n/a
451.5025	0.105	903005	keystroke_r	r	n/a
451.8175	0.03	903635	keystroke_e	e	n/a
452.3275	0.0445	904655	keystroke_'	'	n/a
453.197	0.1205	906394	keystroke_r	r	n/a
453.2875	0.12	906575	keystroke_e	e	n/a
454.0975	0.075	908195	keystroke_Key.space	Key.space	n/a
454.3225	0.12	908645	keystroke_m	m	n/a
454.457	0.135	908914	keystroke_a	a	n/a
454.7575	0.0895	909515	keystroke_r	r	n/a
455.2075	0.075	910415	keystroke_k	k	n/a
455.3125	0.0595	910625	keystroke_e	e	n/a
456.0025	0.105	912005	keystroke_t	t	n/a
456.1225	0.1045	912245	keystroke_p	p	n/a
456.722	0.1355	913444	keystroke_l	l	n/a
456.8725	0.12	913745	keystroke_a	a	n/a
457.0675	0.0895	914135	keystroke_c	c	n/a
457.292	0.075	914584	keystroke_e	e	n/a
457.502	0.09	915004	keystroke_Key.enter	Key.enter	n/a
457.6025	8.8115	915205	prompt	n/a	disorders envelope centers peeing\n
458.507	0.075	917014	keystroke_d	d	n/a
459.2275	0.09	918455	keystroke_i	i	n/a
459.9925	0.09	919985	keystroke_s	s	n/a
460.1115	0.121	920223	keystroke_o	o	n/a
460.3525	0.105	920705	keystroke_r	r	n/a
460.6675	0.075	921335	keystroke_d	d	n/a
460.8775	0.075	921755	keystroke_e	e	n/a
461.0875	0.075	922175	keystroke_r	r	n/a
461.3415	0.106	922683	keystroke_s	s	n/a
461.462	0.105	922924	keystroke_Key.space	Key.space	n/a
461.672	0.0605	923344	keystroke_e	e	n/a
461.717	0.12	923434	keystroke_n	n	n/a
461.9425	0.0895	923885	keystroke_v	v	n/a
462.137	0.09	924274	keystroke_e	e	n/a
462.257	0.09	924514	keystroke_l	l	n/a
462.482	0.0755	924964	keystroke_o	o	n/a
462.632	0.1055	925264	keystroke_p	p	n/a
462.812	0.075	925624	keystroke_e	e	n/a
462.9475	0.0895	925895	keystroke_Key.space	Key.space	n/a
463.127	0.075	926254	keystroke_c	c	n/a
463.352	0.075	926704	keystroke_e	e	n/a
463.442	0.12	926884	keystroke_n	n	n/a
463.6075	0.09	927215	keystroke_t	t	n/a
463.8175	0.105	927635	keystroke_e	e	n/a
463.9975	0.105	927995	keystroke_r	r	n/a
464.2675	0.0895	928535	keystroke_s	s	n/a
464.417	0.1055	928834	keystroke_Key.space	Key.space	n/a
464.6275	0.12	929255	keystroke_p	p	n/a
464.8225	0.0745	929645	keystroke_e	e	n/a
464.9715	0.091	929943	keystroke_e	e	n/a
465.122	0.1205	930244	keystroke_i	i	n/a
465.3465	0.12	930693	keystroke_n	n	n/a
465.5125	0.075	931025	keystroke_g	g	n/a
466.322	0.0905	932644	keystroke_Key.enter	Key.enter	n/a
466.419	9.235	932838	prompt	n/a	reprint applying jackson download\n
467.2525	0.12	934505	keystroke_r	r	n/a
467.4165	0.121	934833	keystroke_e	e	n/a
467.5965	0.12	935193	keystroke_p	p	n/a
468.2275	0.074	936455	keystroke_r	r	n/a
468.3175	0.1045	936635	keystroke_i	i	n/a
468.482	0.1345	936964	keystroke_n	n	n/a
468.6925	0.0895	937385	keystroke_t	t	n/a
468.8565	0.091	937713	keystroke_Key.space	Key.space	n/a
469.1275	0.105	938255	keystroke_a	a	n/a
469.2925	0.06	938585	keystroke_p	p	n/a
469.4275	0.09	938855	keystroke_p	p	n/a
470.072	0.0605	940144	keystroke_l	l	n/a
470.507	0.06	941014	keystroke_y	y	n/a
470.687	0.1055	941374	keystroke_i	i	n/a
471.302	0.105	942604	keystroke_n	n	n/a
471.4525	0.074	942905	keystroke_g	g	n/a
472.0225	0.0595	944045	keystroke_Key.space	Key.space	n/a
472.307	0.1055	944614	keystroke_j	j	n/a
472.4275	0.12	944855	keystroke_a	a	n/a
472.6965	0.091	945393	keystroke_c	c	n/a
472.802	0.15	945604	keystroke_k	k	n/a
473.087	0.1045	946174	keystroke_s	s	n/a
473.2225	0.135	946445	keystroke_o	o	n/a
473.4325	0.12	946865	keystroke_n	n	n/a
473.582	0.0905	947164	keystroke_Key.space	Key.space	n/a
473.8075	0.1045	947615	keystroke_d	d	n/a
473.9125	0.119	947825	keystroke_o	o	n/a
474.212	0.0905	948424	keystroke_w	w	n/a
474.3325	0.1045	948665	keystroke_n	n	n/a
474.512	0.105	949024	keystroke_l	l	n/a
474.722	0.09	949444	keystroke_o	o	n/a
474.8575	0.1495	949715	keystroke_a	a	n/a
475.067	0.105	950134	keystroke_d	d	n/a
475.5625	0.089	951125	keystroke_Key.enter	Key.enter	n/a
475.658	17.531	951316	prompt	n/a	camcorder insurance owns moving\n
476.552	0.09	953104	keystroke_c	c	n/a
477.362	0.105	954724	keystroke_a	a	n/a
477.452	0.0905	954904	keystroke_m	m	n/a
477.9175	0.075	955835	keystroke_c	c	n/a
478.0515	0.105	956103	keystroke_o	o	n/a
478.3365	0.121	956673	keystroke_r	r	n/a
478.5165	0.0755	957033	keystroke_e	e	n/a
478.6975	0.06	957395	keystroke_d	d	n/a
478.8925	0.075	957785	keystroke_e	e	n/a
479.1025	0.0745	958205	keystroke_r	r	n/a
479.2975	0.0895	958595	keystroke_Key.space	Key.space	n/a
482.7035	0.001	965407	keystroke_Key.backspace	Key.backspace	n/a
482.852	0.0745	965704	keystroke_Key.backspace	Key.backspace	n/a
483.0925	0.09	966185	keystroke_Key.backspace	Key.backspace	n/a
483.3625	0.075	966725	keystroke_Key.backspace	Key.backspace	n/a
483.602	0.075	967204	keystroke_Key.backspace	Key.backspace	n/a
485.2975	0.0445	970595	keystroke_d	d	n/a
485.492	0.075	970984	keystroke_e	e	n/a
485.762	0.0755	971524	keystroke_r	r	n/a
485.9725	0.0745	971945	keystroke_Key.space	Key.space	n/a
486.6915	0.091	973383	keystroke_i	i	n/a
486.8725	0.1045	973745	keystroke_n	n	n/a
487.427	0.09	974854	keystroke_s	s	n/a
487.5775	0.06	975155	keystroke_u	u	n/a
487.817	0.0905	975634	keystroke_r	r	n/a
487.892	0.1655	975784	keystroke_e	e	n/a
488.6575	0.105	977315	keystroke_Key.backspace	Key.backspace	n/a
488.897	0.09	977794	keystroke_a	a	n/a
489.272	0.135	978544	keystroke_n	n	n/a
489.377	0.075	978754	keystroke_c	c	n/a
489.617	0.0755	979234	keystroke_e	e	n/a
489.7825	0.0745	979565	keystroke_Key.space	Key.space	n/a
490.3815	0.106	980763	keystroke_o	o	n/a
490.5925	0.09	981185	keystroke_w	w	n/a
490.6975	0.105	981395	keystroke_n	n	n/a
491.4165	0.076	982833	keystroke_s	s	n/a
491.7015	0.061	983403	keystroke_Key.space	Key.space	n/a
491.8825	0.105	983765	keystroke_m	m	n/a
492.0775	0.105	984155	keystroke_o	o	n/a
492.2125	0.09	984425	keystroke_v	v	n/a
492.3325	0.105	984665	keystroke_i	i	n/a
492.5275	0.1195	985055	keystroke_n	n	n/a
492.7225	0.0895	985445	keystroke_g	g	n/a
493.1115	0.076	986223	keystroke_Key.enter	Key.enter	n/a
493.194	9.8795	986388	prompt	n/a	feeling airports medication located\n
494.192	0.09	988384	keystroke_f	f	n/a
494.417	0.0605	988834	keystroke_e	e	n/a
494.5675	0.0745	989135	keystroke_e	e	n/a
494.6575	0.1345	989315	keystroke_l	l	n/a
494.882	0.105	989764	keystroke_i	i	n/a
495.077	0.12	990154	keystroke_n	n	n/a
495.3325	0.089	990665	keystroke_g	g	n/a
495.5415	0.09	991083	keystroke_Key.space	Key.space	n/a
495.842	0.1055	991684	keystroke_a	a	n/a
496.097	0.1355	992194	keystroke_i	i	n/a
496.2925	0.105	992585	keystroke_r	r	n/a
496.5165	0.15	993033	keystroke_p	p	n/a
496.6375	0.149	993275	keystroke_o	o	n/a
496.8015	0.1205	993603	keystroke_s	s	n/a
497.507	0.06	995014	keystroke_Key.backspace	Key.backspace	n/a
497.9275	0.06	995855	keystroke_r	r	n/a
498.0625	0.0895	996125	keystroke_t	t	n/a
498.317	0.12	996634	keystroke_s	s	n/a
498.512	0.09	997024	keystroke_Key.space	Key.space	n/a
498.9015	0.105	997803	keystroke_m	m	n/a
499.052	0.0755	998104	keystroke_e	e	n/a
499.277	0.075	998554	keystroke_d	d	n/a
499.367	0.1205	998734	keystroke_i	i	n/a
499.5175	0.15	999035	keystroke_c	c	n/a
499.622	0.135	999244	keystroke_a	a	n/a
500.4325	0.06	1000865	keystroke_t	t	n/a
500.792	0.135	1001584	keystroke_i	i	n/a
500.8825	0.18	1001765	keystroke_o	o	n/a
501.1225	0.12	1002245	keystroke_n	n	n/a
501.3465	0.09	1002693	keystroke_Key.space	Key.space	n/a
501.5425	0.105	1003085	keystroke_l	l	n/a
501.857	0.0155	1003714	keystroke_o	o	n/a
501.917	0.1205	1003834	keystroke_c	c	n/a
502.112	0.135	1004224	keystroke_a	a	n/a
502.382	0.1055	1004764	keystroke_t	t	n/a
502.5925	0.0745	1005185	keystroke_e	e	n/a
502.7875	0.075	1005575	keystroke_d	d	n/a
502.9825	0.089	1005965	keystroke_Key.enter	Key.enter	n/a
503.077	12.567	1006154	prompt	n/a	institutional rating desired mississippi\n
504.107	0.0755	1008214	keystroke_i	i	n/a
504.242	0.105	1008484	keystroke_n	n	n/a
504.542	0.1055	1009084	keystroke_s	s	n/a
505.1125	0.0595	1010225	keystroke_t	t	n/a
505.232	0.12	1010464	keystroke_i	i	n/a
505.5175	0.09	1011035	keystroke_t	t	n/a
505.6375	0.09	1011275	keystroke_u	u	n/a
505.9975	0.0895	1011995	keystroke_t	t	n/a
506.102	0.15	1012204	keystroke_i	i	n/a
506.192	0.15	1012384	keystroke_o	o	n/a
506.387	0.135	1012774	keystroke_n	n	n/a
506.582	0.135	1013164	keystroke_a	a	n/a
506.6875	0.1645	1013375	keystroke_l	l	n/a
506.837	0.0905	1013674	keystroke_Key.space	Key.space	n/a
507.002	0.12	1014004	keystroke_r	r	n/a
507.182	0.1355	1014364	keystroke_a	a	n/a
507.4825	0.075	1014965	keystroke_t	t	n/a
507.7075	0.105	1015415	keystroke_i	i	n/a
507.902	0.1055	1015804	keystroke_n	n	n/a
508.0965	0.0755	1016193	keystroke_g	g	n/a
508.247	0.09	1016494	keystroke_Key.space	Key.space	n/a
508.397	0.075	1016794	keystroke_d	d	n/a
508.6075	0.0745	1017215	keystroke_e	e	n/a
508.8165	0.1205	1017633	keystroke_s	s	n/a
508.9525	0.0895	1017905	keystroke_i	i	n/a
509.117	0.1505	1018234	keystroke_r	r	n/a
509.3275	0.105	1018655	keystroke_e	e	n/a
509.5825	0.075	1019165	keystroke_d	d	n/a
509.7915	0.075	1019583	keystroke_Key.space	Key.space	n/a
510.392	0.195	1020784	keystroke_m	m	n/a
510.6015	0.09	1021203	keystroke_i	i	n/a
510.8265	0.091	1021653	keystroke_s	s	n/a
511.0075	0.1045	1022015	keystroke_s	s	n/a
511.217	0.1195	1022434	keystroke_i	i	n/a
513.197	0.0905	1026394	keystroke_s	s	n/a
513.392	0.105	1026784	keystroke_s	s	n/a
514.0075	0.075	1028015	keystroke_i	i	n/a
514.382	0.075	1028764	keystroke_p	p	n/a
514.5475	0.09	1029095	keystroke_p	p	n/a
514.8015	0.09	1029603	keystroke_i	i	n/a
515.582	0.0595	1031164	keystroke_Key.enter	Key.enter	n/a
515.6485	8.98	1031297	prompt	n/a	manitoba holdem keen frank\n
516.5425	0.1045	1033085	keystroke_m	m	n/a
516.722	0.105	1033444	keystroke_a	a	n/a
518.1915	0.091	1036383	keystroke_n	n	n/a
518.4025	0.105	1036805	keystroke_i	i	n/a
518.642	0.09	1037284	keystroke_t	t	n/a
518.732	0.15	1037464	keystroke_o	o	n/a
518.9275	0.1945	1037855	keystroke_d	d	n/a
519.0775	0.1495	1038155	keystroke_a	a	n/a
519.347	0.045	1038694	keystroke_Key.space	Key.space	n/a
519.677	0.09	1039354	keystroke_h	h	n/a
519.8575	0.105	1039715	keystroke_o	o	n/a
520.4725	0.1045	1040945	keystroke_l	l	n/a
520.802	0.06	1041604	keystroke_d	d	n/a
520.9975	0.0595	1041995	keystroke_e	e	n/a
521.102	0.1355	1042204	keystroke_m	m	n/a
521.282	0.09	1042564	keystroke_Key.space	Key.space	n/a
521.462	0.09	1042924	keystroke_k	k	n/a
521.627	0.06	1043254	keystroke_e	e	n/a
521.792	0.0905	1043584	keystroke_e	e	n/a
522.3015	0.0905	1044603	keystroke_n	n	n/a
522.4665	0.105	1044933	keystroke_Key.space	Key.space	n/a
522.767	0.0745	1045534	keystroke_f	f	n/a
523.427	0.1195	1046854	keystroke_r	r	n/a
523.6075	0.1345	1047215	keystroke_a	a	n/a
523.757	0.1045	1047514	keystroke_n	n	n/a
523.9365	0.1055	1047873	keystroke_k	k	n/a
524.537	0.09	1049074	keystroke_Key.enter	Key.enter	n/a
524.6325	12.7015	1049265	prompt	n/a	hebrew soap crystal autumn\n
526.142	0.09	1052284	keystroke_h	h	n/a
526.3675	0.075	1052735	keystroke_e	e	n/a
526.7865	0.0755	1053573	keystroke_b	b	n/a
527.087	0.135	1054174	keystroke_r	r	n/a
527.162	0.165	1054324	keystroke_e	e	n/a
528.722	0.061	1057444	keystroke_w	w	n/a
529.1865	0.0755	1058373	keystroke_Key.space	Key.space	n/a
529.487	0.09	1058974	keystroke_s	s	n/a
530.763	0.0885	1061526	keystroke_o	o	n/a
531.377	0.105	1062754	keystroke_a	a	n/a
531.602	0.06	1063204	keystroke_p	p	n/a
531.932	0.06	1063864	keystroke_Key.space	Key.space	n/a
532.562	0.045	1065124	keystroke_c	c	n/a
532.8765	0.0905	1065753	keystroke_r	r	n/a
532.997	0.1055	1065994	keystroke_y	y	n/a
534.1965	0.09	1068393	keystroke_s	s	n/a
534.4965	0.1055	1068993	keystroke_t	t	n/a
534.7065	0.1205	1069413	keystroke_a	a	n/a
534.842	0.135	1069684	keystroke_l	l	n/a
535.0065	0.0905	1070013	keystroke_Key.space	Key.space	n/a
535.277	0.135	1070554	keystroke_a	a	n/a
535.442	0.0905	1070884	keystroke_u	u	n/a
535.9975	0.09	1071995	keystroke_t	t	n/a
536.132	0.075	1072264	keystroke_u	u	n/a
536.4325	0.1195	1072865	keystroke_m	m	n/a
536.642	0.1055	1073284	keystroke_n	n	n/a
537.242	0.09	1074484	keystroke_Key.enter	Key.enter	n/a
537.339	7.72	1074678	prompt	n/a	cologne reef seasonal wanna\n
538.1415	0.1055	1076283	keystroke_c	c	n/a
538.2915	0.09	1076583	keystroke_o	o	n/a
538.4575	0.09	1076915	keystroke_l	l	n/a
538.667	0.1045	1077334	keystroke_o	o	n/a
538.9665	0.0905	1077933	keystroke_g	g	n/a
539.0575	0.12	1078115	keystroke_n	n	n/a
539.2225	0.105	1078445	keystroke_e	e	n/a
539.4625	0.104	1078925	keystroke_Key.space	Key.space	n/a
539.8075	0.1045	1079615	keystroke_r	r	n/a
540.002	0.0905	1080004	keystroke_e	e	n/a
540.182	0.09	1080364	keystroke_e	e	n/a
541.097	0.075	1082194	keystroke_f	f	n/a
541.502	0.0755	1083004	keystroke_Key.space	Key.space	n/a
541.772	0.09	1083544	keystroke_s	s	n/a
542.297	0.09	1084594	keystroke_e	e	n/a
542.477	0.12	1084954	keystroke_a	a	n/a
543.092	0.075	1086184	keystroke_s	s	n/a
543.212	0.12	1086424	keystroke_o	o	n/a
543.437	0.105	1086874	keystroke_n	n	n/a
543.587	0.15	1087174	keystroke_a	a	n/a
543.753	0.104	1087506	keystroke_l	l	n/a
543.902	0.09	1087804	keystroke_Key.space	Key.space	n/a
544.097	0.1055	1088194	keystroke_w	w	n/a
544.278	0.1335	1088556	keystroke_a	a	n/a
544.472	0.06	1088944	keystroke_n	n	n/a
544.607	0.119	1089214	keystroke_n	n	n/a
544.817	0.1045	1089634	keystroke_a	a	n/a
544.9665	0.09	1089933	keystroke_Key.enter	Key.enter	n/a
545.0635	7.33	1090127	prompt	n/a	pike suburban complex credit\n
545.837	0.09	1091674	keystroke_p	p	n/a
546.017	0.0755	1092034	keystroke_i	i	n/a
546.212	0.104	1092424	keystroke_k	k	n/a
546.3625	0.0895	1092725	keystroke_e	e	n/a
546.601	0.091	1093202	keystroke_Key.space	Key.space	n/a
547.217	0.1195	1094434	keystroke_s	s	n/a
547.3665	0.1355	1094733	keystroke_u	u	n/a
547.847	0.105	1095694	keystroke_b	b	n/a
547.937	0.105	1095874	keystroke_u	u	n/a
548.1915	0.09	1096383	keystroke_r	r	n/a
548.462	0.225	1096924	keystroke_b	b	n/a
548.6415	0.136	1097283	keystroke_a	a	n/a
548.8365	0.1055	1097673	keystroke_n	n	n/a
549.092	0.0895	1098184	keystroke_Key.space	Key.space	n/a
549.452	0.1195	1098904	keystroke_c	c	n/a
549.5865	0.1055	1099173	keystroke_o	o	n/a
549.752	0.105	1099504	keystroke_m	m	n/a
549.9325	0.09	1099865	keystroke_p	p	n/a
550.1425	0.1045	1100285	keystroke_l	l	n/a
550.2765	0.121	1100553	keystroke_e	e	n/a
550.547	0.12	1101094	keystroke_x	x	n/a
550.712	0.075	1101424	keystroke_Key.space	Key.space	n/a
550.9525	0.09	1101905	keystroke_c	c	n/a
551.252	0.105	1102504	keystroke_r	r	n/a
551.432	0.09	1102864	keystroke_e	e	n/a
551.672	0.1055	1103344	keystroke_d	d	n/a
551.8665	0.121	1103733	keystroke_i	i	n/a
552.0475	0.104	1104095	keystroke_t	t	n/a
552.302	0.0895	1104604	keystroke_Key.enter	Key.enter	n/a
552.3985	8.052	1104797	prompt	n/a	spider logical insights avatar\n
553.3525	0.09	1106705	keystroke_s	s	n/a
553.4575	0.12	1106915	keystroke_p	p	n/a
553.6215	0.121	1107243	keystroke_i	i	n/a
553.8015	0.075	1107603	keystroke_d	d	n/a
553.982	0.0745	1107964	keystroke_e	e	n/a
554.162	0.089	1108324	keystroke_r	r	n/a
554.282	0.09	1108564	keystroke_Key.space	Key.space	n/a
554.4475	0.089	1108895	keystroke_l	l	n/a
554.657	0.09	1109314	keystroke_o	o	n/a
555.092	0.105	1110184	keystroke_g	g	n/a
555.227	0.1195	1110454	keystroke_i	i	n/a
555.407	0.1055	1110814	keystroke_c	c	n/a
555.602	0.12	1111204	keystroke_a	a	n/a
555.737	0.135	1111474	keystroke_l	l	n/a
555.917	0.06	1111834	keystroke_Key.space	Key.space	n/a
556.037	0.09	1112074	keystroke_i	i	n/a
556.2165	0.0905	1112433	keystroke_n	n	n/a
556.8015	0.1055	1113603	keystroke_s	s	n/a
557.102	0.105	1114204	keystroke_i	i	n/a
557.447	0.0895	1114894	keystroke_g	g	n/a
557.5665	0.12	1115133	keystroke_h	h	n/a
557.6875	0.089	1115375	keystroke_t	t	n/a
558.242	0.075	1116484	keystroke_s	s	n/a
558.377	0.09	1116754	keystroke_Key.space	Key.space	n/a
558.662	0.105	1117324	keystroke_a	a	n/a
558.872	0.105	1117744	keystroke_v	v	n/a
558.962	0.15	1117924	keystroke_a	a	n/a
559.682	0.105	1119364	keystroke_t	t	n/a
559.847	0.1355	1119694	keystroke_a	a	n/a
560.1025	0.1045	1120205	keystroke_r	r	n/a
560.3415	0.105	1120683	keystroke_Key.enter	Key.enter	n/a
560.455	10.6735	1120910	prompt	n/a	everybody governor karma saint\n
561.2715	0.09	1122543	keystroke_e	e	n/a
561.4815	0.106	1122963	keystroke_v	v	n/a
561.5565	0.15	1123113	keystroke_e	e	n/a
561.7975	0.0895	1123595	keystroke_r	r	n/a
561.932	0.105	1123864	keystroke_y	y	n/a
562.0965	0.105	1124193	keystroke_b	b	n/a
562.217	0.1345	1124434	keystroke_o	o	n/a
562.3815	0.1205	1124763	keystroke_d	d	n/a
562.5465	0.12	1125093	keystroke_y	y	n/a
562.7265	0.1055	1125453	keystroke_Key.space	Key.space	n/a
563.057	0.09	1126114	keystroke_f	f	n/a
563.177	0.12	1126354	keystroke_o	o	n/a
563.387	0.105	1126774	keystroke_v	v	n/a
563.6115	0.106	1127223	keystroke_e	e	n/a
563.7915	0.09	1127583	keystroke_r	r	n/a
564.1225	0.0895	1128245	keystroke_n	n	n/a
564.332	0.12	1128664	keystroke_o	o	n/a
564.587	0.105	1129174	keystroke_r	r	n/a
564.767	0.075	1129534	keystroke_Key.space	Key.space	n/a
565.0965	0.135	1130193	keystroke_k	k	n/a
565.2465	0.135	1130493	keystroke_a	a	n/a
565.5475	0.0895	1131095	keystroke_r	r	n/a
565.682	0.1195	1131364	keystroke_m	m	n/a
565.9065	0.1205	1131813	keystroke_a	a	n/a
566.087	0.075	1132174	keystroke_Key.space	Key.space	n/a
566.387	0.0905	1132774	keystroke_s	s	n/a
567.107	0.12	1134214	keystroke_a	a	n/a
567.242	0.09	1134484	keystroke_i	i	n/a
567.422	0.1205	1134844	keystroke_n	n	n/a
567.6315	0.075	1135263	keystroke_g	g	n/a
569.657	0.09	1139314	keystroke_Key.backspace	Key.backspace	n/a
570.362	0.06	1140724	keystroke_t	t	n/a
571.052	0.075	1142104	keystroke_Key.enter	Key.enter	n/a
571.133	9.476	1142266	prompt	n/a	appreciation speaker baker habits\n
572.1025	0.059	1144205	keystroke_e	e	n/a
572.522	0.09	1145044	keystroke_Key.backspace	Key.backspace	n/a
572.777	0.135	1145554	keystroke_a	a	n/a
573.077	0.06	1146154	keystroke_p	p	n/a
573.212	0.09	1146424	keystroke_p	p	n/a
573.527	0.1055	1147054	keystroke_r	r	n/a
573.707	0.09	1147414	keystroke_e	e	n/a
573.9315	0.1055	1147863	keystroke_c	c	n/a
574.097	0.12	1148194	keystroke_i	i	n/a
574.217	0.12	1148434	keystroke_a	a	n/a
574.682	0.105	1149364	keystroke_t	t	n/a
574.832	0.12	1149664	keystroke_i	i	n/a
574.8925	0.1645	1149785	keystroke_o	o	n/a
575.102	0.12	1150204	keystroke_n	n	n/a
575.312	0.0895	1150624	keystroke_Key.space	Key.space	n/a
575.702	0.1195	1151404	keystroke_s	s	n/a
575.8065	0.1205	1151613	keystroke_p	p	n/a
576.6015	0.09	1153203	keystroke_e	e	n/a
576.767	0.1205	1153534	keystroke_a	a	n/a
577.126	0.136	1154252	keystroke_k	k	n/a
577.247	0.09	1154494	keystroke_e	e	n/a
577.457	0.09	1154914	keystroke_r	r	n/a
577.562	0.105	1155124	keystroke_Key.space	Key.space	n/a
577.787	0.0905	1155574	keystroke_b	b	n/a
577.9215	0.135	1155843	keystroke_a	a	n/a
578.162	0.1195	1156324	keystroke_k	k	n/a
578.297	0.0895	1156594	keystroke_e	e	n/a
578.492	0.09	1156984	keystroke_d	d	n/a
578.656	0.106	1157312	keystroke_Key.space	Key.space	n/a
578.897	0.135	1157794	keystroke_h	h	n/a
579.032	0.225	1158064	keystroke_a	a	n/a
579.242	0.0895	1158484	keystroke_b	b	n/a
579.407	0.135	1158814	keystroke_i	i	n/a
579.617	0.09	1159234	keystroke_t	t	n/a
580.382	0.0745	1160764	keystroke_s	s	n/a
580.5165	0.0905	1161033	keystroke_Key.enter	Key.enter	n/a
580.616	10.18	1161232	prompt	n/a	origin vietnamese lending vehicles\n
581.4475	0.104	1162895	keystroke_o	o	n/a
581.6565	0.09	1163313	keystroke_r	r	n/a
581.7925	0.104	1163585	keystroke_i	i	n/a
582.197	0.105	1164394	keystroke_g	g	n/a
582.332	0.12	1164664	keystroke_i	i	n/a
582.5425	0.1045	1165085	keystroke_n	n	n/a
582.737	0.09	1165474	keystroke_Key.space	Key.space	n/a
582.932	0.0755	1165864	keystroke_v	v	n/a
583.022	0.12	1166044	keystroke_i	i	n/a
583.427	0.09	1166854	keystroke_e	e	n/a
583.652	0.0895	1167304	keystroke_r	r	n/a
584.2965	0.0905	1168593	keystroke_n	n	n/a
584.432	0.1495	1168864	keystroke_a	a	n/a
584.567	0.1205	1169134	keystroke_m	m	n/a
584.777	0.135	1169554	keystroke_s	s	n/a
585.002	0.105	1170004	keystroke_e	e	n/a
585.4815	0.0895	1170963	keystroke_Key.backspace	Key.backspace	n/a
585.707	0.0745	1171414	keystroke_Key.backspace	Key.backspace	n/a
585.9015	0.09	1171803	keystroke_e	e	n/a
586.112	0.1195	1172224	keystroke_s	s	n/a
586.3665	0.0905	1172733	keystroke_e	e	n/a
586.802	0.074	1173604	keystroke_Key.space	Key.space	n/a
587.042	0.1195	1174084	keystroke_l	l	n/a
587.222	0.09	1174444	keystroke_e	e	n/a
587.357	0.1055	1174714	keystroke_n	n	n/a
587.567	0.09	1175134	keystroke_d	d	n/a
587.672	0.105	1175344	keystroke_i	i	n/a
587.882	0.105	1175764	keystroke_n	n	n/a
588.031	0.0755	1176062	keystroke_g	g	n/a
588.3315	0.06	1176663	keystroke_Key.space	Key.space	n/a
588.5865	0.091	1177173	keystroke_v	v	n/a
588.8415	0.09	1177683	keystroke_e	e	n/a
589.007	0.1495	1178014	keystroke_h	h	n/a
589.112	0.1495	1178224	keystroke_i	i	n/a
589.427	0.09	1178854	keystroke_c	c	n/a
589.592	0.12	1179184	keystroke_l	l	n/a
589.7125	0.1195	1179425	keystroke_e	e	n/a
589.937	0.104	1179874	keystroke_s	s	n/a
590.686	0.106	1181372	keystroke_Key.enter	Key.enter	n/a
590.801	15.5325	1181602	prompt	n/a	researcher tend thinkpad kruger\n
591.797	0.105	1183594	keystroke_r	r	n/a
591.977	0.105	1183954	keystroke_e	e	n/a
593.147	0.12	1186294	keystroke_s	s	n/a
593.372	0.09	1186744	keystroke_e	e	n/a
593.597	0.075	1187194	keystroke_r	r	n/a
594.437	0.0755	1188874	keystroke_c	c	n/a
594.632	0.12	1189264	keystroke_h	h	n/a
594.8115	0.0755	1189623	keystroke_e	e	n/a
595.0215	0.0895	1190043	keystroke_r	r	n/a
597.289	0.0125	1194578	keystroke_Key.backspace	Key.backspace	n/a
597.4215	0.09	1194843	keystroke_Key.backspace	Key.backspace	n/a
597.6315	0.075	1195263	keystroke_Key.backspace	Key.backspace	n/a
597.8715	0.091	1195743	keystroke_Key.backspace	Key.backspace	n/a
598.6665	0.075	1197333	keystroke_Key.backspace	Key.backspace	n/a
598.9665	0.0905	1197933	keystroke_a	a	n/a
599.627	0.0905	1199254	keystroke_r	r	n/a
599.8815	0.09	1199763	keystroke_c	c	n/a
600.047	0.12	1200094	keystroke_h	h	n/a
600.182	0.105	1200364	keystroke_e	e	n/a
600.4515	0.075	1200903	keystroke_r	r	n/a
600.737	0.06	1201474	keystroke_Key.space	Key.space	n/a
601.337	0.075	1202674	keystroke_t	t	n/a
601.517	0.075	1203034	keystroke_e	e	n/a
601.652	0.1045	1203304	keystroke_n	n	n/a
601.8015	0.09	1203603	keystroke_d	d	n/a
601.952	0.105	1203904	keystroke_Key.space	Key.space	n/a
602.3865	0.0905	1204773	keystroke_t	t	n/a
602.492	0.18	1204984	keystroke_h	h	n/a
602.732	0.15	1205464	keystroke_i	i	n/a
603.3315	0.121	1206663	keystroke_n	n	n/a
603.542	0.105	1207084	keystroke_k	k	n/a
603.8265	0.106	1207653	keystroke_p	p	n/a
603.9465	0.135	1207893	keystroke_a	a	n/a
604.1715	0.09	1208343	keystroke_d	d	n/a
604.382	0.074	1208764	keystroke_Key.space	Key.space	n/a
605.0265	0.12	1210053	keystroke_k	k	n/a
605.252	0.0895	1210504	keystroke_r	r	n/a
605.387	0.12	1210774	keystroke_u	u	n/a
605.5965	0.0905	1211193	keystroke_g	g	n/a
605.762	0.135	1211524	keystroke_e	e	n/a
606.002	0.105	1212004	keystroke_r	r	n/a
606.242	0.089	1212484	keystroke_Key.enter	Key.enter	n/a
606.3385	13.12	1212677	prompt	n/a	maintained chan positioning consideration\n
607.2175	0.09	1214435	keystroke_m	m	n/a
607.427	0.09	1214854	keystroke_i	i	n/a
608.341	0.1055	1216682	keystroke_Key.backspace	Key.backspace	n/a
608.582	0.0745	1217164	keystroke_a	a	n/a
608.7015	0.105	1217403	keystroke_i	i	n/a
608.896	0.09	1217792	keystroke_n	n	n/a
609.482	0.1045	1218964	keystroke_t	t	n/a
609.6625	0.119	1219325	keystroke_a	a	n/a
609.7525	0.1045	1219505	keystroke_i	i	n/a
609.9465	0.1205	1219893	keystroke_n	n	n/a
610.082	0.105	1220164	keystroke_e	e	n/a
610.502	0.045	1221004	keystroke_d	d	n/a
610.606	0.0905	1221212	keystroke_Key.space	Key.space	n/a
610.907	0.09	1221814	keystroke_c	c	n/a
611.012	0.12	1222024	keystroke_h	h	n/a
611.162	0.135	1222324	keystroke_a	a	n/a
611.3425	0.1195	1222685	keystroke_n	n	n/a
611.522	0.1045	1223044	keystroke_Key.space	Key.space	n/a
611.717	0.135	1223434	keystroke_p	p	n/a
612.377	0.12	1224754	keystroke_o	o	n/a
612.587	0.105	1225174	keystroke_s	s	n/a
612.677	0.12	1225354	keystroke_i	i	n/a
612.962	0.075	1225924	keystroke_t	t	n/a
613.082	0.225	1226164	keystroke_i	i	n/a
615.257	0.09	1230514	keystroke_o	o	n/a
615.4375	0.089	1230875	keystroke_n	n	n/a
615.6015	0.09	1231203	keystroke_i	i	n/a
615.7665	0.105	1231533	keystroke_n	n	n/a
615.9615	0.075	1231923	keystroke_g	g	n/a
616.1565	0.0755	1232313	keystroke_Key.space	Key.space	n/a
616.442	0.0745	1232884	keystroke_c	c	n/a
616.5015	0.105	1233003	keystroke_o	o	n/a
616.667	0.12	1233334	keystroke_n	n	n/a
616.952	0.09	1233904	keystroke_s	s	n/a
617.252	0.09	1234504	keystroke_i	i	n/a
617.507	0.075	1235014	keystroke_d	d	n/a
617.702	0.0595	1235404	keystroke_e	e	n/a
617.8965	0.09	1235793	keystroke_r	r	n/a
618.0765	0.1055	1236153	keystroke_a	a	n/a
618.602	0.1045	1237204	keystroke_t	t	n/a
618.737	0.15	1237474	keystroke_i	i	n/a
618.8565	0.1805	1237713	keystroke_o	o	n/a
619.052	0.12	1238104	keystroke_n	n	n/a
619.337	0.1195	1238674	keystroke_Key.enter	Key.enter	n/a
619.4645	12.714	1238929	prompt	n/a	alternatives segment smtp analog\n
620.342	0.0895	1240684	keystroke_a	a	n/a
620.4465	0.105	1240893	keystroke_l	l	n/a
620.716	0.0905	1241432	keystroke_t	t	n/a
620.881	0.136	1241762	keystroke_e	e	n/a
621.0915	0.09	1242183	keystroke_r	r	n/a
621.9025	0.0895	1243805	keystroke_n	n	n/a
622.1265	0.1055	1244253	keystroke_a	a	n/a
622.367	0.0755	1244734	keystroke_t	t	n/a
622.472	0.12	1244944	keystroke_i	i	n/a
622.667	0.1045	1245334	keystroke_v	v	n/a
622.8475	0.0895	1245695	keystroke_e	e	n/a
623.3115	0.09	1246623	keystroke_s	s	n/a
623.477	0.075	1246954	keystroke_Key.space	Key.space	n/a
623.972	0.0445	1247944	keystroke_a	a	n/a
624.4665	0.09	1248933	keystroke_Key.backspace	Key.backspace	n/a
624.692	0.0595	1249384	keystroke_s	s	n/a
624.707	0.0295	1249414	keystroke_w	w	n/a
625.0365	0.0605	1250073	keystroke_e	e	n/a
625.3815	0.06	1250763	keystroke_Key.backspace	Key.backspace	n/a
625.5615	0.09	1251123	keystroke_Key.backspace	Key.backspace	n/a
626.357	0.09	1252714	keystroke_e	e	n/a
626.732	0.075	1253464	keystroke_g	g	n/a
626.942	0.09	1253884	keystroke_m	m	n/a
627.212	0.06	1254424	keystroke_e	e	n/a
627.377	0.09	1254754	keystroke_n	n	n/a
627.542	0.09	1255084	keystroke_t	t	n/a
628.2015	0.0905	1256403	keystroke_Key.space	Key.space	n/a
628.682	0.09	1257364	keystroke_s	s	n/a
628.787	0.105	1257574	keystroke_m	m	n/a
629.2075	0.089	1258415	keystroke_t	t	n/a
629.927	0.12	1259854	keystroke_p	p	n/a
630.137	0.09	1260274	keystroke_Key.space	Key.space	n/a
630.347	0.1045	1260694	keystroke_a	a	n/a
630.3765	0.1205	1260753	keystroke_n	n	n/a
630.6015	0.09	1261203	keystroke_a	a	n/a
631.1265	0.09	1262253	keystroke_l	l	n/a
631.322	0.105	1262644	keystroke_o	o	n/a
631.892	0.105	1263784	keystroke_g	g	n/a
632.087	0.09	1264174	keystroke_Key.enter	Key.enter	n/a
632.1835	14.305	1264367	prompt	n/a	obligation observed fascinating bucks\n
633.797	0.09	1267594	keystroke_o	o	n/a
634.8315	0.12	1269663	keystroke_l	l	n/a
635.807	0.0895	1271614	keystroke_Key.backspace	Key.backspace	n/a
636.077	0.09	1272154	keystroke_b	b	n/a
636.182	0.1195	1272364	keystroke_l	l	n/a
636.4065	0.075	1272813	keystroke_i	i	n/a
636.6165	0.105	1273233	keystroke_g	g	n/a
636.7665	0.135	1273533	keystroke_a	a	n/a
637.081	0.09	1274162	keystroke_t	t	n/a
637.246	0.166	1274492	keystroke_i	i	n/a
637.366	0.166	1274732	keystroke_o	o	n/a
637.561	0.121	1275122	keystroke_n	n	n/a
637.802	0.0745	1275604	keystroke_Key.space	Key.space	n/a
638.612	0.104	1277224	keystroke_o	o	n/a
638.7465	0.09	1277493	keystroke_b	b	n/a
639.106	0.076	1278212	keystroke_e	e	n/a
639.586	0.075	1279172	keystroke_Key.backspace	Key.backspace	n/a
639.722	0.1045	1279444	keystroke_s	s	n/a
639.962	0.075	1279924	keystroke_e	e	n/a
640.1415	0.075	1280283	keystroke_r	r	n/a
640.337	0.09	1280674	keystroke_v	v	n/a
640.5315	0.075	1281063	keystroke_e	e	n/a
640.7265	0.075	1281453	keystroke_d	d	n/a
640.9965	0.06	1281993	keystroke_Key.space	Key.space	n/a
641.447	0.119	1282894	keystroke_f	f	n/a
641.581	0.121	1283162	keystroke_a	a	n/a
641.822	0.09	1283644	keystroke_s	s	n/a
642.031	0.0605	1284062	keystroke_c	c	n/a
642.1965	0.1055	1284393	keystroke_i	i	n/a
642.6915	0.09	1285383	keystroke_n	n	n/a
642.9165	0.135	1285833	keystroke_a	a	n/a
643.1865	0.0905	1286373	keystroke_t	t	n/a
643.3365	0.105	1286673	keystroke_i	i	n/a
643.502	0.1195	1287004	keystroke_n	n	n/a
644.1165	0.06	1288233	keystroke_g	g	n/a
644.3265	0.09	1288653	keystroke_Key.space	Key.space	n/a
645.0165	0.0905	1290033	keystroke_b	b	n/a
645.152	0.1045	1290304	keystroke_u	u	n/a
645.406	0.0765	1290812	keystroke_c	c	n/a
645.5415	0.1205	1291083	keystroke_k	k	n/a
645.7065	0.09	1291413	keystroke_s	s	n/a
646.411	0.076	1292822	keystroke_Key.enter	Key.enter	n/a
646.494	9.2345	1292988	prompt	n/a	lender speech polls taxation\n
647.1765	0.135	1294353	keystroke_l	l	n/a
647.597	0.06	1295194	keystroke_e	e	n/a
647.806	0.106	1295612	keystroke_n	n	n/a
648.2715	0.0605	1296543	keystroke_d	d	n/a
648.467	0.075	1296934	keystroke_e	e	n/a
648.6765	0.0755	1297353	keystroke_r	r	n/a
648.8565	0.105	1297713	keystroke_Key.space	Key.space	n/a
649.0965	0.09	1298193	keystroke_s	s	n/a
649.217	0.1205	1298434	keystroke_p	p	n/a
649.5315	0.0455	1299063	keystroke_e	e	n/a
649.682	0.075	1299364	keystroke_e	e	n/a
649.952	0.09	1299904	keystroke_c	c	n/a
650.0715	0.1205	1300143	keystroke_h	h	n/a
650.2365	0.1055	1300473	keystroke_Key.space	Key.space	n/a
650.702	0.12	1301404	keystroke_p	p	n/a
651.5425	0.089	1303085	keystroke_o	o	n/a
651.7365	0.0905	1303473	keystroke_l	l	n/a
651.902	0.105	1303804	keystroke_l	l	n/a
652.1265	0.105	1304253	keystroke_s	s	n/a
652.2615	0.09	1304523	keystroke_Key.space	Key.space	n/a
652.546	0.091	1305092	keystroke_t	t	n/a
652.712	0.12	1305424	keystroke_a	a	n/a
653.147	0.1195	1306294	keystroke_x	x	n/a
653.4915	0.1055	1306983	keystroke_a	a	n/a
653.8665	0.0755	1307733	keystroke_t	t	n/a
654.647	0.134	1309294	keystroke_i	i	n/a
654.7365	0.1805	1309473	keystroke_o	o	n/a
654.9765	0.12	1309953	keystroke_n	n	n/a
655.637	0.0895	1311274	keystroke_Key.enter	Key.enter	n/a
655.7335	8.755	1311467	prompt	n/a	nearby assault horn teen\n
656.492	0.1045	1312984	keystroke_n	n	n/a
656.6265	0.075	1313253	keystroke_e	e	n/a
656.8365	0.0755	1313673	keystroke_r	r	n/a
656.852	0.075	1313704	keystroke_e	e	n/a
657.2565	0.09	1314513	keystroke_Key.backspace	Key.backspace	n/a
657.4965	0.0895	1314993	keystroke_Key.backspace	Key.backspace	n/a
657.767	0.09	1315534	keystroke_a	a	n/a
658.382	0.0745	1316764	keystroke_r	r	n/a
658.607	0.089	1317214	keystroke_b	b	n/a
658.786	0.09	1317572	keystroke_y	y	n/a
659.477	0.0895	1318954	keystroke_Key.space	Key.space	n/a
659.6415	0.1205	1319283	keystroke_a	a	n/a
659.867	0.075	1319734	keystroke_s	s	n/a
660.0165	0.0905	1320033	keystroke_s	s	n/a
660.2715	0.09	1320543	keystroke_a	a	n/a
660.4965	0.09	1320993	keystroke_u	u	n/a
660.7665	0.135	1321533	keystroke_l	l	n/a
661.322	0.075	1322644	keystroke_t	t	n/a
661.517	0.0745	1323034	keystroke_Key.space	Key.space	n/a
661.817	0.09	1323634	keystroke_h	h	n/a
661.952	0.134	1323904	keystroke_o	o	n/a
662.147	0.105	1324294	keystroke_r	r	n/a
662.3565	0.12	1324713	keystroke_n	n	n/a
662.596	0.09	1325192	keystroke_Key.space	Key.space	n/a
663.212	0.074	1326424	keystroke_t	t	n/a
663.422	0.074	1326844	keystroke_e	e	n/a
663.587	0.0895	1327174	keystroke_e	e	n/a
663.7215	0.105	1327443	keystroke_n	n	n/a
664.4115	0.0745	1328823	keystroke_Key.enter	Key.enter	n/a
664.4935	11.0195	1328987	prompt	n/a	professional surge evidence oliver\n
665.222	0.09	1330444	keystroke_p	p	n/a
665.417	0.1045	1330834	keystroke_r	r	n/a
667.0965	0.0895	1334193	keystroke_o	o	n/a
668.0565	0.09	1336113	keystroke_f	f	n/a
668.2665	0.09	1336533	keystroke_e	e	n/a
668.732	0.0895	1337464	keystroke_s	s	n/a
668.912	0.09	1337824	keystroke_s	s	n/a
669.122	0.119	1338244	keystroke_i	i	n/a
669.196	0.15	1338392	keystroke_o	o	n/a
669.452	0.1195	1338904	keystroke_n	n	n/a
669.631	0.1205	1339262	keystroke_a	a	n/a
669.782	0.1345	1339564	keystroke_l	l	n/a
669.9465	0.09	1339893	keystroke_Key.space	Key.space	n/a
670.1715	0.12	1340343	keystroke_s	s	n/a
670.2765	0.105	1340553	keystroke_u	u	n/a
670.5015	0.06	1341003	keystroke_e	e	n/a
671.0565	0.09	1342113	keystroke_Key.backspace	Key.backspace	n/a
671.342	0.06	1342684	keystroke_r	r	n/a
671.5365	0.0755	1343073	keystroke_g	g	n/a
671.7015	0.0905	1343403	keystroke_e	e	n/a
671.9415	0.075	1343883	keystroke_Key.space	Key.space	n/a
672.3765	0.0755	1344753	keystroke_e	e	n/a
672.5715	0.09	1345143	keystroke_v	v	n/a
672.7515	0.09	1345503	keystroke_i	i	n/a
672.857	0.09	1345714	keystroke_d	d	n/a
673.0665	0.0755	1346133	keystroke_e	e	n/a
673.2315	0.1195	1346463	keystroke_n	n	n/a
673.337	0.075	1346674	keystroke_c	c	n/a
673.5765	0.0745	1347153	keystroke_e	e	n/a
673.696	0.0905	1347392	keystroke_Key.space	Key.space	n/a
673.966	0.121	1347932	keystroke_o	o	n/a
674.221	0.0905	1348442	keystroke_l	l	n/a
674.417	0.074	1348834	keystroke_i	i	n/a
674.552	0.09	1349104	keystroke_v	v	n/a
674.732	0.105	1349464	keystroke_e	e	n/a
674.941	0.0755	1349882	keystroke_r	r	n/a
675.436	0.075	1350872	keystroke_Key.enter	Key.enter	n/a
675.5165	8.952	1351033	prompt	n/a	plans abstracts smaller cambridge\n
676.3065	0.1055	1352613	keystroke_p	p	n/a
676.547	0.1495	1353094	keystroke_l	l	n/a
676.7565	0.12	1353513	keystroke_a	a	n/a
676.9215	0.1205	1353843	keystroke_n	n	n/a
677.0715	0.09	1354143	keystroke_s	s	n/a
677.237	0.105	1354474	keystroke_Key.space	Key.space	n/a
677.4165	0.1655	1354833	keystroke_a	a	n/a
677.656	0.076	1355312	keystroke_b	b	n/a
677.912	0.119	1355824	keystroke_s	s	n/a
678.212	0.0595	1356424	keystroke_t	t	n/a
678.406	0.121	1356812	keystroke_r	r	n/a
678.586	0.105	1357172	keystroke_a	a	n/a
678.872	0.089	1357744	keystroke_c	c	n/a
679.1565	0.09	1358313	keystroke_t	t	n/a
679.4115	0.105	1358823	keystroke_s	s	n/a
679.652	0.074	1359304	keystroke_Key.space	Key.space	n/a
680.387	0.105	1360774	keystroke_s	s	n/a
680.5075	0.1195	1361015	keystroke_m	m	n/a
680.657	0.12	1361314	keystroke_a	a	n/a
680.792	0.0895	1361584	keystroke_l	l	n/a
680.9565	0.1055	1361913	keystroke_l	l	n/a
681.1215	0.105	1362243	keystroke_e	e	n/a
681.3465	0.0755	1362693	keystroke_r	r	n/a
681.6315	0.075	1363263	keystroke_Key.space	Key.space	n/a
682.0965	0.0895	1364193	keystroke_c	c	n/a
682.2765	0.105	1364553	keystroke_a	a	n/a
682.4265	0.1205	1364853	keystroke_m	m	n/a
682.592	0.06	1365184	keystroke_b	b	n/a
683.4465	0.0755	1366893	keystroke_r	r	n/a
683.582	0.1195	1367164	keystroke_i	i	n/a
683.7315	0.09	1367463	keystroke_d	d	n/a
683.9415	0.075	1367883	keystroke_g	g	n/a
684.1065	0.1055	1368213	keystroke_e	e	n/a
684.391	0.0755	1368782	keystroke_Key.enter	Key.enter	n/a
684.473	9.5055	1368946	prompt	n/a	amend close cameron processed\n
685.4565	0.09	1370913	keystroke_a	a	n/a
686.012	0.0145	1372024	keystroke_m	m	n/a
686.042	0.015	1372084	keystroke_e	e	n/a
686.2515	0.1055	1372503	keystroke_n	n	n/a
686.4015	0.0755	1372803	keystroke_d	d	n/a
686.5665	0.09	1373133	keystroke_Key.space	Key.space	n/a
686.7615	0.09	1373523	keystroke_c	c	n/a
686.8065	0.105	1373613	keystroke_l	l	n/a
687.016	0.0905	1374032	keystroke_o	o	n/a
687.122	0.09	1374244	keystroke_s	s	n/a
687.3465	0.0905	1374693	keystroke_e	e	n/a
687.4815	0.0905	1374963	keystroke_Key.space	Key.space	n/a
687.7365	0.09	1375473	keystroke_c	c	n/a
687.9315	0.1195	1375863	keystroke_a	a	n/a
688.053	0.118	1376106	keystroke_m	m	n/a
688.3665	0.0905	1376733	keystroke_e	e	n/a
688.577	0.09	1377154	keystroke_r	r	n/a
688.697	0.1345	1377394	keystroke_o	o	n/a
688.8915	0.1655	1377783	keystroke_n	n	n/a
689.0715	0.09	1378143	keystroke_Key.space	Key.space	n/a
689.2965	0.105	1378593	keystroke_p	p	n/a
689.552	0.135	1379104	keystroke_r	r	n/a
689.731	0.1055	1379462	keystroke_e	e	n/a
690.0165	0.105	1380033	keystroke_s	s	n/a
690.917	0.09	1381834	keystroke_e	e	n/a
691.3215	0.075	1382643	keystroke_s	s	n/a
691.4715	0.105	1382943	keystroke_s	s	n/a
691.712	0.0595	1383424	keystroke_e	e	n/a
691.9065	0.06	1383813	keystroke_d	d	n/a
693.9015	0.075	1387803	keystroke_Key.enter	Key.enter	n/a
693.983	10.9305	1387966	prompt	n/a	champions elementary connected races\n
694.9375	0.0895	1389875	keystroke_c	c	n/a
695.027	0.119	1390054	keystroke_h	h	n/a
695.297	0.075	1390594	keystroke_a	a	n/a
695.702	0.045	1391404	keystroke_m	m	n/a
695.8665	0.075	1391733	keystroke_p	p	n/a
696.737	0.12	1393474	keystroke_i	i	n/a
696.812	0.15	1393624	keystroke_o	o	n/a
696.992	0.1345	1393984	keystroke_n	n	n/a
697.1865	0.1055	1394373	keystroke_s	s	n/a
697.502	0.0595	1395004	keystroke_Key.space	Key.space	n/a
697.862	0.0745	1395724	keystroke_e	e	n/a
697.9515	0.1505	1395903	keystroke_l	l	n/a
698.1165	0.075	1396233	keystroke_e	e	n/a
698.2215	0.12	1396443	keystroke_m	m	n/a
698.4915	0.075	1396983	keystroke_e	e	n/a
698.672	0.09	1397344	keystroke_n	n	n/a
698.897	0.09	1397794	keystroke_t	t	n/a
699.482	0.1045	1398964	keystroke_a	a	n/a
699.7515	0.0905	1399503	keystroke_r	r	n/a
699.887	0.1045	1399774	keystroke_y	y	n/a
700.1265	0.09	1400253	keystroke_Key.space	Key.space	n/a
700.487	0.03	1400974	keystroke_c	c	n/a
700.622	0.105	1401244	keystroke_o	o	n/a
700.817	0.06	1401634	keystroke_n	n	n/a
700.9665	0.0905	1401933	keystroke_n	n	n/a
701.102	0.09	1402204	keystroke_e	e	n/a
701.312	0.089	1402624	keystroke_s	s	n/a
701.6415	0.1205	1403283	keystroke_Key.backspace	Key.backspace	n/a
701.7465	0.0605	1403493	keystroke_c	c	n/a
702.4815	0.09	1404963	keystroke_t	t	n/a
702.6915	0.0755	1405383	keystroke_e	e	n/a
702.8865	0.0595	1405773	keystroke_d	d	n/a
703.1115	0.0595	1406223	keystroke_Key.space	Key.space	n/a
703.5315	0.09	1407063	keystroke_r	r	n/a
703.712	0.1045	1407424	keystroke_a	a	n/a
703.9215	0.0895	1407843	keystroke_c	c	n/a
704.147	0.0445	1408294	keystroke_e	e	n/a
704.342	0.09	1408684	keystroke_s	s	n/a
704.8365	0.0755	1409673	keystroke_Key.enter	Key.enter	n/a
704.9225	10.131	1409845	prompt	n/a	typing word warehouse participated\n
706.2315	0.09	1412463	keystroke_t	t	n/a
706.3515	0.105	1412703	keystroke_y	y	n/a
706.502	0.1355	1413004	keystroke_p	p	n/a
706.682	0.09	1413364	keystroke_i	i	n/a
706.8615	0.0905	1413723	keystroke_n	n	n/a
707.0265	0.09	1414053	keystroke_g	g	n/a
707.642	0.074	1415284	keystroke_Key.space	Key.space	n/a
707.897	0.09	1415794	keystroke_w	w	n/a
707.972	0.1345	1415944	keystroke_o	o	n/a
708.1815	0.105	1416363	keystroke_r	r	n/a
708.452	0.0145	1416904	keystroke_k	k	n/a
708.8865	0.1055	1417773	keystroke_Key.backspace	Key.backspace	n/a
709.0815	0.075	1418163	keystroke_d	d	n/a
709.217	0.09	1418434	keystroke_Key.space	Key.space	n/a
709.8465	0.0905	1419693	keystroke_w	w	n/a
710.057	0.12	1420114	keystroke_a	a	n/a
710.357	0.0895	1420714	keystroke_r	r	n/a
710.5065	0.106	1421013	keystroke_e	e	n/a
710.627	0.1195	1421254	keystroke_h	h	n/a
710.732	0.119	1421464	keystroke_o	o	n/a
710.881	0.1055	1421762	keystroke_u	u	n/a
711.092	0.105	1422184	keystroke_s	s	n/a
711.346	0.075	1422692	keystroke_e	e	n/a
711.5715	0.0745	1423143	keystroke_Key.space	Key.space	n/a
711.827	0.1055	1423654	keystroke_p	p	n/a
712.666	0.0905	1425332	keystroke_a	a	n/a
712.906	0.075	1425812	keystroke_r	r	n/a
713.1015	0.0745	1426203	keystroke_t	t	n/a
713.2365	0.12	1426473	keystroke_i	i	n/a
713.476	0.1065	1426952	keystroke_c	c	n/a
713.5675	0.0895	1427135	keystroke_i	i	n/a
713.762	0.105	1427524	keystroke_p	p	n/a
713.897	0.12	1427794	keystroke_a	a	n/a
714.167	0.09	1428334	keystroke_t	t	n/a
714.3325	0.089	1428665	keystroke_e	e	n/a
714.5275	0.089	1429055	keystroke_d	d	n/a
714.9765	0.075	1429953	keystroke_Key.enter	Key.enter	n/a
715.0585	7.96	1430117	prompt	n/a	chase roger visited squad\n
715.7865	0.105	1431573	keystroke_c	c	n/a
715.907	0.1045	1431814	keystroke_h	h	n/a
716.0715	0.105	1432143	keystroke_a	a	n/a
716.282	0.0895	1432564	keystroke_s	s	n/a
716.492	0.0745	1432984	keystroke_e	e	n/a
716.717	0.0745	1433434	keystroke_Key.space	Key.space	n/a
717.3015	0.0905	1434603	keystroke_r	r	n/a
717.422	0.15	1434844	keystroke_o	o	n/a
717.557	0.105	1435114	keystroke_g	g	n/a
718.262	0.09	1436524	keystroke_e	e	n/a
718.502	0.075	1437004	keystroke_r	r	n/a
718.8465	0.0755	1437693	keystroke_Key.space	Key.space	n/a
719.102	0.09	1438204	keystroke_v	v	n/a
719.3415	0.09	1438683	keystroke_i	i	n/a
719.612	0.089	1439224	keystroke_s	s	n/a
719.7025	0.1045	1439405	keystroke_i	i	n/a
720.047	0.105	1440094	keystroke_t	t	n/a
720.242	0.09	1440484	keystroke_e	e	n/a
720.452	0.075	1440904	keystroke_d	d	n/a
720.7215	0.09	1441443	keystroke_Key.space	Key.space	n/a
721.1265	0.105	1442253	keystroke_s	s	n/a
721.457	0.12	1442914	keystroke_q	q	n/a
721.832	0.12	1443664	keystroke_u	u	n/a
722.462	0.1045	1444924	keystroke_a	a	n/a
722.687	0.0895	1445374	keystroke_d	d	n/a
722.9115	0.105	1445823	keystroke_Key.enter	Key.enter	n/a
723.024	11.9645	1446048	prompt	n/a	bands optimum bulletin how'd\n
724.1725	0.1645	1448345	keystroke_b	b	n/a
724.2765	0.1355	1448553	keystroke_a	a	n/a
724.4265	0.12	1448853	keystroke_n	n	n/a
724.6515	0.135	1449303	keystroke_d	d	n/a
724.8615	0.1205	1449723	keystroke_s	s	n/a
725.431	0.09	1450862	keystroke_Key.space	Key.space	n/a
725.731	0.1205	1451462	keystroke_p	p	n/a
726.796	0.076	1453592	keystroke_Key.backspace	Key.backspace	n/a
727.337	0.075	1454674	keystroke_o	o	n/a
727.3665	0.135	1454733	keystroke_p	p	n/a
727.6365	0.105	1455273	keystroke_t	t	n/a
727.727	0.1345	1455454	keystroke_i	i	n/a
727.9665	0.1055	1455933	keystroke_m	m	n/a
728.2215	0.09	1456443	keystroke_u	u	n/a
728.4615	0.09	1456923	keystroke_m	m	n/a
729.137	0.089	1458274	keystroke_Key.space	Key.space	n/a
729.6025	0.105	1459205	keystroke_b	b	n/a
729.7225	0.105	1459445	keystroke_u	u	n/a
729.9615	0.09	1459923	keystroke_l	l	n/a
730.1265	0.1205	1460253	keystroke_l	l	n/a
730.2165	0.105	1460433	keystroke_e	e	n/a
730.517	0.0895	1461034	keystroke_t	t	n/a
730.712	0.105	1461424	keystroke_i	i	n/a
730.906	0.151	1461812	keystroke_n	n	n/a
731.087	0.105	1462174	keystroke_g	g	n/a
731.356	0.09	1462712	keystroke_Key.space	Key.space	n/a
732.8115	0.135	1465623	keystroke_h	h	n/a
732.8715	0.1805	1465743	keystroke_o	o	n/a
