onset	duration	sample	value	key	prompt_text
12.705	15.456	25410	prompt	n/a	the quick brown fox jumps over a lazy dog\n
17.1805	0.028	34361	keystroke	t	n/a
17.2085	0.06	34417	keystroke	h	n/a
17.2985	0.075	34597	keystroke	e	n/a
17.3885	0.105	34777	keystroke	Key.space	n/a
17.5685	0.12	35137	keystroke	q	n/a
17.6585	0.09	35317	keystroke	u	n/a
17.7185	0.105	35437	keystroke	i	n/a
17.8835	0.135	35767	keystroke	c	n/a
18.0035	0.12	36007	keystroke	k	n/a
18.2135	0.075	36427	keystroke	Key.space	n/a
18.6935	0.075	37387	keystroke	b	n/a
18.9185	0.105	37837	keystroke	r	n/a
19.0235	0.105	38047	keystroke	o	n/a
19.1585	0.12	38317	keystroke	w	n/a
19.2635	0.09	38527	keystroke	n	n/a
19.8335	0.075	39667	keystroke	Key.space	n/a
19.9535	0.09	39907	keystroke	f	n/a
20.0285	0.075	40057	keystroke	o	n/a
20.2385	0.12	40477	keystroke	x	n/a
20.4185	0.075	40837	keystroke	Key.space	n/a
20.5835	0.06	41167	keystroke	j	n/a
21.0635	0.105	42127	keystroke	m	n/a
21.3335	0.09	42667	keystroke	p	n/a
21.949	0.104	43898	keystroke	Key.backspace	n/a
22.129	0.075	44258	keystroke	Key.backspace	n/a
25.1005	0.028	50201	keystroke	u	n/a
25.3385	0.105	50677	keystroke	m	n/a
25.5185	0.09	51037	keystroke	p	n/a
25.6985	0.09	51397	keystroke	s	n/a
25.8335	0.09	51667	keystroke	Key.space	n/a
25.9685	0.09	51937	keystroke	o	n/a
26.0885	0.105	52177	keystroke	v	n/a
26.2685	0.1505	52537	keystroke	e	n/a
26.3435	0.1205	52687	keystroke	r	n/a
26.434	0.075	52868	keystroke	Key.space	n/a
26.6885	0.135	53377	keystroke	a	n/a
26.8085	0.075	53617	keystroke	Key.space	n/a
27.0185	0.09	54037	keystroke	l	n/a
27.0935	0.12	54187	keystroke	a	n/a
27.3485	0.135	54697	keystroke	z	n/a
27.4385	0.075	54877	keystroke	y	n/a
27.5285	0.09	55057	keystroke	Key.space	n/a
27.6485	0.105	55297	keystroke	d	n/a
27.7235	0.09	55447	keystroke	o	n/a
27.8735	0.09	55747	keystroke	g	n/a
28.0835	0.075	56167	keystroke	Key.enter	n/a
28.165	7.525	56330	prompt	n/a	burke favor operated deviation\n
29.283	0.09	58566	keystroke	b	n/a
29.448	0.09	58896	keystroke	u	n/a
29.598	0.075	59196	keystroke	r	n/a
29.7335	0.06	59467	keystroke	k	n/a
29.8685	0.09	59737	keystroke	e	n/a
30.3185	0.075	60637	keystroke	Key.space	n/a
30.514	0.135	61028	keystroke	f	n/a
30.664	0.09	61328	keystroke	a	n/a
30.829	0.105	61658	keystroke	v	n/a
30.964	0.0895	61928	keystroke	o	n/a
31.0835	0.09	62167	keystroke	r	n/a
31.3235	0.06	62647	keystroke	Key.space	n/a
31.5785	0.09	63157	keystroke	p	n/a
31.9835	0.045	63967	keystroke	o	n/a
32.359	0.06	64718	keystroke	Key.backspace	n/a
32.494	0.09	64988	keystroke	Key.backspace	n/a
32.719	0.105	65438	keystroke	o	n/a
32.929	0.075	65858	keystroke	p	n/a
33.019	0.12	66038	keystroke	e	n/a
33.064	0.135	66128	keystroke	r	n/a
33.2285	0.12	66457	keystroke	a	n/a
33.3335	0.075	66667	keystroke	t	n/a
33.4685	0.075	66937	keystroke	e	n/a
33.6335	0.09	67267	keystroke	d	n/a
33.8585	0.075	67717	keystroke	Key.space	n/a
34.1585	0.075	68317	keystroke	d	n/a
34.3535	0.075	68707	keystroke	e	n/a
34.699	0.12	69398	keystroke	v	n/a
34.834	0.075	69668	keystroke	i	n/a
34.939	0.12	69878	keystroke	a	n/a
35.104	0.09	70208	keystroke	t	n/a
35.209	0.15	70418	keystroke	i	n/a
35.269	0.135	70538	keystroke	o	n/a
35.344	0.105	70688	keystroke	n	n/a
35.614	0.075	71228	keystroke	Key.enter	n/a
35.693	3.837	71386	prompt	n/a	kills rings drops resume\n
36.319	0.075	72638	keystroke	k	n/a
36.469	0.075	72938	keystroke	i	n/a
36.634	0.045	73268	keystroke	l	n/a
36.754	0.09	73508	keystroke	l	n/a
36.874	0.075	73748	keystroke	s	n/a
36.964	0.075	73928	keystroke	Key.space	n/a
37.099	0.09	74198	keystroke	r	n/a
37.174	0.135	74348	keystroke	i	n/a
37.264	0.105	74528	keystroke	n	n/a
37.354	0.089	74708	keystroke	g	n/a
37.579	0.09	75158	keystroke	s	n/a
37.684	0.059	75368	keystroke	Key.space	n/a
37.879	0.105	75758	keystroke	d	n/a
38.059	0.075	76118	keystroke	r	n/a
38.119	0.105	76238	keystroke	o	n/a
38.299	0.09	76598	keystroke	p	n/a
38.404	0.075	76808	keystroke	s	n/a
38.494	0.089	76988	keystroke	Key.space	n/a
38.659	0.12	77318	keystroke	r	n/a
38.734	0.06	77468	keystroke	e	n/a
38.899	0.12	77798	keystroke	s	n/a
39.004	0.045	78008	keystroke	u	n/a
39.199	0.06	78398	keystroke	m	n/a
39.274	0.075	78548	keystroke	e	n/a
39.424	0.105	78848	keystroke	Key.enter	n/a
39.535	6.8955	79070	prompt	n/a	freeware welcome launch convinced\n
40.2485	0.105	80497	keystroke	f	n/a
40.4285	0.135	80857	keystroke	r	n/a
40.4885	0.09	80977	keystroke	e	n/a
40.6385	0.09	81277	keystroke	e	n/a
41.0135	0.105	82027	keystroke	w	n/a
41.0885	0.15	82177	keystroke	a	n/a
41.2085	0.12	82417	keystroke	r	n/a
41.2835	0.105	82567	keystroke	e	n/a
41.9435	0.09	83887	keystroke	Key.space	n/a
42.0935	0.12	84187	keystroke	w	n/a
42.1685	0.09	84337	keystroke	e	n/a
42.2885	0.075	84577	keystroke	l	n/a
42.3935	0.12	84787	keystroke	c	n/a
42.5735	0.12	85147	keystroke	o	n/a
42.6635	0.1045	85327	keystroke	m	n/a
42.7085	0.09	85417	keystroke	e	n/a
43.2485	0.075	86497	keystroke	Key.space	n/a
43.4435	0.075	86887	keystroke	l	n/a
43.5335	0.135	87067	keystroke	a	n/a
43.6985	0.075	87397	keystroke	u	n/a
43.9085	0.06	87817	keystroke	n	n/a
44.0435	0.09	88087	keystroke	c	n/a
44.1185	0.06	88237	keystroke	h	n/a
44.5985	0.075	89197	keystroke	Key.space	n/a
44.9885	0.12	89977	keystroke	c	n/a
45.0935	0.12	90187	keystroke	o	n/a
45.1685	0.105	90337	keystroke	n	n/a
45.3185	0.075	90637	keystroke	v	n/a
45.4385	0.09	90877	keystroke	i	n/a
45.6485	0.075	91297	keystroke	n	n/a
45.7685	0.1055	91537	keystroke	c	n/a
45.994	0.06	91988	keystroke	e	n/a
46.174	0.06	92348	keystroke	d	n/a
46.339	0.09	92678	keystroke	Key.enter	n/a
46.433	7.6625	92866	prompt	n/a	torture stadium private colon\n
47.044	0.074	94088	keystroke	f	n/a
47.403	0.09	94806	keystroke	Key.backspace	n/a
47.658	0.061	95316	keystroke	t	n/a
47.749	0.104	95498	keystroke	o	n/a
48.168	0.076	96336	keystroke	r	n/a
48.439	0.089	96878	keystroke	t	n/a
48.514	0.075	97028	keystroke	u	n/a
48.618	0.106	97236	keystroke	r	n/a
48.679	0.104	97358	keystroke	e	n/a
49.3235	0.06	98647	keystroke	Key.space	n/a
49.4735	0.09	98947	keystroke	s	n/a
49.5935	0.105	99187	keystroke	t	n/a
49.6835	0.121	99367	keystroke	a	n/a
50.1935	0.105	100387	keystroke	d	n/a
50.4935	0.06	100987	keystroke	i	n/a
50.689	0.045	101378	keystroke	u	n/a
50.914	0.09	101828	keystroke	m	n/a
51.169	0.075	102338	keystroke	Key.space	n/a
51.349	0.09	102698	keystroke	p	n/a
51.544	0.09	103088	keystroke	r	n/a
51.799	0.09	103598	keystroke	i	n/a
51.964	0.12	103928	keystroke	v	n/a
52.219	0.12	104438	keystroke	a	n/a
52.354	0.075	104708	keystroke	t	n/a
52.549	0.06	105098	keystroke	e	n/a
52.804	0.06	105608	keystroke	Key.space	n/a
53.1335	0.105	106267	keystroke	c	n/a
53.2235	0.075	106447	keystroke	o	n/a
53.4185	0.06	106837	keystroke	l	n/a
53.6135	0.135	107227	keystroke	o	n/a
53.7495	0.104	107499	keystroke	n	n/a
54.0035	0.09	108007	keystroke	Key.enter	n/a
54.099	5.3515	108198	prompt	n/a	playing intel colin lyrics\n
55.0385	0.075	110077	keystroke	p	n/a
55.1885	0.075	110377	keystroke	l	n/a
55.2785	0.105	110557	keystroke	a	n/a
55.3685	0.06	110737	keystroke	y	n/a
55.5635	0.105	111127	keystroke	i	n/a
55.6235	0.09	111247	keystroke	n	n/a
55.6835	0.09	111367	keystroke	g	n/a
55.8035	0.075	111607	keystroke	Key.space	n/a
55.9085	0.135	111817	keystroke	i	n/a
55.9985	0.06	111997	keystroke	n	n/a
56.0735	0.075	112147	keystroke	t	n/a
56.1635	0.09	112327	keystroke	e	n/a
56.2545	0.089	112509	keystroke	l	n/a
56.509	0.074	113018	keystroke	Key.space	n/a
56.8085	0.12	113617	keystroke	c	n/a
56.8985	0.075	113797	keystroke	o	n/a
57.0635	0.075	114127	keystroke	l	n/a
57.2585	0.12	114517	keystroke	i	n/a
57.3485	0.09	114697	keystroke	n	n/a
57.964	0.06	115928	keystroke	Key.space	n/a
58.129	0.105	116258	keystroke	l	n/a
58.309	0.06	116618	keystroke	y	n/a
58.699	0.075	117398	keystroke	r	n/a
58.789	0.06	117578	keystroke	i	n/a
58.894	0.1195	117788	keystroke	c	n/a
59.1485	0.09	118297	keystroke	s	n/a
59.3735	0.075	118747	keystroke	Key.enter	n/a
59.4555	11.2905	118911	prompt	n/a	hazardous charity tahoe chancellor\n
60.5885	0.105	121177	keystroke	d	n/a
61.309	0.06	122618	keystroke	Key.backspace	n/a
61.5185	0.075	123037	keystroke	h	n/a
61.7735	0.12	123547	keystroke	a	n/a
62.5085	0.075	125017	keystroke	z	n/a
62.6735	0.12	125347	keystroke	a	n/a
62.9285	0.09	125857	keystroke	r	n/a
63.7385	0.09	127477	keystroke	d	n/a
63.8885	0.135	127777	keystroke	o	n/a
63.9935	0.09	127987	keystroke	u	n/a
64.1285	0.09	128257	keystroke	s	n/a
64.669	0.09	129338	keystroke	Key.space	n/a
64.9835	0.105	129967	keystroke	c	n/a
65.1035	0.06	130207	keystroke	h	n/a
65.3735	0.135	130747	keystroke	a	n/a
65.8985	0.09	131797	keystroke	r	n/a
65.9735	0.09	131947	keystroke	i	n/a
66.1085	0.075	132217	keystroke	t	n/a
66.1985	0.045	132397	keystroke	y	n/a
66.829	0.015	133658	keystroke	Key.space	n/a
67.0085	0.105	134017	keystroke	t	n/a
67.1885	0.105	134377	keystroke	a	n/a
67.579	0.09	135158	keystroke	h	n/a
67.804	0.09	135608	keystroke	o	n/a
68.044	0.12	136088	keystroke	e	n/a
68.404	0.075	136808	keystroke	Key.space	n/a
68.6735	0.135	137347	keystroke	c	n/a
68.8985	0.06	137797	keystroke	h	n/a
69.0935	0.135	138187	keystroke	a	n/a
69.3335	0.105	138667	keystroke	n	n/a
69.6935	0.09	139387	keystroke	c	n/a
69.9185	0.06	139837	keystroke	e	n/a
70.0535	0.045	140107	keystroke	l	n/a
70.1735	0.06	140347	keystroke	l	n/a
70.3235	0.105	140647	keystroke	o	n/a
70.4135	0.075	140827	keystroke	r	n/a
70.6235	0.12	141247	keystroke	Key.enter	n/a
70.7565	14.239	141513	prompt	n/a	subscriptions offensive verizon administrator\n
71.5235	0.105	143047	keystroke	s	n/a
71.779	0.06	143558	keystroke	u	n/a
72.004	0.075	144008	keystroke	b	n/a
72.469	0.09	144938	keystroke	s	n/a
72.664	0.12	145328	keystroke	c	n/a
72.934	0.075	145868	keystroke	r	n/a
73.054	0.09	146108	keystroke	i	n/a
73.234	0.09	146468	keystroke	p	n/a
73.354	0.09	146708	keystroke	t	n/a
73.459	0.15	146918	keystroke	i	n/a
73.534	0.135	147068	keystroke	o	n/a
73.594	0.105	147188	keystroke	n	n/a
74.104	0.075	148208	keystroke	s	n/a
74.539	0.09	149078	keystroke	Key.space	n/a
74.7785	0.075	149557	keystroke	o	n/a
74.9285	0.075	149857	keystroke	f	n/a
75.0785	0.075	150157	keystroke	f	n/a
75.3635	0.135	150727	keystroke	e	n/a
75.4385	0.12	150877	keystroke	r	n/a
76.6235	0.0455	153247	keystroke	Key.backspace	n/a
76.8185	0.0605	153637	keystroke	n	n/a
77.209	0.09	154418	keystroke	s	n/a
77.284	0.09	154568	keystroke	i	n/a
77.434	0.075	154868	keystroke	v	n/a
77.644	0.075	155288	keystroke	e	n/a
78.4835	0.0905	156967	keystroke	Key.space	n/a
79.2485	0.09	158497	keystroke	v	n/a
79.4735	0.165	158947	keystroke	e	n/a
79.8185	0.105	159637	keystroke	r	n/a
79.9835	0.09	159967	keystroke	i	n/a
80.2235	0.105	160447	keystroke	z	n/a
80.3585	0.135	160717	keystroke	o	n/a
80.4635	0.09	160927	keystroke	n	n/a
81.349	0.06	162698	keystroke	Key.space	n/a
81.499	0.135	162998	keystroke	d	n/a
81.9185	0.09	163837	keystroke	Key.backspace	n/a
82.0685	0.135	164137	keystroke	a	n/a
82.4285	0.075	164857	keystroke	d	n/a
82.774	0.105	165548	keystroke	m	n/a
82.954	0.075	165908	keystroke	i	n/a
83.164	0.09	166328	keystroke	n	n/a
83.389	0.06	166778	keystroke	i	n/a
83.554	0.105	167108	keystroke	s	n/a
83.719	0.105	167438	keystroke	t	n/a
83.929	0.165	167858	keystroke	r	n/a
84.064	0.09	168128	keystroke	a	n/a
84.304	0.075	168608	keystroke	t	n/a
84.424	0.09	168848	keystroke	o	n/a
84.544	0.075	169088	keystroke	r	n/a
84.874	0.12	169748	keystroke	Key.enter	n/a
84.9985	8.082	169997	prompt	n/a	header jordan worker jewelry\n
85.6985	0.091	171397	keystroke	h	n/a
85.9535	0.165	171907	keystroke	e	n/a
86.0745	0.119	172149	keystroke	a	n/a
86.2835	0.076	172567	keystroke	d	n/a
86.464	0.12	172928	keystroke	e	n/a
86.539	0.12	173078	keystroke	r	n/a
86.779	0.075	173558	keystroke	Key.space	n/a
87.5135	0.1205	175027	keystroke	j	n/a
87.874	0.12	175748	keystroke	o	n/a
88.294	0.0745	176588	keystroke	r	n/a
88.4885	0.12	176977	keystroke	d	n/a
88.5935	0.135	177187	keystroke	a	n/a
88.7135	0.105	177427	keystroke	n	n/a
89.224	0.075	178448	keystroke	Key.space	n/a
89.4485	0.076	178897	keystroke	w	n/a
89.5535	0.076	179107	keystroke	o	n/a
89.6735	0.09	179347	keystroke	r	n/a
89.7335	0.09	179467	keystroke	k	n/a
89.8385	0.12	179677	keystroke	e	n/a
89.9135	0.106	179827	keystroke	r	n/a
90.3935	0.06	180787	keystroke	Key.space	n/a
90.5435	0.075	181087	keystroke	j	n/a
90.7835	0.075	181567	keystroke	e	n/a
90.9485	0.105	181897	keystroke	w	n/a
91.924	0.06	183848	keystroke	e	n/a
92.314	0.09	184628	keystroke	l	n/a
92.614	0.09	185228	keystroke	r	n/a
92.689	0.09	185378	keystroke	y	n/a
92.989	0.09	185978	keystroke	Key.enter	n/a
93.0835	6.1165	186167	prompt	n/a	reflects twiki chapter hawk\n
93.7985	0.12	187597	keystroke	r	n/a
93.8585	0.105	187717	keystroke	e	n/a
94.0985	0.12	188197	keystroke	f	n/a
94.3235	0.09	188647	keystroke	l	n/a
94.4285	0.075	188857	keystroke	e	n/a
94.6235	0.09	189247	keystroke	c	n/a
95.4035	0.09	190807	keystroke	t	n/a
95.6135	0.135	191227	keystroke	s	n/a
95.8085	0.075	191617	keystroke	Key.space	n/a
95.989	0.105	191978	keystroke	t	n/a
96.2285	0.09	192457	keystroke	w	n/a
96.4385	0.075	192877	keystroke	i	n/a
96.649	0.0595	193298	keystroke	k	n/a
96.814	0.075	193628	keystroke	i	n/a
97.009	0.045	194018	keystroke	Key.space	n/a
97.159	0.135	194318	keystroke	c	n/a
97.279	0.075	194558	keystroke	h	n/a
97.369	0.1045	194738	keystroke	a	n/a
97.4435	0.105	194887	keystroke	p	n/a
97.8185	0.09	195637	keystroke	t	n/a
97.9535	0.105	195907	keystroke	e	n/a
98.0135	0.105	196027	keystroke	r	n/a
98.1935	0.06	196387	keystroke	Key.space	n/a
98.3885	0.075	196777	keystroke	h	n/a
98.4485	0.12	196897	keystroke	a	n/a
98.719	0.09	197438	keystroke	w	n/a
98.914	0.075	197828	keystroke	k	n/a
99.109	0.09	198218	keystroke	Key.enter	n/a
99.2035	4.767	198407	prompt	n/a	xanax page role cell\n
100.1885	0.12	200377	keystroke	x	n/a
100.5185	0.105	201037	keystroke	a	n/a
100.6385	0.0905	201277	keystroke	n	n/a
100.774	0.09	201548	keystroke	a	n/a
101.164	0.075	202328	keystroke	x	n/a
101.599	0.075	203198	keystroke	Key.space	n/a
101.7785	0.09	203557	keystroke	p	n/a
101.8835	0.09	203767	keystroke	a	n/a
102.0785	0.045	204157	keystroke	g	n/a
102.2585	0.06	204517	keystroke	e	n/a
102.4535	0.0755	204907	keystroke	Key.space	n/a
102.649	0.1195	205298	keystroke	r	n/a
102.739	0.0745	205478	keystroke	o	n/a
102.8885	0.09	205777	keystroke	l	n/a
102.9635	0.075	205927	keystroke	e	n/a
103.0535	0.09	206107	keystroke	Key.space	n/a
103.2035	0.135	206407	keystroke	c	n/a
103.4435	0.075	206887	keystroke	e	n/a
103.5335	0.06	207067	keystroke	l	n/a
103.6535	0.105	207307	keystroke	l	n/a
103.8785	0.09	207757	keystroke	Key.enter	n/a
103.9735	11.712	207947	prompt	n/a	languages hearing nepal paperback\n
110.286	0.013	220572	keystroke	l	n/a
110.329	0.12	220658	keystroke	a	n/a
110.434	0.075	220868	keystroke	n	n/a
110.749	0.105	221498	keystroke	g	n/a
110.869	0.075	221738	keystroke	u	n/a
110.989	0.1205	221978	keystroke	a	n/a
111.1245	0.075	222249	keystroke	g	n/a
111.3045	0.105	222609	keystroke	e	n/a
111.4995	0.119	222999	keystroke	s	n/a
111.6645	0.03	223329	keystroke	Key.space	n/a
111.7545	0.075	223509	keystroke	h	n/a
111.7995	0.135	223599	keystroke	e	n/a
111.8885	0.15	223777	keystroke	a	n/a
111.9945	0.12	223989	keystroke	r	n/a
112.1295	0.105	224259	keystroke	i	n/a
112.1895	0.0895	224379	keystroke	n	n/a
112.2945	0.075	224589	keystroke	g	n/a
112.5035	0.061	225007	keystroke	Key.space	n/a
112.8195	0.12	225639	keystroke	n	n/a
112.9095	0.0895	225819	keystroke	e	n/a
113.119	0.09	226238	keystroke	p	n/a
113.254	0.105	226508	keystroke	a	n/a
113.374	0.075	226748	keystroke	l	n/a
113.9435	0.075	227887	keystroke	Key.space	n/a
114.2435	0.091	228487	keystroke	p	n/a
114.3795	0.12	228759	keystroke	a	n/a
114.5285	0.09	229057	keystroke	p	n/a
114.6485	0.136	229297	keystroke	e	n/a
114.7235	0.106	229447	keystroke	r	n/a
114.9935	0.0755	229987	keystroke	b	n/a
115.114	0.12	230228	keystroke	a	n/a
115.264	0.12	230528	keystroke	c	n/a
115.369	0.09	230738	keystroke	k	n/a
115.594	0.09	231188	keystroke	Key.enter	n/a
115.69	5.4555	231380	prompt	n/a	conversion note fair goods\n
117.049	0.105	234098	keystroke	c	n/a
117.214	0.12	234428	keystroke	o	n/a
117.289	0.09	234578	keystroke	n	n/a
117.364	0.09	234728	keystroke	v	n/a
117.559	0.0895	235118	keystroke	e	n/a
117.6035	0.12	235207	keystroke	r	n/a
117.8285	0.075	235657	keystroke	s	n/a
117.9335	0.195	235867	keystroke	i	n/a
118.0235	0.15	236047	keystroke	o	n/a
118.0985	0.12	236197	keystroke	n	n/a
118.3085	0.06	236617	keystroke	Key.space	n/a
118.4735	0.105	236947	keystroke	n	n/a
118.5485	0.09	237097	keystroke	o	n/a
118.6535	0.09	237307	keystroke	t	n/a
118.7585	0.09	237517	keystroke	e	n/a
119.1185	0.09	238237	keystroke	Key.space	n/a
119.3135	0.12	238627	keystroke	f	n/a
119.5835	0.12	239167	keystroke	a	n/a
119.6885	0.075	239377	keystroke	i	n/a
119.8235	0.09	239647	keystroke	r	n/a
120.0185	0.06	240037	keystroke	Key.space	n/a
120.139	0.105	240278	keystroke	g	n/a
120.304	0.075	240608	keystroke	o	n/a
120.454	0.06	240908	keystroke	o	n/a
120.544	0.09	241088	keystroke	d	n/a
120.844	0.09	241688	keystroke	s	n/a
121.054	0.09	242108	keystroke	Key.enter	n/a
121.1485	7.317	242297	prompt	n/a	diet analysis declaration arms\n
121.7745	0.12	243549	keystroke	d	n/a
122.0145	0.075	244029	keystroke	i	n/a
122.1645	0.09	244329	keystroke	e	n/a
122.3595	0.075	244719	keystroke	t	n/a
122.7645	0.075	245529	keystroke	Key.space	n/a
122.9895	0.0895	245979	keystroke	a	n/a
123.064	0.075	246128	keystroke	n	n/a
123.169	0.09	246338	keystroke	a	n/a
123.319	0.09	246638	keystroke	l	n/a
123.484	0.075	246968	keystroke	i	n/a
123.604	0.09	247208	keystroke	s	n/a
124.054	0.075	248108	keystroke	Key.backspace	n/a
124.204	0.06	248408	keystroke	Key.backspace	n/a
124.5935	0.061	249187	keystroke	y	n/a
124.7135	0.075	249427	keystroke	s	n/a
125.0885	0.105	250177	keystroke	i	n/a
125.2085	0.105	250417	keystroke	s	n/a
125.9735	0.015	251947	keystroke	Key.space	n/a
126.0335	0.09	252067	keystroke	d	n/a
126.2295	0.059	252459	keystroke	e	n/a
126.4385	0.106	252877	keystroke	c	n/a
126.5285	0.09	253057	keystroke	l	n/a
126.679	0.12	253358	keystroke	a	n/a
127.0385	0.105	254077	keystroke	r	n/a
127.1135	0.105	254227	keystroke	a	n/a
127.369	0.075	254738	keystroke	t	n/a
127.459	0.1505	254918	keystroke	i	n/a
127.489	0.165	254978	keystroke	o	n/a
127.579	0.12	255158	keystroke	n	n/a
127.759	0.075	255518	keystroke	Key.space	n/a
127.909	0.12	255818	keystroke	a	n/a
128.044	0.12	256088	keystroke	r	n/a
128.104	0.135	256208	keystroke	m	n/a
128.254	0.105	256508	keystroke	s	n/a
128.359	0.105	256718	keystroke	Key.enter	n/a
128.4695	6.146	256939	prompt	n/a	everyone's sarah guarantee sign\n
129.139	0.075	258278	keystroke	e	n/a
129.334	0.075	258668	keystroke	v	n/a
129.514	0.075	259028	keystroke	e	n/a
129.559	0.105	259118	keystroke	r	n/a
129.679	0.075	259358	keystroke	y	n/a
129.7995	0.1195	259599	keystroke	o	n/a
129.889	0.09	259778	keystroke	n	n/a
129.949	0.075	259898	keystroke	e	n/a
130.129	0.105	260258	keystroke	'	n/a
130.2485	0.0905	260497	keystroke	s	n/a
130.6085	0.075	261217	keystroke	Key.space	n/a
130.7435	0.1205	261487	keystroke	s	n/a
130.8935	0.12	261787	keystroke	a	n/a
131.0285	0.135	262057	keystroke	r	n/a
131.1185	0.105	262237	keystroke	a	n/a
131.2385	0.06	262477	keystroke	h	n/a
131.7195	0.045	263439	keystroke	Key.space	n/a
132.1995	0.09	264399	keystroke	g	n/a
132.5135	0.075	265027	keystroke	u	n/a
132.7395	0.1045	265479	keystroke	a	n/a
133.009	0.105	266018	keystroke	r	n/a
133.189	0.135	266378	keystroke	a	n/a
133.309	0.105	266618	keystroke	n	n/a
133.444	0.075	266888	keystroke	t	n/a
133.594	0.09	267188	keystroke	e	n/a
133.729	0.06	267458	keystroke	e	n/a
133.894	0.09	267788	keystroke	Key.space	n/a
133.999	0.1195	267998	keystroke	s	n/a
134.1035	0.045	268207	keystroke	i	n/a
134.2235	0.075	268447	keystroke	g	n/a
134.3285	0.09	268657	keystroke	n	n/a
134.5235	0.09	269047	keystroke	Key.enter	n/a
134.6185	6.012	269237	prompt	n/a	ampland cycling mark guess\n
135.439	0.0895	270878	keystroke	a	n/a
135.5435	0.135	271087	keystroke	m	n/a
135.8285	0.075	271657	keystroke	p	n/a
136.0085	0.06	272017	keystroke	l	n/a
136.0835	0.12	272167	keystroke	a	n/a
136.1885	0.09	272377	keystroke	n	n/a
136.2935	0.09	272587	keystroke	d	n/a
137.134	0.075	274268	keystroke	Key.space	n/a
137.3585	0.12	274717	keystroke	c	n/a
137.7185	0.06	275437	keystroke	y	n/a
137.7795	0.104	275559	keystroke	c	n/a
138.1235	0.045	276247	keystroke	l	n/a
138.2135	0.18	276427	keystroke	i	n/a
138.3785	0.03	276757	keystroke	n	n/a
138.4535	0.09	276907	keystroke	g	n/a
138.9185	0.06	277837	keystroke	Key.space	n/a
139.0685	0.12	278137	keystroke	m	n/a
139.1735	0.15	278347	keystroke	a	n/a
139.2935	0.09	278587	keystroke	r	n/a
139.3845	0.074	278769	keystroke	k	n/a
139.4885	0.0755	278977	keystroke	Key.space	n/a
139.714	0.075	279428	keystroke	g	n/a
139.819	0.09	279638	keystroke	u	n/a
140.029	0.12	280058	keystroke	e	n/a
140.224	0.075	280448	keystroke	s	n/a
140.389	0.075	280778	keystroke	s	n/a
140.539	0.09	281078	keystroke	Key.enter	n/a
140.6345	6.596	281269	prompt	n/a	burton preparing overcome reduce\n
141.439	0.075	282878	keystroke	b	n/a
141.574	0.075	283148	keystroke	u	n/a
141.679	0.075	283358	keystroke	r	n/a
141.829	0.075	283658	keystroke	t	n/a
141.889	0.12	283778	keystroke	o	n/a
141.979	0.12	283958	keystroke	n	n/a
142.189	0.09	284378	keystroke	Key.space	n/a
142.819	0.09	285638	keystroke	p	n/a
143.0135	0.21	286027	keystroke	r	n/a
143.1935	0.06	286387	keystroke	e	n/a
143.4335	0.075	286867	keystroke	p	n/a
143.5385	0.135	287077	keystroke	a	n/a
143.6585	0.105	287317	keystroke	r	n/a
143.7785	0.075	287557	keystroke	i	n/a
143.8685	0.12	287737	keystroke	n	n/a
143.9285	0.09	287857	keystroke	g	n/a
144.5295	0.0745	289059	keystroke	Key.space	n/a
144.724	0.075	289448	keystroke	o	n/a
144.814	0.09	289628	keystroke	v	n/a
144.9945	0.089	289989	keystroke	e	n/a
145.039	0.1045	290078	keystroke	r	n/a
145.2635	0.12	290527	keystroke	c	n/a
145.3385	0.12	290677	keystroke	o	n/a
145.3985	0.105	290797	keystroke	m	n/a
145.5335	0.0605	291067	keystroke	e	n/a
146.0585	0.075	292117	keystroke	Key.space	n/a
146.2685	0.1205	292537	keystroke	r	n/a
146.3285	0.0755	292657	keystroke	e	n/a
146.509	0.105	293018	keystroke	d	n/a
146.599	0.06	293198	keystroke	u	n/a
146.704	0.105	293408	keystroke	c	n/a
146.929	0.0605	293858	keystroke	e	n/a
147.1395	0.09	294279	keystroke	Key.enter	n/a
147.2345	11.4865	294469	prompt	n/a	pasta mysterious brian references\n
147.9345	0.059	295869	keystroke	p	n/a
148.0085	0.121	296017	keystroke	a	n/a
148.1745	0.09	296349	keystroke	s	n/a
148.3395	0.119	296679	keystroke	t	n/a
148.4135	0.136	296827	keystroke	a	n/a
148.624	0.06	297248	keystroke	Key.space	n/a
148.849	0.105	297698	keystroke	m	n/a
149.104	0.06	298208	keystroke	y	n/a
149.389	0.075	298778	keystroke	s	n/a
149.554	0.075	299108	keystroke	t	n/a
149.809	0.09	299618	keystroke	e	n/a
154.5065	0.0425	309013	keystroke	r	n/a
154.624	0.105	309248	keystroke	i	n/a
154.73	0.119	309460	keystroke	o	n/a
154.819	0.105	309638	keystroke	u	n/a
154.954	0.105	309908	keystroke	s	n/a
155.509	0.075	311018	keystroke	Key.space	n/a
155.824	0.09	311648	keystroke	b	n/a
156.034	0.135	312068	keystroke	r	n/a
156.139	0.135	312278	keystroke	a	n/a
156.319	0.15	312638	keystroke	i	n/a
156.394	0.12	312788	keystroke	n	n/a
156.799	0.0305	313598	keystroke	Key.space	n/a
157.1295	0.135	314259	keystroke	r	n/a
157.2185	0.106	314437	keystroke	e	n/a
157.4145	0.075	314829	keystroke	f	n/a
157.5495	0.09	315099	keystroke	e	n/a
157.6245	0.12	315249	keystroke	r	n/a
157.7295	0.074	315459	keystroke	e	n/a
157.8195	0.074	315639	keystroke	n	n/a
157.9235	0.075	315847	keystroke	c	n/a
158.149	0.09	316298	keystroke	e	n/a
158.359	0.105	316718	keystroke	s	n/a
158.614	0.1045	317228	keystroke	Key.enter	n/a
158.7255	8.155	317451	prompt	n/a	syracuse portsmouth featured broader\n
159.3935	0.09	318787	keystroke	s	n/a
159.5585	0.075	319117	keystroke	y	n/a
159.8435	0.135	319687	keystroke	r	n/a
159.9345	0.1195	319869	keystroke	a	n/a
160.189	0.105	320378	keystroke	c	n/a
160.309	0.045	320618	keystroke	u	n/a
160.399	0.105	320798	keystroke	s	n/a
161.329	0.09	322658	keystroke	e	n/a
161.524	0.075	323048	keystroke	Key.space	n/a
161.689	0.075	323378	keystroke	p	n/a
161.8685	0.0755	323737	keystroke	o	n/a
161.9885	0.091	323977	keystroke	r	n/a
162.1685	0.06	324337	keystroke	t	n/a
162.3045	0.1195	324609	keystroke	s	n/a
162.529	0.09	325058	keystroke	m	n/a
162.664	0.135	325328	keystroke	o	n/a
162.784	0.06	325568	keystroke	u	n/a
162.964	0.0905	325928	keystroke	t	n/a
163.0395	0.06	326079	keystroke	h	n/a
163.6395	0.06	327279	keystroke	Key.space	n/a
163.8195	0.06	327639	keystroke	f	n/a
163.9545	0.135	327909	keystroke	e	n/a
164.0445	0.135	328089	keystroke	a	n/a
164.2245	0.09	328449	keystroke	t	n/a
164.3895	0.06	328779	keystroke	u	n/a
164.4645	0.12	328929	keystroke	r	n/a
164.5245	0.105	329049	keystroke	e	n/a
164.8545	0.105	329709	keystroke	d	n/a
165.469	0.06	330938	keystroke	Key.space	n/a
165.664	0.075	331328	keystroke	b	n/a
165.874	0.105	331748	keystroke	r	n/a
166.024	0.105	332048	keystroke	o	n/a
166.144	0.12	332288	keystroke	a	n/a
166.339	0.09	332678	keystroke	d	n/a
166.5345	0.09	333069	keystroke	e	n/a
166.5795	0.105	333159	keystroke	r	n/a
166.7745	0.105	333549	keystroke	Key.enter	n/a
166.8845	9.5965	333769	prompt	n/a	chem hardwood developments sufficiently\n
167.7495	0.12	335499	keystroke	c	n/a
167.8845	0.06	335769	keystroke	h	n/a
168.0045	0.09	336009	keystroke	e	n/a
168.1095	0.06	336219	keystroke	m	n/a
168.5295	0.06	337059	keystroke	Key.space	n/a
168.6945	0.12	337389	keystroke	c	n/a
169.0995	0.075	338199	keystroke	Key.backspace	n/a
169.3095	0.075	338619	keystroke	h	n/a
169.3995	0.12	338799	keystroke	a	n/a
169.4895	0.09	338979	keystroke	r	n/a
169.6545	0.09	339309	keystroke	d	n/a
169.8795	0.075	339759	keystroke	w	n/a
169.9545	0.06	339909	keystroke	o	n/a
170.1045	0.075	340209	keystroke	o	n/a
170.2095	0.09	340419	keystroke	d	n/a
171.0795	0.06	342159	keystroke	Key.space	n/a
171.2295	0.06	342459	keystroke	d	n/a
171.3945	0.075	342789	keystroke	e	n/a
171.6045	0.075	343209	keystroke	v	n/a
171.7845	0.0745	343569	keystroke	e	n/a
171.98	0.119	343960	keystroke	l	n/a
172.249	0.0905	344498	keystroke	o	n/a
172.4445	0.09	344889	keystroke	p	n/a
172.6095	0.105	345219	keystroke	m	n/a
172.6995	0.105	345399	keystroke	e	n/a
172.7895	0.09	345579	keystroke	n	n/a
172.8945	0.0895	345789	keystroke	t	n/a
173.134	0.09	346268	keystroke	s	n/a
173.464	0.075	346928	keystroke	Key.space	n/a
173.9145	0.09	347829	keystroke	s	n/a
174.0645	0.075	348129	keystroke	u	n/a
174.2145	0.09	348429	keystroke	f	n/a
174.3795	0.06	348759	keystroke	f	n/a
174.6945	0.06	349389	keystroke	i	n/a
174.949	0.135	349898	keystroke	c	n/a
175.085	0.074	350170	keystroke	i	n/a
175.324	0.075	350648	keystroke	e	n/a
175.444	0.045	350888	keystroke	n	n/a
175.549	0.105	351098	keystroke	t	n/a
175.969	0.135	351938	keystroke	l	n/a
176.044	0.075	352088	keystroke	y	n/a
176.374	0.105	352748	keystroke	Key.enter	n/a
176.4835	7.4075	352967	prompt	n/a	lifetime statement regardless compromise\n
177.3345	0.09	354669	keystroke	l	n/a
177.4095	0.09	354819	keystroke	i	n/a
177.7095	0.0895	355419	keystroke	f	n/a
177.814	0.09	355628	keystroke	e	n/a
178.024	0.075	356048	keystroke	t	n/a
178.084	0.12	356168	keystroke	i	n/a
178.159	0.12	356318	keystroke	m	n/a
178.249	0.075	356498	keystroke	e	n/a
178.534	0.075	357068	keystroke	Key.space	n/a
178.669	0.105	357338	keystroke	s	n/a
178.804	0.105	357608	keystroke	t	n/a
178.924	0.09	357848	keystroke	a	n/a
178.984	0.09	357968	keystroke	t	n/a
179.209	0.09	358418	keystroke	e	n/a
179.419	0.075	358838	keystroke	m	n/a
179.479	0.06	358958	keystroke	e	n/a
179.584	0.06	359168	keystroke	n	n/a
179.614	0.075	359228	keystroke	t	n/a
180.364	0.0755	360728	keystroke	Key.space	n/a
180.5145	0.135	361029	keystroke	r	n/a
180.5895	0.075	361179	keystroke	e	n/a
180.7695	0.09	361539	keystroke	g	n/a
180.9195	0.105	361839	keystroke	a	n/a
180.9645	0.105	361929	keystroke	r	n/a
181.1445	0.105	362289	keystroke	d	n/a
181.2195	0.09	362439	keystroke	l	n/a
181.3395	0.18	362679	keystroke	e	n/a
181.4145	0.135	362829	keystroke	s	n/a
181.6245	0.09	363249	keystroke	s	n/a
182.479	0.015	364958	keystroke	Key.space	n/a
182.524	0.12	365048	keystroke	c	n/a
182.599	0.105	365198	keystroke	o	n/a
182.659	0.135	365318	keystroke	m	n/a
182.854	0.09	365708	keystroke	p	n/a
182.959	0.0905	365918	keystroke	r	n/a
183.0645	0.06	366129	keystroke	o	n/a
183.2445	0.134	366489	keystroke	m	n/a
183.3495	0.105	366699	keystroke	i	n/a
183.4695	0.09	366939	keystroke	s	n/a
183.6645	0.06	367329	keystroke	e	n/a
183.7995	0.09	367599	keystroke	Key.enter	n/a
183.8935	8.907	367787	prompt	n/a	prominent nicholas macromedia upgrade\n
184.5795	0.104	369159	keystroke	p	n/a
184.7285	0.075	369457	keystroke	r	n/a
184.8185	0.061	369637	keystroke	o	n/a
185.1785	0.12	370357	keystroke	m	n/a
185.3135	0.09	370627	keystroke	i	n/a
185.4635	0.105	370927	keystroke	n	n/a
185.6585	0.045	371317	keystroke	e	n/a
185.9885	0.09	371977	keystroke	t	n/a
186.3035	0.0605	372607	keystroke	Key.space	n/a
186.4685	0.09	372937	keystroke	n	n/a
186.6185	0.09	373237	keystroke	i	n/a
186.7995	0.105	373599	keystroke	c	n/a
186.8895	0.075	373779	keystroke	h	n/a
186.9495	0.0895	373899	keystroke	o	n/a
187.159	0.09	374318	keystroke	l	n/a
187.234	0.135	374468	keystroke	a	n/a
187.504	0.09	375008	keystroke	s	n/a
188.059	0.045	376118	keystroke	Key.space	n/a
188.209	0.12	376418	keystroke	m	n/a
188.344	0.105	376688	keystroke	a	n/a
188.8395	0.09	377679	keystroke	c	n/a
189.0795	0.075	378159	keystroke	r	n/a
189.1685	0.075	378337	keystroke	o	n/a
189.4535	0.121	378907	keystroke	m	n/a
189.6195	0.09	379239	keystroke	e	n/a
189.8295	0.09	379659	keystroke	d	n/a
189.9045	0.06	379809	keystroke	i	n/a
190.0095	0.105	380019	keystroke	a	n/a
190.3235	0.031	380647	keystroke	Key.space	n/a
190.4885	0.135	380977	keystroke	u	n/a
190.5935	0.12	381187	keystroke	p	n/a
191.0435	0.106	382087	keystroke	g	n/a
191.2835	0.15	382567	keystroke	r	n/a
191.3745	0.119	382749	keystroke	a	n/a
191.5835	0.06	383167	keystroke	d	n/a
191.7785	0.06	383557	keystroke	e	n/a
192.679	0.12	385358	keystroke	Key.enter	n/a
192.8035	7.347	385607	prompt	n/a	scientist anthony prescription lows\n
193.5195	0.074	387039	keystroke	s	n/a
193.6845	0.119	387369	keystroke	c	n/a
193.8185	0.09	387637	keystroke	i	n/a
193.9985	0.075	387997	keystroke	e	n/a
194.1035	0.0755	388207	keystroke	n	n/a
194.239	0.09	388478	keystroke	t	n/a
194.344	0.06	388688	keystroke	i	n/a
194.659	0.15	389318	keystroke	s	n/a
194.779	0.09	389558	keystroke	t	n/a
195.334	0.075	390668	keystroke	Key.space	n/a
195.469	0.09	390938	keystroke	a	n/a
195.529	0.09	391058	keystroke	n	n/a
195.844	0.105	391688	keystroke	t	n/a
195.919	0.075	391838	keystroke	h	n/a
196.009	0.045	392018	keystroke	o	n/a
196.324	0.09	392648	keystroke	n	n/a
196.534	0.06	393068	keystroke	y	n/a
196.879	0.105	393758	keystroke	Key.space	n/a
197.029	0.09	394058	keystroke	p	n/a
197.344	0.135	394688	keystroke	r	n/a
197.419	0.075	394838	keystroke	e	n/a
197.959	0.075	395918	keystroke	s	n/a
198.274	0.1495	396548	keystroke	c	n/a
198.5285	0.075	397057	keystroke	r	n/a
198.6195	0.074	397239	keystroke	i	n/a
198.7385	0.09	397477	keystroke	p	n/a
198.8585	0.075	397717	keystroke	t	n/a
198.9485	0.15	397897	keystroke	i	n/a
198.9935	0.135	397987	keystroke	o	n/a
199.0685	0.121	398137	keystroke	n	n/a
199.2485	0.045	398497	keystroke	Key.space	n/a
199.3695	0.089	398739	keystroke	l	n/a
199.564	0.075	399128	keystroke	o	n/a
199.654	0.09	399308	keystroke	w	n/a
199.864	0.105	399728	keystroke	s	n/a
200.044	0.105	400088	keystroke	Key.enter	n/a
200.153	4.7225	400306	prompt	n/a	sign acute mild import\n
200.9135	0.1055	401827	keystroke	s	n/a
201.004	0.075	402008	keystroke	i	n/a
201.139	0.09	402278	keystroke	g	n/a
201.289	0.105	402578	keystroke	n	n/a
201.769	0.075	403538	keystroke	Key.space	n/a
202.0095	0.12	404019	keystroke	a	n/a
202.2945	0.09	404589	keystroke	c	n/a
202.4295	0.0595	404859	keystroke	u	n/a
202.5945	0.06	405189	keystroke	t	n/a
202.804	0.075	405608	keystroke	e	n/a
202.9835	0.06	405967	keystroke	Key.space	n/a
203.1485	0.105	406297	keystroke	m	n/a
203.2985	0.075	406597	keystroke	i	n/a
203.4485	0.075	406897	keystroke	l	n/a
203.6445	0.09	407289	keystroke	d	n/a
203.7795	0.045	407559	keystroke	Key.space	n/a
203.9295	0.105	407859	keystroke	i	n/a
204.0195	0.12	408039	keystroke	m	n/a
204.1845	0.075	408369	keystroke	p	n/a
204.3195	0.09	408639	keystroke	o	n/a
204.4095	0.075	408819	keystroke	r	n/a
204.604	0.075	409208	keystroke	t	n/a
204.754	0.12	409508	keystroke	Key.enter	n/a
204.879	5.742	409758	prompt	n/a	john carries ireland clean\n
205.729	0.105	411458	keystroke	j	n/a
205.879	0.09	411758	keystroke	o	n/a
206.014	0.06	412028	keystroke	h	n/a
206.224	0.03	412448	keystroke	n	n/a
206.869	0.06	413738	keystroke	Key.space	n/a
207.034	0.105	414068	keystroke	c	n/a
207.199	0.09	414398	keystroke	a	n/a
207.349	0.06	414698	keystroke	r	n/a
207.484	0.09	414968	keystroke	r	n/a
207.589	0.06	415178	keystroke	i	n/a
207.694	0.09	415388	keystroke	e	n/a
207.949	0.09	415898	keystroke	s	n/a
208.084	0.09	416168	keystroke	Key.space	n/a
208.279	0.075	416558	keystroke	i	n/a
208.399	0.12	416798	keystroke	r	n/a
208.489	0.06	416978	keystroke	e	n/a
208.669	0.105	417338	keystroke	l	n/a
208.834	0.12	417668	keystroke	a	n/a
209.014	0.105	418028	keystroke	n	n/a
209.134	0.105	418268	keystroke	d	n/a
209.704	0.09	419408	keystroke	Key.space	n/a
209.8695	0.135	419739	keystroke	c	n/a
209.9895	0.09	419979	keystroke	l	n/a
210.1245	0.09	420249	keystroke	e	n/a
210.1995	0.135	420399	keystroke	a	n/a
210.2895	0.09	420579	keystroke	n	n/a
210.514	0.105	421028	keystroke	Key.enter	n/a
210.6275	6.2635	421255	prompt	n/a	lives ministers diesel jennifer\n
211.3845	0.12	422769	keystroke	l	n/a
211.4895	0.09	422979	keystroke	i	n/a
211.6395	0.09	423279	keystroke	v	n/a
211.8495	0.0595	423699	keystroke	e	n/a
212.014	0.075	424028	keystroke	s	n/a
212.269	0.06	424538	keystroke	Key.space	n/a
212.434	0.15	424868	keystroke	m	n/a
212.569	0.09	425138	keystroke	i	n/a
212.764	0.075	425528	keystroke	n	n/a
212.869	0.09	425738	keystroke	i	n/a
213.0645	0.075	426129	keystroke	s	n/a
213.1995	0.075	426399	keystroke	t	n/a
213.3345	0.104	426669	keystroke	e	n/a
213.3945	0.105	426789	keystroke	r	n/a
213.5745	0.09	427149	keystroke	s	n/a
213.754	0.06	427508	keystroke	Key.space	n/a
213.979	0.105	427958	keystroke	d	n/a
214.099	0.06	428198	keystroke	i	n/a
214.384	0.09	428768	keystroke	e	n/a
214.714	0.09	429428	keystroke	s	n/a
214.849	0.105	429698	keystroke	e	n/a
214.969	0.075	429938	keystroke	l	n/a
215.119	0.045	430238	keystroke	Key.space	n/a
215.239	0.105	430478	keystroke	j	n/a
215.389	0.12	430778	keystroke	e	n/a
215.629	0.075	431258	keystroke	n	n/a
215.749	0.09	431498	keystroke	n	n/a
215.8995	0.075	431799	keystroke	i	n/a
216.3495	0.09	432699	keystroke	f	n/a
216.4995	0.105	432999	keystroke	e	n/a
216.5595	0.105	433119	keystroke	r	n/a
216.7845	0.105	433569	keystroke	Key.enter	n/a
216.8935	6.012	433787	prompt	n/a	participants identical liver sends\n
217.504	0.12	435008	keystroke	p	n/a
217.639	0.135	435278	keystroke	a	n/a
217.759	0.075	435518	keystroke	r	n/a
218.1485	0.09	436297	keystroke	t	n/a
218.2395	0.074	436479	keystroke	i	n/a
218.4345	0.135	436869	keystroke	c	n/a
218.5095	0.0745	437019	keystroke	i	n/a
218.7645	0.074	437529	keystroke	p	n/a
218.8985	0.136	437797	keystroke	a	n/a
219.0045	0.09	438009	keystroke	n	n/a
219.1395	0.089	438279	keystroke	t	n/a
219.4085	0.105	438817	keystroke	s	n/a
219.6935	0.06	439387	keystroke	Key.space	n/a
219.9635	0.0605	439927	keystroke	i	n/a
220.069	0.09	440138	keystroke	d	n/a
220.249	0.075	440498	keystroke	e	n/a
220.309	0.09	440618	keystroke	n	n/a
220.459	0.06	440918	keystroke	t	n/a
220.534	0.075	441068	keystroke	i	n/a
220.654	0.105	441308	keystroke	c	n/a
220.774	0.12	441548	keystroke	a	n/a
220.909	0.105	441818	keystroke	l	n/a
220.999	0.09	441998	keystroke	Key.space	n/a
221.119	0.12	442238	keystroke	l	n/a
221.209	0.105	442418	keystroke	i	n/a
221.3285	0.09	442657	keystroke	v	n/a
221.5235	0.105	443047	keystroke	e	n/a
221.5685	0.105	443137	keystroke	r	n/a
221.7635	0.06	443527	keystroke	Key.space	n/a
221.9445	0.09	443889	keystroke	s	n/a
222.1395	0.0895	444279	keystroke	e	n/a
222.259	0.105	444518	keystroke	n	n/a
222.379	0.09	444758	keystroke	d	n/a
222.6045	0.075	445209	keystroke	s	n/a
222.8295	0.075	445659	keystroke	Key.enter	n/a
222.909	7.032	445818	prompt	n/a	authorization strain existing additional\n
223.6095	0.09	447219	keystroke	a	n/a
223.7145	0.09	447429	keystroke	u	n/a
223.8495	0.0895	447699	keystroke	t	n/a
223.924	0.075	447848	keystroke	h	n/a
224.044	0.06	448088	keystroke	o	n/a
224.119	0.09	448238	keystroke	r	n/a
224.329	0.09	448658	keystroke	i	n/a
225.0495	0.105	450099	keystroke	z	n/a
225.2745	0.075	450549	keystroke	a	n/a
225.4235	0.0905	450847	keystroke	t	n/a
225.529	0.105	451058	keystroke	i	n/a
225.574	0.15	451148	keystroke	o	n/a
225.649	0.105	451298	keystroke	n	n/a
225.8445	0.075	451689	keystroke	Key.space	n/a
226.3695	0.075	452739	keystroke	s	n/a
226.4895	0.075	452979	keystroke	t	n/a
226.6395	0.12	453279	keystroke	r	n/a
226.7295	0.09	453459	keystroke	a	n/a
226.8045	0.135	453609	keystroke	i	n/a
226.8795	0.135	453759	keystroke	n	n/a
227.0445	0.06	454089	keystroke	Key.space	n/a
227.1945	0.075	454389	keystroke	e	n/a
227.3895	0.09	454779	keystroke	x	n/a
227.4945	0.09	454989	keystroke	i	n/a
227.6145	0.075	455229	keystroke	s	n/a
227.6895	0.075	455379	keystroke	i	n/a
227.8245	0.075	455649	keystroke	t	n/a
227.8845	0.09	455769	keystroke	i	n/a
227.9445	0.105	455889	keystroke	n	n/a
228.0195	0.06	456039	keystroke	g	n/a
228.2595	0.075	456519	keystroke	Key.space	n/a
228.5445	0.06	457089	keystroke	a	n/a
228.6945	0.06	457389	keystroke	d	n/a
228.8295	0.075	457659	keystroke	d	n/a
228.9495	0.075	457899	keystroke	i	n/a
229.1295	0.09	458259	keystroke	t	n/a
229.2045	0.105	458409	keystroke	i	n/a
229.2495	0.12	458499	keystroke	o	n/a
229.3095	0.105	458619	keystroke	n	n/a
229.399	0.1055	458798	keystroke	a	n/a
229.4895	0.105	458979	keystroke	l	n/a
229.8495	0.089	459699	keystroke	Key.enter	n/a
229.9455	7.255	459891	prompt	n/a	describe latino vertex americas\n
230.8695	0.089	461739	keystroke	d	n/a
231.2595	0.075	462519	keystroke	e	n/a
231.5145	0.105	463029	keystroke	s	n/a
231.7245	0.12	463449	keystroke	c	n/a
231.964	0.075	463928	keystroke	r	n/a
232.054	0.06	464108	keystroke	i	n/a
232.189	0.0755	464378	keystroke	b	n/a
232.4135	0.061	464827	keystroke	e	n/a
232.4885	0.105	464977	keystroke	Key.space	n/a
232.6095	0.104	465219	keystroke	l	n/a
232.6995	0.104	465399	keystroke	a	n/a
232.8795	0.09	465759	keystroke	t	n/a
233.1035	0.091	466207	keystroke	i	n/a
233.5545	0.135	467109	keystroke	n	n/a
233.6445	0.12	467289	keystroke	o	n/a
234.094	0.045	468188	keystroke	Key.space	n/a
234.379	0.075	468758	keystroke	v	n/a
234.5435	0.091	469087	keystroke	e	n/a
234.5885	0.09	469177	keystroke	r	n/a
234.7845	0.089	469569	keystroke	t	n/a
234.9635	0.046	469927	keystroke	e	n/a
235.1885	0.105	470377	keystroke	x	n/a
235.4135	0.075	470827	keystroke	Key.space	n/a
235.7885	0.075	471577	keystroke	a	n/a
236.0435	0.105	472087	keystroke	m	n/a
236.2085	0.106	472417	keystroke	e	n/a
236.2685	0.1055	472537	keystroke	r	n/a
236.4785	0.075	472957	keystroke	i	n/a
236.5685	0.12	473137	keystroke	c	n/a
236.7185	0.15	473437	keystroke	a	n/a
236.824	0.0895	473648	keystroke	s	n/a
237.1085	0.09	474217	keystroke	Key.enter	n/a
237.2045	11.1565	474409	prompt	n/a	electricity reward company lanes\n
238.0685	0.075	476137	keystroke	e	n/a
238.1735	0.09	476347	keystroke	l	n/a
238.2785	0.0605	476557	keystroke	e	n/a
238.4435	0.075	476887	keystroke	c	n/a
238.6535	0.075	477307	keystroke	t	n/a
238.8035	0.075	477607	keystroke	i	n/a
238.9535	0.09	477907	keystroke	r	n/a
239.074	0.075	478148	keystroke	i	n/a
239.539	0.105	479078	keystroke	c	n/a
239.704	0.075	479408	keystroke	i	n/a
239.839	0.0605	479678	keystroke	t	n/a
239.914	0.03	479828	keystroke	y	n/a
240.124	0.075	480248	keystroke	Key.space	n/a
240.7695	0.075	481539	keystroke	Key.backspace	n/a
240.9195	0.0595	481839	keystroke	Key.backspace	n/a
241.069	0.06	482138	keystroke	Key.backspace	n/a
241.219	0.075	482438	keystroke	Key.backspace	n/a
241.369	0.075	482738	keystroke	Key.backspace	n/a
241.534	0.06	483068	keystroke	Key.backspace	n/a
241.699	0.0905	483398	keystroke	Key.backspace	n/a
243.004	0.06	486008	keystroke	Key.backspace	n/a
243.334	0.105	486668	keystroke	r	n/a
243.529	0.06	487058	keystroke	i	n/a
244.264	0.075	488528	keystroke	c	n/a
244.324	0.09	488648	keystroke	i	n/a
244.519	0.06	489038	keystroke	t	n/a
244.58	0.059	489160	keystroke	y	n/a
244.744	0.075	489488	keystroke	Key.space	n/a
244.879	0.135	489758	keystroke	r	n/a
244.969	0.06	489938	keystroke	e	n/a
245.254	0.18	490508	keystroke	w	n/a
245.434	0.18	490868	keystroke	a	n/a
245.629	0.075	491258	keystroke	r	n/a
245.854	0.09	491708	keystroke	d	n/a
246.124	0.06	492248	keystroke	Key.space	n/a
246.559	0.135	493118	keystroke	c	n/a
246.664	0.105	493328	keystroke	o	n/a
246.724	0.12	493448	keystroke	m	n/a
246.889	0.09	493778	keystroke	p	n/a
247.009	0.105	494018	keystroke	a	n/a
247.084	0.075	494168	keystroke	n	n/a
247.2935	0.046	494587	keystroke	y	n/a
247.3685	0.105	494737	keystroke	Key.space	n/a
247.5785	0.075	495157	keystroke	l	n/a
247.6685	0.105	495337	keystroke	a	n/a
247.7895	0.074	495579	keystroke	n	n/a
247.9245	0.089	495849	keystroke	e	n/a
248.1335	0.075	496267	keystroke	s	n/a
248.2685	0.09	496537	keystroke	Key.enter	n/a
248.3655	8.1855	496731	prompt	n/a	teacher journey minds surrounded\n
249.0795	0.0745	498159	keystroke	t	n/a
249.274	0.12	498548	keystroke	r	n/a
249.349	0.09	498698	keystroke	e	n/a
249.484	0.03	498968	keystroke	a	n/a
249.754	0.075	499508	keystroke	Key.backspace	n/a
249.919	0.015	499838	keystroke	Key.backspace	n/a
250.204	0.075	500408	keystroke	Key.backspace	n/a
250.369	0.15	500738	keystroke	e	n/a
250.474	0.12	500948	keystroke	a	n/a
250.804	0.12	501608	keystroke	c	n/a
250.939	0.075	501878	keystroke	h	n/a
251.059	0.09	502118	keystroke	e	n/a
251.134	0.0755	502268	keystroke	r	n/a
251.6295	0.075	503259	keystroke	Key.space	n/a
251.8395	0.06	503679	keystroke	j	n/a
252.019	0.12	504038	keystroke	o	n/a
252.109	0.075	504218	keystroke	u	n/a
252.544	0.09	505088	keystroke	r	n/a
252.919	0.105	505838	keystroke	n	n/a
253.025	0.059	506050	keystroke	e	n/a
253.144	0.06	506288	keystroke	y	n/a
253.684	0.06	507368	keystroke	Key.space	n/a
253.804	0.12	507608	keystroke	m	n/a
254.044	0.09	508088	keystroke	i	n/a
254.239	0.075	508478	keystroke	n	n/a
254.359	0.105	508718	keystroke	d	n/a
254.614	0.09	509228	keystroke	s	n/a
254.824	0.075	509648	keystroke	Key.space	n/a
255.019	0.09	510038	keystroke	s	n/a
255.184	0.06	510368	keystroke	u	n/a
255.289	0.045	510578	keystroke	r	n/a
255.4395	0.075	510879	keystroke	r	n/a
255.6195	0.12	511239	keystroke	o	n/a
255.6945	0.075	511389	keystroke	u	n/a
255.8895	0.09	511779	keystroke	n	n/a
255.9645	0.09	511929	keystroke	d	n/a
256.1295	0.075	512259	keystroke	e	n/a
256.3095	0.06	512619	keystroke	d	n/a
256.4595	0.09	512919	keystroke	Key.enter	n/a
256.564	9.1515	513128	prompt	n/a	relaxation running pursuit essays\n
258.064	0.12	516128	keystroke	r	n/a
258.124	0.09	516248	keystroke	e	n/a
258.274	0.09	516548	keystroke	l	n/a
258.349	0.105	516698	keystroke	a	n/a
259.3995	0.104	518799	keystroke	x	n/a
259.6235	0.12	519247	keystroke	a	n/a
260.0285	0.09	520057	keystroke	t	n/a
260.1635	0.18	520327	keystroke	i	n/a
260.2395	0.134	520479	keystroke	o	n/a
260.329	0.0895	520658	keystroke	n	n/a
260.4035	0.09	520807	keystroke	Key.space	n/a
260.599	0.105	521198	keystroke	r	n/a
260.7495	0.0745	521499	keystroke	u	n/a
260.944	0.0455	521888	keystroke	n	n/a
261.0495	0.075	522099	keystroke	n	n/a
261.2145	0.105	522429	keystroke	i	n/a
261.2595	0.12	522519	keystroke	n	n/a
261.3645	0.075	522729	keystroke	g	n/a
262.3095	0.09	524619	keystroke	Key.space	n/a
262.5795	0.12	525159	keystroke	p	n/a
262.9695	0.09	525939	keystroke	u	n/a
263.1345	0.1045	526269	keystroke	r	n/a
263.419	0.135	526838	keystroke	s	n/a
263.584	0.105	527168	keystroke	u	n/a
263.734	0.06	527468	keystroke	i	n/a
263.854	0.075	527708	keystroke	t	n/a
264.004	0.09	528008	keystroke	Key.space	n/a
264.154	0.075	528308	keystroke	e	n/a
264.334	0.075	528668	keystroke	s	n/a
264.514	0.045	529028	keystroke	s	n/a
264.739	0.12	529478	keystroke	a	n/a
264.979	0.06	529958	keystroke	y	n/a
265.069	0.12	530138	keystroke	s	n/a
265.609	0.105	531218	keystroke	Key.enter	n/a
265.719	12.8965	531438	prompt	n/a	horse prairie mauritius listed\n
268.3865	0.013	536773	keystroke	h	n/a
268.4745	0.06	536949	keystroke	o	n/a
268.6395	0.105	537279	keystroke	r	n/a
269.0445	0.09	538089	keystroke	s	n/a
269.2695	0.075	538539	keystroke	e	n/a
269.4795	0.075	538959	keystroke	Key.space	n/a
269.7045	0.06	539409	keystroke	p	n/a
269.8995	0.09	539799	keystroke	a	n/a
270.0645	0.12	540129	keystroke	r	n/a
270.4995	0.105	540999	keystroke	i	n/a
270.9495	0.0895	541899	keystroke	r	n/a
271.054	0.075	542108	keystroke	i	n/a
271.204	0.09	542408	keystroke	e	n/a
272.2995	0.06	544599	keystroke	Key.space	n/a
272.734	0.12	545468	keystroke	m	n/a
272.884	0.09	545768	keystroke	a	n/a
275.197	0.012	550394	keystroke	u	n/a
276.394	0.075	552788	keystroke	r	n/a
276.529	0.075	553058	keystroke	i	n/a
276.739	0.09	553478	keystroke	t	n/a
276.83	0.089	553660	keystroke	i	n/a
277.069	0.075	554138	keystroke	u	n/a
277.204	0.105	554408	keystroke	s	n/a
277.639	0.075	555278	keystroke	Key.space	n/a
277.789	0.12	555578	keystroke	l	n/a
277.894	0.09	555788	keystroke	i	n/a
277.999	0.09	555998	keystroke	s	n/a
278.09	0.104	556180	keystroke	t	n/a
278.209	0.075	556418	keystroke	e	n/a
278.359	0.09	556718	keystroke	d	n/a
278.509	0.105	557018	keystroke	Key.enter	n/a
278.6185	6.327	557237	prompt	n/a	simpsons penetration chick collapse\n
279.274	0.09	558548	keystroke	s	n/a
279.334	0.105	558668	keystroke	i	n/a
279.469	0.09	558938	keystroke	m	n/a
279.769	0.105	559538	keystroke	p	n/a
279.9795	0.089	559959	keystroke	s	n/a
280.0695	0.134	560139	keystroke	o	n/a
280.1585	0.121	560317	keystroke	n	n/a
280.2485	0.09	560497	keystroke	s	n/a
280.9085	0.06	561817	keystroke	Key.space	n/a
281.1485	0.075	562297	keystroke	p	n/a
281.314	0.09	562628	keystroke	e	n/a
281.434	0.0755	562868	keystroke	n	n/a
281.5245	0.0595	563049	keystroke	e	n/a
281.764	0.075	563528	keystroke	t	n/a
281.914	0.12	563828	keystroke	r	n/a
282.019	0.105	564038	keystroke	a	n/a
282.139	0.09	564278	keystroke	t	n/a
282.244	0.15	564488	keystroke	i	n/a
282.274	0.15	564548	keystroke	o	n/a
282.364	0.105	564728	keystroke	n	n/a
282.454	0.075	564908	keystroke	Key.space	n/a
282.634	0.1205	565268	keystroke	c	n/a
282.7095	0.09	565419	keystroke	h	n/a
282.8005	0.1185	565601	keystroke	i	n/a
282.934	0.075	565868	keystroke	c	n/a
283.0245	0.1045	566049	keystroke	k	n/a
283.414	0.0755	566828	keystroke	Key.space	n/a
283.6995	0.105	567399	keystroke	c	n/a
283.7745	0.0745	567549	keystroke	o	n/a
283.954	0.06	567908	keystroke	l	n/a
284.0735	0.12	568147	keystroke	l	n/a
284.1785	0.1355	568357	keystroke	a	n/a
284.329	0.0745	568658	keystroke	p	n/a
284.4635	0.165	568927	keystroke	s	n/a
284.6135	0.06	569227	keystroke	e	n/a
284.8385	0.105	569677	keystroke	Key.enter	n/a
284.9485	7.692	569897	prompt	n/a	telephony sticky powered tier\n
285.6045	0.075	571209	keystroke	t	n/a
285.7545	0.075	571509	keystroke	e	n/a
285.8145	0.09	571629	keystroke	l	n/a
285.9195	0.06	571839	keystroke	e	n/a
286.4295	0.09	572859	keystroke	p	n/a
286.5945	0.06	573189	keystroke	h	n/a
286.6995	0.105	573399	keystroke	o	n/a
286.8195	0.045	573639	keystroke	n	n/a
287.0145	0.045	574029	keystroke	y	n/a
287.4795	0.03	574959	keystroke	Key.space	n/a
287.644	0.06	575288	keystroke	s	n/a
287.884	0.075	575768	keystroke	t	n/a
287.989	0.075	575978	keystroke	i	n/a
288.124	0.0755	576248	keystroke	c	n/a
288.2005	0.059	576401	keystroke	k	n/a
288.4395	0.06	576879	keystroke	y	n/a
289.0095	0.06	578019	keystroke	Key.space	n/a
289.2045	0.0895	578409	keystroke	p	n/a
289.369	0.06	578738	keystroke	o	n/a
289.43	0.0895	578860	keystroke	w	n/a
289.4895	0.135	578979	keystroke	e	n/a
289.5645	0.165	579129	keystroke	r	n/a
289.6995	0.075	579399	keystroke	e	n/a
289.8495	0.105	579699	keystroke	d	n/a
290.269	0.09	580538	keystroke	Key.space	n/a
290.479	0.06	580958	keystroke	l	n/a
290.8095	0.075	581619	keystroke	Key.backspace	n/a
290.9295	0.0895	581859	keystroke	t	n/a
291.034	0.09	582068	keystroke	i	n/a
291.229	0.12	582458	keystroke	e	n/a
291.334	0.09	582668	keystroke	r	n/a
292.534	0.1045	585068	keystroke	Key.enter	n/a
292.6445	13.4815	585289	prompt	n/a	sullivan toshiba pleasure harmful\n
299.4965	0.043	598993	keystroke	s	n/a
299.5095	0.075	599019	keystroke	u	n/a
299.6895	0.045	599379	keystroke	l	n/a
299.8095	0.105	599619	keystroke	l	n/a
299.9745	0.075	599949	keystroke	i	n/a
300.0645	0.105	600129	keystroke	v	n/a
300.1995	0.135	600399	keystroke	a	n/a
300.3045	0.1045	600609	keystroke	n	n/a
300.634	0.075	601268	keystroke	Key.space	n/a
300.845	0.09	601690	keystroke	t	n/a
300.979	0.075	601958	keystroke	o	n/a
301.099	0.091	602198	keystroke	s	n/a
301.264	0.06	602528	keystroke	h	n/a
301.369	0.075	602738	keystroke	i	n/a
301.864	0.076	603728	keystroke	b	n/a
302.059	0.106	604118	keystroke	a	n/a
302.9295	0.0895	605859	keystroke	Key.space	n/a
303.1695	0.09	606339	keystroke	p	n/a
303.3195	0.12	606639	keystroke	l	n/a
303.4095	0.075	606819	keystroke	e	n/a
303.5445	0.135	607089	keystroke	a	n/a
303.7845	0.03	607569	keystroke	s	n/a
303.9795	0.075	607959	keystroke	u	n/a
304.0695	0.12	608139	keystroke	r	n/a
304.1445	0.075	608289	keystroke	e	n/a
304.8495	0.06	609699	keystroke	Key.space	n/a
304.9995	0.06	609999	keystroke	h	n/a
305.1045	0.12	610209	keystroke	a	n/a
305.2095	0.105	610419	keystroke	r	n/a
305.3295	0.105	610659	keystroke	m	n/a
305.6445	0.105	611289	keystroke	f	n/a
305.7195	0.09	611439	keystroke	u	n/a
305.8395	0.0895	611679	keystroke	l	n/a
306.049	0.075	612098	keystroke	Key.enter	n/a
306.1295	9.5215	612259	prompt	n/a	sexuality imaging aging occurs\n
306.979	0.046	613958	keystroke	s	n/a
307.2045	0.0595	614409	keystroke	e	n/a
307.414	0.12	614828	keystroke	x	n/a
307.624	0.0755	615248	keystroke	u	n/a
307.7445	0.12	615489	keystroke	a	n/a
307.9695	0.075	615939	keystroke	l	n/a
308.0295	0.09	616059	keystroke	i	n/a
308.1495	0.075	616299	keystroke	t	n/a
308.2395	0.075	616479	keystroke	y	n/a
308.7645	0.06	617529	keystroke	Key.space	n/a
308.9745	0.09	617949	keystroke	i	n/a
309.1245	0.105	618249	keystroke	m	n/a
309.4845	0.09	618969	keystroke	a	n/a
309.6795	0.105	619359	keystroke	g	n/a
309.7995	0.1505	619599	keystroke	i	n/a
309.98	0.075	619960	keystroke	n	n/a
310.07	0.09	620140	keystroke	g	n/a
310.609	0.045	621218	keystroke	Key.space	n/a
310.819	0.076	621638	keystroke	a	n/a
310.939	0.0905	621878	keystroke	g	n/a
311.2395	0.1045	622479	keystroke	i	n/a
311.33	0.119	622660	keystroke	n	n/a
311.929	0.105	623858	keystroke	g	n/a
312.229	0.075	624458	keystroke	Key.space	n/a
312.454	0.105	624908	keystroke	c	n/a
312.574	0.075	625148	keystroke	o	n/a
312.7545	0.06	625509	keystroke	o	n/a
313.1295	0.045	626259	keystroke	Key.backspace	n/a
313.2045	0.075	626409	keystroke	Key.backspace	n/a
313.3845	0.06	626769	keystroke	Key.backspace	n/a
313.6695	0.06	627339	keystroke	o	n/a
313.8645	0.09	627729	keystroke	c	n/a
314.029	0.06	628058	keystroke	c	n/a
314.239	0.0605	628478	keystroke	u	n/a
314.3745	0.075	628749	keystroke	r	n/a
314.5995	0.09	629199	keystroke	s	n/a
315.5595	0.09	631119	keystroke	Key.enter	n/a
315.654	7.857	631308	prompt	n/a	practice nascar cleaner incorrect\n
316.549	0.105	633098	keystroke	p	n/a
316.7895	0.135	633579	keystroke	r	n/a
316.8645	0.105	633729	keystroke	a	n/a
317.0745	0.105	634149	keystroke	c	n/a
317.2695	0.06	634539	keystroke	t	n/a
317.3445	0.075	634689	keystroke	i	n/a
317.4345	0.12	634869	keystroke	c	n/a
317.6745	0.076	635349	keystroke	e	n/a
317.9745	0.06	635949	keystroke	Key.space	n/a
318.7095	0.09	637419	keystroke	n	n/a
318.8745	0.075	637749	keystroke	a	n/a
318.9195	0.12	637839	keystroke	s	n/a
319.2645	0.135	638529	keystroke	c	n/a
319.5045	0.105	639009	keystroke	a	n/a
319.7445	0.075	639489	keystroke	r	n/a
319.9695	0.06	639939	keystroke	Key.space	n/a
320.1045	0.105	640209	keystroke	c	n/a
320.2395	0.09	640479	keystroke	l	n/a
320.3595	0.12	640719	keystroke	e	n/a
320.4345	0.135	640869	keystroke	a	n/a
320.5995	0.105	641199	keystroke	n	n/a
320.6895	0.105	641379	keystroke	e	n/a
320.7495	0.1195	641499	keystroke	r	n/a
321.1245	0.06	642249	keystroke	Key.space	n/a
321.3795	0.06	642759	keystroke	i	n/a
321.7695	0.105	643539	keystroke	n	n/a
321.9945	0.105	643989	keystroke	c	n/a
322.1145	0.075	644229	keystroke	o	n/a
322.534	0.061	645068	keystroke	r	n/a
322.6845	0.075	645369	keystroke	r	n/a
322.7895	0.09	645579	keystroke	e	n/a
322.984	0.09	645968	keystroke	c	n/a
323.209	0.06	646418	keystroke	t	n/a
323.4195	0.09	646839	keystroke	Key.enter	n/a
323.5155	8.6205	647031	prompt	n/a	coating extension acquired starting\n
324.335	0.104	648670	keystroke	c	n/a
324.424	0.075	648848	keystroke	o	n/a
324.529	0.121	649058	keystroke	a	n/a
324.664	0.09	649328	keystroke	t	n/a
324.814	0.15	649628	keystroke	i	n/a
324.919	0.106	649838	keystroke	n	n/a
324.994	0.105	649988	keystroke	g	n/a
325.579	0.09	651158	keystroke	Key.space	n/a
325.759	0.09	651518	keystroke	e	n/a
325.954	0.105	651908	keystroke	x	n/a
326.179	0.06	652358	keystroke	t	n/a
326.269	0.09	652538	keystroke	e	n/a
326.374	0.09	652748	keystroke	n	n/a
326.494	0.105	652988	keystroke	s	n/a
326.614	0.165	653228	keystroke	i	n/a
326.704	0.15	653408	keystroke	o	n/a
326.794	0.09	653588	keystroke	n	n/a
327.3645	0.09	654729	keystroke	Key.space	n/a
327.6045	0.0895	655209	keystroke	a	n/a
327.754	0.12	655508	keystroke	c	n/a
328.549	0.12	657098	keystroke	q	n/a
328.804	0.09	657608	keystroke	u	n/a
328.864	0.105	657728	keystroke	i	n/a
328.984	0.12	657968	keystroke	r	n/a
329.059	0.09	658118	keystroke	e	n/a
329.2095	0.105	658419	keystroke	d	n/a
329.7645	0.075	659529	keystroke	Key.space	n/a
329.9145	0.135	659829	keystroke	s	n/a
330.0945	0.09	660189	keystroke	t	n/a
330.1995	0.12	660399	keystroke	a	n/a
330.2745	0.09	660549	keystroke	t	n/a
330.604	0.105	661208	keystroke	r	n/a
331.055	0.075	662110	keystroke	Key.backspace	n/a
331.205	0.09	662410	keystroke	Key.backspace	n/a
331.34	0.06	662680	keystroke	r	n/a
331.5045	0.075	663009	keystroke	t	n/a
331.6245	0.1505	663249	keystroke	i	n/a
331.7145	0.1055	663429	keystroke	n	n/a
331.79	0.075	663580	keystroke	g	n/a
332.03	0.105	664060	keystroke	Key.enter	n/a
332.1395	8.9065	664279	prompt	n/a	hadn't visibility fioricet resorts\n
332.8695	0.075	665739	keystroke	h	n/a
332.9595	0.105	665919	keystroke	a	n/a
333.0945	0.0755	666189	keystroke	d	n/a
333.274	0.09	666548	keystroke	n	n/a
333.454	0.03	666908	keystroke	t	n/a
333.814	0.06	667628	keystroke	Key.backspace	n/a
334.054	0.09	668108	keystroke	'	n/a
334.189	0.075	668378	keystroke	t	n/a
334.849	0.09	669698	keystroke	Key.space	n/a
335.24	0.105	670480	keystroke	v	n/a
335.315	0.075	670630	keystroke	i	n/a
335.525	0.089	671050	keystroke	s	n/a
335.585	0.059	671170	keystroke	i	n/a
335.8395	0.09	671679	keystroke	b	n/a
335.9445	0.09	671889	keystroke	i	n/a
336.1395	0.075	672279	keystroke	l	n/a
336.1995	0.09	672399	keystroke	i	n/a
336.3345	0.06	672669	keystroke	t	n/a
336.4095	0.075	672819	keystroke	y	n/a
336.979	0.105	673958	keystroke	Key.space	n/a
337.249	0.09	674498	keystroke	f	n/a
337.564	0.09	675128	keystroke	i	n/a
337.864	0.06	675728	keystroke	o	n/a
338.164	0.105	676328	keystroke	r	n/a
338.6145	0.105	677229	keystroke	i	n/a
338.9295	0.1045	677859	keystroke	c	n/a
339.154	0.06	678308	keystroke	e	n/a
339.364	0.06	678728	keystroke	t	n/a
339.484	0.075	678968	keystroke	Key.space	n/a
339.634	0.12	679268	keystroke	r	n/a
339.709	0.075	679418	keystroke	e	n/a
339.919	0.105	679838	keystroke	s	n/a
340.025	0.089	680050	keystroke	o	n/a
340.159	0.075	680318	keystroke	r	n/a
340.309	0.09	680618	keystroke	t	n/a
340.474	0.105	680948	keystroke	s	n/a
340.939	0.105	681878	keystroke	Key.enter	n/a
341.0545	6.6215	682109	prompt	n/a	executive brooklyn stations another\n
341.674	0.075	683348	keystroke	e	n/a
341.884	0.09	683768	keystroke	x	n/a
342.109	0.045	684218	keystroke	e	n/a
342.274	0.075	684548	keystroke	c	n/a
342.409	0.06	684818	keystroke	u	n/a
342.514	0.075	685028	keystroke	t	n/a
342.59	0.074	685180	keystroke	i	n/a
342.709	0.09	685418	keystroke	v	n/a
342.874	0.06	685748	keystroke	e	n/a
342.964	0.1055	685928	keystroke	Key.space	n/a
343.1895	0.0745	686379	keystroke	b	n/a
343.384	0.06	686768	keystroke	r	n/a
343.445	0.059	686890	keystroke	o	n/a
343.594	0.06	687188	keystroke	o	n/a
343.714	0.09	687428	keystroke	k	n/a
343.939	0.105	687878	keystroke	l	n/a
344.119	0.075	688238	keystroke	y	n/a
344.314	0.06	688628	keystroke	n	n/a
344.584	0.075	689168	keystroke	Key.space	n/a
344.824	0.09	689648	keystroke	s	n/a
344.944	0.075	689888	keystroke	t	n/a
345.034	0.135	690068	keystroke	a	n/a
345.124	0.105	690248	keystroke	t	n/a
345.23	0.1495	690460	keystroke	i	n/a
345.305	0.1195	690610	keystroke	o	n/a
345.365	0.1045	690730	keystroke	n	n/a
345.4545	0.09	690909	keystroke	s	n/a
346.0395	0.075	692079	keystroke	Key.space	n/a
346.1745	0.09	692349	keystroke	a	n/a
346.2645	0.0895	692529	keystroke	n	n/a
346.414	0.045	692828	keystroke	t	n/a
346.865	0.0595	693730	keystroke	Key.backspace	n/a
347.0445	0.075	694089	keystroke	o	n/a
347.1345	0.06	694269	keystroke	t	n/a
347.2095	0.09	694419	keystroke	h	n/a
347.3145	0.105	694629	keystroke	e	n/a
347.3745	0.105	694749	keystroke	r	n/a
347.5995	0.075	695199	keystroke	Key.enter	n/a
347.6785	6.0275	695357	prompt	n/a	playlist related occurrence libs\n
348.29	0.075	696580	keystroke	p	n/a
348.47	0.06	696940	keystroke	l	n/a
348.545	0.105	697090	keystroke	a	n/a
348.635	0.06	697270	keystroke	y	n/a
348.83	0.105	697660	keystroke	l	n/a
348.92	0.0895	697840	keystroke	i	n/a
348.9945	0.09	697989	keystroke	s	n/a
349.0695	0.06	698139	keystroke	t	n/a
349.519	0.09	699038	keystroke	Key.space	n/a
349.699	0.135	699398	keystroke	r	n/a
349.774	0.09	699548	keystroke	e	n/a
349.849	0.09	699698	keystroke	l	n/a
349.954	0.121	699908	keystroke	a	n/a
350.044	0.105	700088	keystroke	t	n/a
350.134	0.106	700268	keystroke	e	n/a
350.299	0.09	700598	keystroke	d	n/a
350.404	0.075	700808	keystroke	Key.space	n/a
350.554	0.09	701108	keystroke	o	n/a
350.705	0.059	701410	keystroke	c	n/a
350.854	0.075	701708	keystroke	c	n/a
351.049	0.06	702098	keystroke	u	n/a
351.14	0.089	702280	keystroke	r	n/a
351.274	0.12	702548	keystroke	a	n/a
351.379	0.091	702758	keystroke	n	n/a
351.754	0.075	703508	keystroke	Key.backspace	n/a
351.934	0.06	703868	keystroke	e	n/a
352.009	0.06	704018	keystroke	n	n/a
352.099	0.09	704198	keystroke	c	n/a
352.3095	0.045	704619	keystroke	e	n/a
352.9245	0.0895	705849	keystroke	Key.space	n/a
353.15	0.0895	706300	keystroke	l	n/a
353.2095	0.105	706419	keystroke	i	n/a
353.3745	0.075	706749	keystroke	b	n/a
353.5545	0.075	707109	keystroke	s	n/a
353.6145	0.09	707229	keystroke	Key.enter	n/a
353.709	7.9025	707418	prompt	n/a	grass duck glow arranged\n
354.6345	0.09	709269	keystroke	d	n/a
354.8445	0.135	709689	keystroke	r	n/a
355.0245	0.12	710049	keystroke	a	n/a
355.2645	0.12	710529	keystroke	s	n/a
355.7295	0.075	711459	keystroke	Key.backspace	n/a
355.8795	0.075	711759	keystroke	Key.backspace	n/a
356.0895	0.06	712179	keystroke	Key.backspace	n/a
356.2845	0.09	712569	keystroke	Key.backspace	n/a
356.569	0.075	713138	keystroke	g	n/a
356.749	0.12	713498	keystroke	r	n/a
356.839	0.135	713678	keystroke	a	n/a
357.0495	0.075	714099	keystroke	s	n/a
357.2145	0.075	714429	keystroke	s	n/a
358.4445	0.06	716889	keystroke	Key.space	n/a
358.5495	0.09	717099	keystroke	d	n/a
358.6545	0.06	717309	keystroke	u	n/a
358.7445	0.09	717489	keystroke	c	n/a
358.8495	0.09	717699	keystroke	k	n/a
359.03	0.075	718060	keystroke	Key.space	n/a
359.21	0.075	718420	keystroke	g	n/a
359.315	0.0595	718630	keystroke	l	n/a
359.4945	0.045	718989	keystroke	o	n/a
359.5995	0.09	719199	keystroke	w	n/a
360.1245	0.09	720249	keystroke	Key.space	n/a
360.3345	0.1055	720669	keystroke	a	n/a
360.515	0.075	721030	keystroke	r	n/a
360.65	0.105	721300	keystroke	r	n/a
360.8	0.12	721600	keystroke	a	n/a
360.905	0.09	721810	keystroke	n	n/a
361.025	0.075	722050	keystroke	g	n/a
361.205	0.06	722410	keystroke	e	n/a
361.37	0.075	722740	keystroke	d	n/a
361.52	0.09	723040	keystroke	Key.enter	n/a
361.614	8.0525	723228	prompt	n/a	somalia qualification locked exactly\n
362.3145	0.105	724629	keystroke	s	n/a
362.3745	0.09	724749	keystroke	o	n/a
362.6745	0.1205	725349	keystroke	m	n/a
362.87	0.135	725740	keystroke	a	n/a
363.1095	0.075	726219	keystroke	l	n/a
363.3045	0.075	726609	keystroke	i	n/a
363.4245	0.12	726849	keystroke	a	n/a
363.9045	0.06	727809	keystroke	Key.space	n/a
364.3395	0.12	728679	keystroke	q	n/a
364.4445	0.075	728889	keystroke	u	n/a
364.6245	0.1055	729249	keystroke	a	n/a
365.299	0.075	730598	keystroke	l	n/a
365.344	0.09	730688	keystroke	i	n/a
366.1395	0.09	732279	keystroke	f	n/a
366.2145	0.06	732429	keystroke	i	n/a
366.3345	0.105	732669	keystroke	c	n/a
366.4695	0.12	732939	keystroke	a	n/a
366.6045	0.09	733209	keystroke	t	n/a
366.7095	0.15	733419	keystroke	i	n/a
366.7545	0.15	733509	keystroke	o	n/a
366.8295	0.12	733659	keystroke	n	n/a
366.98	0.075	733960	keystroke	Key.space	n/a
367.2345	0.075	734469	keystroke	l	n/a
367.4295	0.075	734859	keystroke	o	n/a
367.6995	0.1045	735399	keystroke	c	n/a
367.864	0.135	735728	keystroke	k	n/a
367.984	0.061	735968	keystroke	e	n/a
368.149	0.06	736298	keystroke	d	n/a
368.239	0.06	736478	keystroke	Key.space	n/a
368.389	0.06	736778	keystroke	e	n/a
368.5995	0.105	737199	keystroke	x	n/a
368.7795	0.105	737559	keystroke	a	n/a
368.9295	0.1205	737859	keystroke	c	n/a
369.155	0.075	738310	keystroke	t	n/a
369.245	0.12	738490	keystroke	l	n/a
369.305	0.09	738610	keystroke	y	n/a
369.575	0.09	739150	keystroke	Key.enter	n/a
369.669	5.5925	739338	prompt	n/a	diane usually spine debian\n
370.4595	0.105	740919	keystroke	d	n/a
370.5795	0.06	741159	keystroke	i	n/a
370.6695	0.12	741339	keystroke	a	n/a
370.8045	0.09	741609	keystroke	n	n/a
370.9395	0.075	741879	keystroke	e	n/a
371.2545	0.06	742509	keystroke	Key.space	n/a
371.4345	0.09	742869	keystroke	u	n/a
371.5095	0.12	743019	keystroke	s	n/a
371.6745	0.045	743349	keystroke	u	n/a
371.7495	0.105	743499	keystroke	a	n/a
371.8695	0.075	743739	keystroke	l	n/a
372.4545	0.075	744909	keystroke	l	n/a
372.6345	0.06	745269	keystroke	y	n/a
373.0245	0.045	746049	keystroke	Key.space	n/a
373.1145	0.105	746229	keystroke	s	n/a
373.2345	0.075	746469	keystroke	p	n/a
373.4145	0.12	746829	keystroke	i	n/a
373.4895	0.09	746979	keystroke	n	n/a
373.5645	0.09	747129	keystroke	e	n/a
373.7445	0.075	747489	keystroke	Key.space	n/a
374.1195	0.09	748239	keystroke	d	n/a
374.3145	0.075	748629	keystroke	e	n/a
374.5845	0.105	749169	keystroke	b	n/a
374.7645	0.105	749529	keystroke	a	n/a
374.8545	0.1345	749709	keystroke	i	n/a
374.9295	0.1045	749859	keystroke	n	n/a
375.154	0.105	750308	keystroke	Key.enter	n/a
375.264	5.727	750528	prompt	n/a	tired draw dictionary comments\n
376.07	0.074	752140	keystroke	t	n/a
376.249	0.0905	752498	keystroke	r	n/a
376.3095	0.075	752619	keystroke	i	n/a
376.4145	0.075	752829	keystroke	e	n/a
376.5795	0.075	753159	keystroke	d	n/a
376.7445	0.06	753489	keystroke	Key.space	n/a
376.8345	0.075	753669	keystroke	d	n/a
376.9995	0.12	753999	keystroke	r	n/a
377.1045	0.12	754209	keystroke	a	n/a
377.3745	0.075	754749	keystroke	w	n/a
377.6595	0.06	755319	keystroke	Key.space	n/a
377.7495	0.12	755499	keystroke	d	n/a
377.8545	0.09	755709	keystroke	i	n/a
377.9895	0.12	755979	keystroke	c	n/a
378.215	0.105	756430	keystroke	t	n/a
378.305	0.105	756610	keystroke	i	n/a
378.35	0.12	756700	keystroke	o	n/a
378.395	0.135	756790	keystroke	n	n/a
378.515	0.09	757030	keystroke	a	n/a
378.575	0.105	757150	keystroke	r	n/a
378.635	0.09	757270	keystroke	y	n/a
379.505	0.075	759010	keystroke	Key.space	n/a
379.685	0.1195	759370	keystroke	c	n/a
379.7895	0.075	759579	keystroke	o	n/a
379.9395	0.09	759879	keystroke	m	n/a
380.0745	0.105	760149	keystroke	m	n/a
380.2095	0.09	760419	keystroke	e	n/a
380.3145	0.075	760629	keystroke	n	n/a
380.4345	0.09	760869	keystroke	t	n/a
380.6145	0.09	761229	keystroke	s	n/a
380.8845	0.1045	761769	keystroke	Key.enter	n/a
380.995	7.782	761990	prompt	n/a	cleaner settled molecular adequate\n
381.7995	0.105	763599	keystroke	c	n/a
381.9645	0.105	763929	keystroke	l	n/a
382.0845	0.195	764169	keystroke	e	n/a
382.1595	0.15	764319	keystroke	a	n/a
382.2945	0.105	764589	keystroke	r	n/a
382.8495	0.06	765699	keystroke	Key.backspace	n/a
383.0445	0.09	766089	keystroke	n	n/a
383.1045	0.1055	766209	keystroke	e	n/a
383.1645	0.1055	766329	keystroke	r	n/a
383.8845	0.09	767769	keystroke	Key.space	n/a
384.065	0.09	768130	keystroke	s	n/a
384.17	0.075	768340	keystroke	e	n/a
384.335	0.045	768670	keystroke	t	n/a
384.44	0.075	768880	keystroke	t	n/a
384.515	0.075	769030	keystroke	l	n/a
384.62	0.06	769240	keystroke	e	n/a
384.77	0.09	769540	keystroke	d	n/a
385.024	0.075	770048	keystroke	Key.space	n/a
385.279	0.09	770558	keystroke	m	n/a
385.504	0.076	771008	keystroke	o	n/a
385.7	0.0745	771400	keystroke	l	n/a
385.8495	0.075	771699	keystroke	e	n/a
386.299	0.09	772598	keystroke	c	n/a
386.419	0.0605	772838	keystroke	u	n/a
386.5245	0.105	773049	keystroke	l	n/a
386.5995	0.135	773199	keystroke	a	n/a
386.7045	0.09	773409	keystroke	r	n/a
386.9745	0.0895	773949	keystroke	Key.space	n/a
387.184	0.106	774368	keystroke	a	n/a
387.349	0.06	774698	keystroke	d	n/a
387.514	0.075	775028	keystroke	e	n/a
387.7845	0.105	775569	keystroke	q	n/a
387.8745	0.075	775749	keystroke	u	n/a
388.1295	0.12	776259	keystroke	a	n/a
388.2345	0.09	776469	keystroke	t	n/a
388.3845	0.075	776769	keystroke	e	n/a
388.6845	0.09	777369	keystroke	Key.enter	n/a
388.7795	3.5965	777559	prompt	n/a	any sell main wallace\n
389.39	0.075	778780	keystroke	a	n/a
389.48	0.045	778960	keystroke	n	n/a
389.675	0.045	779350	keystroke	y	n/a
389.765	0.09	779530	keystroke	Key.space	n/a
389.885	0.12	779770	keystroke	s	n/a
389.96	0.105	779920	keystroke	e	n/a
390.125	0.06	780250	keystroke	l	n/a
390.26	0.09	780520	keystroke	l	n/a
390.395	0.0895	780790	keystroke	Key.space	n/a
390.5445	0.15	781089	keystroke	m	n/a
390.6795	0.105	781359	keystroke	a	n/a
390.7995	0.12	781599	keystroke	i	n/a
390.8745	0.1345	781749	keystroke	n	n/a
390.994	0.075	781988	keystroke	Key.space	n/a
391.204	0.06	782408	keystroke	w	n/a
391.37	0.12	782740	keystroke	a	n/a
391.505	0.06	783010	keystroke	l	n/a
391.64	0.0895	783280	keystroke	l	n/a
391.7305	0.089	783461	keystroke	a	n/a
391.9095	0.075	783819	keystroke	c	n/a
392.1195	0.075	784239	keystroke	e	n/a
392.2845	0.09	784569	keystroke	Key.enter	n/a
392.381	7.81	784762	prompt	n/a	resolutions views wars association\n
393.17	0.134	786340	keystroke	r	n/a
393.229	0.09	786458	keystroke	e	n/a
393.439	0.105	786878	keystroke	s	n/a
393.514	0.076	787028	keystroke	o	n/a
393.694	0.105	787388	keystroke	l	n/a
393.784	0.09	787568	keystroke	u	n/a
393.889	0.075	787778	keystroke	t	n/a
394.429	0.15	788858	keystroke	i	n/a
394.49	0.119	788980	keystroke	o	n/a
394.564	0.106	789128	keystroke	n	n/a
394.654	0.09	789308	keystroke	s	n/a
395.734	0.075	791468	keystroke	Key.space	n/a
395.915	0.09	791830	keystroke	v	n/a
396.035	0.06	792070	keystroke	i	n/a
396.125	0.09	792250	keystroke	e	n/a
396.245	0.105	792490	keystroke	w	n/a
396.47	0.09	792940	keystroke	s	n/a
396.8595	0.06	793719	keystroke	Key.space	n/a
397.0845	0.15	794169	keystroke	w	n/a
397.1895	0.18	794379	keystroke	a	n/a
397.4895	0.09	794979	keystroke	r	n/a
398.0145	0.12	796029	keystroke	s	n/a
398.4945	0.075	796989	keystroke	Key.space	n/a
398.6745	0.105	797349	keystroke	a	n/a
398.8395	0.075	797679	keystroke	s	n/a
398.9895	0.075	797979	keystroke	s	n/a
399.0945	0.075	798189	keystroke	o	n/a
399.1995	0.105	798399	keystroke	c	n/a
399.3195	0.12	798639	keystroke	a	n/a
399.5595	0.075	799119	keystroke	t	n/a
399.6495	0.165	799299	keystroke	i	n/a
399.6795	0.15	799359	keystroke	o	n/a
399.7695	0.105	799539	keystroke	n	n/a
400.099	0.09	800198	keystroke	Key.enter	n/a
400.2025	11.8685	800405	prompt	n/a	coding plays portuguese chess\n
400.864	0.09	801728	keystroke	c	n/a
400.924	0.075	801848	keystroke	o	n/a
401.06	0.075	802120	keystroke	d	n/a
401.15	0.135	802300	keystroke	i	n/a
401.225	0.09	802450	keystroke	n	n/a
401.285	0.075	802570	keystroke	g	n/a
401.405	0.09	802810	keystroke	Key.space	n/a
401.495	0.0595	802990	keystroke	p	n/a
401.644	0.06	803288	keystroke	l	n/a
401.719	0.105	803438	keystroke	a	n/a
401.809	0.06	803618	keystroke	y	n/a
401.914	0.09	803828	keystroke	s	n/a
402.124	0.0905	804248	keystroke	Key.space	n/a
402.2895	0.0895	804579	keystroke	p	n/a
402.484	0.09	804968	keystroke	o	n/a
402.9045	0.06	805809	keystroke	r	n/a
403.1895	0.075	806379	keystroke	t	n/a
403.3245	0.075	806649	keystroke	u	n/a
403.6845	0.09	807369	keystroke	g	n/a
403.8195	0.075	807639	keystroke	u	n/a
404.1345	0.09	808269	keystroke	e	n/a
404.3595	0.09	808719	keystroke	s	n/a
404.5695	0.06	809139	keystroke	e	n/a
404.9445	0.0895	809889	keystroke	Key.space	n/a
405.095	0.119	810190	keystroke	c	n/a
405.2	0.075	810400	keystroke	h	n/a
405.335	0.105	810670	keystroke	e	n/a
405.56	0.075	811120	keystroke	s	n/a
405.725	0.075	811450	keystroke	s	n/a
407.089	0.045	814178	keystroke	Key.backspace	n/a
407.224	0.075	814448	keystroke	Key.backspace	n/a
407.404	0.03	814808	keystroke	Key.backspace	n/a
407.539	0.075	815078	keystroke	Key.backspace	n/a
407.704	0.075	815408	keystroke	Key.backspace	n/a
407.884	0.061	815768	keystroke	Key.backspace	n/a
411.0815	0.013	822163	keystroke	Key.space	n/a
411.1545	0.09	822309	keystroke	c	n/a
411.2295	0.0605	822459	keystroke	h	n/a
411.3795	0.105	822759	keystroke	e	n/a
411.6045	0.075	823209	keystroke	s	n/a
411.7845	0.075	823569	keystroke	s	n/a
411.9795	0.09	823959	keystroke	Key.enter	n/a
412.0735	8.713	824147	prompt	n/a	midlands these modified longest\n
414.3665	0.028	828733	keystroke	m	n/a
414.4545	0.06	828909	keystroke	i	n/a
414.5445	0.075	829089	keystroke	d	n/a
414.7095	0.075	829419	keystroke	l	n/a
414.8145	0.12	829629	keystroke	a	n/a
414.9045	0.075	829809	keystroke	n	n/a
415.0095	0.075	830019	keystroke	d	n/a
415.4745	0.06	830949	keystroke	s	n/a
415.6545	0.075	831309	keystroke	Key.space	n/a
415.8045	0.09	831609	keystroke	t	n/a
415.9245	0.075	831849	keystroke	h	n/a
416.0445	0.075	832089	keystroke	e	n/a
416.3	0.06	832600	keystroke	s	n/a
416.525	0.075	833050	keystroke	e	n/a
416.99	0.06	833980	keystroke	Key.space	n/a
417.17	0.105	834340	keystroke	m	n/a
417.305	0.075	834610	keystroke	o	n/a
417.6795	0.105	835359	keystroke	d	n/a
417.964	0.061	835928	keystroke	i	n/a
418.2645	0.09	836529	keystroke	f	n/a
418.3395	0.0595	836679	keystroke	i	n/a
418.459	0.061	836918	keystroke	e	n/a
418.624	0.09	837248	keystroke	d	n/a
418.774	0.075	837548	keystroke	Key.space	n/a
418.894	0.075	837788	keystroke	l	n/a
419.0595	0.09	838119	keystroke	o	n/a
419.1945	0.075	838389	keystroke	g	n/a
419.8395	0.045	839679	keystroke	Key.backspace	n/a
420.0195	0.075	840039	keystroke	n	n/a
420.1095	0.045	840219	keystroke	g	n/a
420.2595	0.12	840519	keystroke	e	n/a
420.3345	0.165	840669	keystroke	s	n/a
420.5745	0.0755	841149	keystroke	t	n/a
420.71	0.075	841420	keystroke	Key.enter	n/a
420.792	6.0545	841584	prompt	n/a	span peripheral variety metro\n
421.5645	0.09	843129	keystroke	s	n/a
421.6395	0.09	843279	keystroke	p	n/a
421.7445	0.1345	843489	keystroke	a	n/a
421.834	0.075	843668	keystroke	n	n/a
422.014	0.075	844028	keystroke	Key.space	n/a
422.179	0.09	844358	keystroke	p	n/a
422.389	0.165	844778	keystroke	e	n/a
422.479	0.15	844958	keystroke	r	n/a
423.064	0.075	846128	keystroke	i	n/a
423.364	0.12	846728	keystroke	p	n/a
423.709	0.06	847418	keystroke	h	n/a
423.799	0.12	847598	keystroke	e	n/a
423.889	0.12	847778	keystroke	r	n/a
424.039	0.09	848078	keystroke	a	n/a
424.114	0.09	848228	keystroke	l	n/a
424.249	0.09	848498	keystroke	Key.space	n/a
424.489	0.09	848978	keystroke	v	n/a
424.895	0.1045	849790	keystroke	a	n/a
425.1645	0.075	850329	keystroke	r	n/a
425.2695	0.075	850539	keystroke	i	n/a
425.4345	0.06	850869	keystroke	e	n/a
425.5845	0.075	851169	keystroke	t	n/a
425.7045	0.06	851409	keystroke	y	n/a
425.8545	0.0755	851709	keystroke	Key.space	n/a
426.035	0.105	852070	keystroke	m	n/a
426.125	0.06	852250	keystroke	e	n/a
426.29	0.09	852580	keystroke	t	n/a
426.44	0.075	852880	keystroke	r	n/a
426.5	0.06	853000	keystroke	o	n/a
426.74	0.105	853480	keystroke	Key.enter	n/a
426.8525	10.944	853705	prompt	n/a	deutschland scsi novelty assumptions\n
427.61	0.09	855220	keystroke	d	n/a
427.835	0.075	855670	keystroke	e	n/a
428.18	0.06	856360	keystroke	u	n/a
428.825	0.105	857650	keystroke	t	n/a
429.11	0.06	858220	keystroke	s	n/a
429.305	0.12	858610	keystroke	c	n/a
429.455	0.06	858910	keystroke	h	n/a
429.845	0.12	859690	keystroke	a	n/a
429.95	0.03	859900	keystroke	n	n/a
430.52	0.06	861040	keystroke	Key.backspace	n/a
430.685	0.075	861370	keystroke	Key.backspace	n/a
431.18	0.075	862360	keystroke	l	n/a
431.24	0.1045	862480	keystroke	a	n/a
431.3595	0.075	862719	keystroke	n	n/a
431.4795	0.0605	862959	keystroke	d	n/a
431.78	0.105	863560	keystroke	Key.space	n/a
431.9295	0.09	863859	keystroke	s	n/a
432.1845	0.09	864369	keystroke	c	n/a
432.6045	0.06	865209	keystroke	i	n/a
433.04	0.06	866080	keystroke	Key.backspace	n/a
433.13	0.09	866260	keystroke	s	n/a
433.265	0.09	866530	keystroke	i	n/a
434.254	0.075	868508	keystroke	Key.space	n/a
434.404	0.09	868808	keystroke	n	n/a
434.509	0.106	869018	keystroke	o	n/a
434.704	0.105	869408	keystroke	v	n/a
434.914	0.0605	869828	keystroke	e	n/a
435.0045	0.075	870009	keystroke	l	n/a
435.1545	0.09	870309	keystroke	t	n/a
435.2295	0.06	870459	keystroke	y	n/a
435.784	0.0755	871568	keystroke	Key.space	n/a
435.919	0.1055	871838	keystroke	a	n/a
436.0995	0.075	872199	keystroke	s	n/a
436.2495	0.075	872499	keystroke	s	n/a
436.3395	0.045	872679	keystroke	u	n/a
436.5345	0.09	873069	keystroke	m	n/a
436.9545	0.0895	873909	keystroke	p	n/a
437.119	0.105	874238	keystroke	t	n/a
437.209	0.1655	874418	keystroke	i	n/a
437.3	0.119	874600	keystroke	o	n/a
437.3595	0.105	874719	keystroke	n	n/a
437.4495	0.1045	874899	keystroke	s	n/a
437.689	0.105	875378	keystroke	Key.enter	n/a
437.801	6.34	875602	prompt	n/a	cache designer speeds gasoline\n
438.485	0.135	876970	keystroke	c	n/a
438.635	0.105	877270	keystroke	a	n/a
438.845	0.105	877690	keystroke	c	n/a
438.9795	0.06	877959	keystroke	h	n/a
439.1145	0.075	878229	keystroke	e	n/a
439.4295	0.0755	878859	keystroke	Key.space	n/a
439.55	0.075	879100	keystroke	d	n/a
439.73	0.06	879460	keystroke	e	n/a
439.91	0.105	879820	keystroke	s	n/a
440.03	0.06	880060	keystroke	i	n/a
440.195	0.09	880390	keystroke	g	n/a
440.75	0.0895	881500	keystroke	n	n/a
440.8545	0.09	881709	keystroke	e	n/a
440.9145	0.09	881829	keystroke	r	n/a
441.3495	0.075	882699	keystroke	Key.space	n/a
441.5295	0.06	883059	keystroke	s	n/a
441.6045	0.091	883209	keystroke	p	n/a
441.9345	0.045	883869	keystroke	e	n/a
442.0545	0.075	884109	keystroke	e	n/a
442.2195	0.09	884439	keystroke	d	n/a
442.4895	0.075	884979	keystroke	s	n/a
442.6245	0.075	885249	keystroke	Key.space	n/a
442.9395	0.0905	885879	keystroke	g	n/a
443.045	0.12	886090	keystroke	a	n/a
443.3	0.09	886600	keystroke	s	n/a
443.405	0.06	886810	keystroke	o	n/a
443.5695	0.09	887139	keystroke	l	n/a
443.6895	0.135	887379	keystroke	i	n/a
443.8095	0.075	887619	keystroke	n	n/a
443.8545	0.09	887709	keystroke	e	n/a
444.0345	0.105	888069	keystroke	Key.enter	n/a
444.1455	5.8905	888291	prompt	n/a	albany msgid late tract\n
444.8595	0.12	889719	keystroke	a	n/a
444.9645	0.06	889929	keystroke	l	n/a
445.1295	0.06	890259	keystroke	b	n/a
445.3245	0.12	890649	keystroke	a	n/a
445.8045	0.09	891609	keystroke	n	n/a
446.0295	0.06	892059	keystroke	y	n/a
446.3745	0.075	892749	keystroke	Key.space	n/a
446.5845	0.105	893169	keystroke	m	n/a
446.7645	0.105	893529	keystroke	s	n/a
447.0645	0.09	894129	keystroke	g	n/a
447.1695	0.075	894339	keystroke	i	n/a
447.4995	0.075	894999	keystroke	d	n/a
447.7695	0.06	895539	keystroke	Key.space	n/a
447.9045	0.075	895809	keystroke	l	n/a
447.9945	0.12	895989	keystroke	a	n/a
448.0995	0.075	896199	keystroke	t	n/a
448.1895	0.09	896379	keystroke	e	n/a
448.4595	0.06	896919	keystroke	Key.space	n/a
448.6395	0.075	897279	keystroke	t	n/a
448.7745	0.135	897549	keystroke	r	n/a
448.8945	0.075	897789	keystroke	a	n/a
449.0595	0.12	898119	keystroke	c	n/a
449.3295	0.06	898659	keystroke	t	n/a
449.9445	0.09	899889	keystroke	Key.enter	n/a
450.039	5.577	900078	prompt	n/a	rick they're remaining jail\n
450.7545	0.075	901509	keystroke	r	n/a
450.8445	0.06	901689	keystroke	i	n/a
450.9645	0.09	901929	keystroke	c	n/a
451.0395	0.09	902079	keystroke	k	n/a
451.9095	0.075	903819	keystroke	Key.space	n/a
452.0445	0.09	904089	keystroke	t	n/a
452.1195	0.075	904239	keystroke	h	n/a
452.2545	0.105	904509	keystroke	e	n/a
452.3295	0.075	904659	keystroke	y	n/a
452.5245	0.09	905049	keystroke	'	n/a
452.6295	0.105	905259	keystroke	r	n/a
452.6745	0.075	905349	keystroke	e	n/a
453.365	0.045	906730	keystroke	Key.space	n/a
453.5	0.135	907000	keystroke	r	n/a
453.56	0.105	907120	keystroke	e	n/a
453.68	0.1345	907360	keystroke	m	n/a
453.7995	0.105	907599	keystroke	a	n/a
453.9055	0.119	907811	keystroke	i	n/a
453.9945	0.075	907989	keystroke	n	n/a
454.1145	0.105	908229	keystroke	i	n/a
454.1745	0.09	908349	keystroke	n	n/a
454.2345	0.075	908469	keystroke	g	n/a
454.7595	0.09	909519	keystroke	Key.space	n/a
455.014	0.09	910028	keystroke	j	n/a
455.12	0.135	910240	keystroke	a	n/a
455.209	0.061	910418	keystroke	i	n/a
455.345	0.075	910690	keystroke	l	n/a
455.509	0.1055	911018	keystroke	Key.enter	n/a
455.621	5.8005	911242	prompt	n/a	pull wallpapers struck foot\n
456.4395	0.105	912879	keystroke	p	n/a
456.5295	0.09	913059	keystroke	u	n/a
456.7395	0.06	913479	keystroke	l	n/a
456.8745	0.12	913749	keystroke	l	n/a
457.0095	0.06	914019	keystroke	Key.space	n/a
457.1295	0.1205	914259	keystroke	w	n/a
457.19	0.135	914380	keystroke	a	n/a
457.295	0.075	914590	keystroke	l	n/a
457.43	0.09	914860	keystroke	l	n/a
457.715	0.09	915430	keystroke	p	n/a
458.7645	0.12	917529	keystroke	a	n/a
458.9145	0.09	917829	keystroke	p	n/a
459.0495	0.105	918099	keystroke	e	n/a
459.1395	0.09	918279	keystroke	r	n/a
459.3495	0.09	918699	keystroke	s	n/a
459.5595	0.075	919119	keystroke	Key.space	n/a
459.6795	0.105	919359	keystroke	s	n/a
459.8145	0.06	919629	keystroke	t	n/a
459.98	0.075	919960	keystroke	r	n/a
460.07	0.075	920140	keystroke	u	n/a
460.175	0.12	920350	keystroke	c	n/a
460.31	0.075	920620	keystroke	k	n/a
460.79	0.06	921580	keystroke	Key.space	n/a
460.91	0.1045	921820	keystroke	f	n/a
460.9995	0.045	921999	keystroke	o	n/a
461.1195	0.09	922239	keystroke	o	n/a
461.2105	0.074	922421	keystroke	t	n/a
461.3145	0.1055	922629	keystroke	Key.enter	n/a
461.426	7.1205	922852	prompt	n/a	animation combine place screens\n
462.125	0.075	924250	keystroke	a	n/a
462.215	0.06	924430	keystroke	n	n/a
462.365	0.075	924730	keystroke	i	n/a
462.53	0.1045	925060	keystroke	m	n/a
462.62	0.105	925240	keystroke	a	n/a
462.77	0.09	925540	keystroke	t	n/a
462.8605	0.165	925721	keystroke	i	n/a
462.92	0.1355	925840	keystroke	o	n/a
462.9955	0.104	925991	keystroke	n	n/a
463.655	0.06	927310	keystroke	Key.space	n/a
463.82	0.135	927640	keystroke	c	n/a
463.895	0.0895	927790	keystroke	o	n/a
463.9695	0.12	927939	keystroke	m	n/a
464.2545	0.105	928509	keystroke	b	n/a
464.3445	0.105	928689	keystroke	i	n/a
464.4045	0.12	928809	keystroke	n	n/a
464.5395	0.06	929079	keystroke	e	n/a
465.1545	0.03	930309	keystroke	Key.space	n/a
465.2595	0.09	930519	keystroke	p	n/a
465.4995	0.075	930999	keystroke	a	n/a
466.1445	0.06	932289	keystroke	Key.backspace	n/a
466.3395	0.075	932679	keystroke	l	n/a
466.3845	0.09	932769	keystroke	a	n/a
466.5495	0.105	933099	keystroke	c	n/a
466.775	0.06	933550	keystroke	e	n/a
466.97	0.0745	933940	keystroke	Key.space	n/a
467.4945	0.06	934989	keystroke	s	n/a
467.5695	0.105	935139	keystroke	c	n/a
467.8095	0.105	935619	keystroke	r	n/a
467.8695	0.075	935739	keystroke	e	n/a
468.0345	0.06	936069	keystroke	e	n/a
468.1845	0.06	936369	keystroke	n	n/a
468.2595	0.075	936519	keystroke	s	n/a
468.4395	0.105	936879	keystroke	Key.enter	n/a
468.5505	6.1605	937101	prompt	n/a	frequent obesity growth brandon\n
469.16	0.075	938320	keystroke	f	n/a
469.325	0.12	938650	keystroke	r	n/a
469.37	0.09	938740	keystroke	e	n/a
469.55	0.09	939100	keystroke	q	n/a
469.6545	0.0755	939309	keystroke	u	n/a
469.7595	0.09	939519	keystroke	e	n/a
469.865	0.09	939730	keystroke	n	n/a
469.9695	0.075	939939	keystroke	t	n/a
470.5995	0.076	941199	keystroke	Key.space	n/a
470.7945	0.075	941589	keystroke	o	n/a
470.9295	0.105	941859	keystroke	b	n/a
471.1695	0.046	942339	keystroke	e	n/a
471.4845	0.105	942969	keystroke	s	n/a
471.5745	0.061	943149	keystroke	i	n/a
471.7105	0.074	943421	keystroke	t	n/a
471.7705	0.059	943541	keystroke	y	n/a
471.9495	0.09	943899	keystroke	Key.space	n/a
472.1295	0.075	944259	keystroke	g	n/a
472.3095	0.075	944619	keystroke	r	n/a
472.3995	0.06	944799	keystroke	o	n/a
472.4895	0.075	944979	keystroke	w	n/a
472.625	0.105	945250	keystroke	t	n/a
472.685	0.105	945370	keystroke	h	n/a
473.435	0.075	946870	keystroke	Key.space	n/a
473.615	0.075	947230	keystroke	b	n/a
473.81	0.135	947620	keystroke	r	n/a
473.9	0.12	947800	keystroke	a	n/a
474.005	0.075	948010	keystroke	n	n/a
474.125	0.075	948250	keystroke	d	n/a
474.2	0.12	948400	keystroke	o	n/a
474.26	0.105	948520	keystroke	n	n/a
474.635	0.075	949270	keystroke	Key.enter	n/a
474.714	4.797	949428	prompt	n/a	report shaft ever rebecca\n
475.3545	0.12	950709	keystroke	r	n/a
475.4295	0.075	950859	keystroke	e	n/a
475.5195	0.09	951039	keystroke	p	n/a
475.6995	0.06	951399	keystroke	o	n/a
475.7445	0.075	951489	keystroke	r	n/a
475.9095	0.075	951819	keystroke	t	n/a
476.0445	0.06	952089	keystroke	Key.space	n/a
476.1945	0.105	952389	keystroke	s	n/a
476.3445	0.075	952689	keystroke	h	n/a
476.4795	0.09	952959	keystroke	a	n/a
476.6745	0.105	953349	keystroke	f	n/a
476.8395	0.075	953679	keystroke	t	n/a
476.9895	0.09	953979	keystroke	Key.space	n/a
477.1695	0.06	954339	keystroke	e	n/a
477.3345	0.06	954669	keystroke	v	n/a
477.4695	0.075	954939	keystroke	e	n/a
477.5145	0.0905	955029	keystroke	r	n/a
477.635	0.074	955270	keystroke	Key.space	n/a
477.77	0.12	955540	keystroke	r	n/a
477.844	0.075	955688	keystroke	e	n/a
478.16	0.0745	956320	keystroke	b	n/a
478.3395	0.06	956679	keystroke	e	n/a
478.67	0.06	957340	keystroke	c	n/a
478.805	0.09	957610	keystroke	c	n/a
479	0.105	958000	keystroke	a	n/a
479.405	0.105	958810	keystroke	Key.enter	n/a
479.514	5.0225	959028	prompt	n/a	let's disks valued hose\n
480.23	0.0895	960460	keystroke	l	n/a
480.305	0.06	960610	keystroke	i	n/a
480.785	0.06	961570	keystroke	Key.backspace	n/a
480.875	0.075	961750	keystroke	e	n/a
481.13	0.075	962260	keystroke	t	n/a
481.265	0.105	962530	keystroke	'	n/a
481.4	0.09	962800	keystroke	s	n/a
482.014	0.09	964028	keystroke	Key.space	n/a
482.195	0.089	964390	keystroke	d	n/a
482.27	0.0745	964540	keystroke	i	n/a
482.3745	0.09	964749	keystroke	s	n/a
482.4795	0.075	964959	keystroke	k	n/a
482.5695	0.09	965139	keystroke	s	n/a
482.8995	0.09	965799	keystroke	Key.space	n/a
483.0345	0.12	966069	keystroke	v	n/a
483.1245	0.12	966249	keystroke	a	n/a
483.2145	0.135	966429	keystroke	l	n/a
483.3045	0.09	966609	keystroke	u	n/a
483.4095	0.06	966819	keystroke	e	n/a
483.575	0.075	967150	keystroke	d	n/a
483.74	0.105	967480	keystroke	Key.space	n/a
483.995	0.09	967990	keystroke	h	n/a
484.07	0.105	968140	keystroke	o	n/a
484.175	0.135	968350	keystroke	s	n/a
484.265	0.075	968530	keystroke	e	n/a
484.4145	0.12	968829	keystroke	Key.enter	n/a
484.539	7.812	969078	prompt	n/a	acer boating huntington centered\n
485.1945	0.075	970389	keystroke	a	n/a
485.3745	0.075	970749	keystroke	c	n/a
485.5995	0.075	971199	keystroke	e	n/a
485.6445	0.105	971289	keystroke	r	n/a
485.885	0.075	971770	keystroke	Key.space	n/a
486.125	0.075	972250	keystroke	b	n/a
486.23	0.075	972460	keystroke	o	n/a
486.32	0.135	972640	keystroke	a	n/a
486.485	0.105	972970	keystroke	t	n/a
486.605	0.135	973210	keystroke	i	n/a
486.665	0.105	973330	keystroke	n	n/a
486.755	0.06	973510	keystroke	g	n/a
487.4295	0.09	974859	keystroke	Key.space	n/a
487.6395	0.06	975279	keystroke	h	n/a
487.7895	0.075	975579	keystroke	u	n/a
488.0445	0.075	976089	keystroke	n	n/a
489.1845	0.075	978369	keystroke	t	n/a
489.2595	0.135	978519	keystroke	i	n/a
489.3495	0.09	978699	keystroke	n	n/a
489.4245	0.075	978849	keystroke	g	n/a
489.98	0.075	979960	keystroke	t	n/a
490.055	0.165	980110	keystroke	o	n/a
490.16	0.105	980320	keystroke	n	n/a
490.775	0.075	981550	keystroke	Key.space	n/a
491.015	0.075	982030	keystroke	c	n/a
491.21	0.09	982420	keystroke	e	n/a
491.33	0.09	982660	keystroke	n	n/a
491.555	0.09	983110	keystroke	t	n/a
491.705	0.12	983410	keystroke	e	n/a
491.765	0.15	983530	keystroke	r	n/a
491.9	0.075	983800	keystroke	e	n/a
492.05	0.105	984100	keystroke	d	n/a
492.23	0.12	984460	keystroke	Key.enter	n/a
492.354	13.767	984708	prompt	n/a	undertaken netherlands necessarily helicopter\n
493.13	0.06	986260	keystroke	u	n/a
493.295	0.09	986590	keystroke	n	n/a
493.37	0.075	986740	keystroke	d	n/a
493.5345	0.09	987069	keystroke	e	n/a
493.5795	0.105	987159	keystroke	r	n/a
493.7745	0.12	987549	keystroke	t	n/a
493.8495	0.12	987699	keystroke	a	n/a
493.9545	0.06	987909	keystroke	k	n/a
494.0745	0.06	988149	keystroke	e	n/a
494.1195	0.075	988239	keystroke	n	n/a
494.7945	0.075	989589	keystroke	Key.space	n/a
494.9895	0.075	989979	keystroke	n	n/a
495.1095	0.06	990219	keystroke	e	n/a
495.2295	0.09	990459	keystroke	t	n/a
495.3205	0.059	990641	keystroke	h	n/a
495.4095	0.075	990819	keystroke	e	n/a
495.4545	0.12	990909	keystroke	r	n/a
495.5595	0.075	991119	keystroke	l	n/a
495.6495	0.12	991299	keystroke	a	n/a
495.7395	0.09	991479	keystroke	n	n/a
495.8305	0.089	991661	keystroke	d	n/a
495.9795	0.105	991959	keystroke	s	n/a
496.91	0.075	993820	keystroke	Key.space	n/a
497.075	0.075	994150	keystroke	n	n/a
497.18	0.075	994360	keystroke	e	n/a
497.405	0.09	994810	keystroke	c	n/a
497.87	0.03	995740	keystroke	Key.backspace	n/a
498.649	0.091	997298	keystroke	c	n/a
498.859	0.06	997718	keystroke	e	n/a
499.114	0.061	998228	keystroke	s	n/a
499.249	0.091	998498	keystroke	s	n/a
499.55	0.1195	999100	keystroke	a	n/a
499.745	0.0745	999490	keystroke	r	n/a
499.835	0.075	999670	keystroke	i	n/a
499.9695	0.1055	999939	keystroke	t	n/a
500.09	0.06	1000180	keystroke	y	n/a
500.57	0.09	1001140	keystroke	Key.backspace	n/a
501.065	0.06	1002130	keystroke	Key.backspace	n/a
501.32	0.06	1002640	keystroke	l	n/a
501.53	0.075	1003060	keystroke	y	n/a
502.265	0.045	1004530	keystroke	Key.space	n/a
502.385	0.075	1004770	keystroke	h	n/a
502.52	0.075	1005040	keystroke	e	n/a
502.61	0.075	1005220	keystroke	l	n/a
502.7	0.045	1005400	keystroke	e	n/a
503.1945	0.045	1006389	keystroke	Key.backspace	n/a
503.3745	0.06	1006749	keystroke	i	n/a
503.8995	0.12	1007799	keystroke	c	n/a
503.9895	0.075	1007979	keystroke	o	n/a
504.1545	0.105	1008309	keystroke	p	n/a
504.3045	0.075	1008609	keystroke	t	n/a
504.4395	0.105	1008879	keystroke	e	n/a
504.4995	0.105	1008999	keystroke	r	n/a
506.0445	0.075	1012089	keystroke	Key.enter	n/a
506.124	8.2925	1012248	prompt	n/a	y'all fifty powered space\n
508.237	0.028	1016474	keystroke	y	n/a
509.045	0.06	1018090	keystroke	'	n/a
509.24	0.105	1018480	keystroke	a	n/a
509.4645	0.09	1018929	keystroke	l	n/a
509.6145	0.09	1019229	keystroke	l	n/a
510.2595	0.06	1020519	keystroke	Key.space	n/a
510.3795	0.09	1020759	keystroke	f	n/a
510.4545	0.09	1020909	keystroke	i	n/a
510.7845	0.075	1021569	keystroke	f	n/a
510.995	0.075	1021990	keystroke	t	n/a
511.1	0.075	1022200	keystroke	y	n/a
511.475	0.075	1022950	keystroke	Key.space	n/a
511.655	0.0745	1023310	keystroke	p	n/a
511.8195	0.0755	1023639	keystroke	o	n/a
511.925	0.09	1023850	keystroke	w	n/a
511.97	0.12	1023940	keystroke	e	n/a
512.045	0.105	1024090	keystroke	r	n/a
512.165	0.09	1024330	keystroke	e	n/a
512.36	0.075	1024720	keystroke	d	n/a
513.32	0.075	1026640	keystroke	Key.space	n/a
513.5745	0.105	1027149	keystroke	s	n/a
513.6945	0.0905	1027389	keystroke	p	n/a
513.755	0.105	1027510	keystroke	a	n/a
513.935	0.09	1027870	keystroke	c	n/a
514.1445	0.06	1028289	keystroke	e	n/a
514.3245	0.0905	1028649	keystroke	Key.enter	n/a
514.419	6.9125	1028838	prompt	n/a	gadgets fitting let's aruba\n
515.585	0.09	1031170	keystroke	g	n/a
516.155	0.12	1032310	keystroke	a	n/a
516.53	0.09	1033060	keystroke	d	n/a
516.785	0.075	1033570	keystroke	g	n/a
517.0245	0.015	1034049	keystroke	e	n/a
517.1145	0.0755	1034229	keystroke	t	n/a
517.37	0.075	1034740	keystroke	s	n/a
517.6245	0.105	1035249	keystroke	Key.space	n/a
517.7895	0.075	1035579	keystroke	f	n/a
517.8795	0.06	1035759	keystroke	i	n/a
517.9695	0.075	1035939	keystroke	t	n/a
518.0895	0.075	1036179	keystroke	t	n/a
518.1945	0.135	1036389	keystroke	i	n/a
518.2695	0.12	1036539	keystroke	n	n/a
518.3445	0.075	1036689	keystroke	g	n/a
518.4795	0.0905	1036959	keystroke	Key.space	n/a
518.585	0.135	1037170	keystroke	l	n/a
518.735	0.06	1037470	keystroke	e	n/a
519.02	0.105	1038040	keystroke	t	n/a
519.26	0.09	1038520	keystroke	'	n/a
519.425	0.105	1038850	keystroke	s	n/a
519.8745	0.09	1039749	keystroke	Key.space	n/a
520.2045	0.12	1040409	keystroke	a	n/a
520.3995	0.105	1040799	keystroke	r	n/a
520.5495	0.09	1041099	keystroke	u	n/a
520.7895	0.09	1041579	keystroke	b	n/a
521.0445	0.135	1042089	keystroke	a	n/a
521.2095	0.12	1042419	keystroke	Key.enter	n/a
521.334	6.2825	1042668	prompt	n/a	revelation relatives apartments whether\n
522.065	0.135	1044130	keystroke	r	n/a
522.125	0.09	1044250	keystroke	e	n/a
522.38	0.105	1044760	keystroke	v	n/a
522.605	0.045	1045210	keystroke	e	n/a
522.74	0.12	1045480	keystroke	l	n/a
522.845	0.12	1045690	keystroke	a	n/a
522.98	0.09	1045960	keystroke	t	n/a
523.085	0.165	1046170	keystroke	i	n/a
523.145	0.15	1046290	keystroke	o	n/a
523.235	0.12	1046470	keystroke	n	n/a
523.34	0.105	1046680	keystroke	Key.space	n/a
523.579	0.135	1047158	keystroke	r	n/a
523.654	0.105	1047308	keystroke	e	n/a
523.849	0.1055	1047698	keystroke	l	n/a
523.939	0.1055	1047878	keystroke	a	n/a
524.0745	0.09	1048149	keystroke	t	n/a
524.1945	0.09	1048389	keystroke	i	n/a
524.2695	0.09	1048539	keystroke	v	n/a
524.4495	0.105	1048899	keystroke	e	n/a
524.5695	0.12	1049139	keystroke	s	n/a
524.7045	0.09	1049409	keystroke	Key.space	n/a
524.8095	0.09	1049619	keystroke	a	n/a
524.9295	0.09	1049859	keystroke	p	n/a
525.1245	0.135	1050249	keystroke	a	n/a
525.2145	0.09	1050429	keystroke	r	n/a
525.4095	0.09	1050819	keystroke	t	n/a
525.5145	0.075	1051029	keystroke	m	n/a
525.6345	0.0755	1051269	keystroke	e	n/a
525.6795	0.0905	1051359	keystroke	n	n/a
525.755	0.119	1051510	keystroke	t	n/a
525.845	0.104	1051690	keystroke	s	n/a
526.04	0.059	1052080	keystroke	Key.space	n/a
526.145	0.09	1052290	keystroke	w	n/a
526.43	0.045	1052860	keystroke	h	n/a
526.61	0.09	1053220	keystroke	e	n/a
526.85	0.09	1053700	keystroke	t	n/a
527	0.06	1054000	keystroke	h	n/a
527.06	0.1045	1054120	keystroke	e	n/a
527.105	0.105	1054210	keystroke	r	n/a
527.5245	0.0905	1055049	keystroke	Key.enter	n/a
527.619	5.7425	1055238	prompt	n/a	frequently shoot suggests gore\n
528.215	0.09	1056430	keystroke	f	n/a
528.365	0.12	1056730	keystroke	r	n/a
528.44	0.105	1056880	keystroke	e	n/a
528.65	0.09	1057300	keystroke	q	n/a
528.755	0.06	1057510	keystroke	u	n/a
528.845	0.075	1057690	keystroke	e	n/a
528.935	0.075	1057870	keystroke	n	n/a
529.04	0.09	1058080	keystroke	t	n/a
529.13	0.12	1058260	keystroke	l	n/a
529.22	0.075	1058440	keystroke	y	n/a
529.85	0.075	1059700	keystroke	Key.space	n/a
529.94	0.105	1059880	keystroke	s	n/a
530.03	0.075	1060060	keystroke	h	n/a
530.18	0.075	1060360	keystroke	o	n/a
530.33	0.075	1060660	keystroke	o	n/a
530.42	0.075	1060840	keystroke	t	n/a
530.66	0.06	1061320	keystroke	Key.space	n/a
530.7945	0.105	1061589	keystroke	s	n/a
530.9145	0.06	1061829	keystroke	u	n/a
531.0645	0.06	1062129	keystroke	g	n/a
531.1845	0.075	1062369	keystroke	g	n/a
531.3495	0.105	1062699	keystroke	e	n/a
531.6645	0.12	1063329	keystroke	s	n/a
531.92	0.075	1063840	keystroke	t	n/a
532.07	0.105	1064140	keystroke	s	n/a
532.685	0.045	1065370	keystroke	Key.space	n/a
532.85	0.075	1065700	keystroke	g	n/a
532.94	0.06	1065880	keystroke	o	n/a
533.03	0.09	1066060	keystroke	r	n/a
533.09	0.075	1066180	keystroke	e	n/a
533.27	0.09	1066540	keystroke	Key.enter	n/a
533.364	7.4225	1066728	prompt	n/a	lodge doctors interference menus\n
534.02	0.075	1068040	keystroke	l	n/a
534.215	0.075	1068430	keystroke	o	n/a
534.425	0.09	1068850	keystroke	d	n/a
534.68	0.075	1069360	keystroke	g	n/a
534.8895	0.045	1069779	keystroke	e	n/a
535.5195	0.075	1071039	keystroke	Key.space	n/a
535.6545	0.105	1071309	keystroke	d	n/a
535.7745	0.06	1071549	keystroke	o	n/a
535.9095	0.12	1071819	keystroke	c	n/a
536.1945	0.045	1072389	keystroke	t	n/a
536.2545	0.06	1072509	keystroke	o	n/a
536.3445	0.09	1072689	keystroke	r	n/a
536.7495	0.09	1073499	keystroke	s	n/a
537.094	0.061	1074188	keystroke	Key.space	n/a
537.23	0.15	1074460	keystroke	i	n/a
537.32	0.105	1074640	keystroke	n	n/a
537.575	0.0895	1075150	keystroke	t	n/a
537.68	0.105	1075360	keystroke	e	n/a
537.755	0.0895	1075510	keystroke	r	n/a
538.505	0.09	1077010	keystroke	f	n/a
538.685	0.105	1077370	keystroke	e	n/a
538.76	0.15	1077520	keystroke	r	n/a
539.015	0.105	1078030	keystroke	e	n/a
539.18	0.09	1078360	keystroke	n	n/a
539.27	0.105	1078540	keystroke	c	n/a
539.495	0.075	1078990	keystroke	e	n/a
539.72	0.075	1079440	keystroke	Key.space	n/a
540.02	0.12	1080040	keystroke	m	n/a
540.185	0.09	1080370	keystroke	e	n/a
540.276	0.074	1080552	keystroke	n	n/a
540.4545	0.075	1080909	keystroke	u	n/a
540.5745	0.06	1081149	keystroke	s	n/a
540.6945	0.09	1081389	keystroke	Key.enter	n/a
540.7895	4.962	1081579	prompt	n/a	postposted lending cakes pendant\n
541.3995	0.075	1082799	keystroke	p	n/a
541.5795	0.0905	1083159	keystroke	o	n/a
541.6395	0.1055	1083279	keystroke	s	n/a
541.775	0.105	1083550	keystroke	t	n/a
541.94	0.105	1083880	keystroke	p	n/a
542.075	0.12	1084150	keystroke	o	n/a
542.165	0.12	1084330	keystroke	s	n/a
542.255	0.105	1084510	keystroke	t	n/a
542.39	0.09	1084780	keystroke	e	n/a
542.54	0.12	1085080	keystroke	d	n/a
543.02	0.0445	1086040	keystroke	Key.space	n/a
543.1245	0.09	1086249	keystroke	l	n/a
543.2445	0.06	1086489	keystroke	e	n/a
543.3195	0.075	1086639	keystroke	n	n/a
543.4095	0.09	1086819	keystroke	d	n/a
543.5145	0.105	1087029	keystroke	i	n/a
543.5595	0.1055	1087119	keystroke	n	n/a
543.6205	0.0895	1087241	keystroke	g	n/a
543.95	0.075	1087900	keystroke	Key.space	n/a
544.1	0.15	1088200	keystroke	c	n/a
544.235	0.105	1088470	keystroke	a	n/a
544.37	0.075	1088740	keystroke	k	n/a
544.46	0.105	1088920	keystroke	e	n/a
544.52	0.135	1089040	keystroke	s	n/a
544.67	0.075	1089340	keystroke	Key.space	n/a
544.82	0.09	1089640	keystroke	p	n/a
544.925	0.09	1089850	keystroke	e	n/a
545	0.075	1090000	keystroke	n	n/a
545.105	0.075	1090210	keystroke	d	n/a
545.255	0.135	1090510	keystroke	a	n/a
545.42	0.09	1090840	keystroke	n	n/a
545.555	0.075	1091110	keystroke	t	n/a
545.645	0.105	1091290	keystroke	Key.enter	n/a
545.7555	5.4855	1091511	prompt	n/a	sauce voip calculation good\n
546.425	0.06	1092850	keystroke	s	n/a
546.56	0.12	1093120	keystroke	a	n/a
546.695	0.0745	1093390	keystroke	u	n/a
546.7995	0.09	1093599	keystroke	c	n/a
546.9945	0.075	1093989	keystroke	e	n/a
547.5495	0.045	1095099	keystroke	Key.space	n/a
547.8495	0.09	1095699	keystroke	v	n/a
548.4195	0.105	1096839	keystroke	o	n/a
548.6745	0.075	1097349	keystroke	i	n/a
548.8695	0.09	1097739	keystroke	p	n/a
549.3195	0.075	1098639	keystroke	Key.space	n/a
549.4545	0.12	1098909	keystroke	c	n/a
549.5755	0.119	1099151	keystroke	a	n/a
549.6795	0.075	1099359	keystroke	l	n/a
549.8145	0.09	1099629	keystroke	c	n/a
549.9195	0.06	1099839	keystroke	u	n/a
550.085	0.075	1100170	keystroke	l	n/a
550.16	0.12	1100320	keystroke	a	n/a
550.295	0.09	1100590	keystroke	t	n/a
550.37	0.165	1100740	keystroke	i	n/a
550.415	0.135	1100830	keystroke	o	n/a
550.475	0.135	1100950	keystroke	n	n/a
550.655	0.045	1101310	keystroke	Key.space	n/a
550.76	0.09	1101520	keystroke	g	n/a
550.835	0.06	1101670	keystroke	o	n/a
550.955	0.09	1101910	keystroke	o	n/a
551	0.09	1102000	keystroke	d	n/a
551.15	0.09	1102300	keystroke	Key.enter	n/a
551.244	4.6775	1102488	prompt	n/a	gaming merely expert config\n
551.87	0.09	1103740	keystroke	g	n/a
551.945	0.12	1103890	keystroke	a	n/a
552.05	0.075	1104100	keystroke	m	n/a
552.2	0.135	1104400	keystroke	i	n/a
552.275	0.09	1104550	keystroke	n	n/a
552.38	0.045	1104760	keystroke	g	n/a
553.0095	0.06	1106019	keystroke	Key.space	n/a
553.0845	0.105	1106169	keystroke	m	n/a
553.1595	0.09	1106319	keystroke	e	n/a
553.2945	0.15	1106589	keystroke	r	n/a
553.3845	0.105	1106769	keystroke	e	n/a
553.4905	0.149	1106981	keystroke	l	n/a
553.6245	0.06	1107249	keystroke	y	n/a
553.7595	0.075	1107519	keystroke	Key.space	n/a
553.9245	0.06	1107849	keystroke	e	n/a
554.0745	0.105	1108149	keystroke	x	n/a
554.1805	0.089	1108361	keystroke	p	n/a
554.4495	0.135	1108899	keystroke	e	n/a
554.5545	0.075	1109109	keystroke	r	n/a
554.7345	0.09	1109469	keystroke	t	n/a
554.9295	0.0605	1109859	keystroke	Key.space	n/a
555.215	0.1045	1110430	keystroke	c	n/a
555.3045	0.12	1110609	keystroke	o	n/a
555.3345	0.105	1110669	keystroke	n	n/a
555.4995	0.105	1110999	keystroke	f	n/a
555.5895	0.06	1111179	keystroke	i	n/a
555.7245	0.075	1111449	keystroke	g	n/a
555.8295	0.09	1111659	keystroke	Key.enter	n/a
555.924	11.6375	1111848	prompt	n/a	kodak democracy visibility distinction\n
556.7445	0.075	1113489	keystroke	k	n/a
556.9395	0.09	1113879	keystroke	o	n/a
557.0895	0.135	1114179	keystroke	d	n/a
557.1945	0.135	1114389	keystroke	a	n/a
557.4495	0.105	1114899	keystroke	k	n/a
558.275	0.06	1116550	keystroke	Key.space	n/a
558.395	0.105	1116790	keystroke	d	n/a
558.59	0.075	1117180	keystroke	e	n/a
558.755	0.12	1117510	keystroke	m	n/a
558.935	0.0595	1117870	keystroke	o	n/a
559.1745	0.12	1118349	keystroke	c	n/a
559.3695	0.1355	1118739	keystroke	r	n/a
559.46	0.12	1118920	keystroke	a	n/a
560.15	0.105	1120300	keystroke	c	n/a
560.255	0.075	1120510	keystroke	y	n/a
560.8095	0.06	1121619	keystroke	Key.space	n/a
561.05	0.105	1122100	keystroke	v	n/a
561.14	0.075	1122280	keystroke	i	n/a
561.305	0.09	1122610	keystroke	s	n/a
561.35	0.075	1122700	keystroke	i	n/a
561.665	0.075	1123330	keystroke	b	n/a
561.74	0.06	1123480	keystroke	i	n/a
561.905	0.075	1123810	keystroke	l	n/a
561.965	0.09	1123930	keystroke	i	n/a
562.085	0.0745	1124170	keystroke	t	n/a
562.1745	0.06	1124349	keystroke	y	n/a
562.8795	0.075	1125759	keystroke	Key.space	n/a
562.9695	0.03	1125939	keystroke	d	n/a
562.9845	0.03	1125969	keystroke	i	n/a
563.0595	0.075	1126119	keystroke	s	n/a
563.1945	0.09	1126389	keystroke	t	n/a
563.2995	0.075	1126599	keystroke	i	n/a
563.5245	0.09	1127049	keystroke	n	n/a
563.675	0.075	1127350	keystroke	i	n/a
563.78	0.06	1127560	keystroke	c	n/a
565.2345	0.105	1130469	keystroke	Key.backspace	n/a
565.4445	0.075	1130889	keystroke	Key.backspace	n/a
566.8545	0.075	1133709	keystroke	c	n/a
567.0645	0.075	1134129	keystroke	t	n/a
567.1245	0.15	1134249	keystroke	i	n/a
567.1845	0.135	1134369	keystroke	o	n/a
567.2445	0.106	1134489	keystroke	n	n/a
567.4545	0.105	1134909	keystroke	Key.enter	n/a
567.564	7.3925	1135128	prompt	n/a	astrology cole amended champagne\n
568.37	0.135	1136740	keystroke	a	n/a
568.49	0.105	1136980	keystroke	s	n/a
568.655	0.09	1137310	keystroke	t	n/a
568.895	0.104	1137790	keystroke	r	n/a
568.9845	0.0605	1137969	keystroke	o	n/a
569.149	0.076	1138298	keystroke	l	n/a
569.4795	0.0595	1138959	keystroke	o	n/a
569.5995	0.09	1139199	keystroke	g	n/a
569.674	0.045	1139348	keystroke	y	n/a
570.199	0.075	1140398	keystroke	Key.space	n/a
570.454	0.1205	1140908	keystroke	c	n/a
570.5595	0.061	1141119	keystroke	o	n/a
570.7255	0.075	1141451	keystroke	l	n/a
570.8445	0.061	1141689	keystroke	e	n/a
570.9345	0.0755	1141869	keystroke	Key.space	n/a
571.1	0.12	1142200	keystroke	a	n/a
571.25	0.105	1142500	keystroke	m	n/a
571.37	0.045	1142740	keystroke	d	n/a
571.73	0.075	1143460	keystroke	Key.backspace	n/a
571.88	0.075	1143760	keystroke	e	n/a
571.94	0.075	1143880	keystroke	n	n/a
572.06	0.075	1144120	keystroke	d	n/a
572.225	0.06	1144450	keystroke	e	n/a
572.375	0.075	1144750	keystroke	d	n/a
572.84	0.015	1145680	keystroke	Key.space	n/a
572.99	0.105	1145980	keystroke	c	n/a
573.095	0.06	1146190	keystroke	h	n/a
573.5	0.105	1147000	keystroke	a	n/a
573.575	0.105	1147150	keystroke	m	n/a
573.83	0.105	1147660	keystroke	p	n/a
574.115	0.1045	1148230	keystroke	a	n/a
574.2345	0.075	1148469	keystroke	n	n/a
574.3395	0.0605	1148679	keystroke	g	n/a
574.505	0.075	1149010	keystroke	e	n/a
574.865	0.09	1149730	keystroke	Key.enter	n/a
574.961	4.7955	1149922	prompt	n/a	compete heater dont democrat\n
575.5995	0.12	1151199	keystroke	c	n/a
575.7045	0.0755	1151409	keystroke	o	n/a
575.75	0.105	1151500	keystroke	m	n/a
575.87	0.075	1151740	keystroke	p	n/a
576.02	0.075	1152040	keystroke	l	n/a
576.08	0.105	1152160	keystroke	e	n/a
576.17	0.105	1152340	keystroke	t	n/a
576.26	0.09	1152520	keystroke	e	n/a
576.47	0.09	1152940	keystroke	Key.space	n/a
576.62	0.075	1153240	keystroke	h	n/a
576.68	0.135	1153360	keystroke	e	n/a
576.77	0.135	1153540	keystroke	a	n/a
576.935	0.075	1153870	keystroke	t	n/a
577.04	0.12	1154080	keystroke	e	n/a
577.115	0.075	1154230	keystroke	r	n/a
577.385	0.06	1154770	keystroke	Key.space	n/a
577.475	0.09	1154950	keystroke	d	n/a
577.55	0.135	1155100	keystroke	o	n/a
577.655	0.09	1155310	keystroke	n	n/a
577.79	0.075	1155580	keystroke	t	n/a
578.075	0.045	1156150	keystroke	Key.space	n/a
578.135	0.09	1156270	keystroke	d	n/a
578.3	0.09	1156600	keystroke	e	n/a
578.375	0.09	1156750	keystroke	m	n/a
