onset	duration	sample	value	key	prompt_text
1.171	12.204	2342	prompt	n/a	the quick brown fox jumps over a lazy dog\n
3.563	0.096	7126	keystroke_t	t	n/a
3.691	0.072	7382	keystroke_h	h	n/a
3.787	0.08	7574	keystroke_e	e	n/a
3.899	0.064	7798	keystroke_Key.space	Key.space	n/a
4.178	0.097	8356	keystroke_q	q	n/a
4.291	0.088	8582	keystroke_u	u	n/a
4.491	0.08	8982	keystroke_i	i	n/a
4.611	0.072	9222	keystroke_c	c	n/a
4.723	0.072	9446	keystroke_k	k	n/a
4.875	0.088	9750	keystroke_Key.space	Key.space	n/a
5.059	0.064	10118	keystroke_b	b	n/a
5.275	0.072	10550	keystroke_r	r	n/a
5.379	0.08	10758	keystroke_o	o	n/a
5.499	0.064	10998	keystroke_w	w	n/a
5.603	0.072	11206	keystroke_n	n	n/a
5.763	0.096	11526	keystroke_Key.space	Key.space	n/a
6.1745	0.096	12349	keystroke_f	f	n/a
6.3265	0.088	12653	keystroke_o	o	n/a
6.6115	0.1045	13223	keystroke_x	x	n/a
7.0905	0.088	14181	keystroke_Key.space	Key.space	n/a
7.331	0.0795	14662	keystroke_j	j	n/a
7.515	0.072	15030	keystroke_u	u	n/a
7.707	0.064	15414	keystroke_m	m	n/a
7.843	0.088	15686	keystroke_p	p	n/a
7.963	0.096	15926	keystroke_s	s	n/a
8.067	0.0805	16134	keystroke_Key.space	Key.space	n/a
8.1875	0.08	16375	keystroke_o	o	n/a
8.2915	0.08	16583	keystroke_v	v	n/a
8.4275	0.072	16855	keystroke_e	e	n/a
8.5475	0.08	17095	keystroke_r	r	n/a
8.6435	0.072	17287	keystroke_Key.space	Key.space	n/a
8.7475	0.088	17495	keystroke_a	a	n/a
8.8275	0.071	17655	keystroke_Key.space	Key.space	n/a
8.9875	0.08	17975	keystroke_l	l	n/a
9.42	0.088	18840	keystroke_a	a	n/a
9.6585	0.089	19317	keystroke_z	z	n/a
9.9715	0.112	19943	keystroke_y	y	n/a
10.2265	0.089	20453	keystroke_Key.space	Key.space	n/a
10.7875	0.104	21575	keystroke_f	f	n/a
11.387	0.1365	22774	keystroke_Key.backspace	Key.backspace	n/a
11.9155	0.0795	23831	keystroke_d	d	n/a
11.996	0.079	23992	keystroke_o	o	n/a
12.171	0.064	24342	keystroke_g	g	n/a
13.292	0.079	26584	keystroke_Key.enter	Key.enter	n/a
13.3805	13.978	26761	prompt	n/a	fujitsu ready insulin recreation\n
14.7395	0.08	29479	keystroke_f	f	n/a
14.8915	0.072	29783	keystroke_u	u	n/a
16.3635	0.088	32727	keystroke_j	j	n/a
16.5235	0.096	33047	keystroke_i	i	n/a
17.012	0.095	34024	keystroke_y	y	n/a
17.507	0.08	35014	keystroke_Key.backspace	Key.backspace	n/a
17.571	0.113	35142	keystroke_t	t	n/a
17.947	0.088	35894	keystroke_s	s	n/a
18.107	0.0805	36214	keystroke_u	u	n/a
18.7075	0.072	37415	keystroke_Key.space	Key.space	n/a
19.0355	0.0875	38071	keystroke_r	r	n/a
19.211	0.08	38422	keystroke_e	e	n/a
19.427	0.088	38854	keystroke_a	a	n/a
19.603	0.104	39206	keystroke_f	f	n/a
19.955	0.104	39910	keystroke_y	y	n/a
20.915	0.088	41830	keystroke_Key.backspace	Key.backspace	n/a
21.227	0.112	42454	keystroke_f	f	n/a
21.403	0.08	42806	keystroke_Key.backspace	Key.backspace	n/a
21.547	0.096	43094	keystroke_Key.backspace	Key.backspace	n/a
22.211	0.0965	44422	keystroke_d	d	n/a
22.515	0.072	45030	keystroke_y	y	n/a
22.6995	0.1115	45399	keystroke_Key.space	Key.space	n/a
23.203	0.104	46406	keystroke_i	i	n/a
23.395	0.0725	46790	keystroke_n	n	n/a
23.515	0.088	47030	keystroke_s	s	n/a
23.619	0.088	47238	keystroke_u	u	n/a
23.835	0.088	47670	keystroke_l	l	n/a
24.035	0.072	48070	keystroke_i	i	n/a
24.179	0.1045	48358	keystroke_n	n	n/a
24.6995	0.088	49399	keystroke_Key.space	Key.space	n/a
24.8755	0.08	49751	keystroke_r	r	n/a
25.0115	0.08	50023	keystroke_e	e	n/a
25.1795	0.096	50359	keystroke_a	a	n/a
25.4115	0.088	50823	keystroke_c	c	n/a
25.6115	0.088	51223	keystroke_r	r	n/a
25.7235	0.088	51447	keystroke_e	e	n/a
25.8675	0.096	51735	keystroke_a	a	n/a
26.0835	0.072	52167	keystroke_t	t	n/a
26.1955	0.08	52391	keystroke_i	i	n/a
26.3955	0.08	52791	keystroke_o	o	n/a
26.5395	0.064	53079	keystroke_n	n	n/a
27.2755	0.08	54551	keystroke_Key.enter	Key.enter	n/a
27.363	7.7785	54726	prompt	n/a	thanks lovely screw livecam\n
28.2515	0.088	56503	keystroke_t	t	n/a
28.4115	0.0795	56823	keystroke_h	h	n/a
28.5075	0.096	57015	keystroke_a	a	n/a
28.6355	0.08	57271	keystroke_n	n	n/a
28.7715	0.088	57543	keystroke_k	k	n/a
28.9315	0.088	57863	keystroke_s	s	n/a
29.1475	0.104	58295	keystroke_Key.space	Key.space	n/a
29.6675	0.104	59335	keystroke_l	l	n/a
29.8515	0.088	59703	keystroke_o	o	n/a
29.995	0.072	59990	keystroke_v	v	n/a
30.1475	0.0875	60295	keystroke_e	e	n/a
30.267	0.088	60534	keystroke_l	l	n/a
30.443	0.0885	60886	keystroke_y	y	n/a
30.9795	0.088	61959	keystroke_Key.space	Key.space	n/a
31.1475	0.088	62295	keystroke_s	s	n/a
31.7875	0.12	63575	keystroke_c	c	n/a
32.0275	0.072	64055	keystroke_r	r	n/a
32.1555	0.104	64311	keystroke_e	e	n/a
32.4275	0.104	64855	keystroke_w	w	n/a
32.7955	0.096	65591	keystroke_Key.space	Key.space	n/a
33.0195	0.104	66039	keystroke_l	l	n/a
33.2195	0.096	66439	keystroke_i	i	n/a
33.3635	0.08	66727	keystroke_v	v	n/a
33.5155	0.088	67031	keystroke_e	e	n/a
33.8435	0.112	67687	keystroke_c	c	n/a
34.0195	0.112	68039	keystroke_a	a	n/a
34.1875	0.112	68375	keystroke_m	m	n/a
35.0435	0.096	70087	keystroke_Key.enter	Key.enter	n/a
35.148	10.8735	70296	prompt	n/a	intensive demo produces errors\n
35.8995	0.072	71799	keystroke_i	i	n/a
36.0755	0.088	72151	keystroke_n	n	n/a
36.3235	0.088	72647	keystroke_s	s	n/a
36.8275	0.088	73655	keystroke_Key.backspace	Key.backspace	n/a
37.6675	0.088	75335	keystroke_t	t	n/a
37.8515	0.104	75703	keystroke_e	e	n/a
38.0115	0.096	76023	keystroke_n	n	n/a
38.1875	0.104	76375	keystroke_s	s	n/a
38.2835	0.104	76567	keystroke_i	i	n/a
38.7955	0.12	77591	keystroke_v	v	n/a
39.3555	0.144	78711	keystroke_e	e	n/a
39.9635	0.12	79927	keystroke_Key.space	Key.space	n/a
40.6835	0.096	81367	keystroke_d	d	n/a
40.9235	0.088	81847	keystroke_e	e	n/a
41.1235	0.152	82247	keystroke_m	m	n/a
41.4115	0.104	82823	keystroke_o	o	n/a
41.8035	0.112	83607	keystroke_Key.space	Key.space	n/a
42.0275	0.096	84055	keystroke_p	p	n/a
42.1635	0.088	84327	keystroke_r	r	n/a
42.2915	0.064	84583	keystroke_o	o	n/a
42.8035	0.1275	85607	keystroke_d	d	n/a
43.131	0.08	86262	keystroke_u	u	n/a
43.259	0.088	86518	keystroke_c	c	n/a
43.547	0.104	87094	keystroke_e	e	n/a
43.915	0.096	87830	keystroke_s	s	n/a
44.267	0.088	88534	keystroke_Key.space	Key.space	n/a
44.611	0.12	89222	keystroke_e	e	n/a
44.811	0.088	89622	keystroke_r	r	n/a
44.979	0.096	89958	keystroke_r	r	n/a
45.123	0.096	90246	keystroke_o	o	n/a
45.251	0.08	90502	keystroke_r	r	n/a
45.467	0.064	90934	keystroke_s	s	n/a
45.931	0.088	91862	keystroke_Key.enter	Key.enter	n/a
46.0265	12.6505	92053	prompt	n/a	liability cage reliance retail\n
46.692	0.103	93384	keystroke_l	l	n/a
46.923	0.088	93846	keystroke_i	i	n/a
47.091	0.088	94182	keystroke_a	a	n/a
47.339	0.04	94678	keystroke_v	v	n/a
47.451	0.096	94902	keystroke_i	i	n/a
47.867	0.064	95734	keystroke_Key.backspace	Key.backspace	n/a
48.027	0.08	96054	keystroke_Key.backspace	Key.backspace	n/a
48.115	0.096	96230	keystroke_v	v	n/a
48.387	0.072	96774	keystroke_i	i	n/a
48.675	0.056	97350	keystroke_Key.backspace	Key.backspace	n/a
48.819	0.08	97638	keystroke_Key.backspace	Key.backspace	n/a
49.7465	0.064	99493	keystroke_b	b	n/a
49.8905	0.096	99781	keystroke_i	i	n/a
50.1305	0.088	100261	keystroke_l	l	n/a
50.3065	0.08	100613	keystroke_i	i	n/a
50.5225	0.128	101045	keystroke_t	t	n/a
50.8105	0.096	101621	keystroke_y	y	n/a
51.5065	0.072	103013	keystroke_Key.space	Key.space	n/a
51.7785	0.072	103557	keystroke_c	c	n/a
51.8985	0.112	103797	keystroke_a	a	n/a
52.1065	0.08	104213	keystroke_g	g	n/a
52.2425	0.088	104485	keystroke_e	e	n/a
52.5465	0.0725	105093	keystroke_Key.space	Key.space	n/a
52.8425	0.016	105685	keystroke_r	r	n/a
53.6825	0.088	107365	keystroke_e	e	n/a
53.8905	0.112	107781	keystroke_l	l	n/a
54.1305	0.088	108261	keystroke_i	i	n/a
54.2585	0.104	108517	keystroke_a	a	n/a
54.3865	0.08	108773	keystroke_n	n	n/a
54.9385	0.08	109877	keystroke_c	c	n/a
55.4425	0.104	110885	keystroke_Key.backspace	Key.backspace	n/a
55.9225	0.064	111845	keystroke_c	c	n/a
56.2345	0.112	112469	keystroke_e	e	n/a
56.6825	0.096	113365	keystroke_Key.space	Key.space	n/a
56.8825	0.08	113765	keystroke_r	r	n/a
57.0505	0.096	114101	keystroke_e	e	n/a
57.3385	0.08	114677	keystroke_t	t	n/a
57.5145	0.072	115029	keystroke_a	a	n/a
57.6345	0.096	115269	keystroke_i	i	n/a
57.8905	0.088	115781	keystroke_l	l	n/a
58.5785	0.096	117157	keystroke_Key.enter	Key.enter	n/a
58.683	9.2185	117366	prompt	n/a	instruction james employer walking\n
59.3385	0.088	118677	keystroke_i	i	n/a
59.5225	0.064	119045	keystroke_n	n	n/a
59.6425	0.104	119285	keystroke_s	s	n/a
59.8505	0.08	119701	keystroke_t	t	n/a
59.9785	0.104	119957	keystroke_r	r	n/a
60.1385	0.08	120277	keystroke_u	u	n/a
60.2985	0.112	120597	keystroke_c	c	n/a
60.5865	0.072	121173	keystroke_t	t	n/a
60.8105	0.1045	121621	keystroke_i	i	n/a
61.027	0.088	122054	keystroke_o	o	n/a
61.179	0.08	122358	keystroke_n	n	n/a
61.299	0.08	122598	keystroke_Key.space	Key.space	n/a
61.475	0.072	122950	keystroke_j	j	n/a
61.7145	0.096	123429	keystroke_a	a	n/a
61.851	0.096	123702	keystroke_m	m	n/a
62.0585	0.096	124117	keystroke_e	e	n/a
62.355	0.104	124710	keystroke_s	s	n/a
62.595	0.096	125190	keystroke_Key.space	Key.space	n/a
62.787	0.088	125574	keystroke_e	e	n/a
62.987	0.112	125974	keystroke_m	m	n/a
63.291	0.104	126582	keystroke_p	p	n/a
63.547	0.112	127094	keystroke_l	l	n/a
63.787	0.08	127574	keystroke_o	o	n/a
64.3385	0.104	128677	keystroke_y	y	n/a
64.754	0.112	129508	keystroke_e	e	n/a
65.1305	0.104	130261	keystroke_r	r	n/a
65.4265	0.096	130853	keystroke_Key.space	Key.space	n/a
65.5785	0.112	131157	keystroke_e	e	n/a
66.2345	0.096	132469	keystroke_Key.backspace	Key.backspace	n/a
66.3705	0.08	132741	keystroke_w	w	n/a
66.5225	0.096	133045	keystroke_a	a	n/a
66.6425	0.12	133285	keystroke_l	l	n/a
66.9065	0.088	133813	keystroke_k	k	n/a
67.0905	0.12	134181	keystroke_i	i	n/a
67.1945	0.088	134389	keystroke_n	n	n/a
67.3305	0.088	134661	keystroke_g	g	n/a
67.8185	0.08	135637	keystroke_Key.enter	Key.enter	n/a
67.9105	9.15	135821	prompt	n/a	leadership ruby confidence link\n
68.4905	0.096	136981	keystroke_l	l	n/a
68.6265	0.088	137253	keystroke_e	e	n/a
68.7785	0.112	137557	keystroke_a	a	n/a
69.3705	0.112	138741	keystroke_d	d	n/a
69.5545	0.096	139109	keystroke_e	e	n/a
69.7305	0.072	139461	keystroke_r	r	n/a
69.9065	0.088	139813	keystroke_s	s	n/a
69.9705	0.096	139941	keystroke_h	h	n/a
70.0905	0.096	140181	keystroke_i	i	n/a
70.3545	0.088	140709	keystroke_p	p	n/a
70.7465	0.104	141493	keystroke_Key.space	Key.space	n/a
70.9785	0.072	141957	keystroke_r	r	n/a
71.2185	0.08	142437	keystroke_u	u	n/a
71.4025	0.08	142805	keystroke_b	b	n/a
71.7305	0.088	143461	keystroke_y	y	n/a
72.1945	0.104	144389	keystroke_Key.space	Key.space	n/a
72.4665	0.096	144933	keystroke_c	c	n/a
72.5465	0.096	145093	keystroke_o	o	n/a
72.7385	0.072	145477	keystroke_n	n	n/a
72.8665	0.112	145733	keystroke_d	d	n/a
72.9865	0.08	145973	keystroke_i	i	n/a
73.6345	0.056	147269	keystroke_Key.backspace	Key.backspace	n/a
73.7865	0.096	147573	keystroke_Key.backspace	Key.backspace	n/a
73.9225	0.072	147845	keystroke_f	f	n/a
74.1065	0.08	148213	keystroke_i	i	n/a
74.4905	0.104	148981	keystroke_d	d	n/a
74.7145	0.072	149429	keystroke_e	e	n/a
74.8105	0.112	149621	keystroke_n	n	n/a
75.0665	0.088	150133	keystroke_c	c	n/a
75.4745	0.104	150949	keystroke_e	e	n/a
75.8745	0.088	151749	keystroke_Key.space	Key.space	n/a
76.1465	0.128	152293	keystroke_l	l	n/a
76.3785	0.104	152757	keystroke_i	i	n/a
76.5625	0.072	153125	keystroke_n	n	n/a
76.6655	0.097	153331	keystroke_k	k	n/a
76.9775	0.08	153955	keystroke_Key.enter	Key.enter	n/a
77.0675	10.8075	154135	prompt	n/a	config solaris welsh routers\n
77.7465	0.088	155493	keystroke_c	c	n/a
77.8505	0.08	155701	keystroke_o	o	n/a
77.9945	0.072	155989	keystroke_n	n	n/a
78.442	0.0965	156884	keystroke_f	f	n/a
78.8585	0.096	157717	keystroke_i	i	n/a
79.0105	0.104	158021	keystroke_g	g	n/a
79.6025	0.088	159205	keystroke_Key.space	Key.space	n/a
79.8345	0.096	159669	keystroke_s	s	n/a
79.9695	0.113	159939	keystroke_o	o	n/a
80.2105	0.096	160421	keystroke_l	l	n/a
80.3625	0.095	160725	keystroke_a	a	n/a
80.5305	0.072	161061	keystroke_r	r	n/a
80.6425	0.0875	161285	keystroke_i	i	n/a
80.786	0.088	161572	keystroke_s	s	n/a
80.977	0.065	161954	keystroke_Key.space	Key.space	n/a
81.4345	0.08	162869	keystroke_v	v	n/a
81.842	0.111	163684	keystroke_Key.backspace	Key.backspace	n/a
82.026	0.096	164052	keystroke_w	w	n/a
82.202	0.08	164404	keystroke_e	e	n/a
82.37	0.12	164740	keystroke_l	l	n/a
82.866	0.104	165732	keystroke_s	s	n/a
83.082	0.096	166164	keystroke_e	e	n/a
83.41	0.128	166820	keystroke_Key.space	Key.space	n/a
84.049	0.104	168098	keystroke_Key.backspace	Key.backspace	n/a
84.241	0.121	168482	keystroke_Key.backspace	Key.backspace	n/a
84.73	0.112	169460	keystroke_h	h	n/a
85.418	0.096	170836	keystroke_Key.space	Key.space	n/a
85.897	0.089	171794	keystroke_r	r	n/a
86.058	0.056	172116	keystroke_o	o	n/a
86.234	0.08	172468	keystroke_u	u	n/a
86.762	0.088	173524	keystroke_t	t	n/a
86.97	0.104	173940	keystroke_e	e	n/a
87.13	0.08	174260	keystroke_r	r	n/a
87.322	0.088	174644	keystroke_s	s	n/a
87.793	0.08	175586	keystroke_Key.enter	Key.enter	n/a
87.881	9.57	175762	prompt	n/a	hide emphasis goes secure\n
88.4575	0.088	176915	keystroke_h	h	n/a
88.6255	0.088	177251	keystroke_i	i	n/a
88.7695	0.08	177539	keystroke_d	d	n/a
88.9455	0.088	177891	keystroke_e	e	n/a
89.0735	0.096	178147	keystroke_Key.space	Key.space	n/a
89.7695	0.112	179539	keystroke_e	e	n/a
89.9695	0.104	179939	keystroke_m	m	n/a
90.1855	0.096	180371	keystroke_p	p	n/a
90.4335	0.072	180867	keystroke_h	h	n/a
90.5775	0.088	181155	keystroke_a	a	n/a
90.7935	0.08	181587	keystroke_s	s	n/a
90.9295	0.096	181859	keystroke_i	i	n/a
92.0895	0.112	184179	keystroke_s	s	n/a
92.2415	0.112	184483	keystroke_Key.space	Key.space	n/a
92.6575	0.128	185315	keystroke_g	g	n/a
93.033	0.1045	186066	keystroke_o	o	n/a
93.385	0.112	186770	keystroke_w	w	n/a
93.9135	0.0955	187827	keystroke_Key.backspace	Key.backspace	n/a
94.089	0.144	188178	keystroke_e	e	n/a
94.537	0.1045	189074	keystroke_s	s	n/a
94.833	0.088	189666	keystroke_Key.space	Key.space	n/a
95.017	0.088	190034	keystroke_s	s	n/a
95.201	0.088	190402	keystroke_e	e	n/a
95.409	0.08	190818	keystroke_c	c	n/a
95.529	0.088	191058	keystroke_u	u	n/a
95.665	0.096	191330	keystroke_r	r	n/a
95.777	0.08	191554	keystroke_e	e	n/a
97.361	0.088	194722	keystroke_Key.enter	Key.enter	n/a
97.4555	9.7805	194911	prompt	n/a	skiing dial permalink ellen\n
98.065	0.088	196130	keystroke_s	s	n/a
98.193	0.12	196386	keystroke_k	k	n/a
98.857	0.128	197714	keystroke_i	i	n/a
99.289	0.136	198578	keystroke_i	i	n/a
99.857	0.144	199714	keystroke_n	n	n/a
101.865	0.12	203730	keystroke_g	g	n/a
102.625	0.16	205250	keystroke_Key.space	Key.space	n/a
103.385	0.096	206770	keystroke_d	d	n/a
103.497	0.088	206994	keystroke_i	i	n/a
103.633	0.08	207266	keystroke_a	a	n/a
103.777	0.088	207554	keystroke_l	l	n/a
103.985	0.088	207970	keystroke_Key.space	Key.space	n/a
104.161	0.08	208322	keystroke_p	p	n/a
104.281	0.088	208562	keystroke_e	e	n/a
104.449	0.08	208898	keystroke_r	r	n/a
104.553	0.104	209106	keystroke_m	m	n/a
104.777	0.088	209554	keystroke_a	a	n/a
105.105	0.104	210210	keystroke_l	l	n/a
105.545	0.096	211090	keystroke_i	i	n/a
105.761	0.072	211522	keystroke_n	n	n/a
105.937	0.088	211874	keystroke_k	k	n/a
106.305	0.088	212610	keystroke_Key.space	Key.space	n/a
106.505	0.088	213010	keystroke_e	e	n/a
106.617	0.08	213234	keystroke_l	l	n/a
106.777	0.08	213554	keystroke_l	l	n/a
106.889	0.072	213778	keystroke_e	e	n/a
106.977	0.064	213954	keystroke_n	n	n/a
107.161	0.072	214322	keystroke_Key.enter	Key.enter	n/a
107.244	9.871	214488	prompt	n/a	indonesia materials educational unique\n
107.913	0.096	215826	keystroke_i	i	n/a
108.097	0.08	216194	keystroke_n	n	n/a
108.265	0.112	216530	keystroke_d	d	n/a
108.369	0.096	216738	keystroke_o	o	n/a
108.801	0.072	217602	keystroke_n	n	n/a
108.953	0.08	217906	keystroke_e	e	n/a
109.193	0.088	218386	keystroke_s	s	n/a
109.321	0.072	218642	keystroke_i	i	n/a
109.457	0.08	218914	keystroke_a	a	n/a
109.825	0.088	219650	keystroke_Key.space	Key.space	n/a
110.057	0.088	220114	keystroke_m	m	n/a
110.177	0.089	220354	keystroke_a	a	n/a
110.385	0.072	220770	keystroke_t	t	n/a
110.809	0.088	221618	keystroke_e	e	n/a
110.993	0.056	221986	keystroke_r	r	n/a
111.161	0.104	222322	keystroke_i	i	n/a
111.345	0.088	222690	keystroke_a	a	n/a
111.465	0.096	222930	keystroke_l	l	n/a
112.217	0.096	224434	keystroke_s	s	n/a
112.697	0.08	225394	keystroke_Key.space	Key.space	n/a
112.929	0.112	225858	keystroke_e	e	n/a
113.201	0.088	226402	keystroke_d	d	n/a
113.353	0.08	226706	keystroke_u	u	n/a
113.937	0.096	227874	keystroke_c	c	n/a
114.121	0.112	228242	keystroke_a	a	n/a
114.433	0.104	228866	keystroke_t	t	n/a
114.593	0.0805	229186	keystroke_i	i	n/a
114.769	0.088	229538	keystroke_o	o	n/a
114.913	0.08	229826	keystroke_n	n	n/a
115.089	0.08	230178	keystroke_a	a	n/a
115.185	0.096	230370	keystroke_l	l	n/a
115.409	0.088	230818	keystroke_Key.space	Key.space	n/a
115.641	0.096	231282	keystroke_u	u	n/a
115.873	0.032	231746	keystroke_n	n	n/a
116.001	0.112	232002	keystroke_i	i	n/a
116.297	0.096	232594	keystroke_q	q	n/a
116.433	0.088	232866	keystroke_u	u	n/a
116.633	0.08	233266	keystroke_e	e	n/a
117.025	0.088	234050	keystroke_Key.enter	Key.enter	n/a
117.1205	12.274	234241	prompt	n/a	brunette sends viewing declare\n
117.881	0.08	235762	keystroke_b	b	n/a
118.089	0.072	236178	keystroke_r	r	n/a
118.217	0.08	236434	keystroke_u	u	n/a
118.577	0.112	237154	keystroke_n	n	n/a
118.841	0.096	237682	keystroke_e	e	n/a
119.065	0.072	238130	keystroke_t	t	n/a
119.217	0.08	238434	keystroke_t	t	n/a
119.449	0.08	238898	keystroke_e	e	n/a
119.633	0.104	239266	keystroke_r	r	n/a
120.313	0.088	240626	keystroke_Key.backspace	Key.backspace	n/a
120.601	0.104	241202	keystroke_Key.space	Key.space	n/a
120.929	0.104	241858	keystroke_s	s	n/a
121.097	0.096	242194	keystroke_a	a	n/a
121.649	0.08	243298	keystroke_Key.backspace	Key.backspace	n/a
121.833	0.016	243666	keystroke_Key.backspace	Key.backspace	n/a
122.393	0.112	244786	keystroke_s	s	n/a
122.673	0.096	245346	keystroke_e	e	n/a
122.841	0.104	245682	keystroke_n	n	n/a
123.073	0.072	246146	keystroke_d	d	n/a
123.273	0.088	246546	keystroke_s	s	n/a
123.585	0.088	247170	keystroke_Key.space	Key.space	n/a
123.945	0.112	247890	keystroke_v	v	n/a
124.249	0.096	248498	keystroke_i	i	n/a
124.457	0.096	248914	keystroke_e	e	n/a
125.377	0.08	250754	keystroke_w	w	n/a
125.593	0.12	251186	keystroke_i	i	n/a
125.753	0.128	251506	keystroke_n	n	n/a
125.913	0.08	251826	keystroke_g	g	n/a
126.113	0.104	252226	keystroke_Key.space	Key.space	n/a
126.457	0.112	252914	keystroke_d	d	n/a
126.649	0.104	253298	keystroke_e	e	n/a
126.833	0.136	253666	keystroke_l	l	n/a
127.169	0.136	254338	keystroke_a	a	n/a
127.633	0.08	255266	keystroke_Key.backspace	Key.backspace	n/a
127.793	0.072	255586	keystroke_Key.backspace	Key.backspace	n/a
127.857	0.104	255714	keystroke_c	c	n/a
128.057	0.08	256114	keystroke_l	l	n/a
128.265	0.096	256530	keystroke_a	a	n/a
128.481	0.096	256962	keystroke_r	r	n/a
128.802	0.111	257604	keystroke_e	e	n/a
129.305	0.088	258610	keystroke_Key.enter	Key.enter	n/a
129.4	10.4915	258800	prompt	n/a	logan lighter border worth\n
129.929	0.104	259858	keystroke_l	l	n/a
130.1375	0.08	260275	keystroke_o	o	n/a
131.1535	0.048	262307	keystroke_h	h	n/a
131.6255	0.08	263251	keystroke_Key.backspace	Key.backspace	n/a
131.7215	0.088	263443	keystroke_g	g	n/a
131.8815	0.096	263763	keystroke_a	a	n/a
132.0255	0.112	264051	keystroke_n	n	n/a
132.2975	0.096	264595	keystroke_Key.space	Key.space	n/a
132.4735	0.088	264947	keystroke_l	l	n/a
132.6655	0.072	265331	keystroke_i	i	n/a
132.7615	0.096	265523	keystroke_g	g	n/a
132.8575	0.056	265715	keystroke_h	h	n/a
132.9775	0.096	265955	keystroke_t	t	n/a
133.1375	0.096	266275	keystroke_e	e	n/a
133.2575	0.088	266515	keystroke_r	r	n/a
133.5535	0.096	267107	keystroke_Key.space	Key.space	n/a
133.7375	0.104	267475	keystroke_p	p	n/a
134.1295	0.072	268259	keystroke_Key.backspace	Key.backspace	n/a
134.2335	0.088	268467	keystroke_b	b	n/a
134.3935	0.072	268787	keystroke_o	o	n/a
135.1535	0.12	270307	keystroke_r	r	n/a
135.4575	0.096	270915	keystroke_d	d	n/a
135.6655	0.088	271331	keystroke_e	e	n/a
135.8895	0.104	271779	keystroke_r	r	n/a
136.2815	0.088	272563	keystroke_Key.space	Key.space	n/a
136.5615	0.088	273123	keystroke_w	w	n/a
136.6895	0.088	273379	keystroke_o	o	n/a
136.8415	0.08	273683	keystroke_t	t	n/a
137.0015	0.08	274003	keystroke_h	h	n/a
137.4175	0.08	274835	keystroke_Key.backspace	Key.backspace	n/a
137.6015	0.08	275203	keystroke_Key.backspace	Key.backspace	n/a
137.7375	0.096	275475	keystroke_e	e	n/a
137.9455	0.088	275891	keystroke_t	t	n/a
138.3455	0.088	276691	keystroke_Key.backspace	Key.backspace	n/a
138.5295	0.088	277059	keystroke_Key.backspace	Key.backspace	n/a
138.8655	0.08	277731	keystroke_r	r	n/a
139.0895	0.072	278179	keystroke_t	t	n/a
139.1935	0.072	278387	keystroke_h	h	n/a
139.801	0.088	279602	keystroke_Key.enter	Key.enter	n/a
139.8975	8.905	279795	prompt	n/a	career morning queensland tomorrow\n
140.6335	0.104	281267	keystroke_c	c	n/a
140.8175	0.096	281635	keystroke_a	a	n/a
141.0255	0.096	282051	keystroke_r	r	n/a
141.4095	0.096	282819	keystroke_e	e	n/a
141.6175	0.08	283235	keystroke_e	e	n/a
141.8655	0.088	283731	keystroke_r	r	n/a
142.0655	0.088	284131	keystroke_Key.space	Key.space	n/a
142.2335	0.096	284467	keystroke_m	m	n/a
142.3775	0.096	284755	keystroke_o	o	n/a
142.4975	0.088	284995	keystroke_r	r	n/a
142.6095	0.072	285219	keystroke_n	n	n/a
142.7215	0.096	285443	keystroke_i	i	n/a
142.8015	0.096	285603	keystroke_n	n	n/a
142.9295	0.08	285859	keystroke_g	g	n/a
143.0735	0.096	286147	keystroke_Key.space	Key.space	n/a
143.6975	0.104	287395	keystroke_q	q	n/a
143.8575	0.088	287715	keystroke_u	u	n/a
144.0415	0.088	288083	keystroke_e	e	n/a
144.2175	0.08	288435	keystroke_e	e	n/a
144.3775	0.112	288755	keystroke_n	n	n/a
144.6015	0.088	289203	keystroke_s	s	n/a
144.8255	0.08	289651	keystroke_t	t	n/a
144.9775	0.088	289955	keystroke_a	a	n/a
145.0735	0.072	290147	keystroke_n	n	n/a
145.1695	0.096	290339	keystroke_d	d	n/a
145.2975	0.088	290595	keystroke_Key.space	Key.space	n/a
145.4735	0.072	290947	keystroke_t	t	n/a
145.5775	0.088	291155	keystroke_o	o	n/a
146.3775	0.112	292755	keystroke_n	n	n/a
146.7295	0.08	293459	keystroke_Key.backspace	Key.backspace	n/a
146.9375	0.096	293875	keystroke_m	m	n/a
147.1295	0.088	294259	keystroke_o	o	n/a
147.3215	0.088	294643	keystroke_r	r	n/a
147.497	0.08	294994	keystroke_r	r	n/a
147.601	0.072	295202	keystroke_o	o	n/a
147.745	0.0725	295490	keystroke_w	w	n/a
148.7215	0.08	297443	keystroke_Key.enter	Key.enter	n/a
148.809	10.4575	297618	prompt	n/a	lamps passwords throughout metabolism\n
149.5615	0.144	299123	keystroke_l	l	n/a
149.8655	0.104	299731	keystroke_a	a	n/a
150.0175	0.112	300035	keystroke_m	m	n/a
150.2335	0.088	300467	keystroke_p	p	n/a
150.5135	0.096	301027	keystroke_s	s	n/a
150.7375	0.056	301475	keystroke_Key.space	Key.space	n/a
150.9455	0.08	301891	keystroke_p	p	n/a
151.0495	0.104	302099	keystroke_a	a	n/a
151.2255	0.072	302451	keystroke_s	s	n/a
151.3695	0.08	302739	keystroke_s	s	n/a
151.5935	0.088	303187	keystroke_w	w	n/a
151.6975	0.096	303395	keystroke_o	o	n/a
151.8415	0.072	303683	keystroke_r	r	n/a
152.0575	0.104	304115	keystroke_d	d	n/a
152.2655	0.08	304531	keystroke_s	s	n/a
152.5535	0.104	305107	keystroke_Key.space	Key.space	n/a
152.7615	0.088	305523	keystroke_t	t	n/a
153.0015	0.096	306003	keystroke_h	h	n/a
153.1375	0.096	306275	keystroke_r	r	n/a
153.2655	0.072	306531	keystroke_o	o	n/a
153.4255	0.088	306851	keystroke_u	u	n/a
153.5935	0.096	307187	keystroke_g	g	n/a
153.7455	0.08	307491	keystroke_h	h	n/a
153.9455	0.072	307891	keystroke_o	o	n/a
154.0655	0.08	308131	keystroke_u	u	n/a
154.1855	0.088	308371	keystroke_t	t	n/a
154.849	0.1045	309698	keystroke_Key.space	Key.space	n/a
155.0735	0.088	310147	keystroke_m	m	n/a
155.1775	0.088	310355	keystroke_e	e	n/a
155.6175	0.088	311235	keystroke_t	t	n/a
155.9055	0.088	311811	keystroke_a	a	n/a
156.9615	0.095	313923	keystroke_b	b	n/a
157.5455	0.136	315091	keystroke_o	o	n/a
157.8415	0.096	315683	keystroke_l	l	n/a
158.0575	0.08	316115	keystroke_i	i	n/a
158.1535	0.088	316307	keystroke_s	s	n/a
158.7055	0.112	317411	keystroke_m	m	n/a
159.1855	0.08	318371	keystroke_Key.enter	Key.enter	n/a
159.272	10.2585	318544	prompt	n/a	habitat dollar danny equipment\n
160.1295	0.088	320259	keystroke_h	h	n/a
160.3375	0.104	320675	keystroke_a	a	n/a
160.6415	0.056	321283	keystroke_v	v	n/a
161.1605	0.081	322321	keystroke_Key.backspace	Key.backspace	n/a
161.2895	0.088	322579	keystroke_b	b	n/a
161.4735	0.12	322947	keystroke_i	i	n/a
162.0815	0.12	324163	keystroke_t	t	n/a
162.3295	0.104	324659	keystroke_a	a	n/a
162.5375	0.08	325075	keystroke_t	t	n/a
162.8175	0.096	325635	keystroke_Key.space	Key.space	n/a
163.0015	0.144	326003	keystroke_f	f	n/a
163.2175	0.112	326435	keystroke_o	o	n/a
163.7685	0.065	327537	keystroke_Key.backspace	Key.backspace	n/a
163.9045	0.072	327809	keystroke_Key.backspace	Key.backspace	n/a
163.9935	0.104	327987	keystroke_d	d	n/a
164.1935	0.12	328387	keystroke_o	o	n/a
164.4895	0.088	328979	keystroke_l	l	n/a
164.6415	0.096	329283	keystroke_l	l	n/a
164.7775	0.104	329555	keystroke_a	a	n/a
165.0095	0.096	330019	keystroke_r	r	n/a
165.2965	0.088	330593	keystroke_Key.space	Key.space	n/a
165.5535	0.096	331107	keystroke_d	d	n/a
165.8575	0.096	331715	keystroke_a	a	n/a
165.9855	0.072	331971	keystroke_n	n	n/a
166.1455	0.088	332291	keystroke_n	n	n/a
166.2815	0.096	332563	keystroke_y	y	n/a
166.4565	0.097	332913	keystroke_Key.space	Key.space	n/a
166.6895	0.136	333379	keystroke_e	e	n/a
167.2655	0.1035	334531	keystroke_q	q	n/a
167.433	0.112	334866	keystroke_u	u	n/a
167.665	0.096	335330	keystroke_i	i	n/a
167.913	0.096	335826	keystroke_p	p	n/a
168.193	0.104	336386	keystroke_m	m	n/a
168.313	0.112	336626	keystroke_e	e	n/a
168.409	0.08	336818	keystroke_n	n	n/a
168.553	0.072	337106	keystroke_t	t	n/a
169.449	0.08	338898	keystroke_Key.enter	Key.enter	n/a
169.5345	7.42	339069	prompt	n/a	crack scout stock valid\n
170.193	0.152	340386	keystroke_c	c	n/a
170.473	0.08	340946	keystroke_r	r	n/a
170.6325	0.112	341265	keystroke_a	a	n/a
170.8405	0.0965	341681	keystroke_c	c	n/a
171.057	0.112	342114	keystroke_k	k	n/a
171.329	0.104	342658	keystroke_Key.space	Key.space	n/a
171.497	0.088	342994	keystroke_s	s	n/a
171.721	0.112	343442	keystroke_c	c	n/a
171.881	0.064	343762	keystroke_o	o	n/a
172.017	0.088	344034	keystroke_u	u	n/a
172.193	0.096	344386	keystroke_t	t	n/a
172.489	0.104	344978	keystroke_Key.space	Key.space	n/a
172.737	0.104	345474	keystroke_s	s	n/a
173.025	0.088	346050	keystroke_t	t	n/a
173.169	0.096	346338	keystroke_o	o	n/a
173.369	0.08	346738	keystroke_c	c	n/a
173.537	0.12	347074	keystroke_k	k	n/a
175.193	0.088	350386	keystroke_Key.space	Key.space	n/a
175.513	0.12	351026	keystroke_v	v	n/a
175.745	0.096	351490	keystroke_a	a	n/a
175.921	0.096	351842	keystroke_l	l	n/a
176.121	0.08	352242	keystroke_i	i	n/a
176.449	0.112	352898	keystroke_d	d	n/a
176.8725	0.08	353745	keystroke_Key.enter	Key.enter	n/a
176.9615	10.6175	353923	prompt	n/a	briefing kidney lightweight studio\n
177.6805	0.0725	355361	keystroke_g	g	n/a
178.137	0.0875	356274	keystroke_Key.backspace	Key.backspace	n/a
178.2485	0.0885	356497	keystroke_b	b	n/a
179.041	0.112	358082	keystroke_r	r	n/a
179.5125	0.0965	359025	keystroke_i	i	n/a
179.8405	0.096	359681	keystroke_e	e	n/a
180.1205	0.12	360241	keystroke_d	d	n/a
180.7925	0.088	361585	keystroke_Key.backspace	Key.backspace	n/a
180.9285	0.08	361857	keystroke_f	f	n/a
181.481	0.08	362962	keystroke_i	i	n/a
181.649	0.104	363298	keystroke_n	n	n/a
182.0485	0.1045	364097	keystroke_g	g	n/a
182.5285	0.096	365057	keystroke_Key.space	Key.space	n/a
182.7845	0.104	365569	keystroke_k	k	n/a
182.977	0.0795	365954	keystroke_i	i	n/a
183.0645	0.112	366129	keystroke_d	d	n/a
183.2085	0.088	366417	keystroke_n	n	n/a
183.3445	0.104	366689	keystroke_e	e	n/a
183.6005	0.088	367201	keystroke_y	y	n/a
183.8005	0.088	367601	keystroke_Key.space	Key.space	n/a
183.9605	0.088	367921	keystroke_l	l	n/a
184.1525	0.08	368305	keystroke_i	i	n/a
184.2645	0.08	368529	keystroke_g	g	n/a
184.3445	0.072	368689	keystroke_h	h	n/a
184.5045	0.096	369009	keystroke_t	t	n/a
184.8565	0.096	369713	keystroke_w	w	n/a
185.0485	0.088	370097	keystroke_e	e	n/a
185.1925	0.088	370385	keystroke_i	i	n/a
185.3605	0.096	370721	keystroke_g	g	n/a
185.4485	0.08	370897	keystroke_h	h	n/a
185.5765	0.072	371153	keystroke_t	t	n/a
186.0085	0.112	372017	keystroke_Key.space	Key.space	n/a
186.2965	0.12	372593	keystroke_s	s	n/a
186.5445	0.072	373089	keystroke_t	t	n/a
186.6485	0.08	373297	keystroke_u	u	n/a
186.7925	0.096	373585	keystroke_d	d	n/a
186.9205	0.128	373841	keystroke_i	i	n/a
187.1925	0.104	374385	keystroke_o	o	n/a
187.4885	0.088	374977	keystroke_Key.enter	Key.enter	n/a
187.588	10.1745	375176	prompt	n/a	distance actually lending hamburg\n
188.3845	0.136	376769	keystroke_d	d	n/a
188.5285	0.08	377057	keystroke_i	i	n/a
188.6565	0.096	377313	keystroke_s	s	n/a
188.8965	0.104	377793	keystroke_t	t	n/a
189.0725	0.096	378145	keystroke_a	a	n/a
189.1845	0.08	378369	keystroke_n	n	n/a
189.3845	0.072	378769	keystroke_c	c	n/a
189.5605	0.08	379121	keystroke_e	e	n/a
189.7045	0.08	379409	keystroke_Key.space	Key.space	n/a
189.9285	0.104	379857	keystroke_a	a	n/a
190.1365	0.08	380273	keystroke_c	c	n/a
190.3445	0.072	380689	keystroke_t	t	n/a
190.4565	0.096	380913	keystroke_u	u	n/a
190.5765	0.08	381153	keystroke_a	a	n/a
190.7205	0.0805	381441	keystroke_l	l	n/a
190.881	0.088	381762	keystroke_l	l	n/a
190.993	0.088	381986	keystroke_y	y	n/a
191.112	0.088	382224	keystroke_Key.space	Key.space	n/a
191.313	0.088	382626	keystroke_l	l	n/a
191.44	0.065	382880	keystroke_e	e	n/a
191.737	0.112	383474	keystroke_n	n	n/a
192.2965	0.1205	384593	keystroke_d	d	n/a
192.6565	0.127	385313	keystroke_i	i	n/a
192.7595	0.1135	385519	keystroke_n	n	n/a
192.913	0.0955	385826	keystroke_g	g	n/a
193.0315	0.105	386063	keystroke_Key.space	Key.space	n/a
193.377	0.1195	386754	keystroke_h	h	n/a
193.5435	0.096	387087	keystroke_a	a	n/a
193.6795	0.12	387359	keystroke_m	m	n/a
193.9355	0.104	387871	keystroke_b	b	n/a
194.0635	0.088	388127	keystroke_u	u	n/a
194.5835	0.097	389167	keystroke_r	r	n/a
194.8645	0.072	389729	keystroke_d	d	n/a
195.3835	0.0875	390767	keystroke_Key.backspace	Key.backspace	n/a
195.48	0.071	390960	keystroke_f	f	n/a
196.0795	0.112	392159	keystroke_Key.backspace	Key.backspace	n/a
196.552	0.072	393104	keystroke_g	g	n/a
197.6875	0.0725	395375	keystroke_Key.enter	Key.enter	n/a
197.7675	12.7205	395535	prompt	n/a	elsewhere gossip accomplish before\n
198.584	0.104	397168	keystroke_e	e	n/a
198.736	0.104	397472	keystroke_l	l	n/a
198.992	0.1115	397984	keystroke_e	e	n/a
199.6715	0.096	399343	keystroke_Key.backspace	Key.backspace	n/a
199.8075	0.072	399615	keystroke_s	s	n/a
199.9755	0.08	399951	keystroke_e	e	n/a
200.1595	0.088	400319	keystroke_w	w	n/a
200.2635	0.064	400527	keystroke_h	h	n/a
200.3675	0.08	400735	keystroke_e	e	n/a
200.4795	0.104	400959	keystroke_r	r	n/a
200.5595	0.088	401119	keystroke_e	e	n/a
200.783	0.08	401566	keystroke_Key.space	Key.space	n/a
201.0235	0.096	402047	keystroke_g	g	n/a
201.1915	0.104	402383	keystroke_o	o	n/a
201.375	0.08	402750	keystroke_d	d	n/a
201.5515	0.088	403103	keystroke_d	d	n/a
201.7515	0.1115	403503	keystroke_i	i	n/a
202.055	0.0885	404110	keystroke_Key.backspace	Key.backspace	n/a
202.2155	0.0875	404431	keystroke_Key.backspace	Key.backspace	n/a
202.375	0.08	404750	keystroke_Key.backspace	Key.backspace	n/a
202.5985	0.0885	405197	keystroke_s	s	n/a
202.783	0.0875	405566	keystroke_s	s	n/a
202.9185	0.1195	405837	keystroke_i	i	n/a
203.358	0.0995	406716	keystroke_p	p	n/a
203.832	0.0735	407664	keystroke_Key.space	Key.space	n/a
204.21	0.1195	408420	keystroke_a	a	n/a
204.44	0.053	408880	keystroke_c	c	n/a
204.5805	0.064	409161	keystroke_c	c	n/a
204.6685	0.081	409337	keystroke_o	o	n/a
204.8375	0.072	409675	keystroke_m	m	n/a
204.9975	0.0875	409995	keystroke_p	p	n/a
205.149	0.1045	410298	keystroke_l	l	n/a
205.4215	0.0635	410843	keystroke_u	u	n/a
205.613	0.1035	411226	keystroke_s	s	n/a
205.7325	0.081	411465	keystroke_h	h	n/a
206.228	0.06	412456	keystroke_Key.backspace	Key.backspace	n/a
206.3355	0.0695	412671	keystroke_Key.backspace	Key.backspace	n/a
206.5005	0.08	413001	keystroke_Key.backspace	Key.backspace	n/a
206.764	0.089	413528	keystroke_i	i	n/a
206.917	0.104	413834	keystroke_s	s	n/a
207.029	0.08	414058	keystroke_h	h	n/a
208.7635	0.1195	417527	keystroke_Key.space	Key.space	n/a
209.0715	0.0555	418143	keystroke_g	g	n/a
209.428	0.0835	418856	keystroke_Key.backspace	Key.backspace	n/a
209.5195	0.0605	419039	keystroke_b	b	n/a
209.639	0.0875	419278	keystroke_e	e	n/a
209.854	0.1295	419708	keystroke_f	f	n/a
210.0275	0.016	420055	keystroke_o	o	n/a
210.044	0.098	420088	keystroke_r	r	n/a
210.135	0.087	420270	keystroke_e	e	n/a
210.4215	0.0665	420843	keystroke_Key.enter	Key.enter	n/a
210.4895	8.3995	420979	prompt	n/a	details newer conclusion ones\n
211.103	0.112	422206	keystroke_d	d	n/a
211.287	0.1115	422574	keystroke_e	e	n/a
211.5105	0.0885	423021	keystroke_t	t	n/a
211.662	0.089	423324	keystroke_a	a	n/a
211.7665	0.095	423533	keystroke_i	i	n/a
211.9905	0.0945	423981	keystroke_l	l	n/a
212.1745	0.0795	424349	keystroke_s	s	n/a
212.489	0.087	424978	keystroke_Key.space	Key.space	n/a
212.7895	0.096	425579	keystroke_n	n	n/a
212.949	0.096	425898	keystroke_e	e	n/a
213.4285	0.052	426857	keystroke_w	w	n/a
214.44	0.0955	428880	keystroke_e	e	n/a
214.78	0.084	429560	keystroke_r	r	n/a
215.1105	0.0965	430221	keystroke_Key.space	Key.space	n/a
215.3075	0.0365	430615	keystroke_c	c	n/a
215.344	0.091	430688	keystroke_o	o	n/a
215.4545	0.072	430909	keystroke_n	n	n/a
215.9195	0.1115	431839	keystroke_c	c	n/a
216.111	0.088	432222	keystroke_l	l	n/a
216.3195	0.08	432639	keystroke_u	u	n/a
216.4635	0.088	432927	keystroke_s	s	n/a
216.6795	0.136	433359	keystroke_i	i	n/a
216.9275	0.088	433855	keystroke_o	o	n/a
217.1035	0.088	434207	keystroke_n	n	n/a
217.712	0.104	435424	keystroke_Key.space	Key.space	n/a
217.984	0.089	435968	keystroke_o	o	n/a
218.12	0.088	436240	keystroke_n	n	n/a
218.264	0.0875	436528	keystroke_e	e	n/a
218.4645	0.079	436929	keystroke_s	s	n/a
218.807	0.08	437614	keystroke_Key.enter	Key.enter	n/a
218.8955	6.0815	437791	prompt	n/a	repeated away knew imperial\n
219.644	0.0865	439288	keystroke_r	r	n/a
219.7545	0.0995	439509	keystroke_e	e	n/a
219.95	0.1035	439900	keystroke_p	p	n/a
220.0855	0.097	440171	keystroke_e	e	n/a
220.2785	0.096	440557	keystroke_a	a	n/a
220.7345	0.0955	441469	keystroke_t	t	n/a
220.9255	0.07	441851	keystroke_e	e	n/a
221.069	0.075	442138	keystroke_d	d	n/a
221.3815	0.08	442763	keystroke_Key.space	Key.space	n/a
221.549	0.056	443098	keystroke_a	a	n/a
221.702	0.1115	443404	keystroke_w	w	n/a
221.9095	0.0795	443819	keystroke_a	a	n/a
222.1085	0.0355	444217	keystroke_y	y	n/a
222.2055	0.06	444411	keystroke_Key.space	Key.space	n/a
222.353	0.088	444706	keystroke_k	k	n/a
222.473	0.1115	444946	keystroke_e	e	n/a
222.656	0.0515	445312	keystroke_n	n	n/a
222.9045	0.036	445809	keystroke_Key.backspace	Key.backspace	n/a
222.992	0.056	445984	keystroke_Key.backspace	Key.backspace	n/a
223.14	0.0845	446280	keystroke_n	n	n/a
223.2405	0.072	446481	keystroke_e	e	n/a
223.404	0.0915	446808	keystroke_w	w	n/a
223.7155	0.0805	447431	keystroke_Key.space	Key.space	n/a
223.956	0.0875	447912	keystroke_i	i	n/a
224.139	0.06	448278	keystroke_m	m	n/a
224.28	0.0715	448560	keystroke_p	p	n/a
224.3955	0.0875	448791	keystroke_e	e	n/a
224.523	0.0595	449046	keystroke_r	r	n/a
224.5945	0.0535	449189	keystroke_i	i	n/a
224.67	0.0535	449340	keystroke_a	a	n/a
224.724	0.048	449448	keystroke_l	l	n/a
224.903	0.0715	449806	keystroke_Key.enter	Key.enter	n/a
224.981	7.7295	449962	prompt	n/a	leasing tutorial pickup web\n
225.6825	0.1035	451365	keystroke_l	l	n/a
225.826	0.08	451652	keystroke_e	e	n/a
225.9625	0.0795	451925	keystroke_a	a	n/a
226.106	0.096	452212	keystroke_s	s	n/a
226.218	0.0955	452436	keystroke_i	i	n/a
226.3215	0.072	452643	keystroke_n	n	n/a
226.4585	0.0635	452917	keystroke_g	g	n/a
226.602	0.088	453204	keystroke_Key.space	Key.space	n/a
226.842	0.08	453684	keystroke_t	t	n/a
227.034	0.08	454068	keystroke_u	u	n/a
227.154	0.08	454308	keystroke_t	t	n/a
227.441	0.0865	454882	keystroke_o	o	n/a
227.649	0.128	455298	keystroke_r	r	n/a
227.8165	0.088	455633	keystroke_i	i	n/a
228.089	0.0755	456178	keystroke_s	s	n/a
228.4395	0.0795	456879	keystroke_Key.backspace	Key.backspace	n/a
228.5275	0.0755	457055	keystroke_a	a	n/a
228.6165	0.06	457233	keystroke_l	l	n/a
229.324	0.08	458648	keystroke_Key.space	Key.space	n/a
229.468	0.104	458936	keystroke_p	p	n/a
229.684	0.104	459368	keystroke_i	i	n/a
229.804	0.104	459608	keystroke_c	c	n/a
229.924	0.0885	459848	keystroke_k	k	n/a
230.413	0.08	460826	keystroke_u	u	n/a
230.581	0.088	461162	keystroke_p	p	n/a
230.765	0.088	461530	keystroke_Key.space	Key.space	n/a
230.909	0.112	461818	keystroke_w	w	n/a
231.35	0.119	462700	keystroke_r	r	n/a
231.7405	0.04	463481	keystroke_Key.backspace	Key.backspace	n/a
231.8285	0.088	463657	keystroke_e	e	n/a
232.0525	0.1035	464105	keystroke_b	b	n/a
232.596	0.112	465192	keystroke_Key.enter	Key.enter	n/a
232.7165	17.1145	465433	prompt	n/a	services fragrance secretariat vegas\n
233.3745	0.089	466749	keystroke_s	s	n/a
233.571	0.0845	467142	keystroke_e	e	n/a
233.858	0.097	467716	keystroke_r	r	n/a
234.1865	0.1195	468373	keystroke_v	v	n/a
234.4345	0.072	468869	keystroke_i	i	n/a
234.5745	0.0995	469149	keystroke_c	c	n/a
234.762	0.0695	469524	keystroke_e	e	n/a
234.963	0.0835	469926	keystroke_s	s	n/a
235.2225	0.0955	470445	keystroke_Key.space	Key.space	n/a
235.4905	0.124	470981	keystroke_f	f	n/a
235.7305	0.0955	471461	keystroke_r	r	n/a
235.906	0.096	471812	keystroke_a	a	n/a
236.2105	0.12	472421	keystroke_g	g	n/a
236.7545	0.1195	473509	keystroke_r	r	n/a
237.106	0.0755	474212	keystroke_a	a	n/a
237.2375	0.096	474475	keystroke_n	n	n/a
237.485	0.1195	474970	keystroke_c	c	n/a
237.785	0.112	475570	keystroke_e	e	n/a
237.9525	0.072	475905	keystroke_Key.space	Key.space	n/a
238.5525	0.104	477105	keystroke_s	s	n/a
238.761	0.096	477522	keystroke_e	e	n/a
239.009	0.1195	478018	keystroke_c	c	n/a
239.2485	0.112	478497	keystroke_r	r	n/a
239.4005	0.112	478801	keystroke_e	e	n/a
239.6725	0.12	479345	keystroke_t	t	n/a
240.208	0.0965	480416	keystroke_a	a	n/a
240.4725	0.096	480945	keystroke_r	r	n/a
240.6645	0.112	481329	keystroke_i	i	n/a
240.8345	0.096	481669	keystroke_a	a	n/a
242.212	0.104	484424	keystroke_Key.backspace	Key.backspace	n/a
242.436	0.097	484872	keystroke_Key.backspace	Key.backspace	n/a
242.652	0.113	485304	keystroke_Key.backspace	Key.backspace	n/a
245.7025	0.12	491405	keystroke_r	r	n/a
247.1125	0.114	494225	keystroke_i	i	n/a
247.2515	0.068	494503	keystroke_a	a	n/a
247.445	0.0665	494890	keystroke_t	t	n/a
247.749	0.096	495498	keystroke_Key.space	Key.space	n/a
248.4565	0.1595	496913	keystroke_v	v	n/a
248.732	0.0805	497464	keystroke_e	e	n/a
249.1	0.088	498200	keystroke_g	g	n/a
249.2925	0.12	498585	keystroke_a	a	n/a
249.4605	0.088	498921	keystroke_s	s	n/a
249.7485	0.08	499497	keystroke_Key.enter	Key.enter	n/a
249.837	10.5995	499674	prompt	n/a	replaced naked connectivity encountered\n
250.4685	0.104	500937	keystroke_r	r	n/a
250.6365	0.056	501273	keystroke_e	e	n/a
250.7245	0.088	501449	keystroke_p	p	n/a
250.869	0.1035	501738	keystroke_l	l	n/a
251.0205	0.104	502041	keystroke_a	a	n/a
251.1885	0.088	502377	keystroke_c	c	n/a
251.3245	0.096	502649	keystroke_e	e	n/a
251.508	0.088	503016	keystroke_s	s	n/a
251.644	0.08	503288	keystroke_Key.space	Key.space	n/a
251.828	0.08	503656	keystroke_n	n	n/a
252.028	0.0955	504056	keystroke_a	a	n/a
252.171	0.056	504342	keystroke_k	k	n/a
252.4575	0.0535	504915	keystroke_e	e	n/a
252.655	0.0795	505310	keystroke_d	d	n/a
252.87	0.064	505740	keystroke_Key.space	Key.space	n/a
253.076	0.0825	506152	keystroke_o	o	n/a
253.406	0.0875	506812	keystroke_Key.backspace	Key.backspace	n/a
253.6465	0.0955	507293	keystroke_c	c	n/a
253.798	0.088	507596	keystroke_o	o	n/a
253.998	0.064	507996	keystroke_n	n	n/a
254.134	0.08	508268	keystroke_n	n	n/a
254.23	0.0755	508460	keystroke_e	e	n/a
254.3895	0.088	508779	keystroke_c	c	n/a
254.6055	0.0725	509211	keystroke_t	t	n/a
254.726	0.072	509452	keystroke_i	i	n/a
254.926	0.104	509852	keystroke_v	v	n/a
255.166	0.104	510332	keystroke_i	i	n/a
255.8785	0.1235	511757	keystroke_t	t	n/a
256.1695	0.068	512339	keystroke_y	y	n/a
257.013	0.0665	514026	keystroke_Key.space	Key.space	n/a
257.133	0.096	514266	keystroke_e	e	n/a
257.2695	0.088	514539	keystroke_n	n	n/a
257.933	0.1045	515866	keystroke_c	c	n/a
258.0615	0.073	516123	keystroke_o	o	n/a
258.2135	0.0725	516427	keystroke_u	u	n/a
258.3995	0.08	516799	keystroke_n	n	n/a
258.5755	0.096	517151	keystroke_t	t	n/a
258.904	0.112	517808	keystroke_e	e	n/a
259.112	0.0965	518224	keystroke_r	r	n/a
259.264	0.0965	518528	keystroke_e	e	n/a
259.448	0.096	518896	keystroke_d	d	n/a
260.3455	0.088	520691	keystroke_Key.enter	Key.enter	n/a
260.4415	8.906	520883	prompt	n/a	derek boards regular width\n
261.178	0.136	522356	keystroke_d	d	n/a
261.378	0.0965	522756	keystroke_e	e	n/a
261.698	0.08	523396	keystroke_r	r	n/a
261.842	0.096	523684	keystroke_e	e	n/a
262.186	0.096	524372	keystroke_f	f	n/a
262.589	0.079	525178	keystroke_Key.backspace	Key.backspace	n/a
262.753	0.068	525506	keystroke_k	k	n/a
263.0885	0.0885	526177	keystroke_Key.space	Key.space	n/a
263.3805	0.072	526761	keystroke_b	b	n/a
263.512	0.0565	527024	keystroke_o	o	n/a
263.656	0.0965	527312	keystroke_a	a	n/a
263.8405	0.067	527681	keystroke_r	r	n/a
264.2075	0.085	528415	keystroke_d	d	n/a
264.376	0.088	528752	keystroke_s	s	n/a
264.548	0.1075	529096	keystroke_Key.space	Key.space	n/a
264.82	0.06	529640	keystroke_r	r	n/a
264.9195	0.04	529839	keystroke_e	e	n/a
265.531	0.0795	531062	keystroke_g	g	n/a
265.8515	0.1275	531703	keystroke_u	u	n/a
266.163	0.112	532326	keystroke_l	l	n/a
266.387	0.136	532774	keystroke_a	a	n/a
266.963	0.1035	533926	keystroke_r	r	n/a
267.1945	0.0615	534389	keystroke_Key.space	Key.space	n/a
267.33	0.1125	534660	keystroke_w	w	n/a
267.4825	0.088	534965	keystroke_i	i	n/a
267.77	0.0715	535540	keystroke_d	d	n/a
268.1175	0.058	536235	keystroke_t	t	n/a
268.2175	0.0875	536435	keystroke_h	h	n/a
269.257	0.088	538514	keystroke_Key.enter	Key.enter	n/a
269.353	8.394	538706	prompt	n/a	adopted lets cart hereby\n
270.089	0.1125	540178	keystroke_a	a	n/a
270.3295	0.12	540659	keystroke_d	d	n/a
270.5605	0.104	541121	keystroke_o	o	n/a
270.7875	0.1015	541575	keystroke_p	p	n/a
272.335	0.1115	544670	keystroke_t	t	n/a
272.566	0.0845	545132	keystroke_e	e	n/a
272.6825	0.096	545365	keystroke_d	d	n/a
273.0345	0.112	546069	keystroke_Key.space	Key.space	n/a
273.2985	0.1045	546597	keystroke_l	l	n/a
273.427	0.096	546854	keystroke_e	e	n/a
273.595	0.0715	547190	keystroke_t	t	n/a
273.7945	0.08	547589	keystroke_s	s	n/a
273.8905	0.0955	547781	keystroke_Key.space	Key.space	n/a
274.038	0.0715	548076	keystroke_c	c	n/a
274.1535	0.0225	548307	keystroke_a	a	n/a
274.246	0.032	548492	keystroke_r	r	n/a
274.4415	0.076	548883	keystroke_t	t	n/a
274.7335	0.036	549467	keystroke_Key.space	Key.space	n/a
274.957	0.088	549914	keystroke_h	h	n/a
275.141	0.1045	550282	keystroke_e	e	n/a
275.381	0.12	550762	keystroke_r	r	n/a
275.889	0.1115	551778	keystroke_e	e	n/a
276.1885	0.12	552377	keystroke_b	b	n/a
276.477	0.072	552954	keystroke_y	y	n/a
277.657	0.088	555314	keystroke_Key.enter	Key.enter	n/a
277.752	7.226	555504	prompt	n/a	reply phases obesity candidates\n
278.3885	0.056	556777	keystroke_r	r	n/a
278.5485	0.112	557097	keystroke_e	e	n/a
278.788	0.096	557576	keystroke_p	p	n/a
278.964	0.076	557928	keystroke_l	l	n/a
279.12	0.0595	558240	keystroke_y	y	n/a
279.2595	0.084	558519	keystroke_Key.space	Key.space	n/a
279.3915	0.039	558783	keystroke_r	r	n/a
279.6195	0.088	559239	keystroke_Key.backspace	Key.backspace	n/a
279.8445	0.095	559689	keystroke_p	p	n/a
280.0675	0.08	560135	keystroke_h	h	n/a
280.2275	0.088	560455	keystroke_a	a	n/a
280.411	0.056	560822	keystroke_s	s	n/a
280.551	0.077	561102	keystroke_e	e	n/a
280.7545	0.048	561509	keystroke_s	s	n/a
280.8865	0.073	561773	keystroke_Key.space	Key.space	n/a
281.1065	0.104	562213	keystroke_o	o	n/a
281.3065	0.08	562613	keystroke_b	b	n/a
281.458	0.0875	562916	keystroke_e	e	n/a
281.623	0.0585	563246	keystroke_s	s	n/a
281.7895	0.073	563579	keystroke_i	i	n/a
281.957	0.085	563914	keystroke_t	t	n/a
282.2025	0.0655	564405	keystroke_y	y	n/a
282.5055	0.088	565011	keystroke_Key.space	Key.space	n/a
282.7775	0.0785	565555	keystroke_c	c	n/a
282.912	0.0565	565824	keystroke_a	a	n/a
282.9845	0.091	565969	keystroke_n	n	n/a
283.1205	0.073	566241	keystroke_d	d	n/a
283.2015	0.088	566403	keystroke_i	i	n/a
283.4655	0.112	566931	keystroke_d	d	n/a
283.8915	0.029	567783	keystroke_a	a	n/a
284.0405	0.08	568081	keystroke_t	t	n/a
284.2725	0.04	568545	keystroke_e	e	n/a
284.476	0.056	568952	keystroke_s	s	n/a
284.896	0.08	569792	keystroke_Key.enter	Key.enter	n/a
284.988	15.9985	569976	prompt	n/a	directories referenced modifications mess\n
286.0945	0.0855	572189	keystroke_r	r	n/a
286.252	0.066	572504	keystroke_e	e	n/a
286.9075	0.0615	573815	keystroke_Key.backspace	Key.backspace	n/a
287.016	0.057	574032	keystroke_Key.backspace	Key.backspace	n/a
287.145	0.076	574290	keystroke_Key.backspace	Key.backspace	n/a
287.5405	0.056	575081	keystroke_r	r	n/a
287.665	0.0585	575330	keystroke_e	e	n/a
288.081	0.112	576162	keystroke_d	d	n/a
288.7395	0.092	577479	keystroke_Key.backspace	Key.backspace	n/a
288.895	0.073	577790	keystroke_Key.backspace	Key.backspace	n/a
289.0155	0.032	578031	keystroke_Key.backspace	Key.backspace	n/a
289.091	0.0645	578182	keystroke_Key.backspace	Key.backspace	n/a
289.443	0.152	578886	keystroke_d	d	n/a
290.3075	0.0795	580615	keystroke_i	i	n/a
291.1315	0.0945	582263	keystroke_r	r	n/a
291.282	0.0355	582564	keystroke_e	e	n/a
291.4095	0.1	582819	keystroke_c	c	n/a
291.617	0.0685	583234	keystroke_t	t	n/a
291.7345	0.111	583469	keystroke_o	o	n/a
291.87	0.076	583740	keystroke_r	r	n/a
292.002	0.0675	584004	keystroke_i	i	n/a
292.0835	0.045	584167	keystroke_e	e	n/a
292.189	0.049	584378	keystroke_s	s	n/a
294.0075	0.0915	588015	keystroke_Key.space	Key.space	n/a
294.349	0.099	588698	keystroke_r	r	n/a
294.488	0.095	588976	keystroke_e	e	n/a
294.8305	0.081	589661	keystroke_f	f	n/a
294.939	0.099	589878	keystroke_e	e	n/a
295.079	0.0635	590158	keystroke_r	r	n/a
295.126	0.0875	590252	keystroke_e	e	n/a
295.2225	0.036	590445	keystroke_n	n	n/a
295.3355	0.067	590671	keystroke_c	c	n/a
295.4985	0.1035	590997	keystroke_e	e	n/a
295.73	0.104	591460	keystroke_s	s	n/a
295.978	0.068	591956	keystroke_s	s	n/a
296.4085	0.072	592817	keystroke_Key.backspace	Key.backspace	n/a
296.5445	0.088	593089	keystroke_Key.backspace	Key.backspace	n/a
296.7135	0.074	593427	keystroke_d	d	n/a
297.26	0.084	594520	keystroke_Key.space	Key.space	n/a
297.481	0.103	594962	keystroke_m	m	n/a
297.632	0.0965	595264	keystroke_o	o	n/a
297.768	0.104	595536	keystroke_d	d	n/a
297.88	0.08	595760	keystroke_i	i	n/a
298.1635	0.084	596327	keystroke_f	f	n/a
298.5355	0.112	597071	keystroke_i	i	n/a
298.9355	0.104	597871	keystroke_c	c	n/a
299.143	0.088	598286	keystroke_a	a	n/a
299.3515	0.072	598703	keystroke_t	t	n/a
299.4395	0.08	598879	keystroke_i	i	n/a
299.6075	0.0875	599215	keystroke_o	o	n/a
299.791	0.096	599582	keystroke_n	n	n/a
300.0315	0.096	600063	keystroke_s	s	n/a
300.2885	0.072	600577	keystroke_Key.space	Key.space	n/a
300.4405	0.088	600881	keystroke_m	m	n/a
300.5045	0.088	601009	keystroke_e	e	n/a
300.6805	0.0635	601361	keystroke_s	s	n/a
300.8235	0.056	601647	keystroke_s	s	n/a
300.9275	0.0565	601855	keystroke_Key.enter	Key.enter	n/a
300.991	8.078	601982	prompt	n/a	developed convinced beat large\n
301.5595	0.12	603119	keystroke_d	d	n/a
301.7595	0.088	603519	keystroke_e	e	n/a
301.9675	0.064	603935	keystroke_v	v	n/a
302.0955	0.0875	604191	keystroke_e	e	n/a
302.255	0.089	604510	keystroke_l	l	n/a
302.404	0.048	604808	keystroke_o	o	n/a
302.56	0.042	605120	keystroke_p	p	n/a
302.7465	0.096	605493	keystroke_e	e	n/a
303.038	0.088	606076	keystroke_d	d	n/a
303.5375	0.078	607075	keystroke_Key.space	Key.space	n/a
303.697	0.052	607394	keystroke_c	c	n/a
303.7475	0.0695	607495	keystroke_o	o	n/a
303.8975	0.0475	607795	keystroke_n	n	n/a
303.993	0.052	607986	keystroke_s	s	n/a
304.061	0.0875	608122	keystroke_i	i	n/a
304.3315	0.061	608663	keystroke_Key.backspace	Key.backspace	n/a
304.4605	0.08	608921	keystroke_Key.backspace	Key.backspace	n/a
304.5325	0.096	609065	keystroke_v	v	n/a
304.7965	0.088	609593	keystroke_i	i	n/a
305.18	0.092	610360	keystroke_n	n	n/a
305.424	0.072	610848	keystroke_c	c	n/a
305.6075	0.112	611215	keystroke_e	e	n/a
305.863	0.105	611726	keystroke_d	d	n/a
306.1075	0.088	612215	keystroke_Key.space	Key.space	n/a
306.2355	0.104	612471	keystroke_b	b	n/a
306.3955	0.112	612791	keystroke_e	e	n/a
306.5795	0.0955	613159	keystroke_a	a	n/a
306.763	0.052	613526	keystroke_t	t	n/a
306.984	0.0505	613968	keystroke_Key.space	Key.space	n/a
307.0905	0.0875	614181	keystroke_l	l	n/a
307.192	0.05	614384	keystroke_a	a	n/a
307.298	0.0815	614596	keystroke_r	r	n/a
307.51	0.072	615020	keystroke_d	d	n/a
307.87	0.0355	615740	keystroke_e	e	n/a
308.0575	0.044	616115	keystroke_Key.backspace	Key.backspace	n/a
308.148	0.0855	616296	keystroke_Key.backspace	Key.backspace	n/a
308.2175	0.12	616435	keystroke_g	g	n/a
308.3775	0.104	616755	keystroke_e	e	n/a
308.978	0.089	617956	keystroke_Key.enter	Key.enter	n/a
309.0755	19.5555	618151	prompt	n/a	contemporary purse thoroughly cleaning\n
309.7835	0.096	619567	keystroke_c	c	n/a
309.872	0.08	619744	keystroke_o	o	n/a
310.064	0.0875	620128	keystroke_n	n	n/a
310.419	0.096	620838	keystroke_t	t	n/a
310.7705	0.088	621541	keystroke_e	e	n/a
310.9145	0.0515	621829	keystroke_m	m	n/a
311.054	0.0775	622108	keystroke_p	p	n/a
311.222	0.073	622444	keystroke_o	o	n/a
311.326	0.0915	622652	keystroke_r	r	n/a
311.8525	0.128	623705	keystroke_t	t	n/a
312.4205	0.088	624841	keystroke_Key.backspace	Key.backspace	n/a
312.5485	0.096	625097	keystroke_a	a	n/a
312.716	0.127	625432	keystroke_r	r	n/a
313.091	0.096	626182	keystroke_y	y	n/a
313.6615	0.086	627323	keystroke_Key.space	Key.space	n/a
313.821	0.096	627642	keystroke_p	p	n/a
314.005	0.08	628010	keystroke_u	u	n/a
314.165	0.072	628330	keystroke_r	r	n/a
314.364	0.096	628728	keystroke_s	s	n/a
314.612	0.128	629224	keystroke_e	e	n/a
315.3275	0.096	630655	keystroke_Key.space	Key.space	n/a
315.5395	0.064	631079	keystroke_t	t	n/a
315.663	0.081	631326	keystroke_h	h	n/a
315.827	0.101	631654	keystroke_r	r	n/a
315.955	0.072	631910	keystroke_o	o	n/a
316.107	0.08	632214	keystroke_u	u	n/a
316.203	0.0875	632406	keystroke_g	g	n/a
316.3865	0.036	632773	keystroke_h	h	n/a
316.676	0.1105	633352	keystroke_l	l	n/a
316.866	0.057	633732	keystroke_y	y	n/a
318.745	0.152	637490	keystroke_Key.backspace	Key.backspace	n/a
320.616	0.128	641232	keystroke_Key.backspace	Key.backspace	n/a
321.1035	0.12	642207	keystroke_Key.backspace	Key.backspace	n/a
322.8195	0.095	645639	keystroke_Key.backspace	Key.backspace	n/a
323.019	0.08	646038	keystroke_Key.backspace	Key.backspace	n/a
323.203	0.096	646406	keystroke_Key.backspace	Key.backspace	n/a
323.6985	0.096	647397	keystroke_Key.backspace	Key.backspace	n/a
324.634	0.088	649268	keystroke_o	o	n/a
324.89	0.05	649780	keystroke_r	r	n/a
324.9655	0.064	649931	keystroke_o	o	n/a
325.0855	0.0605	650171	keystroke_u	u	n/a
325.202	0.072	650404	keystroke_g	g	n/a
325.292	0.034	650584	keystroke_h	h	n/a
325.51	0.152	651020	keystroke_l	l	n/a
325.678	0.0775	651356	keystroke_l	l	n/a
326.129	0.064	652258	keystroke_Key.backspace	Key.backspace	n/a
326.2895	0.072	652579	keystroke_y	y	n/a
326.9135	0.071	653827	keystroke_Key.space	Key.space	n/a
327.433	0.1205	654866	keystroke_c	c	n/a
327.5535	0.096	655107	keystroke_l	l	n/a
327.69	0.089	655380	keystroke_e	e	n/a
327.868	0.087	655736	keystroke_a	a	n/a
327.971	0.072	655942	keystroke_n	n	n/a
328.0995	0.088	656199	keystroke_i	i	n/a
328.1715	0.08	656343	keystroke_n	n	n/a
328.277	0.064	656554	keystroke_g	g	n/a
328.5655	0.064	657131	keystroke_Key.enter	Key.enter	n/a
328.6355	6.151	657271	prompt	n/a	over sign herbs cassette\n
329.2005	0.096	658401	keystroke_o	o	n/a
329.3365	0.088	658673	keystroke_v	v	n/a
329.4965	0.064	658993	keystroke_e	e	n/a
329.6165	0.072	659233	keystroke_r	r	n/a
329.7275	0.089	659455	keystroke_Key.space	Key.space	n/a
329.824	0.088	659648	keystroke_s	s	n/a
329.92	0.0805	659840	keystroke_i	i	n/a
330.0645	0.072	660129	keystroke_g	g	n/a
330.1765	0.088	660353	keystroke_n	n	n/a
330.399	0.072	660798	keystroke_Key.space	Key.space	n/a
330.5765	0.08	661153	keystroke_h	h	n/a
330.6805	0.0795	661361	keystroke_e	e	n/a
331.128	0.104	662256	keystroke_r	r	n/a
331.495	0.021	662990	keystroke_b	b	n/a
331.6505	0.0675	663301	keystroke_s	s	n/a
331.854	0.056	663708	keystroke_Key.space	Key.space	n/a
331.991	0.088	663982	keystroke_c	c	n/a
332.159	0.088	664318	keystroke_a	a	n/a
332.327	0.072	664654	keystroke_s	s	n/a
332.479	0.0875	664958	keystroke_s	s	n/a
332.6545	0.08	665309	keystroke_e	e	n/a
332.9745	0.04	665949	keystroke_y	y	n/a
333.3895	0.081	666779	keystroke_Key.backspace	Key.backspace	n/a
333.5255	0.0885	667051	keystroke_t	t	n/a
334.3215	0.072	668643	keystroke_t	t	n/a
334.444	0.073	668888	keystroke_e	e	n/a
334.7475	0.0365	669495	keystroke_Key.enter	Key.enter	n/a
334.788	8.2515	669576	prompt	n/a	they're peoples fingers comfortable\n
335.3885	0.072	670777	keystroke_t	t	n/a
335.4885	0.068	670977	keystroke_h	h	n/a
335.5645	0.12	671129	keystroke_e	e	n/a
336.4275	0.097	672855	keystroke_y	y	n/a
336.629	0.095	673258	keystroke_'	'	n/a
336.781	0.143	673562	keystroke_r	r	n/a
336.908	0.104	673816	keystroke_e	e	n/a
337.368	0.1115	674736	keystroke_Key.space	Key.space	n/a
337.8	0.0875	675600	keystroke_p	p	n/a
337.9345	0.081	675869	keystroke_e	e	n/a
338.0075	0.088	676015	keystroke_o	o	n/a
338.1035	0.104	676207	keystroke_p	p	n/a
338.1915	0.096	676383	keystroke_l	l	n/a
338.3035	0.064	676607	keystroke_e	e	n/a
338.443	0.0995	676886	keystroke_'	'	n/a
338.5675	0.043	677135	keystroke_s	s	n/a
338.708	0.082	677416	keystroke_Key.space	Key.space	n/a
339.0055	0.105	678011	keystroke_f	f	n/a
339.1465	0.088	678293	keystroke_i	i	n/a
339.2665	0.08	678533	keystroke_n	n	n/a
339.5225	0.096	679045	keystroke_g	g	n/a
339.7385	0.0965	679477	keystroke_e	e	n/a
339.883	0.088	679766	keystroke_r	r	n/a
340.0905	0.088	680181	keystroke_s	s	n/a
340.3625	0.08	680725	keystroke_Key.space	Key.space	n/a
340.546	0.088	681092	keystroke_c	c	n/a
340.634	0.08	681268	keystroke_o	o	n/a
340.898	0.143	681796	keystroke_m	m	n/a
341.37	0.112	682740	keystroke_f	f	n/a
341.561	0.0805	683122	keystroke_o	o	n/a
341.6975	0.104	683395	keystroke_r	r	n/a
341.9455	0.088	683891	keystroke_t	t	n/a
342.1135	0.079	684227	keystroke_a	a	n/a
342.3295	0.072	684659	keystroke_b	b	n/a
342.4095	0.088	684819	keystroke_l	l	n/a
342.5295	0.071	685059	keystroke_e	e	n/a
342.965	0.0715	685930	keystroke_Key.enter	Key.enter	n/a
343.045	6.317	686090	prompt	n/a	pastor reload them nasty\n
343.8125	0.096	687625	keystroke_p	p	n/a
343.9645	0.1045	687929	keystroke_a	a	n/a
344.125	0.096	688250	keystroke_s	s	n/a
344.3635	0.0965	688727	keystroke_t	t	n/a
344.5195	0.0605	689039	keystroke_o	o	n/a
344.604	0.072	689208	keystroke_r	r	n/a
344.895	0.105	689790	keystroke_Key.space	Key.space	n/a
345.135	0.033	690270	keystroke_r	r	n/a
345.215	0.083	690430	keystroke_e	e	n/a
345.347	0.0685	690694	keystroke_l	l	n/a
345.5035	0.08	691007	keystroke_o	o	n/a
345.5995	0.112	691199	keystroke_a	a	n/a
345.7505	0.049	691501	keystroke_d	d	n/a
346.1345	0.0895	692269	keystroke_Key.space	Key.space	n/a
346.296	0.072	692592	keystroke_t	t	n/a
346.384	0.087	692768	keystroke_h	h	n/a
346.4395	0.088	692879	keystroke_e	e	n/a
346.6075	0.088	693215	keystroke_m	m	n/a
346.744	0.087	693488	keystroke_Key.space	Key.space	n/a
346.977	0.0745	693954	keystroke_n	n	n/a
347.0675	0.1045	694135	keystroke_a	a	n/a
347.244	0.1045	694488	keystroke_s	s	n/a
347.502	0.0725	695004	keystroke_y	y	n/a
348.1125	0.069	696225	keystroke_Key.backspace	Key.backspace	n/a
348.3195	0.04	696639	keystroke_r	r	n/a
348.5365	0.088	697073	keystroke_Key.backspace	Key.backspace	n/a
348.6415	0.112	697283	keystroke_t	t	n/a
348.8735	0.088	697747	keystroke_y	y	n/a
349.285	0.0745	698570	keystroke_Key.enter	Key.enter	n/a
349.367	8.0975	698734	prompt	n/a	admin sources weapon richmond\n
349.937	0.136	699874	keystroke_a	a	n/a
350.1125	0.104	700225	keystroke_d	d	n/a
350.4725	0.135	700945	keystroke_m	m	n/a
350.7765	0.111	701553	keystroke_i	i	n/a
351.025	0.128	702050	keystroke_n	n	n/a
351.3115	0.088	702623	keystroke_Key.space	Key.space	n/a
351.4725	0.096	702945	keystroke_s	s	n/a
351.5605	0.0545	703121	keystroke_o	o	n/a
351.68	0.076	703360	keystroke_u	u	n/a
351.8	0.056	703600	keystroke_r	r	n/a
351.9995	0.088	703999	keystroke_c	c	n/a
352.1355	0.0485	704271	keystroke_e	e	n/a
352.4475	0.08	704895	keystroke_s	s	n/a
353.391	0.0725	706782	keystroke_Key.space	Key.space	n/a
353.665	0.064	707330	keystroke_w	w	n/a
353.893	0.1075	707786	keystroke_e	e	n/a
354.395	0.1045	708790	keystroke_a	a	n/a
354.66	0.1125	709320	keystroke_p	p	n/a
354.9005	0.096	709801	keystroke_o	o	n/a
355.101	0.088	710202	keystroke_n	n	n/a
355.3085	0.0955	710617	keystroke_Key.space	Key.space	n/a
355.6295	0.1195	711259	keystroke_r	r	n/a
355.789	0.0895	711578	keystroke_i	i	n/a
355.9175	0.08	711835	keystroke_c	c	n/a
355.9895	0.088	711979	keystroke_h	h	n/a
356.206	0.071	712412	keystroke_m	m	n/a
356.3415	0.08	712683	keystroke_o	o	n/a
356.4375	0.072	712875	keystroke_n	n	n/a
356.574	0.104	713148	keystroke_d	d	n/a
357.383	0.078	714766	keystroke_Key.enter	Key.enter	n/a
357.472	6.3365	714944	prompt	n/a	mills insight carol license\n
358.1185	0.08	716237	keystroke_m	m	n/a
358.27	0.08	716540	keystroke_i	i	n/a
358.4785	0.064	716957	keystroke_l	l	n/a
358.6305	0.0725	717261	keystroke_l	l	n/a
358.751	0.096	717502	keystroke_s	s	n/a
358.8635	0.071	717727	keystroke_Key.space	Key.space	n/a
359.0225	0.071	718045	keystroke_i	i	n/a
359.166	0.073	718332	keystroke_n	n	n/a
359.3755	0.095	718751	keystroke_s	s	n/a
359.4935	0.081	718987	keystroke_i	i	n/a
359.679	0.087	719358	keystroke_g	g	n/a
359.774	0.0735	719548	keystroke_h	h	n/a
359.9025	0.064	719805	keystroke_t	t	n/a
360.5735	0.0815	721147	keystroke_Key.space	Key.space	n/a
361.0305	0.0965	722061	keystroke_c	c	n/a
361.182	0.089	722364	keystroke_a	a	n/a
361.3675	0.072	722735	keystroke_r	r	n/a
361.4715	0.095	722943	keystroke_o	o	n/a
361.687	0.072	723374	keystroke_l	l	n/a
361.8235	0.088	723647	keystroke_Key.space	Key.space	n/a
361.9755	0.102	723951	keystroke_l	l	n/a
362.175	0.088	724350	keystroke_i	i	n/a
362.294	0.0815	724588	keystroke_c	c	n/a
362.4315	0.08	724863	keystroke_e	e	n/a
362.5355	0.063	725071	keystroke_n	n	n/a
362.9035	0.088	725807	keystroke_c	c	n/a
363.214	0.073	726428	keystroke_Key.backspace	Key.backspace	n/a
363.294	0.0805	726588	keystroke_s	s	n/a
363.4555	0.0805	726911	keystroke_e	e	n/a
363.735	0.0715	727470	keystroke_Key.enter	Key.enter	n/a
363.813	10.804	727626	prompt	n/a	char controversy focus navy\n
364.5355	0.1035	729071	keystroke_c	c	n/a
364.6465	0.064	729293	keystroke_h	h	n/a
364.7265	0.0965	729453	keystroke_a	a	n/a
364.903	0.0885	729806	keystroke_r	r	n/a
365.5195	0.096	731039	keystroke_Key.space	Key.space	n/a
365.7425	0.1205	731485	keystroke_c	c	n/a
365.855	0.08	731710	keystroke_o	o	n/a
366.0235	0.072	732047	keystroke_n	n	n/a
366.167	0.112	732334	keystroke_t	t	n/a
366.335	0.0965	732670	keystroke_r	r	n/a
366.5275	0.12	733055	keystroke_o	o	n/a
366.943	0.1285	733886	keystroke_v	v	n/a
367.1835	0.0955	734367	keystroke_e	e	n/a
367.359	0.112	734718	keystroke_r	r	n/a
367.6945	0.064	735389	keystroke_y	y	n/a
368.375	0.1045	736750	keystroke_Key.backspace	Key.backspace	n/a
369.68	0.119	739360	keystroke_s	s	n/a
370.1275	0.1205	740255	keystroke_y	y	n/a
371.1195	0.0965	742239	keystroke_Key.space	Key.space	n/a
371.415	0.1205	742830	keystroke_f	f	n/a
371.5755	0.0885	743151	keystroke_o	o	n/a
371.847	0.1045	743694	keystroke_c	c	n/a
372.0395	0.088	744079	keystroke_u	u	n/a
372.5515	0.112	745103	keystroke_s	s	n/a
372.935	0.0965	745870	keystroke_Key.space	Key.space	n/a
373.1595	0.08	746319	keystroke_n	n	n/a
373.28	0.111	746560	keystroke_a	a	n/a
373.527	0.0805	747054	keystroke_v	v	n/a
373.6715	0.096	747343	keystroke_e	e	n/a
373.983	0.0805	747966	keystroke_Key.backspace	Key.backspace	n/a
374.0875	0.104	748175	keystroke_y	y	n/a
374.5355	0.08	749071	keystroke_Key.enter	Key.enter	n/a
374.6225	11.74	749245	prompt	n/a	pharmaceuticals jeans whatever order\n
375.352	0.119	750704	keystroke_p	p	n/a
375.6235	0.064	751247	keystroke_h	h	n/a
375.848	0.119	751696	keystroke_a	a	n/a
376.1115	0.096	752223	keystroke_r	r	n/a
376.336	0.12	752672	keystroke_m	m	n/a
376.6955	0.0965	753391	keystroke_a	a	n/a
377.896	0.088	755792	keystroke_c	c	n/a
378.1035	0.088	756207	keystroke_e	e	n/a
378.272	0.104	756544	keystroke_u	u	n/a
378.5675	0.016	757135	keystroke_t	t	n/a
378.6395	0.096	757279	keystroke_i	i	n/a
379.0085	0.119	758017	keystroke_c	c	n/a
379.1755	0.112	758351	keystroke_a	a	n/a
379.336	0.104	758672	keystroke_l	l	n/a
380.1275	0.112	760255	keystroke_s	s	n/a
380.296	0.088	760592	keystroke_Key.space	Key.space	n/a
380.5605	0.111	761121	keystroke_j	j	n/a
380.7115	0.0885	761423	keystroke_e	e	n/a
380.904	0.0965	761808	keystroke_a	a	n/a
381.0485	0.079	762097	keystroke_n	n	n/a
381.288	0.088	762576	keystroke_s	s	n/a
381.76	0.088	763520	keystroke_Key.space	Key.space	n/a
381.936	0.1045	763872	keystroke_w	w	n/a
382.288	0.096	764576	keystroke_h	h	n/a
382.448	0.0885	764896	keystroke_a	a	n/a
382.6565	0.071	765313	keystroke_t	t	n/a
383.48	0.0965	766960	keystroke_e	e	n/a
383.6965	0.0795	767393	keystroke_v	v	n/a
383.84	0.088	767680	keystroke_e	e	n/a
383.992	0.08	767984	keystroke_r	r	n/a
384.1205	0.088	768241	keystroke_Key.space	Key.space	n/a
384.32	0.088	768640	keystroke_o	o	n/a
384.5685	0.08	769137	keystroke_r	r	n/a
384.76	0.08	769520	keystroke_d	d	n/a
384.904	0.0965	769808	keystroke_e	e	n/a
385.0565	0.081	770113	keystroke_r	r	n/a
386.288	0.0725	772576	keystroke_Key.enter	Key.enter	n/a
386.37	5.089	772740	prompt	n/a	client verbal comp sean\n
387.169	0.1035	774338	keystroke_c	c	n/a
387.2725	0.088	774545	keystroke_l	l	n/a
387.4485	0.0805	774897	keystroke_i	i	n/a
387.585	0.089	775170	keystroke_e	e	n/a
387.681	0.0725	775362	keystroke_n	n	n/a
387.8245	0.064	775649	keystroke_t	t	n/a
388.041	0.088	776082	keystroke_Key.space	Key.space	n/a
388.273	0.0955	776546	keystroke_v	v	n/a
388.441	0.088	776882	keystroke_e	e	n/a
388.8325	0.136	777665	keystroke_r	r	n/a
389.241	0.0955	778482	keystroke_b	b	n/a
389.4645	0.0805	778929	keystroke_a	a	n/a
389.657	0.1285	779314	keystroke_l	l	n/a
389.9205	0.0965	779841	keystroke_Key.space	Key.space	n/a
390.057	0.104	780114	keystroke_c	c	n/a
390.145	0.088	780290	keystroke_o	o	n/a
390.281	0.0715	780562	keystroke_m	m	n/a
390.4325	0.0965	780865	keystroke_p	p	n/a
390.601	0.096	781202	keystroke_Key.space	Key.space	n/a
390.745	0.0805	781490	keystroke_s	s	n/a
390.9205	0.0805	781841	keystroke_e	e	n/a
391.057	0.0885	782114	keystroke_a	a	n/a
391.1615	0.0725	782323	keystroke_n	n	n/a
391.3845	0.073	782769	keystroke_Key.enter	Key.enter	n/a
391.4635	10.7105	782927	prompt	n/a	widespread exemption maintains poem\n
392.258	0.12	784516	keystroke_w	w	n/a
392.4975	0.104	784995	keystroke_i	i	n/a
392.898	0.1035	785796	keystroke_d	d	n/a
393.202	0.112	786404	keystroke_e	e	n/a
393.4815	0.111	786963	keystroke_s	s	n/a
393.6175	0.0795	787235	keystroke_p	p	n/a
393.778	0.128	787556	keystroke_r	r	n/a
393.938	0.1035	787876	keystroke_e	e	n/a
394.1375	0.0885	788275	keystroke_a	a	n/a
394.5455	0.095	789091	keystroke_d	d	n/a
394.714	0.079	789428	keystroke_Key.space	Key.space	n/a
394.922	0.096	789844	keystroke_e	e	n/a
395.1615	0.0965	790323	keystroke_x	x	n/a
395.45	0.08	790900	keystroke_e	e	n/a
395.6015	0.096	791203	keystroke_m	m	n/a
395.794	0.088	791588	keystroke_p	p	n/a
395.97	0.072	791940	keystroke_t	t	n/a
396.0825	0.1035	792165	keystroke_i	i	n/a
396.658	0.112	793316	keystroke_o	o	n/a
397.0345	0.088	794069	keystroke_n	n	n/a
397.265	0.0895	794530	keystroke_Key.space	Key.space	n/a
397.4415	0.089	794883	keystroke_m	m	n/a
397.5465	0.104	795093	keystroke_a	a	n/a
397.6665	0.0875	795333	keystroke_i	i	n/a
397.8265	0.079	795653	keystroke_n	n	n/a
397.9785	0.112	795957	keystroke_s	s	n/a
398.3935	0.089	796787	keystroke_Key.backspace	Key.backspace	n/a
398.5625	0.1045	797125	keystroke_t	t	n/a
398.739	0.0945	797478	keystroke_a	a	n/a
398.8425	0.079	797685	keystroke_i	i	n/a
399.003	0.08	798006	keystroke_n	n	n/a
399.195	0.0865	798390	keystroke_s	s	n/a
399.3465	0.1115	798693	keystroke_Key.space	Key.space	n/a
399.547	0.104	799094	keystroke_p	p	n/a
399.8105	0.0965	799621	keystroke_o	o	n/a
400.099	0.0965	800198	keystroke_w	w	n/a
400.3155	0.0795	800631	keystroke_e	e	n/a
400.483	0.04	800966	keystroke_m	m	n/a
400.7075	0.079	801415	keystroke_Key.backspace	Key.backspace	n/a
400.867	0.079	801734	keystroke_Key.backspace	Key.backspace	n/a
401.027	0.1045	802054	keystroke_Key.backspace	Key.backspace	n/a
401.1785	0.073	802357	keystroke_e	e	n/a
401.3155	0.0715	802631	keystroke_m	m	n/a
402.0835	0.088	804167	keystroke_Key.enter	Key.enter	n/a
402.1805	10.746	804361	prompt	n/a	fifth polyester vista title\n
402.8435	0.119	805687	keystroke_d	d	n/a
403.0195	0.12	806039	keystroke_i	i	n/a
403.2595	0.0955	806519	keystroke_d	d	n/a
403.6265	0.08	807253	keystroke_Key.backspace	Key.backspace	n/a
403.787	0.08	807574	keystroke_Key.backspace	Key.backspace	n/a
403.94	0.0865	807880	keystroke_Key.backspace	Key.backspace	n/a
404.5235	0.0805	809047	keystroke_f	f	n/a
404.62	0.072	809240	keystroke_i	i	n/a
404.748	0.08	809496	keystroke_f	f	n/a
404.9955	0.0805	809991	keystroke_t	t	n/a
405.387	0.104	810774	keystroke_h	h	n/a
405.643	0.088	811286	keystroke_Key.space	Key.space	n/a
405.811	0.104	811622	keystroke_p	p	n/a
406.147	0.104	812294	keystroke_o	o	n/a
406.4435	0.1035	812887	keystroke_l	l	n/a
406.764	0.1195	813528	keystroke_y	y	n/a
407.1	0.047	814200	keystroke_s	s	n/a
407.3955	0.072	814791	keystroke_Key.backspace	Key.backspace	n/a
407.4925	0.0945	814985	keystroke_e	e	n/a
407.683	0.0885	815366	keystroke_s	s	n/a
408.9075	0.097	817815	keystroke_t	t	n/a
409.2445	0.128	818489	keystroke_e	e	n/a
409.557	0.0945	819114	keystroke_r	r	n/a
409.7075	0.08	819415	keystroke_Key.space	Key.space	n/a
410.037	0.1265	820074	keystroke_v	v	n/a
410.42	0.104	820840	keystroke_i	i	n/a
410.7715	0.1045	821543	keystroke_s	s	n/a
411.124	0.0955	822248	keystroke_t	t	n/a
411.396	0.096	822792	keystroke_a	a	n/a
411.676	0.08	823352	keystroke_Key.space	Key.space	n/a
411.941	0.087	823882	keystroke_t	t	n/a
412.044	0.1215	824088	keystroke_i	i	n/a
412.1885	0.0715	824377	keystroke_t	t	n/a
412.341	0.095	824682	keystroke_l	l	n/a
412.516	0.0885	825032	keystroke_e	e	n/a
412.844	0.08	825688	keystroke_Key.enter	Key.enter	n/a
412.934	7.4095	825868	prompt	n/a	officer museum eggs required\n
413.5575	0.071	827115	keystroke_o	o	n/a
413.7245	0.081	827449	keystroke_f	f	n/a
413.9	0.073	827800	keystroke_f	f	n/a
414.0845	0.088	828169	keystroke_i	i	n/a
414.2605	0.096	828521	keystroke_c	c	n/a
414.4845	0.113	828969	keystroke_e	e	n/a
414.7015	0.079	829403	keystroke_r	r	n/a
414.8285	0.08	829657	keystroke_Key.space	Key.space	n/a
414.9965	0.081	829993	keystroke_m	m	n/a
415.2045	0.08	830409	keystroke_u	u	n/a
415.398	0.087	830796	keystroke_s	s	n/a
415.6215	0.08	831243	keystroke_e	e	n/a
415.8285	0.1055	831657	keystroke_u	u	n/a
416.0775	0.12	832155	keystroke_m	m	n/a
416.6285	0.088	833257	keystroke_Key.space	Key.space	n/a
416.893	0.104	833786	keystroke_e	e	n/a
417.1245	0.0805	834249	keystroke_g	g	n/a
417.277	0.073	834554	keystroke_g	g	n/a
417.501	0.0795	835002	keystroke_s	s	n/a
417.877	0.088	835754	keystroke_Key.space	Key.space	n/a
418.149	0.096	836298	keystroke_r	r	n/a
418.309	0.08	836618	keystroke_e	e	n/a
418.5665	0.0715	837133	keystroke_q	q	n/a
418.789	0.088	837578	keystroke_u	u	n/a
418.9895	0.088	837979	keystroke_i	i	n/a
419.125	0.128	838250	keystroke_r	r	n/a
419.341	0.0885	838682	keystroke_e	e	n/a
419.6055	0.0875	839211	keystroke_d	d	n/a
420.2615	0.08	840523	keystroke_Key.enter	Key.enter	n/a
420.3495	10.9075	840699	prompt	n/a	chrome humanitarian thru laboratories\n
421.0775	0.112	842155	keystroke_c	c	n/a
421.2055	0.0715	842411	keystroke_h	h	n/a
421.7015	0.096	843403	keystroke_r	r	n/a
421.9895	0.088	843979	keystroke_o	o	n/a
422.2455	0.096	844491	keystroke_m	m	n/a
422.4455	0.088	844891	keystroke_e	e	n/a
422.5495	0.088	845099	keystroke_Key.space	Key.space	n/a
422.8215	0.088	845643	keystroke_h	h	n/a
423.23	0.1045	846460	keystroke_u	u	n/a
423.51	0.104	847020	keystroke_m	m	n/a
423.686	0.112	847372	keystroke_a	a	n/a
423.8215	0.08	847643	keystroke_n	n	n/a
424.022	0.08	848044	keystroke_i	i	n/a
425.054	0.096	850108	keystroke_t	t	n/a
425.334	0.097	850668	keystroke_a	a	n/a
425.542	0.088	851084	keystroke_r	r	n/a
425.6785	0.097	851357	keystroke_i	i	n/a
425.8155	0.0945	851631	keystroke_a	a	n/a
425.934	0.096	851868	keystroke_n	n	n/a
426.1345	0.096	852269	keystroke_Key.space	Key.space	n/a
426.374	0.08	852748	keystroke_t	t	n/a
426.526	0.0885	853052	keystroke_h	h	n/a
426.6625	0.112	853325	keystroke_r	r	n/a
427.047	0.1035	854094	keystroke_u	u	n/a
427.655	0.104	855310	keystroke_Key.space	Key.space	n/a
427.935	0.112	855870	keystroke_l	l	n/a
428.103	0.104	856206	keystroke_a	a	n/a
428.359	0.0965	856718	keystroke_b	b	n/a
428.4555	0.0715	856911	keystroke_o	o	n/a
428.695	0.128	857390	keystroke_r	r	n/a
428.991	0.096	857982	keystroke_a	a	n/a
429.239	0.0885	858478	keystroke_t	t	n/a
429.3755	0.096	858751	keystroke_o	o	n/a
429.5035	0.0875	859007	keystroke_r	r	n/a
429.631	0.088	859262	keystroke_i	i	n/a
429.727	0.0815	859454	keystroke_e	e	n/a
430.207	0.0885	860414	keystroke_s	s	n/a
431.1675	0.088	862335	keystroke_Key.enter	Key.enter	n/a
431.262	7.893	862524	prompt	n/a	guilty from retirement wicked\n
432.7835	0.072	865567	keystroke_g	g	n/a
432.9115	0.08	865823	keystroke_u	u	n/a
433.0955	0.08	866191	keystroke_i	i	n/a
433.2795	0.072	866559	keystroke_l	l	n/a
433.528	0.0875	867056	keystroke_t	t	n/a
433.8235	0.08	867647	keystroke_y	y	n/a
433.9915	0.0885	867983	keystroke_Key.space	Key.space	n/a
434.1675	0.112	868335	keystroke_f	f	n/a
434.376	0.088	868752	keystroke_r	r	n/a
434.472	0.104	868944	keystroke_o	o	n/a
434.6	0.1195	869200	keystroke_m	m	n/a
434.7195	0.104	869439	keystroke_Key.space	Key.space	n/a
434.92	0.112	869840	keystroke_r	r	n/a
435.088	0.0875	870176	keystroke_e	e	n/a
435.32	0.08	870640	keystroke_t	t	n/a
435.432	0.08	870864	keystroke_i	i	n/a
435.552	0.1035	871104	keystroke_r	r	n/a
435.6715	0.1125	871343	keystroke_e	e	n/a
436	0.096	872000	keystroke_m	m	n/a
436.112	0.096	872224	keystroke_e	e	n/a
436.216	0.072	872432	keystroke_n	n	n/a
436.32	0.072	872640	keystroke_t	t	n/a
436.664	0.08	873328	keystroke_Key.space	Key.space	n/a
436.976	0.112	873952	keystroke_w	w	n/a
437.136	0.088	874272	keystroke_i	i	n/a
437.68	0.1365	875360	keystroke_c	c	n/a
437.8645	0.08	875729	keystroke_k	k	n/a
438.6005	0.1035	877201	keystroke_e	e	n/a
438.8325	0.088	877665	keystroke_d	d	n/a
439.0645	0.088	878129	keystroke_Key.enter	Key.enter	n/a
439.16	11.195	878320	prompt	n/a	jewish agree excitement herbs\n
440.5525	0.072	881105	keystroke_j	j	n/a
440.7125	0.1035	881425	keystroke_e	e	n/a
441.2885	0.096	882577	keystroke_w	w	n/a
441.5845	0.08	883169	keystroke_i	i	n/a
441.9765	0.088	883953	keystroke_s	s	n/a
442.1845	0.1125	884369	keystroke_h	h	n/a
442.7125	0.064	885425	keystroke_Key.space	Key.space	n/a
442.8965	0.096	885793	keystroke_a	a	n/a
443.1365	0.1205	886273	keystroke_g	g	n/a
443.4245	0.112	886849	keystroke_r	r	n/a
443.9525	0.1205	887905	keystroke_e	e	n/a
444.177	0.088	888354	keystroke_e	e	n/a
444.401	0.096	888802	keystroke_Key.space	Key.space	n/a
444.617	0.112	889234	keystroke_e	e	n/a
444.921	0.08	889842	keystroke_x	x	n/a
445.2085	0.072	890417	keystroke_c	c	n/a
445.3205	0.088	890641	keystroke_i	i	n/a
445.5205	0.072	891041	keystroke_t	t	n/a
445.6645	0.088	891329	keystroke_e	e	n/a
445.8005	0.064	891601	keystroke_n	n	n/a
445.8805	0.096	891761	keystroke_e	e	n/a
445.9845	0.08	891969	keystroke_n	n	n/a
446.1125	0.072	892225	keystroke_t	t	n/a
446.9925	0.096	893985	keystroke_Key.backspace	Key.backspace	n/a
447.1685	0.096	894337	keystroke_Key.backspace	Key.backspace	n/a
447.3525	0.088	894705	keystroke_Key.backspace	Key.backspace	n/a
447.5285	0.096	895057	keystroke_Key.backspace	Key.backspace	n/a
447.8085	0.096	895617	keystroke_m	m	n/a
447.9445	0.097	895889	keystroke_e	e	n/a
448.0485	0.072	896097	keystroke_n	n	n/a
448.1765	0.072	896353	keystroke_t	t	n/a
448.377	0.0875	896754	keystroke_Key.space	Key.space	n/a
448.6645	0.0885	897329	keystroke_h	h	n/a
448.825	0.104	897650	keystroke_e	e	n/a
449.065	0.112	898130	keystroke_r	r	n/a
449.361	0.088	898722	keystroke_b	b	n/a
449.601	0.096	899202	keystroke_s	s	n/a
450.249	0.104	900498	keystroke_Key.enter	Key.enter	n/a
450.3595	10.9255	900719	prompt	n/a	magnitude update bradley resolved\n
450.977	0.104	901954	keystroke_m	m	n/a
451.137	0.104	902274	keystroke_a	a	n/a
451.409	0.105	902818	keystroke_g	g	n/a
451.697	0.08	903394	keystroke_n	n	n/a
451.841	0.08	903682	keystroke_i	i	n/a
452.145	0.08	904290	keystroke_t	t	n/a
452.441	0.0885	904882	keystroke_u	u	n/a
453.729	0.1045	907458	keystroke_d	d	n/a
454.4815	0.088	908963	keystroke_e	e	n/a
454.9855	0.12	909971	keystroke_Key.space	Key.space	n/a
455.3935	0.096	910787	keystroke_u	u	n/a
455.5775	0.097	911155	keystroke_p	p	n/a
455.962	0.12	911924	keystroke_d	d	n/a
456.17	0.08	912340	keystroke_a	a	n/a
456.386	0.088	912772	keystroke_t	t	n/a
456.562	0.08	913124	keystroke_e	e	n/a
456.77	0.088	913540	keystroke_Key.space	Key.space	n/a
457.106	0.104	914212	keystroke_b	b	n/a
457.362	0.08	914724	keystroke_r	r	n/a
457.586	0.0965	915172	keystroke_a	a	n/a
457.97	0.096	915940	keystroke_d	d	n/a
458.154	0.1115	916308	keystroke_l	l	n/a
458.3055	0.0885	916611	keystroke_e	e	n/a
458.53	0.08	917060	keystroke_y	y	n/a
458.7695	0.056	917539	keystroke_Key.space	Key.space	n/a
459.3135	0.088	918627	keystroke_r	r	n/a
459.562	0.104	919124	keystroke_e	e	n/a
459.914	0.08	919828	keystroke_s	s	n/a
460.09	0.088	920180	keystroke_o	o	n/a
460.29	0.0875	920580	keystroke_l	l	n/a
460.4095	0.0965	920819	keystroke_v	v	n/a
460.57	0.088	921140	keystroke_e	e	n/a
460.77	0.064	921540	keystroke_d	d	n/a
461.202	0.08	922404	keystroke_Key.enter	Key.enter	n/a
461.2915	6.569	922583	prompt	n/a	stores chaos suit indicators\n
461.906	0.096	923812	keystroke_s	s	n/a
462.13	0.08	924260	keystroke_t	t	n/a
462.234	0.072	924468	keystroke_o	o	n/a
462.33	0.08	924660	keystroke_r	r	n/a
462.418	0.08	924836	keystroke_e	e	n/a
462.61	0.072	925220	keystroke_d	d	n/a
463.17	0.08	926340	keystroke_Key.space	Key.space	n/a
463.338	0.088	926676	keystroke_c	c	n/a
463.442	0.072	926884	keystroke_h	h	n/a
463.538	0.088	927076	keystroke_a	a	n/a
463.706	0.096	927412	keystroke_o	o	n/a
464.2985	0.088	928597	keystroke_s	s	n/a
464.6905	0.088	929381	keystroke_Key.space	Key.space	n/a
464.8585	0.08	929717	keystroke_s	s	n/a
465.0185	0.0955	930037	keystroke_u	u	n/a
465.258	0.0885	930516	keystroke_i	i	n/a
465.4265	0.096	930853	keystroke_t	t	n/a
465.61	0.096	931220	keystroke_Key.space	Key.space	n/a
465.858	0.08	931716	keystroke_i	i	n/a
466.0265	0.08	932053	keystroke_n	n	n/a
466.1385	0.0875	932277	keystroke_d	d	n/a
466.227	0.079	932454	keystroke_i	i	n/a
466.4825	0.096	932965	keystroke_c	c	n/a
466.6185	0.0955	933237	keystroke_a	a	n/a
466.8505	0.064	933701	keystroke_t	t	n/a
466.9625	0.08	933925	keystroke_o	o	n/a
467.0665	0.072	934133	keystroke_r	r	n/a
467.2345	0.088	934469	keystroke_s	s	n/a
467.787	0.0715	935574	keystroke_Key.enter	Key.enter	n/a
467.8655	9.803	935731	prompt	n/a	intent ultram factors chemicals\n
468.6825	0.12	937365	keystroke_i	i	n/a
468.9065	0.088	937813	keystroke_n	n	n/a
469.0905	0.08	938181	keystroke_t	t	n/a
469.2185	0.104	938437	keystroke_e	e	n/a
469.3225	0.072	938645	keystroke_n	n	n/a
469.4745	0.072	938949	keystroke_t	t	n/a
469.6185	0.096	939237	keystroke_Key.space	Key.space	n/a
469.9305	0.128	939861	keystroke_u	u	n/a
470.4825	0.12	940965	keystroke_l	l	n/a
471.1545	0.12	942309	keystroke_t	t	n/a
471.5145	0.128	943029	keystroke_r	r	n/a
471.9945	0.088	943989	keystroke_a	a	n/a
472.3705	0.152	944741	keystroke_m	m	n/a
472.6265	0.096	945253	keystroke_Key.space	Key.space	n/a
472.8825	0.104	945765	keystroke_f	f	n/a
473.1065	0.104	946213	keystroke_a	a	n/a
473.3145	0.128	946629	keystroke_c	c	n/a
473.6425	0.096	947285	keystroke_t	t	n/a
473.8025	0.072	947605	keystroke_o	o	n/a
473.9145	0.088	947829	keystroke_r	r	n/a
474.1385	0.097	948277	keystroke_s	s	n/a
474.3305	0.104	948661	keystroke_Key.space	Key.space	n/a
474.5865	0.08	949173	keystroke_c	c	n/a
474.6825	0.08	949365	keystroke_h	h	n/a
474.8665	0.096	949733	keystroke_e	e	n/a
474.979	0.0795	949958	keystroke_m	m	n/a
475.1545	0.072	950309	keystroke_i	i	n/a
475.2745	0.08	950549	keystroke_c	c	n/a
475.4185	0.088	950837	keystroke_s	s	n/a
476.3385	0.104	952677	keystroke_Key.backspace	Key.backspace	n/a
476.5545	0.088	953109	keystroke_a	a	n/a
476.6905	0.104	953381	keystroke_l	l	n/a
476.8905	0.096	953781	keystroke_s	s	n/a
477.5705	0.096	955141	keystroke_Key.enter	Key.enter	n/a
477.676	11.4975	955352	prompt	n/a	salaries minolta everybody groups\n
478.3865	0.096	956773	keystroke_s	s	n/a
478.5305	0.105	957061	keystroke_a	a	n/a
478.6745	0.096	957349	keystroke_l	l	n/a
478.8505	0.104	957701	keystroke_a	a	n/a
479.0585	0.088	958117	keystroke_r	r	n/a
479.1865	0.088	958373	keystroke_i	i	n/a
479.2825	0.088	958565	keystroke_e	e	n/a
479.4665	0.08	958933	keystroke_s	s	n/a
479.6105	0.072	959221	keystroke_Key.space	Key.space	n/a
479.9385	0.144	959877	keystroke_m	m	n/a
480.2025	0.12	960405	keystroke_i	i	n/a
480.4425	0.08	960885	keystroke_n	n	n/a
480.6345	0.096	961269	keystroke_o	o	n/a
480.843	0.1195	961686	keystroke_l	l	n/a
481.0265	0.105	962053	keystroke_t	t	n/a
481.251	0.0955	962502	keystroke_a	a	n/a
481.5465	0.088	963093	keystroke_Key.space	Key.space	n/a
481.7945	0.064	963589	keystroke_s	s	n/a
482.0985	0.088	964197	keystroke_Key.backspace	Key.backspace	n/a
482.1945	0.096	964389	keystroke_e	e	n/a
482.3865	0.104	964773	keystroke_v	v	n/a
482.5305	0.088	965061	keystroke_e	e	n/a
482.6905	0.096	965381	keystroke_r	r	n/a
482.9865	0.096	965973	keystroke_y	y	n/a
483.6905	0.112	967381	keystroke_b	b	n/a
483.8665	0.072	967733	keystroke_o	o	n/a
484.0425	0.088	968085	keystroke_y	y	n/a
484.5945	0.088	969189	keystroke_Key.backspace	Key.backspace	n/a
484.7145	0.112	969429	keystroke_f	f	n/a
484.9945	0.0955	969989	keystroke_y	y	n/a
485.3385	0.088	970677	keystroke_Key.backspace	Key.backspace	n/a
485.4905	0.08	970981	keystroke_Key.backspace	Key.backspace	n/a
485.8025	0.088	971605	keystroke_d	d	n/a
486.0825	0.08	972165	keystroke_y	y	n/a
486.5305	0.096	973061	keystroke_Key.space	Key.space	n/a
487.0185	0.12	974037	keystroke_g	g	n/a
487.2905	0.088	974581	keystroke_r	r	n/a
487.4025	0.072	974805	keystroke_o	o	n/a
487.5545	0.08	975109	keystroke_u	u	n/a
487.7545	0.072	975509	keystroke_p	p	n/a
488.5305	0.08	977061	keystroke_s	s	n/a
489.0825	0.0885	978165	keystroke_Key.enter	Key.enter	n/a
489.1785	6.842	978357	prompt	n/a	isolation bizarre use quest\n
489.8825	0.096	979765	keystroke_i	i	n/a
490.067	0.088	980134	keystroke_s	s	n/a
490.195	0.088	980390	keystroke_o	o	n/a
490.4185	0.08	980837	keystroke_l	l	n/a
490.4995	0.087	980999	keystroke_a	a	n/a
490.691	0.072	981382	keystroke_t	t	n/a
490.771	0.0795	981542	keystroke_i	i	n/a
490.9385	0.104	981877	keystroke_o	o	n/a
491.083	0.088	982166	keystroke_n	n	n/a
491.227	0.088	982454	keystroke_Key.space	Key.space	n/a
491.851	0.0715	983702	keystroke_b	b	n/a
491.9625	0.08	983925	keystroke_i	i	n/a
492.1945	0.0805	984389	keystroke_z	z	n/a
492.5465	0.104	985093	keystroke_a	a	n/a
492.811	0.0875	985622	keystroke_r	r	n/a
492.9865	0.08	985973	keystroke_r	r	n/a
493.1465	0.08	986293	keystroke_e	e	n/a
493.6585	0.08	987317	keystroke_Key.space	Key.space	n/a
493.8425	0.08	987685	keystroke_u	u	n/a
493.9465	0.08	987893	keystroke_s	s	n/a
494.1305	0.088	988261	keystroke_e	e	n/a
494.3705	0.104	988741	keystroke_Key.space	Key.space	n/a
494.8505	0.12	989701	keystroke_q	q	n/a
495.0265	0.08	990053	keystroke_u	u	n/a
495.1545	0.088	990309	keystroke_e	e	n/a
495.3305	0.08	990661	keystroke_s	s	n/a
495.5305	0.064	991061	keystroke_t	t	n/a
495.9385	0.0805	991877	keystroke_Key.enter	Key.enter	n/a
496.026	10.883	992052	prompt	n/a	caribbean caught publication attacks\n
496.7865	0.1125	993573	keystroke_c	c	n/a
496.9305	0.104	993861	keystroke_a	a	n/a
497.1785	0.12	994357	keystroke_r	r	n/a
498.5625	0.104	997125	keystroke_i	i	n/a
499.8185	0.072	999637	keystroke_b	b	n/a
500.043	0.0715	1000086	keystroke_b	b	n/a
500.3465	0.112	1000693	keystroke_e	e	n/a
500.5385	0.088	1001077	keystroke_a	a	n/a
500.6745	0.12	1001349	keystroke_n	n	n/a
500.9305	0.08	1001861	keystroke_Key.space	Key.space	n/a
501.1385	0.088	1002277	keystroke_c	c	n/a
501.2745	0.096	1002549	keystroke_a	a	n/a
501.4025	0.088	1002805	keystroke_u	u	n/a
501.5465	0.104	1003093	keystroke_g	g	n/a
501.6515	0.071	1003303	keystroke_h	h	n/a
501.7705	0.072	1003541	keystroke_t	t	n/a
501.9145	0.08	1003829	keystroke_Key.space	Key.space	n/a
502.2665	0.112	1004533	keystroke_p	p	n/a
502.4985	0.088	1004997	keystroke_u	u	n/a
502.9705	0.0965	1005941	keystroke_b	b	n/a
504.123	0.104	1008246	keystroke_l	l	n/a
504.355	0.08	1008710	keystroke_i	i	n/a
504.507	0.112	1009014	keystroke_c	c	n/a
504.683	0.1115	1009366	keystroke_a	a	n/a
504.947	0.08	1009894	keystroke_t	t	n/a
505.043	0.088	1010086	keystroke_i	i	n/a
505.219	0.088	1010438	keystroke_o	o	n/a
505.371	0.096	1010742	keystroke_n	n	n/a
505.491	0.08	1010982	keystroke_Key.space	Key.space	n/a
505.603	0.096	1011206	keystroke_a	a	n/a
505.795	0.08	1011590	keystroke_t	t	n/a
505.947	0.072	1011894	keystroke_t	t	n/a
506.067	0.08	1012134	keystroke_a	a	n/a
506.219	0.088	1012438	keystroke_c	c	n/a
506.339	0.08	1012678	keystroke_k	k	n/a
506.467	0.072	1012934	keystroke_s	s	n/a
506.835	0.072	1013670	keystroke_Key.enter	Key.enter	n/a
506.9145	9.914	1013829	prompt	n/a	budapest handbook assignments cleaner\n
507.683	0.096	1015366	keystroke_b	b	n/a
507.859	0.08	1015718	keystroke_u	u	n/a
508.027	0.112	1016054	keystroke_d	d	n/a
508.483	0.096	1016966	keystroke_a	a	n/a
508.747	0.096	1017494	keystroke_p	p	n/a
508.899	0.104	1017798	keystroke_e	e	n/a
509.107	0.08	1018214	keystroke_s	s	n/a
509.339	0.072	1018678	keystroke_t	t	n/a
509.4425	0.088	1018885	keystroke_Key.space	Key.space	n/a
509.6585	0.08	1019317	keystroke_h	h	n/a
509.7545	0.088	1019509	keystroke_a	a	n/a
509.9145	0.096	1019829	keystroke_d	d	n/a
510.331	0.096	1020662	keystroke_n	n	n/a
510.6185	0.056	1021237	keystroke_Key.backspace	Key.backspace	n/a
510.739	0.08	1021478	keystroke_Key.backspace	Key.backspace	n/a
510.955	0.08	1021910	keystroke_n	n	n/a
511.091	0.096	1022182	keystroke_d	d	n/a
511.6665	0.0965	1023333	keystroke_b	b	n/a
511.835	0.104	1023670	keystroke_o	o	n/a
512.035	0.0795	1024070	keystroke_o	o	n/a
512.475	0.1435	1024950	keystroke_k	k	n/a
513.035	0.088	1026070	keystroke_Key.space	Key.space	n/a
513.203	0.096	1026406	keystroke_a	a	n/a
513.371	0.088	1026742	keystroke_s	s	n/a
513.539	0.096	1027078	keystroke_s	s	n/a
513.7625	0.0965	1027525	keystroke_i	i	n/a
513.963	0.08	1027926	keystroke_g	g	n/a
514.115	0.1035	1028230	keystroke_n	n	n/a
514.491	0.1035	1028982	keystroke_m	m	n/a
514.691	0.0955	1029382	keystroke_e	e	n/a
514.7945	0.088	1029589	keystroke_n	n	n/a
514.987	0.08	1029974	keystroke_t	t	n/a
515.2585	0.088	1030517	keystroke_s	s	n/a
515.411	0.088	1030822	keystroke_Key.space	Key.space	n/a
515.723	0.096	1031446	keystroke_c	c	n/a
515.8345	0.08	1031669	keystroke_l	l	n/a
515.947	0.072	1031894	keystroke_e	e	n/a
516.091	0.088	1032182	keystroke_a	a	n/a
516.251	0.0795	1032502	keystroke_n	n	n/a
516.395	0.088	1032790	keystroke_e	e	n/a
516.555	0.072	1033110	keystroke_r	r	n/a
516.755	0.072	1033510	keystroke_Key.enter	Key.enter	n/a
516.8335	11.044	1033667	prompt	n/a	it'd memphis topics inherited\n
517.4585	0.088	1034917	keystroke_i	i	n/a
517.6905	0.08	1035381	keystroke_t	t	n/a
517.9545	0.112	1035909	keystroke_'	'	n/a
518.1545	0.072	1036309	keystroke_s	s	n/a
518.5225	0.08	1037045	keystroke_Key.backspace	Key.backspace	n/a
518.6505	0.0885	1037301	keystroke_d	d	n/a
518.835	0.08	1037670	keystroke_Key.space	Key.space	n/a
519.131	0.096	1038262	keystroke_m	m	n/a
519.323	0.08	1038646	keystroke_e	e	n/a
519.531	0.104	1039062	keystroke_m	m	n/a
519.811	0.112	1039622	keystroke_p	p	n/a
520.107	0.072	1040214	keystroke_h	h	n/a
520.227	0.096	1040454	keystroke_i	i	n/a
520.371	0.096	1040742	keystroke_s	s	n/a
520.507	0.0875	1041014	keystroke_Key.space	Key.space	n/a
520.787	0.08	1041574	keystroke_t	t	n/a
520.923	0.08	1041846	keystroke_o	o	n/a
521.1065	0.088	1042213	keystroke_p	p	n/a
521.3385	0.08	1042677	keystroke_i	i	n/a
521.6265	0.104	1043253	keystroke_c	c	n/a
522.3545	0.096	1044709	keystroke_s	s	n/a
522.555	0.088	1045110	keystroke_Key.space	Key.space	n/a
522.7545	0.08	1045509	keystroke_i	i	n/a
522.9065	0.08	1045813	keystroke_n	n	n/a
523.115	0.072	1046230	keystroke_h	h	n/a
523.251	0.096	1046502	keystroke_e	e	n/a
523.843	0.104	1047686	keystroke_r	r	n/a
524.251	0.112	1048502	keystroke_e	e	n/a
524.827	0.088	1049654	keystroke_Key.backspace	Key.backspace	n/a
525.3945	0.0965	1050789	keystroke_i	i	n/a
525.779	0.096	1051558	keystroke_t	t	n/a
526.003	0.096	1052006	keystroke_e	e	n/a
526.235	0.104	1052470	keystroke_d	d	n/a
527.795	0.08	1055590	keystroke_Key.enter	Key.enter	n/a
527.8835	13.889	1055767	prompt	n/a	rwanda beast provincial imaging\n
528.7465	0.112	1057493	keystroke_r	r	n/a
529.4505	0.12	1058901	keystroke_q	q	n/a
530.0985	0.128	1060197	keystroke_Key.backspace	Key.backspace	n/a
530.9385	0.112	1061877	keystroke_w	w	n/a
531.1785	0.112	1062357	keystroke_a	a	n/a
531.3305	0.104	1062661	keystroke_n	n	n/a
531.5945	0.104	1063189	keystroke_d	d	n/a
531.7705	0.08	1063541	keystroke_a	a	n/a
531.9065	0.08	1063813	keystroke_Key.space	Key.space	n/a
532.1385	0.088	1064277	keystroke_b	b	n/a
532.2905	0.096	1064581	keystroke_e	e	n/a
532.4745	0.08	1064949	keystroke_a	a	n/a
532.6265	0.072	1065253	keystroke_s	s	n/a
532.8265	0.072	1065653	keystroke_t	t	n/a
533.2985	0.096	1066597	keystroke_Key.space	Key.space	n/a
533.5225	0.1035	1067045	keystroke_p	p	n/a
533.698	0.08	1067396	keystroke_r	r	n/a
533.851	0.111	1067702	keystroke_o	o	n/a
535.058	0.112	1070116	keystroke_c	c	n/a
535.746	0.112	1071492	keystroke_Key.backspace	Key.backspace	n/a
536.003	0.063	1072006	keystroke_v	v	n/a
536.13	0.096	1072260	keystroke_i	i	n/a
536.426	0.136	1072852	keystroke_n	n	n/a
537.8415	0.121	1075683	keystroke_v	v	n/a
538.2175	0.12	1076435	keystroke_i	i	n/a
538.5935	0.088	1077187	keystroke_Key.backspace	Key.backspace	n/a
538.7455	0.096	1077491	keystroke_Key.backspace	Key.backspace	n/a
538.8585	0.112	1077717	keystroke_c	c	n/a
539.0345	0.095	1078069	keystroke_i	i	n/a
539.1695	0.096	1078339	keystroke_a	a	n/a
539.3705	0.127	1078741	keystroke_l	l	n/a
539.7375	0.08	1079475	keystroke_Key.space	Key.space	n/a
539.9615	0.105	1079923	keystroke_i	i	n/a
540.1775	0.08	1080355	keystroke_m	m	n/a
540.4975	0.112	1080995	keystroke_a	a	n/a
540.8015	0.104	1081603	keystroke_g	g	n/a
540.9625	0.111	1081925	keystroke_i	i	n/a
541.0575	0.088	1082115	keystroke_n	n	n/a
541.1695	0.073	1082339	keystroke_g	g	n/a
541.6895	0.08	1083379	keystroke_Key.enter	Key.enter	n/a
541.7805	6.5345	1083561	prompt	n/a	neural o'er snake creature\n
542.5065	0.103	1085013	keystroke_n	n	n/a
542.6895	0.128	1085379	keystroke_e	e	n/a
543.3295	0.096	1086659	keystroke_u	u	n/a
543.5695	0.112	1087139	keystroke_r	r	n/a
543.7535	0.088	1087507	keystroke_a	a	n/a
543.8655	0.112	1087731	keystroke_l	l	n/a
544.1135	0.088	1088227	keystroke_Key.space	Key.space	n/a
544.3455	0.088	1088691	keystroke_o	o	n/a
544.6665	0.111	1089333	keystroke_'	'	n/a
544.9295	0.105	1089859	keystroke_r	r	n/a
545.0745	0.111	1090149	keystroke_e	e	n/a
545.3455	0.072	1090691	keystroke_Key.backspace	Key.backspace	n/a
545.4735	0.08	1090947	keystroke_Key.backspace	Key.backspace	n/a
545.5385	0.072	1091077	keystroke_e	e	n/a
545.6185	0.087	1091237	keystroke_r	r	n/a
545.7695	0.096	1091539	keystroke_Key.space	Key.space	n/a
546.0975	0.088	1092195	keystroke_s	s	n/a
546.2015	0.088	1092403	keystroke_n	n	n/a
546.3055	0.096	1092611	keystroke_a	a	n/a
546.4735	0.08	1092947	keystroke_k	k	n/a
546.6335	0.08	1093267	keystroke_e	e	n/a
546.7615	0.088	1093523	keystroke_Key.space	Key.space	n/a
547.145	0.104	1094290	keystroke_c	c	n/a
547.369	0.08	1094738	keystroke_r	r	n/a
547.465	0.096	1094930	keystroke_e	e	n/a
547.617	0.088	1095234	keystroke_a	a	n/a
547.801	0.064	1095602	keystroke_t	t	n/a
547.914	0.0715	1095828	keystroke_u	u	n/a
548.001	0.08	1096002	keystroke_r	r	n/a
548.0895	0.0875	1096179	keystroke_e	e	n/a
548.249	0.064	1096498	keystroke_Key.enter	Key.enter	n/a
548.321	21.2415	1096642	prompt	n/a	librarian integrity we'd've helicopter\n
549.081	0.112	1098162	keystroke_l	l	n/a
549.305	0.064	1098610	keystroke_i	i	n/a
549.433	0.128	1098866	keystroke_v	v	n/a
549.665	0.096	1099330	keystroke_r	r	n/a
550.025	0.064	1100050	keystroke_Key.backspace	Key.backspace	n/a
550.153	0.08	1100306	keystroke_Key.backspace	Key.backspace	n/a
550.289	0.104	1100578	keystroke_b	b	n/a
550.569	0.144	1101138	keystroke_r	r	n/a
550.905	0.104	1101810	keystroke_a	a	n/a
551.345	0.096	1102690	keystroke_r	r	n/a
551.537	0.088	1103074	keystroke_i	i	n/a
551.657	0.088	1103314	keystroke_a	a	n/a
551.769	0.072	1103538	keystroke_n	n	n/a
552.545	0.072	1105090	keystroke_Key.space	Key.space	n/a
552.713	0.08	1105426	keystroke_i	i	n/a
552.841	0.064	1105682	keystroke_n	n	n/a
553.017	0.072	1106034	keystroke_t	t	n/a
553.449	0.096	1106898	keystroke_Key.backspace	Key.backspace	n/a
553.865	0.112	1107730	keystroke_t	t	n/a
554.169	0.112	1108338	keystroke_e	e	n/a
555.441	0.136	1110882	keystroke_g	g	n/a
555.753	0.088	1111506	keystroke_r	r	n/a
555.929	0.136	1111858	keystroke_i	i	n/a
556.305	0.104	1112610	keystroke_t	t	n/a
556.553	0.088	1113106	keystroke_y	y	n/a
557.145	0.072	1114290	keystroke_Key.space	Key.space	n/a
557.345	0.096	1114690	keystroke_w	w	n/a
557.513	0.088	1115026	keystroke_e	e	n/a
557.713	0.1275	1115426	keystroke_'	'	n/a
558.401	0.112	1116802	keystroke_d	d	n/a
559.353	0.112	1118706	keystroke_'	'	n/a
560.898	0.095	1121796	keystroke_v	v	n/a
561.377	0.104	1122754	keystroke_e	e	n/a
561.745	0.088	1123490	keystroke_Key.space	Key.space	n/a
562.345	0.096	1124690	keystroke_h	h	n/a
562.457	0.08	1124914	keystroke_e	e	n/a
562.577	0.104	1125154	keystroke_l	l	n/a
562.945	0.056	1125890	keystroke_i	i	n/a
564.8565	0.081	1129713	keystroke_c	c	n/a
564.9605	0.104	1129921	keystroke_i	i	n/a
565.8565	0.12	1131713	keystroke_Key.backspace	Key.backspace	n/a
566.1445	0.12	1132289	keystroke_o	o	n/a
567.0325	0.104	1134065	keystroke_p	p	n/a
567.368	0.112	1134736	keystroke_t	t	n/a
567.76	0.152	1135520	keystroke_e	e	n/a
568.056	0.088	1136112	keystroke_r	r	n/a
569.4805	0.08	1138961	keystroke_Key.enter	Key.enter	n/a
569.569	12.5295	1139138	prompt	n/a	equipped culture earth productivity\n
570.568	0.12	1141136	keystroke_e	e	n/a
570.8725	0.0795	1141745	keystroke_q	q	n/a
571.304	0.096	1142608	keystroke_u	u	n/a
571.632	0.104	1143264	keystroke_i	i	n/a
572.352	0.096	1144704	keystroke_p	p	n/a
572.544	0.08	1145088	keystroke_p	p	n/a
572.752	0.088	1145504	keystroke_e	e	n/a
572.944	0.08	1145888	keystroke_d	d	n/a
573.088	0.088	1146176	keystroke_Key.space	Key.space	n/a
573.448	0.04	1146896	keystroke_u	u	n/a
573.808	0.08	1147616	keystroke_Key.backspace	Key.backspace	n/a
573.904	0.096	1147808	keystroke_c	c	n/a
574.056	0.088	1148112	keystroke_u	u	n/a
574.296	0.08	1148592	keystroke_l	l	n/a
574.536	0.096	1149072	keystroke_t	t	n/a
574.688	0.08	1149376	keystroke_u	u	n/a
574.784	0.112	1149568	keystroke_r	r	n/a
574.904	0.096	1149808	keystroke_e	e	n/a
575.6555	0.104	1151311	keystroke_Key.space	Key.space	n/a
575.9275	0.1205	1151855	keystroke_e	e	n/a
576.192	0.064	1152384	keystroke_a	a	n/a
576.425	0.071	1152850	keystroke_r	r	n/a
577.272	0.1205	1154544	keystroke_h	h	n/a
577.664	0.08	1155328	keystroke_Key.backspace	Key.backspace	n/a
577.776	0.096	1155552	keystroke_t	t	n/a
577.992	0.112	1155984	keystroke_h	h	n/a
578.368	0.088	1156736	keystroke_Key.space	Key.space	n/a
578.544	0.112	1157088	keystroke_p	p	n/a
578.696	0.088	1157392	keystroke_r	r	n/a
578.824	0.08	1157648	keystroke_o	o	n/a
579.184	0.096	1158368	keystroke_d	d	n/a
579.32	0.08	1158640	keystroke_u	u	n/a
579.608	0.104	1159216	keystroke_c	c	n/a
579.872	0.072	1159744	keystroke_t	t	n/a
579.968	0.08	1159936	keystroke_i	i	n/a
580.264	0.064	1160528	keystroke_v	v	n/a
580.832	0.096	1161664	keystroke_i	i	n/a
581.024	0.128	1162048	keystroke_t	t	n/a
581.264	0.08	1162528	keystroke_y	y	n/a
582.0155	0.08	1164031	keystroke_Key.enter	Key.enter	n/a
582.105	10.7685	1164210	prompt	n/a	manitoba inspiration celebrate dirt\n
582.9675	0.136	1165935	keystroke_m	m	n/a
583.8795	0.112	1167759	keystroke_a	a	n/a
584.1195	0.112	1168239	keystroke_n	n	n/a
584.6075	0.096	1169215	keystroke_i	i	n/a
584.8795	0.08	1169759	keystroke_t	t	n/a
585.0155	0.08	1170031	keystroke_o	o	n/a
585.2075	0.064	1170415	keystroke_b	b	n/a
585.8315	0.104	1171663	keystroke_a	a	n/a
586.1915	0.072	1172383	keystroke_Key.space	Key.space	n/a
586.3675	0.08	1172735	keystroke_i	i	n/a
586.5195	0.08	1173039	keystroke_n	n	n/a
586.6795	0.096	1173359	keystroke_s	s	n/a
586.8075	0.096	1173615	keystroke_p	p	n/a
587.0315	0.072	1174063	keystroke_i	i	n/a
587.1835	0.136	1174367	keystroke_r	r	n/a
587.3755	0.088	1174751	keystroke_a	a	n/a
587.5755	0.072	1175151	keystroke_t	t	n/a
587.6875	0.096	1175375	keystroke_i	i	n/a
587.8635	0.08	1175727	keystroke_o	o	n/a
587.9995	0.0955	1175999	keystroke_n	n	n/a
588.119	0.096	1176238	keystroke_Key.space	Key.space	n/a
588.343	0.096	1176686	keystroke_c	c	n/a
588.511	0.088	1177022	keystroke_e	e	n/a
588.615	0.096	1177230	keystroke_l	l	n/a
588.799	0.096	1177598	keystroke_e	e	n/a
589.2075	0.136	1178415	keystroke_v	v	n/a
589.5195	0.12	1179039	keystroke_r	r	n/a
589.8315	0.08	1179663	keystroke_Key.backspace	Key.backspace	n/a
589.9755	0.08	1179951	keystroke_Key.backspace	Key.backspace	n/a
590.0475	0.1125	1180095	keystroke_b	b	n/a
590.312	0.128	1180624	keystroke_r	r	n/a
590.6155	0.104	1181231	keystroke_a	a	n/a
590.8795	0.104	1181759	keystroke_t	t	n/a
591.0395	0.104	1182079	keystroke_e	e	n/a
591.3355	0.104	1182671	keystroke_Key.space	Key.space	n/a
591.4955	0.112	1182991	keystroke_d	d	n/a
591.5995	0.096	1183199	keystroke_i	i	n/a
591.7905	0.113	1183581	keystroke_r	r	n/a
592.0475	0.064	1184095	keystroke_t	t	n/a
592.7835	0.088	1185567	keystroke_Key.enter	Key.enter	n/a
592.8815	15.7665	1185763	prompt	n/a	curriculum farmer don't brochure\n
593.6955	0.12	1187391	keystroke_c	c	n/a
593.9835	0.088	1187967	keystroke_u	u	n/a
594.2795	0.088	1188559	keystroke_r	r	n/a
594.4395	0.079	1188879	keystroke_r	r	n/a
594.5595	0.088	1189119	keystroke_i	i	n/a
594.7435	0.096	1189487	keystroke_c	c	n/a
594.8875	0.088	1189775	keystroke_u	u	n/a
595.1115	0.088	1190223	keystroke_l	l	n/a
595.3435	0.096	1190687	keystroke_u	u	n/a
595.6315	0.104	1191263	keystroke_m	m	n/a
595.8555	0.088	1191711	keystroke_Key.space	Key.space	n/a
596.1105	0.121	1192221	keystroke_d	d	n/a
596.6065	0.081	1193213	keystroke_Key.backspace	Key.backspace	n/a
596.6955	0.128	1193391	keystroke_f	f	n/a
596.8155	0.1195	1193631	keystroke_a	a	n/a
597.055	0.112	1194110	keystroke_r	r	n/a
597.271	0.096	1194542	keystroke_m	m	n/a
597.463	0.104	1194926	keystroke_e	e	n/a
597.671	0.08	1195342	keystroke_r	r	n/a
597.807	0.079	1195614	keystroke_Key.space	Key.space	n/a
597.999	0.111	1195998	keystroke_d	d	n/a
598.127	0.08	1196254	keystroke_o	o	n/a
598.271	0.064	1196542	keystroke_n	n	n/a
598.455	0.0965	1196910	keystroke_;	;	n/a
598.615	0.08	1197230	keystroke_t	t	n/a
598.734	0.097	1197468	keystroke_Key.space	Key.space	n/a
599.535	0.088	1199070	keystroke_b	b	n/a
599.919	0.087	1199838	keystroke_r	r	n/a
600.079	0.104	1200158	keystroke_o	o	n/a
600.383	0.119	1200766	keystroke_c	c	n/a
600.567	0.08	1201134	keystroke_h	h	n/a
600.743	0.088	1201486	keystroke_u	u	n/a
600.919	0.128	1201838	keystroke_r	r	n/a
601.135	0.104	1202270	keystroke_e	e	n/a
601.863	0.08	1203726	keystroke_Key.backspace	Key.backspace	n/a
602.022	0.072	1204044	keystroke_Key.backspace	Key.backspace	n/a
602.174	0.065	1204348	keystroke_Key.backspace	Key.backspace	n/a
602.3265	0.055	1204653	keystroke_Key.backspace	Key.backspace	n/a
602.4705	0.064	1204941	keystroke_Key.backspace	Key.backspace	n/a
602.607	0.0795	1205214	keystroke_Key.backspace	Key.backspace	n/a
602.7585	0.079	1205517	keystroke_Key.backspace	Key.backspace	n/a
602.9095	0.073	1205819	keystroke_Key.backspace	Key.backspace	n/a
603.0705	0.079	1206141	keystroke_Key.backspace	Key.backspace	n/a
603.2295	0.088	1206459	keystroke_Key.backspace	Key.backspace	n/a
603.5745	0.063	1207149	keystroke_Key.backspace	Key.backspace	n/a
604.3505	0.08	1208701	keystroke_'	'	n/a
604.6625	0.08	1209325	keystroke_t	t	n/a
604.7985	0.088	1209597	keystroke_Key.space	Key.space	n/a
605.3105	0.08	1210621	keystroke_b	b	n/a
606.1025	0.08	1212205	keystroke_r	r	n/a
606.8945	0.12	1213789	keystroke_o	o	n/a
607.2065	0.12	1214413	keystroke_c	c	n/a
607.4465	0.104	1214893	keystroke_h	h	n/a
607.654	0.08	1215308	keystroke_u	u	n/a
607.8945	0.096	1215789	keystroke_r	r	n/a
608.0385	0.096	1216077	keystroke_e	e	n/a
608.55	0.096	1217100	keystroke_Key.enter	Key.enter	n/a
608.654	7.2815	1217308	prompt	n/a	channel sister sufficient promote\n
609.406	0.104	1218812	keystroke_c	c	n/a
609.511	0.086	1219022	keystroke_h	h	n/a
609.622	0.08	1219244	keystroke_a	a	n/a
609.7505	0.064	1219501	keystroke_n	n	n/a
609.8945	0.08	1219789	keystroke_n	n	n/a
610.0385	0.072	1220077	keystroke_e	e	n/a
610.1825	0.088	1220365	keystroke_l	l	n/a
610.7735	0.089	1221547	keystroke_Key.space	Key.space	n/a
610.9985	0.088	1221997	keystroke_s	s	n/a
611.1025	0.08	1222205	keystroke_i	i	n/a
611.2145	0.088	1222429	keystroke_s	s	n/a
611.422	0.08	1222844	keystroke_t	t	n/a
611.5265	0.0955	1223053	keystroke_e	e	n/a
611.6705	0.0715	1223341	keystroke_r	r	n/a
611.806	0.087	1223612	keystroke_Key.space	Key.space	n/a
611.997	0.097	1223994	keystroke_s	s	n/a
612.15	0.088	1224300	keystroke_u	u	n/a
612.63	0.072	1225260	keystroke_f	f	n/a
612.886	0.088	1225772	keystroke_f	f	n/a
613.19	0.08	1226380	keystroke_i	i	n/a
613.502	0.096	1227004	keystroke_c	c	n/a
613.63	0.096	1227260	keystroke_i	i	n/a
613.766	0.088	1227532	keystroke_e	e	n/a
613.87	0.08	1227740	keystroke_n	n	n/a
614.03	0.072	1228060	keystroke_t	t	n/a
614.166	0.08	1228332	keystroke_Key.space	Key.space	n/a
614.358	0.088	1228716	keystroke_p	p	n/a
614.486	0.088	1228972	keystroke_r	r	n/a
614.63	0.112	1229260	keystroke_o	o	n/a
614.95	0.104	1229900	keystroke_m	m	n/a
615.174	0.088	1230348	keystroke_o	o	n/a
615.366	0.08	1230732	keystroke_t	t	n/a
615.534	0.088	1231068	keystroke_e	e	n/a
615.854	0.08	1231708	keystroke_Key.enter	Key.enter	n/a
615.9405	8.4275	1231881	prompt	n/a	diagram conflict momentum dare\n
616.726	0.12	1233452	keystroke_d	d	n/a
616.854	0.08	1233708	keystroke_i	i	n/a
616.974	0.104	1233948	keystroke_a	a	n/a
617.214	0.096	1234428	keystroke_g	g	n/a
617.494	0.128	1234988	keystroke_r	r	n/a
618.19	0.12	1236380	keystroke_a	a	n/a
618.414	0.104	1236828	keystroke_m	m	n/a
618.934	0.088	1237868	keystroke_Key.space	Key.space	n/a
619.222	0.096	1238444	keystroke_c	c	n/a
619.31	0.08	1238620	keystroke_o	o	n/a
619.478	0.08	1238956	keystroke_n	n	n/a
619.702	0.096	1239404	keystroke_d	d	n/a
619.95	0.1275	1239900	keystroke_l	l	n/a
620.2855	0.056	1240571	keystroke_Key.backspace	Key.backspace	n/a
620.4135	0.096	1240827	keystroke_Key.backspace	Key.backspace	n/a
620.5655	0.072	1241131	keystroke_f	f	n/a
620.6935	0.08	1241387	keystroke_l	l	n/a
620.9095	0.088	1241819	keystroke_i	i	n/a
621.1255	0.136	1242251	keystroke_c	c	n/a
621.4375	0.072	1242875	keystroke_t	t	n/a
621.6135	0.08	1243227	keystroke_Key.space	Key.space	n/a
621.7895	0.088	1243579	keystroke_m	m	n/a
621.9335	0.088	1243867	keystroke_o	o	n/a
622.1415	0.096	1244283	keystroke_m	m	n/a
622.4055	0.104	1244811	keystroke_e	e	n/a
622.5335	0.08	1245067	keystroke_n	n	n/a
622.7335	0.064	1245467	keystroke_t	t	n/a
622.9495	0.104	1245899	keystroke_u	u	n/a
623.1895	0.088	1246379	keystroke_m	m	n/a
623.3575	0.096	1246715	keystroke_Key.space	Key.space	n/a
623.5335	0.128	1247067	keystroke_d	d	n/a
623.7095	0.0955	1247419	keystroke_a	a	n/a
623.885	0.12	1247770	keystroke_r	r	n/a
624.006	0.095	1248012	keystroke_e	e	n/a
624.2775	0.088	1248555	keystroke_Key.enter	Key.enter	n/a
624.381	6.9065	1248762	prompt	n/a	reef viking matter pill\n
625.1255	0.096	1250251	keystroke_r	r	n/a
625.261	0.104	1250522	keystroke_e	e	n/a
625.637	0.096	1251274	keystroke_e	e	n/a
625.901	0.096	1251802	keystroke_d	d	n/a
626.4615	0.096	1252923	keystroke_Key.backspace	Key.backspace	n/a
626.5975	0.08	1253195	keystroke_f	f	n/a
626.7655	0.088	1253531	keystroke_Key.space	Key.space	n/a
627.6775	0.064	1255355	keystroke_v	v	n/a
627.7655	0.104	1255531	keystroke_i	i	n/a
628.0695	0.088	1256139	keystroke_k	k	n/a
628.2455	0.072	1256491	keystroke_i	i	n/a
628.4295	0.088	1256859	keystroke_n	n	n/a
628.8615	0.072	1257723	keystroke_g	g	n/a
629.1415	0.079	1258283	keystroke_Key.space	Key.space	n/a
629.3175	0.088	1258635	keystroke_m	m	n/a
629.4215	0.087	1258843	keystroke_a	a	n/a
629.6135	0.064	1259227	keystroke_t	t	n/a
629.765	0.064	1259530	keystroke_t	t	n/a
629.877	0.088	1259754	keystroke_e	e	n/a
630.029	0.064	1260058	keystroke_r	r	n/a
630.165	0.079	1260330	keystroke_Key.space	Key.space	n/a
630.333	0.096	1260666	keystroke_p	p	n/a
