onset	duration	sample	value	key	prompt_text
30.7845	0.027	61569	keystroke_Key.tab	Key.tab	n/a
30.8395	28.0855	61679	prompt	n/a	the quick brown fox jumps over a lazy dog\n
41.1345	0.028	82269	keystroke_t	t	n/a
41.1475	0.18	82295	keystroke_h	h	n/a
44.5105	0	89021	keystroke_e	e	n/a
45.9625	0.09	91925	keystroke_Key.space	Key.space	n/a
46.8325	0.075	93665	keystroke_q	q	n/a
47.0875	0.09	94175	keystroke_u	u	n/a
47.3425	0.09	94685	keystroke_i	i	n/a
47.7475	0.09	95495	keystroke_c	c	n/a
47.9125	0.075	95825	keystroke_k	k	n/a
48.1975	0.075	96395	keystroke_Key.space	Key.space	n/a
48.4075	0.075	96815	keystroke_b	b	n/a
48.6175	0.075	97235	keystroke_r	r	n/a
48.7825	0.075	97565	keystroke_o	o	n/a
49.1425	0.09	98285	keystroke_w	w	n/a
49.3225	0.09	98645	keystroke_n	n	n/a
49.5775	0.075	99155	keystroke_Key.space	Key.space	n/a
49.7725	0.076	99545	keystroke_f	f	n/a
49.8925	0.075	99785	keystroke_o	o	n/a
50.2075	0.09	100415	keystroke_x	x	n/a
50.3425	0.075	100685	keystroke_Key.space	Key.space	n/a
50.5225	0.075	101045	keystroke_j	j	n/a
50.7625	0.015	101525	keystroke_u	u	n/a
50.9275	0.09	101855	keystroke_m	m	n/a
51.5125	0.045	103025	keystroke_p	p	n/a
51.7675	0.06	103535	keystroke_s	s	n/a
51.8725	0.045	103745	keystroke_Key.space	Key.space	n/a
52.4875	0.075	104975	keystroke_o	o	n/a
52.6375	0.075	105275	keystroke_v	v	n/a
52.8925	0.09	105785	keystroke_e	e	n/a
53.1025	0.09	106205	keystroke_r	r	n/a
53.2375	0.09	106475	keystroke_Key.space	Key.space	n/a
53.4325	0.09	106865	keystroke_a	a	n/a
53.5375	0.105	107075	keystroke_Key.space	Key.space	n/a
53.9275	0.075	107855	keystroke_a	a	n/a
54.7525	0.045	109505	keystroke_Key.backspace	Key.backspace	n/a
55.1875	0.06	110375	keystroke_l	l	n/a
55.3375	0.09	110675	keystroke_a	a	n/a
55.7125	0.105	111425	keystroke_z	z	n/a
55.8775	0.075	111755	keystroke_y	y	n/a
56.0725	0.075	112145	keystroke_Key.space	Key.space	n/a
56.3275	0.09	112655	keystroke_d	d	n/a
56.5375	0.075	113075	keystroke_o	o	n/a
56.9725	0.075	113945	keystroke_g	g	n/a
58.7875	0.135	117575	keystroke_Key.enter	Key.enter	n/a
58.929	9.46	117858	prompt	n/a	civilization elvis connect happen\n
60.2275	0.09	120455	keystroke_c	c	n/a
60.3325	0.09	120665	keystroke_i	i	n/a
60.6625	0.09	121325	keystroke_v	v	n/a
60.7675	0.09	121535	keystroke_i	i	n/a
61.0375	0.075	122075	keystroke_l	l	n/a
61.2625	0.075	122525	keystroke_i	i	n/a
61.9525	0.075	123905	keystroke_z	z	n/a
62.1925	0.105	124385	keystroke_a	a	n/a
62.5375	0.09	125075	keystroke_t	t	n/a
62.6275	0.09	125255	keystroke_i	i	n/a
62.7925	0.075	125585	keystroke_o	o	n/a
63.0175	0.09	126035	keystroke_n	n	n/a
63.2125	0.075	126425	keystroke_Key.space	Key.space	n/a
63.5575	0.09	127115	keystroke_e	e	n/a
63.6925	0.09	127385	keystroke_l	l	n/a
63.9325	0.075	127865	keystroke_v	v	n/a
64.1725	0.075	128345	keystroke_i	i	n/a
64.3825	0.075	128765	keystroke_s	s	n/a
64.5025	0.075	129005	keystroke_Key.space	Key.space	n/a
64.7275	0.105	129455	keystroke_c	c	n/a
64.8025	0.075	129605	keystroke_o	o	n/a
65.0725	0.045	130145	keystroke_n	n	n/a
65.1925	0.075	130385	keystroke_n	n	n/a
65.3425	0.09	130685	keystroke_e	e	n/a
65.5375	0.105	131075	keystroke_c	c	n/a
65.8375	0.075	131675	keystroke_t	t	n/a
66.0175	0.09	132035	keystroke_Key.space	Key.space	n/a
66.3025	0.075	132605	keystroke_h	h	n/a
66.4675	0.075	132935	keystroke_a	a	n/a
66.5875	0.06	133175	keystroke_p	p	n/a
66.7075	0.06	133415	keystroke_p	p	n/a
66.8125	0.09	133625	keystroke_e	e	n/a
66.9175	0.09	133835	keystroke_n	n	n/a
68.2375	0.15	136475	keystroke_Key.enter	Key.enter	n/a
68.3915	10.902	136783	prompt	n/a	expenditures landscapes nervous measurement\n
69.3475	0.06	138695	keystroke_e	e	n/a
69.6625	0.09	139325	keystroke_x	x	n/a
70.0365	0.09	140073	keystroke_p	p	n/a
70.2615	0.075	140523	keystroke_e	e	n/a
70.3665	0.105	140733	keystroke_n	n	n/a
70.6215	0.09	141243	keystroke_d	d	n/a
70.7415	0.075	141483	keystroke_i	i	n/a
71.0265	0.075	142053	keystroke_t	t	n/a
71.1315	0.09	142263	keystroke_u	u	n/a
71.3415	0.09	142683	keystroke_r	r	n/a
71.4615	0.09	142923	keystroke_e	e	n/a
71.9115	0.09	143823	keystroke_s	s	n/a
72.4665	0.12	144933	keystroke_Key.space	Key.space	n/a
72.7515	0.075	145503	keystroke_l	l	n/a
72.9015	0.12	145803	keystroke_a	a	n/a
73.0065	0.09	146013	keystroke_n	n	n/a
73.2315	0.075	146463	keystroke_d	d	n/a
73.4415	0.06	146883	keystroke_s	s	n/a
73.6515	0.03	147303	keystroke_c	c	n/a
73.8015	0.09	147603	keystroke_a	a	n/a
73.9215	0.075	147843	keystroke_p	p	n/a
74.1165	0.105	148233	keystroke_e	e	n/a
74.4165	0.09	148833	keystroke_s	s	n/a
74.5365	0.09	149073	keystroke_Key.space	Key.space	n/a
74.8965	0.06	149793	keystroke_n	n	n/a
75.0465	0.105	150093	keystroke_e	e	n/a
75.2415	0.06	150483	keystroke_r	r	n/a
75.5115	0.06	151023	keystroke_v	v	n/a
75.6015	0.09	151203	keystroke_o	o	n/a
75.6765	0.09	151353	keystroke_u	u	n/a
76.2465	0.09	152493	keystroke_s	s	n/a
76.3515	0.09	152703	keystroke_Key.space	Key.space	n/a
76.5615	0.09	153123	keystroke_m	m	n/a
76.6665	0.12	153333	keystroke_e	e	n/a
76.8615	0.135	153723	keystroke_a	a	n/a
77.1165	0.09	154233	keystroke_s	s	n/a
77.2215	0.09	154443	keystroke_u	u	n/a
77.3565	0.12	154713	keystroke_r	r	n/a
77.4615	0.12	154923	keystroke_e	e	n/a
77.6415	0.12	155283	keystroke_m	m	n/a
77.8065	0.09	155613	keystroke_e	e	n/a
77.9115	0.075	155823	keystroke_n	n	n/a
78.0465	0.075	156093	keystroke_t	t	n/a
78.3165	0.075	156633	keystroke_s	s	n/a
79.1715	0.12	158343	keystroke_Key.enter	Key.enter	n/a
79.2965	8.652	158593	prompt	n/a	failing manhattan nursery luxembourg\n
80.0565	0.075	160113	keystroke_f	f	n/a
80.3115	0.105	160623	keystroke_a	a	n/a
80.7915	0.075	161583	keystroke_i	i	n/a
81.0315	0.06	162063	keystroke_l	l	n/a
81.1815	0.06	162363	keystroke_i	i	n/a
81.3465	0.06	162693	keystroke_n	n	n/a
81.4515	0.075	162903	keystroke_g	g	n/a
81.5565	0.09	163113	keystroke_Key.space	Key.space	n/a
81.7965	0.06	163593	keystroke_m	m	n/a
81.9315	0.09	163863	keystroke_a	a	n/a
82.0065	0.075	164013	keystroke_n	n	n/a
82.1865	0.075	164373	keystroke_h	h	n/a
82.3215	0.075	164643	keystroke_a	a	n/a
82.5615	0.06	165123	keystroke_t	t	n/a
82.6815	0.075	165363	keystroke_t	t	n/a
82.9365	0.09	165873	keystroke_a	a	n/a
83.0415	0.09	166083	keystroke_n	n	n/a
83.3115	0.015	166623	keystroke_Key.space	Key.space	n/a
83.4915	0.105	166983	keystroke_n	n	n/a
83.7015	0.075	167403	keystroke_u	u	n/a
83.9565	0.06	167913	keystroke_r	r	n/a
84.3765	0.105	168753	keystroke_s	s	n/a
84.7365	0.09	169473	keystroke_e	e	n/a
84.9465	0.075	169893	keystroke_r	r	n/a
84.9765	0.105	169953	keystroke_y	y	n/a
85.1415	0.105	170283	keystroke_Key.space	Key.space	n/a
85.4115	0.075	170823	keystroke_l	l	n/a
85.5915	0.09	171183	keystroke_u	u	n/a
85.8315	0.075	171663	keystroke_x	x	n/a
86.0715	0.105	172143	keystroke_e	e	n/a
86.1615	0.09	172323	keystroke_m	m	n/a
86.3865	0.075	172773	keystroke_b	b	n/a
86.6565	0.105	173313	keystroke_o	o	n/a
86.7465	0.12	173493	keystroke_u	u	n/a
86.9415	0.09	173883	keystroke_r	r	n/a
87.0765	0.09	174153	keystroke_g	g	n/a
87.7965	0.15	175593	keystroke_Key.enter	Key.enter	n/a
87.952	6.2065	175904	prompt	n/a	stream chairman julian snake\n
88.7865	0.12	177573	keystroke_s	s	n/a
89.0265	0.105	178053	keystroke_t	t	n/a
89.1915	0.12	178383	keystroke_r	r	n/a
89.3265	0.09	178653	keystroke_e	e	n/a
89.5065	0.12	179013	keystroke_a	a	n/a
89.6415	0.105	179283	keystroke_m	m	n/a
89.7615	0.09	179523	keystroke_Key.space	Key.space	n/a
89.9565	0.075	179913	keystroke_c	c	n/a
90.0465	0.105	180093	keystroke_h	h	n/a
90.2115	0.105	180423	keystroke_a	a	n/a
90.3315	0.075	180663	keystroke_i	i	n/a
90.5415	0.09	181083	keystroke_r	r	n/a
90.7365	0.105	181473	keystroke_m	m	n/a
90.9765	0.09	181953	keystroke_a	a	n/a
91.0815	0.09	182163	keystroke_n	n	n/a
91.2165	0.105	182433	keystroke_Key.space	Key.space	n/a
91.5015	0.075	183003	keystroke_j	j	n/a
91.6515	0.105	183303	keystroke_u	u	n/a
92.0715	0.075	184143	keystroke_l	l	n/a
92.2965	0.06	184593	keystroke_i	i	n/a
92.4315	0.09	184863	keystroke_a	a	n/a
92.5365	0.105	185073	keystroke_n	n	n/a
92.6565	0.09	185313	keystroke_Key.space	Key.space	n/a
92.7915	0.12	185583	keystroke_s	s	n/a
92.9265	0.09	185853	keystroke_n	n	n/a
93.0915	0.06	186183	keystroke_a	a	n/a
93.1665	0.09	186333	keystroke_k	k	n/a
93.3165	0.09	186633	keystroke_e	e	n/a
94.0215	0.135	188043	keystroke_Key.enter	Key.enter	n/a
94.1615	5.0365	188323	prompt	n/a	alive devon sales holds\n
94.7865	0.09	189573	keystroke_a	a	n/a
94.9215	0.06	189843	keystroke_l	l	n/a
95.0865	0.075	190173	keystroke_i	i	n/a
95.1915	0.075	190383	keystroke_v	v	n/a
95.3865	0.075	190773	keystroke_e	e	n/a
95.4915	0.09	190983	keystroke_Key.space	Key.space	n/a
95.6265	0.09	191253	keystroke_d	d	n/a
95.7765	0.09	191553	keystroke_e	e	n/a
96.0315	0.06	192063	keystroke_v	v	n/a
96.1215	0.06	192243	keystroke_o	o	n/a
96.3315	0.075	192663	keystroke_n	n	n/a
96.5865	0.06	193173	keystroke_Key.space	Key.space	n/a
96.8865	0.06	193773	keystroke_s	s	n/a
97.0665	0.06	194133	keystroke_a	a	n/a
97.1565	0.09	194313	keystroke_l	l	n/a
97.3065	0.075	194613	keystroke_e	e	n/a
97.5615	0.075	195123	keystroke_s	s	n/a
97.7415	0.075	195483	keystroke_Key.space	Key.space	n/a
97.9365	0.06	195873	keystroke_h	h	n/a
98.1165	0.09	196233	keystroke_o	o	n/a
98.3115	0.075	196623	keystroke_l	l	n/a
98.4465	0.075	196893	keystroke_d	d	n/a
98.5365	0.06	197073	keystroke_s	s	n/a
99.0465	0.15	198093	keystroke_Key.enter	Key.enter	n/a
99.203	7.54	198406	prompt	n/a	agricultural flip principle happen\n
99.8115	0.09	199623	keystroke_a	a	n/a
100.0215	0.075	200043	keystroke_g	g	n/a
100.2015	0.075	200403	keystroke_r	r	n/a
100.2915	0.09	200583	keystroke_i	i	n/a
100.4865	0.105	200973	keystroke_c	c	n/a
100.6065	0.09	201213	keystroke_u	u	n/a
100.8615	0.075	201723	keystroke_l	l	n/a
101.0715	0.09	202143	keystroke_t	t	n/a
101.2665	0.09	202533	keystroke_u	u	n/a
101.4165	0.075	202833	keystroke_r	r	n/a
101.7165	0.09	203433	keystroke_a	a	n/a
101.8215	0.09	203643	keystroke_l	l	n/a
102.1515	0.09	204303	keystroke_Key.space	Key.space	n/a
102.5115	0.075	205023	keystroke_f	f	n/a
102.6315	0.075	205263	keystroke_l	l	n/a
103.0665	0.045	206133	keystroke_i	i	n/a
103.3815	0.075	206763	keystroke_p	p	n/a
103.6065	0.09	207213	keystroke_Key.space	Key.space	n/a
103.8615	0.06	207723	keystroke_p	p	n/a
104.0415	0.075	208083	keystroke_r	r	n/a
104.1615	0.06	208323	keystroke_i	i	n/a
104.3265	0.075	208653	keystroke_n	n	n/a
104.4615	0.09	208923	keystroke_c	c	n/a
104.5665	0.075	209133	keystroke_i	i	n/a
104.7915	0.075	209583	keystroke_p	p	n/a
105.0015	0.075	210003	keystroke_l	l	n/a
105.1215	0.09	210243	keystroke_e	e	n/a
105.2565	0.045	210513	keystroke_Key.space	Key.space	n/a
105.4065	0.06	210813	keystroke_h	h	n/a
105.5115	0.105	211023	keystroke_a	a	n/a
105.6615	0.045	211323	keystroke_p	p	n/a
105.7665	0.075	211533	keystroke_p	p	n/a
106.0215	0.06	212043	keystroke_e	e	n/a
106.0825	0.104	212165	keystroke_n	n	n/a
106.6815	0.06	213363	keystroke_Key.enter	Key.enter	n/a
106.7455	6.2975	213491	prompt	n/a	talking party rider cooperation\n
107.4165	0.09	214833	keystroke_t	t	n/a
107.6565	0.09	215313	keystroke_a	a	n/a
107.7315	0.135	215463	keystroke_l	l	n/a
107.8365	0.09	215673	keystroke_k	k	n/a
108.0165	0.09	216033	keystroke_i	i	n/a
108.1815	0.09	216363	keystroke_n	n	n/a
108.3465	0.075	216693	keystroke_g	g	n/a
108.4515	0.075	216903	keystroke_Key.space	Key.space	n/a
108.7815	0.075	217563	keystroke_p	p	n/a
109.1415	0.075	218283	keystroke_a	a	n/a
109.3365	0.075	218673	keystroke_r	r	n/a
109.5015	0.09	219003	keystroke_t	t	n/a
109.6215	0.09	219243	keystroke_y	y	n/a
109.7565	0.09	219513	keystroke_Key.space	Key.space	n/a
109.9965	0.09	219993	keystroke_r	r	n/a
110.1015	0.075	220203	keystroke_i	i	n/a
110.2815	0.075	220563	keystroke_d	d	n/a
110.4315	0.105	220863	keystroke_e	e	n/a
110.5215	0.09	221043	keystroke_r	r	n/a
110.6415	0.09	221283	keystroke_Key.space	Key.space	n/a
110.8815	0.06	221763	keystroke_c	c	n/a
110.9565	0.06	221913	keystroke_o	o	n/a
111.0915	0.105	222183	keystroke_o	o	n/a
111.4215	0.075	222843	keystroke_p	p	n/a
111.5865	0.12	223173	keystroke_e	e	n/a
111.7215	0.105	223443	keystroke_r	r	n/a
111.9765	0.075	223953	keystroke_a	a	n/a
112.1715	0.075	224343	keystroke_t	t	n/a
112.2615	0.06	224523	keystroke_i	i	n/a
112.4265	0.075	224853	keystroke_o	o	n/a
112.6065	0.075	225213	keystroke_n	n	n/a
112.9665	0.075	225933	keystroke_Key.enter	Key.enter	n/a
113.0465	6.9565	226093	prompt	n/a	calculated mind heaven he've\n
113.7015	0.075	227403	keystroke_c	c	n/a
113.8815	0.09	227763	keystroke_a	a	n/a
113.9865	0.075	227973	keystroke_l	l	n/a
114.1515	0.09	228303	keystroke_c	c	n/a
114.2565	0.075	228513	keystroke_u	u	n/a
114.4815	0.075	228963	keystroke_l	l	n/a
114.6015	0.105	229203	keystroke_a	a	n/a
114.7965	0.09	229593	keystroke_t	t	n/a
114.9615	0.105	229923	keystroke_e	e	n/a
115.1865	0.105	230373	keystroke_d	d	n/a
115.3065	0.075	230613	keystroke_Key.space	Key.space	n/a
115.4415	0.105	230883	keystroke_m	m	n/a
115.6365	0.045	231273	keystroke_i	i	n/a
115.7715	0.09	231543	keystroke_n	n	n/a
115.9215	0.09	231843	keystroke_d	d	n/a
116.0265	0.09	232053	keystroke_Key.space	Key.space	n/a
116.1765	0.09	232353	keystroke_h	h	n/a
116.2965	0.06	232593	keystroke_e	e	n/a
116.4765	0.06	232953	keystroke_a	a	n/a
116.5965	0.075	233193	keystroke_v	v	n/a
117.3915	0.075	234783	keystroke_e	e	n/a
117.5115	0.075	235023	keystroke_n	n	n/a
117.9165	0.06	235833	keystroke_Key.space	Key.space	n/a
118.0965	0.09	236193	keystroke_h	h	n/a
118.2465	0.105	236493	keystroke_e	e	n/a
118.6065	0.06	237213	keystroke_'	'	n/a
118.9065	0.045	237813	keystroke_v	v	n/a
119.0415	0.06	238083	keystroke_e	e	n/a
119.9265	0.075	239853	keystroke_Key.enter	Key.enter	n/a
120.006	8.0675	240012	prompt	n/a	decisions argentina states katie\n
120.9465	0.09	241893	keystroke_d	d	n/a
121.1265	0.075	242253	keystroke_e	e	n/a
121.3365	0.075	242673	keystroke_c	c	n/a
121.4415	0.045	242883	keystroke_i	i	n/a
121.5765	0.075	243153	keystroke_s	s	n/a
121.6965	0.075	243393	keystroke_i	i	n/a
121.8915	0.045	243783	keystroke_o	o	n/a
122.0715	0.06	244143	keystroke_n	n	n/a
122.2215	0.075	244443	keystroke_s	s	n/a
122.3565	0.105	244713	keystroke_Key.space	Key.space	n/a
122.6415	0.09	245283	keystroke_a	a	n/a
122.8815	0.06	245763	keystroke_r	r	n/a
123.0015	0.09	246003	keystroke_g	g	n/a
123.1215	0.105	246243	keystroke_e	e	n/a
123.2865	0.09	246573	keystroke_n	n	n/a
123.4815	0.09	246963	keystroke_t	t	n/a
123.5865	0.06	247173	keystroke_i	i	n/a
123.7365	0.09	247473	keystroke_n	n	n/a
123.8565	0.075	247713	keystroke_a	a	n/a
124.0215	0.075	248043	keystroke_Key.space	Key.space	n/a
124.2465	0.105	248493	keystroke_s	s	n/a
124.3665	0.09	248733	keystroke_k	k	n/a
125.0565	0.075	250113	keystroke_Key.backspace	Key.backspace	n/a
125.3565	0.075	250713	keystroke_t	t	n/a
125.5965	0.105	251193	keystroke_a	a	n/a
125.7915	0.09	251583	keystroke_t	t	n/a
125.9565	0.09	251913	keystroke_e	e	n/a
126.2115	0.09	252423	keystroke_s	s	n/a
126.5115	0.075	253023	keystroke_Key.space	Key.space	n/a
126.8415	0.09	253683	keystroke_k	k	n/a
126.9615	0.105	253923	keystroke_a	a	n/a
127.1865	0.09	254373	keystroke_t	t	n/a
127.2915	0.09	254583	keystroke_i	i	n/a
127.5015	0.075	255003	keystroke_e	e	n/a
127.9665	0.105	255933	keystroke_Key.enter	Key.enter	n/a
128.0765	9.342	256153	prompt	n/a	pdas priorities wanting institutes\n
128.7915	0.06	257583	keystroke_p	p	n/a
129.0015	0.09	258003	keystroke_d	d	n/a
129.1815	0.105	258363	keystroke_a	a	n/a
129.4365	0.045	258873	keystroke_s	s	n/a
130.0215	0.12	260043	keystroke_Key.space	Key.space	n/a
130.5465	0.075	261093	keystroke_p	p	n/a
130.7715	0.09	261543	keystroke_r	r	n/a
130.8915	0.075	261783	keystroke_i	i	n/a
131.2665	0.075	262533	keystroke_o	o	n/a
131.5215	0.09	263043	keystroke_r	r	n/a
131.6565	0.06	263313	keystroke_i	i	n/a
131.8815	0.06	263763	keystroke_t	t	n/a
131.9865	0.06	263973	keystroke_i	i	n/a
132.2565	0.09	264513	keystroke_e	e	n/a
132.4815	0.075	264963	keystroke_s	s	n/a
133.6065	0.09	267213	keystroke_Key.space	Key.space	n/a
133.7865	0.105	267573	keystroke_w	w	n/a
133.9365	0.12	267873	keystroke_a	a	n/a
134.0715	0.09	268143	keystroke_n	n	n/a
134.2365	0.09	268473	keystroke_t	t	n/a
134.3415	0.06	268683	keystroke_i	i	n/a
134.4765	0.09	268953	keystroke_n	n	n/a
134.5815	0.09	269163	keystroke_g	g	n/a
134.6865	0.09	269373	keystroke_Key.space	Key.space	n/a
134.8815	0.075	269763	keystroke_i	i	n/a
135.0465	0.09	270093	keystroke_n	n	n/a
135.1515	0.12	270303	keystroke_s	s	n/a
135.3765	0.105	270753	keystroke_t	t	n/a
135.5265	0.09	271053	keystroke_i	i	n/a
135.8565	0.09	271713	keystroke_t	t	n/a
135.9765	0.075	271953	keystroke_u	u	n/a
136.2465	0.075	272493	keystroke_t	t	n/a
136.4265	0.075	272853	keystroke_e	e	n/a
136.6815	0.075	273363	keystroke_s	s	n/a
137.3115	0.105	274623	keystroke_Key.enter	Key.enter	n/a
137.421	6.268	274842	prompt	n/a	wires gore karma perception\n
138.0325	0.104	276065	keystroke_w	w	n/a
138.1515	0.06	276303	keystroke_i	i	n/a
138.2565	0.121	276513	keystroke_r	r	n/a
138.3615	0.105	276723	keystroke_e	e	n/a
138.6465	0.075	277293	keystroke_s	s	n/a
138.7815	0.09	277563	keystroke_Key.space	Key.space	n/a
139.0365	0.075	278073	keystroke_g	g	n/a
139.1265	0.075	278253	keystroke_o	o	n/a
139.2615	0.12	278523	keystroke_r	r	n/a
139.3665	0.075	278733	keystroke_e	e	n/a
139.5015	0.09	279003	keystroke_Key.space	Key.space	n/a
139.6815	0.06	279363	keystroke_k	k	n/a
139.8015	0.105	279603	keystroke_a	a	n/a
139.9815	0.09	279963	keystroke_r	r	n/a
140.1015	0.09	280203	keystroke_m	m	n/a
140.2665	0.12	280533	keystroke_a	a	n/a
140.4315	0.09	280863	keystroke_Key.space	Key.space	n/a
140.7315	0.075	281463	keystroke_p	p	n/a
140.8965	0.076	281793	keystroke_e	e	n/a
140.9865	0.075	281973	keystroke_r	r	n/a
141.2115	0.09	282423	keystroke_c	c	n/a
141.3615	0.09	282723	keystroke_e	e	n/a
141.4675	0.089	282935	keystroke_p	p	n/a
141.6475	0.089	283295	keystroke_t	t	n/a
141.7665	0.076	283533	keystroke_i	i	n/a
141.9315	0.06	283863	keystroke_o	o	n/a
142.1115	0.075	284223	keystroke_n	n	n/a
143.5815	0.105	287163	keystroke_Key.enter	Key.enter	n/a
143.692	7.9615	287384	prompt	n/a	diff auckland integrate namespace\n
145.1725	0.089	290345	keystroke_d	d	n/a
145.7115	0.09	291423	keystroke_i	i	n/a
145.9075	0.074	291815	keystroke_f	f	n/a
146.0715	0.09	292143	keystroke_f	f	n/a
146.2815	0.075	292563	keystroke_Key.space	Key.space	n/a
146.4765	0.105	292953	keystroke_a	a	n/a
146.5365	0.106	293073	keystroke_u	u	n/a
146.7765	0.076	293553	keystroke_k	k	n/a
146.9725	0.06	293945	keystroke_l	l	n/a
147.0915	0.075	294183	keystroke_a	a	n/a
147.1965	0.075	294393	keystroke_n	n	n/a
147.3465	0.105	294693	keystroke_d	d	n/a
147.7215	0.09	295443	keystroke_Key.space	Key.space	n/a
147.9475	0.06	295895	keystroke_i	i	n/a
148.0975	0.089	296195	keystroke_n	n	n/a
148.2915	0.091	296583	keystroke_t	t	n/a
148.4715	0.075	296943	keystroke_e	e	n/a
148.6075	0.089	297215	keystroke_g	g	n/a
148.7415	0.09	297483	keystroke_r	r	n/a
148.9525	0.074	297905	keystroke_a	a	n/a
149.1625	0.075	298325	keystroke_t	t	n/a
149.3115	0.091	298623	keystroke_e	e	n/a
149.8515	0.09	299703	keystroke_Key.space	Key.space	n/a
150.0915	0.075	300183	keystroke_n	n	n/a
150.1815	0.105	300363	keystroke_a	a	n/a
150.3325	0.09	300665	keystroke_m	m	n/a
150.5115	0.09	301023	keystroke_e	e	n/a
150.7515	0.075	301503	keystroke_s	s	n/a
150.8275	0.075	301655	keystroke_p	p	n/a
150.9765	0.061	301953	keystroke_a	a	n/a
151.1725	0.045	302345	keystroke_c	c	n/a
151.2925	0.09	302585	keystroke_e	e	n/a
151.5475	0.105	303095	keystroke_Key.enter	Key.enter	n/a
151.657	5.6815	303314	prompt	n/a	forwarding sims films collectors\n
152.3865	0.076	304773	keystroke_f	f	n/a
152.4775	0.06	304955	keystroke_o	o	n/a
152.6725	0.075	305345	keystroke_r	r	n/a
152.9425	0.06	305885	keystroke_w	w	n/a
153.0925	0.089	306185	keystroke_a	a	n/a
153.2575	0.06	306515	keystroke_r	r	n/a
153.4675	0.075	306935	keystroke_d	d	n/a
153.5575	0.06	307115	keystroke_i	i	n/a
153.6775	0.075	307355	keystroke_n	n	n/a
153.7675	0.075	307535	keystroke_g	g	n/a
153.8865	0.075	307773	keystroke_Key.space	Key.space	n/a
154.0225	0.09	308045	keystroke_s	s	n/a
154.0965	0.076	308193	keystroke_i	i	n/a
154.2775	0.075	308555	keystroke_m	m	n/a
154.4275	0.09	308855	keystroke_s	s	n/a
154.5325	0.075	309065	keystroke_Key.space	Key.space	n/a
154.7575	0.045	309515	keystroke_f	f	n/a
154.8175	0.075	309635	keystroke_i	i	n/a
155.0275	0.045	310055	keystroke_l	l	n/a
155.2075	0.06	310415	keystroke_m	m	n/a
155.3275	0.074	310655	keystroke_s	s	n/a
155.4625	0.09	310925	keystroke_Key.space	Key.space	n/a
155.6125	0.075	311225	keystroke_c	c	n/a
155.7175	0.075	311435	keystroke_o	o	n/a
155.9125	0.06	311825	keystroke_l	l	n/a
156.0475	0.059	312095	keystroke_l	l	n/a
156.0775	0.105	312155	keystroke_e	e	n/a
156.2725	0.09	312545	keystroke_c	c	n/a
156.4975	0.09	312995	keystroke_t	t	n/a
156.6025	0.075	313205	keystroke_o	o	n/a
156.7075	0.09	313415	keystroke_r	r	n/a
157.0075	0.06	314015	keystroke_s	s	n/a
157.2475	0.09	314495	keystroke_Key.enter	Key.enter	n/a
157.3415	5.412	314683	prompt	n/a	rural accessories named kevin\n
158.0275	0.075	316055	keystroke_r	r	n/a
158.1175	0.075	316235	keystroke_u	u	n/a
158.2375	0.075	316475	keystroke_r	r	n/a
158.4765	0.076	316953	keystroke_a	a	n/a
158.5675	0.075	317135	keystroke_l	l	n/a
158.6875	0.075	317375	keystroke_Key.space	Key.space	n/a
158.8225	0.09	317645	keystroke_a	a	n/a
159.0475	0.075	318095	keystroke_c	c	n/a
159.1975	0.075	318395	keystroke_c	c	n/a
159.3325	0.075	318665	keystroke_e	e	n/a
159.5425	0.075	319085	keystroke_s	s	n/a
159.7075	0.075	319415	keystroke_s	s	n/a
159.8725	0.044	319745	keystroke_o	o	n/a
160.1125	0.06	320225	keystroke_r	r	n/a
160.2325	0.06	320465	keystroke_i	i	n/a
160.4125	0.09	320825	keystroke_e	e	n/a
160.6375	0.06	321275	keystroke_s	s	n/a
160.7265	0.091	321453	keystroke_Key.space	Key.space	n/a
160.8925	0.075	321785	keystroke_n	n	n/a
160.9975	0.105	321995	keystroke_a	a	n/a
161.1325	0.075	322265	keystroke_m	m	n/a
161.2375	0.075	322475	keystroke_e	e	n/a
161.4325	0.075	322865	keystroke_d	d	n/a
161.5375	0.075	323075	keystroke_Key.space	Key.space	n/a
161.6875	0.075	323375	keystroke_k	k	n/a
161.8675	0.045	323735	keystroke_e	e	n/a
161.9425	0.06	323885	keystroke_v	v	n/a
162.1525	0.06	324305	keystroke_i	i	n/a
162.2875	0.075	324575	keystroke_n	n	n/a
162.6775	0.075	325355	keystroke_Key.enter	Key.enter	n/a
162.7565	7.587	325513	prompt	n/a	equipment maryland teeth conversation\n
163.4875	0.09	326975	keystroke_e	e	n/a
163.8025	0.06	327605	keystroke_q	q	n/a
163.8775	0.075	327755	keystroke_u	u	n/a
164.0275	0.075	328055	keystroke_i	i	n/a
164.2525	0.06	328505	keystroke_p	p	n/a
164.4775	0.09	328955	keystroke_m	m	n/a
164.6125	0.09	329225	keystroke_e	e	n/a
164.7325	0.075	329465	keystroke_n	n	n/a
164.8825	0.075	329765	keystroke_t	t	n/a
165.0025	0.075	330005	keystroke_Key.space	Key.space	n/a
165.1675	0.09	330335	keystroke_m	m	n/a
165.3025	0.09	330605	keystroke_a	a	n/a
165.4975	0.075	330995	keystroke_r	r	n/a
165.5875	0.075	331175	keystroke_y	y	n/a
165.8275	0.06	331655	keystroke_l	l	n/a
165.9475	0.09	331895	keystroke_a	a	n/a
166.0675	0.075	332135	keystroke_n	n	n/a
166.1875	0.075	332375	keystroke_d	d	n/a
166.2775	0.075	332555	keystroke_Key.space	Key.space	n/a
166.4575	0.075	332915	keystroke_t	t	n/a
166.6675	0.045	333335	keystroke_e	e	n/a
166.8175	0.09	333635	keystroke_e	e	n/a
166.9675	0.105	333935	keystroke_t	t	n/a
167.0875	0.075	334175	keystroke_h	h	n/a
167.1925	0.09	334385	keystroke_Key.space	Key.space	n/a
167.5525	0.075	335105	keystroke_c	c	n/a
167.6425	0.06	335285	keystroke_o	o	n/a
167.8225	0.075	335645	keystroke_n	n	n/a
167.9275	0.045	335855	keystroke_v	v	n/a
168.0625	0.12	336125	keystroke_e	e	n/a
168.1675	0.09	336335	keystroke_r	r	n/a
168.4075	0.075	336815	keystroke_s	s	n/a
168.8875	0.09	337775	keystroke_a	a	n/a
169.1425	0.09	338285	keystroke_t	t	n/a
169.2925	0.06	338585	keystroke_i	i	n/a
169.4275	0.12	338855	keystroke_o	o	n/a
169.6675	0.03	339335	keystroke_n	n	n/a
170.2375	0.105	340475	keystroke_Key.enter	Key.enter	n/a
170.3465	7.0325	340693	prompt	n/a	detroit richardson accidents christina\n
171.2125	0.075	342425	keystroke_d	d	n/a
171.3625	0.09	342725	keystroke_e	e	n/a
171.5875	0.06	343175	keystroke_t	t	n/a
171.7525	0.075	343505	keystroke_r	r	n/a
171.8575	0.09	343715	keystroke_o	o	n/a
172.0525	0.06	344105	keystroke_i	i	n/a
172.2325	0.075	344465	keystroke_t	t	n/a
172.3375	0.105	344675	keystroke_Key.space	Key.space	n/a
172.5325	0.075	345065	keystroke_r	r	n/a
172.6525	0.075	345305	keystroke_i	i	n/a
172.8475	0.075	345695	keystroke_c	c	n/a
172.9375	0.075	345875	keystroke_h	h	n/a
173.0575	0.105	346115	keystroke_a	a	n/a
173.2225	0.075	346445	keystroke_r	r	n/a
173.4325	0.06	346865	keystroke_d	d	n/a
173.5675	0.075	347135	keystroke_s	s	n/a
173.7025	0.045	347405	keystroke_o	o	n/a
173.8825	0.06	347765	keystroke_n	n	n/a
173.9575	0.075	347915	keystroke_Key.space	Key.space	n/a
174.0625	0.105	348125	keystroke_a	a	n/a
174.2875	0.075	348575	keystroke_c	c	n/a
174.4525	0.06	348905	keystroke_c	c	n/a
174.5725	0.075	349145	keystroke_i	i	n/a
174.7225	0.0745	349445	keystroke_d	d	n/a
174.9025	0.075	349805	keystroke_e	e	n/a
174.9925	0.075	349985	keystroke_n	n	n/a
175.1275	0.045	350255	keystroke_t	t	n/a
175.3525	0.06	350705	keystroke_s	s	n/a
175.4575	0.075	350915	keystroke_Key.space	Key.space	n/a
175.6075	0.075	351215	keystroke_c	c	n/a
175.6825	0.09	351365	keystroke_h	h	n/a
175.8625	0.075	351725	keystroke_r	r	n/a
175.9675	0.075	351935	keystroke_i	i	n/a
176.1025	0.09	352205	keystroke_s	s	n/a
176.2975	0.075	352595	keystroke_t	t	n/a
176.4025	0.075	352805	keystroke_i	i	n/a
176.5525	0.075	353105	keystroke_n	n	n/a
176.7925	0.09	353585	keystroke_a	a	n/a
177.2875	0.09	354575	keystroke_Key.enter	Key.enter	n/a
177.3835	8.53	354767	prompt	n/a	thursday territory dame selection\n
178.0525	0.075	356105	keystroke_t	t	n/a
178.1425	0.075	356285	keystroke_h	h	n/a
178.2625	0.075	356525	keystroke_u	u	n/a
178.4125	0.09	356825	keystroke_r	r	n/a
178.6675	0.075	357335	keystroke_s	s	n/a
178.8475	0.075	357695	keystroke_d	d	n/a
178.9675	0.12	357935	keystroke_a	a	n/a
179.1025	0.105	358205	keystroke_y	y	n/a
179.3425	0.09	358685	keystroke_Key.space	Key.space	n/a
179.957	0.09	359914	keystroke_t	t	n/a
180.167	0.09	360334	keystroke_e	e	n/a
180.407	0.0755	360814	keystroke_r	r	n/a
180.5575	0.0595	361115	keystroke_r	r	n/a
180.6775	0.0895	361355	keystroke_i	i	n/a
181.337	0.09	362674	keystroke_t	t	n/a
181.427	0.075	362854	keystroke_o	o	n/a
181.652	0.075	363304	keystroke_r	r	n/a
181.7725	0.09	363545	keystroke_y	y	n/a
182.492	0.0905	364984	keystroke_Key.space	Key.space	n/a
182.7025	0.1045	365405	keystroke_d	d	n/a
182.957	0.09	365914	keystroke_a	a	n/a
183.092	0.075	366184	keystroke_m	m	n/a
183.2875	0.09	366575	keystroke_e	e	n/a
183.527	0.1055	367054	keystroke_Key.space	Key.space	n/a
183.6475	0.1045	367295	keystroke_s	s	n/a
183.8425	0.075	367685	keystroke_e	e	n/a
183.9625	0.075	367925	keystroke_l	l	n/a
184.082	0.075	368164	keystroke_e	e	n/a
184.3075	0.09	368615	keystroke_c	c	n/a
184.562	0.075	369124	keystroke_t	t	n/a
184.6525	0.0595	369305	keystroke_i	i	n/a
184.787	0.075	369574	keystroke_o	o	n/a
184.967	0.09	369934	keystroke_n	n	n/a
185.762	0.15	371524	keystroke_Key.enter	Key.enter	n/a
185.9165	6.312	371833	prompt	n/a	bleeding stockings sorted you've\n
186.632	0.06	373264	keystroke_b	b	n/a
186.872	0.06	373744	keystroke_l	l	n/a
187.007	0.075	374014	keystroke_e	e	n/a
187.172	0.06	374344	keystroke_e	e	n/a
187.337	0.09	374674	keystroke_d	d	n/a
187.442	0.045	374884	keystroke_i	i	n/a
187.547	0.075	375094	keystroke_n	n	n/a
187.682	0.075	375364	keystroke_g	g	n/a
187.772	0.09	375544	keystroke_Key.space	Key.space	n/a
187.922	0.105	375844	keystroke_s	s	n/a
188.147	0.075	376294	keystroke_t	t	n/a
188.252	0.075	376504	keystroke_o	o	n/a
188.447	0.09	376894	keystroke_c	c	n/a
188.567	0.045	377134	keystroke_k	k	n/a
188.717	0.06	377434	keystroke_i	i	n/a
188.852	0.06	377704	keystroke_n	n	n/a
188.927	0.075	377854	keystroke_g	g	n/a
189.197	0.075	378394	keystroke_s	s	n/a
189.347	0.09	378694	keystroke_Key.space	Key.space	n/a
189.482	0.09	378964	keystroke_s	s	n/a
189.6315	0.06	379263	keystroke_o	o	n/a
189.7965	0.09	379593	keystroke_r	r	n/a
189.9915	0.09	379983	keystroke_t	t	n/a
190.2465	0.015	380493	keystroke_e	e	n/a
190.3665	0.09	380733	keystroke_d	d	n/a
190.4715	0.075	380943	keystroke_Key.space	Key.space	n/a
190.6965	0.045	381393	keystroke_y	y	n/a
190.8915	0.105	381783	keystroke_o	o	n/a
190.9515	0.09	381903	keystroke_u	u	n/a
191.2515	0.045	382503	keystroke_'	'	n/a
191.3865	0.09	382773	keystroke_v	v	n/a
191.5815	0.075	383163	keystroke_e	e	n/a
192.137	0.09	384274	keystroke_Key.enter	Key.enter	n/a
192.2315	4.6915	384463	prompt	n/a	type driven sing hoping\n
192.8715	0.09	385743	keystroke_t	t	n/a
192.9765	0.09	385953	keystroke_y	y	n/a
193.2015	0.075	386403	keystroke_p	p	n/a
193.3365	0.075	386673	keystroke_e	e	n/a
193.4715	0.09	386943	keystroke_Key.space	Key.space	n/a
193.6365	0.09	387273	keystroke_d	d	n/a
193.8015	0.075	387603	keystroke_r	r	n/a
193.9065	0.075	387813	keystroke_i	i	n/a
194.1015	0.06	388203	keystroke_v	v	n/a
194.2965	0.09	388593	keystroke_e	e	n/a
194.4165	0.09	388833	keystroke_n	n	n/a
194.5515	0.105	389103	keystroke_Key.space	Key.space	n/a
194.7315	0.09	389463	keystroke_s	s	n/a
195.0165	0.075	390033	keystroke_i	i	n/a
195.1515	0.09	390303	keystroke_n	n	n/a
195.2865	0.09	390573	keystroke_g	g	n/a
195.3915	0.09	390783	keystroke_Key.space	Key.space	n/a
195.5265	0.09	391053	keystroke_h	h	n/a
195.7215	0.075	391443	keystroke_o	o	n/a
195.9165	0.06	391833	keystroke_p	p	n/a
196.0815	0.075	392163	keystroke_i	i	n/a
196.2465	0.075	392493	keystroke_n	n	n/a
196.3815	0.075	392763	keystroke_g	g	n/a
196.8315	0.09	393663	keystroke_Key.enter	Key.enter	n/a
196.9255	6.5075	393851	prompt	n/a	xerox ghana clips ethernet\n
197.6865	0.09	395373	keystroke_x	x	n/a
197.9265	0.105	395853	keystroke_e	e	n/a
198.0915	0.09	396183	keystroke_r	r	n/a
198.1965	0.075	396393	keystroke_o	o	n/a
198.4515	0.06	396903	keystroke_x	x	n/a
198.6015	0.09	397203	keystroke_Key.space	Key.space	n/a
198.9465	0.045	397893	keystroke_g	g	n/a
199.1265	0.06	398253	keystroke_h	h	n/a
199.2015	0.075	398403	keystroke_a	a	n/a
199.6965	0.075	399393	keystroke_n	n	n/a
199.8165	0.09	399633	keystroke_a	a	n/a
200.0865	0.09	400173	keystroke_Key.space	Key.space	n/a
200.4015	0.06	400803	keystroke_c	c	n/a
200.4915	0.075	400983	keystroke_l	l	n/a
200.7015	0.06	401403	keystroke_i	i	n/a
200.9565	0.075	401913	keystroke_p	p	n/a
201.1065	0.09	402213	keystroke_s	s	n/a
201.3465	0.09	402693	keystroke_Key.space	Key.space	n/a
201.5265	0.09	403053	keystroke_e	e	n/a
201.7665	0.09	403533	keystroke_t	t	n/a
201.8415	0.09	403683	keystroke_h	h	n/a
201.9465	0.135	403893	keystroke_e	e	n/a
202.0665	0.12	404133	keystroke_r	r	n/a
202.2165	0.09	404433	keystroke_n	n	n/a
202.3365	0.09	404673	keystroke_e	e	n/a
202.5165	0.09	405033	keystroke_t	t	n/a
203.3565	0.075	406713	keystroke_Key.enter	Key.enter	n/a
203.436	6.477	406872	prompt	n/a	rare derek communications locator\n
204.1965	0.09	408393	keystroke_r	r	n/a
204.3765	0.105	408753	keystroke_a	a	n/a
204.5565	0.09	409113	keystroke_r	r	n/a
204.6615	0.09	409323	keystroke_e	e	n/a
204.8115	0.105	409623	keystroke_Key.space	Key.space	n/a
205.0965	0.06	410193	keystroke_d	d	n/a
205.2315	0.135	410463	keystroke_e	e	n/a
205.3215	0.105	410643	keystroke_r	r	n/a
205.5015	0.09	411003	keystroke_e	e	n/a
205.6665	0.105	411333	keystroke_k	k	n/a
206.0715	0.09	412143	keystroke_Key.space	Key.space	n/a
206.3265	0.075	412653	keystroke_c	c	n/a
206.4015	0.075	412803	keystroke_o	o	n/a
206.5965	0.075	413193	keystroke_m	m	n/a
206.7315	0.075	413463	keystroke_m	m	n/a
206.9115	0.075	413823	keystroke_u	u	n/a
207.0315	0.075	414063	keystroke_n	n	n/a
207.2115	0.06	414423	keystroke_i	i	n/a
207.3165	0.075	414633	keystroke_c	c	n/a
207.4965	0.09	414993	keystroke_a	a	n/a
207.7065	0.075	415413	keystroke_t	t	n/a
207.7965	0.09	415593	keystroke_i	i	n/a
207.9465	0.045	415893	keystroke_o	o	n/a
208.0965	0.06	416193	keystroke_n	n	n/a
208.1865	0.105	416373	keystroke_s	s	n/a
208.3215	0.075	416643	keystroke_Key.space	Key.space	n/a
208.4865	0.06	416973	keystroke_l	l	n/a
208.6365	0.075	417273	keystroke_o	o	n/a
208.7565	0.06	417513	keystroke_c	c	n/a
208.8915	0.09	417783	keystroke_a	a	n/a
209.1015	0.09	418203	keystroke_t	t	n/a
209.1765	0.075	418353	keystroke_o	o	n/a
209.3115	0.09	418623	keystroke_r	r	n/a
209.7765	0.135	419553	keystroke_Key.enter	Key.enter	n/a
209.916	5.877	419832	prompt	n/a	societies threat honors told\n
210.5415	0.075	421083	keystroke_s	s	n/a
210.6015	0.06	421203	keystroke_o	o	n/a
210.7515	0.105	421503	keystroke_c	c	n/a
210.8715	0.06	421743	keystroke_i	i	n/a
211.0665	0.09	422133	keystroke_e	e	n/a
211.2315	0.09	422463	keystroke_t	t	n/a
211.3815	0.075	422763	keystroke_i	i	n/a
211.6215	0.06	423243	keystroke_e	e	n/a
211.8315	0.075	423663	keystroke_s	s	n/a
211.9515	0.075	423903	keystroke_Key.space	Key.space	n/a
212.1015	0.09	424203	keystroke_t	t	n/a
212.1765	0.105	424353	keystroke_h	h	n/a
212.3115	0.09	424623	keystroke_r	r	n/a
212.4315	0.09	424863	keystroke_e	e	n/a
212.6715	0.06	425343	keystroke_a	a	n/a
212.9115	0.075	425823	keystroke_t	t	n/a
213.5115	0.075	427023	keystroke_Key.space	Key.space	n/a
213.6765	0.06	427353	keystroke_h	h	n/a
213.8415	0.06	427683	keystroke_o	o	n/a
214.0065	0.06	428013	keystroke_n	n	n/a
214.1715	0.045	428343	keystroke_o	o	n/a
214.2765	0.075	428553	keystroke_r	r	n/a
214.5015	0.075	429003	keystroke_s	s	n/a
214.6215	0.075	429243	keystroke_Key.space	Key.space	n/a
214.8765	0.075	429753	keystroke_t	t	n/a
214.9815	0.06	429963	keystroke_o	o	n/a
215.1615	0.075	430323	keystroke_l	l	n/a
215.2965	0.09	430593	keystroke_d	d	n/a
215.7165	0.075	431433	keystroke_Key.enter	Key.enter	n/a
215.7955	6.5975	431591	prompt	n/a	enable height revelation identifying\n
216.4215	0.09	432843	keystroke_e	e	n/a
216.4965	0.075	432993	keystroke_n	n	n/a
216.6015	0.135	433203	keystroke_a	a	n/a
216.7815	0.06	433563	keystroke_b	b	n/a
216.9915	0.06	433983	keystroke_l	l	n/a
217.1115	0.075	434223	keystroke_e	e	n/a
217.2015	0.075	434403	keystroke_Key.space	Key.space	n/a
217.3365	0.09	434673	keystroke_h	h	n/a
217.4865	0.09	434973	keystroke_e	e	n/a
217.6215	0.03	435243	keystroke_i	i	n/a
217.9215	0.06	435843	keystroke_g	g	n/a
218.0565	0.075	436113	keystroke_h	h	n/a
218.2515	0.075	436503	keystroke_t	t	n/a
218.6865	0.075	437373	keystroke_Key.space	Key.space	n/a
218.8815	0.105	437763	keystroke_r	r	n/a
218.9715	0.09	437943	keystroke_e	e	n/a
219.2415	0.09	438483	keystroke_v	v	n/a
219.4365	0.045	438873	keystroke_e	e	n/a
219.5415	0.09	439083	keystroke_l	l	n/a
219.6915	0.105	439383	keystroke_a	a	n/a
219.9615	0.06	439923	keystroke_t	t	n/a
220.0365	0.09	440073	keystroke_i	i	n/a
220.2165	0.06	440433	keystroke_o	o	n/a
220.3965	0.075	440793	keystroke_n	n	n/a
220.4715	0.09	440943	keystroke_Key.space	Key.space	n/a
220.6665	0.06	441333	keystroke_i	i	n/a
220.7715	0.09	441543	keystroke_d	d	n/a
220.9365	0.09	441873	keystroke_e	e	n/a
221.0415	0.075	442083	keystroke_n	n	n/a
221.2065	0.075	442413	keystroke_t	t	n/a
221.2965	0.075	442593	keystroke_i	i	n/a
221.4615	0.075	442923	keystroke_f	f	n/a
221.5965	0.09	443193	keystroke_y	y	n/a
221.7915	0.045	443583	keystroke_i	i	n/a
221.9265	0.075	443853	keystroke_n	n	n/a
222.0315	0.075	444063	keystroke_g	g	n/a
222.3165	0.075	444633	keystroke_Key.enter	Key.enter	n/a
222.396	7.272	444792	prompt	n/a	fail constantly beverage conversation\n
223.1115	0.06	446223	keystroke_f	f	n/a
223.2765	0.09	446553	keystroke_a	a	n/a
223.3515	0.12	446703	keystroke_i	i	n/a
223.5915	0.075	447183	keystroke_l	l	n/a
223.6965	0.09	447393	keystroke_Key.space	Key.space	n/a
223.8315	0.105	447663	keystroke_c	c	n/a
223.9215	0.06	447843	keystroke_o	o	n/a
224.1015	0.075	448203	keystroke_n	n	n/a
224.1915	0.09	448383	keystroke_s	s	n/a
224.3715	0.075	448743	keystroke_t	t	n/a
224.5665	0.09	449133	keystroke_a	a	n/a
224.6715	0.09	449343	keystroke_n	n	n/a
224.8665	0.075	449733	keystroke_t	t	n/a
225.0015	0.06	450003	keystroke_l	l	n/a
225.1965	0.075	450393	keystroke_y	y	n/a
225.3465	0.09	450693	keystroke_Key.space	Key.space	n/a
225.6165	0.06	451233	keystroke_b	b	n/a
225.7215	0.075	451443	keystroke_e	e	n/a
225.9765	0.06	451953	keystroke_v	v	n/a
226.0815	0.075	452163	keystroke_e	e	n/a
226.2765	0.06	452553	keystroke_r	r	n/a
226.4565	0.09	452913	keystroke_a	a	n/a
226.5765	0.075	453153	keystroke_g	g	n/a
226.7115	0.09	453423	keystroke_e	e	n/a
226.8165	0.105	453633	keystroke_Key.space	Key.space	n/a
227.0715	0.06	454143	keystroke_c	c	n/a
227.1615	0.045	454323	keystroke_o	o	n/a
227.3415	0.075	454683	keystroke_n	n	n/a
227.4315	0.06	454863	keystroke_v	v	n/a
227.5815	0.12	455163	keystroke_e	e	n/a
227.6865	0.105	455373	keystroke_r	r	n/a
227.9265	0.075	455853	keystroke_s	s	n/a
228.3465	0.075	456693	keystroke_a	a	n/a
228.5565	0.09	457113	keystroke_t	t	n/a
228.6465	0.105	457293	keystroke_i	i	n/a
228.8115	0.06	457623	keystroke_o	o	n/a
228.9615	0.09	457923	keystroke_n	n	n/a
229.5615	0.105	459123	keystroke_Key.enter	Key.enter	n/a
229.6705	7.2275	459341	prompt	n/a	somewhere manitoba wesley according\n
230.2965	0.105	460593	keystroke_s	s	n/a
230.3865	0.06	460773	keystroke_o	o	n/a
230.5515	0.09	461103	keystroke_m	m	n/a
230.7015	0.09	461403	keystroke_e	e	n/a
230.8965	0.09	461793	keystroke_w	w	n/a
230.9715	0.09	461943	keystroke_h	h	n/a
231.1065	0.105	462213	keystroke_e	e	n/a
231.3165	0.09	462633	keystroke_r	r	n/a
231.4215	0.075	462843	keystroke_e	e	n/a
231.7965	0.075	463593	keystroke_Key.space	Key.space	n/a
231.9915	0.09	463983	keystroke_m	m	n/a
232.1415	0.09	464283	keystroke_a	a	n/a
232.2615	0.075	464523	keystroke_n	n	n/a
232.4265	0.09	464853	keystroke_i	i	n/a
232.5765	0.09	465153	keystroke_t	t	n/a
232.6815	0.045	465363	keystroke_o	o	n/a
232.8765	0.06	465753	keystroke_b	b	n/a
232.9815	0.12	465963	keystroke_a	a	n/a
233.1165	0.09	466233	keystroke_Key.space	Key.space	n/a
233.3265	0.045	466653	keystroke_w	w	n/a
233.4015	0.09	466803	keystroke_e	e	n/a
233.6415	0.105	467283	keystroke_s	s	n/a
233.9265	0.045	467853	keystroke_l	l	n/a
234.0765	0.06	468153	keystroke_e	e	n/a
234.1815	0.09	468363	keystroke_y	y	n/a
234.8265	0.075	469653	keystroke_Key.space	Key.space	n/a
234.9765	0.105	469953	keystroke_a	a	n/a
235.2315	0.075	470463	keystroke_c	c	n/a
235.3665	0.06	470733	keystroke_c	c	n/a
235.4715	0.06	470943	keystroke_o	o	n/a
235.6065	0.075	471213	keystroke_r	r	n/a
235.8165	0.075	471633	keystroke_d	d	n/a
235.8915	0.06	471783	keystroke_i	i	n/a
236.0265	0.075	472053	keystroke_n	n	n/a
236.1615	0.075	472323	keystroke_g	g	n/a
236.7615	0.135	473523	keystroke_Key.enter	Key.enter	n/a
236.901	8.3375	473802	prompt	n/a	tooth prize repair stage\n
237.5565	0.09	475113	keystroke_t	t	n/a
237.6765	0.06	475353	keystroke_o	o	n/a
237.7965	0.075	475593	keystroke_o	o	n/a
237.9615	0.075	475923	keystroke_t	t	n/a
238.0375	0.104	476075	keystroke_h	h	n/a
238.2165	0.09	476433	keystroke_Key.space	Key.space	n/a
238.8765	0.06	477753	keystroke_p	p	n/a
239.0115	0.075	478023	keystroke_r	r	n/a
239.1315	0.075	478263	keystroke_i	i	n/a
239.3265	0.09	478653	keystroke_z	z	n/a
239.5365	0.09	479073	keystroke_e	e	n/a
239.6565	0.09	479313	keystroke_Key.space	Key.space	n/a
239.9115	0.075	479823	keystroke_r	r	n/a
240.0165	0.075	480033	keystroke_e	e	n/a
240.3465	0.045	480693	keystroke_a	a	n/a
240.5715	0.075	481143	keystroke_Key.backspace	Key.backspace	n/a
240.8415	0.06	481683	keystroke_o	o	n/a
241.0065	0.075	482013	keystroke_a	a	n/a
241.3365	0.045	482673	keystroke_Key.backspace	Key.backspace	n/a
241.4415	0.075	482883	keystroke_Key.backspace	Key.backspace	n/a
242.1765	0.06	484353	keystroke_p	p	n/a
242.7915	0.105	485583	keystroke_a	a	n/a
243.3165	0.06	486633	keystroke_i	i	n/a
243.6915	0.06	487383	keystroke_r	r	n/a
244.0815	0.06	488163	keystroke_Key.space	Key.space	n/a
244.1865	0.105	488373	keystroke_s	s	n/a
244.3965	0.06	488793	keystroke_t	t	n/a
244.5615	0.09	489123	keystroke_a	a	n/a
244.6665	0.06	489333	keystroke_g	g	n/a
244.8315	0.075	489663	keystroke_e	e	n/a
245.1615	0.075	490323	keystroke_Key.enter	Key.enter	n/a
245.2415	7.962	490483	prompt	n/a	former plant robot defects\n
246.5715	0.06	493143	keystroke_f	f	n/a
247.0215	0.06	494043	keystroke_o	o	n/a
247.1265	0.075	494253	keystroke_r	r	n/a
247.2465	0.075	494493	keystroke_m	m	n/a
247.3815	0.09	494763	keystroke_e	e	n/a
248.3415	0.045	496683	keystroke_r	r	n/a
248.4615	0.075	496923	keystroke_Key.space	Key.space	n/a
248.6565	0.075	497313	keystroke_p	p	n/a
248.8815	0.06	497763	keystroke_l	l	n/a
249.0165	0.09	498033	keystroke_a	a	n/a
249.1365	0.06	498273	keystroke_n	n	n/a
249.2715	0.06	498543	keystroke_t	t	n/a
249.3915	0.075	498783	keystroke_Key.space	Key.space	n/a
249.5265	0.06	499053	keystroke_r	r	n/a
249.6165	0.075	499233	keystroke_o	o	n/a
249.8115	0.075	499623	keystroke_b	b	n/a
250.0215	0.075	500043	keystroke_o	o	n/a
250.1715	0.075	500343	keystroke_t	t	n/a
250.3215	0.075	500643	keystroke_Key.space	Key.space	n/a
250.4715	0.09	500943	keystroke_d	d	n/a
250.6815	0.09	501363	keystroke_e	e	n/a
250.8615	0.075	501723	keystroke_f	f	n/a
251.0265	0.061	502053	keystroke_e	e	n/a
251.2065	0.06	502413	keystroke_c	c	n/a
251.4015	0.09	502803	keystroke_t	t	n/a
251.6865	0.075	503373	keystroke_s	s	n/a
253.1265	0.075	506253	keystroke_Key.enter	Key.enter	n/a
253.208	8.1105	506416	prompt	n/a	flooring luxembourg loving modems\n
254.6875	0.074	509375	keystroke_f	f	n/a
254.9865	0.075	509973	keystroke_l	l	n/a
255.2265	0.045	510453	keystroke_o	o	n/a
255.3465	0.075	510693	keystroke_o	o	n/a
255.5265	0.105	511053	keystroke_r	r	n/a
255.7515	0.076	511503	keystroke_i	i	n/a
255.9165	0.075	511833	keystroke_n	n	n/a
256.0515	0.075	512103	keystroke_g	g	n/a
256.1865	0.09	512373	keystroke_Key.space	Key.space	n/a
256.4265	0.06	512853	keystroke_l	l	n/a
256.5765	0.09	513153	keystroke_u	u	n/a
257.1765	0.075	514353	keystroke_x	x	n/a
257.4765	0.105	514953	keystroke_e	e	n/a
257.6265	0.045	515253	keystroke_m	m	n/a
257.8665	0.045	515733	keystroke_b	b	n/a
258.0915	0.075	516183	keystroke_o	o	n/a
258.1515	0.09	516303	keystroke_u	u	n/a
258.2715	0.075	516543	keystroke_r	r	n/a
258.4215	0.09	516843	keystroke_g	g	n/a
258.6615	0.075	517323	keystroke_Key.space	Key.space	n/a
258.9315	0.075	517863	keystroke_l	l	n/a
259.1265	0.06	518253	keystroke_o	o	n/a
259.2315	0.09	518463	keystroke_v	v	n/a
259.3365	0.06	518673	keystroke_i	i	n/a
259.4725	0.089	518945	keystroke_n	n	n/a
259.6065	0.09	519213	keystroke_g	g	n/a
259.8315	0.075	519663	keystroke_Key.space	Key.space	n/a
260.0865	0.075	520173	keystroke_m	m	n/a
260.2525	0.074	520505	keystroke_o	o	n/a
260.4165	0.046	520833	keystroke_d	d	n/a
260.7015	0.06	521403	keystroke_e	e	n/a
260.7765	0.09	521553	keystroke_m	m	n/a
261.0165	0.06	522033	keystroke_s	s	n/a
261.2115	0.105	522423	keystroke_Key.enter	Key.enter	n/a
261.3215	6.132	522643	prompt	n/a	rough converter shot demonstration\n
262.1115	0.076	524223	keystroke_r	r	n/a
262.1715	0.06	524343	keystroke_o	o	n/a
262.2475	0.09	524495	keystroke_u	u	n/a
262.3965	0.06	524793	keystroke_g	g	n/a
262.4715	0.075	524943	keystroke_h	h	n/a
262.5915	0.09	525183	keystroke_Key.space	Key.space	n/a
262.7265	0.105	525453	keystroke_c	c	n/a
262.8465	0.045	525693	keystroke_o	o	n/a
262.997	0.0745	525994	keystroke_n	n	n/a
263.101	0.0605	526202	keystroke_v	v	n/a
263.237	0.149	526474	keystroke_e	e	n/a
263.372	0.119	526744	keystroke_r	r	n/a
263.6715	0.0605	527343	keystroke_t	t	n/a
263.8815	0.105	527763	keystroke_e	e	n/a
264.0015	0.09	528003	keystroke_r	r	n/a
264.1365	0.0745	528273	keystroke_Key.space	Key.space	n/a
264.346	0.0755	528692	keystroke_s	s	n/a
264.407	0.074	528814	keystroke_h	h	n/a
264.587	0.0745	529174	keystroke_o	o	n/a
264.737	0.075	529474	keystroke_t	t	n/a
264.931	0.0755	529862	keystroke_Key.space	Key.space	n/a
265.2165	0.06	530433	keystroke_d	d	n/a
265.4115	0.0605	530823	keystroke_e	e	n/a
265.456	0.076	530912	keystroke_m	m	n/a
265.622	0.06	531244	keystroke_o	o	n/a
265.802	0.045	531604	keystroke_n	n	n/a
265.8915	0.075	531783	keystroke_s	s	n/a
266.087	0.0745	532174	keystroke_t	t	n/a
266.252	0.0745	532504	keystroke_r	r	n/a
266.4165	0.09	532833	keystroke_a	a	n/a
266.612	0.089	533224	keystroke_t	t	n/a
266.716	0.0605	533432	keystroke_i	i	n/a
266.852	0.06	533704	keystroke_o	o	n/a
267.016	0.06	534032	keystroke_n	n	n/a
267.3765	0.0745	534753	keystroke_Key.enter	Key.enter	n/a
267.4565	6.837	534913	prompt	n/a	grip humanities colonial attach\n
268.2165	0.0605	536433	keystroke_g	g	n/a
268.412	0.075	536824	keystroke_r	r	n/a
268.547	0.075	537094	keystroke_i	i	n/a
268.802	0.06	537604	keystroke_p	p	n/a
268.9815	0.0595	537963	keystroke_Key.space	Key.space	n/a
269.162	0.06	538324	keystroke_h	h	n/a
269.297	0.06	538594	keystroke_u	u	n/a
269.477	0.09	538954	keystroke_m	m	n/a
269.612	0.075	539224	keystroke_a	a	n/a
269.702	0.06	539404	keystroke_n	n	n/a
269.867	0.075	539734	keystroke_i	i	n/a
270.016	0.076	540032	keystroke_t	t	n/a
270.122	0.075	540244	keystroke_i	i	n/a
270.557	0.075	541114	keystroke_e	e	n/a
270.962	0.06	541924	keystroke_s	s	n/a
271.412	0.09	542824	keystroke_Key.space	Key.space	n/a
271.682	0.075	543364	keystroke_c	c	n/a
271.742	0.075	543484	keystroke_o	o	n/a
271.967	0.06	543934	keystroke_l	l	n/a
272.117	0.075	544234	keystroke_o	o	n/a
272.327	0.06	544654	keystroke_n	n	n/a
272.462	0.075	544924	keystroke_i	i	n/a
272.612	0.0755	545224	keystroke_a	a	n/a
272.732	0.075	545464	keystroke_l	l	n/a
272.822	0.075	545644	keystroke_Key.space	Key.space	n/a
272.942	0.09	545884	keystroke_a	a	n/a
273.152	0.075	546304	keystroke_t	t	n/a
273.302	0.0905	546604	keystroke_t	t	n/a
273.497	0.09	546994	keystroke_a	a	n/a
273.707	0.075	547414	keystroke_c	c	n/a
273.7975	0.0745	547595	keystroke_h	h	n/a
274.232	0.06	548464	keystroke_Key.enter	Key.enter	n/a
274.2965	6.027	548593	prompt	n/a	might errors offensive additional\n
274.937	0.06	549874	keystroke_m	m	n/a
275.042	0.09	550084	keystroke_i	i	n/a
275.162	0.09	550324	keystroke_g	g	n/a
275.267	0.06	550534	keystroke_h	h	n/a
275.372	0.075	550744	keystroke_t	t	n/a
275.492	0.09	550984	keystroke_Key.space	Key.space	n/a
275.642	0.12	551284	keystroke_e	e	n/a
275.867	0.06	551734	keystroke_r	r	n/a
276.002	0.075	552004	keystroke_r	r	n/a
276.062	0.09	552124	keystroke_o	o	n/a
276.197	0.075	552394	keystroke_r	r	n/a
276.422	0.105	552844	keystroke_s	s	n/a
276.542	0.075	553084	keystroke_Key.space	Key.space	n/a
276.737	0.06	553474	keystroke_o	o	n/a
276.857	0.075	553714	keystroke_f	f	n/a
277.037	0.03	554074	keystroke_f	f	n/a
277.142	0.075	554284	keystroke_e	e	n/a
277.262	0.105	554524	keystroke_n	n	n/a
277.517	0.075	555034	keystroke_s	s	n/a
277.637	0.075	555274	keystroke_i	i	n/a
277.787	0.06	555574	keystroke_v	v	n/a
277.967	0.075	555934	keystroke_e	e	n/a
278.312	0.09	556624	keystroke_Key.space	Key.space	n/a
278.507	0.105	557014	keystroke_a	a	n/a
278.747	0.045	557494	keystroke_d	d	n/a
278.867	0.09	557734	keystroke_d	d	n/a
279.002	0.06	558004	keystroke_i	i	n/a
279.152	0.06	558304	keystroke_t	t	n/a
279.227	0.075	558454	keystroke_i	i	n/a
279.377	0.06	558754	keystroke_o	o	n/a
279.542	0.075	559084	keystroke_n	n	n/a
279.647	0.09	559294	keystroke_a	a	n/a
279.767	0.075	559534	keystroke_l	l	n/a
280.247	0.075	560494	keystroke_Key.enter	Key.enter	n/a
280.327	6.6115	560654	prompt	n/a	latin reminder pledge enzyme\n
280.982	0.075	561964	keystroke_l	l	n/a
281.087	0.075	562174	keystroke_a	a	n/a
281.297	0.06	562594	keystroke_t	t	n/a
281.387	0.06	562774	keystroke_i	i	n/a
281.537	0.06	563074	keystroke_n	n	n/a
281.627	0.09	563254	keystroke_Key.space	Key.space	n/a
282.557	0.105	565114	keystroke_r	r	n/a
282.647	0.105	565294	keystroke_e	e	n/a
282.797	0.075	565594	keystroke_m	m	n/a
282.932	0.09	565864	keystroke_i	i	n/a
283.127	0.075	566254	keystroke_n	n	n/a
283.262	0.075	566524	keystroke_d	d	n/a
283.397	0.135	566794	keystroke_e	e	n/a
283.517	0.075	567034	keystroke_r	r	n/a
283.877	0.09	567754	keystroke_Key.space	Key.space	n/a
284.072	0.075	568144	keystroke_p	p	n/a
284.267	0.075	568534	keystroke_l	l	n/a
284.372	0.105	568744	keystroke_e	e	n/a
284.702	0.075	569404	keystroke_d	d	n/a
284.822	0.09	569644	keystroke_g	g	n/a
285.002	0.075	570004	keystroke_e	e	n/a
285.212	0.075	570424	keystroke_Key.space	Key.space	n/a
285.512	0.105	571024	keystroke_e	e	n/a
285.602	0.075	571204	keystroke_n	n	n/a
285.887	0.075	571774	keystroke_z	z	n/a
285.947	0.09	571894	keystroke_y	y	n/a
286.247	0.09	572494	keystroke_m	m	n/a
286.367	0.06	572734	keystroke_e	e	n/a
286.847	0.09	573694	keystroke_Key.enter	Key.enter	n/a
286.9415	10.782	573883	prompt	n/a	customs conclude birth delta\n
287.732	0.075	575464	keystroke_c	c	n/a
287.852	0.075	575704	keystroke_u	u	n/a
287.987	0.075	575974	keystroke_s	s	n/a
288.182	0.075	576364	keystroke_t	t	n/a
288.287	0.06	576574	keystroke_o	o	n/a
288.467	0.075	576934	keystroke_m	m	n/a
288.587	0.075	577174	keystroke_s	s	n/a
288.707	0.075	577414	keystroke_Key.space	Key.space	n/a
288.932	0.075	577864	keystroke_c	c	n/a
289.082	0.06	578164	keystroke_o	o	n/a
289.262	0.075	578524	keystroke_n	n	n/a
289.472	0.075	578944	keystroke_c	c	n/a
289.577	0.06	579154	keystroke_l	l	n/a
289.757	0.06	579514	keystroke_u	u	n/a
289.877	0.09	579754	keystroke_d	d	n/a
290.057	0.09	580114	keystroke_e	e	n/a
290.252	0.09	580504	keystroke_Key.space	Key.space	n/a
290.492	0.06	580984	keystroke_b	b	n/a
290.717	0.09	581434	keystroke_i	i	n/a
290.837	0.09	581674	keystroke_r	r	n/a
291.017	0.075	582034	keystroke_t	t	n/a
291.107	0.075	582214	keystroke_h	h	n/a
291.197	0.105	582394	keystroke_Key.space	Key.space	n/a
291.392	0.075	582784	keystroke_d	d	n/a
291.677	0.075	583354	keystroke_e	e	n/a
291.842	0.06	583684	keystroke_l	l	n/a
291.962	0.09	583924	keystroke_t	t	n/a
292.247	0.09	584494	keystroke_a	a	n/a
297.709	0.013	595418	keystroke_Key.enter	Key.enter	n/a
297.726	10.6015	595452	prompt	n/a	ladies comparative teenage scanners\n
299.252	0.06	598504	keystroke_l	l	n/a
299.372	0.105	598744	keystroke_a	a	n/a
299.657	0.09	599314	keystroke_d	d	n/a
299.777	0.075	599554	keystroke_i	i	n/a
299.972	0.075	599944	keystroke_e	e	n/a
300.512	0.09	601024	keystroke_s	s	n/a
300.632	0.12	601264	keystroke_Key.space	Key.space	n/a
300.842	0.09	601684	keystroke_c	c	n/a
300.947	0.075	601894	keystroke_o	o	n/a
301.232	0.06	602464	keystroke_m	m	n/a
301.457	0.06	602914	keystroke_p	p	n/a
301.592	0.09	603184	keystroke_a	a	n/a
301.817	0.06	603634	keystroke_r	r	n/a
301.997	0.075	603994	keystroke_a	a	n/a
302.237	0.075	604474	keystroke_t	t	n/a
302.327	0.06	604654	keystroke_i	i	n/a
302.492	0.09	604984	keystroke_v	v	n/a
302.702	0.09	605404	keystroke_e	e	n/a
302.867	0.09	605734	keystroke_Key.space	Key.space	n/a
303.362	0.075	606724	keystroke_t	t	n/a
303.617	0.045	607234	keystroke_e	e	n/a
303.737	0.06	607474	keystroke_e	e	n/a
303.872	0.075	607744	keystroke_n	n	n/a
304.007	0.075	608014	keystroke_a	a	n/a
304.157	0.075	608314	keystroke_g	g	n/a
304.337	0.045	608674	keystroke_e	e	n/a
304.472	0.075	608944	keystroke_Key.space	Key.space	n/a
304.8765	0.075	609753	keystroke_s	s	n/a
305.0715	0.075	610143	keystroke_c	c	n/a
305.2815	0.075	610563	keystroke_a	a	n/a
305.3715	0.06	610743	keystroke_n	n	n/a
305.4915	0.075	610983	keystroke_n	n	n/a
305.6265	0.105	611253	keystroke_e	e	n/a
305.7615	0.09	611523	keystroke_r	r	n/a
306.2265	0.105	612453	keystroke_s	s	n/a
308.2365	0.09	616473	keystroke_Key.enter	Key.enter	n/a
308.3305	6.5225	616661	prompt	n/a	phillips guard enclosure delete\n
309.5715	0.105	619143	keystroke_p	p	n/a
309.9315	0.075	619863	keystroke_h	h	n/a
310.2765	0.075	620553	keystroke_i	i	n/a
310.4715	0.06	620943	keystroke_l	l	n/a
310.6365	0.075	621273	keystroke_i	i	n/a
310.8765	0.06	621753	keystroke_p	p	n/a
311.0265	0.09	622053	keystroke_s	s	n/a
311.1615	0.09	622323	keystroke_Key.space	Key.space	n/a
311.3265	0.09	622653	keystroke_g	g	n/a
311.3865	0.12	622773	keystroke_u	u	n/a
311.5815	0.105	623163	keystroke_a	a	n/a
311.7165	0.105	623433	keystroke_r	r	n/a
311.9265	0.075	623853	keystroke_d	d	n/a
312.0315	0.075	624063	keystroke_Key.space	Key.space	n/a
312.2715	0.09	624543	keystroke_e	e	n/a
312.3465	0.075	624693	keystroke_n	n	n/a
312.4815	0.12	624963	keystroke_c	c	n/a
312.6165	0.045	625233	keystroke_l	l	n/a
312.7515	0.075	625503	keystroke_o	o	n/a
312.8715	0.09	625743	keystroke_s	s	n/a
313.0215	0.075	626043	keystroke_u	u	n/a
313.2315	0.09	626463	keystroke_r	r	n/a
313.3365	0.075	626673	keystroke_e	e	n/a
313.4715	0.09	626943	keystroke_Key.space	Key.space	n/a
313.6215	0.075	627243	keystroke_d	d	n/a
313.8015	0.06	627603	keystroke_e	e	n/a
313.8765	0.075	627753	keystroke_l	l	n/a
314.0265	0.105	628053	keystroke_e	e	n/a
314.2215	0.06	628443	keystroke_t	t	n/a
314.3715	0.075	628743	keystroke_e	e	n/a
314.7765	0.075	629553	keystroke_Key.enter	Key.enter	n/a
314.8555	7.3625	629711	prompt	n/a	liverpool headlines pants constitute\n
315.8715	0.075	631743	keystroke_l	l	n/a
316.0665	0.06	632133	keystroke_i	i	n/a
316.2015	0.06	632403	keystroke_v	v	n/a
316.3215	0.15	632643	keystroke_e	e	n/a
316.4415	0.12	632883	keystroke_r	r	n/a
316.6215	0.075	633243	keystroke_p	p	n/a
316.8165	0.045	633633	keystroke_o	o	n/a
316.9365	0.06	633873	keystroke_o	o	n/a
317.1315	0.06	634263	keystroke_l	l	n/a
317.2215	0.075	634443	keystroke_Key.space	Key.space	n/a
317.3715	0.075	634743	keystroke_h	h	n/a
317.4615	0.075	634923	keystroke_e	e	n/a
317.6265	0.105	635253	keystroke_a	a	n/a
317.8215	0.075	635643	keystroke_d	d	n/a
317.9265	0.075	635853	keystroke_l	l	n/a
318.1065	0.06	636213	keystroke_i	i	n/a
318.2565	0.075	636513	keystroke_n	n	n/a
318.5565	0.045	637113	keystroke_e	e	n/a
318.7515	0.09	637503	keystroke_s	s	n/a
318.8565	0.06	637713	keystroke_Key.space	Key.space	n/a
319.0665	0.09	638133	keystroke_p	p	n/a
319.3515	0.09	638703	keystroke_a	a	n/a
319.4415	0.09	638883	keystroke_n	n	n/a
319.5765	0.09	639153	keystroke_t	t	n/a
319.8015	0.075	639603	keystroke_s	s	n/a
319.8915	0.105	639783	keystroke_Key.space	Key.space	n/a
320.0415	0.09	640083	keystroke_c	c	n/a
320.1465	0.06	640293	keystroke_o	o	n/a
320.2965	0.09	640593	keystroke_n	n	n/a
320.4315	0.09	640863	keystroke_s	s	n/a
320.6415	0.075	641283	keystroke_t	t	n/a
320.8065	0.075	641613	keystroke_i	i	n/a
321.0615	0.09	642123	keystroke_t	t	n/a
321.2265	0.075	642453	keystroke_u	u	n/a
321.4365	0.06	642873	keystroke_t	t	n/a
321.6015	0.06	643203	keystroke_e	e	n/a
322.1415	0.075	644283	keystroke_Key.enter	Key.enter	n/a
322.221	5.937	644442	prompt	n/a	eden bookmark mono coupon\n
322.9965	0.09	645993	keystroke_e	e	n/a
323.2215	0.075	646443	keystroke_d	d	n/a
323.3865	0.06	646773	keystroke_e	e	n/a
323.4615	0.105	646923	keystroke_n	n	n/a
323.5815	0.09	647163	keystroke_Key.space	Key.space	n/a
323.7615	0.075	647523	keystroke_b	b	n/a
323.9865	0.06	647973	keystroke_o	o	n/a
324.1065	0.105	648213	keystroke_o	o	n/a
324.2265	0.075	648453	keystroke_k	k	n/a
324.4365	0.09	648873	keystroke_m	m	n/a
324.5715	0.075	649143	keystroke_a	a	n/a
324.7515	0.075	649503	keystroke_r	r	n/a
324.8415	0.06	649683	keystroke_k	k	n/a
325.2315	0.09	650463	keystroke_Key.space	Key.space	n/a
325.6365	0.06	651273	keystroke_m	m	n/a
325.8315	0.045	651663	keystroke_o	o	n/a
325.9815	0.06	651963	keystroke_n	n	n/a
326.1315	0.06	652263	keystroke_o	o	n/a
326.3415	0.075	652683	keystroke_Key.space	Key.space	n/a
326.8515	0.075	653703	keystroke_c	c	n/a
326.9565	0.09	653913	keystroke_o	o	n/a
327.0915	0.075	654183	keystroke_u	u	n/a
327.3015	0.075	654603	keystroke_p	p	n/a
327.4815	0.075	654963	keystroke_o	o	n/a
327.6615	0.105	655323	keystroke_n	n	n/a
328.0965	0.06	656193	keystroke_Key.enter	Key.enter	n/a
328.162	5.966	656324	prompt	n/a	appointed score presenting aircraft\n
328.8165	0.09	657633	keystroke_a	a	n/a
328.9215	0.06	657843	keystroke_p	p	n/a
329.0415	0.075	658083	keystroke_p	p	n/a
329.2215	0.075	658443	keystroke_o	o	n/a
329.4165	0.045	658833	keystroke_i	i	n/a
329.5515	0.06	659103	keystroke_n	n	n/a
329.6715	0.09	659343	keystroke_t	t	n/a
329.8515	0.075	659703	keystroke_e	e	n/a
330.0165	0.09	660033	keystroke_d	d	n/a
330.1365	0.075	660273	keystroke_Key.space	Key.space	n/a
330.2565	0.075	660513	keystroke_s	s	n/a
330.4215	0.09	660843	keystroke_c	c	n/a
330.5415	0.075	661083	keystroke_o	o	n/a
330.6765	0.105	661353	keystroke_r	r	n/a
330.7965	0.075	661593	keystroke_e	e	n/a
330.9165	0.075	661833	keystroke_Key.space	Key.space	n/a
331.0965	0.075	662193	keystroke_p	p	n/a
331.1865	0.105	662373	keystroke_r	r	n/a
331.2615	0.105	662523	keystroke_e	e	n/a
331.4865	0.09	662973	keystroke_s	s	n/a
331.6665	0.105	663333	keystroke_e	e	n/a
331.7865	0.075	663573	keystroke_n	n	n/a
331.9215	0.075	663843	keystroke_t	t	n/a
332.0415	0.045	664083	keystroke_i	i	n/a
332.1765	0.06	664353	keystroke_n	n	n/a
332.2815	0.09	664563	keystroke_g	g	n/a
332.3865	0.075	664773	keystroke_Key.space	Key.space	n/a
332.5515	0.09	665103	keystroke_a	a	n/a
332.6715	0.075	665343	keystroke_i	i	n/a
332.7915	0.09	665583	keystroke_r	r	n/a
333.0165	0.105	666033	keystroke_c	c	n/a
333.2415	0.075	666483	keystroke_r	r	n/a
333.4065	0.09	666813	keystroke_a	a	n/a
333.5715	0.09	667143	keystroke_f	f	n/a
333.7515	0.075	667503	keystroke_t	t	n/a
334.0515	0.075	668103	keystroke_Key.enter	Key.enter	n/a
334.132	6.881	668264	prompt	n/a	imaging queens trend classics\n
334.8615	0.06	669723	keystroke_i	i	n/a
335.0265	0.09	670053	keystroke_m	m	n/a
335.1915	0.075	670383	keystroke_a	a	n/a
335.2965	0.09	670593	keystroke_g	g	n/a
335.5065	0.045	671013	keystroke_i	i	n/a
335.6565	0.06	671313	keystroke_n	n	n/a
335.7615	0.09	671523	keystroke_g	g	n/a
335.8815	0.105	671763	keystroke_Key.space	Key.space	n/a
336.4215	0.09	672843	keystroke_q	q	n/a
336.4965	0.09	672993	keystroke_u	u	n/a
336.6915	0.075	673383	keystroke_e	e	n/a
336.8565	0.075	673713	keystroke_e	e	n/a
336.9915	0.075	673983	keystroke_n	n	n/a
337.1415	0.075	674283	keystroke_s	s	n/a
337.2765	0.09	674553	keystroke_Key.space	Key.space	n/a
337.5915	0.09	675183	keystroke_t	t	n/a
337.7865	0.09	675573	keystroke_r	r	n/a
337.8915	0.105	675783	keystroke_e	e	n/a
338.1465	0.06	676293	keystroke_d	d	n/a
338.5815	0.06	677163	keystroke_Key.backspace	Key.backspace	n/a
338.8815	0.06	677763	keystroke_n	n	n/a
339.0315	0.06	678063	keystroke_d	d	n/a
339.1965	0.075	678393	keystroke_Key.space	Key.space	n/a
339.4515	0.075	678903	keystroke_c	c	n/a
339.5865	0.075	679173	keystroke_l	l	n/a
339.7065	0.09	679413	keystroke_a	a	n/a
339.9165	0.075	679833	keystroke_s	s	n/a
340.0665	0.075	680133	keystroke_s	s	n/a
340.1565	0.06	680313	keystroke_i	i	n/a
340.2915	0.075	680583	keystroke_c	c	n/a
340.4565	0.09	680913	keystroke_s	s	n/a
340.9365	0.075	681873	keystroke_Key.enter	Key.enter	n/a
341.0155	7.048	682031	prompt	n/a	dispatched controversial rubber killer\n
341.7315	0.09	683463	keystroke_d	d	n/a
341.8665	0.045	683733	keystroke_i	i	n/a
341.9565	0.105	683913	keystroke_s	s	n/a
342.1365	0.075	684273	keystroke_p	p	n/a
342.2865	0.09	684573	keystroke_a	a	n/a
342.4965	0.06	684993	keystroke_t	t	n/a
342.7365	0.09	685473	keystroke_c	c	n/a
342.8415	0.06	685683	keystroke_h	h	n/a
342.9315	0.12	685863	keystroke_e	e	n/a
343.1565	0.09	686313	keystroke_d	d	n/a
343.2615	0.105	686523	keystroke_Key.space	Key.space	n/a
343.4265	0.105	686853	keystroke_c	c	n/a
343.5165	0.06	687033	keystroke_o	o	n/a
343.6965	0.09	687393	keystroke_n	n	n/a
343.8615	0.06	687723	keystroke_t	t	n/a
344.0265	0.075	688053	keystroke_r	r	n/a
344.1315	0.09	688263	keystroke_o	o	n/a
344.3715	0.075	688743	keystroke_v	v	n/a
344.5665	0.135	689133	keystroke_e	e	n/a
344.6865	0.09	689373	keystroke_r	r	n/a
344.9565	0.075	689913	keystroke_s	s	n/a
345.0465	0.105	690093	keystroke_i	i	n/a
345.2265	0.075	690453	keystroke_a	a	n/a
345.3315	0.09	690663	keystroke_l	l	n/a
345.4815	0.09	690963	keystroke_Key.space	Key.space	n/a
346.1415	0.075	692283	keystroke_r	r	n/a
346.2175	0.089	692435	keystroke_u	u	n/a
346.4565	0.045	692913	keystroke_b	b	n/a
346.5765	0.06	693153	keystroke_b	b	n/a
346.6515	0.15	693303	keystroke_e	e	n/a
346.7715	0.105	693543	keystroke_r	r	n/a
346.8915	0.075	693783	keystroke_Key.space	Key.space	n/a
347.0415	0.075	694083	keystroke_k	k	n/a
347.1915	0.075	694383	keystroke_i	i	n/a
347.4165	0.03	694833	keystroke_l	l	n/a
347.5365	0.045	695073	keystroke_l	l	n/a
347.6115	0.09	695223	keystroke_e	e	n/a
347.7025	0.104	695405	keystroke_r	r	n/a
347.9865	0.075	695973	keystroke_Key.enter	Key.enter	n/a
348.066	5.862	696132	prompt	n/a	exclusively brad entering keen\n
348.7365	0.075	697473	keystroke_e	e	n/a
348.9765	0.105	697953	keystroke_x	x	n/a
349.2615	0.06	698523	keystroke_c	c	n/a
349.3365	0.075	698673	keystroke_l	l	n/a
349.5465	0.075	699093	keystroke_u	u	n/a
349.6965	0.09	699393	keystroke_s	s	n/a
349.8165	0.09	699633	keystroke_i	i	n/a
350.0265	0.06	700053	keystroke_v	v	n/a
350.2065	0.075	700413	keystroke_e	e	n/a
350.2965	0.09	700593	keystroke_l	l	n/a
350.5215	0.075	701043	keystroke_y	y	n/a
350.7915	0.075	701583	keystroke_Key.space	Key.space	n/a
350.9865	0.075	701973	keystroke_b	b	n/a
351.1215	0.105	702243	keystroke_r	r	n/a
351.3465	0.105	702693	keystroke_a	a	n/a
351.5415	0.09	703083	keystroke_d	d	n/a
351.6465	0.09	703293	keystroke_Key.space	Key.space	n/a
351.7815	0.105	703563	keystroke_e	e	n/a
351.8875	0.089	703775	keystroke_n	n	n/a
352.0675	0.089	704135	keystroke_t	t	n/a
352.2615	0.09	704523	keystroke_e	e	n/a
352.3525	0.104	704705	keystroke_r	r	n/a
352.5465	0.06	705093	keystroke_i	i	n/a
352.6965	0.045	705393	keystroke_n	n	n/a
352.8165	0.075	705633	keystroke_g	g	n/a
352.9065	0.075	705813	keystroke_Key.space	Key.space	n/a
353.0865	0.075	706173	keystroke_k	k	n/a
353.2065	0.075	706413	keystroke_e	e	n/a
353.3415	0.09	706683	keystroke_e	e	n/a
353.4765	0.09	706953	keystroke_n	n	n/a
353.8515	0.075	707703	keystroke_Key.enter	Key.enter	n/a
353.931	5.8475	707862	prompt	n/a	stocks finding struggle unions\n
354.6915	0.105	709383	keystroke_s	s	n/a
354.9015	0.075	709803	keystroke_t	t	n/a
354.9915	0.06	709983	keystroke_o	o	n/a
355.2165	0.075	710433	keystroke_c	c	n/a
355.3065	0.075	710613	keystroke_k	k	n/a
355.6965	0.09	711393	keystroke_s	s	n/a
355.8465	0.075	711693	keystroke_Key.space	Key.space	n/a
356.0265	0.075	712053	keystroke_f	f	n/a
356.3415	0.045	712683	keystroke_i	i	n/a
356.4465	0.105	712893	keystroke_n	n	n/a
356.5965	0.105	713193	keystroke_d	d	n/a
356.7315	0.075	713463	keystroke_i	i	n/a
356.8665	0.09	713733	keystroke_n	n	n/a
357.0015	0.06	714003	keystroke_g	g	n/a
357.0915	0.075	714183	keystroke_Key.space	Key.space	n/a
357.2715	0.105	714543	keystroke_s	s	n/a
357.4965	0.075	714993	keystroke_t	t	n/a
357.6615	0.09	715323	keystroke_r	r	n/a
357.7675	0.074	715535	keystroke_u	u	n/a
357.9165	0.06	715833	keystroke_g	g	n/a
358.0515	0.06	716103	keystroke_g	g	n/a
358.1415	0.06	716283	keystroke_l	l	n/a
358.2765	0.09	716553	keystroke_e	e	n/a
358.4115	0.075	716823	keystroke_Key.space	Key.space	n/a
358.5465	0.09	717093	keystroke_u	u	n/a
358.7125	0.074	717425	keystroke_n	n	n/a
358.8915	0.06	717783	keystroke_i	i	n/a
359.0565	0.06	718113	keystroke_o	o	n/a
359.2215	0.06	718443	keystroke_n	n	n/a
359.3415	0.075	718683	keystroke_s	s	n/a
359.7165	0.06	719433	keystroke_Key.enter	Key.enter	n/a
359.781	7.782	719562	prompt	n/a	executive processes microsoft runtime\n
360.4365	0.046	720873	keystroke_e	e	n/a
360.6615	0.09	721323	keystroke_x	x	n/a
360.8715	0.075	721743	keystroke_e	e	n/a
361.1415	0.06	722283	keystroke_c	c	n/a
361.5315	0.105	723063	keystroke_u	u	n/a
361.7265	0.075	723453	keystroke_t	t	n/a
361.9525	0.044	723905	keystroke_i	i	n/a
362.1165	0.075	724233	keystroke_v	v	n/a
362.2815	0.091	724563	keystroke_e	e	n/a
362.4165	0.075	724833	keystroke_Key.space	Key.space	n/a
362.6115	0.075	725223	keystroke_p	p	n/a
362.7465	0.075	725493	keystroke_r	r	n/a
362.8515	0.075	725703	keystroke_o	o	n/a
363.0165	0.091	726033	keystroke_c	c	n/a
363.1965	0.075	726393	keystroke_e	e	n/a
363.4365	0.075	726873	keystroke_s	s	n/a
363.5565	0.075	727113	keystroke_s	s	n/a
363.7515	0.06	727503	keystroke_e	e	n/a
363.9465	0.076	727893	keystroke_s	s	n/a
364.0515	0.09	728103	keystroke_Key.space	Key.space	n/a
364.5315	0.06	729063	keystroke_m	m	n/a
364.7415	0.045	729483	keystroke_i	i	n/a
364.8465	0.09	729693	keystroke_c	c	n/a
365.0565	0.075	730113	keystroke_r	r	n/a
365.1625	0.044	730325	keystroke_o	o	n/a
365.2965	0.09	730593	keystroke_s	s	n/a
365.4165	0.076	730833	keystroke_o	o	n/a
365.6115	0.075	731223	keystroke_f	f	n/a
365.8065	0.06	731613	keystroke_t	t	n/a
365.9115	0.075	731823	keystroke_Key.space	Key.space	n/a
366.1675	0.075	732335	keystroke_r	r	n/a
366.2715	0.075	732543	keystroke_u	u	n/a
366.4515	0.091	732903	keystroke_n	n	n/a
366.6625	0.089	733325	keystroke_t	t	n/a
366.7675	0.06	733535	keystroke_i	i	n/a
366.9315	0.091	733863	keystroke_m	m	n/a
367.0665	0.076	734133	keystroke_e	e	n/a
367.5015	0.06	735003	keystroke_Key.enter	Key.enter	n/a
367.566	5.307	735132	prompt	n/a	already bend ranges year\n
368.2975	0.089	736595	keystroke_a	a	n/a
368.4025	0.074	736805	keystroke_l	l	n/a
368.5365	0.106	737073	keystroke_r	r	n/a
368.6125	0.089	737225	keystroke_e	e	n/a
368.8225	0.089	737645	keystroke_a	a	n/a
369.0175	0.075	738035	keystroke_d	d	n/a
369.1225	0.075	738245	keystroke_y	y	n/a
369.2265	0.03	738453	keystroke_Key.space	Key.space	n/a
369.6475	0.06	739295	keystroke_b	b	n/a
369.7825	0.075	739565	keystroke_e	e	n/a
369.9775	0.045	739955	keystroke_n	n	n/a
370.4875	0.075	740975	keystroke_d	d	n/a
370.6065	0.075	741213	keystroke_Key.space	Key.space	n/a
370.7575	0.075	741515	keystroke_r	r	n/a
370.9525	0.09	741905	keystroke_a	a	n/a
371.0875	0.06	742175	keystroke_n	n	n/a
371.1925	0.12	742385	keystroke_g	g	n/a
371.3715	0.091	742743	keystroke_e	e	n/a
371.6125	0.09	743225	keystroke_s	s	n/a
371.7475	0.089	743495	keystroke_Key.space	Key.space	n/a
372.0925	0.06	744185	keystroke_y	y	n/a
372.1975	0.09	744395	keystroke_e	e	n/a
372.3625	0.09	744725	keystroke_a	a	n/a
372.5425	0.075	745085	keystroke_r	r	n/a
372.7965	0.075	745593	keystroke_Key.enter	Key.enter	n/a
372.8755	6.028	745751	prompt	n/a	destination words cycling france\n
373.5775	0.075	747155	keystroke_d	d	n/a
373.7425	0.075	747485	keystroke_e	e	n/a
373.9525	0.06	747905	keystroke_s	s	n/a
374.1625	0.06	748325	keystroke_t	t	n/a
374.2525	0.06	748505	keystroke_i	i	n/a
374.3865	0.091	748773	keystroke_n	n	n/a
374.4925	0.09	748985	keystroke_a	a	n/a
374.7025	0.09	749405	keystroke_t	t	n/a
374.7775	0.09	749555	keystroke_i	i	n/a
374.9575	0.06	749915	keystroke_o	o	n/a
375.1225	0.09	750245	keystroke_n	n	n/a
375.2275	0.06	750455	keystroke_Key.space	Key.space	n/a
375.3625	0.12	750725	keystroke_w	w	n/a
375.4525	0.09	750905	keystroke_o	o	n/a
375.6175	0.105	751235	keystroke_r	r	n/a
375.8575	0.075	751715	keystroke_d	d	n/a
375.9775	0.09	751955	keystroke_s	s	n/a
376.2025	0.09	752405	keystroke_Key.space	Key.space	n/a
376.4125	0.09	752825	keystroke_c	c	n/a
376.5625	0.09	753125	keystroke_y	y	n/a
376.6675	0.105	753335	keystroke_c	c	n/a
376.8475	0.075	753695	keystroke_l	l	n/a
377.0725	0.015	754145	keystroke_i	i	n/a
377.1475	0.06	754295	keystroke_n	n	n/a
377.2225	0.075	754445	keystroke_g	g	n/a
377.3125	0.09	754625	keystroke_Key.space	Key.space	n/a
377.4475	0.075	754895	keystroke_f	f	n/a
377.6425	0.045	755285	keystroke_r	r	n/a
377.7925	0.09	755585	keystroke_a	a	n/a
377.8975	0.075	755795	keystroke_n	n	n/a
378.0625	0.075	756125	keystroke_c	c	n/a
378.2275	0.09	756455	keystroke_e	e	n/a
378.8275	0.075	757655	keystroke_Key.enter	Key.enter	n/a
378.9065	6.027	757813	prompt	n/a	compliant hire walker node\n
379.637	0.075	759274	keystroke_c	c	n/a
379.697	0.0755	759394	keystroke_o	o	n/a
380.3725	0.09	760745	keystroke_m	m	n/a
380.6125	0.0595	761225	keystroke_p	p	n/a
380.792	0.045	761584	keystroke_l	l	n/a
381.017	0.06	762034	keystroke_i	i	n/a
381.227	0.06	762454	keystroke_a	a	n/a
381.272	0.075	762544	keystroke_n	n	n/a
381.467	0.075	762934	keystroke_t	t	n/a
381.632	0.06	763264	keystroke_Key.space	Key.space	n/a
381.917	0.09	763834	keystroke_h	h	n/a
382.112	0.06	764224	keystroke_i	i	n/a
382.2175	0.0895	764435	keystroke_r	r	n/a
382.367	0.09	764734	keystroke_e	e	n/a
382.967	0.06	765934	keystroke_Key.space	Key.space	n/a
383.102	0.075	766204	keystroke_w	w	n/a
383.222	0.105	766444	keystroke_a	a	n/a
383.3425	0.1345	766685	keystroke_l	l	n/a
383.432	0.12	766864	keystroke_k	k	n/a
383.597	0.15	767194	keystroke_e	e	n/a
383.732	0.105	767464	keystroke_r	r	n/a
383.8975	0.0895	767795	keystroke_Key.space	Key.space	n/a
384.062	0.0755	768124	keystroke_n	n	n/a
384.257	0.06	768514	keystroke_o	o	n/a
384.362	0.09	768724	keystroke_d	d	n/a
384.512	0.0905	769024	keystroke_e	e	n/a
384.8425	0.0895	769685	keystroke_Key.enter	Key.enter	n/a
384.9365	6.507	769873	prompt	n/a	bits transcript declared admin\n
385.652	0.06	771304	keystroke_b	b	n/a
385.832	0.06	771664	keystroke_i	i	n/a
385.922	0.09	771844	keystroke_t	t	n/a
386.147	0.12	772294	keystroke_s	s	n/a
386.282	0.075	772564	keystroke_Key.space	Key.space	n/a
386.462	0.09	772924	keystroke_t	t	n/a
386.657	0.045	773314	keystroke_r	r	n/a
386.8225	0.09	773645	keystroke_a	a	n/a
386.9125	0.0595	773825	keystroke_n	n	n/a
387.062	0.075	774124	keystroke_s	s	n/a
387.3175	0.0895	774635	keystroke_c	c	n/a
387.557	0.075	775114	keystroke_r	r	n/a
387.647	0.075	775294	keystroke_i	i	n/a
387.842	0.06	775684	keystroke_p	p	n/a
387.947	0.09	775894	keystroke_t	t	n/a
388.5025	0.0895	777005	keystroke_Key.space	Key.space	n/a
389.1625	0.0895	778325	keystroke_d	d	n/a
389.312	0.09	778624	keystroke_e	e	n/a
389.537	0.06	779074	keystroke_c	c	n/a
389.627	0.06	779254	keystroke_l	l	n/a
389.747	0.12	779494	keystroke_a	a	n/a
389.942	0.09	779884	keystroke_r	r	n/a
390.047	0.075	780094	keystroke_e	e	n/a
390.212	0.09	780424	keystroke_d	d	n/a
390.332	0.09	780664	keystroke_Key.space	Key.space	n/a
390.437	0.075	780874	keystroke_a	a	n/a
390.602	0.09	781204	keystroke_d	d	n/a
390.722	0.09	781444	keystroke_m	m	n/a
390.857	0.075	781714	keystroke_i	i	n/a
390.992	0.09	781984	keystroke_n	n	n/a
391.367	0.075	782734	keystroke_Key.enter	Key.enter	n/a
391.4535	5.39	782907	prompt	n/a	trials cinema likewise pulse\n
392.042	0.075	784084	keystroke_t	t	n/a
392.192	0.09	784384	keystroke_r	r	n/a
392.282	0.105	784564	keystroke_i	i	n/a
392.417	0.105	784834	keystroke_a	a	n/a
392.552	0.075	785104	keystroke_l	l	n/a
392.672	0.105	785344	keystroke_s	s	n/a
392.807	0.09	785614	keystroke_Key.space	Key.space	n/a
393.002	0.06	786004	keystroke_c	c	n/a
393.077	0.06	786154	keystroke_i	i	n/a
393.227	0.075	786454	keystroke_n	n	n/a
393.317	0.105	786634	keystroke_e	e	n/a
393.467	0.09	786934	keystroke_m	m	n/a
393.617	0.09	787234	keystroke_a	a	n/a
393.782	0.075	787564	keystroke_Key.space	Key.space	n/a
394.022	0.06	788044	keystroke_l	l	n/a
394.187	0.075	788374	keystroke_i	i	n/a
394.337	0.075	788674	keystroke_k	k	n/a
394.427	0.09	788854	keystroke_e	e	n/a
394.577	0.075	789154	keystroke_w	w	n/a
394.757	0.06	789514	keystroke_i	i	n/a
394.907	0.06	789814	keystroke_s	s	n/a
395.057	0.09	790114	keystroke_e	e	n/a
395.162	0.105	790324	keystroke_Key.space	Key.space	n/a
395.312	0.105	790624	keystroke_p	p	n/a
395.447	0.09	790894	keystroke_u	u	n/a
395.672	0.06	791344	keystroke_l	l	n/a
395.867	0.075	791734	keystroke_s	s	n/a
396.017	0.09	792034	keystroke_e	e	n/a
396.752	0.09	793504	keystroke_Key.enter	Key.enter	n/a
396.848	8.9205	793696	prompt	n/a	pdas definitely visual arnold\n
397.757	0.06	795514	keystroke_p	p	n/a
397.832	0.09	795664	keystroke_d	d	n/a
397.967	0.105	795934	keystroke_a	a	n/a
398.162	0.075	796324	keystroke_s	s	n/a
398.327	0.075	796654	keystroke_Key.space	Key.space	n/a
398.792	0.09	797584	keystroke_d	d	n/a
398.957	0.075	797914	keystroke_e	e	n/a
399.122	0.075	798244	keystroke_f	f	n/a
399.212	0.06	798424	keystroke_i	i	n/a
399.332	0.06	798664	keystroke_n	n	n/a
399.467	0.09	798934	keystroke_i	i	n/a
399.602	0.09	799204	keystroke_t	t	n/a
399.782	0.075	799564	keystroke_e	e	n/a
399.887	0.075	799774	keystroke_l	l	n/a
400.082	0.075	800164	keystroke_y	y	n/a
400.172	0.09	800344	keystroke_Key.space	Key.space	n/a
400.457	0.075	800914	keystroke_v	v	n/a
400.562	0.06	801124	keystroke_i	i	n/a
400.712	0.09	801424	keystroke_s	s	n/a
400.817	0.075	801634	keystroke_u	u	n/a
400.922	0.09	801844	keystroke_a	a	n/a
401.102	0.045	802204	keystroke_l	l	n/a
401.267	0.075	802534	keystroke_Key.space	Key.space	n/a
401.447	0.075	802894	keystroke_a	a	n/a
401.627	0.075	803254	keystroke_r	r	n/a
401.717	0.045	803434	keystroke_n	n	n/a
401.852	0.075	803704	keystroke_o	o	n/a
401.987	0.06	803974	keystroke_r	r	n/a
402.092	0.075	804184	keystroke_l	l	n/a
402.332	0.09	804664	keystroke_d	d	n/a
402.902	0.06	805804	keystroke_Key.backspace	Key.backspace	n/a
403.232	0.075	806464	keystroke_Key.backspace	Key.backspace	n/a
403.877	0.075	807754	keystroke_Key.backspace	Key.backspace	n/a
404.762	0.075	809524	keystroke_l	l	n/a
405.302	0.06	810604	keystroke_d	d	n/a
405.692	0.075	811384	keystroke_Key.enter	Key.enter	n/a
405.771	7.1375	811542	prompt	n/a	horses envelope passenger impressive\n
406.562	0.06	813124	keystroke_h	h	n/a
406.742	0.075	813484	keystroke_o	o	n/a
406.847	0.105	813694	keystroke_r	r	n/a
407.057	0.09	814114	keystroke_s	s	n/a
407.207	0.09	814414	keystroke_e	e	n/a
407.492	0.015	814984	keystroke_s	s	n/a
407.522	0.075	815044	keystroke_Key.space	Key.space	n/a
407.792	0.06	815584	keystroke_e	e	n/a
407.852	0.105	815704	keystroke_n	n	n/a
408.077	0.06	816154	keystroke_v	v	n/a
408.227	0.075	816454	keystroke_e	e	n/a
408.362	0.03	816724	keystroke_l	l	n/a
408.497	0.06	816994	keystroke_o	o	n/a
408.677	0.06	817354	keystroke_p	p	n/a
408.782	0.105	817564	keystroke_e	e	n/a
408.947	0.075	817894	keystroke_Key.space	Key.space	n/a
409.157	0.06	818314	keystroke_p	p	n/a
409.247	0.09	818494	keystroke_a	a	n/a
409.457	0.105	818914	keystroke_s	s	n/a
409.637	0.075	819274	keystroke_s	s	n/a
409.832	0.045	819664	keystroke_e	e	n/a
409.922	0.075	819844	keystroke_n	n	n/a
410.132	0.06	820264	keystroke_g	g	n/a
410.267	0.12	820534	keystroke_e	e	n/a
410.402	0.09	820804	keystroke_r	r	n/a
410.597	0.075	821194	keystroke_Key.space	Key.space	n/a
411.032	0.075	822064	keystroke_i	i	n/a
411.197	0.075	822394	keystroke_m	m	n/a
411.407	0.075	822814	keystroke_p	p	n/a
411.497	0.09	822994	keystroke_r	r	n/a
411.572	0.105	823144	keystroke_e	e	n/a
411.857	0.06	823714	keystroke_s	s	n/a
411.977	0.075	823954	keystroke_s	s	n/a
412.037	0.09	824074	keystroke_i	i	n/a
412.202	0.075	824404	keystroke_v	v	n/a
412.367	0.09	824734	keystroke_e	e	n/a
412.847	0.06	825694	keystroke_Key.enter	Key.enter	n/a
412.9115	6.0575	825823	prompt	n/a	king specialists joke volunteer\n
413.627	0.075	827254	keystroke_k	k	n/a
413.792	0.06	827584	keystroke_i	i	n/a
413.942	0.075	827884	keystroke_n	n	n/a
414.062	0.09	828124	keystroke_g	g	n/a
414.212	0.09	828424	keystroke_Key.space	Key.space	n/a
414.542	0.075	829084	keystroke_s	s	n/a
414.632	0.075	829264	keystroke_p	p	n/a
414.767	0.09	829534	keystroke_e	e	n/a
415.022	0.075	830044	keystroke_c	c	n/a
415.112	0.06	830224	keystroke_i	i	n/a
415.247	0.09	830494	keystroke_a	a	n/a
415.367	0.06	830734	keystroke_l	l	n/a
415.502	0.075	831004	keystroke_i	i	n/a
415.592	0.09	831184	keystroke_s	s	n/a
415.787	0.075	831574	keystroke_t	t	n/a
416.012	0.075	832024	keystroke_s	s	n/a
416.102	0.09	832204	keystroke_Key.space	Key.space	n/a
416.402	0.09	832804	keystroke_j	j	n/a
416.597	0.06	833194	keystroke_o	o	n/a
416.717	0.075	833434	keystroke_k	k	n/a
416.837	0.075	833674	keystroke_e	e	n/a
416.942	0.09	833884	keystroke_Key.space	Key.space	n/a
417.182	0.06	834364	keystroke_v	v	n/a
417.272	0.075	834544	keystroke_o	o	n/a
417.437	0.075	834874	keystroke_l	l	n/a
417.632	0.075	835264	keystroke_u	u	n/a
417.827	0.06	835654	keystroke_n	n	n/a
418.007	0.075	836014	keystroke_t	t	n/a
418.217	0.09	836434	keystroke_e	e	n/a
418.367	0.105	836734	keystroke_e	e	n/a
418.532	0.09	837064	keystroke_r	r	n/a
418.907	0.06	837814	keystroke_Key.enter	Key.enter	n/a
418.9715	8.847	837943	prompt	n/a	unknown goals sandra routing\n
419.717	0.06	839434	keystroke_u	u	n/a
419.867	0.075	839734	keystroke_n	n	n/a
420.047	0.075	840094	keystroke_k	k	n/a
420.422	0.06	840844	keystroke_o	o	n/a
421.022	0.09	842044	keystroke_w	w	n/a
421.097	0.105	842194	keystroke_n	n	n/a
422.207	0.06	844414	keystroke_Key.backspace	Key.backspace	n/a
422.582	0.06	845164	keystroke_Key.backspace	Key.backspace	n/a
422.912	0.06	845824	keystroke_Key.backspace	Key.backspace	n/a
423.407	0.06	846814	keystroke_n	n	n/a
423.602	0.06	847204	keystroke_o	o	n/a
423.722	0.075	847444	keystroke_w	w	n/a
423.827	0.09	847654	keystroke_n	n	n/a
424.067	0.09	848134	keystroke_Key.space	Key.space	n/a
424.307	0.06	848614	keystroke_g	g	n/a
424.397	0.06	848794	keystroke_o	o	n/a
424.5465	0.075	849093	keystroke_a	a	n/a
424.6515	0.06	849303	keystroke_l	l	n/a
424.7865	0.075	849573	keystroke_s	s	n/a
424.9065	0.09	849813	keystroke_Key.space	Key.space	n/a
425.5515	0.06	851103	keystroke_s	s	n/a
425.6715	0.09	851343	keystroke_a	a	n/a
425.7765	0.09	851553	keystroke_n	n	n/a
425.9415	0.09	851883	keystroke_d	d	n/a
426.1515	0.075	852303	keystroke_r	r	n/a
426.3465	0.075	852693	keystroke_a	a	n/a
426.4815	0.105	852963	keystroke_Key.space	Key.space	n/a
426.8415	0.09	853683	keystroke_r	r	n/a
426.9765	0.09	853953	keystroke_o	o	n/a
427.0365	0.09	854073	keystroke_u	u	n/a
427.2015	0.075	854403	keystroke_t	t	n/a
427.3215	0.06	854643	keystroke_i	i	n/a
427.4715	0.045	854943	keystroke_n	n	n/a
427.5465	0.075	855093	keystroke_g	g	n/a
427.7265	0.09	855453	keystroke_Key.enter	Key.enter	n/a
427.821	9.972	855642	prompt	n/a	montgomery tropical ruby fitting\n
431.5995	0	863199	keystroke_m	m	n/a
431.8065	0.09	863613	keystroke_o	o	n/a
432.0165	0.075	864033	keystroke_n	n	n/a
432.1965	0.09	864393	keystroke_t	t	n/a
432.6465	0.09	865293	keystroke_g	g	n/a
432.7215	0.075	865443	keystroke_o	o	n/a
432.9315	0.09	865863	keystroke_m	m	n/a
433.7415	0.075	867483	keystroke_e	e	n/a
433.9515	0.06	867903	keystroke_r	r	n/a
434.0265	0.06	868053	keystroke_y	y	n/a
434.4015	0.075	868803	keystroke_Key.space	Key.space	n/a
434.6265	0.075	869253	keystroke_t	t	n/a
434.8365	0.075	869673	keystroke_r	r	n/a
434.9265	0.075	869853	keystroke_o	o	n/a
435.1365	0.045	870273	keystroke_p	p	n/a
435.3315	0.06	870663	keystroke_i	i	n/a
435.4065	0.075	870813	keystroke_c	c	n/a
435.5865	0.105	871173	keystroke_a	a	n/a
435.6765	0.075	871353	keystroke_l	l	n/a
435.7815	0.09	871563	keystroke_Key.space	Key.space	n/a
435.9615	0.09	871923	keystroke_r	r	n/a
436.0815	0.09	872163	keystroke_u	u	n/a
436.3215	0.06	872643	keystroke_b	b	n/a
436.4565	0.075	872913	keystroke_y	y	n/a
436.6065	0.075	873213	keystroke_Key.space	Key.space	n/a
436.8165	0.06	873633	keystroke_f	f	n/a
436.8915	0.075	873783	keystroke_i	i	n/a
437.0415	0.075	874083	keystroke_t	t	n/a
437.1915	0.09	874383	keystroke_t	t	n/a
437.2665	0.06	874533	keystroke_i	i	n/a
437.3865	0.09	874773	keystroke_n	n	n/a
437.5365	0.06	875073	keystroke_g	g	n/a
437.7165	0.075	875433	keystroke_Key.enter	Key.enter	n/a
437.796	10.257	875592	prompt	n/a	resource courses extensions nutten\n
439.5015	0.09	879003	keystroke_r	r	n/a
439.6215	0.075	879243	keystroke_e	e	n/a
439.9815	0.075	879963	keystroke_s	s	n/a
440.1915	0.12	880383	keystroke_o	o	n/a
440.2665	0.09	880533	keystroke_u	u	n/a
441.0615	0.06	882123	keystroke_r	r	n/a
441.3465	0.075	882693	keystroke_c	c	n/a
441.6765	0.075	883353	keystroke_e	e	n/a
441.8115	0.09	883623	keystroke_Key.space	Key.space	n/a
442.0515	0.06	884103	keystroke_c	c	n/a
442.1565	0.12	884313	keystroke_o	o	n/a
442.2615	0.09	884523	keystroke_u	u	n/a
442.4115	0.105	884823	keystroke_r	r	n/a
442.6665	0.09	885333	keystroke_s	s	n/a
442.8615	0.075	885723	keystroke_e	e	n/a
443.0265	0.09	886053	keystroke_s	s	n/a
443.1765	0.075	886353	keystroke_Key.space	Key.space	n/a
443.3565	0.075	886713	keystroke_e	e	n/a
443.5965	0.09	887193	keystroke_x	x	n/a
443.8215	0.075	887643	keystroke_t	t	n/a
444.0165	0.075	888033	keystroke_e	e	n/a
444.1365	0.105	888273	keystroke_n	n	n/a
444.5265	0.09	889053	keystroke_s	s	n/a
444.6765	0.03	889353	keystroke_i	i	n/a
444.8415	0.03	889683	keystroke_o	o	n/a
445.5765	0.09	891153	keystroke_n	n	n/a
445.8465	0.075	891693	keystroke_s	s	n/a
445.9665	0.105	891933	keystroke_Key.space	Key.space	n/a
446.1315	0.03	892263	keystroke_e	e	n/a
446.5515	0.045	893103	keystroke_Key.backspace	Key.backspace	n/a
446.8215	0.06	893643	keystroke_n	n	n/a
446.9565	0.06	893913	keystroke_u	u	n/a
447.1065	0.045	894213	keystroke_t	t	n/a
447.2265	0.06	894453	keystroke_t	t	n/a
447.3915	0.075	894783	keystroke_e	e	n/a
447.4815	0.12	894963	keystroke_n	n	n/a
447.9915	0.06	895983	keystroke_Key.enter	Key.enter	n/a
448.0565	10.3465	896113	prompt	n/a	precision tiles weekends exclude\n
451.2345	0.027	902469	keystroke_r	r	n/a
452.0565	0.075	904113	keystroke_Key.backspace	Key.backspace	n/a
452.5375	0.044	905075	keystroke_p	p	n/a
452.6265	0.12	905253	keystroke_r	r	n/a
452.7315	0.105	905463	keystroke_e	e	n/a
453.0015	0.075	906003	keystroke_c	c	n/a
453.3615	0.06	906723	keystroke_i	i	n/a
453.4965	0.09	906993	keystroke_s	s	n/a
453.6165	0.075	907233	keystroke_i	i	n/a
453.7965	0.06	907593	keystroke_o	o	n/a
453.9915	0.076	907983	keystroke_n	n	n/a
454.2015	0.09	908403	keystroke_Key.space	Key.space	n/a
454.4415	0.09	908883	keystroke_t	t	n/a
454.5615	0.06	909123	keystroke_i	i	n/a
454.7715	0.06	909543	keystroke_l	l	n/a
454.8915	0.09	909783	keystroke_e	e	n/a
455.1015	0.075	910203	keystroke_s	s	n/a
455.2065	0.09	910413	keystroke_Key.space	Key.space	n/a
455.3115	0.105	910623	keystroke_w	w	n/a
455.5525	0.059	911105	keystroke_e	e	n/a
455.6865	0.09	911373	keystroke_e	e	n/a
455.8065	0.075	911613	keystroke_k	k	n/a
455.9125	0.104	911825	keystroke_e	e	n/a
456.0315	0.076	912063	keystroke_n	n	n/a
456.1665	0.09	912333	keystroke_d	d	n/a
456.3315	0.09	912663	keystroke_s	s	n/a
456.4515	0.09	912903	keystroke_Key.space	Key.space	n/a
456.6615	0.075	913323	keystroke_e	e	n/a
456.9015	0.09	913803	keystroke_x	x	n/a
457.1115	0.09	914223	keystroke_c	c	n/a
457.2165	0.09	914433	keystroke_l	l	n/a
457.3815	0.075	914763	keystroke_u	u	n/a
457.5015	0.075	915003	keystroke_d	d	n/a
457.6665	0.075	915333	keystroke_e	e	n/a
458.3115	0.09	916623	keystroke_Key.enter	Key.enter	n/a
458.4065	5.397	916813	prompt	n/a	guns bras closure writings\n
459.3015	0.075	918603	keystroke_g	g	n/a
459.4065	0.06	918813	keystroke_u	u	n/a
459.6165	0.076	919233	keystroke_n	n	n/a
459.7215	0.091	919443	keystroke_s	s	n/a
459.8565	0.075	919713	keystroke_Key.space	Key.space	n/a
460.0375	0.059	920075	keystroke_b	b	n/a
460.1575	0.074	920315	keystroke_r	r	n/a
460.4415	0.12	920883	keystroke_a	a	n/a
460.7875	0.089	921575	keystroke_s	s	n/a
460.9515	0.09	921903	keystroke_Key.space	Key.space	n/a
461.2065	0.09	922413	keystroke_c	c	n/a
461.3715	0.075	922743	keystroke_l	l	n/a
461.5375	0.074	923075	keystroke_o	o	n/a
461.6565	0.09	923313	keystroke_s	s	n/a
461.7615	0.105	923523	keystroke_u	u	n/a
461.9565	0.105	923913	keystroke_r	r	n/a
462.0165	0.121	924033	keystroke_e	e	n/a
462.1815	0.09	924363	keystroke_Key.space	Key.space	n/a
462.3465	0.09	924693	keystroke_w	w	n/a
462.5415	0.105	925083	keystroke_r	r	n/a
462.6765	0.09	925353	keystroke_i	i	n/a
462.8565	0.061	925713	keystroke_t	t	n/a
462.9475	0.074	925895	keystroke_i	i	n/a
463.1115	0.075	926223	keystroke_n	n	n/a
463.2475	0.075	926495	keystroke_g	g	n/a
463.5465	0.061	927093	keystroke_s	s	n/a
463.7115	0.09	927423	keystroke_Key.enter	Key.enter	n/a
463.8065	6.627	927613	prompt	n/a	broadcasting calendars giant essential\n
464.6115	0.061	929223	keystroke_b	b	n/a
464.8065	0.076	929613	keystroke_r	r	n/a
464.8965	0.09	929793	keystroke_o	o	n/a
465.0475	0.119	930095	keystroke_a	a	n/a
465.2575	0.074	930515	keystroke_d	d	n/a
465.4815	0.061	930963	keystroke_c	c	n/a
465.6465	0.076	931293	keystroke_a	a	n/a
465.7515	0.135	931503	keystroke_s	s	n/a
466.0075	0.074	932015	keystroke_t	t	n/a
466.0965	0.06	932193	keystroke_i	i	n/a
466.2015	0.09	932403	keystroke_n	n	n/a
466.3375	0.075	932675	keystroke_g	g	n/a
466.4415	0.075	932883	keystroke_Key.space	Key.space	n/a
466.5775	0.089	933155	keystroke_c	c	n/a
466.7565	0.091	933513	keystroke_a	a	n/a
466.8615	0.06	933723	keystroke_l	l	n/a
467.0115	0.075	934023	keystroke_e	e	n/a
467.1175	0.075	934235	keystroke_n	n	n/a
467.2515	0.106	934503	keystroke_d	d	n/a
467.4015	0.105	934803	keystroke_a	a	n/a
467.5675	0.089	935135	keystroke_r	r	n/a
467.7925	0.074	935585	keystroke_s	s	n/a
467.8965	0.09	935793	keystroke_Key.space	Key.space	n/a
468.0325	0.075	936065	keystroke_g	g	n/a
468.1225	0.075	936245	keystroke_i	i	n/a
468.2725	0.104	936545	keystroke_a	a	n/a
468.3475	0.09	936695	keystroke_n	n	n/a
468.5275	0.075	937055	keystroke_t	t	n/a
468.6315	0.075	937263	keystroke_Key.space	Key.space	n/a
468.7515	0.091	937503	keystroke_e	e	n/a
468.9925	0.075	937985	keystroke_s	s	n/a
469.1125	0.074	938225	keystroke_s	s	n/a
469.2775	0.089	938555	keystroke_e	e	n/a
469.3825	0.075	938765	keystroke_n	n	n/a
469.5625	0.075	939125	keystroke_t	t	n/a
469.6675	0.075	939335	keystroke_i	i	n/a
469.8175	0.105	939635	keystroke_a	a	n/a
469.9365	0.091	939873	keystroke_l	l	n/a
470.3565	0.076	940713	keystroke_Key.enter	Key.enter	n/a
470.436	8.3975	940872	prompt	n/a	burns convertible selections friend\n
472.9545	0.013	945909	keystroke_b	b	n/a
473.0725	0.075	946145	keystroke_u	u	n/a
473.2525	0.075	946505	keystroke_r	r	n/a
473.3425	0.09	946685	keystroke_n	n	n/a
473.6125	0.015	947225	keystroke_s	s	n/a
473.6725	0.09	947345	keystroke_Key.space	Key.space	n/a
473.8375	0.09	947675	keystroke_c	c	n/a
473.9425	0.06	947885	keystroke_o	o	n/a
474.1075	0.075	948215	keystroke_n	n	n/a
474.2125	0.06	948425	keystroke_v	v	n/a
474.3775	0.135	948755	keystroke_e	e	n/a
474.5275	0.09	949055	keystroke_r	r	n/a
474.7375	0.075	949475	keystroke_t	t	n/a
474.9175	0.06	949835	keystroke_i	i	n/a
475.1725	0.06	950345	keystroke_b	b	n/a
475.4425	0.045	950885	keystroke_l	l	n/a
475.5625	0.09	951125	keystroke_e	e	n/a
475.8175	0.075	951635	keystroke_Key.space	Key.space	n/a
476.0425	0.075	952085	keystroke_s	s	n/a
476.1775	0.09	952355	keystroke_e	e	n/a
476.2825	0.06	952565	keystroke_l	l	n/a
476.3725	0.09	952745	keystroke_e	e	n/a
476.6125	0.09	953225	keystroke_c	c	n/a
476.8675	0.06	953735	keystroke_t	t	n/a
476.9575	0.09	953915	keystroke_i	i	n/a
477.1375	0.045	954275	keystroke_o	o	n/a
477.2875	0.075	954575	keystroke_n	n	n/a
477.4075	0.09	954815	keystroke_s	s	n/a
477.5425	0.075	955085	keystroke_Key.space	Key.space	n/a
477.6925	0.09	955385	keystroke_f	f	n/a
477.8875	0.075	955775	keystroke_r	r	n/a
477.9775	0.09	955955	keystroke_i	i	n/a
478.1275	0.09	956255	keystroke_e	e	n/a
478.2325	0.09	956465	keystroke_n	n	n/a
478.4125	0.09	956825	keystroke_d	d	n/a
478.7425	0.09	957485	keystroke_Key.enter	Key.enter	n/a
478.8365	5.9225	957673	prompt	n/a	syndication agencies cast newest\n
479.5075	0.075	959015	keystroke_s	s	n/a
479.5975	0.09	959195	keystroke_y	y	n/a
479.8075	0.075	959615	keystroke_n	n	n/a
479.9125	0.105	959825	keystroke_d	d	n/a
480.0475	0.075	960095	keystroke_i	i	n/a
480.2125	0.075	960425	keystroke_c	c	n/a
480.3775	0.09	960755	keystroke_a	a	n/a
480.5875	0.09	961175	keystroke_t	t	n/a
480.6925	0.075	961385	keystroke_i	i	n/a
480.8425	0.06	961685	keystroke_o	o	n/a
481.0225	0.075	962045	keystroke_n	n	n/a
481.1125	0.075	962225	keystroke_Key.space	Key.space	n/a
481.2475	0.09	962495	keystroke_a	a	n/a
481.3825	0.075	962765	keystroke_g	g	n/a
481.5175	0.075	963035	keystroke_e	e	n/a
481.6225	0.09	963245	keystroke_n	n	n/a
481.7875	0.105	963575	keystroke_c	c	n/a
481.9225	0.075	963845	keystroke_i	i	n/a
482.0425	0.09	964085	keystroke_e	e	n/a
482.2375	0.075	964475	keystroke_s	s	n/a
482.3575	0.075	964715	keystroke_Key.space	Key.space	n/a
482.5975	0.075	965195	keystroke_c	c	n/a
482.7475	0.105	965495	keystroke_a	a	n/a
482.8825	0.12	965765	keystroke_s	s	n/a
483.1225	0.075	966245	keystroke_t	t	n/a
483.2125	0.075	966425	keystroke_Key.space	Key.space	n/a
483.3775	0.09	966755	keystroke_n	n	n/a
483.4825	0.09	966965	keystroke_e	e	n/a
483.5875	0.09	967175	keystroke_w	w	n/a
483.7375	0.12	967475	keystroke_e	e	n/a
483.9925	0.09	967985	keystroke_s	s	n/a
484.2175	0.0595	968435	keystroke_t	t	n/a
484.6825	0.075	969365	keystroke_Key.enter	Key.enter	n/a
484.7635	6.19	969527	prompt	n/a	stored updated recording logistics\n
485.327	0.09	970654	keystroke_s	s	n/a
485.567	0.075	971134	keystroke_t	t	n/a
485.627	0.0605	971254	keystroke_o	o	n/a
485.777	0.0905	971554	keystroke_r	r	n/a
485.882	0.09	971764	keystroke_e	e	n/a
486.122	0.105	972244	keystroke_d	d	n/a
486.257	0.09	972514	keystroke_Key.space	Key.space	n/a
486.4375	0.09	972875	keystroke_u	u	n/a
486.662	0.045	973324	keystroke_p	p	n/a
486.767	0.09	973534	keystroke_d	d	n/a
486.902	0.0905	973804	keystroke_a	a	n/a
487.127	0.09	974254	keystroke_t	t	n/a
487.277	0.1055	974554	keystroke_e	e	n/a
487.5175	0.0595	975035	keystroke_d	d	n/a
487.5925	0.0895	975185	keystroke_Key.space	Key.space	n/a
487.712	0.1355	975424	keystroke_r	r	n/a
487.8475	0.09	975695	keystroke_e	e	n/a
488.0425	0.0895	976085	keystroke_c	c	n/a
488.1925	0.06	976385	keystroke_o	o	n/a
488.297	0.09	976594	keystroke_r	r	n/a
488.5075	0.06	977015	keystroke_d	d	n/a
488.612	0.0605	977224	keystroke_i	i	n/a
488.747	0.09	977494	keystroke_n	n	n/a
488.852	0.0905	977704	keystroke_g	g	n/a
488.957	0.0755	977914	keystroke_Key.space	Key.space	n/a
489.167	0.06	978334	keystroke_l	l	n/a
489.317	0.075	978634	keystroke_o	o	n/a
489.452	0.075	978904	keystroke_g	g	n/a
489.557	0.0755	979114	keystroke_i	i	n/a
489.7075	0.075	979415	keystroke_s	s	n/a
489.9175	0.075	979835	keystroke_t	t	n/a
490.0225	0.075	980045	keystroke_i	i	n/a
490.1875	0.075	980375	keystroke_c	c	n/a
490.3975	0.0895	980795	keystroke_s	s	n/a
490.8625	0.0895	981725	keystroke_Key.enter	Key.enter	n/a
490.9565	6.897	981913	prompt	n/a	billing possibilities jazz gradually\n
491.5225	0.06	983045	keystroke_b	b	n/a
491.6725	0.075	983345	keystroke_i	i	n/a
491.912	0.0455	983824	keystroke_l	l	n/a
492.0175	0.075	984035	keystroke_l	l	n/a
492.197	0.0455	984394	keystroke_i	i	n/a
492.287	0.0755	984574	keystroke_n	n	n/a
492.4225	0.0745	984845	keystroke_g	g	n/a
492.4825	0.075	984965	keystroke_Key.space	Key.space	n/a
492.662	0.0605	985324	keystroke_p	p	n/a
492.7975	0.075	985595	keystroke_o	o	n/a
492.932	0.09	985864	keystroke_s	s	n/a
493.097	0.075	986194	keystroke_s	s	n/a
493.1875	0.0595	986375	keystroke_i	i	n/a
493.292	0.0755	986584	keystroke_b	b	n/a
493.472	0.075	986944	keystroke_i	i	n/a
493.697	0.0455	987394	keystroke_l	l	n/a
493.862	0.0605	987724	keystroke_i	i	n/a
494.0125	0.0745	988025	keystroke_t	t	n/a
494.1325	0.0745	988265	keystroke_i	i	n/a
494.2825	0.09	988565	keystroke_e	e	n/a
494.5225	0.06	989045	keystroke_s	s	n/a
494.7025	0.09	989405	keystroke_Key.space	Key.space	n/a
494.987	0.06	989974	keystroke_j	j	n/a
495.107	0.09	990214	keystroke_a	a	n/a
495.332	0.1055	990664	keystroke_z	z	n/a
495.4675	0.15	990935	keystroke_z	z	n/a
495.8425	0.09	991685	keystroke_Key.space	Key.space	n/a
496.007	0.1055	992014	keystroke_g	g	n/a
496.232	0.075	992464	keystroke_r	r	n/a
496.4275	0.105	992855	keystroke_a	a	n/a
496.5775	0.105	993155	keystroke_d	d	n/a
496.697	0.06	993394	keystroke_u	u	n/a
496.832	0.0755	993664	keystroke_a	a	n/a
496.9375	0.06	993875	keystroke_l	l	n/a
497.042	0.075	994084	keystroke_l	l	n/a
497.2525	0.09	994505	keystroke_y	y	n/a
497.7625	0.0895	995525	keystroke_Key.enter	Key.enter	n/a
497.8565	5.682	995713	prompt	n/a	resolution beat achieve showers\n
498.452	0.12	996904	keystroke_r	r	n/a
498.5575	0.09	997115	keystroke_e	e	n/a
498.812	0.075	997624	keystroke_s	s	n/a
498.902	0.105	997804	keystroke_o	o	n/a
499.2625	0.09	998525	keystroke_l	l	n/a
499.412	0.105	998824	keystroke_u	u	n/a
499.562	0.09	999124	keystroke_t	t	n/a
499.682	0.075	999364	keystroke_i	i	n/a
499.862	0.06	999724	keystroke_o	o	n/a
500.042	0.06	1000084	keystroke_n	n	n/a
500.132	0.075	1000264	keystroke_Key.space	Key.space	n/a
500.267	0.06	1000534	keystroke_b	b	n/a
500.357	0.075	1000714	keystroke_e	e	n/a
500.492	0.075	1000984	keystroke_a	a	n/a
500.702	0.06	1001404	keystroke_t	t	n/a
500.792	0.09	1001584	keystroke_Key.space	Key.space	n/a
500.927	0.075	1001854	keystroke_a	a	n/a
501.137	0.075	1002274	keystroke_c	c	n/a
501.197	0.06	1002394	keystroke_h	h	n/a
501.332	0.075	1002664	keystroke_i	i	n/a
501.452	0.09	1002904	keystroke_e	e	n/a
501.617	0.06	1003234	keystroke_v	v	n/a
501.722	0.075	1003444	keystroke_e	e	n/a
501.917	0.075	1003834	keystroke_Key.space	Key.space	n/a
502.067	0.09	1004134	keystroke_s	s	n/a
502.247	0.045	1004494	keystroke_h	h	n/a
502.412	0.06	1004824	keystroke_o	o	n/a
502.517	0.135	1005034	keystroke_w	w	n/a
502.652	0.12	1005304	keystroke_e	e	n/a
502.847	0.075	1005694	keystroke_r	r	n/a
503.117	0.09	1006234	keystroke_s	s	n/a
503.462	0.075	1006924	keystroke_Key.enter	Key.enter	n/a
503.5415	5.8775	1007083	prompt	n/a	updating toll headline treatments\n
504.197	0.075	1008394	keystroke_u	u	n/a
504.392	0.06	1008784	keystroke_p	p	n/a
504.662	0.075	1009324	keystroke_d	d	n/a
504.812	0.09	1009624	keystroke_a	a	n/a
505.022	0.09	1010044	keystroke_t	t	n/a
505.097	0.06	1010194	keystroke_i	i	n/a
505.247	0.06	1010494	keystroke_n	n	n/a
505.352	0.075	1010704	keystroke_g	g	n/a
505.427	0.09	1010854	keystroke_Key.space	Key.space	n/a
505.577	0.09	1011154	keystroke_t	t	n/a
505.682	0.06	1011364	keystroke_o	o	n/a
505.892	0.03	1011784	keystroke_l	l	n/a
505.997	0.06	1011994	keystroke_l	l	n/a
506.087	0.075	1012174	keystroke_Key.space	Key.space	n/a
506.237	0.09	1012474	keystroke_h	h	n/a
506.342	0.075	1012684	keystroke_e	e	n/a
506.462	0.09	1012924	keystroke_a	a	n/a
506.657	0.075	1013314	keystroke_d	d	n/a
506.747	0.075	1013494	keystroke_l	l	n/a
506.927	0.045	1013854	keystroke_i	i	n/a
507.032	0.075	1014064	keystroke_n	n	n/a
507.122	0.09	1014244	keystroke_e	e	n/a
507.242	0.06	1014484	keystroke_Key.space	Key.space	n/a
507.362	0.09	1014724	keystroke_t	t	n/a
507.527	0.09	1015054	keystroke_r	r	n/a
507.647	0.09	1015294	keystroke_e	e	n/a
507.842	0.075	1015684	keystroke_a	a	n/a
508.022	0.075	1016044	keystroke_t	t	n/a
508.172	0.075	1016344	keystroke_m	m	n/a
508.307	0.09	1016614	keystroke_e	e	n/a
508.382	0.075	1016764	keystroke_n	n	n/a
508.502	0.09	1017004	keystroke_t	t	n/a
508.712	0.105	1017424	keystroke_s	s	n/a
509.342	0.075	1018684	keystroke_Key.enter	Key.enter	n/a
509.4215	5.382	1018843	prompt	n/a	brake butler departure xbox\n
510.047	0.06	1020094	keystroke_b	b	n/a
510.137	0.09	1020274	keystroke_r	r	n/a
510.347	0.075	1020694	keystroke_a	a	n/a
510.452	0.075	1020904	keystroke_k	k	n/a
510.587	0.09	1021174	keystroke_e	e	n/a
510.722	0.06	1021444	keystroke_Key.space	Key.space	n/a
510.857	0.06	1021714	keystroke_b	b	n/a
510.992	0.09	1021984	keystroke_u	u	n/a
511.142	0.075	1022284	keystroke_t	t	n/a
511.262	0.075	1022524	keystroke_l	l	n/a
511.397	0.075	1022794	keystroke_e	e	n/a
511.562	0.075	1023124	keystroke_r	r	n/a
511.682	0.105	1023364	keystroke_Key.space	Key.space	n/a
511.847	0.06	1023694	keystroke_d	d	n/a
511.997	0.075	1023994	keystroke_e	e	n/a
512.117	0.06	1024234	keystroke_p	p	n/a
512.342	0.075	1024684	keystroke_a	a	n/a
512.552	0.06	1025104	keystroke_r	r	n/a
512.717	0.075	1025434	keystroke_t	t	n/a
512.912	0.075	1025824	keystroke_u	u	n/a
513.047	0.09	1026094	keystroke_r	r	n/a
513.152	0.075	1026304	keystroke_e	e	n/a
513.287	0.09	1026574	keystroke_Key.space	Key.space	n/a
513.542	0.075	1027084	keystroke_x	x	n/a
513.707	0.06	1027414	keystroke_b	b	n/a
513.887	0.06	1027774	keystroke_o	o	n/a
513.977	0.09	1027954	keystroke_x	x	n/a
514.712	0.09	1029424	keystroke_Key.enter	Key.enter	n/a
514.8065	8.487	1029613	prompt	n/a	research specifications alphabetical budget\n
515.627	0.135	1031254	keystroke_r	r	n/a
515.747	0.09	1031494	keystroke_e	e	n/a
515.987	0.075	1031974	keystroke_s	s	n/a
516.107	0.105	1032214	keystroke_e	e	n/a
516.257	0.105	1032514	keystroke_a	a	n/a
516.437	0.075	1032874	keystroke_r	r	n/a
516.662	0.12	1033324	keystroke_c	c	n/a
516.767	0.09	1033534	keystroke_h	h	n/a
516.842	0.09	1033684	keystroke_Key.space	Key.space	n/a
517.007	0.075	1034014	keystroke_s	s	n/a
517.097	0.075	1034194	keystroke_p	p	n/a
517.217	0.09	1034434	keystroke_e	e	n/a
517.457	0.075	1034914	keystroke_c	c	n/a
517.592	0.075	1035184	keystroke_i	i	n/a
517.712	0.075	1035424	keystroke_f	f	n/a
517.847	0.075	1035694	keystroke_i	i	n/a
518.027	0.075	1036054	keystroke_c	c	n/a
518.222	0.06	1036444	keystroke_a	a	n/a
518.477	0.015	1036954	keystroke_t	t	n/a
518.507	0.075	1037014	keystroke_i	i	n/a
518.627	0.09	1037254	keystroke_o	o	n/a
518.807	0.09	1037614	keystroke_n	n	n/a
518.942	0.09	1037884	keystroke_s	s	n/a
519.107	0.12	1038214	keystroke_Key.space	Key.space	n/a
519.362	0.09	1038724	keystroke_a	a	n/a
519.482	0.135	1038964	keystroke_l	l	n/a
519.707	0.045	1039414	keystroke_p	p	n/a
519.947	0.03	1039894	keystroke_h	h	n/a
519.992	0.12	1039984	keystroke_a	a	n/a
520.157	0.06	1040314	keystroke_b	b	n/a
520.292	0.09	1040584	keystroke_e	e	n/a
520.532	0.015	1041064	keystroke_t	t	n/a
520.577	0.075	1041154	keystroke_i	i	n/a
520.847	0.015	1041694	keystroke_c	c	n/a
520.922	0.075	1041844	keystroke_a	a	n/a
521.027	0.09	1042054	keystroke_l	l	n/a
521.162	0.075	1042324	keystroke_Key.space	Key.space	n/a
521.327	0.06	1042654	keystroke_b	b	n/a
521.447	0.075	1042894	keystroke_u	u	n/a
521.582	0.09	1043164	keystroke_d	d	n/a
521.732	0.06	1043464	keystroke_g	g	n/a
521.822	0.15	1043644	keystroke_e	e	n/a
521.957	0.12	1043914	keystroke_r	r	n/a
522.437	0.045	1044874	keystroke_Key.backspace	Key.backspace	n/a
522.647	0.075	1045294	keystroke_t	t	n/a
523.202	0.09	1046404	keystroke_Key.enter	Key.enter	n/a
523.2965	5.8925	1046593	prompt	n/a	least velvet dead economies\n
524.102	0.075	1048204	keystroke_l	l	n/a
524.192	0.075	1048384	keystroke_e	e	n/a
524.327	0.105	1048654	keystroke_a	a	n/a
524.507	0.09	1049014	keystroke_s	s	n/a
525.032	0.06	1050064	keystroke_t	t	n/a
525.152	0.075	1050304	keystroke_Key.space	Key.space	n/a
525.332	0.06	1050664	keystroke_v	v	n/a
525.512	0.075	1051024	keystroke_e	e	n/a
525.647	0.06	1051294	keystroke_l	l	n/a
525.887	0.06	1051774	keystroke_v	v	n/a
526.007	0.075	1052014	keystroke_e	e	n/a
526.262	0.075	1052524	keystroke_t	t	n/a
526.412	0.075	1052824	keystroke_Key.space	Key.space	n/a
526.577	0.075	1053154	keystroke_d	d	n/a
526.727	0.09	1053454	keystroke_e	e	n/a
526.922	0.06	1053844	keystroke_a	a	n/a
527.117	0.075	1054234	keystroke_d	d	n/a
527.237	0.105	1054474	keystroke_Key.space	Key.space	n/a
527.432	0.075	1054864	keystroke_e	e	n/a
527.642	0.075	1055284	keystroke_c	c	n/a
527.747	0.06	1055494	keystroke_o	o	n/a
527.897	0.06	1055794	keystroke_n	n	n/a
528.107	0.045	1056214	keystroke_o	o	n/a
528.257	0.075	1056514	keystroke_m	m	n/a
528.437	0.075	1056874	keystroke_i	i	n/a
528.632	0.045	1057264	keystroke_e	e	n/a
528.797	0.09	1057594	keystroke_s	s	n/a
529.097	0.09	1058194	keystroke_Key.enter	Key.enter	n/a
529.1935	8.0355	1058387	prompt	n/a	rehabilitation shown fishing hunter\n
529.787	0.105	1059574	keystroke_r	r	n/a
529.907	0.075	1059814	keystroke_e	e	n/a
530.057	0.09	1060114	keystroke_h	h	n/a
530.222	0.09	1060444	keystroke_a	a	n/a
530.357	0.06	1060714	keystroke_v	v	n/a
530.912	0.06	1061824	keystroke_Key.backspace	Key.backspace	n/a
531.497	0.06	1062994	keystroke_b	b	n/a
532.007	0.06	1064014	keystroke_i	i	n/a
532.202	0.075	1064404	keystroke_l	l	n/a
532.367	0.105	1064734	keystroke_i	i	n/a
532.547	0.09	1065094	keystroke_t	t	n/a
532.772	0.09	1065544	keystroke_a	a	n/a
532.952	0.075	1065904	keystroke_t	t	n/a
533.042	0.09	1066084	keystroke_i	i	n/a
533.207	0.045	1066414	keystroke_o	o	n/a
533.357	0.075	1066714	keystroke_n	n	n/a
533.477	0.075	1066954	keystroke_Key.space	Key.space	n/a
533.627	0.075	1067254	keystroke_s	s	n/a
533.687	0.061	1067374	keystroke_h	h	n/a
533.867	0.06	1067734	keystroke_o	o	n/a
534.002	0.075	1068004	keystroke_w	w	n/a
534.122	0.075	1068244	keystroke_n	n	n/a
534.227	0.09	1068454	keystroke_Key.space	Key.space	n/a
534.512	0.09	1069024	keystroke_f	f	n/a
534.587	0.06	1069174	keystroke_i	i	n/a
534.707	0.075	1069414	keystroke_n	n	n/a
535.037	0.06	1070074	keystroke_Key.backspace	Key.backspace	n/a
535.262	0.075	1070524	keystroke_s	s	n/a
535.352	0.075	1070704	keystroke_h	h	n/a
535.487	0.09	1070974	keystroke_i	i	n/a
535.637	0.09	1071274	keystroke_n	n	n/a
535.772	0.075	1071544	keystroke_g	g	n/a
535.877	0.075	1071754	keystroke_Key.space	Key.space	n/a
536.057	0.06	1072114	keystroke_h	h	n/a
536.177	0.075	1072354	keystroke_u	u	n/a
536.342	0.075	1072684	keystroke_n	n	n/a
536.447	0.09	1072894	keystroke_t	t	n/a
536.642	0.06	1073284	keystroke_e	e	n/a
536.732	0.105	1073464	keystroke_r	r	n/a
537.152	0.075	1074304	keystroke_Key.enter	Key.enter	n/a
537.2315	5.5615	1074463	prompt	n/a	gathering adds feature achieved\n
537.9765	0.075	1075953	keystroke_g	g	n/a
538.0965	0.09	1076193	keystroke_a	a	n/a
538.3215	0.075	1076643	keystroke_t	t	n/a
538.3815	0.075	1076763	keystroke_h	h	n/a
538.4865	0.12	1076973	keystroke_e	e	n/a
538.5765	0.09	1077153	keystroke_r	r	n/a
538.7265	0.075	1077453	keystroke_i	i	n/a
538.8465	0.075	1077693	keystroke_n	n	n/a
538.9665	0.075	1077933	keystroke_g	g	n/a
539.0565	0.075	1078113	keystroke_Key.space	Key.space	n/a
539.1915	0.105	1078383	keystroke_a	a	n/a
539.4015	0.075	1078803	keystroke_d	d	n/a
539.5515	0.075	1079103	keystroke_d	d	n/a
539.7015	0.075	1079403	keystroke_s	s	n/a
539.8065	0.075	1079613	keystroke_Key.space	Key.space	n/a
540.0165	0.075	1080033	keystroke_f	f	n/a
540.1815	0.075	1080363	keystroke_e	e	n/a
540.3765	0.06	1080753	keystroke_a	a	n/a
540.5865	0.075	1081173	keystroke_t	t	n/a
540.6765	0.075	1081353	keystroke_u	u	n/a
540.7965	0.12	1081593	keystroke_r	r	n/a
540.9175	0.089	1081835	keystroke_e	e	n/a
541.0965	0.075	1082193	keystroke_Key.space	Key.space	n/a
541.2315	0.09	1082463	keystroke_a	a	n/a
541.4415	0.09	1082883	keystroke_c	c	n/a
541.5325	0.059	1083065	keystroke_h	h	n/a
541.6815	0.06	1083363	keystroke_i	i	n/a
541.8165	0.105	1083633	keystroke_e	e	n/a
542.0115	0.06	1084023	keystroke_v	v	n/a
542.0865	0.09	1084173	keystroke_e	e	n/a
542.3115	0.09	1084623	keystroke_d	d	n/a
542.7165	0.075	1085433	keystroke_Key.enter	Key.enter	n/a
