onset	duration	sample	value	key	prompt_text
20.2365	17.6935	40473	prompt	n/a	the quick brown fox jumps over a lazy dog\n
21.909	0.001	43818	keystroke_h	h	n/a
23.092	0.03	46184	keystroke_Key.backspace	Key.backspace	n/a
23.557	0.045	47114	keystroke_t	t	n/a
23.662	0.0755	47324	keystroke_h	h	n/a
24.0975	0.075	48195	keystroke_e	e	n/a
24.2925	0.089	48585	keystroke_Key.space	Key.space	n/a
24.8325	0.12	49665	keystroke_q	q	n/a
25.0875	0.09	50175	keystroke_u	u	n/a
25.3425	0.075	50685	keystroke_i	i	n/a
25.6425	0.074	51285	keystroke_c	c	n/a
26.092	0.151	52184	keystroke_k	k	n/a
26.332	0.1055	52664	keystroke_Key.space	Key.space	n/a
26.947	0.09	53894	keystroke_b	b	n/a
27.262	0.0905	54524	keystroke_r	r	n/a
27.7425	0.074	55485	keystroke_o	o	n/a
27.9515	0.09	55903	keystroke_w	w	n/a
28.792	0.105	57584	keystroke_n	n	n/a
29.002	0.105	58004	keystroke_Key.space	Key.space	n/a
29.392	0.075	58784	keystroke_f	f	n/a
29.527	0.09	59054	keystroke_o	o	n/a
29.902	0.09	59804	keystroke_x	x	n/a
30.052	0.0755	60104	keystroke_Key.space	Key.space	n/a
30.8325	0.0445	61665	keystroke_j	j	n/a
31.0575	0.075	62115	keystroke_u	u	n/a
31.2975	0.09	62595	keystroke_m	m	n/a
31.6125	0.105	63225	keystroke_p	p	n/a
31.9125	0.075	63825	keystroke_s	s	n/a
32.0475	0.075	64095	keystroke_Key.space	Key.space	n/a
32.5125	0.0895	65025	keystroke_o	o	n/a
33.2175	0.09	66435	keystroke_v	v	n/a
33.5175	0.09	67035	keystroke_e	e	n/a
33.7725	0.075	67545	keystroke_r	r	n/a
33.982	0.09	67964	keystroke_Key.space	Key.space	n/a
34.192	0.105	68384	keystroke_a	a	n/a
34.342	0.105	68684	keystroke_Key.space	Key.space	n/a
34.597	0.0895	69194	keystroke_l	l	n/a
34.7925	0.089	69585	keystroke_a	a	n/a
35.2865	0.136	70573	keystroke_z	z	n/a
35.5425	0.1055	71085	keystroke_y	y	n/a
35.887	0.075	71774	keystroke_Key.space	Key.space	n/a
36.307	0.105	72614	keystroke_d	d	n/a
36.8775	0.075	73755	keystroke_o	o	n/a
37.1325	0.075	74265	keystroke_g	g	n/a
37.8375	0.09	75675	keystroke_Key.enter	Key.enter	n/a
37.9345	17.845	75869	prompt	n/a	machines mpegs apparel score\n
38.7375	0.075	77475	keystroke_m	m	n/a
38.9025	0.0745	77805	keystroke_a	a	n/a
39.202	0.09	78404	keystroke_c	c	n/a
39.367	0.12	78734	keystroke_h	h	n/a
39.817	0.06	79634	keystroke_i	i	n/a
39.997	0.075	79994	keystroke_n	n	n/a
41.107	0.075	82214	keystroke_e	e	n/a
41.407	0.105	82814	keystroke_s	s	n/a
41.8125	0.105	83625	keystroke_Key.space	Key.space	n/a
42.383	0.09	84766	keystroke_p	p	n/a
43.927	0.105	87854	keystroke_Key.backspace	Key.backspace	n/a
44.482	0.256	88964	keystroke_m	m	n/a
44.768	0.1195	89536	keystroke_p	p	n/a
45.262	0.075	90524	keystroke_e	e	n/a
46.3875	0.09	92775	keystroke_g	g	n/a
47.153	0.089	94306	keystroke_s	s	n/a
47.497	0.12	94994	keystroke_Key.space	Key.space	n/a
47.707	0.105	95414	keystroke_a	a	n/a
47.917	0.105	95834	keystroke_p	p	n/a
48.067	0.15	96134	keystroke_p	p	n/a
48.9975	0.03	97995	keystroke_e	e	n/a
49.0575	0.045	98115	keystroke_e	e	n/a
50.768	0.09	101536	keystroke_Key.backspace	Key.backspace	n/a
51.368	0.059	102736	keystroke_Key.backspace	Key.backspace	n/a
51.728	0.105	103456	keystroke_a	a	n/a
52.133	0.119	104266	keystroke_r	r	n/a
52.613	0.09	105226	keystroke_e	e	n/a
52.9725	0.0755	105945	keystroke_l	l	n/a
53.362	0.09	106724	keystroke_Key.space	Key.space	n/a
53.9175	0.075	107835	keystroke_s	s	n/a
54.2175	0.105	108435	keystroke_c	c	n/a
54.4575	0.075	108915	keystroke_o	o	n/a
54.683	0.09	109366	keystroke_r	r	n/a
54.908	0.074	109816	keystroke_e	e	n/a
55.733	0.045	111466	keystroke_Key.enter	Key.enter	n/a
55.783	21.4465	111566	prompt	n/a	french disposition argued gentleman\n
56.467	0.121	112934	keystroke_f	f	n/a
56.7975	0.105	113595	keystroke_r	r	n/a
57.022	0.075	114044	keystroke_e	e	n/a
57.3375	0.06	114675	keystroke_n	n	n/a
57.638	0.1045	115276	keystroke_c	c	n/a
57.788	0.075	115576	keystroke_h	h	n/a
58.043	0.105	116086	keystroke_Key.space	Key.space	n/a
58.928	0.074	117856	keystroke_d	d	n/a
59.077	0.075	118154	keystroke_i	i	n/a
59.782	0.09	119564	keystroke_s	s	n/a
60.562	0.1355	121124	keystroke_p	p	n/a
60.8475	0.15	121695	keystroke_o	o	n/a
61.2375	0.075	122475	keystroke_s	s	n/a
61.822	0.075	123644	keystroke_i	i	n/a
62.212	0.075	124424	keystroke_t	t	n/a
62.4225	0.12	124845	keystroke_i	i	n/a
62.8125	0.105	125625	keystroke_o	o	n/a
63.3825	0.06	126765	keystroke_n	n	n/a
63.6675	0.12	127335	keystroke_Key.space	Key.space	n/a
63.9975	0.165	127995	keystroke_a	a	n/a
64.673	0.105	129346	keystroke_r	r	n/a
64.973	0.135	129946	keystroke_g	g	n/a
65.8275	0.06	131655	keystroke_u	u	n/a
66.1125	0.09	132225	keystroke_e	e	n/a
66.367	0.151	132734	keystroke_d	d	n/a
67.027	0.09	134054	keystroke_Key.space	Key.space	n/a
67.462	0.061	134924	keystroke_g	g	n/a
68.333	0.06	136666	keystroke_e	e	n/a
69.128	0.06	138256	keystroke_n	n	n/a
69.8325	0.09	139665	keystroke_t	t	n/a
70.4325	0.045	140865	keystroke_l	l	n/a
70.5375	0.06	141075	keystroke_l	l	n/a
71.6925	0.09	143385	keystroke_Key.backspace	Key.backspace	n/a
72.0675	0.1055	144135	keystroke_e	e	n/a
72.9975	0.045	145995	keystroke_t	t	n/a
74.557	0.075	149114	keystroke_Key.backspace	Key.backspace	n/a
75.128	0.074	150256	keystroke_m	m	n/a
75.938	0.104	151876	keystroke_a	a	n/a
76.5825	0.06	153165	keystroke_n	n	n/a
77.1375	0.09	154275	keystroke_Key.enter	Key.enter	n/a
77.2325	22.842	154465	prompt	n/a	often worthy consisting receptors\n
78.008	0.105	156016	keystroke_o	o	n/a
78.188	0.105	156376	keystroke_f	f	n/a
78.5025	0.12	157005	keystroke_t	t	n/a
78.8475	0.09	157695	keystroke_e	e	n/a
79.282	0.045	158564	keystroke_b	b	n/a
80.633	0.089	161266	keystroke_Key.backspace	Key.backspace	n/a
81.203	0.105	162406	keystroke_n	n	n/a
81.472	0.091	162944	keystroke_Key.space	Key.space	n/a
81.9525	0.105	163905	keystroke_w	w	n/a
82.1625	0.09	164325	keystroke_o	o	n/a
82.657	0.12	165314	keystroke_r	r	n/a
83.002	0.075	166004	keystroke_t	t	n/a
83.167	0.061	166334	keystroke_h	h	n/a
83.782	0.106	167564	keystroke_y	y	n/a
84.262	0.1055	168524	keystroke_Key.space	Key.space	n/a
84.983	0.105	169966	keystroke_c	c	n/a
85.133	0.09	170266	keystroke_o	o	n/a
85.418	0.1045	170836	keystroke_n	n	n/a
86.0625	0.06	172125	keystroke_s	s	n/a
86.332	0.0755	172664	keystroke_i	i	n/a
86.5875	0.0895	173175	keystroke_s	s	n/a
87.053	0.075	174106	keystroke_t	t	n/a
87.653	0.075	175306	keystroke_i	i	n/a
87.863	0.135	175726	keystroke_o	o	n/a
88.148	0.09	176296	keystroke_n	n	n/a
88.373	0.105	176746	keystroke_g	g	n/a
89.947	0.045	179894	keystroke_Key.backspace	Key.backspace	n/a
90.457	0.09	180914	keystroke_Key.backspace	Key.backspace	n/a
91.163	0.0745	182326	keystroke_Key.backspace	Key.backspace	n/a
92.317	0.076	184634	keystroke_n	n	n/a
92.512	0.06	185024	keystroke_g	g	n/a
92.932	0.075	185864	keystroke_Key.space	Key.space	n/a
93.5325	0.09	187065	keystroke_r	r	n/a
93.7275	0.105	187455	keystroke_e	e	n/a
94.0725	0.105	188145	keystroke_c	c	n/a
94.4025	0.075	188805	keystroke_e	e	n/a
94.973	0.105	189946	keystroke_p	p	n/a
95.873	0.06	191746	keystroke_t	t	n/a
96.143	0.075	192286	keystroke_o	o	n/a
96.8775	0.075	193755	keystroke_r	r	n/a
97.672	0.075	195344	keystroke_s	s	n/a
100.0445	0.028	200089	keystroke_Key.enter	Key.enter	n/a
100.078	16.527	200156	prompt	n/a	greenhouse fresh couples how's\n
101.0175	0.135	202035	keystroke_g	g	n/a
101.4975	0.105	202995	keystroke_r	r	n/a
101.7975	0.09	203595	keystroke_e	e	n/a
101.9775	0.12	203955	keystroke_e	e	n/a
102.4575	0.075	204915	keystroke_n	n	n/a
102.9225	0.09	205845	keystroke_h	h	n/a
103.1625	0.105	206325	keystroke_o	o	n/a
103.4325	0.09	206865	keystroke_u	u	n/a
103.7325	0.09	207465	keystroke_s	s	n/a
104.5425	0.09	209085	keystroke_e	e	n/a
105.0675	0.105	210135	keystroke_Key.space	Key.space	n/a
105.4425	0.075	210885	keystroke_f	f	n/a
105.7575	0.12	211515	keystroke_r	r	n/a
106.432	0.075	212864	keystroke_e	e	n/a
106.763	0.0595	213526	keystroke_s	s	n/a
107.0775	0.075	214155	keystroke_h	h	n/a
107.408	0.105	214816	keystroke_Key.space	Key.space	n/a
108.128	0.12	216256	keystroke_c	c	n/a
108.368	0.09	216736	keystroke_o	o	n/a
108.7275	0.105	217455	keystroke_u	u	n/a
109.0725	0.1055	218145	keystroke_p	p	n/a
109.6275	0.0905	219255	keystroke_l	l	n/a
109.8375	0.0905	219675	keystroke_e	e	n/a
110.243	0.0745	220486	keystroke_s	s	n/a
110.7975	0.1055	221595	keystroke_Key.space	Key.space	n/a
111.113	0.105	222226	keystroke_h	h	n/a
111.323	0.09	222646	keystroke_o	o	n/a
111.668	0.06	223336	keystroke_s	s	n/a
111.743	0.075	223486	keystroke_s	s	n/a
113.048	0.089	226096	keystroke_Key.backspace	Key.backspace	n/a
113.573	0.09	227146	keystroke_Key.backspace	Key.backspace	n/a
114.023	0.105	228046	keystroke_w	w	n/a
115.0575	0.09	230115	keystroke_'	'	n/a
115.4025	0.09	230805	keystroke_s	s	n/a
116.5275	0.075	233055	keystroke_Key.enter	Key.enter	n/a
116.6085	12.4165	233217	prompt	n/a	routing weight fifteen pierre\n
117.397	0.09	234794	keystroke_r	r	n/a
117.607	0.105	235214	keystroke_o	o	n/a
117.8475	0.09	235695	keystroke_u	u	n/a
118.3125	0.075	236625	keystroke_t	t	n/a
118.538	0.075	237076	keystroke_i	i	n/a
118.733	0.074	237466	keystroke_n	n	n/a
118.912	0.091	237824	keystroke_g	g	n/a
119.168	0.089	238336	keystroke_Key.space	Key.space	n/a
119.873	0.09	239746	keystroke_w	w	n/a
120.187	0.1055	240374	keystroke_e	e	n/a
120.6675	0.06	241335	keystroke_i	i	n/a
121.283	0.075	242566	keystroke_g	g	n/a
121.433	0.075	242866	keystroke_h	h	n/a
121.703	0.075	243406	keystroke_t	t	n/a
122.258	0.105	244516	keystroke_Key.space	Key.space	n/a
122.678	0.09	245356	keystroke_f	f	n/a
122.978	0.075	245956	keystroke_i	i	n/a
123.6225	0.12	247245	keystroke_f	f	n/a
124.208	0.075	248416	keystroke_t	t	n/a
124.538	0.09	249076	keystroke_e	e	n/a
124.733	0.0895	249466	keystroke_e	e	n/a
125.2425	0.0605	250485	keystroke_n	n	n/a
125.737	0.09	251474	keystroke_Key.space	Key.space	n/a
126.367	0.105	252734	keystroke_p	p	n/a
126.833	0.105	253666	keystroke_i	i	n/a
127.418	0.075	254836	keystroke_e	e	n/a
127.793	0.12	255586	keystroke_r	r	n/a
128.062	0.12	256124	keystroke_r	r	n/a
128.3475	0.09	256695	keystroke_e	e	n/a
128.9475	0.075	257895	keystroke_Key.enter	Key.enter	n/a
129.028	16.3315	258056	prompt	n/a	earliest spirit bathrooms cindy\n
129.8775	0.045	259755	keystroke_e	e	n/a
130.0875	0.135	260175	keystroke_a	a	n/a
130.4625	0.09	260925	keystroke_r	r	n/a
131.6025	0.105	263205	keystroke_l	l	n/a
132.4575	0.075	264915	keystroke_i	i	n/a
133.0425	0.06	266085	keystroke_e	e	n/a
133.4475	0.06	266895	keystroke_s	s	n/a
133.8375	0.075	267675	keystroke_t	t	n/a
134.887	0.075	269774	keystroke_Key.space	Key.space	n/a
135.698	0.105	271396	keystroke_s	s	n/a
135.8625	0.09	271725	keystroke_p	p	n/a
136.5075	0.09	273015	keystroke_i	i	n/a
136.928	0.09	273856	keystroke_r	r	n/a
137.3175	0.06	274635	keystroke_i	i	n/a
138.052	0.045	276104	keystroke_t	t	n/a
138.292	0.12	276584	keystroke_Key.space	Key.space	n/a
138.9075	0.1195	277815	keystroke_v	v	n/a
140.077	0.075	280154	keystroke_Key.backspace	Key.backspace	n/a
140.333	0.0745	280666	keystroke_b	b	n/a
140.6475	0.135	281295	keystroke_a	a	n/a
140.9775	0.06	281955	keystroke_t	t	n/a
141.0975	0.105	282195	keystroke_h	h	n/a
141.3525	0.09	282705	keystroke_r	r	n/a
141.638	0.089	283276	keystroke_o	o	n/a
141.848	0.06	283696	keystroke_o	o	n/a
142.2825	0.075	284565	keystroke_m	m	n/a
142.8375	0.09	285675	keystroke_s	s	n/a
143.108	0.0595	286216	keystroke_Key.space	Key.space	n/a
143.453	0.1045	286906	keystroke_c	c	n/a
143.6175	0.0755	287235	keystroke_i	i	n/a
144.113	0.09	288226	keystroke_n	n	n/a
144.353	0.0745	288706	keystroke_d	d	n/a
144.5925	0.0755	289185	keystroke_y	y	n/a
145.2675	0.09	290535	keystroke_Key.enter	Key.enter	n/a
145.3645	16.255	290729	prompt	n/a	yesterday third national magazine\n
146.183	0.09	292366	keystroke_y	y	n/a
146.423	0.09	292846	keystroke_e	e	n/a
146.6775	0.12	293355	keystroke_s	s	n/a
147.112	0.091	294224	keystroke_t	t	n/a
147.757	0.105	295514	keystroke_e	e	n/a
148.088	0.12	296176	keystroke_r	r	n/a
149.858	0.09	299716	keystroke_d	d	n/a
150.143	0.105	300286	keystroke_a	a	n/a
150.308	0.06	300616	keystroke_y	y	n/a
151.0875	0.075	302175	keystroke_Key.space	Key.space	n/a
151.5525	0.09	303105	keystroke_t	t	n/a
151.6725	0.135	303345	keystroke_h	h	n/a
152.1075	0.045	304215	keystroke_i	i	n/a
152.2725	0.09	304545	keystroke_r	r	n/a
152.678	0.09	305356	keystroke_d	d	n/a
153.233	0.09	306466	keystroke_Key.space	Key.space	n/a
153.668	0.075	307336	keystroke_n	n	n/a
153.863	0.105	307726	keystroke_a	a	n/a
154.238	0.09	308476	keystroke_t	t	n/a
154.4325	0.15	308865	keystroke_i	i	n/a
154.673	0.12	309346	keystroke_o	o	n/a
155.198	0.015	310396	keystroke_n	n	n/a
155.9175	0.105	311835	keystroke_a	a	n/a
156.1875	0.075	312375	keystroke_l	l	n/a
156.503	0.12	313006	keystroke_Key.space	Key.space	n/a
156.908	0.0745	313816	keystroke_m	m	n/a
157.0875	0.105	314175	keystroke_a	a	n/a
157.523	0.105	315046	keystroke_g	g	n/a
157.883	0.12	315766	keystroke_a	a	n/a
160.2405	0.042	320481	keystroke_z	z	n/a
160.4025	0.075	320805	keystroke_i	i	n/a
160.658	0.06	321316	keystroke_n	n	n/a
160.7925	0.09	321585	keystroke_e	e	n/a
161.543	0.075	323086	keystroke_Key.enter	Key.enter	n/a
161.623	21.2365	323246	prompt	n/a	grown emacs istanbul creatures\n
162.5325	0.12	325065	keystroke_g	g	n/a
162.8625	0.075	325725	keystroke_r	r	n/a
163.0125	0.09	326025	keystroke_o	o	n/a
163.2675	0.075	326535	keystroke_w	w	n/a
163.4925	0.06	326985	keystroke_n	n	n/a
163.9275	0.09	327855	keystroke_Key.space	Key.space	n/a
164.3475	0.09	328695	keystroke_e	e	n/a
164.663	0.06	329326	keystroke_m	m	n/a
165.083	0.105	330166	keystroke_a	a	n/a
165.548	0.12	331096	keystroke_x	x	n/a
166.7325	0.075	333465	keystroke_Key.backspace	Key.backspace	n/a
167.1075	0.1055	334215	keystroke_c	c	n/a
168.1875	0.075	336375	keystroke_s	s	n/a
168.3675	0.09	336735	keystroke_Key.space	Key.space	n/a
168.6975	0.075	337395	keystroke_i	i	n/a
168.8775	0.06	337755	keystroke_s	s	n/a
169.2825	0.105	338565	keystroke_t	t	n/a
169.6125	0.105	339225	keystroke_a	a	n/a
170.243	0.1345	340486	keystroke_n	n	n/a
171.743	0.12	343486	keystroke_v	v	n/a
172.9575	0.09	345915	keystroke_Key.backspace	Key.backspace	n/a
173.3925	0.075	346785	keystroke_b	b	n/a
173.5725	0.09	347145	keystroke_u	u	n/a
174.2935	0.0895	348587	keystroke_l	l	n/a
174.6225	0.09	349245	keystroke_Key.space	Key.space	n/a
175.6575	0.06	351315	keystroke_v	v	n/a
176.0325	0.121	352065	keystroke_r	r	n/a
177.248	0.105	354496	keystroke_Key.backspace	Key.backspace	n/a
177.668	0.09	355336	keystroke_Key.backspace	Key.backspace	n/a
178.433	0.1195	356866	keystroke_c	c	n/a
178.913	0.075	357826	keystroke_r	r	n/a
179.093	0.0745	358186	keystroke_e	e	n/a
179.3925	0.12	358785	keystroke_a	a	n/a
180.548	0.06	361096	keystroke_t	t	n/a
180.728	0.06	361456	keystroke_u	u	n/a
181.058	0.075	362116	keystroke_r	r	n/a
181.733	0.105	363466	keystroke_e	e	n/a
182.198	0.06	364396	keystroke_s	s	n/a
182.783	0.075	365566	keystroke_Key.enter	Key.enter	n/a
182.8625	18.672	365725	prompt	n/a	expiration promises tags techniques\n
183.7575	0.0905	367515	keystroke_e	e	n/a
184.3875	0.165	368775	keystroke_x	x	n/a
185.3625	0.12	370725	keystroke_p	p	n/a
185.8575	0.106	371715	keystroke_i	i	n/a
186.5335	0.089	373067	keystroke_r	r	n/a
186.8025	0.12	373605	keystroke_a	a	n/a
187.1335	0.074	374267	keystroke_t	t	n/a
187.2825	0.1505	374565	keystroke_i	i	n/a
187.478	0.105	374956	keystroke_o	o	n/a
188.1385	0.06	376277	keystroke_n	n	n/a
188.3785	0.104	376757	keystroke_Key.space	Key.space	n/a
188.648	0.09	377296	keystroke_p	p	n/a
188.9175	0.09	377835	keystroke_r	r	n/a
189.1125	0.09	378225	keystroke_o	o	n/a
189.4875	0.12	378975	keystroke_m	m	n/a
190.1625	0.075	380325	keystroke_i	i	n/a
190.4625	0.09	380925	keystroke_s	s	n/a
191.2725	0.09	382545	keystroke_e	e	n/a
191.6175	0.1055	383235	keystroke_s	s	n/a
192.488	0.09	384976	keystroke_Key.space	Key.space	n/a
192.7285	0.075	385457	keystroke_t	t	n/a
192.9975	0.136	385995	keystroke_a	a	n/a
193.3275	0.121	386655	keystroke_g	g	n/a
194.1085	0.135	388217	keystroke_s	s	n/a
194.3175	0.106	388635	keystroke_Key.space	Key.space	n/a
194.6635	0.044	389327	keystroke_t	t	n/a
195.0375	0.12	390075	keystroke_e	e	n/a
195.4425	0.135	390885	keystroke_c	c	n/a
195.7425	0.12	391485	keystroke_h	h	n/a
197.3625	0.15	394725	keystroke_n	n	n/a
198.3085	0.059	396617	keystroke_i	i	n/a
198.9085	0.104	397817	keystroke_q	q	n/a
199.1925	0.091	398385	keystroke_u	u	n/a
199.9575	0.076	399915	keystroke_e	e	n/a
200.2885	0.074	400577	keystroke_s	s	n/a
201.4735	0.06	402947	keystroke_Key.enter	Key.enter	n/a
201.5385	14.651	403077	prompt	n/a	shadow violin elder scheduled\n
202.2685	0.105	404537	keystroke_s	s	n/a
202.4335	0.075	404867	keystroke_h	h	n/a
202.7475	0.075	405495	keystroke_a	a	n/a
203.198	0.09	406396	keystroke_d	d	n/a
203.348	0.105	406696	keystroke_o	o	n/a
203.948	0.06	407896	keystroke_w	w	n/a
204.2185	0.105	408437	keystroke_Key.space	Key.space	n/a
204.7425	0.12	409485	keystroke_v	v	n/a
205.7635	0.075	411527	keystroke_i	i	n/a
206.0185	0.09	412037	keystroke_o	o	n/a
206.4235	0.12	412847	keystroke_l	l	n/a
206.6635	0.105	413327	keystroke_i	i	n/a
207.563	0.09	415126	keystroke_n	n	n/a
207.863	0.105	415726	keystroke_Key.space	Key.space	n/a
208.148	0.075	416296	keystroke_e	e	n/a
208.283	0.09	416566	keystroke_l	l	n/a
208.538	0.06	417076	keystroke_d	d	n/a
208.7775	0.105	417555	keystroke_e	e	n/a
209.0775	0.075	418155	keystroke_r	r	n/a
209.4825	0.1055	418965	keystroke_Key.space	Key.space	n/a
209.873	0.075	419746	keystroke_s	s	n/a
210.638	0.06	421276	keystroke_h	h	n/a
211.4785	0.06	422957	keystroke_Key.backspace	Key.backspace	n/a
211.823	0.09	423646	keystroke_c	c	n/a
211.973	0.075	423946	keystroke_h	h	n/a
212.9175	0.06	425835	keystroke_e	e	n/a
213.2775	0.0755	426555	keystroke_d	d	n/a
213.458	0.0755	426916	keystroke_u	u	n/a
214.3435	0.075	428687	keystroke_l	l	n/a
214.6285	0.0895	429257	keystroke_e	e	n/a
215.183	0.12	430366	keystroke_d	d	n/a
216.113	0.075	432226	keystroke_Key.enter	Key.enter	n/a
216.193	13.752	432386	prompt	n/a	madness creatures aluminium effect\n
216.9675	0.075	433935	keystroke_m	m	n/a
217.1325	0.12	434265	keystroke_a	a	n/a
217.4025	0.09	434805	keystroke_d	d	n/a
218.0485	0.06	436097	keystroke_n	n	n/a
218.3635	0.075	436727	keystroke_e	e	n/a
218.6635	0.075	437327	keystroke_s	s	n/a
218.8435	0.105	437687	keystroke_s	s	n/a
219.1735	0.12	438347	keystroke_Key.space	Key.space	n/a
219.7285	0.104	439457	keystroke_c	c	n/a
220.1475	0.136	440295	keystroke_r	r	n/a
220.3875	0.1055	440775	keystroke_e	e	n/a
220.658	0.1045	441316	keystroke_a	a	n/a
221.0025	0.09	442005	keystroke_t	t	n/a
221.2275	0.091	442455	keystroke_u	u	n/a
221.5735	0.09	443147	keystroke_r	r	n/a
221.9035	0.09	443807	keystroke_e	e	n/a
222.1735	0.105	444347	keystroke_s	s	n/a
222.5335	0.119	445067	keystroke_Key.space	Key.space	n/a
222.8485	0.134	445697	keystroke_a	a	n/a
222.9985	0.104	445997	keystroke_l	l	n/a
223.448	0.075	446896	keystroke_u	u	n/a
223.883	0.0755	447766	keystroke_m	m	n/a
224.1685	0.075	448337	keystroke_i	i	n/a
224.3935	0.105	448787	keystroke_n	n	n/a
225.023	0.075	450046	keystroke_i	i	n/a
225.518	0.075	451036	keystroke_u	u	n/a
225.9085	0.075	451817	keystroke_m	m	n/a
226.4335	0.1045	452867	keystroke_Key.space	Key.space	n/a
227.798	0.09	455596	keystroke_e	e	n/a
228.068	0.09	456136	keystroke_f	f	n/a
228.248	0.105	456496	keystroke_f	f	n/a
228.5335	0.075	457067	keystroke_e	e	n/a
228.9075	0.03	457815	keystroke_c	c	n/a
229.1925	0.09	458385	keystroke_t	t	n/a
229.8535	0.089	459707	keystroke_Key.enter	Key.enter	n/a
229.948	10.4515	459896	prompt	n/a	bound turkey islands reach\n
230.708	0.1355	461416	keystroke_b	b	n/a
230.9935	0.075	461987	keystroke_o	o	n/a
231.2185	0.09	462437	keystroke_u	u	n/a
231.4585	0.105	462917	keystroke_n	n	n/a
231.6835	0.075	463367	keystroke_d	d	n/a
232.223	0.0755	464446	keystroke_Key.space	Key.space	n/a
232.628	0.09	465256	keystroke_t	t	n/a
232.958	0.06	465916	keystroke_u	u	n/a
233.3485	0.0745	466697	keystroke_r	r	n/a
234.743	0.045	469486	keystroke_k	k	n/a
235.088	0.09	470176	keystroke_e	e	n/a
235.253	0.075	470506	keystroke_y	y	n/a
235.7475	0.09	471495	keystroke_Key.space	Key.space	n/a
236.1825	0.076	472365	keystroke_i	i	n/a
236.3935	0.104	472787	keystroke_s	s	n/a
236.6035	0.09	473207	keystroke_l	l	n/a
236.8435	0.104	473687	keystroke_a	a	n/a
237.0235	0.0895	474047	keystroke_n	n	n/a
237.293	0.0895	474586	keystroke_d	d	n/a
238.013	0.105	476026	keystroke_Key.space	Key.space	n/a
238.328	0.135	476656	keystroke_r	r	n/a
238.553	0.09	477106	keystroke_e	e	n/a
238.838	0.105	477676	keystroke_a	a	n/a
239.423	0.105	478846	keystroke_c	c	n/a
239.663	0.075	479326	keystroke_h	h	n/a
240.323	0.0755	480646	keystroke_Key.enter	Key.enter	n/a
240.4025	15.4025	480805	prompt	n/a	legendary can't jersey registrar\n
241.253	0.075	482506	keystroke_l	l	n/a
241.463	0.075	482926	keystroke_e	e	n/a
241.763	0.09	483526	keystroke_g	g	n/a
242.033	0.105	484066	keystroke_e	e	n/a
242.7375	0.076	485475	keystroke_n	n	n/a
243.188	0.075	486376	keystroke_d	d	n/a
243.4125	0.12	486825	keystroke_a	a	n/a
243.7735	0.09	487547	keystroke_r	r	n/a
244.0285	0.09	488057	keystroke_y	y	n/a
244.5685	0.09	489137	keystroke_Key.space	Key.space	n/a
245.2135	0.12	490427	keystroke_c	c	n/a
245.5135	0.09	491027	keystroke_a	a	n/a
245.6785	0.09	491357	keystroke_n	n	n/a
246.1585	0.15	492317	keystroke_'	'	n/a
246.3985	0.09	492797	keystroke_t	t	n/a
246.908	0.105	493816	keystroke_Key.space	Key.space	n/a
247.358	0.075	494716	keystroke_j	j	n/a
247.643	0.09	495286	keystroke_e	e	n/a
247.973	0.0905	495946	keystroke_r	r	n/a
248.5135	0.0895	497027	keystroke_s	s	n/a
248.768	0.075	497536	keystroke_e	e	n/a
249.0235	0.06	498047	keystroke_y	y	n/a
249.2935	0.0895	498587	keystroke_Key.space	Key.space	n/a
249.908	0.09	499816	keystroke_r	r	n/a
250.133	0.09	500266	keystroke_e	e	n/a
250.523	0.1055	501046	keystroke_g	g	n/a
251.1835	0.0895	502367	keystroke_i	i	n/a
251.498	0.105	502996	keystroke_s	s	n/a
251.993	0.1055	503986	keystroke_t	t	n/a
253.0875	0.06	506175	keystroke_r	r	n/a
254.303	0.15	508606	keystroke_a	a	n/a
254.694	0.1345	509388	keystroke_r	r	n/a
255.7285	0.075	511457	keystroke_Key.enter	Key.enter	n/a
255.8085	24.2515	511617	prompt	n/a	notion ultram merge placing\n
257.0935	0.075	514187	keystroke_n	n	n/a
257.4085	0.12	514817	keystroke_o	o	n/a
257.948	0.0755	515896	keystroke_t	t	n/a
258.068	0.1205	516136	keystroke_i	i	n/a
258.338	0.09	516676	keystroke_o	o	n/a
258.653	0.03	517306	keystroke_n	n	n/a
258.998	0.12	517996	keystroke_Key.space	Key.space	n/a
259.388	0.075	518776	keystroke_u	u	n/a
259.643	0.09	519286	keystroke_l	l	n/a
260.093	0.015	520186	keystroke_t	t	n/a
261.263	0.06	522526	keystroke_r	r	n/a
261.8335	0.09	523667	keystroke_a	a	n/a
262.0735	0.06	524147	keystroke_m	m	n/a
262.4035	0.09	524807	keystroke_Key.space	Key.space	n/a
262.8535	0.06	525707	keystroke_m	m	n/a
262.9885	0.105	525977	keystroke_e	e	n/a
263.3335	0.105	526667	keystroke_r	r	n/a
267.1905	0.028	534381	keystroke_g	g	n/a
267.9685	0.0745	535937	keystroke_e	e	n/a
268.688	0.045	537376	keystroke_Key.space	Key.space	n/a
268.808	0.06	537616	keystroke_Key.space	Key.space	n/a
270.1135	0.075	540227	keystroke_Key.backspace	Key.backspace	n/a
274.0005	0.001	548001	keystroke_p	p	n/a
274.1035	0.105	548207	keystroke_l	l	n/a
274.943	0.045	549886	keystroke_c	c	n/a
275.123	0.09	550246	keystroke_a	a	n/a
275.333	0.06	550666	keystroke_i	i	n/a
276.5035	0.075	553007	keystroke_Key.backspace	Key.backspace	n/a
277.1335	0.09	554267	keystroke_Key.backspace	Key.backspace	n/a
277.748	0.075	555496	keystroke_Key.backspace	Key.backspace	n/a
278.1385	0.105	556277	keystroke_a	a	n/a
278.4385	0.105	556877	keystroke_c	c	n/a
278.663	0.09	557326	keystroke_i	i	n/a
279.143	0.1355	558286	keystroke_n	n	n/a
279.3985	0.075	558797	keystroke_g	g	n/a
280.0435	0.015	560087	keystroke_Key.enter	Key.enter	n/a
280.0635	13.6615	560127	prompt	n/a	neil marion italian political\n
280.869	0.089	561738	keystroke_n	n	n/a
281.063	0.076	562126	keystroke_e	e	n/a
281.3185	0.075	562637	keystroke_i	i	n/a
281.5885	0.105	563177	keystroke_l	l	n/a
281.8885	0.0895	563777	keystroke_Key.space	Key.space	n/a
282.548	0.09	565096	keystroke_m	m	n/a
282.773	0.1055	565546	keystroke_a	a	n/a
283.1185	0.09	566237	keystroke_r	r	n/a
283.3735	0.105	566747	keystroke_i	i	n/a
283.7185	0.09	567437	keystroke_o	o	n/a
284.1085	0.105	568217	keystroke_n	n	n/a
284.438	0.09	568876	keystroke_Key.space	Key.space	n/a
285.2035	0.075	570407	keystroke_i	i	n/a
285.669	0.105	571338	keystroke_t	t	n/a
286.2685	0.09	572537	keystroke_a	a	n/a
286.5835	0.105	573167	keystroke_l	l	n/a
287.064	0.06	574128	keystroke_i	i	n/a
287.379	0.09	574758	keystroke_a	a	n/a
287.979	0.09	575958	keystroke_n	n	n/a
288.338	0.12	576676	keystroke_Key.space	Key.space	n/a
288.7435	0.135	577487	keystroke_p	p	n/a
289.0585	0.1205	578117	keystroke_o	o	n/a
289.8385	0.105	579677	keystroke_l	l	n/a
290.7985	0.075	581597	keystroke_i	i	n/a
291.4435	0.105	582887	keystroke_t	t	n/a
291.819	0.06	583638	keystroke_i	i	n/a
292.404	0.09	584808	keystroke_c	c	n/a
292.7185	0.075	585437	keystroke_a	a	n/a
292.8985	0.0755	585797	keystroke_l	l	n/a
293.648	0.075	587296	keystroke_Key.enter	Key.enter	n/a
293.7285	14.4115	587457	prompt	n/a	maintained configuring onion kept\n
294.7135	0.075	589427	keystroke_m	m	n/a
294.8635	0.075	589727	keystroke_a	a	n/a
295.0135	0.06	590027	keystroke_i	i	n/a
295.193	0.09	590386	keystroke_n	n	n/a
295.928	0.09	591856	keystroke_t	t	n/a
296.198	0.105	592396	keystroke_a	a	n/a
296.348	0.06	592696	keystroke_i	i	n/a
296.543	0.09	593086	keystroke_n	n	n/a
296.753	0.09	593506	keystroke_e	e	n/a
297.023	0.0755	594046	keystroke_d	d	n/a
297.2485	0.09	594497	keystroke_Key.space	Key.space	n/a
297.6685	0.06	595337	keystroke_c	c	n/a
297.8035	0.1055	595607	keystroke_o	o	n/a
298.089	0.09	596178	keystroke_n	n	n/a
298.344	0.104	596688	keystroke_f	f	n/a
298.928	0.12	597856	keystroke_i	i	n/a
299.243	0.09	598486	keystroke_g	g	n/a
299.694	0.075	599388	keystroke_u	u	n/a
300.849	0.09	601698	keystroke_r	r	n/a
302.0785	0.06	604157	keystroke_i	i	n/a
302.754	0.075	605508	keystroke_n	n	n/a
302.979	0.075	605958	keystroke_g	g	n/a
303.458	0.06	606916	keystroke_Key.space	Key.space	n/a
303.9835	0.105	607967	keystroke_o	o	n/a
304.2535	0.105	608507	keystroke_n	n	n/a
305.3335	0.09	610667	keystroke_i	i	n/a
305.633	0.105	611266	keystroke_o	o	n/a
305.933	0.09	611866	keystroke_n	n	n/a
306.503	0.09	613006	keystroke_Key.space	Key.space	n/a
306.759	0.105	613518	keystroke_k	k	n/a
307.029	0.0895	614058	keystroke_e	e	n/a
307.2685	0.0895	614537	keystroke_p	p	n/a
307.568	0.1205	615136	keystroke_t	t	n/a
308.0635	0.075	616127	keystroke_Key.enter	Key.enter	n/a
308.143	18.432	616286	prompt	n/a	optimum genes illustration escape\n
309.354	0.09	618708	keystroke_o	o	n/a
309.713	0.031	619426	keystroke_p	p	n/a
310.539	0.0745	621078	keystroke_t	t	n/a
310.7785	0.09	621557	keystroke_i	i	n/a
311.1535	0.075	622307	keystroke_m	m	n/a
312.2335	0.06	624467	keystroke_u	u	n/a
312.9835	0.0745	625967	keystroke_m	m	n/a
313.2685	0.105	626537	keystroke_Key.space	Key.space	n/a
313.7035	0.076	627407	keystroke_g	g	n/a
314.003	0.1205	628006	keystroke_e	e	n/a
314.7535	0.0605	629507	keystroke_n	n	n/a
314.964	0.105	629928	keystroke_e	e	n/a
315.294	0.105	630588	keystroke_s	s	n/a
315.654	0.075	631308	keystroke_Key.space	Key.space	n/a
315.969	0.075	631938	keystroke_i	i	n/a
316.239	0.09	632478	keystroke_l	l	n/a
316.404	0.12	632808	keystroke_l	l	n/a
316.793	0.091	633586	keystroke_u	u	n/a
317.033	0.12	634066	keystroke_s	s	n/a
318.249	0.105	636498	keystroke_t	t	n/a
318.6685	0.105	637337	keystroke_r	r	n/a
319.344	0.2395	638688	keystroke_a	a	n/a
319.7935	0.06	639587	keystroke_t	t	n/a
319.9585	0.135	639917	keystroke_i	i	n/a
320.1685	0.105	640337	keystroke_o	o	n/a
320.784	0.06	641568	keystroke_n	n	n/a
321.024	0.09	642048	keystroke_Key.space	Key.space	n/a
321.279	0.09	642558	keystroke_e	e	n/a
322.254	0.1195	644508	keystroke_x	x	n/a
323.424	0.1795	646848	keystroke_Key.backspace	Key.backspace	n/a
323.619	0.045	647238	keystroke_s	s	n/a
324.564	0.0895	649128	keystroke_c	c	n/a
325.2685	0.09	650537	keystroke_a	a	n/a
325.4785	0.09	650957	keystroke_p	p	n/a
325.6735	0.0905	651347	keystroke_e	e	n/a
326.484	0.09	652968	keystroke_Key.enter	Key.enter	n/a
326.58	18.46	653160	prompt	n/a	architectural resume modeling flyer\n
327.3235	0.135	654647	keystroke_a	a	n/a
327.5935	0.12	655187	keystroke_r	r	n/a
328.494	0.1195	656988	keystroke_c	c	n/a
328.6585	0.06	657317	keystroke_h	h	n/a
329.813	0.075	659626	keystroke_i	i	n/a
330.294	0.074	660588	keystroke_t	t	n/a
331.103	0.1055	662206	keystroke_e	e	n/a
331.538	0.1205	663076	keystroke_c	c	n/a
334.0005	0.013	668001	keystroke_t	t	n/a
334.7035	0.075	669407	keystroke_u	u	n/a
335.9635	0.075	671927	keystroke_r	r	n/a
336.2335	0.075	672467	keystroke_a	a	n/a
336.4135	0.09	672827	keystroke_l	l	n/a
336.9385	0.0895	673877	keystroke_Key.space	Key.space	n/a
337.419	0.089	674838	keystroke_r	r	n/a
337.6285	0.06	675257	keystroke_e	e	n/a
337.8535	0.105	675707	keystroke_s	s	n/a
338.0335	0.09	676067	keystroke_u	u	n/a
338.2735	0.09	676547	keystroke_m	m	n/a
338.4385	0.06	676877	keystroke_e	e	n/a
338.949	0.105	677898	keystroke_Key.space	Key.space	n/a
339.459	0.15	678918	keystroke_m	m	n/a
339.939	0.0745	679878	keystroke_o	o	n/a
340.1185	0.09	680237	keystroke_d	d	n/a
340.7185	0.075	681437	keystroke_e	e	n/a
341.1235	0.09	682247	keystroke_l	l	n/a
341.319	0.09	682638	keystroke_i	i	n/a
341.544	0.1495	683088	keystroke_n	n	n/a
341.7385	0.075	683477	keystroke_g	g	n/a
342.4135	0.105	684827	keystroke_Key.space	Key.space	n/a
342.7285	0.045	685457	keystroke_f	f	n/a
342.8485	0.09	685697	keystroke_l	l	n/a
343.1935	0.105	686387	keystroke_y	y	n/a
343.899	0.015	687798	keystroke_e	e	n/a
344.079	0.09	688158	keystroke_r	r	n/a
344.9785	0.0605	689957	keystroke_Key.enter	Key.enter	n/a
345.043	14.6975	690086	prompt	n/a	courses dishes strong niagara\n
345.999	0.09	691998	keystroke_c	c	n/a
346.149	0.105	692298	keystroke_o	o	n/a
346.479	0.075	692958	keystroke_u	u	n/a
346.824	0.06	693648	keystroke_r	r	n/a
347.4535	0.105	694907	keystroke_s	s	n/a
347.7085	0.075	695417	keystroke_e	e	n/a
348.0085	0.0895	696017	keystroke_s	s	n/a
348.383	0.09	696766	keystroke_Key.space	Key.space	n/a
349.089	0.074	698178	keystroke_d	d	n/a
349.209	0.0745	698418	keystroke_i	i	n/a
349.4935	0.075	698987	keystroke_s	s	n/a
349.7635	0.045	699527	keystroke_h	h	n/a
350.8735	0.075	701747	keystroke_e	e	n/a
351.159	0.105	702318	keystroke_s	s	n/a
351.744	0.105	703488	keystroke_Key.space	Key.space	n/a
352.014	0.09	704028	keystroke_s	s	n/a
352.329	0.105	704658	keystroke_t	t	n/a
352.584	0.09	705168	keystroke_r	r	n/a
352.749	0.12	705498	keystroke_o	o	n/a
353.019	0.09	706038	keystroke_n	n	n/a
353.214	0.075	706428	keystroke_g	g	n/a
354.744	0.075	709488	keystroke_Key.space	Key.space	n/a
355.584	0.06	711168	keystroke_n	n	n/a
355.959	0.075	711918	keystroke_i	i	n/a
356.544	0.105	713088	keystroke_a	a	n/a
356.964	0.09	713928	keystroke_g	g	n/a
357.5485	0.12	715097	keystroke_a	a	n/a
357.864	0.09	715728	keystroke_r	r	n/a
358.284	0.105	716568	keystroke_a	a	n/a
359.5735	0.165	719147	keystroke_Key.enter	Key.enter	n/a
359.7435	14.307	719487	prompt	n/a	doom noble scary peninsula\n
360.5035	0.09	721007	keystroke_d	d	n/a
360.6985	0.075	721397	keystroke_o	o	n/a
360.8635	0.075	721727	keystroke_o	o	n/a
361.1185	0.1055	722237	keystroke_m	m	n/a
361.359	0.105	722718	keystroke_Key.space	Key.space	n/a
361.719	0.1195	723438	keystroke_n	n	n/a
361.9745	0.075	723949	keystroke_o	o	n/a
362.424	0.09	724848	keystroke_b	b	n/a
363.864	0.075	727728	keystroke_l	l	n/a
364.074	0.075	728148	keystroke_e	e	n/a
364.299	0.09	728598	keystroke_Key.space	Key.space	n/a
364.779	0.06	729558	keystroke_s	s	n/a
365.049	0.12	730098	keystroke_c	c	n/a
365.394	0.135	730788	keystroke_a	a	n/a
365.724	0.09	731448	keystroke_r	r	n/a
365.949	0.075	731898	keystroke_y	y	n/a
366.429	0.09	732858	keystroke_Key.space	Key.space	n/a
366.984	0.105	733968	keystroke_p	p	n/a
367.269	0.105	734538	keystroke_e	e	n/a
367.854	0.06	735708	keystroke_n	n	n/a
368.6195	0.059	737239	keystroke_u	u	n/a
369.7135	0.075	739427	keystroke_Key.backspace	Key.backspace	n/a
370.6735	0.09	741347	keystroke_i	i	n/a
371.2135	0.015	742427	keystroke_n	n	n/a
372.369	0.105	744738	keystroke_s	s	n/a
372.534	0.075	745068	keystroke_u	u	n/a
372.984	0.105	745968	keystroke_l	l	n/a
373.254	0.09	746508	keystroke_a	a	n/a
374.004	0.045	748008	keystroke_Key.enter	Key.enter	n/a
374.0535	13.228	748107	prompt	n/a	forecasts framed pure lycos\n
374.8145	0.09	749629	keystroke_f	f	n/a
375.1445	0.09	750289	keystroke_o	o	n/a
375.7295	0.075	751459	keystroke_r	r	n/a
376.8695	0.06	753739	keystroke_e	e	n/a
377.454	0.255	754908	keystroke_c	c	n/a
377.724	0.075	755448	keystroke_a	a	n/a
377.934	0.09	755868	keystroke_s	s	n/a
378.3545	0.074	756709	keystroke_t	t	n/a
378.7135	0.075	757427	keystroke_s	s	n/a
379.1335	0.09	758267	keystroke_Key.space	Key.space	n/a
379.4035	0.09	758807	keystroke_f	f	n/a
379.734	0.075	759468	keystroke_r	r	n/a
380.019	0.09	760038	keystroke_a	a	n/a
380.244	0.06	760488	keystroke_m	m	n/a
380.439	0.06	760878	keystroke_e	e	n/a
380.694	0.075	761388	keystroke_d	d	n/a
380.994	0.075	761988	keystroke_Key.space	Key.space	n/a
381.489	0.09	762978	keystroke_p	p	n/a
381.8785	0.09	763757	keystroke_u	u	n/a
382.3595	0.104	764719	keystroke_r	r	n/a
382.5685	0.105	765137	keystroke_e	e	n/a
382.7635	0.12	765527	keystroke_Key.space	Key.space	n/a
383.3485	0.105	766697	keystroke_l	l	n/a
383.7835	0.045	767567	keystroke_y	y	n/a
384.8485	0.06	769697	keystroke_c	c	n/a
384.9985	0.0905	769997	keystroke_o	o	n/a
385.929	0.075	771858	keystroke_s	s	n/a
387.204	0.075	774408	keystroke_Key.enter	Key.enter	n/a
387.284	14.4415	774568	prompt	n/a	intro routes divorce mobile\n
388.1035	0.105	776207	keystroke_i	i	n/a
388.3285	0.1055	776657	keystroke_n	n	n/a
388.599	0.075	777198	keystroke_t	t	n/a
389.409	0.075	778818	keystroke_r	r	n/a
389.709	0.09	779418	keystroke_o	o	n/a
390.009	0.12	780018	keystroke_Key.space	Key.space	n/a
390.459	0.075	780918	keystroke_r	r	n/a
390.654	0.09	781308	keystroke_o	o	n/a
391.029	0.0895	782058	keystroke_u	u	n/a
391.4035	0.03	782807	keystroke_t	t	n/a
392.4245	0.104	784849	keystroke_e	e	n/a
392.8435	0.09	785687	keystroke_s	s	n/a
393.4285	0.09	786857	keystroke_Key.space	Key.space	n/a
393.864	0.045	787728	keystroke_d	d	n/a
393.984	0.06	787968	keystroke_i	i	n/a
394.614	0.045	789228	keystroke_v	v	n/a
395.5435	0.075	791087	keystroke_o	o	n/a
396.0685	0.075	792137	keystroke_r	r	n/a
396.4135	0.105	792827	keystroke_c	c	n/a
397.0585	0.075	794117	keystroke_e	e	n/a
397.3135	0.12	794627	keystroke_Key.space	Key.space	n/a
397.7335	0.075	795467	keystroke_m	m	n/a
397.929	0.09	795858	keystroke_o	o	n/a
398.334	0.105	796668	keystroke_b	b	n/a
399.939	0.075	799878	keystroke_i	i	n/a
400.209	0.0745	800418	keystroke_l	l	n/a
400.8235	0.075	801647	keystroke_e	e	n/a
401.649	0.075	803298	keystroke_Key.enter	Key.enter	n/a
401.7285	15.9265	803457	prompt	n/a	hard ourselves accordance basics\n
402.5795	0.074	805159	keystroke_h	h	n/a
402.8335	0.121	805667	keystroke_a	a	n/a
403.1785	0.105	806357	keystroke_r	r	n/a
403.4795	0.089	806959	keystroke_d	d	n/a
403.854	0.105	807708	keystroke_Key.space	Key.space	n/a
404.424	0.09	808848	keystroke_o	o	n/a
404.649	0.075	809298	keystroke_u	u	n/a
404.9345	0.089	809869	keystroke_r	r	n/a
405.549	0.105	811098	keystroke_s	s	n/a
405.894	0.09	811788	keystroke_e	e	n/a
406.1345	0.059	812269	keystroke_l	l	n/a
406.4935	0.1205	812987	keystroke_v	v	n/a
406.839	0.09	813678	keystroke_e	e	n/a
407.154	0.09	814308	keystroke_s	s	n/a
407.364	0.09	814728	keystroke_Key.space	Key.space	n/a
407.754	0.1045	815508	keystroke_a	a	n/a
408.234	0.075	816468	keystroke_c	c	n/a
408.7735	0.105	817547	keystroke_c	c	n/a
409.2535	0.09	818507	keystroke_o	o	n/a
409.5385	0.09	819077	keystroke_r	r	n/a
409.8535	0.09	819707	keystroke_d	d	n/a
410.2135	0.12	820427	keystroke_a	a	n/a
410.7685	0.105	821537	keystroke_c	c	n/a
412.0135	0.075	824027	keystroke_Key.backspace	Key.backspace	n/a
412.5535	0.075	825107	keystroke_n	n	n/a
412.7335	0.0745	825467	keystroke_c	c	n/a
413.6485	0.075	827297	keystroke_e	e	n/a
413.9935	0.105	827987	keystroke_Key.space	Key.space	n/a
414.383	0.09	828766	keystroke_b	b	n/a
414.6685	0.135	829337	keystroke_a	a	n/a
415.329	0.09	830658	keystroke_s	s	n/a
415.7635	0.045	831527	keystroke_i	i	n/a
416.0485	0.105	832097	keystroke_c	c	n/a
416.783	0.061	833566	keystroke_s	s	n/a
417.5635	0.09	835127	keystroke_Key.enter	Key.enter	n/a
417.6585	10.257	835317	prompt	n/a	june taste recent crack\n
418.4485	0.045	836897	keystroke_j	j	n/a
418.764	0.09	837528	keystroke_u	u	n/a
419.214	0.075	838428	keystroke_n	n	n/a
419.439	0.045	838878	keystroke_e	e	n/a
419.888	0.12	839776	keystroke_Key.space	Key.space	n/a
420.293	0.09	840586	keystroke_t	t	n/a
420.6235	0.105	841247	keystroke_a	a	n/a
420.9085	0.105	841817	keystroke_s	s	n/a
421.988	0.075	843976	keystroke_t	t	n/a
422.228	0.09	844456	keystroke_e	e	n/a
422.933	0.075	845866	keystroke_Key.space	Key.space	n/a
423.444	0.104	846888	keystroke_r	r	n/a
423.653	0.091	847306	keystroke_e	e	n/a
424.013	0.09	848026	keystroke_c	c	n/a
424.298	0.09	848596	keystroke_e	e	n/a
424.523	0.06	849046	keystroke_n	n	n/a
424.868	0.075	849736	keystroke_t	t	n/a
425.138	0.105	850276	keystroke_Key.space	Key.space	n/a
425.4685	0.12	850937	keystroke_c	c	n/a
425.9785	0.135	851957	keystroke_r	r	n/a
426.2935	0.09	852587	keystroke_a	a	n/a
426.9235	0.09	853847	keystroke_c	c	n/a
427.0735	0.09	854147	keystroke_k	k	n/a
427.823	0.0905	855646	keystroke_Key.enter	Key.enter	n/a
427.9185	13.9915	855837	prompt	n/a	queens fire simulations preference\n
428.9935	0.1195	857987	keystroke_q	q	n/a
429.3235	0.075	858647	keystroke_u	u	n/a
429.5785	0.075	859157	keystroke_e	e	n/a
429.9985	0.06	859997	keystroke_e	e	n/a
430.1935	0.06	860387	keystroke_n	n	n/a
430.733	0.045	861466	keystroke_s	s	n/a
430.838	0.0905	861676	keystroke_Key.space	Key.space	n/a
431.3635	0.06	862727	keystroke_f	f	n/a
431.4835	0.075	862967	keystroke_i	i	n/a
432.504	0.0895	865008	keystroke_r	r	n/a
433.058	0.075	866116	keystroke_e	e	n/a
433.313	0.105	866626	keystroke_Key.space	Key.space	n/a
433.658	0.075	867316	keystroke_s	s	n/a
433.808	0.075	867616	keystroke_i	i	n/a
434.033	0.135	868066	keystroke_m	m	n/a
434.348	0.09	868696	keystroke_u	u	n/a
434.6335	0.09	869267	keystroke_l	l	n/a
434.8585	0.105	869717	keystroke_a	a	n/a
435.1885	0.075	870377	keystroke_t	t	n/a
435.3535	0.075	870707	keystroke_i	i	n/a
435.8185	0.1045	871637	keystroke_o	o	n/a
436.238	0.075	872476	keystroke_n	n	n/a
436.658	0.09	873316	keystroke_s	s	n/a
436.898	0.09	873796	keystroke_Key.space	Key.space	n/a
437.318	0.105	874636	keystroke_p	p	n/a
437.813	0.136	875626	keystroke_r	r	n/a
438.068	0.09	876136	keystroke_e	e	n/a
438.473	0.09	876946	keystroke_f	f	n/a
438.7435	0.1195	877487	keystroke_e	e	n/a
439.148	0.075	878296	keystroke_r	r	n/a
439.433	0.12	878866	keystroke_e	e	n/a
440.3335	0.06	880667	keystroke_n	n	n/a
440.798	0.076	881596	keystroke_c	c	n/a
441.189	0.1045	882378	keystroke_e	e	n/a
441.8635	0.045	883727	keystroke_Key.enter	Key.enter	n/a
441.914	24.566	883828	prompt	n/a	administered reveals environment operates\n
442.733	0.09	885466	keystroke_a	a	n/a
442.973	0.105	885946	keystroke_d	d	n/a
443.5735	0.0595	887147	keystroke_m	m	n/a
443.828	0.0605	887656	keystroke_i	i	n/a
444.0685	0.09	888137	keystroke_n	n	n/a
444.8185	0.0445	889637	keystroke_i	i	n/a
445.1935	0.075	890387	keystroke_s	s	n/a
446.333	0.09	892666	keystroke_t	t	n/a
446.933	0.121	893866	keystroke_e	e	n/a
447.3685	0.135	894737	keystroke_r	r	n/a
448.0135	0.1205	896027	keystroke_e	e	n/a
448.7785	0.105	897557	keystroke_d	d	n/a
449.124	0.1195	898248	keystroke_Key.space	Key.space	n/a
449.4235	0.09	898847	keystroke_r	r	n/a
449.6035	0.075	899207	keystroke_e	e	n/a
449.948	0.12	899896	keystroke_v	v	n/a
450.834	0.1045	901668	keystroke_e	e	n/a
451.1335	0.09	902267	keystroke_a	a	n/a
451.299	0.105	902598	keystroke_l	l	n/a
451.539	0.12	903078	keystroke_s	s	n/a
451.839	0.075	903678	keystroke_Key.space	Key.space	n/a
452.124	0.06	904248	keystroke_e	e	n/a
452.304	0.06	904608	keystroke_n	n	n/a
452.724	0.09	905448	keystroke_i	i	n/a
453.8785	0.0905	907757	keystroke_v	v	n/a
457.1055	0.058	914211	keystroke_Key.backspace	Key.backspace	n/a
457.7335	0.105	915467	keystroke_Key.backspace	Key.backspace	n/a
458.738	0.09	917476	keystroke_v	v	n/a
459.294	0.045	918588	keystroke_i	i	n/a
459.533	0.12	919066	keystroke_r	r	n/a
460.778	0.09	921556	keystroke_o	o	n/a
461.1685	0.0905	922337	keystroke_n	n	n/a
461.739	0.075	923478	keystroke_m	m	n/a
461.964	0.075	923928	keystroke_e	e	n/a
462.159	0.06	924318	keystroke_n	n	n/a
462.429	0.045	924858	keystroke_t	t	n/a
463.193	0.075	926386	keystroke_Key.space	Key.space	n/a
463.8085	0.12	927617	keystroke_o	o	n/a
464.1535	0.09	928307	keystroke_p	p	n/a
464.4535	0.1505	928907	keystroke_e	e	n/a
464.724	0.105	929448	keystroke_r	r	n/a
465.039	0.12	930078	keystroke_a	a	n/a
465.384	0.09	930768	keystroke_t	t	n/a
465.624	0.075	931248	keystroke_e	e	n/a
465.894	0.12	931788	keystroke_s	s	n/a
466.4035	0.075	932807	keystroke_Key.enter	Key.enter	n/a
466.4835	22.002	932967	prompt	n/a	estates desired author initially\n
467.3785	0.12	934757	keystroke_e	e	n/a
467.7535	0.09	935507	keystroke_s	s	n/a
468.1285	0.105	936257	keystroke_t	t	n/a
468.4435	0.135	936887	keystroke_s	s	n/a
468.9085	0.075	937817	keystroke_t	t	n/a
470.1685	0.0755	940337	keystroke_Key.backspace	Key.backspace	n/a
470.8435	0.09	941687	keystroke_Key.backspace	Key.backspace	n/a
472.193	0.12	944386	keystroke_a	a	n/a
472.9585	0.12	945917	keystroke_r	r	n/a
473.3785	0.105	946757	keystroke_e	e	n/a
474.504	0.1195	949008	keystroke_Key.backspace	Key.backspace	n/a
475.118	0.105	950236	keystroke_Key.backspace	Key.backspace	n/a
475.509	0.135	951018	keystroke_t	t	n/a
476.499	0.09	952998	keystroke_e	e	n/a
476.7685	0.09	953537	keystroke_s	s	n/a
477.1285	0.09	954257	keystroke_Key.space	Key.space	n/a
477.5035	0.09	955007	keystroke_d	d	n/a
477.6535	0.075	955307	keystroke_i	i	n/a
478.824	0.119	957648	keystroke_Key.backspace	Key.backspace	n/a
479.3335	0.09	958667	keystroke_e	e	n/a
479.6185	0.045	959237	keystroke_s	s	n/a
479.9635	0.06	959927	keystroke_i	i	n/a
480.4435	0.12	960887	keystroke_r	r	n/a
480.7135	0.09	961427	keystroke_e	e	n/a
480.9835	0.105	961967	keystroke_d	d	n/a
481.4635	0.105	962927	keystroke_Key.space	Key.space	n/a
481.8385	0.075	963677	keystroke_a	a	n/a
482.1835	0.075	964367	keystroke_u	u	n/a
482.469	0.075	964938	keystroke_t	t	n/a
482.559	0.09	965118	keystroke_h	h	n/a
482.829	0.09	965658	keystroke_o	o	n/a
483.144	0.105	966288	keystroke_r	r	n/a
483.4885	0.09	966977	keystroke_Key.space	Key.space	n/a
484.1935	0.075	968387	keystroke_i	i	n/a
484.493	0.09	968986	keystroke_n	n	n/a
485.244	0.06	970488	keystroke_i	i	n/a
485.709	0.09	971418	keystroke_t	t	n/a
486.339	0.06	972678	keystroke_i	i	n/a
486.849	0.09	973698	keystroke_a	a	n/a
487.0435	0.09	974087	keystroke_l	l	n/a
487.434	0.105	974868	keystroke_l	l	n/a
487.8235	0.075	975647	keystroke_y	y	n/a
488.3935	0.09	976787	keystroke_Key.enter	Key.enter	n/a
488.4895	11.5905	976979	prompt	n/a	paperback naturally ross leave\n
489.2935	0.12	978587	keystroke_p	p	n/a
489.4285	0.09	978857	keystroke_a	a	n/a
489.5485	0.12	979097	keystroke_p	p	n/a
489.8785	0.09	979757	keystroke_e	e	n/a
490.1785	0.09	980357	keystroke_r	r	n/a
491.1835	0.0895	982367	keystroke_b	b	n/a
491.514	0.09	983028	keystroke_a	a	n/a
491.919	0.09	983838	keystroke_c	c	n/a
492.069	0.075	984138	keystroke_k	k	n/a
492.6235	0.075	985247	keystroke_Key.space	Key.space	n/a
493.0435	0.09	986087	keystroke_n	n	n/a
493.2385	0.135	986477	keystroke_a	a	n/a
494.0185	0.075	988037	keystroke_t	t	n/a
494.4685	0.045	988937	keystroke_u	u	n/a
494.6935	0.105	989387	keystroke_r	r	n/a
495.0985	0.09	990197	keystroke_a	a	n/a
495.3085	0.075	990617	keystroke_l	l	n/a
495.4585	0.106	990917	keystroke_l	l	n/a
495.8035	0.075	991607	keystroke_y	y	n/a
496.1785	0.105	992357	keystroke_Key.space	Key.space	n/a
496.9435	0.09	993887	keystroke_r	r	n/a
497.1085	0.075	994217	keystroke_o	o	n/a
497.4385	0.075	994877	keystroke_s	s	n/a
497.6335	0.075	995267	keystroke_s	s	n/a
497.8585	0.135	995717	keystroke_Key.space	Key.space	n/a
498.2785	0.09	996557	keystroke_l	l	n/a
498.4435	0.09	996887	keystroke_e	e	n/a
498.699	0.09	997398	keystroke_a	a	n/a
499.118	0.0905	998236	keystroke_v	v	n/a
499.4035	0.091	998807	keystroke_e	e	n/a
500.0185	0.06	1000037	keystroke_Key.enter	Key.enter	n/a
500.0835	23.907	1000167	prompt	n/a	utils macromedia sublime lancaster\n
501.669	0.09	1003338	keystroke_u	u	n/a
502.7935	0.075	1005587	keystroke_t	t	n/a
503.8135	0.075	1007627	keystroke_i	i	n/a
504.1135	0.09	1008227	keystroke_l	l	n/a
504.4135	0.105	1008827	keystroke_s	s	n/a
504.744	0.12	1009488	keystroke_Key.space	Key.space	n/a
505.134	0.045	1010268	keystroke_m	m	n/a
505.3435	0.12	1010687	keystroke_a	a	n/a
505.9435	0.045	1011887	keystroke_r	r	n/a
507.068	0.075	1014136	keystroke_Key.backspace	Key.backspace	n/a
507.3685	0.09	1014737	keystroke_c	c	n/a
508.2985	0.105	1016597	keystroke_r	r	n/a
508.5235	0.09	1017047	keystroke_o	o	n/a
509.2585	0.06	1018517	keystroke_m	m	n/a
509.739	0.24	1019478	keystroke_e	e	n/a
510.564	0.0745	1021128	keystroke_d	d	n/a
510.7435	0.075	1021487	keystroke_i	i	n/a
511.134	0.09	1022268	keystroke_a	a	n/a
511.434	0.075	1022868	keystroke_Key.space	Key.space	n/a
511.944	0.075	1023888	keystroke_a	a	n/a
512.3335	0.045	1024667	keystroke_u	u	n/a
513.0685	0.076	1026137	keystroke_Key.backspace	Key.backspace	n/a
513.2635	0.075	1026527	keystroke_Key.backspace	Key.backspace	n/a
513.864	0.09	1027728	keystroke_s	s	n/a
514.074	0.075	1028148	keystroke_u	u	n/a
514.524	0.0895	1029048	keystroke_b	b	n/a
515.1085	0.1355	1030217	keystroke_l	l	n/a
515.349	0.09	1030698	keystroke_i	i	n/a
515.5435	0.09	1031087	keystroke_m	m	n/a
515.7685	0.075	1031537	keystroke_e	e	n/a
515.9035	0.09	1031807	keystroke_Key.space	Key.space	n/a
516.8035	0.075	1033607	keystroke_l	l	n/a
517.0285	0.105	1034057	keystroke_a	a	n/a
518.199	0.165	1036398	keystroke_n	n	n/a
521.0955	0.013	1042191	keystroke_c	c	n/a
521.949	0.0895	1043898	keystroke_a	a	n/a
522.2485	0.1055	1044497	keystroke_s	s	n/a
522.684	0.09	1045368	keystroke_t	t	n/a
523.029	0.12	1046058	keystroke_e	e	n/a
523.3435	0.0605	1046687	keystroke_r	r	n/a
523.914	0.074	1047828	keystroke_Key.enter	Key.enter	n/a
523.9935	20.742	1047987	prompt	n/a	reads regardless cardiac angels\n
524.7385	0.09	1049477	keystroke_r	r	n/a
524.8885	0.105	1049777	keystroke_e	e	n/a
525.1735	0.105	1050347	keystroke_a	a	n/a
525.4285	0.105	1050857	keystroke_d	d	n/a
525.7585	0.105	1051517	keystroke_s	s	n/a
525.9835	0.12	1051967	keystroke_Key.space	Key.space	n/a
526.4485	0.12	1052897	keystroke_r	r	n/a
526.6885	0.09	1053377	keystroke_e	e	n/a
527.4235	0.15	1054847	keystroke_g	g	n/a
528.6235	0.135	1057247	keystroke_a	a	n/a
528.999	0.105	1057998	keystroke_r	r	n/a
529.7785	0.135	1059557	keystroke_d	d	n/a
530.1535	0.09	1060307	keystroke_l	l	n/a
530.3635	0.09	1060727	keystroke_e	e	n/a
530.8435	0.075	1061687	keystroke_s	s	n/a
531.369	0.135	1062738	keystroke_s	s	n/a
531.744	0.09	1063488	keystroke_Key.space	Key.space	n/a
532.389	0.105	1064778	keystroke_c	c	n/a
532.674	0.105	1065348	keystroke_a	a	n/a
533.1085	0.18	1066217	keystroke_r	r	n/a
534.534	0.09	1069068	keystroke_d	d	n/a
535.5095	0.06	1071019	keystroke_i	i	n/a
536.1535	0.105	1072307	keystroke_a	a	n/a
537.0695	0.15	1074139	keystroke_c	c	n/a
537.774	0.12	1075548	keystroke_Key.space	Key.space	n/a
538.209	0.09	1076418	keystroke_a	a	n/a
538.749	0.105	1077498	keystroke_b	b	n/a
539.2135	0.061	1078427	keystroke_g	g	n/a
540.159	0.09	1080318	keystroke_Key.backspace	Key.backspace	n/a
540.489	0.075	1080978	keystroke_Key.backspace	Key.backspace	n/a
541.419	0.06	1082838	keystroke_n	n	n/a
542.289	0.075	1084578	keystroke_g	g	n/a
542.874	0.09	1085748	keystroke_e	e	n/a
543.084	0.09	1086168	keystroke_l	l	n/a
543.8485	0.075	1087697	keystroke_s	s	n/a
544.644	0.09	1089288	keystroke_Key.enter	Key.enter	n/a
544.739	16.872	1089478	prompt	n/a	rapids remembered adopted renewable\n
545.5445	0.105	1091089	keystroke_r	r	n/a
545.9795	0.135	1091959	keystroke_a	a	n/a
546.1895	0.105	1092379	keystroke_p	p	n/a
546.6845	0.075	1093369	keystroke_i	i	n/a
546.9985	0.075	1093997	keystroke_d	d	n/a
547.629	0.09	1095258	keystroke_s	s	n/a
547.854	0.0895	1095708	keystroke_Key.space	Key.space	n/a
548.3185	0.12	1096637	keystroke_r	r	n/a
548.9035	0.076	1097807	keystroke_e	e	n/a
549.0995	0.075	1098199	keystroke_m	m	n/a
549.414	0.06	1098828	keystroke_e	e	n/a
550.194	0.075	1100388	keystroke_m	m	n/a
550.674	0.135	1101348	keystroke_v	v	n/a
551.5585	0.075	1103117	keystroke_Key.backspace	Key.backspace	n/a
551.7685	0.075	1103537	keystroke_b	b	n/a
552.339	0.105	1104678	keystroke_e	e	n/a
552.8945	0.105	1105789	keystroke_r	r	n/a
553.389	0.135	1106778	keystroke_e	e	n/a
553.7785	0.105	1107557	keystroke_d	d	n/a
554.1235	0.105	1108247	keystroke_Key.space	Key.space	n/a
554.3785	0.12	1108757	keystroke_a	a	n/a
554.724	0.105	1109448	keystroke_d	d	n/a
554.9795	0.09	1109959	keystroke_o	o	n/a
555.8795	0.09	1111759	keystroke_p	p	n/a
556.149	0.075	1112298	keystroke_t	t	n/a
556.389	0.1205	1112778	keystroke_e	e	n/a
556.704	0.105	1113408	keystroke_d	d	n/a
557.139	0.075	1114278	keystroke_Key.space	Key.space	n/a
557.454	0.09	1114908	keystroke_r	r	n/a
557.694	0.12	1115388	keystroke_e	e	n/a
557.949	0.06	1115898	keystroke_n	n	n/a
558.249	0.09	1116498	keystroke_e	e	n/a
559.059	0.09	1118118	keystroke_w	w	n/a
559.329	0.135	1118658	keystroke_a	a	n/a
560.229	0.075	1120458	keystroke_b	b	n/a
560.394	0.09	1120788	keystroke_l	l	n/a
560.979	0.06	1121958	keystroke_e	e	n/a
561.534	0.075	1123068	keystroke_Key.enter	Key.enter	n/a
561.614	18.0715	1123228	prompt	n/a	notice disabled baghdad referred\n
562.4495	0.089	1124899	keystroke_n	n	n/a
563.0795	0.105	1126159	keystroke_o	o	n/a
563.8445	0.075	1127689	keystroke_t	t	n/a
564.0395	0.075	1128079	keystroke_i	i	n/a
564.3545	0.105	1128709	keystroke_c	c	n/a
564.729	0.12	1129458	keystroke_e	e	n/a
565.029	0.075	1130058	keystroke_Key.space	Key.space	n/a
565.479	0.06	1130958	keystroke_d	d	n/a
565.599	0.075	1131198	keystroke_i	i	n/a
565.959	0.105	1131918	keystroke_s	s	n/a
566.694	0.09	1133388	keystroke_a	a	n/a
567.3545	0.09	1134709	keystroke_b	b	n/a
567.5495	0.075	1135099	keystroke_l	l	n/a
567.7895	0.09	1135579	keystroke_e	e	n/a
568.2845	0.075	1136569	keystroke_d	d	n/a
568.6445	0.105	1137289	keystroke_Key.space	Key.space	n/a
569.4245	0.0745	1138849	keystroke_b	b	n/a
569.709	0.1045	1139418	keystroke_a	a	n/a
570.5335	0.135	1141067	keystroke_g	g	n/a
571.2845	0.1045	1142569	keystroke_h	h	n/a
572.409	0.1055	1144818	keystroke_d	d	n/a
572.6645	0.105	1145329	keystroke_a	a	n/a
572.9345	0.12	1145869	keystroke_d	d	n/a
573.4895	0.15	1146979	keystroke_Key.space	Key.space	n/a
573.924	0.105	1147848	keystroke_r	r	n/a
574.164	0.12	1148328	keystroke_e	e	n/a
574.614	0.09	1149228	keystroke_f	f	n/a
575.6645	0.12	1151329	keystroke_e	e	n/a
575.9495	0.075	1151899	keystroke_r	r	n/a
576.1145	0.105	1152229	keystroke_r	r	n/a
576.3845	0.075	1152769	keystroke_e	e	n/a
576.6235	0.12	1153247	keystroke_d	d	n/a
579.657	0.027	1159314	keystroke_Key.enter	Key.enter	n/a
579.6905	13.0005	1159381	prompt	n/a	personnel drug happens references\n
580.7045	0.075	1161409	keystroke_p	p	n/a
580.8395	0.12	1161679	keystroke_e	e	n/a
581.0795	0.09	1162159	keystroke_r	r	n/a
581.4545	0.075	1162909	keystroke_s	s	n/a
581.5595	0.105	1163119	keystroke_o	o	n/a
581.7995	0.09	1163599	keystroke_n	n	n/a
582.249	0.09	1164498	keystroke_n	n	n/a
582.5195	0.09	1165039	keystroke_e	e	n/a
582.7145	0.075	1165429	keystroke_l	l	n/a
582.9995	0.12	1165999	keystroke_Key.space	Key.space	n/a
583.479	0.0905	1166958	keystroke_d	d	n/a
583.8695	0.09	1167739	keystroke_r	r	n/a
584.0495	0.09	1168099	keystroke_u	u	n/a
584.4695	0.075	1168939	keystroke_g	g	n/a
584.7535	0.075	1169507	keystroke_Key.space	Key.space	n/a
585.2945	0.044	1170589	keystroke_h	h	n/a
585.4445	0.075	1170889	keystroke_a	a	n/a
585.6235	0.09	1171247	keystroke_p	p	n/a
585.7885	0.106	1171577	keystroke_p	p	n/a
586.0145	0.074	1172029	keystroke_e	e	n/a
586.1645	0.0895	1172329	keystroke_n	n	n/a
586.3745	0.09	1172749	keystroke_s	s	n/a
586.5535	0.1355	1173107	keystroke_Key.space	Key.space	n/a
586.9895	0.075	1173979	keystroke_d	d	n/a
587.619	0.09	1175238	keystroke_Key.backspace	Key.backspace	n/a
588.024	0.105	1176048	keystroke_r	r	n/a
588.219	0.09	1176438	keystroke_e	e	n/a
588.699	0.0905	1177398	keystroke_f	f	n/a
589.7045	0.12	1179409	keystroke_e	e	n/a
590.154	0.09	1180308	keystroke_r	r	n/a
590.484	0.105	1180968	keystroke_e	e	n/a
591.009	0.06	1182018	keystroke_n	n	n/a
591.2495	0.105	1182499	keystroke_c	c	n/a
591.5345	0.09	1183069	keystroke_e	e	n/a
591.8345	0.06	1183669	keystroke_s	s	n/a
592.599	0.09	1185198	keystroke_Key.enter	Key.enter	n/a
592.694	21.657	1185388	prompt	n/a	solomon picture biblical cheaper\n
593.439	0.091	1186878	keystroke_s	s	n/a
593.575	0.119	1187150	keystroke_o	o	n/a
593.904	0.105	1187808	keystroke_l	l	n/a
594.2945	0.12	1188589	keystroke_o	o	n/a
594.849	0.06	1189698	keystroke_m	m	n/a
595.284	0.12	1190568	keystroke_o	o	n/a
595.6895	0.135	1191379	keystroke_n	n	n/a
596.694	0.09	1193388	keystroke_Key.space	Key.space	n/a
597.429	0.1655	1194858	keystroke_p	p	n/a
597.834	0.18	1195668	keystroke_i	i	n/a
598.524	0.12	1197048	keystroke_c	c	n/a
598.809	0.075	1197618	keystroke_u	u	n/a
599.559	0.09	1199118	keystroke_t	t	n/a
599.8595	0.09	1199719	keystroke_e	e	n/a
601.6145	0.15	1203229	keystroke_Key.backspace	Key.backspace	n/a
602.2895	0.105	1204579	keystroke_Key.backspace	Key.backspace	n/a
603.0245	0.075	1206049	keystroke_Key.backspace	Key.backspace	n/a
603.714	0.105	1207428	keystroke_t	t	n/a
604.014	0.105	1208028	keystroke_u	u	n/a
604.299	0.105	1208598	keystroke_r	r	n/a
605.364	0.091	1210728	keystroke_e	e	n/a
606.039	0.09	1212078	keystroke_Key.space	Key.space	n/a
607.449	0.075	1214898	keystroke_b	b	n/a
607.599	0.075	1215198	keystroke_i	i	n/a
607.779	0.09	1215558	keystroke_b	b	n/a
608.829	0.09	1217658	keystroke_l	l	n/a
609.369	0.06	1218738	keystroke_i	i	n/a
609.534	0.09	1219068	keystroke_c	c	n/a
609.864	0.105	1219728	keystroke_a	a	n/a
610.059	0.075	1220118	keystroke_l	l	n/a
610.63	0.0895	1221260	keystroke_Key.space	Key.space	n/a
611.395	0.09	1222790	keystroke_c	c	n/a
611.545	0.06	1223090	keystroke_h	h	n/a
612.4445	0.105	1224889	keystroke_e	e	n/a
612.909	0.106	1225818	keystroke_a	a	n/a
613.1945	0.105	1226389	keystroke_p	p	n/a
613.449	0.135	1226898	keystroke_e	e	n/a
613.779	0.09	1227558	keystroke_r	r	n/a
614.274	0.075	1228548	keystroke_Key.enter	Key.enter	n/a
614.3535	19.1525	1228707	prompt	n/a	everyday holy bizarre expired\n
615.0395	0.09	1230079	keystroke_e	e	n/a
615.8495	0.105	1231699	keystroke_v	v	n/a
616.2395	0.135	1232479	keystroke_e	e	n/a
616.5845	0.135	1233169	keystroke_r	r	n/a
617.0195	0.045	1234039	keystroke_y	y	n/a
617.6645	0.075	1235329	keystroke_d	d	n/a
617.9045	0.09	1235809	keystroke_a	a	n/a
618.0845	0.06	1236169	keystroke_y	y	n/a
618.3395	0.12	1236679	keystroke_Key.space	Key.space	n/a
618.8495	0.12	1237699	keystroke_h	h	n/a
619.1045	0.075	1238209	keystroke_o	o	n/a
619.4945	0.09	1238989	keystroke_l	l	n/a
619.8845	0.105	1239769	keystroke_y	y	n/a
620.2	0.12	1240400	keystroke_Key.space	Key.space	n/a
620.964	0.121	1241928	keystroke_b	b	n/a
621.2345	0.09	1242469	keystroke_o	o	n/a
622.3145	0.075	1244629	keystroke_Key.backspace	Key.backspace	n/a
622.914	0.06	1245828	keystroke_i	i	n/a
623.62	0.12	1247240	keystroke_z	z	n/a
624.025	0.135	1248050	keystroke_a	a	n/a
624.46	0.135	1248920	keystroke_r	r	n/a
624.6845	0.135	1249369	keystroke_r	r	n/a
625.0295	0.075	1250059	keystroke_e	e	n/a
625.3295	0.09	1250659	keystroke_Key.space	Key.space	n/a
625.674	0.09	1251348	keystroke_e	e	n/a
626.034	0.105	1252068	keystroke_x	x	n/a
626.9645	0.09	1253929	keystroke_p	p	n/a
627.61	0.1195	1255220	keystroke_i	i	n/a
628.1495	0.105	1256299	keystroke_e	e	n/a
628.4795	0.105	1256959	keystroke_r	r	n/a
630.3095	0.105	1260619	keystroke_Key.backspace	Key.backspace	n/a
631.1495	0.105	1262299	keystroke_Key.backspace	Key.backspace	n/a
631.5545	0.09	1263109	keystroke_r	r	n/a
632.2895	0.09	1264579	keystroke_e	e	n/a
632.9945	0.0895	1265989	keystroke_d	d	n/a
633.414	0.09	1266828	keystroke_Key.enter	Key.enter	n/a
633.5105	14.1105	1267021	prompt	n/a	classification dirty texture stage\n
634.3145	0.06	1268629	keystroke_c	c	n/a
634.4645	0.09	1268929	keystroke_l	l	n/a
634.779	0.091	1269558	keystroke_a	a	n/a
635.035	0.0895	1270070	keystroke_s	s	n/a
635.2295	0.105	1270459	keystroke_s	s	n/a
635.6945	0.075	1271389	keystroke_i	i	n/a
635.9345	0.09	1271869	keystroke_f	f	n/a
636.1445	0.06	1272289	keystroke_i	i	n/a
636.684	0.12	1273368	keystroke_c	c	n/a
637.014	0.18	1274028	keystroke_a	a	n/a
637.389	0.075	1274778	keystroke_t	t	n/a
637.509	0.09	1275018	keystroke_i	i	n/a
637.659	0.091	1275318	keystroke_o	o	n/a
637.96	0.0895	1275920	keystroke_n	n	n/a
638.3945	0.1055	1276789	keystroke_Key.space	Key.space	n/a
638.8295	0.09	1277659	keystroke_d	d	n/a
638.9795	0.075	1277959	keystroke_i	i	n/a
639.415	0.089	1278830	keystroke_r	r	n/a
640.059	0.076	1280118	keystroke_t	t	n/a
640.299	0.075	1280598	keystroke_y	y	n/a
641.259	0.09	1282518	keystroke_Key.space	Key.space	n/a
641.6195	0.0905	1283239	keystroke_t	t	n/a
641.875	0.105	1283750	keystroke_e	e	n/a
642.55	0.1345	1285100	keystroke_x	x	n/a
642.9695	0.075	1285939	keystroke_t	t	n/a
643.4795	0.09	1286959	keystroke_u	u	n/a
643.6745	0.105	1287349	keystroke_r	r	n/a
643.9445	0.075	1287889	keystroke_e	e	n/a
645.145	0.09	1290290	keystroke_Key.space	Key.space	n/a
645.3995	0.105	1290799	keystroke_s	s	n/a
645.7295	0.1055	1291459	keystroke_t	t	n/a
646.1345	0.09	1292269	keystroke_a	a	n/a
646.4645	0.135	1292929	keystroke_g	g	n/a
646.8245	0.075	1293649	keystroke_e	e	n/a
647.5295	0.09	1295059	keystroke_Key.enter	Key.enter	n/a
647.624	14.322	1295248	prompt	n/a	ring introduced tent royal\n
648.4445	0.075	1296889	keystroke_r	r	n/a
648.5945	0.105	1297189	keystroke_i	i	n/a
648.8495	0.075	1297699	keystroke_n	n	n/a
649.0295	0.075	1298059	keystroke_g	g	n/a
649.3145	0.09	1298629	keystroke_Key.space	Key.space	n/a
649.9445	0.0755	1299889	keystroke_i	i	n/a
650.0795	0.0905	1300159	keystroke_n	n	n/a
651.3095	0.075	1302619	keystroke_t	t	n/a
651.6995	0.075	1303399	keystroke_r	r	n/a
651.9245	0.075	1303849	keystroke_o	o	n/a
652.2245	0.045	1304449	keystroke_d	d	n/a
652.4495	0.06	1304899	keystroke_u	u	n/a
652.8545	0.09	1305709	keystroke_c	c	n/a
653.305	0.075	1306610	keystroke_e	e	n/a
653.665	0.09	1307330	keystroke_d	d	n/a
654.07	0.075	1308140	keystroke_Key.space	Key.space	n/a
654.7295	0.135	1309459	keystroke_t	t	n/a
654.8945	0.09	1309789	keystroke_e	e	n/a
655.0445	0.09	1310089	keystroke_n	n	n/a
655.2845	0.075	1310569	keystroke_t	t	n/a
655.4495	0.09	1310899	keystroke_Key.space	Key.space	n/a
655.8245	0.075	1311649	keystroke_t	t	n/a
656.7995	0.075	1313599	keystroke_Key.backspace	Key.backspace	n/a
657.1445	0.075	1314289	keystroke_r	r	n/a
657.3545	0.09	1314709	keystroke_o	o	n/a
657.8045	0.075	1315609	keystroke_y	y	n/a
658.615	0.075	1317230	keystroke_a	a	n/a
658.765	0.075	1317530	keystroke_k	k	n/a
660.01	0.075	1320020	keystroke_Key.backspace	Key.backspace	n/a
660.505	0.105	1321010	keystroke_l	l	n/a
661.8695	0.075	1323739	keystroke_Key.enter	Key.enter	n/a
661.9515	11.53	1323903	prompt	n/a	egypt thank postcards cluster\n
662.7395	0.075	1325479	keystroke_e	e	n/a
663.0545	0.105	1326109	keystroke_g	g	n/a
664.2845	0.12	1328569	keystroke_y	y	n/a
664.6595	0.075	1329319	keystroke_p	p	n/a
665.0795	0.075	1330159	keystroke_t	t	n/a
665.2745	0.075	1330549	keystroke_Key.space	Key.space	n/a
666.0995	0.075	1332199	keystroke_t	t	n/a
666.2195	0.075	1332439	keystroke_h	h	n/a
666.4295	0.1055	1332859	keystroke_a	a	n/a
666.55	0.0895	1333100	keystroke_n	n	n/a
667.0295	0.075	1334059	keystroke_k	k	n/a
667.3445	0.105	1334689	keystroke_Key.space	Key.space	n/a
667.885	0.09	1335770	keystroke_p	p	n/a
668.155	0.105	1336310	keystroke_o	o	n/a
668.455	0.09	1336910	keystroke_s	s	n/a
668.77	0.075	1337540	keystroke_t	t	n/a
669.1895	0.0905	1338379	keystroke_c	c	n/a
669.445	0.15	1338890	keystroke_a	a	n/a
669.73	0.09	1339460	keystroke_r	r	n/a
670.015	0.105	1340030	keystroke_d	d	n/a
670.195	0.105	1340390	keystroke_Key.space	Key.space	n/a
670.9745	0.105	1341949	keystroke_c	c	n/a
671.1845	0.0905	1342369	keystroke_l	l	n/a
671.575	0.06	1343150	keystroke_u	u	n/a
671.815	0.09	1343630	keystroke_s	s	n/a
672.1595	0.075	1344319	keystroke_t	t	n/a
672.4595	0.105	1344919	keystroke_e	e	n/a
672.7	0.09	1345400	keystroke_r	r	n/a
673.39	0.09	1346780	keystroke_Key.enter	Key.enter	n/a
673.4845	14.097	1346969	prompt	n/a	mariah bathrooms walking swingers\n
674.425	0.015	1348850	keystroke_m	m	n/a
674.455	0.12	1348910	keystroke_a	a	n/a
675.175	0.105	1350350	keystroke_r	r	n/a
675.745	0.06	1351490	keystroke_i	i	n/a
675.94	0.1045	1351880	keystroke_a	a	n/a
676.1345	0.09	1352269	keystroke_h	h	n/a
676.915	0.09	1353830	keystroke_Key.space	Key.space	n/a
677.905	0.075	1355810	keystroke_b	b	n/a
678.175	0.12	1356350	keystroke_a	a	n/a
678.445	0.06	1356890	keystroke_t	t	n/a
678.55	0.0905	1357100	keystroke_h	h	n/a
678.7755	0.075	1357551	keystroke_r	r	n/a
678.9855	0.12	1357971	keystroke_o	o	n/a
679.645	0.1495	1359290	keystroke_o	o	n/a
679.9895	0.09	1359979	keystroke_m	m	n/a
680.2455	0.075	1360491	keystroke_s	s	n/a
680.4405	0.075	1360881	keystroke_Key.space	Key.space	n/a
681.2205	0.09	1362441	keystroke_w	w	n/a
681.535	0.09	1363070	keystroke_a	a	n/a
681.73	0.075	1363460	keystroke_l	l	n/a
681.895	0.105	1363790	keystroke_k	k	n/a
682.135	0.075	1364270	keystroke_i	i	n/a
682.315	0.105	1364630	keystroke_n	n	n/a
682.555	0.0895	1365110	keystroke_g	g	n/a
683.4255	0.09	1366851	keystroke_Key.space	Key.space	n/a
684.565	0.0745	1369130	keystroke_s	s	n/a
685.1795	0.045	1370359	keystroke_w	w	n/a
685.3445	0.075	1370689	keystroke_i	i	n/a
685.555	0.09	1371110	keystroke_n	n	n/a
685.795	0.075	1371590	keystroke_g	g	n/a
686.035	0.105	1372070	keystroke_e	e	n/a
686.29	0.105	1372580	keystroke_r	r	n/a
687.0995	0.075	1374199	keystroke_s	s	n/a
687.5195	0.06	1375039	keystroke_Key.enter	Key.enter	n/a
687.585	16.0315	1375170	prompt	n/a	naughty hardcover wing trans\n
688.375	0.0455	1376750	keystroke_m	m	n/a
689.41	0.075	1378820	keystroke_Key.backspace	Key.backspace	n/a
689.845	0.075	1379690	keystroke_n	n	n/a
690.85	0.075	1381700	keystroke_a	a	n/a
690.97	0.075	1381940	keystroke_u	u	n/a
691.7195	0.06	1383439	keystroke_g	g	n/a
691.84	0.0595	1383680	keystroke_h	h	n/a
692.02	0.075	1384040	keystroke_t	t	n/a
692.4255	0.075	1384851	keystroke_l	l	n/a
692.7255	0.09	1385451	keystroke_y	y	n/a
692.92	0.105	1385840	keystroke_Key.space	Key.space	n/a
693.295	0.075	1386590	keystroke_h	h	n/a
693.49	0.09	1386980	keystroke_a	a	n/a
694.4645	0.06	1388929	keystroke_r	r	n/a
694.75	0.09	1389500	keystroke_d	d	n/a
695.5145	0.075	1391029	keystroke_c	c	n/a
695.6795	0.09	1391359	keystroke_o	o	n/a
696.0845	0.165	1392169	keystroke_v	v	n/a
696.4145	0.106	1392829	keystroke_e	e	n/a
696.6555	0.09	1393311	keystroke_r	r	n/a
697.0445	0.09	1394089	keystroke_Key.space	Key.space	n/a
697.6155	0.12	1395231	keystroke_w	w	n/a
697.9	0.075	1395800	keystroke_i	i	n/a
698.14	0.105	1396280	keystroke_n	n	n/a
698.395	0.075	1396790	keystroke_d	d	n/a
699.46	0.12	1398920	keystroke_Key.backspace	Key.backspace	n/a
699.685	0.075	1399370	keystroke_g	g	n/a
700.24	0.06	1400480	keystroke_Key.space	Key.space	n/a
700.615	0.105	1401230	keystroke_t	t	n/a
700.9	0.12	1401800	keystroke_r	r	n/a
701.14	0.105	1402280	keystroke_e	e	n/a
702.175	0.075	1404350	keystroke_Key.backspace	Key.backspace	n/a
702.535	0.075	1405070	keystroke_a	a	n/a
702.6855	0.09	1405371	keystroke_n	n	n/a
702.9255	0.09	1405851	keystroke_s	s	n/a
703.54	0.075	1407080	keystroke_Key.enter	Key.enter	n/a
703.6195	12.4175	1407239	prompt	n/a	inter obtained considers limitation\n
704.365	0.06	1408730	keystroke_i	i	n/a
704.545	0.09	1409090	keystroke_n	n	n/a
704.83	0.09	1409660	keystroke_t	t	n/a
705.085	0.09	1410170	keystroke_e	e	n/a
705.31	0.09	1410620	keystroke_r	r	n/a
705.655	0.09	1411310	keystroke_Key.space	Key.space	n/a
705.91	0.075	1411820	keystroke_o	o	n/a
706.3	0.12	1412600	keystroke_b	b	n/a
707.185	0.0755	1414370	keystroke_t	t	n/a
707.5005	0.09	1415001	keystroke_a	a	n/a
707.6655	0.06	1415331	keystroke_i	i	n/a
707.92	0.09	1415840	keystroke_n	n	n/a
708.355	0.12	1416710	keystroke_e	e	n/a
708.67	0.075	1417340	keystroke_d	d	n/a
708.85	0.09	1417700	keystroke_Key.space	Key.space	n/a
709.1805	0.075	1418361	keystroke_c	c	n/a
709.2855	0.09	1418571	keystroke_o	o	n/a
709.5105	0.075	1419021	keystroke_n	n	n/a
709.7805	0.075	1419561	keystroke_s	s	n/a
709.9005	0.075	1419801	keystroke_i	i	n/a
710.1255	0.075	1420251	keystroke_d	d	n/a
710.3205	0.105	1420641	keystroke_e	e	n/a
710.5605	0.075	1421121	keystroke_r	r	n/a
711.325	0.105	1422650	keystroke_s	s	n/a
711.6705	0.09	1423341	keystroke_Key.space	Key.space	n/a
712.0605	0.195	1424121	keystroke_l	l	n/a
712.2705	0.09	1424541	keystroke_i	i	n/a
712.5705	0.105	1425141	keystroke_m	m	n/a
713.41	0.045	1426820	keystroke_i	i	n/a
713.785	0.09	1427570	keystroke_t	t	n/a
714.055	0.1355	1428110	keystroke_a	a	n/a
714.4005	0.06	1428801	keystroke_t	t	n/a
714.5655	0.09	1429131	keystroke_i	i	n/a
714.8205	0.12	1429641	keystroke_o	o	n/a
715.0755	0.09	1430151	keystroke_n	n	n/a
715.9605	0.075	1431921	keystroke_Key.enter	Key.enter	n/a
716.04	11.907	1432080	prompt	n/a	password mystery cyber paste\n
716.7705	0.1055	1433541	keystroke_p	p	n/a
716.966	0.104	1433932	keystroke_a	a	n/a
717.19	0.091	1434380	keystroke_s	s	n/a
717.386	0.105	1434772	keystroke_s	s	n/a
718.1955	0.105	1436391	keystroke_w	w	n/a
718.3755	0.09	1436751	keystroke_o	o	n/a
719.0055	0.09	1438011	keystroke_r	r	n/a
719.3205	0.105	1438641	keystroke_d	d	n/a
719.9655	0.105	1439931	keystroke_Key.space	Key.space	n/a
720.55	0.0905	1441100	keystroke_m	m	n/a
720.9105	0.06	1441821	keystroke_y	y	n/a
721.3755	0.105	1442751	keystroke_s	s	n/a
721.7655	0.075	1443531	keystroke_t	t	n/a
722.381	0.105	1444762	keystroke_e	e	n/a
722.651	0.09	1445302	keystroke_r	r	n/a
722.846	0.075	1445692	keystroke_y	y	n/a
723.056	0.105	1446112	keystroke_Key.space	Key.space	n/a
723.356	0.12	1446712	keystroke_c	c	n/a
724.2405	0.075	1448481	keystroke_y	y	n/a
724.691	0.105	1449382	keystroke_b	b	n/a
725.051	0.15	1450102	keystroke_e	e	n/a
725.351	0.09	1450702	keystroke_r	r	n/a
725.846	0.09	1451692	keystroke_Key.space	Key.space	n/a
726.101	0.105	1452202	keystroke_p	p	n/a
726.266	0.105	1452532	keystroke_a	a	n/a
726.506	0.1345	1453012	keystroke_s	s	n/a
726.9405	0.09	1453881	keystroke_t	t	n/a
727.3005	0.105	1454601	keystroke_e	e	n/a
727.8705	0.075	1455741	keystroke_Key.enter	Key.enter	n/a
727.9495	18.463	1455899	prompt	n/a	fiji lodge foreign monroe\n
728.905	0.075	1457810	keystroke_f	f	n/a
729.19	0.06	1458380	keystroke_i	i	n/a
730.12	0.075	1460240	keystroke_j	j	n/a
730.825	0.06	1461650	keystroke_i	i	n/a
731.215	0.0905	1462430	keystroke_Key.space	Key.space	n/a
731.441	0.09	1462882	keystroke_l	l	n/a
731.666	0.075	1463332	keystroke_o	o	n/a
734.023	0.043	1468046	keystroke_b	b	n/a
735.0255	0.075	1470051	keystroke_Key.backspace	Key.backspace	n/a
735.2505	0.09	1470501	keystroke_d	d	n/a
736.271	0.12	1472542	keystroke_f	f	n/a
737.4255	0.075	1474851	keystroke_Key.backspace	Key.backspace	n/a
737.6205	0.075	1475241	keystroke_g	g	n/a
737.9955	0.075	1475991	keystroke_e	e	n/a
738.2955	0.075	1476591	keystroke_Key.space	Key.space	n/a
738.626	0.09	1477252	keystroke_f	f	n/a
738.7305	0.075	1477461	keystroke_o	o	n/a
739.0465	0.089	1478093	keystroke_r	r	n/a
739.901	0.074	1479802	keystroke_e	e	n/a
740.2765	0.044	1480553	keystroke_i	i	n/a
740.5155	0.061	1481031	keystroke_g	g	n/a
741.926	0.06	1483852	keystroke_n	n	n/a
742.4805	0.075	1484961	keystroke_Key.space	Key.space	n/a
742.8715	0.105	1485743	keystroke_m	m	n/a
743.0805	0.075	1486161	keystroke_o	o	n/a
743.8465	0.044	1487693	keystroke_n	n	n/a
744.6555	0.075	1489311	keystroke_r	r	n/a
744.9405	0.075	1489881	keystroke_o	o	n/a
745.3905	0.0605	1490781	keystroke_e	e	n/a
746.3205	0.09	1492641	keystroke_Key.enter	Key.enter	n/a
746.4155	15.747	1492831	prompt	n/a	temple positive gaps fisheries\n
747.386	0.075	1494772	keystroke_t	t	n/a
747.641	0.09	1495282	keystroke_e	e	n/a
747.776	0.075	1495552	keystroke_m	m	n/a
748.196	0.105	1496392	keystroke_p	p	n/a
748.466	0.105	1496932	keystroke_l	l	n/a
748.721	0.075	1497442	keystroke_e	e	n/a
749.036	0.09	1498072	keystroke_Key.space	Key.space	n/a
749.561	0.1495	1499122	keystroke_p	p	n/a
749.921	0.12	1499842	keystroke_o	o	n/a
750.191	0.105	1500382	keystroke_s	s	n/a
751.016	0.09	1502032	keystroke_i	i	n/a
751.271	0.075	1502542	keystroke_t	t	n/a
751.661	0.06	1503322	keystroke_i	i	n/a
752.141	0.12	1504282	keystroke_v	v	n/a
752.546	0.09	1505092	keystroke_e	e	n/a
752.966	0.12	1505932	keystroke_Key.space	Key.space	n/a
753.326	0.09	1506652	keystroke_g	g	n/a
753.626	0.12	1507252	keystroke_a	a	n/a
753.986	0.045	1507972	keystroke_s	s	n/a
754.091	0.09	1508182	keystroke_p	p	n/a
755.3055	0.03	1510611	keystroke_Key.backspace	Key.backspace	n/a
755.7105	0.09	1511421	keystroke_Key.backspace	Key.backspace	n/a
756.3105	0.09	1512621	keystroke_p	p	n/a
756.4755	0.136	1512951	keystroke_s	s	n/a
756.6855	0.105	1513371	keystroke_Key.space	Key.space	n/a
757.391	0.075	1514782	keystroke_f	f	n/a
757.646	0.075	1515292	keystroke_i	i	n/a
757.8705	0.09	1515741	keystroke_s	s	n/a
757.9905	0.075	1515981	keystroke_h	h	n/a
758.5905	0.106	1517181	keystroke_e	e	n/a
758.8915	0.089	1517783	keystroke_r	r	n/a
759.2655	0.0905	1518531	keystroke_e	e	n/a
760.5405	0.075	1521081	keystroke_Key.backspace	Key.backspace	n/a
761.0805	0.075	1522161	keystroke_i	i	n/a
761.2455	0.09	1522491	keystroke_e	e	n/a
761.5155	0.06	1523031	keystroke_s	s	n/a
762.086	0.0755	1524172	keystroke_Key.enter	Key.enter	n/a
762.166	12.597	1524332	prompt	n/a	first soft string combat\n
763.061	0.12	1526122	keystroke_f	f	n/a
763.5565	0.059	1527113	keystroke_i	i	n/a
763.8105	0.106	1527621	keystroke_s	s	n/a
764.1555	0.06	1528311	keystroke_t	t	n/a
765.131	0.105	1530262	keystroke_Key.backspace	Key.backspace	n/a
765.806	0.09	1531612	keystroke_Key.backspace	Key.backspace	n/a
766.256	0.09	1532512	keystroke_r	r	n/a
766.751	0.075	1533502	keystroke_s	s	n/a
767.3655	0.075	1534731	keystroke_t	t	n/a
767.5755	0.09	1535151	keystroke_Key.space	Key.space	n/a
767.9355	0.09	1535871	keystroke_s	s	n/a
768.0405	0.105	1536081	keystroke_o	o	n/a
768.2655	0.105	1536531	keystroke_f	f	n/a
768.5955	0.0755	1537191	keystroke_t	t	n/a
768.716	0.105	1537432	keystroke_Key.space	Key.space	n/a
769.271	0.105	1538542	keystroke_s	s	n/a
769.6305	0.0755	1539261	keystroke_t	t	n/a
770.021	0.06	1540042	keystroke_r	r	n/a
770.141	0.09	1540282	keystroke_i	i	n/a
770.516	0.075	1541032	keystroke_g	g	n/a
771.2805	0.075	1542561	keystroke_Key.backspace	Key.backspace	n/a
771.7455	0.075	1543491	keystroke_n	n	n/a
771.911	0.075	1543822	keystroke_g	g	n/a
772.106	0.1045	1544212	keystroke_Key.space	Key.space	n/a
772.751	0.075	1545502	keystroke_c	c	n/a
772.871	0.105	1545742	keystroke_o	o	n/a
773.156	0.075	1546312	keystroke_m	m	n/a
773.711	0.075	1547422	keystroke_b	b	n/a
773.981	0.105	1547962	keystroke_a	a	n/a
774.281	0.075	1548562	keystroke_t	t	n/a
774.701	0.06	1549402	keystroke_Key.enter	Key.enter	n/a
774.766	23.8315	1549532	prompt	n/a	factor powerseller scenes contribution\n
775.661	0.09	1551322	keystroke_f	f	n/a
775.886	0.09	1551772	keystroke_a	a	n/a
776.276	0.135	1552552	keystroke_c	c	n/a
777.356	0.06	1554712	keystroke_t	t	n/a
777.5055	0.075	1555011	keystroke_o	o	n/a
777.8065	0.075	1555613	keystroke_e	e	n/a
778.9155	0.06	1557831	keystroke_Key.backspace	Key.backspace	n/a
779.126	0.075	1558252	keystroke_r	r	n/a
779.711	0.075	1559422	keystroke_Key.space	Key.space	n/a
779.9965	0.089	1559993	keystroke_p	p	n/a
780.3855	0.09	1560771	keystroke_o	o	n/a
780.821	0.09	1561642	keystroke_w	w	n/a
781.046	0.09	1562092	keystroke_e	e	n/a
781.331	0.0895	1562662	keystroke_r	r	n/a
781.7055	0.09	1563411	keystroke_s	s	n/a
782.0355	0.105	1564071	keystroke_e	e	n/a
782.786	0.06	1565572	keystroke_l	l	n/a
782.936	0.075	1565872	keystroke_l	l	n/a
783.1765	0.074	1566353	keystroke_e	e	n/a
783.4155	0.075	1566831	keystroke_r	r	n/a
783.626	0.0755	1567252	keystroke_Key.space	Key.space	n/a
783.9265	0.105	1567853	keystroke_s	s	n/a
785.126	0.075	1570252	keystroke_c	c	n/a
785.381	0.045	1570762	keystroke_n	n	n/a
785.726	0.105	1571452	keystroke_e	e	n/a
787.301	0.075	1574602	keystroke_Key.backspace	Key.backspace	n/a
787.8555	0.105	1575711	keystroke_Key.backspace	Key.backspace	n/a
788.2755	0.075	1576551	keystroke_e	e	n/a
788.5005	0.075	1577001	keystroke_n	n	n/a
789.461	0.06	1578922	keystroke_e	e	n/a
789.9115	0.12	1579823	keystroke_s	s	n/a
790.2115	0.06	1580423	keystroke_Key.space	Key.space	n/a
790.5415	0.075	1581083	keystroke_c	c	n/a
790.8115	0.0895	1581623	keystroke_o	o	n/a
791.606	0.09	1583212	keystroke_n	n	n/a
792.161	0.09	1584322	keystroke_t	t	n/a
792.416	0.075	1584832	keystroke_r	r	n/a
792.641	0.075	1585282	keystroke_i	i	n/a
793.2855	0.075	1586571	keystroke_b	b	n/a
794.2765	0.075	1588553	keystroke_u	u	n/a
794.816	0.015	1589632	keystroke_t	t	n/a
794.921	0.12	1589842	keystroke_i	i	n/a
795.176	0.09	1590352	keystroke_o	o	n/a
795.926	0.0895	1591852	keystroke_b	b	n/a
797.2905	0.015	1594581	keystroke_Key.backspace	Key.backspace	n/a
797.6955	0.105	1595391	keystroke_n	n	n/a
798.5055	0.09	1597011	keystroke_Key.enter	Key.enter	n/a
798.6005	20.262	1597201	prompt	n/a	legislation bottles location threaded\n
799.4955	0.015	1598991	keystroke_k	k	n/a
799.6155	0.06	1599231	keystroke_e	e	n/a
800.711	0.075	1601422	keystroke_Key.backspace	Key.backspace	n/a
801.176	0.06	1602352	keystroke_Key.backspace	Key.backspace	n/a
801.716	0.09	1603432	keystroke_l	l	n/a
801.911	0.09	1603822	keystroke_e	e	n/a
802.241	0.06	1604482	keystroke_g	g	n/a
803.036	0.075	1606072	keystroke_i	i	n/a
803.186	0.12	1606372	keystroke_s	s	n/a
806.0685	0.001	1612137	keystroke_l	l	n/a
806.5165	0.075	1613033	keystroke_a	a	n/a
806.8765	0.09	1613753	keystroke_t	t	n/a
807.3265	0.09	1614653	keystroke_i	i	n/a
808.0465	0.105	1616093	keystroke_o	o	n/a
808.301	0.075	1616602	keystroke_n	n	n/a
808.721	0.09	1617442	keystroke_Key.space	Key.space	n/a
809.111	0.075	1618222	keystroke_b	b	n/a
809.6515	0.044	1619303	keystroke_o	o	n/a
809.8755	0.105	1619751	keystroke_t	t	n/a
810.0705	0.09	1620141	keystroke_t	t	n/a
810.5205	0.075	1621041	keystroke_l	l	n/a
810.7605	0.075	1621521	keystroke_e	e	n/a
811.0155	0.0755	1622031	keystroke_s	s	n/a
811.181	0.0895	1622362	keystroke_Key.space	Key.space	n/a
811.916	0.09	1623832	keystroke_l	l	n/a
812.216	0.09	1624432	keystroke_i	i	n/a
813.071	0.09	1626142	keystroke_Key.backspace	Key.backspace	n/a
813.656	0.1345	1627312	keystroke_o	o	n/a
814.0605	0.09	1628121	keystroke_c	c	n/a
814.3755	0.15	1628751	keystroke_a	a	n/a
814.7655	0.06	1629531	keystroke_t	t	n/a
814.9155	0.135	1629831	keystroke_i	i	n/a
815.0955	0.09	1630191	keystroke_o	o	n/a
815.351	0.075	1630702	keystroke_n	n	n/a
815.756	0.06	1631512	keystroke_Key.space	Key.space	n/a
816.236	0.0905	1632472	keystroke_t	t	n/a
816.371	0.06	1632742	keystroke_h	h	n/a
816.566	0.12	1633132	keystroke_r	r	n/a
816.821	0.09	1633642	keystroke_e	e	n/a
817.166	0.105	1634332	keystroke_a	a	n/a
817.466	0.105	1634932	keystroke_d	d	n/a
817.7665	0.074	1635533	keystroke_e	e	n/a
818.0505	0.105	1636101	keystroke_d	d	n/a
818.7865	0.075	1637573	keystroke_Key.enter	Key.enter	n/a
818.8725	15.0655	1637745	prompt	n/a	composed promises sparc exploration\n
819.611	0.09	1639222	keystroke_c	c	n/a
819.761	0.105	1639522	keystroke_o	o	n/a
820.0015	0.1045	1640003	keystroke_m	m	n/a
820.331	0.105	1640662	keystroke_p	p	n/a
820.541	0.105	1641082	keystroke_o	o	n/a
820.781	0.075	1641562	keystroke_s	s	n/a
821.351	0.075	1642702	keystroke_e	e	n/a
821.696	0.03	1643392	keystroke_d	d	n/a
821.8465	0.1195	1643693	keystroke_Key.space	Key.space	n/a
822.131	0.105	1644262	keystroke_p	p	n/a
822.746	0.075	1645492	keystroke_r	r	n/a
822.941	0.09	1645882	keystroke_o	o	n/a
823.496	0.075	1646992	keystroke_m	m	n/a
824.2465	0.06	1648493	keystroke_i	i	n/a
824.606	0.06	1649212	keystroke_s	s	n/a
825.611	0.09	1651222	keystroke_e	e	n/a
825.866	0.105	1651732	keystroke_s	s	n/a
826.166	0.09	1652332	keystroke_Key.space	Key.space	n/a
826.8855	0.091	1653771	keystroke_s	s	n/a
827.0815	0.075	1654163	keystroke_p	p	n/a
827.426	0.135	1654852	keystroke_a	a	n/a
827.846	0.09	1655692	keystroke_r	r	n/a
828.221	0.105	1656442	keystroke_c	c	n/a
828.701	0.09	1657402	keystroke_Key.space	Key.space	n/a
829.211	0.105	1658422	keystroke_e	e	n/a
829.646	0.09	1659292	keystroke_x	x	n/a
830.2315	0.105	1660463	keystroke_p	p	n/a
830.8755	0.091	1661751	keystroke_l	l	n/a
831.7755	0.0755	1663551	keystroke_o	o	n/a
832.0305	0.075	1664061	keystroke_r	r	n/a
832.2855	0.106	1664571	keystroke_a	a	n/a
832.616	0.075	1665232	keystroke_t	t	n/a
832.736	0.105	1665472	keystroke_i	i	n/a
832.931	0.135	1665862	keystroke_o	o	n/a
833.306	0.09	1666612	keystroke_n	n	n/a
833.861	0.0745	1667722	keystroke_Key.enter	Key.enter	n/a
833.941	20.337	1667882	prompt	n/a	retrieval rejected prayer gerald\n
834.761	0.0905	1669522	keystroke_r	r	n/a
834.9865	0.105	1669973	keystroke_e	e	n/a
835.3305	0.076	1670661	keystroke_t	t	n/a
835.8115	0.09	1671623	keystroke_r	r	n/a
836.0505	0.076	1672101	keystroke_e	e	n/a
836.8005	0.105	1673601	keystroke_Key.backspace	Key.backspace	n/a
837.5215	0.06	1675043	keystroke_i	i	n/a
837.9865	0.075	1675973	keystroke_e	e	n/a
838.3165	0.105	1676633	keystroke_v	v	n/a
838.886	0.0755	1677772	keystroke_a	a	n/a
839.006	0.09	1678012	keystroke_l	l	n/a
839.2315	0.1045	1678463	keystroke_Key.space	Key.space	n/a
839.5165	0.09	1679033	keystroke_r	r	n/a
840.1915	0.105	1680383	keystroke_e	e	n/a
840.956	0.075	1681912	keystroke_j	j	n/a
841.256	0.06	1682512	keystroke_e	e	n/a
842.1855	0.12	1684371	keystroke_c	c	n/a
842.741	0.045	1685482	keystroke_t	t	n/a
843.191	0.075	1686382	keystroke_e	e	n/a
843.7765	0.09	1687553	keystroke_d	d	n/a
844.1065	0.06	1688213	keystroke_Key.space	Key.space	n/a
844.736	0.12	1689472	keystroke_p	p	n/a
845.171	0.075	1690342	keystroke_r	r	n/a
845.561	0.09	1691122	keystroke_a	a	n/a
845.681	0.09	1691362	keystroke_y	y	n/a
845.921	0.09	1691842	keystroke_e	e	n/a
846.161	0.075	1692322	keystroke_r	r	n/a
847.421	0.105	1694842	keystroke_Key.space	Key.space	n/a
847.961	0.09	1695922	keystroke_g	g	n/a
848.276	0.09	1696552	keystroke_e	e	n/a
849.476	0.075	1698952	keystroke_r	r	n/a
850.1665	0.09	1700333	keystroke_a	a	n/a
850.6465	0.075	1701293	keystroke_k	k	n/a
851.0215	0.075	1702043	keystroke_d	d	n/a
851.9515	0.105	1703903	keystroke_Key.backspace	Key.backspace	n/a
852.4165	0.09	1704833	keystroke_Key.backspace	Key.backspace	n/a
852.956	0.09	1705912	keystroke_l	l	n/a
853.466	0.09	1706932	keystroke_d	d	n/a
854.186	0.09	1708372	keystroke_Key.enter	Key.enter	n/a
854.282	17.1405	1708564	prompt	n/a	casey andreas wallpaper provisions\n
855.1765	0.09	1710353	keystroke_c	c	n/a
855.4155	0.121	1710831	keystroke_a	a	n/a
856.1965	0.1045	1712393	keystroke_s	s	n/a
856.931	0.06	1713862	keystroke_e	e	n/a
857.141	0.03	1714282	keystroke_y	y	n/a
857.3815	0.089	1714763	keystroke_Key.space	Key.space	n/a
857.6815	0.09	1715363	keystroke_a	a	n/a
858.281	0.075	1716562	keystroke_n	n	n/a
858.8805	0.105	1717761	keystroke_d	d	n/a
859.3005	0.0905	1718601	keystroke_r	r	n/a
859.526	0.105	1719052	keystroke_e	e	n/a
859.856	0.12	1719712	keystroke_a	a	n/a
860.156	0.12	1720312	keystroke_s	s	n/a
860.6515	0.104	1721303	keystroke_Key.space	Key.space	n/a
861.086	0.0455	1722172	keystroke_w	w	n/a
861.7155	0.12	1723431	keystroke_a	a	n/a
861.8955	0.105	1723791	keystroke_l	l	n/a
862.0755	0.105	1724151	keystroke_l	l	n/a
862.5415	0.1045	1725083	keystroke_p	p	n/a
862.871	0.105	1725742	keystroke_a	a	n/a
863.006	0.09	1726012	keystroke_p	p	n/a
863.306	0.09	1726612	keystroke_e	e	n/a
863.561	0.09	1727122	keystroke_r	r	n/a
863.726	0.12	1727452	keystroke_Key.space	Key.space	n/a
864.401	0.135	1728802	keystroke_p	p	n/a
864.716	0.075	1729432	keystroke_r	r	n/a
864.911	0.075	1729822	keystroke_o	o	n/a
865.616	0.06	1731232	keystroke_v	v	n/a
866.486	0.06	1732972	keystroke_i	i	n/a
867.926	0.075	1735852	keystroke_s	s	n/a
868.5255	0.0905	1737051	keystroke_i	i	n/a
868.751	0.105	1737502	keystroke_o	o	n/a
869.081	0.09	1738162	keystroke_n	n	n/a
869.3955	0.09	1738791	keystroke_s	s	n/a
871.331	0.09	1742662	keystroke_Key.enter	Key.enter	n/a
871.4255	11.757	1742851	prompt	n/a	line recorded sixth printers\n
872.276	0.105	1744552	keystroke_l	l	n/a
872.501	0.075	1745002	keystroke_i	i	n/a
872.7255	0.09	1745451	keystroke_n	n	n/a
872.9505	0.075	1745901	keystroke_e	e	n/a
873.3555	0.09	1746711	keystroke_Key.space	Key.space	n/a
873.716	0.0895	1747432	keystroke_r	r	n/a
873.926	0.09	1747852	keystroke_e	e	n/a
874.316	0.0895	1748632	keystroke_c	c	n/a
874.511	0.075	1749022	keystroke_o	o	n/a
874.7665	0.105	1749533	keystroke_r	r	n/a
875.0215	0.104	1750043	keystroke_e	e	n/a
876.086	0.09	1752172	keystroke_Key.backspace	Key.backspace	n/a
877.3615	0.089	1754723	keystroke_d	d	n/a
877.6015	0.074	1755203	keystroke_e	e	n/a
877.8555	0.075	1755711	keystroke_d	d	n/a
878.0805	0.091	1756161	keystroke_Key.space	Key.space	n/a
878.4105	0.105	1756821	keystroke_s	s	n/a
878.5455	0.0605	1757091	keystroke_i	i	n/a
879.2665	0.135	1758533	keystroke_x	x	n/a
879.926	0.24	1759852	keystroke_t	t	n/a
880.181	0.015	1760362	keystroke_h	h	n/a
880.331	0.075	1760662	keystroke_Key.space	Key.space	n/a
880.7365	0.135	1761473	keystroke_p	p	n/a
881.0665	0.06	1762133	keystroke_r	r	n/a
881.3215	0.06	1762643	keystroke_i	i	n/a
881.5915	0.089	1763183	keystroke_n	n	n/a
881.8315	0.0745	1763663	keystroke_t	t	n/a
882.071	0.1195	1764142	keystroke_e	e	n/a
882.311	0.0745	1764622	keystroke_r	r	n/a
882.7315	0.09	1765463	keystroke_s	s	n/a
883.0915	0.09	1766183	keystroke_Key.enter	Key.enter	n/a
883.1855	16.1225	1766371	prompt	n/a	trace rachel dollars birthday\n
884.006	0.105	1768012	keystroke_t	t	n/a
884.216	0.12	1768432	keystroke_e	e	n/a
884.6655	0.12	1769331	keystroke_a	a	n/a
885.551	0.105	1771102	keystroke_Key.backspace	Key.backspace	n/a
885.971	0.075	1771942	keystroke_Key.backspace	Key.backspace	n/a
886.301	0.12	1772602	keystroke_r	r	n/a
886.721	0.105	1773442	keystroke_a	a	n/a
887.051	0.09	1774102	keystroke_c	c	n/a
887.3355	0.06	1774671	keystroke_e	e	n/a
887.5005	0.0905	1775001	keystroke_Key.space	Key.space	n/a
888.566	0.0905	1777132	keystroke_r	r	n/a
888.8065	0.075	1777613	keystroke_a	a	n/a
889.0915	0.09	1778183	keystroke_c	c	n/a
889.2415	0.06	1778483	keystroke_h	h	n/a
889.5865	0.0895	1779173	keystroke_e	e	n/a
889.7815	0.1045	1779563	keystroke_l	l	n/a
890.0215	0.12	1780043	keystroke_Key.space	Key.space	n/a
890.501	0.105	1781002	keystroke_d	d	n/a
890.7115	0.075	1781423	keystroke_o	o	n/a
891.296	0.075	1782592	keystroke_l	l	n/a
891.4315	0.105	1782863	keystroke_l	l	n/a
891.6565	0.15	1783313	keystroke_a	a	n/a
891.9715	0.09	1783943	keystroke_r	r	n/a
892.4805	0.151	1784961	keystroke_d	d	n/a
893.291	0.0755	1786582	keystroke_Key.backspace	Key.backspace	n/a
893.5015	0.09	1787003	keystroke_s	s	n/a
893.6815	0.105	1787363	keystroke_Key.space	Key.space	n/a
894.2965	0.09	1788593	keystroke_b	b	n/a
894.8515	0.075	1789703	keystroke_i	i	n/a
895.271	0.105	1790542	keystroke_r	r	n/a
895.856	0.015	1791712	keystroke_r	r	n/a
896.786	0.075	1793572	keystroke_Key.backspace	Key.backspace	n/a
897.626	0.075	1795252	keystroke_t	t	n/a
897.746	0.06	1795492	keystroke_h	h	n/a
897.986	0.105	1795972	keystroke_d	d	n/a
898.2715	0.105	1796543	keystroke_a	a	n/a
898.4365	0.075	1796873	keystroke_y	y	n/a
899.216	0.09	1798432	keystroke_Key.enter	Key.enter	n/a
899.3125	16.4955	1798625	prompt	n/a	compensation spot suggestion represent\n
900.2815	0.1195	1800563	keystroke_c	c	n/a
900.776	0.075	1801552	keystroke_o	o	n/a
901.1515	0.105	1802303	keystroke_m	m	n/a
901.4515	0.09	1802903	keystroke_p	p	n/a
901.8265	0.06	1803653	keystroke_e	e	n/a
902.0965	0.075	1804193	keystroke_n	n	n/a
902.4715	0.105	1804943	keystroke_s	s	n/a
903.0555	0.136	1806111	keystroke_a	a	n/a
903.4465	0.074	1806893	keystroke_t	t	n/a
903.5815	0.1195	1807163	keystroke_i	i	n/a
903.746	0.1045	1807492	keystroke_o	o	n/a
904.0165	0.135	1808033	keystroke_n	n	n/a
904.2555	0.135	1808511	keystroke_Key.space	Key.space	n/a
904.631	0.09	1809262	keystroke_s	s	n/a
904.781	0.12	1809562	keystroke_p	p	n/a
905.006	0.12	1810012	keystroke_o	o	n/a
905.351	0.09	1810702	keystroke_t	t	n/a
905.516	0.1055	1811032	keystroke_Key.space	Key.space	n/a
905.906	0.075	1811812	keystroke_s	s	n/a
906.101	0.075	1812202	keystroke_u	u	n/a
906.4615	0.06	1812923	keystroke_g	g	n/a
906.6415	0.075	1813283	keystroke_g	g	n/a
907.061	0.0905	1814122	keystroke_e	e	n/a
907.3615	0.12	1814723	keystroke_s	s	n/a
907.7205	0.091	1815441	keystroke_t	t	n/a
907.8555	0.091	1815711	keystroke_i	i	n/a
908.0355	0.106	1816071	keystroke_o	o	n/a
909.3405	0.076	1818681	keystroke_n	n	n/a
910.2115	0.089	1820423	keystroke_Key.space	Key.space	n/a
910.856	0.1045	1821712	keystroke_e	e	n/a
911.8005	0.091	1823601	keystroke_Key.backspace	Key.backspace	n/a
912.1015	0.09	1824203	keystroke_r	r	n/a
912.4015	0.09	1824803	keystroke_e	e	n/a
912.9115	0.105	1825823	keystroke_p	p	n/a
913.1515	0.09	1826303	keystroke_r	r	n/a
913.3615	0.09	1826723	keystroke_e	e	n/a
913.8415	0.105	1827683	keystroke_s	s	n/a
914.3515	0.09	1828703	keystroke_e	e	n/a
914.6065	0.075	1829213	keystroke_n	n	n/a
914.9065	0.075	1829813	keystroke_t	t	n/a
915.701	0.105	1831402	keystroke_Key.enter	Key.enter	n/a
915.8115	16.271	1831623	prompt	n/a	chicks quantity automatic maintain\n
916.6765	0.074	1833353	keystroke_s	s	n/a
917.2605	0.045	1834521	keystroke_Key.backspace	Key.backspace	n/a
917.4705	0.09	1834941	keystroke_c	c	n/a
917.6205	0.105	1835241	keystroke_h	h	n/a
918.4305	0.09	1836861	keystroke_i	i	n/a
918.6565	0.06	1837313	keystroke_c	c	n/a
918.7615	0.09	1837523	keystroke_k	k	n/a
919.0765	0.09	1838153	keystroke_s	s	n/a
919.5415	0.105	1839083	keystroke_Key.space	Key.space	n/a
919.9315	0.09	1839863	keystroke_q	q	n/a
920.996	0.06	1841992	keystroke_u	u	n/a
921.926	0.09	1843852	keystroke_a	a	n/a
922.301	0.105	1844602	keystroke_n	n	n/a
923.381	0.105	1846762	keystroke_t	t	n/a
923.546	0.06	1847092	keystroke_i	i	n/a
923.696	0.075	1847392	keystroke_t	t	n/a
924.101	0.1355	1848202	keystroke_y	y	n/a
924.3865	0.105	1848773	keystroke_Key.space	Key.space	n/a
925.1215	0.06	1850243	keystroke_a	a	n/a
925.2865	0.09	1850573	keystroke_u	u	n/a
925.691	0.045	1851382	keystroke_t	t	n/a
925.9165	0.09	1851833	keystroke_o	o	n/a
926.5915	0.0745	1853183	keystroke_m	m	n/a
926.8015	0.135	1853603	keystroke_a	a	n/a
928.0015	0.075	1856003	keystroke_t	t	n/a
928.286	0.075	1856572	keystroke_i	i	n/a
928.571	0.09	1857142	keystroke_c	c	n/a
929.021	0.105	1858042	keystroke_Key.space	Key.space	n/a
929.681	0.12	1859362	keystroke_m	m	n/a
929.816	0.105	1859632	keystroke_a	a	n/a
930.101	0.06	1860202	keystroke_i	i	n/a
930.281	0.105	1860562	keystroke_n	n	n/a
930.7165	0.09	1861433	keystroke_t	t	n/a
930.986	0.105	1861972	keystroke_a	a	n/a
931.136	0.06	1862272	keystroke_i	i	n/a
931.361	0.075	1862722	keystroke_n	n	n/a
932.006	0.075	1864012	keystroke_Key.enter	Key.enter	n/a
932.086	12.627	1864172	prompt	n/a	relief betty forty motorola\n
932.861	0.105	1865722	keystroke_r	r	n/a
933.101	0.09	1866202	keystroke_e	e	n/a
933.431	0.09	1866862	keystroke_l	l	n/a
933.761	0.06	1867522	keystroke_i	i	n/a
934.376	0.105	1868752	keystroke_e	e	n/a
935.081	0.2105	1870162	keystroke_f	f	n/a
935.8465	0.044	1871693	keystroke_Key.space	Key.space	n/a
936.6715	0.09	1873343	keystroke_b	b	n/a
936.9715	0.09	1873943	keystroke_e	e	n/a
937.2415	0.075	1874483	keystroke_t	t	n/a
937.3915	0.075	1874783	keystroke_t	t	n/a
937.5715	0.06	1875143	keystroke_y	y	n/a
937.826	0.09	1875652	keystroke_Key.space	Key.space	n/a
938.471	0.09	1876942	keystroke_f	f	n/a
939.0115	0.075	1878023	keystroke_o	o	n/a
939.266	0.09	1878532	keystroke_r	r	n/a
939.5065	0.06	1879013	keystroke_t	t	n/a
940.0765	0.09	1880153	keystroke_y	y	n/a
940.2565	0.12	1880513	keystroke_Key.space	Key.space	n/a
940.691	0.12	1881382	keystroke_m	m	n/a
940.916	0.09	1881832	keystroke_o	o	n/a
941.3215	0.09	1882643	keystroke_t	t	n/a
941.4865	0.12	1882973	keystroke_o	o	n/a
942.0115	0.045	1884023	keystroke_r	r	n/a
943.181	0.075	1886362	keystroke_o	o	n/a
943.406	0.09	1886812	keystroke_l	l	n/a
944.1265	0.105	1888253	keystroke_a	a	n/a
944.6515	0.06	1889303	keystroke_Key.enter	Key.enter	n/a
944.7165	19.5865	1889433	prompt	n/a	limits madagascar memories approximate\n
945.581	0.105	1891162	keystroke_l	l	n/a
945.791	0.075	1891582	keystroke_i	i	n/a
946.7215	0.09	1893443	keystroke_m	m	n/a
947.4715	0.06	1894943	keystroke_i	i	n/a
948.0115	0.075	1896023	keystroke_t	t	n/a
948.3265	0.09	1896653	keystroke_s	s	n/a
948.5815	0.089	1897163	keystroke_Key.space	Key.space	n/a
948.9715	0.075	1897943	keystroke_m	m	n/a
949.1665	0.09	1898333	keystroke_a	a	n/a
949.5115	0.075	1899023	keystroke_d	d	n/a
949.8565	0.09	1899713	keystroke_a	a	n/a
950.216	0.09	1900432	keystroke_g	g	n/a
950.621	0.09	1901242	keystroke_a	a	n/a
950.921	0.12	1901842	keystroke_s	s	n/a
951.491	0.09	1902982	keystroke_c	c	n/a
951.791	0.12	1903582	keystroke_a	a	n/a
952.151	0.09	1904302	keystroke_r	r	n/a
952.7365	0.09	1905473	keystroke_Key.space	Key.space	n/a
953.0215	0.09	1906043	keystroke_m	m	n/a
953.2765	0.075	1906553	keystroke_e	e	n/a
954.1465	0.0445	1908293	keystroke_m	m	n/a
955.0915	0.09	1910183	keystroke_o	o	n/a
955.3615	0.09	1910723	keystroke_r	r	n/a
956.291	0.03	1912582	keystroke_i	i	n/a
956.546	0.075	1913092	keystroke_e	e	n/a
957.0415	0.09	1914083	keystroke_s	s	n/a
957.491	0.105	1914982	keystroke_Key.space	Key.space	n/a
957.971	0.09	1915942	keystroke_a	a	n/a
958.181	0.12	1916362	keystroke_p	p	n/a
958.406	0.06	1916812	keystroke_p	p	n/a
959.2015	0.09	1918403	keystroke_o	o	n/a
959.846	0.075	1919692	keystroke_Key.backspace	Key.backspace	n/a
960.341	0.09	1920682	keystroke_r	r	n/a
960.476	0.09	1920952	keystroke_o	o	n/a
961.6005	0.136	1923201	keystroke_x	x	n/a
962.6055	0.046	1925211	keystroke_i	i	n/a
962.816	0.0905	1925632	keystroke_m	m	n/a
963.0415	0.09	1926083	keystroke_a	a	n/a
963.3565	0.075	1926713	keystroke_t	t	n/a
963.5815	0.1195	1927163	keystroke_e	e	n/a
964.211	0.09	1928422	keystroke_Key.enter	Key.enter	n/a
964.306	24.7165	1928612	prompt	n/a	orders rubber detected manufacturer\n
965.051	0.09	1930102	keystroke_o	o	n/a
965.396	0.105	1930792	keystroke_r	r	n/a
965.711	0.105	1931422	keystroke_d	d	n/a
965.936	0.105	1931872	keystroke_e	e	n/a
966.146	0.09	1932292	keystroke_r	r	n/a
966.3715	0.09	1932743	keystroke_Key.space	Key.space	n/a
966.851	0.09	1933702	keystroke_r	r	n/a
967.136	0.045	1934272	keystroke_e	e	n/a
967.9165	0.075	1935833	keystroke_Key.backspace	Key.backspace	n/a
968.2765	0.075	1936553	keystroke_u	u	n/a
968.6815	0.075	1937363	keystroke_b	b	n/a
968.8305	0.091	1937661	keystroke_b	b	n/a
969.071	0.12	1938142	keystroke_e	e	n/a
969.266	0.105	1938532	keystroke_r	r	n/a
969.476	0.09	1938952	keystroke_Key.space	Key.space	n/a
970.466	0.09	1940932	keystroke_d	d	n/a
970.751	0.105	1941502	keystroke_e	e	n/a
971.096	0.0755	1942192	keystroke_t	t	n/a
971.5765	0.075	1943153	keystroke_e	e	n/a
972.4165	0.09	1944833	keystroke_d	d	n/a
972.8065	0.089	1945613	keystroke_t	t	n/a
973.1065	0.089	1946213	keystroke_e	e	n/a
973.4215	0.105	1946843	keystroke_d	d	n/a
974.531	0.105	1949062	keystroke_Key.backspace	Key.backspace	n/a
975.056	0.12	1950112	keystroke_Key.backspace	Key.backspace	n/a
975.851	0.0905	1951702	keystroke_Key.backspace	Key.backspace	n/a
977.096	0.09	1954192	keystroke_Key.backspace	Key.backspace	n/a
977.906	0.075	1955812	keystroke_c	c	n/a
978.416	0.075	1956832	keystroke_t	t	n/a
978.656	0.075	1957312	keystroke_e	e	n/a
978.881	0.075	1957762	keystroke_d	d	n/a
979.646	0.09	1959292	keystroke_Key.space	Key.space	n/a
980.021	0.105	1960042	keystroke_m	m	n/a
980.186	0.105	1960372	keystroke_a	a	n/a
980.336	0.12	1960672	keystroke_n	n	n/a
980.8615	0.105	1961723	keystroke_u	u	n/a
981.2055	0.09	1962411	keystroke_f	f	n/a
982.016	0.075	1964032	keystroke_c	c	n/a
982.361	0.105	1964722	keystroke_a	a	n/a
983.2315	0.134	1966463	keystroke_Key.backspace	Key.backspace	n/a
983.8165	0.119	1967633	keystroke_Key.backspace	Key.backspace	n/a
984.296	0.105	1968592	keystroke_a	a	n/a
984.731	0.09	1969462	keystroke_c	c	n/a
985.871	0.075	1971742	keystroke_t	t	n/a
986.231	0.075	1972462	keystroke_u	u	n/a
986.471	0.09	1972942	keystroke_r	r	n/a
987.0865	0.074	1974173	keystroke_e	e	n/a
988.1055	0.075	1976211	keystroke_r	r	n/a
988.9455	0.075	1977891	keystroke_Key.enter	Key.enter	n/a
989.0275	17.245	1978055	prompt	n/a	integrity viewing guinea happens\n
989.8455	0.09	1979691	keystroke_i	i	n/a
990.0405	0.09	1980081	keystroke_n	n	n/a
990.2505	0.075	1980501	keystroke_t	t	n/a
990.5055	0.121	1981011	keystroke_e	e	n/a
990.9565	0.12	1981913	keystroke_g	g	n/a
992.1405	0.075	1984281	keystroke_r	r	n/a
992.381	0.06	1984762	keystroke_i	i	n/a
992.666	0.075	1985332	keystroke_t	t	n/a
992.861	0.075	1985722	keystroke_y	y	n/a
993.266	0.105	1986532	keystroke_Key.space	Key.space	n/a
994.1805	0.12	1988361	keystroke_c	c	n/a
995.1115	0.09	1990223	keystroke_Key.backspace	Key.backspace	n/a
995.6215	0.1345	1991243	keystroke_x	x	n/a
996.731	0.0745	1993462	keystroke_Key.backspace	Key.backspace	n/a
997.5565	0.059	1995113	keystroke_v	v	n/a
997.886	0.075	1995772	keystroke_i	i	n/a
998.7115	0.075	1997423	keystroke_e	e	n/a
999.491	0.075	1998982	keystroke_w	w	n/a
999.671	0.075	1999342	keystroke_i	i	n/a
999.866	0.09	1999732	keystroke_n	n	n/a
1000.046	0.06	2000092	keystroke_g	g	n/a
1000.241	0.0905	2000482	keystroke_Key.space	Key.space	n/a
1001.0365	0.195	2002073	keystroke_g	g	n/a
1002.0415	0.074	2004083	keystroke_u	u	n/a
1002.3265	0.09	2004653	keystroke_i	i	n/a
1002.5965	0.06	2005193	keystroke_n	n	n/a
1003.0015	0.075	2006003	keystroke_e	e	n/a
1003.691	0.12	2007382	keystroke_a	a	n/a
1004.006	0.09	2008012	keystroke_Key.space	Key.space	n/a
1004.246	0.09	2008492	keystroke_h	h	n/a
1004.4265	0.104	2008853	keystroke_a	a	n/a
1004.561	0.0745	2009122	keystroke_p	p	n/a
1004.726	0.0895	2009452	keystroke_p	p	n/a
1005.011	0.075	2010022	keystroke_e	e	n/a
1005.236	0.06	2010472	keystroke_n	n	n/a
1005.4755	0.075	2010951	keystroke_s	s	n/a
1006.181	0.0905	2012362	keystroke_Key.enter	Key.enter	n/a
1006.2755	28.4075	2012551	prompt	n/a	latter volunteer rebate behalf\n
1007.0515	0.105	2014103	keystroke_l	l	n/a
1007.291	0.12	2014582	keystroke_a	a	n/a
1007.651	0.12	2015302	keystroke_t	t	n/a
1007.831	0.06	2015662	keystroke_t	t	n/a
1008.101	0.09	2016202	keystroke_e	e	n/a
1008.401	0.09	2016802	keystroke_r	r	n/a
1008.626	0.12	2017252	keystroke_Key.space	Key.space	n/a
1009.841	0.075	2019682	keystroke_v	v	n/a
1009.991	0.075	2019982	keystroke_o	o	n/a
1010.261	0.075	2020522	keystroke_u	u	n/a
1010.501	0.075	2021002	keystroke_l	l	n/a
1012.723	0.058	2025446	keystroke_Key.backspace	Key.backspace	n/a
1013.336	0.09	2026672	keystroke_Key.backspace	Key.backspace	n/a
1014.4465	0.105	2028893	keystroke_l	l	n/a
1015.0455	0.181	2030091	keystroke_u	u	n/a
1015.931	0.075	2031862	keystroke_n	n	n/a
1016.8315	0.105	2033663	keystroke_r	r	n/a
1017.4315	0.015	2034863	keystroke_e	e	n/a
1018.421	0.12	2036842	keystroke_Key.backspace	Key.backspace	n/a
1018.856	0.09	2037712	keystroke_Key.backspace	Key.backspace	n/a
1019.262	0.119	2038524	keystroke_t	t	n/a
1019.561	0.091	2039122	keystroke_e	e	n/a
1019.831	0.105	2039662	keystroke_e	e	n/a
1020.431	0.075	2040862	keystroke_r	r	n/a
1020.701	0.105	2041402	keystroke_Key.space	Key.space	n/a
1021.0165	0.09	2042033	keystroke_r	r	n/a
1021.2265	0.09	2042453	keystroke_e	e	n/a
1021.6015	0.09	2043203	keystroke_v	v	n/a
1021.8865	0.135	2043773	keystroke_a	a	n/a
1022.2015	0.09	2044403	keystroke_t	t	n/a
1023.1315	0.12	2046263	keystroke_Key.backspace	Key.backspace	n/a
1023.6415	0.135	2047283	keystroke_Key.backspace	Key.backspace	n/a
1026.9585	0.013	2053917	keystroke_Key.backspace	Key.backspace	n/a
1028.2615	0.075	2056523	keystroke_b	b	n/a
1028.5165	0.12	2057033	keystroke_a	a	n/a
1028.7865	0.075	2057573	keystroke_t	t	n/a
1028.9965	0.075	2057993	keystroke_e	e	n/a
1030.1815	0.105	2060363	keystroke_Key.space	Key.space	n/a
1031.096	0.06	2062192	keystroke_b	b	n/a
1031.4115	0.09	2062823	keystroke_e	e	n/a
1032.146	0.075	2064292	keystroke_h	h	n/a
1033.0165	0.075	2066033	keystroke_a	a	n/a
1033.1515	0.0745	2066303	keystroke_l	l	n/a
1033.406	0.09	2066812	keystroke_f	f	n/a
1034.606	0.075	2069212	keystroke_Key.enter	Key.enter	n/a
1034.6855	18.1475	2069371	prompt	n/a	probability singh addiction cached\n
1035.551	0.135	2071102	keystroke_p	p	n/a
1035.8365	0.09	2071673	keystroke_r	r	n/a
1036.0165	0.06	2072033	keystroke_o	o	n/a
1036.5115	0.0745	2073023	keystroke_b	b	n/a
1037.4415	0.0745	2074883	keystroke_a	a	n/a
1037.816	0.105	2075632	keystroke_b	b	n/a
1038.311	0.09	2076622	keystroke_i	i	n/a
1038.881	0.105	2077762	keystroke_l	l	n/a
1039.166	0.075	2078332	keystroke_t	t	n/a
1039.9465	0.09	2079893	keystroke_Key.backspace	Key.backspace	n/a
1040.4565	0.075	2080913	keystroke_i	i	n/a
1040.772	0.045	2081544	keystroke_t	t	n/a
1040.907	0.075	2081814	keystroke_y	y	n/a
1041.4315	0.075	2082863	keystroke_Key.space	Key.space	n/a
1042.0915	0.105	2084183	keystroke_r	r	n/a
1042.7065	0.075	2085413	keystroke_Key.backspace	Key.backspace	n/a
1042.9915	0.06	2085983	keystroke_s	s	n/a
1043.2165	0.075	2086433	keystroke_i	i	n/a
1043.9065	0.075	2087813	keystroke_n	n	n/a
1044.6265	0.075	2089253	keystroke_g	g	n/a
1045.392	0.06	2090784	keystroke_h	h	n/a
1045.782	0.09	2091564	keystroke_Key.space	Key.space	n/a
1046.277	0.1195	2092554	keystroke_a	a	n/a
1047.191	0.0755	2094382	keystroke_d	d	n/a
1047.521	0.105	2095042	keystroke_d	d	n/a
1047.836	0.0455	2095672	keystroke_i	i	n/a
1048.031	0.1205	2096062	keystroke_c	c	n/a
1048.466	0.075	2096932	keystroke_t	t	n/a
1049.0365	0.12	2098073	keystroke_i	i	n/a
1049.2165	0.12	2098433	keystroke_o	o	n/a
1049.4715	0.0895	2098943	keystroke_n	n	n/a
1049.921	0.075	2099842	keystroke_Key.space	Key.space	n/a
1050.551	0.121	2101102	keystroke_c	c	n/a
1050.8815	0.1205	2101763	keystroke_a	a	n/a
1051.692	0.075	2103384	keystroke_c	c	n/a
1051.872	0.045	2103744	keystroke_h	h	n/a
1052.0665	0.09	2104133	keystroke_e	e	n/a
1052.3065	0.09	2104613	keystroke_d	d	n/a
1052.7565	0.075	2105513	keystroke_Key.enter	Key.enter	n/a
1052.836	13.722	2105672	prompt	n/a	'twas fare chamber happiness\n
1054.376	0.075	2108752	keystroke_'	'	n/a
1055.231	0.075	2110462	keystroke_t	t	n/a
1055.576	0.1205	2111152	keystroke_w	w	n/a
1056.0265	0.09	2112053	keystroke_a	a	n/a
1056.6565	0.06	2113313	keystroke_s	s	n/a
1056.8965	0.105	2113793	keystroke_Key.space	Key.space	n/a
1057.4065	0.09	2114813	keystroke_f	f	n/a
1057.7665	0.165	2115533	keystroke_a	a	n/a
1058.1115	0.105	2116223	keystroke_r	r	n/a
1058.3365	0.09	2116673	keystroke_e	e	n/a
1058.8015	0.09	2117603	keystroke_Key.space	Key.space	n/a
1059.1465	0.075	2118293	keystroke_c	c	n/a
1059.2665	0.075	2118533	keystroke_h	h	n/a
1059.4615	0.09	2118923	keystroke_a	a	n/a
1059.7315	0.075	2119463	keystroke_m	m	n/a
1059.9715	0.09	2119943	keystroke_m	m	n/a
1060.6315	0.105	2121263	keystroke_Key.backspace	Key.backspace	n/a
1061.4415	0.075	2122883	keystroke_b	b	n/a
1061.6215	0.09	2123243	keystroke_e	e	n/a
1061.8765	0.075	2123753	keystroke_r	r	n/a
1062.2515	0.075	2124503	keystroke_Key.space	Key.space	n/a
1062.791	0.075	2125582	keystroke_h	h	n/a
1063.017	0.089	2126034	keystroke_a	a	n/a
1063.136	0.09	2126272	keystroke_p	p	n/a
1063.316	0.09	2126632	keystroke_p	p	n/a
1064.277	0.044	2128554	keystroke_i	i	n/a
1064.486	0.075	2128972	keystroke_n	n	n/a
1065.207	0.014	2130414	keystroke_e	e	n/a
1065.522	0.074	2131044	keystroke_s	s	n/a
1065.702	0.105	2131404	keystroke_s	s	n/a
1066.4965	0.06	2132993	keystroke_Key.enter	Key.enter	n/a
1066.561	13.077	2133122	prompt	n/a	earnings colony butler bolt\n
1067.3065	0.075	2134613	keystroke_e	e	n/a
1067.5465	0.12	2135093	keystroke_a	a	n/a
1067.9215	0.105	2135843	keystroke_r	r	n/a
1068.4615	0.075	2136923	keystroke_n	n	n/a
1068.7165	0.075	2137433	keystroke_i	i	n/a
1068.8965	0.09	2137793	keystroke_n	n	n/a
1069.2265	0.06	2138453	keystroke_g	g	n/a
1069.6915	0.09	2139383	keystroke_s	s	n/a
1069.9165	0.09	2139833	keystroke_Key.space	Key.space	n/a
1070.2315	0.075	2140463	keystroke_c	c	n/a
1070.3665	0.075	2140733	keystroke_o	o	n/a
1070.5915	0.06	2141183	keystroke_l	l	n/a
1070.7715	0.0755	2141543	keystroke_o	o	n/a
1071.0265	0.105	2142053	keystroke_n	n	n/a
1071.4015	0.1055	2142803	keystroke_y	y	n/a
1071.627	0.12	2143254	keystroke_Key.space	Key.space	n/a
1072.287	0.09	2144574	keystroke_b	b	n/a
1073.0815	0.06	2146163	keystroke_u	u	n/a
1073.5015	0.075	2147003	keystroke_t	t	n/a
1073.7115	0.09	2147423	keystroke_l	l	n/a
1074.0565	0.105	2148113	keystroke_e	e	n/a
1074.627	0.06	2149254	keystroke_r	r	n/a
1074.912	0.09	2149824	keystroke_Key.space	Key.space	n/a
1075.302	0.09	2150604	keystroke_b	b	n/a
1075.4215	0.105	2150843	keystroke_o	o	n/a
1075.8265	0.09	2151653	keystroke_t	t	n/a
1077.8815	0.03	2155763	keystroke_Key.backspace	Key.backspace	n/a
1078.572	0.0895	2157144	keystroke_l	l	n/a
1078.8865	0.12	2157773	keystroke_t	t	n/a
1079.546	0.09	2159092	keystroke_Key.enter	Key.enter	n/a
1079.641	15.372	2159282	prompt	n/a	benefit accomplish joseph judy\n
1080.6565	0.135	2161313	keystroke_b	b	n/a
1080.8665	0.105	2161733	keystroke_e	e	n/a
1081.0465	0.105	2162093	keystroke_n	n	n/a
1081.3465	0.0745	2162693	keystroke_e	e	n/a
1082.5165	0.06	2165033	keystroke_f	f	n/a
1082.6365	0.075	2165273	keystroke_i	i	n/a
1082.8615	0.075	2165723	keystroke_t	t	n/a
1083.1765	0.0755	2166353	keystroke_Key.space	Key.space	n/a
1083.612	0.105	2167224	keystroke_a	a	n/a
1083.987	0.075	2167974	keystroke_x	x	n/a
1084.167	0.089	2168334	keystroke_x	x	n/a
