onset	duration	sample	value	key	prompt_text
2.731	9.011	5462	prompt	n/a	the quick brown fox jumps over a lazy dog\n
4.0635	0.012	8127	keystroke	t	n/a
4.1205	0.135	8241	keystroke	h	n/a
4.2705	0.075	8541	keystroke	e	n/a
4.4205	0.075	8841	keystroke	Key.space	n/a
4.5555	0.075	9111	keystroke	q	n/a
4.6755	0.105	9351	keystroke	u	n/a
4.8855	0.105	9771	keystroke	i	n/a
5.0805	0.09	10161	keystroke	c	n/a
5.1555	0.09	10311	keystroke	k	n/a
5.3205	0.105	10641	keystroke	Key.space	n/a
5.4405	0.12	10881	keystroke	b	n/a
5.6205	0.116	11241	keystroke	r	n/a
5.7065	0.075	11413	keystroke	o	n/a
5.9165	0.12	11833	keystroke	w	n/a
6.0515	0.0905	12103	keystroke	n	n/a
6.2485	0.09	12497	keystroke	Key.space	n/a
6.3685	0.12	12737	keystroke	f	n/a
6.4735	0.12	12947	keystroke	o	n/a
6.6685	0.12	13337	keystroke	x	n/a
6.8185	0.12	13637	keystroke	Key.space	n/a
7.254	0.09	14508	keystroke	k	n/a
7.494	0.105	14988	keystroke	u	n/a
7.824	0.06	15648	keystroke	Key.backspace	n/a
7.959	0.06	15918	keystroke	Key.backspace	n/a
8.4235	0.12	16847	keystroke	j	n/a
8.6185	0.105	17237	keystroke	u	n/a
8.828	0.0905	17656	keystroke	m	n/a
8.9935	0.09	17987	keystroke	p	n/a
9.1285	0.12	18257	keystroke	s	n/a
9.2635	0.06	18527	keystroke	Key.space	n/a
9.3835	0.105	18767	keystroke	o	n/a
9.4885	0.09	18977	keystroke	v	n/a
9.6685	0.075	19337	keystroke	e	n/a
9.8185	0.09	19637	keystroke	r	n/a
9.9235	0.09	19847	keystroke	Key.space	n/a
10.0735	0.075	20147	keystroke	a	n/a
10.1335	0.09	20267	keystroke	Key.space	n/a
10.2535	0.12	20507	keystroke	l	n/a
10.2835	0.075	20567	keystroke	a	n/a
10.4635	0.105	20927	keystroke	z	n/a
10.5985	0.135	21197	keystroke	y	n/a
10.8535	0.09	21707	keystroke	Key.space	n/a
10.9735	0.09	21947	keystroke	d	n/a
11.3185	0.105	22637	keystroke	o	n/a
11.4985	0.06	22997	keystroke	g	n/a
11.6035	0.135	23207	keystroke	Key.enter	n/a
11.7485	8.5575	23497	prompt	n/a	citizens amendment elections reaches\n
12.3685	0.09	24737	keystroke	c	n/a
12.4885	0.09	24977	keystroke	i	n/a
12.6235	0.075	25247	keystroke	t	n/a
12.7135	0.075	25427	keystroke	i	n/a
12.9685	0.1045	25937	keystroke	z	n/a
13.208	0.105	26416	keystroke	e	n/a
13.328	0.09	26656	keystroke	n	n/a
13.433	0.09	26866	keystroke	s	n/a
13.568	0.105	27136	keystroke	Key.space	n/a
13.688	0.105	27376	keystroke	a	n/a
13.838	0.091	27676	keystroke	m	n/a
13.958	0.091	27916	keystroke	e	n/a
14.063	0.09	28126	keystroke	n	n/a
14.2135	0.12	28427	keystroke	d	n/a
14.4385	0.0745	28877	keystroke	e	n/a
15.2335	0.06	30467	keystroke	Key.backspace	n/a
15.4585	0.135	30917	keystroke	m	n/a
15.5785	0.09	31157	keystroke	e	n/a
15.6835	0.09	31367	keystroke	n	n/a
15.7885	0.105	31577	keystroke	t	n/a
15.9085	0.105	31817	keystroke	Key.space	n/a
16.0285	0.12	32057	keystroke	e	n/a
16.1635	0.075	32327	keystroke	l	n/a
16.2685	0.105	32537	keystroke	c	n/a
16.4635	0.105	32927	keystroke	t	n/a
16.5385	0.09	33077	keystroke	i	n/a
16.7185	0.135	33437	keystroke	o	n/a
16.8235	0.105	33647	keystroke	n	n/a
17.1685	0.06	34337	keystroke	Key.backspace	n/a
17.3335	0.045	34667	keystroke	Key.backspace	n/a
17.4535	0.075	34907	keystroke	Key.backspace	n/a
17.6035	0.075	35207	keystroke	Key.backspace	n/a
17.754	0.075	35508	keystroke	Key.backspace	n/a
17.993	0.106	35986	keystroke	e	n/a
18.264	0.06	36528	keystroke	c	n/a
18.429	0.105	36858	keystroke	t	n/a
18.519	0.075	37038	keystroke	i	n/a
18.683	0.106	37366	keystroke	o	n/a
18.743	0.121	37486	keystroke	n	n/a
18.909	0.075	37818	keystroke	s	n/a
19.028	0.12	38056	keystroke	Key.space	n/a
19.178	0.076	38356	keystroke	r	n/a
19.359	0.059	38718	keystroke	e	n/a
19.524	0.0895	39048	keystroke	a	n/a
19.7185	0.0895	39437	keystroke	c	n/a
19.809	0.104	39618	keystroke	h	n/a
19.898	0.12	39796	keystroke	e	n/a
20.123	0.06	40246	keystroke	s	n/a
20.213	0.09	40426	keystroke	Key.enter	n/a
20.312	6.4435	40624	prompt	n/a	calculator road bikes tagged\n
20.843	0.06	41686	keystroke	c	n/a
21.008	0.075	42016	keystroke	a	n/a
21.113	0.075	42226	keystroke	l	n/a
21.203	0.09	42406	keystroke	c	n/a
21.533	0.105	43066	keystroke	u	n/a
22.268	0.15	44536	keystroke	l	n/a
22.433	0.105	44866	keystroke	a	n/a
22.689	0.074	45378	keystroke	t	n/a
22.748	0.09	45496	keystroke	o	n/a
22.839	0.089	45678	keystroke	r	n/a
22.988	0.075	45976	keystroke	Key.space	n/a
23.093	0.075	46186	keystroke	r	n/a
23.153	0.09	46306	keystroke	o	n/a
23.318	0.09	46636	keystroke	a	n/a
23.498	0.075	46996	keystroke	d	n/a
23.603	0.12	47206	keystroke	h	n/a
23.799	0.059	47598	keystroke	Key.space	n/a
24.263	0.06	48526	keystroke	Key.backspace	n/a
24.398	0.075	48796	keystroke	Key.backspace	n/a
24.728	0.09	49456	keystroke	Key.space	n/a
24.938	0.075	49876	keystroke	b	n/a
25.073	0.105	50146	keystroke	i	n/a
25.253	0.12	50506	keystroke	k	n/a
25.343	0.09	50686	keystroke	e	n/a
25.508	0.12	51016	keystroke	s	n/a
25.613	0.105	51226	keystroke	Key.space	n/a
25.748	0.075	51496	keystroke	t	n/a
25.913	0.105	51826	keystroke	a	n/a
26.153	0.045	52306	keystroke	g	n/a
26.289	0.044	52578	keystroke	g	n/a
26.378	0.075	52756	keystroke	e	n/a
26.528	0.105	53056	keystroke	d	n/a
26.663	0.09	53326	keystroke	Key.enter	n/a
26.762	6.969	53524	prompt	n/a	signatures warrior indicated cabin\n
27.308	0.106	54616	keystroke	s	n/a
27.428	0.105	54856	keystroke	i	n/a
27.563	0.075	55126	keystroke	g	n/a
27.683	0.105	55366	keystroke	n	n/a
27.758	0.06	55516	keystroke	a	n/a
27.908	0.075	55816	keystroke	t	n/a
27.969	0.104	55938	keystroke	u	n/a
28.133	0.15	56266	keystroke	r	n/a
28.268	0.075	56536	keystroke	e	n/a
28.478	0.105	56956	keystroke	s	n/a
28.613	0.12	57226	keystroke	Key.space	n/a
28.763	0.075	57526	keystroke	w	n/a
28.943	0.075	57886	keystroke	a	n/a
29.198	0.075	58396	keystroke	r	n/a
29.363	0.045	58726	keystroke	r	n/a
29.409	0.104	58818	keystroke	i	n/a
29.678	0.075	59356	keystroke	e	n/a
29.858	0.075	59716	keystroke	r	n/a
30.383	0.075	60766	keystroke	Key.backspace	n/a
30.533	0.075	61066	keystroke	Key.backspace	n/a
30.758	0.15	61516	keystroke	o	n/a
30.938	0.09	61876	keystroke	r	n/a
31.118	0.075	62236	keystroke	Key.space	n/a
31.358	0.135	62716	keystroke	i	n/a
31.478	0.12	62956	keystroke	n	n/a
31.688	0.06	63376	keystroke	d	n/a
31.763	0.09	63526	keystroke	i	n/a
31.868	0.045	63736	keystroke	c	n/a
31.973	0.09	63946	keystroke	a	n/a
32.183	0.121	64366	keystroke	t	n/a
32.288	0.075	64576	keystroke	e	n/a
32.498	0.105	64996	keystroke	d	n/a
32.678	0.09	65356	keystroke	Key.space	n/a
32.828	0.075	65656	keystroke	c	n/a
32.963	0.105	65926	keystroke	a	n/a
33.083	0.06	66166	keystroke	b	n/a
33.203	0.195	66406	keystroke	i	n/a
33.383	0.12	66766	keystroke	n	n/a
33.653	0.075	67306	keystroke	Key.enter	n/a
33.736	5.1845	67472	prompt	n/a	lesson logos technologies steal\n
34.298	0.09	68596	keystroke	l	n/a
34.418	0.091	68836	keystroke	e	n/a
34.613	0.045	69226	keystroke	s	n/a
34.718	0.09	69436	keystroke	s	n/a
34.809	0.149	69618	keystroke	o	n/a
34.884	0.134	69768	keystroke	n	n/a
35.108	0.135	70216	keystroke	Key.space	n/a
35.334	0.089	70668	keystroke	l	n/a
35.513	0.09	71026	keystroke	o	n/a
35.618	0.045	71236	keystroke	g	n/a
35.693	0.075	71386	keystroke	o	n/a
35.798	0.09	71596	keystroke	s	n/a
35.918	0.105	71836	keystroke	Key.space	n/a
36.098	0.075	72196	keystroke	t	n/a
36.278	0.09	72556	keystroke	e	n/a
36.443	0.105	72886	keystroke	c	n/a
36.563	0.075	73126	keystroke	h	n/a
36.773	0.075	73546	keystroke	n	n/a
36.938	0.105	73876	keystroke	o	n/a
37.148	0.105	74296	keystroke	l	n/a
37.313	0.12	74626	keystroke	o	n/a
37.418	0.12	74836	keystroke	g	n/a
37.568	0.12	75136	keystroke	i	n/a
37.703	0.045	75406	keystroke	e	n/a
37.853	0.045	75706	keystroke	s	n/a
37.973	0.09	75946	keystroke	Key.space	n/a
38.003	0.09	76006	keystroke	s	n/a
38.213	0.135	76426	keystroke	t	n/a
38.303	0.075	76606	keystroke	e	n/a
38.498	0.105	76996	keystroke	a	n/a
38.618	0.075	77236	keystroke	l	n/a
38.813	0.105	77626	keystroke	Key.enter	n/a
38.928	5.4825	77856	prompt	n/a	this's upgrades jeep takes\n
39.609	0.089	79218	keystroke	t	n/a
39.668	0.09	79336	keystroke	h	n/a
39.863	0.12	79726	keystroke	i	n/a
40.013	0.135	80026	keystroke	s	n/a
40.583	0.075	81166	keystroke	'	n/a
40.673	0.105	81346	keystroke	s	n/a
40.793	0.075	81586	keystroke	Key.space	n/a
41.139	0.074	82278	keystroke	u	n/a
41.378	0.09	82756	keystroke	p	n/a
41.498	0.075	82996	keystroke	g	n/a
41.618	0.09	83236	keystroke	r	n/a
41.843	0.075	83686	keystroke	a	n/a
42.084	0.104	84168	keystroke	d	n/a
42.263	0.075	84526	keystroke	e	n/a
42.458	0.075	84916	keystroke	s	n/a
42.608	0.09	85216	keystroke	Key.space	n/a
42.788	0.091	85576	keystroke	j	n/a
42.954	0.059	85908	keystroke	e	n/a
43.089	0.074	86178	keystroke	e	n/a
43.178	0.09	86356	keystroke	p	n/a
43.448	0.105	86896	keystroke	Key.space	n/a
43.583	0.075	87166	keystroke	t	n/a
43.778	0.12	87556	keystroke	a	n/a
43.899	0.089	87798	keystroke	k	n/a
44.049	0.075	88098	keystroke	e	n/a
44.213	0.075	88426	keystroke	s	n/a
44.333	0.075	88666	keystroke	Key.enter	n/a
44.418	6.367	88836	prompt	n/a	happening rivers reliable graham\n
45.188	0.09	90376	keystroke	h	n/a
45.2925	0.09	90585	keystroke	a	n/a
45.5185	0.044	91037	keystroke	p	n/a
45.6825	0.0305	91365	keystroke	p	n/a
45.8625	0.12	91725	keystroke	e	n/a
46.3125	0.12	92625	keystroke	n	n/a
46.4775	0.18	92955	keystroke	i	n/a
46.5825	0.15	93165	keystroke	n	n/a
46.7335	0.075	93467	keystroke	g	n/a
46.8675	0.105	93735	keystroke	Key.space	n/a
47.0925	0.09	94185	keystroke	r	n/a
47.3925	0.105	94785	keystroke	i	n/a
47.5275	0.105	95055	keystroke	v	n/a
47.6925	0.105	95385	keystroke	e	n/a
47.888	0.06	95776	keystroke	r	n/a
48.068	0.09	96136	keystroke	s	n/a
48.188	0.075	96376	keystroke	Key.space	n/a
48.308	0.12	96616	keystroke	r	n/a
48.383	0.09	96766	keystroke	e	n/a
48.504	0.104	97008	keystroke	l	n/a
48.713	0.09	97426	keystroke	i	n/a
48.804	0.074	97608	keystroke	a	n/a
48.998	0.106	97996	keystroke	b	n/a
49.133	0.091	98266	keystroke	l	n/a
49.253	0.105	98506	keystroke	e	n/a
49.403	0.12	98806	keystroke	Key.space	n/a
49.613	0.12	99226	keystroke	g	n/a
49.748	0.075	99496	keystroke	r	n/a
49.958	0.075	99916	keystroke	a	n/a
50.034	0.089	100068	keystroke	h	n/a
50.124	0.059	100248	keystroke	a	n/a
50.318	0.09	100636	keystroke	m	n/a
50.693	0.09	101386	keystroke	Key.enter	n/a
50.793	6.307	101586	prompt	n/a	destruction release counts camcorder\n
51.429	0.074	102858	keystroke	d	n/a
51.608	0.061	103216	keystroke	e	n/a
51.743	0.105	103486	keystroke	s	n/a
51.983	0.105	103966	keystroke	t	n/a
52.029	0.119	104058	keystroke	r	n/a
52.178	0.105	104356	keystroke	u	n/a
52.328	0.12	104656	keystroke	c	n/a
52.553	0.09	105106	keystroke	t	n/a
52.658	0.075	105316	keystroke	i	n/a
52.838	0.15	105676	keystroke	o	n/a
52.943	0.105	105886	keystroke	n	n/a
53.123	0.135	106246	keystroke	Key.space	n/a
53.243	0.09	106486	keystroke	r	n/a
53.303	0.09	106606	keystroke	e	n/a
53.468	0.105	106936	keystroke	l	n/a
53.618	0.075	107236	keystroke	e	n/a
53.843	0.045	107686	keystroke	a	n/a
53.993	0.076	107986	keystroke	s	n/a
54.174	0.089	108348	keystroke	e	n/a
54.338	0.09	108676	keystroke	Key.space	n/a
54.549	0.074	109098	keystroke	c	n/a
54.683	0.09	109366	keystroke	o	n/a
54.923	0.09	109846	keystroke	u	n/a
55.088	0.12	110176	keystroke	n	n/a
55.223	0.09	110446	keystroke	t	n/a
55.433	0.105	110866	keystroke	s	n/a
55.583	0.105	111166	keystroke	Key.space	n/a
55.7325	0.06	111465	keystroke	c	n/a
55.8675	0.075	111735	keystroke	a	n/a
55.9725	0.105	111945	keystroke	m	n/a
56.1085	0.089	112217	keystroke	c	n/a
56.2425	0.105	112485	keystroke	o	n/a
56.3625	0.06	112725	keystroke	r	n/a
56.5275	0.045	113055	keystroke	d	n/a
56.6925	0.106	113385	keystroke	e	n/a
56.8575	0.075	113715	keystroke	r	n/a
57.0085	0.0895	114017	keystroke	Key.enter	n/a
57.1055	7.015	114211	prompt	n/a	corporations eagle fraud construct\n
57.7125	0.03	115425	keystroke	d	n/a
58.0725	0.075	116145	keystroke	Key.backspace	n/a
58.2825	0.09	116565	keystroke	c	n/a
58.5675	0.105	117135	keystroke	o	n/a
58.7625	0.075	117525	keystroke	r	n/a
58.8675	0.06	117735	keystroke	p	n/a
59.0025	0.12	118005	keystroke	o	n/a
59.1075	0.06	118215	keystroke	r	n/a
59.2725	0.09	118545	keystroke	a	n/a
59.5425	0.075	119085	keystroke	t	n/a
59.6335	0.075	119267	keystroke	i	n/a
59.7825	0.18	119565	keystroke	o	n/a
59.9025	0.12	119805	keystroke	n	n/a
60.0075	0.06	120015	keystroke	s	n/a
60.1125	0.135	120225	keystroke	Key.space	n/a
60.2785	0.089	120557	keystroke	e	n/a
60.4725	0.091	120945	keystroke	a	n/a
60.6675	0.075	121335	keystroke	g	n/a
60.7735	0.044	121547	keystroke	l	n/a
60.8325	0.075	121665	keystroke	e	n/a
60.9825	0.121	121965	keystroke	Key.space	n/a
61.1475	0.075	122295	keystroke	f	n/a
61.3425	0.075	122685	keystroke	r	n/a
61.5675	0.09	123135	keystroke	a	n/a
61.6725	0.12	123345	keystroke	u	n/a
62.0785	0.059	124157	keystroke	d	n/a
62.2125	0.105	124425	keystroke	Key.space	n/a
62.8275	0.106	125655	keystroke	c	n/a
62.9175	0.12	125835	keystroke	o	n/a
62.9625	0.165	125925	keystroke	n	n/a
63.0675	0.09	126135	keystroke	s	n/a
63.2925	0.105	126585	keystroke	t	n/a
63.3525	0.135	126705	keystroke	r	n/a
63.4725	0.136	126945	keystroke	u	n/a
63.5925	0.136	127185	keystroke	c	n/a
63.8785	0.075	127757	keystroke	t	n/a
64.0275	0.09	128055	keystroke	Key.enter	n/a
64.126	5.814	128252	prompt	n/a	cleaner packs additional investors\n
64.6575	0.105	129315	keystroke	c	n/a
64.7785	0.134	129557	keystroke	l	n/a
64.8985	0.074	129797	keystroke	e	n/a
65.0785	0.074	130157	keystroke	a	n/a
65.1975	0.105	130395	keystroke	n	n/a
65.2575	0.105	130515	keystroke	e	n/a
65.4535	0.074	130907	keystroke	r	n/a
65.5425	0.105	131085	keystroke	Key.space	n/a
65.7835	0.12	131567	keystroke	p	n/a
65.8875	0.06	131775	keystroke	a	n/a
66.0675	0.09	132135	keystroke	c	n/a
66.1725	0.076	132345	keystroke	k	n/a
66.3235	0.074	132647	keystroke	s	n/a
66.4875	0.09	132975	keystroke	Key.space	n/a
66.6825	0.106	133365	keystroke	a	n/a
66.9075	0.045	133815	keystroke	d	n/a
67.0435	0.044	134087	keystroke	d	n/a
67.1785	0.089	134357	keystroke	i	n/a
67.4785	0.089	134957	keystroke	t	n/a
67.5835	0.059	135167	keystroke	i	n/a
67.7325	0.165	135465	keystroke	o	n/a
67.8675	0.105	135735	keystroke	n	n/a
67.9875	0.045	135975	keystroke	a	n/a
68.0775	0.105	136155	keystroke	l	n/a
68.3025	0.09	136605	keystroke	Key.space	n/a
68.5575	0.135	137115	keystroke	i	n/a
68.6775	0.12	137355	keystroke	n	n/a
68.7825	0.075	137565	keystroke	v	n/a
68.9325	0.09	137865	keystroke	e	n/a
69.1125	0.091	138225	keystroke	s	n/a
69.3675	0.061	138735	keystroke	t	n/a
69.4425	0.135	138885	keystroke	o	n/a
69.5625	0.06	139125	keystroke	r	n/a
69.7425	0.075	139485	keystroke	s	n/a
69.8625	0.075	139725	keystroke	Key.enter	n/a
69.9455	6.3995	139891	prompt	n/a	substitute relations surgeon pipeline\n
70.5985	0.09	141197	keystroke	s	n/a
70.7025	0.151	141405	keystroke	u	n/a
70.8685	0.119	141737	keystroke	b	n/a
70.9735	0.119	141947	keystroke	s	n/a
71.2725	0.061	142545	keystroke	t	n/a
71.3625	0.105	142725	keystroke	i	n/a
71.4535	0.09	142907	keystroke	t	n/a
71.5735	0.105	143147	keystroke	u	n/a
72.2785	0.089	144557	keystroke	t	n/a
72.3825	0.12	144765	keystroke	e	n/a
72.5925	0.09	145185	keystroke	Key.space	n/a
72.6675	0.12	145335	keystroke	r	n/a
72.7435	0.074	145487	keystroke	e	n/a
72.8325	0.135	145665	keystroke	l	n/a
72.9525	0.076	145905	keystroke	a	n/a
73.1475	0.09	146295	keystroke	t	n/a
73.2085	0.089	146417	keystroke	i	n/a
73.3885	0.135	146777	keystroke	o	n/a
73.4775	0.136	146955	keystroke	n	n/a
73.5825	0.09	147165	keystroke	s	n/a
73.7025	0.09	147405	keystroke	Key.space	n/a
73.7625	0.075	147525	keystroke	s	n/a
73.8835	0.12	147767	keystroke	u	n/a
73.9875	0.09	147975	keystroke	r	n/a
74.1535	0.104	148307	keystroke	g	n/a
74.2285	0.104	148457	keystroke	e	n/a
74.3175	0.165	148635	keystroke	o	n/a
74.3935	0.135	148787	keystroke	n	n/a
74.6175	0.09	149235	keystroke	Key.space	n/a
74.8275	0.09	149655	keystroke	p	n/a
75.0375	0.091	150075	keystroke	i	n/a
75.2635	0.074	150527	keystroke	p	n/a
75.4875	0.09	150975	keystroke	e	n/a
75.6525	0.075	151305	keystroke	l	n/a
75.8635	0.15	151727	keystroke	i	n/a
76.0285	0.09	152057	keystroke	n	n/a
76.1335	0.074	152267	keystroke	e	n/a
76.2525	0.09	152505	keystroke	Key.enter	n/a
76.3485	6.4615	152697	prompt	n/a	respected bedroom guru japanese\n
76.9575	0.091	153915	keystroke	r	n/a
77.1825	0.061	154365	keystroke	e	n/a
77.3475	0.076	154695	keystroke	s	n/a
77.4375	0.105	154875	keystroke	p	n/a
77.5285	0.059	155057	keystroke	e	n/a
77.7085	0.09	155417	keystroke	c	n/a
77.9485	0.075	155897	keystroke	t	n/a
78.1435	0.044	156287	keystroke	e	n/a
78.3085	0.059	156617	keystroke	d	n/a
78.4135	0.089	156827	keystroke	Key.space	n/a
78.6235	0.09	157247	keystroke	b	n/a
78.7425	0.076	157485	keystroke	e	n/a
78.9225	0.076	157845	keystroke	d	n/a
79.1335	0.074	158267	keystroke	r	n/a
79.2375	0.061	158475	keystroke	o	n/a
79.3725	0.121	158745	keystroke	o	n/a
79.5235	0.104	159047	keystroke	m	n/a
79.7625	0.075	159525	keystroke	Key.space	n/a
79.8975	0.076	159795	keystroke	g	n/a
80.0025	0.076	160005	keystroke	u	n/a
80.0925	0.06	160185	keystroke	r	n/a
80.1675	0.091	160335	keystroke	u	n/a
80.4075	0.076	160815	keystroke	Key.space	n/a
80.5275	0.121	161055	keystroke	j	n/a
80.7085	0.104	161417	keystroke	a	n/a
81.6235	0.059	163247	keystroke	p	n/a
81.9975	0.075	163995	keystroke	a	n/a
82.1325	0.105	164265	keystroke	n	n/a
82.2825	0.06	164565	keystroke	e	n/a
82.4175	0.091	164835	keystroke	s	n/a
82.5985	0.089	165197	keystroke	e	n/a
82.7175	0.09	165435	keystroke	Key.enter	n/a
82.814	5.621	165628	prompt	n/a	wire acrylic predicted bristol\n
83.3635	0.089	166727	keystroke	w	n/a
83.4985	0.105	166997	keystroke	i	n/a
83.6625	0.15	167325	keystroke	r	n/a
83.7675	0.135	167535	keystroke	e	n/a
83.9775	0.09	167955	keystroke	Key.space	n/a
84.2175	0.091	168435	keystroke	a	n/a
84.4725	0.061	168945	keystroke	c	n/a
84.6385	0.059	169277	keystroke	r	n/a
84.8185	0.09	169637	keystroke	y	n/a
84.9535	0.09	169907	keystroke	l	n/a
85.1775	0.091	170355	keystroke	i	n/a
85.3135	0.06	170627	keystroke	c	n/a
85.4475	0.105	170895	keystroke	Key.space	n/a
85.6735	0.089	171347	keystroke	p	n/a
85.7785	0.135	171557	keystroke	r	n/a
85.8835	0.075	171767	keystroke	e	n/a
86.1075	0.061	172215	keystroke	d	n/a
86.2135	0.074	172427	keystroke	i	n/a
86.3175	0.106	172635	keystroke	c	n/a
86.5435	0.074	173087	keystroke	t	n/a
86.7525	0.061	173505	keystroke	e	n/a
86.9335	0.09	173867	keystroke	d	n/a
87.0825	0.121	174165	keystroke	Key.space	n/a
87.2485	0.104	174497	keystroke	b	n/a
87.3975	0.106	174795	keystroke	r	n/a
87.5175	0.0905	175035	keystroke	i	n/a
87.6225	0.09	175245	keystroke	s	n/a
87.8635	0.134	175727	keystroke	t	n/a
87.9985	0.089	175997	keystroke	o	n/a
88.1635	0.09	176327	keystroke	l	n/a
88.3725	0.061	176745	keystroke	Key.enter	n/a
88.44	6.0245	176880	prompt	n/a	sunrise reasons certificates jane\n
89.0325	0.09	178065	keystroke	s	n/a
89.1685	0.105	178337	keystroke	u	n/a
89.3925	0.091	178785	keystroke	n	n/a
89.5135	0.09	179027	keystroke	r	n/a
89.6335	0.105	179267	keystroke	i	n/a
89.7525	0.061	179505	keystroke	s	n/a
89.9475	0.076	179895	keystroke	e	n/a
90.1125	0.075	180225	keystroke	Key.space	n/a
90.2025	0.075	180405	keystroke	r	n/a
90.3835	0.06	180767	keystroke	e	n/a
90.5785	0.06	181157	keystroke	a	n/a
90.7585	0.059	181517	keystroke	s	n/a
90.8185	0.15	181637	keystroke	o	n/a
90.9085	0.105	181817	keystroke	n	n/a
90.9835	0.104	181967	keystroke	s	n/a
91.1325	0.105	182265	keystroke	Key.space	n/a
91.2085	0.09	182417	keystroke	c	n/a
91.4035	0.075	182807	keystroke	e	n/a
91.6275	0.031	183255	keystroke	r	n/a
92.1085	0.075	184217	keystroke	t	n/a
92.3175	0.09	184635	keystroke	i	n/a
92.5275	0.091	185055	keystroke	f	n/a
92.6325	0.105	185265	keystroke	i	n/a
92.8135	0.075	185627	keystroke	c	n/a
92.9485	0.105	185897	keystroke	a	n/a
93.1735	0.12	186347	keystroke	t	n/a
93.2485	0.104	186497	keystroke	e	n/a
93.4585	0.06	186917	keystroke	s	n/a
93.6525	0.075	187305	keystroke	Key.space	n/a
93.8625	0.105	187725	keystroke	j	n/a
94.0125	0.091	188025	keystroke	a	n/a
94.0875	0.105	188175	keystroke	n	n/a
94.2535	0.105	188507	keystroke	e	n/a
94.3725	0.09	188745	keystroke	Key.enter	n/a
94.47	6.9555	188940	prompt	n/a	expiration relying cuts expert\n
95.0035	0.045	190007	keystroke	e	n/a
95.1985	0.134	190397	keystroke	x	n/a
95.3335	0.09	190667	keystroke	p	n/a
95.5285	0.105	191057	keystroke	i	n/a
95.6175	0.061	191235	keystroke	r	n/a
95.8125	0.061	191625	keystroke	a	n/a
96.0985	0.105	192197	keystroke	t	n/a
96.2175	0.091	192435	keystroke	i	n/a
96.3835	0.165	192767	keystroke	o	n/a
96.5035	0.135	193007	keystroke	n	n/a
96.7885	0.104	193577	keystroke	Key.space	n/a
97.2835	0.135	194567	keystroke	r	n/a
97.4025	0.091	194805	keystroke	e	n/a
97.4485	0.074	194897	keystroke	p	n/a
98.2125	0.061	196425	keystroke	Key.backspace	n/a
98.3635	0.104	196727	keystroke	l	n/a
98.5435	0.09	197087	keystroke	y	n/a
98.6635	0.135	197327	keystroke	i	n/a
98.7835	0.12	197567	keystroke	n	n/a
98.9175	0.076	197835	keystroke	g	n/a
99.0685	0.119	198137	keystroke	Key.space	n/a
99.4125	0.136	198825	keystroke	c	n/a
99.5635	0.09	199127	keystroke	u	n/a
99.6985	0.074	199397	keystroke	t	n/a
99.9085	0.075	199817	keystroke	s	n/a
100.0425	0.09	200085	keystroke	Key.space	n/a
100.1785	0.059	200357	keystroke	e	n/a
100.3875	0.151	200775	keystroke	x	n/a
100.5985	0.09	201197	keystroke	p	n/a
100.7325	0.091	201465	keystroke	e	n/a
100.9285	0.09	201857	keystroke	r	n/a
101.1085	0.105	202217	keystroke	t	n/a
101.3325	0.09	202665	keystroke	Key.enter	n/a
101.4315	6.278	202863	prompt	n/a	julie ranks organic advertisement\n
102.2485	0.105	204497	keystroke	j	n/a
102.4885	0.06	204977	keystroke	u	n/a
102.7285	0.105	205457	keystroke	l	n/a
102.9375	0.106	205875	keystroke	i	n/a
103.0435	0.09	206087	keystroke	e	n/a
103.2075	0.106	206415	keystroke	Key.space	n/a
103.2985	0.075	206597	keystroke	r	n/a
103.5085	0.09	207017	keystroke	a	n/a
103.6135	0.074	207227	keystroke	n	n/a
103.7785	0.105	207557	keystroke	k	n/a
103.9575	0.091	207915	keystroke	s	n/a
104.0775	0.105	208155	keystroke	Key.space	n/a
104.2735	0.105	208547	keystroke	o	n/a
104.3935	0.075	208787	keystroke	r	n/a
104.5135	0.075	209027	keystroke	g	n/a
104.6935	0.09	209387	keystroke	a	n/a
104.8125	0.061	209625	keystroke	n	n/a
105.0835	0.104	210167	keystroke	i	n/a
105.2775	0.091	210555	keystroke	c	n/a
105.4425	0.12	210885	keystroke	Key.space	n/a
105.5935	0.074	211187	keystroke	a	n/a
105.7425	0.061	211485	keystroke	d	n/a
105.9235	0.059	211847	keystroke	v	n/a
106.0885	0.074	212177	keystroke	e	n/a
106.2685	0.089	212537	keystroke	r	n/a
106.4635	0.09	212927	keystroke	t	n/a
106.6125	0.121	213225	keystroke	i	n/a
106.7185	0.075	213437	keystroke	s	n/a
106.9135	0.104	213827	keystroke	e	n/a
107.0625	0.091	214125	keystroke	m	n/a
107.1685	0.105	214337	keystroke	e	n/a
107.2585	0.135	214517	keystroke	n	n/a
107.4085	0.105	214817	keystroke	t	n/a
107.5575	0.15	215115	keystroke	Key.enter	n/a
107.714	6.221	215428	prompt	n/a	ruled hide singapore machinery\n
108.3835	0.074	216767	keystroke	r	n/a
108.5335	0.105	217067	keystroke	u	n/a
108.7885	0.105	217577	keystroke	l	n/a
108.8485	0.09	217697	keystroke	e	n/a
109.0585	0.075	218117	keystroke	d	n/a
109.1785	0.12	218357	keystroke	Key.space	n/a
109.4335	0.12	218867	keystroke	h	n/a
109.6585	0.15	219317	keystroke	i	n/a
109.7925	0.06	219585	keystroke	d	n/a
109.9135	0.09	219827	keystroke	e	n/a
110.0625	0.105	220125	keystroke	Key.space	n/a
110.2135	0.12	220427	keystroke	s	n/a
110.3175	0.106	220635	keystroke	i	n/a
110.6485	0.135	221297	keystroke	g	n/a
111.0535	0.12	222107	keystroke	n	n/a
111.2335	0.09	222467	keystroke	a	n/a
111.7135	0.075	223427	keystroke	p	n/a
111.8935	0.09	223787	keystroke	o	n/a
111.9985	0.15	223997	keystroke	r	n/a
112.1035	0.09	224207	keystroke	e	n/a
112.2675	0.076	224535	keystroke	Key.space	n/a
112.4335	0.105	224867	keystroke	m	n/a
112.5835	0.09	225167	keystroke	a	n/a
112.8085	0.06	225617	keystroke	c	n/a
112.8685	0.09	225737	keystroke	h	n/a
113.0785	0.12	226157	keystroke	i	n/a
113.2135	0.119	226427	keystroke	n	n/a
113.2735	0.075	226547	keystroke	e	n/a
113.4535	0.075	226907	keystroke	r	n/a
113.6625	0.106	227325	keystroke	y	n/a
113.8275	0.106	227655	keystroke	Key.enter	n/a
113.939	7.376	227878	prompt	n/a	registration requirements calibration plate\n
114.5635	0.075	229127	keystroke	r	n/a
114.7285	0.06	229457	keystroke	e	n/a
114.8625	0.076	229725	keystroke	g	n/a
115.0135	0.09	230027	keystroke	i	n/a
115.0585	0.09	230117	keystroke	s	n/a
115.2825	0.106	230565	keystroke	t	n/a
115.3735	0.09	230747	keystroke	r	n/a
115.5985	0.089	231197	keystroke	a	n/a
115.7785	0.12	231557	keystroke	t	n/a
115.8835	0.09	231767	keystroke	i	n/a
116.0785	0.134	232157	keystroke	o	n/a
116.1835	0.105	232367	keystroke	n	n/a
116.3625	0.106	232725	keystroke	Key.space	n/a
116.4385	0.15	232877	keystroke	r	n/a
116.5585	0.06	233117	keystroke	e	n/a
116.7235	0.09	233447	keystroke	q	n/a
116.7985	0.09	233597	keystroke	u	n/a
116.9785	0.12	233957	keystroke	i	n/a
117.1125	0.121	234225	keystroke	r	n/a
117.2335	0.075	234467	keystroke	e	n/a
117.3685	0.06	234737	keystroke	m	n/a
117.4135	0.074	234827	keystroke	e	n/a
117.5335	0.105	235067	keystroke	n	n/a
117.6535	0.075	235307	keystroke	t	n/a
117.8785	0.09	235757	keystroke	s	n/a
117.9835	0.09	235967	keystroke	Key.space	n/a
118.2685	0.075	236537	keystroke	c	n/a
118.4185	0.09	236837	keystroke	a	n/a
118.5235	0.09	237047	keystroke	l	n/a
118.7185	0.12	237437	keystroke	i	n/a
118.8235	0.105	237647	keystroke	b	n/a
118.9885	0.09	237977	keystroke	r	n/a
119.1985	0.09	238397	keystroke	a	n/a
119.4235	0.105	238847	keystroke	t	n/a
119.5435	0.09	239087	keystroke	i	n/a
119.6935	0.15	239387	keystroke	o	n/a
119.8285	0.075	239657	keystroke	n	n/a
119.9775	0.106	239955	keystroke	Key.space	n/a
120.3535	0.135	240707	keystroke	p	n/a
120.6685	0.09	241337	keystroke	l	n/a
120.7435	0.075	241487	keystroke	a	n/a
120.9535	0.12	241907	keystroke	t	n/a
121.0285	0.135	242057	keystroke	e	n/a
121.2085	0.105	242417	keystroke	Key.enter	n/a
121.3205	5.245	242641	prompt	n/a	responsible text tricks glow\n
121.9285	0.12	243857	keystroke	r	n/a
122.0185	0.075	244037	keystroke	e	n/a
122.1685	0.09	244337	keystroke	s	n/a
122.2885	0.09	244577	keystroke	p	n/a
122.5285	0.15	245057	keystroke	o	n/a
122.8585	0.105	245717	keystroke	n	n/a
123.0085	0.12	246017	keystroke	s	n/a
123.1435	0.12	246287	keystroke	i	n/a
123.3385	0.09	246677	keystroke	b	n/a
123.4585	0.09	246917	keystroke	l	n/a
123.5785	0.09	247157	keystroke	e	n/a
123.7135	0.105	247427	keystroke	Key.space	n/a
123.8485	0.075	247697	keystroke	t	n/a
124.0435	0.06	248087	keystroke	e	n/a
124.2685	0.135	248537	keystroke	x	n/a
124.5985	0.09	249197	keystroke	t	n/a
124.7485	0.119	249497	keystroke	Key.space	n/a
124.8535	0.075	249707	keystroke	t	n/a
125.0035	0.105	250007	keystroke	r	n/a
125.1385	0.105	250277	keystroke	i	n/a
125.2885	0.105	250577	keystroke	c	n/a
125.4235	0.105	250847	keystroke	k	n/a
125.5435	0.105	251087	keystroke	s	n/a
125.6785	0.105	251357	keystroke	Key.space	n/a
125.9035	0.06	251807	keystroke	g	n/a
125.9935	0.105	251987	keystroke	l	n/a
126.1885	0.12	252377	keystroke	o	n/a
126.3235	0.09	252647	keystroke	w	n/a
126.5185	0.045	253037	keystroke	Key.enter	n/a
126.5725	5.873	253145	prompt	n/a	this discussing drainage clearing\n
127.1785	0.09	254357	keystroke	t	n/a
127.3285	0.06	254657	keystroke	h	n/a
127.4935	0.105	254987	keystroke	i	n/a
127.6285	0.09	255257	keystroke	s	n/a
127.7935	0.105	255587	keystroke	Key.space	n/a
127.9435	0.075	255887	keystroke	d	n/a
128.0485	0.12	256097	keystroke	i	n/a
128.1235	0.09	256247	keystroke	s	n/a
128.5135	0.105	257027	keystroke	c	n/a
128.6935	0.105	257387	keystroke	u	n/a
128.8735	0.075	257747	keystroke	s	n/a
129.0085	0.105	258017	keystroke	s	n/a
129.1585	0.195	258317	keystroke	i	n/a
129.3235	0.12	258647	keystroke	n	n/a
129.4735	0.075	258947	keystroke	g	n/a
129.6085	0.105	259217	keystroke	Key.space	n/a
129.8935	0.06	259787	keystroke	d	n/a
130.1335	0.045	260267	keystroke	r	n/a
130.2835	0.075	260567	keystroke	a	n/a
130.3735	0.15	260747	keystroke	i	n/a
130.5085	0.105	261017	keystroke	n	n/a
130.5685	0.09	261137	keystroke	a	n/a
130.7935	0.105	261587	keystroke	g	n/a
130.8995	0.119	261799	keystroke	e	n/a
131.0785	0.105	262157	keystroke	Key.space	n/a
131.3035	0.075	262607	keystroke	c	n/a
131.3635	0.105	262727	keystroke	l	n/a
131.4535	0.075	262907	keystroke	e	n/a
131.6485	0.09	263297	keystroke	a	n/a
131.8885	0.135	263777	keystroke	r	n/a
131.9635	0.15	263927	keystroke	i	n/a
132.0835	0.135	264167	keystroke	n	n/a
132.1735	0.09	264347	keystroke	g	n/a
132.3685	0.075	264737	keystroke	Key.enter	n/a
132.451	6.5195	264902	prompt	n/a	conclusions cleaning arrangements forestry\n
133.0435	0.075	266087	keystroke	c	n/a
133.1635	0.12	266327	keystroke	o	n/a
133.2535	0.135	266507	keystroke	n	n/a
133.4185	0.06	266837	keystroke	c	n/a
133.4935	0.105	266987	keystroke	l	n/a
133.7935	0.09	267587	keystroke	u	n/a
133.9135	0.12	267827	keystroke	s	n/a
134.0485	0.09	268097	keystroke	i	n/a
134.2135	0.18	268427	keystroke	o	n/a
134.3185	0.135	268637	keystroke	n	n/a
134.4385	0.075	268877	keystroke	s	n/a
134.5585	0.135	269117	keystroke	Key.space	n/a
134.7535	0.09	269507	keystroke	c	n/a
134.8585	0.075	269717	keystroke	l	n/a
134.9635	0.09	269927	keystroke	e	n/a
135.1585	0.075	270317	keystroke	a	n/a
135.2935	0.105	270587	keystroke	n	n/a
135.4585	0.18	270917	keystroke	i	n/a
135.5485	0.18	271097	keystroke	n	n/a
135.7445	0.059	271489	keystroke	g	n/a
135.8935	0.105	271787	keystroke	Key.space	n/a
135.9535	0.105	271907	keystroke	a	n/a
136.2535	0.075	272507	keystroke	r	n/a
136.3885	0.06	272777	keystroke	r	n/a
136.5685	0.09	273137	keystroke	a	n/a
136.6735	0.135	273347	keystroke	n	n/a
136.7785	0.105	273557	keystroke	g	n/a
136.9135	0.075	273827	keystroke	e	n/a
137.0185	0.075	274037	keystroke	m	n/a
137.0785	0.09	274157	keystroke	e	n/a
137.1985	0.105	274397	keystroke	n	n/a
137.3635	0.075	274727	keystroke	t	n/a
137.5285	0.105	275057	keystroke	Key.space	n/a
137.7385	0.09	275477	keystroke	f	n/a
137.8435	0.15	275687	keystroke	o	n/a
137.8885	0.075	275777	keystroke	r	n/a
138.0835	0.06	276167	keystroke	e	n/a
138.2335	0.105	276467	keystroke	s	n/a
138.5035	0.105	277007	keystroke	t	n/a
138.5785	0.135	277157	keystroke	r	n/a
138.7285	0.09	277457	keystroke	y	n/a
138.9085	0.06	277817	keystroke	Key.enter	n/a
138.976	5.859	277952	prompt	n/a	offerings more annotated compact\n
139.5385	0.09	279077	keystroke	o	n/a
139.7035	0.06	279407	keystroke	f	n/a
139.8685	0.075	279737	keystroke	f	n/a
139.9885	0.075	279977	keystroke	e	n/a
140.1685	0.075	280337	keystroke	r	n/a
140.3485	0.075	280697	keystroke	s	n/a
140.4535	0.105	280907	keystroke	Key.space	n/a
140.6785	0.06	281357	keystroke	m	n/a
140.7535	0.105	281507	keystroke	o	n/a
140.8585	0.105	281717	keystroke	r	n/a
140.9335	0.15	281867	keystroke	e	n/a
141.1885	0.12	282377	keystroke	Key.space	n/a
141.3685	0.075	282737	keystroke	a	n/a
141.6085	0.03	283217	keystroke	n	n/a
141.6985	0.075	283397	keystroke	n	n/a
142.1935	0.105	284387	keystroke	o	n/a
142.5985	0.09	285197	keystroke	t	n/a
142.8235	0.09	285647	keystroke	a	n/a
143.0635	0.135	286127	keystroke	t	n/a
143.0935	0.165	286187	keystroke	e	n/a
143.3935	0.09	286787	keystroke	d	n/a
143.5285	0.09	287057	keystroke	Key.space	n/a
143.7085	0.12	287417	keystroke	c	n/a
143.8135	0.15	287627	keystroke	o	n/a
143.9485	0.075	287897	keystroke	m	n/a
144.0685	0.105	288137	keystroke	p	n/a
144.1885	0.075	288377	keystroke	a	n/a
144.3985	0.075	288797	keystroke	c	n/a
144.5785	0.135	289157	keystroke	t	n/a
144.7585	0.075	289517	keystroke	Key.enter	n/a
144.8395	5.711	289679	prompt	n/a	asking gaps amounts organize\n
145.3735	0.09	290747	keystroke	a	n/a
145.5835	0.06	291167	keystroke	s	n/a
145.6885	0.06	291377	keystroke	k	n/a
145.8385	0.165	291677	keystroke	i	n/a
145.9435	0.15	291887	keystroke	n	n/a
146.1235	0.075	292247	keystroke	g	n/a
146.2885	0.105	292577	keystroke	Key.space	n/a
146.5885	0.075	293177	keystroke	g	n/a
146.7685	0.075	293537	keystroke	a	n/a
146.8735	0.09	293747	keystroke	p	n/a
147.0835	0.15	294167	keystroke	s	n/a
147.3535	0.06	294707	keystroke	Key.space	n/a
147.4585	0.105	294917	keystroke	a	n/a
147.8185	0.135	295637	keystroke	m	n/a
148.0285	0.12	296057	keystroke	o	n/a
148.2985	0.06	296597	keystroke	u	n/a
148.4785	0.105	296957	keystroke	n	n/a
148.5535	0.09	297107	keystroke	t	n/a
148.7485	0.12	297497	keystroke	s	n/a
149.0785	0.075	298157	keystroke	Key.space	n/a
149.2585	0.09	298517	keystroke	o	n/a
149.3335	0.105	298667	keystroke	r	n/a
149.4835	0.06	298967	keystroke	g	n/a
149.6185	0.105	299237	keystroke	a	n/a
149.7235	0.09	299447	keystroke	n	n/a
149.8585	0.12	299717	keystroke	i	n/a
150.0385	0.12	300077	keystroke	z	n/a
150.2935	0.12	300587	keystroke	e	n/a
150.4735	0.075	300947	keystroke	Key.enter	n/a
150.5555	8.35	301111	prompt	n/a	advertiser failure detail favorite\n
151.2535	0.075	302507	keystroke	a	n/a
151.4335	0.06	302867	keystroke	d	n/a
151.6735	0.03	303347	keystroke	v	n/a
152.0035	0.06	304007	keystroke	e	n/a
152.2135	0.15	304427	keystroke	r	n/a
152.5135	0.09	305027	keystroke	t	n/a
152.7085	0.09	305417	keystroke	i	n/a
152.8435	0.09	305687	keystroke	s	n/a
153.0385	0.075	306077	keystroke	e	n/a
153.2185	0.075	306437	keystroke	r	n/a
153.3685	0.12	306737	keystroke	Key.space	n/a
153.5635	0.045	307127	keystroke	f	n/a
153.7135	0.09	307427	keystroke	a	n/a
153.7885	0.09	307577	keystroke	i	n/a
153.9985	0.09	307997	keystroke	l	n/a
154.2535	0.12	308507	keystroke	u	n/a
154.4035	0.09	308807	keystroke	r	n/a
154.4635	0.12	308927	keystroke	e	n/a
154.6435	0.09	309287	keystroke	Key.space	n/a
154.7785	0.06	309557	keystroke	d	n/a
154.8385	0.165	309677	keystroke	e	n/a
155.0785	0.03	310157	keystroke	r	n/a
155.8585	0.075	311717	keystroke	Key.backspace	n/a
156.2935	0.105	312587	keystroke	t	n/a
156.5035	0.105	313007	keystroke	a	n/a
156.6235	0.06	313247	keystroke	i	n/a
156.8035	0.075	313607	keystroke	l	n/a
157.6435	0.075	315287	keystroke	Key.space	n/a
157.8085	0.075	315617	keystroke	f	n/a
157.9585	0.075	315917	keystroke	a	n/a
158.1385	0.075	316277	keystroke	v	n/a
158.2285	0.075	316457	keystroke	o	n/a
158.3185	0.09	316637	keystroke	r	n/a
158.4685	0.06	316937	keystroke	i	n/a
158.5135	0.06	317027	keystroke	t	n/a
158.6785	0.09	317357	keystroke	e	n/a
158.8135	0.09	317627	keystroke	Key.enter	n/a
158.911	7.8395	317822	prompt	n/a	reserve forward authors representative\n
159.6085	0.105	319217	keystroke	r	n/a
160.0885	0.105	320177	keystroke	e	n/a
160.3285	0.06	320657	keystroke	s	n/a
160.4935	0.09	320987	keystroke	e	n/a
160.6435	0.09	321287	keystroke	r	n/a
160.8835	0.075	321767	keystroke	v	n/a
161.0185	0.09	322037	keystroke	e	n/a
161.1685	0.12	322337	keystroke	Key.space	n/a
161.3035	0.0745	322607	keystroke	f	n/a
161.438	0.09	322876	keystroke	o	n/a
161.483	0.06	322966	keystroke	r	n/a
161.678	0.075	323356	keystroke	w	n/a
161.858	0.105	323716	keystroke	a	n/a
162.098	0.06	324196	keystroke	r	n/a
162.308	0.09	324616	keystroke	d	n/a
162.443	0.12	324886	keystroke	Key.space	n/a
162.968	0.12	325936	keystroke	a	n/a
163.328	0.09	326656	keystroke	u	n/a
163.433	0.09	326866	keystroke	t	n/a
163.568	0.105	327136	keystroke	h	n/a
163.793	0.105	327586	keystroke	o	n/a
163.913	0.06	327826	keystroke	r	n/a
164.198	0.105	328396	keystroke	s	n/a
164.348	0.12	328696	keystroke	Key.space	n/a
164.483	0.105	328966	keystroke	r	n/a
164.543	0.075	329086	keystroke	e	n/a
164.874	0.074	329748	keystroke	p	n/a
165.008	0.135	330016	keystroke	r	n/a
165.113	0.075	330226	keystroke	e	n/a
165.323	0.06	330646	keystroke	s	n/a
165.488	0.12	330976	keystroke	e	n/a
165.593	0.105	331186	keystroke	n	n/a
165.713	0.09	331426	keystroke	t	n/a
165.893	0.12	331786	keystroke	a	n/a
166.118	0.075	332236	keystroke	t	n/a
166.223	0.12	332446	keystroke	i	n/a
166.358	0.105	332716	keystroke	v	n/a
166.508	0.09	333016	keystroke	e	n/a
166.673	0.075	333346	keystroke	Key.enter	n/a
166.7545	5.305	333509	prompt	n/a	incorrect olympic pages tool\n
167.348	0.135	334696	keystroke	i	n/a
167.513	0.075	335026	keystroke	n	n/a
167.603	0.06	335206	keystroke	c	n/a
167.708	0.09	335416	keystroke	o	n/a
167.828	0.045	335656	keystroke	r	n/a
167.978	0.0295	335956	keystroke	r	n/a
168.1425	0.06	336285	keystroke	e	n/a
168.3225	0.075	336645	keystroke	c	n/a
168.5325	0.09	337065	keystroke	t	n/a
168.6825	0.075	337365	keystroke	Key.space	n/a
168.9225	0.06	337845	keystroke	o	n/a
169.1175	0.075	338235	keystroke	l	n/a
169.2225	0.105	338445	keystroke	y	n/a
169.3575	0.075	338715	keystroke	m	n/a
169.4925	0.09	338985	keystroke	p	n/a
169.7025	0.105	339405	keystroke	i	n/a
169.9875	0.12	339975	keystroke	c	n/a
170.1225	0.09	340245	keystroke	Key.space	n/a
170.3175	0.09	340635	keystroke	p	n/a
170.3475	0.09	340695	keystroke	a	n/a
170.5275	0.15	341055	keystroke	g	n/a
170.6025	0.15	341205	keystroke	e	n/a
170.8575	0.075	341715	keystroke	s	n/a
170.9475	0.09	341895	keystroke	Key.space	n/a
171.1125	0.12	342225	keystroke	t	n/a
171.2775	0.09	342555	keystroke	o	n/a
171.4425	0.09	342885	keystroke	o	n/a
171.6525	0.09	343305	keystroke	l	n/a
171.9675	0.09	343935	keystroke	Key.enter	n/a
172.063	5.172	344126	prompt	n/a	nature killed promoted potatoes\n
172.7025	0.12	345405	keystroke	n	n/a
172.8075	0.075	345615	keystroke	a	n/a
172.9875	0.075	345975	keystroke	t	n/a
173.0775	0.105	346155	keystroke	u	n/a
173.1975	0.15	346395	keystroke	r	n/a
173.2875	0.105	346575	keystroke	e	n/a
173.4075	0.075	346815	keystroke	Key.space	n/a
173.5875	0.105	347175	keystroke	k	n/a
173.7825	0.105	347565	keystroke	i	n/a
174.0225	0.061	348045	keystroke	l	n/a
174.1575	0.075	348315	keystroke	l	n/a
174.1875	0.075	348375	keystroke	e	n/a
174.3675	0.105	348735	keystroke	d	n/a
174.4575	0.09	348915	keystroke	Key.space	n/a
174.6675	0.09	349335	keystroke	p	n/a
174.7875	0.09	349575	keystroke	r	n/a
174.8785	0.134	349757	keystroke	o	n/a
175.0425	0.12	350085	keystroke	m	n/a
175.1635	0.104	350327	keystroke	o	n/a
175.2525	0.075	350505	keystroke	t	n/a
175.4325	0.06	350865	keystroke	e	n/a
175.6125	0.075	351225	keystroke	d	n/a
175.7025	0.06	351405	keystroke	Key.space	n/a
175.9125	0.075	351825	keystroke	p	n/a
176.0925	0.075	352185	keystroke	o	n/a
176.2425	0.09	352485	keystroke	t	n/a
176.4675	0.106	352935	keystroke	a	n/a
176.7225	0.06	353445	keystroke	t	n/a
176.8125	0.075	353625	keystroke	o	n/a
176.9025	0.075	353805	keystroke	e	n/a
177.0675	0.09	354135	keystroke	s	n/a
177.1725	0.06	354345	keystroke	Key.enter	n/a
177.2395	4.885	354479	prompt	n/a	pressure loading requests samoa\n
177.8625	0.09	355725	keystroke	p	n/a
178.0125	0.12	356025	keystroke	r	n/a
178.1025	0.09	356205	keystroke	e	n/a
178.2825	0.06	356565	keystroke	s	n/a
178.4175	0.075	356835	keystroke	s	n/a
178.5225	0.105	357045	keystroke	u	n/a
178.7025	0.135	357405	keystroke	r	n/a
178.7925	0.09	357585	keystroke	e	n/a
178.8675	0.09	357735	keystroke	Key.space	n/a
179.0475	0.09	358095	keystroke	l	n/a
179.2125	0.105	358425	keystroke	o	n/a
179.2725	0.075	358545	keystroke	a	n/a
179.4225	0.09	358845	keystroke	d	n/a
179.4975	0.15	358995	keystroke	i	n/a
179.6175	0.105	359235	keystroke	n	n/a
179.7385	0.029	359477	keystroke	g	n/a
179.8275	0.09	359655	keystroke	Key.space	n/a
179.9775	0.105	359955	keystroke	r	n/a
180.0525	0.06	360105	keystroke	e	n/a
180.2475	0.09	360495	keystroke	q	n/a
180.3525	0.09	360705	keystroke	u	n/a
180.4725	0.09	360945	keystroke	e	n/a
180.6825	0.105	361365	keystroke	s	n/a
180.9075	0.06	361815	keystroke	t	n/a
181.1025	0.075	362205	keystroke	s	n/a
181.2225	0.12	362445	keystroke	Key.space	n/a
181.3275	0.075	362655	keystroke	s	n/a
181.5075	0.075	363015	keystroke	a	n/a
181.6125	0.075	363225	keystroke	m	n/a
181.7175	0.12	363435	keystroke	o	n/a
181.8225	0.09	363645	keystroke	a	n/a
182.0025	0.12	364005	keystroke	Key.enter	n/a
182.1295	8.47	364259	prompt	n/a	half lucas crossword superintendent\n
183.0375	0.135	366075	keystroke	h	n/a
183.3375	0.076	366675	keystroke	a	n/a
183.4275	0.09	366855	keystroke	l	n/a
183.5925	0.09	367185	keystroke	f	n/a
183.7425	0.075	367485	keystroke	Key.space	n/a
183.9225	0.075	367845	keystroke	l	n/a
184.1925	0.06	368385	keystroke	u	n/a
184.4625	0.06	368925	keystroke	c	n/a
184.5525	0.135	369105	keystroke	a	n/a
184.7625	0.09	369525	keystroke	Key.space	n/a
184.9425	0.075	369885	keystroke	c	n/a
185.4825	0.06	370965	keystroke	Key.backspace	n/a
185.6325	0.06	371265	keystroke	Key.backspace	n/a
185.7675	0.105	371535	keystroke	s	n/a
185.9625	0.09	371925	keystroke	Key.space	n/a
186.1125	0.09	372225	keystroke	c	n/a
186.2775	0.12	372555	keystroke	r	n/a
186.4125	0.09	372825	keystroke	o	n/a
186.5475	0.06	373095	keystroke	s	n/a
186.6825	0.075	373365	keystroke	s	n/a
186.9825	0.075	373965	keystroke	w	n/a
187.1025	0.105	374205	keystroke	o	n/a
187.2375	0.09	374475	keystroke	r	n/a
187.5225	0.075	375045	keystroke	d	n/a
187.7175	0.075	375435	keystroke	Key.space	n/a
187.9275	0.075	375855	keystroke	s	n/a
188.0475	0.12	376095	keystroke	u	n/a
188.3325	0.09	376665	keystroke	p	n/a
188.4525	0.09	376905	keystroke	e	n/a
188.6475	0.06	377295	keystroke	r	n/a
188.7525	0.135	377505	keystroke	i	n/a
188.9625	0.12	377925	keystroke	n	n/a
189.6075	0.075	379215	keystroke	t	n/a
189.7875	0.09	379575	keystroke	e	n/a
189.8935	0.104	379787	keystroke	n	n/a
190.0125	0.09	380025	keystroke	d	n/a
190.0875	0.15	380175	keystroke	e	n/a
190.2075	0.09	380415	keystroke	n	n/a
190.3575	0.075	380715	keystroke	t	n/a
190.5375	0.06	381075	keystroke	Key.enter	n/a
190.6055	6.5645	381211	prompt	n/a	encourages stanley enjoying zinc\n
191.2275	0.12	382455	keystroke	e	n/a
191.3625	0.12	382725	keystroke	n	n/a
191.5275	0.075	383055	keystroke	c	n/a
191.6175	0.105	383235	keystroke	o	n/a
191.8725	0.075	383745	keystroke	u	n/a
191.9325	0.075	383865	keystroke	r	n/a
192.1275	0.12	384255	keystroke	a	n/a
192.3825	0.105	384765	keystroke	g	n/a
192.4575	0.135	384915	keystroke	e	n/a
192.7435	0.074	385487	keystroke	s	n/a
192.9675	0.105	385935	keystroke	Key.space	n/a
193.0735	0.09	386147	keystroke	s	n/a
193.2825	0.105	386565	keystroke	t	n/a
193.5225	0.09	387045	keystroke	a	n/a
193.9275	0.12	387855	keystroke	n	n/a
194.1825	0.09	388365	keystroke	l	n/a
194.2875	0.12	388575	keystroke	e	n/a
194.5275	0.09	389055	keystroke	y	n/a
194.7375	0.06	389475	keystroke	Key.space	n/a
194.8125	0.09	389625	keystroke	e	n/a
194.9475	0.075	389895	keystroke	n	n/a
195.1125	0.105	390225	keystroke	j	n/a
195.3075	0.105	390615	keystroke	o	n/a
195.3975	0.105	390795	keystroke	y	n/a
195.5475	0.135	391095	keystroke	i	n/a
195.6675	0.105	391335	keystroke	n	n/a
195.7875	0.075	391575	keystroke	g	n/a
195.9375	0.105	391875	keystroke	Key.space	n/a
196.3125	0.075	392625	keystroke	z	n/a
196.4925	0.21	392985	keystroke	i	n/a
196.6725	0.12	393345	keystroke	n	n/a
196.8525	0.135	393705	keystroke	c	n/a
197.1225	0.045	394245	keystroke	Key.enter	n/a
197.177	16.6575	394354	prompt	n/a	modeling horizontal how'd shouldn't've\n
197.9625	0.09	395925	keystroke	m	n/a
198.1425	0.105	396285	keystroke	o	n/a
198.2325	0.075	396465	keystroke	d	n/a
198.3675	0.105	396735	keystroke	e	n/a
198.4875	0.09	396975	keystroke	l	n/a
198.6975	0.166	397395	keystroke	i	n/a
198.8325	0.135	397665	keystroke	n	n/a
198.9525	0.075	397905	keystroke	g	n/a
199.0875	0.105	398175	keystroke	Key.space	n/a
199.2975	0.075	398595	keystroke	h	n/a
199.5375	0.075	399075	keystroke	o	n/a
199.7935	0.044	399587	keystroke	i	n/a
200.4225	0.09	400845	keystroke	Key.backspace	n/a
200.5875	0.09	401175	keystroke	r	n/a
200.7685	0.089	401537	keystroke	i	n/a
201.2925	0.105	402585	keystroke	z	n/a
201.4275	0.15	402855	keystroke	o	n/a
201.5325	0.135	403065	keystroke	n	n/a
201.7125	0.075	403425	keystroke	t	n/a
201.9225	0.09	403845	keystroke	a	n/a
202.0275	0.075	404055	keystroke	l	n/a
202.2235	0.074	404447	keystroke	Key.space	n/a
202.4325	0.105	404865	keystroke	h	n/a
202.7025	0.09	405405	keystroke	o	n/a
202.8225	0.105	405645	keystroke	w	n/a
203.1225	0.075	406245	keystroke	'	n/a
203.3325	0.075	406665	keystroke	d	n/a
203.4975	0.105	406995	keystroke	Key.space	n/a
203.6925	0.09	407385	keystroke	s	n/a
203.8425	0.075	407685	keystroke	h	n/a
204.1125	0.075	408225	keystroke	o	n/a
204.3525	0.09	408705	keystroke	u	n/a
204.6225	0.075	409245	keystroke	l	n/a
204.8475	0.09	409695	keystroke	d	n/a
205.1475	0.18	410295	keystroke	n	n/a
206.7825	0.12	413565	keystroke	/	n/a
207.5625	0.09	415125	keystroke	t	n/a
207.7275	0.09	415455	keystroke	/	n/a
207.9225	0.105	415845	keystroke	v	n/a
208.0725	0.12	416145	keystroke	e	n/a
208.8525	0.075	417705	keystroke	Key.backspace	n/a
209.0175	0.075	418035	keystroke	Key.backspace	n/a
209.1825	0.06	418365	keystroke	Key.backspace	n/a
209.3325	0.06	418665	keystroke	Key.backspace	n/a
209.6625	0.06	419325	keystroke	Key.backspace	n/a
210.6085	0.075	421217	keystroke	'	n/a
211.4935	0.105	422987	keystroke	n	n/a
212.3925	0.075	424785	keystroke	Key.backspace	n/a
212.5875	0.091	425175	keystroke	t	n/a
212.9925	0.06	425985	keystroke	'	n/a
213.3375	0.075	426675	keystroke	v	n/a
213.4585	0.12	426917	keystroke	e	n/a
213.7435	0.089	427487	keystroke	Key.enter	n/a
213.839	8.5455	427678	prompt	n/a	pharmacies installation parameter recordings\n
215.4535	0.074	430907	keystroke	p	n/a
215.7225	0.09	431445	keystroke	h	n/a
215.8275	0.09	431655	keystroke	a	n/a
216.0535	0.089	432107	keystroke	r	n/a
216.1875	0.12	432375	keystroke	m	n/a
216.3225	0.106	432645	keystroke	a	n/a
216.5325	0.105	433065	keystroke	c	n/a
216.6225	0.106	433245	keystroke	i	n/a
216.7435	0.074	433487	keystroke	e	n/a
216.9225	0.06	433845	keystroke	s	n/a
217.1475	0.015	434295	keystroke	Key.space	n/a
217.2835	0.165	434567	keystroke	i	n/a
217.4025	0.135	434805	keystroke	n	n/a
217.4175	0.106	434835	keystroke	s	n/a
217.6275	0.09	435255	keystroke	t	n/a
217.9575	0.09	435915	keystroke	a	n/a
218.1525	0.046	436305	keystroke	l	n/a
218.2875	0.075	436575	keystroke	l	n/a
218.4225	0.105	436845	keystroke	a	n/a
218.6925	0.045	437385	keystroke	t	n/a
218.7385	0.105	437477	keystroke	i	n/a
218.9475	0.135	437895	keystroke	o	n/a
219.0535	0.104	438107	keystroke	n	n/a
219.2475	0.09	438495	keystroke	Key.space	n/a
219.5025	0.12	439005	keystroke	p	n/a
219.6985	0.089	439397	keystroke	a	n/a
219.8625	0.09	439725	keystroke	r	n/a
220.0125	0.106	440025	keystroke	a	n/a
220.1325	0.12	440265	keystroke	m	n/a
220.2375	0.135	440475	keystroke	e	n/a
220.4485	0.089	440897	keystroke	t	n/a
220.5985	0.119	441197	keystroke	e	n/a
220.7935	0.074	441587	keystroke	r	n/a
220.9875	0.09	441975	keystroke	Key.space	n/a
221.0935	0.104	442187	keystroke	r	n/a
221.1525	0.105	442305	keystroke	e	n/a
221.3775	0.105	442755	keystroke	c	n/a
221.4985	0.105	442997	keystroke	o	n/a
221.5875	0.06	443175	keystroke	r	n/a
221.7525	0.09	443505	keystroke	d	n/a
221.8275	0.135	443655	keystroke	i	n/a
221.9485	0.119	443897	keystroke	n	n/a
221.9775	0.076	443955	keystroke	g	n/a
222.1575	0.106	444315	keystroke	s	n/a
222.3075	0.075	444615	keystroke	Key.enter	n/a
222.401	5.864	444802	prompt	n/a	reduced mountain more equipment\n
223.0725	0.061	446145	keystroke	r	n/a
223.2375	0.06	446475	keystroke	e	n/a
223.4485	0.089	446897	keystroke	d	n/a
223.5985	0.06	447197	keystroke	u	n/a
223.7475	0.09	447495	keystroke	c	n/a
223.9125	0.076	447825	keystroke	e	n/a
224.0775	0.075	448155	keystroke	d	n/a
224.1975	0.09	448395	keystroke	Key.space	n/a
224.4225	0.076	448845	keystroke	m	n/a
224.5285	0.105	449057	keystroke	o	n/a
224.7975	0.09	449595	keystroke	u	n/a
225.0235	0.059	450047	keystroke	n	n/a
225.1125	0.105	450225	keystroke	t	n/a
225.3525	0.121	450705	keystroke	a	n/a
225.4435	0.135	450887	keystroke	i	n/a
225.5175	0.121	451035	keystroke	n	n/a
225.7575	0.075	451515	keystroke	Key.space	n/a
225.9685	0.075	451937	keystroke	m	n/a
226.0575	0.12	452115	keystroke	o	n/a
226.2385	0.135	452477	keystroke	r	n/a
226.3435	0.09	452687	keystroke	e	n/a
226.5225	0.09	453045	keystroke	Key.space	n/a
226.6435	0.06	453287	keystroke	e	n/a
226.8385	0.09	453677	keystroke	q	n/a
226.9425	0.076	453885	keystroke	u	n/a
227.1835	0.089	454367	keystroke	i	n/a
227.4075	0.136	454815	keystroke	p	n/a
227.6025	0.121	455205	keystroke	m	n/a
227.7085	0.09	455417	keystroke	e	n/a
227.8125	0.136	455625	keystroke	n	n/a
227.9635	0.089	455927	keystroke	t	n/a
228.1575	0.105	456315	keystroke	Key.enter	n/a
228.2695	7.5405	456539	prompt	n/a	guard brochure sporting luxembourg\n
229.3275	0.076	458655	keystroke	g	n/a
229.5385	0.12	459077	keystroke	u	n/a
229.6425	0.075	459285	keystroke	a	n/a
229.8385	0.06	459677	keystroke	r	n/a
230.0185	0.06	460037	keystroke	d	n/a
230.1375	0.075	460275	keystroke	Key.space	n/a
230.3175	0.121	460635	keystroke	b	n/a
230.4675	0.105	460935	keystroke	r	n/a
230.5435	0.104	461087	keystroke	o	n/a
230.7075	0.105	461415	keystroke	c	n/a
230.8275	0.12	461655	keystroke	h	n/a
231.0675	0.12	462135	keystroke	u	n/a
231.2785	0.135	462557	keystroke	r	n/a
231.3685	0.119	462737	keystroke	e	n/a
231.5175	0.105	463035	keystroke	Key.space	n/a
231.6685	0.089	463337	keystroke	s	n/a
231.8775	0.091	463755	keystroke	p	n/a
232.0575	0.105	464115	keystroke	o	n/a
232.1775	0.076	464355	keystroke	r	n/a
232.3425	0.076	464685	keystroke	t	n/a
232.4775	0.121	464955	keystroke	i	n/a
232.8685	0.104	465737	keystroke	n	n/a
232.9875	0.106	465975	keystroke	g	n/a
233.1075	0.12	466215	keystroke	Key.space	n/a
233.4235	0.089	466847	keystroke	l	n/a
233.8575	0.105	467715	keystroke	u	n/a
234.0975	0.136	468195	keystroke	x	n/a
234.2785	0.164	468557	keystroke	e	n/a
234.4275	0.121	468855	keystroke	m	n/a
234.6085	0.12	469217	keystroke	b	n/a
234.9825	0.121	469965	keystroke	o	n/a
235.2685	0.104	470537	keystroke	u	n/a
235.4175	0.09	470835	keystroke	r	n/a
235.5525	0.105	471105	keystroke	g	n/a
235.7475	0.06	471495	keystroke	Key.enter	n/a
235.815	7.9895	471630	prompt	n/a	applying wordpress bufing drawings\n
237.0235	0.075	474047	keystroke	a	n/a
237.1575	0.045	474315	keystroke	p	n/a
237.3075	0.136	474615	keystroke	p	n/a
237.4285	0.075	474857	keystroke	l	n/a
237.5175	0.076	475035	keystroke	y	n/a
237.6525	0.151	475305	keystroke	i	n/a
237.7585	0.12	475517	keystroke	n	n/a
237.9225	0.061	475845	keystroke	g	n/a
238.0425	0.105	476085	keystroke	Key.space	n/a
238.2235	0.089	476447	keystroke	w	n/a
238.3285	0.105	476657	keystroke	o	n/a
238.4625	0.061	476925	keystroke	r	n/a
238.6425	0.12	477285	keystroke	d	n/a
238.7475	0.09	477495	keystroke	Key.space	n/a
238.9435	0.089	477887	keystroke	p	n/a
239.0475	0.121	478095	keystroke	r	n/a
239.1235	0.089	478247	keystroke	e	n/a
239.4225	0.06	478845	keystroke	s	n/a
239.5735	0.09	479147	keystroke	s	n/a
239.7975	0.091	479595	keystroke	Key.space	n/a
240.0075	0.136	480015	keystroke	b	n/a
240.2925	0.09	480585	keystroke	u	n/a
240.5935	0.12	481187	keystroke	f	n/a
240.6675	0.165	481335	keystroke	i	n/a
240.8185	0.119	481637	keystroke	n	n/a
240.9835	0.089	481967	keystroke	g	n/a
241.1775	0.105	482355	keystroke	Key.space	n/a
241.3285	0.09	482657	keystroke	d	n/a
241.5385	0.045	483077	keystroke	r	n/a
241.7625	0.075	483525	keystroke	a	n/a
241.9585	0.0895	483917	keystroke	w	n/a
242.108	0.1955	484216	keystroke	i	n/a
242.243	0.1355	484486	keystroke	n	n/a
243.143	0.104	486286	keystroke	g	n/a
243.3825	0.0905	486765	keystroke	s	n/a
243.727	0.075	487454	keystroke	Key.enter	n/a
243.8145	7.311	487629	prompt	n/a	powerseller freely pharmaceuticals lane\n
244.4485	0.0895	488897	keystroke	p	n/a
244.913	0.119	489826	keystroke	o	n/a
245.017	0.091	490034	keystroke	w	n/a
245.1825	0.0905	490365	keystroke	e	n/a
245.363	0.0745	490726	keystroke	r	n/a
245.572	0.0905	491144	keystroke	s	n/a
245.752	0.061	491504	keystroke	e	n/a
245.8575	0.0605	491715	keystroke	l	n/a
246.008	0.089	492016	keystroke	l	n/a
246.083	0.089	492166	keystroke	e	n/a
246.247	0.091	492494	keystroke	r	n/a
246.3675	0.1195	492735	keystroke	Key.space	n/a
246.502	0.091	493004	keystroke	f	n/a
246.698	0.06	493396	keystroke	r	n/a
246.8625	0.0605	493725	keystroke	e	n/a
246.998	0.089	493996	keystroke	e	n/a
247.147	0.076	494294	keystroke	l	n/a
247.372	0.061	494744	keystroke	y	n/a
247.4625	0.1055	494925	keystroke	Key.space	n/a
247.658	0.09	495316	keystroke	p	n/a
247.7325	0.0745	495465	keystroke	h	n/a
247.987	0.136	495974	keystroke	a	n/a
248.198	0.105	496396	keystroke	r	n/a
248.377	0.106	496754	keystroke	m	n/a
248.497	0.091	496994	keystroke	a	n/a
248.798	0.135	497596	keystroke	c	n/a
249.067	0.106	498134	keystroke	e	n/a
249.293	0.105	498586	keystroke	u	n/a
249.458	0.089	498916	keystroke	t	n/a
249.6075	0.105	499215	keystroke	i	n/a
249.832	0.061	499664	keystroke	c	n/a
249.923	0.119	499846	keystroke	a	n/a
250.057	0.075	500114	keystroke	l	n/a
250.178	0.1045	500356	keystroke	s	n/a
250.312	0.09	500624	keystroke	Key.space	n/a
250.507	0.0915	501014	keystroke	l	n/a
250.612	0.106	501224	keystroke	a	n/a
250.733	0.104	501466	keystroke	n	n/a
250.852	0.135	501704	keystroke	e	n/a
251.048	0.075	502096	keystroke	Key.enter	n/a
251.13	6.9545	502260	prompt	n/a	utilize go kuwait chef\n
251.947	0.106	503894	keystroke	u	n/a
252.097	0.09	504194	keystroke	t	n/a
252.233	0.075	504466	keystroke	i	n/a
254.003	0.105	508006	keystroke	Key.backspace	n/a
254.243	0.09	508486	keystroke	t	n/a
254.363	0.09	508726	keystroke	i	n/a
254.603	0.09	509206	keystroke	l	n/a
254.812	0.091	509624	keystroke	i	n/a
254.963	0.075	509926	keystroke	z	n/a
255.248	0.12	510496	keystroke	e	n/a
255.368	0.089	510736	keystroke	Key.space	n/a
255.503	0.089	511006	keystroke	g	n/a
255.608	0.12	511216	keystroke	o	n/a
255.818	0.135	511636	keystroke	Key.space	n/a
255.998	0.105	511996	keystroke	k	n/a
256.238	0.119	512476	keystroke	u	n/a
256.418	0.075	512836	keystroke	w	n/a
256.598	0.075	513196	keystroke	a	n/a
256.657	0.105	513314	keystroke	i	n/a
257.168	0.09	514336	keystroke	t	n/a
257.303	0.104	514606	keystroke	Key.space	n/a
257.452	0.121	514904	keystroke	c	n/a
257.588	0.105	515176	keystroke	h	n/a
257.678	0.104	515356	keystroke	e	n/a
257.828	0.105	515656	keystroke	f	n/a
258.037	0.046	516074	keystroke	Key.enter	n/a
258.0925	8.977	516185	prompt	n/a	possibly amazon fairly taking\n
258.803	0.06	517606	keystroke	p	n/a
258.968	0.119	517936	keystroke	o	n/a
259.073	0.059	518146	keystroke	s	n/a
259.208	0.105	518416	keystroke	s	n/a
259.598	0.075	519196	keystroke	b	n/a
260.123	0.09	520246	keystroke	Key.backspace	n/a
260.393	0.12	520786	keystroke	i	n/a
260.528	0.075	521056	keystroke	b	n/a
260.663	0.09	521326	keystroke	l	n/a
260.798	0.089	521596	keystroke	y	n/a
261.007	0.106	522014	keystroke	Key.space	n/a
261.203	0.075	522406	keystroke	a	n/a
261.293	0.09	522586	keystroke	m	n/a
261.353	0.06	522706	keystroke	a	n/a
261.518	0.135	523036	keystroke	z	n/a
261.638	0.18	523276	keystroke	o	n/a
261.773	0.105	523546	keystroke	n	n/a
261.968	0.09	523936	keystroke	Key.space	n/a
262.073	0.075	524146	keystroke	f	n/a
262.238	0.075	524476	keystroke	a	n/a
262.328	0.075	524656	keystroke	i	n/a
262.568	0.09	525136	keystroke	l	n/a
262.673	0.105	525346	keystroke	r	n/a
262.898	0.09	525796	keystroke	y	n/a
263.033	0.09	526066	keystroke	Key.space	n/a
263.138	0.06	526276	keystroke	t	n/a
263.378	0.089	526756	keystroke	a	n/a
263.603	0.075	527206	keystroke	k	n/a
263.948	0.029	527896	keystroke	Key.backspace	n/a
264.098	0.06	528196	keystroke	Key.backspace	n/a
264.247	0.061	528494	keystroke	Key.backspace	n/a
264.428	0.029	528856	keystroke	Key.backspace	n/a
264.563	0.06	529126	keystroke	Key.backspace	n/a
264.697	0.076	529394	keystroke	Key.backspace	n/a
264.848	0.074	529696	keystroke	Key.backspace	n/a
265.523	0.075	531046	keystroke	r	n/a
265.673	0.075	531346	keystroke	l	n/a
265.823	0.075	531646	keystroke	y	n/a
265.942	0.076	531884	keystroke	Key.space	n/a
266.033	0.075	532066	keystroke	t	n/a
266.258	0.09	532516	keystroke	a	n/a
266.363	0.09	532726	keystroke	k	n/a
266.542	0.166	533084	keystroke	i	n/a
266.663	0.12	533326	keystroke	n	n/a
266.813	0.075	533626	keystroke	g	n/a
266.993	0.075	533986	keystroke	Key.enter	n/a
267.074	7.375	534148	prompt	n/a	asin green attendance offering\n
267.668	0.09	535336	keystroke	a	n/a
267.863	0.135	535726	keystroke	s	n/a
267.983	0.12	535966	keystroke	i	n/a
268.043	0.12	536086	keystroke	n	n/a
268.283	0.074	536566	keystroke	Key.space	n/a
268.418	0.075	536836	keystroke	g	n/a
268.597	0.061	537194	keystroke	r	n/a
268.793	0.06	537586	keystroke	e	n/a
268.943	0.06	537886	keystroke	e	n/a
269.048	0.12	538096	keystroke	n	n/a
269.258	0.135	538516	keystroke	Key.space	n/a
269.378	0.105	538756	keystroke	a	n/a
269.677	0.076	539354	keystroke	t	n/a
269.783	0.075	539566	keystroke	t	n/a
269.873	0.12	539746	keystroke	e	n/a
270.248	0.18	540496	keystroke	e	n/a
271.2375	0.105	542475	keystroke	Key.backspace	n/a
271.6125	0.09	543225	keystroke	n	n/a
271.7625	0.09	543525	keystroke	d	n/a
271.8975	0.105	543795	keystroke	a	n/a
272.0925	0.09	544185	keystroke	c	n/a
272.4975	0.09	544995	keystroke	Key.backspace	n/a
272.7525	0.12	545505	keystroke	n	n/a
272.8575	0.075	545715	keystroke	c	n/a
273.0075	0.09	546015	keystroke	e	n/a
273.1275	0.105	546255	keystroke	Key.space	n/a
273.2925	0.09	546585	keystroke	o	n/a
273.4425	0.075	546885	keystroke	f	n/a
273.5925	0.06	547185	keystroke	f	n/a
273.7565	0.091	547513	keystroke	e	n/a
273.9375	0.09	547875	keystroke	r	n/a
274.0125	0.15	548025	keystroke	i	n/a
274.1025	0.135	548205	keystroke	n	n/a
274.1775	0.075	548355	keystroke	g	n/a
274.3575	0.089	548715	keystroke	Key.enter	n/a
274.453	8.2625	548906	prompt	n/a	incredible quotes complicated full\n
275.0475	0.15	550095	keystroke	i	n/a
275.1825	0.105	550365	keystroke	n	n/a
275.3025	0.075	550605	keystroke	c	n/a
275.5725	0.12	551145	keystroke	r	n/a
275.7215	0.061	551443	keystroke	e	n/a
275.9325	0.09	551865	keystroke	d	n/a
276.6375	0.09	553275	keystroke	i	n/a
276.8165	0.076	553633	keystroke	b	n/a
276.9375	0.09	553875	keystroke	l	n/a
277.0575	0.075	554115	keystroke	e	n/a
277.1925	0.105	554385	keystroke	Key.space	n/a
277.3875	0.075	554775	keystroke	q	n/a
277.5225	0.089	555045	keystroke	u	n/a
277.7465	0.075	555493	keystroke	o	n/a
277.8815	0.075	555763	keystroke	t	n/a
278.0165	0.075	556033	keystroke	e	n/a
278.2115	0.106	556423	keystroke	s	n/a
278.3015	0.105	556603	keystroke	Key.space	n/a
278.5115	0.135	557023	keystroke	c	n/a
278.5565	0.195	557113	keystroke	o	n/a
278.7065	0.105	557413	keystroke	m	n/a
278.9015	0.105	557803	keystroke	p	n/a
278.9475	0.135	557895	keystroke	l	n/a
279.1875	0.12	558375	keystroke	i	n/a
279.3215	0.075	558643	keystroke	c	n/a
279.4725	0.105	558945	keystroke	a	n/a
279.7865	0.06	559573	keystroke	r	n/a
280.6865	0.076	561373	keystroke	t	n/a
280.9715	0.06	561943	keystroke	Key.backspace	n/a
281.0915	0.075	562183	keystroke	Key.backspace	n/a
281.1815	0.076	562363	keystroke	t	n/a
281.3915	0.061	562783	keystroke	e	n/a
281.5715	0.121	563143	keystroke	d	n/a
281.6765	0.075	563353	keystroke	Key.space	n/a
281.8125	0.105	563625	keystroke	f	n/a
281.9315	0.106	563863	keystroke	u	n/a
282.2015	0.091	564403	keystroke	l	n/a
282.3815	0.075	564763	keystroke	l	n/a
282.5915	0.12	565183	keystroke	Key.enter	n/a
282.724	8.945	565448	prompt	n/a	encounter person transmitted emperor\n
283.3265	0.12	566653	keystroke	e	n/a
283.4765	0.091	566953	keystroke	n	n/a
283.6575	0.06	567315	keystroke	c	n/a
283.7465	0.06	567493	keystroke	o	n/a
284.1065	0.076	568213	keystroke	n	n/a
284.4965	0.105	568993	keystroke	Key.backspace	n/a
284.9465	0.105	569893	keystroke	u	n/a
285.1565	0.091	570313	keystroke	n	n/a
285.2165	0.091	570433	keystroke	t	n/a
285.4115	0.09	570823	keystroke	e	n/a
285.5775	0.089	571155	keystroke	r	n/a
285.7265	0.075	571453	keystroke	Key.space	n/a
285.8315	0.105	571663	keystroke	a	n/a
285.9225	0.045	571845	keystroke	Key.space	n/a
286.1325	0.089	572265	keystroke	p	n/a
286.1915	0.076	572383	keystroke	e	n/a
286.3425	0.075	572685	keystroke	r	n/a
286.5075	0.089	573015	keystroke	s	n/a
286.5525	0.165	573105	keystroke	o	n/a
286.6425	0.029	573285	keystroke	s	n/a
286.6725	0.12	573345	keystroke	n	n/a
286.8675	0.119	573735	keystroke	Key.space	n/a
287.4665	0.06	574933	keystroke	Key.backspace	n/a
287.6015	0.075	575203	keystroke	Key.backspace	n/a
287.7515	0.06	575503	keystroke	Key.backspace	n/a
287.9615	0.015	575923	keystroke	Key.backspace	n/a
288.4725	0.165	576945	keystroke	o	n/a
288.5765	0.121	577153	keystroke	n	n/a
288.7865	0.09	577573	keystroke	Key.space	n/a
288.8475	0.074	577695	keystroke	t	n/a
289.0265	0.045	578053	keystroke	r	n/a
289.2065	0.06	578413	keystroke	a	n/a
289.2675	0.089	578535	keystroke	n	n/a
289.3725	0.089	578745	keystroke	s	n/a
289.4775	0.105	578955	keystroke	m	n/a
289.6275	0.089	579255	keystroke	i	n/a
289.8515	0.075	579703	keystroke	t	n/a
289.9715	0.076	579943	keystroke	t	n/a
290.1515	0.076	580303	keystroke	e	n/a
290.3315	0.076	580663	keystroke	d	n/a
290.4215	0.105	580843	keystroke	Key.space	n/a
290.5575	0.089	581115	keystroke	e	n/a
290.6775	0.074	581355	keystroke	m	n/a
290.7965	0.105	581593	keystroke	p	n/a
290.9315	0.06	581863	keystroke	e	n/a
291.2175	0.09	582435	keystroke	r	n/a
291.3375	0.09	582675	keystroke	o	n/a
291.3815	0.091	582763	keystroke	r	n/a
291.5915	0.075	583183	keystroke	Key.enter	n/a
291.674	5.485	583348	prompt	n/a	durable baseline mime catalyst\n
292.3275	0.09	584655	keystroke	d	n/a
292.4615	0.136	584923	keystroke	u	n/a
292.6115	0.046	585223	keystroke	r	n/a
292.7625	0.089	585525	keystroke	a	n/a
292.8375	0.09	585675	keystroke	b	n/a
293.0615	0.075	586123	keystroke	l	n/a
293.1515	0.091	586303	keystroke	e	n/a
293.3015	0.09	586603	keystroke	Key.space	n/a
293.5275	0.06	587055	keystroke	b	n/a
293.5715	0.06	587143	keystroke	a	n/a
293.7515	0.075	587503	keystroke	s	n/a
293.9315	0.076	587863	keystroke	e	n/a
294.0675	0.059	588135	keystroke	l	n/a
294.3065	0.15	588613	keystroke	i	n/a
294.4725	0.104	588945	keystroke	n	n/a
294.5615	0.12	589123	keystroke	e	n/a
294.7115	0.075	589423	keystroke	Key.space	n/a
294.9215	0.105	589843	keystroke	m	n/a
295.1325	0.135	590265	keystroke	i	n/a
295.3425	0.089	590685	keystroke	m	n/a
295.4625	0.09	590925	keystroke	e	n/a
295.5815	0.135	591163	keystroke	Key.space	n/a
295.7915	0.061	591583	keystroke	c	n/a
295.8975	0.119	591795	keystroke	a	n/a
296.1515	0.061	592303	keystroke	t	n/a
296.3175	0.104	592635	keystroke	a	n/a
296.4065	0.106	592813	keystroke	l	n/a
296.6015	0.061	593203	keystroke	y	n/a
296.7825	0.105	593565	keystroke	s	n/a
296.9775	0.074	593955	keystroke	t	n/a
297.0825	0.074	594165	keystroke	Key.enter	n/a
297.1665	5.9485	594333	prompt	n/a	medium involve incidents undo\n
297.7125	0.105	595425	keystroke	m	n/a
297.8615	0.061	595723	keystroke	e	n/a
298.0275	0.074	596055	keystroke	d	n/a
298.1175	0.12	596235	keystroke	i	n/a
298.3425	0.105	596685	keystroke	u	n/a
298.5965	0.091	597193	keystroke	m	n/a
298.7765	0.106	597553	keystroke	Key.space	n/a
299.0325	0.12	598065	keystroke	i	n/a
299.1375	0.105	598275	keystroke	n	n/a
299.3625	0.074	598725	keystroke	v	n/a
299.5425	0.074	599085	keystroke	o	n/a
299.7215	0.091	599443	keystroke	l	n/a
299.7965	0.106	599593	keystroke	v	n/a
299.9775	0.12	599955	keystroke	e	n/a
300.2315	0.075	600463	keystroke	Key.space	n/a
300.5015	0.136	601003	keystroke	i	n/a
300.6225	0.135	601245	keystroke	n	n/a
300.8915	0.075	601783	keystroke	c	n/a
301.0115	0.12	602023	keystroke	i	n/a
301.1465	0.076	602293	keystroke	d	n/a
301.2675	0.075	602535	keystroke	e	n/a
301.3865	0.091	602773	keystroke	n	n/a
301.5225	0.104	603045	keystroke	t	n/a
301.7475	0.075	603495	keystroke	s	n/a
301.8515	0.09	603703	keystroke	Key.space	n/a
302.1675	0.089	604335	keystroke	u	n/a
302.3325	0.119	604665	keystroke	n	n/a
302.6315	0.061	605263	keystroke	d	n/a
302.7515	0.105	605503	keystroke	o	n/a
303.0365	0.075	606073	keystroke	Key.enter	n/a
303.12	7.299	606240	prompt	n/a	valuation surfaces probably guest\n
303.9225	0.015	607845	keystroke	v	n/a
303.9825	0.075	607965	keystroke	a	n/a
304.0725	0.105	608145	keystroke	l	n/a
304.3415	0.105	608683	keystroke	u	n/a
304.4925	0.105	608985	keystroke	a	n/a
304.7175	0.119	609435	keystroke	t	n/a
304.8215	0.105	609643	keystroke	i	n/a
305.0175	0.12	610035	keystroke	o	n/a
305.1225	0.075	610245	keystroke	n	n/a
305.2715	0.105	610543	keystroke	Key.space	n/a
305.4225	0.105	610845	keystroke	s	n/a
305.5425	0.12	611085	keystroke	u	n/a
305.7075	0.09	611415	keystroke	r	n/a
305.8725	0.075	611745	keystroke	f	n/a
306.0515	0.091	612103	keystroke	a	n/a
306.2475	0.12	612495	keystroke	c	n/a
306.4725	0.075	612945	keystroke	e	n/a
306.6375	0.089	613275	keystroke	s	n/a
306.7715	0.09	613543	keystroke	Key.space	n/a
307.0265	0.091	614053	keystroke	p	n/a
307.1765	0.091	614353	keystroke	r	n/a
307.2525	0.105	614505	keystroke	o	n/a
307.4015	0.075	614803	keystroke	b	n/a
307.6125	0.075	615225	keystroke	a	n/a
307.7325	0.09	615465	keystroke	b	n/a
307.9425	0.09	615885	keystroke	l	n/a
308.1075	0.089	616215	keystroke	y	n/a
308.2875	0.089	616575	keystroke	Key.space	n/a
308.5115	0.076	617023	keystroke	g	n/a
308.8275	0.09	617655	keystroke	y	n/a
309.2925	0.105	618585	keystroke	Key.backspace	n/a
309.4125	0.075	618825	keystroke	u	n/a
309.6825	0.09	619365	keystroke	e	n/a
309.9075	0.165	619815	keystroke	s	n/a
310.1475	0.09	620295	keystroke	t	n/a
310.3125	0.105	620625	keystroke	Key.enter	n/a
310.4255	7.0135	620851	prompt	n/a	zoning cargo boundaries though\n
311.2425	0.075	622485	keystroke	z	n/a
311.3325	0.104	622665	keystroke	o	n/a
311.4525	0.09	622905	keystroke	n	n/a
311.6025	0.18	623205	keystroke	i	n/a
311.6775	0.18	623355	keystroke	n	n/a
311.8875	0.09	623775	keystroke	g	n/a
312.0965	0.091	624193	keystroke	Key.space	n/a
312.2765	0.106	624553	keystroke	c	n/a
312.4275	0.135	624855	keystroke	a	n/a
312.6375	0.09	625275	keystroke	r	n/a
312.8315	0.091	625663	keystroke	g	n/a
312.9375	0.105	625875	keystroke	o	n/a
313.1465	0.091	626293	keystroke	Key.space	n/a
313.3725	0.06	626745	keystroke	b	n/a
313.5675	0.09	627135	keystroke	o	n/a
313.9275	0.105	627855	keystroke	u	n/a
314.2425	0.075	628485	keystroke	n	n/a
314.4065	0.061	628813	keystroke	d	n/a
314.5275	0.135	629055	keystroke	a	n/a
314.7825	0.104	629565	keystroke	r	n/a
314.8725	0.105	629745	keystroke	i	n/a
314.9625	0.075	629925	keystroke	e	n/a
315.1425	0.105	630285	keystroke	s	n/a
315.3065	0.105	630613	keystroke	Key.space	n/a
315.5475	0.089	631095	keystroke	t	n/a
315.6525	0.074	631305	keystroke	h	n/a
315.8775	0.09	631755	keystroke	o	n/a
316.2525	0.045	632505	keystroke	g	n/a
316.5975	0.074	633195	keystroke	Key.backspace	n/a
316.9125	0.09	633825	keystroke	u	n/a
317.0175	0.045	634035	keystroke	g	n/a
317.0925	0.09	634185	keystroke	h	n/a
317.3625	0.074	634725	keystroke	Key.enter	n/a
317.444	7.1655	634888	prompt	n/a	scuba firmware overnight electronic\n
318.1425	0.075	636285	keystroke	s	n/a
318.4425	0.135	636885	keystroke	u	n/a
318.8625	0.075	637725	keystroke	Key.backspace	n/a
319.0725	0.075	638145	keystroke	c	n/a
319.1775	0.105	638355	keystroke	u	n/a
319.3725	0.03	638745	keystroke	b	n/a
319.6125	0.075	639225	keystroke	a	n/a
319.7625	0.105	639525	keystroke	Key.space	n/a
319.9425	0.105	639885	keystroke	f	n/a
320.0625	0.075	640125	keystroke	i	n/a
320.1965	0.061	640393	keystroke	r	n/a
320.3775	0.075	640755	keystroke	m	n/a
320.5265	0.046	641053	keystroke	w	n/a
320.9625	0.105	641925	keystroke	a	n/a
321.2025	0.12	642405	keystroke	r	n/a
321.3075	0.089	642615	keystroke	e	n/a
321.4865	0.091	642973	keystroke	Key.space	n/a
321.6825	0.075	643365	keystroke	o	n/a
321.7875	0.075	643575	keystroke	v	n/a
321.9215	0.106	643843	keystroke	e	n/a
322.1025	0.06	644205	keystroke	r	n/a
322.2375	0.075	644475	keystroke	n	n/a
322.3875	0.075	644775	keystroke	i	n/a
322.5375	0.09	645075	keystroke	g	n/a
322.6125	0.12	645225	keystroke	h	n/a
322.7625	0.06	645525	keystroke	t	n/a
322.9115	0.061	645823	keystroke	Key.space	n/a
323.0025	0.06	646005	keystroke	e	n/a
323.0925	0.105	646185	keystroke	l	n/a
323.1525	0.06	646305	keystroke	e	n/a
323.3625	0.075	646725	keystroke	c	n/a
323.6925	0.12	647385	keystroke	t	n/a
323.7965	0.091	647593	keystroke	r	n/a
323.9025	0.104	647805	keystroke	o	n/a
324.0525	0.09	648105	keystroke	n	n/a
324.1875	0.09	648375	keystroke	i	n/a
324.3525	0.09	648705	keystroke	c	n/a
324.5325	0.074	649065	keystroke	Key.enter	n/a
324.615	7.2545	649230	prompt	n/a	collector account critical linking\n
325.2825	0.075	650565	keystroke	c	n/a
325.3875	0.105	650775	keystroke	o	n/a
325.6275	0.045	651255	keystroke	l	n/a
325.7325	0.074	651465	keystroke	l	n/a
325.9575	0.09	651915	keystroke	e	n/a
326.1525	0.09	652305	keystroke	c	n/a
326.4525	0.09	652905	keystroke	o	n/a
326.7975	0.105	653595	keystroke	Key.backspace	n/a
326.9775	0.075	653955	keystroke	t	n/a
327.1125	0.105	654225	keystroke	o	n/a
327.2475	0.09	654495	keystroke	r	n/a
327.4575	0.075	654915	keystroke	Key.space	n/a
327.6075	0.105	655215	keystroke	a	n/a
327.9825	0.09	655965	keystroke	c	n/a
328.1625	0.105	656325	keystroke	c	n/a
328.3725	0.045	656745	keystroke	o	n/a
328.6725	0.12	657345	keystroke	u	n/a
328.9125	0.06	657825	keystroke	n	n/a
328.9875	0.075	657975	keystroke	t	n/a
329.1225	0.12	658245	keystroke	Key.space	n/a
329.3175	0.12	658635	keystroke	c	n/a
329.5275	0.09	659055	keystroke	r	n/a
329.6925	0.09	659385	keystroke	i	n/a
329.8125	0.104	659625	keystroke	t	n/a
329.9325	0.12	659865	keystroke	i	n/a
330.0975	0.075	660195	keystroke	c	n/a
330.2175	0.09	660435	keystroke	a	n/a
330.2925	0.09	660585	keystroke	l	n/a
330.4725	0.09	660945	keystroke	Key.space	n/a
330.6525	0.075	661305	keystroke	l	n/a
330.8465	0.166	661693	keystroke	i	n/a
331.0275	0.09	662055	keystroke	n	n/a
331.2075	0.09	662415	keystroke	k	n/a
331.3725	0.165	662745	keystroke	i	n/a
331.4775	0.12	662955	keystroke	n	n/a
331.5985	0.074	663197	keystroke	g	n/a
331.7625	0.105	663525	keystroke	Key.enter	n/a
331.8755	5.7685	663751	prompt	n/a	inform featuring achieved stylus\n
332.4825	0.12	664965	keystroke	i	n/a
332.6035	0.089	665207	keystroke	n	n/a
332.7075	0.105	665415	keystroke	f	n/a
332.7975	0.15	665595	keystroke	o	n/a
332.9325	0.06	665865	keystroke	r	n/a
333.0225	0.09	666045	keystroke	m	n/a
333.2025	0.105	666405	keystroke	Key.space	n/a
333.3675	0.06	666735	keystroke	f	n/a
333.4875	0.075	666975	keystroke	e	n/a
333.6675	0.105	667335	keystroke	a	n/a
333.8925	0.075	667785	keystroke	t	n/a
333.9525	0.105	667905	keystroke	u	n/a
334.0725	0.09	668145	keystroke	r	n/a
334.1475	0.195	668295	keystroke	i	n/a
334.2825	0.105	668565	keystroke	n	n/a
334.3725	0.075	668745	keystroke	g	n/a
334.5225	0.105	669045	keystroke	Key.space	n/a
334.6425	0.075	669285	keystroke	a	n/a
334.8675	0.06	669735	keystroke	c	n/a
334.9425	0.105	669885	keystroke	h	n/a
335.1525	0.09	670305	keystroke	i	n/a
335.2275	0.06	670455	keystroke	e	n/a
335.3925	0.12	670785	keystroke	v	n/a
335.5275	0.105	671055	keystroke	e	n/a
335.7375	0.09	671475	keystroke	d	n/a
335.9475	0.12	671895	keystroke	Key.space	n/a
336.0975	0.105	672195	keystroke	s	n/a
336.3225	0.06	672645	keystroke	t	n/a
336.4875	0.09	672975	keystroke	y	n/a
336.9825	0.09	673965	keystroke	l	n/a
337.2525	0.09	674505	keystroke	u	n/a
337.4325	0.09	674865	keystroke	s	n/a
337.5675	0.075	675135	keystroke	Key.enter	n/a
337.6495	8.8605	675299	prompt	n/a	essentially queue trips quotations\n
338.2425	0.09	676485	keystroke	e	n/a
338.5125	0.06	677025	keystroke	s	n/a
338.6625	0.045	677325	keystroke	s	n/a
338.8125	0.09	677625	keystroke	e	n/a
338.9175	0.105	677835	keystroke	n	n/a
339.0375	0.09	678075	keystroke	t	n/a
339.1725	0.105	678345	keystroke	i	n/a
339.3225	0.09	678645	keystroke	a	n/a
339.4875	0.06	678975	keystroke	l	n/a
339.6525	0.06	679305	keystroke	l	n/a
339.7875	0.09	679575	keystroke	y	n/a
339.9675	0.09	679935	keystroke	Key.space	n/a
340.2225	0.09	680445	keystroke	q	n/a
340.3425	0.135	680685	keystroke	u	n/a
340.8375	0.105	681675	keystroke	e	n/a
341.8575	0.105	683715	keystroke	u	n/a
341.9925	0.105	683985	keystroke	e	n/a
342.1725	0.105	684345	keystroke	Key.space	n/a
342.3225	0.09	684645	keystroke	t	n/a
342.5025	0.075	685005	keystroke	r	n/a
342.6225	0.105	685245	keystroke	i	n/a
342.8775	0.075	685755	keystroke	p	n/a
343.0575	0.075	686115	keystroke	s	n/a
344.0025	0.12	688005	keystroke	Key.space	n/a
344.2875	0.075	688575	keystroke	q	n/a
344.4075	0.105	688815	keystroke	u	n/a
344.6475	0.105	689295	keystroke	o	n/a
344.7825	0.075	689565	keystroke	t	n/a
345.0225	0.12	690045	keystroke	a	n/a
345.5025	0.09	691005	keystroke	t	n/a
345.9225	0.075	691845	keystroke	i	n/a
346.0725	0.165	692145	keystroke	o	n/a
346.1925	0.12	692385	keystroke	n	n/a
346.2675	0.12	692535	keystroke	s	n/a
346.4175	0.09	692835	keystroke	Key.enter	n/a
346.5155	7.1195	693031	prompt	n/a	jokes sick rhode mysql\n
347.2425	0.06	694485	keystroke	j	n/a
347.4375	0.15	694875	keystroke	o	n/a
347.5425	0.12	695085	keystroke	k	n/a
347.6625	0.075	695325	keystroke	e	n/a
347.8275	0.075	695655	keystroke	s	n/a
348.0225	0.075	696045	keystroke	Key.space	n/a
348.1725	0.105	696345	keystroke	s	n/a
348.2625	0.12	696525	keystroke	i	n/a
348.5475	0.105	697095	keystroke	c	n/a
348.7725	0.075	697545	keystroke	k	n/a
348.9825	0.09	697965	keystroke	Key.space	n/a
349.2825	0.135	698565	keystroke	r	n/a
349.4775	0.09	698955	keystroke	h	n/a
349.7175	0.075	699435	keystroke	o	n/a
349.8675	0.15	699735	keystroke	d	n/a
350.0925	0.09	700185	keystroke	e	n/a
350.2125	0.105	700425	keystroke	Key.space	n/a
350.4675	0.09	700935	keystroke	m	n/a
350.7825	0.075	701565	keystroke	y	n/a
351.6675	0.075	703335	keystroke	s	n/a
352.2675	0.075	704535	keystroke	q	n/a
353.2575	0.09	706515	keystroke	l	n/a
353.6175	0.015	707235	keystroke	Key.enter	n/a
353.64	8.02	707280	prompt	n/a	commissions consequence instructions northeast\n
354.3675	0.105	708735	keystroke	c	n/a
354.5325	0.075	709065	keystroke	o	n/a
354.8025	0.045	709605	keystroke	m	n/a
355.0275	0.015	710055	keystroke	m	n/a
355.1025	0.105	710205	keystroke	i	n/a
355.2675	0.06	710535	keystroke	s	n/a
355.3875	0.09	710775	keystroke	s	n/a
355.5375	0.06	711075	keystroke	i	n/a
355.6875	0.165	711375	keystroke	o	n/a
355.7925	0.12	711585	keystroke	n	n/a
355.9275	0.09	711855	keystroke	s	n/a
356.0325	0.12	712065	keystroke	Key.space	n/a
356.1975	0.09	712395	keystroke	c	n/a
356.3025	0.15	712605	keystroke	o	n/a
356.4075	0.12	712815	keystroke	n	n/a
356.4975	0.075	712995	keystroke	s	n/a
356.6775	0.09	713355	keystroke	e	n/a
356.9175	0.09	713835	keystroke	q	n/a
357.0375	0.09	714075	keystroke	u	n/a
357.1575	0.09	714315	keystroke	e	n/a
357.2925	0.105	714585	keystroke	n	n/a
357.4125	0.105	714825	keystroke	c	n/a
357.5475	0.12	715095	keystroke	e	n/a
357.6975	0.105	715395	keystroke	Key.space	n/a
357.9525	0.12	715905	keystroke	i	n/a
358.0575	0.105	716115	keystroke	n	n/a
358.1175	0.12	716235	keystroke	s	n/a
358.4175	0.105	716835	keystroke	t	n/a
358.5075	0.105	717015	keystroke	r	n/a
358.5975	0.09	717195	keystroke	u	n/a
358.7325	0.15	717465	keystroke	c	n/a
359.0325	0.09	718065	keystroke	t	n/a
359.1225	0.09	718245	keystroke	i	n/a
359.2875	0.18	718575	keystroke	o	n/a
359.4075	0.12	718815	keystroke	n	n/a
359.5425	0.09	719085	keystroke	s	n/a
359.6625	0.105	719325	keystroke	Key.space	n/a
359.8725	0.075	719745	keystroke	n	n/a
359.9775	0.105	719955	keystroke	o	n/a
360.1275	0.075	720255	keystroke	r	n/a
360.2775	0.105	720555	keystroke	t	n/a
360.4425	0.06	720885	keystroke	h	n/a
360.7275	0.105	721455	keystroke	e	n/a
360.9825	0.06	721965	keystroke	a	n/a
361.1475	0.075	722295	keystroke	s	n/a
361.4625	0.09	722925	keystroke	t	n/a
361.5675	0.09	723135	keystroke	Key.enter	n/a
361.6715	6.364	723343	prompt	n/a	excess lifetime black cluster\n
362.2425	0.105	724485	keystroke	e	n/a
362.5725	0.075	725145	keystroke	x	n/a
362.7525	0.09	725505	keystroke	c	n/a
362.8725	0.105	725745	keystroke	e	n/a
363.0975	0.03	726195	keystroke	s	n/a
363.2025	0.09	726405	keystroke	s	n/a
363.3675	0.09	726735	keystroke	Key.space	n/a
363.5925	0.09	727185	keystroke	l	n/a
363.7875	0.105	727575	keystroke	i	n/a
363.8775	0.075	727755	keystroke	f	n/a
363.9675	0.105	727935	keystroke	e	n/a
364.2075	0.09	728415	keystroke	t	n/a
364.3275	0.09	728655	keystroke	i	n/a
364.5225	0.09	729045	keystroke	m	n/a
364.6425	0.09	729285	keystroke	e	n/a
364.7625	0.09	729525	keystroke	Key.space	n/a
364.9875	0.105	729975	keystroke	b	n/a
365.2425	0.075	730485	keystroke	l	n/a
365.3325	0.06	730665	keystroke	a	n/a
365.5275	0.09	731055	keystroke	c	n/a
365.5875	0.09	731175	keystroke	k	n/a
365.7825	0.09	731565	keystroke	Key.space	n/a
366.0075	0.075	732015	keystroke	c	n/a
366.0825	0.135	732165	keystroke	l	n/a
366.3825	0.12	732765	keystroke	u	n/a
366.4725	0.12	732945	keystroke	s	n/a
366.7575	0.09	733515	keystroke	t	n/a
366.8925	0.12	733785	keystroke	e	n/a
367.0875	0.105	734175	keystroke	r	n/a
367.9725	0.06	735945	keystroke	Key.enter	n/a
368.0395	5.0655	736079	prompt	n/a	private societies leading faced\n
368.7225	0.09	737445	keystroke	p	n/a
368.8575	0.09	737715	keystroke	r	n/a
368.9625	0.135	737925	keystroke	i	n/a
369.1275	0.06	738255	keystroke	v	n/a
369.2475	0.135	738495	keystroke	a	n/a
369.5025	0.135	739005	keystroke	t	n/a
369.5775	0.12	739155	keystroke	e	n/a
369.8025	0.09	739605	keystroke	Key.space	n/a
369.9075	0.09	739815	keystroke	s	n/a
370.0575	0.09	740115	keystroke	o	n/a
370.1625	0.09	740325	keystroke	c	n/a
370.3425	0.09	740685	keystroke	i	n/a
370.4325	0.075	740865	keystroke	e	n/a
370.6425	0.06	741285	keystroke	t	n/a
370.7475	0.09	741495	keystroke	i	n/a
370.8375	0.06	741675	keystroke	e	n/a
371.0175	0.06	742035	keystroke	s	n/a
371.1225	0.075	742245	keystroke	Key.space	n/a
371.3025	0.09	742605	keystroke	l	n/a
371.3775	0.075	742755	keystroke	e	n/a
371.5725	0.075	743145	keystroke	a	n/a
371.7225	0.075	743445	keystroke	d	n/a
371.7825	0.165	743565	keystroke	i	n/a
371.8875	0.12	743775	keystroke	n	n/a
371.9775	0.075	743955	keystroke	g	n/a
372.1425	0.12	744285	keystroke	Key.space	n/a
372.1725	0.06	744345	keystroke	f	n/a
372.3375	0.09	744675	keystroke	a	n/a
372.5175	0.12	745035	keystroke	c	n/a
372.6675	0.135	745335	keystroke	e	n/a
372.8775	0.09	745755	keystroke	d	n/a
372.9975	0.105	745995	keystroke	Key.enter	n/a
373.1155	6.3335	746231	prompt	n/a	save indicating conviction ambient\n
373.6725	0.09	747345	keystroke	s	n/a
373.8525	0.09	747705	keystroke	a	n/a
374.0325	0.105	748065	keystroke	v	n/a
374.1675	0.12	748335	keystroke	e	n/a
374.3175	0.075	748635	keystroke	Key.space	n/a
374.5425	0.15	749085	keystroke	i	n/a
374.6625	0.135	749325	keystroke	n	n/a
374.7825	0.075	749565	keystroke	d	n/a
374.8875	0.12	749775	keystroke	i	n/a
374.9775	0.045	749955	keystroke	c	n/a
375.0675	0.12	750135	keystroke	a	n/a
375.3225	0.105	750645	keystroke	t	n/a
375.4425	0.165	750885	keystroke	i	n/a
375.5025	0.15	751005	keystroke	n	n/a
375.6525	0.075	751305	keystroke	g	n/a
375.7875	0.135	751575	keystroke	Key.space	n/a
376.0125	0.105	752025	keystroke	c	n/a
376.1325	0.15	752265	keystroke	o	n/a
376.3125	0.12	752625	keystroke	n	n/a
376.9125	0.09	753825	keystroke	v	n/a
377.0175	0.105	754035	keystroke	i	n/a
377.1675	0.09	754335	keystroke	c	n/a
377.4225	0.09	754845	keystroke	t	n/a
377.5575	0.075	755115	keystroke	i	n/a
377.7225	0.135	755445	keystroke	o	n/a
377.8425	0.105	755685	keystroke	n	n/a
378.3075	0.105	756615	keystroke	Key.space	n/a
378.4425	0.075	756885	keystroke	a	n/a
378.5625	0.09	757125	keystroke	m	n/a
378.6825	0.135	757365	keystroke	b	n/a
378.8325	0.105	757665	keystroke	i	n/a
378.9675	0.09	757935	keystroke	e	n/a
379.0725	0.12	758145	keystroke	n	n/a
379.2375	0.075	758475	keystroke	t	n/a
379.3425	0.105	758685	keystroke	Key.enter	n/a
379.4535	8.324	758907	prompt	n/a	suburban opposed response europe\n
380.0625	0.075	760125	keystroke	s	n/a
380.1525	0.12	760305	keystroke	u	n/a
380.5125	0.09	761025	keystroke	b	n/a
380.9175	0.105	761835	keystroke	u	n/a
381.0825	0.075	762165	keystroke	r	n/a
381.2475	0.075	762495	keystroke	b	n/a
381.4875	0.075	762975	keystroke	n	n/a
382.6125	0.105	765225	keystroke	Key.backspace	n/a
383.0475	0.06	766095	keystroke	a	n/a
383.1375	0.075	766275	keystroke	n	n/a
383.3025	0.09	766605	keystroke	Key.space	n/a
383.5575	0.075	767115	keystroke	i	n/a
384.0825	0.09	768165	keystroke	Key.backspace	n/a
384.3975	0.09	768795	keystroke	o	n/a
384.6375	0.06	769275	keystroke	p	n/a
384.7725	0.06	769545	keystroke	p	n/a
384.9225	0.06	769845	keystroke	o	n/a
384.9975	0.075	769995	keystroke	s	n/a
385.2075	0.06	770415	keystroke	e	n/a
385.3725	0.075	770745	keystroke	d	n/a
385.4625	0.075	770925	keystroke	Key.space	n/a
385.5825	0.075	771165	keystroke	r	n/a
385.7475	0.045	771495	keystroke	e	n/a
385.8975	0.09	771795	keystroke	s	n/a
386.0025	0.09	772005	keystroke	p	n/a
386.1675	0.195	772335	keystroke	o	n/a
386.3175	0.135	772635	keystroke	n	n/a
386.3925	0.075	772785	keystroke	s	n/a
386.5575	0.075	773115	keystroke	e	n/a
386.6625	0.105	773325	keystroke	Key.space	n/a
386.7975	0.09	773595	keystroke	e	n/a
386.9025	0.105	773805	keystroke	u	n/a
387.0225	0.09	774045	keystroke	r	n/a
387.1875	0.09	774375	keystroke	o	n/a
387.3675	0.09	774735	keystroke	p	n/a
387.4725	0.12	774945	keystroke	e	n/a
387.6825	0.075	775365	keystroke	Key.enter	n/a
387.7935	5.261	775587	prompt	n/a	rapids value yields wendy\n
388.4025	0.09	776805	keystroke	r	n/a
388.6275	0.045	777255	keystroke	a	n/a
388.7175	0.075	777435	keystroke	p	n/a
388.9125	0.105	777825	keystroke	i	n/a
389.0325	0.15	778065	keystroke	d	n/a
389.1075	0.15	778215	keystroke	s	n/a
389.3325	0.09	778665	keystroke	Key.space	n/a
389.4375	0.06	778875	keystroke	v	n/a
389.5875	0.09	779175	keystroke	a	n/a
389.6925	0.09	779385	keystroke	l	n/a
389.9325	0.135	779865	keystroke	u	n/a
390.0975	0.09	780195	keystroke	e	n/a
390.2625	0.12	780525	keystroke	Key.space	n/a
390.5025	0.06	781005	keystroke	t	n/a
390.8625	0.09	781725	keystroke	Key.backspace	n/a
391.0275	0.105	782055	keystroke	y	n/a
391.2375	0.045	782475	keystroke	i	n/a
391.4175	0.12	782835	keystroke	e	n/a
391.5525	0.09	783105	keystroke	l	n/a
391.6875	0.105	783375	keystroke	d	n/a
391.7475	0.12	783495	keystroke	s	n/a
391.9125	0.12	783825	keystroke	Key.space	n/a
392.0475	0.12	784095	keystroke	w	n/a
392.2725	0.075	784545	keystroke	e	n/a
392.3775	0.135	784755	keystroke	n	n/a
392.4825	0.105	784965	keystroke	d	n/a
392.6025	0.12	785205	keystroke	y	n/a
392.9625	0.09	785925	keystroke	Key.enter	n/a
393.06	5.0945	786120	prompt	n/a	memories wireless rats teaching\n
393.6535	0.059	787307	keystroke	m	n/a
393.7725	0.09	787545	keystroke	e	n/a
393.8475	0.06	787695	keystroke	m	n/a
393.9225	0.09	787845	keystroke	o	n/a
394.0275	0.075	788055	keystroke	r	n/a
394.1325	0.12	788265	keystroke	i	n/a
394.2225	0.075	788445	keystroke	e	n/a
394.4025	0.09	788805	keystroke	s	n/a
394.5525	0.09	789105	keystroke	Key.space	n/a
394.6875	0.12	789375	keystroke	w	n/a
394.8225	0.09	789645	keystroke	i	n/a
395.0025	0.12	790005	keystroke	r	n/a
395.0775	0.06	790155	keystroke	e	n/a
395.1975	0.09	790395	keystroke	l	n/a
395.3025	0.09	790605	keystroke	e	n/a
395.5275	0.06	791055	keystroke	s	n/a
395.6775	0.075	791355	keystroke	s	n/a
395.8125	0.09	791625	keystroke	Key.space	n/a
395.9475	0.075	791895	keystroke	r	n/a
396.1125	0.105	792225	keystroke	a	n/a
396.3675	0.105	792735	keystroke	t	n/a
396.5775	0.12	793155	keystroke	s	n/a
396.7125	0.12	793425	keystroke	Key.space	n/a
396.8475	0.12	793695	keystroke	t	n/a
396.9375	0.12	793875	keystroke	e	n/a
397.1625	0.09	794325	keystroke	a	n/a
397.372	0.0905	794744	keystroke	c	n/a
397.4925	0.075	794985	keystroke	h	n/a
397.6575	0.135	795315	keystroke	i	n/a
397.7935	0.119	795587	keystroke	n	n/a
397.8975	0.075	795795	keystroke	g	n/a
398.0475	0.105	796095	keystroke	Key.enter	n/a
398.1605	7.0745	796321	prompt	n/a	lovers promote syndicate complicated\n
398.767	0.0905	797534	keystroke	l	n/a
398.9475	0.0895	797895	keystroke	o	n/a
399.052	0.06	798104	keystroke	v	n/a
399.1725	0.1045	798345	keystroke	e	n/a
399.367	0.0605	798734	keystroke	r	n/a
399.5325	0.075	799065	keystroke	s	n/a
399.6225	0.09	799245	keystroke	Key.space	n/a
399.8925	0.03	799785	keystroke	p	n/a
399.9075	0.09	799815	keystroke	r	n/a
400.0425	0.135	800085	keystroke	o	n/a
400.6125	0.075	801225	keystroke	m	n/a
400.717	0.1055	801434	keystroke	o	n/a
400.837	0.0605	801674	keystroke	t	n/a
401.047	0.0605	802094	keystroke	e	n/a
401.2275	0.0895	802455	keystroke	Key.space	n/a
401.3775	0.075	802755	keystroke	s	n/a
401.5725	0.1345	803145	keystroke	y	n/a
401.8275	0.09	803655	keystroke	n	n/a
401.9025	0.0895	803805	keystroke	d	n/a
402.0075	0.15	804015	keystroke	i	n/a
402.1725	0.0745	804345	keystroke	c	n/a
402.322	0.1205	804644	keystroke	a	n/a
402.6225	0.135	805245	keystroke	t	n/a
402.7425	0.105	805485	keystroke	e	n/a
402.8775	0.1195	805755	keystroke	Key.space	n/a
403.1775	0.075	806355	keystroke	c	n/a
403.3425	0.2095	806685	keystroke	o	n/a
403.567	0.075	807134	keystroke	m	n/a
403.762	0.1205	807524	keystroke	p	n/a
403.8525	0.0895	807705	keystroke	l	n/a
404.062	0.1205	808124	keystroke	i	n/a
404.1975	0.0445	808395	keystroke	c	n/a
404.287	0.135	808574	keystroke	a	n/a
404.6325	0.075	809265	keystroke	t	n/a
404.842	0.0605	809684	keystroke	e	n/a
405.007	0.105	810014	keystroke	d	n/a
405.142	0.09	810284	keystroke	Key.enter	n/a
405.2415	7.5985	810483	prompt	n/a	hiking deliver extension lafayette\n
405.877	0.06	811754	keystroke	h	n/a
406.072	0.09	812144	keystroke	i	n/a
406.312	0.0905	812624	keystroke	k	n/a
406.4935	0.134	812987	keystroke	i	n/a
406.5975	0.1045	813195	keystroke	n	n/a
406.7325	0.0595	813465	keystroke	g	n/a
406.8825	0.09	813765	keystroke	Key.space	n/a
407.047	0.09	814094	keystroke	d	n/a
407.1975	0.0895	814395	keystroke	e	n/a
407.302	0.09	814604	keystroke	l	n/a
407.482	0.12	814964	keystroke	i	n/a
407.587	0.0755	815174	keystroke	v	n/a
407.708	0.074	815416	keystroke	e	n/a
407.858	0.074	815716	keystroke	r	n/a
407.977	0.105	815954	keystroke	Key.space	n/a
408.067	0.06	816134	keystroke	e	n/a
408.322	0.105	816644	keystroke	x	n/a
408.563	0.105	817126	keystroke	t	n/a
408.772	0.075	817544	keystroke	e	n/a
409.027	0.075	818054	keystroke	s	n/a
409.522	0.121	819044	keystroke	\	n/a
409.807	0.09	819614	keystroke	Key.backspace	n/a
409.957	0.075	819914	keystroke	Key.backspace	n/a
410.213	0.105	820426	keystroke	n	n/a
410.408	0.059	820816	keystroke	s	n/a
410.497	0.105	820994	keystroke	i	n/a
410.693	0.149	821386	keystroke	o	n/a
410.798	0.134	821596	keystroke	n	n/a
411.037	0.06	822074	keystroke	Key.space	n/a
411.202	0.105	822404	keystroke	l	n/a
411.412	0.075	822824	keystroke	a	n/a
411.593	0.075	823186	keystroke	f	n/a
411.743	0.075	823486	keystroke	a	n/a
411.967	0.105	823934	keystroke	y	n/a
412.117	0.076	824234	keystroke	e	n/a
412.312	0.06	824624	keystroke	t	n/a
412.448	0.06	824896	keystroke	t	n/a
412.612	0.076	825224	keystroke	e	n/a
412.732	0.105	825464	keystroke	Key.enter	n/a
412.8455	6.129	825691	prompt	n/a	align logos submissions tremendous\n
413.483	0.06	826966	keystroke	a	n/a
413.587	0.105	827174	keystroke	l	n/a
413.798	0.12	827596	keystroke	i	n/a
413.933	0.075	827866	keystroke	g	n/a
414.037	0.091	828074	keystroke	n	n/a
414.232	0.106	828464	keystroke	Key.space	n/a
414.668	0.09	829336	keystroke	l	n/a
414.862	0.075	829724	keystroke	o	n/a
414.982	0.076	829964	keystroke	g	n/a
415.043	0.09	830086	keystroke	o	n/a
415.283	0.06	830566	keystroke	s	n/a
415.402	0.105	830804	keystroke	Key.space	n/a
415.598	0.06	831196	keystroke	s	n/a
415.763	0.089	831526	keystroke	u	n/a
415.958	0.104	831916	keystroke	b	n/a
416.228	0.12	832456	keystroke	m	n/a
416.423	0.119	832846	keystroke	i	n/a
416.6325	0.0605	833265	keystroke	s	n/a
416.7525	0.059	833505	keystroke	s	n/a
416.843	0.075	833686	keystroke	i	n/a
417.0075	0.1505	834015	keystroke	o	n/a
417.098	0.104	834196	keystroke	n	n/a
417.232	0.0895	834464	keystroke	s	n/a
417.3075	0.12	834615	keystroke	Key.space	n/a
417.548	0.0745	835096	keystroke	t	n/a
417.7425	0.104	835485	keystroke	r	n/a
417.8165	0.076	835633	keystroke	e	n/a
417.9215	0.0915	835843	keystroke	m	n/a
417.9825	0.104	835965	keystroke	e	n/a
418.1165	0.106	836233	keystroke	n	n/a
418.2675	0.09	836535	keystroke	d	n/a
418.3425	0.1055	836685	keystroke	o	n/a
418.5375	0.105	837075	keystroke	u	n/a
418.6875	0.105	837375	keystroke	s	n/a
418.8965	0.075	837793	keystroke	Key.enter	n/a
418.9785	5.7865	837957	prompt	n/a	delays kept bones dosage\n
419.5725	0.1045	839145	keystroke	d	n/a
419.722	0.0905	839444	keystroke	e	n/a
419.9175	0.119	839835	keystroke	k	n/a
420.4265	0.105	840853	keystroke	Key.backspace	n/a
420.802	0.0905	841604	keystroke	l	n/a
420.9375	0.074	841875	keystroke	a	n/a
421.0875	0.105	842175	keystroke	y	n/a
421.2225	0.104	842445	keystroke	s	n/a
421.3415	0.075	842683	keystroke	Key.space	n/a
421.5365	0.105	843073	keystroke	k	n/a
421.8375	0.105	843675	keystroke	e	n/a
422.0015	0.106	844003	keystroke	p	n/a
422.1515	0.136	844303	keystroke	t	n/a
422.3015	0.105	844603	keystroke	Key.space	n/a
422.4225	0.075	844845	keystroke	b	n/a
422.5425	0.119	845085	keystroke	o	n/a
422.6175	0.134	845235	keystroke	n	n/a
422.7375	0.075	845475	keystroke	e	n/a
422.9175	0.074	845835	keystroke	s	n/a
423.0515	0.105	846103	keystroke	Key.space	n/a
423.2625	0.074	846525	keystroke	d	n/a
423.3825	0.09	846765	keystroke	o	n/a
423.5015	0.106	847003	keystroke	a	n/a
423.9215	0.09	847843	keystroke	Key.backspace	n/a
424.0275	0.12	848055	keystroke	s	n/a
424.1625	0.12	848325	keystroke	a	n/a
424.4325	0.12	848865	keystroke	g	n/a
424.4775	0.165	848955	keystroke	e	n/a
424.6875	0.075	849375	keystroke	Key.enter	n/a
424.7705	5.6335	849541	prompt	n/a	scan newark stainless question\n
425.3325	0.074	850665	keystroke	s	n/a
425.5575	0.134	851115	keystroke	c	n/a
425.7675	0.105	851535	keystroke	a	n/a
425.9015	0.075	851803	keystroke	n	n/a
426.0815	0.06	852163	keystroke	Key.space	n/a
426.2175	0.09	852435	keystroke	n	n/a
426.3075	0.074	852615	keystroke	e	n/a
426.5165	0.076	853033	keystroke	w	n/a
426.6825	0.075	853365	keystroke	a	n/a
426.9075	0.105	853815	keystroke	r	n/a
427.0415	0.09	854083	keystroke	k	n/a
427.2515	0.09	854503	keystroke	Key.space	n/a
427.3715	0.106	854743	keystroke	s	n/a
427.5825	0.089	855165	keystroke	t	n/a
427.7765	0.076	855553	keystroke	a	n/a
427.8075	0.119	855615	keystroke	i	n/a
427.8965	0.121	855793	keystroke	n	n/a
428.1075	0.105	856215	keystroke	l	n/a
428.2575	0.075	856515	keystroke	e	n/a
428.4675	0.045	856935	keystroke	s	n/a
428.6015	0.061	857203	keystroke	s	n/a
428.7215	0.12	857443	keystroke	Key.space	n/a
429.2475	0.015	858495	keystroke	q	n/a
429.2775	0.014	858555	keystroke	u	n/a
429.3225	0.06	858645	keystroke	e	n/a
429.4725	0.105	858945	keystroke	s	n/a
429.7125	0.105	859425	keystroke	t	n/a
429.8465	0.076	859693	keystroke	i	n/a
430.0115	0.151	860023	keystroke	o	n/a
430.1025	0.105	860205	keystroke	n	n/a
430.3275	0.074	860655	keystroke	Key.enter	n/a
430.413	5.031	860826	prompt	n/a	motorola refine shoe canal\n
431.0015	0.106	862003	keystroke	m	n/a
431.2865	0.105	862573	keystroke	o	n/a
431.5875	0.09	863175	keystroke	t	n/a
431.9325	0.165	863865	keystroke	o	n/a
432.3365	0.076	864673	keystroke	r	n/a
432.5175	0.09	865035	keystroke	o	n/a
432.7125	0.075	865425	keystroke	l	n/a
432.8625	0.089	865725	keystroke	a	n/a
432.9675	0.119	865935	keystroke	Key.space	n/a
433.1325	0.09	866265	keystroke	r	n/a
433.1925	0.09	866385	keystroke	e	n/a
433.4015	0.091	866803	keystroke	f	n/a
433.4775	0.135	866955	keystroke	i	n/a
433.5815	0.106	867163	keystroke	n	n/a
433.6715	0.061	867343	keystroke	e	n/a
433.8065	0.12	867613	keystroke	Key.space	n/a
433.9275	0.09	867855	keystroke	s	n/a
434.0325	0.09	868065	keystroke	h	n/a
434.2275	0.105	868455	keystroke	o	n/a
434.3175	0.09	868635	keystroke	e	n/a
434.4665	0.105	868933	keystroke	Key.space	n/a
434.6025	0.06	869205	keystroke	c	n/a
434.7965	0.075	869593	keystroke	a	n/a
434.8875	0.105	869775	keystroke	n	n/a
434.9765	0.046	869953	keystroke	a	n/a
435.1265	0.106	870253	keystroke	l	n/a
435.3815	0.061	870763	keystroke	Key.enter	n/a
435.449	6.1	870898	prompt	n/a	exterior kent revolution locks\n
436.0275	0.075	872055	keystroke	e	n/a
436.2525	0.105	872505	keystroke	x	n/a
436.6275	0.015	873255	keystroke	t	n/a
436.8375	0.059	873675	keystroke	e	n/a
437.0175	0.09	874035	keystroke	r	n/a
437.2575	0.09	874515	keystroke	i	n/a
437.4525	0.105	874905	keystroke	o	n/a
437.5725	0.045	875145	keystroke	r	n/a
437.6915	0.09	875383	keystroke	Key.space	n/a
437.8425	0.105	875685	keystroke	k	n/a
438.0225	0.09	876045	keystroke	n	n/a
438.4275	0.074	876855	keystroke	Key.backspace	n/a
438.5475	0.075	877095	keystroke	e	n/a
438.6825	0.105	877365	keystroke	n	n/a
438.8625	0.06	877725	keystroke	t	n/a
438.9515	0.09	877903	keystroke	Key.space	n/a
439.1015	0.061	878203	keystroke	r	n/a
439.2515	0.091	878503	keystroke	e	n/a
439.4475	0.074	878895	keystroke	v	n/a
439.4925	0.075	878985	keystroke	o	n/a
439.6575	0.089	879315	keystroke	l	n/a
439.8825	0.089	879765	keystroke	u	n/a
440.0175	0.12	880035	keystroke	t	n/a
440.1525	0.06	880305	keystroke	i	n/a
440.2875	0.165	880575	keystroke	o	n/a
440.3925	0.119	880785	keystroke	n	n/a
440.6315	0.075	881263	keystroke	Key.space	n/a
440.7975	0.075	881595	keystroke	l	n/a
440.9475	0.09	881895	keystroke	o	n/a
441.0965	0.046	882193	keystroke	c	n/a
441.1575	0.089	882315	keystroke	k	n/a
441.3075	0.075	882615	keystroke	s	n/a
441.4875	0.059	882975	keystroke	Key.enter	n/a
441.5545	4.7195	883109	prompt	n/a	trust areas brook scenic\n
442.2515	0.061	884503	keystroke	t	n/a
442.4175	0.045	884835	keystroke	r	n/a
442.4775	0.09	884955	keystroke	u	n/a
442.5975	0.09	885195	keystroke	s	n/a
442.7175	0.06	885435	keystroke	t	n/a
442.9425	0.09	885885	keystroke	Key.space	n/a
443.0475	0.075	886095	keystroke	a	n/a
443.2425	0.15	886485	keystroke	r	n/a
443.3775	0.074	886755	keystroke	e	n/a
443.5725	0.06	887145	keystroke	a	n/a
443.7075	0.075	887415	keystroke	s	n/a
443.7675	0.074	887535	keystroke	Key.space	n/a
443.9475	0.09	887895	keystroke	b	n/a
444.1415	0.091	888283	keystroke	r	n/a
444.2775	0.075	888555	keystroke	o	n/a
444.4275	0.15	888855	keystroke	o	n/a
444.5625	0.09	889125	keystroke	k	n/a
444.8175	0.15	889635	keystroke	Key.space	n/a
444.9525	0.074	889905	keystroke	s	n/a
445.1625	0.09	890325	keystroke	c	n/a
445.6875	0.075	891375	keystroke	e	n/a
445.7925	0.075	891585	keystroke	n	n/a
445.9125	0.105	891825	keystroke	i	n/a
446.0325	0.119	892065	keystroke	c	n/a
446.1825	0.09	892365	keystroke	Key.enter	n/a
446.28	6.8935	892560	prompt	n/a	suggestions insured vendors relationship\n
447.0375	0.105	894075	keystroke	s	n/a
447.1575	0.015	894315	keystroke	u	n/a
447.2025	0.045	894405	keystroke	g	n/a
447.3075	0.075	894615	keystroke	g	n/a
447.5175	0.059	895035	keystroke	e	n/a
447.6825	0.075	895365	keystroke	s	n/a
447.9825	0.09	895965	keystroke	t	n/a
448.1015	0.091	896203	keystroke	i	n/a
448.2675	0.15	896535	keystroke	o	n/a
448.3575	0.105	896715	keystroke	n	n/a
448.4775	0.074	896955	keystroke	s	n/a
448.5965	0.105	897193	keystroke	Key.space	n/a
448.8075	0.165	897615	keystroke	i	n/a
448.9275	0.105	897855	keystroke	n	n/a
449.0475	0.09	898095	keystroke	s	n/a
449.1375	0.075	898275	keystroke	u	n/a
449.2725	0.075	898545	keystroke	r	n/a
449.4675	0.045	898935	keystroke	e	n/a
449.6325	0.06	899265	keystroke	d	n/a
449.7665	0.105	899533	keystroke	Key.space	n/a
449.9775	0.06	899955	keystroke	v	n/a
450.1125	0.06	900225	keystroke	e	n/a
450.2325	0.059	900465	keystroke	n	n/a
450.3075	0.075	900615	keystroke	d	n/a
450.4725	0.09	900945	keystroke	o	n/a
450.5775	0.075	901155	keystroke	r	n/a
450.7875	0.03	901575	keystroke	s	n/a
450.8925	0.104	901785	keystroke	Key.space	n/a
451.1325	0.105	902265	keystroke	r	n/a
451.2075	0.12	902415	keystroke	e	n/a
451.3725	0.105	902745	keystroke	l	n/a
451.4775	0.075	902955	keystroke	a	n/a
451.7325	0.075	903465	keystroke	t	n/a
451.8225	0.075	903645	keystroke	i	n/a
452.0025	0.15	904005	keystroke	o	n/a
452.1365	0.061	904273	keystroke	n	n/a
452.3015	0.076	904603	keystroke	s	n/a
452.4525	0.075	904905	keystroke	h	n/a
452.5875	0.105	905175	keystroke	i	n/a
452.8575	0.075	905715	keystroke	p	n/a
453.0825	0.089	906165	keystroke	Key.enter	n/a
453.1785	4.9005	906357	prompt	n/a	respondent exams crack quiz\n
453.8025	0.075	907605	keystroke	r	n/a
453.9825	0.06	907965	keystroke	e	n/a
454.1475	0.075	908295	keystroke	s	n/a
454.2375	0.09	908475	keystroke	p	n/a
454.4175	0.165	908835	keystroke	o	n/a
454.5375	0.135	909075	keystroke	n	n/a
454.6125	0.09	909225	keystroke	d	n/a
454.7475	0.075	909495	keystroke	e	n/a
454.8075	0.12	909615	keystroke	n	n/a
454.9875	0.075	909975	keystroke	t	n/a
455.1375	0.089	910275	keystroke	Key.space	n/a
455.2415	0.061	910483	keystroke	e	n/a
455.4825	0.09	910965	keystroke	x	n/a
455.6175	0.074	911235	keystroke	a	n/a
455.7075	0.09	911415	keystroke	m	n/a
455.8725	0.105	911745	keystroke	s	n/a
456.0375	0.105	912075	keystroke	Key.space	n/a
456.3075	0.06	912615	keystroke	c	n/a
456.4875	0.075	912975	keystroke	r	n/a
456.7125	0.06	913425	keystroke	a	n/a
456.8925	0.105	913785	keystroke	z	n/a
457.0425	0.09	914085	keystroke	k	n/a
457.2075	0.12	914415	keystroke	Key.space	n/a
457.3725	0.075	914745	keystroke	q	n/a
457.4925	0.09	914985	keystroke	u	n/a
457.6875	0.075	915375	keystroke	i	n/a
457.7775	0.12	915555	keystroke	z	n/a
458.0175	0.059	916035	keystroke	Key.enter	n/a
458.0845	4.451	916169	prompt	n/a	produce movies thee score\n
458.8875	0.105	917775	keystroke	p	n/a
459.0375	0.075	918075	keystroke	r	n/a
459.0975	0.09	918195	keystroke	o	n/a
459.2325	0.06	918465	keystroke	d	n/a
459.3225	0.09	918645	keystroke	u	n/a
459.4275	0.09	918855	keystroke	c	n/a
459.5775	0.075	919155	keystroke	e	n/a
459.6525	0.105	919305	keystroke	Key.space	n/a
459.8775	0.09	919755	keystroke	m	n/a
459.9825	0.105	919965	keystroke	o	n/a
460.1475	0.105	920295	keystroke	v	n/a
460.1925	0.09	920385	keystroke	i	n/a
460.3575	0.09	920715	keystroke	e	n/a
460.5525	0.09	921105	keystroke	s	n/a
460.6715	0.091	921343	keystroke	Key.space	n/a
460.8225	0.09	921645	keystroke	t	n/a
460.8975	0.105	921795	keystroke	h	n/a
461.0775	0.09	922155	keystroke	e	n/a
461.2125	0.105	922425	keystroke	e	n/a
461.4365	0.075	922873	keystroke	Key.space	n/a
461.5425	0.074	923085	keystroke	s	n/a
461.7065	0.09	923413	keystroke	c	n/a
461.8265	0.105	923653	keystroke	o	n/a
461.9165	0.12	923833	keystroke	r	n/a
462.1415	0.075	924283	keystroke	e	n/a
462.4265	0.105	924853	keystroke	Key.enter	n/a
462.543	5.031	925086	prompt	n/a	teach explains prospect books\n
463.2225	0.074	926445	keystroke	t	n/a
463.4015	0.075	926803	keystroke	e	n/a
463.5825	0.074	927165	keystroke	a	n/a
463.7625	0.105	927525	keystroke	c	n/a
463.8525	0.075	927705	keystroke	h	n/a
463.9865	0.135	927973	keystroke	Key.space	n/a
464.0775	0.074	928155	keystroke	e	n/a
464.2715	0.136	928543	keystroke	x	n/a
464.3925	0.135	928785	keystroke	p	n/a
464.4965	0.091	928993	keystroke	l	n/a
464.6015	0.075	929203	keystroke	a	n/a
464.7375	0.164	929475	keystroke	i	n/a
464.8275	0.149	929655	keystroke	n	n/a
465.0065	0.061	930013	keystroke	s	n/a
465.1115	0.09	930223	keystroke	Key.space	n/a
465.3375	0.089	930675	keystroke	p	n/a
465.4415	0.061	930883	keystroke	r	n/a
465.5165	0.076	931033	keystroke	o	n/a
465.7275	0.075	931455	keystroke	s	n/a
465.8165	0.091	931633	keystroke	p	n/a
465.9365	0.09	931873	keystroke	e	n/a
466.1625	0.044	932325	keystroke	c	n/a
466.3865	0.075	932773	keystroke	t	n/a
466.5215	0.075	933043	keystroke	Key.space	n/a
466.7325	0.09	933465	keystroke	b	n/a
466.9565	0.076	933913	keystroke	o	n/a
467.0925	0.165	934185	keystroke	o	n/a
467.2415	0.091	934483	keystroke	k	n/a
467.3765	0.075	934753	keystroke	s	n/a
467.4965	0.075	934993	keystroke	Key.enter	n/a
467.5795	6.144	935159	prompt	n/a	qualified breakfast answers volvo\n
468.4115	0.121	936823	keystroke	q	n/a
468.6065	0.076	937213	keystroke	u	n/a
468.7275	0.09	937455	keystroke	a	n/a
468.9815	0.106	937963	keystroke	l	n/a
469.2375	0.075	938475	keystroke	i	n/a
469.3265	0.09	938653	keystroke	f	n/a
469.3865	0.091	938773	keystroke	i	n/a
469.4915	0.106	938983	keystroke	e	n/a
469.6715	0.09	939343	keystroke	d	n/a
469.8515	0.091	939703	keystroke	Key.space	n/a
470.0325	0.104	940065	keystroke	b	n/a
470.1515	0.031	940303	keystroke	r	n/a
470.2875	0.045	940575	keystroke	e	n/a
470.4515	0.06	940903	keystroke	a	n/a
470.5265	0.076	941053	keystroke	k	n/a
470.7675	0.045	941535	keystroke	f	n/a
470.9015	0.075	941803	keystroke	a	n/a
471.0815	0.075	942163	keystroke	s	n/a
471.1425	0.104	942285	keystroke	t	n/a
471.4115	0.09	942823	keystroke	Key.space	n/a
471.5625	0.09	943125	keystroke	a	n/a
471.6365	0.09	943273	keystroke	n	n/a
471.7275	0.059	943455	keystroke	s	n/a
471.9075	0.09	943815	keystroke	w	n/a
472.0865	0.09	944173	keystroke	e	n/a
472.2665	0.076	944533	keystroke	r	n/a
472.4625	0.06	944925	keystroke	s	n/a
472.5665	0.09	945133	keystroke	Key.space	n/a
472.8365	0.09	945673	keystroke	v	n/a
472.9415	0.12	945883	keystroke	o	n/a
473.1365	0.105	946273	keystroke	l	n/a
473.3015	0.075	946603	keystroke	v	n/a
473.4075	0.089	946815	keystroke	o	n/a
473.6315	0.09	947263	keystroke	Key.enter	n/a
473.7275	7.047	947455	prompt	n/a	latina insurance voice renewable\n
474.3075	0.089	948615	keystroke	l	n/a
474.4415	0.105	948883	keystroke	a	n/a
474.6675	0.09	949335	keystroke	t	n/a
474.7415	0.091	949483	keystroke	i	n/a
474.8465	0.105	949693	keystroke	n	n/a
474.9965	0.061	949993	keystroke	a	n/a
475.0715	0.105	950143	keystroke	Key.space	n/a
475.3425	0.074	950685	keystroke	i	n/a
475.4325	0.104	950865	keystroke	n	n/a
475.5075	0.089	951015	keystroke	s	n/a
475.6275	0.105	951255	keystroke	u	n/a
475.7325	0.089	951465	keystroke	r	n/a
475.9415	0.09	951883	keystroke	a	n/a
476.0025	0.09	952005	keystroke	n	n/a
476.1375	0.12	952275	keystroke	c	n/a
476.2865	0.12	952573	keystroke	e	n/a
476.4225	0.089	952845	keystroke	Key.space	n/a
476.6175	0.089	953235	keystroke	v	n/a
476.7375	0.089	953475	keystroke	o	n/a
476.8865	0.121	953773	keystroke	i	n/a
477.0215	0.075	954043	keystroke	c	n/a
477.1425	0.105	954285	keystroke	e	n/a
477.2475	0.089	954495	keystroke	Key.space	n/a
477.4725	0.089	954945	keystroke	n	n/a
477.5915	0.076	955183	keystroke	r	n/a
478.1165	0.06	956233	keystroke	Key.backspace	n/a
478.2365	0.06	956473	keystroke	Key.backspace	n/a
478.4925	0.045	956985	keystroke	r	n/a
478.6715	0.06	957343	keystroke	e	n/a
478.8215	0.061	957643	keystroke	n	n/a
478.9875	0.074	957975	keystroke	e	n/a
479.1975	0.06	958395	keystroke	w	n/a
479.4065	0.076	958813	keystroke	a	n/a
479.9615	0.106	959923	keystroke	b	n/a
480.2015	0.091	960403	keystroke	l	n/a
480.4265	0.135	960853	keystroke	e	n/a
480.6965	0.075	961393	keystroke	Key.enter	n/a
480.779	6.9255	961558	prompt	n/a	salem study paragraph allen\n
481.4775	0.09	962955	keystroke	s	n/a
481.6875	0.074	963375	keystroke	a	n/a
