onset	duration	sample	value	key	prompt_text
2.106	6.999	4212	prompt	n/a	the quick brown fox jumps over a lazy dog\n
3.488	0.16	6976	keystroke_t	t	n/a
3.552	0.12	7104	keystroke_e	e	n/a
3.56	0.104	7120	keystroke_h	h	n/a
3.648	0.103	7296	keystroke_Key.space	Key.space	n/a
3.704	0.1195	7408	keystroke_q	q	n/a
3.8155	0.104	7631	keystroke_u	u	n/a
3.8795	0.056	7759	keystroke_i	i	n/a
4.0875	0.056	8175	keystroke_Key.backspace	Key.backspace	n/a
4.1835	0.056	8367	keystroke_Key.backspace	Key.backspace	n/a
4.2795	0.048	8559	keystroke_Key.backspace	Key.backspace	n/a
4.3835	0.056	8767	keystroke_Key.backspace	Key.backspace	n/a
4.4875	0.064	8975	keystroke_Key.backspace	Key.backspace	n/a
4.5995	0.072	9199	keystroke_Key.backspace	Key.backspace	n/a
4.8155	0.104	9631	keystroke_h	h	n/a
4.8635	0.104	9727	keystroke_e	e	n/a
4.9355	0.072	9871	keystroke_Key.space	Key.space	n/a
5.0395	0.104	10079	keystroke_q	q	n/a
5.1355	0.104	10271	keystroke_u	u	n/a
5.1915	0.065	10383	keystroke_i	i	n/a
5.3515	0.1135	10703	keystroke_k	k	n/a
5.608	0.056	11216	keystroke_Key.backspace	Key.backspace	n/a
5.712	0.12	11424	keystroke_c	c	n/a
5.808	0.112	11616	keystroke_k	k	n/a
5.888	0.064	11776	keystroke_Key.space	Key.space	n/a
5.9925	0.0615	11985	keystroke_b	b	n/a
6.1565	0.088	12313	keystroke_r	r	n/a
6.2365	0.096	12473	keystroke_o	o	n/a
6.3405	0.136	12681	keystroke_w	w	n/a
6.4605	0.1125	12921	keystroke_n	n	n/a
6.5245	0.1055	13049	keystroke_Key.space	Key.space	n/a
6.638	0.088	13276	keystroke_f	f	n/a
6.742	0.104	13484	keystroke_o	o	n/a
6.838	0.152	13676	keystroke_x	x	n/a
6.982	0.088	13964	keystroke_Key.space	Key.space	n/a
7.126	0.048	14252	keystroke_j	j	n/a
7.254	0.0565	14508	keystroke_u	u	n/a
7.4145	0.1275	14829	keystroke_m	m	n/a
7.47	0.1285	14940	keystroke_p	p	n/a
7.5585	0.0965	15117	keystroke_s	s	n/a
7.5905	0.0875	15181	keystroke_Key.space	Key.space	n/a
7.695	0.119	15390	keystroke_o	o	n/a
7.767	0.071	15534	keystroke_v	v	n/a
7.887	0.144	15774	keystroke_e	e	n/a
7.958	0.088	15916	keystroke_r	r	n/a
7.982	0.057	15964	keystroke_Key.space	Key.space	n/a
8.055	0.104	16110	keystroke_a	a	n/a
8.174	0.04	16348	keystroke_Key.space	Key.space	n/a
8.247	0.096	16494	keystroke_l	l	n/a
8.343	0.079	16686	keystroke_a	a	n/a
8.478	0.112	16956	keystroke_z	z	n/a
8.583	0.095	17166	keystroke_y	y	n/a
8.638	0.056	17276	keystroke_Key.space	Key.space	n/a
8.711	0.087	17422	keystroke_d	d	n/a
8.822	0.088	17644	keystroke_o	o	n/a
8.918	0.065	17836	keystroke_g	g	n/a
9.014	0.088	18028	keystroke_Key.enter	Key.enter	n/a
9.111	6.8175	18222	prompt	n/a	eligibility medications stated concentrate\n
9.686	0.08	19372	keystroke_e	e	n/a
9.798	0.064	19596	keystroke_l	l	n/a
9.942	0.08	19884	keystroke_i	i	n/a
10.038	0.064	20076	keystroke_g	g	n/a
10.118	0.064	20236	keystroke_i	i	n/a
10.19	0.08	20380	keystroke_b	b	n/a
10.278	0.032	20556	keystroke_i	i	n/a
10.3745	0.08	20749	keystroke_l	l	n/a
10.4865	0.056	20973	keystroke_i	i	n/a
10.5825	0.072	21165	keystroke_t	t	n/a
10.6705	0.0955	21341	keystroke_y	y	n/a
10.7105	0.072	21421	keystroke_Key.space	Key.space	n/a
11.03	0.088	22060	keystroke_m	m	n/a
11.103	0.055	22206	keystroke_e	e	n/a
11.23	0.08	22460	keystroke_d	d	n/a
11.326	0.08	22652	keystroke_i	i	n/a
11.399	0.103	22798	keystroke_c	c	n/a
11.526	0.096	23052	keystroke_a	a	n/a
11.678	0.096	23356	keystroke_t	t	n/a
11.726	0.08	23452	keystroke_i	i	n/a
11.782	0.1045	23564	keystroke_o	o	n/a
11.814	0.1365	23628	keystroke_n	n	n/a
11.8625	0.096	23725	keystroke_s	s	n/a
11.9185	0.064	23837	keystroke_Key.space	Key.space	n/a
12.0465	0.088	24093	keystroke_s	s	n/a
12.1265	0.08	24253	keystroke_t	t	n/a
12.1985	0.112	24397	keystroke_a	a	n/a
12.3025	0.088	24605	keystroke_t	t	n/a
12.3345	0.096	24669	keystroke_e	e	n/a
12.5265	0.112	25053	keystroke_d	d	n/a
12.6225	0.0795	25245	keystroke_Key.space	Key.space	n/a
12.99	0.097	25980	keystroke_c	c	n/a
13.094	0.089	26188	keystroke_o	o	n/a
13.158	0.096	26316	keystroke_n	n	n/a
13.239	0.079	26478	keystroke_c	c	n/a
13.374	0.0885	26748	keystroke_e	e	n/a
13.4705	0.08	26941	keystroke_r	r	n/a
13.6465	0.104	27293	keystroke_t	t	n/a
14.014	0.064	28028	keystroke_Key.backspace	Key.backspace	n/a
14.1345	0.072	28269	keystroke_Key.backspace	Key.backspace	n/a
14.3745	0.104	28749	keystroke_n	n	n/a
14.7975	0.073	29595	keystroke_t	t	n/a
14.9665	0.088	29933	keystroke_r	r	n/a
15.0225	0.08	30045	keystroke_a	a	n/a
15.2695	0.105	30539	keystroke_t	t	n/a
15.3665	0.056	30733	keystroke_e	e	n/a
15.8305	0.096	31661	keystroke_Key.enter	Key.enter	n/a
15.931	5.909	31862	prompt	n/a	renewal liquid harassment dayton\n
16.5185	0.016	33037	keystroke_e	e	n/a
16.5585	0.072	33117	keystroke_n	n	n/a
16.838	0.064	33676	keystroke_Key.backspace	Key.backspace	n/a
16.982	0.056	33964	keystroke_Key.backspace	Key.backspace	n/a
17.2065	0.088	34413	keystroke_r	r	n/a
17.2785	0.088	34557	keystroke_e	e	n/a
17.4145	0.104	34829	keystroke_n	n	n/a
17.4945	0.112	34989	keystroke_e	e	n/a
17.5585	0.08	35117	keystroke_w	w	n/a
17.8625	0.088	35725	keystroke_a	a	n/a
17.9905	0.1115	35981	keystroke_l	l	n/a
18.0865	0.0715	36173	keystroke_Key.space	Key.space	n/a
18.206	0.056	36412	keystroke_l	l	n/a
18.334	0.088	36668	keystroke_i	i	n/a
18.414	0.088	36828	keystroke_q	q	n/a
18.534	0.112	37068	keystroke_u	u	n/a
18.582	0.096	37164	keystroke_i	i	n/a
18.655	0.127	37310	keystroke_d	d	n/a
18.75	0.072	37500	keystroke_Key.space	Key.space	n/a
18.982	0.088	37964	keystroke_h	h	n/a
19.054	0.064	38108	keystroke_a	a	n/a
19.222	0.065	38444	keystroke_r	r	n/a
19.9345	0.08	39869	keystroke_a	a	n/a
20.1265	0.056	40253	keystroke_s	s	n/a
20.246	0.072	40492	keystroke_s	s	n/a
20.366	0.096	40732	keystroke_m	m	n/a
20.446	0.08	40892	keystroke_e	e	n/a
20.543	0.1115	41086	keystroke_n	n	n/a
20.582	0.0805	41164	keystroke_t	t	n/a
20.6545	0.056	41309	keystroke_Key.space	Key.space	n/a
20.8065	0.096	41613	keystroke_d	d	n/a
20.9185	0.072	41837	keystroke_a	a	n/a
21.2865	0.087	42573	keystroke_y	y	n/a
21.4225	0.072	42845	keystroke_t	t	n/a
21.4785	0.12	42957	keystroke_o	o	n/a
21.5665	0.064	43133	keystroke_n	n	n/a
21.7425	0.096	43485	keystroke_Key.enter	Key.enter	n/a
21.8435	4.1325	43687	prompt	n/a	fault adjacent proc phys\n
22.4465	0.104	44893	keystroke_f	f	n/a
22.5345	0.088	45069	keystroke_a	a	n/a
22.6385	0.056	45277	keystroke_u	u	n/a
22.7505	0.127	45501	keystroke_l	l	n/a
22.8215	0.096	45643	keystroke_t	t	n/a
22.8935	0.056	45787	keystroke_Key.space	Key.space	n/a
22.9665	0.096	45933	keystroke_a	a	n/a
23.1015	0.08	46203	keystroke_d	d	n/a
23.1895	0.089	46379	keystroke_j	j	n/a
23.318	0.0885	46636	keystroke_a	a	n/a
23.5105	0.08	47021	keystroke_c	c	n/a
23.6545	0.088	47309	keystroke_e	e	n/a
23.7665	0.128	47533	keystroke_n	n	n/a
23.8145	0.088	47629	keystroke_t	t	n/a
23.8855	0.057	47771	keystroke_Key.space	Key.space	n/a
23.9665	0.104	47933	keystroke_p	p	n/a
24.0785	0.056	48157	keystroke_r	r	n/a
24.1585	0.12	48317	keystroke_o	o	n/a
24.2545	0.096	48509	keystroke_c	c	n/a
24.3425	0.056	48685	keystroke_Key.space	Key.space	n/a
24.4465	0.063	48893	keystroke_p	p	n/a
24.5575	0.056	49115	keystroke_h	h	n/a
24.7105	0.072	49421	keystroke_y	y	n/a
25.1255	0.065	50251	keystroke_s	s	n/a
25.2455	0.0805	50491	keystroke_'	'	n/a
25.726	0.056	51452	keystroke_Key.backspace	Key.backspace	n/a
25.902	0.0715	51804	keystroke_Key.enter	Key.enter	n/a
25.979	4.2935	51958	prompt	n/a	held variance crossword maintained\n
26.7185	0.08	53437	keystroke_h	h	n/a
26.8055	0.064	53611	keystroke_e	e	n/a
26.8855	0.113	53771	keystroke_l	l	n/a
26.9585	0.071	53917	keystroke_d	d	n/a
27.0145	0.039	54029	keystroke_Key.space	Key.space	n/a
27.1105	0.079	54221	keystroke_v	v	n/a
27.2295	0.1125	54459	keystroke_a	a	n/a
27.422	0.08	54844	keystroke_r	r	n/a
27.566	0.088	55132	keystroke_i	i	n/a
27.654	0.096	55308	keystroke_a	a	n/a
27.758	0.1445	55516	keystroke_n	n	n/a
27.8375	0.08	55675	keystroke_c	c	n/a
27.9025	0.071	55805	keystroke_e	e	n/a
27.9575	0.064	55915	keystroke_Key.space	Key.space	n/a
28.0775	0.089	56155	keystroke_c	c	n/a
28.2855	0.072	56571	keystroke_r	r	n/a
28.3815	0.112	56763	keystroke_o	o	n/a
28.4865	0.055	56973	keystroke_s	s	n/a
28.6135	0.056	57227	keystroke_s	s	n/a
28.7735	0.064	57547	keystroke_w	w	n/a
28.8935	0.096	57787	keystroke_o	o	n/a
28.9415	0.0655	57883	keystroke_r	r	n/a
29.062	0.096	58124	keystroke_d	d	n/a
29.166	0.032	58332	keystroke_Key.space	Key.space	n/a
29.27	0.104	58540	keystroke_m	m	n/a
29.35	0.08	58700	keystroke_a	a	n/a
29.478	0.072	58956	keystroke_i	i	n/a
29.606	0.104	59212	keystroke_n	n	n/a
29.678	0.088	59356	keystroke_t	t	n/a
29.718	0.08	59436	keystroke_a	a	n/a
29.806	0.056	59612	keystroke_i	i	n/a
29.87	0.104	59740	keystroke_n	n	n/a
29.95	0.048	59900	keystroke_e	e	n/a
30.078	0.072	60156	keystroke_d	d	n/a
30.182	0.088	60364	keystroke_Key.enter	Key.enter	n/a
30.2765	7.3235	60553	prompt	n/a	pipeline driven coins anchor\n
30.774	0.072	61548	keystroke_h	h	n/a
30.942	0.0795	61884	keystroke_p	p	n/a
31.1575	0.064	62315	keystroke_Key.backspace	Key.backspace	n/a
31.2775	0.056	62555	keystroke_Key.backspace	Key.backspace	n/a
31.454	0.0795	62908	keystroke_p	p	n/a
31.5905	0.103	63181	keystroke_i	i	n/a
31.662	0.104	63324	keystroke_p	p	n/a
32.142	0.0635	64284	keystroke_l	l	n/a
32.4135	0.0565	64827	keystroke_Key.backspace	Key.backspace	n/a
32.5015	0.0645	65003	keystroke_e	e	n/a
32.6135	0.0565	65227	keystroke_l	l	n/a
32.734	0.064	65468	keystroke_i	i	n/a
32.8535	0.136	65707	keystroke_n	n	n/a
32.9255	0.129	65851	keystroke_e	e	n/a
33.0135	0.08	66027	keystroke_s	s	n/a
33.0615	0.064	66123	keystroke_Key.space	Key.space	n/a
33.4775	0.056	66955	keystroke_Key.backspace	Key.backspace	n/a
33.5815	0.064	67163	keystroke_Key.backspace	Key.backspace	n/a
33.7495	0.072	67499	keystroke_Key.space	Key.space	n/a
33.7815	0.096	67563	keystroke_d	d	n/a
33.9415	0.072	67883	keystroke_r	r	n/a
34.0215	0.096	68043	keystroke_i	i	n/a
34.1095	0.072	68219	keystroke_v	v	n/a
34.2135	0.12	68427	keystroke_e	e	n/a
34.2775	0.112	68555	keystroke_n	n	n/a
34.4295	0.0965	68859	keystroke_c	c	n/a
34.51	0.12	69020	keystroke_o	o	n/a
34.566	0.072	69132	keystroke_i	i	n/a
34.638	0.152	69276	keystroke_n	n	n/a
34.758	0.088	69516	keystroke_s	s	n/a
34.7985	0.0795	69597	keystroke_Key.space	Key.space	n/a
35.038	0.064	70076	keystroke_Key.backspace	Key.backspace	n/a
35.15	0.04	70300	keystroke_Key.backspace	Key.backspace	n/a
35.238	0.0725	70476	keystroke_Key.backspace	Key.backspace	n/a
35.3415	0.057	70683	keystroke_Key.backspace	Key.backspace	n/a
35.4535	0.048	70907	keystroke_Key.backspace	Key.backspace	n/a
35.5985	0.08	71197	keystroke_Key.backspace	Key.backspace	n/a
35.7745	0.0715	71549	keystroke_Key.space	Key.space	n/a
35.886	0.088	71772	keystroke_c	c	n/a
35.982	0.144	71964	keystroke_o	o	n/a
36.038	0.056	72076	keystroke_i	i	n/a
36.134	0.12	72268	keystroke_n	n	n/a
36.278	0.104	72556	keystroke_s	s	n/a
36.366	0.072	72732	keystroke_Key.space	Key.space	n/a
36.694	0.088	73388	keystroke_a	a	n/a
36.894	0.096	73788	keystroke_n	n	n/a
36.998	0.096	73996	keystroke_c	c	n/a
37.11	0.08	74220	keystroke_h	h	n/a
37.2935	0.096	74587	keystroke_o	o	n/a
37.4225	0.048	74845	keystroke_r	r	n/a
37.5255	0.072	75051	keystroke_Key.enter	Key.enter	n/a
37.605	3.595	75210	prompt	n/a	fine vacancies tire best\n
38.134	0.064	76268	keystroke_f	f	n/a
38.206	0.056	76412	keystroke_i	i	n/a
38.302	0.096	76604	keystroke_n	n	n/a
38.342	0.08	76684	keystroke_e	e	n/a
38.39	0.064	76780	keystroke_Key.space	Key.space	n/a
38.518	0.0875	77036	keystroke_v	v	n/a
38.6065	0.087	77213	keystroke_a	a	n/a
38.7735	0.096	77547	keystroke_c	c	n/a
38.8695	0.096	77739	keystroke_a	a	n/a
39.0215	0.112	78043	keystroke_n	n	n/a
39.3185	0.08	78637	keystroke_c	c	n/a
39.4385	0.1195	78877	keystroke_i	i	n/a
39.5505	0.1115	79101	keystroke_e	e	n/a
39.59	0.128	79180	keystroke_s	s	n/a
39.806	0.072	79612	keystroke_t	t	n/a
40.0945	0.064	80189	keystroke_Key.backspace	Key.backspace	n/a
40.1665	0.1115	80333	keystroke_Key.space	Key.space	n/a
40.262	0.0885	80524	keystroke_t	t	n/a
40.3585	0.12	80717	keystroke_i	i	n/a
40.4465	0.112	80893	keystroke_r	r	n/a
40.5025	0.08	81005	keystroke_e	e	n/a
40.5265	0.104	81053	keystroke_Key.space	Key.space	n/a
40.7025	0.056	81405	keystroke_b	b	n/a
40.8305	0.119	81661	keystroke_e	e	n/a
40.926	0.0875	81852	keystroke_s	s	n/a
40.9905	0.071	81981	keystroke_t	t	n/a
41.1015	0.096	82203	keystroke_Key.enter	Key.enter	n/a
41.202	3.67	82404	prompt	n/a	directed four released single\n
41.7265	0.064	83453	keystroke_d	d	n/a
41.9425	0.112	83885	keystroke_i	i	n/a
42.0385	0.079	84077	keystroke_r	r	n/a
42.0945	0.063	84189	keystroke_e	e	n/a
42.2545	0.056	84509	keystroke_c	c	n/a
42.4145	0.088	84829	keystroke_t	t	n/a
42.4865	0.024	84973	keystroke_e	e	n/a
42.6305	0.096	85261	keystroke_d	d	n/a
42.6855	0.0965	85371	keystroke_Key.space	Key.space	n/a
42.798	0.08	85596	keystroke_f	f	n/a
42.878	0.136	85756	keystroke_o	o	n/a
42.966	0.128	85932	keystroke_u	u	n/a
42.998	0.072	85996	keystroke_r	r	n/a
43.046	0.072	86092	keystroke_Key.space	Key.space	n/a
43.174	0.104	86348	keystroke_r	r	n/a
43.254	0.072	86508	keystroke_e	e	n/a
43.374	0.088	86748	keystroke_l	l	n/a
43.414	0.104	86828	keystroke_e	e	n/a
43.51	0.152	87020	keystroke_a	a	n/a
43.646	0.04	87292	keystroke_s	s	n/a
43.67	0.08	87340	keystroke_e	e	n/a
44.0455	0.064	88091	keystroke_d	d	n/a
44.1255	0.08	88251	keystroke_Key.space	Key.space	n/a
44.2375	0.088	88475	keystroke_s	s	n/a
44.3335	0.056	88667	keystroke_i	i	n/a
44.4215	0.08	88843	keystroke_n	n	n/a
44.4615	0.064	88923	keystroke_g	g	n/a
44.5815	0.096	89163	keystroke_l	l	n/a
44.6785	0.055	89357	keystroke_e	e	n/a
44.7895	0.08	89579	keystroke_Key.enter	Key.enter	n/a
44.876	4.2995	89752	prompt	n/a	professor idea changelog odds\n
45.3975	0.088	90795	keystroke_p	p	n/a
45.5105	0.063	91021	keystroke_r	r	n/a
45.5895	0.112	91179	keystroke_o	o	n/a
45.6935	0.048	91387	keystroke_f	f	n/a
45.7975	0.056	91595	keystroke_e	e	n/a
45.9495	0.056	91899	keystroke_s	s	n/a
46.0865	0.047	92173	keystroke_s	s	n/a
46.2215	0.112	92443	keystroke_o	o	n/a
46.3095	0.064	92619	keystroke_r	r	n/a
46.3575	0.064	92715	keystroke_Key.space	Key.space	n/a
46.4695	0.112	92939	keystroke_i	i	n/a
46.5495	0.072	93099	keystroke_d	d	n/a
46.6855	0.112	93371	keystroke_e	e	n/a
46.7575	0.128	93515	keystroke_a	a	n/a
46.8615	0.072	93723	keystroke_Key.space	Key.space	n/a
47.0215	0.104	94043	keystroke_c	c	n/a
47.1495	0.08	94299	keystroke_h	h	n/a
47.2215	0.096	94443	keystroke_a	a	n/a
47.3335	0.088	94667	keystroke_n	n	n/a
47.4455	0.056	94891	keystroke_g	g	n/a
47.6295	0.072	95259	keystroke_e	e	n/a
47.7815	0.064	95563	keystroke_l	l	n/a
47.9415	0.104	95883	keystroke_o	o	n/a
48.0295	0.088	96059	keystroke_g	g	n/a
48.1095	0.056	96219	keystroke_Key.space	Key.space	n/a
48.2455	0.088	96491	keystroke_o	o	n/a
48.4135	0.056	96827	keystroke_d	d	n/a
48.5335	0.064	97067	keystroke_d	d	n/a
48.7975	0.08	97595	keystroke_s	s	n/a
49.1255	0.048	98251	keystroke_Key.enter	Key.enter	n/a
49.1785	5.013	98357	prompt	n/a	stays assets comparable improve\n
49.7975	0.08	99595	keystroke_s	s	n/a
50.0055	0.088	100011	keystroke_t	t	n/a
50.0535	0.081	100107	keystroke_a	a	n/a
50.2375	0.128	100475	keystroke_y	y	n/a
50.2945	0.071	100589	keystroke_s	s	n/a
50.3415	0.08	100683	keystroke_Key.space	Key.space	n/a
50.4935	0.064	100987	keystroke_a	a	n/a
50.6695	0.064	101339	keystroke_s	s	n/a
50.8055	0.08	101611	keystroke_s	s	n/a
50.9495	0.112	101899	keystroke_t	t	n/a
51.0295	0.072	102059	keystroke_e	e	n/a
51.6455	0.064	103291	keystroke_Key.backspace	Key.backspace	n/a
51.7735	0.048	103547	keystroke_Key.backspace	Key.backspace	n/a
51.8135	0.08	103627	keystroke_e	e	n/a
51.8935	0.152	103787	keystroke_t	t	n/a
51.9815	0.096	103963	keystroke_s	s	n/a
52.0465	0.055	104093	keystroke_Key.space	Key.space	n/a
52.3095	0.072	104619	keystroke_c	c	n/a
52.3575	0.08	104715	keystroke_o	o	n/a
52.4615	0.112	104923	keystroke_m	m	n/a
52.5015	0.128	105003	keystroke_p	p	n/a
52.6215	0.0725	105243	keystroke_a	a	n/a
52.726	0.104	105452	keystroke_r	r	n/a
52.798	0.096	105596	keystroke_a	a	n/a
52.966	0.056	105932	keystroke_b	b	n/a
53.038	0.144	106076	keystroke_l	l	n/a
53.118	0.096	106236	keystroke_e	e	n/a
53.182	0.064	106364	keystroke_Key.space	Key.space	n/a
53.35	0.072	106700	keystroke_i	i	n/a
53.478	0.096	106956	keystroke_m	m	n/a
53.51	0.128	107020	keystroke_p	p	n/a
53.662	0.056	107324	keystroke_r	r	n/a
53.774	0.104	107548	keystroke_o	o	n/a
53.838	0.063	107676	keystroke_v	v	n/a
53.966	0.064	107932	keystroke_e	e	n/a
54.11	0.08	108220	keystroke_Key.enter	Key.enter	n/a
54.194	4.317	108388	prompt	n/a	years plain briefs holdem\n
54.854	0.096	109708	keystroke_y	y	n/a
54.918	0.072	109836	keystroke_e	e	n/a
54.933	0.097	109866	keystroke_a	a	n/a
55.038	0.152	110076	keystroke_r	r	n/a
55.118	0.088	110236	keystroke_s	s	n/a
55.174	0.072	110348	keystroke_Key.space	Key.space	n/a
55.286	0.08	110572	keystroke_p	p	n/a
55.43	0.08	110860	keystroke_l	l	n/a
55.55	0.056	111100	keystroke_a	a	n/a
55.734	0.0715	111468	keystroke_i	i	n/a
55.8455	0.12	111691	keystroke_n	n	n/a
55.9255	0.072	111851	keystroke_Key.space	Key.space	n/a
56.4295	0.048	112859	keystroke_b	b	n/a
56.8455	0.072	113691	keystroke_r	r	n/a
56.9735	0.096	113947	keystroke_i	i	n/a
57.0615	0.072	114123	keystroke_e	e	n/a
57.1895	0.152	114379	keystroke_f	f	n/a
57.2935	0.112	114587	keystroke_s	s	n/a
57.3895	0.048	114779	keystroke_Key.space	Key.space	n/a
57.7335	0.08	115467	keystroke_h	h	n/a
57.7815	0.072	115563	keystroke_o	o	n/a
57.9495	0.104	115899	keystroke_l	l	n/a
58.0135	0.072	116027	keystroke_d	d	n/a
58.1655	0.072	116331	keystroke_e	e	n/a
58.2375	0.088	116475	keystroke_m	m	n/a
58.4215	0.088	116843	keystroke_Key.enter	Key.enter	n/a
58.514	4.957	117028	prompt	n/a	berkeley quotes leaves lite\n
59.0695	0.048	118139	keystroke_b	b	n/a
59.2695	0.0645	118539	keystroke_e	e	n/a
59.5015	0.064	119003	keystroke_r	r	n/a
59.653	0.0725	119306	keystroke_k	k	n/a
59.773	0.056	119546	keystroke_e	e	n/a
59.893	0.1045	119786	keystroke_l	l	n/a
59.998	0.063	119996	keystroke_e	e	n/a
60.181	0.104	120362	keystroke_y	y	n/a
60.261	0.096	120522	keystroke_Key.space	Key.space	n/a
60.3895	0.096	120779	keystroke_q	q	n/a
60.5175	0.112	121035	keystroke_u	u	n/a
60.5815	0.0965	121163	keystroke_o	o	n/a
60.654	0.2395	121308	keystroke_t	t	n/a
60.734	0.1675	121468	keystroke_e	e	n/a
60.8215	0.112	121643	keystroke_s	s	n/a
60.9175	0.08	121835	keystroke_Key.space	Key.space	n/a
61.3575	0.096	122715	keystroke_l	l	n/a
61.4455	0.104	122891	keystroke_e	e	n/a
61.526	0.0875	123052	keystroke_a	a	n/a
61.6375	0.104	123275	keystroke_v	v	n/a
61.926	0.1355	123852	keystroke_e	e	n/a
61.998	0.0955	123996	keystroke_s	s	n/a
62.198	0.0795	124396	keystroke_l	l	n/a
62.3575	0.112	124715	keystroke_i	i	n/a
62.678	0.0635	125356	keystroke_Key.backspace	Key.backspace	n/a
62.7895	0.064	125579	keystroke_Key.backspace	Key.backspace	n/a
62.8855	0.072	125771	keystroke_Key.space	Key.space	n/a
63.0065	0.063	126013	keystroke_l	l	n/a
63.1095	0.104	126219	keystroke_i	i	n/a
63.1895	0.12	126379	keystroke_t	t	n/a
63.2535	0.08	126507	keystroke_e	e	n/a
63.3895	0.08	126779	keystroke_Key.enter	Key.enter	n/a
63.474	5.0535	126948	prompt	n/a	madrid exams rides delight\n
63.9815	0.104	127963	keystroke_m	m	n/a
64.0455	0.088	128091	keystroke_a	a	n/a
64.2775	0.072	128555	keystroke_a	a	n/a
64.6215	0.072	129243	keystroke_Key.backspace	Key.backspace	n/a
64.6695	0.08	129339	keystroke_d	d	n/a
64.8135	0.08	129627	keystroke_r	r	n/a
64.9495	0.057	129899	keystroke_i	i	n/a
65.39	0.104	130780	keystroke_d	d	n/a
65.461	0.089	130922	keystroke_Key.space	Key.space	n/a
65.662	0.064	131324	keystroke_e	e	n/a
65.8215	0.096	131643	keystroke_x	x	n/a
65.9415	0.088	131883	keystroke_a	a	n/a
66.0535	0.16	132107	keystroke_m	m	n/a
66.1415	0.088	132283	keystroke_s	s	n/a
66.2215	0.064	132443	keystroke_Key.space	Key.space	n/a
66.614	0.055	133228	keystroke_e	e	n/a
66.965	0.064	133930	keystroke_Key.backspace	Key.backspace	n/a
67.037	0.088	134074	keystroke_r	r	n/a
67.166	0.135	134332	keystroke_i	i	n/a
67.229	0.096	134458	keystroke_d	d	n/a
67.405	0.096	134810	keystroke_e	e	n/a
67.469	0.088	134938	keystroke_s	s	n/a
67.509	0.088	135018	keystroke_Key.space	Key.space	n/a
67.694	0.063	135388	keystroke_d	d	n/a
67.821	0.096	135642	keystroke_e	e	n/a
67.909	0.064	135818	keystroke_l	l	n/a
68.013	0.097	136026	keystroke_i	i	n/a
68.093	0.088	136186	keystroke_g	g	n/a
68.214	0.095	136428	keystroke_h	h	n/a
68.301	0.056	136602	keystroke_t	t	n/a
68.445	0.081	136890	keystroke_Key.enter	Key.enter	n/a
68.53	4.085	137060	prompt	n/a	days institutes queries turned\n
69.1255	0.136	138251	keystroke_d	d	n/a
69.2215	0.112	138443	keystroke_a	a	n/a
69.3495	0.136	138699	keystroke_y	y	n/a
69.4135	0.088	138827	keystroke_s	s	n/a
69.4695	0.072	138939	keystroke_Key.space	Key.space	n/a
69.5975	0.04	139195	keystroke_i	i	n/a
69.7015	0.056	139403	keystroke_n	n	n/a
69.8855	0.072	139771	keystroke_s	s	n/a
70.1415	0.072	140283	keystroke_t	t	n/a
70.2615	0.096	140523	keystroke_i	i	n/a
70.3735	0.072	140747	keystroke_t	t	n/a
70.4855	0.0875	140971	keystroke_u	u	n/a
70.557	0.1845	141114	keystroke_t	t	n/a
70.6455	0.112	141291	keystroke_e	e	n/a
70.6935	0.104	141387	keystroke_s	s	n/a
70.7735	0.08	141547	keystroke_Key.space	Key.space	n/a
71.0215	0.096	142043	keystroke_q	q	n/a
71.1575	0.088	142315	keystroke_u	u	n/a
71.2295	0.0885	142459	keystroke_e	e	n/a
71.414	0.08	142828	keystroke_r	r	n/a
71.566	0.128	143132	keystroke_i	i	n/a
71.646	0.128	143292	keystroke_e	e	n/a
71.726	0.104	143452	keystroke_s	s	n/a
71.797	0.057	143594	keystroke_Key.space	Key.space	n/a
71.918	0.08	143836	keystroke_t	t	n/a
72.006	0.0875	144012	keystroke_u	u	n/a
72.1095	0.072	144219	keystroke_r	r	n/a
72.2135	0.104	144427	keystroke_n	n	n/a
72.2695	0.04	144539	keystroke_e	e	n/a
72.3895	0.08	144779	keystroke_d	d	n/a
72.5415	0.072	145083	keystroke_Key.enter	Key.enter	n/a
72.6195	6.1	145239	prompt	n/a	rate yarn foul swaziland\n
73.1335	0.096	146267	keystroke_r	r	n/a
73.2455	0.1125	146491	keystroke_a	a	n/a
73.366	0.119	146732	keystroke_t	t	n/a
73.421	0.097	146842	keystroke_e	e	n/a
73.493	0.056	146986	keystroke_Key.space	Key.space	n/a
73.661	0.088	147322	keystroke_y	y	n/a
73.717	0.104	147434	keystroke_a	a	n/a
73.813	0.105	147626	keystroke_r	r	n/a
73.949	0.1205	147898	keystroke_n	n	n/a
74.0135	0.088	148027	keystroke_Key.space	Key.space	n/a
74.1415	0.088	148283	keystroke_f	f	n/a
74.2135	0.104	148427	keystroke_o	o	n/a
74.2775	0.096	148555	keystroke_u	u	n/a
74.4375	0.128	148875	keystroke_l	l	n/a
74.5335	0.096	149067	keystroke_Key.space	Key.space	n/a
74.7335	0.04	149467	keystroke_a	a	n/a
75.0455	0.064	150091	keystroke_Key.backspace	Key.backspace	n/a
75.1335	0.056	150267	keystroke_s	s	n/a
75.3335	0.08	150667	keystroke_q	q	n/a
75.5335	0.08	151067	keystroke_a	a	n/a
75.7415	0.096	151483	keystroke_z	z	n/a
76.4535	0.112	152907	keystroke_i	i	n/a
76.8375	0.056	153675	keystroke_Key.backspace	Key.backspace	n/a
76.9575	0.048	153915	keystroke_Key.backspace	Key.backspace	n/a
77.0615	0.048	154123	keystroke_Key.backspace	Key.backspace	n/a
77.1575	0.08	154315	keystroke_Key.backspace	Key.backspace	n/a
77.429	0.08	154858	keystroke_w	w	n/a
77.613	0.096	155226	keystroke_a	a	n/a
77.893	0.088	155786	keystroke_z	z	n/a
78.053	0.064	156106	keystroke_i	i	n/a
78.221	0.096	156442	keystroke_l	l	n/a
78.325	0.081	156650	keystroke_a	a	n/a
78.421	0.088	156842	keystroke_n	n	n/a
78.501	0.065	157002	keystroke_d	d	n/a
78.629	0.088	157258	keystroke_Key.enter	Key.enter	n/a
78.7225	5.74	157445	prompt	n/a	swaziland affected actors feelings\n
79.389	0.072	158778	keystroke_s	s	n/a
79.733	0.08	159466	keystroke_q	q	n/a
80.245	0.08	160490	keystroke_Key.backspace	Key.backspace	n/a
80.317	0.088	160634	keystroke_w	w	n/a
80.765	0.0955	161530	keystroke_a	a	n/a
80.9885	0.105	161977	keystroke_z	z	n/a
81.1415	0.079	162283	keystroke_i	i	n/a
81.2845	0.0965	162569	keystroke_l	l	n/a
81.357	0.096	162714	keystroke_a	a	n/a
81.461	0.136	162922	keystroke_n	n	n/a
81.501	0.088	163002	keystroke_d	d	n/a
81.573	0.064	163146	keystroke_Key.space	Key.space	n/a
81.677	0.072	163354	keystroke_a	a	n/a
81.821	0.072	163642	keystroke_f	f	n/a
81.949	0.08	163898	keystroke_f	f	n/a
82.037	0.064	164074	keystroke_e	e	n/a
82.157	0.0715	164314	keystroke_c	c	n/a
82.3245	0.104	164649	keystroke_t	t	n/a
82.3965	0.064	164793	keystroke_e	e	n/a
82.5325	0.088	165065	keystroke_d	d	n/a
82.5885	0.08	165177	keystroke_Key.space	Key.space	n/a
82.6765	0.089	165353	keystroke_a	a	n/a
82.7735	0.079	165547	keystroke_c	c	n/a
82.9485	0.072	165897	keystroke_t	t	n/a
83.0685	0.104	166137	keystroke_o	o	n/a
83.1245	0.144	166249	keystroke_r	r	n/a
83.2045	0.121	166409	keystroke_s	s	n/a
83.3015	0.072	166603	keystroke_Key.space	Key.space	n/a
83.4775	0.0875	166955	keystroke_f	f	n/a
83.645	0.048	167290	keystroke_e	e	n/a
83.757	0.08	167514	keystroke_e	e	n/a
83.885	0.064	167770	keystroke_l	l	n/a
83.982	0.063	167964	keystroke_i	i	n/a
84.093	0.104	168186	keystroke_n	n	n/a
84.133	0.12	168266	keystroke_g	g	n/a
84.229	0.088	168458	keystroke_s	s	n/a
84.397	0.064	168794	keystroke_Key.enter	Key.enter	n/a
84.4655	5.685	168931	prompt	n/a	microphone eleven successful vaccine\n
85.053	0.064	170106	keystroke_m	m	n/a
85.197	0.08	170394	keystroke_i	i	n/a
85.245	0.0555	170490	keystroke_c	c	n/a
85.4045	0.0725	170809	keystroke_r	r	n/a
85.5325	0.08	171065	keystroke_o	o	n/a
85.6525	0.096	171305	keystroke_p	p	n/a
85.7965	0.088	171593	keystroke_h	h	n/a
85.8285	0.097	171657	keystroke_o	o	n/a
85.9965	0.12	171993	keystroke_n	n	n/a
86.0445	0.08	172089	keystroke_e	e	n/a
86.1005	0.064	172201	keystroke_Key.space	Key.space	n/a
86.2375	0.056	172475	keystroke_e	e	n/a
86.525	0.088	173050	keystroke_l	l	n/a
86.613	0.064	173226	keystroke_e	e	n/a
86.7495	0.0635	173499	keystroke_v	v	n/a
86.8775	0.0795	173755	keystroke_e	e	n/a
86.973	0.12	173946	keystroke_n	n	n/a
87.069	0.072	174138	keystroke_Key.space	Key.space	n/a
87.181	0.064	174362	keystroke_s	s	n/a
87.2935	0.0795	174587	keystroke_u	u	n/a
87.381	0.0565	174762	keystroke_c	c	n/a
87.5095	0.048	175019	keystroke_c	c	n/a
87.637	0.064	175274	keystroke_e	e	n/a
87.7895	0.096	175579	keystroke_s	s	n/a
88.197	0.072	176394	keystroke_s	s	n/a
88.413	0.112	176826	keystroke_f	f	n/a
88.685	0.025	177370	keystroke_u	u	n/a
88.893	0.081	177786	keystroke_l	l	n/a
89.037	0.12	178074	keystroke_Key.space	Key.space	n/a
89.221	0.1045	178442	keystroke_v	v	n/a
89.3415	0.08	178683	keystroke_a	a	n/a
89.5095	0.056	179019	keystroke_c	c	n/a
89.6375	0.072	179275	keystroke_c	c	n/a
89.7255	0.064	179451	keystroke_i	i	n/a
89.8215	0.103	179643	keystroke_n	n	n/a
89.9325	0.056	179865	keystroke_e	e	n/a
90.0685	0.08	180137	keystroke_Key.enter	Key.enter	n/a
90.156	5.755	180312	prompt	n/a	deals charm florida capture\n
90.6535	0.048	181307	keystroke_m	m	n/a
90.9485	0.056	181897	keystroke_Key.backspace	Key.backspace	n/a
90.9895	0.063	181979	keystroke_d	d	n/a
91.1325	0.104	182265	keystroke_e	e	n/a
91.2045	0.1045	182409	keystroke_a	a	n/a
91.317	0.128	182634	keystroke_l	l	n/a
91.389	0.096	182778	keystroke_s	s	n/a
91.453	0.064	182906	keystroke_Key.space	Key.space	n/a
91.693	0.0885	183386	keystroke_c	c	n/a
91.797	0.088	183594	keystroke_h	h	n/a
91.877	0.0805	183754	keystroke_a	a	n/a
91.9575	0.0955	183915	keystroke_r	r	n/a
92.045	0.12	184090	keystroke_m	m	n/a
92.1335	0.0795	184267	keystroke_Key.space	Key.space	n/a
92.3655	0.0955	184731	keystroke_l	l	n/a
92.597	0.104	185194	keystroke_o	o	n/a
93.1415	0.056	186283	keystroke_Key.backspace	Key.backspace	n/a
93.3495	0.08	186699	keystroke_f	f	n/a
93.5575	0.064	187115	keystroke_Key.backspace	Key.backspace	n/a
93.6775	0.064	187355	keystroke_Key.backspace	Key.backspace	n/a
93.7975	0.08	187595	keystroke_f	f	n/a
93.8855	0.096	187771	keystroke_l	l	n/a
94.0935	0.096	188187	keystroke_o	o	n/a
94.2695	0.056	188539	keystroke_r	r	n/a
94.3575	0.1195	188715	keystroke_i	i	n/a
94.4295	0.1595	188859	keystroke_d	d	n/a
94.533	0.096	189066	keystroke_a	a	n/a
94.613	0.072	189226	keystroke_Key.space	Key.space	n/a
94.725	0.112	189450	keystroke_c	c	n/a
95.173	0.088	190346	keystroke_a	a	n/a
95.309	0.104	190618	keystroke_p	p	n/a
95.445	0.064	190890	keystroke_t	t	n/a
95.573	0.08	191146	keystroke_u	u	n/a
95.613	0.104	191226	keystroke_r	r	n/a
95.669	0.088	191338	keystroke_e	e	n/a
95.8205	0.089	191641	keystroke_Key.enter	Key.enter	n/a
95.9135	4.4685	191827	prompt	n/a	position robust pose whether\n
96.405	0.064	192810	keystroke_p	p	n/a
96.525	0.104	193050	keystroke_o	o	n/a
96.605	0.08	193210	keystroke_s	s	n/a
96.733	0.0635	193466	keystroke_i	i	n/a
96.8285	0.089	193657	keystroke_t	t	n/a
96.8775	0.0875	193755	keystroke_i	i	n/a
96.9255	0.12	193851	keystroke_o	o	n/a
96.9975	0.1195	193995	keystroke_n	n	n/a
97.085	0.0565	194170	keystroke_Key.space	Key.space	n/a
97.573	0.08	195146	keystroke_r	r	n/a
97.693	0.104	195386	keystroke_o	o	n/a
97.805	0.072	195610	keystroke_b	b	n/a
97.941	0.112	195882	keystroke_u	u	n/a
98.037	0.112	196074	keystroke_s	s	n/a
98.101	0.104	196202	keystroke_t	t	n/a
98.181	0.072	196362	keystroke_Key.space	Key.space	n/a
98.317	0.096	196634	keystroke_p	p	n/a
98.477	0.1285	196954	keystroke_o	o	n/a
98.5335	0.112	197067	keystroke_s	s	n/a
98.6125	0.105	197225	keystroke_e	e	n/a
98.8045	0.088	197609	keystroke_w	w	n/a
99.1655	0.072	198331	keystroke_Key.backspace	Key.backspace	n/a
99.2125	0.096	198425	keystroke_Key.space	Key.space	n/a
99.3005	0.112	198601	keystroke_w	w	n/a
99.4445	0.104	198889	keystroke_h	h	n/a
99.7645	0.104	199529	keystroke_e	e	n/a
99.885	0.088	199770	keystroke_t	t	n/a
100.021	0.0955	200042	keystroke_h	h	n/a
100.085	0.12	200170	keystroke_e	e	n/a
100.133	0.104	200266	keystroke_r	r	n/a
100.285	0.096	200570	keystroke_Key.enter	Key.enter	n/a
100.385	5.1735	200770	prompt	n/a	aggregate ozone prostate poem\n
100.917	0.0955	201834	keystroke_a	a	n/a
101.0605	0.056	202121	keystroke_g	g	n/a
101.1885	0.056	202377	keystroke_g	g	n/a
101.3485	0.089	202697	keystroke_r	r	n/a
101.3965	0.081	202793	keystroke_e	e	n/a
101.5405	0.088	203081	keystroke_g	g	n/a
101.5965	0.12	203193	keystroke_a	a	n/a
101.7415	0.112	203483	keystroke_t	t	n/a
101.7895	0.119	203579	keystroke_e	e	n/a
101.8455	0.087	203691	keystroke_Key.space	Key.space	n/a
102.0845	0.112	204169	keystroke_o	o	n/a
102.1885	0.12	204377	keystroke_z	z	n/a
102.3735	0.111	204747	keystroke_o	o	n/a
102.4925	0.128	204985	keystroke_n	n	n/a
102.5565	0.088	205113	keystroke_e	e	n/a
102.6125	0.08	205225	keystroke_Key.space	Key.space	n/a
102.772	0.0965	205544	keystroke_p	p	n/a
102.8845	0.08	205769	keystroke_r	r	n/a
103.0055	0.103	206011	keystroke_o	o	n/a
103.3965	0.08	206793	keystroke_Key.backspace	Key.backspace	n/a
103.7805	0.112	207561	keystroke_o	o	n/a
103.9645	0.0805	207929	keystroke_s	s	n/a
104.093	0.088	208186	keystroke_t	t	n/a
104.613	0.112	209226	keystroke_a	a	n/a
104.741	0.12	209482	keystroke_t	t	n/a
104.805	0.12	209610	keystroke_e	e	n/a
104.917	0.039	209834	keystroke_Key.space	Key.space	n/a
105.021	0.08	210042	keystroke_p	p	n/a
105.141	0.072	210282	keystroke_o	o	n/a
105.18	0.081	210360	keystroke_e	e	n/a
105.309	0.072	210618	keystroke_m	m	n/a
105.477	0.08	210954	keystroke_Key.enter	Key.enter	n/a
105.5615	4.1485	211123	prompt	n/a	turner consulting obtained homes\n
106.268	0.072	212536	keystroke_t	t	n/a
106.396	0.08	212792	keystroke_u	u	n/a
106.477	0.071	212954	keystroke_r	r	n/a
106.604	0.145	213208	keystroke_n	n	n/a
106.677	0.135	213354	keystroke_e	e	n/a
106.741	0.096	213482	keystroke_r	r	n/a
106.804	0.08	213608	keystroke_Key.space	Key.space	n/a
106.98	0.096	213960	keystroke_c	c	n/a
107.036	0.113	214072	keystroke_o	o	n/a
107.101	0.079	214202	keystroke_n	n	n/a
107.205	0.112	214410	keystroke_s	s	n/a
107.332	0.064	214664	keystroke_u	u	n/a
107.444	0.081	214888	keystroke_l	l	n/a
107.564	0.104	215128	keystroke_t	t	n/a
107.58	0.072	215160	keystroke_i	i	n/a
107.692	0.1285	215384	keystroke_n	n	n/a
107.7885	0.064	215577	keystroke_g	g	n/a
107.8125	0.064	215625	keystroke_Key.space	Key.space	n/a
107.9405	0.144	215881	keystroke_o	o	n/a
108.0525	0.088	216105	keystroke_b	b	n/a
108.2925	0.072	216585	keystroke_t	t	n/a
108.3325	0.12	216665	keystroke_a	a	n/a
108.4285	0.088	216857	keystroke_i	i	n/a
108.5005	0.112	217001	keystroke_n	n	n/a
108.6045	0.048	217209	keystroke_e	e	n/a
108.7325	0.096	217465	keystroke_d	d	n/a
108.8125	0.048	217625	keystroke_Key.space	Key.space	n/a
109.1645	0.088	218329	keystroke_h	h	n/a
109.2365	0.056	218473	keystroke_o	o	n/a
109.3725	0.096	218745	keystroke_m	m	n/a
109.4445	0.096	218889	keystroke_e	e	n/a
109.5005	0.0955	219001	keystroke_s	s	n/a
109.628	0.08	219256	keystroke_Key.enter	Key.enter	n/a
109.713	5.0445	219426	prompt	n/a	nicholas masters addressed mike\n
110.3725	0.112	220745	keystroke_n	n	n/a
110.4685	0.064	220937	keystroke_i	i	n/a
110.5485	0.096	221097	keystroke_c	c	n/a
110.6125	0.08	221225	keystroke_h	h	n/a
110.6685	0.072	221337	keystroke_o	o	n/a
110.8285	0.128	221657	keystroke_l	l	n/a
110.8845	0.1125	221769	keystroke_a	a	n/a
110.9565	0.1205	221913	keystroke_s	s	n/a
111.005	0.088	222010	keystroke_Key.space	Key.space	n/a
111.205	0.1195	222410	keystroke_m	m	n/a
111.269	0.1275	222538	keystroke_a	a	n/a
111.7645	0.104	223529	keystroke_s	s	n/a
111.9165	0.08	223833	keystroke_t	t	n/a
112.0925	0.144	224185	keystroke_e	e	n/a
112.3325	0.176	224665	keystroke_r	r	n/a
112.4205	0.12	224841	keystroke_s	s	n/a
112.5085	0.072	225017	keystroke_Key.space	Key.space	n/a
112.788	0.089	225576	keystroke_a	a	n/a
112.956	0.064	225912	keystroke_d	d	n/a
113.077	0.088	226154	keystroke_d	d	n/a
113.26	0.0805	226520	keystroke_r	r	n/a
113.3725	0.088	226745	keystroke_e	e	n/a
113.5565	0.08	227113	keystroke_s	s	n/a
113.6925	0.08	227385	keystroke_s	s	n/a
113.9165	0.048	227833	keystroke_e	e	n/a
114.0365	0.112	228073	keystroke_d	d	n/a
114.1245	0.064	228249	keystroke_Key.space	Key.space	n/a
114.2365	0.072	228473	keystroke_m	m	n/a
114.3325	0.04	228665	keystroke_i	i	n/a
114.4765	0.08	228953	keystroke_k	k	n/a
114.5405	0.048	229081	keystroke_e	e	n/a
114.6765	0.08	229353	keystroke_Key.enter	Key.enter	n/a
114.7615	5.0445	229523	prompt	n/a	salary patch coating what'd\n
115.4205	0.096	230841	keystroke_s	s	n/a
115.4925	0.104	230985	keystroke_a	a	n/a
115.6685	0.08	231337	keystroke_l	l	n/a
115.7565	0.12	231513	keystroke_a	a	n/a
115.9245	0.104	231849	keystroke_r	r	n/a
116.0445	0.104	232089	keystroke_y	y	n/a
116.1165	0.096	232233	keystroke_Key.space	Key.space	n/a
116.3085	0.112	232617	keystroke_p	p	n/a
116.4925	0.104	232985	keystroke_a	a	n/a
116.6525	0.08	233305	keystroke_t	t	n/a
116.8925	0.136	233785	keystroke_c	c	n/a
116.9645	0.112	233929	keystroke_h	h	n/a
117.0365	0.08	234073	keystroke_Key.space	Key.space	n/a
117.2845	0.104	234569	keystroke_c	c	n/a
117.4205	0.12	234841	keystroke_o	o	n/a
117.5325	0.08	235065	keystroke_a	a	n/a
117.6525	0.096	235305	keystroke_t	t	n/a
117.7325	0.056	235465	keystroke_i	i	n/a
117.8125	0.104	235625	keystroke_n	n	n/a
117.9085	0.056	235817	keystroke_g	g	n/a
118.1805	0.104	236361	keystroke_Key.space	Key.space	n/a
118.3165	0.088	236633	keystroke_w	w	n/a
118.4365	0.104	236873	keystroke_h	h	n/a
118.4925	0.088	236985	keystroke_a	a	n/a
118.5645	0.072	237129	keystroke_t	t	n/a
118.7485	0.104	237497	keystroke_'	'	n/a
118.9725	0.088	237945	keystroke_l	l	n/a
119.3725	0.056	238745	keystroke_Key.backspace	Key.backspace	n/a
119.4845	0.08	238969	keystroke_d	d	n/a
119.7245	0.08	239449	keystroke_Key.enter	Key.enter	n/a
119.809	4.7415	239618	prompt	n/a	exclusive durable closely picture\n
120.349	0.08	240698	keystroke_e	e	n/a
120.533	0.072	241066	keystroke_x	x	n/a
120.709	0.088	241418	keystroke_c	c	n/a
120.821	0.079	241642	keystroke_l	l	n/a
120.964	0.097	241928	keystroke_u	u	n/a
121.068	0.088	242136	keystroke_s	s	n/a
121.14	0.097	242280	keystroke_i	i	n/a
121.253	0.0715	242506	keystroke_v	v	n/a
121.4205	0.112	242841	keystroke_e	e	n/a
121.5325	0.072	243065	keystroke_Key.space	Key.space	n/a
121.7165	0.08	243433	keystroke_d	d	n/a
121.845	0.1105	243690	keystroke_u	u	n/a
121.9245	0.0805	243849	keystroke_r	r	n/a
121.996	0.113	243992	keystroke_a	a	n/a
122.1485	0.08	244297	keystroke_b	b	n/a
122.2445	0.1285	244489	keystroke_l	l	n/a
122.308	0.096	244616	keystroke_e	e	n/a
122.373	0.063	244746	keystroke_Key.space	Key.space	n/a
122.493	0.088	244986	keystroke_c	c	n/a
122.589	0.064	245178	keystroke_l	l	n/a
122.748	0.0965	245496	keystroke_o	o	n/a
122.8525	0.104	245705	keystroke_s	s	n/a
123.0285	0.0795	246057	keystroke_e	e	n/a
123.228	0.065	246456	keystroke_l	l	n/a
123.4205	0.112	246841	keystroke_y	y	n/a
123.5005	0.072	247001	keystroke_Key.space	Key.space	n/a
123.6285	0.096	247257	keystroke_p	p	n/a
123.7965	0.104	247593	keystroke_i	i	n/a
123.9245	0.08	247849	keystroke_c	c	n/a
124.1085	0.08	248217	keystroke_t	t	n/a
124.2045	0.096	248409	keystroke_u	u	n/a
124.2925	0.12	248585	keystroke_r	r	n/a
124.3565	0.0795	248713	keystroke_e	e	n/a
124.46	0.088	248920	keystroke_Key.enter	Key.enter	n/a
124.553	7.149	249106	prompt	n/a	longitude panasonic overseas measure\n
125.077	0.079	250154	keystroke_l	l	n/a
125.228	0.12	250456	keystroke_o	o	n/a
125.316	0.104	250632	keystroke_n	n	n/a
125.428	0.048	250856	keystroke_g	g	n/a
125.548	0.088	251096	keystroke_i	i	n/a
125.692	0.088	251384	keystroke_t	t	n/a
125.828	0.1045	251656	keystroke_u	u	n/a
125.9085	0.072	251817	keystroke_d	d	n/a
126.0365	0.104	252073	keystroke_e	e	n/a
126.1085	0.104	252217	keystroke_Key.space	Key.space	n/a
126.2205	0.096	252441	keystroke_p	p	n/a
126.332	0.0885	252664	keystroke_a	a	n/a
126.4215	0.111	252843	keystroke_n	n	n/a
126.5805	0.088	253161	keystroke_s	s	n/a
126.764	0.0725	253528	keystroke_a	a	n/a
127.333	0.063	254666	keystroke_Key.backspace	Key.backspace	n/a
127.668	0.064	255336	keystroke_Key.backspace	Key.backspace	n/a
127.757	0.0875	255514	keystroke_a	a	n/a
128.0845	0.08	256169	keystroke_s	s	n/a
128.2285	0.1035	256457	keystroke_a	a	n/a
128.4525	0.112	256905	keystroke_n	n	n/a
128.86	0.064	257720	keystroke_Key.backspace	Key.backspace	n/a
128.98	0.048	257960	keystroke_Key.backspace	Key.backspace	n/a
129.156	0.088	258312	keystroke_o	o	n/a
129.26	0.104	258520	keystroke_n	n	n/a
129.372	0.12	258744	keystroke_i	i	n/a
129.5	0.088	259000	keystroke_c	c	n/a
129.564	0.088	259128	keystroke_Key.space	Key.space	n/a
129.86	0.112	259720	keystroke_o	o	n/a
129.996	0.088	259992	keystroke_v	v	n/a
130.157	0.128	260314	keystroke_e	e	n/a
130.244	0.104	260488	keystroke_r	r	n/a
130.381	0.096	260762	keystroke_s	s	n/a
130.484	0.105	260968	keystroke_e	e	n/a
130.564	0.152	261128	keystroke_a	a	n/a
130.677	0.128	261354	keystroke_s	s	n/a
130.805	0.056	261610	keystroke_Key.space	Key.space	n/a
130.933	0.128	261866	keystroke_m	m	n/a
131.004	0.113	262008	keystroke_e	e	n/a
131.084	0.12	262168	keystroke_a	a	n/a
131.196	0.064	262392	keystroke_s	s	n/a
131.3245	0.104	262649	keystroke_u	u	n/a
131.4125	0.12	262825	keystroke_r	r	n/a
131.4765	0.088	262953	keystroke_e	e	n/a
131.6125	0.088	263225	keystroke_Key.enter	Key.enter	n/a
131.7045	6.045	263409	prompt	n/a	materials recorders terminals changes\n
132.3645	0.112	264729	keystroke_m	m	n/a
132.4205	0.104	264841	keystroke_a	a	n/a
132.5165	0.072	265033	keystroke_t	t	n/a
132.6125	0.144	265225	keystroke_e	e	n/a
132.7245	0.112	265449	keystroke_r	r	n/a
132.8605	0.088	265721	keystroke_i	i	n/a
132.9325	0.096	265865	keystroke_a	a	n/a
133.0685	0.12	266137	keystroke_l	l	n/a
133.1245	0.096	266249	keystroke_s	s	n/a
133.1805	0.08	266361	keystroke_Key.space	Key.space	n/a
133.3645	0.08	266729	keystroke_r	r	n/a
133.4285	0.056	266857	keystroke_e	e	n/a
133.5645	0.072	267129	keystroke_c	c	n/a
133.7085	0.112	267417	keystroke_o	o	n/a
133.7885	0.048	267577	keystroke_r	r	n/a
133.9085	0.072	267817	keystroke_d	d	n/a
134.0605	0.12	268121	keystroke_e	e	n/a
134.1485	0.176	268297	keystroke_r	r	n/a
134.2365	0.128	268473	keystroke_s	s	n/a
134.3165	0.08	268633	keystroke_Key.space	Key.space	n/a
134.6925	0.072	269385	keystroke_t	t	n/a
134.7965	0.12	269593	keystroke_e	e	n/a
134.8765	0.096	269753	keystroke_r	r	n/a
134.9645	0.096	269929	keystroke_m	m	n/a
135.1085	0.08	270217	keystroke_i	i	n/a
135.2925	0.0875	270585	keystroke_n	n	n/a
136.2925	0.104	272585	keystroke_a	a	n/a
136.4365	0.104	272873	keystroke_l	l	n/a
136.4925	0.136	272985	keystroke_s	s	n/a
136.6045	0.088	273209	keystroke_Key.space	Key.space	n/a
136.892	0.104	273784	keystroke_c	c	n/a
137.004	0.064	274008	keystroke_h	h	n/a
137.076	0.072	274152	keystroke_a	a	n/a
137.188	0.096	274376	keystroke_n	n	n/a
137.228	0.1115	274456	keystroke_g	g	n/a
137.276	0.1115	274552	keystroke_e	e	n/a
137.3405	0.088	274681	keystroke_s	s	n/a
137.6675	0.08	275335	keystroke_Key.enter	Key.enter	n/a
137.752	5.5735	275504	prompt	n/a	soldiers environment jacob handy\n
138.2275	0.089	276455	keystroke_s	s	n/a
138.3245	0.072	276649	keystroke_o	o	n/a
138.4845	0.096	276969	keystroke_l	l	n/a
138.7405	0.08	277481	keystroke_d	d	n/a
138.9155	0.089	277831	keystroke_i	i	n/a
138.9795	0.217	277959	keystroke_e	e	n/a
139.0605	0.168	278121	keystroke_r	r	n/a
139.1645	0.104	278329	keystroke_s	s	n/a
139.2125	0.087	278425	keystroke_Key.space	Key.space	n/a
139.5875	0.08	279175	keystroke_e	e	n/a
139.6915	0.08	279383	keystroke_n	n	n/a
139.8035	0.088	279607	keystroke_v	v	n/a
139.8595	0.104	279719	keystroke_i	i	n/a
140.22	0.12	280440	keystroke_o	o	n/a
140.636	0.048	281272	keystroke_Key.backspace	Key.backspace	n/a
140.764	0.064	281528	keystroke_r	r	n/a
140.844	0.104	281688	keystroke_o	o	n/a
141.012	0.072	282024	keystroke_n	n	n/a
141.188	0.096	282376	keystroke_m	m	n/a
141.292	0.104	282584	keystroke_e	e	n/a
141.388	0.104	282776	keystroke_n	n	n/a
141.42	0.096	282840	keystroke_t	t	n/a
141.492	0.064	282984	keystroke_Key.space	Key.space	n/a
141.612	0.104	283224	keystroke_j	j	n/a
141.756	0.12	283512	keystroke_a	a	n/a
142.0675	0.096	284135	keystroke_c	c	n/a
142.2515	0.0885	284503	keystroke_o	o	n/a
142.3235	0.0645	284647	keystroke_b	b	n/a
142.5235	0.088	285047	keystroke_Key.space	Key.space	n/a
142.6915	0.072	285383	keystroke_h	h	n/a
142.7395	0.08	285479	keystroke_a	a	n/a
142.8595	0.072	285719	keystroke_n	n	n/a
142.9635	0.08	285927	keystroke_d	d	n/a
143.0755	0.072	286151	keystroke_y	y	n/a
143.2595	0.064	286519	keystroke_Key.enter	Key.enter	n/a
143.33	3.7795	286660	prompt	n/a	bacon options debt slightly\n
143.8765	0.096	287753	keystroke_b	b	n/a
144.0205	0.056	288041	keystroke_a	a	n/a
144.1165	0.096	288233	keystroke_c	c	n/a
144.2045	0.12	288409	keystroke_o	o	n/a
144.2845	0.12	288569	keystroke_n	n	n/a
144.3725	0.056	288745	keystroke_Key.space	Key.space	n/a
144.4845	0.08	288969	keystroke_o	o	n/a
144.6285	0.096	289257	keystroke_p	p	n/a
144.8045	0.088	289609	keystroke_t	t	n/a
144.8925	0.12	289785	keystroke_i	i	n/a
144.9485	0.152	289897	keystroke_o	o	n/a
145.0205	0.136	290041	keystroke_n	n	n/a
145.0845	0.12	290169	keystroke_s	s	n/a
145.1645	0.064	290329	keystroke_Key.space	Key.space	n/a
145.316	0.064	290632	keystroke_d	d	n/a
145.452	0.064	290904	keystroke_e	e	n/a
145.612	0.072	291224	keystroke_b	b	n/a
145.788	0.112	291576	keystroke_t	t	n/a
145.876	0.08	291752	keystroke_Key.space	Key.space	n/a
146.02	0.088	292040	keystroke_s	s	n/a
146.124	0.064	292248	keystroke_l	l	n/a
146.26	0.088	292520	keystroke_i	i	n/a
146.332	0.064	292664	keystroke_g	g	n/a
146.444	0.104	292888	keystroke_h	h	n/a
146.58	0.072	293160	keystroke_t	t	n/a
146.676	0.072	293352	keystroke_l	l	n/a
146.828	0.072	293656	keystroke_y	y	n/a
147.02	0.088	294040	keystroke_Key.enter	Key.enter	n/a
147.114	5.0675	294228	prompt	n/a	restaurant composer length cingular\n
147.7	0.16	295400	keystroke_r	r	n/a
147.812	0.08	295624	keystroke_e	e	n/a
147.844	0.112	295688	keystroke_s	s	n/a
147.972	0.096	295944	keystroke_t	t	n/a
148.06	0.12	296120	keystroke_a	a	n/a
148.268	0.088	296536	keystroke_u	u	n/a
148.38	0.128	296760	keystroke_r	r	n/a
148.46	0.104	296920	keystroke_a	a	n/a
148.588	0.136	297176	keystroke_n	n	n/a
148.668	0.104	297336	keystroke_t	t	n/a
148.74	0.08	297480	keystroke_Key.space	Key.space	n/a
149.0605	0.096	298121	keystroke_c	c	n/a
149.1235	0.081	298247	keystroke_o	o	n/a
149.2355	0.104	298471	keystroke_m	m	n/a
149.3005	0.103	298601	keystroke_p	p	n/a
149.4605	0.128	298921	keystroke_o	o	n/a
149.5395	0.129	299079	keystroke_s	s	n/a
149.6525	0.1755	299305	keystroke_e	e	n/a
149.748	0.112	299496	keystroke_r	r	n/a
150.172	0.072	300344	keystroke_Key.space	Key.space	n/a
150.3395	0.088	300679	keystroke_l	l	n/a
150.4355	0.08	300871	keystroke_e	e	n/a
150.5075	0.104	301015	keystroke_n	n	n/a
150.6205	0.079	301241	keystroke_g	g	n/a
150.8035	0.1125	301607	keystroke_t	t	n/a
150.8675	0.1205	301735	keystroke_h	h	n/a
150.94	0.112	301880	keystroke_Key.space	Key.space	n/a
151.196	0.096	302392	keystroke_c	c	n/a
151.276	0.072	302552	keystroke_i	i	n/a
151.38	0.104	302760	keystroke_n	n	n/a
151.54	0.096	303080	keystroke_g	g	n/a
151.668	0.08	303336	keystroke_u	u	n/a
151.788	0.112	303576	keystroke_l	l	n/a
151.844	0.096	303688	keystroke_a	a	n/a
151.908	0.104	303816	keystroke_r	r	n/a
152.1	0.0795	304200	keystroke_Key.enter	Key.enter	n/a
152.1845	4.301	304369	prompt	n/a	shorter student segments household\n
152.6835	0.096	305367	keystroke_s	s	n/a
152.7875	0.104	305575	keystroke_h	h	n/a
152.86	0.0795	305720	keystroke_o	o	n/a
152.8995	0.081	305799	keystroke_r	r	n/a
153.0675	0.073	306135	keystroke_t	t	n/a
153.1555	0.16	306311	keystroke_e	e	n/a
153.2595	0.08	306519	keystroke_r	r	n/a
153.3075	0.088	306615	keystroke_Key.space	Key.space	n/a
153.4195	0.112	306839	keystroke_s	s	n/a
153.5155	0.072	307031	keystroke_t	t	n/a
153.6195	0.112	307239	keystroke_u	u	n/a
153.7165	0.056	307433	keystroke_d	d	n/a
153.8355	0.112	307671	keystroke_e	e	n/a
153.9325	0.111	307865	keystroke_n	n	n/a
153.9805	0.095	307961	keystroke_t	t	n/a
154.0595	0.064	308119	keystroke_Key.space	Key.space	n/a
154.2595	0.16	308519	keystroke_s	s	n/a
154.4205	0.103	308841	keystroke_e	e	n/a
154.5955	0.08	309191	keystroke_g	g	n/a
154.7075	0.104	309415	keystroke_m	m	n/a
154.7875	0.104	309575	keystroke_e	e	n/a
154.8995	0.144	309799	keystroke_n	n	n/a
154.9635	0.137	309927	keystroke_t	t	n/a
155.0285	0.119	310057	keystroke_s	s	n/a
155.0915	0.072	310183	keystroke_Key.space	Key.space	n/a
155.1885	0.1195	310377	keystroke_h	h	n/a
155.2675	0.0805	310535	keystroke_o	o	n/a
155.6035	0.08	311207	keystroke_u	u	n/a
155.6995	0.1205	311399	keystroke_s	s	n/a
155.812	0.088	311624	keystroke_e	e	n/a
155.964	0.096	311928	keystroke_h	h	n/a
156.044	0.072	312088	keystroke_o	o	n/a
156.212	0.072	312424	keystroke_l	l	n/a
156.292	0.072	312584	keystroke_d	d	n/a
156.404	0.0805	312808	keystroke_Key.enter	Key.enter	n/a
156.489	3.637	312978	prompt	n/a	moderators caught shares bent\n
157.004	0.0805	314008	keystroke_m	m	n/a
157.1325	0.12	314265	keystroke_o	o	n/a
157.1965	0.08	314393	keystroke_d	d	n/a
157.3485	0.1115	314697	keystroke_e	e	n/a
157.428	0.112	314856	keystroke_r	r	n/a
157.524	0.1125	315048	keystroke_a	a	n/a
157.644	0.0805	315288	keystroke_t	t	n/a
157.7485	0.1195	315497	keystroke_o	o	n/a
157.836	0.096	315672	keystroke_r	r	n/a
157.876	0.128	315752	keystroke_s	s	n/a
157.948	0.088	315896	keystroke_Key.space	Key.space	n/a
158.116	0.144	316232	keystroke_c	c	n/a
158.204	0.104	316408	keystroke_a	a	n/a
158.292	0.104	316584	keystroke_u	u	n/a
158.476	0.072	316952	keystroke_g	g	n/a
158.524	0.128	317048	keystroke_h	h	n/a
158.652	0.104	317304	keystroke_t	t	n/a
158.724	0.088	317448	keystroke_Key.space	Key.space	n/a
158.86	0.096	317720	keystroke_s	s	n/a
158.956	0.112	317912	keystroke_h	h	n/a
159.028	0.088	318056	keystroke_a	a	n/a
159.068	0.184	318136	keystroke_r	r	n/a
159.172	0.176	318344	keystroke_e	e	n/a
159.252	0.128	318504	keystroke_s	s	n/a
159.316	0.104	318632	keystroke_Key.space	Key.space	n/a
159.508	0.064	319016	keystroke_b	b	n/a
159.66	0.088	319320	keystroke_e	e	n/a
159.732	0.08	319464	keystroke_n	n	n/a
159.8835	0.064	319767	keystroke_t	t	n/a
160.0355	0.088	320071	keystroke_Key.enter	Key.enter	n/a
160.1285	4.7815	320257	prompt	n/a	retirement whose julian special\n
160.708	0.128	321416	keystroke_r	r	n/a
160.78	0.104	321560	keystroke_e	e	n/a
160.932	0.088	321864	keystroke_t	t	n/a
161.036	0.096	322072	keystroke_i	i	n/a
161.148	0.104	322296	keystroke_r	r	n/a
161.308	0.088	322616	keystroke_m	m	n/a
161.62	0.072	323240	keystroke_Key.backspace	Key.backspace	n/a
161.74	0.08	323480	keystroke_e	e	n/a
161.852	0.08	323704	keystroke_m	m	n/a
161.94	0.1515	323880	keystroke_e	e	n/a
162.012	0.1115	324024	keystroke_n	n	n/a
162.0675	0.104	324135	keystroke_t	t	n/a
162.1475	0.072	324295	keystroke_Key.space	Key.space	n/a
162.2515	0.096	324503	keystroke_w	w	n/a
162.3315	0.144	324663	keystroke_h	h	n/a
162.4115	0.128	324823	keystroke_o	o	n/a
162.4595	0.112	324919	keystroke_s	s	n/a
162.5315	0.1205	325063	keystroke_e	e	n/a
162.604	0.072	325208	keystroke_Key.space	Key.space	n/a
162.684	0.072	325368	keystroke_j	j	n/a
162.86	0.064	325720	keystroke_u	u	n/a
163.028	0.032	326056	keystroke_l	l	n/a
163.108	0.08	326216	keystroke_i	i	n/a
163.228	0.104	326456	keystroke_a	a	n/a
163.3	0.12	326600	keystroke_n	n	n/a
163.396	0.08	326792	keystroke_Key.space	Key.space	n/a
164.06	0.088	328120	keystroke_s	s	n/a
164.156	0.112	328312	keystroke_p	p	n/a
164.276	0.048	328552	keystroke_e	e	n/a
164.396	0.08	328792	keystroke_c	c	n/a
164.468	0.08	328936	keystroke_i	i	n/a
164.572	0.104	329144	keystroke_a	a	n/a
164.668	0.064	329336	keystroke_l	l	n/a
164.828	0.08	329656	keystroke_Key.enter	Key.enter	n/a
164.9135	4.0115	329827	prompt	n/a	interaction diana blocking bags\n
165.4755	0.064	330951	keystroke_i	i	n/a
165.5875	0.144	331175	keystroke_n	n	n/a
165.6515	0.064	331303	keystroke_t	t	n/a
165.7165	0.135	331433	keystroke_e	e	n/a
165.8115	0.088	331623	keystroke_r	r	n/a
165.9155	0.072	331831	keystroke_a	a	n/a
166.0435	0.064	332087	keystroke_c	c	n/a
166.2115	0.128	332423	keystroke_t	t	n/a
166.2595	0.064	332519	keystroke_i	i	n/a
166.2915	0.128	332583	keystroke_o	o	n/a
166.3635	0.144	332727	keystroke_n	n	n/a
166.4835	0.08	332967	keystroke_Key.space	Key.space	n/a
166.6675	0.088	333335	keystroke_d	d	n/a
166.7955	0.104	333591	keystroke_i	i	n/a
166.8835	0.072	333767	keystroke_a	a	n/a
166.9875	0.112	333975	keystroke_n	n	n/a
167.0915	0.088	334183	keystroke_a	a	n/a
167.1635	0.072	334327	keystroke_Key.space	Key.space	n/a
167.3235	0.064	334647	keystroke_b	b	n/a
167.4035	0.056	334807	keystroke_l	l	n/a
167.5475	0.072	335095	keystroke_o	o	n/a
167.6275	0.088	335255	keystroke_c	c	n/a
167.6995	0.072	335399	keystroke_k	k	n/a
167.8355	0.08	335671	keystroke_i	i	n/a
167.9475	0.128	335895	keystroke_n	n	n/a
168.0195	0.048	336039	keystroke_g	g	n/a
168.0355	0.08	336071	keystroke_Key.space	Key.space	n/a
168.196	0.0955	336392	keystroke_b	b	n/a
168.2755	0.104	336551	keystroke_a	a	n/a
168.412	0.12	336824	keystroke_g	g	n/a
168.5	0.0955	337000	keystroke_s	s	n/a
168.876	0.048	337752	keystroke_Key.enter	Key.enter	n/a
168.9275	4.27	337855	prompt	n/a	ecological break junior improve\n
169.484	0.072	338968	keystroke_e	e	n/a
169.636	0.08	339272	keystroke_c	c	n/a
169.732	0.064	339464	keystroke_o	o	n/a
169.956	0.072	339912	keystroke_l	l	n/a
170.108	0.096	340216	keystroke_o	o	n/a
170.204	0.072	340408	keystroke_g	g	n/a
170.284	0.088	340568	keystroke_i	i	n/a
170.404	0.112	340808	keystroke_c	c	n/a
170.476	0.096	340952	keystroke_a	a	n/a
170.556	0.104	341112	keystroke_l	l	n/a
170.628	0.064	341256	keystroke_Key.space	Key.space	n/a
170.74	0.0635	341480	keystroke_b	b	n/a
170.9155	0.128	341831	keystroke_r	r	n/a
171.0035	0.088	342007	keystroke_e	e	n/a
171.0355	0.096	342071	keystroke_a	a	n/a
171.1635	0.136	342327	keystroke_k	k	n/a
171.2595	0.096	342519	keystroke_Key.space	Key.space	n/a
171.4355	0.064	342871	keystroke_j	j	n/a
171.5795	0.064	343159	keystroke_u	u	n/a
171.7475	0.12	343495	keystroke_n	n	n/a
171.8515	0.112	343703	keystroke_i	i	n/a
171.8755	0.128	343751	keystroke_o	o	n/a
172.0605	0.095	344121	keystroke_r	r	n/a
172.1235	0.096	344247	keystroke_Key.space	Key.space	n/a
172.3715	0.048	344743	keystroke_i	i	n/a
172.5075	0.08	345015	keystroke_m	m	n/a
172.5475	0.096	345095	keystroke_p	p	n/a
172.6835	0.064	345367	keystroke_r	r	n/a
172.7395	0.1285	345479	keystroke_o	o	n/a
172.86	0.072	345720	keystroke_v	v	n/a
172.988	0.064	345976	keystroke_e	e	n/a
173.1	0.096	346200	keystroke_Key.enter	Key.enter	n/a
173.2005	4.957	346401	prompt	n/a	reproduction hostels felt brazil\n
173.7715	0.129	347543	keystroke_r	r	n/a
173.8445	0.079	347689	keystroke_e	e	n/a
173.9635	0.056	347927	keystroke_p	p	n/a
174.1955	0.088	348391	keystroke_r	r	n/a
174.3245	0.111	348649	keystroke_o	o	n/a
174.4195	0.088	348839	keystroke_d	d	n/a
174.5475	0.096	349095	keystroke_u	u	n/a
174.6515	0.08	349303	keystroke_c	c	n/a
174.8675	0.088	349735	keystroke_t	t	n/a
175.0995	0.16	350199	keystroke_i	i	n/a
175.1795	0.1285	350359	keystroke_o	o	n/a
175.2355	0.1445	350471	keystroke_n	n	n/a
175.364	0.096	350728	keystroke_Key.space	Key.space	n/a
175.644	0.112	351288	keystroke_h	h	n/a
175.7	0.12	351400	keystroke_o	o	n/a
175.772	0.088	351544	keystroke_s	s	n/a
175.852	0.12	351704	keystroke_t	t	n/a
175.932	0.104	351864	keystroke_e	e	n/a
176.068	0.136	352136	keystroke_l	l	n/a
176.14	0.112	352280	keystroke_s	s	n/a
176.212	0.08	352424	keystroke_Key.space	Key.space	n/a
176.38	0.08	352760	keystroke_f	f	n/a
176.435	0.112	352870	keystroke_e	e	n/a
176.548	0.136	353096	keystroke_l	l	n/a
176.619	0.08	353238	keystroke_t	t	n/a
176.692	0.071	353384	keystroke_Key.space	Key.space	n/a
177.124	0.096	354248	keystroke_b	b	n/a
177.3235	0.16	354647	keystroke_r	r	n/a
177.4435	0.088	354887	keystroke_a	a	n/a
177.643	0.097	355286	keystroke_z	z	n/a
177.771	0.064	355542	keystroke_i	i	n/a
177.9075	0.072	355815	keystroke_l	l	n/a
178.0595	0.096	356119	keystroke_Key.enter	Key.enter	n/a
178.16	6.341	356320	prompt	n/a	procedure legislation transcription superior\n
178.8435	0.1045	357687	keystroke_p	p	n/a
178.9955	0.072	357991	keystroke_r	r	n/a
179.2515	0.112	358503	keystroke_o	o	n/a
179.4355	0.08	358871	keystroke_c	c	n/a
179.6115	0.0395	359223	keystroke_e	e	n/a
179.819	0.073	359638	keystroke_d	d	n/a
179.971	0.129	359942	keystroke_u	u	n/a
180.011	0.152	360022	keystroke_r	r	n/a
180.075	0.12	360150	keystroke_e	e	n/a
180.164	0.063	360328	keystroke_Key.space	Key.space	n/a
180.3795	0.112	360759	keystroke_l	l	n/a
180.6515	0.08	361303	keystroke_e	e	n/a
180.8275	0.072	361655	keystroke_g	g	n/a
180.9075	0.072	361815	keystroke_i	i	n/a
181.0835	0.104	362167	keystroke_l	l	n/a
181.4035	0.072	362807	keystroke_Key.backspace	Key.backspace	n/a
181.5315	0.08	363063	keystroke_s	s	n/a
181.6115	0.112	363223	keystroke_l	l	n/a
181.7315	0.12	363463	keystroke_a	a	n/a
181.8195	0.104	363639	keystroke_t	t	n/a
181.8755	0.104	363751	keystroke_i	i	n/a
181.9155	0.12	363831	keystroke_o	o	n/a
181.9555	0.1275	363911	keystroke_n	n	n/a
182.0195	0.1035	364039	keystroke_Key.space	Key.space	n/a
182.107	0.064	364214	keystroke_t	t	n/a
182.252	0.103	364504	keystroke_r	r	n/a
182.3	0.095	364600	keystroke_a	a	n/a
182.42	0.079	364840	keystroke_n	n	n/a
182.483	0.0885	364966	keystroke_s	s	n/a
182.6355	0.072	365271	keystroke_c	c	n/a
182.8035	0.08	365607	keystroke_r	r	n/a
182.9155	0.104	365831	keystroke_i	i	n/a
182.9555	0.1195	365911	keystroke_p	p	n/a
183.171	0.072	366342	keystroke_t	t	n/a
183.211	0.128	366422	keystroke_i	i	n/a
183.299	0.144	366598	keystroke_o	o	n/a
183.412	0.104	366824	keystroke_n	n	n/a
183.499	0.104	366998	keystroke_Key.space	Key.space	n/a
183.683	0.088	367366	keystroke_s	s	n/a
183.795	0.145	367590	keystroke_u	u	n/a
183.891	0.088	367782	keystroke_p	p	n/a
183.915	0.144	367830	keystroke_e	e	n/a
184.003	0.104	368006	keystroke_r	r	n/a
184.115	0.12	368230	keystroke_i	i	n/a
184.179	0.08	368358	keystroke_o	o	n/a
184.236	0.079	368472	keystroke_r	r	n/a
184.395	0.104	368790	keystroke_Key.enter	Key.enter	n/a
184.505	4.036	369010	prompt	n/a	floor promotions matches theorem\n
185.0115	0.096	370023	keystroke_f	f	n/a
185.1235	0.064	370247	keystroke_l	l	n/a
185.2835	0.056	370567	keystroke_o	o	n/a
185.3955	0.112	370791	keystroke_o	o	n/a
185.4995	0.088	370999	keystroke_r	r	n/a
185.5635	0.064	371127	keystroke_Key.space	Key.space	n/a
185.6835	0.104	371367	keystroke_p	p	n/a
185.8115	0.072	371623	keystroke_r	r	n/a
185.8595	0.088	371719	keystroke_o	o	n/a
185.9955	0.096	371991	keystroke_m	m	n/a
186.0595	0.112	372119	keystroke_o	o	n/a
186.2275	0.08	372455	keystroke_t	t	n/a
186.3155	0.104	372631	keystroke_i	i	n/a
186.3555	0.144	372711	keystroke_o	o	n/a
186.4115	0.16	372823	keystroke_n	n	n/a
186.4835	0.104	372967	keystroke_s	s	n/a
186.5475	0.08	373095	keystroke_Key.space	Key.space	n/a
186.7475	0.104	373495	keystroke_m	m	n/a
186.8115	0.096	373623	keystroke_a	a	n/a
186.9085	0.079	373817	keystroke_t	t	n/a
187.1315	0.072	374263	keystroke_c	c	n/a
187.2275	0.152	374455	keystroke_h	h	n/a
187.3075	0.104	374615	keystroke_e	e	n/a
187.3555	0.1045	374711	keystroke_s	s	n/a
187.3955	0.0715	374791	keystroke_Key.space	Key.space	n/a
187.7	0.072	375400	keystroke_t	t	n/a
187.796	0.072	375592	keystroke_h	h	n/a
187.844	0.08	375688	keystroke_e	e	n/a
187.956	0.128	375912	keystroke_o	o	n/a
188.06	0.096	376120	keystroke_r	r	n/a
188.124	0.0715	376248	keystroke_e	e	n/a
188.2435	0.088	376487	keystroke_m	m	n/a
188.4595	0.08	376919	keystroke_Key.enter	Key.enter	n/a
188.545	3.308	377090	prompt	n/a	name consult snap stations\n
189.0915	0.088	378183	keystroke_n	n	n/a
189.1715	0.096	378343	keystroke_a	a	n/a
189.2835	0.136	378567	keystroke_m	m	n/a
189.3475	0.088	378695	keystroke_e	e	n/a
189.4035	0.072	378807	keystroke_Key.space	Key.space	n/a
189.5315	0.08	379063	keystroke_c	c	n/a
189.5635	0.136	379127	keystroke_o	o	n/a
189.6515	0.064	379303	keystroke_n	n	n/a
189.7315	0.096	379463	keystroke_s	s	n/a
189.8355	0.0795	379671	keystroke_u	u	n/a
189.947	0.096	379894	keystroke_l	l	n/a
190.051	0.072	380102	keystroke_t	t	n/a
190.331	0.08	380662	keystroke_Key.space	Key.space	n/a
190.483	0.096	380966	keystroke_s	s	n/a
190.58	0.08	381160	keystroke_n	n	n/a
190.668	0.095	381336	keystroke_a	a	n/a
190.747	0.113	381494	keystroke_p	p	n/a
190.835	0.088	381670	keystroke_Key.space	Key.space	n/a
190.963	0.08	381926	keystroke_s	s	n/a
191.107	0.072	382214	keystroke_t	t	n/a
191.171	0.104	382342	keystroke_a	a	n/a
191.283	0.0885	382566	keystroke_t	t	n/a
191.3955	0.104	382791	keystroke_i	i	n/a
191.4515	0.096	382903	keystroke_o	o	n/a
191.4755	0.08	382951	keystroke_n	n	n/a
191.5875	0.08	383175	keystroke_s	s	n/a
191.7635	0.088	383527	keystroke_Key.enter	Key.enter	n/a
191.86	4.3695	383720	prompt	n/a	student devil sitting offense\n
192.731	0.104	385462	keystroke_s	s	n/a
192.859	0.072	385718	keystroke_t	t	n/a
192.963	0.088	385926	keystroke_u	u	n/a
193.139	0.072	386278	keystroke_e	e	n/a
193.435	0.072	386870	keystroke_Key.backspace	Key.backspace	n/a
193.483	0.088	386966	keystroke_d	d	n/a
193.619	0.104	387238	keystroke_e	e	n/a
193.707	0.128	387414	keystroke_n	n	n/a
193.764	0.095	387528	keystroke_t	t	n/a
193.843	0.072	387686	keystroke_Key.space	Key.space	n/a
193.9635	0.088	387927	keystroke_d	d	n/a
194.0995	0.064	388199	keystroke_e	e	n/a
194.2435	0.088	388487	keystroke_v	v	n/a
194.3155	0.088	388631	keystroke_i	i	n/a
194.4275	0.128	388855	keystroke_l	l	n/a
194.5475	0.064	389095	keystroke_Key.space	Key.space	n/a
194.6035	0.064	389207	keystroke_s	s	n/a
194.7235	0.08	389447	keystroke_i	i	n/a
194.8355	0.064	389671	keystroke_t	t	n/a
194.9635	0.088	389927	keystroke_t	t	n/a
195.0435	0.104	390087	keystroke_i	i	n/a
195.1315	0.12	390263	keystroke_n	n	n/a
195.1795	0.088	390359	keystroke_g	g	n/a
195.2275	0.056	390455	keystroke_Key.space	Key.space	n/a
195.363	0.12	390726	keystroke_o	o	n/a
195.475	0.048	390950	keystroke_f	f	n/a
195.587	0.072	391174	keystroke_f	f	n/a
195.707	0.072	391414	keystroke_e	e	n/a
195.795	0.104	391590	keystroke_n	n	n/a
195.875	0.144	391750	keystroke_s	s	n/a
195.987	0.096	391974	keystroke_e	e	n/a
196.139	0.088	392278	keystroke_Key.enter	Key.enter	n/a
196.232	4.621	392464	prompt	n/a	desert spank bank iraq\n
196.8755	0.072	393751	keystroke_d	d	n/a
197.0435	0.08	394087	keystroke_e	e	n/a
197.347	0.097	394694	keystroke_s	s	n/a
197.5	0.183	395000	keystroke_e	e	n/a
197.619	0.104	395238	keystroke_r	r	n/a
197.812	0.095	395624	keystroke_t	t	n/a
197.875	0.072	395750	keystroke_Key.space	Key.space	n/a
198.011	0.072	396022	keystroke_s	s	n/a
198.084	0.103	396168	keystroke_p	p	n/a
198.171	0.08	396342	keystroke_a	a	n/a
198.259	0.096	396518	keystroke_n	n	n/a
198.388	0.104	396776	keystroke_k	k	n/a
198.579	0.08	397158	keystroke_Key.space	Key.space	n/a
198.747	0.072	397494	keystroke_b	b	n/a
198.812	0.111	397624	keystroke_a	a	n/a
198.899	0.144	397798	keystroke_n	n	n/a
198.955	0.112	397910	keystroke_k	k	n/a
199.044	0.063	398088	keystroke_Key.space	Key.space	n/a
199.211	0.096	398422	keystroke_i	i	n/a
199.323	0.08	398646	keystroke_q	q	n/a
199.6195	0.072	399239	keystroke_Key.backspace	Key.backspace	n/a
199.6755	0.104	399351	keystroke_r	r	n/a
200.0035	0.096	400007	keystroke_a	a	n/a
200.2995	0.152	400599	keystroke_q	q	n/a
200.779	0.072	401558	keystroke_Key.enter	Key.enter	n/a
200.856	4.981	401712	prompt	n/a	arrivals pressed champion evidence\n
201.555	0.088	403110	keystroke_a	a	n/a
201.731	0.056	403462	keystroke_r	r	n/a
201.843	0.065	403686	keystroke_r	r	n/a
201.947	0.096	403894	keystroke_i	i	n/a
202.02	0.095	404040	keystroke_v	v	n/a
202.075	0.088	404150	keystroke_a	a	n/a
202.179	0.144	404358	keystroke_l	l	n/a
202.259	0.096	404518	keystroke_s	s	n/a
202.307	0.088	404614	keystroke_Key.space	Key.space	n/a
202.635	0.12	405270	keystroke_p	p	n/a
202.715	0.112	405430	keystroke_r	r	n/a
202.804	0.087	405608	keystroke_e	e	n/a
202.9795	0.056	405959	keystroke_s	s	n/a
203.1075	0.072	406215	keystroke_s	s	n/a
203.2355	0.04	406471	keystroke_e	e	n/a
203.363	0.096	406726	keystroke_d	d	n/a
203.411	0.08	406822	keystroke_Key.space	Key.space	n/a
203.596	0.0795	407192	keystroke_c	c	n/a
203.6755	0.072	407351	keystroke_h	h	n/a
203.7555	0.088	407511	keystroke_a	a	n/a
203.8835	0.112	407767	keystroke_m	m	n/a
203.9555	0.104	407911	keystroke_p	p	n/a
204.0835	0.136	408167	keystroke_i	i	n/a
204.1635	0.128	408327	keystroke_o	o	n/a
204.2435	0.128	408487	keystroke_n	n	n/a
204.3635	0.087	408727	keystroke_Key.space	Key.space	n/a
204.7065	0.064	409413	keystroke_e	e	n/a
204.8435	0.08	409687	keystroke_v	v	n/a
204.9315	0.1355	409863	keystroke_i	i	n/a
205.003	0.072	410006	keystroke_d	d	n/a
205.139	0.0725	410278	keystroke_e	e	n/a
205.428	0.087	410856	keystroke_n	n	n/a
205.523	0.096	411046	keystroke_c	c	n/a
205.579	0.072	411158	keystroke_e	e	n/a
205.755	0.08	411510	keystroke_Key.enter	Key.enter	n/a
205.842	4.395	411684	prompt	n/a	millions mask prizes donations\n
206.3635	0.056	412727	keystroke_m	m	n/a
206.4915	0.056	412983	keystroke_i	i	n/a
206.6275	0.064	413255	keystroke_l	l	n/a
206.7635	0.056	413527	keystroke_l	l	n/a
206.9155	0.12	413831	keystroke_i	i	n/a
207.0035	0.12	414007	keystroke_o	o	n/a
207.0435	0.12	414087	keystroke_n	n	n/a
207.1715	0.104	414343	keystroke_s	s	n/a
207.2675	0.0635	414535	keystroke_Key.space	Key.space	n/a
207.371	0.128	414742	keystroke_m	m	n/a
207.491	0.072	414982	keystroke_a	a	n/a
207.611	0.088	415222	keystroke_s	s	n/a
207.715	0.12	415430	keystroke_k	k	n/a
207.891	0.112	415782	keystroke_Key.space	Key.space	n/a
208.107	0.112	416214	keystroke_p	p	n/a
208.315	0.08	416630	keystroke_r	r	n/a
208.467	0.096	416934	keystroke_i	i	n/a
208.564	0.079	417128	keystroke_z	z	n/a
208.883	0.0805	417766	keystroke_e	e	n/a
209.1235	0.152	418247	keystroke_s	s	n/a
209.2355	0.088	418471	keystroke_Key.space	Key.space	n/a
209.4275	0.088	418855	keystroke_d	d	n/a
209.5075	0.128	419015	keystroke_o	o	n/a
209.6035	0.096	419207	keystroke_n	n	n/a
209.6595	0.088	419319	keystroke_a	a	n/a
209.7235	0.112	419447	keystroke_t	t	n/a
209.8195	0.112	419639	keystroke_i	i	n/a
209.8595	0.104	419719	keystroke_o	o	n/a
209.9155	0.064	419831	keystroke_n	n	n/a
209.9475	0.08	419895	keystroke_s	s	n/a
210.1315	0.104	420263	keystroke_Key.enter	Key.enter	n/a
210.2405	4.588	420481	prompt	n/a	specialty wire extension phentermine\n
210.7715	0.088	421543	keystroke_s	s	n/a
210.8835	0.096	421767	keystroke_p	p	n/a
210.9635	0.056	421927	keystroke_e	e	n/a
211.0835	0.088	422167	keystroke_c	c	n/a
211.1795	0.096	422359	keystroke_i	i	n/a
211.291	0.08	422582	keystroke_a	a	n/a
211.427	0.08	422854	keystroke_l	l	n/a
211.603	0.1045	423206	keystroke_t	t	n/a
211.6835	0.112	423367	keystroke_y	y	n/a
211.7475	0.088	423495	keystroke_Key.space	Key.space	n/a
211.8675	0.088	423735	keystroke_w	w	n/a
211.9795	0.144	423959	keystroke_i	i	n/a
212.0355	0.136	424071	keystroke_r	r	n/a
212.1155	0.096	424231	keystroke_e	e	n/a
212.1955	0.055	424391	keystroke_Key.space	Key.space	n/a
212.2995	0.072	424599	keystroke_e	e	n/a
212.4515	0.08	424903	keystroke_x	x	n/a
212.6675	0.104	425335	keystroke_t	t	n/a
212.7555	0.088	425511	keystroke_e	e	n/a
212.8755	0.104	425751	keystroke_n	n	n/a
212.9875	0.08	425975	keystroke_s	s	n/a
213.1235	0.136	426247	keystroke_i	i	n/a
213.1955	0.112	426391	keystroke_o	o	n/a
213.2355	0.128	426471	keystroke_n	n	n/a
213.3305	0.08	426661	keystroke_Key.space	Key.space	n/a
213.4835	0.096	426967	keystroke_p	p	n/a
213.6355	0.088	427271	keystroke_h	h	n/a
213.7155	0.072	427431	keystroke_e	e	n/a
213.8595	0.088	427719	keystroke_n	n	n/a
214.0275	0.072	428055	keystroke_t	t	n/a
214.1225	0.12	428245	keystroke_e	e	n/a
214.2195	0.088	428439	keystroke_r	r	n/a
214.2985	0.1045	428597	keystroke_m	m	n/a
214.3715	0.0635	428743	keystroke_i	i	n/a
214.499	0.096	428998	keystroke_n	n	n/a
214.603	0.056	429206	keystroke_e	e	n/a
214.739	0.088	429478	keystroke_Key.enter	Key.enter	n/a
214.832	5.1085	429664	prompt	n/a	wide examines libraries congratulations\n
215.443	0.088	430886	keystroke_w	w	n/a
215.563	0.12	431126	keystroke_i	i	n/a
215.627	0.08	431254	keystroke_d	d	n/a
215.755	0.088	431510	keystroke_e	e	n/a
215.835	0.08	431670	keystroke_Key.space	Key.space	n/a
215.947	0.056	431894	keystroke_e	e	n/a
216.083	0.112	432166	keystroke_x	x	n/a
216.163	0.096	432326	keystroke_a	a	n/a
216.307	0.072	432614	keystroke_m	m	n/a
216.371	0.048	432742	keystroke_i	i	n/a
216.523	0.1355	433046	keystroke_n	n	n/a
216.6275	0.111	433255	keystroke_e	e	n/a
216.6755	0.112	433351	keystroke_s	s	n/a
216.7545	0.064	433509	keystroke_Key.space	Key.space	n/a
216.8915	0.056	433783	keystroke_l	l	n/a
216.9955	0.112	433991	keystroke_i	i	n/a
217.0825	0.073	434165	keystroke_b	b	n/a
217.2665	0.088	434533	keystroke_r	r	n/a
217.3305	0.104	434661	keystroke_a	a	n/a
217.4745	0.072	434949	keystroke_r	r	n/a
217.6105	0.136	435221	keystroke_i	i	n/a
217.6905	0.152	435381	keystroke_e	e	n/a
217.7625	0.129	435525	keystroke_s	s	n/a
217.8505	0.072	435701	keystroke_Key.space	Key.space	n/a
218.003	0.088	436006	keystroke_c	c	n/a
218.051	0.128	436102	keystroke_o	o	n/a
218.139	0.096	436278	keystroke_n	n	n/a
218.251	0.0885	436502	keystroke_g	g	n/a
218.763	0.1205	437526	keystroke_r	r	n/a
218.8595	0.088	437719	keystroke_a	a	n/a
219.0195	0.08	438039	keystroke_t	t	n/a
219.1395	0.072	438279	keystroke_u	u	n/a
219.2595	0.104	438519	keystroke_l	l	n/a
219.3555	0.0955	438711	keystroke_a	a	n/a
219.419	0.104	438838	keystroke_t	t	n/a
219.483	0.12	438966	keystroke_i	i	n/a
219.547	0.096	439094	keystroke_o	o	n/a
219.579	0.08	439158	keystroke_n	n	n/a
219.683	0.08	439366	keystroke_s	s	n/a
219.8435	0.096	439687	keystroke_Key.enter	Key.enter	n/a
219.944	4.0445	439888	prompt	n/a	hugo grey square tagged\n
220.5235	0.055	441047	keystroke_h	h	n/a
220.6835	0.0635	441367	keystroke_u	u	n/a
220.771	0.088	441542	keystroke_g	g	n/a
220.843	0.136	441686	keystroke_o	o	n/a
220.947	0.088	441894	keystroke_Key.space	Key.space	n/a
221.363	0.048	442726	keystroke_g	g	n/a
221.507	0.112	443014	keystroke_r	r	n/a
221.555	0.144	443110	keystroke_e	e	n/a
221.643	0.1125	443286	keystroke_y	y	n/a
221.699	0.104	443398	keystroke_Key.space	Key.space	n/a
221.9475	0.096	443895	keystroke_s	s	n/a
222.131	0.08	444262	keystroke_q	q	n/a
222.315	0.136	444630	keystroke_u	u	n/a
222.403	0.096	444806	keystroke_a	a	n/a
222.475	0.152	444950	keystroke_r	r	n/a
222.571	0.096	445142	keystroke_e	e	n/a
222.635	0.064	445270	keystroke_Key.space	Key.space	n/a
223.067	0.04	446134	keystroke_t	t	n/a
223.139	0.096	446278	keystroke_a	a	n/a
223.371	0.064	446742	keystroke_g	g	n/a
223.515	0.0475	447030	keystroke_g	g	n/a
223.627	0.056	447254	keystroke_e	e	n/a
223.763	0.08	447526	keystroke_d	d	n/a
223.8985	0.089	447797	keystroke_Key.enter	Key.enter	n/a
223.991	3.302	447982	prompt	n/a	hung race tables dublin\n
224.5155	0.064	449031	keystroke_h	h	n/a
224.6595	0.064	449319	keystroke_u	u	n/a
224.8035	0.128	449607	keystroke_n	n	n/a
224.8595	0.08	449719	keystroke_g	g	n/a
224.9155	0.072	449831	keystroke_Key.space	Key.space	n/a
225.0515	0.088	450103	keystroke_r	r	n/a
225.1235	0.088	450247	keystroke_a	a	n/a
225.2675	0.112	450535	keystroke_c	c	n/a
225.3555	0.112	450711	keystroke_e	e	n/a
225.4435	0.088	450887	keystroke_Key.space	Key.space	n/a
225.5715	0.088	451143	keystroke_t	t	n/a
225.6435	0.096	451287	keystroke_a	a	n/a
225.8035	0.072	451607	keystroke_b	b	n/a
225.9075	0.152	451815	keystroke_l	l	n/a
225.9715	0.112	451943	keystroke_e	e	n/a
226.0515	0.096	452103	keystroke_Key.space	Key.space	n/a
226.3475	0.088	452695	keystroke_d	d	n/a
226.4995	0.104	452999	keystroke_u	u	n/a
226.6435	0.0635	453287	keystroke_b	b	n/a
226.747	0.056	453494	keystroke_l	l	n/a
226.851	0.064	453702	keystroke_i	i	n/a
226.963	0.08	453926	keystroke_n	n	n/a
227.203	0.0875	454406	keystroke_Key.enter	Key.enter	n/a
227.296	4.445	454592	prompt	n/a	commerce friday imperial screen\n
227.8825	0.064	455765	keystroke_c	c	n/a
227.9385	0.065	455877	keystroke_o	o	n/a
228.0835	0.063	456167	keystroke_m	m	n/a
228.2105	0.081	456421	keystroke_m	m	n/a
228.2825	0.096	456565	keystroke_e	e	n/a
228.3145	0.081	456629	keystroke_r	r	n/a
228.5145	0.097	457029	keystroke_c	c	n/a
228.5945	0.096	457189	keystroke_e	e	n/a
228.6825	0.056	457365	keystroke_Key.space	Key.space	n/a
228.8265	0.064	457653	keystroke_f	f	n/a
229.0025	0.072	458005	keystroke_r	r	n/a
229.1315	0.087	458263	keystroke_i	i	n/a
229.1875	0.16	458375	keystroke_d	d	n/a
229.2985	0.0965	458597	keystroke_a	a	n/a
229.387	0.104	458774	keystroke_y	y	n/a
229.467	0.08	458934	keystroke_Key.space	Key.space	n/a
229.643	0.032	459286	keystroke_i	i	n/a
229.771	0.104	459542	keystroke_m	m	n/a
229.795	0.112	459590	keystroke_p	p	n/a
230.115	0.1435	460230	keystroke_e	e	n/a
230.2025	0.104	460405	keystroke_r	r	n/a
230.3955	0.1035	460791	keystroke_i	i	n/a
230.515	0.112	461030	keystroke_a	a	n/a
230.635	0.112	461270	keystroke_l	l	n/a
230.691	0.104	461382	keystroke_Key.space	Key.space	n/a
230.827	0.072	461654	keystroke_s	s	n/a
230.955	0.056	461910	keystroke_c	c	n/a
231.139	0.048	462278	keystroke_r	r	n/a
231.291	0.048	462582	keystroke_e	e	n/a
231.403	0.072	462806	keystroke_e	e	n/a
231.467	0.088	462934	keystroke_n	n	n/a
231.6515	0.087	463303	keystroke_Key.enter	Key.enter	n/a
231.7455	4.179	463491	prompt	n/a	stickers palm miracle listprice\n
232.283	0.0725	464566	keystroke_s	s	n/a
232.3875	0.08	464775	keystroke_t	t	n/a
232.4755	0.071	464951	keystroke_i	i	n/a
232.6035	0.071	465207	keystroke_c	c	n/a
232.6665	0.153	465333	keystroke_k	k	n/a
232.7465	0.121	465493	keystroke_e	e	n/a
232.8345	0.128	465669	keystroke_r	r	n/a
232.8835	0.111	465767	keystroke_s	s	n/a
232.9385	0.096	465877	keystroke_Key.space	Key.space	n/a
233.0915	0.088	466183	keystroke_p	p	n/a
233.2515	0.088	466503	keystroke_a	a	n/a
233.3875	0.079	466775	keystroke_l	l	n/a
233.5785	0.112	467157	keystroke_m	m	n/a
233.6825	0.088	467365	keystroke_Key.space	Key.space	n/a
233.9945	0.088	467989	keystroke_m	m	n/a
234.1545	0.129	468309	keystroke_i	i	n/a
234.2985	0.104	468597	keystroke_r	r	n/a
234.3705	0.08	468741	keystroke_a	a	n/a
234.5385	0.08	469077	keystroke_c	c	n/a
234.6265	0.129	469253	keystroke_l	l	n/a
234.6825	0.112	469365	keystroke_e	e	n/a
234.7625	0.072	469525	keystroke_Key.space	Key.space	n/a
234.931	0.056	469862	keystroke_l	l	n/a
235.051	0.112	470102	keystroke_i	i	n/a
235.107	0.104	470214	keystroke_s	s	n/a
235.195	0.08	470390	keystroke_t	t	n/a
235.307	0.104	470614	keystroke_p	p	n/a
235.419	0.072	470838	keystroke_r	r	n/a
235.523	0.112	471046	keystroke_i	i	n/a
235.627	0.096	471254	keystroke_c	c	n/a
235.707	0.064	471414	keystroke_e	e	n/a
235.843	0.08	471686	keystroke_Key.enter	Key.enter	n/a
235.927	6.7175	471854	prompt	n/a	devon diseases injection trout\n
236.4435	0.079	472887	keystroke_d	d	n/a
236.5955	0.056	473191	keystroke_e	e	n/a
236.7225	0.096	473445	keystroke_v	v	n/a
236.8265	0.137	473653	keystroke_o	o	n/a
236.8985	0.136	473797	keystroke_n	n	n/a
236.9945	0.088	473989	keystroke_Key.space	Key.space	n/a
237.475	0.0875	474950	keystroke_d	d	n/a
237.691	0.112	475382	keystroke_i	i	n/a
237.779	0.104	475558	keystroke_s	s	n/a
237.931	0.1195	475862	keystroke_e	e	n/a
238.0425	0.112	476085	keystroke_a	a	n/a
238.1385	0.072	476277	keystroke_s	s	n/a
238.2185	0.1365	476437	keystroke_e	e	n/a
238.323	0.104	476646	keystroke_s	s	n/a
238.395	0.08	476790	keystroke_Key.space	Key.space	n/a
238.563	0.048	477126	keystroke_i	i	n/a
238.659	0.072	477318	keystroke_n	n	n/a
238.819	0.08	477638	keystroke_j	j	n/a
238.907	0.056	477814	keystroke_e	e	n/a
239.035	0.072	478070	keystroke_c	c	n/a
239.227	0.0965	478454	keystroke_t	t	n/a
239.267	0.1205	478534	keystroke_i	i	n/a
239.3315	0.104	478663	keystroke_o	o	n/a
239.3385	0.137	478677	keystroke_n	n	n/a
239.5395	0.064	479079	keystroke_t	t	n/a
239.6995	0.104	479399	keystroke_r	r	n/a
239.8035	0.119	479607	keystroke_o	o	n/a
239.8905	0.097	479781	keystroke_u	u	n/a
240.1465	0.056	480293	keystroke_Key.backspace	Key.backspace	n/a
240.2585	0.056	480517	keystroke_Key.backspace	Key.backspace	n/a
240.3705	0.088	480741	keystroke_Key.backspace	Key.backspace	n/a
240.4745	0.1045	480949	keystroke_Key.space	Key.space	n/a
240.675	0.088	481350	keystroke_t	t	n/a
240.899	0.048	481798	keystroke_Key.backspace	Key.backspace	n/a
240.995	0.072	481990	keystroke_Key.backspace	Key.backspace	n/a
241.091	0.088	482182	keystroke_Key.backspace	Key.backspace	n/a
241.355	0.0565	482710	keystroke_Key.backspace	Key.backspace	n/a
241.7715	0.103	483543	keystroke_n	n	n/a
241.9305	0.072	483861	keystroke_Key.space	Key.space	n/a
242.0595	0.063	484119	keystroke_t	t	n/a
242.2115	0.079	484423	keystroke_r	r	n/a
242.2585	0.088	484517	keystroke_o	o	n/a
242.3155	0.095	484631	keystroke_u	u	n/a
242.4275	0.063	484855	keystroke_t	t	n/a
242.5625	0.081	485125	keystroke_Key.enter	Key.enter	n/a
242.6485	5.164	485297	prompt	n/a	brought nintendo solid uganda\n
243.211	0.088	486422	keystroke_b	b	n/a
243.435	0.08	486870	keystroke_r	r	n/a
243.547	0.128	487094	keystroke_o	o	n/a
243.627	0.064	487254	keystroke_u	u	n/a
243.675	0.08	487350	keystroke_g	g	n/a
243.795	0.112	487590	keystroke_h	h	n/a
243.867	0.08	487734	keystroke_t	t	n/a
243.923	0.048	487846	keystroke_Key.space	Key.space	n/a
244.4185	0.112	488837	keystroke_n	n	n/a
244.5865	0.056	489173	keystroke_i	i	n/a
244.6825	0.104	489365	keystroke_n	n	n/a
244.9145	0.089	489829	keystroke_t	t	n/a
244.9625	0.097	489925	keystroke_e	e	n/a
245.0825	0.112	490165	keystroke_n	n	n/a
245.2025	0.08	490405	keystroke_d	d	n/a
245.3625	0.113	490725	keystroke_o	o	n/a
245.5945	0.072	491189	keystroke_Key.space	Key.space	n/a
245.6985	0.097	491397	keystroke_s	s	n/a
245.7705	0.08	491541	keystroke_o	o	n/a
245.9305	0.056	491861	keystroke_l	l	n/a
246.0345	0.136	492069	keystroke_i	i	n/a
246.1075	0.095	492215	keystroke_d	d	n/a
246.1785	0.08	492357	keystroke_Key.space	Key.space	n/a
246.3465	0.104	492693	keystroke_u	u	n/a
246.4585	0.072	492917	keystroke_g	g	n/a
246.5225	0.08	493045	keystroke_a	a	n/a
246.6905	0.104	493381	keystroke_n	n	n/a
246.8025	0.144	493605	keystroke_d	d	n/a
246.8985	0.072	493797	keystroke_a	a	n/a
247.0585	0.088	494117	keystroke_'	'	n/a
247.5545	0.0555	495109	keystroke_Key.backspace	Key.backspace	n/a
247.7305	0.0795	495461	keystroke_Key.enter	Key.enter	n/a
247.815	4.373	495630	prompt	n/a	begins knitting observation attack\n
248.571	0.064	497142	keystroke_b	b	n/a
248.7155	0.08	497431	keystroke_e	e	n/a
248.8345	0.088	497669	keystroke_g	g	n/a
248.9315	0.064	497863	keystroke_i	i	n/a
249.0035	0.128	498007	keystroke_n	n	n/a
249.0665	0.089	498133	keystroke_s	s	n/a
249.1145	0.056	498229	keystroke_Key.space	Key.space	n/a
249.2265	0.073	498453	keystroke_k	k	n/a
249.3465	0.105	498693	keystroke_n	n	n/a
249.5235	0.087	499047	keystroke_i	i	n/a
249.6745	0.057	499349	keystroke_t	t	n/a
249.8025	0.0805	499605	keystroke_t	t	n/a
249.875	0.08	499750	keystroke_i	i	n/a
249.939	0.136	499878	keystroke_n	n	n/a
250.011	0.072	500022	keystroke_g	g	n/a
250.067	0.048	500134	keystroke_Key.space	Key.space	n/a
250.163	0.144	500326	keystroke_o	o	n/a
250.267	0.072	500534	keystroke_b	b	n/a
250.435	0.096	500870	keystroke_s	s	n/a
250.491	0.136	500982	keystroke_e	e	n/a
250.587	0.056	501174	keystroke_r	r	n/a
250.739	0.104	501478	keystroke_v	v	n/a
250.835	0.088	501670	keystroke_a	a	n/a
250.979	0.08	501958	keystroke_t	t	n/a
251.051	0.104	502102	keystroke_i	i	n/a
251.091	0.128	502182	keystroke_o	o	n/a
251.139	0.12	502278	keystroke_n	n	n/a
251.203	0.08	502406	keystroke_Key.space	Key.space	n/a
251.323	0.08	502646	keystroke_a	a	n/a
251.491	0.048	502982	keystroke_t	t	n/a
251.603	0.08	503206	keystroke_t	t	n/a
251.707	0.072	503414	keystroke_a	a	n/a
251.843	0.088	503686	keystroke_c	c	n/a
251.923	0.072	503846	keystroke_k	k	n/a
252.083	0.104	504166	keystroke_Key.enter	Key.enter	n/a
252.1915	5.1485	504383	prompt	n/a	worker mine bunch congress\n
252.699	0.088	505398	keystroke_w	w	n/a
252.795	0.088	505590	keystroke_o	o	n/a
252.883	0.072	505766	keystroke_r	r	n/a
252.987	0.128	505974	keystroke_k	k	n/a
253.051	0.168	506102	keystroke_e	e	n/a
253.131	0.104	506262	keystroke_r	r	n/a
253.219	0.072	506438	keystroke_Key.space	Key.space	n/a
253.395	0.088	506790	keystroke_m	m	n/a
253.483	0.064	506966	keystroke_i	i	n/a
253.595	0.128	507190	keystroke_n	n	n/a
253.683	0.104	507366	keystroke_e	e	n/a
253.747	0.064	507494	keystroke_Key.space	Key.space	n/a
253.875	0.087	507750	keystroke_n	n	n/a
254.074	0.065	508148	keystroke_u	u	n/a
254.226	0.073	508452	keystroke_n	n	n/a
254.363	0.127	508726	keystroke_c	c	n/a
254.411	0.104	508822	keystroke_h	h	n/a
254.515	0.079	509030	keystroke_Key.space	Key.space	n/a
254.85	0.056	509700	keystroke_Key.backspace	Key.backspace	n/a
254.954	0.048	509908	keystroke_Key.backspace	Key.backspace	n/a
255.05	0.072	510100	keystroke_Key.backspace	Key.backspace	n/a
255.162	0.041	510324	keystroke_Key.backspace	Key.backspace	n/a
255.251	0.0555	510502	keystroke_Key.backspace	Key.backspace	n/a
255.3625	0.064	510725	keystroke_Key.backspace	Key.backspace	n/a
255.5385	0.072	511077	keystroke_b	b	n/a
255.6425	0.048	511285	keystroke_u	u	n/a
255.7865	0.088	511573	keystroke_n	n	n/a
255.9145	0.104	511829	keystroke_c	c	n/a
255.9785	0.12	511957	keystroke_h	h	n/a
256.1065	0.088	512213	keystroke_Key.space	Key.space	n/a
256.2745	0.112	512549	keystroke_c	c	n/a
256.3545	0.12	512709	keystroke_o	o	n/a
256.4345	0.096	512869	keystroke_n	n	n/a
256.5385	0.056	513077	keystroke_g	g	n/a
256.6985	0.08	513397	keystroke_r	r	n/a
256.7865	0.104	513573	keystroke_e	e	n/a
256.9785	0.08	513957	keystroke_s	s	n/a
257.1145	0.081	514229	keystroke_s	s	n/a
257.2425	0.0965	514485	keystroke_Key.enter	Key.enter	n/a
257.343	3.2215	514686	prompt	n/a	berry donor diego rosa\n
257.859	0.064	515718	keystroke_b	b	n/a
257.995	0.08	515990	keystroke_e	e	n/a
258.171	0.056	516342	keystroke_r	r	n/a
258.307	0.096	516614	keystroke_r	r	n/a
258.403	0.104	516806	keystroke_y	y	n/a
258.459	0.08	516918	keystroke_Key.space	Key.space	n/a
258.579	0.104	517158	keystroke_d	d	n/a
258.659	0.08	517318	keystroke_o	o	n/a
258.747	0.112	517494	keystroke_n	n	n/a
258.835	0.128	517670	keystroke_o	o	n/a
258.939	0.08	517878	keystroke_r	r	n/a
258.987	0.072	517974	keystroke_Key.space	Key.space	n/a
259.155	0.08	518310	keystroke_d	d	n/a
259.259	0.12	518518	keystroke_i	i	n/a
259.323	0.08	518646	keystroke_e	e	n/a
259.459	0.096	518918	keystroke_g	g	n/a
259.587	0.136	519174	keystroke_o	o	n/a
259.683	0.112	519366	keystroke_Key.space	Key.space	n/a
259.955	0.088	519910	keystroke_r	r	n/a
260.107	0.1035	520214	keystroke_o	o	n/a
260.1865	0.152	520373	keystroke_s	s	n/a
260.3145	0.064	520629	keystroke_a	a	n/a
260.4665	0.096	520933	keystroke_Key.enter	Key.enter	n/a
260.5675	3.661	521135	prompt	n/a	buck strap warming objects\n
261.0505	0.056	522101	keystroke_b	b	n/a
261.2585	0.0635	522517	keystroke_u	u	n/a
261.37	0.113	522740	keystroke_c	c	n/a
261.483	0.095	522966	keystroke_k	k	n/a
261.554	0.096	523108	keystroke_Key.space	Key.space	n/a
261.69	0.129	523380	keystroke_s	s	n/a
261.866	0.064	523732	keystroke_t	t	n/a
261.994	0.112	523988	keystroke_r	r	n/a
262.042	0.097	524084	keystroke_a	a	n/a
262.13	0.12	524260	keystroke_p	p	n/a
262.218	0.104	524436	keystroke_Key.space	Key.space	n/a
262.314	0.112	524628	keystroke_w	w	n/a
262.403	0.095	524806	keystroke_a	a	n/a
262.49	0.104	524980	keystroke_r	r	n/a
262.611	0.111	525222	keystroke_m	m	n/a
262.698	0.065	525396	keystroke_i	i	n/a
262.819	0.135	525638	keystroke_n	n	n/a
262.898	0.104	525796	keystroke_g	g	n/a
262.962	0.08	525924	keystroke_Key.space	Key.space	n/a
263.083	0.111	526166	keystroke_o	o	n/a
263.33	0.073	526660	keystroke_b	b	n/a
263.474	0.112	526948	keystroke_j	j	n/a
263.522	0.065	527044	keystroke_e	e	n/a
263.674	0.064	527348	keystroke_c	c	n/a
263.858	0.144	527716	keystroke_t	t	n/a
263.946	0.104	527892	keystroke_s	s	n/a
264.13	0.096	528260	keystroke_Key.enter	Key.enter	n/a
264.232	5.7	528464	prompt	n/a	behavioral incomplete entities her\n
264.8745	0.064	529749	keystroke_b	b	n/a
265.0345	0.088	530069	keystroke_e	e	n/a
265.2185	0.104	530437	keystroke_h	h	n/a
265.2985	0.12	530597	keystroke_a	a	n/a
265.3865	0.072	530773	keystroke_v	v	n/a
265.4825	0.152	530965	keystroke_i	i	n/a
265.5625	0.097	531125	keystroke_o	o	n/a
265.6265	0.137	531253	keystroke_r	r	n/a
265.7065	0.088	531413	keystroke_a	a	n/a
265.8025	0.096	531605	keystroke_l	l	n/a
265.8825	0.104	531765	keystroke_Key.space	Key.space	n/a
265.9945	0.048	531989	keystroke_i	i	n/a
266.1465	0.104	532293	keystroke_n	n	n/a
266.2665	0.096	532533	keystroke_c	c	n/a
266.3705	0.096	532741	keystroke_o	o	n/a
266.4745	0.104	532949	keystroke_m	m	n/a
266.5465	0.08	533093	keystroke_p	p	n/a
266.7065	0.096	533413	keystroke_l	l	n/a
266.9785	0.08	533957	keystroke_e	e	n/a
267.1225	0.152	534245	keystroke_t	t	n/a
267.2025	0.1125	534405	keystroke_e	e	n/a
267.339	0.04	534678	keystroke_Key.space	Key.space	n/a
267.539	0.0475	535078	keystroke_i	i	n/a
267.8345	0.064	535669	keystroke_Key.backspace	Key.backspace	n/a
267.9305	0.08	535861	keystroke_e	e	n/a
268.0185	0.112	536037	keystroke_n	n	n/a
268.1705	0.072	536341	keystroke_t	t	n/a
268.2985	0.088	536597	keystroke_i	i	n/a
268.4825	0.072	536965	keystroke_t	t	n/a
268.5705	0.1365	537141	keystroke_i	i	n/a
268.667	0.176	537334	keystroke_e	e	n/a
268.763	0.128	537526	keystroke_s	s	n/a
268.85	0.088	537700	keystroke_Key.space	Key.space	n/a
269.171	0.096	538342	keystroke_h	h	n/a
269.227	0.1435	538454	keystroke_e	e	n/a
269.3065	0.08	538613	keystroke_a	a	n/a
269.5785	0.072	539157	keystroke_Key.backspace	Key.backspace	n/a
269.7065	0.104	539413	keystroke_r	r	n/a
269.8505	0.08	539701	keystroke_Key.enter	Key.enter	n/a
269.938	6.37	539876	prompt	n/a	brilliant citysearch imagination vault\n
270.5785	0.064	541157	keystroke_b	b	n/a
270.7625	0.072	541525	keystroke_r	r	n/a
270.8665	0.064	541733	keystroke_i	i	n/a
271.0105	0.056	542021	keystroke_l	l	n/a
271.1305	0.056	542261	keystroke_l	l	n/a
271.2665	0.0795	542533	keystroke_i	i	n/a
271.354	0.112	542708	keystroke_a	a	n/a
271.443	0.143	542886	keystroke_n	n	n/a
271.53	0.088	543060	keystroke_t	t	n/a
271.57	0.064	543140	keystroke_Key.space	Key.space	n/a
271.8745	0.096	543749	keystroke_c	c	n/a
271.9865	0.104	543973	keystroke_i	i	n/a
272.1225	0.08	544245	keystroke_t	t	n/a
272.2985	0.096	544597	keystroke_y	y	n/a
272.5305	0.08	545061	keystroke_s	s	n/a
272.6995	0.127	545399	keystroke_e	e	n/a
272.7945	0.088	545589	keystroke_a	a	n/a
272.8665	0.08	545733	keystroke_r	r	n/a
273.083	0.112	546166	keystroke_c	c	n/a
273.171	0.1115	546342	keystroke_h	h	n/a
273.251	0.0635	546502	keystroke_Key.space	Key.space	n/a
273.4505	0.088	546901	keystroke_i	i	n/a
273.651	0.104	547302	keystroke_m	m	n/a
273.923	0.063	547846	keystroke_a	a	n/a
274.043	0.064	548086	keystroke_n	n	n/a
274.362	0.073	548724	keystroke_Key.backspace	Key.backspace	n/a
274.57	0.088	549140	keystroke_i	i	n/a
274.874	0.056	549748	keystroke_Key.backspace	Key.backspace	n/a
274.946	0.073	549892	keystroke_g	g	n/a
275.058	0.072	550116	keystroke_i	i	n/a
275.163	0.12	550326	keystroke_n	n	n/a
275.259	0.088	550518	keystroke_a	a	n/a
275.323	0.096	550646	keystroke_t	t	n/a
275.387	0.128	550774	keystroke_i	i	n/a
275.459	0.12	550918	keystroke_o	o	n/a
275.483	0.112	550966	keystroke_n	n	n/a
275.57	0.081	551140	keystroke_Key.space	Key.space	n/a
275.683	0.0955	551366	keystroke_v	v	n/a
275.7465	0.096	551493	keystroke_a	a	n/a
275.8585	0.088	551717	keystroke_u	u	n/a
275.9865	0.088	551973	keystroke_l	l	n/a
276.1065	0.072	552213	keystroke_t	t	n/a
276.2105	0.0955	552421	keystroke_Key.enter	Key.enter	n/a
276.311	3.989	552622	prompt	n/a	madness pass socket thinkpad\n
276.891	0.112	553782	keystroke_m	m	n/a
276.987	0.08	553974	keystroke_a	a	n/a
277.083	0.104	554166	keystroke_d	d	n/a
277.291	0.096	554582	keystroke_n	n	n/a
277.395	0.056	554790	keystroke_e	e	n/a
277.555	0.072	555110	keystroke_s	s	n/a
277.691	0.104	555382	keystroke_s	s	n/a
277.843	0.08	555686	keystroke_Key.space	Key.space	n/a
277.979	0.096	555958	keystroke_p	p	n/a
278.083	0.056	556166	keystroke_a	a	n/a
278.243	0.08	556486	keystroke_s	s	n/a
278.379	0.096	556758	keystroke_s	s	n/a
278.491	0.048	556982	keystroke_Key.space	Key.space	n/a
278.587	0.096	557174	keystroke_s	s	n/a
278.706	0.089	557412	keystroke_o	o	n/a
278.786	0.08	557572	keystroke_c	c	n/a
278.89	0.121	557780	keystroke_k	k	n/a
278.955	0.143	557910	keystroke_e	e	n/a
279.059	0.12	558118	keystroke_t	t	n/a
279.154	0.08	558308	keystroke_Key.space	Key.space	n/a
279.323	0.087	558646	keystroke_t	t	n/a
279.386	0.104	558772	keystroke_h	h	n/a
279.45	0.056	558900	keystroke_i	i	n/a
279.587	0.119	559174	keystroke_n	n	n/a
279.642	0.088	559284	keystroke_k	k	n/a
279.858	0.12	559716	keystroke_p	p	n/a
279.955	0.071	559910	keystroke_a	a	n/a
280.042	0.088	560084	keystroke_d	d	n/a
280.21	0.088	560420	keystroke_Key.enter	Key.enter	n/a
280.303	5.733	560606	prompt	n/a	happens solar tennessee legendary\n
280.866	0.0885	561732	keystroke_h	h	n/a
281.002	0.0965	562004	keystroke_a	a	n/a
281.1065	0.048	562213	keystroke_p	p	n/a
281.2265	0.0885	562453	keystroke_p	p	n/a
281.339	0.088	562678	keystroke_e	e	n/a
281.443	0.136	562886	keystroke_n	n	n/a
281.507	0.104	563014	keystroke_s	s	n/a
281.594	0.041	563188	keystroke_Key.space	Key.space	n/a
281.795	0.064	563590	keystroke_s	s	n/a
281.859	0.088	563718	keystroke_o	o	n/a
282.043	0.12	564086	keystroke_l	l	n/a
282.107	0.112	564214	keystroke_a	a	n/a
282.179	0.088	564358	keystroke_r	r	n/a
282.259	0.047	564518	keystroke_Key.space	Key.space	n/a
282.371	0.08	564742	keystroke_t	t	n/a
282.475	0.087	564950	keystroke_e	e	n/a
282.651	0.063	565302	keystroke_n	n	n/a
282.778	0.073	565556	keystroke_n	n	n/a
283.075	0.071	566150	keystroke_e	e	n/a
283.274	0.056	566548	keystroke_s	s	n/a
283.642	0.072	567284	keystroke_s	s	n/a
283.9545	0.056	567909	keystroke_e	e	n/a
284.0745	0.088	568149	keystroke_e	e	n/a
284.4105	0.072	568821	keystroke_Key.space	Key.space	n/a
284.6345	0.104	569269	keystroke_l	l	n/a
284.7065	0.064	569413	keystroke_e	e	n/a
284.8425	0.072	569685	keystroke_g	g	n/a
284.9625	0.08	569925	keystroke_e	e	n/a
285.0745	0.12	570149	keystroke_n	n	n/a
285.1625	0.096	570325	keystroke_d	d	n/a
285.2425	0.104	570485	keystroke_a	a	n/a
285.3385	0.08	570677	keystroke_r	r	n/a
285.5065	0.088	571013	keystroke_y	y	n/a
285.9305	0.104	571861	keystroke_Key.enter	Key.enter	n/a
286.039	4.725	572078	prompt	n/a	passion trainers north survivors\n
286.5225	0.08	573045	keystroke_h	h	n/a
286.794	0.064	573588	keystroke_Key.backspace	Key.backspace	n/a
286.978	0.121	573956	keystroke_p	p	n/a
287.146	0.04	574292	keystroke_a	a	n/a
287.2985	0.056	574597	keystroke_s	s	n/a
287.4265	0.088	574853	keystroke_s	s	n/a
287.5225	0.112	575045	keystroke_i	i	n/a
287.5705	0.128	575141	keystroke_o	o	n/a
287.6105	0.112	575221	keystroke_n	n	n/a
287.6905	0.064	575381	keystroke_Key.space	Key.space	n/a
287.7785	0.104	575557	keystroke_t	t	n/a
287.9945	0.104	575989	keystroke_r	r	n/a
288.0745	0.048	576149	keystroke_a	a	n/a
288.1625	0.048	576325	keystroke_i	i	n/a
288.2105	0.12	576421	keystroke_n	n	n/a
288.3225	0.208	576645	keystroke_e	e	n/a
288.4105	0.152	576821	keystroke_r	r	n/a
288.5305	0.112	577061	keystroke_s	s	n/a
288.6025	0.064	577205	keystroke_Key.space	Key.space	n/a
288.8025	0.128	577605	keystroke_n	n	n/a
288.9145	0.128	577829	keystroke_o	o	n/a
289.0105	0.08	578021	keystroke_r	r	n/a
289.1625	0.112	578325	keystroke_t	t	n/a
289.2345	0.1285	578469	keystroke_h	h	n/a
289.3385	0.0875	578677	keystroke_Key.space	Key.space	n/a
289.571	0.079	579142	keystroke_s	s	n/a
289.666	0.096	579332	keystroke_u	u	n/a
289.794	0.064	579588	keystroke_r	r	n/a
290.026	0.064	580052	keystroke_v	v	n/a
290.122	0.0965	580244	keystroke_i	i	n/a
290.2345	0.064	580469	keystroke_v	v	n/a
290.3385	0.12	580677	keystroke_o	o	n/a
290.4265	0.12	580853	keystroke_r	r	n/a
290.5145	0.08	581029	keystroke_s	s	n/a
290.6745	0.088	581349	keystroke_Key.enter	Key.enter	n/a
290.768	7.1155	581536	prompt	n/a	livecam liability concentrate responsibility\n
291.411	0.063	582822	keystroke_l	l	n/a
291.57	0.112	583140	keystroke_i	i	n/a
291.715	0.064	583430	keystroke_v	v	n/a
291.866	0.064	583732	keystroke_e	e	n/a
292.058	0.104	584116	keystroke_c	c	n/a
292.138	0.088	584276	keystroke_a	a	n/a
292.242	0.152	584484	keystroke_m	m	n/a
292.338	0.024	584676	keystroke_e	e	n/a
292.386	0.104	584772	keystroke_Key.space	Key.space	n/a
292.754	0.056	585508	keystroke_Key.backspace	Key.backspace	n/a
292.866	0.056	585732	keystroke_Key.backspace	Key.backspace	n/a
292.97	0.048	585940	keystroke_Key.space	Key.space	n/a
293.091	0.087	586182	keystroke_l	l	n/a
293.266	0.096	586532	keystroke_i	i	n/a
293.402	0.12	586804	keystroke_a	a	n/a
293.723	0.079	587446	keystroke_b	b	n/a
293.858	0.064	587716	keystroke_i	i	n/a
294.01	0.081	588020	keystroke_l	l	n/a
294.154	0.08	588308	keystroke_i	i	n/a
294.251	0.127	588502	keystroke_t	t	n/a
294.33	0.129	588660	keystroke_y	y	n/a
294.426	0.08	588852	keystroke_Key.space	Key.space	n/a
294.667	0.111	589334	keystroke_o	o	n/a
294.9865	0.064	589973	keystroke_Key.backspace	Key.backspace	n/a
295.0985	0.08	590197	keystroke_c	c	n/a
295.1785	0.112	590357	keystroke_o	o	n/a
295.2825	0.104	590565	keystroke_n	n	n/a
295.3625	0.08	590725	keystroke_c	c	n/a
295.5385	0.12	591077	keystroke_e	e	n/a
295.6825	0.096	591365	keystroke_n	n	n/a
295.7705	0.064	591541	keystroke_t	t	n/a
295.9225	0.096	591845	keystroke_r	r	n/a
295.9865	0.096	591973	keystroke_a	a	n/a
296.1065	0.1275	592213	keystroke_t	t	n/a
296.1785	0.1115	592357	keystroke_e	e	n/a
296.25	0.08	592500	keystroke_Key.space	Key.space	n/a
296.434	0.12	592868	keystroke_r	r	n/a
296.49	0.112	592980	keystroke_e	e	n/a
296.57	0.104	593140	keystroke_s	s	n/a
296.642	0.072	593284	keystroke_p	p	n/a
296.73	0.112	593460	keystroke_o	o	n/a
296.826	0.104	593652	keystroke_n	n	n/a
296.946	0.096	593892	keystroke_s	s	n/a
297.05	0.088	594100	keystroke_i	i	n/a
297.186	0.064	594372	keystroke_b	b	n/a
297.258	0.048	594516	keystroke_i	i	n/a
297.362	0.112	594724	keystroke_l	l	n/a
297.442	0.072	594884	keystroke_i	i	n/a
297.53	0.088	595060	keystroke_t	t	n/a
297.611	0.087	595222	keystroke_y	y	n/a
297.802	0.08	595604	keystroke_Key.enter	Key.enter	n/a
297.89	4.8495	595780	prompt	n/a	australia heights china suicide\n
298.3865	0.096	596773	keystroke_a	a	n/a
298.5465	0.104	597093	keystroke_u	u	n/a
298.9545	0.112	597909	keystroke_s	s	n/a
299.0825	0.088	598165	keystroke_t	t	n/a
299.2505	0.1195	598501	keystroke_r	r	n/a
299.322	0.112	598644	keystroke_a	a	n/a
299.474	0.056	598948	keystroke_i	i	n/a
299.618	0.088	599236	keystroke_l	l	n/a
299.794	0.144	599588	keystroke_i	i	n/a
299.874	0.112	599748	keystroke_a	a	n/a
299.954	0.088	599908	keystroke_Key.space	Key.space	n/a
300.194	0.08	600388	keystroke_h	h	n/a
300.25	0.088	600500	keystroke_e	e	n/a
300.362	0.104	600724	keystroke_i	i	n/a
300.458	0.08	600916	keystroke_g	g	n/a
300.562	0.1285	601124	keystroke_h	h	n/a
300.6425	0.12	601285	keystroke_t	t	n/a
300.6825	0.12	601365	keystroke_s	s	n/a
300.7545	0.056	601509	keystroke_Key.space	Key.space	n/a
301.0905	0.104	602181	keystroke_c	c	n/a
301.1465	0.104	602293	keystroke_h	h	n/a
301.2105	0.064	602421	keystroke_i	i	n/a
301.3545	0.128	602709	keystroke_n	n	n/a
301.4185	0.096	602837	keystroke_a	a	n/a
301.4665	0.079	602933	keystroke_Key.space	Key.space	n/a
301.8015	0.081	603603	keystroke_s	s	n/a
301.9145	0.096	603829	keystroke_u	u	n/a
302.0665	0.0795	604133	keystroke_i	i	n/a
302.178	0.064	604356	keystroke_c	c	n/a
302.258	0.104	604516	keystroke_i	i	n/a
302.378	0.064	604756	keystroke_d	d	n/a
302.53	0.032	605060	keystroke_e	e	n/a
302.642	0.096	605284	keystroke_Key.enter	Key.enter	n/a
302.743	4.7005	605486	prompt	n/a	cooking saint collaborative genome\n
303.362	0.072	606724	keystroke_c	c	n/a
303.434	0.064	606868	keystroke_o	o	n/a
303.554	0.072	607108	keystroke_o	o	n/a
303.666	0.08	607332	keystroke_k	k	n/a
303.818	0.048	607636	keystroke_i	i	n/a
303.906	0.144	607812	keystroke_n	n	n/a
303.978	0.072	607956	keystroke_g	g	n/a
304.034	0.048	608068	keystroke_Key.space	Key.space	n/a
304.122	0.128	608244	keystroke_s	s	n/a
304.242	0.12	608484	keystroke_a	a	n/a
304.282	0.08	608564	keystroke_i	i	n/a
304.394	0.144	608788	keystroke_n	n	n/a
304.506	0.088	609012	keystroke_t	t	n/a
304.946	0.096	609892	keystroke_Key.space	Key.space	n/a
305.122	0.08	610244	keystroke_c	c	n/a
305.186	0.056	610372	keystroke_o	o	n/a
305.3455	0.064	610691	keystroke_l	l	n/a
305.4575	0.088	610915	keystroke_l	l	n/a
305.5295	0.104	611059	keystroke_a	a	n/a
305.6335	0.0725	611267	keystroke_b	b	n/a
305.7385	0.128	611477	keystroke_o	o	n/a
305.8185	0.104	611637	keystroke_r	r	n/a
305.8985	0.096	611797	keystroke_a	a	n/a
306.0185	0.08	612037	keystroke_t	t	n/a
306.1065	0.1755	612213	keystroke_i	i	n/a
306.226	0.08	612452	keystroke_v	v	n/a
306.33	0.12	612660	keystroke_e	e	n/a
306.418	0.064	612836	keystroke_Key.space	Key.space	n/a
306.538	0.08	613076	keystroke_g	g	n/a
306.6505	0.08	613301	keystroke_e	e	n/a
306.7775	0.081	613555	keystroke_n	n	n/a
306.9145	0.104	613829	keystroke_o	o	n/a
307.0265	0.088	614053	keystroke_m	m	n/a
307.1545	0.056	614309	keystroke_e	e	n/a
307.3535	0.088	614707	keystroke_Key.enter	Key.enter	n/a
307.446	4.0215	614892	prompt	n/a	zambia estimates stop supports\n
308.074	0.1275	616148	keystroke_z	z	n/a
308.29	0.0795	616580	keystroke_a	a	n/a
308.378	0.1125	616756	keystroke_m	m	n/a
308.5545	0.096	617109	keystroke_b	b	n/a
308.6745	0.151	617349	keystroke_i	i	n/a
308.7705	0.112	617541	keystroke_a	a	n/a
308.8745	0.08	617749	keystroke_Key.space	Key.space	n/a
309.0255	0.113	618051	keystroke_e	e	n/a
309.1145	0.112	618229	keystroke_s	s	n/a
309.1865	0.1195	618373	keystroke_t	t	n/a
309.314	0.048	618628	keystroke_i	i	n/a
309.418	0.152	618836	keystroke_m	m	n/a
309.49	0.088	618980	keystroke_a	a	n/a
309.562	0.168	619124	keystroke_t	t	n/a
309.65	0.104	619300	keystroke_e	e	n/a
309.682	0.112	619364	keystroke_s	s	n/a
309.754	0.08	619508	keystroke_Key.space	Key.space	n/a
309.906	0.08	619812	keystroke_s	s	n/a
309.962	0.104	619924	keystroke_t	t	n/a
310.058	0.136	620116	keystroke_o	o	n/a
310.122	0.144	620244	keystroke_p	p	n/a
310.258	0.096	620516	keystroke_Key.space	Key.space	n/a
310.442	0.056	620884	keystroke_s	s	n/a
310.522	0.072	621044	keystroke_u	u	n/a
310.666	0.08	621332	keystroke_p	p	n/a
310.81	0.04	621620	keystroke_p	p	n/a
310.914	0.12	621828	keystroke_o	o	n/a
311.01	0.08	622020	keystroke_r	r	n/a
311.138	0.128	622276	keystroke_t	t	n/a
311.21	0.1045	622420	keystroke_s	s	n/a
311.3865	0.079	622773	keystroke_Key.enter	Key.enter	n/a
311.471	5.308	622942	prompt	n/a	infants evidence respected transferred\n
312.058	0.048	624116	keystroke_i	i	n/a
312.17	0.088	624340	keystroke_n	n	n/a
312.202	0.12	624404	keystroke_f	f	n/a
312.274	0.128	624548	keystroke_a	a	n/a
312.394	0.152	624788	keystroke_n	n	n/a
312.458	0.136	624916	keystroke_t	t	n/a
312.522	0.104	625044	keystroke_s	s	n/a
312.602	0.056	625204	keystroke_Key.space	Key.space	n/a
312.818	0.08	625636	keystroke_e	e	n/a
312.978	0.08	625956	keystroke_v	v	n/a
313.074	0.12	626148	keystroke_i	i	n/a
313.154	0.08	626308	keystroke_d	d	n/a
313.282	0.088	626564	keystroke_e	e	n/a
313.394	0.144	626788	keystroke_n	n	n/a
313.45	0.096	626900	keystroke_c	c	n/a
313.538	0.064	627076	keystroke_e	e	n/a
313.586	0.08	627172	keystroke_Key.space	Key.space	n/a
313.762	0.128	627524	keystroke_r	r	n/a
313.842	0.0635	627684	keystroke_e	e	n/a
313.874	0.0955	627748	keystroke_s	s	n/a
313.9775	0.12	627955	keystroke_p	p	n/a
314.0895	0.048	628179	keystroke_e	e	n/a
314.2255	0.048	628451	keystroke_c	c	n/a
314.4735	0.128	628947	keystroke_t	t	n/a
314.5615	0.064	629123	keystroke_e	e	n/a
314.7215	0.096	629443	keystroke_d	d	n/a
314.7855	0.088	629571	keystroke_Key.space	Key.space	n/a
314.9615	0.064	629923	keystroke_t	t	n/a
315.1135	0.08	630227	keystroke_r	r	n/a
315.1375	0.096	630275	keystroke_a	a	n/a
315.2735	0.0965	630547	keystroke_n	n	n/a
315.37	0.088	630740	keystroke_s	s	n/a
315.89	0.072	631780	keystroke_f	f	n/a
316.026	0.08	632052	keystroke_e	e	n/a
316.202	0.056	632404	keystroke_r	r	n/a
316.322	0.08	632644	keystroke_r	r	n/a
316.402	0.064	632804	keystroke_e	e	n/a
316.545	0.08	633090	keystroke_d	d	n/a
316.6815	0.096	633363	keystroke_Key.enter	Key.enter	n/a
316.7825	4.885	633565	prompt	n/a	pocket performing confidence standings\n
317.2585	0.0795	634517	keystroke_p	p	n/a
317.362	0.056	634724	keystroke_a	a	n/a
317.506	0.064	635012	keystroke_o	o	n/a
317.706	0.064	635412	keystroke_Key.backspace	Key.backspace	n/a
317.834	0.056	635668	keystroke_Key.backspace	Key.backspace	n/a
318.01	0.08	636020	keystroke_o	o	n/a
318.106	0.08	636212	keystroke_c	c	n/a
318.178	0.1195	636356	keystroke_k	k	n/a
318.2815	0.12	636563	keystroke_e	e	n/a
318.3775	0.088	636755	keystroke_t	t	n/a
318.4415	0.08	636883	keystroke_Key.space	Key.space	n/a
318.5135	0.104	637027	keystroke_p	p	n/a
318.5935	0.104	637187	keystroke_e	e	n/a
318.6735	0.056	637347	keystroke_r	r	n/a
318.7945	0.079	637589	keystroke_f	f	n/a
318.8655	0.112	637731	keystroke_o	o	n/a
319.0175	0.08	638035	keystroke_r	r	n/a
319.1855	0.081	638371	keystroke_m	m	n/a
319.354	0.072	638708	keystroke_i	i	n/a
319.458	0.144	638916	keystroke_n	n	n/a
319.538	0.072	639076	keystroke_g	g	n/a
319.594	0.08	639188	keystroke_Key.space	Key.space	n/a
319.81	0.072	639620	keystroke_c	c	n/a
319.858	0.112	639716	keystroke_o	o	n/a
319.938	0.096	639876	keystroke_n	n	n/a
320.01	0.072	640020	keystroke_f	f	n/a
320.122	0.12	640244	keystroke_i	i	n/a
320.178	0.056	640356	keystroke_d	d	n/a
320.306	0.08	640612	keystroke_e	e	n/a
320.434	0.136	640868	keystroke_n	n	n/a
320.49	0.096	640980	keystroke_c	c	n/a
320.57	0.088	641140	keystroke_e	e	n/a
320.626	0.088	641252	keystroke_Key.space	Key.space	n/a
320.769	0.104	641538	keystroke_s	s	n/a
320.858	0.119	641716	keystroke_t	t	n/a
320.946	0.095	641892	keystroke_a	a	n/a
321.042	0.0875	642084	keystroke_n	n	n/a
321.137	0.096	642274	keystroke_d	d	n/a
321.2415	0.056	642483	keystroke_i	i	n/a
321.3215	0.088	642643	keystroke_n	n	n/a
321.3775	0.08	642755	keystroke_g	g	n/a
321.418	0.079	642836	keystroke_s	s	n/a
321.5775	0.088	643155	keystroke_Key.enter	Key.enter	n/a
321.6705	4.7565	643341	prompt	n/a	remarkable wearing oops remark\n
322.2175	0.096	644435	keystroke_r	r	n/a
322.2735	0.072	644547	keystroke_e	e	n/a
322.3615	0.104	644723	keystroke_m	m	n/a
322.4335	0.096	644867	keystroke_a	a	n/a
322.5135	0.08	645027	keystroke_r	r	n/a
322.6335	0.096	645267	keystroke_k	k	n/a
322.7375	0.072	645475	keystroke_a	a	n/a
322.8575	0.08	645715	keystroke_b	b	n/a
322.9615	0.144	645923	keystroke_l	l	n/a
323.0335	0.08	646067	keystroke_e	e	n/a
323.1135	0.064	646227	keystroke_Key.space	Key.space	n/a
323.2255	0.096	646451	keystroke_w	w	n/a
323.3295	0.088	646659	keystroke_a	a	n/a
323.7775	0.064	647555	keystroke_Key.backspace	Key.backspace	n/a
323.8175	0.112	647635	keystroke_e	e	n/a
323.9535	0.112	647907	keystroke_r	r	n/a
324.3535	0.056	648707	keystroke_Key.backspace	Key.backspace	n/a
324.5535	0.088	649107	keystroke_a	a	n/a
324.6175	0.104	649235	keystroke_r	r	n/a
324.7295	0.08	649459	keystroke_i	i	n/a
324.8175	0.12	649635	keystroke_n	n	n/a
324.8815	0.072	649763	keystroke_g	g	n/a
324.9215	0.072	649843	keystroke_Key.space	Key.space	n/a
325.0495	0.072	650099	keystroke_o	o	n/a
325.1855	0.088	650371	keystroke_o	o	n/a
325.3375	0.12	650675	keystroke_p	p	n/a
325.4415	0.104	650883	keystroke_s	s	n/a
325.5055	0.088	651011	keystroke_Key.space	Key.space	n/a
325.7215	0.104	651443	keystroke_r	r	n/a
325.7855	0.08	651571	keystroke_e	e	n/a
325.8495	0.104	651699	keystroke_m	m	n/a
325.9615	0.096	651923	keystroke_a	a	n/a
326.0415	0.088	652083	keystroke_r	r	n/a
326.1455	0.104	652291	keystroke_k	k	n/a
326.3375	0.088	652675	keystroke_Key.enter	Key.enter	n/a
326.43	4.413	652860	prompt	n/a	ricky across junior hamburg\n
326.969	0.08	653938	keystroke_r	r	n/a
327.09	0.056	654180	keystroke_i	i	n/a
327.186	0.1035	654372	keystroke_c	c	n/a
327.25	0.0795	654500	keystroke_k	k	n/a
327.4335	0.112	654867	keystroke_y	y	n/a
327.5215	0.064	655043	keystroke_Key.space	Key.space	n/a
327.7375	0.08	655475	keystroke_a	a	n/a
327.8735	0.072	655747	keystroke_c	c	n/a
328.0415	0.08	656083	keystroke_r	r	n/a
328.2015	0.096	656403	keystroke_o	o	n/a
328.3055	0.056	656611	keystroke_s	s	n/a
328.4255	0.104	656851	keystroke_s	s	n/a
328.4895	0.08	656979	keystroke_Key.space	Key.space	n/a
328.6095	0.056	657219	keystroke_j	j	n/a
