onset	duration	sample	value	key	prompt_text
2.7175	7.1895	5435	prompt	n/a	the quick brown fox jumps over a lazy dog\n
3.777	0.1335	7554	keystroke_t	t	n/a
3.866	0.1795	7732	keystroke_h	h	n/a
4.0465	0.181	8093	keystroke_e	e	n/a
4.1575	0.234	8315	keystroke_Key.space	Key.space	n/a
4.3635	0.1445	8727	keystroke_q	q	n/a
4.509	0.134	9018	keystroke_u	u	n/a
4.62	0.09	9240	keystroke_i	i	n/a
4.756	0.113	9512	keystroke_c	c	n/a
4.87	0.1105	9740	keystroke_k	k	n/a
5.0015	0.116	10003	keystroke_Key.space	Key.space	n/a
5.1185	0.09	10237	keystroke_b	b	n/a
5.2305	0.067	10461	keystroke_r	r	n/a
5.3295	0.092	10659	keystroke_o	o	n/a
5.4895	0.069	10979	keystroke_w	w	n/a
5.5135	0.136	11027	keystroke_n	n	n/a
5.927	0.158	11854	keystroke_Key.space	Key.space	n/a
6.061	0.112	12122	keystroke_f	f	n/a
6.326	0.135	12652	keystroke_o	o	n/a
6.483	0.0915	12966	keystroke_x	x	n/a
6.6395	0.1365	13279	keystroke_Key.space	Key.space	n/a
6.752	0.093	13504	keystroke_j	j	n/a
6.923	0.091	13846	keystroke_u	u	n/a
7.204	0.09	14408	keystroke_m	m	n/a
7.4605	0.18	14921	keystroke_p	p	n/a
7.6725	0.1355	15345	keystroke_s	s	n/a
7.7615	0.1135	15523	keystroke_Key.space	Key.space	n/a
7.876	0.136	15752	keystroke_o	o	n/a
7.966	0.092	15932	keystroke_v	v	n/a
8.138	0.1795	16276	keystroke_e	e	n/a
8.228	0.1615	16456	keystroke_r	r	n/a
8.295	0.1385	16590	keystroke_Key.space	Key.space	n/a
8.3905	0.133	16781	keystroke_a	a	n/a
8.4995	0.114	16999	keystroke_Key.space	Key.space	n/a
8.6645	0.09	17329	keystroke_l	l	n/a
8.7555	0.09	17511	keystroke_a	a	n/a
8.9925	0.113	17985	keystroke_z	z	n/a
9.1285	0.114	18257	keystroke_y	y	n/a
9.2435	0.18	18487	keystroke_Key.space	Key.space	n/a
9.3555	0.116	18711	keystroke_d	d	n/a
9.4935	0.114	18987	keystroke_o	o	n/a
9.6085	0.067	19217	keystroke_g	g	n/a
9.8145	0.09	19629	keystroke_Key.enter	Key.enter	n/a
9.911	5.346	19822	prompt	n/a	cowboy sage minute england\n
10.621	0.112	21242	keystroke_c	c	n/a
10.837	0.091	21674	keystroke_o	o	n/a
11.252	0.091	22504	keystroke_w	w	n/a
11.417	0.113	22834	keystroke_b	b	n/a
11.9785	0.134	23957	keystroke_o	o	n/a
12.2115	0.1365	24423	keystroke_y	y	n/a
12.3005	0.1595	24601	keystroke_Key.space	Key.space	n/a
12.482	0.161	24964	keystroke_s	s	n/a
12.619	0.114	25238	keystroke_a	a	n/a
12.768	0.07	25536	keystroke_g	g	n/a
12.9305	0.092	25861	keystroke_e	e	n/a
12.9975	0.138	25995	keystroke_Key.space	Key.space	n/a
13.2095	0.067	26419	keystroke_m	m	n/a
13.4115	0.114	26823	keystroke_i	i	n/a
13.5875	0.113	27175	keystroke_n	n	n/a
13.8455	0.1365	27691	keystroke_u	u	n/a
13.959	0.092	27918	keystroke_t	t	n/a
14.026	0.139	28052	keystroke_e	e	n/a
14.141	0.14	28282	keystroke_Key.space	Key.space	n/a
14.256	0.047	28512	keystroke_e	e	n/a
14.357	0.093	28714	keystroke_n	n	n/a
14.471	0.0685	28942	keystroke_g	g	n/a
14.6165	0.1145	29233	keystroke_l	l	n/a
14.752	0.09	29504	keystroke_a	a	n/a
14.864	0.112	29728	keystroke_n	n	n/a
14.979	0.088	29958	keystroke_d	d	n/a
15.166	0.089	30332	keystroke_Key.enter	Key.enter	n/a
15.26	6.9925	30520	prompt	n/a	incidence macro cooper wednesday\n
15.996	0.091	31992	keystroke_i	i	n/a
16.132	0.136	32264	keystroke_n	n	n/a
16.245	0.113	32490	keystroke_c	c	n/a
16.4125	0.111	32825	keystroke_i	i	n/a
16.5005	0.114	33001	keystroke_d	d	n/a
17.0465	0.092	34093	keystroke_e	e	n/a
17.1605	0.111	34321	keystroke_n	n	n/a
17.2725	0.089	34545	keystroke_c	c	n/a
17.437	0.115	34874	keystroke_e	e	n/a
17.505	0.116	35010	keystroke_Key.space	Key.space	n/a
17.597	0.114	35194	keystroke_m	m	n/a
17.712	0.111	35424	keystroke_a	a	n/a
17.913	0.066	35826	keystroke_c	c	n/a
18.183	0.0885	36366	keystroke_r	r	n/a
18.3335	0.115	36667	keystroke_o	o	n/a
18.4705	0.113	36941	keystroke_Key.space	Key.space	n/a
18.7425	0.113	37485	keystroke_c	c	n/a
18.9555	0.067	37911	keystroke_o	o	n/a
19.108	0.0915	38216	keystroke_o	o	n/a
19.3725	0.135	38745	keystroke_p	p	n/a
19.5085	0.223	39017	keystroke_e	e	n/a
19.639	0.115	39278	keystroke_r	r	n/a
19.7075	0.182	39415	keystroke_Key.space	Key.space	n/a
19.8665	0.136	39733	keystroke_w	w	n/a
20.0265	0.0665	40053	keystroke_e	e	n/a
20.182	0.09	40364	keystroke_d	d	n/a
20.485	0.069	40970	keystroke_e	e	n/a
20.8725	0.114	41745	keystroke_Key.backspace	Key.backspace	n/a
21.1735	0.113	42347	keystroke_n	n	n/a
21.3075	0.091	42615	keystroke_e	e	n/a
21.3995	0.1335	42799	keystroke_s	s	n/a
21.575	0.156	43150	keystroke_d	d	n/a
21.733	0.111	43466	keystroke_a	a	n/a
21.845	0.09	43690	keystroke_y	y	n/a
22.138	0.113	44276	keystroke_Key.enter	Key.enter	n/a
22.256	6.999	44512	prompt	n/a	forth colonial greene greetings\n
22.931	0.091	45862	keystroke_f	f	n/a
23.194	0.135	46388	keystroke_o	o	n/a
23.351	0.069	46702	keystroke_r	r	n/a
23.492	0.069	46984	keystroke_t	t	n/a
23.595	0.07	47190	keystroke_h	h	n/a
23.776	0.136	47552	keystroke_Key.space	Key.space	n/a
24.155	0.113	48310	keystroke_c	c	n/a
24.269	0.089	48538	keystroke_o	o	n/a
24.463	0.092	48926	keystroke_l	l	n/a
24.969	0.112	49938	keystroke_o	o	n/a
25.151	0.089	50302	keystroke_n	n	n/a
25.348	0.095	50696	keystroke_i	i	n/a
25.443	0.136	50886	keystroke_a	a	n/a
25.601	0.09	51202	keystroke_l	l	n/a
25.669	0.134	51338	keystroke_Key.space	Key.space	n/a
25.902	0.091	51804	keystroke_g	g	n/a
26.106	0.135	52212	keystroke_r	r	n/a
26.243	0.089	52486	keystroke_e	e	n/a
26.38	0.092	52760	keystroke_e	e	n/a
26.545	0.113	53090	keystroke_n	n	n/a
26.681	0.091	53362	keystroke_e	e	n/a
26.8105	0.1145	53621	keystroke_Key.space	Key.space	n/a
27.232	0.087	54464	keystroke_g	g	n/a
27.423	0.115	54846	keystroke_r	r	n/a
27.56	0.046	55120	keystroke_e	e	n/a
27.645	0.0905	55290	keystroke_e	e	n/a
27.8885	0.068	55777	keystroke_t	t	n/a
28.0315	0.157	56063	keystroke_i	i	n/a
28.1905	0.1145	56381	keystroke_n	n	n/a
28.2345	0.0725	56469	keystroke_g	g	n/a
28.39	0.07	56780	keystroke_s	s	n/a
29.1415	0.1115	58283	keystroke_Key.enter	Key.enter	n/a
29.2615	7.0315	58523	prompt	n/a	paraguay officials grace underlying\n
30.061	0.161	60122	keystroke_p	p	n/a
30.176	0.114	60352	keystroke_a	a	n/a
30.291	0.155	60582	keystroke_r	r	n/a
30.401	0.113	60802	keystroke_a	a	n/a
31.066	0.07	62132	keystroke_g	g	n/a
31.3415	0.091	62683	keystroke_u	u	n/a
31.464	0.1145	62928	keystroke_a	a	n/a
31.615	0.1355	63230	keystroke_y	y	n/a
31.7065	0.1365	63413	keystroke_Key.space	Key.space	n/a
31.9505	0.137	63901	keystroke_o	o	n/a
32.0415	0.048	64083	keystroke_f	f	n/a
32.1355	0.0685	64271	keystroke_f	f	n/a
32.285	0.0915	64570	keystroke_i	i	n/a
32.3775	0.07	64755	keystroke_c	c	n/a
32.4695	0.068	64939	keystroke_i	i	n/a
32.5775	0.091	65155	keystroke_a	a	n/a
32.6455	0.134	65291	keystroke_l	l	n/a
32.8015	0.138	65603	keystroke_s	s	n/a
32.8935	0.137	65787	keystroke_Key.space	Key.space	n/a
33.2305	0.067	66461	keystroke_g	g	n/a
33.526	0.158	67052	keystroke_r	r	n/a
33.661	0.157	67322	keystroke_a	a	n/a
33.908	0.091	67816	keystroke_c	c	n/a
34.151	0.161	68302	keystroke_e	e	n/a
34.288	0.117	68576	keystroke_Key.space	Key.space	n/a
34.467	0.07	68934	keystroke_u	u	n/a
34.6535	0.1595	69307	keystroke_n	n	n/a
34.7435	0.0725	69487	keystroke_d	d	n/a
34.932	0.1355	69864	keystroke_e	e	n/a
35.0435	0.09	70087	keystroke_r	r	n/a
35.2055	0.091	70411	keystroke_l	l	n/a
35.4075	0.114	70815	keystroke_y	y	n/a
35.5885	0.1355	71177	keystroke_i	i	n/a
35.725	0.157	71450	keystroke_n	n	n/a
35.858	0.093	71716	keystroke_g	g	n/a
36.201	0.09	72402	keystroke_Key.enter	Key.enter	n/a
36.2965	6.8265	72593	prompt	n/a	expert grove experiment referring\n
36.9445	0.068	73889	keystroke_e	e	n/a
37.1435	0.113	74287	keystroke_x	x	n/a
37.2575	0.1125	74515	keystroke_p	p	n/a
37.392	0.18	74784	keystroke_e	e	n/a
37.506	0.089	75012	keystroke_r	r	n/a
37.747	0.1345	75494	keystroke_t	t	n/a
37.8575	0.136	75715	keystroke_Key.space	Key.space	n/a
38.1725	0.069	76345	keystroke_g	g	n/a
38.3565	0.069	76713	keystroke_r	r	n/a
38.4775	0.138	76955	keystroke_o	o	n/a
38.6165	0.068	77233	keystroke_v	v	n/a
38.8225	0.115	77645	keystroke_e	e	n/a
38.9135	0.161	77827	keystroke_Key.space	Key.space	n/a
39.0515	0.068	78103	keystroke_e	e	n/a
39.255	0.091	78510	keystroke_x	x	n/a
39.381	0.111	78762	keystroke_p	p	n/a
39.514	0.092	79028	keystroke_e	e	n/a
39.558	0.0935	79116	keystroke_r	r	n/a
39.683	0.09	79366	keystroke_i	i	n/a
39.794	0.069	79588	keystroke_e	e	n/a
39.885	0.116	79770	keystroke_m	m	n/a
40.031	0.094	80062	keystroke_e	e	n/a
40.147	0.047	80294	keystroke_n	n	n/a
40.404	0.069	80808	keystroke_Key.backspace	Key.backspace	n/a
40.548	0.069	81096	keystroke_Key.backspace	Key.backspace	n/a
40.698	0.069	81396	keystroke_Key.backspace	Key.backspace	n/a
40.835	0.046	81670	keystroke_Key.backspace	Key.backspace	n/a
41.175	0.114	82350	keystroke_m	m	n/a
41.311	0.089	82622	keystroke_e	e	n/a
41.422	0.114	82844	keystroke_n	n	n/a
41.512	0.069	83024	keystroke_t	t	n/a
41.557	0.208	83114	keystroke_Key.space	Key.space	n/a
41.695	0.113	83390	keystroke_r	r	n/a
41.809	0.1105	83618	keystroke_e	e	n/a
41.9495	0.07	83899	keystroke_f	f	n/a
42.0895	0.114	84179	keystroke_e	e	n/a
42.2935	0.068	84587	keystroke_r	r	n/a
42.4105	0.069	84821	keystroke_r	r	n/a
42.592	0.111	85184	keystroke_i	i	n/a
42.704	0.155	85408	keystroke_n	n	n/a
42.813	0.068	85626	keystroke_g	g	n/a
43.052	0.069	86104	keystroke_Key.enter	Key.enter	n/a
43.126	5.2485	86252	prompt	n/a	buttons coat modem sucking\n
43.7315	0.114	87463	keystroke_b	b	n/a
43.9615	0.112	87923	keystroke_u	u	n/a
44.1105	0.047	88221	keystroke_t	t	n/a
44.2145	0.069	88429	keystroke_t	t	n/a
44.4215	0.161	88843	keystroke_o	o	n/a
44.5585	0.1145	89117	keystroke_n	n	n/a
44.674	0.09	89348	keystroke_s	s	n/a
44.719	0.138	89438	keystroke_Key.space	Key.space	n/a
44.878	0.09	89756	keystroke_c	c	n/a
45.03	0.136	90060	keystroke_o	o	n/a
45.167	0.09	90334	keystroke_a	a	n/a
45.487	0.114	90974	keystroke_t	t	n/a
45.623	0.1135	91246	keystroke_Key.space	Key.space	n/a
45.9535	0.114	91907	keystroke_m	m	n/a
46.1545	0.116	92309	keystroke_o	o	n/a
46.2715	0.0865	92543	keystroke_d	d	n/a
46.471	0.07	92942	keystroke_e	e	n/a
46.5775	0.137	93155	keystroke_m	m	n/a
46.7555	0.138	93511	keystroke_Key.space	Key.space	n/a
47.2195	0.0895	94439	keystroke_s	s	n/a
47.333	0.113	94666	keystroke_u	u	n/a
47.447	0.068	94894	keystroke_c	c	n/a
47.5745	0.089	95149	keystroke_k	k	n/a
47.7655	0.157	95531	keystroke_i	i	n/a
47.8985	0.137	95797	keystroke_n	n	n/a
48.0105	0.048	96021	keystroke_g	g	n/a
48.2585	0.114	96517	keystroke_Key.enter	Key.enter	n/a
48.3795	6.2545	96759	prompt	n/a	epson option lowest employed\n
49.298	0.069	98596	keystroke_e	e	n/a
49.484	0.114	98968	keystroke_p	p	n/a
49.655	0.091	99310	keystroke_s	s	n/a
49.796	0.159	99592	keystroke_o	o	n/a
49.909	0.136	99818	keystroke_n	n	n/a
50.067	0.1125	100134	keystroke_Key.space	Key.space	n/a
50.4785	0.114	100957	keystroke_o	o	n/a
50.7095	0.1095	101419	keystroke_p	p	n/a
51.159	0.113	102318	keystroke_t	t	n/a
51.248	0.093	102496	keystroke_i	i	n/a
51.364	0.1365	102728	keystroke_o	o	n/a
51.4545	0.114	102909	keystroke_n	n	n/a
51.5445	0.115	103089	keystroke_Key.space	Key.space	n/a
51.6605	0.089	103321	keystroke_l	l	n/a
51.8635	0.135	103727	keystroke_o	o	n/a
51.9995	0.113	103999	keystroke_w	w	n/a
52.1135	0.2245	104227	keystroke_e	e	n/a
52.291	0.138	104582	keystroke_s	s	n/a
52.452	0.137	104904	keystroke_t	t	n/a
52.566	0.1805	105132	keystroke_Key.space	Key.space	n/a
52.722	0.094	105444	keystroke_e	e	n/a
53.098	0.113	106196	keystroke_m	m	n/a
53.449	0.115	106898	keystroke_p	p	n/a
53.666	0.112	107332	keystroke_l	l	n/a
53.878	0.1135	107756	keystroke_o	o	n/a
54.05	0.138	108100	keystroke_y	y	n/a
54.189	0.067	108378	keystroke_e	e	n/a
54.342	0.069	108684	keystroke_d	d	n/a
54.52	0.112	109040	keystroke_Key.enter	Key.enter	n/a
54.6375	5.461	109275	prompt	n/a	shipped flying three zones\n
55.247	0.116	110494	keystroke_s	s	n/a
55.385	0.135	110770	keystroke_h	h	n/a
55.522	0.132	111044	keystroke_i	i	n/a
55.768	0.09	111536	keystroke_p	p	n/a
55.888	0.112	111776	keystroke_p	p	n/a
56.189	0.134	112378	keystroke_p	p	n/a
56.7435	0.093	113487	keystroke_Key.backspace	Key.backspace	n/a
56.8675	0.07	113735	keystroke_e	e	n/a
57.0065	0.157	114013	keystroke_d	d	n/a
57.1395	0.138	114279	keystroke_Key.space	Key.space	n/a
57.2995	0.09	114599	keystroke_f	f	n/a
57.4235	0.091	114847	keystroke_l	l	n/a
57.6175	0.135	115235	keystroke_y	y	n/a
57.8255	0.181	115651	keystroke_i	i	n/a
57.9825	0.181	115965	keystroke_n	n	n/a
58.0945	0.114	116189	keystroke_g	g	n/a
58.1845	0.18	116369	keystroke_Key.space	Key.space	n/a
58.3655	0.066	116731	keystroke_t	t	n/a
58.4645	0.133	116929	keystroke_h	h	n/a
58.5735	0.113	117147	keystroke_r	r	n/a
58.7285	0.091	117457	keystroke_e	e	n/a
58.8965	0.091	117793	keystroke_e	e	n/a
59.0785	0.137	118157	keystroke_Key.space	Key.space	n/a
59.3605	0.119	118721	keystroke_z	z	n/a
59.4995	0.158	118999	keystroke_o	o	n/a
59.6345	0.159	119269	keystroke_n	n	n/a
59.7235	0.116	119447	keystroke_e	e	n/a
59.8155	0.112	119631	keystroke_s	s	n/a
60.0065	0.091	120013	keystroke_Key.enter	Key.enter	n/a
60.1015	8.2995	120203	prompt	n/a	snap european there's accessibility\n
61.0235	0.068	122047	keystroke_s	s	n/a
61.3015	0.1355	122603	keystroke_n	n	n/a
61.438	0.134	122876	keystroke_a	a	n/a
61.694	0.134	123388	keystroke_p	p	n/a
61.829	0.111	123658	keystroke_Key.space	Key.space	n/a
62.298	0.069	124596	keystroke_e	e	n/a
62.504	0.068	125008	keystroke_u	u	n/a
62.792	0.09	125584	keystroke_r	r	n/a
63.095	0.113	126190	keystroke_o	o	n/a
63.462	0.136	126924	keystroke_p	p	n/a
63.663	0.1345	127326	keystroke_e	e	n/a
63.7515	0.136	127503	keystroke_a	a	n/a
63.8885	0.138	127777	keystroke_n	n	n/a
63.9795	0.16	127959	keystroke_Key.space	Key.space	n/a
64.1165	0.092	128233	keystroke_t	t	n/a
64.2095	0.133	128419	keystroke_h	h	n/a
64.2955	0.137	128591	keystroke_e	e	n/a
64.4095	0.138	128819	keystroke_r	r	n/a
64.4995	0.07	128999	keystroke_e	e	n/a
64.7455	0.136	129491	keystroke_'	'	n/a
64.9335	0.116	129867	keystroke_s	s	n/a
65.0255	0.1385	130051	keystroke_Key.space	Key.space	n/a
65.165	0.11	130330	keystroke_a	a	n/a
65.422	0.093	130844	keystroke_c	c	n/a
65.571	0.069	131142	keystroke_c	c	n/a
66.008	0.068	132016	keystroke_e	e	n/a
66.657	0.0685	133314	keystroke_s	s	n/a
66.79	0.07	133580	keystroke_s	s	n/a
67.01	0.0945	134020	keystroke_i	i	n/a
67.185	0.091	134370	keystroke_b	b	n/a
67.396	0.069	134792	keystroke_i	i	n/a
67.572	0.113	135144	keystroke_l	l	n/a
67.707	0.1125	135414	keystroke_i	i	n/a
67.8605	0.07	135721	keystroke_t	t	n/a
67.9535	0.0925	135907	keystroke_y	y	n/a
68.288	0.111	136576	keystroke_Key.enter	Key.enter	n/a
68.4045	7.0975	136809	prompt	n/a	hood painted enquiry baker\n
69.1765	0.114	138353	keystroke_h	h	n/a
69.4355	0.067	138871	keystroke_o	o	n/a
69.5565	0.115	139113	keystroke_o	o	n/a
69.6925	0.135	139385	keystroke_d	d	n/a
69.8965	0.136	139793	keystroke_Key.space	Key.space	n/a
70.435	0.091	140870	keystroke_p	p	n/a
70.527	0.1345	141054	keystroke_a	a	n/a
70.9775	0.089	141955	keystroke_i	i	n/a
71.1445	0.113	142289	keystroke_n	n	n/a
71.2915	0.114	142583	keystroke_t	t	n/a
71.4285	0.115	142857	keystroke_e	e	n/a
71.6235	0.134	143247	keystroke_d	d	n/a
71.7345	0.157	143469	keystroke_Key.space	Key.space	n/a
71.8675	0.069	143735	keystroke_e	e	n/a
72.657	0.137	145314	keystroke_n	n	n/a
72.9325	0.113	145865	keystroke_q	q	n/a
73.0775	0.1155	146155	keystroke_u	u	n/a
73.1675	0.1595	146335	keystroke_i	i	n/a
73.349	0.07	146698	keystroke_r	r	n/a
73.372	0.025	146744	keystroke_f	f	n/a
73.526	0.072	147052	keystroke_y	y	n/a
73.85	0.07	147700	keystroke_Key.backspace	Key.backspace	n/a
73.973	0.093	147946	keystroke_Key.backspace	Key.backspace	n/a
74.25	0.134	148500	keystroke_y	y	n/a
74.421	0.134	148842	keystroke_Key.space	Key.space	n/a
74.666	0.115	149332	keystroke_b	b	n/a
74.782	0.136	149564	keystroke_a	a	n/a
74.941	0.113	149882	keystroke_k	k	n/a
75.055	0.18	150110	keystroke_e	e	n/a
75.166	0.092	150332	keystroke_r	r	n/a
75.389	0.112	150778	keystroke_Key.enter	Key.enter	n/a
75.5075	7.011	151015	prompt	n/a	dayton coal omega receives\n
76.1345	0.181	152269	keystroke_d	d	n/a
76.3375	0.112	152675	keystroke_a	a	n/a
76.4715	0.091	152943	keystroke_y	y	n/a
76.9365	0.069	153873	keystroke_t	t	n/a
77.0585	0.136	154117	keystroke_o	o	n/a
77.1705	0.1385	154341	keystroke_n	n	n/a
77.2405	0.1585	154481	keystroke_Key.space	Key.space	n/a
77.522	0.113	155044	keystroke_o	o	n/a
77.911	0.115	155822	keystroke_Key.backspace	Key.backspace	n/a
78.027	0.112	156054	keystroke_c	c	n/a
78.191	0.092	156382	keystroke_o	o	n/a
78.321	0.112	156642	keystroke_a	a	n/a
78.677	0.134	157354	keystroke_l	l	n/a
78.8115	0.135	157623	keystroke_Key.space	Key.space	n/a
79.5385	0.114	159077	keystroke_o	o	n/a
79.7445	0.137	159489	keystroke_m	m	n/a
79.9285	0.067	159857	keystroke_e	e	n/a
80.1015	0.067	160203	keystroke_g	g	n/a
80.2555	0.113	160511	keystroke_a	a	n/a
80.422	0.136	160844	keystroke_Key.space	Key.space	n/a
81.0615	0.113	162123	keystroke_r	r	n/a
81.1515	0.113	162303	keystroke_e	e	n/a
81.3105	0.1155	162621	keystroke_c	c	n/a
81.41	0.085	162820	keystroke_e	e	n/a
81.55	0.114	163100	keystroke_i	i	n/a
81.618	0.092	163236	keystroke_v	v	n/a
81.799	0.094	163598	keystroke_e	e	n/a
81.954	0.09	163908	keystroke_s	s	n/a
82.403	0.114	164806	keystroke_Key.enter	Key.enter	n/a
82.5215	6.2775	165043	prompt	n/a	legend pdas beneficial belfast\n
83.1545	0.156	166309	keystroke_l	l	n/a
83.2425	0.09	166485	keystroke_e	e	n/a
83.4055	0.07	166811	keystroke_g	g	n/a
83.6015	0.07	167203	keystroke_e	e	n/a
83.7285	0.136	167457	keystroke_n	n	n/a
83.7955	0.18	167591	keystroke_d	d	n/a
83.9525	0.134	167905	keystroke_Key.space	Key.space	n/a
84.4885	0.1315	168977	keystroke_p	p	n/a
84.653	0.113	169306	keystroke_d	d	n/a
85.039	0.136	170078	keystroke_a	a	n/a
85.275	0.114	170550	keystroke_s	s	n/a
85.364	0.136	170728	keystroke_Key.space	Key.space	n/a
85.5415	0.113	171083	keystroke_b	b	n/a
85.6555	0.045	171311	keystroke_e	e	n/a
85.7365	0.158	171473	keystroke_n	n	n/a
85.8255	0.114	171651	keystroke_e	e	n/a
85.9615	0.045	171923	keystroke_f	f	n/a
86.3725	0.11	172745	keystroke_i	i	n/a
86.504	0.0685	173008	keystroke_c	c	n/a
86.595	0.0705	173190	keystroke_i	i	n/a
86.703	0.1105	173406	keystroke_a	a	n/a
86.7265	0.132	173453	keystroke_l	l	n/a
86.883	0.136	173766	keystroke_Key.space	Key.space	n/a
87.06	0.072	174120	keystroke_b	b	n/a
87.431	0.091	174862	keystroke_e	e	n/a
87.5835	0.135	175167	keystroke_l	l	n/a
87.9285	0.135	175857	keystroke_f	f	n/a
88.1625	0.227	176325	keystroke_a	a	n/a
88.3405	0.14	176681	keystroke_s	s	n/a
88.4565	0.091	176913	keystroke_t	t	n/a
88.6855	0.112	177371	keystroke_Key.enter	Key.enter	n/a
88.802	6.0935	177604	prompt	n/a	gods roommate retired tall\n
89.3665	0.115	178733	keystroke_g	g	n/a
89.5035	0.137	179007	keystroke_o	o	n/a
89.5945	0.093	179189	keystroke_d	d	n/a
89.7755	0.114	179551	keystroke_s	s	n/a
89.8665	0.158	179733	keystroke_Key.space	Key.space	n/a
90.0005	0.092	180001	keystroke_r	r	n/a
90.0935	0.067	180187	keystroke_o	o	n/a
90.2045	0.091	180409	keystroke_o	o	n/a
90.7705	0.091	181541	keystroke_m	m	n/a
90.9765	0.092	181953	keystroke_m	m	n/a
91.2005	0.136	182401	keystroke_a	a	n/a
91.3125	0.138	182625	keystroke_t	t	n/a
91.4515	0.135	182903	keystroke_e	e	n/a
91.5395	0.16	183079	keystroke_Key.space	Key.space	n/a
91.9085	0.068	183817	keystroke_e	e	n/a
92.796	0.113	185592	keystroke_Key.backspace	Key.backspace	n/a
92.91	0.18	185820	keystroke_r	r	n/a
93.043	0.092	186086	keystroke_e	e	n/a
93.208	0.071	186416	keystroke_t	t	n/a
93.342	0.09	186684	keystroke_i	i	n/a
93.453	0.069	186906	keystroke_r	r	n/a
93.586	0.091	187172	keystroke_e	e	n/a
93.7685	0.137	187537	keystroke_d	d	n/a
93.9285	0.158	187857	keystroke_Key.space	Key.space	n/a
94.1455	0.092	188291	keystroke_t	t	n/a
94.2135	0.1565	188427	keystroke_a	a	n/a
94.4	0.094	188800	keystroke_l	l	n/a
94.524	0.113	189048	keystroke_l	l	n/a
94.802	0.092	189604	keystroke_Key.enter	Key.enter	n/a
94.8995	6.613	189799	prompt	n/a	lisa concentrations fairy should\n
95.719	0.092	191438	keystroke_l	l	n/a
95.865	0.116	191730	keystroke_i	i	n/a
95.982	0.178	191964	keystroke_s	s	n/a
96.136	0.137	192272	keystroke_a	a	n/a
96.25	0.135	192500	keystroke_Key.space	Key.space	n/a
96.478	0.07	192956	keystroke_c	c	n/a
96.549	0.136	193098	keystroke_o	o	n/a
96.662	0.157	193324	keystroke_n	n	n/a
96.772	0.07	193544	keystroke_c	c	n/a
96.905	0.093	193810	keystroke_e	e	n/a
96.999	0.111	193998	keystroke_n	n	n/a
97.111	0.045	194222	keystroke_t	t	n/a
97.255	0.112	194510	keystroke_r	r	n/a
97.344	0.158	194688	keystroke_a	a	n/a
98.018	0.088	196036	keystroke_t	t	n/a
98.176	0.091	196352	keystroke_i	i	n/a
98.268	0.156	196536	keystroke_o	o	n/a
98.356	0.183	196712	keystroke_n	n	n/a
98.448	0.113	196896	keystroke_s	s	n/a
98.54	0.1545	197080	keystroke_Key.space	Key.space	n/a
98.6485	0.093	197297	keystroke_f	f	n/a
98.7425	0.113	197485	keystroke_a	a	n/a
98.8895	0.092	197779	keystroke_i	i	n/a
99.0445	0.092	198089	keystroke_r	r	n/a
99.192	0.138	198384	keystroke_y	y	n/a
99.261	0.16	198522	keystroke_Key.space	Key.space	n/a
99.493	0.047	198986	keystroke_Key.space	Key.space	n/a
99.911	0.092	199822	keystroke_Key.backspace	Key.backspace	n/a
100.237	0.093	200474	keystroke_s	s	n/a
100.351	0.115	200702	keystroke_h	h	n/a
100.441	0.1655	200882	keystroke_o	o	n/a
100.5825	0.182	201165	keystroke_u	u	n/a
100.7655	0.0905	201531	keystroke_l	l	n/a
100.857	0.066	201714	keystroke_d	d	n/a
101.395	0.1165	202790	keystroke_Key.enter	Key.enter	n/a
101.516	7.1575	203032	prompt	n/a	earrings older invisible trademark\n
102.1265	0.069	204253	keystroke_e	e	n/a
102.5615	0.09	205123	keystroke_a	a	n/a
102.8105	0.046	205621	keystroke_r	r	n/a
102.9215	0.069	205843	keystroke_r	r	n/a
103.1505	0.094	206301	keystroke_i	i	n/a
103.2205	0.183	206441	keystroke_n	n	n/a
103.3575	0.113	206715	keystroke_g	g	n/a
103.5235	0.116	207047	keystroke_s	s	n/a
103.5915	0.138	207183	keystroke_Key.space	Key.space	n/a
103.781	0.114	207562	keystroke_o	o	n/a
103.969	0.135	207938	keystroke_l	l	n/a
104.203	0.046	208406	keystroke_e	e	n/a
104.67	0.117	209340	keystroke_Key.backspace	Key.backspace	n/a
104.761	0.138	209522	keystroke_d	d	n/a
105.05	0.2275	210100	keystroke_e	e	n/a
105.1875	0.135	210375	keystroke_r	r	n/a
105.2785	0.136	210557	keystroke_Key.space	Key.space	n/a
105.3675	0.138	210735	keystroke_i	i	n/a
105.4815	0.159	210963	keystroke_n	n	n/a
105.5955	0.091	211191	keystroke_v	v	n/a
105.7385	0.114	211477	keystroke_i	i	n/a
105.8535	0.089	211707	keystroke_s	s	n/a
106.0125	0.088	212025	keystroke_i	i	n/a
106.3655	0.09	212731	keystroke_b	b	n/a
106.5625	0.136	213125	keystroke_l	l	n/a
106.6525	0.091	213305	keystroke_e	e	n/a
106.7445	0.182	213489	keystroke_Key.space	Key.space	n/a
106.8785	0.071	213757	keystroke_t	t	n/a
107.0375	0.112	214075	keystroke_r	r	n/a
107.1255	0.113	214251	keystroke_a	a	n/a
107.358	0.1135	214716	keystroke_d	d	n/a
107.747	0.091	215494	keystroke_e	e	n/a
107.921	0.1145	215842	keystroke_m	m	n/a
108.08	0.156	216160	keystroke_a	a	n/a
108.213	0.069	216426	keystroke_r	r	n/a
108.3205	0.095	216641	keystroke_k	k	n/a
108.5815	0.0905	217163	keystroke_Key.enter	Key.enter	n/a
108.6765	5.2105	217353	prompt	n/a	healing plaza became notified\n
109.3095	0.135	218619	keystroke_h	h	n/a
109.4215	0.136	218843	keystroke_e	e	n/a
109.4885	0.157	218977	keystroke_a	a	n/a
109.6455	0.093	219291	keystroke_l	l	n/a
109.7865	0.138	219573	keystroke_i	i	n/a
109.9005	0.205	219801	keystroke_n	n	n/a
110.0585	0.114	220117	keystroke_g	g	n/a
110.1055	0.158	220211	keystroke_Key.space	Key.space	n/a
110.3105	0.114	220621	keystroke_p	p	n/a
110.5145	0.136	221029	keystroke_l	l	n/a
110.6265	0.091	221253	keystroke_a	a	n/a
110.8685	0.091	221737	keystroke_z	z	n/a
111.1645	0.116	222329	keystroke_a	a	n/a
111.3035	0.136	222607	keystroke_Key.space	Key.space	n/a
111.6565	0.111	223313	keystroke_b	b	n/a
111.7685	0.09	223537	keystroke_e	e	n/a
111.9095	0.091	223819	keystroke_c	c	n/a
112.0355	0.091	224071	keystroke_a	a	n/a
112.1275	0.135	224255	keystroke_m	m	n/a
112.2845	0.091	224569	keystroke_e	e	n/a
112.3525	0.137	224705	keystroke_Key.space	Key.space	n/a
112.7565	0.0905	225513	keystroke_n	n	n/a
112.941	0.091	225882	keystroke_o	o	n/a
113.0695	0.0915	226139	keystroke_t	t	n/a
113.183	0.09	226366	keystroke_i	i	n/a
113.275	0.068	226550	keystroke_f	f	n/a
113.3915	0.0905	226783	keystroke_i	i	n/a
113.504	0.0695	227008	keystroke_e	e	n/a
113.6295	0.093	227259	keystroke_d	d	n/a
113.7935	0.0915	227587	keystroke_Key.enter	Key.enter	n/a
113.89	6.321	227780	prompt	n/a	obligations study trade handhelds\n
114.6615	0.091	229323	keystroke_o	o	n/a
114.8635	0.066	229727	keystroke_b	b	n/a
115.0545	0.091	230109	keystroke_l	l	n/a
115.2045	0.092	230409	keystroke_i	i	n/a
115.3185	0.091	230637	keystroke_g	g	n/a
115.4325	0.1555	230865	keystroke_a	a	n/a
115.61	0.07	231220	keystroke_t	t	n/a
115.702	0.093	231404	keystroke_i	i	n/a
115.77	0.182	231540	keystroke_o	o	n/a
115.882	0.183	231764	keystroke_n	n	n/a
115.953	0.114	231906	keystroke_s	s	n/a
116.018	0.184	232036	keystroke_Key.space	Key.space	n/a
116.156	0.114	232312	keystroke_s	s	n/a
116.3195	0.091	232639	keystroke_t	t	n/a
116.4335	0.091	232867	keystroke_u	u	n/a
116.5455	0.068	233091	keystroke_d	d	n/a
116.6535	0.114	233307	keystroke_y	y	n/a
116.7895	0.134	233579	keystroke_Key.space	Key.space	n/a
117.0245	0.068	234049	keystroke_t	t	n/a
117.1675	0.111	234335	keystroke_r	r	n/a
117.2795	0.135	234559	keystroke_a	a	n/a
117.5485	0.09	235097	keystroke_d	d	n/a
117.7835	0.092	235567	keystroke_e	e	n/a
117.8765	0.136	235753	keystroke_Key.space	Key.space	n/a
118.0345	0.091	236069	keystroke_h	h	n/a
118.1785	0.1345	236357	keystroke_a	a	n/a
118.334	0.136	236668	keystroke_n	n	n/a
118.424	0.09	236848	keystroke_d	d	n/a
118.921	0.113	237842	keystroke_h	h	n/a
119.035	0.07	238070	keystroke_e	e	n/a
119.6325	0.116	239265	keystroke_l	l	n/a
119.7495	0.067	239499	keystroke_d	d	n/a
119.9335	0.07	239867	keystroke_s	s	n/a
120.0995	0.11	240199	keystroke_Key.enter	Key.enter	n/a
120.2185	6.863	240437	prompt	n/a	vertex varies plasma licensing\n
120.847	0.136	241694	keystroke_v	v	n/a
121.026	0.1795	242052	keystroke_e	e	n/a
121.137	0.0705	242274	keystroke_r	r	n/a
121.3115	0.067	242623	keystroke_t	t	n/a
121.4805	0.07	242961	keystroke_e	e	n/a
121.6795	0.09	243359	keystroke_x	x	n/a
121.9235	0.135	243847	keystroke_Key.space	Key.space	n/a
122.5175	0.112	245035	keystroke_c	c	n/a
122.9705	0.091	245941	keystroke_Key.backspace	Key.backspace	n/a
123.0385	0.113	246077	keystroke_v	v	n/a
123.2155	0.1545	246431	keystroke_a	a	n/a
123.347	0.069	246694	keystroke_r	r	n/a
123.52	0.09	247040	keystroke_i	i	n/a
123.632	0.1835	247264	keystroke_e	e	n/a
123.7015	0.138	247403	keystroke_s	s	n/a
123.8165	0.135	247633	keystroke_Key.space	Key.space	n/a
124.1045	0.111	248209	keystroke_p	p	n/a
124.2965	0.158	248593	keystroke_l	l	n/a
124.4085	0.091	248817	keystroke_a	a	n/a
124.6285	0.092	249257	keystroke_s	s	n/a
124.8485	0.16	249697	keystroke_m	m	n/a
125.0095	0.179	250019	keystroke_a	a	n/a
125.1655	0.139	250331	keystroke_Key.space	Key.space	n/a
125.615	0.0685	251230	keystroke_l	l	n/a
125.7515	0.136	251503	keystroke_i	i	n/a
125.8405	0.092	251681	keystroke_c	c	n/a
126.0095	0.0685	252019	keystroke_e	e	n/a
126.101	0.114	252202	keystroke_n	n	n/a
126.237	0.068	252474	keystroke_s	s	n/a
126.4405	0.068	252881	keystroke_i	i	n/a
126.5925	0.1145	253185	keystroke_n	n	n/a
126.729	0.068	253458	keystroke_g	g	n/a
126.99	0.09	253980	keystroke_Key.enter	Key.enter	n/a
127.086	9.154	254172	prompt	n/a	oakland defining fantastic notice\n
127.8265	0.116	255653	keystroke_o	o	n/a
128.0065	0.137	256013	keystroke_a	a	n/a
128.1825	0.093	256365	keystroke_k	k	n/a
128.7215	0.112	257443	keystroke_l	l	n/a
128.8555	0.093	257711	keystroke_a	a	n/a
128.9695	0.09	257939	keystroke_n	n	n/a
129.0825	0.1345	258165	keystroke_d	d	n/a
129.172	0.135	258344	keystroke_Key.space	Key.space	n/a
129.357	0.067	258714	keystroke_d	d	n/a
129.566	0.135	259132	keystroke_e	e	n/a
129.677	0.091	259354	keystroke_f	f	n/a
129.806	0.115	259612	keystroke_i	i	n/a
129.942	0.114	259884	keystroke_n	n	n/a
130.089	0.154	260178	keystroke_i	i	n/a
130.198	0.18	260396	keystroke_n	n	n/a
130.38	0.136	260760	keystroke_g	g	n/a
130.492	0.158	260984	keystroke_Key.space	Key.space	n/a
131.035	0.069	262070	keystroke_Key.backspace	Key.backspace	n/a
131.192	0.068	262384	keystroke_Key.backspace	Key.backspace	n/a
131.332	0.067	262664	keystroke_Key.backspace	Key.backspace	n/a
131.481	0.0905	262962	keystroke_Key.backspace	Key.backspace	n/a
132.3625	0.068	264725	keystroke_i	i	n/a
132.5435	0.094	265087	keystroke_n	n	n/a
132.7085	0.115	265417	keystroke_g	g	n/a
132.8245	0.178	265649	keystroke_Key.space	Key.space	n/a
133.186	0.112	266372	keystroke_f	f	n/a
133.319	0.116	266638	keystroke_a	a	n/a
133.409	0.116	266818	keystroke_n	n	n/a
133.577	0.135	267154	keystroke_t	t	n/a
133.667	0.203	267334	keystroke_a	a	n/a
133.901	0.09	267802	keystroke_s	s	n/a
134.081	0.093	268162	keystroke_t	t	n/a
134.218	0.1145	268436	keystroke_i	i	n/a
134.3065	0.092	268613	keystroke_c	c	n/a
134.4935	0.135	268987	keystroke_Key.space	Key.space	n/a
134.6505	0.113	269301	keystroke_m	m	n/a
135.0845	0.094	270169	keystroke_Key.backspace	Key.backspace	n/a
135.3445	0.09	270689	keystroke_n	n	n/a
135.5225	0.111	271045	keystroke_o	o	n/a
135.6345	0.067	271269	keystroke_t	t	n/a
135.7315	0.134	271463	keystroke_i	i	n/a
135.8415	0.069	271683	keystroke_c	c	n/a
136.0135	0.069	272027	keystroke_e	e	n/a
136.1485	0.09	272297	keystroke_Key.enter	Key.enter	n/a
136.243	6.1325	272486	prompt	n/a	districts festival juan lonely\n
136.8315	0.114	273663	keystroke_d	d	n/a
137.0375	0.115	274075	keystroke_i	i	n/a
137.1545	0.066	274309	keystroke_s	s	n/a
137.2825	0.0685	274565	keystroke_t	t	n/a
137.434	0.068	274868	keystroke_r	r	n/a
137.549	0.114	275098	keystroke_i	i	n/a
137.685	0.069	275370	keystroke_c	c	n/a
137.955	0.09	275910	keystroke_t	t	n/a
138.114	0.138	276228	keystroke_s	s	n/a
138.204	0.181	276408	keystroke_Key.space	Key.space	n/a
138.406	0.115	276812	keystroke_f	f	n/a
138.581	0.091	277162	keystroke_e	e	n/a
138.747	0.093	277494	keystroke_s	s	n/a
138.951	0.067	277902	keystroke_t	t	n/a
139.0815	0.091	278163	keystroke_i	i	n/a
139.1745	0.109	278349	keystroke_v	v	n/a
139.3045	0.115	278609	keystroke_a	a	n/a
139.4635	0.114	278927	keystroke_l	l	n/a
139.5525	0.116	279105	keystroke_Key.space	Key.space	n/a
139.7255	0.0915	279451	keystroke_j	j	n/a
139.967	0.046	279934	keystroke_u	u	n/a
140.035	0.138	280070	keystroke_a	a	n/a
140.5065	0.1345	281013	keystroke_n	n	n/a
140.6625	0.1145	281325	keystroke_Key.space	Key.space	n/a
141.03	0.114	282060	keystroke_l	l	n/a
141.262	0.091	282524	keystroke_o	o	n/a
141.447	0.137	282894	keystroke_n	n	n/a
141.626	0.068	283252	keystroke_e	e	n/a
141.811	0.112	283622	keystroke_l	l	n/a
141.998	0.089	283996	keystroke_y	y	n/a
142.285	0.089	284570	keystroke_Key.enter	Key.enter	n/a
142.3785	5.3445	284757	prompt	n/a	direct landing gonna blast\n
143.001	0.1575	286002	keystroke_d	d	n/a
143.2885	0.112	286577	keystroke_i	i	n/a
143.4495	0.138	286899	keystroke_r	r	n/a
143.5615	0.163	287123	keystroke_e	e	n/a
143.7635	0.09	287527	keystroke_c	c	n/a
144.0345	0.1375	288069	keystroke_t	t	n/a
144.1245	0.1375	288249	keystroke_Key.space	Key.space	n/a
144.285	0.111	288570	keystroke_l	l	n/a
144.418	0.091	288836	keystroke_a	a	n/a
144.531	0.114	289062	keystroke_n	n	n/a
144.645	0.069	289290	keystroke_d	d	n/a
145.1985	0.092	290397	keystroke_i	i	n/a
145.3135	0.136	290627	keystroke_n	n	n/a
145.4265	0.1125	290853	keystroke_g	g	n/a
145.494	0.134	290988	keystroke_Key.space	Key.space	n/a
145.666	0.09	291332	keystroke_g	g	n/a
145.809	0.068	291618	keystroke_o	o	n/a
146	0.045	292000	keystroke_n	n	n/a
146.111	0.114	292222	keystroke_n	n	n/a
146.247	0.138	292494	keystroke_a	a	n/a
146.361	0.135	292722	keystroke_Key.space	Key.space	n/a
146.561	0.115	293122	keystroke_b	b	n/a
147.014	0.16	294028	keystroke_l	l	n/a
147.127	0.184	294254	keystroke_a	a	n/a
147.333	0.0905	294666	keystroke_s	s	n/a
147.4545	0.089	294909	keystroke_t	t	n/a
147.6305	0.091	295261	keystroke_Key.enter	Key.enter	n/a
147.7385	7.358	295477	prompt	n/a	meta package particular authentication\n
148.553	0.113	297106	keystroke_m	m	n/a
148.697	0.0915	297394	keystroke_e	e	n/a
148.8785	0.089	297757	keystroke_t	t	n/a
148.9685	0.134	297937	keystroke_a	a	n/a
149.1245	0.159	298249	keystroke_Key.space	Key.space	n/a
149.3185	0.159	298637	keystroke_p	p	n/a
149.4535	0.1355	298907	keystroke_a	a	n/a
149.625	0.088	299250	keystroke_c	c	n/a
149.761	0.111	299522	keystroke_k	k	n/a
149.919	0.115	299838	keystroke_a	a	n/a
150.035	0.067	300070	keystroke_g	g	n/a
150.214	0.114	300428	keystroke_e	e	n/a
150.282	0.134	300564	keystroke_Key.space	Key.space	n/a
150.792	0.158	301584	keystroke_p	p	n/a
150.926	0.204	301852	keystroke_a	a	n/a
151.06	0.069	302120	keystroke_r	r	n/a
151.234	0.067	302468	keystroke_t	t	n/a
151.336	0.089	302672	keystroke_i	i	n/a
151.447	0.093	302894	keystroke_c	c	n/a
151.562	0.114	303124	keystroke_u	u	n/a
151.698	0.136	303396	keystroke_l	l	n/a
151.787	0.159	303574	keystroke_a	a	n/a
151.923	0.115	303846	keystroke_r	r	n/a
152.013	0.16	304026	keystroke_Key.space	Key.space	n/a
152.298	0.113	304596	keystroke_a	a	n/a
152.513	0.093	305026	keystroke_u	u	n/a
152.628	0.091	305256	keystroke_t	t	n/a
152.74	0.113	305480	keystroke_h	h	n/a
152.874	0.068	305748	keystroke_e	e	n/a
153.041	0.112	306082	keystroke_n	n	n/a
153.6525	0.0915	307305	keystroke_t	t	n/a
153.766	0.091	307532	keystroke_i	i	n/a
154.042	0.115	308084	keystroke_c	c	n/a
154.256	0.138	308512	keystroke_a	a	n/a
154.347	0.092	308694	keystroke_t	t	n/a
154.44	0.089	308880	keystroke_i	i	n/a
154.53	0.179	309060	keystroke_o	o	n/a
154.619	0.134	309238	keystroke_n	n	n/a
155.002	0.0935	310004	keystroke_Key.enter	Key.enter	n/a
155.0995	6.375	310199	prompt	n/a	russell grey rental persons\n
155.684	0.115	311368	keystroke_r	r	n/a
155.87	0.115	311740	keystroke_u	u	n/a
156.12	0.068	312240	keystroke_s	s	n/a
156.223	0.091	312446	keystroke_s	s	n/a
156.596	0.0895	313192	keystroke_e	e	n/a
156.7585	0.069	313517	keystroke_l	l	n/a
156.8955	0.1355	313791	keystroke_l	l	n/a
157.0075	0.1595	314015	keystroke_Key.space	Key.space	n/a
157.168	0.0675	314336	keystroke_g	g	n/a
157.338	0.179	314676	keystroke_r	r	n/a
157.45	0.111	314900	keystroke_e	e	n/a
157.562	0.135	315124	keystroke_y	y	n/a
157.698	0.134	315396	keystroke_Key.space	Key.space	n/a
158.208	0.159	316416	keystroke_r	r	n/a
158.321	0.091	316642	keystroke_e	e	n/a
158.477	0.067	316954	keystroke_t	t	n/a
158.577	0.09	317154	keystroke_n	n	n/a
158.668	0.111	317336	keystroke_a	a	n/a
159.079	0.067	318158	keystroke_Key.backspace	Key.backspace	n/a
159.212	0.069	318424	keystroke_Key.backspace	Key.backspace	n/a
159.334	0.093	318668	keystroke_Key.backspace	Key.backspace	n/a
159.64	0.134	319280	keystroke_n	n	n/a
159.775	0.176	319550	keystroke_t	t	n/a
160.127	0.112	320254	keystroke_a	a	n/a
160.297	0.138	320594	keystroke_l	l	n/a
160.41	0.136	320820	keystroke_Key.space	Key.space	n/a
160.584	0.161	321168	keystroke_p	p	n/a
160.674	0.116	321348	keystroke_e	e	n/a
160.766	0.138	321532	keystroke_r	r	n/a
160.857	0.093	321714	keystroke_s	s	n/a
160.971	0.159	321942	keystroke_o	o	n/a
161.062	0.134	322124	keystroke_n	n	n/a
161.197	0.067	322394	keystroke_s	s	n/a
161.359	0.114	322718	keystroke_Key.enter	Key.enter	n/a
161.4795	6.4565	322959	prompt	n/a	quick kitchen shadows attempt\n
162.22	0.089	324440	keystroke_q	q	n/a
162.344	0.115	324688	keystroke_u	u	n/a
162.391	0.179	324782	keystroke_i	i	n/a
162.571	0.066	325142	keystroke_c	c	n/a
162.71	0.09	325420	keystroke_k	k	n/a
162.856	0.112	325712	keystroke_Key.space	Key.space	n/a
163.182	0.117	326364	keystroke_k	k	n/a
163.7655	0.112	327531	keystroke_i	i	n/a
163.8995	0.068	327799	keystroke_t	t	n/a
164.1435	0.114	328287	keystroke_c	c	n/a
164.2795	0.111	328559	keystroke_h	h	n/a
164.4125	0.091	328825	keystroke_e	e	n/a
164.5045	0.1105	329009	keystroke_n	n	n/a
164.638	0.134	329276	keystroke_Key.space	Key.space	n/a
165.183	0.089	330366	keystroke_s	s	n/a
165.328	0.138	330656	keystroke_h	h	n/a
165.419	0.094	330838	keystroke_a	a	n/a
165.607	0.093	331214	keystroke_d	d	n/a
166.1635	0.137	332327	keystroke_o	o	n/a
166.3015	0.069	332603	keystroke_w	w	n/a
166.4655	0.114	332931	keystroke_s	s	n/a
166.5815	0.132	333163	keystroke_Key.space	Key.space	n/a
166.6895	0.135	333379	keystroke_a	a	n/a
166.8895	0.045	333779	keystroke_t	t	n/a
166.9955	0.069	333991	keystroke_t	t	n/a
167.1215	0.069	334243	keystroke_e	e	n/a
167.2435	0.158	334487	keystroke_m	m	n/a
167.4705	0.156	334941	keystroke_p	p	n/a
167.6275	0.069	335255	keystroke_t	t	n/a
167.8205	0.114	335641	keystroke_Key.enter	Key.enter	n/a
167.939	9.1105	335878	prompt	n/a	implementation essentially essex attending\n
168.727	0.1135	337454	keystroke_i	i	n/a
168.8915	0.1365	337783	keystroke_n	n	n/a
169.521	0.09	339042	keystroke_Key.backspace	Key.backspace	n/a
169.785	0.114	339570	keystroke_m	m	n/a
170.064	0.089	340128	keystroke_p	p	n/a
170.2705	0.135	340541	keystroke_l	l	n/a
170.9815	0.068	341963	keystroke_e	e	n/a
171.1745	0.113	342349	keystroke_m	m	n/a
171.3095	0.0915	342619	keystroke_e	e	n/a
171.423	0.09	342846	keystroke_n	n	n/a
171.535	0.092	343070	keystroke_t	t	n/a
171.658	0.1335	343316	keystroke_a	a	n/a
171.8655	0.069	343731	keystroke_t	t	n/a
171.9355	0.114	343871	keystroke_i	i	n/a
172.0265	0.158	344053	keystroke_o	o	n/a
172.1165	0.158	344233	keystroke_n	n	n/a
172.2305	0.18	344461	keystroke_Key.space	Key.space	n/a
172.3865	0.046	344773	keystroke_e	e	n/a
172.5775	0.047	345155	keystroke_s	s	n/a
172.6985	0.089	345397	keystroke_s	s	n/a
173.1935	0.068	346387	keystroke_e	e	n/a
173.3115	0.112	346623	keystroke_n	n	n/a
173.4245	0.068	346849	keystroke_t	t	n/a
173.5475	0.069	347095	keystroke_i	i	n/a
173.6385	0.112	347277	keystroke_a	a	n/a
173.7275	0.069	347455	keystroke_l	l	n/a
173.8545	0.092	347709	keystroke_l	l	n/a
174.0625	0.137	348125	keystroke_y	y	n/a
174.1325	0.181	348265	keystroke_Key.space	Key.space	n/a
174.2435	0.092	348487	keystroke_e	e	n/a
174.4795	0.046	348959	keystroke_s	s	n/a
174.5735	0.07	349147	keystroke_s	s	n/a
174.7305	0.068	349461	keystroke_e	e	n/a
174.9415	0.046	349883	keystroke_x	x	n/a
175.2635	0.1355	350527	keystroke_Key.space	Key.space	n/a
175.667	0.139	351334	keystroke_a	a	n/a
175.892	0.067	351784	keystroke_t	t	n/a
175.992	0.09	351984	keystroke_t	t	n/a
176.137	0.092	352274	keystroke_e	e	n/a
176.25	0.134	352500	keystroke_n	n	n/a
176.361	0.069	352722	keystroke_d	d	n/a
176.494	0.113	352988	keystroke_i	i	n/a
176.63	0.137	353260	keystroke_n	n	n/a
176.72	0.069	353440	keystroke_g	g	n/a
176.955	0.093	353910	keystroke_Key.enter	Key.enter	n/a
177.0525	9.0255	354105	prompt	n/a	shopper pokemon correlation cartoons\n
177.726	0.091	355452	keystroke_s	s	n/a
177.849	0.092	355698	keystroke_h	h	n/a
178.006	0.114	356012	keystroke_o	o	n/a
178.261	0.067	356522	keystroke_p	p	n/a
178.398	0.114	356796	keystroke_p	p	n/a
178.549	0.246	357098	keystroke_e	e	n/a
178.681	0.137	357362	keystroke_r	r	n/a
178.771	0.161	357542	keystroke_Key.space	Key.space	n/a
179.146	0.092	358292	keystroke_p	p	n/a
179.351	0.113	358702	keystroke_o	o	n/a
179.545	0.113	359090	keystroke_k	k	n/a
179.679	0.071	359358	keystroke_e	e	n/a
180.158	0.137	360316	keystroke_m	m	n/a
180.673	0.071	361346	keystroke_o	o	n/a
180.853	0.1125	361706	keystroke_n	n	n/a
180.9665	0.136	361933	keystroke_Key.space	Key.space	n/a
181.2755	0.091	362551	keystroke_c	c	n/a
181.4735	0.115	362947	keystroke_o	o	n/a
181.6405	0.2025	363281	keystroke_r	r	n/a
182.108	0.089	364216	keystroke_r	r	n/a
182.331	0.09	364662	keystroke_e	e	n/a
183.081	0.092	366162	keystroke_l	l	n/a
183.282	0.135	366564	keystroke_a	a	n/a
183.503	0.07	367006	keystroke_t	t	n/a
183.7605	0.067	367521	keystroke_i	i	n/a
183.9375	0.115	367875	keystroke_o	o	n/a
184.0535	0.135	368107	keystroke_n	n	n/a
184.1425	0.137	368285	keystroke_Key.space	Key.space	n/a
184.4715	0.093	368943	keystroke_c	c	n/a
184.6855	0.137	369371	keystroke_a	a	n/a
184.8235	0.066	369647	keystroke_r	r	n/a
185.0065	0.069	370013	keystroke_t	t	n/a
185.1455	0.069	370291	keystroke_o	o	n/a
185.2835	0.111	370567	keystroke_o	o	n/a
185.5735	0.115	371147	keystroke_n	n	n/a
185.7195	0.093	371439	keystroke_s	s	n/a
185.9635	0.113	371927	keystroke_Key.enter	Key.enter	n/a
186.082	6.1715	372164	prompt	n/a	dietary productions bizrate went\n
186.7125	0.092	373425	keystroke_d	d	n/a
186.8785	0.092	373757	keystroke_i	i	n/a
187.1195	0.069	374239	keystroke_e	e	n/a
187.3545	0.068	374709	keystroke_t	t	n/a
187.7005	0.137	375401	keystroke_a	a	n/a
187.8395	0.089	375679	keystroke_r	r	n/a
187.9885	0.136	375977	keystroke_y	y	n/a
188.1015	0.136	376203	keystroke_Key.space	Key.space	n/a
188.2785	0.092	376557	keystroke_p	p	n/a
188.4035	0.068	376807	keystroke_r	r	n/a
188.4925	0.115	376985	keystroke_o	o	n/a
188.5815	0.094	377163	keystroke_d	d	n/a
188.7495	0.115	377499	keystroke_u	u	n/a
188.8865	0.09	377773	keystroke_c	c	n/a
189.2155	0.093	378431	keystroke_t	t	n/a
189.3095	0.088	378619	keystroke_i	i	n/a
189.3985	0.135	378797	keystroke_o	o	n/a
189.4865	0.16	378973	keystroke_n	n	n/a
189.5785	0.115	379157	keystroke_s	s	n/a
189.6475	0.182	379295	keystroke_Key.space	Key.space	n/a
189.8925	0.09	379785	keystroke_b	b	n/a
190.1045	0.09	380209	keystroke_i	i	n/a
190.2535	0.092	380507	keystroke_z	z	n/a
190.58	0.0895	381160	keystroke_r	r	n/a
190.7695	0.116	381539	keystroke_a	a	n/a
191.1465	0.068	382293	keystroke_t	t	n/a
191.3605	0.1375	382721	keystroke_e	e	n/a
191.4495	0.1845	382899	keystroke_Key.space	Key.space	n/a
191.588	0.159	383176	keystroke_w	w	n/a
191.725	0.067	383450	keystroke_e	e	n/a
191.815	0.136	383630	keystroke_n	n	n/a
191.952	0.067	383904	keystroke_t	t	n/a
192.159	0.093	384318	keystroke_Key.enter	Key.enter	n/a
192.2565	7.7345	384513	prompt	n/a	possibility gloves physiology feature\n
192.9055	0.112	385811	keystroke_p	p	n/a
193.1165	0.1365	386233	keystroke_o	o	n/a
193.505	0.045	387010	keystroke_s	s	n/a
193.608	0.068	387216	keystroke_s	s	n/a
193.795	0.091	387590	keystroke_i	i	n/a
193.954	0.092	387908	keystroke_b	b	n/a
194.158	0.09	388316	keystroke_i	i	n/a
194.343	0.181	388686	keystroke_l	l	n/a
194.5	0.092	389000	keystroke_i	i	n/a
194.637	0.09	389274	keystroke_t	t	n/a
194.728	0.137	389456	keystroke_y	y	n/a
194.818	0.136	389636	keystroke_Key.space	Key.space	n/a
195.043	0.092	390086	keystroke_g	g	n/a
195.323	0.093	390646	keystroke_l	l	n/a
195.516	0.134	391032	keystroke_o	o	n/a
195.651	0.067	391302	keystroke_v	v	n/a
195.824	0.181	391648	keystroke_e	e	n/a
195.937	0.139	391874	keystroke_s	s	n/a
196.028	0.157	392056	keystroke_Key.space	Key.space	n/a
196.354	0.112	392708	keystroke_p	p	n/a
196.551	0.114	393102	keystroke_h	h	n/a
196.776	0.068	393552	keystroke_y	y	n/a
197.346	0.091	394692	keystroke_s	s	n/a
197.529	0.068	395058	keystroke_i	i	n/a
197.725	0.092	395450	keystroke_o	o	n/a
197.962	0.09	395924	keystroke_l	l	n/a
198.161	0.111	396322	keystroke_o	o	n/a
198.363	0.092	396726	keystroke_g	g	n/a
198.476	0.091	396952	keystroke_y	y	n/a
198.644	0.139	397288	keystroke_Key.space	Key.space	n/a
198.962	0.092	397924	keystroke_f	f	n/a
199.137	0.092	398274	keystroke_e	e	n/a
199.251	0.136	398502	keystroke_a	a	n/a
199.409	0.069	398818	keystroke_t	t	n/a
199.499	0.1145	398998	keystroke_u	u	n/a
199.5895	0.137	399179	keystroke_r	r	n/a
199.6805	0.092	399361	keystroke_e	e	n/a
199.9	0.089	399800	keystroke_Key.enter	Key.enter	n/a
200.0035	5.438	400007	prompt	n/a	taylor vector cuba forward\n
200.77	0.116	401540	keystroke_t	t	n/a
200.887	0.136	401774	keystroke_a	a	n/a
201.083	0.136	402166	keystroke_y	y	n/a
201.713	0.135	403426	keystroke_l	l	n/a
201.942	0.138	403884	keystroke_o	o	n/a
202.057	0.091	404114	keystroke_r	r	n/a
202.149	0.159	404298	keystroke_Key.space	Key.space	n/a
202.284	0.0915	404568	keystroke_v	v	n/a
202.4665	0.092	404933	keystroke_e	e	n/a
202.6455	0.071	405291	keystroke_c	c	n/a
203.012	0.089	406024	keystroke_t	t	n/a
203.161	0.114	406322	keystroke_o	o	n/a
203.229	0.116	406458	keystroke_r	r	n/a
203.322	0.18	406644	keystroke_Key.space	Key.space	n/a
203.503	0.089	407006	keystroke_c	c	n/a
203.623	0.091	407246	keystroke_u	u	n/a
203.84	0.112	407680	keystroke_b	b	n/a
204.002	0.158	408004	keystroke_a	a	n/a
204.136	0.158	408272	keystroke_Key.space	Key.space	n/a
204.324	0.091	408648	keystroke_f	f	n/a
204.473	0.159	408946	keystroke_o	o	n/a
204.562	0.093	409124	keystroke_r	r	n/a
204.73	0.092	409460	keystroke_w	w	n/a
204.823	0.158	409646	keystroke_a	a	n/a
204.934	0.115	409868	keystroke_r	r	n/a
205.05	0.132	410100	keystroke_d	d	n/a
205.35	0.09	410700	keystroke_Key.enter	Key.enter	n/a
205.4445	6.2165	410889	prompt	n/a	latvia enjoying payment upgrading\n
206.212	0.158	412424	keystroke_l	l	n/a
206.347	0.136	412694	keystroke_a	a	n/a
206.563	0.068	413126	keystroke_t	t	n/a
206.818	0.066	413636	keystroke_v	v	n/a
206.967	0.091	413934	keystroke_i	i	n/a
207.08	0.135	414160	keystroke_a	a	n/a
207.192	0.113	414384	keystroke_Key.space	Key.space	n/a
207.715	0.067	415430	keystroke_e	e	n/a
207.804	0.049	415608	keystroke_n	n	n/a
207.955	0.09	415910	keystroke_j	j	n/a
208.106	0.114	416212	keystroke_o	o	n/a
208.271	0.113	416542	keystroke_y	y	n/a
208.42	0.158	416840	keystroke_i	i	n/a
208.555	0.136	417110	keystroke_n	n	n/a
208.667	0.071	417334	keystroke_g	g	n/a
208.739	0.112	417478	keystroke_Key.space	Key.space	n/a
208.907	0.134	417814	keystroke_p	p	n/a
209.042	0.112	418084	keystroke_a	a	n/a
209.13	0.092	418260	keystroke_y	y	n/a
209.409	0.138	418818	keystroke_m	m	n/a
209.569	0.091	419138	keystroke_e	e	n/a
209.661	0.132	419322	keystroke_n	n	n/a
209.794	0.093	419588	keystroke_t	t	n/a
209.863	0.135	419726	keystroke_Key.space	Key.space	n/a
209.999	0.1135	419998	keystroke_u	u	n/a
210.1875	0.16	420375	keystroke_p	p	n/a
210.426	0.069	420852	keystroke_g	g	n/a
210.5975	0.1135	421195	keystroke_r	r	n/a
210.688	0.1355	421376	keystroke_a	a	n/a
210.8465	0.135	421693	keystroke_d	d	n/a
211.0825	0.112	422165	keystroke_i	i	n/a
211.2335	0.158	422467	keystroke_n	n	n/a
211.3435	0.07	422687	keystroke_g	g	n/a
211.5665	0.093	423133	keystroke_Key.enter	Key.enter	n/a
211.6665	6.707	423333	prompt	n/a	raise tournament presidential bend\n
212.256	0.1355	424512	keystroke_r	r	n/a
212.3445	0.115	424689	keystroke_a	a	n/a
212.4815	0.114	424963	keystroke_i	i	n/a
212.5495	0.159	425099	keystroke_s	s	n/a
212.6625	0.092	425325	keystroke_e	e	n/a
212.7315	0.179	425463	keystroke_Key.space	Key.space	n/a
212.8865	0.093	425773	keystroke_t	t	n/a
212.9795	0.204	425959	keystroke_o	o	n/a
213.0905	0.141	426181	keystroke_u	u	n/a
213.2325	0.091	426465	keystroke_r	r	n/a
213.3955	0.114	426791	keystroke_n	n	n/a
214.1145	0.115	428229	keystroke_a	a	n/a
214.3265	0.093	428653	keystroke_m	m	n/a
214.4415	0.069	428883	keystroke_e	e	n/a
214.5405	0.115	429081	keystroke_n	n	n/a
214.6315	0.118	429263	keystroke_t	t	n/a
214.7265	0.134	429453	keystroke_Key.space	Key.space	n/a
215.0775	0.18	430155	keystroke_p	p	n/a
215.1655	0.161	430331	keystroke_r	r	n/a
215.2585	0.09	430517	keystroke_e	e	n/a
215.3705	0.137	430741	keystroke_s	s	n/a
215.5405	0.112	431081	keystroke_i	i	n/a
215.6285	0.069	431257	keystroke_d	d	n/a
215.781	0.069	431562	keystroke_e	e	n/a
215.851	0.137	431702	keystroke_n	n	n/a
215.962	0.114	431924	keystroke_t	t	n/a
216.053	0.089	432106	keystroke_a	a	n/a
216.5295	0.11	433059	keystroke_Key.backspace	Key.backspace	n/a
216.8385	0.09	433677	keystroke_i	i	n/a
216.9505	0.114	433901	keystroke_a	a	n/a
217.0415	0.114	434083	keystroke_l	l	n/a
217.1095	0.136	434219	keystroke_Key.space	Key.space	n/a
217.3025	0.067	434605	keystroke_b	b	n/a
217.3715	0.089	434743	keystroke_e	e	n/a
217.837	0.091	435674	keystroke_n	n	n/a
217.97	0.09	435940	keystroke_d	d	n/a
218.258	0.114	436516	keystroke_Key.enter	Key.enter	n/a
218.3775	20.069	436755	prompt	n/a	inns kitty metropolitan tuition\n
231.7605	0.114	463521	keystroke_i	i	n/a
231.9745	0.065	463949	keystroke_n	n	n/a
232.0875	0.09	464175	keystroke_n	n	n/a
232.2945	0.135	464589	keystroke_s	s	n/a
232.4055	0.1595	464811	keystroke_Key.space	Key.space	n/a
232.735	0.137	465470	keystroke_k	k	n/a
233.006	0.114	466012	keystroke_i	i	n/a
233.185	0.068	466370	keystroke_t	t	n/a
233.301	0.111	466602	keystroke_t	t	n/a
233.434	0.137	466868	keystroke_y	y	n/a
233.592	0.114	467184	keystroke_Key.space	Key.space	n/a
234.1135	0.224	468227	keystroke_m	m	n/a
234.4575	0.09	468915	keystroke_e	e	n/a
234.6165	0.068	469233	keystroke_t	t	n/a
234.7655	0.092	469531	keystroke_r	r	n/a
234.8585	0.091	469717	keystroke_o	o	n/a
235.1495	0.136	470299	keystroke_p	p	n/a
235.3685	0.115	470737	keystroke_o	o	n/a
235.5765	0.09	471153	keystroke_l	l	n/a
235.7475	0.114	471495	keystroke_i	i	n/a
236.3385	0.156	472677	keystroke_t	t	n/a
236.8045	0.116	473609	keystroke_a	a	n/a
236.9215	0.135	473843	keystroke_n	n	n/a
237.0325	0.156	474065	keystroke_Key.space	Key.space	n/a
237.2285	0.111	474457	keystroke_t	t	n/a
237.3685	0.112	474737	keystroke_u	u	n/a
237.6085	0.091	475217	keystroke_i	i	n/a
237.7585	0.089	475517	keystroke_t	t	n/a
237.8695	0.113	475739	keystroke_o	o	n/a
238.0055	0.113	476011	keystroke_n	n	n/a
238.3325	0.112	476665	keystroke_Key.enter	Key.enter	n/a
238.45	6.3795	476900	prompt	n/a	define interests farming common\n
239.533	0.09	479066	keystroke_d	d	n/a
239.734	0.144	479468	keystroke_e	e	n/a
239.88	0.09	479760	keystroke_f	f	n/a
240.016	0.113	480032	keystroke_i	i	n/a
240.151	0.206	480302	keystroke_n	n	n/a
240.31	0.1135	480620	keystroke_e	e	n/a
240.378	0.158	480756	keystroke_Key.space	Key.space	n/a
240.645	0.092	481290	keystroke_i	i	n/a
240.777	0.159	481554	keystroke_n	n	n/a
240.9135	0.0455	481827	keystroke_t	t	n/a
241.001	0.1135	482002	keystroke_e	e	n/a
241.0905	0.2035	482181	keystroke_r	r	n/a
241.1805	0.16	482361	keystroke_e	e	n/a
241.2955	0.113	482591	keystroke_s	s	n/a
241.4095	0.134	482819	keystroke_t	t	n/a
241.5205	0.1115	483041	keystroke_s	s	n/a
241.691	0.155	483382	keystroke_Key.space	Key.space	n/a
242.176	0.1355	484352	keystroke_f	f	n/a
242.4745	0.136	484949	keystroke_a	a	n/a
242.6325	0.139	485265	keystroke_r	r	n/a
242.7455	0.136	485491	keystroke_m	m	n/a
243.0095	0.09	486019	keystroke_i	i	n/a
243.1615	0.16	486323	keystroke_n	n	n/a
243.2745	0.091	486549	keystroke_g	g	n/a
243.3665	0.156	486733	keystroke_Key.space	Key.space	n/a
243.5445	0.113	487089	keystroke_c	c	n/a
243.633	0.0915	487266	keystroke_o	o	n/a
243.8375	0.092	487675	keystroke_m	m	n/a
243.9885	0.09	487977	keystroke_m	m	n/a
244.1985	0.134	488397	keystroke_o	o	n/a
244.3725	0.113	488745	keystroke_n	n	n/a
244.6925	0.136	489385	keystroke_Key.enter	Key.enter	n/a
244.833	5.313	489666	prompt	n/a	cats bell valley impressed\n
245.9175	0.137	491835	keystroke_c	c	n/a
246.1315	0.161	492263	keystroke_a	a	n/a
246.2935	0.1115	492587	keystroke_t	t	n/a
246.498	0.07	492996	keystroke_s	s	n/a
246.591	0.163	493182	keystroke_Key.space	Key.space	n/a
246.755	0.1115	493510	keystroke_b	b	n/a
246.8435	0.069	493687	keystroke_e	e	n/a
247.0685	0.091	494137	keystroke_l	l	n/a
247.225	0.116	494450	keystroke_l	l	n/a
247.317	0.16	494634	keystroke_Key.space	Key.space	n/a
247.501	0.046	495002	keystroke_v	v	n/a
247.581	0.136	495162	keystroke_a	a	n/a
247.755	0.047	495510	keystroke_l	l	n/a
247.876	0.134	495752	keystroke_l	l	n/a
248.032	0.091	496064	keystroke_e	e	n/a
248.145	0.135	496290	keystroke_y	y	n/a
248.256	0.137	496512	keystroke_Key.space	Key.space	n/a
248.425	0.112	496850	keystroke_i	i	n/a
248.582	0.181	497164	keystroke_m	m	n/a
248.844	0.162	497688	keystroke_p	p	n/a
248.982	0.184	497964	keystroke_r	r	n/a
249.051	0.092	498102	keystroke_e	e	n/a
249.364	0.115	498728	keystroke_s	s	n/a
249.532	0.112	499064	keystroke_s	s	n/a
249.715	0.067	499430	keystroke_e	e	n/a
249.865	0.091	499730	keystroke_d	d	n/a
250.009	0.136	500018	keystroke_Key.enter	Key.enter	n/a
250.1495	6.0095	500299	prompt	n/a	lamb sticky isbn florence\n
250.761	0.16	501522	keystroke_l	l	n/a
250.874	0.137	501748	keystroke_a	a	n/a
250.987	0.135	501974	keystroke_m	m	n/a
251.292	0.136	502584	keystroke_b	b	n/a
251.459	0.181	502918	keystroke_Key.space	Key.space	n/a
251.662	0.047	503324	keystroke_s	s	n/a
251.808	0.112	503616	keystroke_t	t	n/a
251.921	0.134	503842	keystroke_i	i	n/a
252.076	0.113	504152	keystroke_c	c	n/a
252.212	0.09	504424	keystroke_k	k	n/a
252.552	0.115	505104	keystroke_y	y	n/a
253.2505	0.158	506501	keystroke_Key.space	Key.space	n/a
253.4705	0.138	506941	keystroke_i	i	n/a
253.6475	0.092	507295	keystroke_s	s	n/a
253.9135	0.138	507827	keystroke_b	b	n/a
254.2525	0.156	508505	keystroke_n	n	n/a
254.4515	0.1585	508903	keystroke_Key.space	Key.space	n/a
254.792	0.136	509584	keystroke_f	f	n/a
254.959	0.115	509918	keystroke_l	l	n/a
255.186	0.183	510372	keystroke_o	o	n/a
255.322	0.158	510644	keystroke_r	r	n/a
255.481	0.068	510962	keystroke_e	e	n/a
255.571	0.134	511142	keystroke_n	n	n/a
255.727	0.089	511454	keystroke_c	c	n/a
255.9035	0.0905	511807	keystroke_e	e	n/a
256.044	0.113	512088	keystroke_Key.enter	Key.enter	n/a
256.1655	9.6805	512331	prompt	n/a	effectively dozens charging males\n
256.8915	0.137	513783	keystroke_e	e	n/a
257.0835	0.09	514167	keystroke_f	f	n/a
257.2475	0.114	514495	keystroke_f	f	n/a
257.4415	0.138	514883	keystroke_e	e	n/a
257.7025	0.114	515405	keystroke_c	c	n/a
257.9515	0.137	515903	keystroke_t	t	n/a
258.2375	0.116	516475	keystroke_i	i	n/a
258.3295	0.093	516659	keystroke_v	v	n/a
258.5045	0.095	517009	keystroke_e	e	n/a
258.6215	0.069	517243	keystroke_l	l	n/a
258.8125	0.137	517625	keystroke_y	y	n/a
258.9255	0.18	517851	keystroke_Key.space	Key.space	n/a
259.1485	0.136	518297	keystroke_d	d	n/a
259.3625	0.136	518725	keystroke_o	o	n/a
259.5385	0.093	519077	keystroke_s	s	n/a
259.7185	0.091	519437	keystroke_e	e	n/a
259.8105	0.157	519621	keystroke_n	n	n/a
259.9425	0.0935	519885	keystroke_s	s	n/a
260.037	0.133	520074	keystroke_Key.space	Key.space	n/a
260.376	0.137	520752	keystroke_c	c	n/a
260.514	0.158	521028	keystroke_h	h	n/a
260.6475	0.1375	521295	keystroke_a	a	n/a
260.76	0.1175	521520	keystroke_r	r	n/a
261.153	0.068	522306	keystroke_Key.backspace	Key.backspace	n/a
261.294	0.0685	522588	keystroke_Key.backspace	Key.backspace	n/a
261.4355	0.068	522871	keystroke_Key.backspace	Key.backspace	n/a
261.5895	0.0675	523179	keystroke_Key.backspace	Key.backspace	n/a
261.722	0.07	523444	keystroke_Key.backspace	Key.backspace	n/a
261.866	0.067	523732	keystroke_Key.backspace	Key.backspace	n/a
262.013	0.07	524026	keystroke_Key.backspace	Key.backspace	n/a
262.159	0.069	524318	keystroke_Key.backspace	Key.backspace	n/a
262.305	0.068	524610	keystroke_Key.backspace	Key.backspace	n/a
262.522	0.112	525044	keystroke_z	z	n/a
262.7945	0.09	525589	keystroke_e	e	n/a
262.9645	0.16	525929	keystroke_n	n	n/a
263.101	0.1125	526202	keystroke_s	s	n/a
263.2345	0.114	526469	keystroke_Key.space	Key.space	n/a
263.6365	0.159	527273	keystroke_c	c	n/a
263.9975	0.138	527995	keystroke_h	h	n/a
264.1365	0.158	528273	keystroke_a	a	n/a
264.2245	0.092	528449	keystroke_r	r	n/a
264.4095	0.09	528819	keystroke_g	g	n/a
264.5245	0.112	529049	keystroke_i	i	n/a
264.7155	0.202	529431	keystroke_n	n	n/a
264.8925	0.115	529785	keystroke_g	g	n/a
264.9625	0.162	529925	keystroke_Key.space	Key.space	n/a
265.1015	0.156	530203	keystroke_m	m	n/a
265.2585	0.112	530517	keystroke_a	a	n/a
265.3475	0.134	530695	keystroke_l	l	n/a
265.4365	0.113	530873	keystroke_e	e	n/a
265.5265	0.111	531053	keystroke_s	s	n/a
265.7295	0.115	531459	keystroke_Key.enter	Key.enter	n/a
265.8495	8.2905	531699	prompt	n/a	detective toshiba exposure oman\n
266.5365	0.07	533073	keystroke_d	d	n/a
266.7195	0.111	533439	keystroke_e	e	n/a
266.8675	0.184	533735	keystroke_t	t	n/a
267.0065	0.1585	534013	keystroke_e	e	n/a
267.424	0.089	534848	keystroke_c	c	n/a
267.689	0.091	535378	keystroke_t	t	n/a
267.812	0.134	535624	keystroke_i	i	n/a
267.923	0.091	535846	keystroke_v	v	n/a
268.103	0.114	536206	keystroke_e	e	n/a
268.172	0.156	536344	keystroke_Key.space	Key.space	n/a
268.305	0.091	536610	keystroke_t	t	n/a
268.398	0.089	536796	keystroke_o	o	n/a
269.238	0.112	538476	keystroke_s	s	n/a
269.428	0.116	538856	keystroke_h	h	n/a
269.626	0.089	539252	keystroke_i	i	n/a
269.803	0.111	539606	keystroke_b	b	n/a
269.972	0.204	539944	keystroke_a	a	n/a
270.129	0.159	540258	keystroke_Key.space	Key.space	n/a
270.31	0.071	540620	keystroke_e	e	n/a
270.461	0.16	540922	keystroke_x	x	n/a
270.596	0.115	541192	keystroke_p	p	n/a
270.793	0.16	541586	keystroke_o	o	n/a
271.68	0.113	543360	keystroke_s	s	n/a
271.872	0.161	543744	keystroke_u	u	n/a
271.963	0.16	543926	keystroke_r	r	n/a
272.056	0.114	544112	keystroke_e	e	n/a
272.145	0.137	544290	keystroke_Key.space	Key.space	n/a
272.303	0.094	544606	keystroke_o	o	n/a
272.486	0.134	544972	keystroke_m	m	n/a
272.622	0.135	545244	keystroke_a	a	n/a
272.733	0.114	545466	keystroke_n	n	n/a
273.9625	0.176	547925	keystroke_Key.enter	Key.enter	n/a
274.143	9.231	548286	prompt	n/a	jeremy blackberry creativity strengthen\n
274.8755	0.1835	549751	keystroke_j	j	n/a
275.035	0.115	550070	keystroke_e	e	n/a
275.126	0.203	550252	keystroke_r	r	n/a
275.216	0.158	550432	keystroke_e	e	n/a
275.35	0.135	550700	keystroke_m	m	n/a
275.64	0.182	551280	keystroke_y	y	n/a
275.798	0.136	551596	keystroke_Key.space	Key.space	n/a
275.935	0.134	551870	keystroke_b	b	n/a
276.168	0.1605	552336	keystroke_l	l	n/a
276.2595	0.1825	552519	keystroke_a	a	n/a
276.373	0.137	552746	keystroke_c	c	n/a
276.486	0.114	552972	keystroke_k	k	n/a
276.92	0.133	553840	keystroke_b	b	n/a
277.075	0.114	554150	keystroke_e	e	n/a
277.258	0.159	554516	keystroke_r	r	n/a
277.505	0.091	555010	keystroke_r	r	n/a
277.684	0.135	555368	keystroke_y	y	n/a
277.894	0.16	555788	keystroke_Key.space	Key.space	n/a
278.699	0.1145	557398	keystroke_c	c	n/a
279.0325	0.137	558065	keystroke_r	r	n/a
279.1225	0.093	558245	keystroke_e	e	n/a
279.2165	0.182	558433	keystroke_a	a	n/a
279.3055	0.095	558611	keystroke_t	t	n/a
279.443	0.1585	558886	keystroke_i	i	n/a
279.5325	0.137	559065	keystroke_v	v	n/a
280.4695	0.114	560939	keystroke_i	i	n/a
280.5835	0.091	561167	keystroke_t	t	n/a
280.6755	0.135	561351	keystroke_y	y	n/a
280.7865	0.157	561573	keystroke_Key.space	Key.space	n/a
281.1005	0.069	562201	keystroke_s	s	n/a
281.2525	0.068	562505	keystroke_t	t	n/a
281.4225	0.159	562845	keystroke_r	r	n/a
281.4895	0.136	562979	keystroke_e	e	n/a
281.6265	0.135	563253	keystroke_n	n	n/a
282.184	0.0905	564368	keystroke_g	g	n/a
282.4265	0.09	564853	keystroke_t	t	n/a
282.5175	0.089	565035	keystroke_h	h	n/a
282.6285	0.069	565257	keystroke_e	e	n/a
282.7275	0.091	565455	keystroke_n	n	n/a
283.257	0.115	566514	keystroke_Key.enter	Key.enter	n/a
283.378	6.887	566756	prompt	n/a	barbie korea recipients cotton\n
284.215	0.156	568430	keystroke_b	b	n/a
284.393	0.2025	568786	keystroke_a	a	n/a
284.5265	0.092	569053	keystroke_r	r	n/a
284.7035	0.137	569407	keystroke_b	b	n/a
285.0105	0.135	570021	keystroke_i	i	n/a
285.1475	0.112	570295	keystroke_e	e	n/a
285.2345	0.179	570469	keystroke_Key.space	Key.space	n/a
285.3905	0.114	570781	keystroke_k	k	n/a
285.6995	0.18	571399	keystroke_o	o	n/a
285.8565	0.179	571713	keystroke_r	r	n/a
285.9465	0.135	571893	keystroke_e	e	n/a
286.0815	0.135	572163	keystroke_a	a	n/a
286.2385	0.1345	572477	keystroke_Key.space	Key.space	n/a
286.721	0.18	573442	keystroke_r	r	n/a
286.855	0.115	573710	keystroke_e	e	n/a
287.109	0.113	574218	keystroke_c	c	n/a
287.373	0.113	574746	keystroke_i	i	n/a
287.751	0.159	575502	keystroke_p	p	n/a
288.149	0.112	576298	keystroke_i	i	n/a
288.281	0.092	576562	keystroke_e	e	n/a
288.349	0.139	576698	keystroke_n	n	n/a
288.51	0.115	577020	keystroke_t	t	n/a
288.646	0.09	577292	keystroke_s	s	n/a
288.712	0.158	577424	keystroke_Key.space	Key.space	n/a
289.055	0.092	578110	keystroke_c	c	n/a
289.207	0.111	578414	keystroke_o	o	n/a
289.465	0.071	578930	keystroke_t	t	n/a
289.583	0.117	579166	keystroke_t	t	n/a
289.721	0.116	579442	keystroke_o	o	n/a
289.86	0.137	579720	keystroke_n	n	n/a
290.195	0.068	580390	keystroke_Key.enter	Key.enter	n/a
290.2695	6.616	580539	prompt	n/a	discharge holocaust cases swedish\n
290.834	0.159	581668	keystroke_d	d	n/a
291.037	0.135	582074	keystroke_i	i	n/a
291.148	0.092	582296	keystroke_s	s	n/a
291.625	0.114	583250	keystroke_c	c	n/a
291.827	0.18	583654	keystroke_h	h	n/a
292.037	0.136	584074	keystroke_a	a	n/a
292.34	0.091	584680	keystroke_r	r	n/a
292.587	0.094	585174	keystroke_g	g	n/a
292.767	0.115	585534	keystroke_e	e	n/a
292.836	0.135	585672	keystroke_Key.space	Key.space	n/a
292.948	0.158	585896	keystroke_h	h	n/a
293.128	0.116	586256	keystroke_o	o	n/a
293.3385	0.046	586677	keystroke_l	l	n/a
293.4895	0.111	586979	keystroke_o	o	n/a
293.7915	0.134	587583	keystroke_c	c	n/a
293.9015	0.158	587803	keystroke_a	a	n/a
293.9935	0.156	587987	keystroke_u	u	n/a
294.1255	0.137	588251	keystroke_s	s	n/a
294.2835	0.113	588567	keystroke_t	t	n/a
294.3735	0.16	588747	keystroke_Key.space	Key.space	n/a
294.7565	0.136	589513	keystroke_c	c	n/a
294.9225	0.229	589845	keystroke_a	a	n/a
295.0795	0.096	590159	keystroke_s	s	n/a
295.1525	0.137	590305	keystroke_e	e	n/a
295.2645	0.134	590529	keystroke_s	s	n/a
295.3995	0.135	590799	keystroke_Key.space	Key.space	n/a
295.5355	0.067	591071	keystroke_s	s	n/a
295.7425	0.136	591485	keystroke_w	w	n/a
295.9145	0.069	591829	keystroke_e	e	n/a
296.0925	0.09	592185	keystroke_d	d	n/a
296.2575	0.089	592515	keystroke_i	i	n/a
296.3685	0.069	592737	keystroke_s	s	n/a
296.4585	0.114	592917	keystroke_h	h	n/a
296.7715	0.113	593543	keystroke_Key.enter	Key.enter	n/a
296.8885	6.573	593777	prompt	n/a	cheap religion scenario logical\n
297.6265	0.069	595253	keystroke_c	c	n/a
297.7185	0.139	595437	keystroke_h	h	n/a
297.8325	0.117	595665	keystroke_e	e	n/a
297.9265	0.182	595853	keystroke_a	a	n/a
298.0845	0.1815	596169	keystroke_p	p	n/a
298.425	0.161	596850	keystroke_Key.space	Key.space	n/a
298.93	0.181	597860	keystroke_r	r	n/a
299.021	0.137	598042	keystroke_e	e	n/a
299.112	0.091	598224	keystroke_l	l	n/a
299.267	0.088	598534	keystroke_i	i	n/a
299.395	0.09	598790	keystroke_g	g	n/a
299.462	0.092	598924	keystroke_i	i	n/a
299.585	0.136	599170	keystroke_o	o	n/a
299.697	0.162	599394	keystroke_n	n	n/a
299.833	0.138	599666	keystroke_Key.space	Key.space	n/a
300.129	0.091	600258	keystroke_s	s	n/a
300.352	0.092	600704	keystroke_c	c	n/a
300.519	0.111	601038	keystroke_e	e	n/a
300.607	0.159	601214	keystroke_n	n	n/a
301.146	0.156	602292	keystroke_a	a	n/a
301.323	0.113	602646	keystroke_r	r	n/a
301.528	0.113	603056	keystroke_i	i	n/a
301.861	0.136	603722	keystroke_o	o	n/a
302.12	0.158	604240	keystroke_Key.space	Key.space	n/a
302.333	0.066	604666	keystroke_l	l	n/a
302.512	0.134	605024	keystroke_o	o	n/a
302.647	0.09	605294	keystroke_g	g	n/a
302.738	0.135	605476	keystroke_i	i	n/a
302.874	0.112	605748	keystroke_c	c	n/a
302.987	0.135	605974	keystroke_a	a	n/a
303.076	0.091	606152	keystroke_l	l	n/a
303.344	0.115	606688	keystroke_Key.enter	Key.enter	n/a
303.4645	6.28	606929	prompt	n/a	although accepts icon republican\n
304.0745	0.225	608149	keystroke_a	a	n/a
304.6865	0.157	609373	keystroke_l	l	n/a
304.8655	0.138	609731	keystroke_t	t	n/a
304.9575	0.093	609915	keystroke_h	h	n/a
305.0515	0.223	610103	keystroke_o	o	n/a
305.1605	0.138	610321	keystroke_u	u	n/a
305.2755	0.068	610551	keystroke_g	g	n/a
305.3735	0.136	610747	keystroke_h	h	n/a
305.5105	0.133	611021	keystroke_Key.space	Key.space	n/a
305.7895	0.09	611579	keystroke_a	a	n/a
306.0075	0.094	612015	keystroke_c	c	n/a
306.1755	0.138	612351	keystroke_c	c	n/a
306.3355	0.1355	612671	keystroke_e	e	n/a
306.472	0.136	612944	keystroke_p	p	n/a
306.582	0.114	613164	keystroke_t	t	n/a
306.718	0.137	613436	keystroke_s	s	n/a
306.787	0.137	613574	keystroke_Key.space	Key.space	n/a
306.9	0.114	613800	keystroke_i	i	n/a
307.068	0.115	614136	keystroke_c	c	n/a
307.184	0.112	614368	keystroke_o	o	n/a
307.317	0.16	614634	keystroke_n	n	n/a
307.478	0.155	614956	keystroke_Key.space	Key.space	n/a
307.634	0.2005	615268	keystroke_r	r	n/a
307.7425	0.115	615485	keystroke_e	e	n/a
307.8585	0.156	615717	keystroke_p	p	n/a
308.0425	0.157	616085	keystroke_u	u	n/a
308.3325	0.135	616665	keystroke_b	b	n/a
308.6555	0.069	617311	keystroke_l	l	n/a
308.7555	0.045	617511	keystroke_i	i	n/a
309.1055	0.158	618211	keystroke_c	c	n/a
309.2165	0.137	618433	keystroke_a	a	n/a
309.3305	0.09	618661	keystroke_n	n	n/a
309.6295	0.114	619259	keystroke_Key.enter	Key.enter	n/a
309.748	7.825	619496	prompt	n/a	proudly sandy typing known\n
310.3825	0.137	620765	keystroke_p	p	n/a
310.5205	0.113	621041	keystroke_r	r	n/a
310.5865	0.182	621173	keystroke_o	o	n/a
310.7215	0.137	621443	keystroke_d	d	n/a
310.7685	0.156	621537	keystroke_u	u	n/a
311.2505	0.046	622501	keystroke_Key.backspace	Key.backspace	n/a
311.3905	0.07	622781	keystroke_Key.backspace	Key.backspace	n/a
312.0705	0.09	624141	keystroke_u	u	n/a
312.2325	0.091	624465	keystroke_d	d	n/a
312.3795	0.093	624759	keystroke_l	l	n/a
312.5985	0.185	625197	keystroke_y	y	n/a
312.7845	0.157	625569	keystroke_Key.space	Key.space	n/a
312.9425	0.201	625885	keystroke_s	s	n/a
313.2495	0.112	626499	keystroke_a	a	n/a
313.3625	0.135	626725	keystroke_n	n	n/a
313.4985	0.088	626997	keystroke_d	d	n/a
313.6775	0.068	627355	keystroke_l	l	n/a
314.233	0.114	628466	keystroke_Key.backspace	Key.backspace	n/a
314.545	0.157	629090	keystroke_y	y	n/a
314.785	0.1595	629570	keystroke_Key.space	Key.space	n/a
314.9455	0.134	629891	keystroke_t	t	n/a
315.1085	0.202	630217	keystroke_y	y	n/a
315.3115	0.134	630623	keystroke_p	p	n/a
315.5835	0.091	631167	keystroke_i	i	n/a
315.7475	0.181	631495	keystroke_n	n	n/a
315.9295	0.155	631859	keystroke_g	g	n/a
316.0385	0.159	632077	keystroke_Key.space	Key.space	n/a
316.2185	0.138	632437	keystroke_k	k	n/a
316.4195	0.113	632839	keystroke_n	n	n/a
316.5905	0.136	633181	keystroke_o	o	n/a
316.7275	0.09	633455	keystroke_w	w	n/a
317.1275	0.136	634255	keystroke_n	n	n/a
317.4565	0.115	634913	keystroke_Key.enter	Key.enter	n/a
317.583	6.541	635166	prompt	n/a	scottish homepage surprised harris\n
318.3125	0.1365	636625	keystroke_s	s	n/a
318.843	0.0915	637686	keystroke_c	c	n/a
319.0255	0.156	638051	keystroke_o	o	n/a
319.3255	0.072	638651	keystroke_t	t	n/a
319.4295	0.113	638859	keystroke_t	t	n/a
319.5935	0.091	639187	keystroke_i	i	n/a
319.7455	0.09	639491	keystroke_s	s	n/a
319.873	0.1135	639746	keystroke_h	h	n/a
319.964	0.1815	639928	keystroke_Key.space	Key.space	n/a
320.0985	0.138	640197	keystroke_h	h	n/a
320.2665	0.136	640533	keystroke_o	o	n/a
320.4805	0.179	640961	keystroke_m	m	n/a
320.6975	0.112	641395	keystroke_e	e	n/a
320.9235	0.202	641847	keystroke_p	p	n/a
321.0335	0.136	642067	keystroke_a	a	n/a
321.1265	0.111	642253	keystroke_g	g	n/a
321.3155	0.114	642631	keystroke_e	e	n/a
321.4045	0.157	642809	keystroke_Key.space	Key.space	n/a
321.6065	0.092	643213	keystroke_s	s	n/a
321.7315	0.157	643463	keystroke_u	u	n/a
322.0765	0.114	644153	keystroke_r	r	n/a
322.2735	0.16	644547	keystroke_p	p	n/a
322.3865	0.135	644773	keystroke_r	r	n/a
322.5225	0.134	645045	keystroke_i	i	n/a
322.6105	0.16	645221	keystroke_s	s	n/a
322.7245	0.069	645449	keystroke_e	e	n/a
322.8625	0.159	645725	keystroke_d	d	n/a
322.9535	0.159	645907	keystroke_Key.space	Key.space	n/a
323.0665	0.114	646133	keystroke_h	h	n/a
323.2405	0.158	646481	keystroke_a	a	n/a
323.3995	0.047	646799	keystroke_r	r	n/a
323.5065	0.115	647013	keystroke_r	r	n/a
323.6835	0.115	647367	keystroke_i	i	n/a
323.7745	0.07	647549	keystroke_s	s	n/a
324.0085	0.114	648017	keystroke_Key.enter	Key.enter	n/a
324.135	6.1525	648270	prompt	n/a	friday belize andrews grateful\n
324.66	0.116	649320	keystroke_f	f	n/a
324.866	0.113	649732	keystroke_r	r	n/a
324.98	0.133	649960	keystroke_i	i	n/a
325.114	0.157	650228	keystroke_d	d	n/a
325.445	0.138	650890	keystroke_a	a	n/a
325.584	0.133	651168	keystroke_y	y	n/a
325.669	0.16	651338	keystroke_Key.space	Key.space	n/a
325.991	0.137	651982	keystroke_b	b	n/a
326.129	0.086	652258	keystroke_e	e	n/a
326.285	0.115	652570	keystroke_l	l	n/a
326.516	0.093	653032	keystroke_i	i	n/a
326.865	0.114	653730	keystroke_z	z	n/a
327.114	0.136	654228	keystroke_e	e	n/a
327.203	0.181	654406	keystroke_Key.space	Key.space	n/a
327.316	0.137	654632	keystroke_a	a	n/a
327.454	0.134	654908	keystroke_n	n	n/a
327.564	0.114	655128	keystroke_d	d	n/a
327.811	0.185	655622	keystroke_r	r	n/a
327.95	0.091	655900	keystroke_e	e	n/a
328.102	0.093	656204	keystroke_w	w	n/a
328.495	0.068	656990	keystroke_s	s	n/a
328.608	0.18	657216	keystroke_Key.space	Key.space	n/a
328.85	0.0915	657700	keystroke_g	g	n/a
329.0355	0.115	658071	keystroke_r	r	n/a
329.1515	0.223	658303	keystroke_a	a	n/a
329.2835	0.113	658567	keystroke_t	t	n/a
329.4185	0.115	658837	keystroke_e	e	n/a
329.5895	0.089	659179	keystroke_f	f	n/a
329.7005	0.111	659401	keystroke_u	u	n/a
329.8765	0.112	659753	keystroke_l	l	n/a
330.1735	0.112	660347	keystroke_Key.enter	Key.enter	n/a
330.292	5.4175	660584	prompt	n/a	crafts liberty lived causing\n
331.2075	0.135	662415	keystroke_c	c	n/a
331.4505	0.112	662901	keystroke_r	r	n/a
331.5635	0.179	663127	keystroke_a	a	n/a
331.7185	0.114	663437	keystroke_f	f	n/a
332.0185	0.091	664037	keystroke_t	t	n/a
332.1935	0.135	664387	keystroke_s	s	n/a
332.2825	0.158	664565	keystroke_Key.space	Key.space	n/a
332.4835	0.091	664967	keystroke_l	l	n/a
332.6525	0.067	665305	keystroke_i	i	n/a
332.8385	0.112	665677	keystroke_b	b	n/a
332.9725	0.182	665945	keystroke_e	e	n/a
333.0615	0.095	666123	keystroke_r	r	n/a
333.2355	0.119	666471	keystroke_t	t	n/a
333.3555	0.181	666711	keystroke_y	y	n/a
333.5375	0.134	667075	keystroke_Key.space	Key.space	n/a
333.7125	0.111	667425	keystroke_l	l	n/a
333.8455	0.136	667691	keystroke_i	i	n/a
333.9585	0.069	667917	keystroke_v	v	n/a
334.1195	0.089	668239	keystroke_e	e	n/a
334.2885	0.157	668577	keystroke_d	d	n/a
334.4015	0.155	668803	keystroke_Key.space	Key.space	n/a
334.7005	0.135	669401	keystroke_c	c	n/a
334.8115	0.16	669623	keystroke_a	a	n/a
334.9245	0.115	669849	keystroke_u	u	n/a
335.0405	0.066	670081	keystroke_s	s	n/a
335.1465	0.068	670293	keystroke_i	i	n/a
335.2665	0.139	670533	keystroke_n	n	n/a
335.3795	0.092	670759	keystroke_g	g	n/a
335.5955	0.113	671191	keystroke_Key.enter	Key.enter	n/a
335.7155	5.9735	671431	prompt	n/a	accept filing google become\n
336.2475	0.135	672495	keystroke_a	a	n/a
336.5055	0.068	673011	keystroke_c	c	n/a
336.6405	0.091	673281	keystroke_c	c	n/a
336.7785	0.136	673557	keystroke_e	e	n/a
336.9365	0.16	673873	keystroke_p	p	n/a
337.0505	0.115	674101	keystroke_t	t	n/a
337.1665	0.157	674333	keystroke_Key.space	Key.space	n/a
337.2995	0.092	674599	keystroke_f	f	n/a
337.3925	0.068	674785	keystroke_i	i	n/a
337.5295	0.113	675059	keystroke_l	l	n/a
337.7285	0.093	675457	keystroke_i	i	n/a
337.8775	0.182	675755	keystroke_n	n	n/a
338.0355	0.113	676071	keystroke_g	g	n/a
338.1025	0.157	676205	keystroke_Key.space	Key.space	n/a
338.2815	0.113	676563	keystroke_g	g	n/a
338.4255	0.046	676851	keystroke_o	o	n/a
338.5555	0.114	677111	keystroke_o	o	n/a
339.0135	0.114	678027	keystroke_g	g	n/a
339.1565	0.139	678313	keystroke_l	l	n/a
339.2715	0.113	678543	keystroke_e	e	n/a
339.3605	0.114	678721	keystroke_Key.space	Key.space	n/a
339.4755	0.136	678951	keystroke_b	b	n/a
339.5875	0.069	679175	keystroke_e	e	n/a
339.7595	0.115	679519	keystroke_c	c	n/a
339.8275	0.206	679655	keystroke_a	a	n/a
339.9415	0.182	679883	keystroke_m	m	n/a
340.4925	0.071	680985	keystroke_Key.backspace	Key.backspace	n/a
340.6215	0.092	681243	keystroke_Key.backspace	Key.backspace	n/a
340.895	0.113	681790	keystroke_o	o	n/a
341.236	0.114	682472	keystroke_m	m	n/a
341.441	0.092	682882	keystroke_e	e	n/a
341.596	0.091	683192	keystroke_Key.enter	Key.enter	n/a
341.6925	5.555	683385	prompt	n/a	appear none governments treating\n
342.364	0.227	684728	keystroke_a	a	n/a
342.52	0.025	685040	keystroke_p	p	n/a
342.646	0.068	685292	keystroke_p	p	n/a
342.973	0.137	685946	keystroke_e	e	n/a
343.086	0.205	686172	keystroke_a	a	n/a
343.222	0.116	686444	keystroke_r	r	n/a
343.292	0.138	686584	keystroke_Key.space	Key.space	n/a
343.486	0.138	686972	keystroke_n	n	n/a
343.728	0.138	687456	keystroke_o	o	n/a
343.867	0.157	687734	keystroke_n	n	n/a
344	0.094	688000	keystroke_e	e	n/a
344.069	0.138	688138	keystroke_Key.space	Key.space	n/a
344.183	0.113	688366	keystroke_g	g	n/a
344.319	0.179	688638	keystroke_o	o	n/a
344.407	0.1375	688814	keystroke_v	v	n/a
344.6225	0.182	689245	keystroke_e	e	n/a
344.7335	0.093	689467	keystroke_r	r	n/a
344.9115	0.135	689823	keystroke_n	n	n/a
345.1485	0.112	690297	keystroke_m	m	n/a
345.2825	0.093	690565	keystroke_e	e	n/a
345.4045	0.112	690809	keystroke_n	n	n/a
345.5175	0.09	691035	keystroke_t	t	n/a
345.6285	0.137	691257	keystroke_s	s	n/a
345.7185	0.1595	691437	keystroke_Key.space	Key.space	n/a
346.0065	0.09	692013	keystroke_t	t	n/a
346.1935	0.157	692387	keystroke_r	r	n/a
346.3035	0.182	692607	keystroke_e	e	n/a
346.4625	0.158	692925	keystroke_a	a	n/a
346.5755	0.114	693151	keystroke_t	t	n/a
346.7115	0.09	693423	keystroke_i	i	n/a
346.8235	0.138	693647	keystroke_n	n	n/a
346.9145	0.0915	693829	keystroke_g	g	n/a
347.1315	0.114	694263	keystroke_Key.enter	Key.enter	n/a
347.2515	9.233	694503	prompt	n/a	convertible illustration lunch difficulty\n
348.3445	0.113	696689	keystroke_c	c	n/a
348.4595	0.088	696919	keystroke_o	o	n/a
348.5775	0.1365	697155	keystroke_n	n	n/a
348.9425	0.1355	697885	keystroke_v	v	n/a
349.178	0.209	698356	keystroke_e	e	n/a
349.316	0.073	698632	keystroke_r	r	n/a
349.497	0.114	698994	keystroke_t	t	n/a
349.632	0.092	699264	keystroke_i	i	n/a
349.799	0.115	699598	keystroke_b	b	n/a
350.014	0.156	700028	keystroke_l	l	n/a
350.103	0.179	700206	keystroke_e	e	n/a
350.192	0.159	700384	keystroke_Key.space	Key.space	n/a
350.542	0.09	701084	keystroke_i	i	n/a
350.729	0.048	701458	keystroke_l	l	n/a
350.849	0.09	701698	keystroke_l	l	n/a
351.04	0.136	702080	keystroke_u	u	n/a
351.197	0.111	702394	keystroke_s	s	n/a
351.433	0.09	702866	keystroke_t	t	n/a
351.607	0.114	703214	keystroke_r	r	n/a
351.698	0.134	703396	keystroke_a	a	n/a
351.854	0.111	703708	keystroke_t	t	n/a
351.92	0.114	703840	keystroke_i	i	n/a
352.035	0.132	704070	keystroke_o	o	n/a
352.168	0.177	704336	keystroke_n	n	n/a
352.367	0.158	704734	keystroke_Key.space	Key.space	n/a
352.6	0.0925	705200	keystroke_l	l	n/a
352.7845	0.089	705569	keystroke_u	u	n/a
352.9765	0.113	705953	keystroke_n	n	n/a
353.1115	0.093	706223	keystroke_c	c	n/a
353.2245	0.09	706449	keystroke_h	h	n/a
353.3755	0.136	706751	keystroke_Key.space	Key.space	n/a
353.7205	0.135	707441	keystroke_d	d	n/a
353.8865	0.132	707773	keystroke_i	i	n/a
353.9955	0.069	707991	keystroke_f	f	n/a
354.1285	0.092	708257	keystroke_f	f	n/a
354.2215	0.135	708443	keystroke_i	i	n/a
354.9985	0.09	709997	keystroke_c	c	n/a
355.4385	0.09	710877	keystroke_u	u	n/a
355.6485	0.091	711297	keystroke_l	l	n/a
355.8885	0.112	711777	keystroke_t	t	n/a
356.0365	0.112	712073	keystroke_y	y	n/a
356.3685	0.114	712737	keystroke_Key.enter	Key.enter	n/a
356.4895	11.9865	712979	prompt	n/a	albuquerque appearing invitation solved\n
357.245	0.158	714490	keystroke_a	a	n/a
357.3805	0.1355	714761	keystroke_l	l	n/a
357.625	0.114	715250	keystroke_b	b	n/a
357.912	0.16	715824	keystroke_u	u	n/a
358.424	0.18	716848	keystroke_a	a	n/a
359.6995	0.114	719399	keystroke_Key.backspace	Key.backspace	n/a
360.7165	0.112	721433	keystroke_q	q	n/a
361.2275	0.114	722455	keystroke_u	u	n/a
361.3745	0.183	722749	keystroke_e	e	n/a
361.5585	0.112	723117	keystroke_r	r	n/a
362.0615	0.157	724123	keystroke_q	q	n/a
362.277	0.158	724554	keystroke_u	u	n/a
362.412	0.156	724824	keystroke_e	e	n/a
362.57	0.134	725140	keystroke_Key.space	Key.space	n/a
362.837	0.181	725674	keystroke_a	a	n/a
363.171	0.224	726342	keystroke_p	p	n/a
363.563	0.1365	727126	keystroke_p	p	n/a
363.7595	0.159	727519	keystroke_e	e	n/a
363.8735	0.181	727747	keystroke_a	a	n/a
363.9865	0.113	727973	keystroke_r	r	n/a
364.1005	0.066	728201	keystroke_i	i	n/a
364.2345	0.18	728469	keystroke_n	n	n/a
364.3685	0.116	728737	keystroke_g	g	n/a
364.4365	0.161	728873	keystroke_Key.space	Key.space	n/a
364.6285	0.068	729257	keystroke_i	i	n/a
364.7645	0.161	729529	keystroke_n	n	n/a
364.9005	0.1125	729801	keystroke_v	v	n/a
365.411	0.118	730822	keystroke_i	i	n/a
365.5875	0.1125	731175	keystroke_t	t	n/a
365.721	0.158	731442	keystroke_a	a	n/a
365.833	0.092	731666	keystroke_t	t	n/a
365.902	0.093	731804	keystroke_i	i	n/a
366.028	0.113	732056	keystroke_o	o	n/a
366.163	0.1565	732326	keystroke_n	n	n/a
366.296	0.1125	732592	keystroke_Key.space	Key.space	n/a
366.6515	0.071	733303	keystroke_o	o	n/a
367.0945	0.114	734189	keystroke_Key.backspace	Key.backspace	n/a
367.2295	0.092	734459	keystroke_s	s	n/a
367.4145	0.071	734829	keystroke_o	o	n/a
367.5905	0.137	735181	keystroke_l	l	n/a
367.7285	0.111	735457	keystroke_v	v	n/a
367.9115	0.114	735823	keystroke_e	e	n/a
368.0955	0.09	736191	keystroke_d	d	n/a
368.3825	0.092	736765	keystroke_Key.enter	Key.enter	n/a
368.484	7.368	736968	prompt	n/a	categories murray tablet goods\n
369.1755	0.112	738351	keystroke_c	c	n/a
369.379	0.1585	738758	keystroke_a	a	n/a
369.7205	0.068	739441	keystroke_t	t	n/a
369.9745	0.091	739949	keystroke_e	e	n/a
370.2275	0.092	740455	keystroke_g	g	n/a
370.3885	0.113	740777	keystroke_o	o	n/a
370.5025	0.045	741005	keystroke_r	r	n/a
370.622	0.067	741244	keystroke_i	i	n/a
370.711	0.114	741422	keystroke_e	e	n/a
370.931	0.159	741862	keystroke_s	s	n/a
371.288	0.16	742576	keystroke_Key.space	Key.space	n/a
371.639	0.137	743278	keystroke_m	m	n/a
371.906	0.16	743812	keystroke_u	u	n/a
372.087	0.047	744174	keystroke_r	r	n/a
372.181	0.114	744362	keystroke_r	r	n/a
372.316	0.134	744632	keystroke_a	a	n/a
372.451	0.157	744902	keystroke_y	y	n/a
372.631	0.134	745262	keystroke_Key.space	Key.space	n/a
373.0975	0.137	746195	keystroke_t	t	n/a
373.1885	0.182	746377	keystroke_a	a	n/a
373.3025	0.113	746605	keystroke_b	b	n/a
373.5615	0.158	747123	keystroke_l	l	n/a
373.6965	0.118	747393	keystroke_e	e	n/a
373.8895	0.159	747779	keystroke_t	t	n/a
373.9785	0.135	747957	keystroke_Key.space	Key.space	n/a
374.2535	0.092	748507	keystroke_g	g	n/a
374.3785	0.045	748757	keystroke_o	o	n/a
374.4945	0.161	748989	keystroke_o	o	n/a
374.5855	0.092	749171	keystroke_d	d	n/a
374.7735	0.111	749547	keystroke_s	s	n/a
375.7345	0.116	751469	keystroke_Key.enter	Key.enter	n/a
375.855	6.5015	751710	prompt	n/a	priorities seemed discipline chinese\n
376.5545	0.138	753109	keystroke_p	p	n/a
376.6925	0.09	753385	keystroke_r	r	n/a
376.7845	0.114	753569	keystroke_i	i	n/a
377.0645	0.116	754129	keystroke_o	o	n/a
377.2025	0.0905	754405	keystroke_r	r	n/a
377.33	0.091	754660	keystroke_i	i	n/a
377.422	0.069	754844	keystroke_t	t	n/a
377.9095	0.1375	755819	keystroke_i	i	n/a
378.001	0.116	756002	keystroke_e	e	n/a
378.07	0.1365	756140	keystroke_s	s	n/a
378.161	0.1795	756322	keystroke_Key.space	Key.space	n/a
378.3175	0.114	756635	keystroke_s	s	n/a
378.499	0.0465	756998	keystroke_e	e	n/a
378.612	0.09	757224	keystroke_e	e	n/a
378.724	0.179	757448	keystroke_m	m	n/a
378.858	0.089	757716	keystroke_e	e	n/a
379.022	0.1575	758044	keystroke_d	d	n/a
379.1335	0.159	758267	keystroke_Key.space	Key.space	n/a
379.4075	0.113	758815	keystroke_d	d	n/a
379.5215	0.204	759043	keystroke_i	i	n/a
379.6125	0.157	759225	keystroke_s	s	n/a
379.8105	0.157	759621	keystroke_c	c	n/a
379.9685	0.1565	759937	keystroke_i	i	n/a
380.165	0.134	760330	keystroke_p	p	n/a
380.382	0.134	760764	keystroke_l	l	n/a
380.696	0.092	761392	keystroke_i	i	n/a
380.857	0.158	761714	keystroke_n	n	n/a
380.946	0.114	761892	keystroke_e	e	n/a
381.016	0.131	762032	keystroke_Key.space	Key.space	n/a
381.17	0.114	762340	keystroke_c	c	n/a
381.325	0.113	762650	keystroke_h	h	n/a
381.51	0.09	763020	keystroke_i	i	n/a
381.631	0.159	763262	keystroke_n	n	n/a
381.722	0.09	763444	keystroke_e	e	n/a
381.847	0.157	763694	keystroke_s	s	n/a
381.937	0.091	763874	keystroke_e	e	n/a
382.198	0.157	764396	keystroke_Key.enter	Key.enter	n/a
382.3605	6.5465	764721	prompt	n/a	copy irish stud testament\n
383.034	0.1365	766068	keystroke_c	c	n/a
383.147	0.0895	766294	keystroke_o	o	n/a
383.3235	0.112	766647	keystroke_p	p	n/a
383.4945	0.16	766989	keystroke_y	y	n/a
383.6555	0.1125	767311	keystroke_Key.space	Key.space	n/a
383.913	0.093	767826	keystroke_i	i	n/a
384.04	0.095	768080	keystroke_r	r	n/a
384.156	0.067	768312	keystroke_i	i	n/a
384.278	0.09	768556	keystroke_s	s	n/a
384.422	0.09	768844	keystroke_h	h	n/a
384.548	0.114	769096	keystroke_Key.space	Key.space	n/a
384.802	0.185	769604	keystroke_a	a	n/a
385.24	0.114	770480	keystroke_Key.backspace	Key.backspace	n/a
385.33	0.158	770660	keystroke_s	s	n/a
385.421	0.114	770842	keystroke_t	t	n/a
385.536	0.112	771072	keystroke_u	u	n/a
385.67	0.092	771340	keystroke_d	d	n/a
385.798	0.158	771596	keystroke_Key.space	Key.space	n/a
386.287	0.091	772574	keystroke_t	t	n/a
386.451	0.113	772902	keystroke_e	e	n/a
386.638	0.112	773276	keystroke_s	s	n/a
386.8485	0.092	773697	keystroke_t	t	n/a
386.9175	0.135	773835	keystroke_a	a	n/a
387.1575	0.135	774315	keystroke_m	m	n/a
387.3155	0.093	774631	keystroke_e	e	n/a
387.4305	0.069	774861	keystroke_n	n	n/a
387.5485	0.091	775097	keystroke_t	t	n/a
388.7715	0.1335	777543	keystroke_Key.enter	Key.enter	n/a
388.91	8.5255	777820	prompt	n/a	quilt undergraduate concert cage\n
390.5895	0.157	781179	keystroke_q	q	n/a
390.8155	0.134	781631	keystroke_u	u	n/a
390.9995	0.114	781999	keystroke_i	i	n/a
392.1955	0.1585	784391	keystroke_l	l	n/a
392.531	0.161	785062	keystroke_t	t	n/a
392.667	0.161	785334	keystroke_Key.space	Key.space	n/a
392.981	0.113	785962	keystroke_u	u	n/a
393.175	0.115	786350	keystroke_n	n	n/a
393.244	0.068	786488	keystroke_d	d	n/a
393.42	0.177	786840	keystroke_e	e	n/a
393.531	0.088	787062	keystroke_r	r	n/a
393.866	0.093	787732	keystroke_g	g	n/a
394.081	0.16	788162	keystroke_r	r	n/a
394.172	0.159	788344	keystroke_a	a	n/a
394.353	0.092	788706	keystroke_d	d	n/a
394.601	0.138	789202	keystroke_u	u	n/a
394.715	0.136	789430	keystroke_a	a	n/a
394.804	0.114	789608	keystroke_t	t	n/a
394.919	0.11	789838	keystroke_e	e	n/a
394.983	0.112	789966	keystroke_Key.space	Key.space	n/a
395.39	0.135	790780	keystroke_c	c	n/a
395.526	0.089	791052	keystroke_o	o	n/a
395.637	0.137	791274	keystroke_n	n	n/a
395.75	0.046	791500	keystroke_c	c	n/a
395.872	0.181	791744	keystroke_e	e	n/a
396.007	0.092	792014	keystroke_r	r	n/a
396.211	0.137	792422	keystroke_t	t	n/a
396.324	0.136	792648	keystroke_Key.space	Key.space	n/a
396.682	0.113	793364	keystroke_c	c	n/a
396.796	0.113	793592	keystroke_a	a	n/a
396.933	0.091	793866	keystroke_g	g	n/a
397.092	0.089	794184	keystroke_e	e	n/a
397.298	0.136	794596	keystroke_Key.enter	Key.enter	n/a
397.441	8.629	794882	prompt	n/a	bulgaria wagon calendars successful\n
398.189	0.116	796378	keystroke_b	b	n/a
398.808	0.16	797616	keystroke_u	u	n/a
399.062	0.1615	798124	keystroke_l	l	n/a
399.3055	0.113	798611	keystroke_g	g	n/a
399.7515	0.181	799503	keystroke_a	a	n/a
399.8865	0.091	799773	keystroke_r	r	n/a
400.0265	0.114	800053	keystroke_i	i	n/a
400.1165	0.114	800233	keystroke_a	a	n/a
400.2315	0.155	800463	keystroke_Key.space	Key.space	n/a
400.8125	0.044	801625	keystroke_w	w	n/a
401.1065	0.135	802213	keystroke_a	a	n/a
401.3035	0.089	802607	keystroke_g	g	n/a
401.6575	0.091	803315	keystroke_o	o	n/a
401.8155	0.159	803631	keystroke_n	n	n/a
401.9965	0.136	803993	keystroke_Key.space	Key.space	n/a
402.3105	0.093	804621	keystroke_c	c	n/a
402.4235	0.137	804847	keystroke_a	a	n/a
402.4905	0.16	804981	keystroke_l	l	n/a
402.6275	0.0895	805255	keystroke_e	e	n/a
402.7475	0.135	805495	keystroke_n	n	n/a
403.189	0.112	806378	keystroke_d	d	n/a
403.422	0.157	806844	keystroke_a	a	n/a
403.601	0.1345	807202	keystroke_r	r	n/a
403.7365	0.089	807473	keystroke_s	s	n/a
403.8265	0.114	807653	keystroke_Key.space	Key.space	n/a
403.9415	0.113	807883	keystroke_s	s	n/a
404.076	0.136	808152	keystroke_u	u	n/a
404.254	0.07	808508	keystroke_c	c	n/a
404.4235	0.0895	808847	keystroke_c	c	n/a
404.649	0.068	809298	keystroke_e	e	n/a
404.819	0.046	809638	keystroke_s	s	n/a
404.938	0.115	809876	keystroke_s	s	n/a
405.083	0.09	810166	keystroke_f	f	n/a
405.22	0.135	810440	keystroke_u	u	n/a
405.428	0.135	810856	keystroke_l	l	n/a
405.912	0.157	811824	keystroke_Key.enter	Key.enter	n/a
406.073	9.6715	812146	prompt	n/a	henderson thumbnails isn't volkswagen\n
406.8125	0.178	813625	keystroke_h	h	n/a
407.0215	0.113	814043	keystroke_e	e	n/a
407.1355	0.135	814271	keystroke_n	n	n/a
407.2475	0.114	814495	keystroke_d	d	n/a
408.1955	0.091	816391	keystroke_e	e	n/a
408.3945	0.09	816789	keystroke_r	r	n/a
408.5845	0.092	817169	keystroke_s	s	n/a
408.7295	0.136	817459	keystroke_o	o	n/a
408.8665	0.156	817733	keystroke_n	n	n/a
409.0235	0.158	818047	keystroke_Key.space	Key.space	n/a
409.2885	0.114	818577	keystroke_t	t	n/a
409.3785	0.09	818757	keystroke_h	h	n/a
409.5775	0.112	819155	keystroke_u	u	n/a
409.8665	0.114	819733	keystroke_m	m	n/a
410.1865	0.111	820373	keystroke_b	b	n/a
410.7045	0.159	821409	keystroke_n	n	n/a
411.0135	0.135	822027	keystroke_a	a	n/a
411.1495	0.067	822299	keystroke_i	i	n/a
411.3095	0.137	822619	keystroke_l	l	n/a
411.4215	0.092	822843	keystroke_s	s	n/a
411.5145	0.136	823029	keystroke_Key.space	Key.space	n/a
411.7025	0.137	823405	keystroke_i	i	n/a
411.8155	0.092	823631	keystroke_s	s	n/a
411.9995	0.112	823999	keystroke_n	n	n/a
412.3145	0.16	824629	keystroke_'	'	n/a
412.4965	0.159	824993	keystroke_t	t	n/a
412.6095	0.158	825219	keystroke_Key.space	Key.space	n/a
412.8325	0.09	825665	keystroke_v	v	n/a
412.9545	0.092	825909	keystroke_o	o	n/a
413.1515	0.114	826303	keystroke_l	l	n/a
413.3745	0.114	826749	keystroke_k	k	n/a
414.0035	0.115	828007	keystroke_s	s	n/a
414.4605	0.136	828921	keystroke_w	w	n/a
414.6185	0.136	829237	keystroke_a	a	n/a
414.8465	0.092	829693	keystroke_g	g	n/a
415.0835	0.092	830167	keystroke_e	e	n/a
415.2835	0.112	830567	keystroke_n	n	n/a
415.6065	0.136	831213	keystroke_Key.enter	Key.enter	n/a
415.7475	6.172	831495	prompt	n/a	publicity upon eating interviews\n
416.4635	0.157	832927	keystroke_p	p	n/a
416.6425	0.138	833285	keystroke_u	u	n/a
416.9105	0.112	833821	keystroke_b	b	n/a
417.1525	0.112	834305	keystroke_l	l	n/a
417.3135	0.137	834627	keystroke_i	i	n/a
417.5495	0.092	835099	keystroke_c	c	n/a
417.6635	0.089	835327	keystroke_i	i	n/a
417.8185	0.092	835637	keystroke_t	t	n/a
417.8865	0.158	835773	keystroke_y	y	n/a
418.0665	0.114	836133	keystroke_Key.space	Key.space	n/a
418.4655	0.203	836931	keystroke_u	u	n/a
418.6895	0.09	837379	keystroke_p	p	n/a
419.0645	0.116	838129	keystroke_o	o	n/a
419.2475	0.159	838495	keystroke_n	n	n/a
419.3835	0.1575	838767	keystroke_Key.space	Key.space	n/a
419.542	0.116	839084	keystroke_e	e	n/a
419.634	0.137	839268	keystroke_a	a	n/a
419.792	0.068	839584	keystroke_t	t	n/a
419.898	0.068	839796	keystroke_i	i	n/a
420.0375	0.1575	840075	keystroke_n	n	n/a
420.149	0.114	840298	keystroke_g	g	n/a
420.24	0.135	840480	keystroke_Key.space	Key.space	n/a
420.329	0.068	840658	keystroke_i	i	n/a
420.45	0.161	840900	keystroke_n	n	n/a
420.565	0.069	841130	keystroke_t	t	n/a
420.655	0.183	841310	keystroke_e	e	n/a
420.768	0.072	841536	keystroke_r	r	n/a
420.941	0.07	841882	keystroke_v	v	n/a
421.11	0.114	842220	keystroke_i	i	n/a
421.199	0.115	842398	keystroke_e	e	n/a
421.269	0.067	842538	keystroke_w	w	n/a
421.477	0.092	842954	keystroke_s	s	n/a
421.781	0.137	843562	keystroke_Key.enter	Key.enter	n/a
421.9225	6.404	843845	prompt	n/a	week supporting passengers daren't\n
422.6215	0.113	845243	keystroke_w	w	n/a
422.7675	0.069	845535	keystroke_e	e	n/a
422.8815	0.09	845763	keystroke_e	e	n/a
423.0045	0.114	846009	keystroke_k	k	n/a
423.1195	0.111	846239	keystroke_Key.space	Key.space	n/a
423.2525	0.158	846505	keystroke_s	s	n/a
423.4525	0.134	846905	keystroke_u	u	n/a
423.7215	0.046	847443	keystroke_p	p	n/a
423.9025	0.1135	847805	keystroke_p	p	n/a
424.15	0.204	848300	keystroke_o	o	n/a
424.307	0.071	848614	keystroke_r	r	n/a
424.493	0.092	848986	keystroke_t	t	n/a
424.608	0.067	849216	keystroke_i	i	n/a
424.736	0.181	849472	keystroke_n	n	n/a
424.87	0.114	849740	keystroke_g	g	n/a
424.9385	0.1575	849877	keystroke_Key.space	Key.space	n/a
425.098	0.177	850196	keystroke_p	p	n/a
425.229	0.135	850458	keystroke_a	a	n/a
425.404	0.066	850808	keystroke_s	s	n/a
425.534	0.112	851068	keystroke_s	s	n/a
425.647	0.089	851294	keystroke_e	e	n/a
425.758	0.112	851516	keystroke_n	n	n/a
425.906	0.113	851812	keystroke_g	g	n/a
426.093	0.137	852186	keystroke_e	e	n/a
426.231	0.0675	852462	keystroke_r	r	n/a
426.3205	0.089	852641	keystroke_s	s	n/a
426.4325	0.112	852865	keystroke_Key.space	Key.space	n/a
426.6975	0.09	853395	keystroke_d	d	n/a
426.8975	0.139	853795	keystroke_a	a	n/a
427.0585	0.136	854117	keystroke_r	r	n/a
427.1485	0.092	854297	keystroke_e	e	n/a
427.3145	0.138	854629	keystroke_n	n	n/a
427.8185	0.137	855637	keystroke_'	'	n/a
427.9765	0.094	855953	keystroke_t	t	n/a
428.2105	0.114	856421	keystroke_Key.enter	Key.enter	n/a
428.3295	4.8085	856659	prompt	n/a	silly fire update repair\n
428.8505	0.114	857701	keystroke_s	s	n/a
428.9865	0.069	857973	keystroke_i	i	n/a
429.1355	0.069	858271	keystroke_l	l	n/a
429.2605	0.091	858521	keystroke_l	l	n/a
429.4915	0.137	858983	keystroke_y	y	n/a
429.6505	0.16	859301	keystroke_Key.space	Key.space	n/a
429.7625	0.115	859525	keystroke_f	f	n/a
429.9435	0.11	859887	keystroke_i	i	n/a
430.0755	0.228	860151	keystroke_r	r	n/a
430.1895	0.136	860379	keystroke_e	e	n/a
430.2575	0.18	860515	keystroke_Key.space	Key.space	n/a
430.5145	0.182	861029	keystroke_u	u	n/a
430.6735	0.182	861347	keystroke_p	p	n/a
430.7645	0.136	861529	keystroke_d	d	n/a
430.9235	0.117	861847	keystroke_a	a	n/a
430.9945	0.136	861989	keystroke_t	t	n/a
431.1065	0.138	862213	keystroke_e	e	n/a
431.1975	0.136	862395	keystroke_Key.space	Key.space	n/a
431.4975	0.204	862995	keystroke_r	r	n/a
431.5875	0.116	863175	keystroke_e	e	n/a
431.7245	0.135	863449	keystroke_p	p	n/a
431.9575	0.135	863915	keystroke_i	i	n/a
432.4295	0.091	864859	keystroke_Key.backspace	Key.backspace	n/a
432.5225	0.111	865045	keystroke_a	a	n/a
432.7205	0.091	865441	keystroke_i	i	n/a
432.8335	0.069	865667	keystroke_r	r	n/a
433.0005	0.136	866001	keystroke_Key.enter	Key.enter	n/a
433.146	8.355	866292	prompt	n/a	lawyers cradle transcript cohen\n
433.9485	0.1835	867897	keystroke_l	l	n/a
434.086	0.114	868172	keystroke_a	a	n/a
434.289	0.115	868578	keystroke_w	w	n/a
434.672	0.134	869344	keystroke_y	y	n/a
434.807	0.114	869614	keystroke_e	e	n/a
434.897	0.136	869794	keystroke_r	r	n/a
435.01	0.094	870020	keystroke_s	s	n/a
435.078	0.138	870156	keystroke_Key.space	Key.space	n/a
435.31	0.114	870620	keystroke_c	c	n/a
435.771	0.139	871542	keystroke_r	r	n/a
435.861	0.138	871722	keystroke_a	a	n/a
436.036	0.071	872072	keystroke_d	d	n/a
436.534	0.16	873068	keystroke_l	l	n/a
436.67	0.114	873340	keystroke_e	e	n/a
436.76	0.113	873520	keystroke_Key.space	Key.space	n/a
436.895	0.09	873790	keystroke_t	t	n/a
437.05	0.113	874100	keystroke_r	r	n/a
437.118	0.136	874236	keystroke_a	a	n/a
437.23	0.137	874460	keystroke_n	n	n/a
437.368	0.066	874736	keystroke_s	s	n/a
437.854	0.138	875708	keystroke_c	c	n/a
439.21	0.092	878420	keystroke_r	r	n/a
439.36	0.113	878720	keystroke_i	i	n/a
439.618	0.1785	879236	keystroke_p	p	n/a
439.8295	0.179	879659	keystroke_t	t	n/a
439.9405	0.158	879881	keystroke_Key.space	Key.space	n/a
440.476	0.1145	880952	keystroke_c	c	n/a
440.6455	0.112	881291	keystroke_o	o	n/a
440.8575	0.114	881715	keystroke_h	h	n/a
440.9725	0.087	881945	keystroke_e	e	n/a
441.0605	0.112	882121	keystroke_n	n	n/a
441.3645	0.135	882729	keystroke_Key.enter	Key.enter	n/a
441.5065	6.2415	883013	prompt	n/a	pharmacy platform shield top\n
442.1685	0.116	884337	keystroke_p	p	n/a
442.3415	0.16	884683	keystroke_h	h	n/a
442.5025	0.111	885005	keystroke_a	a	n/a
442.6355	0.1135	885271	keystroke_r	r	n/a
442.702	0.182	885404	keystroke_a	a	n/a
443.292	0.14	886584	keystroke_Key.backspace	Key.backspace	n/a
443.633	0.181	887266	keystroke_m	m	n/a
443.815	0.155	887630	keystroke_a	a	n/a
443.902	0.113	887804	keystroke_c	c	n/a
444.045	0.139	888090	keystroke_y	y	n/a
444.218	0.157	888436	keystroke_Key.space	Key.space	n/a
444.598	0.112	889196	keystroke_p	p	n/a
444.803	0.161	889606	keystroke_l	l	n/a
444.918	0.161	889836	keystroke_a	a	n/a
445.08	0.087	890160	keystroke_t	t	n/a
445.311	0.0925	890622	keystroke_f	f	n/a
445.4435	0.09	890887	keystroke_o	o	n/a
445.5345	0.069	891069	keystroke_r	r	n/a
445.6045	0.157	891209	keystroke_m	m	n/a
445.7375	0.138	891475	keystroke_Key.space	Key.space	n/a
445.8515	0.091	891703	keystroke_s	s	n/a
445.9645	0.113	891929	keystroke_h	h	n/a
446.3175	0.092	892635	keystroke_i	i	n/a
446.4105	0.09	892821	keystroke_e	e	n/a
446.5015	0.135	893003	keystroke_l	l	n/a
446.5675	0.114	893135	keystroke_d	d	n/a
446.6825	0.135	893365	keystroke_Key.space	Key.space	n/a
446.9625	0.139	893925	keystroke_t	t	n/a
447.0775	0.093	894155	keystroke_o	o	n/a
447.2425	0.112	894485	keystroke_p	p	n/a
447.6125	0.134	895225	keystroke_Key.enter	Key.enter	n/a
447.751	5.538	895502	prompt	n/a	sensors blues load lookup\n
448.54	0.134	897080	keystroke_s	s	n/a
448.751	0.091	897502	keystroke_e	e	n/a
448.88	0.161	897760	keystroke_n	n	n/a
449.196	0.069	898392	keystroke_s	s	n/a
449.347	0.135	898694	keystroke_o	o	n/a
449.459	0.091	898918	keystroke_r	r	n/a
449.627	0.114	899254	keystroke_s	s	n/a
449.742	0.158	899484	keystroke_Key.space	Key.space	n/a
449.957	0.113	899914	keystroke_b	b	n/a
450.189	0.0885	900378	keystroke_l	l	n/a
450.3365	0.158	900673	keystroke_u	u	n/a
450.4045	0.16	900809	keystroke_e	e	n/a
450.5175	0.137	901035	keystroke_s	s	n/a
450.6555	0.113	901311	keystroke_Key.space	Key.space	n/a
450.7225	0.092	901445	keystroke_l	l	n/a
450.8945	0.137	901789	keystroke_o	o	n/a
450.9605	0.162	901921	keystroke_a	a	n/a
451.3955	0.133	902791	keystroke_d	d	n/a
451.5595	0.158	903119	keystroke_Key.space	Key.space	n/a
451.8625	0.07	903725	keystroke_l	l	n/a
452.0505	0.069	904101	keystroke_o	o	n/a
452.1605	0.112	904321	keystroke_o	o	n/a
452.3295	0.112	904659	keystroke_k	k	n/a
452.5405	0.18	905081	keystroke_u	u	n/a
452.8535	0.135	905707	keystroke_p	p	n/a
453.1765	0.111	906353	keystroke_Key.enter	Key.enter	n/a
453.292	7.034	906584	prompt	n/a	fragrance fill spencer motherboard\n
453.8995	0.092	907799	keystroke_f	f	n/a
454.1235	0.116	908247	keystroke_r	r	n/a
454.4575	0.113	908915	keystroke_a	a	n/a
454.8475	0.069	909695	keystroke_g	g	n/a
455.028	0.095	910056	keystroke_r	r	n/a
455.098	0.158	910196	keystroke_a	a	n/a
455.533	0.115	911066	keystroke_n	n	n/a
455.67	0.089	911340	keystroke_c	c	n/a
455.851	0.092	911702	keystroke_e	e	n/a
455.898	0.157	911796	keystroke_Key.space	Key.space	n/a
456.031	0.114	912062	keystroke_f	f	n/a
456.146	0.067	912292	keystroke_i	i	n/a
456.28	0.0675	912560	keystroke_l	l	n/a
456.4025	0.092	912805	keystroke_l	l	n/a
456.4705	0.094	912941	keystroke_Key.space	Key.space	n/a
456.5655	0.089	913131	keystroke_s	s	n/a
456.6765	0.137	913353	keystroke_p	p	n/a
456.7895	0.091	913579	keystroke_e	e	n/a
457.2835	0.1355	914567	keystroke_n	n	n/a
457.502	0.114	915004	keystroke_c	c	n/a
457.792	0.2045	915584	keystroke_e	e	n/a
457.949	0.139	915898	keystroke_r	r	n/a
458.0415	0.1615	916083	keystroke_Key.space	Key.space	n/a
458.327	0.137	916654	keystroke_m	m	n/a
458.556	0.0915	917112	keystroke_o	o	n/a
458.677	0.068	917354	keystroke_t	t	n/a
458.767	0.137	917534	keystroke_h	h	n/a
458.834	0.179	917668	keystroke_e	e	n/a
458.925	0.113	917850	keystroke_r	r	n/a
459.3965	0.091	918793	keystroke_b	b	n/a
459.6465	0.161	919293	keystroke_o	o	n/a
459.7365	0.205	919473	keystroke_a	a	n/a
459.8965	0.113	919793	keystroke_r	r	n/a
460.0105	0.088	920021	keystroke_d	d	n/a
460.1895	0.1345	920379	keystroke_Key.enter	Key.enter	n/a
460.331	4.858	920662	prompt	n/a	of operates resulted lasting\n
460.861	0.161	921722	keystroke_o	o	n/a
460.953	0.16	921906	keystroke_f	f	n/a
461.067	0.138	922134	keystroke_Key.space	Key.space	n/a
461.18	0.119	922360	keystroke_o	o	n/a
461.377	0.183	922754	keystroke_p	p	n/a
461.491	0.16	922982	keystroke_e	e	n/a
461.582	0.093	923164	keystroke_r	r	n/a
461.677	0.159	923354	keystroke_a	a	n/a
461.813	0.115	923626	keystroke_t	t	n/a
461.95	0.159	923900	keystroke_e	e	n/a
462.064	0.157	924128	keystroke_s	s	n/a
462.153	0.159	924306	keystroke_Key.space	Key.space	n/a
462.313	0.089	924626	keystroke_f	f	n/a
462.748	0.111	925496	keystroke_Key.backspace	Key.backspace	n/a
462.814	0.201	925628	keystroke_r	r	n/a
462.903	0.135	925806	keystroke_e	e	n/a
462.993	0.089	925986	keystroke_s	s	n/a
463.147	0.115	926294	keystroke_u	u	n/a
463.346	0.138	926692	keystroke_l	l	n/a
463.523	0.134	927046	keystroke_t	t	n/a
463.658	0.089	927316	keystroke_e	e	n/a
463.813	0.113	927626	keystroke_d	d	n/a
463.88	0.16	927760	keystroke_Key.space	Key.space	n/a
463.994	0.179	927988	keystroke_l	l	n/a
464.105	0.2445	928210	keystroke_a	a	n/a
464.195	0.1535	928390	keystroke_s	s	n/a
464.3705	0.089	928741	keystroke_t	t	n/a
464.4975	0.09	928995	keystroke_i	i	n/a
464.6635	0.136	929327	keystroke_n	n	n/a
464.7545	0.09	929509	keystroke_g	g	n/a
465.0055	0.182	930011	keystroke_Key.enter	Key.enter	n/a
465.1925	5.9915	930385	prompt	n/a	poll washing generating wyoming\n
465.9515	0.136	931903	keystroke_p	p	n/a
466.1795	0.09	932359	keystroke_o	o	n/a
466.3875	0.179	932775	keystroke_l	l	n/a
466.7055	0.114	933411	keystroke_l	l	n/a
466.9135	0.159	933827	keystroke_Key.space	Key.space	n/a
467.0485	0.046	934097	keystroke_w	w	n/a
467.1165	0.158	934233	keystroke_a	a	n/a
467.2275	0.115	934455	keystroke_s	s	n/a
467.3645	0.09	934729	keystroke_h	h	n/a
467.538	0.092	935076	keystroke_i	i	n/a
467.666	0.181	935332	keystroke_n	n	n/a
467.8	0.117	935600	keystroke_g	g	n/a
467.918	0.159	935836	keystroke_Key.space	Key.space	n/a
468.155	0.091	936310	keystroke_g	g	n/a
468.304	0.092	936608	keystroke_e	e	n/a
468.35	0.159	936700	keystroke_n	n	n/a
468.511	0.159	937022	keystroke_e	e	n/a
468.646	0.115	937292	keystroke_r	r	n/a
468.782	0.182	937564	keystroke_a	a	n/a
468.987	0.139	937974	keystroke_t	t	n/a
469.127	0.111	938254	keystroke_i	i	n/a
469.272	0.206	938544	keystroke_n	n	n/a
469.386	0.094	938772	keystroke_g	g	n/a
469.454	0.136	938908	keystroke_Key.space	Key.space	n/a
469.591	0.137	939182	keystroke_w	w	n/a
469.784	0.159	939568	keystroke_y	y	n/a
470.156	0.135	940312	keystroke_o	o	n/a
470.365	0.135	940730	keystroke_m	m	n/a
470.6175	0.068	941235	keystroke_i	i	n/a
470.7555	0.158	941511	keystroke_n	n	n/a
470.8895	0.069	941779	keystroke_g	g	n/a
471.0695	0.113	942139	keystroke_Key.enter	Key.enter	n/a
471.1875	5.822	942375	prompt	n/a	hosts embedded leaf vaccine\n
471.796	0.157	943592	keystroke_h	h	n/a
471.975	0.1795	943950	keystroke_o	o	n/a
472.131	0.0915	944262	keystroke_s	s	n/a
472.2795	0.1145	944559	keystroke_t	t	n/a
472.4145	0.116	944829	keystroke_s	s	n/a
472.5065	0.137	945013	keystroke_Key.space	Key.space	n/a
472.858	0.1155	945716	keystroke_e	e	n/a
472.9955	0.114	945991	keystroke_m	m	n/a
473.2195	0.114	946439	keystroke_b	b	n/a
473.5205	0.092	947041	keystroke_e	e	n/a
473.9745	0.069	947949	keystroke_d	d	n/a
474.1275	0.069	948255	keystroke_d	d	n/a
474.2845	0.068	948569	keystroke_e	e	n/a
474.4305	0.115	948861	keystroke_d	d	n/a
474.5215	0.135	949043	keystroke_Key.space	Key.space	n/a
474.6105	0.158	949221	keystroke_l	l	n/a
474.7225	0.115	949445	keystroke_e	e	n/a
474.8135	0.134	949627	keystroke_a	a	n/a
475.1375	0.184	950275	keystroke_f	f	n/a
475.2975	0.135	950595	keystroke_Key.space	Key.space	n/a
475.5535	0.113	951107	keystroke_v	v	n/a
475.7155	0.135	951431	keystroke_a	a	n/a
475.9115	0.089	951823	keystroke_c	c	n/a
476.0885	0.071	952177	keystroke_c	c	n/a
476.2995	0.137	952599	keystroke_i	i	n/a
476.4375	0.18	952875	keystroke_n	n	n/a
476.6185	0.089	953237	keystroke_e	e	n/a
476.8735	0.1345	953747	keystroke_Key.enter	Key.enter	n/a
477.0125	6.213	954025	prompt	n/a	principle settlement what're saudi\n
477.6595	0.135	955319	keystroke_p	p	n/a
477.7955	0.111	955591	keystroke_r	r	n/a
477.9075	0.089	955815	keystroke_i	i	n/a
478.0435	0.156	956087	keystroke_n	n	n/a
478.1765	0.091	956353	keystroke_c	c	n/a
478.2885	0.112	956577	keystroke_i	i	n/a
478.4955	0.09	956991	keystroke_p	p	n/a
478.6995	0.181	957399	keystroke_l	l	n/a
478.8115	0.16	957623	keystroke_e	e	n/a
478.9245	0.179	957849	keystroke_Key.space	Key.space	n/a
479.1685	0.111	958337	keystroke_s	s	n/a
479.3155	0.11	958631	keystroke_e	e	n/a
479.6565	0.09	959313	keystroke_t	t	n/a
479.7685	0.113	959537	keystroke_t	t	n/a
479.9665	0.114	959933	keystroke_l	l	n/a
480.0575	0.067	960115	keystroke_e	e	n/a
480.2425	0.158	960485	keystroke_m	m	n/a
480.3775	0.092	960755	keystroke_e	e	n/a
480.4925	0.137	960985	keystroke_n	n	n/a
480.5825	0.138	961165	keystroke_t	t	n/a
480.6725	0.162	961345	keystroke_Key.space	Key.space	n/a
480.7665	0.09	961533	keystroke_w	w	n/a
480.8785	0.163	961757	keystroke_h	h	n/a
481.0165	0.114	962033	keystroke_a	a	n/a
481.1715	0.091	962343	keystroke_t	t	n/a
481.4115	0.135	962823	keystroke_'	'	n/a
481.5005	0.182	963001	keystroke_r	r	n/a
481.5905	0.16	963181	keystroke_e	e	n/a
481.7035	0.143	963407	keystroke_Key.space	Key.space	n/a
482.1075	0.136	964215	keystroke_s	s	n/a
482.2205	0.1595	964441	keystroke_a	a	n/a
482.401	0.1625	964802	keystroke_u	u	n/a
482.5855	0.09	965171	keystroke_d	d	n/a
482.8135	0.091	965627	keystroke_i	i	n/a
483.1115	0.1125	966223	keystroke_Key.enter	Key.enter	n/a
483.2285	5.226	966457	prompt	n/a	wayne matters has latvia\n
483.8615	0.111	967723	keystroke_w	w	n/a
483.9275	0.157	967855	keystroke_a	a	n/a
484.1065	0.182	968213	keystroke_y	y	n/a
484.4085	0.157	968817	keystroke_n	n	n/a
484.5425	0.156	969085	keystroke_e	e	n/a
484.6545	0.156	969309	keystroke_Key.space	Key.space	n/a
484.8935	0.179	969787	keystroke_m	m	n/a
485.0945	0.137	970189	keystroke_a	a	n/a
485.2845	0.07	970569	keystroke_t	t	n/a
485.3755	0.113	970751	keystroke_t	t	n/a
486.2325	0.181	972465	keystroke_e	e	n/a
486.3445	0.182	972689	keystroke_r	r	n/a
486.5025	0.116	973005	keystroke_s	s	n/a
486.5715	0.159	973143	keystroke_Key.space	Key.space	n/a
486.7675	0.136	973535	keystroke_h	h	n/a
486.8585	0.204	973717	keystroke_a	a	n/a
487.0165	0.16	974033	keystroke_s	s	n/a
