onset	duration	sample	value	key	prompt_text
1.2995	7.6675	2599	prompt	n/a	the quick brown fox jumps over a lazy dog\n
2.845	0.028	5690	keystroke_t	t	n/a
2.888	0.075	5776	keystroke_h	h	n/a
2.993	0.075	5986	keystroke_e	e	n/a
3.053	0.09	6106	keystroke_Key.space	Key.space	n/a
3.2635	0.09	6527	keystroke_q	q	n/a
3.3685	0.135	6737	keystroke_u	u	n/a
3.5045	0.089	7009	keystroke_i	i	n/a
3.728	0.075	7456	keystroke_c	c	n/a
3.848	0.135	7696	keystroke_k	k	n/a
3.968	0.105	7936	keystroke_Key.space	Key.space	n/a
4.238	0.06	8476	keystroke_b	b	n/a
4.418	0.09	8836	keystroke_r	r	n/a
4.568	0.1205	9136	keystroke_o	o	n/a
4.7035	0.09	9407	keystroke_w	w	n/a
4.8385	0.105	9677	keystroke_n	n	n/a
4.9435	0.09	9887	keystroke_Key.space	Key.space	n/a
5.244	0.059	10488	keystroke_f	f	n/a
5.408	0.09	10816	keystroke_o	o	n/a
5.513	0.091	11026	keystroke_x	x	n/a
5.618	0.106	11236	keystroke_Key.space	Key.space	n/a
5.709	0.105	11418	keystroke_j	j	n/a
5.858	0.076	11716	keystroke_u	u	n/a
6.009	0.075	12018	keystroke_m	m	n/a
6.114	0.105	12228	keystroke_p	p	n/a
6.234	0.092	12468	keystroke_s	s	n/a
6.341	0.119	12682	keystroke_Key.space	Key.space	n/a
6.505	0.105	13010	keystroke_o	o	n/a
6.625	0.09	13250	keystroke_v	v	n/a
6.73	0.119	13460	keystroke_e	e	n/a
6.819	0.106	13638	keystroke_r	r	n/a
6.894	0.09	13788	keystroke_Key.space	Key.space	n/a
7.374	0.075	14748	keystroke_a	a	n/a
7.419	0.09	14838	keystroke_Key.space	Key.space	n/a
7.57	0.105	15140	keystroke_l	l	n/a
7.735	0.0895	15470	keystroke_a	a	n/a
7.929	0.091	15858	keystroke_z	z	n/a
8.004	0.105	16008	keystroke_y	y	n/a
8.094	0.061	16188	keystroke_Key.space	Key.space	n/a
8.485	0.059	16970	keystroke_d	d	n/a
8.575	0.09	17150	keystroke_o	o	n/a
8.695	0.06	17390	keystroke_g	g	n/a
8.89	0.074	17780	keystroke_Key.enter	Key.enter	n/a
8.971	6.7305	17942	prompt	n/a	counseling future ecommerce poison\n
9.76	0.0895	19520	keystroke_c	c	n/a
9.8345	0.0905	19669	keystroke_o	o	n/a
9.8945	0.0905	19789	keystroke_u	u	n/a
10.045	0.075	20090	keystroke_n	n	n/a
10.15	0.105	20300	keystroke_s	s	n/a
10.3	0.09	20600	keystroke_e	e	n/a
10.42	0.12	20840	keystroke_l	l	n/a
10.525	0.105	21050	keystroke_i	i	n/a
10.57	0.09	21140	keystroke_n	n	n/a
10.675	0.06	21350	keystroke_g	g	n/a
10.75	0.09	21500	keystroke_Key.space	Key.space	n/a
11.395	0.06	22790	keystroke_f	f	n/a
11.515	0.06	23030	keystroke_u	u	n/a
11.664	0.046	23328	keystroke_t	t	n/a
11.814	0.061	23628	keystroke_u	u	n/a
11.904	0.1355	23808	keystroke_r	r	n/a
12.0245	0.09	24049	keystroke_e	e	n/a
12.1295	0.075	24259	keystroke_Key.space	Key.space	n/a
12.3095	0.105	24619	keystroke_c	c	n/a
12.6395	0.06	25279	keystroke_Key.backspace	Key.backspace	n/a
12.7145	0.075	25429	keystroke_e	e	n/a
12.9245	0.105	25849	keystroke_c	c	n/a
13.0595	0.135	26119	keystroke_o	o	n/a
13.1645	0.075	26329	keystroke_m	m	n/a
13.2995	0.075	26599	keystroke_m	m	n/a
13.419	0.105	26838	keystroke_e	e	n/a
13.495	0.104	26990	keystroke_r	r	n/a
13.779	0.0605	27558	keystroke_c	c	n/a
13.959	0.0455	27918	keystroke_e	e	n/a
14.0345	0.075	28069	keystroke_Key.space	Key.space	n/a
14.229	0.135	28458	keystroke_p	p	n/a
14.334	0.135	28668	keystroke_o	o	n/a
14.514	0.0305	29028	keystroke_s	s	n/a
14.935	0.03	29870	keystroke_Key.backspace	Key.backspace	n/a
15.13	0.06	30260	keystroke_i	i	n/a
15.2495	0.0755	30499	keystroke_s	s	n/a
15.34	0.1045	30680	keystroke_o	o	n/a
15.4145	0.105	30829	keystroke_n	n	n/a
15.6395	0.06	31279	keystroke_Key.enter	Key.enter	n/a
15.7055	6.6565	31411	prompt	n/a	pens infringement attacked measurements\n
16.4645	0.075	32929	keystroke_p	p	n/a
16.5095	0.09	33019	keystroke_e	e	n/a
16.6295	0.09	33259	keystroke_n	n	n/a
16.7645	0.075	33529	keystroke_s	s	n/a
16.8545	0.135	33709	keystroke_Key.space	Key.space	n/a
17.455	0.0895	34910	keystroke_i	i	n/a
17.515	0.105	35030	keystroke_n	n	n/a
17.7245	0.0905	35449	keystroke_f	f	n/a
17.995	0.015	35990	keystroke_r	r	n/a
18.025	0.12	36050	keystroke_i	i	n/a
18.1	0.105	36200	keystroke_n	n	n/a
18.25	0.09	36500	keystroke_g	g	n/a
18.445	0.105	36890	keystroke_e	e	n/a
18.625	0.075	37250	keystroke_m	m	n/a
18.7145	0.105	37429	keystroke_e	e	n/a
18.8495	0.075	37699	keystroke_n	n	n/a
18.9395	0.06	37879	keystroke_t	t	n/a
19.0895	0.09	38179	keystroke_Key.space	Key.space	n/a
19.3295	0.12	38659	keystroke_a	a	n/a
19.5095	0.06	39019	keystroke_t	t	n/a
19.6295	0.09	39259	keystroke_t	t	n/a
19.7045	0.105	39409	keystroke_a	a	n/a
19.8845	0.075	39769	keystroke_c	c	n/a
19.9745	0.09	39949	keystroke_h	h	n/a
20.0945	0.075	40189	keystroke_e	e	n/a
20.2445	0.075	40489	keystroke_d	d	n/a
20.3345	0.075	40669	keystroke_Key.space	Key.space	n/a
20.5145	0.075	41029	keystroke_m	m	n/a
20.6795	0.105	41359	keystroke_e	e	n/a
20.8295	0.12	41659	keystroke_a	a	n/a
20.9645	0.09	41929	keystroke_s	s	n/a
21.0995	0.0755	42199	keystroke_u	u	n/a
21.2495	0.1355	42499	keystroke_r	r	n/a
21.37	0.105	42740	keystroke_e	e	n/a
21.55	0.0895	43100	keystroke_m	m	n/a
21.625	0.1045	43250	keystroke_e	e	n/a
21.8195	0.075	43639	keystroke_n	n	n/a
21.9695	0.06	43939	keystroke_t	t	n/a
22.1345	0.1055	44269	keystroke_s	s	n/a
22.285	0.075	44570	keystroke_Key.enter	Key.enter	n/a
22.366	5.2455	44732	prompt	n/a	mileage approval walked vendor\n
22.885	0.135	45770	keystroke_m	m	n/a
23.035	0.165	46070	keystroke_i	i	n/a
23.155	0.135	46310	keystroke_l	l	n/a
23.275	0.06	46550	keystroke_e	e	n/a
23.38	0.18	46760	keystroke_a	a	n/a
23.53	0.105	47060	keystroke_g	g	n/a
23.59	0.105	47180	keystroke_e	e	n/a
23.695	0.105	47390	keystroke_Key.space	Key.space	n/a
23.845	0.105	47690	keystroke_a	a	n/a
23.935	0.06	47870	keystroke_p	p	n/a
24.055	0.105	48110	keystroke_p	p	n/a
24.145	0.075	48290	keystroke_r	r	n/a
24.265	0.075	48530	keystroke_o	o	n/a
24.415	0.09	48830	keystroke_v	v	n/a
24.49	0.12	48980	keystroke_a	a	n/a
24.64	0.12	49280	keystroke_l	l	n/a
24.775	0.09	49550	keystroke_Key.space	Key.space	n/a
25.045	0.09	50090	keystroke_w	w	n/a
25.15	0.12	50300	keystroke_a	a	n/a
25.255	0.12	50510	keystroke_l	l	n/a
25.345	0.09	50690	keystroke_k	k	n/a
25.39	0.1495	50780	keystroke_e	e	n/a
25.6595	0.045	51319	keystroke_d	d	n/a
25.81	0.0595	51620	keystroke_Key.space	Key.space	n/a
26.05	0.09	52100	keystroke_v	v	n/a
26.155	0.1345	52310	keystroke_e	e	n/a
26.305	0.0895	52610	keystroke_n	n	n/a
26.695	0.09	53390	keystroke_d	d	n/a
26.74	0.105	53480	keystroke_o	o	n/a
27.2645	0.06	54529	keystroke_r	r	n/a
27.5495	0.06	55099	keystroke_Key.enter	Key.enter	n/a
27.615	7.3315	55230	prompt	n/a	considerable contact replica adaptive\n
28.3145	0.076	56629	keystroke_c	c	n/a
28.3755	0.104	56751	keystroke_o	o	n/a
28.4495	0.09	56899	keystroke_n	n	n/a
28.7655	0.089	57531	keystroke_s	s	n/a
28.9155	0.075	57831	keystroke_i	i	n/a
29.1095	0.061	58219	keystroke_d	d	n/a
29.2455	0.104	58491	keystroke_e	e	n/a
29.3205	0.105	58641	keystroke_r	r	n/a
29.4995	0.12	58999	keystroke_a	a	n/a
29.6655	0.075	59331	keystroke_b	b	n/a
29.7705	0.12	59541	keystroke_l	l	n/a
29.9055	0.06	59811	keystroke_e	e	n/a
29.9945	0.105	59989	keystroke_Key.space	Key.space	n/a
30.2505	0.105	60501	keystroke_c	c	n/a
30.3405	0.105	60681	keystroke_o	o	n/a
30.4145	0.106	60829	keystroke_n	n	n/a
30.5805	0.119	61161	keystroke_t	t	n/a
30.7605	0.074	61521	keystroke_a	a	n/a
30.9555	0.0745	61911	keystroke_c	c	n/a
31.315	0.06	62630	keystroke_t	t	n/a
31.42	0.09	62840	keystroke_Key.space	Key.space	n/a
31.75	0.135	63500	keystroke_r	r	n/a
31.84	0.105	63680	keystroke_e	e	n/a
32.035	0.165	64070	keystroke_p	p	n/a
32.485	0.09	64970	keystroke_l	l	n/a
32.56	0.09	65120	keystroke_i	i	n/a
32.71	0.075	65420	keystroke_c	c	n/a
32.815	0.105	65630	keystroke_a	a	n/a
32.92	0.105	65840	keystroke_Key.space	Key.space	n/a
33.22	0.015	66440	keystroke_a	a	n/a
33.265	0.09	66530	keystroke_d	d	n/a
33.385	0.105	66770	keystroke_a	a	n/a
33.58	0.09	67160	keystroke_p	p	n/a
33.865	0.105	67730	keystroke_t	t	n/a
33.955	0.15	67910	keystroke_a	a	n/a
34.285	0.045	68570	keystroke_Key.backspace	Key.backspace	n/a
34.51	0.045	69020	keystroke_i	i	n/a
34.585	0.09	69170	keystroke_v	v	n/a
34.645	0.0905	69290	keystroke_e	e	n/a
34.8705	0.075	69741	keystroke_Key.enter	Key.enter	n/a
34.9505	4.7065	69901	prompt	n/a	hearts kitty bless sticker\n
35.56	0.075	71120	keystroke_h	h	n/a
35.62	0.075	71240	keystroke_e	e	n/a
35.71	0.1495	71420	keystroke_a	a	n/a
35.8305	0.075	71661	keystroke_r	r	n/a
35.9945	0.0905	71989	keystroke_t	t	n/a
36.115	0.09	72230	keystroke_s	s	n/a
36.25	0.09	72500	keystroke_s	s	n/a
36.79	0.075	73580	keystroke_Key.backspace	Key.backspace	n/a
36.895	0.06	73790	keystroke_Key.space	Key.space	n/a
37.15	0.03	74300	keystroke_k	k	n/a
37.2545	0.06	74509	keystroke_i	i	n/a
37.3595	0.045	74719	keystroke_t	t	n/a
37.4645	0.075	74929	keystroke_t	t	n/a
37.5845	0.105	75169	keystroke_y	y	n/a
37.6445	0.06	75289	keystroke_Key.space	Key.space	n/a
37.9	0.045	75800	keystroke_b	b	n/a
38.14	0.075	76280	keystroke_l	l	n/a
38.29	0.105	76580	keystroke_e	e	n/a
38.38	0.06	76760	keystroke_s	s	n/a
38.515	0.105	77030	keystroke_s	s	n/a
38.605	0.09	77210	keystroke_Key.space	Key.space	n/a
38.74	0.105	77480	keystroke_s	s	n/a
38.92	0.075	77840	keystroke_t	t	n/a
39.025	0.075	78050	keystroke_i	i	n/a
39.16	0.075	78320	keystroke_c	c	n/a
39.25	0.075	78500	keystroke_k	k	n/a
39.385	0.075	78770	keystroke_e	e	n/a
39.4	0.12	78800	keystroke_r	r	n/a
39.58	0.075	79160	keystroke_Key.enter	Key.enter	n/a
39.661	7.6155	79322	prompt	n/a	gerald alaska behind obtained\n
40.27	0.075	80540	keystroke_g	g	n/a
40.375	0.18	80750	keystroke_e	e	n/a
40.54	0.09	81080	keystroke_r	r	n/a
40.645	0.12	81290	keystroke_a	a	n/a
40.735	0.105	81470	keystroke_l	l	n/a
40.945	0.06	81890	keystroke_d	d	n/a
41.02	0.09	82040	keystroke_Key.space	Key.space	n/a
41.185	0.105	82370	keystroke_a	a	n/a
41.32	0.105	82640	keystroke_l	l	n/a
41.41	0.12	82820	keystroke_a	a	n/a
41.725	0.06	83450	keystroke_s	s	n/a
41.8595	0.0605	83719	keystroke_k	k	n/a
41.98	0.1045	83960	keystroke_a	a	n/a
42.1295	0.0755	84259	keystroke_Key.space	Key.space	n/a
42.55	0.06	85100	keystroke_h	h	n/a
42.85	0.045	85700	keystroke_Key.backspace	Key.backspace	n/a
42.94	0.075	85880	keystroke_b	b	n/a
43.03	0.09	86060	keystroke_e	e	n/a
43.195	0.105	86390	keystroke_h	h	n/a
43.285	0.105	86570	keystroke_i	i	n/a
43.36	0.105	86720	keystroke_n	n	n/a
43.45	0.06	86900	keystroke_g	g	n/a
43.765	0.0445	87530	keystroke_Key.backspace	Key.backspace	n/a
43.8395	0.075	87679	keystroke_d	d	n/a
43.9595	0.075	87919	keystroke_Key.space	Key.space	n/a
44.4695	0.075	88939	keystroke_c	c	n/a
44.5005	0.06	89001	keystroke_o	o	n/a
45.13	0.045	90260	keystroke_Key.backspace	Key.backspace	n/a
45.25	0.06	90500	keystroke_Key.backspace	Key.backspace	n/a
45.49	0.03	90980	keystroke_o	o	n/a
45.55	0.075	91100	keystroke_b	b	n/a
45.8495	0.12	91699	keystroke_t	t	n/a
45.9545	0.121	91909	keystroke_a	a	n/a
46.0445	0.12	92089	keystroke_i	i	n/a
46.1355	0.089	92271	keystroke_n	n	n/a
46.6445	0.075	93289	keystroke_e	e	n/a
46.8105	0.074	93621	keystroke_d	d	n/a
47.1995	0.075	94399	keystroke_Key.enter	Key.enter	n/a
47.2815	7.345	94563	prompt	n/a	portraits finishing concerts measures\n
47.9345	0.09	95869	keystroke_p	p	n/a
48.0545	0.12	96109	keystroke_o	o	n/a
48.2645	0.076	96529	keystroke_r	r	n/a
48.4895	0.075	96979	keystroke_t	t	n/a
48.67	0.09	97340	keystroke_r	r	n/a
48.82	0.135	97640	keystroke_a	a	n/a
48.925	0.105	97850	keystroke_i	i	n/a
49.15	0.075	98300	keystroke_t	t	n/a
49.39	0.075	98780	keystroke_s	s	n/a
49.525	0.1195	99050	keystroke_Key.space	Key.space	n/a
49.8995	0.09	99799	keystroke_f	f	n/a
50.0495	0.1355	100099	keystroke_i	i	n/a
50.14	0.09	100280	keystroke_n	n	n/a
50.245	0.09	100490	keystroke_i	i	n/a
50.365	0.075	100730	keystroke_s	s	n/a
50.485	0.045	100970	keystroke_h	h	n/a
50.62	0.105	101240	keystroke_i	i	n/a
50.68	0.105	101360	keystroke_n	n	n/a
50.815	0.06	101630	keystroke_g	g	n/a
50.905	0.075	101810	keystroke_Key.space	Key.space	n/a
51.13	0.06	102260	keystroke_c	c	n/a
51.175	0.09	102350	keystroke_o	o	n/a
51.235	0.075	102470	keystroke_n	n	n/a
51.4605	0.015	102921	keystroke_e	e	n/a
51.85	0.03	103700	keystroke_Key.backspace	Key.backspace	n/a
51.97	0.045	103940	keystroke_Key.backspace	Key.backspace	n/a
52.42	0.045	104840	keystroke_n	n	n/a
52.57	0.075	105140	keystroke_c	c	n/a
52.735	0.0895	105470	keystroke_e	e	n/a
52.7945	0.09	105589	keystroke_r	r	n/a
52.9745	0.15	105949	keystroke_t	t	n/a
53.1395	0.12	106279	keystroke_s	s	n/a
53.3045	0.09	106609	keystroke_Key.space	Key.space	n/a
53.4395	0.075	106879	keystroke_m	m	n/a
53.5155	0.104	107031	keystroke_e	e	n/a
53.5895	0.151	107179	keystroke_a	a	n/a
53.8	0.09	107600	keystroke_s	s	n/a
53.92	0.075	107840	keystroke_u	u	n/a
54.025	0.105	108050	keystroke_r	r	n/a
54.1	0.1055	108200	keystroke_e	e	n/a
54.3855	0.075	108771	keystroke_s	s	n/a
54.5655	0.06	109131	keystroke_Key.enter	Key.enter	n/a
54.6295	4.947	109259	prompt	n/a	conjunction camel norm fonts\n
55.2405	0.075	110481	keystroke_c	c	n/a
55.3005	0.105	110601	keystroke_o	o	n/a
55.3905	0.074	110781	keystroke_n	n	n/a
55.585	0.0605	111170	keystroke_j	j	n/a
55.705	0.075	111410	keystroke_u	u	n/a
55.81	0.09	111620	keystroke_s	s	n/a
56.11	0.03	112220	keystroke_Key.backspace	Key.backspace	n/a
56.17	0.09	112340	keystroke_c	c	n/a
56.3655	0.0445	112731	keystroke_t	t	n/a
56.44	0.105	112880	keystroke_i	i	n/a
56.515	0.0905	113030	keystroke_o	o	n/a
56.575	0.09	113150	keystroke_n	n	n/a
56.74	0.09	113480	keystroke_Key.space	Key.space	n/a
57.28	0.09	114560	keystroke_c	c	n/a
57.385	0.12	114770	keystroke_a	a	n/a
57.52	0.045	115040	keystroke_m	m	n/a
57.595	0.06	115190	keystroke_e	e	n/a
57.7595	0.075	115519	keystroke_l	l	n/a
57.9845	0.09	115969	keystroke_Key.space	Key.space	n/a
58.27	0.105	116540	keystroke_n	n	n/a
58.345	0.105	116690	keystroke_o	o	n/a
58.465	0.06	116930	keystroke_r	r	n/a
58.585	0.105	117170	keystroke_m	m	n/a
58.7355	0.074	117471	keystroke_Key.space	Key.space	n/a
58.8855	0.105	117771	keystroke_f	f	n/a
58.9755	0.12	117951	keystroke_o	o	n/a
59.0805	0.074	118161	keystroke_n	n	n/a
59.1855	0.09	118371	keystroke_t	t	n/a
59.3505	0.12	118701	keystroke_s	s	n/a
59.5605	0.015	119121	keystroke_Key.enter	Key.enter	n/a
59.58	7.962	119160	prompt	n/a	latin designing commission gamespot\n
60.49	0.075	120980	keystroke_l	l	n/a
60.55	0.135	121100	keystroke_a	a	n/a
60.67	0.09	121340	keystroke_t	t	n/a
60.775	0.105	121550	keystroke_i	i	n/a
60.85	0.105	121700	keystroke_n	n	n/a
60.97	0.045	121940	keystroke_g	g	n/a
61.33	0.075	122660	keystroke_Key.backspace	Key.backspace	n/a
61.42	0.06	122840	keystroke_Key.space	Key.space	n/a
61.84	0.075	123680	keystroke_d	d	n/a
62.215	0.075	124430	keystroke_e	e	n/a
62.41	0.075	124820	keystroke_s	s	n/a
62.605	0.09	125210	keystroke_i	i	n/a
62.7855	0.0295	125571	keystroke_g	g	n/a
62.845	0.105	125690	keystroke_i	i	n/a
62.92	0.105	125840	keystroke_n	n	n/a
63.76	0.0595	127520	keystroke_Key.backspace	Key.backspace	n/a
63.8955	0.06	127791	keystroke_Key.backspace	Key.backspace	n/a
64.0895	0.075	128179	keystroke_n	n	n/a
64.1655	0.12	128331	keystroke_i	i	n/a
64.2555	0.075	128511	keystroke_n	n	n/a
64.3455	0.059	128691	keystroke_g	g	n/a
64.4495	0.091	128899	keystroke_Key.space	Key.space	n/a
64.8855	0.074	129771	keystroke_c	c	n/a
64.9145	0.106	129829	keystroke_o	o	n/a
64.9755	0.0895	129951	keystroke_m	m	n/a
65.14	0.09	130280	keystroke_m	m	n/a
65.2745	0.06	130549	keystroke_i	i	n/a
65.3495	0.075	130699	keystroke_s	s	n/a
65.5145	0.061	131029	keystroke_s	s	n/a
65.5595	0.106	131119	keystroke_i	i	n/a
65.6345	0.09	131269	keystroke_o	o	n/a
65.7095	0.105	131419	keystroke_n	n	n/a
65.8445	0.12	131689	keystroke_Key.space	Key.space	n/a
66.1155	0.104	132231	keystroke_g	g	n/a
66.1905	0.134	132381	keystroke_a	a	n/a
66.3105	0.09	132621	keystroke_m	m	n/a
66.4605	0.06	132921	keystroke_e	e	n/a
66.6255	0.105	133251	keystroke_s	s	n/a
66.8955	0.105	133791	keystroke_p	p	n/a
67.0605	0.045	134121	keystroke_o	o	n/a
67.2555	0.06	134511	keystroke_t	t	n/a
67.5105	0.03	135021	keystroke_Key.enter	Key.enter	n/a
67.546	4.7655	135092	prompt	n/a	along browser cotton quizzes\n
68.17	0.12	136340	keystroke_a	a	n/a
68.305	0.075	136610	keystroke_l	l	n/a
68.455	0.09	136910	keystroke_o	o	n/a
68.53	0.09	137060	keystroke_n	n	n/a
68.605	0.0605	137210	keystroke_g	g	n/a
68.68	0.105	137360	keystroke_Key.space	Key.space	n/a
68.935	0.06	137870	keystroke_b	b	n/a
69.115	0.0905	138230	keystroke_r	r	n/a
69.2055	0.09	138411	keystroke_o	o	n/a
69.3095	0.091	138619	keystroke_w	w	n/a
69.4905	0.075	138981	keystroke_s	s	n/a
69.6095	0.135	139219	keystroke_e	e	n/a
69.7155	0.089	139431	keystroke_r	r	n/a
69.8495	0.09	139699	keystroke_Key.space	Key.space	n/a
70.0595	0.075	140119	keystroke_c	c	n/a
70.1495	0.09	140299	keystroke_o	o	n/a
70.2705	0.06	140541	keystroke_t	t	n/a
70.39	0.0755	140780	keystroke_t	t	n/a
70.4505	0.1495	140901	keystroke_o	o	n/a
70.585	0.09	141170	keystroke_n	n	n/a
70.66	0.09	141320	keystroke_Key.space	Key.space	n/a
70.975	0.03	141950	keystroke_q	q	n/a
71.05	0.15	142100	keystroke_u	u	n/a
71.155	0.12	142310	keystroke_i	i	n/a
71.4555	0.03	142911	keystroke_z	z	n/a
71.5605	0.105	143121	keystroke_z	z	n/a
71.83	0.075	143660	keystroke_e	e	n/a
72.01	0.105	144020	keystroke_s	s	n/a
72.235	0.075	144470	keystroke_Key.enter	Key.enter	n/a
72.315	6.2665	144630	prompt	n/a	separated definitions meet captured\n
73.075	0.12	146150	keystroke_s	s	n/a
73.165	0.09	146330	keystroke_e	e	n/a
73.33	0.105	146660	keystroke_p	p	n/a
73.42	0.15	146840	keystroke_a	a	n/a
73.585	0.09	147170	keystroke_r	r	n/a
73.78	0.195	147560	keystroke_a	a	n/a
73.99	0.135	147980	keystroke_t	t	n/a
74.125	0.075	148250	keystroke_e	e	n/a
74.305	0.06	148610	keystroke_d	d	n/a
74.395	0.12	148790	keystroke_Key.space	Key.space	n/a
74.53	0.0595	149060	keystroke_e	e	n/a
74.8155	0.059	149631	keystroke_Key.backspace	Key.backspace	n/a
74.9055	0.059	149811	keystroke_d	d	n/a
75.0095	0.09	150019	keystroke_e	e	n/a
75.1895	0.09	150379	keystroke_f	f	n/a
75.295	0.12	150590	keystroke_i	i	n/a
75.385	0.105	150770	keystroke_n	n	n/a
75.505	0.12	151010	keystroke_i	i	n/a
75.8205	0.045	151641	keystroke_t	t	n/a
76.1805	0.12	152361	keystroke_i	i	n/a
76.2705	0.12	152541	keystroke_o	o	n/a
76.3455	0.09	152691	keystroke_n	n	n/a
76.4645	0.075	152929	keystroke_s	s	n/a
76.5995	0.09	153199	keystroke_Key.space	Key.space	n/a
76.8095	0.076	153619	keystroke_m	m	n/a
76.8705	0.045	153741	keystroke_e	e	n/a
77.0045	0.135	154009	keystroke_e	e	n/a
77.1245	0.091	154249	keystroke_t	t	n/a
77.2295	0.075	154459	keystroke_Key.space	Key.space	n/a
77.4695	0.091	154939	keystroke_c	c	n/a
77.5905	0.12	155181	keystroke_a	a	n/a
77.7245	0.09	155449	keystroke_p	p	n/a
77.8595	0.061	155719	keystroke_t	t	n/a
78.0095	0.075	156019	keystroke_u	u	n/a
78.0995	0.105	156199	keystroke_r	r	n/a
78.1755	0.09	156351	keystroke_e	e	n/a
78.3545	0.075	156709	keystroke_d	d	n/a
78.5205	0.06	157041	keystroke_Key.enter	Key.enter	n/a
78.5845	7.4225	157169	prompt	n/a	musical raleigh typical surfaces\n
79.1505	0.089	158301	keystroke_m	m	n/a
79.3755	0.059	158751	keystroke_u	u	n/a
79.4645	0.09	158929	keystroke_s	s	n/a
79.63	0.06	159260	keystroke_i	i	n/a
79.78	0.09	159560	keystroke_c	c	n/a
79.885	0.12	159770	keystroke_a	a	n/a
79.99	0.1045	159980	keystroke_l	l	n/a
80.0795	0.09	160159	keystroke_Key.space	Key.space	n/a
80.2145	0.0905	160429	keystroke_r	r	n/a
80.47	0.09	160940	keystroke_a	a	n/a
80.605	0.1045	161210	keystroke_l	l	n/a
80.9195	0.06	161839	keystroke_a	a	n/a
81.2205	0.045	162441	keystroke_Key.backspace	Key.backspace	n/a
81.2955	0.09	162591	keystroke_e	e	n/a
81.4755	0.06	162951	keystroke_i	i	n/a
81.7905	0.045	163581	keystroke_g	g	n/a
81.9105	0.045	163821	keystroke_h	h	n/a
82.6145	0.09	165229	keystroke_Key.space	Key.space	n/a
83.065	0.075	166130	keystroke_t	t	n/a
83.8005	0.105	167601	keystroke_y	y	n/a
84.0095	0.105	168019	keystroke_p	p	n/a
84.22	0.06	168440	keystroke_i	i	n/a
84.34	0.09	168680	keystroke_c	c	n/a
84.46	0.09	168920	keystroke_a	a	n/a
84.535	0.09	169070	keystroke_l	l	n/a
84.595	0.09	169190	keystroke_Key.space	Key.space	n/a
84.79	0.105	169580	keystroke_s	s	n/a
84.91	0.06	169820	keystroke_u	u	n/a
85.015	0.06	170030	keystroke_r	r	n/a
85.18	0.105	170360	keystroke_f	f	n/a
85.3	0.0895	170600	keystroke_a	a	n/a
85.4655	0.074	170931	keystroke_c	c	n/a
85.6445	0.135	171289	keystroke_e	e	n/a
85.7645	0.1355	171529	keystroke_s	s	n/a
85.915	0.09	171830	keystroke_Key.enter	Key.enter	n/a
86.0105	5.6965	172021	prompt	n/a	struck revisions global warehouse\n
86.575	0.105	173150	keystroke_s	s	n/a
86.77	0.06	173540	keystroke_t	t	n/a
87.01	0.015	174020	keystroke_r	r	n/a
87.04	0.06	174080	keystroke_u	u	n/a
87.1595	0.106	174319	keystroke_c	c	n/a
87.46	0.105	174920	keystroke_k	k	n/a
87.55	0.105	175100	keystroke_Key.space	Key.space	n/a
87.745	0.12	175490	keystroke_r	r	n/a
87.85	0.105	175700	keystroke_e	e	n/a
88.15	0.06	176300	keystroke_v	v	n/a
88.285	0.075	176570	keystroke_i	i	n/a
88.405	0.06	176810	keystroke_s	s	n/a
88.51	0.12	177020	keystroke_i	i	n/a
88.6	0.105	177200	keystroke_o	o	n/a
88.675	0.105	177350	keystroke_n	n	n/a
88.795	0.09	177590	keystroke_s	s	n/a
88.9	0.09	177800	keystroke_Key.space	Key.space	n/a
89.185	0.06	178370	keystroke_g	g	n/a
89.29	0.075	178580	keystroke_l	l	n/a
89.44	0.075	178880	keystroke_o	o	n/a
89.635	0.045	179270	keystroke_b	b	n/a
89.725	0.105	179450	keystroke_a	a	n/a
89.86	0.09	179720	keystroke_l	l	n/a
89.95	0.09	179900	keystroke_Key.space	Key.space	n/a
90.3545	0.09	180709	keystroke_w	w	n/a
90.4745	0.151	180949	keystroke_a	a	n/a
90.5795	0.121	181159	keystroke_r	r	n/a
90.6855	0.105	181371	keystroke_e	e	n/a
90.8805	0.104	181761	keystroke_h	h	n/a
90.9695	0.135	181939	keystroke_o	o	n/a
91.0595	0.135	182119	keystroke_u	u	n/a
91.2095	0.09	182419	keystroke_s	s	n/a
91.2695	0.15	182539	keystroke_e	e	n/a
91.6295	0.075	183259	keystroke_Key.enter	Key.enter	n/a
91.71	5.8465	183420	prompt	n/a	ultimately regularly deep incorrect\n
92.2745	0.076	184549	keystroke_u	u	n/a
92.4105	0.12	184821	keystroke_l	l	n/a
92.7555	0.045	185511	keystroke_t	t	n/a
92.8305	0.075	185661	keystroke_i	i	n/a
92.9355	0.09	185871	keystroke_m	m	n/a
93.0555	0.15	186111	keystroke_a	a	n/a
93.1905	0.105	186381	keystroke_t	t	n/a
93.2805	0.1345	186561	keystroke_e	e	n/a
93.416	0.104	186832	keystroke_l	l	n/a
93.475	0.12	186950	keystroke_y	y	n/a
93.565	0.075	187130	keystroke_Key.space	Key.space	n/a
93.8355	0.12	187671	keystroke_r	r	n/a
93.9255	0.12	187851	keystroke_e	e	n/a
94.1355	0.06	188271	keystroke_g	g	n/a
94.2405	0.09	188481	keystroke_u	u	n/a
94.3755	0.135	188751	keystroke_l	l	n/a
94.4955	0.135	188991	keystroke_a	a	n/a
94.5705	0.12	189141	keystroke_r	r	n/a
94.9605	0.104	189921	keystroke_l	l	n/a
95.1245	0.105	190249	keystroke_y	y	n/a
95.1855	0.074	190371	keystroke_Key.space	Key.space	n/a
95.4105	0.06	190821	keystroke_d	d	n/a
95.5605	0.09	191121	keystroke_e	e	n/a
95.6955	0.089	191391	keystroke_e	e	n/a
95.89	0.075	191780	keystroke_p	p	n/a
95.995	0.09	191990	keystroke_Key.space	Key.space	n/a
96.22	0.105	192440	keystroke_i	i	n/a
96.31	0.09	192620	keystroke_n	n	n/a
96.535	0.075	193070	keystroke_c	c	n/a
96.625	0.09	193250	keystroke_o	o	n/a
96.76	0.075	193520	keystroke_r	r	n/a
96.895	0.12	193790	keystroke_r	r	n/a
97	0.075	194000	keystroke_e	e	n/a
97.21	0.075	194420	keystroke_c	c	n/a
97.36	0.06	194720	keystroke_t	t	n/a
97.495	0.06	194990	keystroke_Key.enter	Key.enter	n/a
97.561	6.8355	195122	prompt	n/a	copy tries vary berkeley\n
98.14	0.06	196280	keystroke_c	c	n/a
98.185	0.105	196370	keystroke_o	o	n/a
98.44	0.21	196880	keystroke_p	p	n/a
98.635	0.075	197270	keystroke_y	y	n/a
98.695	0.075	197390	keystroke_Key.space	Key.space	n/a
98.965	0.06	197930	keystroke_t	t	n/a
99.145	0.09	198290	keystroke_r	r	n/a
99.295	0.075	198590	keystroke_i	i	n/a
99.4	0.075	198800	keystroke_e	e	n/a
99.64	0.075	199280	keystroke_s	s	n/a
99.73	0.0905	199460	keystroke_Key.space	Key.space	n/a
99.9855	0.0745	199971	keystroke_v	v	n/a
100.075	0.165	200150	keystroke_a	a	n/a
100.225	0.075	200450	keystroke_r	r	n/a
100.3755	0.105	200751	keystroke_y	y	n/a
100.4655	0.059	200931	keystroke_Key.space	Key.space	n/a
100.9005	0.074	201801	keystroke_b	b	n/a
101.0805	0.149	202161	keystroke_e	e	n/a
101.2145	0.075	202429	keystroke_r	r	n/a
101.3655	0.074	202731	keystroke_k	k	n/a
101.4555	0.134	202911	keystroke_e	e	n/a
101.6345	0.15	203269	keystroke_l	l	n/a
101.7545	0.105	203509	keystroke_y	y	n/a
103.2705	0.015	206541	keystroke_Key.backspace	Key.backspace	n/a
103.6005	0.03	207201	keystroke_y	y	n/a
103.93	0.045	207860	keystroke_Key.backspace	Key.backspace	n/a
104.035	0.06	208070	keystroke_e	e	n/a
104.14	0.06	208280	keystroke_y	y	n/a
104.32	0.075	208640	keystroke_Key.enter	Key.enter	n/a
104.4	5.1715	208800	prompt	n/a	saves cookbook locations laura\n
105.1	0.09	210200	keystroke_s	s	n/a
105.295	0.015	210590	keystroke_a	a	n/a
105.34	0.135	210680	keystroke_v	v	n/a
105.505	0.075	211010	keystroke_e	e	n/a
105.685	0.075	211370	keystroke_s	s	n/a
105.79	0.075	211580	keystroke_Key.space	Key.space	n/a
106.015	0.075	212030	keystroke_c	c	n/a
106.075	0.075	212150	keystroke_o	o	n/a
106.21	0.15	212420	keystroke_o	o	n/a
106.315	0.09	212630	keystroke_k	k	n/a
106.555	0.045	213110	keystroke_b	b	n/a
106.615	0.045	213230	keystroke_o	o	n/a
106.72	0.135	213440	keystroke_o	o	n/a
106.81	0.12	213620	keystroke_k	k	n/a
106.915	0.09	213830	keystroke_Key.space	Key.space	n/a
107.2	0.045	214400	keystroke_c	c	n/a
107.5155	0.03	215031	keystroke_Key.backspace	Key.backspace	n/a
107.7115	0.059	215423	keystroke_l	l	n/a
107.8605	0.06	215721	keystroke_o	o	n/a
108.1755	0.09	216351	keystroke_c	c	n/a
108.2805	0.135	216561	keystroke_a	a	n/a
108.4005	0.074	216801	keystroke_t	t	n/a
108.4605	0.12	216921	keystroke_i	i	n/a
108.5505	0.09	217101	keystroke_o	o	n/a
108.5955	0.0895	217191	keystroke_n	n	n/a
108.6705	0.0745	217341	keystroke_s	s	n/a
108.775	0.105	217550	keystroke_Key.space	Key.space	n/a
108.955	0.09	217910	keystroke_l	l	n/a
109.03	0.105	218060	keystroke_a	a	n/a
109.15	0.045	218300	keystroke_u	u	n/a
109.285	0.12	218570	keystroke_r	r	n/a
109.42	0.09	218840	keystroke_a	a	n/a
109.495	0.075	218990	keystroke_Key.enter	Key.enter	n/a
109.575	4.722	219150	prompt	n/a	align vienna belfast stuck\n
110.0655	0.135	220131	keystroke_a	a	n/a
110.1855	0.12	220371	keystroke_l	l	n/a
110.3055	0.135	220611	keystroke_i	i	n/a
110.5755	0.045	221151	keystroke_g	g	n/a
110.8155	0.075	221631	keystroke_n	n	n/a
111.0255	0.075	222051	keystroke_Key.space	Key.space	n/a
111.2655	0.09	222531	keystroke_v	v	n/a
111.5205	0.075	223041	keystroke_i	i	n/a
111.6405	0.06	223281	keystroke_e	e	n/a
111.7455	0.06	223491	keystroke_n	n	n/a
111.8805	0.06	223761	keystroke_n	n	n/a
112.0305	0.12	224061	keystroke_a	a	n/a
112.1055	0.09	224211	keystroke_Key.space	Key.space	n/a
112.3755	0.059	224751	keystroke_b	b	n/a
112.5095	0.045	225019	keystroke_e	e	n/a
112.6295	0.09	225259	keystroke_l	l	n/a
112.7795	0.06	225559	keystroke_f	f	n/a
112.9745	0.12	225949	keystroke_a	a	n/a
113.1095	0.18	226219	keystroke_s	s	n/a
113.2595	0.061	226519	keystroke_t	t	n/a
113.3495	0.09	226699	keystroke_Key.space	Key.space	n/a
113.4695	0.2105	226939	keystroke_s	s	n/a
113.665	0.075	227330	keystroke_t	t	n/a
113.785	0.0745	227570	keystroke_u	u	n/a
113.9045	0.061	227809	keystroke_c	c	n/a
114.0105	0.075	228021	keystroke_k	k	n/a
114.2195	0.075	228439	keystroke_Key.enter	Key.enter	n/a
114.302	5.41	228604	prompt	n/a	inbox periodic beyond skilled\n
115.0605	0.12	230121	keystroke_i	i	n/a
115.1495	0.105	230299	keystroke_n	n	n/a
115.3445	0.061	230689	keystroke_b	b	n/a
115.4355	0.105	230871	keystroke_o	o	n/a
115.5705	0.09	231141	keystroke_x	x	n/a
115.6905	0.105	231381	keystroke_Key.space	Key.space	n/a
116.0355	0.09	232071	keystroke_p	p	n/a
116.0955	0.12	232191	keystroke_e	e	n/a
116.2005	0.09	232401	keystroke_r	r	n/a
116.3205	0.105	232641	keystroke_i	i	n/a
116.4105	0.135	232821	keystroke_o	o	n/a
116.6055	0.0895	233211	keystroke_d	d	n/a
116.725	0.075	233450	keystroke_i	i	n/a
116.845	0.09	233690	keystroke_c	c	n/a
117.01	0.075	234020	keystroke_Key.space	Key.space	n/a
117.415	0.06	234830	keystroke_b	b	n/a
117.8055	0.09	235611	keystroke_e	e	n/a
118.0905	0.105	236181	keystroke_y	y	n/a
118.2855	0.135	236571	keystroke_o	o	n/a
118.4055	0.105	236811	keystroke_n	n	n/a
118.5255	0.06	237051	keystroke_d	d	n/a
118.6305	0.09	237261	keystroke_Key.space	Key.space	n/a
118.7955	0.075	237591	keystroke_s	s	n/a
118.93	0.06	237860	keystroke_k	k	n/a
119.095	0.06	238190	keystroke_i	i	n/a
119.17	0.075	238340	keystroke_l	l	n/a
119.305	0.105	238610	keystroke_l	l	n/a
119.38	0.075	238760	keystroke_e	e	n/a
119.545	0.075	239090	keystroke_d	d	n/a
119.635	0.075	239270	keystroke_Key.enter	Key.enter	n/a
119.715	5.667	239430	prompt	n/a	mess normally uncertainty agent\n
120.265	0.105	240530	keystroke_m	m	n/a
120.355	0.045	240710	keystroke_e	e	n/a
120.46	0.09	240920	keystroke_s	s	n/a
120.595	0.09	241190	keystroke_s	s	n/a
120.67	0.105	241340	keystroke_Key.space	Key.space	n/a
120.805	0.105	241610	keystroke_n	n	n/a
120.925	0.1195	241850	keystroke_o	o	n/a
121.0295	0.075	242059	keystroke_r	r	n/a
121.1495	0.061	242299	keystroke_m	m	n/a
121.2245	0.09	242449	keystroke_a	a	n/a
121.3295	0.06	242659	keystroke_l	l	n/a
121.4505	0.149	242901	keystroke_l	l	n/a
121.5545	0.136	243109	keystroke_y	y	n/a
121.6745	0.06	243349	keystroke_Key.space	Key.space	n/a
121.795	0.0745	243590	keystroke_u	u	n/a
121.9445	0.076	243889	keystroke_n	n	n/a
122.0505	0.105	244101	keystroke_c	c	n/a
122.411	0.149	244822	keystroke_e	e	n/a
122.545	0.075	245090	keystroke_r	r	n/a
122.71	0.0745	245420	keystroke_t	t	n/a
122.815	0.1195	245630	keystroke_a	a	n/a
122.95	0.045	245900	keystroke_i	i	n/a
123.5805	0.075	247161	keystroke_n	n	n/a
123.9405	0.03	247881	keystroke_t	t	n/a
124.0905	0.06	248181	keystroke_y	y	n/a
124.1805	0.06	248361	keystroke_Key.space	Key.space	n/a
124.5705	0.105	249141	keystroke_a	a	n/a
124.6455	0.135	249291	keystroke_g	g	n/a
124.7655	0.105	249531	keystroke_e	e	n/a
124.9455	0.06	249891	keystroke_n	n	n/a
125.1555	0.06	250311	keystroke_t	t	n/a
125.3055	0.075	250611	keystroke_Key.enter	Key.enter	n/a
125.385	8.2315	250770	prompt	n/a	expressed senate logic examine\n
126.025	0.075	252050	keystroke_e	e	n/a
126.205	0.0895	252410	keystroke_x	x	n/a
126.2795	0.09	252559	keystroke_p	p	n/a
126.4455	0.105	252891	keystroke_r	r	n/a
126.5055	0.15	253011	keystroke_e	e	n/a
126.6405	0.12	253281	keystroke_s	s	n/a
126.7905	0.09	253581	keystroke_s	s	n/a
127.4955	0.045	254991	keystroke_e	e	n/a
127.6605	0.075	255321	keystroke_d	d	n/a
127.7655	0.074	255531	keystroke_Key.space	Key.space	n/a
127.9455	0.09	255891	keystroke_s	s	n/a
128.2005	0.09	256401	keystroke_e	e	n/a
128.3645	0.061	256729	keystroke_n	n	n/a
128.4855	0.134	256971	keystroke_a	a	n/a
128.6355	0.09	257271	keystroke_g	g	n/a
128.6955	0.09	257391	keystroke_e	e	n/a
129.0105	0.0745	258021	keystroke_Key.space	Key.space	n/a
129.22	0.06	258440	keystroke_l	l	n/a
129.37	0.06	258740	keystroke_o	o	n/a
129.49	0.0895	258980	keystroke_g	g	n/a
129.7445	0.045	259489	keystroke_Key.backspace	Key.backspace	n/a
129.8645	0.0755	259729	keystroke_Key.backspace	Key.backspace	n/a
130	0.0745	260000	keystroke_Key.backspace	Key.backspace	n/a
130.15	0.0595	260300	keystroke_Key.backspace	Key.backspace	n/a
130.2845	0.075	260569	keystroke_Key.backspace	Key.backspace	n/a
130.3895	0.136	260779	keystroke_t	t	n/a
130.5105	0.105	261021	keystroke_e	e	n/a
130.7655	0.03	261531	keystroke_Key.backspace	Key.backspace	n/a
130.9455	0.015	261891	keystroke_Key.backspace	Key.backspace	n/a
131.0055	0.105	262011	keystroke_Key.backspace	Key.backspace	n/a
131.0955	0.12	262191	keystroke_t	t	n/a
131.1855	0.105	262371	keystroke_e	e	n/a
131.3505	0.06	262701	keystroke_Key.space	Key.space	n/a
131.5155	0.075	263031	keystroke_l	l	n/a
131.7105	0.075	263421	keystroke_o	o	n/a
131.8605	0.075	263721	keystroke_g	g	n/a
131.9655	0.09	263931	keystroke_i	i	n/a
132.1455	0.06	264291	keystroke_c	c	n/a
132.4305	0.09	264861	keystroke_Key.space	Key.space	n/a
132.6555	0.0745	265311	keystroke_e	e	n/a
132.82	0.105	265640	keystroke_x	x	n/a
133	0.09	266000	keystroke_a	a	n/a
133.075	0.105	266150	keystroke_m	m	n/a
133.21	0.105	266420	keystroke_i	i	n/a
133.285	0.075	266570	keystroke_n	n	n/a
133.33	0.0755	266660	keystroke_e	e	n/a
133.525	0.09	267050	keystroke_Key.enter	Key.enter	n/a
133.6215	5.38	267243	prompt	n/a	more fotos breath complicated\n
134.275	0.105	268550	keystroke_m	m	n/a
134.35	0.12	268700	keystroke_o	o	n/a
134.455	0.105	268910	keystroke_r	r	n/a
134.515	0.12	269030	keystroke_e	e	n/a
134.605	0.105	269210	keystroke_Key.space	Key.space	n/a
134.755	0.09	269510	keystroke_f	f	n/a
134.83	0.075	269660	keystroke_o	o	n/a
135.025	0.06	270050	keystroke_t	t	n/a
135.31	0.06	270620	keystroke_o	o	n/a
135.4455	0.075	270891	keystroke_s	s	n/a
135.5955	0.119	271191	keystroke_Key.space	Key.space	n/a
136.2245	0.045	272449	keystroke_b	b	n/a
136.5695	0.105	273139	keystroke_r	r	n/a
136.7345	0.075	273469	keystroke_e	e	n/a
136.8395	0.15	273679	keystroke_a	a	n/a
136.9595	0.09	273919	keystroke_t	t	n/a
137.0945	0.09	274189	keystroke_h	h	n/a
137.1695	0.075	274339	keystroke_Key.space	Key.space	n/a
137.455	0.075	274910	keystroke_c	c	n/a
137.545	0.1495	275090	keystroke_o	o	n/a
137.6345	0.135	275269	keystroke_m	m	n/a
137.74	0.1655	275480	keystroke_p	p	n/a
137.9205	0.06	275841	keystroke_l	l	n/a
137.9955	0.105	275991	keystroke_i	i	n/a
138.1155	0.105	276231	keystroke_c	c	n/a
138.2355	0.15	276471	keystroke_a	a	n/a
138.4305	0.075	276861	keystroke_t	t	n/a
138.6255	0.105	277251	keystroke_e	e	n/a
138.7755	0.089	277551	keystroke_d	d	n/a
138.9095	0.09	277819	keystroke_Key.enter	Key.enter	n/a
139.0045	6.792	278009	prompt	n/a	assumption permit enormous metabolism\n
139.66	0.12	279320	keystroke_a	a	n/a
139.885	0.075	279770	keystroke_s	s	n/a
140.005	0.09	280010	keystroke_s	s	n/a
140.11	0.075	280220	keystroke_u	u	n/a
140.275	0.09	280550	keystroke_m	m	n/a
140.41	0.105	280820	keystroke_p	p	n/a
140.53	0.075	281060	keystroke_t	t	n/a
140.62	0.1195	281240	keystroke_i	i	n/a
140.6955	0.105	281391	keystroke_o	o	n/a
140.7555	0.12	281511	keystroke_n	n	n/a
140.8595	0.1205	281719	keystroke_Key.space	Key.space	n/a
141.025	0.105	282050	keystroke_p	p	n/a
141.145	0.09	282290	keystroke_e	e	n/a
141.22	0.105	282440	keystroke_r	r	n/a
141.37	0.075	282740	keystroke_m	m	n/a
141.52	0.09	283040	keystroke_i	i	n/a
141.67	0.06	283340	keystroke_t	t	n/a
141.76	0.105	283520	keystroke_Key.space	Key.space	n/a
141.955	0.06	283910	keystroke_e	e	n/a
142.075	0.075	284150	keystroke_n	n	n/a
142.195	0.15	284390	keystroke_o	o	n/a
142.285	0.075	284570	keystroke_u	u	n/a
142.99	0.03	285980	keystroke_Key.backspace	Key.backspace	n/a
143.095	0.06	286190	keystroke_r	r	n/a
143.275	0.09	286550	keystroke_m	m	n/a
143.395	0.105	286790	keystroke_o	o	n/a
143.485	0.06	286970	keystroke_u	u	n/a
143.8005	0.075	287601	keystroke_s	s	n/a
143.8905	0.09	287781	keystroke_Key.space	Key.space	n/a
144.115	0.0745	288230	keystroke_m	m	n/a
144.2055	0.075	288411	keystroke_e	e	n/a
144.3705	0.074	288741	keystroke_t	t	n/a
144.4895	0.105	288979	keystroke_a	a	n/a
144.6695	0.061	289339	keystroke_b	b	n/a
144.8645	0.091	289729	keystroke_o	o	n/a
145.0605	0.075	290121	keystroke_l	l	n/a
145.1955	0.089	290391	keystroke_i	i	n/a
145.3295	0.061	290659	keystroke_s	s	n/a
145.525	0.075	291050	keystroke_m	m	n/a
145.705	0.09	291410	keystroke_Key.enter	Key.enter	n/a
145.7995	6.7615	291599	prompt	n/a	defendant immunology distance blocked\n
146.41	0.075	292820	keystroke_d	d	n/a
146.5595	0.075	293119	keystroke_e	e	n/a
146.7095	0.075	293419	keystroke_f	f	n/a
146.8295	0.105	293659	keystroke_e	e	n/a
146.965	0.075	293930	keystroke_n	n	n/a
147.235	0.0745	294470	keystroke_d	d	n/a
147.325	0.135	294650	keystroke_a	a	n/a
147.475	0.06	294950	keystroke_n	n	n/a
147.5945	0.0455	295189	keystroke_t	t	n/a
147.685	0.105	295370	keystroke_Key.space	Key.space	n/a
147.8795	0.09	295759	keystroke_i	i	n/a
148.0445	0.075	296089	keystroke_m	m	n/a
148.1795	0.075	296359	keystroke_m	m	n/a
148.4345	0.061	296869	keystroke_u	u	n/a
148.6445	0.045	297289	keystroke_n	n	n/a
149.0195	0.06	298039	keystroke_o	o	n/a
149.1845	0.06	298369	keystroke_l	l	n/a
149.3195	0.075	298639	keystroke_o	o	n/a
149.4395	0.075	298879	keystroke_g	g	n/a
149.6045	0.075	299209	keystroke_y	y	n/a
149.6955	0.06	299391	keystroke_Key.space	Key.space	n/a
150.04	0.09	300080	keystroke_d	d	n/a
150.205	0.06	300410	keystroke_i	i	n/a
150.355	0.06	300710	keystroke_s	s	n/a
150.5045	0.075	301009	keystroke_t	t	n/a
150.6245	0.136	301249	keystroke_a	a	n/a
150.7895	0.06	301579	keystroke_n	n	n/a
150.8945	0.06	301789	keystroke_c	c	n/a
151.0745	0.075	302149	keystroke_e	e	n/a
151.1645	0.075	302329	keystroke_Key.space	Key.space	n/a
151.2995	0.06	302599	keystroke_b	b	n/a
151.3895	0.075	302779	keystroke_l	l	n/a
151.5395	0.075	303079	keystroke_o	o	n/a
151.7495	0.09	303499	keystroke_c	c	n/a
151.8695	0.06	303739	keystroke_k	k	n/a
151.9595	0.06	303919	keystroke_e	e	n/a
152.1095	0.075	304219	keystroke_d	d	n/a
152.4845	0.075	304969	keystroke_Key.enter	Key.enter	n/a
152.564	5.217	305128	prompt	n/a	diving lawsuit brazilian mali\n
153.3095	0.075	306619	keystroke_d	d	n/a
153.3995	0.075	306799	keystroke_i	i	n/a
153.5045	0.09	307009	keystroke_v	v	n/a
153.6095	0.09	307219	keystroke_i	i	n/a
153.655	0.1195	307310	keystroke_n	n	n/a
153.7445	0.075	307489	keystroke_g	g	n/a
153.8345	0.06	307669	keystroke_Key.space	Key.space	n/a
153.9545	0.105	307909	keystroke_l	l	n/a
154.0745	0.06	308149	keystroke_a	a	n/a
154.2395	0.075	308479	keystroke_w	w	n/a
154.5545	0.075	309109	keystroke_s	s	n/a
154.7495	0.06	309499	keystroke_u	u	n/a
154.9595	0.0605	309919	keystroke_i	i	n/a
155.08	0.06	310160	keystroke_t	t	n/a
155.185	0.09	310370	keystroke_Key.space	Key.space	n/a
155.5595	0.061	311119	keystroke_b	b	n/a
155.7395	0.151	311479	keystroke_r	r	n/a
155.9355	0.105	311871	keystroke_a	a	n/a
156.205	0.075	312410	keystroke_z	z	n/a
156.3855	0.075	312771	keystroke_i	i	n/a
156.5655	0.105	313131	keystroke_l	l	n/a
156.6555	0.1495	313311	keystroke_i	i	n/a
156.7905	0.1345	313581	keystroke_a	a	n/a
156.91	0.075	313820	keystroke_n	n	n/a
156.97	0.12	313940	keystroke_Key.space	Key.space	n/a
157.105	0.03	314210	keystroke_Key.space	Key.space	n/a
157.12	0.09	314240	keystroke_m	m	n/a
157.225	0.12	314450	keystroke_a	a	n/a
157.39	0.135	314780	keystroke_l	l	n/a
157.4795	0.1055	314959	keystroke_i	i	n/a
157.72	0.0595	315440	keystroke_Key.enter	Key.enter	n/a
157.7855	4.706	315571	prompt	n/a	bonus smile cedar bloom\n
158.575	0.075	317150	keystroke_b	b	n/a
158.665	0.075	317330	keystroke_o	o	n/a
158.755	0.09	317510	keystroke_n	n	n/a
159.01	0.06	318020	keystroke_u	u	n/a
159.13	0.075	318260	keystroke_s	s	n/a
159.16	0.1045	318320	keystroke_Key.space	Key.space	n/a
159.3845	0.09	318769	keystroke_s	s	n/a
159.4895	0.105	318979	keystroke_m	m	n/a
159.6395	0.1205	319279	keystroke_i	i	n/a
159.73	0.1495	319460	keystroke_l	l	n/a
159.8655	0.089	319731	keystroke_e	e	n/a
160.0445	0.09	320089	keystroke_Key.space	Key.space	n/a
160.6755	0.075	321351	keystroke_c	c	n/a
160.8555	0.074	321711	keystroke_e	e	n/a
161.0795	0.12	322159	keystroke_d	d	n/a
161.2155	0.149	322431	keystroke_a	a	n/a
161.3945	0.075	322789	keystroke_r	r	n/a
161.5145	0.06	323029	keystroke_Key.space	Key.space	n/a
161.6195	0.06	323239	keystroke_b	b	n/a
161.7245	0.09	323449	keystroke_l	l	n/a
161.9045	0.03	323809	keystroke_o	o	n/a
162.0245	0.1205	324049	keystroke_o	o	n/a
162.265	0.06	324530	keystroke_m	m	n/a
162.43	0.06	324860	keystroke_Key.enter	Key.enter	n/a
162.495	7.9915	324990	prompt	n/a	adventures acknowledge footwear controls\n
163.12	0.0905	326240	keystroke_a	a	n/a
163.2705	0.06	326541	keystroke_d	d	n/a
163.45	0.12	326900	keystroke_v	v	n/a
163.585	0.075	327170	keystroke_e	e	n/a
163.69	0.075	327380	keystroke_n	n	n/a
163.825	0.06	327650	keystroke_t	t	n/a
163.96	0.06	327920	keystroke_u	u	n/a
164.05	0.135	328100	keystroke_r	r	n/a
164.155	0.15	328310	keystroke_e	e	n/a
164.29	0.12	328580	keystroke_s	s	n/a
164.425	0.075	328850	keystroke_Key.space	Key.space	n/a
164.6345	0.075	329269	keystroke_a	a	n/a
164.8145	0.075	329629	keystroke_c	c	n/a
165.1145	0.09	330229	keystroke_k	k	n/a
165.2645	0.12	330529	keystroke_n	n	n/a
165.4595	0.105	330919	keystroke_o	o	n/a
165.6695	0.09	331339	keystroke_l	l	n/a
166.3895	0.045	332779	keystroke_Key.backspace	Key.backspace	n/a
166.4795	0.06	332959	keystroke_w	w	n/a
166.6595	0.075	333319	keystroke_l	l	n/a
166.7945	0.076	333589	keystroke_e	e	n/a
166.99	0.075	333980	keystroke_d	d	n/a
167.14	0.1055	334280	keystroke_g	g	n/a
167.215	0.12	334430	keystroke_e	e	n/a
167.35	0.105	334700	keystroke_Key.space	Key.space	n/a
167.5	0.075	335000	keystroke_f	f	n/a
167.59	0.06	335180	keystroke_o	o	n/a
167.725	0.09	335450	keystroke_o	o	n/a
167.845	0.09	335690	keystroke_t	t	n/a
168.085	0.105	336170	keystroke_w	w	n/a
168.19	0.165	336380	keystroke_e	e	n/a
168.325	0.12	336650	keystroke_a	a	n/a
168.385	0.12	336770	keystroke_r	r	n/a
168.52	0.09	337040	keystroke_Key.space	Key.space	n/a
168.94	0.06	337880	keystroke_c	c	n/a
169.03	0.105	338060	keystroke_o	o	n/a
169.12	0.09	338240	keystroke_n	n	n/a
169.27	0.075	338540	keystroke_t	t	n/a
169.435	0.09	338870	keystroke_r	r	n/a
169.555	0.0745	339110	keystroke_o	o	n/a
169.7195	0.0755	339439	keystroke_l	l	n/a
170.2	0.09	340400	keystroke_s	s	n/a
170.41	0.075	340820	keystroke_Key.enter	Key.enter	n/a
170.49	14.1715	340980	prompt	n/a	appointments dealt transactions counting\n
171.01	0.09	342020	keystroke_a	a	n/a
171.115	0.045	342230	keystroke_p	p	n/a
171.25	0.105	342500	keystroke_p	p	n/a
171.445	0.03	342890	keystroke_p	p	n/a
171.46	0.135	342920	keystroke_o	o	n/a
171.565	0.1195	343130	keystroke_i	i	n/a
171.6555	0.105	343311	keystroke_n	n	n/a
171.8805	0.06	343761	keystroke_g	g	n/a
171.9095	0.016	343819	keystroke_h	h	n/a
172.3605	0.045	344721	keystroke_Key.backspace	Key.backspace	n/a
172.5245	0.075	345049	keystroke_Key.backspace	Key.backspace	n/a
172.6455	0.075	345291	keystroke_y	y	n/a
173.0495	0.06	346099	keystroke_Key.backspace	Key.backspace	n/a
173.5895	0.105	347179	keystroke_t	t	n/a
173.86	0.075	347720	keystroke_m	m	n/a
173.9355	0.089	347871	keystroke_e	e	n/a
174.085	0.06	348170	keystroke_n	n	n/a
174.1905	0.06	348381	keystroke_t	t	n/a
174.3405	0.09	348681	keystroke_s	s	n/a
174.4455	0.09	348891	keystroke_Key.space	Key.space	n/a
174.7005	0.075	349401	keystroke_d	d	n/a
174.8355	0.09	349671	keystroke_e	e	n/a
174.9855	0.135	349971	keystroke_a	a	n/a
175.4055	0.03	350811	keystroke_Key.backspace	Key.backspace	n/a
175.5405	0.0595	351081	keystroke_Key.backspace	Key.backspace	n/a
175.6445	0.285	351289	keystroke_Key.backspace	Key.backspace	n/a
176.0495	0.045	352099	keystroke_Key.backspace	Key.backspace	n/a
176.1695	0.06	352339	keystroke_Key.backspace	Key.backspace	n/a
176.3045	0.06	352609	keystroke_Key.backspace	Key.backspace	n/a
176.4245	0.075	352849	keystroke_Key.backspace	Key.backspace	n/a
176.5895	0.045	353179	keystroke_Key.backspace	Key.backspace	n/a
176.7395	0.045	353479	keystroke_Key.backspace	Key.backspace	n/a
176.8595	0.09	353719	keystroke_Key.backspace	Key.backspace	n/a
177.0095	0.06	354019	keystroke_Key.backspace	Key.backspace	n/a
177.1445	0.06	354289	keystroke_Key.backspace	Key.backspace	n/a
177.2795	0.075	354559	keystroke_Key.backspace	Key.backspace	n/a
177.4295	0.075	354859	keystroke_Key.backspace	Key.backspace	n/a
178.2395	0.09	356479	keystroke_o	o	n/a
178.6745	0.075	357349	keystroke_u	u	n/a
179.365	0.015	358730	keystroke_Key.backspace	Key.backspace	n/a
179.7555	0.059	359511	keystroke_i	i	n/a
179.8895	0.075	359779	keystroke_n	n	n/a
180.0245	0.09	360049	keystroke_t	t	n/a
180.2345	0.06	360469	keystroke_m	m	n/a
180.3245	0.09	360649	keystroke_e	e	n/a
180.4445	0.06	360889	keystroke_n	n	n/a
180.5195	0.09	361039	keystroke_t	t	n/a
180.6705	0.09	361341	keystroke_s	s	n/a
180.7755	0.0595	361551	keystroke_Key.space	Key.space	n/a
181.1955	0.0595	362391	keystroke_d	d	n/a
181.3305	0.0445	362661	keystroke_e	e	n/a
181.39	0.15	362780	keystroke_a	a	n/a
181.51	0.105	363020	keystroke_l	l	n/a
181.675	0.06	363350	keystroke_t	t	n/a
181.795	0.105	363590	keystroke_Key.space	Key.space	n/a
182.155	0.06	364310	keystroke_t	t	n/a
182.3045	0.09	364609	keystroke_r	r	n/a
182.4095	0.09	364819	keystroke_a	a	n/a
182.5145	0.06	365029	keystroke_n	n	n/a
182.6645	0.045	365329	keystroke_s	s	n/a
182.8755	0.0745	365751	keystroke_a	a	n/a
183.04	0.06	366080	keystroke_c	c	n/a
183.19	0.06	366380	keystroke_t	t	n/a
183.295	0.105	366590	keystroke_i	i	n/a
183.37	0.12	366740	keystroke_o	o	n/a
183.43	0.105	366860	keystroke_n	n	n/a
183.535	0.09	367070	keystroke_s	s	n/a
183.655	0.0905	367310	keystroke_Key.space	Key.space	n/a
183.865	0.06	367730	keystroke_c	c	n/a
183.94	0.075	367880	keystroke_o	o	n/a
183.985	0.075	367970	keystroke_u	u	n/a
184.135	0.075	368270	keystroke_n	n	n/a
184.195	0.06	368390	keystroke_t	t	n/a
184.315	0.075	368630	keystroke_i	i	n/a
184.36	0.09	368720	keystroke_n	n	n/a
184.465	0.06	368930	keystroke_g	g	n/a
184.585	0.075	369170	keystroke_Key.enter	Key.enter	n/a
184.665	5.7565	369330	prompt	n/a	temperatures haven't genre china\n
185.2595	0.135	370519	keystroke_t	t	n/a
185.4095	0.121	370819	keystroke_e	e	n/a
185.5595	0.091	371119	keystroke_m	m	n/a
185.7255	0.0895	371451	keystroke_p	p	n/a
185.83	0.18	371660	keystroke_e	e	n/a
185.995	0.105	371990	keystroke_r	r	n/a
186.1905	0.09	372381	keystroke_a	a	n/a
186.2655	0.0745	372531	keystroke_t	t	n/a
186.4005	0.09	372801	keystroke_u	u	n/a
186.5205	0.105	373041	keystroke_r	r	n/a
186.5955	0.1195	373191	keystroke_e	e	n/a
186.7	0.105	373400	keystroke_s	s	n/a
186.82	0.09	373640	keystroke_Key.space	Key.space	n/a
187.045	0.075	374090	keystroke_h	h	n/a
187.105	0.09	374210	keystroke_a	a	n/a
187.24	0.075	374480	keystroke_v	v	n/a
187.33	0.075	374660	keystroke_e	e	n/a
187.45	0.075	374900	keystroke_n	n	n/a
187.63	0.075	375260	keystroke_'	'	n/a
188.005	0.06	376010	keystroke_t	t	n/a
188.125	0.075	376250	keystroke_Key.space	Key.space	n/a
188.32	0.075	376640	keystroke_g	g	n/a
188.41	0.12	376820	keystroke_e	e	n/a
188.56	0.06	377120	keystroke_n	n	n/a
188.695	0.09	377390	keystroke_e	e	n/a
189.01	0.045	378020	keystroke_Key.backspace	Key.backspace	n/a
189.0995	0.1355	378199	keystroke_r	r	n/a
189.19	0.105	378380	keystroke_e	e	n/a
189.325	0.09	378650	keystroke_Key.space	Key.space	n/a
189.745	0.09	379490	keystroke_c	c	n/a
189.82	0.105	379640	keystroke_h	h	n/a
189.91	0.12	379820	keystroke_i	i	n/a
190	0.105	380000	keystroke_n	n	n/a
190.18	0.09	380360	keystroke_a	a	n/a
190.345	0.075	380690	keystroke_Key.enter	Key.enter	n/a
190.426	4.8705	380852	prompt	n/a	select christmas carlos tuner\n
190.9905	0.06	381981	keystroke_s	s	n/a
191.0955	0.075	382191	keystroke_e	e	n/a
191.2155	0.075	382431	keystroke_l	l	n/a
191.3655	0.03	382731	keystroke_e	e	n/a
191.56	0.06	383120	keystroke_c	c	n/a
191.71	0.075	383420	keystroke_t	t	n/a
191.8005	0.09	383601	keystroke_Key.space	Key.space	n/a
191.98	0.06	383960	keystroke_c	c	n/a
192.07	0.09	384140	keystroke_h	h	n/a
192.235	0.06	384470	keystroke_r	r	n/a
192.34	0.06	384680	keystroke_i	i	n/a
192.46	0.135	384920	keystroke_s	s	n/a
192.596	0.074	385192	keystroke_t	t	n/a
192.73	0.09	385460	keystroke_m	m	n/a
192.835	0.075	385670	keystroke_a	a	n/a
193.045	0.06	386090	keystroke_s	s	n/a
193.165	0.0605	386330	keystroke_Key.space	Key.space	n/a
193.3005	0.06	386601	keystroke_c	c	n/a
193.4805	0.09	386961	keystroke_a	a	n/a
193.6005	0.075	387201	keystroke_r	r	n/a
193.9455	0.045	387891	keystroke_l	l	n/a
194.0805	0.06	388161	keystroke_o	o	n/a
194.3505	0.075	388701	keystroke_s	s	n/a
194.4855	0.06	388971	keystroke_Key.space	Key.space	n/a
194.6505	0.045	389301	keystroke_t	t	n/a
194.7405	0.06	389481	keystroke_u	u	n/a
194.8905	0.075	389781	keystroke_n	n	n/a
194.9955	0.1045	389991	keystroke_e	e	n/a
195.085	0.06	390170	keystroke_r	r	n/a
195.22	0.075	390440	keystroke_Key.enter	Key.enter	n/a
195.3	6.3415	390600	prompt	n/a	published primary digest watershed\n
195.925	0.105	391850	keystroke_p	p	n/a
196.09	0.045	392180	keystroke_u	u	n/a
196.285	0.03	392570	keystroke_b	b	n/a
196.435	0.09	392870	keystroke_l	l	n/a
196.54	0.09	393080	keystroke_i	i	n/a
196.735	0.075	393470	keystroke_s	s	n/a
196.855	0.06	393710	keystroke_h	h	n/a
196.93	0.06	393860	keystroke_e	e	n/a
197.11	0.045	394220	keystroke_d	d	n/a
197.17	0.09	394340	keystroke_Key.space	Key.space	n/a
197.38	0.06	394760	keystroke_p	p	n/a
197.53	0.06	395060	keystroke_r	r	n/a
197.68	0.06	395360	keystroke_i	i	n/a
197.725	0.1055	395450	keystroke_m	m	n/a
197.9505	0.105	395901	keystroke_a	a	n/a
198.1605	0.075	396321	keystroke_r	r	n/a
198.3555	0.09	396711	keystroke_y	y	n/a
198.4305	0.075	396861	keystroke_Key.space	Key.space	n/a
198.6105	0.075	397221	keystroke_d	d	n/a
198.7155	0.075	397431	keystroke_i	i	n/a
198.8805	0.06	397761	keystroke_g	g	n/a
198.9705	0.135	397941	keystroke_e	e	n/a
199.1205	0.15	398241	keystroke_s	s	n/a
199.2545	0.076	398509	keystroke_t	t	n/a
199.3755	0.09	398751	keystroke_Key.space	Key.space	n/a
199.5255	0.09	399051	keystroke_w	w	n/a
199.7045	0.1055	399409	keystroke_a	a	n/a
199.825	0.09	399650	keystroke_t	t	n/a
200.02	0.15	400040	keystroke_e	e	n/a
200.185	0.105	400370	keystroke_r	r	n/a
200.38	0.06	400760	keystroke_s	s	n/a
200.4695	0.076	400939	keystroke_h	h	n/a
200.5605	0.059	401121	keystroke_e	e	n/a
200.77	0.06	401540	keystroke_t	t	n/a
201.34	0.06	402680	keystroke_Key.backspace	Key.backspace	n/a
201.445	0.06	402890	keystroke_d	d	n/a
201.595	0.045	403190	keystroke_Key.enter	Key.enter	n/a
201.6445	4.722	403289	prompt	n/a	palace exchange nose angela\n
202.36	0.075	404720	keystroke_p	p	n/a
202.48	0.045	404960	keystroke_a	a	n/a
202.555	0.09	405110	keystroke_l	l	n/a
202.705	0.075	405410	keystroke_a	a	n/a
202.885	0.075	405770	keystroke_c	c	n/a
203.065	0.045	406130	keystroke_e	e	n/a
203.14	0.075	406280	keystroke_Key.space	Key.space	n/a
203.365	0.06	406730	keystroke_e	e	n/a
203.575	0.06	407150	keystroke_x	x	n/a
203.7855	0.075	407571	keystroke_c	c	n/a
203.8755	0.09	407751	keystroke_h	h	n/a
204.0105	0.104	408021	keystroke_a	a	n/a
204.1155	0.059	408231	keystroke_n	n	n/a
204.2195	0.105	408439	keystroke_g	g	n/a
204.2945	0.105	408589	keystroke_e	e	n/a
204.4145	0.075	408829	keystroke_Key.space	Key.space	n/a
204.6245	0.105	409249	keystroke_n	n	n/a
204.6995	0.105	409399	keystroke_o	o	n/a
204.8055	0.074	409611	keystroke_s	s	n/a
204.9095	0.1055	409819	keystroke_e	e	n/a
205.06	0.0595	410120	keystroke_Key.space	Key.space	n/a
205.2695	0.09	410539	keystroke_a	a	n/a
205.5095	0.015	411019	keystroke_n	n	n/a
205.6745	0.091	411349	keystroke_g	g	n/a
205.8405	0.105	411681	keystroke_e	e	n/a
205.9905	0.075	411981	keystroke_l	l	n/a
206.1255	0.09	412251	keystroke_a	a	n/a
206.3055	0.06	412611	keystroke_Key.enter	Key.enter	n/a
206.3695	5.757	412739	prompt	n/a	hosting rapids poison theology\n
206.86	0.015	413720	keystroke_p	p	n/a
207.13	0.045	414260	keystroke_Key.backspace	Key.backspace	n/a
207.34	0.075	414680	keystroke_h	h	n/a
207.385	0.12	414770	keystroke_o	o	n/a
207.565	0.09	415130	keystroke_s	s	n/a
207.775	0.0605	415550	keystroke_t	t	n/a
207.8955	0.075	415791	keystroke_i	i	n/a
208.0155	0.09	416031	keystroke_n	n	n/a
208.195	0.06	416390	keystroke_g	g	n/a
208.285	0.09	416570	keystroke_Key.space	Key.space	n/a
208.435	0.105	416870	keystroke_r	r	n/a
208.585	0.09	417170	keystroke_a	a	n/a
208.9	0.09	417800	keystroke_p	p	n/a
209.035	0.06	418070	keystroke_i	i	n/a
209.185	0.06	418370	keystroke_d	d	n/a
209.365	0.09	418730	keystroke_s	s	n/a
209.485	0.09	418970	keystroke_Key.space	Key.space	n/a
209.665	0.1355	419330	keystroke_p	p	n/a
209.74	0.1505	419480	keystroke_o	o	n/a
209.8755	0.12	419751	keystroke_i	i	n/a
210.1755	0.09	420351	keystroke_s	s	n/a
210.2805	0.105	420561	keystroke_o	o	n/a
210.3555	0.12	420711	keystroke_n	n	n/a
210.4605	0.075	420921	keystroke_Key.space	Key.space	n/a
210.7005	0.075	421401	keystroke_t	t	n/a
210.8205	0.06	421641	keystroke_h	h	n/a
211.0145	0.075	422029	keystroke_e	e	n/a
211.2255	0.089	422451	keystroke_o	o	n/a
211.4345	0.075	422869	keystroke_l	l	n/a
211.5855	0.074	423171	keystroke_o	o	n/a
211.7195	0.045	423439	keystroke_g	g	n/a
211.8705	0.044	423741	keystroke_y	y	n/a
212.0645	0.06	424129	keystroke_Key.enter	Key.enter	n/a
212.13	5.1865	424260	prompt	n/a	bolt times excellence fraser\n
212.74	0.06	425480	keystroke_b	b	n/a
212.845	0.075	425690	keystroke_o	o	n/a
212.98	0.045	425960	keystroke_s	s	n/a
213.3705	0.03	426741	keystroke_Key.backspace	Key.backspace	n/a
213.5805	0.06	427161	keystroke_l	l	n/a
213.6555	0.06	427311	keystroke_t	t	n/a
213.7755	0.12	427551	keystroke_Key.space	Key.space	n/a
214.0905	0.06	428181	keystroke_t	t	n/a
214.1505	0.09	428301	keystroke_i	i	n/a
214.2105	0.12	428421	keystroke_m	m	n/a
214.3155	0.075	428631	keystroke_e	e	n/a
214.3755	0.105	428751	keystroke_s	s	n/a
214.5105	0.045	429021	keystroke_Key.space	Key.space	n/a
214.7055	0.06	429411	keystroke_e	e	n/a
214.8705	0.09	429741	keystroke_x	x	n/a
215.1105	0.06	430221	keystroke_c	c	n/a
215.2755	0.06	430551	keystroke_e	e	n/a
215.3505	0.06	430701	keystroke_l	l	n/a
215.4855	0.075	430971	keystroke_l	l	n/a
215.5755	0.06	431151	keystroke_e	e	n/a
215.6655	0.075	431331	keystroke_n	n	n/a
215.8005	0.075	431601	keystroke_c	c	n/a
216.0105	0.06	432021	keystroke_e	e	n/a
216.0855	0.06	432171	keystroke_Key.space	Key.space	n/a
216.2355	0.059	432471	keystroke_f	f	n/a
216.3555	0.12	432711	keystroke_r	r	n/a
216.5355	0.104	433071	keystroke_a	a	n/a
216.7305	0.059	433461	keystroke_s	s	n/a
216.8805	0.104	433761	keystroke_e	e	n/a
217.0745	0.075	434149	keystroke_r	r	n/a
217.2545	0.06	434509	keystroke_Key.enter	Key.enter	n/a
217.3195	8.0075	434639	prompt	n/a	legislature complex selections amazon\n
218.0645	0.09	436129	keystroke_l	l	n/a
218.1395	0.06	436279	keystroke_e	e	n/a
218.5445	0.075	437089	keystroke_g	g	n/a
218.6795	0.075	437359	keystroke_i	i	n/a
218.9045	0.015	437809	keystroke_s	s	n/a
220.0305	0.075	440061	keystroke_l	l	n/a
220.1205	0.075	440241	keystroke_a	a	n/a
220.2105	0.075	440421	keystroke_t	t	n/a
220.3305	0.06	440661	keystroke_u	u	n/a
220.4505	0.105	440901	keystroke_r	r	n/a
220.5105	0.105	441021	keystroke_e	e	n/a
220.6305	0.09	441261	keystroke_Key.space	Key.space	n/a
220.9145	0.09	441829	keystroke_c	c	n/a
221.0355	0.12	442071	keystroke_o	o	n/a
221.2005	0.105	442401	keystroke_m	m	n/a
221.3805	0.105	442761	keystroke_p	p	n/a
221.5455	0.09	443091	keystroke_l	l	n/a
221.6055	0.12	443211	keystroke_e	e	n/a
221.7405	0.045	443481	keystroke_s	s	n/a
222.0405	0.045	444081	keystroke_Key.backspace	Key.backspace	n/a
222.1155	0.075	444231	keystroke_x	x	n/a
222.2805	0.045	444561	keystroke_Key.space	Key.space	n/a
222.9255	0.12	445851	keystroke_s	s	n/a
223.0755	0.0895	446151	keystroke_e	e	n/a
223.285	0.105	446570	keystroke_l	l	n/a
223.42	0.06	446840	keystroke_e	e	n/a
223.615	0.09	447230	keystroke_c	c	n/a
223.8105	0.045	447621	keystroke_t	t	n/a
223.8705	0.105	447741	keystroke_i	i	n/a
223.9455	0.09	447891	keystroke_o	o	n/a
223.9905	0.12	447981	keystroke_n	n	n/a
224.1105	0.06	448221	keystroke_s	s	n/a
224.2005	0.089	448401	keystroke_Key.space	Key.space	n/a
224.4705	0.105	448941	keystroke_a	a	n/a
224.6055	0.09	449211	keystroke_m	m	n/a
224.6805	0.074	449361	keystroke_a	a	n/a
224.8755	0.06	449751	keystroke_z	z	n/a
224.9655	0.105	449931	keystroke_o	o	n/a
225.0405	0.105	450081	keystroke_n	n	n/a
225.2505	0.075	450501	keystroke_Key.enter	Key.enter	n/a
225.33	6.1475	450660	prompt	n/a	rooms opens adapted obesity\n
225.9845	0.075	451969	keystroke_r	r	n/a
226.045	0.075	452090	keystroke_o	o	n/a
226.1945	0.105	452389	keystroke_o	o	n/a
226.3295	0.09	452659	keystroke_m	m	n/a
226.4495	0.0605	452899	keystroke_s	s	n/a
226.5545	0.1055	453109	keystroke_Key.space	Key.space	n/a
226.675	0.12	453350	keystroke_o	o	n/a
226.93	0.075	453860	keystroke_p	p	n/a
227.02	0.09	454040	keystroke_e	e	n/a
227.125	0.091	454250	keystroke_n	n	n/a
227.2	0.09	454400	keystroke_Key.space	Key.space	n/a
227.41	0.045	454820	keystroke_a	a	n/a
227.545	0.09	455090	keystroke_d	d	n/a
227.68	0.09	455360	keystroke_a	a	n/a
227.83	0.09	455660	keystroke_p	p	n/a
228.34	0.045	456680	keystroke_Key.backspace	Key.backspace	n/a
228.505	0.15	457010	keystroke_t	t	n/a
228.64	0.09	457280	keystroke_e	e	n/a
228.88	0.045	457760	keystroke_Key.backspace	Key.backspace	n/a
228.985	0.06	457970	keystroke_Key.backspace	Key.backspace	n/a
229.195	0.06	458390	keystroke_p	p	n/a
229.315	0.12	458630	keystroke_t	t	n/a
229.405	0.105	458810	keystroke_e	e	n/a
229.585	0.075	459170	keystroke_d	d	n/a
229.675	0.06	459350	keystroke_Key.space	Key.space	n/a
229.8395	0.06	459679	keystroke_o	o	n/a
230.005	0.1205	460010	keystroke_b	b	n/a
230.1105	0.1045	460221	keystroke_e	e	n/a
230.29	0.1055	460580	keystroke_s	s	n/a
230.4105	0.015	460821	keystroke_t	t	n/a
230.7855	0.0445	461571	keystroke_Key.backspace	Key.backspace	n/a
231.055	0.03	462110	keystroke_i	i	n/a
231.175	0.045	462350	keystroke_t	t	n/a
231.235	0.06	462470	keystroke_y	y	n/a
231.415	0.06	462830	keystroke_Key.enter	Key.enter	n/a
231.4805	9.131	462961	prompt	n/a	jets settled regulatory department\n
232.03	0.06	464060	keystroke_j	j	n/a
232.135	0.03	464270	keystroke_e	e	n/a
232.33	0.09	464660	keystroke_t	t	n/a
232.48	0.135	464960	keystroke_s	s	n/a
232.6	0.075	465200	keystroke_Key.space	Key.space	n/a
232.8095	0.091	465619	keystroke_s	s	n/a
232.9605	0.12	465921	keystroke_e	e	n/a
233.1255	0.075	466251	keystroke_t	t	n/a
233.2605	0.09	466521	keystroke_t	t	n/a
233.3955	0.09	466791	keystroke_l	l	n/a
233.5005	0.075	467001	keystroke_e	e	n/a
233.92	0.045	467840	keystroke_d	d	n/a
233.995	0.075	467990	keystroke_Key.space	Key.space	n/a
234.2945	0.105	468589	keystroke_r	r	n/a
234.3695	0.105	468739	keystroke_e	e	n/a
234.6395	0.045	469279	keystroke_g	g	n/a
234.7745	0.06	469549	keystroke_u	u	n/a
234.9395	0.0905	469879	keystroke_l	l	n/a
235.0595	0.1205	470119	keystroke_a	a	n/a
235.2545	0.09	470509	keystroke_o	o	n/a
235.3745	0.076	470749	keystroke_r	r	n/a
235.4805	0.105	470961	keystroke_y	y	n/a
235.7045	0.046	471409	keystroke_Key.space	Key.space	n/a
236.1095	0.03	472219	keystroke_Key.backspace	Key.backspace	n/a
236.2145	0.06	472429	keystroke_Key.backspace	Key.backspace	n/a
236.3505	0.075	472701	keystroke_Key.backspace	Key.backspace	n/a
236.4995	0.061	472999	keystroke_Key.backspace	Key.backspace	n/a
236.6195	0.061	473239	keystroke_Key.backspace	Key.backspace	n/a
236.86	0.015	473720	keystroke_o	o	n/a
237.22	0.045	474440	keystroke_Key.backspace	Key.backspace	n/a
237.88	0.12	475760	keystroke_a	a	n/a
238.015	0.06	476030	keystroke_t	t	n/a
238.15	0.06	476300	keystroke_o	o	n/a
238.27	0.045	476540	keystroke_r	r	n/a
238.36	0.075	476720	keystroke_y	y	n/a
238.57	0.105	477140	keystroke_Key.space	Key.space	n/a
238.9	0.09	477800	keystroke_d	d	n/a
239.065	0.075	478130	keystroke_e	e	n/a
239.395	0.075	478790	keystroke_p	p	n/a
239.485	0.12	478970	keystroke_a	a	n/a
239.56	0.0905	479120	keystroke_r	r	n/a
239.8	0.09	479600	keystroke_t	t	n/a
239.98	0.075	479960	keystroke_m	m	n/a
240.056	0.089	480112	keystroke_e	e	n/a
240.175	0.075	480350	keystroke_n	n	n/a
240.265	0.075	480530	keystroke_t	t	n/a
240.52	0.09	481040	keystroke_Key.enter	Key.enter	n/a
240.6145	5.472	481229	prompt	n/a	points race expires worth\n
241.2845	0.15	482569	keystroke_p	p	n/a
241.3595	0.18	482719	keystroke_o	o	n/a
241.4945	0.09	482989	keystroke_i	i	n/a
241.5545	0.105	483109	keystroke_n	n	n/a
241.6445	0.045	483289	keystroke_t	t	n/a
242.455	0.075	484910	keystroke_s	s	n/a
242.5745	0.075	485149	keystroke_Key.space	Key.space	n/a
242.785	0.1045	485570	keystroke_r	r	n/a
242.8445	0.045	485689	keystroke_e	e	n/a
243.2495	0.045	486499	keystroke_Key.backspace	Key.backspace	n/a
243.445	0.1055	486890	keystroke_a	a	n/a
243.7005	0.06	487401	keystroke_c	c	n/a
243.8655	0.045	487731	keystroke_e	e	n/a
243.9255	0.09	487851	keystroke_Key.space	Key.space	n/a
244.0455	0.075	488091	keystroke_e	e	n/a
244.2555	0.104	488511	keystroke_x	x	n/a
244.3755	0.075	488751	keystroke_p	p	n/a
244.5705	0.075	489141	keystroke_i	i	n/a
244.7355	0.105	489471	keystroke_r	r	n/a
244.7955	0.15	489591	keystroke_e	e	n/a
244.9305	0.12	489861	keystroke_s	s	n/a
245.0345	0.075	490069	keystroke_Key.space	Key.space	n/a
245.2295	0.09	490459	keystroke_w	w	n/a
245.2895	0.076	490579	keystroke_o	o	n/a
245.4695	0.075	490939	keystroke_r	r	n/a
245.6795	0.075	491359	keystroke_t	t	n/a
245.7995	0.075	491599	keystroke_h	h	n/a
246.0245	0.06	492049	keystroke_Key.enter	Key.enter	n/a
246.09	6.8065	492180	prompt	n/a	soma regards austria adaptation\n
246.8195	0.06	493639	keystroke_s	s	n/a
246.8945	0.0905	493789	keystroke_o	o	n/a
246.9245	0.12	493849	keystroke_m	m	n/a
247.1495	0.075	494299	keystroke_a	a	n/a
247.2095	0.09	494419	keystroke_Key.space	Key.space	n/a
247.4045	0.105	494809	keystroke_r	r	n/a
247.5245	0.15	495049	keystroke_e	e	n/a
247.7945	0.075	495589	keystroke_g	g	n/a
247.9295	0.12	495859	keystroke_a	a	n/a
248.0045	0.105	496009	keystroke_r	r	n/a
248.2595	0.105	496519	keystroke_d	d	n/a
248.3795	0.105	496759	keystroke_s	s	n/a
248.4995	0.09	496999	keystroke_Key.space	Key.space	n/a
248.9195	0.1055	497839	keystroke_a	a	n/a
249.04	0.0745	498080	keystroke_u	u	n/a
249.2045	0.1205	498409	keystroke_s	s	n/a
249.37	0.06	498740	keystroke_t	t	n/a
249.505	0.075	499010	keystroke_r	r	n/a
249.745	0.045	499490	keystroke_i	i	n/a
249.85	0.0895	499700	keystroke_a	a	n/a
249.9545	0.0905	499909	keystroke_Key.space	Key.space	n/a
250.27	0.0295	500540	keystroke_d	d	n/a
250.555	0.06	501110	keystroke_Key.backspace	Key.backspace	n/a
250.795	0.09	501590	keystroke_a	a	n/a
250.96	0.075	501920	keystroke_d	d	n/a
251.11	0.105	502220	keystroke_a	a	n/a
251.245	0.075	502490	keystroke_p	p	n/a
251.35	0.045	502700	keystroke_a	a	n/a
251.725	0.0745	503450	keystroke_Key.backspace	Key.backspace	n/a
251.9495	0.0455	503899	keystroke_t	t	n/a
252.2195	0.105	504439	keystroke_a	a	n/a
252.3095	0.075	504619	keystroke_t	t	n/a
252.4145	0.12	504829	keystroke_i	i	n/a
252.5045	0.09	505009	keystroke_o	o	n/a
252.5495	0.12	505099	keystroke_n	n	n/a
252.8195	0.075	505639	keystroke_Key.enter	Key.enter	n/a
252.9	7.4235	505800	prompt	n/a	alphabetical botswana moore steve\n
253.4505	0.12	506901	keystroke_a	a	n/a
253.6155	0.105	507231	keystroke_l	l	n/a
253.885	0.09	507770	keystroke_p	p	n/a
254.005	0.075	508010	keystroke_h	h	n/a
254.17	0.12	508340	keystroke_a	a	n/a
254.44	0.06	508880	keystroke_b	b	n/a
254.575	0.09	509150	keystroke_e	e	n/a
254.8	0.06	509600	keystroke_t	t	n/a
254.92	0.06	509840	keystroke_i	i	n/a
255.085	0.105	510170	keystroke_c	c	n/a
255.22	0.12	510440	keystroke_a	a	n/a
255.355	0.09	510710	keystroke_l	l	n/a
255.445	0.105	510890	keystroke_Key.space	Key.space	n/a
255.67	0.06	511340	keystroke_b	b	n/a
255.775	0.0745	511550	keystroke_o	o	n/a
256	0.0595	512000	keystroke_t	t	n/a
256.3295	0.075	512659	keystroke_s	s	n/a
256.5245	0.045	513049	keystroke_w	w	n/a
256.6145	0.045	513229	keystroke_w	w	n/a
257.5895	0.06	515179	keystroke_Key.backspace	Key.backspace	n/a
257.7095	0.09	515419	keystroke_a	a	n/a
257.8445	0.06	515689	keystroke_n	n	n/a
257.9195	0.09	515839	keystroke_a	a	n/a
258.1895	0.075	516379	keystroke_Key.space	Key.space	n/a
258.7895	0.12	517579	keystroke_m	m	n/a
258.8945	0.075	517789	keystroke_o	o	n/a
259.135	0.075	518270	keystroke_o	o	n/a
259.255	0.1195	518510	keystroke_r	r	n/a
259.3755	0.104	518751	keystroke_e	e	n/a
259.4645	0.1355	518929	keystroke_Key.space	Key.space	n/a
259.615	0.1055	519230	keystroke_s	s	n/a
259.7055	0.1195	519411	keystroke_t	t	n/a
259.7945	0.1205	519589	keystroke_e	e	n/a
260.005	0.15	520010	keystroke_v	v	n/a
260.095	0.105	520190	keystroke_e	e	n/a
260.23	0.09	520460	keystroke_Key.enter	Key.enter	n/a
260.3315	6.1555	520663	prompt	n/a	adequate savings operations purchases\n
261.115	0.075	522230	keystroke_a	a	n/a
261.22	0.09	522440	keystroke_d	d	n/a
261.46	0.015	522920	keystroke_e	e	n/a
261.79	0.075	523580	keystroke_q	q	n/a
261.97	0.06	523940	keystroke_u	u	n/a
262.18	0.075	524360	keystroke_a	a	n/a
262.27	0.105	524540	keystroke_t	t	n/a
262.33	0.105	524660	keystroke_e	e	n/a
262.48	0.075	524960	keystroke_Key.space	Key.space	n/a
262.57	0.12	525140	keystroke_s	s	n/a
262.72	0.135	525440	keystroke_a	a	n/a
262.885	0.09	525770	keystroke_v	v	n/a
262.99	0.105	525980	keystroke_i	i	n/a
263.05	0.105	526100	keystroke_n	n	n/a
263.125	0.105	526250	keystroke_g	g	n/a
263.26	0.09	526520	keystroke_s	s	n/a
263.305	0.12	526610	keystroke_Key.space	Key.space	n/a
263.455	0.105	526910	keystroke_o	o	n/a
263.605	0.105	527210	keystroke_p	p	n/a
263.695	0.09	527390	keystroke_e	e	n/a
263.89	0.09	527780	keystroke_r	r	n/a
264.07	0.12	528140	keystroke_a	a	n/a
264.16	0.09	528320	keystroke_t	t	n/a
264.385	0.12	528770	keystroke_i	i	n/a
264.475	0.135	528950	keystroke_o	o	n/a
264.565	0.12	529130	keystroke_n	n	n/a
264.7	0.06	529400	keystroke_s	s	n/a
264.775	0.105	529550	keystroke_Key.space	Key.space	n/a
264.97	0.09	529940	keystroke_p	p	n/a
265.075	0.075	530150	keystroke_u	u	n/a
265.36	0.075	530720	keystroke_r	r	n/a
265.6455	0.09	531291	keystroke_c	c	n/a
265.7505	0.06	531501	keystroke_h	h	n/a
265.8555	0.12	531711	keystroke_a	a	n/a
265.9905	0.105	531981	keystroke_s	s	n/a
266.0805	0.135	532161	keystroke_e	e	n/a
266.2005	0.165	532401	keystroke_s	s	n/a
266.3955	0.09	532791	keystroke_Key.enter	Key.enter	n/a
266.4915	4.1655	532983	prompt	n/a	wheel handbags ugly leon\n
267.2955	0.075	534591	keystroke_w	w	n/a
267.6405	0.0595	535281	keystroke_h	h	n/a
267.895	0.06	535790	keystroke_e	e	n/a
268.015	0.09	536030	keystroke_e	e	n/a
268.12	0.105	536240	keystroke_l	l	n/a
268.18	0.105	536360	keystroke_Key.space	Key.space	n/a
268.33	0.075	536660	keystroke_h	h	n/a
268.42	0.09	536840	keystroke_a	a	n/a
268.525	0.09	537050	keystroke_n	n	n/a
268.645	0.075	537290	keystroke_d	d	n/a
268.855	0.075	537710	keystroke_b	b	n/a
268.945	0.09	537890	keystroke_a	a	n/a
269.08	0.09	538160	keystroke_g	g	n/a
269.23	0.09	538460	keystroke_s	s	n/a
269.35	0.075	538700	keystroke_Key.space	Key.space	n/a
269.485	0.09	538970	keystroke_u	u	n/a
269.62	0.0595	539240	keystroke_g	g	n/a
269.7245	0.136	539449	keystroke_l	l	n/a
269.8455	0.09	539691	keystroke_y	y	n/a
269.9195	0.09	539839	keystroke_Key.space	Key.space	n/a
270.1005	0.105	540201	keystroke_l	l	n/a
270.1905	0.059	540381	keystroke_e	e	n/a
270.3105	0.105	540621	keystroke_o	o	n/a
270.4005	0.105	540801	keystroke_n	n	n/a
270.5645	0.09	541129	keystroke_Key.enter	Key.enter	n/a
270.662	7.51	541324	prompt	n/a	carrier convention fixtures faced\n
271.405	0.075	542810	keystroke_c	c	n/a
271.51	0.105	543020	keystroke_a	a	n/a
271.6	0.075	543200	keystroke_r	r	n/a
271.75	0.0595	543500	keystroke_r	r	n/a
271.8245	0.076	543649	keystroke_i	i	n/a
271.8845	0.18	543769	keystroke_e	e	n/a
272.0495	0.09	544099	keystroke_r	r	n/a
272.1695	0.075	544339	keystroke_Key.space	Key.space	n/a
272.4695	0.075	544939	keystroke_c	c	n/a
272.5295	0.106	545059	keystroke_o	o	n/a
272.6195	0.105	545239	keystroke_n	n	n/a
273.0395	0.09	546079	keystroke_v	v	n/a
273.1445	0.09	546289	keystroke_e	e	n/a
273.2945	0.075	546589	keystroke_i	i	n/a
273.625	0.06	547250	keystroke_Key.backspace	Key.backspace	n/a
273.835	0.0755	547670	keystroke_n	n	n/a
273.925	0.0745	547850	keystroke_t	t	n/a
274.0445	0.09	548089	keystroke_i	i	n/a
274.12	0.105	548240	keystroke_o	o	n/a
274.1795	0.1055	548359	keystroke_n	n	n/a
274.315	0.09	548630	keystroke_Key.space	Key.space	n/a
274.6455	0.075	549291	keystroke_f	f	n/a
274.7505	0.045	549501	keystroke_i	i	n/a
274.8855	0.09	549771	keystroke_x	x	n/a
275.005	0.075	550010	keystroke_u	u	n/a
275.14	0.12	550280	keystroke_t	t	n/a
275.53	0.06	551060	keystroke_Key.backspace	Key.backspace	n/a
275.665	0.03	551330	keystroke_Key.backspace	Key.backspace	n/a
275.725	0.09	551450	keystroke_t	t	n/a
275.95	0.06	551900	keystroke_u	u	n/a
275.98	0.15	551960	keystroke_r	r	n/a
276.1	0.165	552200	keystroke_e	e	n/a
276.9095	0.0905	553819	keystroke_s	s	n/a
277.001	0.089	554002	keystroke_Key.space	Key.space	n/a
277.3005	0.09	554601	keystroke_f	f	n/a
277.4055	0.09	554811	keystroke_a	a	n/a
277.6005	0.075	555201	keystroke_c	c	n/a
277.7955	0.06	555591	keystroke_e	e	n/a
277.9455	0.075	555891	keystroke_d	d	n/a
278.0955	0.075	556191	keystroke_Key.enter	Key.enter	n/a
278.175	18.687	556350	prompt	n/a	offset remarkable inappropriate photography\n
278.9055	0.075	557811	keystroke_o	o	n/a
278.9955	0.0745	557991	keystroke_f	f	n/a
279.1455	0.09	558291	keystroke_f	f	n/a
279.2955	0.135	558591	keystroke_s	s	n/a
279.4005	0.105	558801	keystroke_e	e	n/a
279.5655	0.075	559131	keystroke_t	t	n/a
279.6705	0.105	559341	keystroke_Key.space	Key.space	n/a
279.8505	0.09	559701	keystroke_m	m	n/a
280.1505	0.06	560301	keystroke_Key.backspace	Key.backspace	n/a
280.3005	0.09	560601	keystroke_r	r	n/a
280.4945	0.075	560989	keystroke_e	e	n/a
280.6145	0.075	561229	keystroke_m	m	n/a
280.7505	0.089	561501	keystroke_a	a	n/a
280.8995	0.075	561799	keystroke_r	r	n/a
281.1845	0.075	562369	keystroke_k	k	n/a
281.3195	0.09	562639	keystroke_a	a	n/a
281.5	0.06	563000	keystroke_b	b	n/a
281.575	0.105	563150	keystroke_l	l	n/a
281.695	0.075	563390	keystroke_e	e	n/a
281.8155	0.0745	563631	keystroke_Key.space	Key.space	n/a
281.9355	0.09	563871	keystroke_i	i	n/a
281.995	0.105	563990	keystroke_n	n	n/a
282.16	0.135	564320	keystroke_a	a	n/a
282.445	0.06	564890	keystroke_p	p	n/a
282.58	0.12	565160	keystroke_p	p	n/a
282.701	0.089	565402	keystroke_o	o	n/a
282.85	0.075	565700	keystroke_r	r	n/a
283	0.06	566000	keystroke_o	o	n/a
283.315	0.06	566630	keystroke_Key.backspace	Key.backspace	n/a
283.57	0.06	567140	keystroke_p	p	n/a
283.75	0.0755	567500	keystroke_r	r	n/a
284.0505	0.045	568101	keystroke_i	i	n/a
284.1555	0.195	568311	keystroke_a	a	n/a
284.3055	0.105	568611	keystroke_t	t	n/a
284.3805	0.104	568761	keystroke_e	e	n/a
284.5445	0.075	569089	keystroke_Key.space	Key.space	n/a
284.7545	0.105	569509	keystroke_p	p	n/a
285.1895	0.03	570379	keystroke_Key.backspace	Key.backspace	n/a
285.3095	0.06	570619	keystroke_Key.backspace	Key.backspace	n/a
285.4595	0.06	570919	keystroke_Key.backspace	Key.backspace	n/a
285.5945	0.075	571189	keystroke_Key.backspace	Key.backspace	n/a
287.0055	0.075	574011	keystroke_Key.backspace	Key.backspace	n/a
287.155	0.09	574310	keystroke_Key.backspace	Key.backspace	n/a
287.35	0.09	574700	keystroke_Key.backspace	Key.backspace	n/a
291.5975	0.001	583195	keystroke_=	=	n/a
291.685	0.03	583370	keystroke_=	=	n/a
291.79	0.0595	583580	keystroke_=	=	n/a
292.645	0.03	585290	keystroke_Key.backspace	Key.backspace	n/a
292.7795	0.03	585559	keystroke_Key.backspace	Key.backspace	n/a
292.8995	0.045	585799	keystroke_Key.backspace	Key.backspace	n/a
293.02	0.0595	586040	keystroke_Key.backspace	Key.backspace	n/a
293.1545	0.06	586309	keystroke_Key.backspace	Key.backspace	n/a
293.53	0.06	587060	keystroke_Key.backspace	Key.backspace	n/a
293.7255	0.06	587451	keystroke_r	r	n/a
293.8755	0.06	587751	keystroke_o	o	n/a
294.085	0.0905	588170	keystroke_p	p	n/a
294.2805	0.075	588561	keystroke_r	r	n/a
294.4155	0.06	588831	keystroke_i	i	n/a
294.5355	0.105	589071	keystroke_a	a	n/a
294.6105	0.12	589221	keystroke_t	t	n/a
294.7155	0.09	589431	keystroke_e	e	n/a
294.8055	0.075	589611	keystroke_Key.space	Key.space	n/a
294.9405	0.09	589881	keystroke_p	p	n/a
295.0755	0.105	590151	keystroke_h	h	n/a
295.1655	0.105	590331	keystroke_o	o	n/a
295.3455	0.06	590691	keystroke_t	t	n/a
295.465	0.075	590930	keystroke_o	o	n/a
295.885	0.075	591770	keystroke_r	r	n/a
296.0955	0.135	592191	keystroke_a	a	n/a
296.2605	0.105	592521	keystroke_p	p	n/a
296.3955	0.075	592791	keystroke_h	h	n/a
296.5755	0.06	593151	keystroke_y	y	n/a
296.7855	0.075	593571	keystroke_Key.enter	Key.enter	n/a
296.8655	6.911	593731	prompt	n/a	craft automobile shortly treasure\n
297.7005	0.075	595401	keystroke_c	c	n/a
297.8945	0.091	595789	keystroke_r	r	n/a
298.0295	0.136	596059	keystroke_a	a	n/a
298.2095	0.061	596419	keystroke_f	f	n/a
298.3755	0.045	596751	keystroke_t	t	n/a
298.4345	0.075	596869	keystroke_Key.space	Key.space	n/a
298.6155	0.074	597231	keystroke_a	a	n/a
298.7345	0.076	597469	keystroke_u	u	n/a
298.8855	0.044	597771	keystroke_t	t	n/a
298.9745	0.09	597949	keystroke_o	o	n/a
299.1545	0.091	598309	keystroke_m	m	n/a
299.3045	0.076	598609	keystroke_o	o	n/a
299.5005	0.045	599001	keystroke_t	t	n/a
299.7405	0.045	599481	keystroke_Key.backspace	Key.backspace	n/a
299.8305	0.06	599661	keystroke_b	b	n/a
299.9955	0.075	599991	keystroke_i	i	n/a
300.2955	0.075	600591	keystroke_l	l	n/a
300.4155	0.06	600831	keystroke_e	e	n/a
300.5205	0.105	601041	keystroke_Key.space	Key.space	n/a
300.7605	0.075	601521	keystroke_s	s	n/a
300.8505	0.09	601701	keystroke_h	h	n/a
300.9105	0.12	601821	keystroke_o	o	n/a
301.0455	0.045	602091	keystroke_r	r	n/a
301.1955	0.045	602391	keystroke_t	t	n/a
301.3455	0.105	602691	keystroke_l	l	n/a
301.4355	0.075	602871	keystroke_y	y	n/a
301.5855	0.105	603171	keystroke_Key.space	Key.space	n/a
301.885	0.06	603770	keystroke_t	t	n/a
302.05	0.12	604100	keystroke_r	r	n/a
302.185	0.0755	604370	keystroke_e	e	n/a
302.3055	0.12	604611	keystroke_a	a	n/a
302.4555	0.075	604911	keystroke_u	u	n/a
302.6655	0.06	605331	keystroke_s	s	n/a
302.9655	0.045	605931	keystroke_Key.backspace	Key.backspace	n/a
303.0855	0.059	606171	keystroke_Key.backspace	Key.backspace	n/a
303.1605	0.09	606321	keystroke_s	s	n/a
303.3105	0.075	606621	keystroke_u	u	n/a
303.4005	0.09	606801	keystroke_r	r	n/a
303.4605	0.105	606921	keystroke_e	e	n/a
303.7155	0.06	607431	keystroke_Key.enter	Key.enter	n/a
303.7795	6.058	607559	prompt	n/a	they'd bottles mere pipe\n
304.435	0.105	608870	keystroke_t	t	n/a
304.496	0.074	608992	keystroke_h	h	n/a
304.615	0.075	609230	keystroke_e	e	n/a
304.691	0.074	609382	keystroke_y	y	n/a
304.84	0.105	609680	keystroke_'	'	n/a
305.065	0.076	610130	keystroke_d	d	n/a
305.53	0.06	611060	keystroke_Key.space	Key.space	n/a
305.665	0.06	611330	keystroke_b	b	n/a
305.755	0.076	611510	keystroke_e	e	n/a
306.19	0.06	612380	keystroke_Key.backspace	Key.backspace	n/a
306.43	0.06	612860	keystroke_o	o	n/a
306.52	0.06	613040	keystroke_t	t	n/a
306.67	0.06	613340	keystroke_t	t	n/a
306.76	0.09	613520	keystroke_l	l	n/a
306.865	0.075	613730	keystroke_e	e	n/a
307	0.09	614000	keystroke_s	s	n/a
307.075	0.105	614150	keystroke_Key.space	Key.space	n/a
307.195	0.09	614390	keystroke_m	m	n/a
307.45	0.075	614900	keystroke_e	e	n/a
307.615	0.09	615230	keystroke_r	r	n/a
308.05	0.06	616100	keystroke_e	e	n/a
308.215	0.06	616430	keystroke_Key.space	Key.space	n/a
308.35	0.06	616700	keystroke_b	b	n/a
308.47	0.045	616940	keystroke_p	p	n/a
308.695	0.075	617390	keystroke_Key.backspace	Key.backspace	n/a
308.83	0.075	617660	keystroke_Key.backspace	Key.backspace	n/a
309.085	0.15	618170	keystroke_p	p	n/a
309.205	0.105	618410	keystroke_i	i	n/a
309.355	0.105	618710	keystroke_p	p	n/a
309.58	0.06	619160	keystroke_e	e	n/a
309.775	0.06	619550	keystroke_Key.enter	Key.enter	n/a
309.8405	8.6515	619681	prompt	n/a	world intelligent gate organizer\n
310.6755	0.09	621351	keystroke_v	v	n/a
310.8105	0.075	621621	keystroke_o	o	n/a
310.9455	0.06	621891	keystroke_r	r	n/a
311.0355	0.105	622071	keystroke_l	l	n/a
311.2305	0.075	622461	keystroke_d	d	n/a
311.3505	0.105	622701	keystroke_Key.space	Key.space	n/a
311.6355	0.075	623271	keystroke_i	i	n/a
311.815	0.075	623630	keystroke_n	n	n/a
312.325	0.045	624650	keystroke_Key.backspace	Key.backspace	n/a
312.475	0.045	624950	keystroke_Key.backspace	Key.backspace	n/a
312.61	0.045	625220	keystroke_Key.backspace	Key.backspace	n/a
312.73	0.06	625460	keystroke_Key.backspace	Key.backspace	n/a
312.865	0.075	625730	keystroke_Key.backspace	Key.backspace	n/a
313.015	0.06	626030	keystroke_Key.backspace	Key.backspace	n/a
313.1495	0.06	626299	keystroke_Key.backspace	Key.backspace	n/a
313.2845	0.06	626569	keystroke_Key.backspace	Key.backspace	n/a
313.4355	0.075	626871	keystroke_w	w	n/a
313.5555	0.09	627111	keystroke_o	o	n/a
313.6755	0.06	627351	keystroke_r	r	n/a
313.8405	0.09	627681	keystroke_l	l	n/a
314.0055	0.06	628011	keystroke_d	d	n/a
314.2155	0.06	628431	keystroke_Key.space	Key.space	n/a
314.515	0.06	629030	keystroke_i	i	n/a
314.62	0.09	629240	keystroke_n	n	n/a
314.77	0.105	629540	keystroke_t	t	n/a
314.86	0.105	629720	keystroke_e	e	n/a
315.01	0.06	630020	keystroke_l	l	n/a
315.16	0.075	630320	keystroke_l	l	n/a
315.295	0.075	630590	keystroke_i	i	n/a
315.43	0.09	630860	keystroke_g	g	n/a
315.58	0.09	631160	keystroke_e	e	n/a
315.73	0.075	631460	keystroke_n	n	n/a
315.82	0.06	631640	keystroke_t	t	n/a
315.955	0.09	631910	keystroke_Key.space	Key.space	n/a
316.3	0.075	632600	keystroke_g	g	n/a
316.39	0.15	632780	keystroke_a	a	n/a
316.525	0.12	633050	keystroke_t	t	n/a
316.615	0.12	633230	keystroke_e	e	n/a
316.72	0.09	633440	keystroke_Key.space	Key.space	n/a
316.825	0.06	633650	keystroke_o	o	n/a
316.93	0.105	633860	keystroke_r	r	n/a
317.155	0.0905	634310	keystroke_g	g	n/a
317.2605	0.12	634521	keystroke_a	a	n/a
317.4105	0.06	634821	keystroke_n	n	n/a
317.5305	0.09	635061	keystroke_i	i	n/a
317.6655	0.09	635331	keystroke_z	z	n/a
317.8605	0.1495	635721	keystroke_e	e	n/a
317.965	0.09	635930	keystroke_r	r	n/a
318.445	0.045	636890	keystroke_Key.enter	Key.enter	n/a
318.496	6.791	636992	prompt	n/a	foreign plugins this delegation\n
319.075	0.09	638150	keystroke_f	f	n/a
319.195	0.06	638390	keystroke_o	o	n/a
319.27	0.075	638540	keystroke_r	r	n/a
319.541	0.1345	639082	keystroke_e	e	n/a
319.7355	0.0745	639471	keystroke_i	i	n/a
319.9	0.045	639800	keystroke_g	g	n/a
320.1555	0.09	640311	keystroke_n	n	n/a
320.3505	0.074	640701	keystroke_Key.space	Key.space	n/a
321.0255	0.06	642051	keystroke_p	p	n/a
321.445	0.06	642890	keystroke_l	l	n/a
321.58	0.0605	643160	keystroke_u	u	n/a
321.6995	0.06	643399	keystroke_g	g	n/a
321.8055	0.1055	643611	keystroke_i	i	n/a
321.895	0.09	643790	keystroke_n	n	n/a
322.0295	0.075	644059	keystroke_s	s	n/a
322.1195	0.075	644239	keystroke_Key.space	Key.space	n/a
322.376	0.0735	644752	keystroke_t	t	n/a
322.4505	0.104	644901	keystroke_h	h	n/a
322.5395	0.0905	645079	keystroke_i	i	n/a
322.6445	0.061	645289	keystroke_s	s	n/a
322.7205	0.075	645441	keystroke_Key.space	Key.space	n/a
323.1555	0.06	646311	keystroke_d	d	n/a
323.2905	0.075	646581	keystroke_e	e	n/a
323.3805	0.09	646761	keystroke_l	l	n/a
323.4855	0.09	646971	keystroke_e	e	n/a
323.6205	0.09	647241	keystroke_g	g	n/a
323.815	0.12	647630	keystroke_a	a	n/a
323.92	0.075	647840	keystroke_t	t	n/a
324.055	0.12	648110	keystroke_i	i	n/a
324.13	0.135	648260	keystroke_o	o	n/a
324.22	0.105	648440	keystroke_n	n	n/a
325.255	0.03	650510	keystroke_Key.enter	Key.enter	n/a
325.29	7.932	650580	prompt	n/a	widely paragraph departure injured\n
326.05	0.075	652100	keystroke_v	v	n/a
326.215	0.06	652430	keystroke_i	i	n/a
326.545	0.03	653090	keystroke_Key.backspace	Key.backspace	n/a
326.725	0.015	653450	keystroke_Key.backspace	Key.backspace	n/a
326.755	0.09	653510	keystroke_w	w	n/a
326.89	0.06	653780	keystroke_i	i	n/a
326.995	0.06	653990	keystroke_d	d	n/a
327.145	0.06	654290	keystroke_e	e	n/a
327.265	0.06	654530	keystroke_l	l	n/a
327.385	0.105	654770	keystroke_y	y	n/a
327.46	0.09	654920	keystroke_Key.space	Key.space	n/a
327.595	0.1055	655190	keystroke_p	p	n/a
327.7455	0.105	655491	keystroke_a	a	n/a
327.8655	0.06	655731	keystroke_r	r	n/a
328.0155	0.12	656031	keystroke_a	a	n/a
328.195	0.061	656390	keystroke_g	g	n/a
328.375	0.075	656750	keystroke_r	r	n/a
328.48	0.12	656960	keystroke_a	a	n/a
328.765	0.075	657530	keystroke_p	p	n/a
328.885	0.09	657770	keystroke_h	h	n/a
329.035	0.0755	658070	keystroke_Key.space	Key.space	n/a
329.3355	0.045	658671	keystroke_e	e	n/a
329.7095	0.045	659419	keystroke_Key.backspace	Key.backspace	n/a
329.8155	0.045	659631	keystroke_d	d	n/a
329.9505	0.06	659901	keystroke_e	e	n/a
330.0405	0.06	660081	keystroke_p	p	n/a
330.1605	0.135	660321	keystroke_a	a	n/a
330.2505	0.09	660501	keystroke_r	r	n/a
330.4305	0.06	660861	keystroke_t	t	n/a
330.5505	0.075	661101	keystroke_u	u	n/a
330.6855	0.105	661371	keystroke_r	r	n/a
330.7455	0.105	661491	keystroke_e	e	n/a
330.865	0.1205	661730	keystroke_Key.space	Key.space	n/a
331.2105	0.075	662421	keystroke_i	i	n/a
331.3605	0.09	662721	keystroke_n	n	n/a
331.6305	0.06	663261	keystroke_g	g	n/a
331.7355	0.075	663471	keystroke_u	u	n/a
332.1255	0.045	664251	keystroke_Key.backspace	Key.backspace	n/a
332.245	0.06	664490	keystroke_Key.backspace	Key.backspace	n/a
332.411	0.059	664822	keystroke_j	j	n/a
332.545	0.075	665090	keystroke_u	u	n/a
332.68	0.105	665360	keystroke_r	r	n/a
332.815	0.0905	665630	keystroke_e	e	n/a
332.9805	0.09	665961	keystroke_d	d	n/a
333.1905	0.03	666381	keystroke_Key.enter	Key.enter	n/a
333.2255	8.936	666451	prompt	n/a	algorithms controversial premiere roughly\n
334.1355	0.075	668271	keystroke_a	a	n/a
334.2555	0.075	668511	keystroke_l	l	n/a
334.4205	0.06	668841	keystroke_g	g	n/a
334.5405	0.075	669081	keystroke_o	o	n/a
334.6455	0.06	669291	keystroke_r	r	n/a
334.8105	0.06	669621	keystroke_i	i	n/a
334.9455	0.06	669891	keystroke_t	t	n/a
335.0505	0.075	670101	keystroke_h	h	n/a
335.2605	0.105	670521	keystroke_m	m	n/a
335.4255	0.06	670851	keystroke_s	s	n/a
335.6055	0.075	671211	keystroke_Key.space	Key.space	n/a
336.0705	0.09	672141	keystroke_c	c	n/a
336.2055	0.075	672411	keystroke_o	o	n/a
336.3105	0.09	672621	keystroke_n	n	n/a
336.4755	0.09	672951	keystroke_t	t	n/a
336.6255	0.075	673251	keystroke_r	r	n/a
336.7455	0.06	673491	keystroke_o	o	n/a
336.8805	0.075	673761	keystroke_v	v	n/a
337.2105	0.12	674421	keystroke_e	e	n/a
337.2855	0.105	674571	keystroke_r	r	n/a
337.5255	0.09	675051	keystroke_s	s	n/a
337.705	0.09	675410	keystroke_i	i	n/a
337.87	0.105	675740	keystroke_a	a	n/a
337.99	0.09	675980	keystroke_l	l	n/a
338.095	0.075	676190	keystroke_Key.space	Key.space	n/a
338.2	0.09	676400	keystroke_p	p	n/a
338.485	0.06	676970	keystroke_e	e	n/a
338.905	0.0455	677810	keystroke_Key.backspace	Key.backspace	n/a
338.98	0.136	677960	keystroke_r	r	n/a
339.085	0.12	678170	keystroke_e	e	n/a
339.235	0.09	678470	keystroke_m	m	n/a
339.505	0.045	679010	keystroke_i	i	n/a
339.625	0.1355	679250	keystroke_e	e	n/a
339.715	0.1055	679430	keystroke_r	r	n/a
340.7055	0.06	681411	keystroke_e	e	n/a
340.8705	0.06	681741	keystroke_Key.space	Key.space	n/a
341.2295	0.061	682459	keystroke_r	r	n/a
341.3355	0.105	682671	keystroke_o	o	n/a
341.4105	0.075	682821	keystroke_u	u	n/a
341.5145	0.061	683029	keystroke_g	g	n/a
341.6055	0.089	683211	keystroke_h	h	n/a
341.7545	0.105	683509	keystroke_l	l	n/a
341.8455	0.089	683691	keystroke_y	y	n/a
342.1	0.06	684200	keystroke_Key.enter	Key.enter	n/a
342.176	12.1955	684352	prompt	n/a	zimbabwe transexual albuquerque keyboard\n
343.09	0.0455	686180	keystroke_z	z	n/a
343.1505	0.075	686301	keystroke_i	i	n/a
343.3305	0.075	686661	keystroke_m	m	n/a
343.5555	0.075	687111	keystroke_b	b	n/a
343.6455	0.1495	687291	keystroke_a	a	n/a
343.7805	0.0595	687561	keystroke_b	b	n/a
344.6345	0.076	689269	keystroke_w	w	n/a
344.7705	0.074	689541	keystroke_e	e	n/a
344.9345	0.075	689869	keystroke_Key.space	Key.space	n/a
346.0155	0.06	692031	keystroke_t	t	n/a
346.1505	0.09	692301	keystroke_r	r	n/a
346.2705	0.12	692541	keystroke_a	a	n/a
346.4505	0.09	692901	keystroke_n	n	n/a
347.0055	0.12	694011	keystroke_s	s	n/a
347.3805	0.075	694761	keystroke_e	e	n/a
347.6955	0.06	695391	keystroke_x	x	n/a
348.1305	0.06	696261	keystroke_u	u	n/a
348.2355	0.09	696471	keystroke_a	a	n/a
348.3555	0.12	696711	keystroke_l	l	n/a
348.4455	0.104	696891	keystroke_Key.space	Key.space	n/a
348.7145	0.091	697429	keystroke_a	a	n/a
348.8655	0.09	697731	keystroke_l	l	n/a
349.8245	0.075	699649	keystroke_b	b	n/a
350.0645	0.076	700129	keystroke_u	u	n/a
351.5805	0.09	703161	keystroke_q	q	n/a
351.6855	0.06	703371	keystroke_u	u	n/a
351.895	0.075	703790	keystroke_e	e	n/a
352.03	0.075	704060	keystroke_r	r	n/a
352.36	0.09	704720	keystroke_q	q	n/a
352.435	0.075	704870	keystroke_u	u	n/a
352.585	0.06	705170	keystroke_e	e	n/a
352.7345	0.075	705469	keystroke_Key.space	Key.space	n/a
353.0655	0.09	706131	keystroke_k	k	n/a
353.1405	0.075	706281	keystroke_e	e	n/a
353.2605	0.074	706521	keystroke_y	y	n/a
353.4705	0.045	706941	keystroke_b	b	n/a
353.5595	0.1205	707119	keystroke_o	o	n/a
353.77	0.135	707540	keystroke_a	a	n/a
353.875	0.075	707750	keystroke_r	r	n/a
354.1305	0.045	708261	keystroke_d	d	n/a
354.3255	0.045	708651	keystroke_Key.enter	Key.enter	n/a
354.375	7.1815	708750	prompt	n/a	floor face windsor explaining\n
354.8505	0.075	709701	keystroke_f	f	n/a
355.0605	0.075	710121	keystroke_l	l	n/a
355.2255	0.06	710451	keystroke_o	o	n/a
355.3455	0.09	710691	keystroke_o	o	n/a
355.4655	0.06	710931	keystroke_r	r	n/a
355.5555	0.0745	711111	keystroke_Key.space	Key.space	n/a
355.705	0.09	711410	keystroke_f	f	n/a
355.81	0.09	711620	keystroke_a	a	n/a
356.02	0.075	712040	keystroke_c	c	n/a
356.23	0.045	712460	keystroke_e	e	n/a
356.26	0.09	712520	keystroke_Key.space	Key.space	n/a
356.41	0.09	712820	keystroke_w	w	n/a
356.53	0.105	713060	keystroke_o	o	n/a
356.8445	0.06	713689	keystroke_Key.backspace	Key.backspace	n/a
357.055	0.0895	714110	keystroke_i	i	n/a
357.1295	0.091	714259	keystroke_n	n	n/a
357.2345	0.0605	714469	keystroke_d	d	n/a
357.4	0.06	714800	keystroke_o	o	n/a
357.775	0.045	715550	keystroke_Key.backspace	Key.backspace	n/a
357.88	0.075	715760	keystroke_s	s	n/a
358	0.075	716000	keystroke_o	o	n/a
358.105	0.045	716210	keystroke_r	r	n/a
358.315	0.0745	716630	keystroke_Key.space	Key.space	n/a
358.7645	0.09	717529	keystroke_e	e	n/a
358.9745	0.105	717949	keystroke_x	x	n/a
360.2655	0.075	720531	keystroke_p	p	n/a
360.4605	0.09	720921	keystroke_l	l	n/a
360.5345	0.076	721069	keystroke_a	a	n/a
360.7305	0.09	721461	keystroke_n	n	n/a
360.8355	0.12	721671	keystroke_i	i	n/a
360.9405	0.09	721881	keystroke_n	n	n/a
361.1055	0.06	722211	keystroke_g	g	n/a
361.4955	0.06	722991	keystroke_Key.enter	Key.enter	n/a
361.5605	8.201	723121	prompt	n/a	check favor deutschland discharge\n
362.32	0.075	724640	keystroke_c	c	n/a
362.425	0.06	724850	keystroke_h	h	n/a
362.59	0.075	725180	keystroke_e	e	n/a
363.115	0.045	726230	keystroke_c	c	n/a
363.22	0.09	726440	keystroke_k	k	n/a
363.295	0.075	726590	keystroke_Key.space	Key.space	n/a
363.415	0.075	726830	keystroke_f	f	n/a
363.55	0.1045	727100	keystroke_a	a	n/a
363.79	0.075	727580	keystroke_v	v	n/a
363.9545	0.076	727909	keystroke_o	o	n/a
364.061	0.059	728122	keystroke_r	r	n/a
364.195	0.06	728390	keystroke_Key.space	Key.space	n/a
364.72	0.135	729440	keystroke_d	d	n/a
365.3655	0.045	730731	keystroke_e	e	n/a
365.4255	0.015	730851	keystroke_u	u	n/a
365.5305	0.06	731061	keystroke_t	t	n/a
365.83	0.045	731660	keystroke_s	s	n/a
366.04	0.045	732080	keystroke_h	h	n/a
366.4455	0.045	732891	keystroke_Key.backspace	Key.backspace	n/a
366.5805	0.21	733161	keystroke_c	c	n/a
366.9405	0.045	733881	keystroke_h	h	n/a
367.0005	0.09	734001	keystroke_l	l	n/a
367.1955	0.105	734391	keystroke_a	a	n/a
367.3155	0.165	734631	keystroke_n	n	n/a
367.4955	0.195	734991	keystroke_d	d	n/a
367.8105	0.015	735621	keystroke_Key.space	Key.space	n/a
368.0055	0.015	736011	keystroke_d	d	n/a
368.0355	0.015	736071	keystroke_i	i	n/a
368.0655	0.015	736131	keystroke_s	s	n/a
368.1255	0.015	736251	keystroke_c	c	n/a
368.2155	0.105	736431	keystroke_h	h	n/a
368.3355	0.405	736671	keystroke_a	a	n/a
368.6505	0.105	737301	keystroke_r	r	n/a
368.8155	0.3895	737631	keystroke_g	g	n/a
369.055	0.375	738110	keystroke_e	e	n/a
369.475	0.285	738950	keystroke_Key.enter	Key.enter	n/a
369.766	6.596	739532	prompt	n/a	caribbean fitting effective overcome\n
369.775	0.015	739550	keystroke_c	c	n/a
369.805	0.045	739610	keystroke_h	h	n/a
371.335	0.045	742670	keystroke_Key.backspace	Key.backspace	n/a
371.8005	0.105	743601	keystroke_a	a	n/a
371.8755	0.12	743751	keystroke_r	r	n/a
372.1005	0.045	744201	keystroke_i	i	n/a
372.2355	0.09	744471	keystroke_b	b	n/a
372.4455	0.075	744891	keystroke_b	b	n/a
372.6105	0.09	745221	keystroke_e	e	n/a
372.6855	0.105	745371	keystroke_a	a	n/a
372.8655	0.075	745731	keystroke_n	n	n/a
372.9695	0.075	745939	keystroke_Key.space	Key.space	n/a
373.0895	0.076	746179	keystroke_f	f	n/a
373.1955	0.06	746391	keystroke_i	i	n/a
373.3305	0.06	746661	keystroke_t	t	n/a
373.4505	0.075	746901	keystroke_t	t	n/a
373.5555	0.075	747111	keystroke_i	i	n/a
373.6155	0.105	747231	keystroke_n	n	n/a
373.7355	0.045	747471	keystroke_g	g	n/a
373.7955	0.075	747591	keystroke_Key.space	Key.space	n/a
373.9905	0.06	747981	keystroke_e	e	n/a
374.1555	0.06	748311	keystroke_f	f	n/a
374.2755	0.09	748551	keystroke_f	f	n/a
374.4105	0.06	748821	keystroke_e	e	n/a
374.6055	0.09	749211	keystroke_c	c	n/a
374.7705	0.06	749541	keystroke_t	t	n/a
374.8755	0.075	749751	keystroke_i	i	n/a
374.9655	0.105	749931	keystroke_v	v	n/a
375.0555	0.09	750111	keystroke_e	e	n/a
375.1605	0.075	750321	keystroke_Key.space	Key.space	n/a
375.3405	0.09	750681	keystroke_o	o	n/a
375.4455	0.12	750891	keystroke_v	v	n/a
375.5505	0.165	751101	keystroke_e	e	n/a
375.6855	0.075	751371	keystroke_r	r	n/a
375.9105	0.06	751821	keystroke_c	c	n/a
376.0155	0.06	752031	keystroke_o	o	n/a
376.0305	0.09	752061	keystroke_m	m	n/a
376.1655	0.045	752331	keystroke_e	e	n/a
376.3005	0.06	752601	keystroke_Key.enter	Key.enter	n/a
376.3655	6.8815	752731	prompt	n/a	resume notebooks financing architecture\n
377.1555	0.09	754311	keystroke_r	r	n/a
377.2905	0.075	754581	keystroke_e	e	n/a
377.8	0.075	755600	keystroke_s	s	n/a
377.935	0.06	755870	keystroke_u	u	n/a
378.1	0.075	756200	keystroke_m	m	n/a
378.19	0.045	756380	keystroke_e	e	n/a
378.28	0.105	756560	keystroke_Key.space	Key.space	n/a
378.6405	0.105	757281	keystroke_n	n	n/a
378.7305	0.075	757461	keystroke_o	o	n/a
378.8505	0.06	757701	keystroke_t	t	n/a
378.9255	0.105	757851	keystroke_e	e	n/a
379.1505	0.075	758301	keystroke_b	b	n/a
379.2405	0.06	758481	keystroke_o	o	n/a
379.3755	0.105	758751	keystroke_o	o	n/a
379.4955	0.075	758991	keystroke_k	k	n/a
379.645	0.075	759290	keystroke_s	s	n/a
379.735	0.075	759470	keystroke_Key.space	Key.space	n/a
379.96	0.06	759920	keystroke_f	f	n/a
380.065	0.06	760130	keystroke_i	i	n/a
380.155	0.075	760310	keystroke_n	n	n/a
380.275	0.12	760550	keystroke_a	a	n/a
380.425	0.075	760850	keystroke_n	n	n/a
380.56	0.075	761120	keystroke_c	c	n/a
380.695	0.075	761390	keystroke_i	i	n/a
380.74	0.09	761480	keystroke_n	n	n/a
380.845	0.06	761690	keystroke_g	g	n/a
380.965	0.03	761930	keystroke_Key.space	Key.space	n/a
381.145	0.09	762290	keystroke_a	a	n/a
381.31	0.06	762620	keystroke_r	r	n/a
381.52	0.105	763040	keystroke_c	c	n/a
381.64	0.09	763280	keystroke_h	h	n/a
381.7	0.135	763400	keystroke_i	i	n/a
381.94	0.105	763880	keystroke_t	t	n/a
382.0005	0.105	764001	keystroke_e	e	n/a
382.3145	0.0605	764629	keystroke_c	c	n/a
382.5995	0.091	765199	keystroke_t	t	n/a
382.7955	0.06	765591	keystroke_u	u	n/a
382.8705	0.09	765741	keystroke_r	r	n/a
382.9305	0.09	765861	keystroke_e	e	n/a
383.1855	0.06	766371	keystroke_Key.enter	Key.enter	n/a
383.2495	4.482	766499	prompt	n/a	companies already miss pakistan\n
383.935	0.06	767870	keystroke_c	c	n/a
384.04	0.09	768080	keystroke_o	o	n/a
384.085	0.09	768170	keystroke_m	m	n/a
384.28	0.09	768560	keystroke_p	p	n/a
384.4	0.09	768800	keystroke_a	a	n/a
384.52	0.09	769040	keystroke_n	n	n/a
384.595	0.12	769190	keystroke_i	i	n/a
384.7	0.12	769400	keystroke_e	e	n/a
384.835	0.09	769670	keystroke_s	s	n/a
384.94	0.075	769880	keystroke_Key.space	Key.space	n/a
385.03	0.09	770060	keystroke_a	a	n/a
385.15	0.09	770300	keystroke_l	l	n/a
385.345	0.105	770690	keystroke_r	r	n/a
385.435	0.09	770870	keystroke_e	e	n/a
385.495	0.105	770990	keystroke_a	a	n/a
385.66	0.06	771320	keystroke_d	d	n/a
385.78	0.075	771560	keystroke_y	y	n/a
385.84	0.075	771680	keystroke_Key.space	Key.space	n/a
386.035	0.075	772070	keystroke_m	m	n/a
386.14	0.06	772280	keystroke_i	i	n/a
386.215	0.06	772430	keystroke_s	s	n/a
386.365	0.06	772730	keystroke_s	s	n/a
386.41	0.09	772820	keystroke_Key.space	Key.space	n/a
386.515	0.105	773030	keystroke_p	p	n/a
386.62	0.075	773240	keystroke_a	a	n/a
386.8595	0.045	773719	keystroke_k	k	n/a
387.0095	0.045	774019	keystroke_i	i	n/a
387.0995	0.075	774199	keystroke_s	s	n/a
387.2795	0.075	774559	keystroke_t	t	n/a
387.3695	0.121	774739	keystroke_a	a	n/a
387.5055	0.06	775011	keystroke_n	n	n/a
387.6705	0.06	775341	keystroke_Key.enter	Key.enter	n/a
387.735	8.382	775470	prompt	n/a	imagine windows adopted technological\n
388.315	0.075	776630	keystroke_i	i	n/a
388.42	0.075	776840	keystroke_m	m	n/a
388.5405	0.105	777081	keystroke_a	a	n/a
388.7355	0.06	777471	keystroke_g	g	n/a
388.8255	0.09	777651	keystroke_i	i	n/a
388.8855	0.105	777771	keystroke_n	n	n/a
389.0055	0.06	778011	keystroke_e	e	n/a
389.0805	0.105	778161	keystroke_Key.space	Key.space	n/a
389.275	0.09	778550	keystroke_w	w	n/a
389.395	0.075	778790	keystroke_i	i	n/a
389.44	0.105	778880	keystroke_n	n	n/a
389.59	0.06	779180	keystroke_d	d	n/a
389.74	0.075	779480	keystroke_o	o	n/a
389.83	0.09	779660	keystroke_w	w	n/a
390.01	0.09	780020	keystroke_s	s	n/a
390.175	0.09	780350	keystroke_Key.space	Key.space	n/a
390.55	0.105	781100	keystroke_a	a	n/a
390.73	0.06	781460	keystroke_d	d	n/a
390.8655	0.09	781731	keystroke_o	o	n/a
391.0605	0.059	782121	keystroke_p	p	n/a
391.1655	0.045	782331	keystroke_e	e	n/a
391.5095	0.015	783019	keystroke_Key.backspace	Key.backspace	n/a
391.5855	0.089	783171	keystroke_t	t	n/a
391.6895	0.045	783379	keystroke_e	e	n/a
391.8545	0.075	783709	keystroke_d	d	n/a
391.9745	0.09	783949	keystroke_Key.space	Key.space	n/a
392.4555	0.12	784911	keystroke_t	t	n/a
392.7395	0.09	785479	keystroke_e	e	n/a
392.9955	0.06	785991	keystroke_c	c	n/a
393.1145	0.076	786229	keystroke_h	h	n/a
393.2655	0.104	786531	keystroke_n	n	n/a
393.3855	0.089	786771	keystroke_o	o	n/a
393.5505	0.104	787101	keystroke_l	l	n/a
394.465	0.06	788930	keystroke_i	i	n/a
394.84	0.045	789680	keystroke_Key.backspace	Key.backspace	n/a
395.065	0.075	790130	keystroke_o	o	n/a
395.215	0.06	790430	keystroke_g	g	n/a
395.35	0.045	790700	keystroke_i	i	n/a
395.575	0.09	791150	keystroke_c	c	n/a
395.725	0.135	791450	keystroke_a	a	n/a
395.875	0.06	791750	keystroke_l	l	n/a
396.04	0.075	792080	keystroke_Key.enter	Key.enter	n/a
396.121	5.381	792242	prompt	n/a	pools demanding brussels caused\n
396.7	0.105	793400	keystroke_p	p	n/a
396.85	0.06	793700	keystroke_o	o	n/a
396.985	0.06	793970	keystroke_o	o	n/a
397.15	0.075	794300	keystroke_l	l	n/a
397.27	0.105	794540	keystroke_s	s	n/a
397.39	0.075	794780	keystroke_Key.space	Key.space	n/a
397.57	0.1045	795140	keystroke_d	d	n/a
397.7645	0.076	795529	keystroke_e	e	n/a
397.8705	0.09	795741	keystroke_m	m	n/a
398.02	0.105	796040	keystroke_a	a	n/a
398.155	0.06	796310	keystroke_n	n	n/a
398.32	0.06	796640	keystroke_d	d	n/a
398.395	0.105	796790	keystroke_i	i	n/a
398.455	0.105	796910	keystroke_n	n	n/a
398.5745	0.0455	797149	keystroke_g	g	n/a
398.6645	0.075	797329	keystroke_Key.space	Key.space	n/a
399.0095	0.0455	798019	keystroke_b	b	n/a
399.25	0.0755	798500	keystroke_r	r	n/a
399.3555	0.075	798711	keystroke_u	u	n/a
399.4605	0.06	798921	keystroke_s	s	n/a
399.6255	0.09	799251	keystroke_s	s	n/a
399.7905	0.09	799581	keystroke_e	e	n/a
399.9105	0.09	799821	keystroke_l	l	n/a
400.0155	0.075	800031	keystroke_s	s	n/a
400.1505	0.075	800301	keystroke_Key.space	Key.space	n/a
400.3305	0.09	800661	keystroke_c	c	n/a
400.4355	0.105	800871	keystroke_a	a	n/a
400.5705	0.06	801141	keystroke_u	u	n/a
400.7205	0.12	801441	keystroke_s	s	n/a
401.0355	0.0595	802071	keystroke_e	e	n/a
401.2295	0.061	802459	keystroke_d	d	n/a
401.44	0.06	802880	keystroke_Key.enter	Key.enter	n/a
401.505	11.262	803010	prompt	n/a	dispatched tradition microphone deficit\n
402.265	0.09	804530	keystroke_d	d	n/a
402.34	0.105	804680	keystroke_i	i	n/a
402.49	0.09	804980	keystroke_s	s	n/a
403.135	0.075	806270	keystroke_p	p	n/a
403.33	0.09	806660	keystroke_a	a	n/a
403.975	0.075	807950	keystroke_t	t	n/a
404.17	0.09	808340	keystroke_c	c	n/a
404.275	0.0445	808550	keystroke_h	h	n/a
404.4095	0.061	808819	keystroke_e	e	n/a
404.5445	0.076	809089	keystroke_d	d	n/a
404.6345	0.09	809269	keystroke_Key.space	Key.space	n/a
404.8745	0.03	809749	keystroke_g	g	n/a
404.8905	0.044	809781	keystroke_t	t	n/a
404.9945	0.105	809989	keystroke_r	r	n/a
405.1145	0.091	810229	keystroke_a	a	n/a
405.4145	0.09	810829	keystroke_d	d	n/a
405.6695	0.046	811339	keystroke_=	=	n/a
405.7895	0.075	811579	keystroke_=	=	n/a
406.2695	0.046	812539	keystroke_Key.backspace	Key.backspace	n/a
406.4055	0.06	812811	keystroke_Key.backspace	Key.backspace	n/a
406.5405	0.06	813081	keystroke_Key.backspace	Key.backspace	n/a
406.6605	0.06	813321	keystroke_Key.backspace	Key.backspace	n/a
406.7955	0.06	813591	keystroke_Key.backspace	Key.backspace	n/a
406.9155	0.105	813831	keystroke_Key.backspace	Key.backspace	n/a
407.2	0.075	814400	keystroke_Key.backspace	Key.backspace	n/a
407.41	0.075	814820	keystroke_t	t	n/a
407.59	0.06	815180	keystroke_r	r	n/a
407.74	0.075	815480	keystroke_a	a	n/a
407.98	0.075	815960	keystroke_d	d	n/a
408.13	0.09	816260	keystroke_i	i	n/a
408.31	0.045	816620	keystroke_t	t	n/a
408.37	0.135	816740	keystroke_i	i	n/a
408.475	0.105	816950	keystroke_o	o	n/a
408.535	0.105	817070	keystroke_n	n	n/a
408.67	0.09	817340	keystroke_Key.space	Key.space	n/a
408.97	0.06	817940	keystroke_m	m	n/a
409.105	0.06	818210	keystroke_i	i	n/a
409.225	0.075	818450	keystroke_d	d	n/a
409.555	0.03	819110	keystroke_Key.backspace	Key.backspace	n/a
409.66	0.09	819320	keystroke_c	c	n/a
409.8855	0.044	819771	keystroke_r	r	n/a
409.9895	0.09	819979	keystroke_o	o	n/a
410.1405	0.119	820281	keystroke_p	p	n/a
410.2895	0.1055	820579	keystroke_h	h	n/a
410.3495	0.1355	820699	keystroke_o	o	n/a
410.47	0.15	820940	keystroke_n	n	n/a
410.575	0.06	821150	keystroke_e	e	n/a
410.65	0.0905	821300	keystroke_Key.space	Key.space	n/a
410.815	0.075	821630	keystroke_d	d	n/a
410.965	0.03	821930	keystroke_i	i	n/a
411.235	0.0445	822470	keystroke_Key.backspace	Key.backspace	n/a
411.3245	0.075	822649	keystroke_e	e	n/a
411.5495	0.045	823099	keystroke_d	d	n/a
411.835	0.045	823670	keystroke_Key.backspace	Key.backspace	n/a
411.985	0.0755	823970	keystroke_f	f	n/a
412.135	0.045	824270	keystroke_i	i	n/a
412.195	0.105	824390	keystroke_c	c	n/a
412.345	0.0755	824690	keystroke_i	i	n/a
412.5255	0.045	825051	keystroke_t	t	n/a
412.7045	0.061	825409	keystroke_Key.enter	Key.enter	n/a
412.7715	6.13	825543	prompt	n/a	chip substance temple croatia\n
413.3655	0.06	826731	keystroke_c	c	n/a
413.4555	0.09	826911	keystroke_h	h	n/a
413.5305	0.12	827061	keystroke_i	i	n/a
413.6955	0.104	827391	keystroke_p	p	n/a
413.8005	0.089	827601	keystroke_Key.space	Key.space	n/a
414.0695	0.075	828139	keystroke_s	s	n/a
414.1895	0.045	828379	keystroke_u	u	n/a
414.3095	0.0755	828619	keystroke_b	b	n/a
414.805	0.06	829610	keystroke_s	s	n/a
414.925	0.105	829850	keystroke_t	t	n/a
415.045	0.12	830090	keystroke_a	a	n/a
415.21	0.06	830420	keystroke_n	n	n/a
415.315	0.075	830630	keystroke_c	c	n/a
415.495	0.06	830990	keystroke_e	e	n/a
415.585	0.075	831170	keystroke_Key.space	Key.space	n/a
415.81	0.135	831620	keystroke_t	t	n/a
415.9	0.105	831800	keystroke_e	e	n/a
416.02	0.09	832040	keystroke_m	m	n/a
416.2	0.06	832400	keystroke_p	p	n/a
416.47	0.165	832940	keystroke_l	l	n/a
416.74	0.1055	833480	keystroke_e	e	n/a
417.0095	0.015	834019	keystroke_Key.space	Key.space	n/a
417.1605	0.06	834321	keystroke_c	c	n/a
417.2505	0.1045	834501	keystroke_o	o	n/a
417.745	0.0445	835490	keystroke_Key.backspace	Key.backspace	n/a
417.8805	0.059	835761	keystroke_r	r	n/a
417.9995	0.076	835999	keystroke_o	o	n/a
418.2105	0.1045	836421	keystroke_a	a	n/a
418.3755	0.06	836751	keystroke_t	t	n/a
418.4955	0.075	836991	keystroke_i	i	n/a
418.6155	0.105	837231	keystroke_a	a	n/a
418.8705	0.03	837741	keystroke_Key.enter	Key.enter	n/a
418.906	6.2955	837812	prompt	n/a	impact intellectual excellent maybe\n
419.6655	0.075	839331	keystroke_i	i	n/a
419.905	0.09	839810	keystroke_m	m	n/a
420.115	0.075	840230	keystroke_p	p	n/a
420.235	0.075	840470	keystroke_a	a	n/a
420.385	0.09	840770	keystroke_c	c	n/a
420.595	0.06	841190	keystroke_t	t	n/a
420.67	0.075	841340	keystroke_Key.space	Key.space	n/a
421.09	0.045	842180	keystroke_i	i	n/a
421.18	0.09	842360	keystroke_n	n	n/a
421.33	0.105	842660	keystroke_t	t	n/a
421.42	0.09	842840	keystroke_e	e	n/a
421.57	0.06	843140	keystroke_l	l	n/a
421.705	0.09	843410	keystroke_l	l	n/a
422.02	0.06	844040	keystroke_e	e	n/a
422.215	0.09	844430	keystroke_c	c	n/a
422.41	0.075	844820	keystroke_t	t	n/a
422.56	0.045	845120	keystroke_u	u	n/a
422.755	0.105	845510	keystroke_a	a	n/a
422.875	0.135	845750	keystroke_l	l	n/a
422.995	0.06	845990	keystroke_Key.space	Key.space	n/a
423.115	0.09	846230	keystroke_e	e	n/a
423.355	0.06	846710	keystroke_x	x	n/a
423.55	0.075	847100	keystroke_c	c	n/a
423.76	0.0455	847520	keystroke_e	e	n/a
423.8505	0.06	847701	keystroke_l	l	n/a
423.9855	0.09	847971	keystroke_l	l	n/a
424.1055	0.06	848211	keystroke_e	e	n/a
424.1805	0.0745	848361	keystroke_n	n	n/a
424.315	0.075	848630	keystroke_t	t	n/a
424.42	0.105	848840	keystroke_Key.space	Key.space	n/a
424.585	0.09	849170	keystroke_m	m	n/a
424.676	0.074	849352	keystroke_a	a	n/a
424.81	0.045	849620	keystroke_y	y	n/a
424.9	0.075	849800	keystroke_b	b	n/a
424.99	0.09	849980	keystroke_e	e	n/a
425.14	0.06	850280	keystroke_Key.enter	Key.enter	n/a
425.207	11.98	850414	prompt	n/a	tariff resolutions matt safari\n
425.8	0.12	851600	keystroke_t	t	n/a
425.935	0.105	851870	keystroke_a	a	n/a
426.01	0.12	852020	keystroke_r	r	n/a
426.175	0.06	852350	keystroke_i	i	n/a
426.295	0.09	852590	keystroke_f	f	n/a
426.445	0.091	852890	keystroke_f	f	n/a
426.55	0.0905	853100	keystroke_Key.space	Key.space	n/a
427.0005	0.135	854001	keystroke_r	r	n/a
427.1055	0.09	854211	keystroke_e	e	n/a
427.3155	0.09	854631	keystroke_l	l	n/a
427.4805	0.03	854961	keystroke_s	s	n/a
427.915	0.015	855830	keystroke_Key.backspace	Key.backspace	n/a
427.975	0.06	855950	keystroke_Key.backspace	Key.backspace	n/a
428.14	0.045	856280	keystroke_s	s	n/a
428.38	0.105	856760	keystroke_o	o	n/a
428.455	0.105	856910	keystroke_u	u	n/a
428.605	0.12	857210	keystroke_l	l	n/a
428.755	0.06	857510	keystroke_u	u	n/a
428.995	0.06	857990	keystroke_Key.backspace	Key.backspace	n/a
