onset	duration	sample	value	key	prompt_text
4.8685	11.4545	9737	prompt	n/a	the quick brown fox jumps over a lazy dog\n
6.2875	0.012	12575	keystroke	t	n/a
6.3445	0.09	12689	keystroke	h	n/a
7.1695	0.045	14339	keystroke	e	n/a
7.2595	0.09	14519	keystroke	Key.space	n/a
8.2645	0.0895	16529	keystroke	q	n/a
8.339	0.075	16678	keystroke	u	n/a
8.519	0.0755	17038	keystroke	i	n/a
8.6245	0.0905	17249	keystroke	c	n/a
8.73	0.074	17460	keystroke	k	n/a
8.8345	0.105	17669	keystroke	Key.space	n/a
9.0605	0.044	18121	keystroke	b	n/a
9.7045	0.075	19409	keystroke	r	n/a
9.7645	0.075	19529	keystroke	o	n/a
9.8995	0.09	19799	keystroke	w	n/a
10.0195	0.06	20039	keystroke	n	n/a
10.1095	0.12	20219	keystroke	Key.space	n/a
10.8445	0.075	21689	keystroke	f	n/a
10.9345	0.09	21869	keystroke	o	n/a
11.0545	0.106	22109	keystroke	x	n/a
11.9395	0.06	23879	keystroke	Key.space	n/a
12.1495	0.075	24299	keystroke	j	n/a
12.255	0.1045	24510	keystroke	u	n/a
12.375	0.0745	24750	keystroke	m	n/a
12.5695	0.075	25139	keystroke	p	n/a
12.6745	0.075	25349	keystroke	s	n/a
12.8245	0.075	25649	keystroke	Key.space	n/a
13.0495	0.1055	26099	keystroke	o	n/a
13.3195	0.09	26639	keystroke	Key.backspace	n/a
13.6045	0.09	27209	keystroke	o	n/a
13.6955	0.0445	27391	keystroke	v	n/a
13.8595	0.12	27719	keystroke	e	n/a
13.935	0.0895	27870	keystroke	r	n/a
14.0995	0.06	28199	keystroke	Key.space	n/a
14.6845	0.09	29369	keystroke	a	n/a
14.8045	0.0905	29609	keystroke	Key.space	n/a
15.0295	0.09	30059	keystroke	l	n/a
15.1345	0.195	30269	keystroke	a	n/a
15.2845	0.12	30569	keystroke	z	n/a
15.4945	0.0605	30989	keystroke	y	n/a
15.5995	0.105	31199	keystroke	Key.space	n/a
15.7195	0.12	31439	keystroke	d	n/a
15.8845	0.09	31769	keystroke	o	n/a
15.9895	0.075	31979	keystroke	g	n/a
16.245	0.074	32490	keystroke	Key.enter	n/a
16.3295	10.2825	32659	prompt	n/a	jordan bluetooth by frequencies\n
17.3695	0.075	34739	keystroke	h	n/a
17.6845	0.075	35369	keystroke	r	n/a
17.9395	0.09	35879	keystroke	Key.backspace	n/a
18.1195	0.105	36239	keystroke	Key.backspace	n/a
18.3745	0.0605	36749	keystroke	j	n/a
18.524	0.091	37048	keystroke	o	n/a
18.6	0.06	37200	keystroke	r	n/a
18.855	0.105	37710	keystroke	d	n/a
18.975	0.12	37950	keystroke	a	n/a
19.14	0.075	38280	keystroke	n	n/a
19.29	0.059	38580	keystroke	Key.space	n/a
19.53	0.09	39060	keystroke	l	n/a
19.949	0.105	39898	keystroke	Key.backspace	n/a
20.19	0.0595	40380	keystroke	b	n/a
20.2795	0.06	40559	keystroke	l	n/a
20.4745	0.075	40949	keystroke	u	n/a
20.5645	0.135	41129	keystroke	e	n/a
20.85	0.075	41700	keystroke	t	n/a
20.9995	0.06	41999	keystroke	o	n/a
21.1345	0.075	42269	keystroke	o	n/a
21.2695	0.0905	42539	keystroke	t	n/a
21.39	0.075	42780	keystroke	h	n/a
21.735	0.09	43470	keystroke	Key.space	n/a
21.99	0.045	43980	keystroke	y	n/a
22.59	0.045	45180	keystroke	Key.backspace	n/a
22.74	0.12	45480	keystroke	b	n/a
22.845	0.12	45690	keystroke	y	n/a
23.13	0.15	46260	keystroke	Key.space	n/a
23.685	0.075	47370	keystroke	f	n/a
23.88	0.1195	47760	keystroke	r	n/a
24.0145	0.091	48029	keystroke	e	n/a
24.4645	0.09	48929	keystroke	q	n/a
24.5845	0.09	49169	keystroke	u	n/a
24.7945	0.061	49589	keystroke	e	n/a
24.8845	0.075	49769	keystroke	n	n/a
25.6355	0.105	51271	keystroke	c	n/a
25.8755	0.089	51751	keystroke	i	n/a
25.9945	0.075	51989	keystroke	e	n/a
26.19	0.0895	52380	keystroke	s	n/a
26.52	0.09	53040	keystroke	Key.enter	n/a
26.6185	8.306	53237	prompt	n/a	operate wordpress transmit differences\n
27.345	0.0745	54690	keystroke	o	n/a
27.51	0.075	55020	keystroke	p	n/a
27.585	0.135	55170	keystroke	e	n/a
27.675	0.0895	55350	keystroke	r	n/a
27.8705	0.105	55741	keystroke	a	n/a
28.0805	0.104	56161	keystroke	t	n/a
28.1695	0.12	56339	keystroke	e	n/a
28.3355	0.089	56671	keystroke	Key.space	n/a
28.8605	0.075	57721	keystroke	w	n/a
29.1005	0.105	58201	keystroke	o	n/a
29.2205	0.06	58441	keystroke	r	n/a
29.4305	0.119	58861	keystroke	d	n/a
29.7155	0.105	59431	keystroke	p	n/a
29.8355	0.105	59671	keystroke	r	n/a
29.9105	0.105	59821	keystroke	e	n/a
30.1505	0.06	60301	keystroke	s	n/a
30.3005	0.075	60601	keystroke	s	n/a
30.4045	0.091	60809	keystroke	Key.space	n/a
30.8695	0.075	61739	keystroke	t	n/a
31.0045	0.09	62009	keystroke	r	n/a
31.1995	0.075	62399	keystroke	a	n/a
31.3045	0.076	62609	keystroke	n	n/a
31.3945	0.09	62789	keystroke	s	n/a
32.3405	0.09	64681	keystroke	m	n/a
32.4895	0.091	64979	keystroke	i	n/a
32.5645	0.09	65129	keystroke	t	n/a
33.0595	0.06	66119	keystroke	Key.space	n/a
33.4505	0.12	66901	keystroke	d	n/a
33.5855	0.089	67171	keystroke	i	n/a
33.6895	0.076	67379	keystroke	f	n/a
33.8705	0.089	67741	keystroke	f	n/a
34.0495	0.076	68099	keystroke	e	n/a
34.1105	0.12	68221	keystroke	r	n/a
34.2455	0.105	68491	keystroke	e	n/a
34.3945	0.076	68789	keystroke	n	n/a
34.4555	0.075	68911	keystroke	c	n/a
34.5155	0.075	69031	keystroke	e	n/a
34.6945	0.076	69389	keystroke	s	n/a
34.8605	0.06	69721	keystroke	Key.enter	n/a
34.9315	12.561	69863	prompt	n/a	guitar superb i'd christianity\n
35.6855	0.09	71371	keystroke	g	n/a
35.8355	0.059	71671	keystroke	u	n/a
35.9995	0.076	71999	keystroke	i	n/a
36.1055	0.075	72211	keystroke	t	n/a
36.3895	0.091	72779	keystroke	a	n/a
36.4955	0.105	72991	keystroke	r	n/a
36.6445	0.136	73289	keystroke	Key.space	n/a
37.71	0.075	75420	keystroke	s	n/a
37.845	0.045	75690	keystroke	u	n/a
38.04	0.075	76080	keystroke	o	n/a
38.16	0.105	76320	keystroke	e	n/a
38.415	0.105	76830	keystroke	Key.backspace	n/a
38.565	0.135	77130	keystroke	Key.backspace	n/a
38.61	0.12	77220	keystroke	p	n/a
38.685	0.135	77370	keystroke	e	n/a
38.91	0.09	77820	keystroke	r	n/a
39.075	0.135	78150	keystroke	b	n/a
39.69	0.12	79380	keystroke	Key.space	n/a
40.41	0.06	80820	keystroke	i	n/a
40.89	0.075	81780	keystroke	'	n/a
40.995	0.15	81990	keystroke	d	n/a
41.22	0.1205	82440	keystroke	Key.space	n/a
41.7005	0.135	83401	keystroke	c	n/a
42.2105	0.12	84421	keystroke	h	n/a
42.8705	0.075	85741	keystroke	r	n/a
43.0505	0.09	86101	keystroke	i	n/a
43.2605	0.09	86521	keystroke	s	n/a
43.4855	0.075	86971	keystroke	t	n/a
43.6505	0.09	87301	keystroke	i	n/a
44.1455	0.075	88291	keystroke	a	n/a
44.2655	0.075	88531	keystroke	n	n/a
44.8805	0.09	89761	keystroke	i	n/a
45.0155	0.045	90031	keystroke	r	n/a
45.1955	0.105	90391	keystroke	t	n/a
45.3905	0.105	90781	keystroke	Key.space	n/a
45.5105	0.075	91021	keystroke	Key.backspace	n/a
45.6965	0.084	91393	keystroke	Key.backspace	n/a
45.8405	0.12	91681	keystroke	Key.backspace	n/a
46.3805	0.075	92761	keystroke	t	n/a
46.5455	0.12	93091	keystroke	y	n/a
46.6805	0.105	93361	keystroke	Key.space	n/a
47.0405	0.15	94081	keystroke	Key.backspace	n/a
47.3855	0.105	94771	keystroke	Key.enter	n/a
47.4965	7.526	94993	prompt	n/a	complexity castle runs bias\n
48.2255	0.09	96451	keystroke	c	n/a
48.3005	0.135	96601	keystroke	o	n/a
48.4055	0.09	96811	keystroke	m	n/a
48.6005	0.105	97201	keystroke	p	n/a
48.6905	0.12	97381	keystroke	l	n/a
48.7955	0.135	97591	keystroke	e	n/a
48.9455	0.12	97891	keystroke	x	n/a
49.5605	0.075	99121	keystroke	i	n/a
50.0855	0.09	100171	keystroke	r	n/a
50.2805	0.075	100561	keystroke	t	n/a
50.7305	0.075	101461	keystroke	Key.backspace	n/a
50.8655	0.12	101731	keystroke	Key.backspace	n/a
50.9105	0.09	101821	keystroke	t	n/a
51.1355	0.06	102271	keystroke	y	n/a
52.2155	0.06	104431	keystroke	Key.space	n/a
52.4555	0.105	104911	keystroke	c	n/a
52.5755	0.135	105151	keystroke	a	n/a
52.6205	0.105	105241	keystroke	s	n/a
52.8755	0.075	105751	keystroke	t	n/a
53.0105	0.105	106021	keystroke	l	n/a
53.1005	0.105	106201	keystroke	e	n/a
53.2805	0.075	106561	keystroke	Key.space	n/a
53.7905	0.075	107581	keystroke	r	n/a
53.8665	0.149	107733	keystroke	u	n/a
54.0005	0.105	108001	keystroke	n	n/a
54.1205	0.06	108241	keystroke	s	n/a
54.2105	0.075	108421	keystroke	Key.space	n/a
54.4055	0.06	108811	keystroke	b	n/a
54.5855	0.09	109171	keystroke	i	n/a
54.6455	0.135	109291	keystroke	a	n/a
54.7355	0.135	109471	keystroke	s	n/a
54.9455	0.075	109891	keystroke	Key.enter	n/a
55.0295	8.9035	110059	prompt	n/a	conditions committed paper recipients\n
55.6805	0.105	111361	keystroke	c	n/a
55.7555	0.06	111511	keystroke	o	n/a
55.8755	0.09	111751	keystroke	n	n/a
55.9955	0.09	111991	keystroke	d	n/a
56.2355	0.09	112471	keystroke	r	n/a
56.3405	0.075	112681	keystroke	i	n/a
56.8355	0.09	113671	keystroke	Key.backspace	n/a
57.0005	0.12	114001	keystroke	Key.backspace	n/a
57.3155	0.09	114631	keystroke	i	n/a
57.4805	0.075	114961	keystroke	t	n/a
57.5705	0.03	115141	keystroke	i	n/a
57.6905	0.09	115381	keystroke	o	n/a
57.8705	0.075	115741	keystroke	n	n/a
57.9905	0.09	115981	keystroke	s	n/a
58.0955	0.075	116191	keystroke	Key.space	n/a
58.4405	0.105	116881	keystroke	o	n/a
58.7405	0.075	117481	keystroke	Key.backspace	n/a
58.8305	0.075	117661	keystroke	c	n/a
58.8905	0.105	117781	keystroke	o	n/a
59.1155	0.06	118231	keystroke	m	n/a
59.2655	0.075	118531	keystroke	m	n/a
59.4155	0.105	118831	keystroke	i	n/a
59.6255	0.045	119251	keystroke	t	n/a
60.1505	0.045	120301	keystroke	t	n/a
60.3755	0.105	120751	keystroke	e	n/a
60.4205	0.135	120841	keystroke	d	n/a
60.6455	0.06	121291	keystroke	Key.space	n/a
60.8855	0.09	121771	keystroke	p	n/a
60.9605	0.12	121921	keystroke	a	n/a
61.1705	0.06	122341	keystroke	p	n/a
61.3655	0.15	122731	keystroke	e	n/a
61.4855	0.09	122971	keystroke	r	n/a
61.8905	0.09	123781	keystroke	Key.space	n/a
62.0855	0.075	124171	keystroke	r	n/a
62.1455	0.105	124291	keystroke	e	n/a
62.2955	0.12	124591	keystroke	c	n/a
62.5355	0.105	125071	keystroke	i	n/a
62.8505	0.105	125701	keystroke	p	n/a
63.0755	0.105	126151	keystroke	i	n/a
63.2255	0.105	126451	keystroke	e	n/a
63.4055	0.075	126811	keystroke	n	n/a
63.5105	0.045	127021	keystroke	t	n/a
63.7355	0.09	127471	keystroke	s	n/a
63.8405	0.09	127681	keystroke	Key.enter	n/a
63.938	11.68	127876	prompt	n/a	chancellor combining reform turning\n
64.5155	0.09	129031	keystroke	c	n/a
64.6655	0.06	129331	keystroke	h	n/a
64.7415	0.059	129483	keystroke	a	n/a
64.8455	0.09	129691	keystroke	n	n/a
64.9205	0.09	129841	keystroke	c	n/a
64.9955	0.105	129991	keystroke	e	n/a
65.1155	0.075	130231	keystroke	l	n/a
65.2505	0.09	130501	keystroke	l	n/a
65.4005	0.105	130801	keystroke	o	n/a
65.4905	0.09	130981	keystroke	e	n/a
65.7005	0.09	131401	keystroke	r	n/a
65.9405	0.0605	131881	keystroke	Key.backspace	n/a
66.0755	0.1055	132151	keystroke	Key.backspace	n/a
66.241	0.12	132482	keystroke	r	n/a
66.525	0.105	133050	keystroke	Key.space	n/a
67.936	0.09	135872	keystroke	c	n/a
68.071	0.075	136142	keystroke	i	n/a
68.52	0.091	137040	keystroke	Key.backspace	n/a
68.806	0.105	137612	keystroke	o	n/a
68.926	0.105	137852	keystroke	m	n/a
69.931	0.105	139862	keystroke	b	n/a
70.066	0.12	140132	keystroke	i	n/a
70.276	0.105	140552	keystroke	n	n/a
70.516	0.119	141032	keystroke	i	n/a
70.621	0.105	141242	keystroke	n	n/a
70.741	0.105	141482	keystroke	g	n/a
71.416	0.075	142832	keystroke	Key.space	n/a
71.731	0.105	143462	keystroke	r	n/a
71.881	0.12	143762	keystroke	e	n/a
71.97	0.121	143940	keystroke	f	n/a
72.151	0.075	144302	keystroke	o	n/a
72.226	0.075	144452	keystroke	r	n/a
72.316	0.09	144632	keystroke	m	n/a
72.511	0.149	145022	keystroke	Key.space	n/a
72.916	0.105	145832	keystroke	r	n/a
73.156	0.09	146312	keystroke	u	n/a
73.321	0.09	146642	keystroke	r	n/a
73.606	0.165	147212	keystroke	Key.backspace	n/a
73.846	0.09	147692	keystroke	Key.backspace	n/a
73.996	0.105	147992	keystroke	Key.backspace	n/a
74.116	0.045	148232	keystroke	t	n/a
74.206	0.075	148412	keystroke	u	n/a
74.341	0.075	148682	keystroke	r	n/a
74.596	0.075	149192	keystroke	n	n/a
74.881	0.12	149762	keystroke	i	n/a
75.046	0.105	150092	keystroke	n	n/a
75.166	0.105	150332	keystroke	g	n/a
75.541	0.075	151082	keystroke	Key.enter	n/a
75.6255	6.7725	151251	prompt	n/a	turkey souls reel desperate\n
76.321	0.06	152642	keystroke	t	n/a
76.426	0.075	152852	keystroke	u	n/a
76.516	0.06	153032	keystroke	r	n/a
76.621	0.105	153242	keystroke	k	n/a
76.741	0.105	153482	keystroke	e	n/a
76.891	0.09	153782	keystroke	y	n/a
77.071	0.165	154142	keystroke	Key.space	n/a
77.506	0.105	155012	keystroke	s	n/a
77.596	0.075	155192	keystroke	o	n/a
77.776	0.06	155552	keystroke	u	n/a
77.971	0.075	155942	keystroke	l	n/a
78.031	0.12	156062	keystroke	s	n/a
78.166	0.135	156332	keystroke	Key.space	n/a
78.466	0.075	156932	keystroke	f	n/a
78.811	0.075	157622	keystroke	Key.backspace	n/a
78.901	0.09	157802	keystroke	r	n/a
79.006	0.06	158012	keystroke	e	n/a
79.126	0.09	158252	keystroke	e	n/a
79.231	0.105	158462	keystroke	l	n/a
79.351	0.135	158702	keystroke	Key.space	n/a
79.861	0.135	159722	keystroke	d	n/a
80.011	0.105	160022	keystroke	e	n/a
80.236	0.09	160472	keystroke	s	n/a
80.761	0.075	161522	keystroke	p	n/a
81.241	0.18	162482	keystroke	e	n/a
81.406	0.105	162812	keystroke	r	n/a
81.721	0.12	163442	keystroke	a	n/a
81.856	0.105	163712	keystroke	t	n/a
82.096	0.105	164192	keystroke	e	n/a
82.306	0.09	164612	keystroke	Key.enter	n/a
82.4035	10.5095	164807	prompt	n/a	accommodate stories passwords screenshots\n
83.041	0.09	166082	keystroke	a	n/a
83.236	0.06	166472	keystroke	c	n/a
83.386	0.075	166772	keystroke	c	n/a
83.506	0.09	167012	keystroke	o	n/a
83.656	0.09	167312	keystroke	m	n/a
85.276	0.09	170552	keystroke	m	n/a
85.471	0.105	170942	keystroke	o	n/a
85.636	0.12	171272	keystroke	d	n/a
85.831	0.135	171662	keystroke	a	n/a
86.011	0.105	172022	keystroke	t	n/a
86.117	0.104	172234	keystroke	e	n/a
86.251	0.075	172502	keystroke	Key.space	n/a
86.9255	0.075	173851	keystroke	s	n/a
87.1815	0.015	174363	keystroke	t	n/a
87.2265	0.075	174453	keystroke	o	n/a
87.2705	0.105	174541	keystroke	r	n/a
87.8705	0.076	175741	keystroke	i	n/a
87.9755	0.06	175951	keystroke	e	n/a
88.1405	0.076	176281	keystroke	s	n/a
88.2305	0.06	176461	keystroke	Key.space	n/a
88.4265	0.09	176853	keystroke	p	n/a
88.4565	0.119	176913	keystroke	a	n/a
88.6205	0.061	177241	keystroke	s	n/a
88.7405	0.076	177481	keystroke	s	n/a
89.0405	0.121	178081	keystroke	w	n/a
89.1765	0.075	178353	keystroke	o	n/a
89.2955	0.075	178591	keystroke	r	n/a
89.4605	0.12	178921	keystroke	d	n/a
89.5365	0.09	179073	keystroke	s	n/a
89.6405	0.045	179281	keystroke	Key.space	n/a
89.7305	0.09	179461	keystroke	s	n/a
89.9265	0.15	179853	keystroke	c	n/a
90.0915	0.075	180183	keystroke	r	n/a
90.2855	0.06	180571	keystroke	e	n/a
90.4205	0.061	180841	keystroke	e	n/a
90.5115	0.0745	181023	keystroke	n	n/a
90.676	0.075	181352	keystroke	s	n/a
90.781	0.06	181562	keystroke	h	n/a
90.976	0.09	181952	keystroke	o	n/a
91.126	0.15	182252	keystroke	r	n/a
91.486	0.06	182972	keystroke	=	n/a
91.547	0.06	183094	keystroke	t	n/a
91.741	0.075	183482	keystroke	Key.backspace	n/a
92.011	0.015	184022	keystroke	Key.backspace	n/a
92.071	0.105	184142	keystroke	t	n/a
92.221	0.09	184442	keystroke	Key.backspace	n/a
92.371	0.105	184742	keystroke	Key.backspace	n/a
92.491	0.06	184982	keystroke	t	n/a
92.716	0.09	185432	keystroke	s	n/a
92.821	0.09	185642	keystroke	Key.enter	n/a
92.918	6.325	185836	prompt	n/a	apnic partial diamonds author\n
93.511	0.06	187022	keystroke	a	n/a
93.901	0.12	187802	keystroke	p	n/a
94.366	0.045	188732	keystroke	n	n/a
94.636	0.105	189272	keystroke	i	n/a
94.771	0.09	189542	keystroke	c	n/a
95.146	0.135	190292	keystroke	Key.space	n/a
95.536	0.105	191072	keystroke	p	n/a
95.642	0.089	191284	keystroke	a	n/a
95.821	0.075	191642	keystroke	r	n/a
96.031	0.045	192062	keystroke	t	n/a
96.226	0.075	192452	keystroke	i	n/a
96.361	0.075	192722	keystroke	a	n/a
96.451	0.075	192902	keystroke	l	n/a
96.586	0.12	193172	keystroke	Key.space	n/a
96.841	0.09	193682	keystroke	d	n/a
96.961	0.075	193922	keystroke	i	n/a
97.066	0.09	194132	keystroke	a	n/a
97.171	0.075	194342	keystroke	m	n/a
97.291	0.12	194582	keystroke	o	n/a
97.427	0.074	194854	keystroke	n	n/a
97.516	0.09	195032	keystroke	d	n/a
97.561	0.09	195122	keystroke	s	n/a
97.681	0.06	195362	keystroke	Key.space	n/a
98.131	0.075	196262	keystroke	a	n/a
98.236	0.075	196472	keystroke	u	n/a
98.371	0.0745	196742	keystroke	t	n/a
98.6105	0.06	197221	keystroke	h	n/a
98.8205	0.075	197641	keystroke	o	n/a
98.9105	0.09	197821	keystroke	r	n/a
99.1805	0.06	198361	keystroke	Key.enter	n/a
99.2485	6.8045	198497	prompt	n/a	coverage union steal brokers\n
99.8105	0.09	199621	keystroke	a	n/a
100.0355	0.105	200071	keystroke	Key.backspace	n/a
100.1255	0.09	200251	keystroke	c	n/a
100.2455	0.075	200491	keystroke	o	n/a
100.3355	0.06	200671	keystroke	v	n/a
100.4255	0.135	200851	keystroke	e	n/a
100.5455	0.105	201091	keystroke	r	n/a
100.7705	0.09	201541	keystroke	a	n/a
100.9205	0.09	201841	keystroke	g	n/a
100.9955	0.105	201991	keystroke	e	n/a
101.1755	0.075	202351	keystroke	Key.space	n/a
101.4305	0.075	202861	keystroke	u	n/a
101.5505	0.075	203101	keystroke	n	n/a
101.7005	0.09	203401	keystroke	i	n/a
101.8805	0.06	203761	keystroke	o	n/a
102.0005	0.09	204001	keystroke	n	n/a
102.1355	0.09	204271	keystroke	Key.space	n/a
102.2855	0.09	204571	keystroke	s	n/a
102.4355	0.09	204871	keystroke	r	n/a
102.5405	0.105	205081	keystroke	e	n/a
102.7055	0.09	205411	keystroke	a	n/a
102.9605	0.105	205921	keystroke	Key.backspace	n/a
103.1105	0.105	206221	keystroke	Key.backspace	n/a
103.2755	0.105	206551	keystroke	Key.backspace	n/a
103.3355	0.09	206671	keystroke	t	n/a
103.4105	0.06	206821	keystroke	e	n/a
103.5755	0.105	207151	keystroke	a	n/a
103.6955	0.09	207391	keystroke	l	n/a
103.8305	0.12	207661	keystroke	Key.space	n/a
104.4905	0.045	208981	keystroke	r	n/a
104.7905	0.12	209581	keystroke	Key.backspace	n/a
104.9705	0.09	209941	keystroke	b	n/a
105.0905	0.105	210181	keystroke	r	n/a
105.2105	0.135	210421	keystroke	o	n/a
105.3155	0.12	210631	keystroke	k	n/a
105.4205	0.105	210841	keystroke	e	n/a
105.4805	0.105	210961	keystroke	r	n/a
105.6605	0.105	211321	keystroke	s	n/a
105.9605	0.09	211921	keystroke	Key.enter	n/a
106.058	7.1945	212116	prompt	n/a	postal james router cambodia\n
106.7555	0.015	213511	keystroke	p	n/a
106.8455	0.09	213691	keystroke	o	n/a
106.9505	0.105	213901	keystroke	s	n/a
107.0705	0.06	214141	keystroke	t	n/a
107.2055	0.075	214411	keystroke	a	n/a
107.2955	0.075	214591	keystroke	l	n/a
107.3855	0.105	214771	keystroke	Key.space	n/a
108.2855	0.075	216571	keystroke	j	n/a
108.3755	0.075	216751	keystroke	a	n/a
108.4955	0.09	216991	keystroke	m	n/a
108.6005	0.045	217201	keystroke	e	n/a
108.7505	0.075	217501	keystroke	s	n/a
108.8265	0.074	217653	keystroke	Key.space	n/a
109.2155	0.091	218431	keystroke	r	n/a
109.2905	0.075	218581	keystroke	o	n/a
109.5005	0.075	219001	keystroke	u	n/a
109.6055	0.075	219211	keystroke	t	n/a
109.7115	0.119	219423	keystroke	e	n/a
109.8155	0.09	219631	keystroke	r	n/a
110.4305	0.075	220861	keystroke	Key.space	n/a
110.6555	0.09	221311	keystroke	c	n/a
110.7755	0.09	221551	keystroke	a	n/a
110.8805	0.075	221761	keystroke	m	n/a
111.5255	0.075	223051	keystroke	b	n/a
112.3355	0.09	224671	keystroke	o	n/a
112.5605	0.105	225121	keystroke	d	n/a
112.6805	0.09	225361	keystroke	i	n/a
112.7555	0.135	225511	keystroke	a	n/a
113.1755	0.075	226351	keystroke	Key.enter	n/a
113.2615	7.1915	226523	prompt	n/a	programmers dating palm surrounding\n
113.8965	0.089	227793	keystroke	p	n/a
114.0905	0.09	228181	keystroke	r	n/a
114.1965	0.06	228393	keystroke	o	n/a
114.3305	0.12	228661	keystroke	g	n/a
114.4205	0.135	228841	keystroke	r	n/a
114.7805	0.09	229561	keystroke	a	n/a
114.9155	0.075	229831	keystroke	m	n/a
115.0505	0.09	230101	keystroke	m	n/a
115.1555	0.075	230311	keystroke	e	n/a
115.2005	0.076	230401	keystroke	r	n/a
115.3355	0.105	230671	keystroke	s	n/a
115.4555	0.091	230911	keystroke	Key.space	n/a
115.9055	0.09	231811	keystroke	d	n/a
116.0405	0.105	232081	keystroke	a	n/a
116.2655	0.045	232531	keystroke	t	n/a
116.2815	0.149	232563	keystroke	i	n/a
116.3855	0.105	232771	keystroke	n	n/a
116.4755	0.061	232951	keystroke	g	n/a
116.5805	0.075	233161	keystroke	Key.space	n/a
116.8655	0.09	233731	keystroke	p	n/a
116.9715	0.075	233943	keystroke	a	n/a
117.0465	0.119	234093	keystroke	l	n/a
117.2565	0.089	234513	keystroke	m	n/a
117.3905	0.15	234781	keystroke	Key.space	n/a
118.0205	0.09	236041	keystroke	s	n/a
118.1705	0.075	236341	keystroke	u	n/a
118.3205	0.06	236641	keystroke	r	n/a
118.4705	0.075	236941	keystroke	r	n/a
119.0105	0.061	238021	keystroke	o	n/a
119.4465	0.089	238893	keystroke	u	n/a
119.5805	0.09	239161	keystroke	n	n/a
119.7905	0.091	239581	keystroke	d	n/a
119.8955	0.09	239791	keystroke	i	n/a
119.9405	0.106	239881	keystroke	n	n/a
120.0465	0.105	240093	keystroke	g	n/a
120.3755	0.075	240751	keystroke	Key.enter	n/a
120.4575	7.886	240915	prompt	n/a	difficulties friends liable dogs\n
121.1265	0.104	242253	keystroke	d	n/a
121.2755	0.076	242551	keystroke	i	n/a
121.4115	0.059	242823	keystroke	f	n/a
121.5455	0.076	243091	keystroke	f	n/a
121.6665	0.074	243333	keystroke	i	n/a
122.3115	0.105	244623	keystroke	c	n/a
122.4015	0.06	244803	keystroke	u	n/a
122.5955	0.075	245191	keystroke	l	n/a
122.7015	0.06	245403	keystroke	t	n/a
122.7765	0.105	245553	keystroke	i	n/a
122.9115	0.06	245823	keystroke	e	n/a
123.0755	0.061	246151	keystroke	s	n/a
123.1655	0.075	246331	keystroke	Key.space	n/a
123.5855	0.12	247171	keystroke	f	n/a
123.6915	0.119	247383	keystroke	r	n/a
123.8555	0.091	247711	keystroke	i	n/a
123.9905	0.106	247981	keystroke	e	n/a
124.1715	0.075	248343	keystroke	n	n/a
124.2615	0.18	248523	keystroke	d	n/a
124.3365	0.15	248673	keystroke	s	n/a
124.7555	0.075	249511	keystroke	Key.space	n/a
125.0415	0.075	250083	keystroke	l	n/a
125.2055	0.076	250411	keystroke	i	n/a
125.2365	0.09	250473	keystroke	a	n/a
125.4165	0.06	250833	keystroke	v	n/a
125.4915	0.12	250983	keystroke	l	n/a
125.5955	0.106	251191	keystroke	e	n/a
125.7305	0.09	251461	keystroke	Key.space	n/a
126.2105	0.076	252421	keystroke	Key.backspace	n/a
126.3605	0.091	252721	keystroke	Key.backspace	n/a
126.5105	0.12	253021	keystroke	Key.backspace	n/a
126.6325	0.074	253265	keystroke	b	n/a
126.9305	0.09	253861	keystroke	Key.backspace	n/a
127.0965	0.105	254193	keystroke	Key.backspace	n/a
127.1565	0.075	254313	keystroke	b	n/a
127.2605	0.061	254521	keystroke	l	n/a
127.3665	0.09	254733	keystroke	e	n/a
127.5165	0.134	255033	keystroke	Key.space	n/a
127.7415	0.075	255483	keystroke	d	n/a
127.8465	0.09	255693	keystroke	o	n/a
127.9515	0.045	255903	keystroke	g	n/a
128.1165	0.09	256233	keystroke	s	n/a
128.2665	0.075	256533	keystroke	Key.enter	n/a
128.3505	6.0225	256701	prompt	n/a	mode treating cheat remained\n
128.9715	0.045	257943	keystroke	m	n/a
129.1215	0.105	258243	keystroke	o	n/a
129.2415	0.105	258483	keystroke	d	n/a
129.3315	0.105	258663	keystroke	e	n/a
129.9005	0.06	259801	keystroke	Key.space	n/a
130.2015	0.045	260403	keystroke	t	n/a
130.2915	0.105	260583	keystroke	r	n/a
130.8165	0.06	261633	keystroke	e	n/a
130.9815	0.105	261963	keystroke	a	n/a
131.1165	0.075	262233	keystroke	t	n/a
131.2215	0.15	262443	keystroke	i	n/a
131.3255	0.091	262651	keystroke	n	n/a
131.4315	0.075	262863	keystroke	g	n/a
131.5515	0.074	263103	keystroke	Key.space	n/a
131.8815	0.075	263763	keystroke	c	n/a
132.0015	0.075	264003	keystroke	h	n/a
132.0615	0.09	264123	keystroke	e	n/a
132.2565	0.075	264513	keystroke	a	n/a
132.3915	0.075	264783	keystroke	t	n/a
132.5265	0.075	265053	keystroke	Key.space	n/a
132.7965	0.075	265593	keystroke	r	n/a
132.8415	0.12	265683	keystroke	e	n/a
133.0665	0.09	266133	keystroke	m	n/a
133.2015	0.09	266403	keystroke	a	n/a
133.6065	0.105	267213	keystroke	i	n/a
133.7715	0.09	267543	keystroke	n	n/a
133.8915	0.09	267783	keystroke	e	n/a
133.9665	0.12	267933	keystroke	d	n/a
134.2965	0.075	268593	keystroke	Key.enter	n/a
134.378	8.2305	268756	prompt	n/a	deck plenty visits occurring\n
134.9415	0.09	269883	keystroke	d	n/a
135.0465	0.225	270093	keystroke	e	n/a
135.1815	0.105	270363	keystroke	c	n/a
135.7665	0.075	271533	keystroke	k	n/a
136.1565	0.119	272313	keystroke	Key.space	n/a
136.2915	0.12	272583	keystroke	p	n/a
136.3815	0.12	272763	keystroke	l	n/a
136.5465	0.09	273093	keystroke	e	n/a
136.6815	0.075	273363	keystroke	n	n/a
136.9665	0.06	273933	keystroke	r	n/a
137.0415	0.075	274083	keystroke	y	n/a
137.4465	0.075	274893	keystroke	Key.backspace	n/a
137.5815	0.12	275163	keystroke	Key.backspace	n/a
137.6715	0.075	275343	keystroke	t	n/a
137.7915	0.105	275583	keystroke	u	n/a
137.8965	0.09	275793	keystroke	Key.space	n/a
138.2115	0.105	276423	keystroke	Key.backspace	n/a
138.3765	0.06	276753	keystroke	Key.backspace	n/a
138.5565	0.06	277113	keystroke	y	n/a
138.8415	0.12	277683	keystroke	Key.space	n/a
139.5015	0.075	279003	keystroke	b	n/a
139.7565	0.09	279513	keystroke	Key.backspace	n/a
139.8315	0.09	279663	keystroke	v	n/a
139.9365	0.075	279873	keystroke	i	n/a
140.0715	0.105	280143	keystroke	s	n/a
140.4165	0.09	280833	keystroke	i	n/a
140.5215	0.09	281043	keystroke	t	n/a
140.7615	0.09	281523	keystroke	s	n/a
140.8965	0.075	281793	keystroke	Key.space	n/a
141.1365	0.075	282273	keystroke	o	n/a
141.2415	0.09	282483	keystroke	c	n/a
141.4065	0.06	282813	keystroke	c	n/a
141.5565	0.06	283113	keystroke	u	n/a
141.9015	0.06	283803	keystroke	r	n/a
142.0215	0.09	284043	keystroke	r	n/a
142.0965	0.15	284193	keystroke	i	n/a
142.2015	0.075	284403	keystroke	n	n/a
142.2915	0.09	284583	keystroke	g	n/a
142.5315	0.075	285063	keystroke	Key.enter	n/a
142.614	6.775	285228	prompt	n/a	plot derived temporary teen\n
143.2365	0.12	286473	keystroke	p	n/a
143.3415	0.12	286683	keystroke	l	n/a
143.5215	0.09	287043	keystroke	o	n/a
143.6415	0.075	287283	keystroke	t	n/a
144.1215	0.06	288243	keystroke	Key.space	n/a
144.4365	0.09	288873	keystroke	r	n/a
144.6765	0.09	289353	keystroke	Key.backspace	n/a
144.7365	0.105	289473	keystroke	d	n/a
144.8565	0.135	289713	keystroke	e	n/a
145.1715	0.075	290343	keystroke	r	n/a
145.3365	0.06	290673	keystroke	i	n/a
145.4265	0.12	290853	keystroke	v	n/a
145.6515	0.12	291303	keystroke	e	n/a
145.7115	0.15	291423	keystroke	d	n/a
145.9215	0.075	291843	keystroke	Key.space	n/a
146.2965	0.075	292593	keystroke	t	n/a
146.4915	0.09	292983	keystroke	e	n/a
146.5965	0.075	293193	keystroke	m	n/a
146.8065	0.06	293613	keystroke	p	n/a
146.9565	0.105	293913	keystroke	o	n/a
147.1515	0.075	294303	keystroke	r	n/a
147.3615	0.15	294723	keystroke	a	n/a
147.4965	0.105	294993	keystroke	r	n/a
147.6615	0.045	295323	keystroke	y	n/a
147.8115	0.12	295623	keystroke	Key.space	n/a
148.6365	0.075	297273	keystroke	t	n/a
148.8165	0.045	297633	keystroke	e	n/a
148.9665	0.105	297933	keystroke	e	n/a
149.0565	0.06	298113	keystroke	n	n/a
149.3265	0.06	298653	keystroke	Key.enter	n/a
149.3935	7.376	298787	prompt	n/a	porcelain wallet jones divorce\n
150.0615	0.075	300123	keystroke	p	n/a
150.2265	0.045	300453	keystroke	e	n/a
150.5865	0.09	301173	keystroke	Key.backspace	n/a
150.7515	0.09	301503	keystroke	o	n/a
150.8715	0.09	301743	keystroke	r	n/a
151.4715	0.105	302943	keystroke	c	n/a
151.5165	0.135	303033	keystroke	e	n/a
151.7265	0.105	303453	keystroke	l	n/a
152.1465	0.075	304293	keystroke	a	n/a
152.2365	0.12	304473	keystroke	i	n/a
152.3265	0.09	304653	keystroke	n	n/a
152.4765	0.135	304953	keystroke	Key.space	n/a
152.7915	0.06	305583	keystroke	w	n/a
152.9715	0.075	305943	keystroke	a	n/a
153.0315	0.075	306063	keystroke	l	n/a
153.2865	0.075	306573	keystroke	l	n/a
153.4215	0.105	306843	keystroke	e	n/a
153.5865	0.075	307173	keystroke	t	n/a
153.7065	0.09	307413	keystroke	Key.space	n/a
154.0815	0.09	308163	keystroke	j	n/a
154.2465	0.09	308493	keystroke	o	n/a
154.4265	0.075	308853	keystroke	n	n/a
154.5165	0.06	309033	keystroke	e	n/a
154.6965	0.075	309393	keystroke	s	n/a
154.7565	0.075	309513	keystroke	Key.space	n/a
155.0565	0.105	310113	keystroke	d	n/a
155.2065	0.09	310413	keystroke	i	n/a
155.3415	0.12	310683	keystroke	c	n/a
155.7165	0.075	311433	keystroke	Key.backspace	n/a
155.8065	0.06	311613	keystroke	v	n/a
155.9115	0.105	311823	keystroke	o	n/a
156.1515	0.075	312303	keystroke	r	n/a
156.3615	0.135	312723	keystroke	c	n/a
156.4515	0.12	312903	keystroke	e	n/a
156.7065	0.06	313413	keystroke	Key.enter	n/a
156.778	4.3405	313556	prompt	n/a	crops floor seeks samples\n
157.3215	0.09	314643	keystroke	c	n/a
157.4715	0.075	314943	keystroke	r	n/a
157.5615	0.075	315123	keystroke	o	n/a
157.7415	0.075	315483	keystroke	p	n/a
157.7865	0.12	315573	keystroke	s	n/a
157.9515	0.105	315903	keystroke	Key.space	n/a
158.1015	0.12	316203	keystroke	f	n/a
158.2065	0.075	316413	keystroke	l	n/a
158.3565	0.075	316713	keystroke	o	n/a
158.491	0.075	316982	keystroke	o	n/a
158.5515	0.105	317103	keystroke	r	n/a
158.6865	0.12	317373	keystroke	Key.space	n/a
159.136	0.09	318272	keystroke	s	n/a
159.3315	0.075	318663	keystroke	e	n/a
159.496	0.09	318992	keystroke	e	n/a
159.646	0.075	319292	keystroke	k	n/a
159.781	0.12	319562	keystroke	s	n/a
159.916	0.135	319832	keystroke	Key.space	n/a
160.141	0.09	320282	keystroke	s	n/a
160.336	0.0755	320672	keystroke	a	n/a
160.426	0.075	320852	keystroke	m	n/a
160.591	0.105	321182	keystroke	p	n/a
160.666	0.135	321332	keystroke	l	n/a
160.786	0.075	321572	keystroke	e	n/a
160.951	0.09	321902	keystroke	s	n/a
161.026	0.09	322052	keystroke	Key.enter	n/a
161.1235	6.145	322247	prompt	n/a	theft pants winners vietnamese\n
161.866	0.045	323732	keystroke	t	n/a
161.956	0.075	323912	keystroke	h	n/a
162.061	0.09	324122	keystroke	e	n/a
162.136	0.105	324272	keystroke	f	n/a
162.346	0.06	324692	keystroke	t	n/a
162.481	0.105	324962	keystroke	Key.space	n/a
162.796	0.06	325592	keystroke	p	n/a
162.961	0.06	325922	keystroke	a	n/a
163.051	0.075	326102	keystroke	n	n/a
163.171	0.06	326342	keystroke	t	n/a
163.336	0.0905	326672	keystroke	s	n/a
163.441	0.06	326882	keystroke	Key.space	n/a
163.591	0.075	327182	keystroke	w	n/a
163.786	0.09	327572	keystroke	i	n/a
163.921	0.045	327842	keystroke	n	n/a
164.026	0.105	328052	keystroke	n	n/a
164.101	0.12	328202	keystroke	e	n/a
164.191	0.105	328382	keystroke	r	n/a
164.341	0.09	328682	keystroke	s	n/a
164.461	0.09	328922	keystroke	Key.space	n/a
165.046	0.06	330092	keystroke	v	n/a
165.376	0.075	330752	keystroke	i	n/a
165.511	0.12	331022	keystroke	e	n/a
165.781	0.075	331562	keystroke	t	n/a
166.156	0.06	332312	keystroke	n	n/a
166.306	0.075	332612	keystroke	a	n/a
166.501	0.075	333002	keystroke	m	n/a
166.696	0.075	333392	keystroke	e	n/a
166.891	0.06	333782	keystroke	s	n/a
167.041	0.09	334082	keystroke	e	n/a
167.176	0.09	334352	keystroke	Key.enter	n/a
167.2735	7.675	334547	prompt	n/a	valves participants talked commissions\n
168.047	0.059	336094	keystroke	v	n/a
168.152	0.104	336304	keystroke	a	n/a
168.301	0.076	336602	keystroke	l	n/a
168.391	0.045	336782	keystroke	v	n/a
168.676	0.06	337352	keystroke	e	n/a
168.871	0.076	337742	keystroke	s	n/a
168.961	0.075	337922	keystroke	Key.space	n/a
169.201	0.075	338402	keystroke	p	n/a
169.261	0.06	338522	keystroke	a	n/a
169.442	0.059	338884	keystroke	r	n/a
169.621	0.06	339242	keystroke	t	n/a
169.727	0.089	339454	keystroke	i	n/a
169.907	0.134	339814	keystroke	c	n/a
170.086	0.106	340172	keystroke	i	n/a
170.597	0.074	341194	keystroke	p	n/a
170.731	0.12	341462	keystroke	a	n/a
170.926	0.075	341852	keystroke	n	n/a
171.047	0.059	342094	keystroke	t	n/a
171.257	0.089	342514	keystroke	s	n/a
171.421	0.09	342842	keystroke	Key.space	n/a
172.186	0.061	344372	keystroke	t	n/a
172.352	0.104	344704	keystroke	a	n/a
172.441	0.091	344882	keystroke	l	n/a
172.621	0.09	345242	keystroke	k	n/a
172.726	0.12	345452	keystroke	e	n/a
172.757	0.119	345514	keystroke	d	n/a
172.936	0.06	345872	keystroke	Key.space	n/a
173.146	0.09	346292	keystroke	c	n/a
173.222	0.089	346444	keystroke	o	n/a
173.342	0.075	346684	keystroke	m	n/a
173.522	0.059	347044	keystroke	m	n/a
173.672	0.074	347344	keystroke	i	n/a
173.837	0.105	347674	keystroke	s	n/a
174.061	0.076	348122	keystroke	s	n/a
174.181	0.09	348362	keystroke	i	n/a
174.347	0.06	348694	keystroke	o	n/a
174.512	0.075	349024	keystroke	n	n/a
174.661	0.106	349322	keystroke	s	n/a
174.886	0.06	349772	keystroke	Key.enter	n/a
174.9535	6.506	349907	prompt	n/a	thrown artistic explorer reply\n
175.562	0.075	351124	keystroke	t	n/a
175.667	0.074	351334	keystroke	h	n/a
175.861	0.106	351722	keystroke	r	n/a
175.981	0.091	351962	keystroke	o	n/a
176.117	0.09	352234	keystroke	w	n/a
176.236	0.075	352472	keystroke	n	n/a
176.401	0.075	352802	keystroke	Key.space	n/a
176.597	0.089	353194	keystroke	a	n/a
176.777	0.075	353554	keystroke	r	n/a
177.001	0.076	354002	keystroke	t	n/a
177.182	0.075	354364	keystroke	i	n/a
177.467	0.09	354934	keystroke	s	n/a
177.722	0.059	355444	keystroke	t	n/a
177.901	0.075	355802	keystroke	i	n/a
177.992	0.135	355984	keystroke	c	n/a
178.171	0.12	356342	keystroke	Key.space	n/a
178.517	0.075	357034	keystroke	e	n/a
178.667	0.119	357334	keystroke	x	n/a
178.771	0.136	357542	keystroke	p	n/a
178.891	0.105	357782	keystroke	l	n/a
179.056	0.091	358112	keystroke	o	n/a
179.177	0.119	358354	keystroke	r	n/a
179.597	0.135	359194	keystroke	e	n/a
179.776	0.106	359552	keystroke	r	n/a
179.971	0.06	359942	keystroke	Key.space	n/a
180.166	0.091	360332	keystroke	r	n/a
180.242	0.104	360484	keystroke	e	n/a
180.587	0.149	361174	keystroke	p	n/a
180.662	0.135	361324	keystroke	l	n/a
181.037	0.075	362074	keystroke	y	n/a
181.396	0.06	362792	keystroke	Key.enter	n/a
181.4655	11.4985	362931	prompt	n/a	emperor notices promising wall\n
182.087	0.075	364174	keystroke	e	n/a
182.192	0.075	364384	keystroke	m	n/a
182.371	0.076	364742	keystroke	p	n/a
182.552	0.089	365104	keystroke	o	n/a
182.687	0.105	365374	keystroke	r	n/a
183.182	0.135	366364	keystroke	e	n/a
183.332	0.12	366664	keystroke	r	n/a
183.646	0.106	367292	keystroke	Key.backspace	n/a
183.722	0.09	367444	keystroke	o	n/a
183.872	0.105	367744	keystroke	r	n/a
184.097	0.074	368194	keystroke	Key.backspace	n/a
184.262	0.059	368524	keystroke	Key.backspace	n/a
184.412	0.089	368824	keystroke	Key.backspace	n/a
184.442	0.12	368884	keystroke	o	n/a
184.547	0.09	369094	keystroke	r	n/a
184.652	0.089	369304	keystroke	Key.space	n/a
186.376	0.136	372752	keystroke	Key.backspace	n/a
186.601	0.091	373202	keystroke	Key.backspace	n/a
187.067	0.105	374134	keystroke	Key.backspace	n/a
187.277	0.104	374554	keystroke	Key.backspace	n/a
188.042	0.09	376084	keystroke	Key.backspace	n/a
188.267	0.135	376534	keystroke	e	n/a
188.537	0.075	377074	keystroke	r	n/a
188.762	0.075	377524	keystroke	o	n/a
188.852	0.075	377704	keystroke	r	n/a
188.956	0.075	377912	keystroke	Key.space	n/a
189.647	0.075	379294	keystroke	n	n/a
189.812	0.09	379624	keystroke	o	n/a
189.932	0.09	379864	keystroke	t	n/a
190.112	0.075	380224	keystroke	i	n/a
190.217	0.12	380434	keystroke	c	n/a
190.322	0.105	380644	keystroke	e	n/a
190.532	0.09	381064	keystroke	s	n/a
190.652	0.075	381304	keystroke	Key.space	n/a
191.087	0.09	382174	keystroke	p	n/a
191.222	0.09	382444	keystroke	r	n/a
191.297	0.12	382594	keystroke	o	n/a
191.402	0.105	382804	keystroke	m	n/a
191.567	0.06	383134	keystroke	i	n/a
191.687	0.09	383374	keystroke	s	n/a
191.762	0.105	383524	keystroke	i	n/a
191.837	0.105	383674	keystroke	n	n/a
191.972	0.075	383944	keystroke	g	n/a
192.032	0.075	384064	keystroke	Key.space	n/a
192.317	0.075	384634	keystroke	w	n/a
192.482	0.075	384964	keystroke	a	n/a
192.542	0.045	385084	keystroke	l	n/a
192.677	0.075	385354	keystroke	l	n/a
192.917	0.045	385834	keystroke	Key.enter	n/a
192.9695	7.7045	385939	prompt	n/a	watts ongoing movements highly\n
193.532	0.075	387064	keystroke	e	n/a
194.027	0.075	388054	keystroke	Key.backspace	n/a
194.117	0.06	388234	keystroke	w	n/a
194.252	0.105	388504	keystroke	a	n/a
194.462	0.06	388924	keystroke	t	n/a
194.582	0.09	389164	keystroke	t	n/a
194.777	0.075	389554	keystroke	s	n/a
194.867	0.075	389734	keystroke	Key.space	n/a
195.032	0.09	390064	keystroke	o	n/a
195.167	0.075	390334	keystroke	n	n/a
195.287	0.075	390574	keystroke	g	n/a
195.377	0.09	390754	keystroke	o	n/a
195.557	0.12	391114	keystroke	i	n/a
195.647	0.105	391294	keystroke	n	n/a
195.767	0.06	391534	keystroke	g	n/a
195.842	0.075	391684	keystroke	Key.space	n/a
196.322	0.015	392644	keystroke	n	n/a
196.517	0.105	393034	keystroke	Key.backspace	n/a
196.637	0.06	393274	keystroke	m	n/a
196.757	0.12	393514	keystroke	o	n/a
196.862	0.09	393724	keystroke	v	n/a
196.982	0.105	393964	keystroke	e	n/a
197.207	0.075	394414	keystroke	m	n/a
197.297	0.075	394594	keystroke	e	n/a
197.402	0.075	394804	keystroke	n	n/a
197.522	0.06	395044	keystroke	t	n/a
197.717	0.075	395434	keystroke	s	n/a
197.807	0.06	395614	keystroke	Key.space	n/a
197.942	0.015	395884	keystroke	w	n/a
198.3165	0.09	396633	keystroke	Key.backspace	n/a
198.5115	0.06	397023	keystroke	h	n/a
198.6765	0.075	397353	keystroke	i	n/a
198.7815	0.075	397563	keystroke	g	n/a
198.8715	0.075	397743	keystroke	h	n/a
199.0515	0.045	398103	keystroke	t	n/a
199.3515	0.09	398703	keystroke	Key.backspace	n/a
199.4265	0.106	398853	keystroke	l	n/a
199.5915	0.075	399183	keystroke	y	n/a
200.5815	0.09	401163	keystroke	Key.enter	n/a
200.6785	6.34	401357	prompt	n/a	founder reprints trinidad derek\n
201.2875	0.12	402575	keystroke	f	n/a
201.4215	0.045	402843	keystroke	o	n/a
201.5865	0.12	403173	keystroke	u	n/a
201.6615	0.12	403323	keystroke	n	n/a
201.7225	0.134	403445	keystroke	d	n/a
201.8425	0.149	403685	keystroke	e	n/a
201.9765	0.09	403953	keystroke	r	n/a
202.0815	0.09	404163	keystroke	Key.space	n/a
202.4865	0.09	404973	keystroke	r	n/a
202.5625	0.105	405125	keystroke	e	n/a
202.7125	0.09	405425	keystroke	p	n/a
202.9365	0.09	405873	keystroke	r	n/a
203.2065	0.09	406413	keystroke	i	n/a
203.2815	0.105	406563	keystroke	n	n/a
203.4025	0.059	406805	keystroke	t	n/a
203.6115	0.091	407223	keystroke	s	n/a
203.7165	0.09	407433	keystroke	Key.space	n/a
204.1515	0.075	408303	keystroke	t	n/a
204.3765	0.09	408753	keystroke	r	n/a
204.5265	0.105	409053	keystroke	i	n/a
204.6175	0.12	409235	keystroke	n	n/a
204.7815	0.12	409563	keystroke	i	n/a
205.4115	0.105	410823	keystroke	d	n/a
205.5765	0.151	411153	keystroke	a	n/a
205.6815	0.12	411363	keystroke	d	n/a
206.0265	0.091	412053	keystroke	Key.space	n/a
206.1615	0.09	412323	keystroke	d	n/a
206.2365	0.135	412473	keystroke	e	n/a
206.3865	0.105	412773	keystroke	r	n/a
206.5065	0.09	413013	keystroke	e	n/a
206.6115	0.06	413223	keystroke	k	n/a
206.9425	0.074	413885	keystroke	Key.enter	n/a
207.0245	11.304	414049	prompt	n/a	describes cleaners involve demonstrated\n
207.6315	0.106	415263	keystroke	d	n/a
207.7375	0.105	415475	keystroke	e	n/a
207.947	0.075	415894	keystroke	s	n/a
208.157	0.105	416314	keystroke	r	n/a
208.517	0.135	417034	keystroke	Key.backspace	n/a
208.637	0.135	417274	keystroke	v	n/a
208.802	0.135	417604	keystroke	r	n/a
209.147	0.09	418294	keystroke	Key.backspace	n/a
209.282	0.135	418564	keystroke	Key.backspace	n/a
209.357	0.105	418714	keystroke	c	n/a
209.522	0.105	419044	keystroke	i	n/a
210.392	0.09	420784	keystroke	Key.backspace	n/a
210.662	0.09	421324	keystroke	r	n/a
210.917	0.075	421834	keystroke	i	n/a
211.007	0.075	422014	keystroke	b	n/a
211.427	0.06	422854	keystroke	e	n/a
211.607	0.075	423214	keystroke	s	n/a
211.772	0.105	423544	keystroke	Key.space	n/a
212.312	0.09	424624	keystroke	c	n/a
212.432	0.09	424864	keystroke	l	n/a
212.462	0.1045	424924	keystroke	e	n/a
212.6715	0.106	425343	keystroke	a	n/a
212.8825	0.059	425765	keystroke	n	n/a
212.9565	0.09	425913	keystroke	e	n/a
213.0165	0.091	426033	keystroke	r	n/a
213.1825	0.074	426365	keystroke	s	n/a
213.2715	0.075	426543	keystroke	Key.space	n/a
213.4675	0.104	426935	keystroke	i	n/a
213.5575	0.075	427115	keystroke	n	n/a
213.7815	0.091	427563	keystroke	o	n/a
214.0515	0.105	428103	keystroke	Key.backspace	n/a
214.1725	0.09	428345	keystroke	v	n/a
214.3075	0.075	428615	keystroke	o	n/a
214.4725	0.075	428945	keystroke	l	n/a
214.6375	0.12	429275	keystroke	e	n/a
214.9365	0.105	429873	keystroke	Key.backspace	n/a
215.0575	0.12	430115	keystroke	v	n/a
215.2375	0.15	430475	keystroke	e	n/a
215.3715	0.15	430743	keystroke	Key.space	n/a
215.8825	0.105	431765	keystroke	d	n/a
215.9725	0.12	431945	keystroke	e	n/a
216.1225	0.105	432245	keystroke	m	n/a
216.2725	0.09	432545	keystroke	o	n/a
216.3925	0.09	432785	keystroke	n	n/a
216.5125	0.09	433025	keystroke	s	n/a
216.6625	0.105	433325	keystroke	t	n/a
216.8125	0.09	433625	keystroke	r	n/a
217.0375	0.06	434075	keystroke	a	n/a
217.2625	0.12	434525	keystroke	e	n/a
217.5765	0.121	435153	keystroke	Key.backspace	n/a
217.6825	0.09	435365	keystroke	t	n/a
217.8175	0.179	435635	keystroke	e	n/a
217.9375	0.15	435875	keystroke	d	n/a
218.2525	0.074	436505	keystroke	Key.enter	n/a
218.334	7.9455	436668	prompt	n/a	novel identity swift rural\n
219.0475	0.045	438095	keystroke	b	n/a
219.1825	0.075	438365	keystroke	o	n/a
219.2585	0.059	438517	keystroke	v	n/a
219.4375	0.075	438875	keystroke	Key.backspace	n/a
219.5725	0.225	439145	keystroke	Key.backspace	n/a
219.9175	0.12	439835	keystroke	Key.backspace	n/a
220.0825	0.075	440165	keystroke	n	n/a
220.2625	0.105	440525	keystroke	o	n/a
220.3825	0.12	440765	keystroke	v	n/a
220.5925	0.12	441185	keystroke	e	n/a
220.7425	0.09	441485	keystroke	l	n/a
220.8475	0.15	441695	keystroke	Key.space	n/a
221.1775	0.075	442355	keystroke	i	n/a
221.3125	0.135	442625	keystroke	d	n/a
221.4175	0.09	442835	keystroke	e	n/a
221.5225	0.075	443045	keystroke	n	n/a
221.7175	0.075	443435	keystroke	t	n/a
221.8225	0.09	443645	keystroke	i	n/a
221.9425	0.105	443885	keystroke	r	n/a
222.0775	0.075	444155	keystroke	y	n/a
222.1975	0.09	444395	keystroke	Key.space	n/a
222.4825	0.075	444965	keystroke	s	n/a
223.1725	0.089	446345	keystroke	Key.backspace	n/a
223.3375	0.105	446675	keystroke	Key.backspace	n/a
223.5025	0.09	447005	keystroke	Key.backspace	n/a
223.6675	0.09	447335	keystroke	Key.backspace	n/a
223.8025	0.09	447605	keystroke	t	n/a
223.9975	0.075	447995	keystroke	y	n/a
224.2525	0.12	448505	keystroke	Key.space	n/a
224.3875	0.105	448775	keystroke	s	n/a
224.6575	0.015	449315	keystroke	w	n/a
224.7025	0.075	449405	keystroke	i	n/a
224.8975	0.12	449795	keystroke	f	n/a
225.1225	0.06	450245	keystroke	t	n/a
225.2275	0.075	450455	keystroke	Key.space	n/a
225.4075	0.075	450815	keystroke	r	n/a
225.5425	0.09	451085	keystroke	u	n/a
225.6925	0.06	451385	keystroke	r	n/a
225.8875	0.09	451775	keystroke	a	n/a
225.9475	0.09	451895	keystroke	l	n/a
226.2175	0.06	452435	keystroke	Key.enter	n/a
226.285	6.8045	452570	prompt	n/a	singing additions evident grove\n
226.9375	0.09	453875	keystroke	s	n/a
227.0575	0.075	454115	keystroke	i	n/a
227.1925	0.105	454385	keystroke	n	n/a
227.3875	0.09	454775	keystroke	g	n/a
227.5675	0.105	455135	keystroke	i	n/a
227.7175	0.075	455435	keystroke	n	n/a
227.8375	0.06	455675	keystroke	g	n/a
227.9275	0.06	455855	keystroke	Key.space	n/a
228.1375	0.09	456275	keystroke	a	n/a
228.2575	0.09	456515	keystroke	d	n/a
228.4225	0.075	456845	keystroke	d	n/a
228.5575	0.075	457115	keystroke	i	n/a
228.7075	0.075	457415	keystroke	t	n/a
228.7835	0.074	457567	keystroke	i	n/a
228.9625	0.045	457925	keystroke	o	n/a
229.0525	0.075	458105	keystroke	n	n/a
229.1425	0.09	458285	keystroke	s	n/a
229.2475	0.09	458495	keystroke	Key.space	n/a
229.6375	0.075	459275	keystroke	c	n/a
229.9075	0.12	459815	keystroke	Key.backspace	n/a
229.9825	0.15	459965	keystroke	e	n/a
230.0725	0.15	460145	keystroke	c	n/a
230.5075	0.105	461015	keystroke	Key.backspace	n/a
230.8375	0.075	461675	keystroke	v	n/a
230.9575	0.075	461915	keystroke	i	n/a
231.4075	0.15	462815	keystroke	d	n/a
231.4975	0.135	462995	keystroke	e	n/a
231.7225	0.06	463445	keystroke	n	n/a
231.8275	0.06	463655	keystroke	t	n/a
231.9175	0.075	463835	keystroke	Key.space	n/a
232.2175	0.105	464435	keystroke	g	n/a
232.3075	0.12	464615	keystroke	r	n/a
232.5325	0.09	465065	keystroke	o	n/a
232.6375	0.105	465275	keystroke	v	n/a
232.7575	0.12	465515	keystroke	e	n/a
233.0125	0.075	466025	keystroke	Key.enter	n/a
233.097	9.3975	466194	prompt	n/a	assault banned somewhere query\n
233.8675	0.12	467735	keystroke	a	n/a
233.9725	0.105	467945	keystroke	s	n/a
234.1825	0.06	468365	keystroke	s	n/a
234.6475	0.09	469295	keystroke	a	n/a
234.8125	0.045	469625	keystroke	i	n/a
235.4275	0.09	470855	keystroke	Key.backspace	n/a
235.6825	0.045	471365	keystroke	u	n/a
235.8625	0.075	471725	keystroke	l	n/a
236.5825	0.075	473165	keystroke	t	n/a
236.7025	0.06	473405	keystroke	Key.space	n/a
236.8975	0.06	473795	keystroke	b	n/a
236.9725	0.09	473945	keystroke	a	n/a
237.0925	0.075	474185	keystroke	n	n/a
237.2275	0.075	474455	keystroke	n	n/a
237.3325	0.09	474665	keystroke	e	n/a
237.4075	0.105	474815	keystroke	d	n/a
237.4975	0.045	474995	keystroke	Key.space	n/a
237.6175	0.105	475235	keystroke	s	n/a
237.7075	0.12	475415	keystroke	o	n/a
237.7975	0.105	475595	keystroke	m	n/a
237.9325	0.105	475865	keystroke	w	n/a
238.4425	0.09	476885	keystroke	Key.backspace	n/a
238.5475	0.09	477095	keystroke	e	n/a
238.9075	0.09	477815	keystroke	w	n/a
238.9985	0.074	477997	keystroke	h	n/a
239.1175	0.12	478235	keystroke	e	n/a
239.2675	0.12	478535	keystroke	r	n/a
239.3575	0.105	478715	keystroke	e	n/a
239.5375	0.105	479075	keystroke	Key.space	n/a
240.0775	0.09	480155	keystroke	g	n/a
240.4225	0.105	480845	keystroke	Key.backspace	n/a
240.5125	0.105	481025	keystroke	q	n/a
240.6475	0.09	481295	keystroke	u	n/a
241.2475	0.12	482495	keystroke	e	n/a
241.3375	0.105	482675	keystroke	r	n/a
242.0125	0.135	484025	keystroke	y	n/a
242.4175	0.075	484835	keystroke	Key.enter	n/a
242.5005	11.7245	485001	prompt	n/a	organisation scholars orientation tampa\n
243.2125	0.09	486425	keystroke	o	n/a
243.3625	0.12	486725	keystroke	r	n/a
243.7075	0.075	487415	keystroke	g	n/a
244.0975	0.105	488195	keystroke	a	n/a
244.2775	0.075	488555	keystroke	n	n/a
244.8625	0.075	489725	keystroke	i	n/a
245.0275	0.09	490055	keystroke	s	n/a
245.2075	0.09	490415	keystroke	a	n/a
245.4475	0.06	490895	keystroke	t	n/a
245.4925	0.09	490985	keystroke	i	n/a
245.6725	0.105	491345	keystroke	o	n/a
245.8375	0.09	491675	keystroke	n	n/a
245.9725	0.135	491945	keystroke	Key.space	n/a
246.7225	0.105	493445	keystroke	s	n/a
246.9775	0.09	493955	keystroke	c	n/a
247.1575	0.045	494315	keystroke	h	n/a
247.3825	0.09	494765	keystroke	o	n/a
247.5325	0.09	495065	keystroke	l	n/a
247.6975	0.075	495395	keystroke	o	n/a
247.8775	0.045	495755	keystroke	r	n/a
248.1025	0.06	496205	keystroke	Key.backspace	n/a
248.2375	0.12	496475	keystroke	Key.backspace	n/a
249.3775	0.09	498755	keystroke	a	n/a
249.5575	0.075	499115	keystroke	r	n/a
249.7685	0.074	499537	keystroke	s	n/a
249.8575	0.06	499715	keystroke	Key.space	n/a
250.9825	0.105	501965	keystroke	o	n/a
251.1625	0.09	502325	keystroke	r	n/a
251.6125	0.06	503225	keystroke	i	n/a
251.7775	0.09	503555	keystroke	e	n/a
251.8975	0.075	503795	keystroke	n	n/a
252.0475	0.075	504095	keystroke	t	n/a
252.3325	0.075	504665	keystroke	a	n/a
252.4525	0.075	504905	keystroke	t	n/a
252.5725	0.06	505145	keystroke	i	n/a
252.7225	0.075	505445	keystroke	o	n/a
252.8875	0.06	505775	keystroke	n	n/a
252.9925	0.12	505985	keystroke	Key.space	n/a
253.3825	0.09	506765	keystroke	t	n/a
253.5325	0.09	507065	keystroke	a	n/a
253.5925	0.09	507185	keystroke	m	n/a
253.7735	0.074	507547	keystroke	p	n/a
253.9385	0.104	507877	keystroke	a	n/a
254.1475	0.075	508295	keystroke	Key.enter	n/a
254.232	8.393	508464	prompt	n/a	been interval astronomy medicines\n
254.8975	0.03	509795	keystroke	b	n/a
255.0635	0.075	510127	keystroke	e	n/a
255.2285	0.074	510457	keystroke	e	n/a
255.3475	0.076	510695	keystroke	n	n/a
255.4975	0.135	510995	keystroke	Key.space	n/a
255.8575	0.09	511715	keystroke	i	n/a
256.0385	0.075	512077	keystroke	n	n/a
256.1425	0.09	512285	keystroke	t	n/a
256.2775	0.135	512555	keystroke	e	n/a
256.3975	0.076	512795	keystroke	r	n/a
256.6235	0.074	513247	keystroke	v	n/a
256.7285	0.105	513457	keystroke	a	n/a
256.8625	0.0905	513725	keystroke	l	n/a
256.982	0.135	513964	keystroke	Key.space	n/a
257.358	0.075	514716	keystroke	s	n/a
257.553	0.06	515106	keystroke	a	n/a
257.748	0.045	515496	keystroke	t	n/a
257.913	0.06	515826	keystroke	r	n/a
258.182	0.106	516364	keystroke	Key.backspace	n/a
258.362	0.105	516724	keystroke	Key.backspace	n/a
258.528	0.119	517056	keystroke	Key.backspace	n/a
258.708	0.12	517416	keystroke	Key.backspace	n/a
258.783	0.12	517566	keystroke	a	n/a
258.858	0.09	517716	keystroke	s	n/a
259.112	0.046	518224	keystroke	t	n/a
259.278	0.06	518556	keystroke	r	n/a
259.353	0.075	518706	keystroke	o	n/a
259.533	0.06	519066	keystroke	n	n/a
259.953	0.075	519906	keystroke	o	n/a
260.193	0.075	520386	keystroke	m	n/a
260.298	0.075	520596	keystroke	y	n/a
260.402	0.076	520804	keystroke	Key.space	n/a
261.213	0.075	522426	keystroke	m	n/a
261.303	0.135	522606	keystroke	e	n/a
261.393	0.12	522786	keystroke	d	n/a
261.528	0.105	523056	keystroke	i	n/a
261.693	0.135	523386	keystroke	c	n/a
261.992	0.121	523984	keystroke	i	n/a
262.098	0.105	524196	keystroke	n	n/a
262.188	0.09	524376	keystroke	e	n/a
262.383	0.105	524766	keystroke	s	n/a
262.533	0.089	525066	keystroke	Key.enter	n/a
262.6305	6.264	525261	prompt	n/a	tuesday manual including reporters\n
263.388	0.075	526776	keystroke	t	n/a
263.493	0.075	526986	keystroke	u	n/a
263.583	0.075	527166	keystroke	e	n/a
263.778	0.119	527556	keystroke	s	n/a
264.062	0.121	528124	keystroke	d	n/a
264.183	0.09	528366	keystroke	a	n/a
264.288	0.09	528576	keystroke	y	n/a
264.633	0.104	529266	keystroke	Key.space	n/a
264.933	0.09	529866	keystroke	m	n/a
265.113	0.045	530226	keystroke	a	n/a
265.203	0.09	530406	keystroke	n	n/a
265.503	0.09	531006	keystroke	u	n/a
265.653	0.104	531306	keystroke	a	n/a
265.803	0.09	531606	keystroke	l	n/a
265.923	0.135	531846	keystroke	Key.space	n/a
266.208	0.075	532416	keystroke	i	n/a
266.313	0.075	532626	keystroke	n	n/a
266.448	0.105	532896	keystroke	c	n/a
266.553	0.09	533106	keystroke	l	n/a
266.748	0.075	533496	keystroke	u	n/a
266.853	0.09	533706	keystroke	d	n/a
266.913	0.12	533826	keystroke	i	n/a
267.003	0.09	534006	keystroke	n	n/a
267.108	0.075	534216	keystroke	g	n/a
267.198	0.074	534396	keystroke	Key.space	n/a
267.573	0.105	535146	keystroke	r	n/a
267.663	0.09	535326	keystroke	e	n/a
267.783	0.045	535566	keystroke	p	n/a
267.9325	0.09	535865	keystroke	o	n/a
268.0675	0.075	536135	keystroke	r	n/a
268.2625	0.06	536525	keystroke	t	n/a
268.4575	0.09	536915	keystroke	e	n/a
268.5175	0.105	537035	keystroke	r	n/a
268.6825	0.105	537365	keystroke	s	n/a
268.8325	0.06	537665	keystroke	Key.enter	n/a
268.901	9.0995	537802	prompt	n/a	election vids summaries transition\n
269.5235	0.104	539047	keystroke	e	n/a
269.6425	0.09	539285	keystroke	l	n/a
269.7335	0.104	539467	keystroke	e	n/a
269.8225	0.09	539645	keystroke	c	n/a
270.0025	0.06	540005	keystroke	t	n/a
270.0775	0.075	540155	keystroke	i	n/a
270.2275	0.09	540455	keystroke	o	n/a
270.3475	0.075	540695	keystroke	n	n/a
270.4375	0.12	540875	keystroke	Key.space	n/a
270.6325	0.09	541265	keystroke	v	n/a
270.7525	0.091	541505	keystroke	i	n/a
270.8575	0.165	541715	keystroke	d	n/a
270.9625	0.121	541925	keystroke	s	n/a
271.1425	0.075	542285	keystroke	Key.space	n/a
271.5025	0.09	543005	keystroke	s	n/a
271.6225	0.06	543245	keystroke	u	n/a
271.7875	0.045	543575	keystroke	m	n/a
271.9235	0.089	543847	keystroke	a	n/a
271.9375	0.045	543875	keystroke	m	n/a
272.1025	0.06	544205	keystroke	r	n/a
272.1925	0.09	544385	keystroke	i	n/a
272.2975	0.075	544595	keystroke	e	n/a
272.4475	0.09	544895	keystroke	s	n/a
272.4925	0.075	544985	keystroke	Key.space	n/a
273.3325	0.075	546665	keystroke	Key.backspace	n/a
273.5125	0.09	547025	keystroke	Key.backspace	n/a
273.7075	0.105	547415	keystroke	Key.backspace	n/a
273.9175	0.285	547835	keystroke	Key.backspace	n/a
274.2175	0.12	548435	keystroke	Key.backspace	n/a
274.4425	0.06	548885	keystroke	Key.backspace	n/a
274.6075	0.105	549215	keystroke	Key.backspace	n/a
274.8635	0.074	549727	keystroke	m	n/a
274.9975	0.12	549995	keystroke	a	n/a
275.2685	0.074	550537	keystroke	r	n/a
275.4925	0.075	550985	keystroke	i	n/a
275.5835	0.089	551167	keystroke	e	n/a
275.7625	0.075	551525	keystroke	s	n/a
275.8525	0.06	551705	keystroke	Key.space	n/a
276.1375	0.12	552275	keystroke	t	n/a
276.2435	0.089	552487	keystroke	r	n/a
276.4075	0.105	552815	keystroke	a	n/a
276.5575	0.075	553115	keystroke	n	n/a
276.6475	0.105	553295	keystroke	s	n/a
277.1125	0.075	554225	keystroke	i	n/a
277.2625	0.105	554525	keystroke	t	n/a
277.3825	0.06	554765	keystroke	i	n/a
277.5175	0.075	555035	keystroke	o	n/a
277.6375	0.075	555275	keystroke	n	n/a
277.9225	0.075	555845	keystroke	Key.enter	n/a
278.0065	8.606	556013	prompt	n/a	villas television consult discovery\n
278.8085	0.089	557617	keystroke	b	n/a
278.9285	0.044	557857	keystroke	i	n/a
279.1375	0.075	558275	keystroke	Key.backspace	n/a
279.2875	0.12	558575	keystroke	Key.backspace	n/a
279.3625	0.09	558725	keystroke	v	n/a
279.4675	0.076	558935	keystroke	i	n/a
279.6785	0.045	559357	keystroke	l	n/a
279.8135	0.075	559627	keystroke	l	n/a
279.9185	0.089	559837	keystroke	a	n/a
279.9625	0.121	559925	keystroke	s	n/a
280.1575	0.105	560315	keystroke	Key.space	n/a
280.3985	0.089	560797	keystroke	t	n/a
280.4735	0.104	560947	keystroke	e	n/a
280.5925	0.091	561185	keystroke	l	n/a
280.6975	0.061	561395	keystroke	e	n/a
280.8785	0.089	561757	keystroke	v	n/a
281.0875	0.076	562175	keystroke	i	n/a
281.2385	0.075	562477	keystroke	s	n/a
281.3435	0.059	562687	keystroke	i	n/a
281.4775	0.075	562955	keystroke	o	n/a
281.5975	0.076	563195	keystroke	n	n/a
281.7775	0.09	563555	keystroke	Key.space	n/a
281.9875	0.09	563975	keystroke	c	n/a
282.0925	0.061	564185	keystroke	o	n/a
282.1685	0.074	564337	keystroke	n	n/a
282.3035	0.089	564607	keystroke	s	n/a
282.4075	0.076	564815	keystroke	u	n/a
282.6035	0.104	565207	keystroke	l	n/a
282.6935	0.0895	565387	keystroke	t	n/a
282.828	0.12	565656	keystroke	Key.space	n/a
283.608	0.09	567216	keystroke	d	n/a
283.728	0.075	567456	keystroke	i	n/a
283.804	0.089	567608	keystroke	s	n/a
283.908	0.135	567816	keystroke	c	n/a
284.058	0.075	568116	keystroke	o	n/a
284.178	0.135	568356	keystroke	e	n/a
284.283	0.105	568566	keystroke	r	n/a
284.763	0.075	569526	keystroke	Key.backspace	n/a
284.913	0.12	569826	keystroke	Key.backspace	n/a
285.168	0.09	570336	keystroke	v	n/a
285.618	0.135	571236	keystroke	e	n/a
285.708	0.12	571416	keystroke	r	n/a
285.903	0.075	571806	keystroke	y	n/a
286.038	0.105	572076	keystroke	Key.space	n/a
286.278	0.06	572556	keystroke	Key.backspace	n/a
286.533	0.075	573066	keystroke	Key.enter	n/a
286.618	9.142	573236	prompt	n/a	thumbnail freedom printer follows\n
287.283	0.06	574566	keystroke	t	n/a
287.373	0.06	574746	keystroke	h	n/a
287.523	0.09	575046	keystroke	i	n/a
287.598	0.135	575196	keystroke	m	n/a
287.748	0.045	575496	keystroke	b	n/a
288.018	0.105	576036	keystroke	Key.backspace	n/a
288.198	0.09	576396	keystroke	Key.backspace	n/a
288.378	0.105	576756	keystroke	Key.backspace	n/a
288.558	0.075	577116	keystroke	u	n/a
288.678	0.105	577356	keystroke	m	n/a
288.813	0.09	577626	keystroke	b	n/a
289.098	0.075	578196	keystroke	n	n/a
289.233	0.09	578466	keystroke	a	n/a
289.398	0.075	578796	keystroke	i	n/a
289.593	0.09	579186	keystroke	l	n/a
289.743	0.15	579486	keystroke	Key.space	n/a
290.658	0.12	581316	keystroke	f	n/a
290.793	0.09	581586	keystroke	r	n/a
290.988	0.06	581976	keystroke	e	n/a
291.153	0.09	582306	keystroke	e	n/a
291.303	0.135	582606	keystroke	d	n/a
291.423	0.135	582846	keystroke	o	n/a
291.543	0.105	583086	keystroke	m	n/a
291.708	0.135	583416	keystroke	Key.space	n/a
292.143	0.09	584286	keystroke	p	n/a
292.278	0.075	584556	keystroke	r	n/a
292.338	0.045	584676	keystroke	o	n/a
292.338	0.075	584676	keystroke	i	n/a
292.428	0.105	584856	keystroke	n	n/a
292.518	0.075	585036	keystroke	t	n/a
292.668	0.12	585336	keystroke	e	n/a
292.758	0.09	585516	keystroke	r	n/a
292.878	0.075	585756	keystroke	Key.space	n/a
293.148	0.09	586296	keystroke	Key.backspace	n/a
293.313	0.105	586626	keystroke	Key.backspace	n/a
293.493	0.09	586986	keystroke	Key.backspace	n/a
293.673	0.09	587346	keystroke	Key.backspace	n/a
293.823	0.12	587646	keystroke	Key.backspace	n/a
294.063	0.105	588126	keystroke	Key.backspace	n/a
294.273	0.06	588546	keystroke	n	n/a
294.393	0.075	588786	keystroke	t	n/a
294.528	0.105	589056	keystroke	e	n/a
294.603	0.06	589206	keystroke	r	n/a
294.678	0.06	589356	keystroke	Key.space	n/a
294.798	0.09	589596	keystroke	f	n/a
294.903	0.09	589806	keystroke	o	n/a
295.068	0.075	590136	keystroke	l	n/a
295.218	0.06	590436	keystroke	l	n/a
295.308	0.12	590616	keystroke	o	n/a
295.413	0.09	590826	keystroke	w	n/a
295.578	0.09	591156	keystroke	s	n/a
295.683	0.075	591366	keystroke	Key.enter	n/a
295.7645	5.276	591529	prompt	n/a	bird outcomes swiss result\n
296.4635	0.015	592927	keystroke	b	n/a
296.6285	0.105	593257	keystroke	i	n/a
296.7185	0.105	593437	keystroke	r	n/a
296.8685	0.12	593737	keystroke	d	n/a
297.0175	0.076	594035	keystroke	Key.space	n/a
297.2435	0.09	594487	keystroke	o	n/a
297.4385	0.075	594877	keystroke	u	n/a
297.5285	0.075	595057	keystroke	t	n/a
297.7685	0.075	595537	keystroke	c	n/a
297.8135	0.135	595627	keystroke	o	n/a
297.9185	0.12	595837	keystroke	m	n/a
298.0085	0.09	596017	keystroke	e	n/a
298.1885	0.075	596377	keystroke	s	n/a
298.2785	0.075	596557	keystroke	Key.space	n/a
298.5635	0.09	597127	keystroke	s	n/a
298.7735	0.075	597547	keystroke	w	n/a
298.8935	0.075	597787	keystroke	i	n/a
298.9985	0.06	597997	keystroke	s	n/a
299.1485	0.075	598297	keystroke	s	n/a
299.2385	0.074	598477	keystroke	Key.space	n/a
299.5085	0.135	599017	keystroke	r	n/a
299.6285	0.105	599257	keystroke	e	n/a
299.7935	0.105	599587	keystroke	s	n/a
299.9135	0.075	599827	keystroke	u	n/a
300.1085	0.09	600217	keystroke	l	n/a
300.1835	0.075	600367	keystroke	y	n/a
300.5735	0.075	601147	keystroke	Key.backspace	n/a
300.6635	0.075	601327	keystroke	t	n/a
300.9485	0.09	601897	keystroke	Key.enter	n/a
301.0465	7.1185	602093	prompt	n/a	latter oxford mailman diameter\n
301.6685	0.09	603337	keystroke	l	n/a
301.7735	0.105	603547	keystroke	a	n/a
301.9385	0.105	603877	keystroke	t	n/a
302.0735	0.105	604147	keystroke	t	n/a
302.2235	0.12	604447	keystroke	e	n/a
302.3135	0.075	604627	keystroke	r	n/a
302.5235	0.06	605047	keystroke	Key.space	n/a
302.7935	0.09	605587	keystroke	o	n/a
302.9585	0.09	605917	keystroke	v	n/a
303.5435	0.105	607087	keystroke	Key.backspace	n/a
303.6785	0.165	607357	keystroke	x	n/a
304.0835	0.105	608167	keystroke	f	n/a
304.2335	0.06	608467	keystroke	o	n/a
304.3985	0.045	608797	keystroke	r	n/a
304.6835	0.12	609367	keystroke	d	n/a
304.9085	0.09	609817	keystroke	Key.space	n/a
305.2835	0.075	610567	keystroke	m	n/a
305.4185	0.09	610837	keystroke	a	n/a
305.4785	0.06	610957	keystroke	i	n/a
305.6435	0.075	611287	keystroke	l	n/a
305.8385	0.075	611677	keystroke	m	n/a
305.9435	0.075	611887	keystroke	a	n/a
306.0335	0.09	612067	keystroke	n	n/a
306.1685	0.135	612337	keystroke	Key.space	n/a
306.5435	0.075	613087	keystroke	d	n/a
306.6335	0.075	613267	keystroke	i	n/a
306.7685	0.09	613537	keystroke	a	n/a
307.2035	0.075	614407	keystroke	m	n/a
307.4885	0.09	614977	keystroke	e	n/a
307.6835	0.075	615367	keystroke	t	n/a
307.8185	0.135	615637	keystroke	e	n/a
307.9085	0.105	615817	keystroke	r	n/a
308.0735	0.09	616147	keystroke	Key.enter	n/a
308.1695	9.027	616339	prompt	n/a	relevance devices transit canvas\n
309.0485	0.15	618097	keystroke	r	n/a
309.1835	0.09	618367	keystroke	e	n/a
309.3185	0.09	618637	keystroke	l	n/a
309.4235	0.075	618847	keystroke	e	n/a
310.3985	0.06	620797	keystroke	v	n/a
310.6235	0.015	621247	keystroke	a	n/a
310.6535	0.075	621307	keystroke	n	n/a
310.7135	0.12	621427	keystroke	c	n/a
310.7885	0.09	621577	keystroke	e	n/a
310.9235	0.075	621847	keystroke	Key.space	n/a
311.3585	0.12	622717	keystroke	d	n/a
311.5835	0.075	623167	keystroke	e	n/a
312.0335	0.075	624067	keystroke	v	n/a
312.2435	0.075	624487	keystroke	i	n/a
312.3335	0.075	624667	keystroke	c	n/a
312.4535	0.105	624907	keystroke	e	n/a
312.6635	0.09	625327	keystroke	s	n/a
313.5635	0.075	627127	keystroke	Key.space	n/a
313.8785	0.09	627757	keystroke	t	n/a
314.0735	0.075	628147	keystroke	a	n/a
314.4185	0.09	628837	keystroke	Key.backspace	n/a
314.4935	0.045	628987	keystroke	r	n/a
314.5835	0.075	629167	keystroke	a	n/a
314.7035	0.06	629407	keystroke	n	n/a
314.8235	0.045	629647	keystroke	s	n/a
315.1235	0.09	630247	keystroke	i	n/a
315.3035	0.12	630607	keystroke	t	n/a
315.6035	0.075	631207	keystroke	Key.space	n/a
315.7685	0.105	631537	keystroke	c	n/a
315.8885	0.06	631777	keystroke	a	n/a
315.9635	0.06	631927	keystroke	n	n/a
316.5935	0.06	633187	keystroke	v	n/a
316.8185	0.075	633637	keystroke	a	n/a
316.8785	0.09	633757	keystroke	s	n/a
317.1185	0.075	634237	keystroke	Key.enter	n/a
317.2025	7.3885	634405	prompt	n/a	herald available point exemption\n
317.9735	0.075	635947	keystroke	h	n/a
318.0635	0.105	636127	keystroke	e	n/a
318.1535	0.075	636307	keystroke	r	n/a
318.2885	0.09	636577	keystroke	a	n/a
318.4235	0.075	636847	keystroke	l	n/a
318.5135	0.09	637027	keystroke	d	n/a
318.6485	0.075	637297	keystroke	Key.space	n/a
318.9035	0.075	637807	keystroke	a	n/a
319.1435	0.03	638287	keystroke	v	n/a
319.5335	0.075	639067	keystroke	a	n/a
319.6535	0.075	639307	keystroke	i	n/a
319.9235	0.09	639847	keystroke	l	n/a
320.1785	0.105	640357	keystroke	a	n/a
320.4035	0.06	640807	keystroke	b	n/a
320.4935	0.075	640987	keystroke	l	n/a
320.5835	0.09	641167	keystroke	e	n/a
320.7185	0.06	641437	keystroke	Key.space	n/a
320.9285	0.075	641857	keystroke	p	n/a
321.0935	0.09	642187	keystroke	o	n/a
321.3035	0.15	642607	keystroke	i	n/a
321.3935	0.12	642787	keystroke	n	n/a
321.4985	0.06	642997	keystroke	t	n/a
321.6185	0.075	643237	keystroke	Key.space	n/a
321.8285	0.105	643657	keystroke	e	n/a
321.9935	0.12	643987	keystroke	x	n/a
322.2935	0.09	644587	keystroke	e	n/a
322.4135	0.06	644827	keystroke	m	n/a
322.6085	0.09	645217	keystroke	p	n/a
323.1485	0.105	646297	keystroke	r	n/a
323.5685	0.12	647137	keystroke	Key.backspace	n/a
323.6735	0.09	647347	keystroke	t	n/a
323.7335	0.075	647467	keystroke	i	n/a
323.8985	0.075	647797	keystroke	o	n/a
324.0335	0.09	648067	keystroke	n	n/a
324.5135	0.075	649027	keystroke	Key.enter	n/a
324.5985	6.742	649197	prompt	n/a	actually yukon stored decades\n
325.1585	0.09	650317	keystroke	a	n/a
325.2785	0.09	650557	keystroke	c	n/a
325.4735	0.06	650947	keystroke	t	n/a
325.5635	0.06	651127	keystroke	u	n/a
325.6685	0.09	651337	keystroke	a	n/a
325.7735	0.045	651547	keystroke	l	n/a
325.8785	0.09	651757	keystroke	l	n/a
325.9985	0.06	651997	keystroke	y	n/a
326.1035	0.075	652207	keystroke	Key.space	n/a
327.259	0.09	654518	keystroke	y	n/a
327.529	0.06	655058	keystroke	u	n/a
328.114	0.075	656228	keystroke	k	n/a
328.249	0.105	656498	keystroke	o	n/a
328.429	0.105	656858	keystroke	n	n/a
328.549	0.135	657098	keystroke	Key.space	n/a
328.984	0.105	657968	keystroke	s	n/a
329.194	0.075	658388	keystroke	t	n/a
329.299	0.09	658598	keystroke	o	n/a
329.419	0.045	658838	keystroke	r	n/a
329.449	0.165	658898	keystroke	e	n/a
329.599	0.12	659198	keystroke	d	n/a
330.124	0.075	660248	keystroke	Key.space	n/a
330.334	0.075	660668	keystroke	d	n/a
330.439	0.09	660878	keystroke	e	n/a
330.544	0.09	661088	keystroke	c	n/a
330.739	0.06	661478	keystroke	a	n/a
330.844	0.135	661688	keystroke	d	n/a
330.964	0.12	661928	keystroke	e	n/a
331.174	0.075	662348	keystroke	s	n/a
331.249	0.09	662498	keystroke	Key.enter	n/a
331.346	7.3005	662692	prompt	n/a	backgrounds useful parties tucson\n
332.238	0.076	664476	keystroke	b	n/a
332.299	0.09	664598	keystroke	a	n/a
332.344	0.119	664688	keystroke	c	n/a
332.493	0.061	664986	keystroke	k	n/a
332.673	0.09	665346	keystroke	f	n/a
332.779	0.09	665558	keystroke	r	n/a
332.899	0.105	665798	keystroke	o	n/a
333.1685	0.1045	666337	keystroke	Key.backspace	n/a
333.3485	0.075	666697	keystroke	Key.backspace	n/a
333.4845	0.119	666969	keystroke	Key.backspace	n/a
333.5295	0.105	667059	keystroke	g	n/a
333.6195	0.12	667239	keystroke	r	n/a
333.7095	0.105	667419	keystroke	o	n/a
333.9335	0.106	667867	keystroke	u	n/a
333.9945	0.134	667989	keystroke	n	n/a
334.0545	0.165	668109	keystroke	d	n/a
334.1895	0.09	668379	keystroke	s	n/a
334.5785	0.09	669157	keystroke	Key.space	n/a
334.7895	0.075	669579	keystroke	u	n/a
334.8485	0.076	669697	keystroke	s	n/a
335.0295	0.105	670059	keystroke	e	n/a
335.1195	0.134	670239	keystroke	f	n/a
335.2245	0.075	670449	keystroke	u	n/a
335.4335	0.061	670867	keystroke	l	n/a
335.5235	0.121	671047	keystroke	Key.space	n/a
335.7195	0.075	671439	keystroke	p	n/a
335.8085	0.076	671617	keystroke	a	n/a
335.9595	0.09	671919	keystroke	r	n/a
336.1695	0.059	672339	keystroke	t	n/a
336.2585	0.091	672517	keystroke	i	n/a
336.3945	0.075	672789	keystroke	e	n/a
336.5745	0.059	673149	keystroke	s	n/a
336.6495	0.075	673299	keystroke	Key.space	n/a
337.2645	0.075	674529	keystroke	t	n/a
337.4445	0.075	674889	keystroke	u	n/a
337.5795	0.09	675159	keystroke	c	n/a
337.9245	0.075	675849	keystroke	s	n/a
337.9695	0.09	675939	keystroke	o	n/a
338.1645	0.06	676329	keystroke	n	n/a
338.5835	0.061	677167	keystroke	Key.enter	n/a
338.651	11.23	677302	prompt	n/a	incomplete shopzilla clicking simultaneously\n
339.4095	0.075	678819	keystroke	i	n/a
339.5285	0.076	679057	keystroke	n	n/a
339.6645	0.09	679329	keystroke	c	n/a
339.7695	0.135	679539	keystroke	o	n/a
339.8745	0.105	679749	keystroke	m	n/a
340.0695	0.119	680139	keystroke	p	n/a
340.1285	0.135	680257	keystroke	l	n/a
340.3095	0.09	680619	keystroke	e	n/a
340.4895	0.089	680979	keystroke	t	n/a
340.5635	0.106	681127	keystroke	e	n/a
340.6995	0.074	681399	keystroke	Key.space	n/a
341.1345	0.06	682269	keystroke	s	n/a
341.5545	0.075	683109	keystroke	h	n/a
341.7795	0.09	683559	keystroke	o	n/a
341.9745	0.075	683949	keystroke	p	n/a
342.3645	0.105	684729	keystroke	z	n/a
342.4845	0.075	684969	keystroke	i	n/a
342.6795	0.06	685359	keystroke	l	n/a
342.8445	0.075	685689	keystroke	l	n/a
342.9345	0.075	685869	keystroke	a	n/a
343.0545	0.12	686109	keystroke	Key.space	n/a
343.2345	0.105	686469	keystroke	c	n/a
343.3545	0.075	686709	keystroke	l	n/a
343.5495	0.045	687099	keystroke	o	n/a
343.5645	0.015	687129	keystroke	i	n/a
343.9095	0.075	687819	keystroke	Key.backspace	n/a
344.0745	0.105	688149	keystroke	Key.backspace	n/a
344.1345	0.09	688269	keystroke	i	n/a
344.2845	0.12	688569	keystroke	c	n/a
344.4195	0.075	688839	keystroke	k	n/a
344.5545	0.12	689109	keystroke	i	n/a
344.6445	0.09	689289	keystroke	n	n/a
344.7495	0.06	689499	keystroke	g	n/a
344.8545	0.09	689709	keystroke	Key.space	n/a
345.7995	0.09	691599	keystroke	s	n/a
345.9045	0.09	691809	keystroke	i	n/a
346.4595	0.105	692919	keystroke	Key.backspace	n/a
346.6845	0.09	693369	keystroke	i	n/a
346.7895	0.105	693579	keystroke	m	n/a
347.0445	0.09	694089	keystroke	u	n/a
347.3295	0.09	694659	keystroke	l	n/a
347.674	0.09	695348	keystroke	t	n/a
347.869	0.105	695738	keystroke	a	n/a
348.049	0.06	696098	keystroke	n	n/a
348.469	0.12	696938	keystroke	e	n/a
348.859	0.075	697718	keystroke	o	n/a
349.084	0.075	698168	keystroke	u	n/a
349.234	0.09	698468	keystroke	s	n/a
349.414	0.075	698828	keystroke	l	n/a
349.579	0.045	699158	keystroke	y	n/a
349.804	0.075	699608	keystroke	Key.enter	n/a
349.886	4.0605	699772	prompt	n/a	contain close entering manner\n
350.45	0.089	700900	keystroke	c	n/a
350.524	0.075	701048	keystroke	o	n/a
350.659	0.075	701318	keystroke	n	n/a
350.809	0.061	701618	keystroke	t	n/a
350.974	0.12	701948	keystroke	a	n/a
351.064	0.165	702128	keystroke	i	n/a
351.184	0.105	702368	keystroke	n	n/a
351.274	0.105	702548	keystroke	Key.space	n/a
351.454	0.135	702908	keystroke	c	n/a
351.574	0.105	703148	keystroke	l	n/a
351.739	0.12	703478	keystroke	o	n/a
351.934	0.09	703868	keystroke	s	n/a
352.144	0.075	704288	keystroke	e	n/a
352.234	0.09	704468	keystroke	Key.space	n/a
352.384	0.075	704768	keystroke	e	n/a
352.489	0.06	704978	keystroke	n	n/a
352.564	0.075	705128	keystroke	t	n/a
352.684	0.12	705368	keystroke	e	n/a
352.759	0.105	705518	keystroke	r	n/a
352.879	0.105	705758	keystroke	i	n/a
352.909	0.105	705818	keystroke	n	n/a
353.029	0.06	706058	keystroke	g	n/a
353.104	0.075	706208	keystroke	Key.space	n/a
353.239	0.09	706478	keystroke	m	n/a
353.33	0.074	706660	keystroke	a	n/a
353.434	0.075	706868	keystroke	n	n/a
353.569	0.075	707138	keystroke	n	n/a
353.629	0.12	707258	keystroke	e	n/a
353.704	0.09	707408	keystroke	r	n/a
353.854	0.09	707708	keystroke	Key.enter	n/a
353.9515	5.0655	707903	prompt	n/a	struck distances worried ensure\n
354.47	0.105	708940	keystroke	s	n/a
354.739	0.06	709478	keystroke	t	n/a
354.964	0.015	709928	keystroke	r	n/a
354.994	0.046	709988	keystroke	u	n/a
355.114	0.09	710228	keystroke	c	n/a
355.219	0.075	710438	keystroke	k	n/a
355.324	0.105	710648	keystroke	Key.space	n/a
355.879	0.105	711758	keystroke	d	n/a
355.999	0.09	711998	keystroke	i	n/a
356.074	0.0905	712148	keystroke	s	n/a
356.2245	0.06	712449	keystroke	t	n/a
356.3445	0.09	712689	keystroke	a	n/a
356.4195	0.075	712839	keystroke	n	n/a
356.5095	0.135	713019	keystroke	c	n/a
356.6295	0.09	713259	keystroke	e	n/a
356.9445	0.06	713889	keystroke	s	n/a
357.0795	0.075	714159	keystroke	Key.space	n/a
357.4545	0.075	714909	keystroke	w	n/a
357.5745	0.06	715149	keystroke	o	n/a
357.6795	0.06	715359	keystroke	r	n/a
357.8895	0.015	715779	keystroke	r	n/a
357.9495	0.12	715899	keystroke	i	n/a
358.0245	0.105	716049	keystroke	e	n/a
358.0845	0.12	716169	keystroke	d	n/a
358.1895	0.09	716379	keystroke	Key.space	n/a
358.2645	0.075	716529	keystroke	e	n/a
358.3695	0.09	716739	keystroke	n	n/a
358.4895	0.06	716979	keystroke	s	n/a
358.5795	0.075	717159	keystroke	u	n/a
358.6695	0.105	717339	keystroke	r	n/a
358.7295	0.09	717459	keystroke	e	n/a
358.9245	0.09	717849	keystroke	Key.enter	n/a
359.021	8.5305	718042	prompt	n/a	office agriculture meaningful sponsored\n
359.5545	0.075	719109	keystroke	o	n/a
359.6595	0.09	719319	keystroke	f	n/a
359.8095	0.075	719619	keystroke	f	n/a
359.9295	0.075	719859	keystroke	i	n/a
359.9895	0.09	719979	keystroke	c	n/a
360.0945	0.09	720189	keystroke	e	n/a
360.4095	0.075	720819	keystroke	Key.space	n/a
360.7245	0.135	721449	keystroke	a	n/a
361.0545	0.075	722109	keystroke	g	n/a
361.1305	0.119	722261	keystroke	r	n/a
361.2945	0.105	722589	keystroke	i	n/a
361.6395	0.075	723279	keystroke	c	n/a
361.8195	0.075	723639	keystroke	u	n/a
362.0595	0.09	724119	keystroke	l	n/a
362.3595	0.09	724719	keystroke	t	n/a
362.6895	0.09	725379	keystroke	u	n/a
362.7945	0.12	725589	keystroke	r	n/a
362.8545	0.09	725709	keystroke	e	n/a
362.9595	0.09	725919	keystroke	Key.space	n/a
363.4845	0.09	726969	keystroke	m	n/a
363.5595	0.075	727119	keystroke	e	n/a
363.7995	0.015	727599	keystroke	a	n/a
363.8295	0.045	727659	keystroke	n	n/a
364.0695	0.09	728139	keystroke	i	n/a
364.1745	0.09	728349	keystroke	n	n/a
364.4145	0.105	728829	keystroke	g	n/a
364.8495	0.105	729699	keystroke	f	n/a
364.9395	0.075	729879	keystroke	u	n/a
365.1645	0.09	730329	keystroke	l	n/a
365.3445	0.135	730689	keystroke	Key.space	n/a
365.6745	0.075	731349	keystroke	s	n/a
365.7645	0.045	731529	keystroke	p	n/a
365.9295	0.09	731859	keystroke	o	n/a
366.3345	0.075	732669	keystroke	n	n/a
366.7395	0.09	733479	keystroke	s	n/a
366.9795	0.075	733959	keystroke	o	n/a
367.1295	0.09	734259	keystroke	r	n/a
367.2345	0.15	734469	keystroke	e	n/a
367.3395	0.12	734679	keystroke	d	n/a
367.4745	0.075	734949	keystroke	Key.enter	n/a
367.556	9.2355	735112	prompt	n/a	accounts disciplinary korean movements\n
368.1045	0.06	736209	keystroke	a	n/a
368.3145	0.06	736629	keystroke	c	n/a
368.4495	0.105	736899	keystroke	c	n/a
368.5245	0.09	737049	keystroke	o	n/a
368.7345	0.165	737469	keystroke	u	n/a
368.8695	0.12	737739	keystroke	n	n/a
368.9595	0.06	737919	keystroke	t	n/a
369.1995	0.105	738399	keystroke	s	n/a
369.4695	0.09	738939	keystroke	Key.space	n/a
369.7395	0.135	739479	keystroke	d	n/a
369.9195	0.105	739839	keystroke	i	n/a
370.8195	0.075	741639	keystroke	s	n/a
371.4045	0.105	742809	keystroke	c	n/a
371.5995	0.075	743199	keystroke	i	n/a
371.8695	0.12	743739	keystroke	p	n/a
372.0045	0.12	744009	keystroke	l	n/a
372.2295	0.12	744459	keystroke	i	n/a
372.3195	0.135	744639	keystroke	n	n/a
372.4845	0.09	744969	keystroke	a	n/a
372.6345	0.075	745269	keystroke	r	n/a
372.7395	0.06	745479	keystroke	y	n/a
372.8295	0.105	745659	keystroke	Key.space	n/a
373.0395	0.09	746079	keystroke	k	n/a
373.2645	0.09	746529	keystroke	r	n/a
373.3695	0.105	746739	keystroke	o	n/a
374.0595	0.105	748119	keystroke	Key.backspace	n/a
374.2245	0.165	748449	keystroke	Key.backspace	n/a
374.3295	0.12	748659	keystroke	o	n/a
374.4345	0.12	748869	keystroke	r	n/a
374.5395	0.12	749079	keystroke	e	n/a
374.9295	0.09	749859	keystroke	a	n/a
375.0645	0.075	750129	keystroke	n	n/a
375.1845	0.135	750369	keystroke	Key.space	n/a
375.6045	0.09	751209	keystroke	m	n/a
375.7545	0.09	751509	keystroke	o	n/a
375.8595	0.075	751719	keystroke	v	n/a
375.9645	0.105	751929	keystroke	e	n/a
376.1145	0.075	752229	keystroke	m	n/a
376.2195	0.06	752439	keystroke	e	n/a
376.3245	0.075	752649	keystroke	n	n/a
376.4295	0.06	752859	keystroke	t	n/a
376.6245	0.09	753249	keystroke	s	n/a
376.7295	0.06	753459	keystroke	Key.enter	n/a
376.7975	8.994	753595	prompt	n/a	payments disclose specialist might've\n
377.3145	0.09	754629	keystroke	p	n/a
377.4195	0.09	754839	keystroke	a	n/a
377.6145	0.06	755229	keystroke	y	n/a
377.8095	0.09	755619	keystroke	m	n/a
377.9145	0.0745	755829	keystroke	e	n/a
378.0195	0.075	756039	keystroke	n	n/a
378.139	0.0455	756278	keystroke	t	n/a
378.319	0.075	756638	keystroke	s	n/a
378.364	0.0755	756728	keystroke	Key.space	n/a
378.5145	0.1195	757029	keystroke	d	n/a
378.619	0.0755	757238	keystroke	i	n/a
378.7095	0.1045	757419	keystroke	s	n/a
378.844	0.105	757688	keystroke	c	n/a
378.9645	0.075	757929	keystroke	l	n/a
379.084	0.135	758168	keystroke	o	n/a
379.234	0.0455	758468	keystroke	s	n/a
379.3845	0.0745	758769	keystroke	e	n/a
379.4745	0.0895	758949	keystroke	Key.space	n/a
380.074	0.09	760148	keystroke	s	n/a
380.134	0.09	760268	keystroke	p	n/a
380.284	0.06	760568	keystroke	e	n/a
380.389	0.0905	760778	keystroke	a	n/a
380.524	0.09	761048	keystroke	c	n/a
380.794	0.105	761588	keystroke	i	n/a
380.974	0.075	761948	keystroke	a	n/a
381.079	0.09	762158	keystroke	l	n/a
381.424	0.1055	762848	keystroke	Key.backspace	n/a
381.619	0.09	763238	keystroke	Key.backspace	n/a
381.784	0.105	763568	keystroke	Key.backspace	n/a
381.949	0.09	763898	keystroke	Key.backspace	n/a
382.129	0.12	764258	keystroke	Key.backspace	n/a
382.22	0.089	764440	keystroke	c	n/a
382.4145	0.0745	764829	keystroke	i	n/a
382.7145	0.0595	765429	keystroke	a	n/a
382.924	0.075	765848	keystroke	l	n/a
383.269	0.075	766538	keystroke	i	n/a
383.4045	0.0745	766809	keystroke	s	n/a
383.674	0.0905	767348	keystroke	t	n/a
383.884	0.09	767768	keystroke	Key.space	n/a
384.065	0.074	768130	keystroke	m	n/a
384.229	0.076	768458	keystroke	i	n/a
384.349	0.09	768698	keystroke	g	n/a
384.4545	0.0595	768909	keystroke	h	n/a
384.575	0.075	769150	keystroke	t	n/a
385.144	0.075	770288	keystroke	'	n/a
385.37	0.089	770740	keystroke	v	n/a
385.504	0.12	771008	keystroke	e	n/a
385.684	0.105	771368	keystroke	Key.enter	n/a
385.798	5.8285	771596	prompt	n/a	load relates bingo amount\n
386.345	0.075	772690	keystroke	l	n/a
386.569	0.09	773138	keystroke	o	n/a
386.719	0.135	773438	keystroke	a	n/a
386.839	0.105	773678	keystroke	d	n/a
386.959	0.06	773918	keystroke	Key.space	n/a
387.154	0.075	774308	keystroke	r	n/a
387.1995	0.0895	774399	keystroke	e	n/a
387.319	0.106	774638	keystroke	l	n/a
387.454	0.06	774908	keystroke	a	n/a
387.545	0.059	775090	keystroke	t	n/a
387.6345	0.1195	775269	keystroke	e	n/a
387.769	0.09	775538	keystroke	d	n/a
388.159	0.0755	776318	keystroke	Key.backspace	n/a
388.249	0.0605	776498	keystroke	s	n/a
388.369	0.075	776738	keystroke	Key.space	n/a
388.624	0.0605	777248	keystroke	b	n/a
388.685	0.1195	777370	keystroke	i	n/a
388.7455	0.1045	777491	keystroke	n	n/a
388.864	0.075	777728	keystroke	f	n/a
388.9545	0.0905	777909	keystroke	o	n/a
389.074	0.15	778148	keystroke	Key.space	n/a
389.344	0.09	778688	keystroke	Key.backspace	n/a
389.614	0.015	779228	keystroke	Key.backspace	n/a
389.674	0.15	779348	keystroke	Key.backspace	n/a
390.379	0.076	780758	keystroke	g	n/a
390.47	0.0895	780940	keystroke	o	n/a
390.544	0.1205	781088	keystroke	Key.space	n/a
390.6795	0.0905	781359	keystroke	a	n/a
390.784	0.091	781568	keystroke	m	n/a
390.935	0.105	781870	keystroke	o	n/a
391.159	0.106	782318	keystroke	u	n/a
391.219	0.121	782438	keystroke	n	n/a
391.324	0.091	782648	keystroke	t	n/a
391.5645	0.0595	783129	keystroke	Key.enter	n/a
391.632	8.335	783264	prompt	n/a	photographer deviant victory escape\n
392.36	0.089	784720	keystroke	p	n/a
392.66	0.045	785320	keystroke	h	n/a
392.839	0.091	785678	keystroke	o	n/a
392.959	0.061	785918	keystroke	t	n/a
393.08	0.075	786160	keystroke	o	n/a
393.665	0.075	787330	keystroke	g	n/a
393.755	0.09	787510	keystroke	r	n/a
393.949	0.0765	787898	keystroke	a	n/a
394.0095	0.0755	788019	keystroke	p	n/a
394.25	0.075	788500	keystroke	h	n/a
394.325	0.105	788650	keystroke	e	n/a
394.4	0.09	788800	keystroke	r	n/a
394.519	0.09	789038	keystroke	Key.space	n/a
394.79	0.12	789580	keystroke	d	n/a
394.94	0.119	789880	keystroke	e	n/a
395.1795	0.0745	790359	keystroke	v	n/a
395.299	0.076	790598	keystroke	i	n/a
395.405	0.12	790810	keystroke	a	n/a
395.54	0.075	791080	keystroke	l	n/a
395.8695	0.105	791739	keystroke	Key.backspace	n/a
396.02	0.09	792040	keystroke	n	n/a
396.14	0.075	792280	keystroke	t	n/a
396.484	0.075	792968	keystroke	Key.space	n/a
396.695	0.135	793390	keystroke	c	n/a
396.845	0.06	793690	keystroke	i	n/a
396.979	0.091	793958	keystroke	t	n/a
397.249	0.075	794498	keystroke	Key.backspace	n/a
397.399	0.09	794798	keystroke	Key.backspace	n/a
397.579	0.09	795158	keystroke	Key.backspace	n/a
397.7445	0.0605	795489	keystroke	v	n/a
397.82	0.075	795640	keystroke	i	n/a
397.91	0.075	795820	keystroke	c	n/a
398.09	0.075	796180	keystroke	t	n/a
398.179	0.075	796358	keystroke	o	n/a
398.315	0.089	796630	keystroke	r	n/a
398.42	0.09	796840	keystroke	y	n/a
398.555	0.134	797110	keystroke	Key.space	n/a
398.899	0.075	797798	keystroke	e	n/a
399.124	0.091	798248	keystroke	s	n/a
399.275	0.135	798550	keystroke	c	n/a
399.455	0.105	798910	keystroke	a	n/a
399.575	0.105	799150	keystroke	p	n/a
399.695	0.075	799390	keystroke	e	n/a
399.875	0.089	799750	keystroke	Key.enter	n/a
399.972	7.81	799944	prompt	n/a	consult kevin arcade subsidiaries\n
400.49	0.105	800980	keystroke	c	n/a
400.58	0.09	801160	keystroke	o	n/a
400.715	0.09	801430	keystroke	n	n/a
400.865	0.105	801730	keystroke	s	n/a
400.985	0.075	801970	keystroke	u	n/a
401.195	0.075	802390	keystroke	l	n/a
401.465	0.044	802930	keystroke	Key.space	n/a
401.585	0.09	803170	keystroke	t	n/a
401.825	0.09	803650	keystroke	Key.backspace	n/a
401.975	0.12	803950	keystroke	Key.backspace	n/a
402.05	0.12	804100	keystroke	t	n/a
402.2	0.134	804400	keystroke	Key.space	n/a
402.71	0.105	805420	keystroke	k	n/a
402.829	0.091	805658	keystroke	e	n/a
403.01	0.09	806020	keystroke	v	n/a
403.115	0.134	806230	keystroke	i	n/a
403.19	0.09	806380	keystroke	n	n/a
403.37	0.089	806740	keystroke	Key.space	n/a
403.55	0.06	807100	keystroke	a	n/a
403.7	0.06	807400	keystroke	r	n/a
403.85	0.105	807700	keystroke	c	n/a
404.27	0.104	808540	keystroke	a	n/a
404.39	0.135	808780	keystroke	d	n/a
404.51	0.09	809020	keystroke	e	n/a
404.645	0.09	809290	keystroke	Key.space	n/a
405.08	0.075	810160	keystroke	s	n/a
405.41	0.045	810820	keystroke	b	n/a
405.605	0.105	811210	keystroke	Key.backspace	n/a
405.755	0.075	811510	keystroke	u	n/a
405.86	0.06	811720	keystroke	b	n/a
406.145	0.1045	812290	keystroke	s	n/a
406.2795	0.09	812559	keystroke	i	n/a
406.5045	0.105	813009	keystroke	d	n/a
406.6695	0.075	813339	keystroke	i	n/a
406.7745	0.09	813549	keystroke	a	n/a
406.9245	0.09	813849	keystroke	r	n/a
407.3445	0.075	814689	keystroke	i	n/a
407.4345	0.06	814869	keystroke	e	n/a
407.5995	0.09	815199	keystroke	s	n/a
407.7045	0.075	815409	keystroke	Key.enter	n/a
407.7885	6.849	815577	prompt	n/a	oclc retirement nail nissan\n
408.7845	0.075	817569	keystroke	o	n/a
409.6095	0.06	819219	keystroke	c	n/a
409.6845	0.075	819369	keystroke	l	n/a
409.7895	0.105	819579	keystroke	c	n/a
409.985	0.0895	819970	keystroke	Key.space	n/a
410.3745	0.135	820749	keystroke	r	n/a
410.6745	0.09	821349	keystroke	e	n/a
410.9895	0.15	821979	keystroke	t	n/a
411.4095	0.09	822819	keystroke	i	n/a
411.5745	0.12	823149	keystroke	r	n/a
411.8145	0.076	823629	keystroke	e	n/a
411.9495	0.06	823899	keystroke	m	n/a
412.0845	0.06	824169	keystroke	e	n/a
412.1595	0.0755	824319	keystroke	n	n/a
412.2955	0.06	824591	keystroke	t	n/a
412.3855	0.09	824771	keystroke	Key.space	n/a
412.8355	0.06	825671	keystroke	n	n/a
412.9405	0.075	825881	keystroke	a	n/a
413.0005	0.06	826001	keystroke	i	n/a
413.1655	0.075	826331	keystroke	l	n/a
413.2705	0.09	826541	keystroke	Key.space	n/a
413.6155	0.06	827231	keystroke	n	n/a
413.7655	0.09	827531	keystroke	i	n/a
413.9155	0.075	827831	keystroke	s	n/a
414.095	0.06	828190	keystroke	s	n/a
414.2005	0.1045	828401	keystroke	a	n/a
414.29	0.0605	828580	keystroke	n	n/a
414.5605	0.0745	829121	keystroke	Key.enter	n/a
414.642	4.9	829284	prompt	n/a	effect offices james chef\n
415.355	0.0905	830710	keystroke	e	n/a
415.4905	0.1045	830981	keystroke	f	n/a
415.6705	0.0745	831341	keystroke	f	n/a
415.7755	0.12	831551	keystroke	e	n/a
415.865	0.09	831730	keystroke	c	n/a
416.075	0.075	832150	keystroke	t	n/a
416.1955	0.0595	832391	keystroke	Key.space	n/a
416.4655	0.0895	832931	keystroke	o	n/a
416.69	0.045	833380	keystroke	f	n/a
416.825	0.075	833650	keystroke	f	n/a
416.93	0.09	833860	keystroke	i	n/a
417.065	0.06	834130	keystroke	c	n/a
417.11	0.105	834220	keystroke	e	n/a
417.32	0.075	834640	keystroke	s	n/a
417.4105	0.0745	834821	keystroke	Key.space	n/a
417.62	0.06	835240	keystroke	j	n/a
417.71	0.075	835420	keystroke	a	n/a
417.815	0.0755	835630	keystroke	m	n/a
417.8755	0.0895	835751	keystroke	e	n/a
418.0405	0.075	836081	keystroke	s	n/a
418.055	0.075	836110	keystroke	Key.space	n/a
418.2355	0.0895	836471	keystroke	c	n/a
418.565	0.09	837130	keystroke	h	n/a
418.7005	0.1195	837401	keystroke	e	n/a
418.865	0.0755	837730	keystroke	t	n/a
419.1055	0.105	838211	keystroke	Key.backspace	n/a
419.18	0.0905	838360	keystroke	f	n/a
419.4505	0.09	838901	keystroke	Key.enter	n/a
419.5465	6.041	839093	prompt	n/a	powers male partners blogger\n
420.44	0.075	840880	keystroke	p	n/a
420.605	0.075	841210	keystroke	o	n/a
420.665	0.075	841330	keystroke	w	n/a
420.86	0.105	841720	keystroke	e	n/a
420.9805	0.0745	841961	keystroke	r	n/a
421.115	0.09	842230	keystroke	s	n/a
421.3555	0.0595	842711	keystroke	Key.space	n/a
421.82	0.09	843640	keystroke	m	n/a
421.94	0.0605	843880	keystroke	a	n/a
422.195	0.06	844390	keystroke	e	n/a
422.705	0.1055	845410	keystroke	Key.backspace	n/a
422.765	0.1055	845530	keystroke	l	n/a
422.8855	0.0895	845771	keystroke	e	n/a
423.0205	0.1045	846041	keystroke	Key.space	n/a
423.185	0.0905	846370	keystroke	p	n/a
423.26	0.0755	846520	keystroke	a	n/a
423.4105	0.0895	846821	keystroke	r	n/a
423.605	0.06	847210	keystroke	t	n/a
423.89	0.0905	847780	keystroke	n	n/a
424.1005	0.0595	848201	keystroke	e	n/a
424.1455	0.0895	848291	keystroke	r	n/a
424.3105	0.0895	848621	keystroke	s	n/a
424.4305	0.0745	848861	keystroke	Key.space	n/a
424.7005	0.06	849401	keystroke	b	n/a
424.775	0.09	849550	keystroke	l	n/a
424.925	0.105	849850	keystroke	o	n/a
425.0455	0.0295	850091	keystroke	g	n/a
425.1505	0.0745	850301	keystroke	g	n/a
425.3005	0.12	850601	keystroke	e	n/a
425.36	0.1205	850720	keystroke	r	n/a
425.495	0.0905	850990	keystroke	Key.enter	n/a
425.5925	7.2095	851185	prompt	n/a	pools sick cube implemented\n
426.1555	0.06	852311	keystroke	p	n/a
426.3505	0.06	852701	keystroke	o	n/a
426.5	0.0605	853000	keystroke	o	n/a
426.6205	0.09	853241	keystroke	l	n/a
426.7255	0.105	853451	keystroke	s	n/a
427.2205	0.09	854441	keystroke	Key.space	n/a
427.5205	0.075	855041	keystroke	i	n/a
427.8655	0.03	855731	keystroke	Key.backspace	n/a
427.9105	0.09	855821	keystroke	s	n/a
428.0155	0.075	856031	keystroke	i	n/a
428.1205	0.09	856241	keystroke	c	n/a
428.4355	0.075	856871	keystroke	k	n/a
428.6605	0.09	857321	keystroke	Key.space	n/a
429.14	0.09	858280	keystroke	c	n/a
429.2605	0.045	858521	keystroke	u	n/a
429.3655	0.06	858731	keystroke	b	n/a
429.5005	0.105	859001	keystroke	e	n/a
429.8455	0.0745	859691	keystroke	Key.space	n/a
430.07	0.1055	860140	keystroke	i	n/a
430.1755	0.1045	860351	keystroke	m	n/a
430.385	0.105	860770	keystroke	o	n/a
430.415	0.0605	860830	keystroke	p	n/a
430.445	0.135	860890	keystroke	l	n/a
431.0455	0.03	862091	keystroke	Key.backspace	n/a
431.1955	0.03	862391	keystroke	Key.backspace	n/a
431.3005	0.195	862601	keystroke	Key.backspace	n/a
431.4355	0.135	862871	keystroke	p	n/a
431.5105	0.135	863021	keystroke	l	n/a
431.7205	0.09	863441	keystroke	e	n/a
431.9155	0.0745	863831	keystroke	m	n/a
432.0355	0.0745	864071	keystroke	e	n/a
432.1405	0.0745	864281	keystroke	n	n/a
432.26	0.0755	864520	keystroke	t	n/a
432.5	0.105	865000	keystroke	e	n/a
432.545	0.15	865090	keystroke	d	n/a
432.71	0.09	865420	keystroke	Key.enter	n/a
432.807	5.4105	865614	prompt	n/a	ranger jonathan shift determined\n
433.505	0.09	867010	keystroke	r	n/a
433.6555	0.0895	867311	keystroke	a	n/a
433.79	0.0605	867580	keystroke	n	n/a
433.865	0.0455	867730	keystroke	g	n/a
433.985	0.105	867970	keystroke	e	n/a
434.075	0.06	868150	keystroke	r	n/a
434.18	0.045	868360	keystroke	Key.space	n/a
434.405	0.0605	868810	keystroke	j	n/a
434.555	0.09	869110	keystroke	o	n/a
434.675	0.105	869350	keystroke	n	n/a
434.84	0.06	869680	keystroke	a	n/a
435.065	0.06	870130	keystroke	t	n/a
435.155	0.06	870310	keystroke	h	n/a
435.3205	0.06	870641	keystroke	a	n/a
435.365	0.075	870730	keystroke	n	n/a
435.56	0.105	871120	keystroke	Key.space	n/a
435.77	0.075	871540	keystroke	s	n/a
435.86	0.06	871720	keystroke	h	n/a
436.025	0.09	872050	keystroke	i	n/a
436.085	0.12	872170	keystroke	f	n/a
436.325	0.09	872650	keystroke	t	n/a
436.475	0.075	872950	keystroke	Key.space	n/a
436.835	0.06	873670	keystroke	d	n/a
436.91	0.105	873820	keystroke	e	n/a
437.1055	0.0595	874211	keystroke	t	n/a
437.21	0.105	874420	keystroke	e	n/a
437.285	0.105	874570	keystroke	r	n/a
437.405	0.045	874810	keystroke	m	n/a
437.495	0.135	874990	keystroke	i	n/a
437.6	0.075	875200	keystroke	n	n/a
437.87	0.135	875740	keystroke	e	n/a
437.96	0.105	875920	keystroke	d	n/a
438.14	0.075	876280	keystroke	Key.enter	n/a
438.222	6.926	876444	prompt	n/a	promotions circuit dance proven\n
438.815	0.105	877630	keystroke	p	n/a
439.01	0.09	878020	keystroke	r	n/a
439.145	0.09	878290	keystroke	o	n/a
439.265	0.105	878530	keystroke	m	n/a
439.415	0.105	878830	keystroke	o	n/a
439.625	0.06	879250	keystroke	t	n/a
439.715	0.06	879430	keystroke	i	n/a
439.85	0.106	879700	keystroke	o	n/a
439.97	0.12	879940	keystroke	n	n/a
440.075	0.105	880150	keystroke	s	n/a
440.225	0.075	880450	keystroke	Key.space	n/a
440.36	0.165	880720	keystroke	c	n/a
440.54	0.075	881080	keystroke	i	n/a
440.645	0.12	881290	keystroke	r	n/a
440.78	0.12	881560	keystroke	c	n/a
441.965	0.06	883930	keystroke	u	n/a
442.13	0.075	884260	keystroke	i	n/a
442.22	0.075	884440	keystroke	t	n/a
442.4	0.06	884800	keystroke	Key.space	n/a
442.97	0.12	885940	keystroke	d	n/a
443.12	0.105	886240	keystroke	a	n/a
443.24	0.09	886480	keystroke	n	n/a
443.331	0.104	886662	keystroke	c	n/a
443.39	0.105	886780	keystroke	e	n/a
443.51	0.03	887020	keystroke	Key.space	n/a
443.66	0.105	887320	keystroke	p	n/a
443.75	0.09	887500	keystroke	r	n/a
443.855	0.09	887710	keystroke	o	n/a
443.99	0.045	887980	keystroke	b	n/a
444.14	0.075	888280	keystroke	e	n/a
444.35	0.075	888700	keystroke	Key.backspace	n/a
444.485	0.12	888970	keystroke	Key.backspace	n/a
444.516	0.104	889032	keystroke	v	n/a
444.665	0.12	889330	keystroke	e	n/a
444.755	0.075	889510	keystroke	n	n/a
445.07	0.075	890140	keystroke	Key.enter	n/a
445.154	6.0995	890308	prompt	n/a	souls clara capitol caring\n
445.73	0.091	891460	keystroke	s	n/a
445.85	0.105	891700	keystroke	o	n/a
446.075	0.0455	892150	keystroke	u	n/a
446.27	0.076	892540	keystroke	l	n/a
446.347	0.103	892694	keystroke	s	n/a
446.495	0.15	892990	keystroke	Key.space	n/a
447.02	0.091	894040	keystroke	c	n/a
447.186	0.089	894372	keystroke	l	n/a
447.29	0.045	894580	keystroke	a	n/a
447.41	0.105	894820	keystroke	r	n/a
447.53	0.12	895060	keystroke	a	n/a
447.71	0.09	895420	keystroke	Key.space	n/a
448.34	0.075	896680	keystroke	c	n/a
448.58	0.09	897160	keystroke	p	n/a
448.85	0.09	897700	keystroke	Key.backspace	n/a
448.956	0.089	897912	keystroke	a	n/a
449.06	0.09	898120	keystroke	p	n/a
449.3	0.06	898600	keystroke	i	n/a
449.465	0.06	898930	keystroke	t	n/a
449.706	0.104	899412	keystroke	o	n/a
449.84	0.106	899680	keystroke	l	n/a
449.99	0.15	899980	keystroke	Key.space	n/a
450.396	0.089	900792	keystroke	c	n/a
450.5	0.091	901000	keystroke	a	n/a
450.666	0.074	901332	keystroke	r	n/a
450.725	0.165	901450	keystroke	i	n/a
450.861	0.089	901722	keystroke	n	n/a
450.935	0.09	901870	keystroke	g	n/a
451.16	0.09	902320	keystroke	Key.enter	n/a
451.2595	7.674	902519	prompt	n/a	advantages backgrounds figures route\n
451.925	0.075	903850	keystroke	a	n/a
452.09	0.076	904180	keystroke	d	n/a
452.526	0.075	905052	keystroke	v	n/a
452.69	0.076	905380	keystroke	a	n/a
452.811	0.074	905622	keystroke	n	n/a
453.035	0.045	906070	keystroke	t	n/a
453.186	0.059	906372	keystroke	a	n/a
453.306	0.089	906612	keystroke	g	n/a
453.411	0.09	906822	keystroke	e	n/a
453.606	0.089	907212	keystroke	s	n/a
453.74	0.075	907480	keystroke	Key.space	n/a
454.146	0.074	908292	keystroke	b	n/a
454.205	0.091	908410	keystroke	a	n/a
454.281	0.074	908562	keystroke	c	n/a
454.386	0.075	908772	keystroke	k	n/a
454.565	0.09	909130	keystroke	g	n/a
454.626	0.149	909252	keystroke	r	n/a
454.746	0.059	909492	keystroke	o	n/a
454.911	0.134	909822	keystroke	u	n/a
454.986	0.104	909972	keystroke	n	n/a
455.031	0.135	910062	keystroke	d	n/a
455.121	0.119	910242	keystroke	s	n/a
455.645	0.09	911290	keystroke	Key.space	n/a
455.871	0.105	911742	keystroke	f	n/a
456.006	0.09	912012	keystroke	i	n/a
456.786	0.09	913572	keystroke	g	n/a
456.921	0.105	913842	keystroke	u	n/a
457.056	0.119	914112	keystroke	r	n/a
457.145	0.105	914290	keystroke	e	n/a
457.356	0.119	914712	keystroke	s	n/a
457.82	0.105	915640	keystroke	Key.space	n/a
458.091	0.105	916182	keystroke	r	n/a
458.181	0.075	916362	keystroke	o	n/a
458.376	0.089	916752	keystroke	u	n/a
458.466	0.12	916932	keystroke	t	n/a
458.556	0.12	917112	keystroke	e	n/a
458.855	0.076	917710	keystroke	Key.enter	n/a
458.939	8.723	917878	prompt	n/a	required don't saudi fully\n
459.531	0.075	919062	keystroke	r	n/a
459.59	0.106	919180	keystroke	e	n/a
459.816	0.104	919632	keystroke	q	n/a
459.9655	0.075	919931	keystroke	u	n/a
460.8505	0.075	921701	keystroke	i	n/a
460.9555	0.105	921911	keystroke	r	n/a
461.1055	0.135	922211	keystroke	e	n/a
461.1955	0.12	922391	keystroke	d	n/a
461.7055	0.06	923411	keystroke	Key.space	n/a
461.8855	0.105	923771	keystroke	d	n/a
462.0205	0.09	924041	keystroke	a	n/a
462.1705	0.09	924341	keystroke	o	n/a
462.4255	0.075	924851	keystroke	Key.backspace	n/a
462.5605	0.135	925121	keystroke	Key.backspace	n/a
462.6205	0.105	925241	keystroke	o	n/a
462.8005	0.075	925601	keystroke	n	n/a
463.3255	0.06	926651	keystroke	'	n/a
463.4905	0.09	926981	keystroke	t	n/a
464.2555	0.075	928511	keystroke	Key.space	n/a
464.3755	0.105	928751	keystroke	s	n/a
464.5105	0.135	929021	keystroke	a	n/a
464.6755	0.105	929351	keystroke	u	n/a
464.8705	0.12	929741	keystroke	d	n/a
464.9915	0.089	929983	keystroke	i	n/a
465.1105	0.12	930221	keystroke	Key.space	n/a
465.6805	0.045	931361	keystroke	u	n/a
465.9505	0.09	931901	keystroke	Key.backspace	n/a
466.0555	0.09	932111	keystroke	f	n/a
466.1605	0.06	932321	keystroke	u	n/a
466.5055	0.09	933011	keystroke	l	n/a
466.6105	0.09	933221	keystroke	y	n/a
466.6705	0.09	933341	keystroke	l	n/a
467.0305	0.06	934061	keystroke	Key.backspace	n/a
467.1655	0.135	934331	keystroke	Key.backspace	n/a
467.2405	0.135	934481	keystroke	l	n/a
467.3455	0.075	934691	keystroke	y	n/a
467.5855	0.075	935171	keystroke	Key.enter	n/a
467.6675	6.836	935335	prompt	n/a	jake achieve birmingham slight\n
468.7105	0.06	937421	keystroke	j	n/a
468.8155	0.06	937631	keystroke	a	n/a
468.8905	0.09	937781	keystroke	k	n/a
468.9955	0.06	937991	keystroke	e	n/a
469.1155	0.06	938231	keystroke	Key.space	n/a
469.3255	0.09	938651	keystroke	a	n/a
470.1365	0.074	940273	keystroke	c	n/a
470.2705	0.06	940541	keystroke	h	n/a
470.4515	0.089	940903	keystroke	i	n/a
470.5555	0.105	941111	keystroke	e	n/a
470.7205	0.09	941441	keystroke	v	n/a
470.8555	0.12	941711	keystroke	e	n/a
470.9905	0.075	941981	keystroke	Key.space	n/a
471.3805	0.09	942761	keystroke	b	n/a
471.7405	0.075	943481	keystroke	i	n/a
471.8905	0.06	943781	keystroke	r	n/a
471.9805	0.075	943961	keystroke	m	n/a
472.1755	0.135	944351	keystroke	i	n/a
472.2955	0.075	944591	keystroke	n	n/a
472.4305	0.105	944861	keystroke	g	n/a
472.7455	0.075	945491	keystroke	h	n/a
472.8505	0.09	945701	keystroke	a	n/a
472.9865	0.059	945973	keystroke	m	n/a
473.1355	0.105	946271	keystroke	Key.space	n/a
473.5855	0.091	947171	keystroke	s	n/a
473.6905	0.06	947381	keystroke	l	n/a
473.8555	0.075	947711	keystroke	i	n/a
473.9905	0.06	947981	keystroke	g	n/a
474.0955	0.075	948191	keystroke	h	n/a
474.1865	0.089	948373	keystroke	t	n/a
474.4255	0.075	948851	keystroke	Key.enter	n/a
474.5085	8.1095	949017	prompt	n/a	valued achievement pins alter\n
475.3865	0.104	950773	keystroke	v	n/a
475.5805	0.075	951161	keystroke	a	n/a
475.6565	0.059	951313	keystroke	l	n/a
475.8355	0.076	951671	keystroke	u	n/a
475.9265	0.134	951853	keystroke	e	n/a
476.0455	0.075	952091	keystroke	d	n/a
476.0905	0.105	952181	keystroke	Key.space	n/a
476.2855	0.076	952571	keystroke	s	n/a
476.4505	0.06	952901	keystroke	a	n/a
476.6605	0.075	953321	keystroke	Key.backspace	n/a
476.7805	0.135	953561	keystroke	Key.backspace	n/a
476.8855	0.076	953771	keystroke	a	n/a
476.9905	0.09	953981	keystroke	c	n/a
477.1105	0.075	954221	keystroke	h	n/a
477.2605	0.03	954521	keystroke	e	n/a
477.6655	0.09	955331	keystroke	Key.backspace	n/a
477.7855	0.09	955571	keystroke	i	n/a
477.9055	0.075	955811	keystroke	e	n/a
478.0415	0.074	956083	keystroke	v	n/a
478.1455	0.121	956291	keystroke	e	n/a
478.5805	0.09	957161	keystroke	m	n/a
478.7155	0.076	957431	keystroke	e	n/a
478.8055	0.076	957611	keystroke	n	n/a
478.9565	0.059	957913	keystroke	t	n/a
479.0455	0.06	958091	keystroke	Key.space	n/a
479.2405	0.06	958481	keystroke	s	n/a
479.4355	0.12	958871	keystroke	Key.backspace	n/a
479.5705	0.091	959141	keystroke	o	n/a
479.9605	0.165	959921	keystroke	Key.backspace	n/a
480.0805	0.106	960161	keystroke	p	n/a
480.2755	0.12	960551	keystroke	i	n/a
480.3965	0.12	960793	keystroke	n	n/a
480.5005	0.105	961001	keystroke	s	n/a
480.6355	0.165	961271	keystroke	Key.space	n/a
480.8155	0.075	961631	keystroke	a	n/a
480.9205	0.105	961841	keystroke	f	n/a
481.1605	0.091	962321	keystroke	t	n/a
481.4155	0.09	962831	keystroke	Key.backspace	n/a
481.7605	0.135	963521	keystroke	Key.backspace	n/a
481.8805	0.121	963761	keystroke	l	n/a
482.0605	0.12	964121	keystroke	t	n/a
482.3005	0.106	964601	keystroke	e	n/a
482.3455	0.105	964691	keystroke	r	n/a
482.5265	0.089	965053	keystroke	Key.enter	n/a
482.626	11.512	965252	prompt	n/a	pregnancy brave holocaust liquid\n
483.1865	0.104	966373	keystroke	p	n/a
483.3655	0.105	966731	keystroke	r	n/a
483.4715	0.119	966943	keystroke	e	n/a
484.0565	0.104	968113	keystroke	g	n/a
484.7165	0.089	969433	keystroke	n	n/a
484.8805	0.09	969761	keystroke	a	n/a
485.0315	0.075	970063	keystroke	n	n/a
485.7965	0.09	971593	keystroke	c	n/a
485.9005	0.076	971801	keystroke	y	n/a
486.0205	0.105	972041	keystroke	Key.space	n/a
486.6965	0.06	973393	keystroke	b	n/a
486.9205	0.106	973841	keystroke	r	n/a
487.2215	0.075	974443	keystroke	a	n/a
487.4315	0.12	974863	keystroke	e	n/a
487.7765	0.104	975553	keystroke	Key.backspace	n/a
487.8215	0.12	975643	keystroke	c	n/a
487.9255	0.106	975851	keystroke	e	n/a
488.0615	0.059	976123	keystroke	Key.space	n/a
488.3155	0.09	976631	keystroke	Key.backspace	n/a
488.4655	0.106	976931	keystroke	Key.backspace	n/a
488.6005	0.151	977201	keystroke	Key.backspace	n/a
488.6915	0.09	977383	keystroke	v	n/a
488.8115	0.165	977623	keystroke	e	n/a
488.9155	0.136	977831	keystroke	Key.space	n/a
489.2765	0.15	978553	keystroke	g	n/a
489.4865	0.12	978973	keystroke	o	n/a
489.7705	0.076	979541	keystroke	Key.backspace	n/a
489.9065	0.134	979813	keystroke	Key.backspace	n/a
490.2065	0.015	980413	keystroke	h	n/a
490.2365	0.09	980473	keystroke	o	n/a
490.3415	0.09	980683	keystroke	l	n/a
490.4615	0.09	980923	keystroke	o	n/a
490.5815	0.104	981163	keystroke	c	n/a
490.8515	0.09	981703	keystroke	a	n/a
491.0165	0.06	982033	keystroke	u	n/a
491.0615	0.105	982123	keystroke	s	n/a
491.3015	0.089	982603	keystroke	t	n/a
491.5855	0.106	983171	keystroke	Key.space	n/a
491.7505	0.106	983501	keystroke	l	n/a
492.1565	0.044	984313	keystroke	i	n/a
492.9965	0.105	985993	keystroke	q	n/a
493.2815	0.075	986563	keystroke	u	n/a
493.5215	0.089	987043	keystroke	i	n/a
493.6265	0.12	987253	keystroke	d	n/a
494.0615	0.075	988123	keystroke	Key.enter	n/a
494.143	5.1265	988286	prompt	n/a	extras teeth closes loaded\n
494.8715	0.105	989743	keystroke	e	n/a
495.0215	0.105	990043	keystroke	x	n/a
495.2765	0.06	990553	keystroke	t	n/a
495.4565	0.06	990913	keystroke	r	n/a
495.6215	0.135	991243	keystroke	a	n/a
495.6965	0.09	991393	keystroke	s	n/a
496.1015	0.059	992203	keystroke	Key.space	n/a
496.3565	0.075	992713	keystroke	t	n/a
496.5365	0.06	993073	keystroke	e	n/a
496.7015	0.12	993403	keystroke	e	n/a
496.8365	0.105	993673	keystroke	t	n/a
496.9565	0.09	993913	keystroke	h	n/a
497.1355	0.076	994271	keystroke	Key.space	n/a
497.4065	0.09	994813	keystroke	c	n/a
497.5415	0.09	995083	keystroke	l	n/a
497.6915	0.105	995383	keystroke	o	n/a
497.8565	0.06	995713	keystroke	s	n/a
498.0365	0.045	996073	keystroke	e	n/a
498.1865	0.06	996373	keystroke	s	n/a
498.2915	0.045	996583	keystroke	Key.space	n/a
498.4415	0.09	996883	keystroke	l	n/a
498.5615	0.105	997123	keystroke	o	n/a
498.6215	0.105	997243	keystroke	a	n/a
498.6965	0.135	997393	keystroke	d	n/a
498.8615	0.165	997723	keystroke	e	n/a
498.9665	0.105	997933	keystroke	d	n/a
499.1915	0.075	998383	keystroke	Key.enter	n/a
499.2755	5.033	998551	prompt	n/a	greene solid trail prix\n
499.9265	0.135	999853	keystroke	g	n/a
500.0625	0.104	1000125	keystroke	r	n/a
500.2715	0.075	1000543	keystroke	e	n/a
500.4365	0.06	1000873	keystroke	e	n/a
500.5565	0.06	1001113	keystroke	n	n/a
500.6465	0.075	1001293	keystroke	e	n/a
500.7515	0.075	1001503	keystroke	Key.space	n/a
501.0515	0.075	1002103	keystroke	s	n/a
501.1115	0.09	1002223	keystroke	o	n/a
501.2315	0.09	1002463	keystroke	l	n/a
501.3965	0.105	1002793	keystroke	i	n/a
501.5165	0.09	1003033	keystroke	d	n/a
501.6365	0.09	1003273	keystroke	Key.space	n/a
502.3415	0.15	1004683	keystroke	t	n/a
502.4765	0.105	1004953	keystroke	r	n/a
502.6715	0.105	1005343	keystroke	a	n/a
502.7915	0.09	1005583	keystroke	i	n/a
502.9865	0.09	1005973	keystroke	l	n/a
503.1215	0.135	1006243	keystroke	Key.space	n/a
503.3915	0.12	1006783	keystroke	p	n/a
503.6165	0.09	1007233	keystroke	r	n/a
503.7365	0.09	1007473	keystroke	i	n/a
503.8865	0.135	1007773	keystroke	x	n/a
504.2165	0.09	1008433	keystroke	Key.enter	n/a
504.3135	8.5445	1008627	prompt	n/a	doll strategy goto renaissance\n
505.0715	0.105	1010143	keystroke	d	n/a
505.1765	0.045	1010353	keystroke	o	n/a
505.5515	0.06	1011103	keystroke	l	n/a
505.6865	0.075	1011373	keystroke	l	n/a
505.9265	0.105	1011853	keystroke	Key.space	n/a
506.2565	0.09	1012513	keystroke	s	n/a
506.4515	0.105	1012903	keystroke	t	n/a
506.5865	0.105	1013173	keystroke	r	n/a
506.8115	0.06	1013623	keystroke	a	n/a
507.007	0.105	1014014	keystroke	g	n/a
507.397	0.104	1014794	keystroke	Key.backspace	n/a
507.472	0.105	1014944	keystroke	t	n/a
507.727	0.075	1015454	keystroke	e	n/a
507.847	0.09	1015694	keystroke	g	n/a
507.997	0.06	1015994	keystroke	y	n/a
508.146	0.09	1016292	keystroke	Key.space	n/a
508.507	0.12	1017014	keystroke	f	n/a
508.672	0.105	1017344	keystroke	o	n/a
508.837	0.09	1017674	keystroke	t	n/a
509.092	0.075	1018184	keystroke	Key.backspace	n/a
509.242	0.09	1018484	keystroke	Key.backspace	n/a
509.392	0.12	1018784	keystroke	Key.backspace	n/a
509.467	0.105	1018934	keystroke	g	n/a
509.587	0.09	1019174	keystroke	o	n/a
509.692	0.09	1019384	keystroke	t	n/a
509.827	0.105	1019654	keystroke	o	n/a
510.052	0.105	1020104	keystroke	Key.space	n/a
510.487	0.09	1020974	keystroke	r	n/a
510.562	0.105	1021124	keystroke	e	n/a
510.787	0.06	1021574	keystroke	n	n/a
510.892	0.09	1021784	keystroke	a	n/a
511.012	0.09	1022024	keystroke	i	n/a
511.372	0.105	1022744	keystroke	s	n/a
511.552	0.09	1023104	keystroke	s	n/a
511.702	0.09	1023404	keystroke	a	n/a
511.852	0.06	1023704	keystroke	n	n/a
512.017	0.09	1024034	keystroke	e	n/a
512.317	0.09	1024634	keystroke	Key.backspace	n/a
512.392	0.135	1024784	keystroke	c	n/a
512.512	0.12	1025024	keystroke	e	n/a
512.782	0.075	1025564	keystroke	Key.enter	n/a
512.864	9.9395	1025728	prompt	n/a	denied coordinator slide maximize\n
513.457	0.09	1026914	keystroke	d	n/a
513.562	0.09	1027124	keystroke	e	n/a
513.727	0.06	1027454	keystroke	n	n/a
513.862	0.105	1027724	keystroke	i	n/a
514.027	0.135	1028054	keystroke	e	n/a
514.117	0.12	1028234	keystroke	d	n/a
514.267	0.06	1028534	keystroke	Key.space	n/a
514.567	0.12	1029134	keystroke	c	n/a
514.702	0.075	1029404	keystroke	o	n/a
514.837	0.075	1029674	keystroke	r	n/a
515.167	0.09	1030334	keystroke	r	n/a
515.452	0.075	1030904	keystroke	Key.backspace	n/a
515.602	0.135	1031204	keystroke	Key.backspace	n/a
515.707	0.12	1031414	keystroke	o	n/a
516.277	0.075	1032554	keystroke	r	n/a
516.697	0.105	1033394	keystroke	d	n/a
517.027	0.105	1034054	keystroke	i	n/a
517.192	0.105	1034384	keystroke	n	n/a
517.432	0.075	1034864	keystroke	a	n/a
517.567	0.105	1035134	keystroke	t	n/a
517.687	0.075	1035374	keystroke	o	n/a
517.747	0.12	1035494	keystroke	r	n/a
517.852	0.105	1035704	keystroke	Key.space	n/a
518.047	0.09	1036094	keystroke	s	n/a
518.152	0.075	1036304	keystroke	l	n/a
518.332	0.09	1036664	keystroke	i	n/a
518.377	0.15	1036754	keystroke	d	n/a
518.482	0.135	1036964	keystroke	e	n/a
518.602	0.09	1037204	keystroke	Key.space	n/a
518.797	0.09	1037594	keystroke	m	n/a
518.917	0.12	1037834	keystroke	a	n/a
519.007	0.12	1038014	keystroke	z	n/a
