onset	duration	sample	value	key	prompt_text
10.2245	11.1265	20449	prompt	n/a	the quick brown fox jumps over a lazy dog\n
12.2595	0.001	24519	keystroke_t	t	n/a
12.3025	0.075	24605	keystroke_h	h	n/a
12.3625	0.03	24725	keystroke_e	e	n/a
12.5575	0.09	25115	keystroke_Key.space	Key.space	n/a
12.9025	0.075	25805	keystroke_q	q	n/a
13.0375	0.09	26075	keystroke_u	u	n/a
13.1725	0.06	26345	keystroke_i	i	n/a
13.2775	0.06	26555	keystroke_c	c	n/a
13.3975	0.09	26795	keystroke_k	k	n/a
13.7125	0.075	27425	keystroke_Key.space	Key.space	n/a
14.0575	0.075	28115	keystroke_b	b	n/a
14.1475	0.045	28295	keystroke_r	r	n/a
14.2525	0.075	28505	keystroke_o	o	n/a
14.3425	0.06	28685	keystroke_w	w	n/a
14.4475	0.06	28895	keystroke_n	n	n/a
14.5825	0.105	29165	keystroke_Key.space	Key.space	n/a
14.8375	0.075	29675	keystroke_f	f	n/a
14.9425	0.045	29885	keystroke_o	o	n/a
15.0925	0.06	30185	keystroke_x	x	n/a
15.5575	0.12	31115	keystroke_Key.space	Key.space	n/a
16.0375	0.075	32075	keystroke_j	j	n/a
16.2025	0.045	32405	keystroke_u	u	n/a
16.3975	0.075	32795	keystroke_m	m	n/a
16.4575	0.09	32915	keystroke_p	p	n/a
16.6375	0.06	33275	keystroke_s	s	n/a
16.7425	0.09	33485	keystroke_Key.space	Key.space	n/a
16.8475	0.075	33695	keystroke_o	o	n/a
17.7925	0.045	35585	keystroke_v	v	n/a
17.9275	0.105	35855	keystroke_e	e	n/a
18.0175	0.06	36035	keystroke_r	r	n/a
18.1825	0.06	36365	keystroke_Key.space	Key.space	n/a
18.2125	0.06	36425	keystroke_a	a	n/a
18.3475	0.105	36695	keystroke_Key.space	Key.space	n/a
18.5725	0.09	37145	keystroke_l	l	n/a
18.7225	0.09	37445	keystroke_a	a	n/a
19.0075	0.075	38015	keystroke_z	z	n/a
19.1125	0.075	38225	keystroke_y	y	n/a
19.2475	0.12	38495	keystroke_Key.space	Key.space	n/a
19.4725	0.075	38945	keystroke_d	d	n/a
19.6975	0.045	39395	keystroke_g	g	n/a
20.4475	0.045	40895	keystroke_Key.backspace	Key.backspace	n/a
20.7325	0.075	41465	keystroke_o	o	n/a
20.8675	0.045	41735	keystroke_g	g	n/a
21.3025	0.045	42605	keystroke_Key.enter	Key.enter	n/a
21.3555	5.664	42711	prompt	n/a	viewing funny finish modems\n
22.3675	0.06	44735	keystroke_v	v	n/a
22.4575	0.06	44915	keystroke_i	i	n/a
22.5325	0.06	45065	keystroke_e	e	n/a
22.6675	0.06	45335	keystroke_w	w	n/a
22.7725	0.045	45545	keystroke_i	i	n/a
22.8775	0.076	45755	keystroke_n	n	n/a
22.9545	0.058	45909	keystroke_g	g	n/a
23.0275	0.09	46055	keystroke_Key.space	Key.space	n/a
23.1325	0.06	46265	keystroke_f	f	n/a
23.2075	0.06	46415	keystroke_u	u	n/a
23.3725	0.045	46745	keystroke_n	n	n/a
23.4925	0.09	46985	keystroke_n	n	n/a
23.7175	0.045	47435	keystroke_y	y	n/a
24.0175	0.105	48035	keystroke_Key.space	Key.space	n/a
24.1675	0.075	48335	keystroke_f	f	n/a
24.2575	0.06	48515	keystroke_i	i	n/a
24.3925	0.075	48785	keystroke_n	n	n/a
24.5275	0.075	49055	keystroke_i	i	n/a
24.6325	0.075	49265	keystroke_s	s	n/a
24.7225	0.06	49445	keystroke_h	h	n/a
24.9775	0.09	49955	keystroke_Key.space	Key.space	n/a
25.1275	0.075	50255	keystroke_m	m	n/a
25.2175	0.09	50435	keystroke_o	o	n/a
25.3225	0.06	50645	keystroke_d	d	n/a
25.5175	0.015	51035	keystroke_e	e	n/a
25.7125	0.06	51425	keystroke_m	m	n/a
25.7875	0.06	51575	keystroke_s	s	n/a
26.9725	0.045	53945	keystroke_Key.enter	Key.enter	n/a
27.024	7.3755	54048	prompt	n/a	ne'er or dynamics helps\n
27.7525	0.045	55505	keystroke_n	n	n/a
27.8575	0.03	55715	keystroke_e	e	n/a
28.8025	0.075	57605	keystroke_'	'	n/a
28.9535	0.104	57907	keystroke_e	e	n/a
29.0425	0.06	58085	keystroke_r	r	n/a
29.4475	0.105	58895	keystroke_Key.space	Key.space	n/a
29.6425	0.06	59285	keystroke_o	o	n/a
29.7175	0.045	59435	keystroke_r	r	n/a
29.8675	0.075	59735	keystroke_Key.space	Key.space	n/a
30.1225	0.06	60245	keystroke_d	d	n/a
30.2875	0.06	60575	keystroke_u	u	n/a
30.6025	0.06	61205	keystroke_n	n	n/a
30.9175	0.06	61835	keystroke_Key.backspace	Key.backspace	n/a
31.0825	0.03	62165	keystroke_Key.backspace	Key.backspace	n/a
31.7125	0.06	63425	keystroke_y	y	n/a
31.9075	0.06	63815	keystroke_n	n	n/a
32.0125	0.105	64025	keystroke_a	a	n/a
32.1025	0.075	64205	keystroke_m	m	n/a
32.2675	0.06	64535	keystroke_i	i	n/a
32.4175	0.06	64835	keystroke_c	c	n/a
32.5825	0.06	65165	keystroke_s	s	n/a
32.8525	0.075	65705	keystroke_Key.space	Key.space	n/a
32.9725	0.075	65945	keystroke_h	h	n/a
33.0625	0.06	66125	keystroke_e	e	n/a
33.2275	0.015	66455	keystroke_l	l	n/a
33.3475	0.06	66695	keystroke_p	p	n/a
33.4375	0.105	66875	keystroke_s	s	n/a
34.3375	0.06	68675	keystroke_Key.enter	Key.enter	n/a
34.403	5.922	68806	prompt	n/a	can beds reserve turns\n
35.0425	0.075	70085	keystroke_c	c	n/a
35.2225	0.06	70445	keystroke_a	a	n/a
35.2975	0.06	70595	keystroke_n	n	n/a
35.4175	0.09	70835	keystroke_Key.space	Key.space	n/a
35.6275	0.045	71255	keystroke_b	b	n/a
35.7175	0.06	71435	keystroke_e	e	n/a
35.9275	0.06	71855	keystroke_d	d	n/a
36.1825	0.045	72365	keystroke_s	s	n/a
36.5875	0.09	73175	keystroke_Key.space	Key.space	n/a
36.8725	0.06	73745	keystroke_r	r	n/a
36.9925	0.06	73985	keystroke_e	e	n/a
37.1425	0.075	74285	keystroke_s	s	n/a
37.3075	0.105	74615	keystroke_e	e	n/a
37.3975	0.06	74795	keystroke_r	r	n/a
38.1175	0.045	76235	keystroke_v	v	n/a
38.7475	0.06	77495	keystroke_e	e	n/a
39.0175	0.105	78035	keystroke_Key.space	Key.space	n/a
39.5125	0.06	79025	keystroke_t	t	n/a
39.6325	0.06	79265	keystroke_u	u	n/a
39.6625	0.061	79325	keystroke_r	r	n/a
39.7975	0.075	79595	keystroke_n	n	n/a
39.8875	0.045	79775	keystroke_s	s	n/a
40.2925	0.03	80585	keystroke_Key.enter	Key.enter	n/a
40.3295	6.6705	80659	prompt	n/a	penetration terminal these destruction\n
40.9825	0.09	81965	keystroke_p	p	n/a
41.1175	0.06	82235	keystroke_e	e	n/a
41.4785	0.059	82957	keystroke_n	n	n/a
41.5675	0.045	83135	keystroke_e	e	n/a
41.7785	0.044	83557	keystroke_t	t	n/a
41.8975	0.061	83795	keystroke_r	r	n/a
42.1375	0.016	84275	keystroke_a	a	n/a
42.1675	0.075	84335	keystroke_t	t	n/a
42.2575	0.105	84515	keystroke_i	i	n/a
42.3175	0.105	84635	keystroke_o	o	n/a
42.4975	0.045	84995	keystroke_n	n	n/a
42.8425	0.09	85685	keystroke_Key.space	Key.space	n/a
43.1125	0.06	86225	keystroke_t	t	n/a
43.2485	0.089	86497	keystroke_e	e	n/a
43.3225	0.076	86645	keystroke_r	r	n/a
43.5475	0.031	87095	keystroke_m	m	n/a
43.6535	0.075	87307	keystroke_i	i	n/a
43.7725	0.076	87545	keystroke_n	n	n/a
43.9075	0.09	87815	keystroke_a	a	n/a
44.0425	0.061	88085	keystroke_l	l	n/a
44.2375	0.091	88475	keystroke_Key.space	Key.space	n/a
44.4485	0.059	88897	keystroke_t	t	n/a
44.4925	0.061	88985	keystroke_h	h	n/a
44.5825	0.06	89165	keystroke_e	e	n/a
44.7475	0.06	89495	keystroke_s	s	n/a
44.8975	0.045	89795	keystroke_e	e	n/a
45.0025	0.12	90005	keystroke_Key.space	Key.space	n/a
45.1975	0.061	90395	keystroke_d	d	n/a
45.3625	0.045	90725	keystroke_e	e	n/a
45.4975	0.06	90995	keystroke_s	s	n/a
45.7075	0.046	91415	keystroke_t	t	n/a
45.8135	0.06	91627	keystroke_r	r	n/a
45.9325	0.06	91865	keystroke_u	u	n/a
46.0985	0.059	92197	keystroke_c	c	n/a
46.3525	0.045	92705	keystroke_t	t	n/a
46.3985	0.134	92797	keystroke_i	i	n/a
46.4735	0.089	92947	keystroke_o	o	n/a
46.6375	0.061	93275	keystroke_n	n	n/a
46.9535	0.044	93907	keystroke_Key.enter	Key.enter	n/a
47.0035	6.476	94007	prompt	n/a	steven standing horse kirk\n
47.7485	0.03	95497	keystroke_s	s	n/a
47.8985	0.059	95797	keystroke_t	t	n/a
48.032	0.0605	96064	keystroke_e	e	n/a
48.242	0.076	96484	keystroke_v	v	n/a
48.423	0.0595	96846	keystroke_e	e	n/a
48.557	0.06	97114	keystroke_n	n	n/a
48.6785	0.1185	97357	keystroke_Key.space	Key.space	n/a
48.932	0.046	97864	keystroke_d	d	n/a
49.337	0.0305	98674	keystroke_Key.backspace	Key.backspace	n/a
49.487	0.091	98974	keystroke_s	s	n/a
49.728	0.045	99456	keystroke_t	t	n/a
49.998	0.075	99996	keystroke_a	a	n/a
50.117	0.075	100234	keystroke_n	n	n/a
50.298	0.075	100596	keystroke_d	d	n/a
50.403	0.075	100806	keystroke_i	i	n/a
50.582	0.046	101164	keystroke_n	n	n/a
50.657	0.046	101314	keystroke_g	g	n/a
50.942	0.09	101884	keystroke_Key.space	Key.space	n/a
51.183	0.12	102366	keystroke_h	h	n/a
51.273	0.105	102546	keystroke_o	o	n/a
51.558	0.059	103116	keystroke_r	r	n/a
51.753	0.075	103506	keystroke_s	s	n/a
52.007	0.046	104014	keystroke_e	e	n/a
52.382	0.105	104764	keystroke_Key.space	Key.space	n/a
52.562	0.076	105124	keystroke_k	k	n/a
52.758	0.045	105516	keystroke_i	i	n/a
52.862	0.091	105724	keystroke_r	r	n/a
52.998	0.044	105996	keystroke_k	k	n/a
53.448	0.03	106896	keystroke_Key.enter	Key.enter	n/a
53.485	6.144	106970	prompt	n/a	available remote makes placement\n
54.107	0.046	108214	keystroke_a	a	n/a
54.258	0.06	108516	keystroke_v	v	n/a
54.408	0.06	108816	keystroke_a	a	n/a
54.858	0.075	109716	keystroke_i	i	n/a
55.233	0.075	110466	keystroke_l	l	n/a
55.563	0.06	111126	keystroke_a	a	n/a
55.623	0.06	111246	keystroke_b	b	n/a
55.787	0.061	111574	keystroke_l	l	n/a
55.863	0.045	111726	keystroke_e	e	n/a
55.923	0.105	111846	keystroke_Key.space	Key.space	n/a
56.058	0.09	112116	keystroke_r	r	n/a
56.163	0.075	112326	keystroke_e	e	n/a
56.253	0.075	112506	keystroke_m	m	n/a
56.403	0.06	112806	keystroke_o	o	n/a
56.508	0.045	113016	keystroke_t	t	n/a
56.6425	0.045	113285	keystroke_e	e	n/a
56.8075	0.104	113615	keystroke_Key.space	Key.space	n/a
57.0025	0.075	114005	keystroke_m	m	n/a
57.1075	0.06	114215	keystroke_a	a	n/a
57.2125	0.045	114425	keystroke_k	k	n/a
57.2725	0.06	114545	keystroke_e	e	n/a
57.4525	0.046	114905	keystroke_s	s	n/a
57.7225	0.09	115445	keystroke_Key.space	Key.space	n/a
57.9925	0.045	115985	keystroke_p	p	n/a
58.1575	0.09	116315	keystroke_l	l	n/a
58.2625	0.06	116525	keystroke_a	a	n/a
58.4125	0.075	116825	keystroke_c	c	n/a
58.5475	0.06	117095	keystroke_e	e	n/a
58.6675	0.06	117335	keystroke_m	m	n/a
58.7425	0.06	117485	keystroke_e	e	n/a
58.8625	0.045	117725	keystroke_n	n	n/a
58.9525	0.045	117905	keystroke_t	t	n/a
59.5675	0.06	119135	keystroke_Key.enter	Key.enter	n/a
59.6325	7.721	119265	prompt	n/a	tank through lines exhibition\n
60.2725	0.06	120545	keystroke_t	t	n/a
60.4075	0.075	120815	keystroke_a	a	n/a
60.4975	0.12	120995	keystroke_n	n	n/a
60.5725	0.12	121145	keystroke_k	k	n/a
60.7525	0.09	121505	keystroke_Key.space	Key.space	n/a
60.8875	0.06	121775	keystroke_t	t	n/a
60.9625	0.09	121925	keystroke_h	h	n/a
61.0375	0.06	122075	keystroke_r	r	n/a
61.1275	0.06	122255	keystroke_o	o	n/a
61.2925	0.06	122585	keystroke_u	u	n/a
61.3975	0.06	122795	keystroke_g	g	n/a
61.4725	0.06	122945	keystroke_h	h	n/a
62.2075	0.12	124415	keystroke_Key.space	Key.space	n/a
62.3725	0.075	124745	keystroke_l	l	n/a
62.5675	0.06	125135	keystroke_i	i	n/a
62.7025	0.06	125405	keystroke_n	n	n/a
62.7775	0.06	125555	keystroke_e	e	n/a
62.9425	0.06	125885	keystroke_s	s	n/a
63.0625	0.12	126125	keystroke_Key.space	Key.space	n/a
63.3475	0.045	126695	keystroke_e	e	n/a
63.5875	0.06	127175	keystroke_x	x	n/a
63.8275	0.03	127655	keystroke_h	h	n/a
64.5925	0.06	129185	keystroke_i	i	n/a
64.9375	0.045	129875	keystroke_i	i	n/a
65.4925	0.06	130985	keystroke_Key.backspace	Key.backspace	n/a
65.7775	0.03	131555	keystroke_b	b	n/a
66.1375	0.045	132275	keystroke_i	i	n/a
66.2875	0.045	132575	keystroke_t	t	n/a
66.3475	0.135	132695	keystroke_i	i	n/a
66.4225	0.105	132845	keystroke_o	o	n/a
66.6325	0.045	133265	keystroke_n	n	n/a
67.2925	0.06	134585	keystroke_Key.enter	Key.enter	n/a
67.357	7.3625	134714	prompt	n/a	seem toddler affected cotton\n
68.0425	0.06	136085	keystroke_s	s	n/a
68.2225	0.045	136445	keystroke_e	e	n/a
68.3575	0.045	136715	keystroke_e	e	n/a
68.4625	0.09	136925	keystroke_m	m	n/a
68.6125	0.12	137225	keystroke_Key.space	Key.space	n/a
68.9425	0.075	137885	keystroke_t	t	n/a
69.1225	0.06	138245	keystroke_o	o	n/a
69.6775	0.06	139355	keystroke_d	d	n/a
69.8275	0.045	139655	keystroke_d	d	n/a
69.9175	0.09	139835	keystroke_l	l	n/a
70.0525	0.09	140105	keystroke_e	e	n/a
70.1275	0.075	140255	keystroke_r	r	n/a
70.5175	0.105	141035	keystroke_Key.space	Key.space	n/a
70.7575	0.075	141515	keystroke_a	a	n/a
71.1025	0.06	142205	keystroke_f	f	n/a
71.2375	0.075	142475	keystroke_f	f	n/a
71.3875	0.06	142775	keystroke_e	e	n/a
71.582	0.06	143164	keystroke_c	c	n/a
71.867	0.03	143734	keystroke_t	t	n/a
71.987	0.061	143974	keystroke_e	e	n/a
72.212	0.015	144424	keystroke_d	d	n/a
72.647	0.075	145294	keystroke_Key.space	Key.space	n/a
73.082	0.06	146164	keystroke_c	c	n/a
73.173	0.059	146346	keystroke_o	o	n/a
73.472	0.045	146944	keystroke_t	t	n/a
73.607	0.06	147214	keystroke_t	t	n/a
73.982	0.06	147964	keystroke_o	o	n/a
74.148	0.044	148296	keystroke_n	n	n/a
74.657	0.06	149314	keystroke_Key.enter	Key.enter	n/a
74.723	7.751	149446	prompt	n/a	tribal philadelphia install i\n
75.437	0.045	150874	keystroke_t	t	n/a
75.573	0.045	151146	keystroke_r	r	n/a
75.707	0.061	151414	keystroke_i	i	n/a
75.873	0.059	151746	keystroke_b	b	n/a
76.037	0.075	152074	keystroke_a	a	n/a
76.127	0.075	152254	keystroke_l	l	n/a
76.398	0.134	152796	keystroke_Key.space	Key.space	n/a
76.698	0.104	153396	keystroke_p	p	n/a
76.923	0.075	153846	keystroke_h	h	n/a
77.012	0.09	154024	keystroke_i	i	n/a
77.252	0.046	154504	keystroke_l	l	n/a
77.837	0.03	155674	keystroke_a	a	n/a
78.032	0.03	156064	keystroke_d	d	n/a
78.227	0.03	156454	keystroke_e	e	n/a
78.302	0.075	156604	keystroke_l	l	n/a
78.662	0.09	157324	keystroke_p	p	n/a
78.9025	0.075	157805	keystroke_h	h	n/a
78.9925	0.09	157985	keystroke_i	i	n/a
79.1125	0.06	158225	keystroke_a	a	n/a
79.4425	0.075	158885	keystroke_Key.space	Key.space	n/a
79.6075	0.045	159215	keystroke_i	i	n/a
81.1225	0.075	162245	keystroke_n	n	n/a
81.2575	0.075	162515	keystroke_s	s	n/a
81.4375	0.045	162875	keystroke_t	t	n/a
81.5125	0.105	163025	keystroke_a	a	n/a
81.6475	0.075	163295	keystroke_l	l	n/a
81.7825	0.06	163565	keystroke_l	l	n/a
82.0225	0.015	164045	keystroke_Key.space	Key.space	n/a
82.1275	0.06	164255	keystroke_i	i	n/a
82.4425	0.03	164885	keystroke_Key.enter	Key.enter	n/a
82.477	8.607	164954	prompt	n/a	up freight twisted late\n
83.2225	0.045	166445	keystroke_u	u	n/a
83.4025	0.06	166805	keystroke_p	p	n/a
83.5825	0.09	167165	keystroke_Key.space	Key.space	n/a
83.7325	0.075	167465	keystroke_f	f	n/a
83.8975	0.045	167795	keystroke_r	r	n/a
83.9875	0.06	167975	keystroke_i	i	n/a
84.1825	0.06	168365	keystroke_e	e	n/a
84.4825	0.06	168965	keystroke_g	g	n/a
84.5725	0.075	169145	keystroke_h	h	n/a
84.7075	0.045	169415	keystroke_t	t	n/a
85.7125	0.06	171425	keystroke_Key.backspace	Key.backspace	n/a
85.9075	0.045	171815	keystroke_Key.backspace	Key.backspace	n/a
86.0725	0.06	172145	keystroke_Key.backspace	Key.backspace	n/a
86.252	0.06	172504	keystroke_Key.backspace	Key.backspace	n/a
86.8675	0.045	173735	keystroke_Key.backspace	Key.backspace	n/a
87.0925	0.06	174185	keystroke_e	e	n/a
87.1675	0.09	174335	keystroke_i	i	n/a
87.3175	0.06	174635	keystroke_g	g	n/a
87.4225	0.045	174845	keystroke_h	h	n/a
87.5125	0.045	175025	keystroke_t	t	n/a
88.1275	0.12	176255	keystroke_Key.space	Key.space	n/a
88.2925	0.075	176585	keystroke_t	t	n/a
88.4575	0.06	176915	keystroke_w	w	n/a
88.6225	0.06	177245	keystroke_i	i	n/a
88.6975	0.06	177395	keystroke_s	s	n/a
88.9075	0.03	177815	keystroke_t	t	n/a
89.0275	0.045	178055	keystroke_e	e	n/a
89.5675	0.03	179135	keystroke_d	d	n/a
90.3325	0.12	180665	keystroke_Key.space	Key.space	n/a
90.4375	0.06	180875	keystroke_l	l	n/a
90.4985	0.104	180997	keystroke_a	a	n/a
90.6175	0.09	181235	keystroke_t	t	n/a
90.8125	0.03	181625	keystroke_e	e	n/a
91.0225	0.06	182045	keystroke_Key.enter	Key.enter	n/a
91.087	5.622	182174	prompt	n/a	assuming finished beds products\n
91.7425	0.09	183485	keystroke_a	a	n/a
91.9375	0.045	183875	keystroke_s	s	n/a
92.0725	0.06	184145	keystroke_s	s	n/a
92.1925	0.075	184385	keystroke_u	u	n/a
92.4025	0.0895	184805	keystroke_m	m	n/a
92.5375	0.0895	185075	keystroke_i	i	n/a
92.6875	0.105	185375	keystroke_n	n	n/a
92.7775	0.045	185555	keystroke_g	g	n/a
92.8525	0.12	185705	keystroke_Key.space	Key.space	n/a
93.0025	0.06	186005	keystroke_f	f	n/a
93.1225	0.045	186245	keystroke_i	i	n/a
93.2425	0.12	186485	keystroke_n	n	n/a
93.4375	0.075	186875	keystroke_i	i	n/a
93.542	0.0755	187084	keystroke_s	s	n/a
93.6625	0.045	187325	keystroke_h	h	n/a
93.7675	0.03	187535	keystroke_e	e	n/a
94.0075	0.045	188015	keystroke_d	d	n/a
94.367	0.06	188734	keystroke_Key.space	Key.space	n/a
94.562	0.06	189124	keystroke_b	b	n/a
94.623	0.059	189246	keystroke_e	e	n/a
94.802	0.06	189604	keystroke_d	d	n/a
94.9675	0.06	189935	keystroke_s	s	n/a
95.117	0.09	190234	keystroke_Key.space	Key.space	n/a
95.283	0.075	190566	keystroke_p	p	n/a
95.388	0.06	190776	keystroke_r	r	n/a
95.508	0.06	191016	keystroke_o	o	n/a
95.658	0.045	191316	keystroke_d	d	n/a
95.793	0.045	191586	keystroke_u	u	n/a
95.898	0.045	191796	keystroke_c	c	n/a
96.168	0.03	192336	keystroke_t	t	n/a
96.363	0.045	192726	keystroke_s	s	n/a
96.663	0.045	193326	keystroke_Key.enter	Key.enter	n/a
96.712	6.2825	193424	prompt	n/a	cartoons lone three legally\n
97.458	0.075	194916	keystroke_c	c	n/a
97.638	0.09	195276	keystroke_a	a	n/a
97.968	0.06	195936	keystroke_s	s	n/a
98.523	0.06	197046	keystroke_Key.backspace	Key.backspace	n/a
98.613	0.06	197226	keystroke_r	r	n/a
98.943	0.06	197886	keystroke_t	t	n/a
99.063	0.075	198126	keystroke_o	o	n/a
99.228	0.06	198456	keystroke_o	o	n/a
99.558	0.075	199116	keystroke_n	n	n/a
99.708	0.075	199416	keystroke_s	s	n/a
99.888	0.09	199776	keystroke_Key.space	Key.space	n/a
100.158	0.09	200316	keystroke_l	l	n/a
100.353	0.06	200706	keystroke_o	o	n/a
100.503	0.06	201006	keystroke_n	n	n/a
100.593	0.045	201186	keystroke_e	e	n/a
100.728	0.075	201456	keystroke_Key.space	Key.space	n/a
100.923	0.075	201846	keystroke_t	t	n/a
101.028	0.06	202056	keystroke_h	h	n/a
101.103	0.075	202206	keystroke_r	r	n/a
101.208	0.075	202416	keystroke_e	e	n/a
101.358	0.075	202716	keystroke_e	e	n/a
101.628	0.09	203256	keystroke_Key.space	Key.space	n/a
101.763	0.12	203526	keystroke_l	l	n/a
101.868	0.045	203736	keystroke_e	e	n/a
102.078	0.015	204156	keystroke_g	g	n/a
102.123	0.09	204246	keystroke_a	a	n/a
102.2425	0.0605	204485	keystroke_l	l	n/a
102.378	0.06	204756	keystroke_l	l	n/a
102.588	0.06	205176	keystroke_y	y	n/a
102.9475	0.045	205895	keystroke_Key.enter	Key.enter	n/a
102.9985	7.091	205997	prompt	n/a	planets database quit determination\n
103.863	0.045	207726	keystroke_p	p	n/a
104.088	0.0895	208176	keystroke_l	l	n/a
104.223	0.06	208446	keystroke_a	a	n/a
104.328	0.0595	208656	keystroke_n	n	n/a
104.5525	0.015	209105	keystroke_e	e	n/a
104.6275	0.075	209255	keystroke_t	t	n/a
104.8225	0.0905	209645	keystroke_s	s	n/a
104.9425	0.105	209885	keystroke_Key.space	Key.space	n/a
105.0925	0.075	210185	keystroke_d	d	n/a
105.2425	0.09	210485	keystroke_a	a	n/a
105.3475	0.075	210695	keystroke_t	t	n/a
105.4675	0.09	210935	keystroke_a	a	n/a
105.8425	0.06	211685	keystroke_b	b	n/a
105.9175	0.09	211835	keystroke_a	a	n/a
106.0825	0.09	212165	keystroke_s	s	n/a
106.2625	0.045	212525	keystroke_e	e	n/a
106.3975	0.09	212795	keystroke_Key.space	Key.space	n/a
106.8625	0.075	213725	keystroke_q	q	n/a
106.9825	0.135	213965	keystroke_u	u	n/a
107.0875	0.105	214175	keystroke_i	i	n/a
107.2225	0.075	214445	keystroke_t	t	n/a
107.7175	0.075	215435	keystroke_Key.space	Key.space	n/a
107.9125	0.045	215825	keystroke_d	d	n/a
108.0775	0.06	216155	keystroke_e	e	n/a
108.2125	0.075	216425	keystroke_t	t	n/a
108.3475	0.09	216695	keystroke_e	e	n/a
108.4225	0.09	216845	keystroke_r	r	n/a
108.5875	0.09	217175	keystroke_m	m	n/a
108.7675	0.045	217535	keystroke_i	i	n/a
108.8875	0.06	217775	keystroke_n	n	n/a
109.172	0.075	218344	keystroke_a	a	n/a
109.307	0.09	218614	keystroke_t	t	n/a
109.412	0.075	218824	keystroke_i	i	n/a
109.442	0.09	218884	keystroke_o	o	n/a
109.577	0.075	219154	keystroke_n	n	n/a
110.043	0.044	220086	keystroke_Key.enter	Key.enter	n/a
110.0925	5.322	220185	prompt	n/a	nickel factory boot maker\n
110.687	0.075	221374	keystroke_n	n	n/a
110.793	0.059	221586	keystroke_i	i	n/a
110.898	0.059	221796	keystroke_c	c	n/a
111.002	0.06	222004	keystroke_k	k	n/a
111.137	0.045	222274	keystroke_e	e	n/a
111.647	0.09	223294	keystroke_l	l	n/a
112.112	0.075	224224	keystroke_Key.space	Key.space	n/a
112.277	0.061	224554	keystroke_f	f	n/a
112.427	0.075	224854	keystroke_a	a	n/a
112.593	0.059	225186	keystroke_c	c	n/a
112.863	0.044	225726	keystroke_t	t	n/a
112.937	0.06	225874	keystroke_o	o	n/a
113.027	0.045	226054	keystroke_r	r	n/a
113.207	0.031	226414	keystroke_y	y	n/a
113.612	0.045	227224	keystroke_Key.space	Key.space	n/a
113.882	0.09	227764	keystroke_b	b	n/a
114.032	0.075	228064	keystroke_o	o	n/a
114.182	0.09	228364	keystroke_o	o	n/a
114.288	0.059	228576	keystroke_t	t	n/a
114.437	0.106	228874	keystroke_Key.space	Key.space	n/a
114.693	0.075	229386	keystroke_m	m	n/a
114.783	0.029	229566	keystroke_a	a	n/a
114.903	0.0445	229806	keystroke_k	k	n/a
115.007	0.106	230014	keystroke_e	e	n/a
115.097	0.061	230194	keystroke_r	r	n/a
115.368	0.044	230736	keystroke_Key.enter	Key.enter	n/a
115.4175	6.8065	230835	prompt	n/a	buyer colleague stations who's\n
116.103	0.06	232206	keystroke_b	b	n/a
116.238	0.074	232476	keystroke_u	u	n/a
116.657	0.061	233314	keystroke_y	y	n/a
116.927	0.105	233854	keystroke_e	e	n/a
117.018	0.075	234036	keystroke_r	r	n/a
117.272	0.075	234544	keystroke_Key.space	Key.space	n/a
117.482	0.091	234964	keystroke_c	c	n/a
117.573	0.045	235146	keystroke_o	o	n/a
117.738	0.059	235476	keystroke_l	l	n/a
117.858	0.075	235716	keystroke_l	l	n/a
117.963	0.09	235926	keystroke_e	e	n/a
118.113	0.105	236226	keystroke_a	a	n/a
118.233	0.075	236466	keystroke_g	g	n/a
118.488	0.044	236976	keystroke_u	u	n/a
118.652	0.03	237304	keystroke_e	e	n/a
119.193	0.089	238386	keystroke_Key.space	Key.space	n/a
119.358	0.075	238716	keystroke_s	s	n/a
119.523	0.045	239046	keystroke_t	t	n/a
119.613	0.105	239226	keystroke_a	a	n/a
119.688	0.089	239376	keystroke_t	t	n/a
119.972	0.151	239944	keystroke_i	i	n/a
120.048	0.104	240096	keystroke_o	o	n/a
120.243	0.059	240486	keystroke_n	n	n/a
120.543	0.075	241086	keystroke_s	s	n/a
120.723	0.09	241446	keystroke_Key.space	Key.space	n/a
121.038	0.06	242076	keystroke_w	w	n/a
121.068	0.12	242136	keystroke_h	h	n/a
121.143	0.09	242286	keystroke_o	o	n/a
121.488	0.045	242976	keystroke_'	'	n/a
121.743	0.06	243486	keystroke_s	s	n/a
122.178	0.045	244356	keystroke_Key.enter	Key.enter	n/a
122.227	6.027	244454	prompt	n/a	reverse stolen ships please\n
122.883	0.03	245766	keystroke_r	r	n/a
122.928	0.09	245856	keystroke_e	e	n/a
123.123	0.045	246246	keystroke_v	v	n/a
123.258	0.075	246516	keystroke_e	e	n/a
123.363	0.045	246726	keystroke_r	r	n/a
123.573	0.06	247146	keystroke_s	s	n/a
123.738	0.015	247476	keystroke_e	e	n/a
124.248	0.105	248496	keystroke_Key.space	Key.space	n/a
124.458	0.06	248916	keystroke_s	s	n/a
124.623	0.045	249246	keystroke_t	t	n/a
124.8925	0.045	249785	keystroke_o	o	n/a
125.058	0.06	250116	keystroke_l	l	n/a
125.148	0.03	250296	keystroke_e	e	n/a
125.2825	0.0305	250565	keystroke_n	n	n/a
125.5675	0.105	251135	keystroke_Key.space	Key.space	n/a
125.8375	0.075	251675	keystroke_s	s	n/a
125.928	0.0595	251856	keystroke_h	h	n/a
126.1225	0.015	252245	keystroke_i	i	n/a
126.5125	0.075	253025	keystroke_p	p	n/a
126.6625	0.06	253325	keystroke_s	s	n/a
127.1425	0.09	254285	keystroke_Key.space	Key.space	n/a
127.2925	0.045	254585	keystroke_p	p	n/a
127.4425	0.075	254885	keystroke_l	l	n/a
127.5025	0.075	255005	keystroke_e	e	n/a
127.6225	0.105	255245	keystroke_a	a	n/a
127.7875	0.075	255575	keystroke_s	s	n/a
127.9825	0.045	255965	keystroke_e	e	n/a
128.2075	0.045	256415	keystroke_Key.enter	Key.enter	n/a
128.2585	9.9105	256517	prompt	n/a	intranet surrounded dividend performed\n
129.1525	0.045	258305	keystroke_i	i	n/a
129.3025	0.06	258605	keystroke_n	n	n/a
129.4825	0.06	258965	keystroke_t	t	n/a
129.5875	0.075	259175	keystroke_r	r	n/a
129.7225	0.09	259445	keystroke_a	a	n/a
130.3375	0.03	260675	keystroke_n	n	n/a
130.443	0.044	260886	keystroke_e	e	n/a
130.607	0.045	261214	keystroke_t	t	n/a
130.712	0.12	261424	keystroke_Key.space	Key.space	n/a
131.012	0.09	262024	keystroke_s	s	n/a
131.147	0.046	262294	keystroke_u	u	n/a
131.252	0.045	262504	keystroke_r	r	n/a
131.387	0.06	262774	keystroke_r	r	n/a
131.492	0.09	262984	keystroke_o	o	n/a
131.642	0.06	263284	keystroke_u	u	n/a
131.792	0.075	263584	keystroke_n	n	n/a
131.882	0.06	263764	keystroke_d	d	n/a
132.047	0.03	264094	keystroke_e	e	n/a
132.212	0.045	264424	keystroke_d	d	n/a
132.377	0.105	264754	keystroke_Key.space	Key.space	n/a
132.558	0.074	265116	keystroke_d	d	n/a
132.663	0.044	265326	keystroke_i	i	n/a
132.797	0.06	265594	keystroke_v	v	n/a
132.992	0.045	265984	keystroke_e	e	n/a
133.113	0.059	266226	keystroke_n	n	n/a
133.607	0.06	267214	keystroke_Key.backspace	Key.backspace	n/a
133.802	0.045	267604	keystroke_Key.backspace	Key.backspace	n/a
134.822	0.06	269644	keystroke_i	i	n/a
134.927	0.09	269854	keystroke_d	d	n/a
135.137	0.045	270274	keystroke_e	e	n/a
135.257	0.045	270514	keystroke_n	n	n/a
135.512	0.06	271024	keystroke_d	d	n/a
136.067	0.075	272134	keystroke_Key.space	Key.space	n/a
136.187	0.105	272374	keystroke_p	p	n/a
136.413	0.089	272826	keystroke_e	e	n/a
136.517	0.046	273034	keystroke_r	r	n/a
136.892	0.075	273784	keystroke_f	f	n/a
137.027	0.075	274054	keystroke_o	o	n/a
137.132	0.045	274264	keystroke_r	r	n/a
137.207	0.06	274414	keystroke_m	m	n/a
137.522	0.06	275044	keystroke_e	e	n/a
137.732	0.015	275464	keystroke_d	d	n/a
138.122	0.045	276244	keystroke_Key.enter	Key.enter	n/a
138.172	8.367	276344	prompt	n/a	cumulative guest lack ruling\n
139.067	0.075	278134	keystroke_c	c	n/a
139.157	0.045	278314	keystroke_u	u	n/a
139.352	0.075	278704	keystroke_m	m	n/a
139.622	0.045	279244	keystroke_u	u	n/a
139.817	0.06	279634	keystroke_l	l	n/a
140.192	0.075	280384	keystroke_a	a	n/a
141.782	0.075	283564	keystroke_t	t	n/a
141.963	0.045	283926	keystroke_i	i	n/a
142.142	0.03	284284	keystroke_v	v	n/a
142.352	0.06	284704	keystroke_e	e	n/a
142.622	0.075	285244	keystroke_Key.space	Key.space	n/a
142.938	0.059	285876	keystroke_g	g	n/a
143.058	0.074	286116	keystroke_u	u	n/a
143.147	0.061	286294	keystroke_e	e	n/a
143.282	0.09	286564	keystroke_s	s	n/a
143.508	0.059	287016	keystroke_t	t	n/a
143.942	0.09	287884	keystroke_Key.space	Key.space	n/a
144.063	0.089	288126	keystroke_l	l	n/a
144.167	0.046	288334	keystroke_a	a	n/a
144.347	0.061	288694	keystroke_c	c	n/a
144.438	0.059	288876	keystroke_k	k	n/a
144.977	0.105	289954	keystroke_Key.space	Key.space	n/a
145.5325	0.06	291065	keystroke_r	r	n/a
145.6225	0.075	291245	keystroke_u	u	n/a
145.7875	0.075	291575	keystroke_l	l	n/a
145.9675	0.06	291935	keystroke_i	i	n/a
146.0875	0.075	292175	keystroke_n	n	n/a
146.1925	0.06	292385	keystroke_g	g	n/a
146.4625	0.075	292925	keystroke_Key.enter	Key.enter	n/a
146.5425	8.7415	293085	prompt	n/a	compiled integral pets slave\n
147.2875	0.045	294575	keystroke_c	c	n/a
147.3625	0.09	294725	keystroke_o	o	n/a
147.5125	0.135	295025	keystroke_m	m	n/a
147.6175	0.09	295235	keystroke_p	p	n/a
148.0225	0.06	296045	keystroke_i	i	n/a
148.2025	0.075	296405	keystroke_l	l	n/a
148.3525	0.06	296705	keystroke_e	e	n/a
148.5325	0.045	297065	keystroke_d	d	n/a
149.5675	0.09	299135	keystroke_Key.space	Key.space	n/a
149.7475	0.06	299495	keystroke_i	i	n/a
149.8975	0.045	299795	keystroke_n	n	n/a
150.0175	0.075	300035	keystroke_t	t	n/a
150.1675	0.105	300335	keystroke_e	e	n/a
150.2575	0.06	300515	keystroke_r	r	n/a
150.7825	0.06	301565	keystroke_Key.backspace	Key.backspace	n/a
151.6225	0.045	303245	keystroke_g	g	n/a
151.7425	0.075	303485	keystroke_r	r	n/a
151.8925	0.105	303785	keystroke_a	a	n/a
152.0275	0.06	304055	keystroke_l	l	n/a
152.492	0.03	304984	keystroke_Key.space	Key.space	n/a
152.762	0.06	305524	keystroke_p	p	n/a
152.837	0.105	305674	keystroke_e	e	n/a
153.257	0.06	306514	keystroke_t	t	n/a
153.452	0.075	306904	keystroke_s	s	n/a
153.767	0.075	307534	keystroke_Key.space	Key.space	n/a
153.977	0.075	307954	keystroke_s	s	n/a
154.082	0.075	308164	keystroke_l	l	n/a
154.262	0.09	308524	keystroke_a	a	n/a
154.397	0.075	308794	keystroke_v	v	n/a
154.652	0.03	309304	keystroke_e	e	n/a
155.207	0.075	310414	keystroke_Key.enter	Key.enter	n/a
155.287	13.5265	310574	prompt	n/a	celebration wheat tolerance thursday\n
157.534	0.043	315068	keystroke_c	c	n/a
157.667	0.03	315334	keystroke_e	e	n/a
157.802	0.045	315604	keystroke_l	l	n/a
158.447	0.045	316894	keystroke_e	e	n/a
158.807	0.06	317614	keystroke_b	b	n/a
158.927	0.06	317854	keystroke_r	r	n/a
159.137	0.06	318274	keystroke_a	a	n/a
159.317	0.06	318634	keystroke_t	t	n/a
159.362	0.12	318724	keystroke_i	i	n/a
159.422	0.09	318844	keystroke_o	o	n/a
159.588	0.059	319176	keystroke_n	n	n/a
160.397	0.105	320794	keystroke_Key.space	Key.space	n/a
160.517	0.075	321034	keystroke_w	w	n/a
160.607	0.06	321214	keystroke_h	h	n/a
161.072	0.06	322144	keystroke_e	e	n/a
161.252	0.09	322504	keystroke_a	a	n/a
161.387	0.075	322774	keystroke_t	t	n/a
162.617	0.12	325234	keystroke_Key.space	Key.space	n/a
162.797	0.06	325594	keystroke_t	t	n/a
162.858	0.059	325716	keystroke_o	o	n/a
163.052	0.075	326104	keystroke_l	l	n/a
163.442	0.09	326884	keystroke_e	e	n/a
163.517	0.09	327034	keystroke_r	r	n/a
163.847	0.06	327694	keystroke_a	a	n/a
163.952	0.075	327904	keystroke_n	n	n/a
164.087	0.075	328174	keystroke_c	c	n/a
164.267	0.075	328534	keystroke_e	e	n/a
164.612	0.105	329224	keystroke_Key.space	Key.space	n/a
164.867	0.046	329734	keystroke_t	t	n/a
164.942	0.09	329884	keystroke_h	h	n/a
165.047	0.075	330094	keystroke_u	u	n/a
165.467	0.06	330934	keystroke_r	r	n/a
165.692	0.06	331384	keystroke_s	s	n/a
166.367	0.09	332734	keystroke_d	d	n/a
166.652	0.075	333304	keystroke_a	a	n/a
166.863	0.074	333726	keystroke_y	y	n/a
168.767	0.045	337534	keystroke_Key.enter	Key.enter	n/a
168.817	9.4465	337634	prompt	n/a	book consideration scholars border\n
169.667	0.06	339334	keystroke_b	b	n/a
169.833	0.059	339666	keystroke_o	o	n/a
169.983	0.044	339966	keystroke_o	o	n/a
170.1615	0.06	340323	keystroke_k	k	n/a
171.0015	0.106	342003	keystroke_Key.space	Key.space	n/a
171.1375	0.075	342275	keystroke_c	c	n/a
171.2125	0.075	342425	keystroke_o	o	n/a
171.3165	0.091	342633	keystroke_n	n	n/a
171.4215	0.061	342843	keystroke_s	s	n/a
171.5265	0.061	343053	keystroke_i	i	n/a
171.6325	0.075	343265	keystroke_d	d	n/a
171.8265	0.09	343653	keystroke_e	e	n/a
171.9015	0.061	343803	keystroke_r	r	n/a
172.1125	0.074	344225	keystroke_a	a	n/a
172.2165	0.12	344433	keystroke_t	t	n/a
172.2915	0.135	344583	keystroke_i	i	n/a
172.3815	0.09	344763	keystroke_o	o	n/a
172.5325	0.075	345065	keystroke_n	n	n/a
173.9125	0.104	347825	keystroke_Key.space	Key.space	n/a
174.1515	0.0755	348303	keystroke_s	s	n/a
174.317	0.075	348634	keystroke_c	c	n/a
174.438	0.149	348876	keystroke_h	h	n/a
174.527	0.106	349054	keystroke_o	o	n/a
174.813	0.075	349626	keystroke_l	l	n/a
175.173	0.045	350346	keystroke_a	a	n/a
175.3515	0.045	350703	keystroke_r	r	n/a
175.5925	0.0455	351185	keystroke_s	s	n/a
175.937	0.105	351874	keystroke_Key.space	Key.space	n/a
176.147	0.076	352294	keystroke_b	b	n/a
176.267	0.076	352534	keystroke_o	o	n/a
176.478	0.045	352956	keystroke_r	r	n/a
176.8825	0.045	353765	keystroke_d	d	n/a
177.063	0.0895	354126	keystroke_e	e	n/a
177.138	0.059	354276	keystroke_r	r	n/a
178.217	0.045	356434	keystroke_Key.enter	Key.enter	n/a
178.268	9.0115	356536	prompt	n/a	excluding leon wants inspection\n
178.967	0.061	357934	keystroke_e	e	n/a
179.223	0.06	358446	keystroke_x	x	n/a
179.448	0.06	358896	keystroke_c	c	n/a
179.568	0.0595	359136	keystroke_l	l	n/a
179.8075	0.045	359615	keystroke_u	u	n/a
179.8975	0.105	359795	keystroke_d	d	n/a
180.0325	0.06	360065	keystroke_i	i	n/a
180.1825	0.075	360365	keystroke_n	n	n/a
180.2725	0.045	360545	keystroke_g	g	n/a
180.9775	0.075	361955	keystroke_Key.space	Key.space	n/a
181.0975	0.105	362195	keystroke_l	l	n/a
181.2325	0.06	362465	keystroke_e	e	n/a
181.3225	0.075	362645	keystroke_o	o	n/a
181.4725	0.06	362945	keystroke_n	n	n/a
182.8225	0.09	365645	keystroke_Key.space	Key.space	n/a
182.9875	0.06	365975	keystroke_w	w	n/a
183.1675	0.045	366335	keystroke_a	a	n/a
183.2725	0.045	366545	keystroke_n	n	n/a
183.4975	0.06	366995	keystroke_t	t	n/a
183.7375	0.06	367475	keystroke_s	s	n/a
184.6375	0.12	369275	keystroke_Key.space	Key.space	n/a
184.7875	0.075	369575	keystroke_i	i	n/a
184.9375	0.06	369875	keystroke_n	n	n/a
185.2675	0.06	370535	keystroke_s	s	n/a
185.3575	0.06	370715	keystroke_p	p	n/a
185.4775	0.06	370955	keystroke_e	e	n/a
185.7625	0.06	371525	keystroke_c	c	n/a
186.0625	0.06	372125	keystroke_t	t	n/a
186.1375	0.105	372275	keystroke_i	i	n/a
186.1825	0.09	372365	keystroke_o	o	n/a
186.3625	0.045	372725	keystroke_n	n	n/a
187.2325	0.045	374465	keystroke_Key.enter	Key.enter	n/a
187.282	7.017	374564	prompt	n/a	reducing mega binary employ\n
187.9525	0.06	375905	keystroke_r	r	n/a
188.0575	0.09	376115	keystroke_e	e	n/a
188.2675	0.075	376535	keystroke_d	d	n/a
188.4025	0.045	376805	keystroke_u	u	n/a
188.9425	0.06	377885	keystroke_c	c	n/a
189.0625	0.06	378125	keystroke_i	i	n/a
189.243	0.045	378486	keystroke_n	n	n/a
189.348	0.06	378696	keystroke_g	g	n/a
189.663	0.09	379326	keystroke_Key.space	Key.space	n/a
189.903	0.105	379806	keystroke_m	m	n/a
189.963	0.09	379926	keystroke_e	e	n/a
190.173	0.06	380346	keystroke_g	g	n/a
190.293	0.075	380586	keystroke_a	a	n/a
190.713	0.09	381426	keystroke_Key.space	Key.space	n/a
191.058	0.045	382116	keystroke_b	b	n/a
191.223	0.045	382446	keystroke_i	i	n/a
191.343	0.06	382686	keystroke_n	n	n/a
191.433	0.105	382866	keystroke_a	a	n/a
191.658	0.045	383316	keystroke_r	r	n/a
191.733	0.06	383466	keystroke_y	y	n/a
192.468	0.105	384936	keystroke_Key.space	Key.space	n/a
192.693	0.06	385386	keystroke_e	e	n/a
192.753	0.135	385506	keystroke_m	m	n/a
192.873	0.06	385746	keystroke_p	p	n/a
193.068	0.075	386136	keystroke_l	l	n/a
193.323	0.06	386646	keystroke_o	o	n/a
193.608	0.045	387216	keystroke_y	y	n/a
194.253	0.045	388506	keystroke_Key.enter	Key.enter	n/a
194.302	11.323	388604	prompt	n/a	outstanding subject glossary losses\n
195.5725	0.045	391145	keystroke_o	o	n/a
195.7375	0.075	391475	keystroke_u	u	n/a
195.8425	0.06	391685	keystroke_t	t	n/a
196.0525	0.06	392105	keystroke_s	s	n/a
198.3505	0.001	396701	keystroke_t	t	n/a
198.4675	0.0595	396935	keystroke_a	a	n/a
198.8125	0.075	397625	keystroke_n	n	n/a
198.9175	0.0745	397835	keystroke_d	d	n/a
199.008	0.0595	398016	keystroke_i	i	n/a
199.142	0.06	398284	keystroke_n	n	n/a
199.217	0.0755	398434	keystroke_g	g	n/a
199.4275	0.0745	398855	keystroke_Key.space	Key.space	n/a
199.637	0.075	399274	keystroke_s	s	n/a
199.7275	0.06	399455	keystroke_u	u	n/a
199.892	0.045	399784	keystroke_b	b	n/a
200.1175	0.03	400235	keystroke_j	j	n/a
200.192	0.06	400384	keystroke_e	e	n/a
200.402	0.075	400804	keystroke_c	c	n/a
200.702	0.046	401404	keystroke_t	t	n/a
201.0775	0.1055	402155	keystroke_Key.space	Key.space	n/a
202.143	0.044	404286	keystroke_g	g	n/a
202.218	0.074	404436	keystroke_l	l	n/a
202.397	0.061	404794	keystroke_o	o	n/a
202.487	0.06	404974	keystroke_s	s	n/a
202.653	0.059	405306	keystroke_s	s	n/a
202.847	0.106	405694	keystroke_a	a	n/a
203.117	0.045	406234	keystroke_r	r	n/a
203.208	0.059	406416	keystroke_y	y	n/a
203.717	0.091	407434	keystroke_Key.space	Key.space	n/a
204.003	0.074	408006	keystroke_l	l	n/a
204.182	0.06	408364	keystroke_o	o	n/a
204.362	0.046	408724	keystroke_s	s	n/a
204.512	0.06	409024	keystroke_s	s	n/a
204.692	0.045	409384	keystroke_e	e	n/a
204.828	0.059	409656	keystroke_s	s	n/a
205.562	0.06	411124	keystroke_Key.enter	Key.enter	n/a
205.6275	11.5475	411255	prompt	n/a	cartoons becoming copying adequate\n
206.387	0.075	412774	keystroke_c	c	n/a
206.553	0.089	413106	keystroke_a	a	n/a
207.333	0.059	414666	keystroke_r	r	n/a
207.543	0.06	415086	keystroke_t	t	n/a
207.708	0.075	415416	keystroke_o	o	n/a
207.828	0.075	415656	keystroke_o	o	n/a
207.962	0.091	415924	keystroke_n	n	n/a
208.053	0.044	416106	keystroke_s	s	n/a
208.458	0.119	416916	keystroke_Key.space	Key.space	n/a
208.803	0.059	417606	keystroke_b	b	n/a
208.848	0.06	417696	keystroke_e	e	n/a
209.013	0.074	418026	keystroke_c	c	n/a
209.463	0.09	418926	keystroke_o	o	n/a
209.688	0.075	419376	keystroke_m	m	n/a
209.883	0.06	419766	keystroke_i	i	n/a
210.033	0.075	420066	keystroke_n	n	n/a
210.198	0.045	420396	keystroke_g	g	n/a
210.797	0.12	421594	keystroke_Key.space	Key.space	n/a
210.903	0.075	421806	keystroke_c	c	n/a
211.038	0.135	422076	keystroke_o	o	n/a
211.128	0.105	422256	keystroke_p	p	n/a
211.443	0.015	422886	keystroke_y	y	n/a
212.598	0.045	425196	keystroke_i	i	n/a
212.748	0.06	425496	keystroke_n	n	n/a
212.838	0.045	425676	keystroke_g	g	n/a
213.558	0.135	427116	keystroke_Key.space	Key.space	n/a
213.798	0.09	427596	keystroke_a	a	n/a
213.993	0.06	427986	keystroke_d	d	n/a
214.173	0.045	428346	keystroke_e	e	n/a
214.638	0.06	429276	keystroke_q	q	n/a
214.818	0.075	429636	keystroke_u	u	n/a
215.058	0.06	430116	keystroke_a	a	n/a
215.253	0.06	430506	keystroke_t	t	n/a
215.433	0.06	430866	keystroke_e	e	n/a
217.113	0.06	434226	keystroke_Key.enter	Key.enter	n/a
217.178	7.0765	434356	prompt	n/a	legally again sunglasses mono\n
218.988	0.075	437976	keystroke_l	l	n/a
219.078	0.0745	438156	keystroke_e	e	n/a
219.2725	0.06	438545	keystroke_g	g	n/a
219.3925	0.075	438785	keystroke_a	a	n/a
219.5125	0.06	439025	keystroke_l	l	n/a
219.6475	0.06	439295	keystroke_l	l	n/a
219.8875	0.06	439775	keystroke_y	y	n/a
220.0225	0.135	440045	keystroke_Key.space	Key.space	n/a
220.1125	0.06	440225	keystroke_a	a	n/a
220.1875	0.09	440375	keystroke_g	g	n/a
220.3075	0.075	440615	keystroke_a	a	n/a
220.4125	0.06	440825	keystroke_i	i	n/a
220.5625	0.06	441125	keystroke_n	n	n/a
220.6825	0.09	441365	keystroke_Key.space	Key.space	n/a
221.0575	0.075	442115	keystroke_s	s	n/a
221.1625	0.06	442325	keystroke_u	u	n/a
221.2975	0.075	442595	keystroke_n	n	n/a
221.3875	0.06	442775	keystroke_g	g	n/a
221.5225	0.06	443045	keystroke_l	l	n/a
221.7925	0.09	443585	keystroke_a	a	n/a
221.9875	0.045	443975	keystroke_s	s	n/a
222.1225	0.06	444245	keystroke_s	s	n/a
222.3475	0.075	444695	keystroke_e	e	n/a
222.6025	0.06	445205	keystroke_s	s	n/a
222.9775	0.075	445955	keystroke_Key.space	Key.space	n/a
223.1875	0.075	446375	keystroke_m	m	n/a
223.6375	0.091	447275	keystroke_o	o	n/a
223.8025	0.075	447605	keystroke_n	n	n/a
223.8925	0.075	447785	keystroke_o	o	n/a
224.1925	0.06	448385	keystroke_Key.enter	Key.enter	n/a
224.259	9.9555	448518	prompt	n/a	adequate stands honors morrison\n
224.8975	0.075	449795	keystroke_a	a	n/a
225.0325	0.046	450065	keystroke_d	d	n/a
225.1975	0.031	450395	keystroke_e	e	n/a
225.5725	0.075	451145	keystroke_q	q	n/a
225.7075	0.06	451415	keystroke_u	u	n/a
225.8425	0.105	451685	keystroke_a	a	n/a
226.0075	0.09	452015	keystroke_t	t	n/a
226.1875	0.016	452375	keystroke_e	e	n/a
226.5475	0.09	453095	keystroke_Key.space	Key.space	n/a
226.8035	0.029	453607	keystroke_a	a	n/a
227.1025	0.06	454205	keystroke_Key.backspace	Key.backspace	n/a
227.2075	0.06	454415	keystroke_s	s	n/a
227.4175	0.045	454835	keystroke_t	t	n/a
227.6425	0.061	455285	keystroke_a	a	n/a
227.8225	0.06	455645	keystroke_n	n	n/a
227.9725	0.045	455945	keystroke_d	d	n/a
228.2575	0.06	456515	keystroke_s	s	n/a
228.7375	0.105	457475	keystroke_Key.space	Key.space	n/a
228.9625	0.105	457925	keystroke_h	h	n/a
229.0375	0.105	458075	keystroke_o	o	n/a
229.2175	0.09	458435	keystroke_n	n	n/a
229.3085	0.089	458617	keystroke_o	o	n/a
229.6075	0.06	459215	keystroke_r	r	n/a
230.2675	0.015	460535	keystroke_s	s	n/a
230.8225	0.105	461645	keystroke_Key.space	Key.space	n/a
231.3325	0.121	462665	keystroke_m	m	n/a
231.4535	0.059	462907	keystroke_o	o	n/a
231.6325	0.046	463265	keystroke_r	r	n/a
231.7675	0.061	463535	keystroke_r	r	n/a
231.9475	0.06	463895	keystroke_i	i	n/a
232.2475	0.045	464495	keystroke_s	s	n/a
233.1325	0.06	466265	keystroke_o	o	n/a
233.2675	0.09	466535	keystroke_n	n	n/a
234.1525	0.06	468305	keystroke_Key.enter	Key.enter	n/a
234.222	8.047	468444	prompt	n/a	entities rugby chemicals sussex\n
235.0535	0.045	470107	keystroke_e	e	n/a
235.1425	0.061	470285	keystroke_n	n	n/a
235.2785	0.075	470557	keystroke_t	t	n/a
235.5325	0.06	471065	keystroke_i	i	n/a
235.7285	0.029	471457	keystroke_t	t	n/a
236.7625	0.091	473525	keystroke_i	i	n/a
236.8385	0.074	473677	keystroke_e	e	n/a
237.0335	0.045	474067	keystroke_s	s	n/a
237.2125	0.091	474425	keystroke_Key.space	Key.space	n/a
237.8435	0.06	475687	keystroke_r	r	n/a
237.9635	0.075	475927	keystroke_u	u	n/a
238.0825	0.046	476165	keystroke_g	g	n/a
238.7585	0.06	477517	keystroke_b	b	n/a
238.8935	0.0745	477787	keystroke_y	y	n/a
239.1475	0.09	478295	keystroke_Key.space	Key.space	n/a
239.3135	0.105	478627	keystroke_c	c	n/a
239.3735	0.075	478747	keystroke_h	h	n/a
239.4785	0.06	478957	keystroke_e	e	n/a
239.5825	0.091	479165	keystroke_m	m	n/a
239.7175	0.075	479435	keystroke_i	i	n/a
239.8685	0.09	479737	keystroke_c	c	n/a
240.1535	0.059	480307	keystroke_a	a	n/a
240.2425	0.061	480485	keystroke_l	l	n/a
240.3935	0.045	480787	keystroke_s	s	n/a
240.5125	0.105	481025	keystroke_Key.space	Key.space	n/a
240.6335	0.074	481267	keystroke_s	s	n/a
240.7685	0.06	481537	keystroke_u	u	n/a
240.8735	0.044	481747	keystroke_s	s	n/a
241.0235	0.045	482047	keystroke_s	s	n/a
241.3235	0.015	482647	keystroke_e	e	n/a
241.668	0.075	483336	keystroke_x	x	n/a
242.223	0.0445	484446	keystroke_Key.enter	Key.enter	n/a
242.272	6.0275	484544	prompt	n/a	chronicle jackets between forest\n
242.898	0.06	485796	keystroke_c	c	n/a
242.973	0.075	485946	keystroke_h	h	n/a
243.093	0.06	486186	keystroke_r	r	n/a
243.198	0.075	486396	keystroke_o	o	n/a
243.333	0.09	486666	keystroke_n	n	n/a
243.438	0.075	486876	keystroke_i	i	n/a
243.573	0.0605	487146	keystroke_c	c	n/a
244.098	0.075	488196	keystroke_l	l	n/a
244.188	0.06	488376	keystroke_e	e	n/a
244.323	0.105	488646	keystroke_Key.space	Key.space	n/a
244.563	0.06	489126	keystroke_j	j	n/a
244.668	0.06	489336	keystroke_a	a	n/a
244.863	0.045	489726	keystroke_c	c	n/a
244.9225	0.0605	489845	keystroke_k	k	n/a
245.1025	0.075	490205	keystroke_e	e	n/a
245.2375	0.06	490475	keystroke_t	t	n/a
245.568	0.045	491136	keystroke_s	s	n/a
245.7625	0.06	491525	keystroke_Key.space	Key.space	n/a
245.9725	0.03	491945	keystroke_b	b	n/a
246.0175	0.075	492035	keystroke_e	e	n/a
246.1825	0.045	492365	keystroke_t	t	n/a
246.3025	0.075	492605	keystroke_w	w	n/a
246.4825	0.03	492965	keystroke_e	e	n/a
246.6175	0.045	493235	keystroke_e	e	n/a
246.7525	0.045	493505	keystroke_n	n	n/a
246.8575	0.12	493715	keystroke_Key.space	Key.space	n/a
247.0825	0.06	494165	keystroke_f	f	n/a
247.1725	0.06	494345	keystroke_o	o	n/a
247.2475	0.06	494495	keystroke_r	r	n/a
247.4875	0.06	494975	keystroke_e	e	n/a
247.623	0.0895	495246	keystroke_s	s	n/a
247.8325	0.045	495665	keystroke_t	t	n/a
248.2375	0.06	496475	keystroke_Key.enter	Key.enter	n/a
248.304	8.8	496608	prompt	n/a	won't how'd devon electrical\n
249.0475	0.045	498095	keystroke_w	w	n/a
249.1075	0.075	498215	keystroke_o	o	n/a
249.2575	0.06	498515	keystroke_n	n	n/a
249.6925	0.075	499385	keystroke_'	'	n/a
250.1125	0.06	500225	keystroke_t	t	n/a
250.3675	0.075	500735	keystroke_Key.space	Key.space	n/a
250.6525	0.075	501305	keystroke_o	o	n/a
251.0425	0.06	502085	keystroke_Key.backspace	Key.backspace	n/a
251.5825	0.09	503165	keystroke_h	h	n/a
251.6425	0.09	503285	keystroke_o	o	n/a
252.0475	0.06	504095	keystroke_w	w	n/a
252.8425	0.075	505685	keystroke_'	'	n/a
253.0375	0.03	506075	keystroke_d	d	n/a
253.4725	0.12	506945	keystroke_Key.space	Key.space	n/a
253.6375	0.075	507275	keystroke_d	d	n/a
253.8025	0.06	507605	keystroke_e	e	n/a
253.9825	0.075	507965	keystroke_v	v	n/a
254.1025	0.06	508205	keystroke_o	o	n/a
254.2375	0.075	508475	keystroke_n	n	n/a
254.3875	0.09	508775	keystroke_Key.space	Key.space	n/a
254.7925	0.045	509585	keystroke_e	e	n/a
255.0475	0.06	510095	keystroke_l	l	n/a
255.1375	0.06	510275	keystroke_e	e	n/a
255.4075	0.075	510815	keystroke_c	c	n/a
255.7225	0.045	511445	keystroke_t	t	n/a
255.8575	0.06	511715	keystroke_r	r	n/a
256.1875	0.03	512375	keystroke_i	i	n/a
256.3825	0.09	512765	keystroke_c	c	n/a
256.5925	0.09	513185	keystroke_a	a	n/a
256.6975	0.075	513395	keystroke_l	l	n/a
257.0575	0.045	514115	keystroke_Key.enter	Key.enter	n/a
257.1075	6.492	514215	prompt	n/a	fail residents performer wear\n
257.9125	0.075	515825	keystroke_f	f	n/a
258.0325	0.09	516065	keystroke_a	a	n/a
258.1375	0.075	516275	keystroke_i	i	n/a
258.4075	0.016	516815	keystroke_l	l	n/a
258.4375	0.12	516875	keystroke_Key.space	Key.space	n/a
258.5725	0.06	517145	keystroke_r	r	n/a
258.6775	0.075	517355	keystroke_e	e	n/a
258.8425	0.06	517685	keystroke_s	s	n/a
258.9485	0.074	517897	keystroke_i	i	n/a
259.0375	0.045	518075	keystroke_d	d	n/a
259.2485	0.044	518497	keystroke_e	e	n/a
259.3235	0.059	518647	keystroke_n	n	n/a
259.4275	0.06	518855	keystroke_t	t	n/a
259.6225	0.076	519245	keystroke_s	s	n/a
259.7425	0.105	519485	keystroke_Key.space	Key.space	n/a
259.9975	0.06	519995	keystroke_p	p	n/a
260.0735	0.075	520147	keystroke_e	e	n/a
260.1625	0.075	520325	keystroke_r	r	n/a
260.5985	0.075	521197	keystroke_f	f	n/a
261.0925	0.075	522185	keystroke_o	o	n/a
261.3625	0.075	522725	keystroke_r	r	n/a
261.6775	0.06	523355	keystroke_m	m	n/a
261.8125	0.106	523625	keystroke_e	e	n/a
261.8875	0.075	523775	keystroke_r	r	n/a
262.2025	0.09	524405	keystroke_Key.space	Key.space	n/a
262.2775	0.075	524555	keystroke_w	w	n/a
262.5775	0.075	525155	keystroke_e	e	n/a
262.7875	0.075	525575	keystroke_a	a	n/a
262.9825	0.06	525965	keystroke_r	r	n/a
263.5525	0.045	527105	keystroke_Key.enter	Key.enter	n/a
263.604	7.8405	527208	prompt	n/a	measuring promises singh rand\n
264.3325	0.045	528665	keystroke_m	m	n/a
264.3925	0.06	528785	keystroke_e	e	n/a
264.5735	0.059	529147	keystroke_a	a	n/a
264.7075	0.075	529415	keystroke_s	s	n/a
265.9525	0.06	531905	keystroke_u	u	n/a
266.0735	0.059	532147	keystroke_r	r	n/a
266.1775	0.06	532355	keystroke_i	i	n/a
266.3435	0.044	532687	keystroke_n	n	n/a
266.4485	0.045	532897	keystroke_g	g	n/a
266.5985	0.119	533197	keystroke_Key.space	Key.space	n/a
266.7935	0.075	533587	keystroke_p	p	n/a
266.9285	0.059	533857	keystroke_r	r	n/a
267.0185	0.059	534037	keystroke_o	o	n/a
267.2125	0.09	534425	keystroke_m	m	n/a
267.4685	0.074	534937	keystroke_i	i	n/a
267.8285	0.075	535657	keystroke_s	s	n/a
268.0375	0.046	536075	keystroke_e	e	n/a
268.1885	0.06	536377	keystroke_s	s	n/a
268.5485	0.104	537097	keystroke_Key.space	Key.space	n/a
268.9525	0.075	537905	keystroke_s	s	n/a
269.0425	0.076	538085	keystroke_i	i	n/a
269.2375	0.015	538475	keystroke_n	n	n/a
269.3425	0.031	538685	keystroke_g	g	n/a
269.5085	0.015	539017	keystroke_h	h	n/a
270.1535	0.089	540307	keystroke_Key.space	Key.space	n/a
270.3785	0.075	540757	keystroke_r	r	n/a
270.5125	0.091	541025	keystroke_a	a	n/a
270.6485	0.075	541297	keystroke_n	n	n/a
270.7375	0.045	541475	keystroke_d	d	n/a
271.3825	0.06	542765	keystroke_Key.enter	Key.enter	n/a
271.4475	13.632	542895	prompt	n/a	peers techrepublic invasion there're\n
272.3285	0.089	544657	keystroke_p	p	n/a
272.4935	0.06	544987	keystroke_e	e	n/a
272.6875	0.045	545375	keystroke_e	e	n/a
272.8835	0.03	545767	keystroke_e	e	n/a
273.2575	0.0755	546515	keystroke_Key.backspace	Key.backspace	n/a
273.393	0.06	546786	keystroke_r	r	n/a
273.603	0.06	547206	keystroke_s	s	n/a
274.008	0.105	548016	keystroke_Key.space	Key.space	n/a
274.2035	0.075	548407	keystroke_t	t	n/a
274.323	0.06	548646	keystroke_e	e	n/a
274.548	0.045	549096	keystroke_c	c	n/a
274.638	0.06	549276	keystroke_h	h	n/a
275.433	0.045	550866	keystroke_r	r	n/a
275.538	0.06	551076	keystroke_e	e	n/a
276.378	0.03	552756	keystroke_p	p	n/a
277.548	0.06	555096	keystroke_u	u	n/a
277.713	0.06	555426	keystroke_b	b	n/a
277.908	0.075	555816	keystroke_l	l	n/a
278.103	0.03	556206	keystroke_i	i	n/a
278.178	0.075	556356	keystroke_c	c	n/a
278.793	0.105	557586	keystroke_Key.space	Key.space	n/a
278.958	0.06	557916	keystroke_i	i	n/a
279.093	0.045	558186	keystroke_n	n	n/a
279.183	0.06	558366	keystroke_v	v	n/a
280.338	0.09	560676	keystroke_a	a	n/a
280.533	0.06	561066	keystroke_s	s	n/a
281.358	0.165	562716	keystroke_i	i	n/a
281.478	0.09	562956	keystroke_o	o	n/a
281.658	0.075	563316	keystroke_n	n	n/a
282.108	0.105	564216	keystroke_Key.space	Key.space	n/a
282.273	0.075	564546	keystroke_t	t	n/a
282.348	0.075	564696	keystroke_h	h	n/a
282.423	0.09	564846	keystroke_e	e	n/a
282.483	0.075	564966	keystroke_r	r	n/a
283.473	0.045	566946	keystroke_'	'	n/a
283.698	0.075	567396	keystroke_r	r	n/a
284.088	0.045	568176	keystroke_e	e	n/a
285.033	0.045	570066	keystroke_Key.enter	Key.enter	n/a
285.083	8.9665	570166	prompt	n/a	echo hobbies turns submitted\n
285.843	0.06	571686	keystroke_e	e	n/a
286.053	0.075	572106	keystroke_c	c	n/a
286.173	0.135	572346	keystroke_h	h	n/a
286.278	0.075	572556	keystroke_o	o	n/a
287.298	0.105	574596	keystroke_Key.space	Key.space	n/a
287.523	0.135	575046	keystroke_h	h	n/a
287.613	0.12	575226	keystroke_o	o	n/a
287.898	0.045	575796	keystroke_b	b	n/a
288.048	0.045	576096	keystroke_b	b	n/a
288.213	0.075	576426	keystroke_i	i	n/a
288.348	0.06	576696	keystroke_e	e	n/a
288.513	0.06	577026	keystroke_s	s	n/a
289.203	0.135	578406	keystroke_Key.space	Key.space	n/a
289.383	0.06	578766	keystroke_t	t	n/a
289.503	0.045	579006	keystroke_u	u	n/a
289.578	0.045	579156	keystroke_r	r	n/a
289.683	0.06	579366	keystroke_n	n	n/a
289.953	0.06	579906	keystroke_s	s	n/a
290.673	0.09	581346	keystroke_Key.space	Key.space	n/a
290.793	0.06	581586	keystroke_s	s	n/a
290.898	0.075	581796	keystroke_u	u	n/a
291.093	0.045	582186	keystroke_b	b	n/a
291.603	0.075	583206	keystroke_m	m	n/a
291.753	0.09	583506	keystroke_i	i	n/a
292.368	0.06	584736	keystroke_t	t	n/a
292.518	0.045	585036	keystroke_t	t	n/a
292.683	0.045	585366	keystroke_e	e	n/a
292.848	0.045	585696	keystroke_d	d	n/a
294.003	0.045	588006	keystroke_Key.enter	Key.enter	n/a
294.0525	9.357	588105	prompt	n/a	norway takes takes tournaments\n
294.7235	0.104	589447	keystroke_n	n	n/a
294.8125	0.105	589625	keystroke_o	o	n/a
294.9185	0.044	589837	keystroke_r	r	n/a
295.1735	0.059	590347	keystroke_w	w	n/a
295.4275	0.015	590855	keystroke_a	a	n/a
295.4575	0.03	590915	keystroke_y	y	n/a
296.5225	0.09	593045	keystroke_Key.space	Key.space	n/a
296.5975	0.06	593195	keystroke_t	t	n/a
296.7185	0.075	593437	keystroke_a	a	n/a
296.8525	0.091	593705	keystroke_k	k	n/a
296.9575	0.061	593915	keystroke_e	e	n/a
297.1975	0.031	594395	keystroke_s	s	n/a
298.2025	0.105	596405	keystroke_Key.space	Key.space	n/a
298.2935	0.075	596587	keystroke_t	t	n/a
298.4125	0.091	596825	keystroke_a	a	n/a
298.5475	0.06	597095	keystroke_k	k	n/a
298.6235	0.074	597247	keystroke_e	e	n/a
298.9075	0.03	597815	keystroke_s	s	n/a
299.4625	0.106	598925	keystroke_Key.space	Key.space	n/a
299.6125	0.06	599225	keystroke_t	t	n/a
299.7185	0.075	599437	keystroke_o	o	n/a
300.4535	0.044	600907	keystroke_u	u	n/a
300.5575	0.061	601115	keystroke_r	r	n/a
301.0535	0.044	602107	keystroke_n	n	n/a
301.578	0.06	603156	keystroke_a	a	n/a
301.758	0.06	603516	keystroke_m	m	n/a
301.863	0.06	603726	keystroke_e	e	n/a
301.983	0.045	603966	keystroke_n	n	n/a
302.073	0.06	604146	keystroke_t	t	n/a
302.553	0.045	605106	keystroke_s	s	n/a
303.348	0.06	606696	keystroke_Key.enter	Key.enter	n/a
303.4125	11.157	606825	prompt	n/a	crazy colorado researchers excessive\n
304.203	0.09	608406	keystroke_c	c	n/a
304.413	0.06	608826	keystroke_r	r	n/a
304.533	0.09	609066	keystroke_a	a	n/a
305.0885	0.0745	610177	keystroke_z	z	n/a
305.208	0.045	610416	keystroke_y	y	n/a
305.943	0.135	611886	keystroke_Key.space	Key.space	n/a
306.108	0.06	612216	keystroke_c	c	n/a
306.423	0.09	612846	keystroke_l	l	n/a
306.633	0.06	613266	keystroke_o	o	n/a
306.858	0.06	613716	keystroke_r	r	n/a
307.203	0.06	614406	keystroke_a	a	n/a
307.368	0.045	614736	keystroke_d	d	n/a
307.518	0.045	615036	keystroke_o	o	n/a
308.493	0.105	616986	keystroke_Key.space	Key.space	n/a
308.613	0.03	617226	keystroke_r	r	n/a
308.718	0.075	617436	keystroke_e	e	n/a
308.958	0.045	617916	keystroke_s	s	n/a
309.123	0.06	618246	keystroke_e	e	n/a
309.273	0.09	618546	keystroke_a	a	n/a
310.488	0.06	620976	keystroke_r	r	n/a
310.758	0.075	621516	keystroke_c	c	n/a
310.8935	0.0445	621787	keystroke_h	h	n/a
311.088	0.1045	622176	keystroke_e	e	n/a
311.178	0.0445	622356	keystroke_r	r	n/a
311.4625	0.045	622925	keystroke_s	s	n/a
312.0325	0.105	624065	keystroke_Key.space	Key.space	n/a
312.1225	0.06	624245	keystroke_e	e	n/a
312.5275	0.03	625055	keystroke_x	x	n/a
312.8575	0.091	625715	keystroke_c	c	n/a
313.0675	0.06	626135	keystroke_e	e	n/a
313.2475	0.045	626495	keystroke_s	s	n/a
313.3975	0.045	626795	keystroke_s	s	n/a
313.5185	0.074	627037	keystroke_i	i	n/a
313.6375	0.045	627275	keystroke_v	v	n/a
313.8325	0.045	627665	keystroke_e	e	n/a
314.5225	0.045	629045	keystroke_Key.enter	Key.enter	n/a
314.5725	11.817	629145	prompt	n/a	airline item picked disaster\n
315.2125	0.045	630425	keystroke_a	a	n/a
315.3175	0.075	630635	keystroke_i	i	n/a
315.7375	0.06	631475	keystroke_r	r	n/a
316.2025	0.06	632405	keystroke_l	l	n/a
316.3675	0.076	632735	keystroke_i	i	n/a
316.5325	0.075	633065	keystroke_n	n	n/a
316.6225	0.06	633245	keystroke_e	e	n/a
317.4025	0.105	634805	keystroke_Key.space	Key.space	n/a
317.7325	0.045	635465	keystroke_i	i	n/a
317.8975	0.06	635795	keystroke_t	t	n/a
318.0925	0.045	636185	keystroke_e	e	n/a
318.2125	0.06	636425	keystroke_m	m	n/a
319.9075	0.105	639815	keystroke_Key.space	Key.space	n/a
320.0725	0.075	640145	keystroke_p	p	n/a
320.2685	0.089	640537	keystroke_i	i	n/a
320.3425	0.076	640685	keystroke_c	c	n/a
320.5075	0.03	641015	keystroke_k	k	n/a
320.8375	0.075	641675	keystroke_e	e	n/a
321.3785	0.044	642757	keystroke_d	d	n/a
321.8725	0.105	643745	keystroke_Key.space	Key.space	n/a
322.2635	0.059	644527	keystroke_d	d	n/a
322.3975	0.046	644795	keystroke_i	i	n/a
322.4725	0.045	644945	keystroke_s	s	n/a
323.8975	0.06	647795	keystroke_a	a	n/a
324.0625	0.06	648125	keystroke_s	s	n/a
324.3325	0.06	648665	keystroke_t	t	n/a
324.5275	0.091	649055	keystroke_e	e	n/a
324.5875	0.075	649175	keystroke_r	r	n/a
326.3575	0.03	652715	keystroke_Key.enter	Key.enter	n/a
326.3925	10.9925	652785	prompt	n/a	chain personnel viewpicture margaret\n
327.2435	0.075	654487	keystroke_c	c	n/a
327.3325	0.09	654665	keystroke_h	h	n/a
327.4825	0.075	654965	keystroke_a	a	n/a
327.5725	0.06	655145	keystroke_i	i	n/a
327.7685	0.045	655537	keystroke_n	n	n/a
328.5935	0.089	657187	keystroke_Key.space	Key.space	n/a
328.7135	0.075	657427	keystroke_p	p	n/a
328.8475	0.106	657695	keystroke_e	e	n/a
328.9385	0.044	657877	keystroke_r	r	n/a
329.1185	0.074	658237	keystroke_s	s	n/a
329.2225	0.091	658445	keystroke_o	o	n/a
329.4635	0.059	658927	keystroke_n	n	n/a
329.8075	0.045	659615	keystroke_n	n	n/a
329.9575	0.045	659915	keystroke_e	e	n/a
330.0935	0.059	660187	keystroke_l	l	n/a
330.9485	0.074	661897	keystroke_Key.space	Key.space	n/a
331.3235	0.03	662647	keystroke_v	v	n/a
331.4135	0.06	662827	keystroke_i	i	n/a
331.5635	0.044	663127	keystroke_e	e	n/a
331.6985	0.074	663397	keystroke_w	w	n/a
332.2085	0.0595	664417	keystroke_p	p	n/a
332.402	0.045	664804	keystroke_i	i	n/a
332.493	0.06	664986	keystroke_c	c	n/a
332.793	0.045	665586	keystroke_t	t	n/a
332.883	0.06	665766	keystroke_u	u	n/a
332.9735	0.075	665947	keystroke_r	r	n/a
333.0935	0.0445	666187	keystroke_e	e	n/a
333.828	0.09	667656	keystroke_Key.space	Key.space	n/a
333.993	0.075	667986	keystroke_m	m	n/a
334.098	0.09	668196	keystroke_a	a	n/a
334.278	0.045	668556	keystroke_r	r	n/a
335.193	0.075	670386	keystroke_g	g	n/a
335.403	0.06	670806	keystroke_a	a	n/a
335.628	0.06	671256	keystroke_r	r	n/a
335.883	0.03	671766	keystroke_e	e	n/a
336.018	0.045	672036	keystroke_t	t	n/a
337.308	0.075	674616	keystroke_Key.enter	Key.enter	n/a
337.39	12.7595	674780	prompt	n/a	dawn valium gold early\n
338.013	0.06	676026	keystroke_d	d	n/a
338.433	0.06	676866	keystroke_a	a	n/a
338.643	0.075	677286	keystroke_w	w	n/a
338.808	0.06	677616	keystroke_n	n	n/a
339.438	0.105	678876	keystroke_Key.space	Key.space	n/a
339.648	0.12	679296	keystroke_c	c	n/a
339.873	0.075	679746	keystroke_a	a	n/a
339.963	0.075	679926	keystroke_l	l	n/a
340.338	0.045	680676	keystroke_Key.backspace	Key.backspace	n/a
340.458	0.075	680916	keystroke_Key.backspace	Key.backspace	n/a
340.788	0.045	681576	keystroke_Key.backspace	Key.backspace	n/a
340.953	0.06	681906	keystroke_v	v	n/a
341.283	0.06	682566	keystroke_a	a	n/a
341.448	0.075	682896	keystroke_l	l	n/a
341.748	0.075	683496	keystroke_i	i	n/a
342.018	0.045	684036	keystroke_u	u	n/a
342.318	0.045	684636	keystroke_m	m	n/a
346.13	0.013	692260	keystroke_Key.space	Key.space	n/a
346.173	0.045	692346	keystroke_g	g	n/a
346.263	0.06	692526	keystroke_o	o	n/a
346.923	0.06	693846	keystroke_l	l	n/a
347.043	0.045	694086	keystroke_d	d	n/a
348.048	0.09	696096	keystroke_Key.space	Key.space	n/a
348.303	0.06	696606	keystroke_e	e	n/a
348.468	0.09	696936	keystroke_a	a	n/a
348.708	0.045	697416	keystroke_r	r	n/a
348.843	0.09	697686	keystroke_l	l	n/a
349.143	0.045	698286	keystroke_y	y	n/a
350.118	0.03	700236	keystroke_Key.enter	Key.enter	n/a
350.1525	12.2075	700305	prompt	n/a	throat basics difficulties archive\n
351.123	0.06	702246	keystroke_t	t	n/a
351.213	0.075	702426	keystroke_h	h	n/a
351.378	0.03	702756	keystroke_r	r	n/a
351.873	0.075	703746	keystroke_o	o	n/a
352.548	0.075	705096	keystroke_a	a	n/a
352.713	0.03	705426	keystroke_t	t	n/a
353.433	0.09	706866	keystroke_Key.space	Key.space	n/a
353.643	0.06	707286	keystroke_b	b	n/a
353.718	0.045	707436	keystroke_a	a	n/a
353.853	0.06	707706	keystroke_s	s	n/a
353.943	0.075	707886	keystroke_i	i	n/a
354.138	0.03	708276	keystroke_c	c	n/a
355.218	0.03	710436	keystroke_s	s	n/a
356.463	0.12	712926	keystroke_Key.space	Key.space	n/a
356.568	0.075	713136	keystroke_d	d	n/a
356.658	0.045	713316	keystroke_i	i	n/a
356.838	0.045	713676	keystroke_f	f	n/a
356.973	0.045	713946	keystroke_f	f	n/a
357.108	0.06	714216	keystroke_i	i	n/a
357.348	0.045	714696	keystroke_c	c	n/a
357.438	0.06	714876	keystroke_u	u	n/a
357.993	0.03	715986	keystroke_l	l	n/a
358.593	0.06	717186	keystroke_t	t	n/a
358.683	0.075	717366	keystroke_i	i	n/a
358.773	0.075	717546	keystroke_e	e	n/a
358.923	0.06	717846	keystroke_s	s	n/a
359.583	0.105	719166	keystroke_Key.space	Key.space	n/a
359.748	0.09	719496	keystroke_a	a	n/a
359.943	0.06	719886	keystroke_r	r	n/a
360.228	0.045	720456	keystroke_c	c	n/a
360.318	0.105	720636	keystroke_h	h	n/a
360.438	0.075	720876	keystroke_i	i	n/a
360.573	0.06	721146	keystroke_v	v	n/a
360.753	0.06	721506	keystroke_e	e	n/a
362.298	0.06	724596	keystroke_Key.enter	Key.enter	n/a
362.3625	7.812	724725	prompt	n/a	rainbow gear carol rise\n
363.093	0.045	726186	keystroke_r	r	n/a
363.243	0.06	726486	keystroke_a	a	n/a
363.483	0.075	726966	keystroke_i	i	n/a
363.723	0.045	727446	keystroke_b	b	n/a
364.338	0.075	728676	keystroke_Key.backspace	Key.backspace	n/a
364.623	0.09	729246	keystroke_n	n	n/a
364.878	0.03	729756	keystroke_b	b	n/a
364.998	0.06	729996	keystroke_o	o	n/a
365.118	0.045	730236	keystroke_w	w	n/a
365.598	0.045	731196	keystroke_Key.space	Key.space	n/a
365.793	0.06	731586	keystroke_g	g	n/a
366.033	0.045	732066	keystroke_e	e	n/a
366.213	0.06	732426	keystroke_a	a	n/a
366.318	0.046	732636	keystroke_r	r	n/a
366.828	0.075	733656	keystroke_Key.space	Key.space	n/a
367.1135	0.075	734227	keystroke_c	c	n/a
367.2925	0.06	734585	keystroke_a	a	n/a
367.4125	0.06	734825	keystroke_r	r	n/a
367.5775	0.061	735155	keystroke_o	o	n/a
367.7575	0.06	735515	keystroke_l	l	n/a
367.9525	0.105	735905	keystroke_Key.space	Key.space	n/a
368.4025	0.045	736805	keystroke_r	r	n/a
368.5075	0.045	737015	keystroke_i	i	n/a
368.5975	0.06	737195	keystroke_s	s	n/a
368.7775	0.045	737555	keystroke_e	e	n/a
370.1275	0.045	740255	keystroke_Key.enter	Key.enter	n/a
370.1775	11.352	740355	prompt	n/a	prescription identified daily robbie\n
371.0125	0.075	742025	keystroke_p	p	n/a
371.1475	0.06	742295	keystroke_r	r	n/a
371.2385	0.089	742477	keystroke_e	e	n/a
371.5075	0.06	743015	keystroke_s	s	n/a
371.6425	0.09	743285	keystroke_c	c	n/a
371.8675	0.06	743735	keystroke_r	r	n/a
371.9725	0.045	743945	keystroke_i	i	n/a
371.9875	0.015	743975	keystroke_u	u	n/a
372.2725	0.06	744545	keystroke_p	p	n/a
372.5725	0.06	745145	keystroke_Key.backspace	Key.backspace	n/a
372.7075	0.06	745415	keystroke_Key.backspace	Key.backspace	n/a
373.3375	0.075	746675	keystroke_p	p	n/a
373.5475	0.045	747095	keystroke_t	t	n/a
373.6375	0.135	747275	keystroke_i	i	n/a
373.6975	0.105	747395	keystroke_o	o	n/a
373.8635	0.075	747727	keystroke_n	n	n/a
374.1925	0.12	748385	keystroke_Key.space	Key.space	n/a
374.3275	0.075	748655	keystroke_d	d	n/a
374.3575	0.0905	748715	keystroke_i	i	n/a
375.1075	0.03	750215	keystroke_Key.backspace	Key.backspace	n/a
375.2275	0.075	750455	keystroke_Key.backspace	Key.backspace	n/a
375.5575	0.06	751115	keystroke_i	i	n/a
375.7975	0.03	751595	keystroke_d	d	n/a
376.0975	0.016	752195	keystroke_e	e	n/a
376.2175	0.06	752435	keystroke_n	n	n/a
376.5025	0.045	753005	keystroke_t	t	n/a
376.5775	0.061	753155	keystroke_i	i	n/a
376.7575	0.06	753515	keystroke_f	f	n/a
376.8635	0.045	753727	keystroke_i	i	n/a
377.0135	0.045	754027	keystroke_e	e	n/a
377.1775	0.031	754355	keystroke_d	d	n/a
377.853	0.09	755706	keystroke_Key.space	Key.space	n/a
377.958	0.075	755916	keystroke_d	d	n/a
378.423	0.09	756846	keystroke_a	a	n/a
378.559	0.044	757118	keystroke_i	i	n/a
378.693	0.09	757386	keystroke_l	l	n/a
378.978	0.06	757956	keystroke_y	y	n/a
379.7125	0.09	759425	keystroke_Key.space	Key.space	n/a
379.8325	0.03	759665	keystroke_r	r	n/a
379.9075	0.075	759815	keystroke_o	o	n/a
380.1175	0.03	760235	keystroke_b	b	n/a
380.2375	0.075	760475	keystroke_b	b	n/a
380.4175	0.0605	760835	keystroke_i	i	n/a
380.7925	0.06	761585	keystroke_e	e	n/a
381.4825	0.0455	762965	keystroke_Key.enter	Key.enter	n/a
381.5325	8.427	763065	prompt	n/a	temporary waters coordinates maple\n
382.4275	0.045	764855	keystroke_t	t	n/a
382.5475	0.06	765095	keystroke_e	e	n/a
382.6525	0.15	765305	keystroke_m	m	n/a
382.7875	0.09	765575	keystroke_p	p	n/a
382.9825	0.075	765965	keystroke_o	o	n/a
383.3125	0.045	766625	keystroke_r	r	n/a
383.5525	0.075	767105	keystroke_a	a	n/a
383.6725	0.075	767345	keystroke_r	r	n/a
383.7925	0.045	767585	keystroke_y	y	n/a
384.5875	0.12	769175	keystroke_Key.space	Key.space	n/a
384.7975	0.075	769595	keystroke_w	w	n/a
384.9625	0.075	769925	keystroke_a	a	n/a
385.0975	0.075	770195	keystroke_t	t	n/a
385.2925	0.06	770585	keystroke_e	e	n/a
385.3375	0.075	770675	keystroke_r	r	n/a
385.6225	0.03	771245	keystroke_s	s	n/a
386.1925	0.075	772385	keystroke_Key.space	Key.space	n/a
386.3275	0.09	772655	keystroke_c	c	n/a
386.4625	0.03	772925	keystroke_o	o	n/a
386.5675	0.06	773135	keystroke_o	o	n/a
386.8675	0.045	773735	keystroke_r	r	n/a
387.1825	0.015	774365	keystroke_d	d	n/a
387.6325	0.09	775265	keystroke_i	i	n/a
387.8275	0.09	775655	keystroke_n	n	n/a
387.9775	0.075	775955	keystroke_a	a	n/a
388.0825	0.06	776165	keystroke_t	t	n/a
388.2325	0.045	776465	keystroke_e	e	n/a
388.3975	0.045	776795	keystroke_s	s	n/a
388.6525	0.06	777305	keystroke_Key.space	Key.space	n/a
388.7875	0.09	777575	keystroke_m	m	n/a
388.8775	0.06	777755	keystroke_a	a	n/a
388.9525	0.06	777905	keystroke_p	p	n/a
389.2075	0.03	778415	keystroke_l	l	n/a
389.2675	0.045	778535	keystroke_e	e	n/a
389.9275	0.03	779855	keystroke_Key.enter	Key.enter	n/a
389.963	12.192	779926	prompt	n/a	diagnostic political copying indicator\n
390.5875	0.045	781175	keystroke_d	d	n/a
390.6925	0.045	781385	keystroke_i	i	n/a
390.7675	0.09	781535	keystroke_a	a	n/a
391.3075	0.045	782615	keystroke_g	g	n/a
391.8175	0.12	783635	keystroke_n	n	n/a
391.9225	0.105	783845	keystroke_o	o	n/a
392.5975	0.09	785195	keystroke_s	s	n/a
392.9725	0.06	785945	keystroke_t	t	n/a
393.1075	0.045	786215	keystroke_i	i	n/a
393.2575	0.045	786515	keystroke_c	c	n/a
393.7975	0.105	787595	keystroke_Key.space	Key.space	n/a
394.0825	0.06	788165	keystroke_o	o	n/a
394.5925	0.075	789185	keystroke_Key.backspace	Key.backspace	n/a
395.193	0.06	790386	keystroke_p	p	n/a
395.358	0.06	790716	keystroke_o	o	n/a
395.538	0.075	791076	keystroke_l	l	n/a
395.703	0.06	791406	keystroke_i	i	n/a
395.913	0.045	791826	keystroke_t	t	n/a
396.018	0.045	792036	keystroke_i	i	n/a
396.183	0.06	792366	keystroke_c	c	n/a
396.348	0.06	792696	keystroke_a	a	n/a
396.438	0.075	792876	keystroke_l	l	n/a
396.738	0.12	793476	keystroke_Key.space	Key.space	n/a
396.948	0.075	793896	keystroke_c	c	n/a
397.233	0.075	794466	keystroke_o	o	n/a
397.428	0.06	794856	keystroke_p	p	n/a
397.743	0.06	795486	keystroke_y	y	n/a
397.968	0.06	795936	keystroke_i	i	n/a
398.133	0.06	796266	keystroke_n	n	n/a
398.223	0.045	796446	keystroke_g	g	n/a
398.973	0.105	797946	keystroke_Key.space	Key.space	n/a
399.123	0.075	798246	keystroke_i	i	n/a
399.243	0.075	798486	keystroke_n	n	n/a
399.363	0.06	798726	keystroke_d	d	n/a
400.368	0.03	800736	keystroke_i	i	n/a
400.473	0.06	800946	keystroke_c	c	n/a
400.668	0.06	801336	keystroke_a	a	n/a
400.848	0.045	801696	keystroke_t	t	n/a
400.953	0.06	801906	keystroke_o	o	n/a
401.028	0.045	802056	keystroke_r	r	n/a
402.108	0.045	804216	keystroke_Key.enter	Key.enter	n/a
402.159	8.0655	804318	prompt	n/a	harvest huge goes are\n
402.963	0.06	805926	keystroke_h	h	n/a
403.053	0.075	806106	keystroke_a	a	n/a
403.1875	0.06	806375	keystroke_r	r	n/a
403.3675	0.075	806735	keystroke_v	v	n/a
403.5775	0.045	807155	keystroke_e	e	n/a
403.7875	0.016	807575	keystroke_s	s	n/a
403.9525	0.031	807905	keystroke_t	t	n/a
404.2835	0.104	808567	keystroke_Key.space	Key.space	n/a
404.4475	0.105	808895	keystroke_h	h	n/a
404.5375	0.106	809075	keystroke_u	u	n/a
404.6875	0.045	809375	keystroke_g	g	n/a
404.8675	0.016	809735	keystroke_e	e	n/a
405.7975	0.075	811595	keystroke_Key.space	Key.space	n/a
406.0225	0.046	812045	keystroke_g	g	n/a
406.1125	0.061	812225	keystroke_o	o	n/a
406.2025	0.045	812405	keystroke_e	e	n/a
406.5785	0.059	813157	keystroke_s	s	n/a
408.5275	0.105	817055	keystroke_Key.space	Key.space	n/a
408.6625	0.06	817325	keystroke_a	a	n/a
408.7985	0.06	817597	keystroke_r	r	n/a
408.8885	0.075	817777	keystroke_e	e	n/a
410.1785	0.044	820357	keystroke_Key.enter	Key.enter	n/a
410.227	10.9625	820454	prompt	n/a	grown mpegs pirates modules\n
411.3035	0.045	822607	keystroke_g	g	n/a
411.5135	0.045	823027	keystroke_r	r	n/a
411.6485	0.045	823297	keystroke_o	o	n/a
411.7375	0.061	823475	keystroke_w	w	n/a
411.8735	0.045	823747	keystroke_n	n	n/a
412.5335	0.089	825067	keystroke_Key.space	Key.space	n/a
413.0885	0.105	826177	keystroke_m	m	n/a
413.2535	0.09	826507	keystroke_p	p	n/a
413.4635	0.06	826927	keystroke_e	e	n/a
413.8535	0.045	827707	keystroke_g	g	n/a
414.2135	0.06	828427	keystroke_s	s	n/a
417.1405	0.001	834281	keystroke_Key.space	Key.space	n/a
417.1685	0.075	834337	keystroke_p	p	n/a
417.4085	0.045	834817	keystroke_i	i	n/a
417.6185	0.015	835237	keystroke_r	r	n/a
418.2035	0.075	836407	keystroke_a	a	n/a
418.3385	0.075	836677	keystroke_t	t	n/a
418.4885	0.06	836977	keystroke_e	e	n/a
418.6535	0.06	837307	keystroke_s	s	n/a
419.0435	0.105	838087	keystroke_Key.space	Key.space	n/a
419.1635	0.135	838327	keystroke_m	m	n/a
419.2835	0.075	838567	keystroke_o	o	n/a
419.3885	0.045	838777	keystroke_d	d	n/a
419.5385	0.06	839077	keystroke_u	u	n/a
419.7335	0.06	839467	keystroke_l	l	n/a
419.8835	0.06	839767	keystroke_e	e	n/a
420.0485	0.045	840097	keystroke_s	s	n/a
421.128	0.06	842256	keystroke_Key.enter	Key.enter	n/a
421.1935	8.486	842387	prompt	n/a	formats birth mercy observer\n
422.118	0.06	844236	keystroke_f	f	n/a
422.223	0.075	844446	keystroke_o	o	n/a
422.358	0.045	844716	keystroke_r	r	n/a
422.568	0.06	845136	keystroke_m	m	n/a
423.033	0.06	846066	keystroke_a	a	n/a
423.183	0.045	846366	keystroke_t	t	n/a
423.498	0.06	846996	keystroke_s	s	n/a
424.008	0.06	848016	keystroke_Key.space	Key.space	n/a
424.2775	0.045	848555	keystroke_b	b	n/a
424.4425	0.0755	848885	keystroke_i	i	n/a
424.5025	0.045	849005	keystroke_r	r	n/a
424.6525	0.0605	849305	keystroke_t	t	n/a
424.7425	0.045	849485	keystroke_h	h	n/a
425.6725	0.075	851345	keystroke_Key.space	Key.space	n/a
425.7925	0.105	851585	keystroke_m	m	n/a
425.9275	0.09	851855	keystroke_e	e	n/a
426.0185	0.074	852037	keystroke_r	r	n/a
426.3025	0.06	852605	keystroke_c	c	n/a
426.3925	0.045	852785	keystroke_y	y	n/a
426.7675	0.105	853535	keystroke_Key.space	Key.space	n/a
427.1425	0.06	854285	keystroke_o	o	n/a
427.3075	0.045	854615	keystroke_b	b	n/a
427.4125	0.09	854825	keystroke_s	s	n/a
427.6375	0.09	855275	keystroke_e	e	n/a
427.7285	0.059	855457	keystroke_r	r	n/a
427.9975	0.06	855995	keystroke_v	v	n/a
428.2225	0.045	856445	keystroke_e	e	n/a
428.2825	0.045	856565	keystroke_r	r	n/a
429.6325	0.045	859265	keystroke_Key.enter	Key.enter	n/a
429.6825	6.642	859365	prompt	n/a	angry ambient solo alot\n
430.3675	0.045	860735	keystroke_a	a	n/a
431.0575	0.06	862115	keystroke_n	n	n/a
431.1775	0.06	862355	keystroke_g	g	n/a
431.3875	0.045	862775	keystroke_r	r	n/a
431.4775	0.06	862955	keystroke_y	y	n/a
432.1225	0.105	864245	keystroke_Key.space	Key.space	n/a
432.3175	0.075	864635	keystroke_a	a	n/a
432.3785	0.075	864757	keystroke_m	m	n/a
432.6325	0.045	865265	keystroke_b	b	n/a
432.8125	0.03	865625	keystroke_i	i	n/a
433.1125	0.0605	866225	keystroke_e	e	n/a
433.308	0.045	866616	keystroke_n	n	n/a
433.413	0.045	866826	keystroke_t	t	n/a
433.923	0.105	867846	keystroke_Key.space	Key.space	n/a
434.073	0.075	868146	keystroke_s	s	n/a
434.133	0.06	868266	keystroke_o	o	n/a
434.298	0.075	868596	keystroke_l	l	n/a
434.463	0.075	868926	keystroke_o	o	n/a
434.793	0.09	869586	keystroke_Key.space	Key.space	n/a
435.243	0.075	870486	keystroke_a	a	n/a
435.333	0.06	870666	keystroke_l	l	n/a
435.768	0.075	871536	keystroke_o	o	n/a
435.888	0.06	871776	keystroke_t	t	n/a
436.278	0.045	872556	keystroke_Key.enter	Key.enter	n/a
436.3295	6.6705	872659	prompt	n/a	guard missouri story routines\n
437.133	0.045	874266	keystroke_g	g	n/a
437.313	0.045	874626	keystroke_u	u	n/a
437.388	0.09	874776	keystroke_a	a	n/a
437.538	0.06	875076	keystroke_r	r	n/a
437.748	0.045	875496	keystroke_d	d	n/a
438.048	0.105	876096	keystroke_Key.space	Key.space	n/a
438.228	0.09	876456	keystroke_m	m	n/a
438.333	0.075	876666	keystroke_i	i	n/a
438.423	0.075	876846	keystroke_s	s	n/a
438.573	0.075	877146	keystroke_s	s	n/a
438.693	0.09	877386	keystroke_o	o	n/a
438.888	0.045	877776	keystroke_u	u	n/a
438.963	0.06	877926	keystroke_r	r	n/a
439.248	0.06	878496	keystroke_i	i	n/a
439.713	0.09	879426	keystroke_Key.space	Key.space	n/a
439.833	0.06	879666	keystroke_s	s	n/a
439.998	0.045	879996	keystroke_t	t	n/a
440.058	0.06	880116	keystroke_o	o	n/a
440.148	0.045	880296	keystroke_r	r	n/a
440.283	0.015	880566	keystroke_y	y	n/a
440.658	0.12	881316	keystroke_Key.space	Key.space	n/a
441.333	0.045	882666	keystroke_r	r	n/a
441.423	0.075	882846	keystroke_o	o	n/a
441.573	0.06	883146	keystroke_u	u	n/a
441.663	0.075	883326	keystroke_t	t	n/a
441.768	0.06	883536	keystroke_i	i	n/a
441.903	0.06	883806	keystroke_n	n	n/a
442.008	0.015	884016	keystroke_e	e	n/a
442.578	0.06	885156	keystroke_s	s	n/a
442.968	0.03	885936	keystroke_Key.enter	Key.enter	n/a
443.002	5.998	886004	prompt	n/a	cuba recognized wins wish\n
443.853	0.06	887706	keystroke_c	c	n/a
443.988	0.075	887976	keystroke_u	u	n/a
444.138	0.06	888276	keystroke_b	b	n/a
444.243	0.06	888486	keystroke_a	a	n/a
444.888	0.105	889776	keystroke_Key.space	Key.space	n/a
445.128	0.03	890256	keystroke_r	r	n/a
445.218	0.075	890436	keystroke_e	e	n/a
445.473	0.045	890946	keystroke_c	c	n/a
445.593	0.06	891186	keystroke_o	o	n/a
446.163	0.06	892326	keystroke_g	g	n/a
446.313	0.06	892626	keystroke_n	n	n/a
446.418	0.06	892836	keystroke_i	i	n/a
446.508	0.105	893016	keystroke_z	z	n/a
446.748	0.06	893496	keystroke_e	e	n/a
446.928	0.045	893856	keystroke_d	d	n/a
447.033	0.09	894066	keystroke_Key.space	Key.space	n/a
447.213	0.075	894426	keystroke_w	w	n/a
447.303	0.0445	894606	keystroke_i	i	n/a
447.423	0.0595	894846	keystroke_n	n	n/a
447.513	0.045	895026	keystroke_s	s	n/a
447.828	0.105	895656	keystroke_Key.space	Key.space	n/a
447.978	0.045	895956	keystroke_w	w	n/a
448.038	0.09	896076	keystroke_i	i	n/a
448.158	0.075	896316	keystroke_s	s	n/a
448.248	0.045	896496	keystroke_h	h	n/a
448.938	0.06	897876	keystroke_Key.enter	Key.enter	n/a
449.0025	5.997	898005	prompt	n/a	lead merit pills preference\n
449.583	0.045	899166	keystroke_l	l	n/a
449.643	0.06	899286	keystroke_e	e	n/a
449.793	0.075	899586	keystroke_a	a	n/a
449.958	0.045	899916	keystroke_d	d	n/a
450.048	0.075	900096	keystroke_Key.space	Key.space	n/a
450.138	0.09	900276	keystroke_m	m	n/a
450.258	0.105	900516	keystroke_e	e	n/a
450.378	0.045	900756	keystroke_r	r	n/a
450.678	0.045	901356	keystroke_i	i	n/a
450.783	0.06	901566	keystroke_t	t	n/a
450.918	0.105	901836	keystroke_Key.space	Key.space	n/a
451.233	0.06	902466	keystroke_p	p	n/a
451.398	0.045	902796	keystroke_i	i	n/a
451.638	0.015	903276	keystroke_l	l	n/a
451.773	0.075	903546	keystroke_l	l	n/a
452.013	0.075	904026	keystroke_s	s	n/a
452.163	0.12	904326	keystroke_Key.space	Key.space	n/a
452.538	0.09	905076	keystroke_p	p	n/a
452.8825	0.06	905765	keystroke_r	r	n/a
453.0025	0.045	906005	keystroke_e	e	n/a
453.2725	0.0605	906545	keystroke_f	f	n/a
453.499	0.059	906998	keystroke_e	e	n/a
453.543	0.06	907086	keystroke_r	r	n/a
453.933	0.045	907866	keystroke_e	e	n/a
454.053	0.045	908106	keystroke_n	n	n/a
454.158	0.03	908316	keystroke_c	c	n/a
454.278	0.03	908556	keystroke_e	e	n/a
454.968	0.0295	909936	keystroke_Key.enter	Key.enter	n/a
455.002	10.932	910004	prompt	n/a	minneapolis sofa character simply\n
455.5825	0.09	911165	keystroke_m	m	n/a
455.7325	0.06	911465	keystroke_i	i	n/a
455.9425	0.03	911885	keystroke_n	n	n/a
456.0925	0.075	912185	keystroke_n	n	n/a
456.4375	0.045	912875	keystroke_e	e	n/a
456.7375	0.045	913475	keystroke_a	a	n/a
456.8725	0.105	913745	keystroke_p	p	n/a
457.0975	0.045	914195	keystroke_o	o	n/a
457.2625	0.075	914525	keystroke_l	l	n/a
457.4575	0.015	914915	keystroke_o	o	n/a
457.6675	0.06	915335	keystroke_i	i	n/a
458.0725	0.06	916145	keystroke_Key.backspace	Key.backspace	n/a
458.2075	0.03	916415	keystroke_Key.backspace	Key.backspace	n/a
458.4325	0.06	916865	keystroke_i	i	n/a
458.5225	0.06	917045	keystroke_s	s	n/a
460.0975	0.06	920195	keystroke_s	s	n/a
460.2175	0.06	920435	keystroke_o	o	n/a
460.3235	0.029	920647	keystroke_f	f	n/a
460.4735	0.059	920947	keystroke_a	a	n/a
460.5775	0.105	921155	keystroke_Key.space	Key.space	n/a
460.9825	0.06	921965	keystroke_Key.backspace	Key.backspace	n/a
461.1175	0.075	922235	keystroke_Key.backspace	Key.backspace	n/a
461.2975	0.06	922595	keystroke_Key.backspace	Key.backspace	n/a
461.4625	0.075	922925	keystroke_Key.backspace	Key.backspace	n/a
461.8075	0.06	923615	keystroke_Key.backspace	Key.backspace	n/a
462.1225	0.076	924245	keystroke_Key.space	Key.space	n/a
462.3325	0.06	924665	keystroke_s	s	n/a
462.4235	0.059	924847	keystroke_o	o	n/a
462.5275	0.046	925055	keystroke_f	f	n/a
462.6035	0.089	925207	keystroke_a	a	n/a
462.7975	0.105	925595	keystroke_Key.space	Key.space	n/a
463.443	0.09	926886	keystroke_c	c	n/a
463.548	0.06	927096	keystroke_h	h	n/a
463.668	0.06	927336	keystroke_a	a	n/a
463.818	0.06	927636	keystroke_r	r	n/a
463.923	0.09	927846	keystroke_a	a	n/a
464.163	0.06	928326	keystroke_c	c	n/a
464.403	0.03	928806	keystroke_t	t	n/a
464.553	0.06	929106	keystroke_e	e	n/a
464.583	0.09	929166	keystroke_r	r	n/a
464.658	0.135	929316	keystroke_Key.space	Key.space	n/a
464.823	0.075	929646	keystroke_s	s	n/a
464.913	0.045	929826	keystroke_i	i	n/a
465.033	0.12	930066	keystroke_m	m	n/a
465.108	0.075	930216	keystroke_p	p	n/a
465.288	0.075	930576	keystroke_l	l	n/a
465.543	0.06	931086	keystroke_y	y	n/a
465.903	0.03	931806	keystroke_Key.enter	Key.enter	n/a
465.9375	10.8275	931875	prompt	n/a	jumping inexpensive creation broken\n
466.878	0.09	933756	keystroke_j	j	n/a
467.043	0.075	934086	keystroke_u	u	n/a
467.223	0.105	934446	keystroke_m	m	n/a
467.298	0.105	934596	keystroke_p	p	n/a
467.493	0.075	934986	keystroke_i	i	n/a
467.658	0.045	935316	keystroke_n	n	n/a
467.748	0.03	935496	keystroke_g	g	n/a
467.808	0.09	935616	keystroke_Key.space	Key.space	n/a
468.123	0.045	936246	keystroke_i	i	n/a
468.243	0.06	936486	keystroke_n	n	n/a
468.318	0.06	936636	keystroke_e	e	n/a
468.558	0.06	937116	keystroke_x	x	n/a
468.678	0.06	937356	keystroke_p	p	n/a
470.193	0.045	940386	keystroke_e	e	n/a
470.313	0.045	940626	keystroke_n	n	n/a
470.493	0.09	940986	keystroke_s	s	n/a
470.598	0.045	941196	keystroke_i	i	n/a
470.718	0.045	941436	keystroke_v	v	n/a
470.928	0.045	941856	keystroke_e	e	n/a
471.363	0.105	942726	keystroke_Key.space	Key.space	n/a
471.573	0.075	943146	keystroke_c	c	n/a
471.813	0.045	943626	keystroke_r	r	n/a
471.918	0.075	943836	keystroke_e	e	n/a
472.053	0.12	944106	keystroke_a	a	n/a
472.158	0.075	944316	keystroke_t	t	n/a
472.353	0.09	944706	keystroke_i	i	n/a
472.458	0.06	944916	keystroke_i	i	n/a
472.488	0.09	944976	keystroke_o	o	n/a
472.638	0.09	945276	keystroke_n	n	n/a
472.938	0.105	945876	keystroke_Key.space	Key.space	n/a
473.493	0.06	946986	keystroke_Key.backspace	Key.backspace	n/a
473.658	0.045	947316	keystroke_Key.backspace	Key.backspace	n/a
473.808	0.06	947616	keystroke_Key.backspace	Key.backspace	n/a
473.988	0.075	947976	keystroke_Key.backspace	Key.backspace	n/a
474.693	0.075	949386	keystroke_o	o	n/a
474.873	0.06	949746	keystroke_n	n	n/a
475.008	0.09	950016	keystroke_Key.space	Key.space	n/a
475.203	0.075	950406	keystroke_b	b	n/a
475.338	0.045	950676	keystroke_r	r	n/a
475.413	0.045	950826	keystroke_o	o	n/a
475.593	0.045	951186	keystroke_k	k	n/a
475.668	0.045	951336	keystroke_e	e	n/a
475.878	0.015	951756	keystroke_n	n	n/a
476.718	0.045	953436	keystroke_Key.enter	Key.enter	n/a
476.768	8.3065	953536	prompt	n/a	brings yale icons ethiopia\n
477.588	0.06	955176	keystroke_b	b	n/a
477.678	0.06	955356	keystroke_r	r	n/a
477.753	0.075	955506	keystroke_i	i	n/a
477.888	0.09	955776	keystroke_n	n	n/a
477.993	0.09	955986	keystroke_g	g	n/a
478.263	0.0445	956526	keystroke_s	s	n/a
478.638	0.1045	957276	keystroke_Key.space	Key.space	n/a
479.0725	0.06	958145	keystroke_y	y	n/a
479.2225	0.045	958445	keystroke_a	a	n/a
479.3275	0.045	958655	keystroke_l	l	n/a
479.4175	0.045	958835	keystroke_e	e	n/a
480.2875	0.075	960575	keystroke_Key.space	Key.space	n/a
480.3925	0.105	960785	keystroke_i	i	n/a
480.4825	0.06	960965	keystroke_c	c	n/a
480.6325	0.06	961265	keystroke_o	o	n/a
480.7675	0.06	961535	keystroke_n	n	n/a
480.8575	0.075	961715	keystroke_s	s	n/a
481.9225	0.09	963845	keystroke_Key.space	Key.space	n/a
482.103	0.0745	964206	keystroke_e	e	n/a
482.3425	0.045	964685	keystroke_t	t	n/a
482.4025	0.06	964805	keystroke_h	h	n/a
482.5675	0.045	965135	keystroke_i	i	n/a
483.6025	0.075	967205	keystroke_o	o	n/a
483.8125	0.075	967625	keystroke_p	p	n/a
484.0075	0.045	968015	keystroke_i	i	n/a
484.1275	0.06	968255	keystroke_a	a	n/a
485.0425	0.03	970085	keystroke_Key.enter	Key.enter	n/a
485.0775	7.257	970155	prompt	n/a	am critics dish soil\n
486.8875	0.045	973775	keystroke_a	a	n/a
486.9625	0.061	973925	keystroke_m	m	n/a
487.4725	0.105	974945	keystroke_Key.space	Key.space	n/a
487.6075	0.105	975215	keystroke_c	c	n/a
487.8175	0.045	975635	keystroke_r	r	n/a
487.9075	0.075	975815	keystroke_i	i	n/a
488.2825	0.03	976565	keystroke_t	t	n/a
488.3875	0.06	976775	keystroke_i	i	n/a
488.5375	0.075	977075	keystroke_c	c	n/a
489.6775	0.06	979355	keystroke_s	s	n/a
489.8575	0.09	979715	keystroke_Key.space	Key.space	n/a
489.9625	0.061	979925	keystroke_d	d	n/a
490.0375	0.06	980075	keystroke_i	i	n/a
490.4425	0.045	980885	keystroke_s	s	n/a
490.5175	0.09	981035	keystroke_h	h	n/a
491.1625	0.09	982325	keystroke_Key.space	Key.space	n/a
491.3275	0.075	982655	keystroke_s	s	n/a
491.4325	0.06	982865	keystroke_o	o	n/a
491.6125	0.045	983225	keystroke_i	i	n/a
491.7925	0.06	983585	keystroke_l	l	n/a
492.3025	0.03	984605	keystroke_Key.enter	Key.enter	n/a
492.3375	7.962	984675	prompt	n/a	digital rough promotes ringtone\n
493.0685	0.059	986137	keystroke_d	d	n/a
493.1575	0.06	986315	keystroke_i	i	n/a
493.3975	0.06	986795	keystroke_g	g	n/a
493.4735	0.044	986947	keystroke_i	i	n/a
493.8475	0.045	987695	keystroke_t	t	n/a
494.0575	0.075	988115	keystroke_a	a	n/a
494.1475	0.06	988295	keystroke_l	l	n/a
494.7025	0.105	989405	keystroke_Key.space	Key.space	n/a
495.2275	0.075	990455	keystroke_r	r	n/a
495.3185	0.074	990637	keystroke_o	o	n/a
495.4985	0.044	990997	keystroke_u	u	n/a
495.5575	0.045	991115	keystroke_g	g	n/a
495.6635	0.059	991327	keystroke_h	h	n/a
496.4725	0.105	992945	keystroke_Key.space	Key.space	n/a
496.6525	0.06	993305	keystroke_p	p	n/a
496.7585	0.059	993517	keystroke_r	r	n/a
496.8335	0.06	993667	keystroke_o	o	n/a
496.9685	0.134	993937	keystroke_m	m	n/a
497.1625	0.09	994325	keystroke_o	o	n/a
497.5235	0.075	995047	keystroke_t	t	n/a
497.9135	0.045	995827	keystroke_e	e	n/a
498.0485	0.074	996097	keystroke_s	s	n/a
498.6025	0.105	997205	keystroke_Key.space	Key.space	n/a
498.8275	0.045	997655	keystroke_r	r	n/a
498.9025	0.06	997805	keystroke_i	i	n/a
499.0235	0.075	998047	keystroke_n	n	n/a
499.1435	0.045	998287	keystroke_g	g	n/a
499.4135	0.044	998827	keystroke_t	t	n/a
499.4885	0.06	998977	keystroke_o	o	n/a
499.7285	0.06	999457	keystroke_n	n	n/a
499.8025	0.046	999605	keystroke_e	e	n/a
500.2525	0.046	1000505	keystroke_Key.enter	Key.enter	n/a
500.3025	7.947	1000605	prompt	n/a	amendment goals nicole francis\n
501.0935	0.044	1002187	keystroke_a	a	n/a
501.2435	0.059	1002487	keystroke_m	m	n/a
501.3325	0.046	1002665	keystroke_e	e	n/a
501.5885	0.015	1003177	keystroke_n	n	n/a
501.7235	0.029	1003447	keystroke_d	d	n/a
502.2485	0.074	1004497	keystroke_m	m	n/a
502.3385	0.075	1004677	keystroke_e	e	n/a
502.4575	0.045	1004915	keystroke_n	n	n/a
502.5785	0.045	1005157	keystroke_t	t	n/a
502.8035	0.075	1005607	keystroke_Key.space	Key.space	n/a
503.0285	0.045	1006057	keystroke_g	g	n/a
503.1035	0.075	1006207	keystroke_o	o	n/a
503.1935	0.075	1006387	keystroke_a	a	n/a
503.2985	0.06	1006597	keystroke_l	l	n/a
503.4035	0.06	1006807	keystroke_s	s	n/a
503.9885	0.089	1007977	keystroke_Key.space	Key.space	n/a
504.4985	0.059	1008997	keystroke_n	n	n/a
504.6035	0.075	1009207	keystroke_i	i	n/a
504.7085	0.06	1009417	keystroke_c	c	n/a
505.0535	0.015	1010107	keystroke_o	o	n/a
505.2785	0.075	1010557	keystroke_l	l	n/a
505.4285	0.03	1010857	keystroke_e	e	n/a
505.8335	0.09	1011667	keystroke_Key.space	Key.space	n/a
506.0435	0.09	1012087	keystroke_f	f	n/a
506.1785	0.075	1012357	keystroke_r	r	n/a
506.2835	0.09	1012567	keystroke_a	a	n/a
506.4335	0.045	1012867	keystroke_n	n	n/a
506.5235	0.105	1013047	keystroke_c	c	n/a
507.0935	0.045	1014187	keystroke_i	i	n/a
507.1685	0.075	1014337	keystroke_s	s	n/a
508.2035	0.045	1016407	keystroke_Key.enter	Key.enter	n/a
508.2525	8.427	1016505	prompt	n/a	competitors short duties suffer\n
509.3135	0.09	1018627	keystroke_c	c	n/a
509.4485	0.06	1018897	keystroke_o	o	n/a
509.6135	0.105	1019227	keystroke_m	m	n/a
509.6585	0.105	1019317	keystroke_p	p	n/a
511.2185	0.06	1022437	keystroke_e	e	n/a
511.5035	0.06	1023007	keystroke_t	t	n/a
511.6235	0.06	1023247	keystroke_i	i	n/a
511.758	0.045	1023516	keystroke_t	t	n/a
512.268	0.0605	1024536	keystroke_o	o	n/a
512.3885	0.0595	1024777	keystroke_r	r	n/a
512.628	0.045	1025256	keystroke_s	s	n/a
513.213	0.09	1026426	keystroke_Key.space	Key.space	n/a
513.393	0.075	1026786	keystroke_s	s	n/a
513.468	0.12	1026936	keystroke_h	h	n/a
513.558	0.12	1027116	keystroke_o	o	n/a
513.693	0.045	1027386	keystroke_r	r	n/a
513.798	0.075	1027596	keystroke_t	t	n/a
514.323	0.09	1028646	keystroke_Key.space	Key.space	n/a
514.518	0.075	1029036	keystroke_d	d	n/a
514.668	0.045	1029336	keystroke_u	u	n/a
514.848	0.06	1029696	keystroke_t	t	n/a
514.998	0.06	1029996	keystroke_i	i	n/a
515.073	0.045	1030146	keystroke_e	e	n/a
515.223	0.045	1030446	keystroke_s	s	n/a
515.568	0.09	1031136	keystroke_Key.space	Key.space	n/a
515.763	0.06	1031526	keystroke_s	s	n/a
515.868	0.045	1031736	keystroke_u	u	n/a
515.958	0.045	1031916	keystroke_f	f	n/a
516.093	0.045	1032186	keystroke_f	f	n/a
516.243	0.09	1032486	keystroke_e	e	n/a
516.318	0.045	1032636	keystroke_r	r	n/a
516.633	0.045	1033266	keystroke_Key.enter	Key.enter	n/a
516.683	5.787	1033366	prompt	n/a	highlight invited temple coating\n
517.293	0.105	1034586	keystroke_h	h	n/a
517.353	0.105	1034706	keystroke_i	i	n/a
517.443	0.06	1034886	keystroke_g	g	n/a
517.518	0.075	1035036	keystroke_h	h	n/a
517.713	0.06	1035426	keystroke_l	l	n/a
517.878	0.06	1035756	keystroke_i	i	n/a
517.983	0.045	1035966	keystroke_g	g	n/a
518.028	0.06	1036056	keystroke_h	h	n/a
518.133	0.06	1036266	keystroke_t	t	n/a
518.418	0.06	1036836	keystroke_Key.space	Key.space	n/a
518.688	0.075	1037376	keystroke_i	i	n/a
518.823	0.075	1037646	keystroke_n	n	n/a
518.988	0.075	1037976	keystroke_v	v	n/a
519.078	0.06	1038156	keystroke_i	i	n/a
519.378	0.075	1038756	keystroke_t	t	n/a
519.783	0.06	1039566	keystroke_e	e	n/a
519.963	0.06	1039926	keystroke_d	d	n/a
520.173	0.075	1040346	keystroke_Key.space	Key.space	n/a
520.488	0.045	1040976	keystroke_t	t	n/a
520.593	0.075	1041186	keystroke_e	e	n/a
520.683	0.105	1041366	keystroke_m	m	n/a
520.773	0.06	1041546	keystroke_p	p	n/a
520.938	0.075	1041876	keystroke_l	l	n/a
521.028	0.03	1042056	keystroke_e	e	n/a
521.148	0.105	1042296	keystroke_Key.space	Key.space	n/a
521.373	0.075	1042746	keystroke_c	c	n/a
521.478	0.06	1042956	keystroke_o	o	n/a
521.568	0.12	1043136	keystroke_a	a	n/a
521.763	0.075	1043526	keystroke_t	t	n/a
521.853	0.06	1043706	keystroke_i	i	n/a
521.988	0.045	1043976	keystroke_n	n	n/a
522.048	0.045	1044096	keystroke_g	g	n/a
522.453	0.015	1044906	keystroke_Key.enter	Key.enter	n/a
522.4745	6.9705	1044949	prompt	n/a	problems snake condos senator\n
523.203	0.06	1046406	keystroke_p	p	n/a
523.278	0.045	1046556	keystroke_r	r	n/a
523.383	0.075	1046766	keystroke_o	o	n/a
523.518	0.075	1047036	keystroke_b	b	n/a
523.683	0.105	1047366	keystroke_l	l	n/a
523.803	0.06	1047606	keystroke_e	e	n/a
523.878	0.06	1047756	keystroke_m	m	n/a
523.998	0.09	1047996	keystroke_s	s	n/a
524.448	0.12	1048896	keystroke_Key.space	Key.space	n/a
524.673	0.09	1049346	keystroke_s	s	n/a
524.748	0.045	1049496	keystroke_n	n	n/a
524.853	0.09	1049706	keystroke_a	a	n/a
524.958	0.045	1049916	keystroke_k	k	n/a
525.048	0.045	1050096	keystroke_e	e	n/a
525.468	0.075	1050936	keystroke_Key.space	Key.space	n/a
525.723	0.06	1051446	keystroke_c	c	n/a
525.813	0.075	1051626	keystroke_o	o	n/a
525.933	0.06	1051866	keystroke_n	n	n/a
526.038	0.06	1052076	keystroke_d	d	n/a
526.158	0.045	1052316	keystroke_o	o	n/a
526.668	0.06	1053336	keystroke_s	s	n/a
526.818	0.075	1053636	keystroke_Key.space	Key.space	n/a
527.028	0.09	1054056	keystroke_s	s	n/a
527.163	0.015	1054326	keystroke_n	n	n/a
527.763	0.06	1055526	keystroke_Key.backspace	Key.backspace	n/a
527.883	0.045	1055766	keystroke_e	e	n/a
528.003	0.06	1056006	keystroke_n	n	n/a
528.513	0.075	1057026	keystroke_a	a	n/a
528.693	0.045	1057386	keystroke_t	t	n/a
528.768	0.06	1057536	keystroke_o	o	n/a
529.143	0.045	1058286	keystroke_r	r	n/a
529.413	0.03	1058826	keystroke_Key.enter	Key.enter	n/a
529.448	6.417	1058896	prompt	n/a	mask investors compliance classic\n
530.103	0.09	1060206	keystroke_m	m	n/a
530.208	0.06	1060416	keystroke_a	a	n/a
530.343	0.075	1060686	keystroke_s	s	n/a
530.433	0.06	1060866	keystroke_k	k	n/a
530.733	0.12	1061466	keystroke_Key.space	Key.space	n/a
530.883	0.06	1061766	keystroke_i	i	n/a
531.018	0.06	1062036	keystroke_n	n	n/a
531.108	0.045	1062216	keystroke_v	v	n/a
531.258	0.045	1062516	keystroke_e	e	n/a
531.3935	0.075	1062787	keystroke_s	s	n/a
531.5885	0.045	1063177	keystroke_t	t	n/a
531.6785	0.06	1063357	keystroke_o	o	n/a
531.7685	0.045	1063537	keystroke_r	r	n/a
532.0235	0.059	1064047	keystroke_s	s	n/a
532.4575	0.09	1064915	keystroke_Key.space	Key.space	n/a
532.6085	0.074	1065217	keystroke_c	c	n/a
532.6985	0.045	1065397	keystroke_o	o	n/a
532.8185	0.12	1065637	keystroke_m	m	n/a
532.8935	0.075	1065787	keystroke_p	p	n/a
533.0885	0.09	1066177	keystroke_l	l	n/a
533.2535	0.075	1066507	keystroke_i	i	n/a
533.5685	0.09	1067137	keystroke_a	a	n/a
533.6885	0.045	1067377	keystroke_n	n	n/a
533.7785	0.06	1067557	keystroke_c	c	n/a
534.3035	0.06	1068607	keystroke_e	e	n/a
534.6335	0.09	1069267	keystroke_Key.space	Key.space	n/a
534.7835	0.12	1069567	keystroke_c	c	n/a
534.8885	0.075	1069777	keystroke_l	l	n/a
535.0085	0.09	1070017	keystroke_a	a	n/a
535.2035	0.044	1070407	keystroke_s	s	n/a
535.3385	0.06	1070677	keystroke_s	s	n/a
535.4585	0.03	1070917	keystroke_i	i	n/a
535.5185	0.06	1071037	keystroke_c	c	n/a
535.8035	0.06	1071607	keystroke_Key.enter	Key.enter	n/a
535.869	7.9605	1071738	prompt	n/a	robbie wide annie victorian\n
536.8835	0.045	1073767	keystroke_r	r	n/a
536.9585	0.09	1073917	keystroke_o	o	n/a
537.1385	0.06	1074277	keystroke_b	b	n/a
537.3035	0.045	1074607	keystroke_b	b	n/a
537.4535	0.06	1074907	keystroke_i	i	n/a
537.5585	0.06	1075117	keystroke_e	e	n/a
538.1885	0.09	1076377	keystroke_Key.space	Key.space	n/a
538.4285	0.06	1076857	keystroke_w	w	n/a
538.5035	0.06	1077007	keystroke_i	i	n/a
538.6085	0.06	1077217	keystroke_d	d	n/a
538.7885	0.06	1077577	keystroke_e	e	n/a
539.1635	0.09	1078327	keystroke_Key.space	Key.space	n/a
539.2985	0.045	1078597	keystroke_a	a	n/a
539.3735	0.045	1078747	keystroke_n	n	n/a
539.5235	0.06	1079047	keystroke_n	n	n/a
539.6585	0.015	1079317	keystroke_i	i	n/a
539.8835	0.045	1079767	keystroke_e	e	n/a
540.3935	0.12	1080787	keystroke_Key.space	Key.space	n/a
540.5285	0.075	1081057	keystroke_c	c	n/a
540.6185	0.045	1081237	keystroke_i	i	n/a
541.2935	0.06	1082587	keystroke_Key.backspace	Key.backspace	n/a
541.4435	0.06	1082887	keystroke_Key.backspace	Key.backspace	n/a
541.6235	0.06	1083247	keystroke_v	v	n/a
541.8635	0.06	1083727	keystroke_i	i	n/a
542.1185	0.06	1084237	keystroke_c	c	n/a
542.4335	0.045	1084867	keystroke_t	t	n/a
542.4935	0.075	1084987	keystroke_o	o	n/a
542.6135	0.045	1085227	keystroke_r	r	n/a
542.7185	0.045	1085437	keystroke_i	i	n/a
542.8085	0.075	1085617	keystroke_a	a	n/a
542.9135	0.045	1085827	keystroke_n	n	n/a
543.7835	0.045	1087567	keystroke_Key.enter	Key.enter	n/a
543.833	7.542	1087666	prompt	n/a	chassis come championships soldier\n
544.5485	0.045	1089097	keystroke_c	c	n/a
544.7285	0.06	1089457	keystroke_h	h	n/a
544.8335	0.105	1089667	keystroke_a	a	n/a
545.0435	0.075	1090087	keystroke_s	s	n/a
545.4335	0.06	1090867	keystroke_s	s	n/a
545.5685	0.06	1091137	keystroke_i	i	n/a
545.6585	0.06	1091317	keystroke_s	s	n/a
546.0185	0.09	1092037	keystroke_Key.space	Key.space	n/a
546.1835	0.09	1092367	keystroke_c	c	n/a
546.2885	0.075	1092577	keystroke_o	o	n/a
546.4385	0.09	1092877	keystroke_m	m	n/a
546.5735	0.03	1093147	keystroke_e	e	n/a
546.6485	0.09	1093297	keystroke_Key.space	Key.space	n/a
546.8435	0.075	1093687	keystroke_c	c	n/a
546.9335	0.06	1093867	keystroke_h	h	n/a
547.0535	0.075	1094107	keystroke_a	a	n/a
547.6835	0.075	1095367	keystroke_m	m	n/a
547.8035	0.075	1095607	keystroke_p	p	n/a
548.0435	0.15	1096087	keystroke_i	i	n/a
548.1485	0.105	1096297	keystroke_o	o	n/a
548.3135	0.075	1096627	keystroke_n	n	n/a
548.4035	0.075	1096807	keystroke_s	s	n/a
548.5235	0.06	1097047	keystroke_h	h	n/a
548.6885	0.06	1097377	keystroke_i	i	n/a
548.8685	0.045	1097737	keystroke_p	p	n/a
548.9585	0.06	1097917	keystroke_s	s	n/a
549.3035	0.105	1098607	keystroke_Key.space	Key.space	n/a
549.4085	0.075	1098817	keystroke_s	s	n/a
549.4985	0.06	1098997	keystroke_o	o	n/a
549.6485	0.09	1099297	keystroke_l	l	n/a
550.6385	0.045	1101277	keystroke_d	d	n/a
550.7285	0.06	1101457	keystroke_i	i	n/a
550.8935	0.06	1101787	keystroke_e	e	n/a
550.9835	0.06	1101967	keystroke_r	r	n/a
551.3435	0.03	1102687	keystroke_Key.enter	Key.enter	n/a
551.378	11.832	1102756	prompt	n/a	graduates reproduction capture substantial\n
552.3185	0.06	1104637	keystroke_g	g	n/a
552.4235	0.06	1104847	keystroke_r	r	n/a
552.4985	0.09	1104997	keystroke_a	a	n/a
552.6935	0.06	1105387	keystroke_d	d	n/a
552.7835	0.06	1105567	keystroke_u	u	n/a
552.9785	0.075	1105957	keystroke_a	a	n/a
553.1285	0.12	1106257	keystroke_t	t	n/a
553.3835	0.045	1106767	keystroke_e	e	n/a
553.5335	0.06	1107067	keystroke_s	s	n/a
553.6535	0.105	1107307	keystroke_Key.space	Key.space	n/a
553.9535	0.0595	1107907	keystroke_r	r	n/a
554.1335	0.045	1108267	keystroke_e	e	n/a
554.4935	0.06	1108987	keystroke_p	p	n/a
554.6135	0.06	1109227	keystroke_r	r	n/a
554.7335	0.075	1109467	keystroke_o	o	n/a
555.1235	0.015	1110247	keystroke_u	u	n/a
555.4985	0.045	1110997	keystroke_Key.backspace	Key.backspace	n/a
555.5885	0.045	1111177	keystroke_d	d	n/a
555.738	0.045	1111476	keystroke_u	u	n/a
555.843	0.0755	1111686	keystroke_c	c	n/a
556.428	0.0455	1112856	keystroke_t	t	n/a
556.518	0.105	1113036	keystroke_i	i	n/a
556.5785	0.075	1113157	keystroke_o	o	n/a
556.743	0.045	1113486	keystroke_n	n	n/a
556.8335	0.12	1113667	keystroke_Key.space	Key.space	n/a
556.938	0.0905	1113876	keystroke_c	c	n/a
557.088	0.135	1114176	keystroke_a	a	n/a
557.1785	0.0595	1114357	keystroke_p	p	n/a
557.4185	0.06	1114837	keystroke_t	t	n/a
557.508	0.0605	1115016	keystroke_u	u	n/a
557.598	0.045	1115196	keystroke_r	r	n/a
557.688	0.06	1115376	keystroke_e	e	n/a
558.123	0.045	1116246	keystroke_Key.space	Key.space	n/a
558.603	0.06	1117206	keystroke_s	s	n/a
558.768	0.06	1117536	keystroke_u	u	n/a
558.918	0.045	1117836	keystroke_b	b	n/a
559.023	0.06	1118046	keystroke_s	s	n/a
559.338	0.045	1118676	keystroke_t	t	n/a
559.938	0.09	1119876	keystroke_a	a	n/a
560.088	0.075	1120176	keystroke_t	t	n/a
560.463	0.06	1120926	keystroke_n	n	n/a
561.543	0.075	1123086	keystroke_Key.backspace	Key.backspace	n/a
561.693	0.03	1123386	keystroke_Key.backspace	Key.backspace	n/a
562.008	0.045	1124016	keystroke_n	n	n/a
562.5335	0.0595	1125067	keystroke_t	t	n/a
562.608	0.075	1125216	keystroke_i	i	n/a
562.698	0.09	1125396	keystroke_a	a	n/a
562.803	0.075	1125606	keystroke_l	l	n/a
563.163	0.045	1126326	keystroke_Key.enter	Key.enter	n/a
563.213	7.122	1126426	prompt	n/a	complications acceptable tips imposed\n
563.808	0.06	1127616	keystroke_c	c	n/a
563.869	0.059	1127738	keystroke_o	o	n/a
563.973	0.15	1127946	keystroke_m	m	n/a
564.063	0.105	1128126	keystroke_p	p	n/a
564.288	0.075	1128576	keystroke_l	l	n/a
564.453	0.03	1128906	keystroke_i	i	n/a
564.543	0.045	1129086	keystroke_c	c	n/a
564.723	0.06	1129446	keystroke_a	a	n/a
564.858	0.06	1129716	keystroke_t	t	n/a
564.948	0.12	1129896	keystroke_i	i	n/a
565.023	0.09	1130046	keystroke_o	o	n/a
565.158	0.075	1130316	keystroke_n	n	n/a
565.2635	0.06	1130527	keystroke_s	s	n/a
565.7135	0.09	1131427	keystroke_Key.space	Key.space	n/a
566.1335	0.06	1132267	keystroke_a	a	n/a
566.2985	0.075	1132597	keystroke_c	c	n/a
566.4335	0.075	1132867	keystroke_c	c	n/a
566.6135	0.045	1133227	keystroke_e	e	n/a
566.7185	0.075	1133437	keystroke_p	p	n/a
566.8985	0.045	1133797	keystroke_t	t	n/a
567.0485	0.09	1134097	keystroke_a	a	n/a
567.183	0.06	1134366	keystroke_b	b	n/a
567.333	0.075	1134666	keystroke_l	l	n/a
567.393	0.06	1134786	keystroke_e	e	n/a
567.468	0.105	1134936	keystroke_Key.space	Key.space	n/a
567.678	0.045	1135356	keystroke_t	t	n/a
568.488	0.03	1136976	keystroke_i	i	n/a
568.563	0.09	1137126	keystroke_p	p	n/a
568.698	0.075	1137396	keystroke_s	s	n/a
568.788	0.09	1137576	keystroke_Key.space	Key.space	n/a
568.923	0.075	1137846	keystroke_i	i	n/a
569.043	0.18	1138086	keystroke_m	m	n/a
569.178	0.09	1138356	keystroke_p	p	n/a
569.373	0.075	1138746	keystroke_o	o	n/a
569.478	0.075	1138956	keystroke_s	s	n/a
569.658	0.045	1139316	keystroke_e	e	n/a
569.838	0.03	1139676	keystroke_d	d	n/a
570.303	0.03	1140606	keystroke_Key.enter	Key.enter	n/a
570.3375	10.093	1140675	prompt	n/a	tips activated qualified queensland\n
571.473	0.045	1142946	keystroke_t	t	n/a
571.563	0.075	1143126	keystroke_i	i	n/a
571.698	0.09	1143396	keystroke_p	p	n/a
571.803	0.06	1143606	keystroke_s	s	n/a
572.298	0.09	1144596	keystroke_Key.space	Key.space	n/a
572.448	0.045	1144896	keystroke_a	a	n/a
572.658	0.045	1145316	keystroke_c	c	n/a
573.018	0.075	1146036	keystroke_t	t	n/a
573.168	0.045	1146336	keystroke_i	i	n/a
573.303	0.075	1146606	keystroke_v	v	n/a
573.453	0.075	1146906	keystroke_a	a	n/a
573.588	0.045	1147176	keystroke_t	t	n/a
573.723	0.06	1147446	keystroke_e	e	n/a
573.903	0.045	1147806	keystroke_d	d	n/a
574.008	0.09	1148016	keystroke_Key.space	Key.space	n/a
574.353	0.06	1148706	keystroke_w	w	n/a
574.489	0.059	1148978	keystroke_u	u	n/a
574.878	0.06	1149756	keystroke_Key.backspace	Key.backspace	n/a
575.178	0.06	1150356	keystroke_Key.backspace	Key.backspace	n/a
575.358	0.045	1150716	keystroke_q	q	n/a
576.273	0.06	1152546	keystroke_u	u	n/a
576.423	0.075	1152846	keystroke_a	a	n/a
576.543	0.105	1153086	keystroke_l	l	n/a
576.723	0.03	1153446	keystroke_i	i	n/a
577.203	0.06	1154406	keystroke_f	f	n/a
577.323	0.061	1154646	keystroke_i	i	n/a
577.428	0.06	1154856	keystroke_e	e	n/a
577.623	0.03	1155246	keystroke_d	d	n/a
577.773	0.075	1155546	keystroke_Key.space	Key.space	n/a
578.208	0.075	1156416	keystroke_q	q	n/a
578.403	0.045	1156806	keystroke_u	u	n/a
578.748	0.045	1157496	keystroke_e	e	n/a
578.884	0.075	1157768	keystroke_e	e	n/a
579.138	0.045	1158276	keystroke_n	n	n/a
579.228	0.06	1158456	keystroke_s	s	n/a
579.573	0.075	1159146	keystroke_l	l	n/a
579.663	0.09	1159326	keystroke_a	a	n/a
579.783	0.06	1159566	keystroke_n	n	n/a
579.859	0.029	1159718	keystroke_d	d	n/a
580.383	0.045	1160766	keystroke_Key.enter	Key.enter	n/a
580.433	8.5025	1160866	prompt	n/a	computing delicious vids refinance\n
581.073	0.06	1162146	keystroke_c	c	n/a
581.163	0.076	1162326	keystroke_o	o	n/a
581.298	0.136	1162596	keystroke_m	m	n/a
581.373	0.09	1162746	keystroke_p	p	n/a
581.628	0.06	1163256	keystroke_u	u	n/a
581.763	0.03	1163526	keystroke_t	t	n/a
581.823	0.061	1163646	keystroke_i	i	n/a
581.959	0.074	1163918	keystroke_n	n	n/a
582.003	0.045	1164006	keystroke_g	g	n/a
582.138	0.075	1164276	keystroke_Key.space	Key.space	n/a
582.273	0.061	1164546	keystroke_d	d	n/a
582.588	0.046	1165176	keystroke_e	e	n/a
582.693	0.091	1165386	keystroke_l	l	n/a
583.009	0.104	1166018	keystroke_i	i	n/a
583.143	0.075	1166286	keystroke_o	o	n/a
583.758	0.06	1167516	keystroke_Key.backspace	Key.backspace	n/a
584.073	0.045	1168146	keystroke_c	c	n/a
584.163	0.121	1168326	keystroke_i	i	n/a
584.298	0.045	1168596	keystroke_o	o	n/a
584.449	0.074	1168898	keystroke_u	u	n/a
584.568	0.06	1169136	keystroke_s	s	n/a
585.334	0.104	1170668	keystroke_Key.space	Key.space	n/a
585.544	0.044	1171088	keystroke_v	v	n/a
585.604	0.059	1171208	keystroke_i	i	n/a
585.723	0.045	1171446	keystroke_d	d	n/a
586.084	0.029	1172168	keystroke_s	s	n/a
586.3525	0.0755	1172705	keystroke_Key.space	Key.space	n/a
586.5785	0.059	1173157	keystroke_r	r	n/a
586.6835	0.045	1173367	keystroke_e	e	n/a
587.3285	0.06	1174657	keystroke_f	f	n/a
587.4485	0.06	1174897	keystroke_i	i	n/a
587.598	0.0605	1175196	keystroke_n	n	n/a
587.718	0.075	1175436	keystroke_a	a	n/a
587.823	0.045	1175646	keystroke_n	n	n/a
588.3035	0.06	1176607	keystroke_c	c	n/a
588.4535	0.06	1176907	keystroke_e	e	n/a
588.9025	0.031	1177805	keystroke_Key.enter	Key.enter	n/a
588.939	5.9055	1177878	prompt	n/a	tobago monroe souls walks\n
589.8635	0.03	1179727	keystroke_t	t	n/a
589.9535	0.09	1179907	keystroke_a	a	n/a
590.1035	0.06	1180207	keystroke_b	b	n/a
590.3125	0.076	1180625	keystroke_a	a	n/a
590.5385	0.045	1181077	keystroke_g	g	n/a
590.6285	0.06	1181257	keystroke_o	o	n/a
591.1225	0.091	1182245	keystroke_Key.space	Key.space	n/a
591.3035	0.1045	1182607	keystroke_m	m	n/a
591.498	0.06	1182996	keystroke_o	o	n/a
592.053	0.06	1184106	keystroke_n	n	n/a
592.248	0.03	1184496	keystroke_r	r	n/a
592.383	0.06	1184766	keystroke_o	o	n/a
592.518	0.03	1185036	keystroke_e	e	n/a
593.013	0.09	1186026	keystroke_Key.space	Key.space	n/a
593.178	0.075	1186356	keystroke_s	s	n/a
593.283	0.06	1186566	keystroke_o	o	n/a
593.418	0.06	1186836	keystroke_u	u	n/a
593.613	0.06	1187226	keystroke_l	l	n/a
593.688	0.06	1187376	keystroke_s	s	n/a
593.778	0.105	1187556	keystroke_Key.space	Key.space	n/a
594.078	0.045	1188156	keystroke_w	w	n/a
594.198	0.09	1188396	keystroke_a	a	n/a
594.273	0.09	1188546	keystroke_l	l	n/a
594.378	0.105	1188756	keystroke_k	k	n/a
594.484	0.044	1188968	keystroke_s	s	n/a
594.813	0.03	1189626	keystroke_Key.enter	Key.enter	n/a
594.849	8.576	1189698	prompt	n/a	explanation forgot recorder alexandria\n
595.548	0.03	1191096	keystroke_e	e	n/a
595.743	0.045	1191486	keystroke_x	x	n/a
595.953	0.06	1191906	keystroke_p	p	n/a
596.178	0.06	1192356	keystroke_l	l	n/a
596.448	0.06	1192896	keystroke_a	a	n/a
596.523	0.075	1193046	keystroke_n	n	n/a
596.7635	0.075	1193527	keystroke_a	a	n/a
597.3335	0.045	1194667	keystroke_t	t	n/a
597.3935	0.09	1194787	keystroke_i	i	n/a
597.4385	0.105	1194877	keystroke_o	o	n/a
597.6035	0.075	1195207	keystroke_n	n	n/a
597.7385	0.09	1195477	keystroke_Key.space	Key.space	n/a
598.3835	0.06	1196767	keystroke_f	f	n/a
598.4885	0.075	1196977	keystroke_o	o	n/a
598.5785	0.045	1197157	keystroke_r	r	n/a
598.6835	0.06	1197367	keystroke_g	g	n/a
598.7735	0.075	1197547	keystroke_o	o	n/a
598.8935	0.045	1197787	keystroke_t	t	n/a
599.3285	0.09	1198657	keystroke_Key.space	Key.space	n/a
599.6735	0.045	1199347	keystroke_r	r	n/a
599.7635	0.09	1199527	keystroke_e	e	n/a
599.9285	0.09	1199857	keystroke_c	c	n/a
600.0635	0.075	1200127	keystroke_o	o	n/a
600.1685	0.045	1200337	keystroke_r	r	n/a
600.3485	0.075	1200697	keystroke_d	d	n/a
600.5135	0.165	1201027	keystroke_e	e	n/a
600.5885	0.105	1201177	keystroke_r	r	n/a
600.7085	0.09	1201417	keystroke_Key.space	Key.space	n/a
600.8285	0.075	1201657	keystroke_a	a	n/a
600.9185	0.09	1201837	keystroke_l	l	n/a
601.1135	0.06	1202227	keystroke_e	e	n/a
601.3535	0.06	1202707	keystroke_x	x	n/a
601.6385	0.075	1203277	keystroke_a	a	n/a
601.7735	0.045	1203547	keystroke_n	n	n/a
601.9535	0.045	1203907	keystroke_d	d	n/a
602.1485	0.045	1204297	keystroke_r	r	n/a
602.3135	0.06	1204627	keystroke_a	a	n/a
602.6885	0.03	1205377	keystroke_Key.backspace	Key.backspace	n/a
602.9135	0.045	1205827	keystroke_i	i	n/a
603.0035	0.075	1206007	keystroke_a	a	n/a
603.3935	0.03	1206787	keystroke_Key.enter	Key.enter	n/a
603.4275	9.7025	1206855	prompt	n/a	realtor slovenia uncertainty cultural\n
604.3685	0.06	1208737	keystroke_r	r	n/a
