onset	duration	sample	value	key	prompt_text
22.8925	0.105	45785	keystroke	a	n/a
22.9825	0.105	45965	keystroke	d	n/a
23.0725	0.105	46145	keystroke	a	n/a
23.1475	0.105	46295	keystroke	m	n/a
23.583	0.1045	47166	keystroke	b	n/a
23.8525	0.075	47705	keystroke	Key.tab	n/a
29.553	0.0745	59106	keystroke	k	n/a
29.643	0.0595	59286	keystroke	e	n/a
29.718	0.0595	59436	keystroke	y	n/a
29.8075	0.075	59615	keystroke	s	n/a
29.973	0.0595	59946	keystroke	t	n/a
30.0925	0.105	60185	keystroke	r	n/a
30.1825	0.06	60365	keystroke	o	n/a
30.4975	0.12	60995	keystroke	k	n/a
30.588	0.0895	61176	keystroke	e	n/a
30.738	0.0895	61476	keystroke	s	n/a
30.8425	0.105	61685	keystroke	Key.space	n/a
30.9925	0.12	61985	keystroke	o	n/a
31.068	0.0745	62136	keystroke	n	n/a
31.728	0.1495	63456	keystroke	Key.shift	n/a
31.788	0.075	63576	keystroke	_	n/a
32.028	0.075	64056	keystroke	k	n/a
32.118	0.0745	64236	keystroke	e	n/a
32.238	0.045	64476	keystroke	y	n/a
32.298	0.075	64596	keystroke	b	n/a
32.4775	0.0755	64955	keystroke	o	n/a
32.628	0.135	65256	keystroke	a	n/a
32.703	0.0895	65406	keystroke	r	n/a
32.913	0.09	65826	keystroke	d	n/a
33.0325	0.1355	66065	keystroke	Key.space	n/a
33.993	0.06	67986	keystroke	Key.backspace	n/a
34.1125	0.0605	68225	keystroke	Key.backspace	n/a
34.263	0.0595	68526	keystroke	Key.backspace	n/a
34.413	0.075	68826	keystroke	Key.backspace	n/a
34.563	0.075	69126	keystroke	Key.backspace	n/a
34.728	0.075	69456	keystroke	Key.backspace	n/a
34.8925	0.075	69785	keystroke	Key.backspace	n/a
35.058	0.075	70116	keystroke	Key.backspace	n/a
35.2075	0.0755	70415	keystroke	Key.backspace	n/a
35.373	0.075	70746	keystroke	Key.backspace	n/a
35.538	0.0595	71076	keystroke	Key.backspace	n/a
35.688	0.045	71376	keystroke	Key.backspace	n/a
35.8535	0.0895	71707	keystroke	Key.cmd	n/a
35.883	0.09	71766	keystroke	1	n/a
45.003	0.3005	90006	keystroke	Key.cmd	n/a
45.228	0.1205	90456	keystroke	c	n/a
45.468	0.075	90936	keystroke	Key.cmd	n/a
45.498	0.06	90996	keystroke	2	n/a
47.313	0.24	94626	keystroke	Key.cmd	n/a
47.5075	0.0605	95015	keystroke	v	n/a
53.192	8.133	106384	prompt	n/a	the quick brown fox jumps over a lazy dog\n
55.2775	0.0455	110555	keystroke	t	n/a
55.383	0.075	110766	keystroke	h	n/a
55.4735	0.0745	110947	keystroke	e	n/a
55.5925	0.1205	111185	keystroke	Key.space	n/a
55.878	0.06	111756	keystroke	q	n/a
55.998	0.12	111996	keystroke	u	n/a
56.493	0.06	112986	keystroke	i	n/a
56.643	0.1205	113286	keystroke	c	n/a
56.748	0.09	113496	keystroke	k	n/a
56.853	0.105	113706	keystroke	Key.space	n/a
57.198	0.0455	114396	keystroke	b	n/a
57.348	0.0905	114696	keystroke	r	n/a
57.453	0.075	114906	keystroke	o	n/a
57.558	0.075	115116	keystroke	w	n/a
57.6635	0.0895	115327	keystroke	n	n/a
57.7385	0.12	115477	keystroke	Key.space	n/a
57.9335	0.0595	115867	keystroke	f	n/a
58.023	0.09	116046	keystroke	o	n/a
58.158	0.03	116316	keystroke	x	n/a
58.2485	0.12	116497	keystroke	Key.space	n/a
58.4285	0.075	116857	keystroke	j	n/a
58.5635	0.0595	117127	keystroke	u	n/a
58.7585	0.119	117517	keystroke	m	n/a
58.833	0.15	117666	keystroke	p	n/a
58.9385	0.0745	117877	keystroke	s	n/a
59.043	0.105	118086	keystroke	Key.space	n/a
59.193	0.09	118386	keystroke	o	n/a
59.2985	0.075	118597	keystroke	v	n/a
59.4335	0.12	118867	keystroke	e	n/a
59.5235	0.105	119047	keystroke	r	n/a
59.6435	0.105	119287	keystroke	Key.space	n/a
59.7485	0.105	119497	keystroke	a	n/a
59.8685	0.09	119737	keystroke	Key.space	n/a
60.0185	0.06	120037	keystroke	l	n/a
60.0635	0.09	120127	keystroke	a	n/a
60.3035	0.1045	120607	keystroke	z	n/a
60.4385	0.1045	120877	keystroke	y	n/a
60.5735	0.1195	121147	keystroke	Key.space	n/a
60.7685	0.075	121537	keystroke	d	n/a
60.9185	0.105	121837	keystroke	o	n/a
61.0685	0.09	122137	keystroke	g	n/a
61.203	0.1205	122406	keystroke	Key.enter	n/a
61.328	5.066	122656	prompt	n/a	scotia stranger rachel engineering\n
61.9835	0.075	123967	keystroke	s	n/a
62.0735	0.1045	124147	keystroke	c	n/a
62.193	0.0755	124386	keystroke	o	n/a
62.2985	0.075	124597	keystroke	t	n/a
62.4185	0.0895	124837	keystroke	i	n/a
62.523	0.0905	125046	keystroke	a	n/a
62.6285	0.105	125257	keystroke	Key.space	n/a
62.8385	0.06	125677	keystroke	s	n/a
62.9885	0.045	125977	keystroke	t	n/a
63.123	0.0755	126246	keystroke	r	n/a
63.1685	0.105	126337	keystroke	a	n/a
63.2585	0.1195	126517	keystroke	n	n/a
63.364	0.0745	126728	keystroke	g	n/a
63.5285	0.105	127057	keystroke	e	n/a
63.6185	0.0745	127237	keystroke	r	n/a
63.7085	0.12	127417	keystroke	Key.space	n/a
63.8885	0.0895	127777	keystroke	r	n/a
64.0685	0.075	128137	keystroke	a	n/a
64.1585	0.105	128317	keystroke	c	n/a
64.2485	0.09	128497	keystroke	h	n/a
64.3685	0.045	128737	keystroke	e	n/a
64.5635	0.09	129127	keystroke	l	n/a
64.6385	0.12	129277	keystroke	Key.space	n/a
64.8635	0.06	129727	keystroke	e	n/a
64.9535	0.0745	129907	keystroke	n	n/a
65.043	0.0755	130086	keystroke	g	n/a
65.1335	0.0745	130267	keystroke	i	n/a
65.2685	0.06	130537	keystroke	n	n/a
65.599	0.059	131198	keystroke	e	n/a
65.778	0.0755	131556	keystroke	e	n/a
65.8385	0.09	131677	keystroke	r	n/a
65.9885	0.1495	131977	keystroke	i	n/a
66.078	0.1055	132156	keystroke	n	n/a
66.1685	0.075	132337	keystroke	g	n/a
66.303	0.09	132606	keystroke	Key.enter	n/a
66.3965	7.243	132793	prompt	n/a	languages pollution fairly these're\n
66.978	0.1505	133956	keystroke	l	n/a
67.0685	0.09	134137	keystroke	a	n/a
67.308	0.076	134616	keystroke	n	n/a
67.7585	0.0755	135517	keystroke	g	n/a
67.8635	0.09	135727	keystroke	u	n/a
67.9385	0.12	135877	keystroke	a	n/a
68.0435	0.105	136087	keystroke	g	n/a
68.1335	0.0745	136267	keystroke	e	n/a
68.2985	0.09	136597	keystroke	s	n/a
68.4035	0.135	136807	keystroke	Key.space	n/a
68.5835	0.09	137167	keystroke	p	n/a
68.7485	0.0445	137497	keystroke	o	n/a
68.9285	0.03	137857	keystroke	l	n/a
69.0485	0.121	138097	keystroke	l	n/a
69.1385	0.09	138277	keystroke	u	n/a
69.3035	0.0745	138607	keystroke	t	n/a
69.3635	0.225	138727	keystroke	i	n/a
69.4535	0.165	138907	keystroke	o	n/a
69.5435	0.1345	139087	keystroke	n	n/a
69.6485	0.135	139297	keystroke	Key.space	n/a
69.9035	0.0745	139807	keystroke	f	n/a
70.008	0.1205	140016	keystroke	a	n/a
70.1285	0.09	140257	keystroke	i	n/a
70.2335	0.09	140467	keystroke	r	n/a
70.3535	0.18	140707	keystroke	l	n/a
70.578	0.1055	141156	keystroke	Key.space	n/a
70.819	0.059	141638	keystroke	t	n/a
70.893	0.0755	141786	keystroke	h	n/a
70.9985	0.075	141997	keystroke	e	n/a
71.3735	0.0445	142747	keystroke	Key.backspace	n/a
71.478	0.0605	142956	keystroke	Key.backspace	n/a
71.613	0.0605	143226	keystroke	Key.backspace	n/a
71.7485	0.0595	143497	keystroke	Key.backspace	n/a
71.9285	0.0755	143857	keystroke	y	n/a
72.0335	0.105	144067	keystroke	Key.space	n/a
72.2585	0.075	144517	keystroke	t	n/a
72.3185	0.0595	144637	keystroke	h	n/a
72.408	0.0755	144816	keystroke	e	n/a
72.6335	0.0895	145267	keystroke	s	n/a
72.738	0.1055	145476	keystroke	e	n/a
73.1735	0.075	146347	keystroke	'	n/a
73.293	0.1055	146586	keystroke	r	n/a
73.368	0.0755	146736	keystroke	e	n/a
73.578	0.0605	147156	keystroke	Key.enter	n/a
73.6425	4.947	147285	prompt	n/a	plugin basics burner keywords\n
74.388	0.0755	148776	keystroke	p	n/a
74.5535	0.1355	149107	keystroke	l	n/a
74.6585	0.075	149317	keystroke	u	n/a
74.8385	0.06	149677	keystroke	g	n/a
74.9135	0.135	149827	keystroke	i	n/a
75.0035	0.0895	150007	keystroke	n	n/a
75.078	0.1205	150156	keystroke	Key.space	n/a
75.273	0.09	150546	keystroke	b	n/a
75.4835	0.075	150967	keystroke	a	n/a
75.6185	0.0745	151237	keystroke	s	n/a
75.7535	0.075	151507	keystroke	i	n/a
75.8435	0.1345	151687	keystroke	c	n/a
75.993	0.0905	151986	keystroke	s	n/a
76.1135	0.12	152227	keystroke	Key.space	n/a
76.3535	0.075	152707	keystroke	b	n/a
76.4885	0.0595	152977	keystroke	u	n/a
76.593	0.0605	153186	keystroke	r	n/a
76.7435	0.09	153487	keystroke	n	n/a
76.8635	0.135	153727	keystroke	e	n/a
76.9685	0.075	153937	keystroke	r	n/a
77.074	0.0895	154148	keystroke	Key.space	n/a
77.193	0.0905	154386	keystroke	k	n/a
77.2985	0.076	154597	keystroke	e	n/a
77.3885	0.06	154777	keystroke	y	n/a
77.8085	0.045	155617	keystroke	w	n/a
77.9135	0.06	155827	keystroke	o	n/a
77.9885	0.0895	155977	keystroke	r	n/a
78.2135	0.09	156427	keystroke	d	n/a
78.3335	0.0895	156667	keystroke	s	n/a
78.4985	0.09	156997	keystroke	Key.enter	n/a
78.5925	6.552	157185	prompt	n/a	gabriel counting deny borough\n
79.2335	0.0595	158467	keystroke	g	n/a
79.3535	0.135	158707	keystroke	a	n/a
79.459	0.0895	158918	keystroke	b	n/a
79.6835	0.0595	159367	keystroke	r	n/a
79.8035	0.09	159607	keystroke	i	n/a
79.9085	0.09	159817	keystroke	e	n/a
80.028	0.0905	160056	keystroke	l	n/a
80.1485	0.075	160297	keystroke	d	n/a
80.3285	0.135	160657	keystroke	Key.space	n/a
80.7035	0.045	161407	keystroke	Key.backspace	n/a
80.8085	0.075	161617	keystroke	Key.backspace	n/a
80.9135	0.1045	161827	keystroke	Key.space	n/a
81.0635	0.135	162127	keystroke	c	n/a
81.2135	0.075	162427	keystroke	o	n/a
81.4385	0.09	162877	keystroke	n	n/a
81.8135	0.075	163627	keystroke	t	n/a
82.008	0.0605	164016	keystroke	Key.backspace	n/a
82.1135	0.06	164227	keystroke	Key.backspace	n/a
82.293	0.045	164586	keystroke	u	n/a
82.4735	0.06	164947	keystroke	n	n/a
82.6385	0.0905	165277	keystroke	t	n/a
82.7735	0.135	165547	keystroke	i	n/a
82.8635	0.1045	165727	keystroke	n	n/a
82.9835	0.045	165967	keystroke	g	n/a
83.0585	0.1345	166117	keystroke	Key.space	n/a
83.2235	0.045	166447	keystroke	d	n/a
83.3885	0.075	166777	keystroke	e	n/a
83.493	0.0605	166986	keystroke	n	n/a
83.7035	0.06	167407	keystroke	y	n/a
83.8085	0.105	167617	keystroke	Key.space	n/a
84.0485	0.0595	168097	keystroke	b	n/a
84.1535	0.0745	168307	keystroke	o	n/a
84.3335	0.0595	168667	keystroke	r	n/a
84.4835	0.135	168967	keystroke	o	n/a
84.5885	0.0895	169177	keystroke	u	n/a
84.7535	0.09	169507	keystroke	g	n/a
84.858	0.0905	169716	keystroke	h	n/a
85.0685	0.075	170137	keystroke	Key.enter	n/a
85.148	9.4165	170296	prompt	n/a	boss sociology actor recovery\n
86.7635	0.09	173527	keystroke	b	n/a
87.0185	0.0595	174037	keystroke	o	n/a
87.1085	0.075	174217	keystroke	s	n/a
87.7385	0.09	175477	keystroke	s	n/a
89.4935	0.045	178987	keystroke	Key.backspace	n/a
89.614	0.0445	179228	keystroke	Key.backspace	n/a
89.7635	0.045	179527	keystroke	Key.backspace	n/a
89.8985	0.075	179797	keystroke	Key.backspace	n/a
90.1685	0.075	180337	keystroke	b	n/a
90.2885	0.0455	180577	keystroke	o	n/a
90.5885	0.06	181177	keystroke	s	n/a
90.7385	0.075	181477	keystroke	s	n/a
90.8435	0.12	181687	keystroke	Key.space	n/a
91.0385	0.0755	182077	keystroke	s	n/a
91.1435	0.075	182287	keystroke	o	n/a
91.2485	0.105	182497	keystroke	c	n/a
91.3685	0.06	182737	keystroke	i	n/a
91.5485	0.06	183097	keystroke	o	n/a
91.7435	0.06	183487	keystroke	l	n/a
91.908	0.0755	183816	keystroke	o	n/a
92.0285	0.075	184057	keystroke	g	n/a
92.1335	0.075	184267	keystroke	y	n/a
92.2985	0.12	184597	keystroke	Key.space	n/a
92.4935	0.12	184987	keystroke	a	n/a
92.6285	0.0755	185257	keystroke	c	n/a
92.8085	0.0905	185617	keystroke	t	n/a
92.9585	0.075	185917	keystroke	o	n/a
93.049	0.1045	186098	keystroke	r	n/a
93.1835	0.12	186367	keystroke	Key.space	n/a
93.3335	0.09	186667	keystroke	r	n/a
93.4085	0.061	186817	keystroke	e	n/a
93.5735	0.075	187147	keystroke	c	n/a
93.649	0.09	187298	keystroke	o	n/a
93.8735	0.1045	187747	keystroke	v	n/a
94.1285	0.12	188257	keystroke	e	n/a
94.234	0.0895	188468	keystroke	r	n/a
94.3085	0.06	188617	keystroke	y	n/a
94.4735	0.0905	188947	keystroke	Key.enter	n/a
94.5695	4.5705	189139	prompt	n/a	freedom henry kills cisco\n
95.164	0.075	190328	keystroke	f	n/a
95.344	0.1045	190688	keystroke	r	n/a
95.404	0.0745	190808	keystroke	e	n/a
95.554	0.09	191108	keystroke	e	n/a
95.7635	0.0755	191527	keystroke	d	n/a
95.9285	0.09	191857	keystroke	o	n/a
96.0785	0.1055	192157	keystroke	m	n/a
96.1685	0.12	192337	keystroke	Key.space	n/a
96.4235	0.0605	192847	keystroke	h	n/a
96.544	0.06	193088	keystroke	e	n/a
96.634	0.0595	193268	keystroke	n	n/a
96.769	0.09	193538	keystroke	r	n/a
96.889	0.06	193778	keystroke	y	n/a
96.9935	0.1205	193987	keystroke	Key.space	n/a
97.204	0.06	194408	keystroke	k	n/a
97.369	0.03	194738	keystroke	i	n/a
97.549	0.0295	195098	keystroke	l	n/a
97.6835	0.0605	195367	keystroke	l	n/a
97.804	0.0745	195608	keystroke	s	n/a
97.909	0.135	195818	keystroke	Key.space	n/a
98.4035	0.1205	196807	keystroke	c	n/a
98.509	0.06	197018	keystroke	i	n/a
98.599	0.12	197198	keystroke	s	n/a
98.689	0.15	197378	keystroke	c	n/a
98.839	0.09	197678	keystroke	o	n/a
99.049	0.09	198098	keystroke	Key.enter	n/a
99.1445	4.901	198289	prompt	n/a	checked bikes density silent\n
99.799	0.09	199598	keystroke	c	n/a
99.874	0.075	199748	keystroke	h	n/a
99.964	0.06	199928	keystroke	e	n/a
100.069	0.12	200138	keystroke	c	n/a
100.2485	0.1055	200497	keystroke	k	n/a
100.369	0.06	200738	keystroke	e	n/a
100.519	0.0745	201038	keystroke	d	n/a
100.639	0.105	201278	keystroke	Key.space	n/a
100.9085	0.0755	201817	keystroke	b	n/a
101.014	0.075	202028	keystroke	i	n/a
101.224	0.075	202448	keystroke	k	n/a
101.344	0.075	202688	keystroke	e	n/a
101.5235	0.0755	203047	keystroke	s	n/a
101.629	0.12	203258	keystroke	Key.space	n/a
101.944	0.03	203888	keystroke	d	n/a
102.049	0.0745	204098	keystroke	e	n/a
102.1535	0.1205	204307	keystroke	n	n/a
102.2595	0.0895	204519	keystroke	s	n/a
102.3785	0.0905	204757	keystroke	i	n/a
102.514	0.075	205028	keystroke	t	n/a
102.619	0.0745	205238	keystroke	y	n/a
102.859	0.105	205718	keystroke	Key.space	n/a
103.174	0.075	206348	keystroke	s	n/a
103.294	0.105	206588	keystroke	i	n/a
103.459	0.09	206918	keystroke	l	n/a
103.564	0.0745	207128	keystroke	e	n/a
103.684	0.105	207368	keystroke	n	n/a
103.804	0.0895	207608	keystroke	t	n/a
103.969	0.0755	207938	keystroke	Key.enter	n/a
104.0485	5.036	208097	prompt	n/a	islam totally contest recruiting\n
104.644	0.0895	209288	keystroke	i	n/a
104.749	0.105	209498	keystroke	s	n/a
104.959	0.105	209918	keystroke	l	n/a
105.0785	0.105	210157	keystroke	a	n/a
105.199	0.12	210398	keystroke	m	n/a
105.304	0.12	210608	keystroke	Key.space	n/a
105.559	0.06	211118	keystroke	t	n/a
105.634	0.0445	211268	keystroke	o	n/a
105.739	0.045	211478	keystroke	t	n/a
105.859	0.075	211718	keystroke	a	n/a
105.949	0.015	211898	keystroke	l	n/a
106.054	0.15	212108	keystroke	l	n/a
106.159	0.075	212318	keystroke	y	n/a
106.2935	0.0755	212587	keystroke	Key.space	n/a
106.4295	0.149	212859	keystroke	c	n/a
106.489	0.1045	212978	keystroke	o	n/a
106.6385	0.1205	213277	keystroke	n	n/a
106.789	0.1195	213578	keystroke	t	n/a
106.8785	0.0755	213757	keystroke	e	n/a
107.074	0.1195	214148	keystroke	s	n/a
107.1785	0.09	214357	keystroke	t	n/a
107.3295	0.1345	214659	keystroke	Key.space	n/a
107.614	0.075	215228	keystroke	r	n/a
107.659	0.09	215318	keystroke	e	n/a
107.854	0.0745	215708	keystroke	c	n/a
108.034	0.0745	216068	keystroke	r	n/a
108.124	0.135	216248	keystroke	u	n/a
108.2435	0.0755	216487	keystroke	i	n/a
108.334	0.09	216668	keystroke	t	n/a
108.5585	0.1505	217117	keystroke	i	n/a
108.6645	0.0895	217329	keystroke	n	n/a
108.769	0.075	217538	keystroke	g	n/a
108.9935	0.09	217987	keystroke	Key.enter	n/a
109.088	5.5175	218176	prompt	n/a	survival wholesale battery more\n
109.744	0.045	219488	keystroke	s	n/a
109.8335	0.06	219667	keystroke	u	n/a
109.924	0.075	219848	keystroke	r	n/a
110.134	0.0745	220268	keystroke	v	n/a
110.224	0.045	220448	keystroke	i	n/a
110.314	0.105	220628	keystroke	v	n/a
110.5085	0.0905	221017	keystroke	a	n/a
110.644	0.09	221288	keystroke	l	n/a
111.0935	0.0905	222187	keystroke	Key.space	n/a
111.3495	0.059	222699	keystroke	w	n/a
111.439	0.09	222878	keystroke	h	n/a
111.514	0.075	223028	keystroke	o	n/a
111.964	0.06	223928	keystroke	l	n/a
112.039	0.075	224078	keystroke	e	n/a
112.324	0.045	224648	keystroke	s	n/a
112.474	0.045	224948	keystroke	a	n/a
112.5785	0.0905	225157	keystroke	l	n/a
112.669	0.06	225338	keystroke	e	n/a
112.774	0.1045	225548	keystroke	Key.space	n/a
113.0585	0.0605	226117	keystroke	b	n/a
113.239	0.0455	226478	keystroke	a	n/a
113.299	0.045	226598	keystroke	t	n/a
113.434	0.0745	226868	keystroke	t	n/a
113.569	0.1195	227138	keystroke	e	n/a
113.6735	0.0605	227347	keystroke	r	n/a
113.704	0.0895	227408	keystroke	y	n/a
113.824	0.09	227648	keystroke	Key.space	n/a
114.034	0.105	228068	keystroke	m	n/a
114.229	0.075	228458	keystroke	o	n/a
114.334	0.12	228668	keystroke	r	n/a
114.409	0.0745	228818	keystroke	e	n/a
114.529	0.075	229058	keystroke	Key.enter	n/a
114.6095	3.985	229219	prompt	n/a	clip summer runs cafe\n
115.219	0.09	230438	keystroke	c	n/a
115.2935	0.0605	230587	keystroke	l	n/a
115.504	0.0895	231008	keystroke	i	n/a
115.6085	0.1055	231217	keystroke	p	n/a
116.044	0.09	232088	keystroke	Key.space	n/a
116.1935	0.076	232387	keystroke	s	n/a
116.2695	0.0595	232539	keystroke	u	n/a
116.464	0.075	232928	keystroke	m	n/a
116.599	0.06	233198	keystroke	m	n/a
116.749	0.105	233498	keystroke	e	n/a
116.839	0.075	233678	keystroke	r	n/a
116.959	0.105	233918	keystroke	Key.space	n/a
117.169	0.06	234338	keystroke	r	n/a
117.244	0.0605	234488	keystroke	u	n/a
117.424	0.0895	234848	keystroke	n	n/a
117.5285	0.076	235057	keystroke	s	n/a
117.649	0.1055	235298	keystroke	Key.space	n/a
117.829	0.105	235658	keystroke	c	n/a
117.9785	0.1205	235957	keystroke	a	n/a
118.1585	0.12	236317	keystroke	f	n/a
118.264	0.0905	236528	keystroke	e	n/a
118.534	0.0595	237068	keystroke	Key.enter	n/a
118.5975	6.9875	237195	prompt	n/a	madagascar comment discuss circles\n
119.2545	0.1195	238509	keystroke	m	n/a
119.359	0.0595	238718	keystroke	a	n/a
119.524	0.075	239048	keystroke	d	n/a
119.629	0.12	239258	keystroke	a	n/a
119.9745	0.0445	239949	keystroke	g	n/a
120.1235	0.0755	240247	keystroke	a	n/a
120.304	0.0895	240608	keystroke	s	n/a
120.4395	0.1195	240879	keystroke	c	n/a
120.829	0.1055	241658	keystroke	r	n/a
121.219	0.06	242438	keystroke	Key.backspace	n/a
121.2785	0.09	242557	keystroke	a	n/a
121.3385	0.0755	242677	keystroke	r	n/a
121.504	0.12	243008	keystroke	Key.space	n/a
121.909	0.135	243818	keystroke	c	n/a
121.9545	0.0745	243909	keystroke	o	n/a
122.164	0.0445	244328	keystroke	m	n/a
122.299	0.0755	244598	keystroke	m	n/a
122.404	0.0745	244808	keystroke	e	n/a
122.539	0.0895	245078	keystroke	n	n/a
122.659	0.06	245318	keystroke	t	n/a
122.764	0.105	245528	keystroke	Key.space	n/a
122.914	0.06	245828	keystroke	d	n/a
123.004	0.06	246008	keystroke	i	n/a
123.154	0.1045	246308	keystroke	s	n/a
123.244	0.12	246488	keystroke	c	n/a
123.454	0.06	246908	keystroke	u	n/a
123.544	0.0905	247088	keystroke	s	n/a
123.7095	0.0895	247419	keystroke	s	n/a
124.354	0.12	248708	keystroke	Key.space	n/a
124.579	0.105	249158	keystroke	c	n/a
124.6995	0.0745	249399	keystroke	i	n/a
124.789	0.06	249578	keystroke	r	n/a
124.9835	0.091	249967	keystroke	c	n/a
125.0895	0.075	250179	keystroke	l	n/a
125.179	0.06	250358	keystroke	e	n/a
125.419	0.015	250838	keystroke	s	n/a
125.494	0.09	250988	keystroke	Key.enter	n/a
125.588	5.772	251176	prompt	n/a	disks listed parliament thousand\n
126.2295	0.0745	252459	keystroke	d	n/a
126.319	0.09	252638	keystroke	i	n/a
126.424	0.075	252848	keystroke	s	n/a
126.589	0.06	253178	keystroke	k	n/a
126.634	0.09	253268	keystroke	s	n/a
126.769	0.1055	253538	keystroke	Key.space	n/a
127.0395	0.105	254079	keystroke	l	n/a
127.129	0.0755	254258	keystroke	i	n/a
127.2345	0.09	254469	keystroke	s	n/a
127.3695	0.0755	254739	keystroke	t	n/a
127.5345	0.105	255069	keystroke	e	n/a
127.7295	0.09	255459	keystroke	d	n/a
127.85	0.0895	255700	keystroke	Key.space	n/a
127.9845	0.09	255969	keystroke	p	n/a
128.0745	0.09	256149	keystroke	a	n/a
128.1495	0.09	256299	keystroke	r	n/a
128.2845	0.06	256569	keystroke	i	n/a
128.494	0.1205	256988	keystroke	l	n/a
128.584	0.0755	257168	keystroke	i	n/a
128.6745	0.09	257349	keystroke	a	n/a
128.9305	0.074	257861	keystroke	m	n/a
129.019	0.075	258038	keystroke	e	n/a
129.1245	0.09	258249	keystroke	n	n/a
129.2445	0.075	258489	keystroke	t	n/a
129.5895	0.1195	259179	keystroke	Key.space	n/a
129.979	0.075	259958	keystroke	t	n/a
130.039	0.06	260078	keystroke	h	n/a
130.1445	0.1795	260289	keystroke	o	n/a
130.2345	0.0745	260469	keystroke	u	n/a
130.294	0.1055	260588	keystroke	s	n/a
130.459	0.1055	260918	keystroke	a	n/a
130.6245	0.12	261249	keystroke	n	n/a
130.909	0.06	261818	keystroke	d	n/a
131.2695	0.09	262539	keystroke	Key.enter	n/a
131.3635	8.3365	262727	prompt	n/a	penn bonds regression smilies\n
131.9895	0.1045	263979	keystroke	p	n/a
132.1395	0.06	264279	keystroke	e	n/a
132.229	0.0755	264458	keystroke	n	n/a
132.3645	0.15	264729	keystroke	Key.space	n/a
132.394	0.0305	264788	keystroke	n	n/a
132.6045	0.0745	265209	keystroke	b	n/a
132.709	0.1055	265418	keystroke	o	n/a
132.9195	0.0895	265839	keystroke	n	n/a
133.0545	0.12	266109	keystroke	d	n/a
133.25	0.074	266500	keystroke	s	n/a
134.6745	0.1045	269349	keystroke	Key.space	n/a
135.094	0.0905	270188	keystroke	r	n/a
135.1695	0.075	270339	keystroke	e	n/a
135.3195	0.0595	270639	keystroke	g	n/a
135.4695	0.12	270939	keystroke	r	n/a
135.5295	0.105	271059	keystroke	e	n/a
135.7245	0.105	271449	keystroke	s	n/a
135.9195	0.105	271839	keystroke	s	n/a
136.0545	0.1835	272109	keystroke	i	n/a
136.1145	0.1355	272229	keystroke	o	n/a
136.1895	0.105	272379	keystroke	n	n/a
136.2815	0.133	272563	keystroke	Key.space	n/a
136.4295	0.075	272859	keystroke	s	n/a
136.5195	0.105	273039	keystroke	i	n/a
136.714	0.165	273428	keystroke	m	n/a
136.8345	0.12	273669	keystroke	i	n/a
137.3295	0.06	274659	keystroke	Key.backspace	n/a
137.4495	0.0445	274899	keystroke	Key.backspace	n/a
137.5695	0.09	275139	keystroke	Key.backspace	n/a
137.8995	0.1045	275799	keystroke	m	n/a
138.0495	0.1205	276099	keystroke	i	n/a
138.2745	0.075	276549	keystroke	l	n/a
138.6645	0.045	277329	keystroke	i	n/a
138.77	0.0595	277540	keystroke	e	n/a
138.979	0.0905	277958	keystroke	s	n/a
139.594	0.1055	279188	keystroke	Key.enter	n/a
139.704	7.2865	279408	prompt	n/a	looksmart verizon substances addition\n
140.3445	0.06	280689	keystroke	l	n/a
140.494	0.045	280988	keystroke	o	n/a
140.6445	0.105	281289	keystroke	o	n/a
140.7345	0.075	281469	keystroke	k	n/a
140.8695	0.09	281739	keystroke	s	n/a
140.9745	0.1195	281949	keystroke	m	n/a
141.079	0.105	282158	keystroke	a	n/a
141.1695	0.06	282339	keystroke	r	n/a
141.3345	0.0445	282669	keystroke	t	n/a
141.4395	0.105	282879	keystroke	Key.space	n/a
141.6045	0.105	283209	keystroke	v	n/a
141.844	0.135	283688	keystroke	e	n/a
141.9645	0.0445	283929	keystroke	r	n/a
142.0395	0.09	284079	keystroke	i	n/a
142.2495	0.09	284499	keystroke	z	n/a
142.7295	0.045	285459	keystroke	Key.backspace	n/a
143.2545	0.03	286509	keystroke	z	n/a
143.599	0.1205	287198	keystroke	o	n/a
143.6745	0.1195	287349	keystroke	n	n/a
143.9445	0.12	287889	keystroke	Key.space	n/a
144.394	0.1055	288788	keystroke	s	n/a
144.5445	0.075	289089	keystroke	u	n/a
144.6345	0.0595	289269	keystroke	b	n/a
144.7695	0.075	289539	keystroke	s	n/a
144.8745	0.0745	289749	keystroke	t	n/a
144.994	0.0905	289988	keystroke	a	n/a
145.0995	0.09	290199	keystroke	n	n/a
145.219	0.1355	290438	keystroke	c	n/a
145.279	0.1055	290558	keystroke	e	n/a
145.475	0.0895	290950	keystroke	s	n/a
145.594	0.1355	291188	keystroke	Key.space	n/a
145.8645	0.09	291729	keystroke	a	n/a
146.0595	0.06	292119	keystroke	d	n/a
146.194	0.105	292388	keystroke	d	n/a
146.299	0.0605	292598	keystroke	i	n/a
146.4345	0.09	292869	keystroke	t	n/a
146.5095	0.21	293019	keystroke	i	n/a
146.584	0.1505	293168	keystroke	o	n/a
146.6745	0.09	293349	keystroke	n	n/a
146.9145	0.075	293829	keystroke	Key.enter	n/a
146.9935	11.1575	293987	prompt	n/a	just boxed list illustrated\n
147.6495	0.075	295299	keystroke	j	n/a
147.845	0.0595	295690	keystroke	u	n/a
147.9345	0.0895	295869	keystroke	s	n/a
148.0395	0.075	296079	keystroke	t	n/a
148.1295	0.1495	296259	keystroke	Key.space	n/a
148.2945	0.09	296589	keystroke	b	n/a
148.3995	0.075	296799	keystroke	o	n/a
148.5345	0.0445	297069	keystroke	e	n/a
148.7745	0.075	297549	keystroke	x	n/a
149.1195	0.075	298239	keystroke	Key.backspace	n/a
149.2845	0.06	298569	keystroke	Key.backspace	n/a
149.3745	0.045	298749	keystroke	x	n/a
149.6145	0.045	299229	keystroke	e	n/a
149.779	0.0605	299558	keystroke	d	n/a
154.6095	0.06	309219	keystroke	Key.space	n/a
155.8095	0.0895	311619	keystroke	l	n/a
155.9745	0.0755	311949	keystroke	i	n/a
156.0345	0.09	312069	keystroke	s	n/a
156.1395	0.06	312279	keystroke	t	n/a
156.2145	0.12	312429	keystroke	Key.space	n/a
156.53	0.0895	313060	keystroke	i	n/a
156.709	0.0605	313418	keystroke	l	n/a
156.8595	0.105	313719	keystroke	l	n/a
156.994	0.076	313988	keystroke	u	n/a
157.07	0.0745	314140	keystroke	s	n/a
157.189	0.076	314378	keystroke	t	n/a
157.3245	0.1505	314649	keystroke	r	n/a
157.52	0.209	315040	keystroke	a	n/a
157.6095	0.1355	315219	keystroke	t	n/a
157.7145	0.09	315429	keystroke	e	n/a
157.8945	0.1055	315789	keystroke	d	n/a
158.0745	0.075	316149	keystroke	Key.enter	n/a
158.154	7.4665	316308	prompt	n/a	tips plain somewhere technician\n
158.945	0.075	317890	keystroke	t	n/a
159.2295	0.06	318459	keystroke	p	n/a
159.2445	0.03	318489	keystroke	i	n/a
159.7995	0.06	319599	keystroke	Key.backspace	n/a
159.9045	0.0745	319809	keystroke	Key.backspace	n/a
160.0845	0.105	320169	keystroke	i	n/a
160.2345	0.105	320469	keystroke	p	n/a
160.384	0.0905	320768	keystroke	s	n/a
160.5195	0.105	321039	keystroke	Key.space	n/a
160.9395	0.075	321879	keystroke	p	n/a
161.0895	0.09	322179	keystroke	l	n/a
161.179	0.1355	322358	keystroke	a	n/a
161.2995	0.135	322599	keystroke	i	n/a
161.3745	0.09	322749	keystroke	n	n/a
161.479	0.1055	322958	keystroke	Key.space	n/a
161.7045	0.0895	323409	keystroke	s	n/a
161.7645	0.105	323529	keystroke	o	n/a
161.8845	0.12	323769	keystroke	m	n/a
161.9895	0.06	323979	keystroke	e	n/a
162.455	0.0745	324910	keystroke	w	n/a
162.5595	0.09	325119	keystroke	h	n/a
162.6045	0.12	325209	keystroke	e	n/a
162.7095	0.135	325419	keystroke	r	n/a
162.7845	0.12	325569	keystroke	e	n/a
162.9345	0.12	325869	keystroke	Key.space	n/a
163.6545	0.075	327309	keystroke	t	n/a
163.8345	0.09	327669	keystroke	e	n/a
164	0.1195	328000	keystroke	c	n/a
164.1045	0.06	328209	keystroke	h	n/a
164.5545	0.09	329109	keystroke	n	n/a
164.6145	0.09	329229	keystroke	i	n/a
164.9295	0.12	329859	keystroke	c	n/a
165.0345	0.0595	330069	keystroke	i	n/a
165.1095	0.105	330219	keystroke	a	n/a
165.2295	0.12	330459	keystroke	n	n/a
165.529	0.0905	331058	keystroke	Key.enter	n/a
165.624	7.3465	331248	prompt	n/a	mercury translator excellent kansas\n
166.25	0.1045	332500	keystroke	m	n/a
166.3695	0.06	332739	keystroke	e	n/a
166.4145	0.075	332829	keystroke	r	n/a
166.6095	0.09	333219	keystroke	c	n/a
166.7295	0.045	333459	keystroke	u	n/a
166.8195	0.09	333639	keystroke	r	n/a
167.1495	0.075	334299	keystroke	y	n/a
167.3895	0.1045	334779	keystroke	Key.space	n/a
167.8845	0.0905	335769	keystroke	t	n/a
168.0345	0.0895	336069	keystroke	r	n/a
168.064	0.121	336128	keystroke	a	n/a
168.185	0.089	336370	keystroke	n	n/a
168.2895	0.0895	336579	keystroke	s	n/a
168.6045	0.06	337209	keystroke	l	n/a
168.7095	0.12	337419	keystroke	a	n/a
168.86	0.1045	337720	keystroke	t	n/a
169.0395	0.105	338079	keystroke	o	n/a
169.13	0.0745	338260	keystroke	r	n/a
169.2495	0.1195	338499	keystroke	Key.space	n/a
169.7295	0.06	339459	keystroke	e	n/a
169.97	0.1345	339940	keystroke	x	n/a
170.1195	0.15	340239	keystroke	c	n/a
170.2395	0.1055	340479	keystroke	e	n/a
170.4645	0.075	340929	keystroke	l	n/a
170.6145	0.075	341229	keystroke	l	n/a
170.6745	0.075	341349	keystroke	e	n/a
170.794	0.1055	341588	keystroke	n	n/a
170.8545	0.09	341709	keystroke	t	n/a
171.1845	0.12	342369	keystroke	Key.space	n/a
171.4545	0.12	342909	keystroke	k	n/a
171.5595	0.09	343119	keystroke	a	n/a
171.6345	0.105	343269	keystroke	n	n/a
172.265	0.1195	344530	keystroke	s	n/a
172.5195	0.09	345039	keystroke	a	n/a
172.6395	0.135	345279	keystroke	s	n/a
172.8945	0.075	345789	keystroke	Key.enter	n/a
172.9755	6.745	345951	prompt	n/a	silent floors surveillance printed\n
173.615	0.09	347230	keystroke	s	n/a
173.69	0.09	347380	keystroke	i	n/a
173.8245	0.106	347649	keystroke	l	n/a
173.886	0.119	347772	keystroke	t	n/a
174.005	0.121	348010	keystroke	e	n/a
174.365	0.075	348730	keystroke	Key.backspace	n/a
174.4845	0.0605	348969	keystroke	Key.backspace	n/a
174.605	0.075	349210	keystroke	e	n/a
174.6945	0.0905	349389	keystroke	n	n/a
174.8	0.075	349600	keystroke	t	n/a
174.89	0.12	349780	keystroke	Key.space	n/a
175.1145	0.0755	350229	keystroke	f	n/a
175.3095	0.0605	350619	keystroke	l	n/a
175.46	0.075	350920	keystroke	o	n/a
175.6115	0.0735	351223	keystroke	o	n/a
175.67	0.0895	351340	keystroke	r	n/a
175.865	0.09	351730	keystroke	s	n/a
175.97	0.105	351940	keystroke	Key.space	n/a
176.63	0.075	353260	keystroke	s	n/a
176.7495	0.09	353499	keystroke	u	n/a
176.7795	0.075	353559	keystroke	r	n/a
176.975	0.0745	353950	keystroke	v	n/a
177.0945	0.0905	354189	keystroke	e	n/a
177.2	0.075	354400	keystroke	i	n/a
177.3795	0.0455	354759	keystroke	l	n/a
177.515	0.0745	355030	keystroke	l	n/a
177.56	0.1045	355120	keystroke	a	n/a
177.7245	0.1205	355449	keystroke	n	n/a
177.83	0.1795	355660	keystroke	c	n/a
177.935	0.09	355870	keystroke	e	n/a
178.115	0.12	356230	keystroke	Key.space	n/a
178.775	0.1045	357550	keystroke	p	n/a
178.8795	0.09	357759	keystroke	r	n/a
178.9695	0.1205	357939	keystroke	i	n/a
179.045	0.09	358090	keystroke	n	n/a
179.105	0.105	358210	keystroke	t	n/a
179.285	0.105	358570	keystroke	e	n/a
179.4945	0.09	358989	keystroke	d	n/a
179.645	0.075	359290	keystroke	Key.enter	n/a
179.7235	5.562	359447	prompt	n/a	wedding production widespread sail\n
180.3795	0.0905	360759	keystroke	w	n/a
180.5	0.09	361000	keystroke	e	n/a
180.71	0.045	361420	keystroke	d	n/a
180.845	0.0905	361690	keystroke	d	n/a
180.95	0.09	361900	keystroke	i	n/a
181.025	0.09	362050	keystroke	n	n/a
181.07	0.09	362140	keystroke	g	n/a
181.175	0.09	362350	keystroke	Key.space	n/a
181.3245	0.0905	362649	keystroke	p	n/a
181.4	0.0745	362800	keystroke	r	n/a
181.49	0.0895	362980	keystroke	o	n/a
181.5945	0.0905	363189	keystroke	d	n/a
181.7	0.075	363400	keystroke	u	n/a
181.79	0.075	363580	keystroke	c	n/a
181.97	0.075	363940	keystroke	t	n/a
182.105	0.285	364210	keystroke	i	n/a
182.2095	0.1955	364419	keystroke	o	n/a
182.36	0.1195	364720	keystroke	n	n/a
182.4945	0.1205	364989	keystroke	Key.space	n/a
182.75	0.105	365500	keystroke	w	n/a
182.96	0.09	365920	keystroke	i	n/a
183.005	0.0745	366010	keystroke	d	n/a
183.17	0.075	366340	keystroke	e	n/a
183.605	0.0745	367210	keystroke	s	n/a
183.6945	0.0605	367389	keystroke	p	n/a
183.8	0.105	367600	keystroke	r	n/a
183.845	0.1195	367690	keystroke	e	n/a
183.9945	0.1055	367989	keystroke	a	n/a
184.0695	0.1205	368139	keystroke	d	n/a
184.25	0.105	368500	keystroke	Key.space	n/a
184.625	0.12	369250	keystroke	s	n/a
184.805	0.12	369610	keystroke	a	n/a
184.94	0.105	369880	keystroke	i	n/a
185.015	0.075	370030	keystroke	l	n/a
185.165	0.12	370330	keystroke	Key.enter	n/a
185.2885	5.4125	370577	prompt	n/a	bearing august there'll decade\n
185.96	0.09	371920	keystroke	b	n/a
186.17	0.15	372340	keystroke	e	n/a
186.3055	0.1195	372611	keystroke	a	n/a
186.3795	0.1205	372759	keystroke	r	n/a
186.515	0.15	373030	keystroke	i	n/a
186.6195	0.1055	373239	keystroke	n	n/a
186.7095	0.0905	373419	keystroke	g	n/a
186.815	0.12	373630	keystroke	Key.space	n/a
186.95	0.0895	373900	keystroke	a	n/a
187.055	0.075	374110	keystroke	u	n/a
187.145	0.06	374290	keystroke	g	n/a
187.235	0.0745	374470	keystroke	u	n/a
187.355	0.12	374710	keystroke	s	n/a
187.46	0.075	374920	keystroke	t	n/a
187.5795	0.0905	375159	keystroke	Key.space	n/a
187.715	0.09	375430	keystroke	t	n/a
187.7905	0.089	375581	keystroke	h	n/a
187.8945	0.0905	375789	keystroke	e	n/a
187.97	0.165	375940	keystroke	r	n/a
188.075	0.1045	376150	keystroke	e	n/a
188.27	0.06	376540	keystroke	'	n/a
188.465	0.0295	376930	keystroke	l	n/a
188.6005	0.0895	377201	keystroke	l	n/a
188.705	0.105	377410	keystroke	Key.space	n/a
189.23	0.06	378460	keystroke	e	n/a
189.545	0.06	379090	keystroke	Key.backspace	n/a
189.62	0.09	379240	keystroke	d	n/a
189.785	0.075	379570	keystroke	e	n/a
189.9795	0.0905	379959	keystroke	c	n/a
190.115	0.12	380230	keystroke	a	n/a
190.34	0.075	380680	keystroke	d	n/a
190.4895	0.09	380979	keystroke	e	n/a
190.5945	0.1055	381189	keystroke	Key.enter	n/a
190.704	6.372	381408	prompt	n/a	endif special celebrate municipality\n
191.36	0.075	382720	keystroke	e	n/a
191.5095	0.105	383019	keystroke	n	n/a
191.5845	0.0755	383169	keystroke	d	n/a
191.72	0.105	383440	keystroke	i	n/a
191.84	0.075	383680	keystroke	f	n/a
191.96	0.105	383920	keystroke	Key.space	n/a
192.125	0.105	384250	keystroke	s	n/a
192.245	0.09	384490	keystroke	p	n/a
192.35	0.06	384700	keystroke	e	n/a
192.5	0.105	385000	keystroke	c	n/a
192.575	0.09	385150	keystroke	i	n/a
192.6945	0.0905	385389	keystroke	a	n/a
192.815	0.135	385630	keystroke	l	n/a
192.92	0.1195	385840	keystroke	Key.space	n/a
193.1745	0.0605	386349	keystroke	c	n/a
193.34	0.075	386680	keystroke	e	n/a
193.49	0.135	386980	keystroke	l	n/a
193.6095	0.0455	387219	keystroke	e	n/a
193.805	0.03	387610	keystroke	b	n/a
193.985	0.09	387970	keystroke	r	n/a
194.45	0.135	388900	keystroke	a	n/a
194.6	0.105	389200	keystroke	t	n/a
194.6745	0.0755	389349	keystroke	e	n/a
194.84	0.105	389680	keystroke	Key.space	n/a
195.0945	0.0605	390189	keystroke	m	n/a
195.275	0.03	390550	keystroke	u	n/a
195.425	0.075	390850	keystroke	n	n/a
195.515	0.0895	391030	keystroke	i	n/a
195.635	0.12	391270	keystroke	c	n/a
195.8455	0.0595	391691	keystroke	i	n/a
196.085	0.09	392170	keystroke	p	n/a
196.16	0.09	392320	keystroke	a	n/a
196.52	0.12	393040	keystroke	l	n/a
196.625	0.09	393250	keystroke	i	n/a
196.745	0.09	393490	keystroke	t	n/a
196.82	0.0745	393640	keystroke	y	n/a
197.015	0.06	394030	keystroke	Key.enter	n/a
197.079	9.8675	394158	prompt	n/a	blake kick appropriate nuke\n
199.7305	0.0745	399461	keystroke	b	n/a
199.835	0.105	399670	keystroke	l	n/a
199.925	0.075	399850	keystroke	a	n/a
200.045	0.09	400090	keystroke	k	n/a
200.105	0.0895	400210	keystroke	e	n/a
200.21	0.12	400420	keystroke	Key.space	n/a
200.39	0.06	400780	keystroke	k	n/a
200.525	0.0905	401050	keystroke	i	n/a
200.63	0.105	401260	keystroke	c	n/a
200.7195	0.075	401439	keystroke	k	n/a
201.11	0.09	402220	keystroke	Key.space	n/a
201.26	0.09	402520	keystroke	a	n/a
203.96	0.03	407920	keystroke	p	n/a
204.065	0.075	408130	keystroke	p	n/a
204.155	0.075	408310	keystroke	r	n/a
204.605	0.105	409210	keystroke	o	n/a
205.16	0.1345	410320	keystroke	p	n/a
205.43	0.09	410860	keystroke	r	n/a
205.505	0.0895	411010	keystroke	i	n/a
205.655	0.1645	411310	keystroke	a	n/a
205.805	0.0895	411610	keystroke	t	n/a
205.865	0.075	411730	keystroke	e	n/a
205.955	0.135	411910	keystroke	Key.space	n/a
206.255	0.075	412510	keystroke	n	n/a
206.42	0.0595	412840	keystroke	u	n/a
206.585	0.105	413170	keystroke	k	n/a
206.7205	0.059	413441	keystroke	e	n/a
206.87	0.075	413740	keystroke	Key.enter	n/a
206.9495	5.562	413899	prompt	n/a	department rosa valuation encoding\n
207.635	0.0595	415270	keystroke	d	n/a
207.7545	0.075	415509	keystroke	e	n/a
207.86	0.09	415720	keystroke	p	n/a
207.935	0.12	415870	keystroke	a	n/a
208.025	0.06	416050	keystroke	r	n/a
208.16	0.105	416320	keystroke	t	n/a
208.2795	0.076	416559	keystroke	m	n/a
208.3995	0.0905	416799	keystroke	e	n/a
208.475	0.06	416950	keystroke	n	n/a
208.61	0.075	417220	keystroke	t	n/a
208.67	0.12	417340	keystroke	Key.space	n/a
208.85	0.0905	417700	keystroke	r	n/a
209.15	0.0905	418300	keystroke	o	n/a
209.255	0.12	418510	keystroke	s	n/a
209.42	0.105	418840	keystroke	a	n/a
209.63	0.12	419260	keystroke	Key.space	n/a
210.1095	0.0905	420219	keystroke	v	n/a
210.185	0.105	420370	keystroke	a	n/a
210.35	0.165	420700	keystroke	l	n/a
210.44	0.09	420880	keystroke	u	n/a
210.575	0.165	421150	keystroke	a	n/a
210.71	0.09	421420	keystroke	t	n/a
210.8	0.1945	421600	keystroke	i	n/a
210.86	0.165	421720	keystroke	o	n/a
210.9795	0.1055	421959	keystroke	n	n/a
211.115	0.12	422230	keystroke	Key.space	n/a
211.7155	0.0595	423431	keystroke	e	n/a
211.82	0.09	423640	keystroke	n	n/a
211.9255	0.075	423851	keystroke	c	n/a
212.015	0.076	424030	keystroke	o	n/a
212.091	0.0745	424182	keystroke	d	n/a
212.195	0.1205	424390	keystroke	i	n/a
212.255	0.09	424510	keystroke	n	n/a
212.33	0.075	424660	keystroke	g	n/a
212.4355	0.075	424871	keystroke	Key.enter	n/a
212.5155	18.476	425031	prompt	n/a	rest picks aerial climbing\n
225.98	0.1205	451960	keystroke	r	n/a
226.1905	0.075	452381	keystroke	e	n/a
226.34	0.1055	452680	keystroke	s	n/a
226.4305	0.075	452861	keystroke	t	n/a
226.4905	0.1045	452981	keystroke	Key.space	n/a
226.6555	0.12	453311	keystroke	p	n/a
226.7605	0.0755	453521	keystroke	i	n/a
227.5405	0.105	455081	keystroke	c	n/a
227.6305	0.12	455261	keystroke	k	n/a
227.7055	0.0895	455411	keystroke	s	n/a
227.8255	0.105	455651	keystroke	Key.space	n/a
227.9755	0.1195	455951	keystroke	a	n/a
228.2005	0.12	456401	keystroke	e	n/a
228.3055	0.12	456611	keystroke	r	n/a
228.68	0.1205	457360	keystroke	i	n/a
228.8155	0.09	457631	keystroke	a	n/a
228.9205	0.09	457841	keystroke	l	n/a
228.98	0.1205	457960	keystroke	Key.space	n/a
229.1905	0.12	458381	keystroke	c	n/a
229.295	0.1355	458590	keystroke	l	n/a
229.3705	0.03	458741	keystroke	u	n/a
229.6405	0.12	459281	keystroke	m	n/a
229.9855	0.045	459971	keystroke	Key.backspace	n/a
230.1055	0.0445	460211	keystroke	Key.backspace	n/a
230.2855	0.06	460571	keystroke	i	n/a
230.3905	0.12	460781	keystroke	m	n/a
230.495	0.0755	460990	keystroke	b	n/a
230.5855	0.18	461171	keystroke	i	n/a
230.6905	0.0895	461381	keystroke	n	n/a
230.7205	0.0895	461441	keystroke	g	n/a
230.9155	0.075	461831	keystroke	Key.enter	n/a
230.995	4.136	461990	prompt	n/a	pink part kingdom niagara\n
231.5755	0.1195	463151	keystroke	p	n/a
231.695	0.1205	463390	keystroke	i	n/a
231.7855	0.105	463571	keystroke	n	n/a
231.9355	0.105	463871	keystroke	k	n/a
232.0255	0.135	464051	keystroke	Key.space	n/a
232.205	0.1205	464410	keystroke	p	n/a
232.3105	0.12	464621	keystroke	a	n/a
232.3705	0.075	464741	keystroke	r	n/a
232.5355	0.09	465071	keystroke	t	n/a
232.6405	0.105	465281	keystroke	Key.space	n/a
232.7905	0.075	465581	keystroke	k	n/a
232.9555	0.15	465911	keystroke	i	n/a
233.0455	0.105	466091	keystroke	n	n/a
233.1205	0.0595	466241	keystroke	g	n/a
233.3155	0.105	466631	keystroke	d	n/a
233.48	0.0455	466960	keystroke	o	n/a
233.691	0.1195	467382	keystroke	m	n/a
233.78	0.1205	467560	keystroke	Key.space	n/a
233.99	0.09	467980	keystroke	n	n/a
234.1405	0.09	468281	keystroke	i	n/a
234.2455	0.105	468491	keystroke	a	n/a
234.4105	0.105	468821	keystroke	g	n/a
234.5455	0.1345	469091	keystroke	a	n/a
234.6655	0.105	469331	keystroke	r	n/a
234.8155	0.105	469631	keystroke	a	n/a
235.0105	0.12	470021	keystroke	Key.enter	n/a
235.134	6.792	470268	prompt	n/a	compute grand milton without\n
235.8205	0.1345	471641	keystroke	c	n/a
235.88	0.1505	471760	keystroke	o	n/a
236.0005	0.09	472001	keystroke	m	n/a
236.1055	0.12	472211	keystroke	p	n/a
236.2555	0.09	472511	keystroke	u	n/a
236.3755	0.09	472751	keystroke	t	n/a
236.555	0.1055	473110	keystroke	e	n/a
236.7055	0.1205	473411	keystroke	Key.space	n/a
236.8405	0.045	473681	keystroke	g	n/a
236.9755	0.06	473951	keystroke	r	n/a
237.0055	0.0895	474011	keystroke	a	n/a
237.1255	0.12	474251	keystroke	n	n/a
237.2305	0.09	474461	keystroke	d	n/a
237.2905	0.1045	474581	keystroke	Key.space	n/a
237.4255	0.18	474851	keystroke	m	n/a
237.5305	0.105	475061	keystroke	i	n/a
237.7105	0.105	475421	keystroke	l	n/a
237.845	0.1055	475690	keystroke	t	n/a
237.9655	0.135	475931	keystroke	o	n/a
238.0555	0.1055	476111	keystroke	n	n/a
238.1455	0.1495	476291	keystroke	Key.space	n/a
238.34	0.1055	476680	keystroke	w	n/a
238.611	0.0745	477222	keystroke	i	n/a
238.7905	0.1045	477581	keystroke	h	n/a
238.9405	0.105	477881	keystroke	t	n/a
239.1355	0.18	478271	keystroke	o	n/a
239.2405	0.0895	478481	keystroke	u	n/a
239.6455	0.045	479291	keystroke	Key.backspace	n/a
239.75	0.0755	479500	keystroke	Key.backspace	n/a
239.9155	0.045	479831	keystroke	Key.backspace	n/a
240.2605	0.075	480521	keystroke	t	n/a
240.4705	0.03	480941	keystroke	Key.backspace	n/a
240.5755	0.075	481151	keystroke	Key.backspace	n/a
240.9505	0.06	481901	keystroke	t	n/a
241.0705	0.09	482141	keystroke	h	n/a
241.3405	0.06	482681	keystroke	o	n/a
241.5505	0.0445	483101	keystroke	u	n/a
241.7305	0.06	483461	keystroke	t	n/a
241.8505	0.075	483701	keystroke	Key.enter	n/a
241.929	4.5425	483858	prompt	n/a	lender trial yards guard\n
242.51	0.0755	485020	keystroke	l	n/a
242.6305	0.075	485261	keystroke	e	n/a
242.7655	0.1045	485531	keystroke	n	n/a
242.885	0.075	485770	keystroke	d	n/a
243.0505	0.12	486101	keystroke	e	n/a
243.1855	0.09	486371	keystroke	r	n/a
243.3205	0.12	486641	keystroke	Key.space	n/a
243.41	0.0605	486820	keystroke	t	n/a
243.5605	0.075	487121	keystroke	r	n/a
243.695	0.0905	487390	keystroke	i	n/a
243.8305	0.09	487661	keystroke	a	n/a
244.4155	0.075	488831	keystroke	l	n/a
244.5655	0.105	489131	keystroke	Key.space	n/a
244.8505	0.0745	489701	keystroke	y	n/a
244.91	0.1055	489820	keystroke	a	n/a
245.0905	0.0895	490181	keystroke	r	n/a
245.2855	0.105	490571	keystroke	d	n/a
245.3905	0.0895	490781	keystroke	s	n/a
245.525	0.1205	491050	keystroke	Key.space	n/a
245.6905	0.075	491381	keystroke	g	n/a
245.795	0.0755	491590	keystroke	u	n/a
245.916	0.1045	491832	keystroke	a	n/a
245.9905	0.06	491981	keystroke	r	n/a
246.2005	0.105	492401	keystroke	d	n/a
246.366	0.1045	492732	keystroke	Key.enter	n/a
246.4745	5.742	492949	prompt	n/a	dies tennis pool departure\n
247.1605	0.075	494321	keystroke	d	n/a
247.28	0.1055	494560	keystroke	i	n/a
247.4015	0.059	494803	keystroke	e	n/a
247.7755	0.06	495551	keystroke	s	n/a
248.4505	0.075	496901	keystroke	Key.space	n/a
248.7505	0.075	497501	keystroke	t	n/a
248.9155	0.09	497831	keystroke	e	n/a
249.036	0.059	498072	keystroke	n	n/a
249.2005	0.06	498401	keystroke	n	n/a
249.3205	0.105	498641	keystroke	i	n/a
249.4405	0.105	498881	keystroke	s	n/a
249.5605	0.105	499121	keystroke	Key.space	n/a
249.7705	0.105	499541	keystroke	p	n/a
249.9655	0.0445	499931	keystroke	o	n/a
250.1305	0.045	500261	keystroke	o	n/a
250.4305	0.1055	500861	keystroke	l	n/a
250.5655	0.105	501131	keystroke	Key.space	n/a
250.9855	0.06	501971	keystroke	d	n/a
251.1205	0.09	502241	keystroke	e	n/a
251.2405	0.105	502481	keystroke	p	n/a
251.3305	0.12	502661	keystroke	a	n/a
251.4055	0.0895	502811	keystroke	r	n/a
251.6155	0.06	503231	keystroke	t	n/a
251.7355	0.09	503471	keystroke	u	n/a
251.8405	0.1805	503681	keystroke	r	n/a
251.9605	0.105	503921	keystroke	e	n/a
252.1555	0.06	504311	keystroke	Key.enter	n/a
252.2195	6.7765	504439	prompt	n/a	features resistance introducing unsigned\n
252.9505	0.09	505901	keystroke	f	n/a
253.0255	0.135	506051	keystroke	e	n/a
253.19	0.1205	506380	keystroke	a	n/a
253.2655	0.09	506531	keystroke	t	n/a
253.4455	0.06	506891	keystroke	u	n/a
253.4905	0.18	506981	keystroke	r	n/a
253.595	0.1055	507190	keystroke	e	n/a
253.7905	0.1195	507581	keystroke	s	n/a
253.9555	0.12	507911	keystroke	Key.space	n/a
254.1205	0.12	508241	keystroke	r	n/a
254.195	0.0755	508390	keystroke	e	n/a
254.33	0.1055	508660	keystroke	s	n/a
254.4505	0.09	508901	keystroke	i	n/a
254.525	0.1055	509050	keystroke	s	n/a
254.6755	0.1045	509351	keystroke	t	n/a
254.8855	0.135	509771	keystroke	a	n/a
254.9905	0.1205	509981	keystroke	n	n/a
255.2005	0.165	510401	keystroke	c	n/a
255.2755	0.09	510551	keystroke	e	n/a
255.4705	0.12	510941	keystroke	Key.space	n/a
255.6505	0.0895	511301	keystroke	i	n/a
255.8005	0.12	511601	keystroke	n	n/a
255.8905	0.075	511781	keystroke	t	n/a
256.0705	0.045	512141	keystroke	r	n/a
256.1155	0.105	512231	keystroke	o	n/a
256.2505	0.105	512501	keystroke	d	n/a
256.3705	0.06	512741	keystroke	u	n/a
256.5205	0.135	513041	keystroke	c	n/a
256.6705	0.135	513341	keystroke	i	n/a
256.7605	0.1345	513521	keystroke	n	n/a
256.9105	0.075	513821	keystroke	g	n/a
257.0605	0.1195	514121	keystroke	Key.space	n/a
257.5555	0.045	515111	keystroke	u	n/a
257.7055	0.1045	515411	keystroke	n	n/a
257.78	0.0905	515560	keystroke	s	n/a
257.8855	0.075	515771	keystroke	i	n/a
257.9905	0.075	515981	keystroke	g	n/a
258.08	0.1205	516160	keystroke	n	n/a
258.2005	0.09	516401	keystroke	e	n/a
258.3655	0.105	516731	keystroke	d	n/a
258.9205	0.0745	517841	keystroke	Key.enter	n/a
258.999	4.6625	517998	prompt	n/a	true friend zero victoria\n
259.6555	0.075	519311	keystroke	t	n/a
259.8205	0.0595	519641	keystroke	r	n/a
259.895	0.0755	519790	keystroke	u	n/a
259.9855	0.09	519971	keystroke	e	n/a
260.0905	0.12	520181	keystroke	Key.space	n/a
260.18	0.0905	520360	keystroke	f	n/a
260.3455	0.09	520691	keystroke	r	n/a
260.4505	0.09	520901	keystroke	i	n/a
260.5255	0.105	521051	keystroke	e	n/a
260.6605	0.09	521321	keystroke	n	n/a
260.7355	0.09	521471	keystroke	d	n/a
260.8555	0.12	521711	keystroke	Key.space	n/a
261.3205	0.12	522641	keystroke	z	n/a
261.5305	0.1795	523061	keystroke	e	n/a
261.695	0.0905	523390	keystroke	r	n/a
261.8305	0.12	523661	keystroke	o	n/a
261.98	0.1355	523960	keystroke	Key.space	n/a
262.3855	0.075	524771	keystroke	v	n/a
262.4755	0.09	524951	keystroke	i	n/a
262.6405	0.075	525281	keystroke	c	n/a
262.8205	0.105	525641	keystroke	t	n/a
262.9855	0.075	525971	keystroke	o	n/a
263.0755	0.09	526151	keystroke	r	n/a
263.2555	0.075	526511	keystroke	i	n/a
263.4055	0.0895	526811	keystroke	a	n/a
263.5555	0.105	527111	keystroke	Key.enter	n/a
263.666	4.5255	527332	prompt	n/a	nickname wrap theatre fight\n
264.3055	0.105	528611	keystroke	n	n/a
264.4255	0.105	528851	keystroke	i	n/a
264.5605	0.12	529121	keystroke	c	n/a
264.6505	0.0745	529301	keystroke	k	n/a
264.8155	0.105	529631	keystroke	n	n/a
264.9355	0.105	529871	keystroke	a	n/a
265.0255	0.135	530051	keystroke	m	n/a
265.1755	0.06	530351	keystroke	e	n/a
265.2655	0.12	530531	keystroke	Key.space	n/a
265.3705	0.105	530741	keystroke	w	n/a
265.5505	0.12	531101	keystroke	r	n/a
265.731	0.0895	531462	keystroke	a	n/a
265.8355	0.12	531671	keystroke	p	n/a
265.9555	0.105	531911	keystroke	Key.space	n/a
266.0905	0.075	532181	keystroke	t	n/a
266.181	0.0745	532362	keystroke	h	n/a
266.2705	0.12	532541	keystroke	e	n/a
266.4505	0.165	532901	keystroke	a	n/a
266.5405	0.0895	533081	keystroke	t	n/a
266.9305	0.105	533861	keystroke	r	n/a
267.0355	0.105	534071	keystroke	e	n/a
267.26	0.106	534520	keystroke	Key.space	n/a
267.3505	0.105	534701	keystroke	f	n/a
267.4705	0.105	534941	keystroke	i	n/a
267.5755	0.06	535151	keystroke	g	n/a
267.7105	0.105	535421	keystroke	h	n/a
267.7855	0.09	535571	keystroke	t	n/a
268.1155	0.075	536231	keystroke	Key.enter	n/a
268.1945	5.189	536389	prompt	n/a	train image nokia kerry\n
268.8355	0.09	537671	keystroke	t	n/a
269.0155	0.075	538031	keystroke	r	n/a
269.18	0.0605	538360	keystroke	a	n/a
269.5405	0.09	539081	keystroke	i	n/a
269.7505	0.12	539501	keystroke	n	n/a
269.8555	0.12	539711	keystroke	Key.space	n/a
270.6955	0.1205	541391	keystroke	i	n/a
270.786	0.1345	541572	keystroke	m	n/a
270.8605	0.1345	541721	keystroke	a	n/a
270.9805	0.1055	541961	keystroke	g	n/a
271.086	0.0895	542172	keystroke	e	n/a
271.2205	0.12	542441	keystroke	Key.space	n/a
271.371	0.105	542742	keystroke	n	n/a
271.461	0.09	542922	keystroke	o	n/a
271.6405	0.06	543281	keystroke	k	n/a
271.821	0.105	543642	keystroke	i	n/a
271.926	0.105	543852	keystroke	a	n/a
272.0455	0.105	544091	keystroke	Key.space	n/a
272.6155	0.075	545231	keystroke	k	n/a
272.751	0.0745	545502	keystroke	e	n/a
272.886	0.0595	545772	keystroke	r	n/a
273.035	0.0905	546070	keystroke	r	n/a
273.1105	0.075	546221	keystroke	y	n/a
273.2905	0.09	546581	keystroke	Key.enter	n/a
273.387	4	546774	prompt	n/a	gzip cord diving laid\n
274.1455	0.09	548291	keystroke	g	n/a
274.3855	0.075	548771	keystroke	z	n/a
274.6555	0.12	549311	keystroke	i	n/a
274.7455	0.1345	549491	keystroke	p	n/a
274.9105	0.105	549821	keystroke	Key.space	n/a
275.1355	0.09	550271	keystroke	c	n/a
275.2405	0.06	550481	keystroke	o	n/a
275.3155	0.09	550631	keystroke	r	n/a
275.5105	0.09	551021	keystroke	d	n/a
275.6305	0.1055	551261	keystroke	Key.space	n/a
275.8705	0.09	551741	keystroke	d	n/a
275.9755	0.06	551951	keystroke	i	n/a
276.066	0.075	552132	keystroke	v	n/a
276.171	0.1795	552342	keystroke	i	n/a
276.3055	0.105	552611	keystroke	n	n/a
276.426	0.0745	552852	keystroke	g	n/a
276.5455	0.105	553091	keystroke	Key.space	n/a
276.801	0.0595	553602	keystroke	l	n/a
276.906	0.0745	553812	keystroke	a	n/a
277.0405	0.1055	554081	keystroke	i	n/a
277.161	0.105	554322	keystroke	d	n/a
277.326	0.06	554652	keystroke	Key.enter	n/a
277.39	5.547	554780	prompt	n/a	never choosing country bread\n
277.986	0.105	555972	keystroke	n	n/a
278.076	0.0745	556152	keystroke	e	n/a
278.241	0.105	556482	keystroke	v	n/a
278.436	0.12	556872	keystroke	e	n/a
278.4955	0.1055	556991	keystroke	r	n/a
278.646	0.105	557292	keystroke	Key.space	n/a
278.736	0.135	557472	keystroke	c	n/a
278.8415	0.0895	557683	keystroke	h	n/a
278.901	0.06	557802	keystroke	o	n/a
279.051	0.09	558102	keystroke	o	n/a
279.171	0.105	558342	keystroke	s	n/a
279.276	0.1645	558552	keystroke	i	n/a
279.366	0.1345	558732	keystroke	n	n/a
279.486	0.0745	558972	keystroke	g	n/a
279.576	0.15	559152	keystroke	Key.space	n/a
279.7415	0.1645	559483	keystroke	c	n/a
279.8605	0.135	559721	keystroke	o	n/a
279.936	0.075	559872	keystroke	u	n/a
280.146	0.06	560292	keystroke	n	n/a
280.251	0.075	560502	keystroke	t	n/a
280.416	0.06	560832	keystroke	r	n/a
280.491	0.0895	560982	keystroke	y	n/a
280.611	0.075	561222	keystroke	Key.space	n/a
280.7005	0.0905	561401	keystroke	g	n/a
281.001	0.1495	562002	keystroke	r	n/a
281.091	0.135	562182	keystroke	e	n/a
281.466	0.045	562932	keystroke	Key.backspace	n/a
281.571	0.075	563142	keystroke	Key.backspace	n/a
281.736	0.0595	563472	keystroke	Key.backspace	n/a
281.766	0.1045	563532	keystroke	b	n/a
282.051	0.135	564102	keystroke	r	n/a
282.411	0.015	564822	keystroke	e	n/a
282.486	0.1495	564972	keystroke	a	n/a
282.651	0.09	565302	keystroke	d	n/a
282.846	0.09	565692	keystroke	Key.enter	n/a
282.9395	7.647	565879	prompt	n/a	revisions starter clothes cottages\n
283.551	0.075	567102	keystroke	e	n/a
283.686	0.105	567372	keystroke	r	n/a
283.956	0.045	567912	keystroke	Key.backspace	n/a
284.076	0.06	568152	keystroke	Key.backspace	n/a
284.2105	0.1205	568421	keystroke	r	n/a
284.301	0.075	568602	keystroke	e	n/a
284.526	0.075	569052	keystroke	v	n/a
284.616	0.06	569232	keystroke	i	n/a
284.721	0.105	569442	keystroke	s	n/a
284.841	0.1195	569682	keystroke	i	n/a
285.216	0.135	570432	keystroke	o	n/a
285.321	0.12	570642	keystroke	n	n/a
285.486	0.105	570972	keystroke	s	n/a
285.621	0.105	571242	keystroke	Key.space	n/a
285.966	0.105	571932	keystroke	s	n/a
286.116	0.09	572232	keystroke	t	n/a
286.266	0.105	572532	keystroke	a	n/a
286.326	0.105	572652	keystroke	r	n/a
286.521	0.0745	573042	keystroke	t	n/a
286.686	0.105	573372	keystroke	e	n/a
286.866	0.075	573732	keystroke	r	n/a
287.1805	0.1055	574361	keystroke	Key.space	n/a
287.316	0.12	574632	keystroke	c	n/a
287.391	0.06	574782	keystroke	l	n/a
287.556	0.105	575112	keystroke	o	n/a
287.646	0.09	575292	keystroke	t	n/a
287.7505	0.1055	575501	keystroke	h	n/a
287.841	0.0905	575682	keystroke	e	n/a
288.006	0.105	576012	keystroke	s	n/a
288.171	0.12	576342	keystroke	Key.space	n/a
288.3955	0.0905	576791	keystroke	c	n/a
288.546	0.09	577092	keystroke	o	n/a
288.6805	0.0755	577361	keystroke	t	n/a
289.086	0.075	578172	keystroke	t	n/a
289.251	0.075	578502	keystroke	a	n/a
289.371	0.12	578742	keystroke	g	n/a
289.506	0.0895	579012	keystroke	e	n/a
289.6705	0.1055	579341	keystroke	s	n/a
289.836	0.075	579672	keystroke	Key.backspace	n/a
289.971	0.075	579942	keystroke	Key.backspace	n/a
290.151	0.0595	580302	keystroke	e	n/a
290.331	0.075	580662	keystroke	s	n/a
290.511	0.075	581022	keystroke	Key.enter	n/a
290.5905	8.2015	581181	prompt	n/a	stylish decided vehicle slide\n
291.276	0.0905	582552	keystroke	s	n/a
291.3805	0.0755	582761	keystroke	t	n/a
291.471	0.09	582942	keystroke	y	n/a
291.6055	0.1205	583211	keystroke	l	n/a
291.756	0.135	583512	keystroke	i	n/a
291.906	0.06	583812	keystroke	s	n/a
292.026	0.105	584052	keystroke	h	n/a
292.116	0.1195	584232	keystroke	Key.space	n/a
292.341	0.06	584682	keystroke	d	n/a
292.476	0.045	584952	keystroke	e	n/a
292.5955	0.1355	585191	keystroke	c	n/a
292.716	0.075	585432	keystroke	i	n/a
292.776	0.0755	585552	keystroke	d	n/a
292.9255	0.0605	585851	keystroke	e	n/a
293.061	0.075	586122	keystroke	d	n/a
293.151	0.075	586302	keystroke	Key.space	n/a
296.916	0.075	593832	keystroke	v	n/a
297.051	0.06	594102	keystroke	e	n/a
297.156	0.075	594312	keystroke	h	n/a
297.261	0.1045	594522	keystroke	i	n/a
297.3955	0.1205	594791	keystroke	c	n/a
297.531	0.105	595062	keystroke	l	n/a
297.651	0.075	595302	keystroke	e	n/a
297.786	0.12	595572	keystroke	Key.space	n/a
298.161	0.105	596322	keystroke	s	n/a
298.2805	0.1055	596561	keystroke	l	n/a
298.341	0.105	596682	keystroke	i	n/a
298.416	0.075	596832	keystroke	d	n/a
298.566	0.0595	597132	keystroke	e	n/a
298.716	0.075	597432	keystroke	Key.enter	n/a
298.7965	8.921	597593	prompt	n/a	dealtime criteria chinese longer\n
299.391	0.06	598782	keystroke	d	n/a
299.511	0.09	599022	keystroke	e	n/a
299.646	0.1345	599292	keystroke	a	n/a
299.766	0.075	599532	keystroke	l	n/a
299.9005	0.0755	599801	keystroke	t	n/a
299.991	0.12	599982	keystroke	i	n/a
300.231	0.045	600462	keystroke	m	n/a
300.291	0.0895	600582	keystroke	e	n/a
300.861	0.105	601722	keystroke	Key.space	n/a
301.026	0.075	602052	keystroke	c	n/a
301.1905	0.0755	602381	keystroke	r	n/a
301.2955	0.0905	602591	keystroke	i	n/a
301.4915	0.104	602983	keystroke	t	n/a
301.671	0.12	603342	keystroke	e	n/a
301.776	0.1195	603552	keystroke	r	n/a
302.151	0.075	604302	keystroke	i	n/a
302.2415	0.0595	604483	keystroke	a	n/a
302.331	0.1345	604662	keystroke	Key.space	n/a
302.556	0.12	605112	keystroke	c	n/a
302.616	0.09	605232	keystroke	h	n/a
302.736	0.105	605472	keystroke	i	n/a
302.886	0.09	605772	keystroke	n	n/a
302.991	0.075	605982	keystroke	e	n/a
303.171	0.12	606342	keystroke	s	n/a
303.276	0.09	606552	keystroke	e	n/a
303.441	0.12	606882	keystroke	Key.space	n/a
306.771	0.045	613542	keystroke	l	n/a
306.906	0.09	613812	keystroke	o	n/a
306.9655	0.0755	613931	keystroke	n	n/a
307.056	0.09	614112	keystroke	g	n/a
307.221	0.1205	614442	keystroke	e	n/a
307.326	0.09	614652	keystroke	r	n/a
307.641	0.075	615282	keystroke	Key.enter	n/a
307.721	4.601	615442	prompt	n/a	hardly grocery collins bones\n
308.5105	0.0905	617021	keystroke	h	n/a
308.586	0.12	617172	keystroke	a	n/a
308.661	0.09	617322	keystroke	r	n/a
308.811	0.105	617622	keystroke	d	n/a
308.9465	0.1345	617893	keystroke	l	n/a
309.051	0.06	618102	keystroke	y	n/a
309.156	0.12	618312	keystroke	Key.space	n/a
309.351	0.09	618702	keystroke	g	n/a
309.5005	0.0905	619001	keystroke	r	n/a
309.606	0.06	619212	keystroke	o	n/a
310.0105	0.1055	620021	keystroke	c	n/a
310.1605	0.0905	620321	keystroke	e	n/a
310.236	0.105	620472	keystroke	r	n/a
310.356	0.09	620712	keystroke	y	n/a
310.461	0.1345	620922	keystroke	Key.space	n/a
310.671	0.1195	621342	keystroke	c	n/a
310.746	0.0595	621492	keystroke	o	n/a
310.911	0.06	621822	keystroke	l	n/a
311.0315	0.1195	622063	keystroke	l	n/a
311.106	0.165	622212	keystroke	i	n/a
311.226	0.105	622452	keystroke	n	n/a
311.316	0.1045	622632	keystroke	s	n/a
311.451	0.12	622902	keystroke	Key.space	n/a
311.616	0.105	623232	keystroke	b	n/a
311.751	0.12	623502	keystroke	o	n/a
311.856	0.12	623712	keystroke	n	n/a
311.961	0.075	623922	keystroke	e	n/a
312.1105	0.1055	624221	keystroke	s	n/a
312.231	0.09	624462	keystroke	Key.enter	n/a
312.3255	7.576	624651	prompt	n/a	starts aimed prep prints\n
312.906	0.0605	625812	keystroke	s	n/a
313.026	0.09	626052	keystroke	t	n/a
313.176	0.09	626352	keystroke	a	n/a
313.236	0.075	626472	keystroke	r	n/a
313.416	0.06	626832	keystroke	t	n/a
313.491	0.0895	626982	keystroke	s	n/a
313.686	0.12	627372	keystroke	Key.space	n/a
313.836	0.09	627672	keystroke	a	n/a
313.911	0.105	627822	keystroke	i	n/a
314.091	0.1045	628182	keystroke	m	n/a
314.1805	0.0605	628361	keystroke	e	n/a
314.346	0.075	628692	keystroke	d	n/a
314.421	0.135	628842	keystroke	Key.space	n/a
317.571	0.12	635142	keystroke	r	n/a
317.661	0.1195	635322	keystroke	e	n/a
317.976	0.061	635952	keystroke	Key.backspace	n/a
318.0955	0.0455	636191	keystroke	Key.backspace	n/a
318.3805	0.0605	636761	keystroke	p	n/a
318.516	0.135	637032	keystroke	r	n/a
318.636	0.105	637272	keystroke	e	n/a
318.771	0.09	637542	keystroke	p	n/a
318.876	0.1045	637752	keystroke	Key.space	n/a
319.2065	0.1045	638413	keystroke	p	n/a
319.2955	0.0905	638591	keystroke	r	n/a
319.446	0.075	638892	keystroke	i	n/a
319.476	0.105	638952	keystroke	n	n/a
319.536	0.105	639072	keystroke	t	n/a
319.716	0.12	639432	keystroke	s	n/a
319.821	0.075	639642	keystroke	Key.enter	n/a
319.902	7.57	639804	prompt	n/a	jeff prepaid what've peaceful\n
320.556	0.06	641112	keystroke	j	n/a
320.661	0.075	641322	keystroke	e	n/a
320.796	0.09	641592	keystroke	f	n/a
320.961	0.075	641922	keystroke	f	n/a
321.051	0.09	642102	keystroke	Key.space	n/a
321.186	0.075	642372	keystroke	p	n/a
321.2465	0.134	642493	keystroke	r	n/a
321.351	0.083	642702	keystroke	e	n/a
321.521	0.0705	643042	keystroke	p	n/a
321.6365	0.0895	643273	keystroke	a	n/a
321.7565	0.09	643513	keystroke	i	n/a
321.861	0.0905	643722	keystroke	d	n/a
321.9665	0.135	643933	keystroke	Key.space	n/a
322.1615	0.075	644323	keystroke	w	n/a
322.2365	0.0895	644473	keystroke	h	n/a
322.3565	0.1045	644713	keystroke	a	n/a
322.4465	0.0745	644893	keystroke	t	n/a
322.581	0.0905	645162	keystroke	'	n/a
322.7615	0.105	645523	keystroke	v	n/a
322.881	0.1055	645762	keystroke	e	n/a
323.0615	0.1495	646123	keystroke	Key.space	n/a
323.361	0.075	646722	keystroke	p	n/a
323.451	0.105	646902	keystroke	r	n/a
323.5265	0.09	647053	keystroke	e	n/a
323.6915	0.1195	647383	keystroke	a	n/a
323.8565	0.1495	647713	keystroke	c	n/a
324.201	0.1055	648402	keystroke	e	n/a
324.6805	0.061	649361	keystroke	Key.backspace	n/a
324.801	0.06	649602	keystroke	Key.backspace	n/a
324.951	0.0445	649902	keystroke	Key.backspace	n/a
325.116	0.045	650232	keystroke	Key.backspace	n/a
325.266	0.06	650532	keystroke	Key.backspace	n/a
325.5805	0.0605	651161	keystroke	e	n/a
325.7315	0.1045	651463	keystroke	a	n/a
325.911	0.09	651822	keystroke	c	n/a
326.286	0.075	652572	keystroke	e	n/a
326.631	0.075	653262	keystroke	f	n/a
326.826	0.075	653652	keystroke	u	n/a
326.976	0.0755	653952	keystroke	l	n/a
327.3805	0.0905	654761	keystroke	Key.enter	n/a
327.476	8.906	654952	prompt	n/a	match wear cathedral involving\n
328.071	0.09	656142	keystroke	m	n/a
328.146	0.06	656292	keystroke	a	n/a
328.236	0.0595	656472	keystroke	t	n/a
328.416	0.12	656832	keystroke	c	n/a
328.506	0.105	657012	keystroke	h	n/a
328.626	0.105	657252	keystroke	Key.space	n/a
328.746	0.105	657492	keystroke	w	n/a
329.0915	0.1345	658183	keystroke	e	n/a
329.241	0.1195	658482	keystroke	a	n/a
329.316	0.09	658632	keystroke	r	n/a
329.436	0.135	658872	keystroke	Key.space	n/a
332.6165	0.0895	665233	keystroke	c	n/a
332.706	0.1205	665412	keystroke	a	n/a
332.811	0.09	665622	keystroke	t	n/a
333.2615	0.0895	666523	keystroke	h	n/a
333.5015	0.075	667003	keystroke	e	n/a
333.681	0.09	667362	keystroke	d	n/a
333.8615	0.105	667723	keystroke	r	n/a
333.996	0.1055	667992	keystroke	a	n/a
334.191	0.1205	668382	keystroke	l	n/a
334.221	0.135	668442	keystroke	Key.space	n/a
334.521	0.1205	669042	keystroke	i	n/a
334.596	0.0905	669192	keystroke	n	n/a
334.6865	0.09	669373	keystroke	v	n/a
334.7915	0.075	669583	keystroke	o	n/a
334.9865	0.06	669973	keystroke	l	n/a
335.6015	0.0895	671203	keystroke	v	n/a
335.781	0.12	671562	keystroke	i	n/a
335.8565	0.105	671713	keystroke	n	n/a
335.917	0.0895	671834	keystroke	g	n/a
336.3065	0.0745	672613	keystroke	Key.enter	n/a
336.385	10.3325	672770	prompt	n/a	correct syndication investigated testing\n
336.996	0.0755	673992	keystroke	c	n/a
337.0865	0.075	674173	keystroke	o	n/a
337.1765	0.045	674353	keystroke	r	n/a
337.296	0.1055	674592	keystroke	r	n/a
337.3715	0.09	674743	keystroke	e	n/a
337.5215	0.0745	675043	keystroke	c	n/a
337.6565	0.075	675313	keystroke	t	n/a
337.7465	0.105	675493	keystroke	Key.space	n/a
337.8665	0.06	675733	keystroke	s	n/a
337.9415	0.06	675883	keystroke	y	n/a
338.1065	0.0745	676213	keystroke	n	n/a
338.152	0.0745	676304	keystroke	d	n/a
338.2565	0.075	676513	keystroke	i	n/a
338.3465	0.105	676693	keystroke	c	n/a
338.4665	0.12	676933	keystroke	a	n/a
338.5715	0.09	677143	keystroke	t	n/a
338.7065	0.18	677413	keystroke	i	n/a
338.7665	0.15	677533	keystroke	o	n/a
338.8415	0.1045	677683	keystroke	n	n/a
338.9315	0.06	677863	keystroke	Key.space	n/a
343.416	0.0905	686832	keystroke	i	n/a
343.4765	0.09	686953	keystroke	n	n/a
343.5215	0.12	687043	keystroke	v	n/a
343.6565	0.075	687313	keystroke	e	n/a
343.7915	0.075	687583	keystroke	s	n/a
343.896	0.0755	687792	keystroke	t	n/a
344.0315	0.09	688063	keystroke	i	n/a
344.1065	0.12	688213	keystroke	g	n/a
344.2265	0.18	688453	keystroke	a	n/a
344.3615	0.1195	688723	keystroke	t	n/a
344.4365	0.105	688873	keystroke	e	n/a
344.6165	0.1045	689233	keystroke	d	n/a
344.7365	0.1205	689473	keystroke	Key.space	n/a
344.857	0.1195	689714	keystroke	t	n/a
344.9465	0.105	689893	keystroke	e	n/a
345.0665	0.105	690133	keystroke	s	n/a
345.1265	0.105	690253	keystroke	t	n/a
345.381	0.1055	690762	keystroke	n	n/a
345.5165	0.12	691033	keystroke	g	n/a
345.8165	0.06	691633	keystroke	Key.backspace	n/a
345.9365	0.0445	691873	keystroke	Key.backspace	n/a
346.1165	0.12	692233	keystroke	i	n/a
346.1915	0.075	692383	keystroke	n	n/a
346.3415	0.09	692683	keystroke	g	n/a
346.641	0.0755	693282	keystroke	Key.enter	n/a
346.72	5.0975	693440	prompt	n/a	sucking simply ones beliefs\n
347.3165	0.09	694633	keystroke	s	n/a
347.4215	0.09	694843	keystroke	u	n/a
347.5565	0.12	695113	keystroke	c	n/a
347.6615	0.075	695323	keystroke	k	n/a
347.8115	0.12	695623	keystroke	i	n/a
347.8865	0.09	695773	keystroke	n	n/a
348.0215	0.0745	696043	keystroke	g	n/a
348.081	0.1205	696162	keystroke	Key.space	n/a
348.2165	0.075	696433	keystroke	s	n/a
348.981	0.1355	697962	keystroke	i	n/a
349.1015	0.135	698203	keystroke	m	n/a
349.206	0.1355	698412	keystroke	p	n/a
349.5065	0.195	699013	keystroke	l	n/a
349.6415	0.09	699283	keystroke	y	n/a
349.7765	0.1195	699553	keystroke	Key.space	n/a
350.1365	0.105	700273	keystroke	o	n/a
350.2115	0.105	700423	keystroke	n	n/a
350.2715	0.075	700543	keystroke	e	n/a
350.4365	0.0745	700873	keystroke	s	n/a
350.5715	0.107	701143	keystroke	Key.space	n/a
350.7215	0.0745	701443	keystroke	b	n/a
350.8715	0.09	701743	keystroke	e	n/a
350.9765	0.12	701953	keystroke	l	n/a
351.0515	0.105	702103	keystroke	i	n/a
351.126	0.1205	702252	keystroke	e	n/a
351.3515	0.12	702703	keystroke	f	n/a
351.5765	0.09	703153	keystroke	s	n/a
351.7265	0.09	703453	keystroke	Key.enter	n/a
351.8205	8.3215	703641	prompt	n/a	stream assists wilderness profits\n
352.4165	0.06	704833	keystroke	s	n/a
352.4765	0.09	704953	keystroke	t	n/a
352.7015	0.12	705403	keystroke	r	n/a
352.7915	0.12	705583	keystroke	e	n/a
352.9565	0.105	705913	keystroke	a	n/a
353.0915	0.135	706183	keystroke	m	n/a
353.2115	0.12	706423	keystroke	Key.space	n/a
353.3465	0.12	706693	keystroke	a	n/a
353.4515	0.105	706903	keystroke	s	n/a
353.6315	0.09	707263	keystroke	s	n/a
353.7065	0.09	707413	keystroke	i	n/a
353.8415	0.135	707683	keystroke	s	n/a
353.9615	0.105	707923	keystroke	t	n/a
354.1265	0.09	708253	keystroke	s	n/a
354.2765	0.1045	708553	keystroke	Key.space	n/a
356.886	0.0905	713772	keystroke	w	n/a
356.9615	0.09	713923	keystroke	i	n/a
357.096	0.1055	714192	keystroke	l	n/a
357.1565	0.0755	714313	keystroke	d	n/a
357.7115	0.075	715423	keystroke	e	n/a
357.7565	0.075	715513	keystroke	r	n/a
357.9515	0.09	715903	keystroke	n	n/a
358.0565	0.0605	716113	keystroke	e	n/a
358.2065	0.0745	716413	keystroke	s	n/a
358.3565	0.09	716713	keystroke	s	n/a
358.4765	0.1195	716953	keystroke	Key.space	n/a
358.881	0.1055	717762	keystroke	p	n/a
359.017	0.0595	718034	keystroke	r	n/a
359.0915	0.1045	718183	keystroke	o	n/a
359.2565	0.09	718513	keystroke	f	n/a
359.6315	0.09	719263	keystroke	i	n/a
359.7515	0.0905	719503	keystroke	t	n/a
359.9315	0.105	719863	keystroke	s	n/a
360.0515	0.09	720103	keystroke	Key.enter	n/a
360.145	10.393	720290	prompt	n/a	pizza default tree beginning\n
360.8165	0.1205	721633	keystroke	p	n/a
360.981	0.1055	721962	keystroke	i	n/a
361.7165	0.105	723433	keystroke	z	n/a
361.896	0.0755	723792	keystroke	z	n/a
362.0465	0.105	724093	keystroke	a	n/a
362.196	0.1205	724392	keystroke	Key.space	n/a
362.7515	0.0445	725503	keystroke	d	n/a
362.8565	0.075	725713	keystroke	e	n/a
362.9765	0.1195	725953	keystroke	f	n/a
363.1415	0.09	726283	keystroke	a	n/a
363.2915	0.135	726583	keystroke	u	n/a
363.411	0.1055	726822	keystroke	l	n/a
363.5015	0.075	727003	keystroke	t	n/a
363.6065	0.12	727213	keystroke	Key.space	n/a
363.711	0.0605	727422	keystroke	t	n/a
363.8615	0.105	727723	keystroke	r	n/a
363.9215	0.09	727843	keystroke	e	n/a
364.1015	0.105	728203	keystroke	e	n/a
368.452	0.0595	736904	keystroke	b	n/a
368.587	0.0595	737174	keystroke	e	n/a
368.887	0.0445	737774	keystroke	Key.backspace	n/a
368.992	0.075	737984	keystroke	Key.backspace	n/a
369.0965	0.094	738193	keystroke	Key.space	n/a
369.1905	0.071	738381	keystroke	b	n/a
369.3215	0.0745	738643	keystroke	e	n/a
369.457	0.0755	738914	keystroke	g	n/a
369.622	0.0595	739244	keystroke	i	n/a
369.7865	0.045	739573	keystroke	n	n/a
369.9815	0.0145	739963	keystroke	n	n/a
370.132	0.149	740264	keystroke	i	n/a
370.222	0.119	740444	keystroke	n	n/a
370.357	0.0595	740714	keystroke	g	n/a
370.4315	0.105	740863	keystroke	Key.enter	n/a
370.542	5.726	741084	prompt	n/a	edit forgotten voluntary courier\n
371.1965	0.0755	742393	keystroke	e	n/a
371.3915	0.06	742783	keystroke	d	n/a
371.4965	0.105	742993	keystroke	i	n/a
371.6015	0.0605	743203	keystroke	t	n/a
371.6775	0.1495	743355	keystroke	Key.space	n/a
371.9395	0.0535	743879	keystroke	f	n/a
372.007	0.0895	744014	keystroke	o	n/a
372.0965	0.0605	744193	keystroke	r	n/a
372.412	0.0595	744824	keystroke	g	n/a
372.517	0.075	745034	keystroke	o	n/a
372.622	0.0595	745244	keystroke	t	n/a
372.742	0.0895	745484	keystroke	t	n/a
372.907	0.0745	745814	keystroke	e	n/a
372.9975	0.119	745995	keystroke	n	n/a
373.102	0.135	746204	keystroke	Key.space	n/a
373.417	0.0895	746834	keystroke	v	n/a
373.492	0.045	746984	keystroke	o	n/a
373.628	0.1785	747256	keystroke	l	n/a
373.703	0.0905	747406	keystroke	u	n/a
373.927	0.0895	747854	keystroke	n	n/a
374.032	0.09	748064	keystroke	t	n/a
374.227	0.12	748454	keystroke	a	n/a
374.302	0.12	748604	keystroke	r	n/a
374.5115	0.0905	749023	keystroke	y	n/a
374.6625	0.1045	749325	keystroke	Key.space	n/a
375.3405	0.1315	750681	keystroke	c	n/a
375.457	0.18	750914	keystroke	o	n/a
375.547	0.12	751094	keystroke	u	n/a
375.6815	0.1055	751363	keystroke	r	n/a
375.8475	0.1045	751695	keystroke	i	n/a
375.937	0.1495	751874	keystroke	e	n/a
376.072	0.09	752144	keystroke	r	n/a
376.162	0.105	752324	keystroke	Key.enter	n/a
376.2715	6.221	752543	prompt	n/a	throwing smooth capture patient\n
377.302	0.075	754604	keystroke	t	n/a
377.377	0.09	754754	keystroke	h	n/a
377.482	0.09	754964	keystroke	r	n/a
377.604	0.0595	755208	keystroke	o	n/a
378.262	0.045	756524	keystroke	Key.backspace	n/a
378.712	0.09	757424	keystroke	o	n/a
378.847	0.075	757694	keystroke	w	n/a
378.967	0.165	757934	keystroke	i	n/a
379.1065	0.1005	758213	keystroke	n	n/a
379.222	0.0445	758444	keystroke	g	n/a
379.2815	0.1205	758563	keystroke	Key.space	n/a
379.417	0.0745	758834	keystroke	s	n/a
379.477	0.1195	758954	keystroke	m	n/a
379.552	0.0745	759104	keystroke	o	n/a
379.7325	0.089	759465	keystroke	o	n/a
379.8515	0.09	759703	keystroke	t	n/a
379.957	0.105	759914	keystroke	h	n/a
380.107	0.12	760214	keystroke	Key.space	n/a
380.5565	0.135	761113	keystroke	c	n/a
380.647	0.1205	761294	keystroke	a	n/a
380.752	0.12	761504	keystroke	p	n/a
380.932	0.075	761864	keystroke	t	n/a
381.037	0.0595	762074	keystroke	u	n/a
381.1415	0.105	762283	keystroke	r	n/a
381.2175	0.074	762435	keystroke	e	n/a
381.352	0.135	762704	keystroke	Key.space	n/a
381.637	0.09	763274	keystroke	p	n/a
381.7115	0.0755	763423	keystroke	a	n/a
381.817	0.1045	763634	keystroke	t	n/a
381.9365	0.075	763873	keystroke	i	n/a
382.0415	0.09	764083	keystroke	e	n/a
382.177	0.09	764354	keystroke	n	n/a
382.2965	0.09	764593	keystroke	t	n/a
382.402	0.0895	764804	keystroke	Key.enter	n/a
382.4955	5.0225	764991	prompt	n/a	danish parameter addressed thinkpad\n
383.137	0.09	766274	keystroke	d	n/a
383.272	0.107	766544	keystroke	a	n/a
383.4075	0.1045	766815	keystroke	n	n/a
383.602	0.09	767204	keystroke	i	n/a
383.737	0.12	767474	keystroke	s	n/a
383.842	0.105	767684	keystroke	h	n/a
383.932	0.135	767864	keystroke	Key.space	n/a
384.127	0.105	768254	keystroke	p	n/a
384.217	0.12	768434	keystroke	a	n/a
384.307	0.0895	768614	keystroke	r	n/a
384.4115	0.1205	768823	keystroke	a	n/a
384.547	0.105	769094	keystroke	m	n/a
384.637	0.09	769274	keystroke	e	n/a
384.757	0.09	769514	keystroke	t	n/a
384.922	0.09	769844	keystroke	e	n/a
384.9815	0.0755	769963	keystroke	r	n/a
385.072	0.105	770144	keystroke	Key.space	n/a
385.132	0.105	770264	keystroke	a	n/a
385.267	0.0765	770534	keystroke	d	n/a
385.432	0.075	770864	keystroke	d	n/a
385.567	0.1045	771134	keystroke	r	n/a
385.627	0.0595	771254	keystroke	e	n/a
385.747	0.075	771494	keystroke	s	n/a
385.927	0.12	771854	keystroke	s	n/a
386.017	0.09	772034	keystroke	e	n/a
386.1965	0.0915	772393	keystroke	d	n/a
386.3165	0.106	772633	keystroke	Key.space	n/a
386.4385	0.0885	772877	keystroke	t	n/a
386.512	0.0895	773024	keystroke	h	n/a
386.572	0.075	773144	keystroke	i	n/a
386.692	0.1045	773384	keystroke	n	n/a
386.7815	0.1055	773563	keystroke	k	n/a
387.052	0.06	774104	keystroke	p	n/a
387.127	0.12	774254	keystroke	a	n/a
387.277	0.1045	774554	keystroke	d	n/a
387.427	0.09	774854	keystroke	Key.enter	n/a
387.5215	5.323	775043	prompt	n/a	garlic save sandy arbor\n
388.327	0.06	776654	keystroke	g	n/a
388.462	0.075	776924	keystroke	a	n/a
388.523	0.0735	777046	keystroke	r	n/a
389.287	0.12	778574	keystroke	l	n/a
389.362	0.09	778724	keystroke	i	n/a
389.4965	0.1205	778993	keystroke	c	n/a
389.632	0.105	779264	keystroke	Key.space	n/a
389.752	0.075	779504	keystroke	s	n/a
389.917	0.105	779834	keystroke	a	n/a
389.977	0.1645	779954	keystroke	v	n/a
390.1415	0.0605	780283	keystroke	e	n/a
390.2315	0.15	780463	keystroke	Key.space	n/a
390.427	0.12	780854	keystroke	s	n/a
390.607	0.0895	781214	keystroke	a	n/a
390.727	0.105	781454	keystroke	n	n/a
390.967	0.075	781934	keystroke	d	n/a
391.087	0.105	782174	keystroke	y	n/a
391.208	0.134	782416	keystroke	Key.space	n/a
391.522	0.12	783044	keystroke	a	n/a
391.7615	0.0605	783523	keystroke	r	n/a
391.972	0.075	783944	keystroke	b	n/a
392.0935	0.103	784187	keystroke	o	n/a
392.227	0.15	784454	keystroke	r	n/a
392.737	0.106	785474	keystroke	Key.enter	n/a
392.8485	7.9145	785697	prompt	n/a	void katie bedding brass\n
393.532	0.105	787064	keystroke	v	n/a
393.652	0.1055	787304	keystroke	o	n/a
393.802	0.142	787604	keystroke	i	n/a
393.9295	0.098	787859	keystroke	d	n/a
394.0115	0.1355	788023	keystroke	Key.space	n/a
394.2815	0.0905	788563	keystroke	k	n/a
394.402	0.09	788804	keystroke	a	n/a
394.567	0.09	789134	keystroke	t	n/a
394.732	0.075	789464	keystroke	i	n/a
394.822	0.1055	789644	keystroke	e	n/a
394.942	0.137	789884	keystroke	Key.space	n/a
395.2275	0.059	790455	keystroke	b	n/a
395.392	0.075	790784	keystroke	e	n/a
395.602	0.076	791204	keystroke	d	n/a
395.7675	0.0745	791535	keystroke	d	n/a
396.2325	0.149	792465	keystroke	i	n/a
396.352	0.15	792704	keystroke	n	n/a
396.457	0.0895	792914	keystroke	g	n/a
396.577	0.1195	793154	keystroke	Key.space	n/a
399.232	0.06	798464	keystroke	b	n/a
399.427	0.09	798854	keystroke	r	n/a
400.162	0.09	800324	keystroke	a	n/a
400.3865	0.0605	800773	keystroke	s	n/a
400.537	0.09	801074	keystroke	s	n/a
400.672	0.09	801344	keystroke	Key.enter	n/a
400.7655	8.9525	801531	prompt	n/a	absolute reliance processed furnishings\n
401.407	0.1045	802814	keystroke	a	n/a
401.587	0.0895	803174	keystroke	b	n/a
401.737	0.12	803474	keystroke	s	n/a
401.842	0.06	803684	keystroke	o	n/a
401.992	0.135	803984	keystroke	l	n/a
402.0815	0.0755	804163	keystroke	u	n/a
402.217	0.1495	804434	keystroke	t	n/a
402.337	0.09	804674	keystroke	e	n/a
402.457	0.12	804914	keystroke	Key.space	n/a
402.577	0.1195	805154	keystroke	r	n/a
402.637	0.105	805274	keystroke	e	n/a
402.772	0.12	805544	keystroke	l	n/a
402.922	0.135	805844	keystroke	i	n/a
403.042	0.09	806084	keystroke	a	n/a
403.162	0.1195	806324	keystroke	n	n/a
403.267	0.12	806534	keystroke	c	n/a
403.327	0.09	806654	keystroke	e	n/a
403.432	0.105	806864	keystroke	Key.space	n/a
403.7175	0.0895	807435	keystroke	p	n/a
404.557	0.06	809114	keystroke	r	n/a
404.632	0.075	809264	keystroke	o	n/a
404.857	0.12	809714	keystroke	c	n/a
404.932	0.075	809864	keystroke	e	n/a
405.0965	0.0755	810193	keystroke	s	n/a
405.292	0.0895	810584	keystroke	s	n/a
405.367	0.045	810734	keystroke	e	n/a
405.5165	0.0905	811033	keystroke	d	n/a
405.667	0.12	811334	keystroke	Key.space	n/a
406.5965	0.0455	813193	keystroke	f	n/a
407.0925	0.0445	814185	keystroke	u	n/a
407.1965	0.0455	814393	keystroke	r	n/a
407.302	0.09	814604	keystroke	n	n/a
407.4815	0.1205	814963	keystroke	i	n/a
407.632	0.12	815264	keystroke	s	n/a
407.767	0.075	815534	keystroke	h	n/a
407.857	0.15	815714	keystroke	i	n/a
407.947	0.1055	815894	keystroke	n	n/a
408.052	0.0595	816104	keystroke	g	n/a
408.247	0.075	816494	keystroke	s	n/a
408.457	0.06	816914	keystroke	Key.backspace	n/a
408.592	0.075	817184	keystroke	Key.backspace	n/a
408.757	0.06	817514	keystroke	Key.backspace	n/a
408.892	0.075	817784	keystroke	Key.backspace	n/a
409.117	0.075	818234	keystroke	i	n/a
409.237	0.1045	818474	keystroke	n	n/a
409.402	0.105	818804	keystroke	g	n/a
409.477	0.09	818954	keystroke	s	n/a
409.657	0.06	819314	keystroke	Key.enter	n/a
409.7225	9.1155	819445	prompt	n/a	affecting jane musicians approved\n
410.257	0.1045	820514	keystroke	a	n/a
410.407	0.0745	820814	keystroke	f	n/a
410.587	0.075	821174	keystroke	f	n/a
410.6315	0.0905	821263	keystroke	e	n/a
410.7965	0.0905	821593	keystroke	c	n/a
410.962	0.09	821924	keystroke	t	n/a
411.067	0.1205	822134	keystroke	i	n/a
411.157	0.1195	822314	keystroke	n	n/a
411.292	0.06	822584	keystroke	g	n/a
411.3815	0.1055	822763	keystroke	Key.space	n/a
411.607	0.06	823214	keystroke	j	n/a
411.667	0.09	823334	keystroke	a	n/a
411.787	0.105	823574	keystroke	n	n/a
411.9065	0.0455	823813	keystroke	e	n/a
411.9965	0.0905	823993	keystroke	Key.space	n/a
415.612	0.03	831224	keystroke	m	n/a
415.717	0.076	831434	keystroke	u	n/a
415.7615	0.1055	831523	keystroke	s	n/a
415.8815	0.0605	831763	keystroke	i	n/a
415.972	0.105	831944	keystroke	c	n/a
416.062	0.075	832124	keystroke	i	n/a
416.152	0.105	832304	keystroke	a	n/a
416.302	0.0895	832604	keystroke	n	n/a
416.437	0.105	832874	keystroke	s	n/a
416.557	0.09	833114	keystroke	Key.space	n/a
416.947	0.0745	833894	keystroke	a	n/a
417.0815	0.0905	834163	keystroke	p	n/a
417.202	0.12	834404	keystroke	p	n/a
417.6815	0.0755	835363	keystroke	r	n/a
417.787	0.105	835574	keystroke	o	n/a
418.252	0.12	836504	keystroke	v	n/a
418.357	0.075	836714	keystroke	e	n/a
418.537	0.0595	837074	keystroke	d	n/a
418.747	0.09	837494	keystroke	Key.enter	n/a
418.841	8.863	837682	prompt	n/a	interested submitting endif prints\n
419.4965	0.1205	838993	keystroke	i	n/a
419.6015	0.1055	839203	keystroke	n	n/a
419.662	0.075	839324	keystroke	t	n/a
419.812	0.09	839624	keystroke	e	n/a
419.872	0.135	839744	keystroke	r	n/a
419.977	0.09	839954	keystroke	e	n/a
420.1125	0.15	840225	keystroke	s	n/a
420.277	0.09	840554	keystroke	t	n/a
420.322	0.0905	840644	keystroke	e	n/a
420.532	0.105	841064	keystroke	d	n/a
420.6965	0.0905	841393	keystroke	Key.space	n/a
421.087	0.105	842174	keystroke	s	n/a
421.207	0.06	842414	keystroke	u	n/a
421.2965	0.0905	842593	keystroke	b	n/a
421.402	0.135	842804	keystroke	m	n/a
421.5065	0.0605	843013	keystroke	i	n/a
421.627	0.045	843254	keystroke	t	n/a
421.762	0.06	843524	keystroke	t	n/a
421.807	0.15	843614	keystroke	i	n/a
421.912	0.135	843824	keystroke	n	n/a
421.972	0.075	843944	keystroke	g	n/a
422.107	0.1045	844214	keystroke	Key.space	n/a
425.767	0.06	851534	keystroke	e	n/a
426.022	0.12	852044	keystroke	n	n/a
426.0965	0.091	852193	keystroke	d	n/a
426.247	0.06	852494	keystroke	i	n/a
426.457	0.045	852914	keystroke	f	n/a
426.562	0.09	853124	keystroke	Key.space	n/a
426.772	0.09	853544	keystroke	p	n/a
426.877	0.06	853754	keystroke	r	n/a
426.9675	0.1345	853935	keystroke	i	n/a
427.057	0.105	854114	keystroke	n	n/a
427.117	0.09	854234	keystroke	t	n/a
427.3265	0.0755	854653	keystroke	s	n/a
427.642	0.0605	855284	keystroke	Key.enter	n/a
427.7075	8.096	855415	prompt	n/a	bell geology trademarks banking\n
428.377	0.076	856754	keystroke	b	n/a
428.527	0.09	857054	keystroke	e	n/a
428.632	0.075	857264	keystroke	l	n/a
428.782	0.135	857564	keystroke	l	n/a
428.902	0.135	857804	keystroke	Key.space	n/a
429.157	0.075	858314	keystroke	g	n/a
429.277	0.09	858554	keystroke	e	n/a
429.427	0.045	858854	keystroke	l	n/a
430.0125	0.0445	860025	keystroke	Key.backspace	n/a
430.192	0.075	860384	keystroke	o	n/a
430.3425	0.0595	860685	keystroke	l	n/a
430.4765	0.0905	860953	keystroke	o	n/a
430.5815	0.0755	861163	keystroke	g	n/a
430.6875	0.0895	861375	keystroke	y	n/a
430.987	0.0905	861974	keystroke	Key.space	n/a
431.227	0.03	862454	keystroke	i	n/a
431.4965	0.0605	862993	keystroke	t	n/a
431.5875	0.0745	863175	keystroke	Key.backspace	n/a
431.7665	0.0605	863533	keystroke	r	n/a
431.947	0.045	863894	keystroke	Key.backspace	n/a
432.0675	0.0595	864135	keystroke	Key.backspace	n/a
432.442	0.045	864884	keystroke	t	n/a
432.547	0.09	865094	keystroke	r	n/a
432.607	0.12	865214	keystroke	a	n/a
432.757	0.06	865514	keystroke	d	n/a
432.877	0.075	865754	keystroke	e	n/a
433.087	0.1205	866174	keystroke	m	n/a
433.177	0.12	866354	keystroke	a	n/a
433.267	0.06	866534	keystroke	r	n/a
433.357	0.135	866714	keystroke	k	n/a
433.5075	0.1195	867015	keystroke	s	n/a
433.747	0.105	867494	keystroke	Key.space	n/a
434.5875	0.0745	869175	keystroke	b	n/a
434.737	0.0445	869474	keystroke	a	n/a
434.812	0.1055	869624	keystroke	n	n/a
434.917	0.0755	869834	keystroke	k	n/a
435.067	0.135	870134	keystroke	i	n/a
435.1575	0.1045	870315	keystroke	n	n/a
435.232	0.0755	870464	keystroke	g	n/a
435.712	0.09	871424	keystroke	Key.enter	n/a
435.8075	7.1805	871615	prompt	n/a	wellness nothing display double\n
436.477	0.1045	872954	keystroke	w	n/a
436.5675	0.1045	873135	keystroke	e	n/a
436.717	0.06	873434	keystroke	l	n/a
436.8815	0.0455	873763	keystroke	l	n/a
437.002	0.09	874004	keystroke	n	n/a
437.077	0.0755	874154	keystroke	e	n/a
437.227	0.0755	874454	keystroke	s	n/a
437.377	0.075	874754	keystroke	s	n/a
437.467	0.105	874934	keystroke	Key.space	n/a
437.692	0.0895	875384	keystroke	n	n/a
437.797	0.105	875594	keystroke	o	n/a
437.947	0.105	875894	keystroke	t	n/a
438.037	0.1045	876074	keystroke	h	n/a
438.187	0.15	876374	keystroke	i	n/a
438.262	0.1195	876524	keystroke	n	n/a
438.367	0.075	876734	keystroke	g	n/a
438.457	0.105	876914	keystroke	Key.space	n/a
438.637	0.0445	877274	keystroke	d	n/a
438.8775	0.1495	877755	keystroke	i	n/a
439.0125	0.1195	878025	keystroke	s	n/a
439.522	0.1055	879044	keystroke	p	n/a
439.672	0.105	879344	keystroke	a	n/a
439.807	0.1055	879614	keystroke	l	n/a
440.032	0.075	880064	keystroke	y	n/a
440.287	0.06	880574	keystroke	Key.backspace	n/a
440.392	0.06	880784	keystroke	Key.backspace	n/a
440.527	0.06	881054	keystroke	Key.backspace	n/a
440.707	0.147	881414	keystroke	l	n/a
440.854	0.063	881708	keystroke	a	n/a
440.9475	0.0895	881895	keystroke	y	n/a
441.2625	0.119	882525	keystroke	Key.space	n/a
441.712	0.09	883424	keystroke	d	n/a
441.8925	0.089	883785	keystroke	o	n/a
441.9525	0.1345	883905	keystroke	u	n/a
442.132	0.105	884264	keystroke	b	n/a
442.6265	0.1055	885253	keystroke	l	n/a
442.747	0.06	885494	keystroke	e	n/a
442.8815	0.1055	885763	keystroke	Key.enter	n/a
442.991	6.6125	885982	prompt	n/a	uganda commitment providers interested\n
443.812	0.075	887624	keystroke	u	n/a
443.932	0.06	887864	keystroke	g	n/a
444.0225	0.0895	888045	keystroke	a	n/a
444.172	0.09	888344	keystroke	n	n/a
444.292	0.075	888584	keystroke	d	n/a
444.3975	0.1045	888795	keystroke	a	n/a
444.562	0.12	889124	keystroke	Key.space	n/a
445.0275	0.1345	890055	keystroke	c	n/a
445.042	0.09	890084	keystroke	o	n/a
445.222	0.0595	890444	keystroke	m	n/a
445.357	0.1055	890714	keystroke	m	n/a
445.432	0.075	890864	keystroke	i	n/a
445.522	0.0455	891044	keystroke	t	n/a
445.687	0.09	891374	keystroke	m	n/a
445.807	0.0745	891614	keystroke	e	n/a
445.897	0.09	891794	keystroke	n	n/a
446.0025	0.0745	892005	keystroke	t	n/a
446.107	0.105	892214	keystroke	Key.space	n/a
446.467	0.105	892934	keystroke	p	n/a
446.5575	0.0595	893115	keystroke	r	n/a
446.632	0.0905	893264	keystroke	o	n/a
446.737	0.105	893474	keystroke	v	n/a
446.8875	0.1045	893775	keystroke	i	n/a
446.977	0.0755	893954	keystroke	d	n/a
447.127	0.106	894254	keystroke	e	n/a
447.217	0.09	894434	keystroke	r	n/a
447.382	0.09	894764	keystroke	s	n/a
447.5175	0.1195	895035	keystroke	Key.space	n/a
447.697	0.1205	895394	keystroke	i	n/a
447.7725	0.1045	895545	keystroke	n	n/a
447.847	0.09	895694	keystroke	t	n/a
448.0575	0.105	896115	keystroke	e	n/a
448.4625	0.1345	896925	keystroke	r	n/a
448.627	0.1205	897254	keystroke	e	n/a
448.897	0.1055	897794	keystroke	s	n/a
449.032	0.1205	898064	keystroke	t	n/a
449.1685	0.1035	898337	keystroke	e	n/a
449.3475	0.1205	898695	keystroke	d	n/a
449.497	0.105	898994	keystroke	Key.enter	n/a
449.6065	7.3765	899213	prompt	n/a	hobby lawyers blocking conducting\n
450.487	0.1055	900974	keystroke	h	n/a
450.7275	0.03	901455	keystroke	o	n/a
450.8475	0.0745	901695	keystroke	b	n/a
451.012	0.0905	902024	keystroke	b	n/a
451.0875	0.0895	902175	keystroke	y	n/a
451.2075	0.0895	902415	keystroke	Key.space	n/a
451.4025	0.075	902805	keystroke	l	n/a
451.612	0.0755	903224	keystroke	a	n/a
451.6575	0.12	903315	keystroke	w	n/a
452.0475	0.06	904095	keystroke	y	n/a
452.1675	0.12	904335	keystroke	e	n/a
452.2575	0.12	904515	keystroke	r	n/a
452.4075	0.105	904815	keystroke	s	n/a
452.542	0.1505	905084	keystroke	Key.space	n/a
453.6075	0.0895	907215	keystroke	b	n/a
453.7275	0.06	907455	keystroke	l	n/a
453.8475	0.1345	907695	keystroke	o	n/a
453.997	0.0915	907994	keystroke	c	n/a
454.0575	0.0745	908115	keystroke	k	n/a
454.2375	0.135	908475	keystroke	i	n/a
454.3125	0.12	908625	keystroke	n	n/a
454.4025	0.09	908805	keystroke	g	n/a
454.5225	0.105	909045	keystroke	Key.space	n/a
455.2125	0.075	910425	keystroke	c	n/a
455.2575	0.1345	910515	keystroke	o	n/a
455.3475	0.105	910695	keystroke	n	n/a
455.707	0.075	911414	keystroke	d	n/a
455.8425	0.075	911685	keystroke	u	n/a
456.097	0.1055	912194	keystroke	c	n/a
456.323	0.074	912646	keystroke	t	n/a
456.4725	0.105	912945	keystroke	i	n/a
456.697	0.0905	913394	keystroke	n	n/a
456.773	0.0895	913546	keystroke	g	n/a
456.9075	0.0745	913815	keystroke	Key.enter	n/a
456.9855	4.153	913971	prompt	n/a	broader fall strange cafe\n
457.597	0.0755	915194	keystroke	b	n/a
457.7625	0.105	915525	keystroke	r	n/a
457.8525	0.105	915705	keystroke	o	n/a
457.9425	0.135	915885	keystroke	a	n/a
458.0475	0.105	916095	keystroke	d	n/a
458.258	0.0895	916516	keystroke	e	n/a
458.3175	0.091	916635	keystroke	r	n/a
458.4525	0.12	916905	keystroke	Key.space	n/a
458.5585	0.119	917117	keystroke	f	n/a
458.632	0.1205	917264	keystroke	a	n/a
458.797	0.0615	917594	keystroke	l	n/a
458.9625	0.1195	917925	keystroke	l	n/a
459.097	0.0905	918194	keystroke	Key.space	n/a
459.3225	0.09	918645	keystroke	s	n/a
459.4575	0.075	918915	keystroke	t	n/a
459.6075	0.105	919215	keystroke	r	n/a
459.697	0.0905	919394	keystroke	a	n/a
459.8475	0.105	919695	keystroke	n	n/a
460.0125	0.12	920025	keystroke	g	n/a
460.1025	0.105	920205	keystroke	e	n/a
460.3125	0.075	920625	keystroke	Key.space	n/a
460.4175	0.12	920835	keystroke	c	n/a
460.5225	0.135	921045	keystroke	a	n/a
460.6875	0.135	921375	keystroke	f	n/a
461.062	0.0755	922124	keystroke	Key.enter	n/a
461.1425	13.362	922285	prompt	n/a	careful acrylic gabriel cents\n
462.1725	0.075	924345	keystroke	c	n/a
462.5325	0.135	925065	keystroke	a	n/a
462.6075	0.1045	925215	keystroke	r	n/a
462.9675	0.105	925935	keystroke	e	n/a
463.4775	0.09	926955	keystroke	f	n/a
463.582	0.1055	927164	keystroke	u	n/a
463.7025	0.12	927405	keystroke	l	n/a
463.7925	0.135	927585	keystroke	Key.space	n/a
464.332	0.1205	928664	keystroke	a	n/a
464.407	0.0605	928814	keystroke	c	n/a
464.5725	0.06	929145	keystroke	r	n/a
464.797	0.0905	929594	keystroke	y	n/a
464.9625	0.09	929925	keystroke	l	n/a
465.1575	0.1055	930315	keystroke	i	n/a
465.2475	0.1345	930495	keystroke	c	n/a
465.397	0.1055	930794	keystroke	Key.space	n/a
465.9675	0.09	931935	keystroke	g	n/a
466.0875	0.09	932175	keystroke	a	n/a
466.2225	0.0595	932445	keystroke	b	n/a
466.4775	0.09	932955	keystroke	i	n/a
466.7925	0.045	933585	keystroke	Key.backspace	n/a
466.8375	0.09	933675	keystroke	r	n/a
466.9725	0.077	933945	keystroke	i	n/a
467.5425	0.0595	935085	keystroke	l	n/a
468.1575	0.045	936315	keystroke	Key.backspace	n/a
468.308	0.075	936616	keystroke	e	n/a
468.397	0.0905	936794	keystroke	l	n/a
468.7275	0.09	937455	keystroke	Key.space	n/a
473.6475	0.1495	947295	keystroke	c	n/a
473.782	0.1055	947564	keystroke	e	n/a
473.9775	0.045	947955	keystroke	n	n/a
474.007	0.075	948014	keystroke	t	n/a
474.2625	0.105	948525	keystroke	s	n/a
474.4275	0.0755	948855	keystroke	Key.enter	n/a
474.5075	7.497	949015	prompt	n/a	tutorials ministries tribes graphical\n
476.2575	0.09	952515	keystroke	t	n/a
476.3775	0.0605	952755	keystroke	u	n/a
476.4675	0.105	952935	keystroke	t	n/a
476.9025	0.09	953805	keystroke	o	n/a
477.5325	0.075	955065	keystroke	r	n/a
477.6225	0.0745	955245	keystroke	i	n/a
477.7125	0.105	955425	keystroke	a	n/a
477.8775	0.1045	955755	keystroke	l	n/a
477.997	0.0905	955994	keystroke	s	n/a
478.1025	0.121	956205	keystroke	Key.space	n/a
478.4175	0.105	956835	keystroke	m	n/a
478.5525	0.09	957105	keystroke	i	n/a
478.6575	0.09	957315	keystroke	n	n/a
478.7325	0.105	957465	keystroke	i	n/a
478.8375	0.0595	957675	keystroke	s	n/a
478.9425	0.075	957885	keystroke	t	n/a
479.0775	0.09	958155	keystroke	r	n/a
479.182	0.0755	958364	keystroke	i	n/a
479.2735	0.059	958547	keystroke	e	n/a
479.4375	0.105	958875	keystroke	s	n/a
479.6025	0.12	959205	keystroke	Key.space	n/a
479.797	0.0905	959594	keystroke	t	n/a
479.9775	0.0905	959955	keystroke	r	n/a
480.082	0.0905	960164	keystroke	i	n/a
480.1875	0.105	960375	keystroke	b	n/a
480.382	0.0605	960764	keystroke	e	n/a
480.5175	0.09	961035	keystroke	s	n/a
480.653	0.105	961306	keystroke	Key.space	n/a
480.9075	0.0895	961815	keystroke	g	n/a
481.0725	0.075	962145	keystroke	r	n/a
481.0875	0.1205	962175	keystroke	a	n/a
481.1925	0.135	962385	keystroke	p	n/a
481.282	0.1355	962564	keystroke	h	n/a
481.3875	0.15	962775	keystroke	i	n/a
481.525	0.133	963050	keystroke	c	n/a
481.5825	0.12	963165	keystroke	a	n/a
481.7325	0.0905	963465	keystroke	l	n/a
481.928	0.0745	963856	keystroke	Key.enter	n/a
482.008	6.821	964016	prompt	n/a	doll republican information greeting\n
482.603	0.0595	965206	keystroke	d	n/a
482.6775	0.075	965355	keystroke	o	n/a
482.8725	0.0455	965745	keystroke	l	n/a
483.01	0.103	966020	keystroke	l	n/a
483.082	0.1355	966164	keystroke	Key.space	n/a
483.397	0.0905	966794	keystroke	r	n/a
483.4575	0.075	966915	keystroke	e	n/a
483.548	0.1345	967096	keystroke	p	n/a
483.8475	0.06	967695	keystroke	u	n/a
484.0875	0.06	968175	keystroke	b	n/a
484.4625	0.135	968925	keystroke	l	n/a
484.538	0.1195	969076	keystroke	i	n/a
484.6875	0.12	969375	keystroke	c	n/a
484.7775	0.1045	969555	keystroke	a	n/a
484.912	0.1205	969824	keystroke	n	n/a
485.0925	0.1045	970185	keystroke	Key.space	n/a
485.708	0.1345	971416	keystroke	i	n/a
485.8125	0.12	971625	keystroke	n	n/a
485.948	0.0895	971896	keystroke	f	n/a
486.0225	0.1195	972045	keystroke	o	n/a
486.157	0.0905	972314	keystroke	r	n/a
486.2625	0.1195	972525	keystroke	m	n/a
486.3525	0.135	972705	keystroke	a	n/a
486.4425	0.1055	972885	keystroke	t	n/a
486.533	0.2095	973066	keystroke	i	n/a
486.593	0.135	973186	keystroke	o	n/a
486.6825	0.1195	973365	keystroke	n	n/a
486.818	0.1195	973636	keystroke	Key.space	n/a
486.9675	0.0755	973935	keystroke	g	n/a
487.133	0.1045	974266	keystroke	r	n/a
487.193	0.0745	974386	keystroke	e	n/a
487.478	0.0145	974956	keystroke	e	n/a
487.508	0.0745	975016	keystroke	t	n/a
487.658	0.1495	975316	keystroke	i	n/a
487.8825	0.0905	975765	keystroke	g	n/a
488.378	0.045	976756	keystroke	Key.backspace	n/a
488.5575	0.075	977115	keystroke	n	n/a
488.648	0.09	977296	keystroke	g	n/a
488.7525	0.0755	977505	keystroke	Key.enter	n/a
488.833	8.0805	977666	prompt	n/a	programme graham glenn clicking\n
489.518	0.12	979036	keystroke	p	n/a
489.6225	0.0595	979245	keystroke	r	n/a
489.698	0.1045	979396	keystroke	o	n/a
489.7875	0.1055	979575	keystroke	g	n/a
489.9525	0.1055	979905	keystroke	r	n/a
490.0275	0.09	980055	keystroke	a	n/a
490.2075	0.045	980415	keystroke	m	n/a
490.3275	0.105	980655	keystroke	m	n/a
490.4175	0.09	980835	keystroke	e	n/a
490.5375	0.1045	981075	keystroke	Key.space	n/a
490.7475	0.0455	981495	keystroke	g	n/a
490.973	0.105	981946	keystroke	a	n/a
491.5875	0.06	983175	keystroke	Key.backspace	n/a
491.633	0.1045	983266	keystroke	r	n/a
491.7825	0.135	983565	keystroke	a	n/a
491.9625	0.121	983925	keystroke	g	n/a
492.128	0.1055	984256	keystroke	a	n/a
492.308	0.12	984616	keystroke	m	n/a
492.4425	0.0755	984885	keystroke	Key.space	n/a
492.6975	0.0905	985395	keystroke	g	n/a
492.9675	0.045	985935	keystroke	Key.backspace	n/a
493.0725	0.0755	986145	keystroke	Key.backspace	n/a
493.238	0.0595	986476	keystroke	Key.backspace	n/a
493.403	0.03	986806	keystroke	Key.backspace	n/a
493.5675	0.0455	987135	keystroke	Key.backspace	n/a
493.943	0.0755	987886	keystroke	h	n/a
494.063	0.09	988126	keystroke	a	n/a
494.1975	0.1505	988395	keystroke	m	n/a
494.333	0.12	988666	keystroke	Key.space	n/a
494.558	0.09	989116	keystroke	g	n/a
494.708	0.0895	989416	keystroke	l	n/a
494.813	0.09	989626	keystroke	e	n/a
494.9625	0.0755	989925	keystroke	n	n/a
495.1125	0.0905	990225	keystroke	n	n/a
495.293	0.12	990586	keystroke	Key.space	n/a
495.8625	0.135	991725	keystroke	c	n/a
495.9675	0.1505	991935	keystroke	l	n/a
496.0575	0.1205	992115	keystroke	i	n/a
496.2075	0.12	992415	keystroke	c	n/a
496.313	0.06	992626	keystroke	k	n/a
496.4775	0.135	992955	keystroke	i	n/a
496.5675	0.105	993135	keystroke	n	n/a
496.6875	0.09	993375	keystroke	g	n/a
496.838	0.0745	993676	keystroke	Key.enter	n/a
496.9165	8.5935	993833	prompt	n/a	testimonials wires comparable assault\n
497.648	0.09	995296	keystroke	t	n/a
497.7675	0.12	995535	keystroke	e	n/a
497.9025	0.105	995805	keystroke	s	n/a
497.9925	0.105	995985	keystroke	t	n/a
498.113	0.09	996226	keystroke	i	n/a
498.263	0.075	996526	keystroke	m	n/a
498.9525	0.1055	997905	keystroke	o	n/a
499.073	0.09	998146	keystroke	n	n/a
499.208	0.105	998416	keystroke	i	n/a
499.343	0.09	998686	keystroke	a	n/a
499.463	0.1045	998926	keystroke	l	n/a
499.5825	0.0905	999165	keystroke	s	n/a
500.123	0.0745	1000246	keystroke	Key.space	n/a
501.0975	0.045	1002195	keystroke	w	n/a
501.173	0.075	1002346	keystroke	i	n/a
501.293	0.1045	1002586	keystroke	r	n/a
501.353	0.105	1002706	keystroke	e	n/a
501.548	0.1195	1003096	keystroke	s	n/a
501.6825	0.1055	1003365	keystroke	Key.space	n/a
501.8475	0.15	1003695	keystroke	c	n/a
501.953	0.135	1003906	keystroke	o	n/a
502.043	0.1195	1004086	keystroke	m	n/a
502.133	0.1495	1004266	keystroke	p	n/a
502.328	0.1495	1004656	keystroke	a	n/a
502.463	0.1045	1004926	keystroke	r	n/a
502.5675	0.1805	1005135	keystroke	a	n/a
502.8675	0.1055	1005735	keystroke	b	n/a
503.108	0.0595	1006216	keystroke	l	n/a
503.1825	0.0755	1006365	keystroke	e	n/a
503.288	0.0895	1006576	keystroke	Key.space	n/a
503.618	0.075	1007236	keystroke	s	n/a
504.263	0.09	1008526	keystroke	Key.backspace	n/a
504.3675	0.1205	1008735	keystroke	a	n/a
504.413	0.135	1008826	keystroke	s	n/a
504.638	0.0895	1009276	keystroke	s	n/a
504.848	0.1195	1009696	keystroke	a	n/a
504.9825	0.1355	1009965	keystroke	u	n/a
505.103	0.075	1010206	keystroke	l	n/a
505.208	0.0745	1010416	keystroke	t	n/a
505.448	0.06	1010896	keystroke	Key.enter	n/a
505.516	10.238	1011032	prompt	n/a	association reaches penetration unfortunately\n
508.8825	0.1205	1017765	keystroke	a	n/a
509.0635	0.104	1018127	keystroke	s	n/a
509.258	0.105	1018516	keystroke	s	n/a
509.423	0.0595	1018846	keystroke	o	n/a
509.963	0.1345	1019926	keystroke	c	n/a
510.053	0.075	1020106	keystroke	i	n/a
510.143	0.12	1020286	keystroke	a	n/a
510.248	0.09	1020496	keystroke	t	n/a
510.3825	0.2255	1020765	keystroke	i	n/a
510.4725	0.1355	1020945	keystroke	o	n/a
510.563	0.1195	1021126	keystroke	n	n/a
510.653	0.135	1021306	keystroke	Key.space	n/a
510.833	0.12	1021666	keystroke	r	n/a
510.923	0.135	1021846	keystroke	e	n/a
511.1175	0.1355	1022235	keystroke	a	n/a
511.223	0.135	1022446	keystroke	c	n/a
511.328	0.1065	1022656	keystroke	h	n/a
511.418	0.075	1022836	keystroke	e	n/a
511.539	0.134	1023078	keystroke	s	n/a
511.658	0.1045	1023316	keystroke	Key.space	n/a
511.823	0.12	1023646	keystroke	p	n/a
511.913	0.09	1023826	keystroke	e	n/a
512.048	0.075	1024096	keystroke	n	n/a
512.078	0.0895	1024156	keystroke	e	n/a
512.318	0.0745	1024636	keystroke	t	n/a
512.4825	0.076	1024965	keystroke	r	n/a
512.663	0.075	1025326	keystroke	a	n/a
512.7975	0.0905	1025595	keystroke	t	n/a
512.978	0.195	1025956	keystroke	i	n/a
513.023	0.18	1026046	keystroke	o	n/a
513.188	0.105	1026376	keystroke	n	n/a
513.263	0.1045	1026526	keystroke	Key.space	n/a
513.428	0.06	1026856	keystroke	u	n/a
513.593	0.0895	1027186	keystroke	n	n/a
513.668	0.0895	1027336	keystroke	f	n/a
513.833	0.12	1027666	keystroke	o	n/a
514.028	0.06	1028056	keystroke	r	n/a
514.238	0.0895	1028476	keystroke	t	n/a
514.418	0.1495	1028836	keystroke	u	n/a
514.508	0.165	1029016	keystroke	n	n/a
514.688	0.165	1029376	keystroke	a	n/a
514.778	0.1045	1029556	keystroke	t	n/a
514.8675	0.09	1029735	keystroke	e	n/a
514.973	0.2245	1029946	keystroke	l	n/a
515.093	0.0895	1030186	keystroke	y	n/a
515.678	0.075	1031356	keystroke	Key.enter	n/a
515.757	15.0415	1031514	prompt	n/a	grocery edgar beatles case\n
516.518	0.06	1033036	keystroke	g	n/a
516.6975	0.0605	1033395	keystroke	r	n/a
516.758	0.09	1033516	keystroke	a	n/a
517.463	0.0445	1034926	keystroke	Key.backspace	n/a
517.628	0.075	1035256	keystroke	o	n/a
517.763	0.1195	1035526	keystroke	c	n/a
517.943	0.12	1035886	keystroke	e	n/a
518.048	0.1045	1036096	keystroke	r	n/a
518.1675	0.0905	1036335	keystroke	y	n/a
518.273	0.09	1036546	keystroke	Key.space	n/a
518.423	0.09	1036846	keystroke	e	n/a
518.603	0.12	1037206	keystroke	d	n/a
518.873	0.105	1037746	keystroke	g	n/a
519.158	0.105	1038316	keystroke	a	n/a
519.218	0.09	1038436	keystroke	r	n/a
519.413	0.09	1038826	keystroke	Key.space	n/a
528.8335	0.089	1057667	keystroke	b	n/a
528.9825	0.166	1057965	keystroke	e	n/a
529.148	0.12	1058296	keystroke	a	n/a
529.238	0.075	1058476	keystroke	t	n/a
529.403	0.105	1058806	keystroke	l	n/a
529.508	0.06	1059016	keystroke	e	n/a
529.6285	0.1195	1059257	keystroke	s	n/a
529.778	0.1045	1059556	keystroke	Key.space	n/a
529.8975	0.1505	1059795	keystroke	c	n/a
530.0335	0.1345	1060067	keystroke	a	n/a
530.243	0.135	1060486	keystroke	s	n/a
530.513	0.075	1061026	keystroke	e	n/a
530.723	0.0745	1061446	keystroke	Key.enter	n/a
530.801	5.0555	1061602	prompt	n/a	brokers upgrades briefs until\n
531.398	0.075	1062796	keystroke	b	n/a
531.5785	0.0445	1063157	keystroke	r	n/a
531.638	0.0755	1063276	keystroke	o	n/a
531.773	0.0905	1063546	keystroke	k	n/a
531.8635	0.119	1063727	keystroke	e	n/a
531.938	0.105	1063876	keystroke	r	n/a
532.118	0.135	1064236	keystroke	s	n/a
532.2675	0.0905	1064535	keystroke	Key.space	n/a
532.7185	0.0745	1065437	keystroke	u	n/a
532.7635	0.1345	1065527	keystroke	p	n/a
532.958	0.0605	1065916	keystroke	g	n/a
533.0935	0.1045	1066187	keystroke	r	n/a
533.1825	0.106	1066365	keystroke	a	n/a
533.363	0.09	1066726	keystroke	d	n/a
533.513	0.09	1067026	keystroke	e	n/a
533.693	0.075	1067386	keystroke	s	n/a
533.7985	0.105	1067597	keystroke	Key.space	n/a
533.9035	0.0895	1067807	keystroke	b	n/a
534.0975	0.076	1068195	keystroke	r	n/a
534.218	0.075	1068436	keystroke	i	n/a
534.308	0.09	1068616	keystroke	e	n/a
534.5635	0.0895	1069127	keystroke	f	n/a
534.7285	0.0895	1069457	keystroke	s	n/a
534.9085	0.0895	1069817	keystroke	Key.space	n/a
535.0735	0.0445	1070147	keystroke	u	n/a
535.2385	0.075	1070477	keystroke	n	n/a
535.3435	0.0895	1070687	keystroke	t	n/a
535.5235	0.105	1071047	keystroke	i	n/a
535.5985	0.075	1071197	keystroke	l	n/a
535.749	0.1045	1071498	keystroke	Key.enter	n/a
535.8595	4.5855	1071719	prompt	n/a	cakes person night waves\n
536.468	0.1505	1072936	keystroke	c	n/a
536.5885	0.1195	1073177	keystroke	a	n/a
536.723	0.1205	1073446	keystroke	k	n/a
536.8285	0.0755	1073657	keystroke	e	n/a
536.9785	0.1195	1073957	keystroke	s	n/a
537.1135	0.09	1074227	keystroke	Key.space	n/a
537.293	0.076	1074586	keystroke	p	n/a
537.384	0.0895	1074768	keystroke	e	n/a
537.4585	0.0755	1074917	keystroke	r	n/a
537.6385	0.075	1075277	keystroke	s	n/a
537.7285	0.15	1075457	keystroke	o	n/a
537.8485	0.105	1075697	keystroke	n	n/a
537.968	0.1055	1075936	keystroke	Key.space	n/a
538.1185	0.105	1076237	keystroke	n	n/a
538.2385	0.105	1076477	keystroke	i	n/a
538.5085	0.0895	1077017	keystroke	g	n/a
538.6585	0.09	1077317	keystroke	h	n/a
538.7035	0.105	1077407	keystroke	t	n/a
539.0335	0.075	1078067	keystroke	Key.space	n/a
539.5135	0.075	1079027	keystroke	w	n/a
539.7385	0.12	1079477	keystroke	a	n/a
539.8735	0.12	1079747	keystroke	v	n/a
540.0385	0.105	1080077	keystroke	e	n/a
540.2485	0.09	1080497	keystroke	s	n/a
540.3235	0.12	1080647	keystroke	Key.enter	n/a
540.4485	6.401	1080897	prompt	n/a	folder sells divide trustees\n
541.1335	0.1345	1082267	keystroke	f	n/a
541.2535	0.075	1082507	keystroke	o	n/a
541.4335	0.1345	1082867	keystroke	l	n/a
541.583	0.0755	1083166	keystroke	d	n/a
541.7635	0.1045	1083527	keystroke	e	n/a
541.838	0.0905	1083676	keystroke	r	n/a
541.9885	0.09	1083977	keystroke	Key.space	n/a
542.198	0.0305	1084396	keystroke	s	n/a
542.2135	0.12	1084427	keystroke	e	n/a
542.4385	0.0445	1084877	keystroke	l	n/a
542.6035	0.075	1085207	keystroke	l	n/a
542.6485	0.106	1085297	keystroke	s	n/a
542.798	0.1205	1085596	keystroke	Key.space	n/a
542.9485	0.06	1085897	keystroke	d	n/a
543.339	0.091	1086678	keystroke	i	n/a
543.462	0.0865	1086924	keystroke	v	n/a
543.5635	0.0755	1087127	keystroke	i	n/a
543.668	0.0605	1087336	keystroke	d	n/a
544.0285	0.061	1088057	keystroke	e	n/a
545.0035	0.105	1090007	keystroke	Key.space	n/a
545.1235	0.0745	1090247	keystroke	t	n/a
545.2735	0.09	1090547	keystroke	r	n/a
545.3785	0.0895	1090757	keystroke	u	n/a
545.5135	0.0755	1091027	keystroke	s	n/a
545.6185	0.09	1091237	keystroke	t	n/a
545.8135	0.076	1091627	keystroke	e	n/a
546.2935	0.06	1092587	keystroke	e	n/a
546.4585	0.075	1092917	keystroke	s	n/a
546.7585	0.09	1093517	keystroke	Key.enter	n/a
546.852	4.9775	1093704	prompt	n/a	shadow challenged cage fist\n
547.4785	0.0895	1094957	keystroke	s	n/a
547.5535	0.09	1095107	keystroke	h	n/a
547.6745	0.119	1095349	keystroke	a	n/a
547.8085	0.105	1095617	keystroke	d	n/a
548.1235	0.09	1096247	keystroke	o	n/a
548.228	0.0755	1096456	keystroke	w	n/a
548.3185	0.135	1096637	keystroke	Key.space	n/a
548.5285	0.15	1097057	keystroke	c	n/a
548.6185	0.091	1097237	keystroke	h	n/a
548.7235	0.105	1097447	keystroke	a	n/a
548.8435	0.06	1097687	keystroke	l	n/a
548.9935	0.0895	1097987	keystroke	l	n/a
549.1285	0.075	1098257	keystroke	e	n/a
549.2335	0.09	1098467	keystroke	n	n/a
549.3535	0.1645	1098707	keystroke	g	n/a
549.4735	0.136	1098947	keystroke	e	n/a
549.7285	0.105	1099457	keystroke	d	n/a
549.909	0.1195	1099818	keystroke	Key.space	n/a
550.3135	0.12	1100627	keystroke	c	n/a
550.3885	0.165	1100777	keystroke	a	n/a
550.5385	0.165	1101077	keystroke	g	n/a
550.6885	0.1045	1101377	keystroke	e	n/a
550.8535	0.12	1101707	keystroke	Key.space	n/a
550.9885	0.09	1101977	keystroke	f	n/a
551.0635	0.1045	1102127	keystroke	i	n/a
551.183	0.0905	1102366	keystroke	r	n/a
551.3785	0.15	1102757	keystroke	s	n/a
551.483	0.0905	1102966	keystroke	t	n/a
551.7385	0.09	1103477	keystroke	Key.enter	n/a
551.8325	6.297	1103665	prompt	n/a	homework kingston band agreed\n
552.444	0.0895	1104888	keystroke	h	n/a
552.6535	0.15	1105307	keystroke	o	n/a
552.7585	0.135	1105517	keystroke	m	n/a
552.8635	0.09	1105727	keystroke	e	n/a
553.0135	0.135	1106027	keystroke	w	n/a
553.1635	0.09	1106327	keystroke	o	n/a
553.283	0.075	1106566	keystroke	r	n/a
553.3735	0.135	1106747	keystroke	k	n/a
553.5385	0.0905	1107077	keystroke	Key.space	n/a
553.6885	0.12	1107377	keystroke	h	n/a
553.8235	0.135	1107647	keystroke	i	n/a
553.9435	0.105	1107887	keystroke	n	n/a
554.394	0.0295	1108788	keystroke	Key.backspace	n/a
554.483	0.0605	1108966	keystroke	Key.backspace	n/a
554.633	0.0605	1109266	keystroke	Key.backspace	n/a
555.083	0.0755	1110166	keystroke	k	n/a
555.2485	0.1195	1110497	keystroke	i	n/a
555.3235	0.1055	1110647	keystroke	n	n/a
555.4285	0.09	1110857	keystroke	g	n/a
555.6235	0.09	1111247	keystroke	s	n/a
555.7435	0.075	1111487	keystroke	t	n/a
555.908	0.1505	1111816	keystroke	o	n/a
556.0435	0.075	1112087	keystroke	n	n/a
556.1335	0.12	1112267	keystroke	Key.space	n/a
556.553	0.1055	1113106	keystroke	b	n/a
556.7035	0.105	1113407	keystroke	a	n/a
556.8235	0.105	1113647	keystroke	n	n/a
556.9585	0.06	1113917	keystroke	d	n/a
557.0335	0.105	1114067	keystroke	Key.space	n/a
557.183	0.1055	1114366	keystroke	a	n/a
557.3035	0.09	1114607	keystroke	g	n/a
557.468	0.1055	1114936	keystroke	r	n/a
557.5585	0.075	1115117	keystroke	e	n/a
557.6935	0.0745	1115387	keystroke	e	n/a
557.8885	0.12	1115777	keystroke	d	n/a
558.0235	0.105	1116047	keystroke	Key.enter	n/a
558.1325	7.7665	1116265	prompt	n/a	innovations soundtrack comp olympus\n
558.8035	0.105	1117607	keystroke	i	n/a
558.8785	0.075	1117757	keystroke	n	n/a
559.059	0.0745	1118118	keystroke	n	n/a
559.209	0.135	1118418	keystroke	o	n/a
