onset	duration	sample	value	key	prompt_text
4.6685	6.083	9337	prompt	n/a	the quick brown fox jumps over a lazy dog\n
6.19	0.0425	12380	keystroke_t	t	n/a
6.2475	0.015	12495	keystroke_h	h	n/a
6.2775	0.06	12555	keystroke_e	e	n/a
6.3525	0.09	12705	keystroke_Key.space	Key.space	n/a
6.5625	0.09	13125	keystroke_q	q	n/a
6.6225	0.166	13245	keystroke_u	u	n/a
6.7285	0.105	13457	keystroke_i	i	n/a
6.8485	0.105	13697	keystroke_c	c	n/a
6.9235	0.12	13847	keystroke_k	k	n/a
7.0285	0.105	14057	keystroke_Key.space	Key.space	n/a
7.1935	0.105	14387	keystroke_b	b	n/a
7.2835	0.12	14567	keystroke_r	r	n/a
7.4185	0.1345	14837	keystroke_o	o	n/a
7.508	0.09	15016	keystroke_w	w	n/a
7.583	0.075	15166	keystroke_n	n	n/a
7.748	0.105	15496	keystroke_Key.space	Key.space	n/a
7.823	0.12	15646	keystroke_f	f	n/a
7.958	0.09	15916	keystroke_o	o	n/a
8.093	0.09	16186	keystroke_x	x	n/a
8.183	0.105	16366	keystroke_Key.space	Key.space	n/a
8.273	0.075	16546	keystroke_j	j	n/a
8.453	0.135	16906	keystroke_u	u	n/a
8.543	0.135	17086	keystroke_m	m	n/a
8.618	0.105	17236	keystroke_p	p	n/a
8.693	0.105	17386	keystroke_s	s	n/a
8.828	0.12	17656	keystroke_Key.space	Key.space	n/a
8.918	0.12	17836	keystroke_o	o	n/a
8.963	0.105	17926	keystroke_v	v	n/a
9.158	0.15	18316	keystroke_e	e	n/a
9.263	0.075	18526	keystroke_r	r	n/a
9.339	0.089	18678	keystroke_Key.space	Key.space	n/a
9.458	0.09	18916	keystroke_a	a	n/a
9.563	0.09	19126	keystroke_Key.space	Key.space	n/a
9.638	0.105	19276	keystroke_l	l	n/a
9.728	0.15	19456	keystroke_a	a	n/a
9.803	0.12	19606	keystroke_z	z	n/a
9.908	0.075	19816	keystroke_y	y	n/a
9.953	0.12	19906	keystroke_Key.space	Key.space	n/a
10.058	0.09	20116	keystroke_d	d	n/a
10.163	0.09	20326	keystroke_o	o	n/a
10.268	0.075	20536	keystroke_g	g	n/a
10.643	0.105	21286	keystroke_Key.enter	Key.enter	n/a
10.758	7.748	21516	prompt	n/a	catherine gold authorized republican\n
11.378	0.105	22756	keystroke_c	c	n/a
11.498	0.135	22996	keystroke_a	a	n/a
11.633	0.1055	23266	keystroke_t	t	n/a
11.7235	0.09	23447	keystroke_h	h	n/a
11.7535	0.12	23507	keystroke_e	e	n/a
11.8285	0.12	23657	keystroke_r	r	n/a
11.9335	0.105	23867	keystroke_i	i	n/a
11.9935	0.09	23987	keystroke_n	n	n/a
12.1585	0.105	24317	keystroke_Key.space	Key.space	n/a
12.2785	0.09	24557	keystroke_g	g	n/a
12.3395	0.059	24679	keystroke_o	o	n/a
12.5035	0.0745	25007	keystroke_l	l	n/a
12.564	0.1045	25128	keystroke_d	d	n/a
12.6985	0.075	25397	keystroke_Key.space	Key.space	n/a
13.478	0.09	26956	keystroke_Key.backspace	Key.backspace	n/a
13.673	0.06	27346	keystroke_Key.backspace	Key.backspace	n/a
13.823	0.075	27646	keystroke_Key.backspace	Key.backspace	n/a
14.003	0.045	28006	keystroke_Key.backspace	Key.backspace	n/a
14.153	0.061	28306	keystroke_Key.backspace	Key.backspace	n/a
14.304	0.09	28608	keystroke_Key.backspace	Key.backspace	n/a
14.619	0.09	29238	keystroke_e	e	n/a
15.0685	0.12	30137	keystroke_Key.space	Key.space	n/a
15.219	0.0895	30438	keystroke_g	g	n/a
15.2935	0.105	30587	keystroke_o	o	n/a
15.5185	0.06	31037	keystroke_l	l	n/a
15.5935	0.0895	31187	keystroke_d	d	n/a
15.788	0.09	31576	keystroke_Key.space	Key.space	n/a
15.939	0.089	31878	keystroke_a	a	n/a
16.013	0.105	32026	keystroke_u	u	n/a
16.178	0.106	32356	keystroke_t	t	n/a
16.254	0.06	32508	keystroke_h	h	n/a
16.329	0.119	32658	keystroke_o	o	n/a
16.418	0.091	32836	keystroke_r	r	n/a
16.524	0.1195	33048	keystroke_i	i	n/a
16.6735	0.135	33347	keystroke_z	z	n/a
16.9135	0.12	33827	keystroke_e	e	n/a
17.0035	0.12	34007	keystroke_d	d	n/a
17.1085	0.105	34217	keystroke_Key.space	Key.space	n/a
17.2735	0.135	34547	keystroke_r	r	n/a
17.3935	0.12	34787	keystroke_e	e	n/a
17.5285	0.075	35057	keystroke_p	p	n/a
17.6935	0.105	35387	keystroke_u	u	n/a
17.7835	0.135	35567	keystroke_b	b	n/a
17.9035	0.18	35807	keystroke_l	l	n/a
17.9785	0.15	35957	keystroke_i	i	n/a
18.0685	0.121	36137	keystroke_c	c	n/a
18.1435	0.105	36287	keystroke_a	a	n/a
18.2185	0.0755	36437	keystroke_n	n	n/a
18.398	0.1055	36796	keystroke_Key.enter	Key.enter	n/a
18.5115	6.624	37023	prompt	n/a	story portuguese tested algorithm\n
19.148	0.09	38296	keystroke_s	s	n/a
19.298	0.09	38596	keystroke_t	t	n/a
19.373	0.15	38746	keystroke_o	o	n/a
19.524	0.074	39048	keystroke_r	r	n/a
19.553	0.105	39106	keystroke_y	y	n/a
19.643	0.1055	39286	keystroke_Key.space	Key.space	n/a
19.7635	0.135	39527	keystroke_p	p	n/a
20.0035	0.12	40007	keystroke_o	o	n/a
20.1085	0.075	40217	keystroke_r	r	n/a
20.2735	0.12	40547	keystroke_t	t	n/a
20.3485	0.12	40697	keystroke_u	u	n/a
20.5885	0.105	41177	keystroke_g	g	n/a
20.9485	0.12	41897	keystroke_u	u	n/a
21.3835	0.135	42767	keystroke_e	e	n/a
21.6985	0.121	43397	keystroke_s	s	n/a
21.9245	0.12	43849	keystroke_e	e	n/a
22.0585	0.12	44117	keystroke_Key.space	Key.space	n/a
22.1935	0.09	44387	keystroke_t	t	n/a
22.2385	0.12	44477	keystroke_e	e	n/a
22.4635	0.135	44927	keystroke_s	s	n/a
22.5835	0.135	45167	keystroke_t	t	n/a
22.7335	0.135	45467	keystroke_e	e	n/a
22.8535	0.12	45707	keystroke_d	d	n/a
23.1085	0.075	46217	keystroke_Key.space	Key.space	n/a
23.5585	0.075	47117	keystroke_a	a	n/a
23.6785	0.1045	47357	keystroke_l	l	n/a
23.843	0.121	47686	keystroke_g	g	n/a
23.948	0.091	47896	keystroke_o	o	n/a
24.128	0.09	48256	keystroke_r	r	n/a
24.339	0.075	48678	keystroke_i	i	n/a
24.473	0.0905	48946	keystroke_t	t	n/a
24.534	0.0895	49068	keystroke_h	h	n/a
24.7585	0.105	49517	keystroke_m	m	n/a
25.0135	0.1195	50027	keystroke_Key.enter	Key.enter	n/a
25.148	5.3425	50296	prompt	n/a	acids manchester validation evident\n
25.703	0.09	51406	keystroke_a	a	n/a
25.838	0.135	51676	keystroke_c	c	n/a
25.944	0.089	51888	keystroke_i	i	n/a
26.064	0.119	52128	keystroke_d	d	n/a
26.138	0.121	52276	keystroke_s	s	n/a
26.228	0.105	52456	keystroke_Key.space	Key.space	n/a
26.453	0.075	52906	keystroke_m	m	n/a
26.514	0.104	53028	keystroke_a	a	n/a
26.634	0.105	53268	keystroke_n	n	n/a
26.723	0.136	53446	keystroke_c	c	n/a
26.828	0.135	53656	keystroke_h	h	n/a
26.888	0.105	53776	keystroke_e	e	n/a
27.084	0.134	54168	keystroke_s	s	n/a
27.203	0.151	54406	keystroke_t	t	n/a
27.339	0.12	54678	keystroke_e	e	n/a
27.413	0.12	54826	keystroke_r	r	n/a
27.518	0.105	55036	keystroke_Key.space	Key.space	n/a
27.713	0.121	55426	keystroke_v	v	n/a
27.848	0.105	55696	keystroke_a	a	n/a
27.938	0.075	55876	keystroke_l	l	n/a
28.088	0.105	56176	keystroke_i	i	n/a
28.148	0.12	56296	keystroke_d	d	n/a
28.2985	0.12	56597	keystroke_a	a	n/a
28.4485	0.12	56897	keystroke_t	t	n/a
28.5235	0.15	57047	keystroke_i	i	n/a
28.5695	0.119	57139	keystroke_o	o	n/a
28.6285	0.075	57257	keystroke_n	n	n/a
28.8085	0.105	57617	keystroke_Key.space	Key.space	n/a
29.1085	0.135	58217	keystroke_e	e	n/a
29.3035	0.12	58607	keystroke_v	v	n/a
29.4385	0.075	58877	keystroke_i	i	n/a
29.5435	0.15	59087	keystroke_d	d	n/a
29.6485	0.105	59297	keystroke_e	e	n/a
29.7385	0.12	59477	keystroke_n	n	n/a
29.8735	0.09	59747	keystroke_t	t	n/a
30.3685	0.12	60737	keystroke_Key.enter	Key.enter	n/a
30.4955	7.5105	60991	prompt	n/a	import slovak helping electric\n
31.2085	0.075	62417	keystroke_i	i	n/a
31.2985	0.09	62597	keystroke_m	m	n/a
31.4635	0.15	62927	keystroke_p	p	n/a
31.5385	0.12	63077	keystroke_o	o	n/a
31.5985	0.105	63197	keystroke_r	r	n/a
31.7785	0.105	63557	keystroke_t	t	n/a
31.8685	0.09	63737	keystroke_Key.space	Key.space	n/a
32.0185	0.135	64037	keystroke_s	s	n/a
32.1685	0.06	64337	keystroke_o	o	n/a
32.5435	0.045	65087	keystroke_Key.backspace	Key.backspace	n/a
32.8135	0.105	65627	keystroke_l	l	n/a
33.0835	0.105	66167	keystroke_o	o	n/a
33.2485	0.135	66497	keystroke_v	v	n/a
33.3685	0.09	66737	keystroke_a	a	n/a
33.4435	0.135	66887	keystroke_k	k	n/a
33.5635	0.12	67127	keystroke_Key.space	Key.space	n/a
33.9235	0.075	67847	keystroke_h	h	n/a
34.0435	0.075	68087	keystroke_e	e	n/a
34.1035	0.075	68207	keystroke_l	l	n/a
34.2835	0.135	68567	keystroke_p	p	n/a
34.3435	0.12	68687	keystroke_i	i	n/a
34.4035	0.09	68807	keystroke_n	n	n/a
34.4785	0.06	68957	keystroke_g	g	n/a
34.5835	0.12	69167	keystroke_Key.space	Key.space	n/a
34.8085	0.105	69617	keystroke_e	e	n/a
34.8835	0.12	69767	keystroke_l	l	n/a
34.9885	0.105	69977	keystroke_e	e	n/a
35.3185	0.105	70637	keystroke_c	c	n/a
35.5885	0.105	71177	keystroke_t	t	n/a
35.7835	0.105	71567	keystroke_r	r	n/a
35.8585	0.12	71717	keystroke_i	i	n/a
36.0535	0.105	72107	keystroke_c	c	n/a
37.8535	0.15	75707	keystroke_Key.enter	Key.enter	n/a
38.011	5.3805	76022	prompt	n/a	manchester airfare antenna inquire\n
39.0385	0.105	78077	keystroke_m	m	n/a
39.2035	0.105	78407	keystroke_a	a	n/a
39.2935	0.105	78587	keystroke_n	n	n/a
39.3995	0.119	78799	keystroke_c	c	n/a
39.5195	0.074	79039	keystroke_h	h	n/a
39.5635	0.09	79127	keystroke_e	e	n/a
39.7435	0.15	79487	keystroke_s	s	n/a
39.8785	0.135	79757	keystroke_t	t	n/a
39.9985	0.135	79997	keystroke_e	e	n/a
40.0885	0.12	80177	keystroke_r	r	n/a
40.1785	0.105	80357	keystroke_Key.space	Key.space	n/a
40.2985	0.12	80597	keystroke_a	a	n/a
40.4335	0.105	80867	keystroke_i	i	n/a
40.5685	0.135	81137	keystroke_r	r	n/a
40.8535	0.09	81707	keystroke_f	f	n/a
40.9735	0.12	81947	keystroke_a	a	n/a
41.0785	0.135	82157	keystroke_r	r	n/a
41.1985	0.12	82397	keystroke_e	e	n/a
41.3335	0.105	82667	keystroke_Key.space	Key.space	n/a
41.4535	0.135	82907	keystroke_a	a	n/a
41.5895	0.104	83179	keystroke_n	n	n/a
41.6785	0.09	83357	keystroke_t	t	n/a
41.7385	0.105	83477	keystroke_e	e	n/a
41.8435	0.075	83687	keystroke_n	n	n/a
42.0085	0.075	84017	keystroke_n	n	n/a
42.1135	0.12	84227	keystroke_a	a	n/a
42.2185	0.105	84437	keystroke_Key.space	Key.space	n/a
42.4435	0.135	84887	keystroke_i	i	n/a
42.5335	0.105	85067	keystroke_n	n	n/a
42.6835	0.09	85367	keystroke_q	q	n/a
42.7735	0.135	85547	keystroke_u	u	n/a
42.8485	0.15	85697	keystroke_i	i	n/a
42.9995	0.119	85999	keystroke_r	r	n/a
43.0885	0.105	86177	keystroke_e	e	n/a
43.2535	0.135	86507	keystroke_Key.enter	Key.enter	n/a
43.397	5.1395	86794	prompt	n/a	sussex economies drawn accurate\n
44.1535	0.075	88307	keystroke_s	s	n/a
44.2435	0.09	88487	keystroke_u	u	n/a
44.3485	0.075	88697	keystroke_s	s	n/a
44.5135	0.075	89027	keystroke_s	s	n/a
44.6785	0.075	89357	keystroke_e	e	n/a
44.8585	0.12	89717	keystroke_x	x	n/a
44.9635	0.105	89927	keystroke_Key.space	Key.space	n/a
45.1285	0.105	90257	keystroke_e	e	n/a
45.3085	0.105	90617	keystroke_c	c	n/a
45.5185	0.105	91037	keystroke_o	o	n/a
45.5935	0.135	91187	keystroke_n	n	n/a
45.6985	0.15	91397	keystroke_o	o	n/a
45.8335	0.09	91667	keystroke_m	m	n/a
45.8935	0.135	91787	keystroke_i	i	n/a
45.9685	0.075	91937	keystroke_e	e	n/a
46.1485	0.105	92297	keystroke_s	s	n/a
46.2535	0.12	92507	keystroke_Key.space	Key.space	n/a
46.3885	0.09	92777	keystroke_d	d	n/a
46.5835	0.12	93167	keystroke_r	r	n/a
46.6735	0.09	93347	keystroke_a	a	n/a
46.7485	0.105	93497	keystroke_w	w	n/a
46.8235	0.09	93647	keystroke_n	n	n/a
47.0185	0.105	94037	keystroke_Key.space	Key.space	n/a
47.1685	0.15	94337	keystroke_a	a	n/a
47.4235	0.06	94847	keystroke_c	c	n/a
47.5735	0.09	95147	keystroke_c	c	n/a
47.6935	0.075	95387	keystroke_u	u	n/a
47.8135	0.09	95627	keystroke_r	r	n/a
47.9185	0.105	95837	keystroke_a	a	n/a
48.0385	0.09	96077	keystroke_t	t	n/a
48.0985	0.1205	96197	keystroke_e	e	n/a
48.444	0.09	96888	keystroke_Key.enter	Key.enter	n/a
48.5445	5.6165	97089	prompt	n/a	const triumph michael summer\n
49.299	0.135	98598	keystroke_c	c	n/a
49.389	0.105	98778	keystroke_o	o	n/a
49.464	0.135	98928	keystroke_n	n	n/a
49.584	0.12	99168	keystroke_s	s	n/a
49.763	0.105	99526	keystroke_t	t	n/a
49.898	0.12	99796	keystroke_Key.space	Key.space	n/a
50.063	0.106	100126	keystroke_t	t	n/a
50.289	0.104	100578	keystroke_r	r	n/a
50.408	0.12	100816	keystroke_i	i	n/a
50.484	0.164	100968	keystroke_u	u	n/a
50.619	0.149	101238	keystroke_m	m	n/a
50.844	0.075	101688	keystroke_p	p	n/a
51.053	0.106	102106	keystroke_h	h	n/a
51.264	0.104	102528	keystroke_Key.space	Key.space	n/a
51.534	0.09	103068	keystroke_m	m	n/a
51.728	0.075	103456	keystroke_i	i	n/a
51.893	0.091	103786	keystroke_c	c	n/a
51.953	0.106	103906	keystroke_h	h	n/a
52.073	0.075	104146	keystroke_a	a	n/a
52.223	0.106	104446	keystroke_e	e	n/a
52.299	0.119	104598	keystroke_l	l	n/a
52.403	0.12	104806	keystroke_Key.space	Key.space	n/a
52.613	0.106	105226	keystroke_s	s	n/a
52.644	0.12	105288	keystroke_u	u	n/a
52.734	0.059	105468	keystroke_m	m	n/a
52.899	0.089	105798	keystroke_m	m	n/a
53.019	0.104	106038	keystroke_e	e	n/a
53.094	0.12	106188	keystroke_r	r	n/a
53.978	0.181	107956	keystroke_Key.enter	Key.enter	n/a
54.1675	6.5935	108335	prompt	n/a	artificial licking foundations scientists\n
55.029	0.119	110058	keystroke_a	a	n/a
55.209	0.105	110418	keystroke_r	r	n/a
55.448	0.106	110896	keystroke_t	t	n/a
55.719	0.12	111438	keystroke_i	i	n/a
55.854	0.09	111708	keystroke_f	f	n/a
55.973	0.091	111946	keystroke_i	i	n/a
56.049	0.12	112098	keystroke_c	c	n/a
56.154	0.089	112308	keystroke_i	i	n/a
56.259	0.119	112518	keystroke_a	a	n/a
56.394	0.105	112788	keystroke_l	l	n/a
56.559	0.119	113118	keystroke_Key.space	Key.space	n/a
56.799	0.12	113598	keystroke_l	l	n/a
56.844	0.12	113688	keystroke_i	i	n/a
56.934	0.135	113868	keystroke_c	c	n/a
57.054	0.074	114108	keystroke_k	k	n/a
57.204	0.12	114408	keystroke_i	i	n/a
57.278	0.106	114556	keystroke_n	n	n/a
57.309	0.12	114618	keystroke_g	g	n/a
57.459	0.119	114918	keystroke_Key.space	Key.space	n/a
57.849	0.105	115698	keystroke_f	f	n/a
57.999	0.09	115998	keystroke_o	o	n/a
58.059	0.15	116118	keystroke_u	u	n/a
58.149	0.12	116298	keystroke_n	n	n/a
58.239	0.105	116478	keystroke_d	d	n/a
58.359	0.18	116718	keystroke_a	a	n/a
58.493	0.091	116986	keystroke_t	t	n/a
58.554	0.165	117108	keystroke_i	i	n/a
58.629	0.12	117258	keystroke_o	o	n/a
58.674	0.105	117348	keystroke_n	n	n/a
59.034	0.105	118068	keystroke_s	s	n/a
59.228	0.106	118456	keystroke_Key.space	Key.space	n/a
59.349	0.12	118698	keystroke_s	s	n/a
59.589	0.12	119178	keystroke_c	c	n/a
59.724	0.105	119448	keystroke_i	i	n/a
59.858	0.106	119716	keystroke_e	e	n/a
59.933	0.136	119866	keystroke_n	n	n/a
60.039	0.105	120078	keystroke_t	t	n/a
60.159	0.105	120318	keystroke_i	i	n/a
60.234	0.12	120468	keystroke_s	s	n/a
60.324	0.075	120648	keystroke_t	t	n/a
60.429	0.09	120858	keystroke_s	s	n/a
60.609	0.15	121218	keystroke_Key.enter	Key.enter	n/a
60.766	4.3145	121532	prompt	n/a	babes kurt arena rejected\n
61.389	0.105	122778	keystroke_b	b	n/a
61.509	0.105	123018	keystroke_a	a	n/a
61.674	0.135	123348	keystroke_b	b	n/a
61.824	0.09	123648	keystroke_e	e	n/a
62.019	0.105	124038	keystroke_s	s	n/a
62.169	0.135	124338	keystroke_Key.space	Key.space	n/a
62.319	0.105	124638	keystroke_k	k	n/a
62.499	0.12	124998	keystroke_u	u	n/a
62.574	0.105	125148	keystroke_r	r	n/a
62.769	0.09	125538	keystroke_t	t	n/a
62.844	0.12	125688	keystroke_Key.space	Key.space	n/a
63.054	0.165	126108	keystroke_a	a	n/a
63.219	0.12	126438	keystroke_r	r	n/a
63.324	0.15	126648	keystroke_e	e	n/a
63.429	0.12	126858	keystroke_n	n	n/a
63.579	0.15	127158	keystroke_a	a	n/a
63.714	0.15	127428	keystroke_Key.space	Key.space	n/a
63.999	0.105	127998	keystroke_r	r	n/a
64.074	0.12	128148	keystroke_e	e	n/a
64.179	0.12	128358	keystroke_j	j	n/a
64.269	0.135	128538	keystroke_e	e	n/a
64.329	0.15	128658	keystroke_c	c	n/a
64.599	0.12	129198	keystroke_t	t	n/a
64.704	0.12	129408	keystroke_e	e	n/a
64.839	0.105	129678	keystroke_d	d	n/a
64.974	0.105	129948	keystroke_Key.enter	Key.enter	n/a
65.085	5.4105	130170	prompt	n/a	deals drew beach mouth\n
65.769	0.075	131538	keystroke_d	d	n/a
66.009	0.18	132018	keystroke_e	e	n/a
66.099	0.075	132198	keystroke_l	l	n/a
66.489	0.06	132978	keystroke_Key.backspace	Key.backspace	n/a
66.654	0.09	133308	keystroke_a	a	n/a
66.729	0.135	133458	keystroke_l	l	n/a
66.879	0.12	133758	keystroke_s	s	n/a
66.984	0.135	133968	keystroke_Key.space	Key.space	n/a
67.254	0.105	134508	keystroke_d	d	n/a
67.494	0.045	134988	keystroke_t	t	n/a
68.034	0.105	136068	keystroke_Key.backspace	Key.backspace	n/a
68.154	0.09	136308	keystroke_r	r	n/a
68.364	0.12	136728	keystroke_e	e	n/a
68.514	0.12	137028	keystroke_w	w	n/a
68.649	0.135	137298	keystroke_Key.space	Key.space	n/a
68.829	0.12	137658	keystroke_b	b	n/a
68.904	0.21	137808	keystroke_e	e	n/a
68.964	0.135	137928	keystroke_a	a	n/a
69.189	0.135	138378	keystroke_c	c	n/a
69.279	0.09	138558	keystroke_h	h	n/a
69.384	0.045	138768	keystroke_Key.space	Key.space	n/a
69.579	0.135	139158	keystroke_m	m	n/a
69.654	0.135	139308	keystroke_o	o	n/a
69.729	0.12	139458	keystroke_u	u	n/a
69.834	0.09	139668	keystroke_t	t	n/a
69.954	0.075	139908	keystroke_h	h	n/a
70.374	0.12	140748	keystroke_Key.enter	Key.enter	n/a
70.5	5.11	141000	prompt	n/a	stomach visual navigate cakes\n
71.139	0.09	142278	keystroke_s	s	n/a
71.244	0.09	142488	keystroke_t	t	n/a
71.319	0.15	142638	keystroke_o	o	n/a
71.409	0.105	142818	keystroke_m	m	n/a
71.484	0.12	142968	keystroke_a	a	n/a
71.589	0.135	143178	keystroke_c	c	n/a
71.694	0.09	143388	keystroke_h	h	n/a
71.754	0.12	143508	keystroke_Key.space	Key.space	n/a
71.904	0.12	143808	keystroke_v	v	n/a
72.054	0.105	144108	keystroke_i	i	n/a
72.174	0.09	144348	keystroke_s	s	n/a
72.249	0.105	144498	keystroke_u	u	n/a
72.369	0.12	144738	keystroke_a	a	n/a
72.459	0.12	144918	keystroke_l	l	n/a
72.534	0.105	145068	keystroke_Key.space	Key.space	n/a
72.819	0.09	145638	keystroke_a	a	n/a
72.894	0.075	145788	keystroke_n	n	n/a
73.179	0.06	146358	keystroke_Key.backspace	Key.backspace	n/a
73.329	0.06	146658	keystroke_Key.backspace	Key.backspace	n/a
73.404	0.12	146808	keystroke_n	n	n/a
73.479	0.105	146958	keystroke_a	a	n/a
73.629	0.105	147258	keystroke_v	v	n/a
73.719	0.12	147438	keystroke_i	i	n/a
74.034	0.075	148068	keystroke_g	g	n/a
74.169	0.105	148338	keystroke_a	a	n/a
74.259	0.105	148518	keystroke_t	t	n/a
74.334	0.15	148668	keystroke_e	e	n/a
74.424	0.12	148848	keystroke_Key.space	Key.space	n/a
74.619	0.12	149238	keystroke_c	c	n/a
74.709	0.135	149418	keystroke_a	a	n/a
74.799	0.12	149598	keystroke_k	k	n/a
74.919	0.105	149838	keystroke_e	e	n/a
75.114	0.105	150228	keystroke_s	s	n/a
75.459	0.15	150918	keystroke_Key.enter	Key.enter	n/a
75.615	6.7605	151230	prompt	n/a	compatibility quoted occupied inches\n
76.734	0.105	153468	keystroke_c	c	n/a
76.854	0.12	153708	keystroke_o	o	n/a
76.989	0.105	153978	keystroke_m	m	n/a
77.184	0.09	154368	keystroke_p	p	n/a
77.379	0.09	154758	keystroke_a	a	n/a
77.574	0.105	155148	keystroke_t	t	n/a
77.754	0.165	155508	keystroke_i	i	n/a
77.889	0.15	155778	keystroke_b	b	n/a
78.024	0.12	156048	keystroke_i	i	n/a
78.129	0.15	156258	keystroke_l	l	n/a
78.234	0.12	156468	keystroke_i	i	n/a
78.324	0.105	156648	keystroke_t	t	n/a
78.444	0.09	156888	keystroke_y	y	n/a
78.489	0.12	156978	keystroke_Key.space	Key.space	n/a
78.744	0.09	157488	keystroke_q	q	n/a
78.849	0.135	157698	keystroke_u	u	n/a
78.924	0.15	157848	keystroke_o	o	n/a
79.014	0.12	158028	keystroke_t	t	n/a
79.135	0.164	158270	keystroke_e	e	n/a
79.254	0.12	158508	keystroke_d	d	n/a
79.359	0.105	158718	keystroke_Key.space	Key.space	n/a
79.494	0.12	158988	keystroke_o	o	n/a
79.614	0.06	159228	keystroke_c	c	n/a
79.749	0.12	159498	keystroke_c	c	n/a
79.839	0.12	159678	keystroke_u	u	n/a
79.974	0.105	159948	keystroke_p	p	n/a
80.109	0.135	160218	keystroke_i	i	n/a
80.229	0.135	160458	keystroke_e	e	n/a
80.319	0.135	160638	keystroke_d	d	n/a
80.439	0.15	160878	keystroke_Key.space	Key.space	n/a
80.694	0.105	161388	keystroke_i	i	n/a
80.844	0.09	161688	keystroke_c	c	n/a
81.204	0.06	162408	keystroke_Key.backspace	Key.backspace	n/a
81.354	0.105	162708	keystroke_n	n	n/a
81.474	0.135	162948	keystroke_c	c	n/a
81.594	0.105	163188	keystroke_h	h	n/a
81.669	0.105	163338	keystroke_e	e	n/a
81.909	0.09	163818	keystroke_s	s	n/a
82.269	0.105	164538	keystroke_Key.enter	Key.enter	n/a
82.38	4.976	164760	prompt	n/a	analog fabric disabilities ripe\n
83.049	0.12	166098	keystroke_a	a	n/a
83.17	0.119	166340	keystroke_n	n	n/a
83.304	0.075	166608	keystroke_a	a	n/a
83.394	0.075	166788	keystroke_l	l	n/a
83.574	0.1205	167148	keystroke_o	o	n/a
83.6485	0.12	167297	keystroke_g	g	n/a
83.7835	0.135	167567	keystroke_Key.space	Key.space	n/a
83.9635	0.12	167927	keystroke_f	f	n/a
84.1585	0.106	168317	keystroke_a	a	n/a
84.2345	0.074	168469	keystroke_b	b	n/a
84.3685	0.09	168737	keystroke_r	r	n/a
84.4735	0.09	168947	keystroke_i	i	n/a
84.5935	0.121	169187	keystroke_c	c	n/a
84.6985	0.105	169397	keystroke_Key.space	Key.space	n/a
85.0135	0.106	170027	keystroke_d	d	n/a
85.1345	0.09	170269	keystroke_i	i	n/a
85.2395	0.134	170479	keystroke_s	s	n/a
85.3445	0.134	170689	keystroke_a	a	n/a
85.4485	0.12	170897	keystroke_b	b	n/a
85.5385	0.135	171077	keystroke_i	i	n/a
85.6435	0.166	171287	keystroke_l	l	n/a
85.7635	0.105	171527	keystroke_i	i	n/a
85.8235	0.135	171647	keystroke_t	t	n/a
85.9735	0.12	171947	keystroke_i	i	n/a
86.0945	0.104	172189	keystroke_e	e	n/a
86.2885	0.12	172577	keystroke_s	s	n/a
86.4535	0.105	172907	keystroke_Key.space	Key.space	n/a
86.7685	0.105	173537	keystroke_r	r	n/a
86.8285	0.12	173657	keystroke_i	i	n/a
86.9185	0.105	173837	keystroke_p	p	n/a
87.0085	0.105	174017	keystroke_e	e	n/a
87.2035	0.15	174407	keystroke_Key.enter	Key.enter	n/a
87.3595	4.4065	174719	prompt	n/a	dvds chip engineer serial\n
88.254	0.104	176508	keystroke_d	d	n/a
88.389	0.09	176778	keystroke_v	v	n/a
88.493	0.121	176986	keystroke_d	d	n/a
88.643	0.12	177286	keystroke_s	s	n/a
88.868	0.105	177736	keystroke_Key.space	Key.space	n/a
89.003	0.121	178006	keystroke_c	c	n/a
89.139	0.104	178278	keystroke_h	h	n/a
89.393	0.135	178786	keystroke_i	i	n/a
89.423	0.151	178846	keystroke_p	p	n/a
89.558	0.105	179116	keystroke_Key.space	Key.space	n/a
89.723	0.105	179446	keystroke_e	e	n/a
89.799	0.104	179598	keystroke_n	n	n/a
89.918	0.106	179836	keystroke_g	g	n/a
89.994	0.09	179988	keystroke_i	i	n/a
90.038	0.135	180076	keystroke_n	n	n/a
90.114	0.09	180228	keystroke_e	e	n/a
90.293	0.121	180586	keystroke_e	e	n/a
90.368	0.076	180736	keystroke_r	r	n/a
90.429	0.119	180858	keystroke_Key.space	Key.space	n/a
90.593	0.106	181186	keystroke_s	s	n/a
90.804	0.15	181608	keystroke_e	e	n/a
90.879	0.105	181758	keystroke_r	r	n/a
90.998	0.09	181996	keystroke_i	i	n/a
91.103	0.121	182206	keystroke_a	a	n/a
91.179	0.105	182358	keystroke_l	l	n/a
91.643	0.121	183286	keystroke_Key.enter	Key.enter	n/a
91.7715	9.4895	183543	prompt	n/a	has acdbentity arizona quarterly\n
92.739	0.104	185478	keystroke_h	h	n/a
92.918	0.165	185836	keystroke_a	a	n/a
93.039	0.12	186078	keystroke_s	s	n/a
93.218	0.105	186436	keystroke_Key.space	Key.space	n/a
93.954	0.075	187908	keystroke_a	a	n/a
94.598	0.15	189196	keystroke_c	c	n/a
94.974	0.09	189948	keystroke_d	d	n/a
95.244	0.09	190488	keystroke_b	b	n/a
95.363	0.106	190726	keystroke_e	e	n/a
95.529	0.119	191058	keystroke_n	n	n/a
95.723	0.151	191446	keystroke_t	t	n/a
95.979	0.119	191958	keystroke_i	i	n/a
96.159	0.12	192318	keystroke_t	t	n/a
96.264	0.104	192528	keystroke_y	y	n/a
97.343	0.18	194686	keystroke_Key.space	Key.space	n/a
98.019	0.105	196038	keystroke_a	a	n/a
98.168	0.106	196336	keystroke_r	r	n/a
98.289	0.135	196578	keystroke_i	i	n/a
98.454	0.15	196908	keystroke_z	z	n/a
98.544	0.12	197088	keystroke_o	o	n/a
98.618	0.091	197236	keystroke_n	n	n/a
98.709	0.15	197418	keystroke_a	a	n/a
98.843	0.105	197686	keystroke_Key.space	Key.space	n/a
99.069	0.105	198138	keystroke_a	a	n/a
99.159	0.105	198318	keystroke_u	u	n/a
99.579	0.105	199158	keystroke_Key.backspace	Key.backspace	n/a
99.788	0.076	199576	keystroke_Key.backspace	Key.backspace	n/a
99.923	0.091	199846	keystroke_q	q	n/a
100.043	0.136	200086	keystroke_u	u	n/a
100.194	0.09	200388	keystroke_a	a	n/a
100.268	0.091	200536	keystroke_r	r	n/a
100.449	0.119	200898	keystroke_t	t	n/a
100.584	0.12	201168	keystroke_e	e	n/a
100.659	0.105	201318	keystroke_r	r	n/a
100.718	0.121	201436	keystroke_l	l	n/a
100.793	0.091	201586	keystroke_y	y	n/a
101.154	0.105	202308	keystroke_Key.enter	Key.enter	n/a
101.267	5.768	202534	prompt	n/a	liked alaska impossible religious\n
101.859	0.15	203718	keystroke_l	l	n/a
101.949	0.105	203898	keystroke_i	i	n/a
102.159	0.135	204318	keystroke_k	k	n/a
102.234	0.18	204468	keystroke_e	e	n/a
102.384	0.12	204768	keystroke_d	d	n/a
102.518	0.12	205036	keystroke_Key.space	Key.space	n/a
102.654	0.089	205308	keystroke_a	a	n/a
102.744	0.09	205488	keystroke_l	l	n/a
102.849	0.09	205698	keystroke_a	a	n/a
102.909	0.12	205818	keystroke_s	s	n/a
102.999	0.165	205998	keystroke_k	k	n/a
103.209	0.12	206418	keystroke_a	a	n/a
103.418	0.12	206836	keystroke_Key.space	Key.space	n/a
103.884	0.134	207768	keystroke_i	i	n/a
103.989	0.12	207978	keystroke_m	m	n/a
104.139	0.105	208278	keystroke_p	p	n/a
104.199	0.135	208398	keystroke_o	o	n/a
104.319	0.06	208638	keystroke_s	s	n/a
104.484	0.105	208968	keystroke_s	s	n/a
104.559	0.165	209118	keystroke_i	i	n/a
104.634	0.12	209268	keystroke_b	b	n/a
104.709	0.135	209418	keystroke_l	l	n/a
104.799	0.105	209598	keystroke_e	e	n/a
104.889	0.09	209778	keystroke_Key.space	Key.space	n/a
105.054	0.12	210108	keystroke_r	r	n/a
105.114	0.12	210228	keystroke_e	e	n/a
105.189	0.075	210378	keystroke_l	l	n/a
105.324	0.119	210648	keystroke_i	i	n/a
105.459	0.075	210918	keystroke_g	g	n/a
105.504	0.135	211008	keystroke_o	o	n/a
105.519	0.045	211038	keystroke_i	i	n/a
106.089	0.059	212178	keystroke_Key.backspace	Key.backspace	n/a
106.223	0.09	212446	keystroke_Key.backspace	Key.backspace	n/a
106.434	0.12	212868	keystroke_i	i	n/a
106.524	0.075	213048	keystroke_o	o	n/a
106.659	0.075	213318	keystroke_u	u	n/a
106.719	0.105	213438	keystroke_s	s	n/a
106.899	0.135	213798	keystroke_Key.enter	Key.enter	n/a
107.041	5.5445	214082	prompt	n/a	definitions coaches commodity cindy\n
107.694	0.12	215388	keystroke_d	d	n/a
107.753	0.166	215506	keystroke_e	e	n/a
107.904	0.105	215808	keystroke_f	f	n/a
107.994	0.09	215988	keystroke_i	i	n/a
108.099	0.075	216198	keystroke_n	n	n/a
108.189	0.09	216378	keystroke_i	i	n/a
108.264	0.105	216528	keystroke_t	t	n/a
108.354	0.135	216708	keystroke_i	i	n/a
108.384	0.12	216768	keystroke_o	o	n/a
108.444	0.105	216888	keystroke_n	n	n/a
108.474	0.165	216948	keystroke_s	s	n/a
108.639	0.105	217278	keystroke_Key.space	Key.space	n/a
108.999	0.09	217998	keystroke_c	c	n/a
109.104	0.105	218208	keystroke_o	o	n/a
109.179	0.135	218358	keystroke_a	a	n/a
109.299	0.12	218598	keystroke_c	c	n/a
109.404	0.09	218808	keystroke_h	h	n/a
109.509	0.105	219018	keystroke_e	e	n/a
109.704	0.044	219408	keystroke_s	s	n/a
109.778	0.12	219556	keystroke_Key.space	Key.space	n/a
110.243	0.106	220486	keystroke_c	c	n/a
110.379	0.134	220758	keystroke_o	o	n/a
110.499	0.105	220998	keystroke_m	m	n/a
110.873	0.12	221746	keystroke_m	m	n/a
111.219	0.105	222438	keystroke_o	o	n/a
111.308	0.076	222616	keystroke_d	d	n/a
111.399	0.105	222798	keystroke_i	i	n/a
111.534	0.089	223068	keystroke_t	t	n/a
111.609	0.105	223218	keystroke_y	y	n/a
111.668	0.105	223336	keystroke_Key.space	Key.space	n/a
111.833	0.135	223666	keystroke_c	c	n/a
111.923	0.105	223846	keystroke_i	i	n/a
111.983	0.106	223966	keystroke_n	n	n/a
112.073	0.106	224146	keystroke_d	d	n/a
112.193	0.091	224386	keystroke_y	y	n/a
112.463	0.12	224926	keystroke_Key.enter	Key.enter	n/a
112.5905	5.38	225181	prompt	n/a	configure cult cards lodge\n
113.529	0.134	227058	keystroke_c	c	n/a
113.648	0.106	227296	keystroke_o	o	n/a
113.709	0.089	227418	keystroke_n	n	n/a
113.889	0.09	227778	keystroke_f	f	n/a
114.083	0.016	228166	keystroke_g	g	n/a
114.623	0.06	229246	keystroke_Key.backspace	Key.backspace	n/a
114.788	0.121	229576	keystroke_i	i	n/a
114.938	0.106	229876	keystroke_g	g	n/a
115.073	0.106	230146	keystroke_u	u	n/a
115.179	0.119	230358	keystroke_r	r	n/a
115.254	0.12	230508	keystroke_e	e	n/a
115.358	0.106	230716	keystroke_Key.space	Key.space	n/a
115.629	0.119	231258	keystroke_c	c	n/a
115.779	0.164	231558	keystroke_u	u	n/a
115.914	0.12	231828	keystroke_l	l	n/a
116.004	0.15	232008	keystroke_t	t	n/a
116.198	0.12	232396	keystroke_Key.space	Key.space	n/a
116.334	0.089	232668	keystroke_c	c	n/a
116.529	0.135	233058	keystroke_a	a	n/a
116.618	0.09	233236	keystroke_r	r	n/a
116.829	0.119	233658	keystroke_d	d	n/a
116.904	0.105	233808	keystroke_s	s	n/a
116.993	0.135	233986	keystroke_Key.space	Key.space	n/a
117.113	0.061	234226	keystroke_l	l	n/a
117.309	0.12	234618	keystroke_o	o	n/a
117.399	0.06	234798	keystroke_d	d	n/a
117.594	0.075	235188	keystroke_g	g	n/a
117.654	0.119	235308	keystroke_e	e	n/a
117.818	0.15	235636	keystroke_Key.enter	Key.enter	n/a
117.9765	4.734	235953	prompt	n/a	elizabeth render volume olive\n
118.584	0.105	237168	keystroke_e	e	n/a
118.779	0.074	237558	keystroke_l	l	n/a
119.393	0.15	238786	keystroke_i	i	n/a
119.574	0.135	239148	keystroke_z	z	n/a
119.784	0.119	239568	keystroke_a	a	n/a
119.919	0.105	239838	keystroke_b	b	n/a
120.009	0.134	240018	keystroke_e	e	n/a
120.114	0.12	240228	keystroke_t	t	n/a
120.159	0.135	240318	keystroke_h	h	n/a
120.264	0.119	240528	keystroke_Key.space	Key.space	n/a
120.368	0.105	240736	keystroke_r	r	n/a
120.444	0.104	240888	keystroke_e	e	n/a
120.504	0.134	241008	keystroke_n	n	n/a
120.624	0.09	241248	keystroke_d	d	n/a
120.698	0.121	241396	keystroke_e	e	n/a
120.804	0.089	241608	keystroke_r	r	n/a
120.878	0.09	241756	keystroke_Key.space	Key.space	n/a
121.043	0.135	242086	keystroke_v	v	n/a
121.118	0.075	242236	keystroke_o	o	n/a
121.313	0.121	242626	keystroke_l	l	n/a
121.373	0.181	242746	keystroke_u	u	n/a
121.479	0.09	242958	keystroke_m	m	n/a
121.554	0.09	243108	keystroke_e	e	n/a
121.779	0.104	243558	keystroke_Key.space	Key.space	n/a
122.003	0.045	244006	keystroke_o	o	n/a
122.168	0.15	244336	keystroke_l	l	n/a
122.244	0.135	244488	keystroke_i	i	n/a
122.333	0.106	244666	keystroke_v	v	n/a
122.423	0.091	244846	keystroke_e	e	n/a
122.589	0.119	245178	keystroke_Key.enter	Key.enter	n/a
122.7145	5.051	245429	prompt	n/a	we'd mild tests sand\n
124.014	0.105	248028	keystroke_w	w	n/a
124.224	0.105	248448	keystroke_e	e	n/a
124.389	0.09	248778	keystroke_'	'	n/a
124.539	0.12	249078	keystroke_d	d	n/a
124.704	0.134	249408	keystroke_Key.space	Key.space	n/a
124.989	0.12	249978	keystroke_m	m	n/a
125.094	0.105	250188	keystroke_i	i	n/a
125.184	0.12	250368	keystroke_l	l	n/a
125.799	0.119	251598	keystroke_d	d	n/a
125.934	0.12	251868	keystroke_Key.space	Key.space	n/a
126.099	0.135	252198	keystroke_t	t	n/a
126.339	0.12	252678	keystroke_e	e	n/a
126.549	0.149	253098	keystroke_s	s	n/a
126.699	0.06	253398	keystroke_t	t	n/a
126.774	0.12	253548	keystroke_s	s	n/a
126.909	0.12	253818	keystroke_Key.space	Key.space	n/a
127.044	0.12	254088	keystroke_s	s	n/a
127.134	0.135	254268	keystroke_a	a	n/a
127.194	0.12	254388	keystroke_n	n	n/a
127.329	0.105	254658	keystroke_d	d	n/a
127.614	0.149	255228	keystroke_Key.enter	Key.enter	n/a
127.7705	4.706	255541	prompt	n/a	overnight forced tell regime\n
128.424	0.105	256848	keystroke_o	o	n/a
128.499	0.105	256998	keystroke_v	v	n/a
128.634	0.12	257268	keystroke_e	e	n/a
128.739	0.09	257478	keystroke_r	r	n/a
128.814	0.12	257628	keystroke_n	n	n/a
128.874	0.105	257748	keystroke_i	i	n/a
129.084	0.105	258168	keystroke_g	g	n/a
129.144	0.105	258288	keystroke_h	h	n/a
129.204	0.09	258408	keystroke_t	t	n/a
129.324	0.105	258648	keystroke_Key.space	Key.space	n/a
129.444	0.105	258888	keystroke_f	f	n/a
129.564	0.105	259128	keystroke_o	o	n/a
129.654	0.06	259308	keystroke_r	r	n/a
129.834	0.15	259668	keystroke_c	c	n/a
130.014	0.12	260028	keystroke_e	e	n/a
130.089	0.135	260178	keystroke_d	d	n/a
130.179	0.12	260358	keystroke_Key.space	Key.space	n/a
130.404	0.06	260808	keystroke_t	t	n/a
130.434	0.09	260868	keystroke_e	e	n/a
131.004	0.045	262008	keystroke_l	l	n/a
131.139	0.09	262278	keystroke_l	l	n/a
131.199	0.15	262398	keystroke_Key.space	Key.space	n/a
131.334	0.12	262668	keystroke_r	r	n/a
131.439	0.105	262878	keystroke_e	e	n/a
131.589	0.135	263178	keystroke_g	g	n/a
131.649	0.12	263298	keystroke_i	i	n/a
131.724	0.12	263448	keystroke_m	m	n/a
131.814	0.105	263628	keystroke_e	e	n/a
132.369	0.105	264738	keystroke_Key.enter	Key.enter	n/a
132.481	4.179	264962	prompt	n/a	alaska symbol official path\n
132.9835	0.135	265967	keystroke_a	a	n/a
133.0735	0.12	266147	keystroke_l	l	n/a
133.2385	0.165	266477	keystroke_a	a	n/a
133.3735	0.06	266747	keystroke_s	s	n/a
133.7635	0.06	267527	keystroke_k	k	n/a
133.8835	0.105	267767	keystroke_a	a	n/a
134.0035	0.12	268007	keystroke_Key.space	Key.space	n/a
134.1685	0.105	268337	keystroke_s	s	n/a
134.2585	0.12	268517	keystroke_y	y	n/a
134.3335	0.105	268667	keystroke_m	m	n/a
134.5135	0.06	269027	keystroke_b	b	n/a
134.6485	0.12	269297	keystroke_o	o	n/a
134.8585	0.105	269717	keystroke_l	l	n/a
134.9785	0.105	269957	keystroke_Key.space	Key.space	n/a
135.1435	0.09	270287	keystroke_o	o	n/a
135.1735	0.09	270347	keystroke_f	f	n/a
135.3385	0.09	270677	keystroke_f	f	n/a
135.4285	0.09	270857	keystroke_i	i	n/a
135.5195	0.119	271039	keystroke_c	c	n/a
135.6395	0.074	271279	keystroke_i	i	n/a
135.8035	0.12	271607	keystroke_a	a	n/a
135.8485	0.135	271697	keystroke_l	l	n/a
135.9685	0.105	271937	keystroke_Key.space	Key.space	n/a
136.0885	0.105	272177	keystroke_p	p	n/a
136.1635	0.12	272327	keystroke_a	a	n/a
136.2535	0.09	272507	keystroke_t	t	n/a
136.3135	0.075	272627	keystroke_h	h	n/a
136.5385	0.12	273077	keystroke_Key.enter	Key.enter	n/a
136.6645	5.0215	273329	prompt	n/a	discs solution passwords naughty\n
137.3635	0.12	274727	keystroke_d	d	n/a
137.4685	0.09	274937	keystroke_i	i	n/a
137.5735	0.1495	275147	keystroke_s	s	n/a
137.678	0.151	275356	keystroke_c	c	n/a
137.783	0.12	275566	keystroke_s	s	n/a
137.918	0.09	275836	keystroke_Key.space	Key.space	n/a
138.038	0.12	276076	keystroke_s	s	n/a
138.113	0.09	276226	keystroke_o	o	n/a
138.293	0.135	276586	keystroke_l	l	n/a
138.383	0.105	276766	keystroke_u	u	n/a
138.503	0.105	277006	keystroke_t	t	n/a
138.593	0.15	277186	keystroke_i	i	n/a
138.638	0.12	277276	keystroke_o	o	n/a
138.683	0.105	277366	keystroke_n	n	n/a
138.848	0.12	277696	keystroke_Key.space	Key.space	n/a
138.923	0.15	277846	keystroke_p	p	n/a
139.013	0.15	278026	keystroke_a	a	n/a
139.088	0.105	278176	keystroke_s	s	n/a
139.268	0.106	278536	keystroke_s	s	n/a
139.448	0.12	278896	keystroke_w	w	n/a
139.583	0.06	279166	keystroke_o	o	n/a
139.854	0.089	279708	keystroke_r	r	n/a
140.063	0.12	280126	keystroke_d	d	n/a
140.138	0.09	280276	keystroke_s	s	n/a
140.198	0.09	280396	keystroke_Key.space	Key.space	n/a
140.393	0.09	280786	keystroke_n	n	n/a
140.453	0.12	280906	keystroke_a	a	n/a
140.588	0.075	281176	keystroke_u	u	n/a
140.783	0.12	281566	keystroke_g	g	n/a
140.858	0.12	281716	keystroke_h	h	n/a
140.933	0.105	281866	keystroke_t	t	n/a
141.263	0.09	282526	keystroke_y	y	n/a
141.5935	0.09	283187	keystroke_Key.enter	Key.enter	n/a
141.6935	5.1965	283387	prompt	n/a	cumulative builders refer all\n
142.2545	0.105	284509	keystroke_c	c	n/a
142.4185	0.15	284837	keystroke_u	u	n/a
142.5085	0.135	285017	keystroke_m	m	n/a
142.6885	0.12	285377	keystroke_u	u	n/a
143.4545	0.12	286909	keystroke_l	l	n/a
143.7235	0.135	287447	keystroke_a	a	n/a
143.9795	0.074	287959	keystroke_t	t	n/a
144.2185	0.12	288437	keystroke_i	i	n/a
144.3235	0.136	288647	keystroke_v	v	n/a
144.4135	0.105	288827	keystroke_e	e	n/a
144.4735	0.135	288947	keystroke_Key.space	Key.space	n/a
144.6235	0.075	289247	keystroke_b	b	n/a
144.8185	0.165	289637	keystroke_u	u	n/a
144.8785	0.165	289757	keystroke_i	i	n/a
144.9235	0.15	289847	keystroke_l	l	n/a
145.0135	0.135	290027	keystroke_d	d	n/a
145.1335	0.15	290267	keystroke_e	e	n/a
145.2235	0.105	290447	keystroke_r	r	n/a
145.3735	0.12	290747	keystroke_s	s	n/a
145.4785	0.135	290957	keystroke_Key.space	Key.space	n/a
145.5985	0.09	291197	keystroke_r	r	n/a
145.6735	0.12	291347	keystroke_e	e	n/a
145.8085	0.135	291617	keystroke_f	f	n/a
145.9145	0.149	291829	keystroke_e	e	n/a
146.0335	0.105	292067	keystroke_r	r	n/a
146.1535	0.105	292307	keystroke_Key.space	Key.space	n/a
146.2435	0.1055	292487	keystroke_a	a	n/a
146.364	0.03	292728	keystroke_l	l	n/a
146.469	0.105	292938	keystroke_l	l	n/a
146.784	0.105	293568	keystroke_Key.enter	Key.enter	n/a
146.8955	3.685	293791	prompt	n/a	ending shuttle gimme screen\n
147.519	0.12	295038	keystroke_e	e	n/a
147.609	0.135	295218	keystroke_n	n	n/a
147.729	0.105	295458	keystroke_d	d	n/a
147.804	0.12	295608	keystroke_i	i	n/a
147.879	0.09	295758	keystroke_n	n	n/a
147.954	0.09	295908	keystroke_g	g	n/a
148.059	0.105	296118	keystroke_Key.space	Key.space	n/a
148.149	0.135	296298	keystroke_s	s	n/a
148.254	0.105	296508	keystroke_h	h	n/a
148.314	0.12	296628	keystroke_u	u	n/a
148.374	0.09	296748	keystroke_t	t	n/a
148.554	0.075	297108	keystroke_t	t	n/a
148.584	0.12	297168	keystroke_l	l	n/a
148.689	0.09	297378	keystroke_e	e	n/a
148.764	0.12	297528	keystroke_Key.space	Key.space	n/a
148.854	0.105	297708	keystroke_g	g	n/a
148.929	0.105	297858	keystroke_i	i	n/a
148.974	0.09	297948	keystroke_m	m	n/a
149.139	0.09	298278	keystroke_m	m	n/a
149.214	0.105	298428	keystroke_e	e	n/a
149.349	0.105	298698	keystroke_Key.space	Key.space	n/a
149.409	0.12	298818	keystroke_s	s	n/a
149.6335	0.075	299267	keystroke_c	c	n/a
149.8285	0.105	299657	keystroke_r	r	n/a
149.9185	0.075	299837	keystroke_e	e	n/a
150.0835	0.105	300167	keystroke_e	e	n/a
150.1585	0.105	300317	keystroke_n	n	n/a
150.4885	0.09	300977	keystroke_Key.enter	Key.enter	n/a
150.5855	4.54	301171	prompt	n/a	exam hopes duration morocco\n
151.1785	0.105	302357	keystroke_e	e	n/a
151.4035	0.105	302807	keystroke_x	x	n/a
151.4935	0.1355	302987	keystroke_a	a	n/a
151.5835	0.0905	303167	keystroke_m	m	n/a
151.749	0.135	303498	keystroke_Key.space	Key.space	n/a
151.869	0.105	303738	keystroke_h	h	n/a
152.1235	0.18	304247	keystroke_o	o	n/a
152.1985	0.135	304397	keystroke_p	p	n/a
152.2885	0.105	304577	keystroke_e	e	n/a
152.4685	0.12	304937	keystroke_s	s	n/a
152.6035	0.075	305207	keystroke_Key.space	Key.space	n/a
152.7985	0.09	305597	keystroke_d	d	n/a
152.8585	0.105	305717	keystroke_u	u	n/a
152.9785	0.105	305957	keystroke_r	r	n/a
153.0985	0.135	306197	keystroke_a	a	n/a
153.1885	0.09	306377	keystroke_t	t	n/a
153.2485	0.135	306497	keystroke_i	i	n/a
153.3085	0.105	306617	keystroke_o	o	n/a
153.3685	0.075	306737	keystroke_n	n	n/a
153.5185	0.105	307037	keystroke_Key.space	Key.space	n/a
153.8035	0.09	307607	keystroke_m	m	n/a
153.8335	0.15	307667	keystroke_o	o	n/a
154.1635	0.09	308327	keystroke_r	r	n/a
154.2685	0.12	308537	keystroke_o	o	n/a
154.4335	0.06	308867	keystroke_c	c	n/a
154.5985	0.06	309197	keystroke_c	c	n/a
154.6885	0.0755	309377	keystroke_o	o	n/a
155.049	0.075	310098	keystroke_Key.enter	Key.enter	n/a
155.129	4.9615	310258	prompt	n/a	examination rand nutten envelope\n
155.9335	0.105	311867	keystroke_e	e	n/a
156.1285	0.165	312257	keystroke_x	x	n/a
156.2785	0.075	312557	keystroke_a	a	n/a
156.3385	0.105	312677	keystroke_m	m	n/a
156.4735	0.15	312947	keystroke_i	i	n/a
156.5785	0.12	313157	keystroke_n	n	n/a
156.6535	0.105	313307	keystroke_a	a	n/a
156.7285	0.105	313457	keystroke_t	t	n/a
156.8035	0.135	313607	keystroke_i	i	n/a
156.8345	0.119	313669	keystroke_o	o	n/a
156.8935	0.09	313787	keystroke_n	n	n/a
157.0585	0.12	314117	keystroke_Key.space	Key.space	n/a
157.1485	0.135	314297	keystroke_r	r	n/a
157.2835	0.105	314567	keystroke_a	a	n/a
157.3435	0.105	314687	keystroke_n	n	n/a
157.4635	0.09	314927	keystroke_d	d	n/a
157.5385	0.075	315077	keystroke_Key.space	Key.space	n/a
157.7185	0.09	315437	keystroke_n	n	n/a
157.7635	0.12	315527	keystroke_u	u	n/a
157.8385	0.06	315677	keystroke_t	t	n/a
157.9585	0.105	315917	keystroke_t	t	n/a
158.0785	0.105	316157	keystroke_e	e	n/a
158.1985	0.105	316397	keystroke_n	n	n/a
158.4385	0.12	316877	keystroke_Key.space	Key.space	n/a
158.6785	0.12	317357	keystroke_e	e	n/a
158.8135	0.09	317627	keystroke_n	n	n/a
158.9335	0.105	317867	keystroke_v	v	n/a
159.0085	0.12	318017	keystroke_e	e	n/a
159.1295	0.104	318259	keystroke_l	l	n/a
159.1885	0.165	318377	keystroke_o	o	n/a
159.2785	0.135	318557	keystroke_p	p	n/a
159.3685	0.09	318737	keystroke_e	e	n/a
159.9535	0.135	319907	keystroke_Key.enter	Key.enter	n/a
160.0965	4.51	320193	prompt	n/a	virtual gathered attributes realm\n
160.6735	0.12	321347	keystroke_v	v	n/a
160.8235	0.105	321647	keystroke_i	i	n/a
160.9585	0.105	321917	keystroke_r	r	n/a
161.1535	0.09	322307	keystroke_t	t	n/a
161.2135	0.105	322427	keystroke_u	u	n/a
161.3485	0.12	322697	keystroke_a	a	n/a
161.4085	0.105	322817	keystroke_l	l	n/a
161.4835	0.12	322967	keystroke_Key.space	Key.space	n/a
161.5885	0.09	323177	keystroke_g	g	n/a
161.7685	0.105	323537	keystroke_a	a	n/a
161.8585	0.105	323717	keystroke_t	t	n/a
161.9335	0.105	323867	keystroke_h	h	n/a
162.0085	0.12	324017	keystroke_e	e	n/a
162.0985	0.12	324197	keystroke_r	r	n/a
162.2035	0.15	324407	keystroke_e	e	n/a
162.3385	0.135	324677	keystroke_d	d	n/a
162.4585	0.12	324917	keystroke_Key.space	Key.space	n/a
162.5935	0.12	325187	keystroke_a	a	n/a
162.6835	0.09	325367	keystroke_t	t	n/a
162.8485	0.105	325697	keystroke_t	t	n/a
163.0435	0.09	326087	keystroke_r	r	n/a
163.0885	0.12	326177	keystroke_i	i	n/a
163.1635	0.105	326327	keystroke_b	b	n/a
163.1935	0.15	326387	keystroke_u	u	n/a
163.2835	0.12	326567	keystroke_t	t	n/a
163.3585	0.09	326717	keystroke_e	e	n/a
163.5235	0.12	327047	keystroke_s	s	n/a
163.6135	0.105	327227	keystroke_Key.space	Key.space	n/a
163.7635	0.105	327527	keystroke_r	r	n/a
163.8085	0.135	327617	keystroke_e	e	n/a
163.8835	0.12	327767	keystroke_a	a	n/a
163.9285	0.135	327857	keystroke_l	l	n/a
164.1685	0.12	328337	keystroke_m	m	n/a
164.4985	0.105	328997	keystroke_Key.enter	Key.enter	n/a
164.6105	7.3595	329221	prompt	n/a	resident we'd've maiden toolbar\n
165.2185	0.135	330437	keystroke_r	r	n/a
165.2935	0.12	330587	keystroke_e	e	n/a
165.4885	0.12	330977	keystroke_s	s	n/a
165.6235	0.12	331247	keystroke_i	i	n/a
165.7285	0.12	331457	keystroke_d	d	n/a
165.8185	0.12	331637	keystroke_e	e	n/a
165.8935	0.105	331787	keystroke_n	n	n/a
166.2685	0.105	332537	keystroke_t	t	n/a
166.5385	0.12	333077	keystroke_Key.space	Key.space	n/a
166.7335	0.135	333467	keystroke_w	w	n/a
166.9885	0.105	333977	keystroke_e	e	n/a
167.5885	0.12	335177	keystroke_'	'	n/a
167.8435	0.135	335687	keystroke_d	d	n/a
168.5185	0.12	337037	keystroke_'	'	n/a
169.1185	0.015	338237	keystroke_v	v	n/a
169.3585	0.09	338717	keystroke_e	e	n/a
169.6585	0.09	339317	keystroke_Key.space	Key.space	n/a
169.9135	0.135	339827	keystroke_m	m	n/a
170.0185	0.135	340037	keystroke_a	a	n/a
170.1385	0.105	340277	keystroke_i	i	n/a
170.1985	0.135	340397	keystroke_d	d	n/a
170.2885	0.135	340577	keystroke_e	e	n/a
170.4085	0.105	340817	keystroke_n	n	n/a
170.7835	0.12	341567	keystroke_Key.space	Key.space	n/a
170.8885	0.09	341777	keystroke_t	t	n/a
170.9935	0.045	341987	keystroke_o	o	n/a
171.1135	0.12	342227	keystroke_o	o	n/a
171.3835	0.06	342767	keystroke_l	l	n/a
171.5635	0.075	343127	keystroke_b	b	n/a
171.6235	0.105	343247	keystroke_a	a	n/a
171.6835	0.105	343367	keystroke_r	r	n/a
171.8335	0.135	343667	keystroke_Key.enter	Key.enter	n/a
171.9735	5.4865	343947	prompt	n/a	librarian mayor attorney lands\n
172.6885	0.12	345377	keystroke_l	l	n/a
172.8535	0.12	345707	keystroke_i	i	n/a
172.9135	0.12	345827	keystroke_b	b	n/a
173.0185	0.105	346037	keystroke_r	r	n/a
173.1085	0.135	346217	keystroke_a	a	n/a
173.1985	0.12	346397	keystroke_r	r	n/a
173.3635	0.12	346727	keystroke_i	i	n/a
173.5285	0.09	347057	keystroke_a	a	n/a
173.6335	0.075	347267	keystroke_n	n	n/a
173.8885	0.09	347777	keystroke_Key.space	Key.space	n/a
174.3835	0.09	348767	keystroke_m	m	n/a
174.4885	0.12	348977	keystroke_a	a	n/a
174.6985	0.06	349397	keystroke_y	y	n/a
174.7285	0.135	349457	keystroke_o	o	n/a
174.9835	0.12	349967	keystroke_r	r	n/a
175.2685	0.105	350537	keystroke_Key.space	Key.space	n/a
175.4335	0.15	350867	keystroke_a	a	n/a
175.6735	0.06	351347	keystroke_t	t	n/a
175.8235	0.12	351647	keystroke_t	t	n/a
175.8985	0.12	351797	keystroke_o	o	n/a
176.0635	0.105	352127	keystroke_r	r	n/a
176.3185	0.075	352637	keystroke_n	n	n/a
176.4835	0.09	352967	keystroke_e	e	n/a
176.5585	0.105	353117	keystroke_y	y	n/a
176.6485	0.135	353297	keystroke_Key.space	Key.space	n/a
176.7845	0.134	353569	keystroke_l	l	n/a
176.9485	0.12	353897	keystroke_a	a	n/a
177.0385	0.135	354077	keystroke_n	n	n/a
177.1585	0.09	354317	keystroke_d	d	n/a
177.2035	0.12	354407	keystroke_s	s	n/a
177.3535	0.105	354707	keystroke_Key.enter	Key.enter	n/a
177.4685	3.6825	354937	prompt	n/a	servers ghost broker andale\n
178.1335	0.09	356267	keystroke_s	s	n/a
178.3285	0.12	356657	keystroke_e	e	n/a
178.4035	0.105	356807	keystroke_r	r	n/a
178.5385	0.12	357077	keystroke_v	v	n/a
178.6435	0.135	357287	keystroke_e	e	n/a
178.7185	0.135	357437	keystroke_r	r	n/a
178.8835	0.105	357767	keystroke_s	s	n/a
178.9585	0.105	357917	keystroke_Key.space	Key.space	n/a
179.1385	0.075	358277	keystroke_g	g	n/a
179.1835	0.12	358367	keystroke_h	h	n/a
179.2585	0.12	358517	keystroke_o	o	n/a
179.3185	0.165	358637	keystroke_s	s	n/a
179.4385	0.12	358877	keystroke_t	t	n/a
179.5135	0.12	359027	keystroke_Key.space	Key.space	n/a
179.6485	0.09	359297	keystroke_b	b	n/a
179.7535	0.121	359507	keystroke_r	r	n/a
179.8745	0.149	359749	keystroke_o	o	n/a
179.9635	0.135	359927	keystroke_k	k	n/a
180.0245	0.134	360049	keystroke_e	e	n/a
180.0835	0.135	360167	keystroke_r	r	n/a
180.2035	0.09	360407	keystroke_Key.space	Key.space	n/a
180.3385	0.135	360677	keystroke_a	a	n/a
180.4435	0.105	360887	keystroke_n	n	n/a
180.5495	0.119	361099	keystroke_d	d	n/a
180.6385	0.12	361277	keystroke_a	a	n/a
180.6985	0.12	361397	keystroke_l	l	n/a
180.8335	0.09	361667	keystroke_e	e	n/a
181.0435	0.105	362087	keystroke_Key.enter	Key.enter	n/a
181.1555	6.55	362311	prompt	n/a	advantage cialis decorating shot\n
181.7185	0.135	363437	keystroke_a	a	n/a
182.0335	0.105	364067	keystroke_d	d	n/a
182.2735	0.075	364547	keystroke_v	v	n/a
182.4535	0.12	364907	keystroke_a	a	n/a
182.5585	0.12	365117	keystroke_n	n	n/a
182.6485	0.09	365297	keystroke_t	t	n/a
182.7535	0.121	365507	keystroke_a	a	n/a
182.9035	0.106	365807	keystroke_g	g	n/a
182.9635	0.12	365927	keystroke_e	e	n/a
183.0535	0.12	366107	keystroke_Key.space	Key.space	n/a
183.2785	0.075	366557	keystroke_c	c	n/a
183.3685	0.12	366737	keystroke_i	i	n/a
183.4895	0.044	366979	keystroke_l	l	n/a
183.5495	0.134	367099	keystroke_a	a	n/a
184.1785	0.12	368357	keystroke_Key.backspace	Key.backspace	n/a
184.3135	0.06	368627	keystroke_Key.backspace	Key.backspace	n/a
184.4185	0.075	368837	keystroke_a	a	n/a
184.5385	0.136	369077	keystroke_l	l	n/a
184.6135	0.135	369227	keystroke_i	i	n/a
184.7335	0.135	369467	keystroke_s	s	n/a
184.8535	0.12	369707	keystroke_Key.space	Key.space	n/a
185.2135	0.135	370427	keystroke_d	d	n/a
185.3035	0.135	370607	keystroke_e	e	n/a
185.4685	0.165	370937	keystroke_c	c	n/a
185.6185	0.135	371237	keystroke_o	o	n/a
185.7685	0.105	371537	keystroke_r	r	n/a
185.9035	0.12	371807	keystroke_a	a	n/a
185.9935	0.12	371987	keystroke_t	t	n/a
186.0835	0.09	372167	keystroke_i	i	n/a
186.1585	0.09	372317	keystroke_n	n	n/a
186.2635	0.075	372527	keystroke_g	g	n/a
186.3535	0.09	372707	keystroke_Key.space	Key.space	n/a
186.4585	0.105	372917	keystroke_s	s	n/a
186.5485	0.09	373097	keystroke_h	h	n/a
186.6085	0.105	373217	keystroke_o	o	n/a
186.6685	0.105	373337	keystroke_t	t	n/a
187.6285	0.075	375257	keystroke_Key.enter	Key.enter	n/a
187.711	5.4995	375422	prompt	n/a	sheer certificates highlights byte\n
188.3935	0.12	376787	keystroke_s	s	n/a
188.4835	0.105	376967	keystroke_h	h	n/a
188.6035	0.075	377207	keystroke_e	e	n/a
188.7385	0.135	377477	keystroke_e	e	n/a
188.8285	0.105	377657	keystroke_r	r	n/a
188.9185	0.105	377837	keystroke_Key.space	Key.space	n/a
189.0535	0.135	378107	keystroke_c	c	n/a
189.3535	0.12	378707	keystroke_e	e	n/a
189.4285	0.135	378857	keystroke_r	r	n/a
189.6535	0.106	379307	keystroke_t	t	n/a
189.8335	0.105	379667	keystroke_i	i	n/a
189.9535	0.105	379907	keystroke_f	f	n/a
190.0745	0.104	380149	keystroke_i	i	n/a
190.1795	0.104	380359	keystroke_c	c	n/a
190.3135	0.12	380627	keystroke_a	a	n/a
190.4185	0.12	380837	keystroke_t	t	n/a
190.5085	0.09	381017	keystroke_e	e	n/a
190.7035	0.09	381407	keystroke_s	s	n/a
190.7785	0.12	381557	keystroke_Key.space	Key.space	n/a
190.8835	0.195	381767	keystroke_h	h	n/a
190.9885	0.105	381977	keystroke_i	i	n/a
191.2135	0.12	382427	keystroke_g	g	n/a
191.2885	0.105	382577	keystroke_h	h	n/a
191.4985	0.165	382997	keystroke_l	l	n/a
191.6035	0.075	383207	keystroke_i	i	n/a
191.8585	0.151	383717	keystroke_g	g	n/a
191.9495	0.119	383899	keystroke_h	h	n/a
192.0385	0.06	384077	keystroke_t	t	n/a
192.2485	0.105	384497	keystroke_s	s	n/a
192.3835	0.09	384767	keystroke_Key.space	Key.space	n/a
192.4285	0.105	384857	keystroke_b	b	n/a
192.6835	0.105	385367	keystroke_y	y	n/a
192.7735	0.12	385547	keystroke_t	t	n/a
192.8785	0.09	385757	keystroke_e	e	n/a
193.1185	0.09	386237	keystroke_Key.enter	Key.enter	n/a
193.2145	4.1365	386429	prompt	n/a	show modify nasdaq mars\n
193.8835	0.12	387767	keystroke_s	s	n/a
193.9585	0.12	387917	keystroke_h	h	n/a
194.0185	0.135	388037	keystroke_o	o	n/a
194.1085	0.09	388217	keystroke_w	w	n/a
194.2135	0.09	388427	keystroke_Key.space	Key.space	n/a
194.4245	0.104	388849	keystroke_m	m	n/a
194.4835	0.12	388967	keystroke_o	o	n/a
194.5435	0.135	389087	keystroke_d	d	n/a
194.6935	0.09	389387	keystroke_i	i	n/a
194.7535	0.105	389507	keystroke_f	f	n/a
194.8595	0.104	389719	keystroke_y	y	n/a
194.9185	0.12	389837	keystroke_Key.space	Key.space	n/a
195.2785	0.105	390557	keystroke_n	n	n/a
195.4135	0.15	390827	keystroke_a	a	n/a
195.4885	0.106	390977	keystroke_s	s	n/a
195.6985	0.105	391397	keystroke_d	d	n/a
195.8935	0.075	391787	keystroke_a	a	n/a
196.4035	0.12	392807	keystroke_q	q	n/a
196.5535	0.09	393107	keystroke_Key.space	Key.space	n/a
196.7635	0.12	393527	keystroke_m	m	n/a
196.7935	0.12	393587	keystroke_a	a	n/a
196.8845	0.119	393769	keystroke_r	r	n/a
197.0185	0.135	394037	keystroke_s	s	n/a
197.2435	0.105	394487	keystroke_Key.enter	Key.enter	n/a
197.357	9.383	394714	prompt	n/a	tier already hazards speaks\n
198.0835	0.12	396167	keystroke_t	t	n/a
198.1885	0.15	396377	keystroke_i	i	n/a
198.3095	0.149	396619	keystroke_e	e	n/a
198.3985	0.105	396797	keystroke_r	r	n/a
198.5045	0.119	397009	keystroke_Key.space	Key.space	n/a
198.6385	0.135	397277	keystroke_a	a	n/a
198.7285	0.121	397457	keystroke_l	l	n/a
198.8335	0.09	397667	keystroke_r	r	n/a
198.8935	0.225	397787	keystroke_e	e	n/a
198.9545	0.179	397909	keystroke_a	a	n/a
199.1195	0.074	398239	keystroke_d	d	n/a
199.1195	0.104	398239	keystroke_y	y	n/a
199.1785	0.135	398357	keystroke_Key.space	Key.space	n/a
199.3585	0.12	398717	keystroke_h	h	n/a
199.4485	0.12	398897	keystroke_a	a	n/a
199.6585	0.12	399317	keystroke_z	z	n/a
199.7935	0.15	399587	keystroke_a	a	n/a
199.9135	0.105	399827	keystroke_r	r	n/a
200.1245	0.119	400249	keystroke_d	d	n/a
200.1985	0.105	400397	keystroke_s	s	n/a
200.3185	0.105	400637	keystroke_Key.space	Key.space	n/a
200.4685	0.076	400937	keystroke_s	s	n/a
200.5585	0.075	401117	keystroke_p	p	n/a
200.6785	0.18	401357	keystroke_e	e	n/a
200.7385	0.165	401477	keystroke_a	a	n/a
200.8745	0.104	401749	keystroke_k	k	n/a
200.9945	0.089	401989	keystroke_s	s	n/a
202.959	0.09	405918	keystroke_Key.backspace	Key.backspace	n/a
203.124	0.075	406248	keystroke_Key.backspace	Key.backspace	n/a
203.274	0.09	406548	keystroke_Key.backspace	Key.backspace	n/a
203.394	0.09	406788	keystroke_Key.backspace	Key.backspace	n/a
203.574	0.075	407148	keystroke_Key.backspace	Key.backspace	n/a
203.889	0.09	407778	keystroke_Key.backspace	Key.backspace	n/a
204.129	0.12	408258	keystroke_d	d	n/a
204.234	0.135	408468	keystroke_y	y	n/a
204.354	0.12	408708	keystroke_Key.space	Key.space	n/a
204.549	0.12	409098	keystroke_h	h	n/a
204.624	0.135	409248	keystroke_a	a	n/a
204.744	0.165	409488	keystroke_z	z	n/a
204.954	0.12	409908	keystroke_a	a	n/a
205.044	0.105	410088	keystroke_r	r	n/a
205.239	0.105	410478	keystroke_d	d	n/a
205.314	0.12	410628	keystroke_s	s	n/a
205.419	0.12	410838	keystroke_Key.space	Key.space	n/a
205.554	0.12	411108	keystroke_s	s	n/a
205.854	0.09	411708	keystroke_p	p	n/a
206.004	0.18	412008	keystroke_e	e	n/a
206.064	0.18	412128	keystroke_a	a	n/a
206.199	0.105	412398	keystroke_k	k	n/a
206.319	0.09	412638	keystroke_s	s	n/a
206.589	0.15	413178	keystroke_Key.enter	Key.enter	n/a
206.745	5.951	413490	prompt	n/a	palestinian regime participation funny\n
207.984	0.09	415968	keystroke_p	p	n/a
208.134	0.12	416268	keystroke_a	a	n/a
208.239	0.12	416478	keystroke_l	l	n/a
208.344	0.12	416688	keystroke_e	e	n/a
208.539	0.18	417078	keystroke_s	s	n/a
208.704	0.09	417408	keystroke_t	t	n/a
208.809	0.09	417618	keystroke_i	i	n/a
208.884	0.09	417768	keystroke_n	n	n/a
209.004	0.105	418008	keystroke_i	i	n/a
209.139	0.135	418278	keystroke_a	a	n/a
209.244	0.075	418488	keystroke_n	n	n/a
209.394	0.135	418788	keystroke_Key.space	Key.space	n/a
209.514	0.105	419028	keystroke_r	r	n/a
209.574	0.12	419148	keystroke_e	e	n/a
209.769	0.105	419538	keystroke_g	g	n/a
209.814	0.075	419628	keystroke_i	i	n/a
209.859	0.105	419718	keystroke_m	m	n/a
209.949	0.12	419898	keystroke_e	e	n/a
210.069	0.105	420138	keystroke_Key.space	Key.space	n/a
210.204	0.105	420408	keystroke_p	p	n/a
210.249	0.105	420498	keystroke_a	a	n/a
210.339	0.12	420678	keystroke_r	r	n/a
210.804	0.09	421608	keystroke_t	t	n/a
210.954	0.09	421908	keystroke_i	i	n/a
211.074	0.105	422148	keystroke_c	c	n/a
211.149	0.12	422298	keystroke_i	i	n/a
211.209	0.15	422418	keystroke_p	p	n/a
211.299	0.12	422598	keystroke_a	a	n/a
211.404	0.105	422808	keystroke_t	t	n/a
211.464	0.15	422928	keystroke_i	i	n/a
211.524	0.12	423048	keystroke_o	o	n/a
211.584	0.075	423168	keystroke_n	n	n/a
211.734	0.09	423468	keystroke_Key.space	Key.space	n/a
211.839	0.105	423678	keystroke_f	f	n/a
211.914	0.105	423828	keystroke_u	u	n/a
211.959	0.09	423918	keystroke_n	n	n/a
212.124	0.12	424248	keystroke_n	n	n/a
212.259	0.105	424518	keystroke_y	y	n/a
212.589	0.105	425178	keystroke_Key.enter	Key.enter	n/a
212.701	4.0605	425402	prompt	n/a	scales convert gnome excited\n
213.249	0.12	426498	keystroke_s	s	n/a
213.429	0.105	426858	keystroke_c	c	n/a
213.474	0.135	426948	keystroke_a	a	n/a
213.564	0.135	427128	keystroke_l	l	n/a
213.714	0.06	427428	keystroke_e	e	n/a
213.879	0.105	427758	keystroke_s	s	n/a
213.969	0.105	427938	keystroke_Key.space	Key.space	n/a
214.164	0.09	428328	keystroke_c	c	n/a
214.194	0.12	428388	keystroke_o	o	n/a
214.254	0.12	428508	keystroke_n	n	n/a
214.389	0.075	428778	keystroke_v	v	n/a
214.539	0.105	429078	keystroke_e	e	n/a
214.614	0.105	429228	keystroke_r	r	n/a
214.794	0.105	429588	keystroke_t	t	n/a
214.914	0.09	429828	keystroke_Key.space	Key.space	n/a
215.079	0.105	430158	keystroke_g	g	n/a
215.169	0.105	430338	keystroke_n	n	n/a
215.259	0.135	430518	keystroke_o	o	n/a
215.364	0.105	430728	keystroke_m	m	n/a
215.454	0.135	430908	keystroke_e	e	n/a
215.589	0.09	431178	keystroke_Key.space	Key.space	n/a
215.649	0.105	431298	keystroke_e	e	n/a
215.859	0.09	431718	keystroke_x	x	n/a
216.054	0.09	432108	keystroke_c	c	n/a
216.159	0.105	432318	keystroke_i	i	n/a
216.279	0.09	432558	keystroke_t	t	n/a
216.399	0.135	432798	keystroke_e	e	n/a
216.489	0.105	432978	keystroke_d	d	n/a
216.654	0.105	433308	keystroke_Key.enter	Key.enter	n/a
216.7665	4.5545	433533	prompt	n/a	distribute sensors dial interact\n
217.419	0.12	434838	keystroke_d	d	n/a
217.569	0.09	435138	keystroke_i	i	n/a
217.629	0.15	435258	keystroke_s	s	n/a
217.764	0.09	435528	keystroke_t	t	n/a
217.929	0.12	435858	keystroke_r	r	n/a
217.989	0.105	435978	keystroke_i	i	n/a
218.064	0.12	436128	keystroke_b	b	n/a
218.124	0.15	436248	keystroke_u	u	n/a
218.199	0.105	436398	keystroke_t	t	n/a
218.289	0.12	436578	keystroke_e	e	n/a
218.364	0.105	436728	keystroke_Key.space	Key.space	n/a
218.499	0.12	436998	keystroke_s	s	n/a
218.739	0.09	437478	keystroke_e	e	n/a
218.844	0.105	437688	keystroke_n	n	n/a
218.994	0.12	437988	keystroke_s	s	n/a
219.099	0.135	438198	keystroke_o	o	n/a
219.204	0.09	438408	keystroke_r	r	n/a
219.309	0.105	438618	keystroke_s	s	n/a
219.399	0.135	438798	keystroke_Key.space	Key.space	n/a
219.519	0.105	439038	keystroke_d	d	n/a
219.609	0.105	439218	keystroke_i	i	n/a
219.759	0.135	439518	keystroke_a	a	n/a
219.834	0.135	439668	keystroke_l	l	n/a
219.954	0.12	439908	keystroke_Key.space	Key.space	n/a
220.089	0.12	440178	keystroke_i	i	n/a
220.179	0.12	440358	keystroke_n	n	n/a
220.239	0.09	440478	keystroke_t	t	n/a
220.314	0.105	440628	keystroke_e	e	n/a
220.404	0.105	440808	keystroke_r	r	n/a
220.524	0.09	441048	keystroke_a	a	n/a
220.704	0.105	441408	keystroke_c	c	n/a
220.929	0.09	441858	keystroke_t	t	n/a
221.184	0.135	442368	keystroke_Key.enter	Key.enter	n/a
221.3265	3.924	442653	prompt	n/a	entrance pine antonio king\n
221.904	0.18	443808	keystroke_e	e	n/a
222.069	0.06	444138	keystroke_n	n	n/a
222.114	0.06	444228	keystroke_t	t	n/a
222.279	0.105	444558	keystroke_r	r	n/a
222.354	0.12	444708	keystroke_a	a	n/a
222.429	0.105	444858	keystroke_n	n	n/a
222.579	0.12	445158	keystroke_c	c	n/a
222.654	0.105	445308	keystroke_e	e	n/a
222.729	0.12	445458	keystroke_Key.space	Key.space	n/a
222.864	0.15	445728	keystroke_p	p	n/a
222.954	0.105	445908	keystroke_i	i	n/a
223.029	0.105	446058	keystroke_n	n	n/a
223.134	0.105	446268	keystroke_e	e	n/a
223.239	0.09	446478	keystroke_Key.space	Key.space	n/a
223.359	0.12	446718	keystroke_a	a	n/a
223.449	0.105	446898	keystroke_n	n	n/a
223.584	0.105	447168	keystroke_t	t	n/a
223.704	0.105	447408	keystroke_o	o	n/a
223.779	0.12	447558	keystroke_n	n	n/a
223.869	0.165	447738	keystroke_i	i	n/a
223.944	0.12	447888	keystroke_o	o	n/a
224.019	0.09	448038	keystroke_n	n	n/a
224.424	0.075	448848	keystroke_Key.backspace	Key.backspace	n/a
224.544	0.135	449088	keystroke_Key.space	Key.space	n/a
224.709	0.09	449418	keystroke_k	k	n/a
224.874	0.105	449748	keystroke_i	i	n/a
224.919	0.105	449838	keystroke_n	n	n/a
225.009	0.06	450018	keystroke_g	g	n/a
225.159	0.09	450318	keystroke_Key.enter	Key.enter	n/a
225.2545	3.612	450509	prompt	n/a	stylus jewel induced fish\n
225.849	0.09	451698	keystroke_s	s	n/a
226.029	0.09	452058	keystroke_t	t	n/a
226.104	0.075	452208	keystroke_y	y	n/a
226.299	0.135	452598	keystroke_l	l	n/a
226.404	0.15	452808	keystroke_u	u	n/a
226.524	0.105	453048	keystroke_s	s	n/a
226.599	0.105	453198	keystroke_Key.space	Key.space	n/a
226.764	0.15	453528	keystroke_j	j	n/a
226.884	0.135	453768	keystroke_e	e	n/a
226.959	0.12	453918	keystroke_w	w	n/a
227.169	0.12	454338	keystroke_e	e	n/a
227.244	0.105	454488	keystroke_l	l	n/a
227.364	0.09	454728	keystroke_Key.space	Key.space	n/a
227.469	0.15	454938	keystroke_i	i	n/a
227.559	0.105	455118	keystroke_n	n	n/a
227.634	0.09	455268	keystroke_d	d	n/a
227.739	0.12	455478	keystroke_u	u	n/a
227.814	0.12	455628	keystroke_c	c	n/a
227.934	0.15	455868	keystroke_e	e	n/a
228.024	0.135	456048	keystroke_d	d	n/a
228.099	0.12	456198	keystroke_Key.space	Key.space	n/a
228.234	0.105	456468	keystroke_f	f	n/a
228.294	0.09	456588	keystroke_i	i	n/a
228.414	0.09	456828	keystroke_s	s	n/a
228.459	0.075	456918	keystroke_h	h	n/a
228.744	0.12	457488	keystroke_Key.enter	Key.enter	n/a
228.871	3.82	457742	prompt	n/a	affect important burton above\n
229.449	0.15	458898	keystroke_a	a	n/a
229.584	0.03	459168	keystroke_f	f	n/a
229.644	0.105	459288	keystroke_f	f	n/a
229.719	0.195	459438	keystroke_e	e	n/a
229.854	0.165	459708	keystroke_c	c	n/a
230.139	0.09	460278	keystroke_t	t	n/a
230.214	0.105	460428	keystroke_Key.space	Key.space	n/a
230.364	0.135	460728	keystroke_i	i	n/a
230.484	0.12	460968	keystroke_m	m	n/a
230.514	0.165	461028	keystroke_p	p	n/a
230.619	0.135	461238	keystroke_o	o	n/a
230.664	0.105	461328	keystroke_r	r	n/a
230.829	0.075	461658	keystroke_t	t	n/a
230.919	0.152	461838	keystroke_a	a	n/a
230.964	0.09	461928	keystroke_n	n	n/a
231.071	0.073	462142	keystroke_t	t	n/a
231.129	0.15	462258	keystroke_Key.space	Key.space	n/a
231.204	0.165	462408	keystroke_b	b	n/a
231.309	0.165	462618	keystroke_u	u	n/a
231.399	0.105	462798	keystroke_r	r	n/a
231.579	0.105	463158	keystroke_t	t	n/a
231.624	0.09	463248	keystroke_o	o	n/a
231.669	0.09	463338	keystroke_n	n	n/a
231.834	0.075	463668	keystroke_Key.space	Key.space	n/a
231.939	0.105	463878	keystroke_a	a	n/a
232.014	0.06	464028	keystroke_b	b	n/a
232.224	0.105	464448	keystroke_o	o	n/a
232.299	0.12	464598	keystroke_v	v	n/a
232.374	0.12	464748	keystroke_e	e	n/a
232.554	0.135	465108	keystroke_Key.enter	Key.enter	n/a
232.699	4.117	465398	prompt	n/a	portraits wood comparison pulse\n
233.274	0.165	466548	keystroke_p	p	n/a
233.394	0.135	466788	keystroke_o	o	n/a
233.454	0.09	466908	keystroke_r	r	n/a
233.634	0.075	467268	keystroke_t	t	n/a
233.784	0.12	467568	keystroke_r	r	n/a
233.889	0.135	467778	keystroke_a	a	n/a
234.009	0.09	468018	keystroke_i	i	n/a
234.054	0.09	468108	keystroke_t	t	n/a
234.204	0.105	468408	keystroke_s	s	n/a
234.279	0.15	468558	keystroke_Key.space	Key.space	n/a
234.414	0.09	468828	keystroke_w	w	n/a
234.474	0.075	468948	keystroke_o	o	n/a
234.609	0.12	469218	keystroke_o	o	n/a
234.684	0.105	469368	keystroke_d	d	n/a
234.744	0.15	469488	keystroke_Key.space	Key.space	n/a
234.924	0.105	469848	keystroke_c	c	n/a
235.059	0.1495	470118	keystroke_o	o	n/a
235.164	0.1195	470328	keystroke_m	m	n/a
235.2985	0.135	470597	keystroke_p	p	n/a
235.3735	0.135	470747	keystroke_a	a	n/a
235.4635	0.135	470927	keystroke_r	r	n/a
235.5835	0.105	471167	keystroke_i	i	n/a
235.6735	0.12	471347	keystroke_s	s	n/a
235.7485	0.12	471497	keystroke_o	o	n/a
235.7935	0.105	471587	keystroke_n	n	n/a
235.9435	0.135	471887	keystroke_Key.space	Key.space	n/a
236.1235	0.105	472247	keystroke_p	p	n/a
236.2435	0.15	472487	keystroke_u	u	n/a
236.3635	0.135	472727	keystroke_l	l	n/a
236.4085	0.105	472817	keystroke_s	s	n/a
236.6035	0.09	473207	keystroke_e	e	n/a
236.7085	0.105	473417	keystroke_Key.enter	Key.enter	n/a
236.821	4.329	473642	prompt	n/a	specialist increasing summer humidity\n
237.3235	0.105	474647	keystroke_s	s	n/a
237.4435	0.09	474887	keystroke_p	p	n/a
237.5485	0.135	475097	keystroke_e	e	n/a
237.6235	0.135	475247	keystroke_c	c	n/a
237.6985	0.135	475397	keystroke_i	i	n/a
237.8345	0.104	475669	keystroke_a	a	n/a
237.8485	0.18	475697	keystroke_l	l	n/a
237.9685	0.135	475937	keystroke_i	i	n/a
238.0295	0.119	476059	keystroke_s	s	n/a
238.1785	0.121	476357	keystroke_t	t	n/a
238.2835	0.1055	476567	keystroke_Key.space	Key.space	n/a
238.4335	0.12	476867	keystroke_i	i	n/a
238.4785	0.12	476957	keystroke_n	n	n/a
238.5685	0.06	477137	keystroke_c	c	n/a
238.7485	0.12	477497	keystroke_r	r	n/a
238.8235	0.12	477647	keystroke_e	e	n/a
238.8835	0.105	477767	keystroke_a	a	n/a
239.0335	0.12	478067	keystroke_s	s	n/a
239.0935	0.12	478187	keystroke_i	i	n/a
239.1385	0.105	478277	keystroke_n	n	n/a
239.2285	0.105	478457	keystroke_g	g	n/a
239.3185	0.12	478637	keystroke_Key.space	Key.space	n/a
239.4685	0.09	478937	keystroke_s	s	n/a
239.5735	0.12	479147	keystroke_u	u	n/a
239.6335	0.075	479267	keystroke_m	m	n/a
239.7985	0.09	479597	keystroke_m	m	n/a
239.9035	0.12	479807	keystroke_e	e	n/a
239.9785	0.105	479957	keystroke_r	r	n/a
240.0535	0.105	480107	keystroke_Key.space	Key.space	n/a
240.1285	0.18	480257	keystroke_h	h	n/a
240.1885	0.15	480377	keystroke_u	u	n/a
240.3095	0.104	480619	keystroke_m	m	n/a
240.4585	0.105	480917	keystroke_i	i	n/a
240.5335	0.105	481067	keystroke_d	d	n/a
240.6535	0.06	481307	keystroke_i	i	n/a
240.7585	0.09	481517	keystroke_t	t	n/a
240.8185	0.06	481637	keystroke_y	y	n/a
241.0435	0.105	482087	keystroke_Key.enter	Key.enter	n/a
241.1545	4.2555	482309	prompt	n/a	remedy sherman passport arguments\n
241.7935	0.12	483587	keystroke_r	r	n/a
241.8985	0.12	483797	keystroke_e	e	n/a
242.0035	0.075	484007	keystroke_m	m	n/a
242.0935	0.135	484187	keystroke_e	e	n/a
242.1835	0.165	484367	keystroke_d	d	n/a
242.2435	0.12	484487	keystroke_y	y	n/a
242.3035	0.12	484607	keystroke_Key.space	Key.space	n/a
242.4835	0.105	484967	keystroke_s	s	n/a
242.6185	0.12	485237	keystroke_h	h	n/a
242.7535	0.12	485507	keystroke_e	e	n/a
242.8135	0.105	485627	keystroke_r	r	n/a
242.8885	0.09	485777	keystroke_m	m	n/a
243.0095	0.119	486019	keystroke_a	a	n/a
243.0685	0.09	486137	keystroke_n	n	n/a
243.2485	0.105	486497	keystroke_Key.space	Key.space	n/a
243.3385	0.135	486677	keystroke_p	p	n/a
243.3985	0.12	486797	keystroke_a	a	n/a
243.4585	0.075	486917	keystroke_s	s	n/a
243.6235	0.09	487247	keystroke_s	s	n/a
243.7435	0.12	487487	keystroke_p	p	n/a
243.9535	0.105	487907	keystroke_o	o	n/a
244.0135	0.075	488027	keystroke_r	r	n/a
244.1785	0.09	488357	keystroke_t	t	n/a
244.2535	0.105	488507	keystroke_Key.space	Key.space	n/a
244.3735	0.105	488747	keystroke_a	a	n/a
244.4485	0.09	488897	keystroke_r	r	n/a
244.6585	0.075	489317	keystroke_g	g	n/a
244.7185	0.105	489437	keystroke_u	u	n/a
244.7945	0.104	489589	keystroke_m	m	n/a
244.8685	0.12	489737	keystroke_e	e	n/a
244.9735	0.12	489947	keystroke_n	n	n/a
245.0335	0.075	490067	keystroke_t	t	n/a
245.2135	0.105	490427	keystroke_s	s	n/a
245.3335	0.075	490667	keystroke_Key.enter	Key.enter	n/a
245.4155	7.12	490831	prompt	n/a	viewed responsibilities daddy bobby\n
246.0385	0.09	492077	keystroke_v	v	n/a
246.1885	0.105	492377	keystroke_i	i	n/a
246.3235	0.135	492647	keystroke_e	e	n/a
246.4435	0.09	492887	keystroke_w	w	n/a
246.6385	0.136	493277	keystroke_e	e	n/a
246.7585	0.12	493517	keystroke_d	d	n/a
246.8485	0.12	493697	keystroke_Key.space	Key.space	n/a
246.9985	0.12	493997	keystroke_r	r	n/a
247.0735	0.105	494147	keystroke_e	e	n/a
247.2985	0.105	494597	keystroke_s	s	n/a
247.3585	0.12	494717	keystroke_p	p	n/a
247.4335	0.12	494867	keystroke_o	o	n/a
247.4935	0.105	494987	keystroke_n	n	n/a
247.6435	0.105	495287	keystroke_s	s	n/a
247.8535	0.135	495707	keystroke_i	i	n/a
247.9585	0.15	495917	keystroke_b	b	n/a
248.0635	0.15	496127	keystroke_i	i	n/a
248.1685	0.165	496337	keystroke_l	l	n/a
248.3035	0.09	496607	keystroke_i	i	n/a
248.3785	0.105	496757	keystroke_t	t	n/a
249.0535	0.105	498107	keystroke_i	i	n/a
249.1435	0.09	498287	keystroke_e	e	n/a
249.3385	0.105	498677	keystroke_s	s	n/a
249.5185	0.12	499037	keystroke_Key.space	Key.space	n/a
249.9385	0.09	499877	keystroke_a	a	n/a
250.4035	0.075	500807	keystroke_Key.backspace	Key.backspace	n/a
250.5535	0.09	501107	keystroke_d	d	n/a
250.6285	0.12	501257	keystroke_a	a	n/a
250.7335	0.06	501467	keystroke_d	d	n/a
250.8385	0.09	501677	keystroke_d	d	n/a
250.8835	0.12	501767	keystroke_y	y	n/a
250.9885	0.12	501977	keystroke_Key.space	Key.space	n/a
251.2735	0.105	502547	keystroke_b	b	n/a
251.4535	0.06	502907	keystroke_o	o	n/a
251.8285	0.075	503657	keystroke_b	b	n/a
251.9935	0.045	503987	keystroke_b	b	n/a
252.1885	0.06	504377	keystroke_y	y	n/a
252.3985	0.135	504797	keystroke_Key.enter	Key.enter	n/a
252.54	5.0655	505080	prompt	n/a	techrepublic trash nuke signature\n
253.2395	0.104	506479	keystroke_t	t	n/a
253.3445	0.104	506689	keystroke_e	e	n/a
253.5235	0.105	507047	keystroke_c	c	n/a
253.6295	0.089	507259	keystroke_h	h	n/a
253.7635	0.12	507527	keystroke_r	r	n/a
253.8535	0.12	507707	keystroke_e	e	n/a
254.0035	0.075	508007	keystroke_p	p	n/a
254.1535	0.15	508307	keystroke_u	u	n/a
254.2885	0.15	508577	keystroke_b	b	n/a
254.4835	0.195	508967	keystroke_l	l	n/a
254.6185	0.15	509237	keystroke_i	i	n/a
254.7235	0.09	509447	keystroke_c	c	n/a
254.8735	0.105	509747	keystroke_Key.space	Key.space	n/a
254.9485	0.09	509897	keystroke_t	t	n/a
255.1285	0.121	510257	keystroke_r	r	n/a
255.2185	0.165	510437	keystroke_a	a	n/a
255.2935	0.135	510587	keystroke_s	s	n/a
255.3385	0.15	510677	keystroke_h	h	n/a
255.4435	0.075	510887	keystroke_Key.space	Key.space	n/a
255.6235	0.105	511247	keystroke_n	n	n/a
255.6985	0.15	511397	keystroke_u	u	n/a
255.7735	0.12	511547	keystroke_k	k	n/a
255.8335	0.12	511667	keystroke_e	e	n/a
255.9685	0.09	511937	keystroke_Key.space	Key.space	n/a
256.2085	0.12	512417	keystroke_s	s	n/a
256.3135	0.105	512627	keystroke_i	i	n/a
256.4635	0.075	512927	keystroke_g	g	n/a
256.5535	0.09	513107	keystroke_n	n	n/a
256.7195	0.134	513439	keystroke_a	a	n/a
256.8235	0.105	513647	keystroke_t	t	n/a
256.9135	0.105	513827	keystroke_u	u	n/a
257.0335	0.105	514067	keystroke_r	r	n/a
257.1085	0.12	514217	keystroke_e	e	n/a
257.4985	0.105	514997	keystroke_Key.enter	Key.enter	n/a
257.6095	6.2065	515219	prompt	n/a	constraint bears cook prospective\n
258.2785	0.105	516557	keystroke_c	c	n/a
258.3535	0.12	516707	keystroke_o	o	n/a
258.399	0.1355	516798	keystroke_n	n	n/a
258.5035	0.135	517007	keystroke_s	s	n/a
258.6245	0.089	517249	keystroke_t	t	n/a
258.7895	0.105	517579	keystroke_r	r	n/a
258.8785	0.09	517757	keystroke_i	i	n/a
258.8795	0.104	517759	keystroke_a	a	n/a
258.9535	0.091	517907	keystroke_n	n	n/a
259.0585	0.12	518117	keystroke_t	t	n/a
259.1935	0.12	518387	keystroke_Key.space	Key.space	n/a
259.6735	0.06	519347	keystroke_Key.backspace	Key.backspace	n/a
259.8535	0.06	519707	keystroke_Key.backspace	Key.backspace	n/a
260.0485	0.045	520097	keystroke_Key.backspace	Key.backspace	n/a
260.1685	0.045	520337	keystroke_Key.backspace	Key.backspace	n/a
260.5585	0.075	521117	keystroke_Key.backspace	Key.backspace	n/a
260.6945	0.119	521389	keystroke_a	a	n/a
260.7835	0.106	521567	keystroke_i	i	n/a
260.8435	0.135	521687	keystroke_n	n	n/a
260.9635	0.106	521927	keystroke_t	t	n/a
261.0835	0.12	522167	keystroke_Key.space	Key.space	n/a
261.1585	0.136	522317	keystroke_b	b	n/a
261.2485	0.15	522497	keystroke_e	e	n/a
261.2785	0.15	522557	keystroke_a	a	n/a
261.3685	0.09	522737	keystroke_r	r	n/a
261.5335	0.105	523067	keystroke_s	s	n/a
261.6085	0.105	523217	keystroke_Key.space	Key.space	n/a
261.7285	0.105	523457	keystroke_c	c	n/a
261.9695	0.059	523939	keystroke_o	o	n/a
262.1945	0.059	524389	keystroke_o	o	n/a
262.2085	0.12	524417	keystroke_k	k	n/a
262.2685	0.12	524537	keystroke_Key.space	Key.space	n/a
262.4485	0.12	524897	keystroke_p	p	n/a
262.5385	0.105	525077	keystroke_r	r	n/a
262.6735	0.135	525347	keystroke_o	o	n/a
262.7485	0.091	525497	keystroke_s	s	n/a
262.899	0.1345	525798	keystroke_p	p	n/a
262.9885	0.136	525977	keystroke_e	e	n/a
263.0785	0.105	526157	keystroke_c	c	n/a
263.2885	0.06	526577	keystroke_t	t	n/a
263.3635	0.136	526727	keystroke_i	i	n/a
263.5145	0.105	527029	keystroke_v	v	n/a
263.6035	0.09	527207	keystroke_e	e	n/a
263.7235	0.09	527447	keystroke_Key.enter	Key.enter	n/a
263.821	4.6595	527642	prompt	n/a	honest wash strong exclusively\n
264.4885	0.18	528977	keystroke_h	h	n/a
264.5635	0.15	529127	keystroke_o	o	n/a
264.6535	0.151	529307	keystroke_n	n	n/a
264.7295	0.09	529459	keystroke_e	e	n/a
264.8785	0.166	529757	keystroke_s	s	n/a
265.0135	0.105	530027	keystroke_t	t	n/a
265.1035	0.12	530207	keystroke_Key.space	Key.space	n/a
265.2085	0.12	530417	keystroke_w	w	n/a
265.2685	0.195	530537	keystroke_a	a	n/a
265.4185	0.12	530837	keystroke_s	s	n/a
265.5235	0.105	531047	keystroke_h	h	n/a
265.7635	0.105	531527	keystroke_Key.space	Key.space	n/a
265.9285	0.136	531857	keystroke_s	s	n/a
266.0495	0.104	532099	keystroke_t	t	n/a
266.2445	0.104	532489	keystroke_r	r	n/a
266.2885	0.12	532577	keystroke_o	o	n/a
266.3495	0.104	532699	keystroke_n	n	n/a
266.4545	0.119	532909	keystroke_g	g	n/a
266.5585	0.12	533117	keystroke_Key.space	Key.space	n/a
266.6935	0.09	533387	keystroke_e	e	n/a
266.9035	0.09	533807	keystroke_x	x	n/a
267.1135	0.091	534227	keystroke_c	c	n/a
267.1885	0.135	534377	keystroke_l	l	n/a
267.2635	0.105	534527	keystroke_u	u	n/a
267.3845	0.089	534769	keystroke_s	s	n/a
267.4885	0.105	534977	keystroke_i	i	n/a
267.6085	0.105	535217	keystroke_v	v	n/a
267.6835	0.106	535367	keystroke_e	e	n/a
267.9995	0.15	535999	keystroke_l	l	n/a
268.1035	0.075	536207	keystroke_y	y	n/a
268.3585	0.12	536717	keystroke_Key.enter	Key.enter	n/a
268.484	8.277	536968	prompt	n/a	productivity optimize abstract descending\n
269.0045	0.12	538009	keystroke_p	p	n/a
269.1535	0.135	538307	keystroke_r	r	n/a
269.2735	0.12	538547	keystroke_o	o	n/a
269.4395	0.119	538879	keystroke_d	d	n/a
269.5285	0.12	539057	keystroke_u	u	n/a
269.6795	0.089	539359	keystroke_c	c	n/a
269.9345	0.075	539869	keystroke_t	t	n/a
270.3685	0.12	540737	keystroke_i	i	n/a
270.5795	0.089	541159	keystroke_v	v	n/a
270.7285	0.045	541457	keystroke_i	i	n/a
270.8485	0.03	541697	keystroke_t	t	n/a
270.9685	0.121	541937	keystroke_y	y	n/a
271.0735	0.135	542147	keystroke_Key.space	Key.space	n/a
271.4485	0.135	542897	keystroke_o	o	n/a
271.5235	0.135	543047	keystroke_p	p	n/a
271.6445	0.104	543289	keystroke_t	t	n/a
271.7785	0.136	543557	keystroke_i	i	n/a
271.8985	0.075	543797	keystroke_m	m	n/a
272.1835	0.091	544367	keystroke_i	i	n/a
272.4395	0.104	544879	keystroke_z	z	n/a
272.6785	0.136	545357	keystroke_e	e	n/a
272.7835	0.136	545567	keystroke_Key.space	Key.space	n/a
272.9195	0.12	545839	keystroke_a	a	n/a
273.0245	0.119	546049	keystroke_b	b	n/a
273.0995	0.15	546199	keystroke_s	s	n/a
273.2345	0.09	546469	keystroke_t	t	n/a
273.3995	0.135	546799	keystroke_r	r	n/a
273.5035	0.105	547007	keystroke_a	a	n/a
273.6985	0.091	547397	keystroke_c	c	n/a
273.9085	0.09	547817	keystroke_t	t	n/a
274.0135	0.135	548027	keystroke_Key.space	Key.space	n/a
274.2545	0.119	548509	keystroke_d	d	n/a
274.3295	0.12	548659	keystroke_e	e	n/a
274.5545	0.12	549109	keystroke_s	s	n/a
275.2895	0.134	550579	keystroke_c	c	n/a
275.4845	0.119	550969	keystroke_e	e	n/a
275.6335	0.106	551267	keystroke_n	n	n/a
275.8145	0.089	551629	keystroke_d	d	n/a
276.0695	0.135	552139	keystroke_i	i	n/a
276.1445	0.12	552289	keystroke_n	n	n/a
276.2345	0.105	552469	keystroke_g	g	n/a
276.6695	0.089	553339	keystroke_Key.enter	Key.enter	n/a
276.775	6.406	553550	prompt	n/a	habits board gothic hotels\n
277.7785	0.045	555557	keystroke_a	a	n/a
278.4235	0.075	556847	keystroke_Key.backspace	Key.backspace	n/a
279.8645	0.105	559729	keystroke_h	h	n/a
279.9995	0.105	559999	keystroke_a	a	n/a
280.1195	0.135	560239	keystroke_b	b	n/a
280.2085	0.135	560417	keystroke_i	i	n/a
280.3595	0.03	560719	keystroke_t	t	n/a
280.5095	0.105	561019	keystroke_s	s	n/a
280.5685	0.09	561137	keystroke_Key.space	Key.space	n/a
280.7035	0.076	561407	keystroke_b	b	n/a
280.8845	0.105	561769	keystroke_o	o	n/a
280.9445	0.09	561889	keystroke_a	a	n/a
281.0185	0.09	562037	keystroke_r	r	n/a
281.2285	0.0905	562457	keystroke_d	d	n/a
281.289	0.135	562578	keystroke_Key.space	Key.space	n/a
281.634	0.09	563268	keystroke_g	g	n/a
281.709	0.105	563418	keystroke_o	o	n/a
281.844	0.105	563688	keystroke_t	t	n/a
281.934	0.135	563868	keystroke_h	h	n/a
282.009	0.12	564018	keystroke_i	i	n/a
282.114	0.105	564228	keystroke_c	c	n/a
282.22	0.134	564440	keystroke_Key.space	Key.space	n/a
282.309	0.15	564618	keystroke_h	h	n/a
282.399	0.12	564798	keystroke_o	o	n/a
282.474	0.135	564948	keystroke_t	t	n/a
282.594	0.075	565188	keystroke_e	e	n/a
282.684	0.075	565368	keystroke_l	l	n/a
282.789	0.09	565578	keystroke_s	s	n/a
283.059	0.12	566118	keystroke_Key.enter	Key.enter	n/a
283.187	7.12	566374	prompt	n/a	representations chip protocols assumptions\n
283.929	0.105	567858	keystroke_r	r	n/a
283.944	0.03	567888	keystroke_e	e	n/a
284.439	0.06	568878	keystroke_p	p	n/a
284.529	0.12	569058	keystroke_r	r	n/a
284.604	0.12	569208	keystroke_e	e	n/a
284.814	0.105	569628	keystroke_s	s	n/a
285.024	0.105	570048	keystroke_e	e	n/a
285.114	0.135	570228	keystroke_n	n	n/a
285.234	0.09	570468	keystroke_t	t	n/a
285.369	0.135	570738	keystroke_a	a	n/a
285.444	0.105	570888	keystroke_t	t	n/a
285.519	0.15	571038	keystroke_i	i	n/a
285.564	0.12	571128	keystroke_o	o	n/a
285.609	0.105	571218	keystroke_n	n	n/a
285.699	0.105	571398	keystroke_s	s	n/a
285.834	0.12	571668	keystroke_Key.space	Key.space	n/a
286.149	0.105	572298	keystroke_c	c	n/a
286.224	0.09	572448	keystroke_h	h	n/a
286.434	0.135	572868	keystroke_i	i	n/a
286.479	0.135	572958	keystroke_p	p	n/a
286.599	0.1195	573198	keystroke_Key.space	Key.space	n/a
286.7935	0.105	573587	keystroke_p	p	n/a
286.9135	0.105	573827	keystroke_r	r	n/a
287.034	0.1045	574068	keystroke_o	o	n/a
287.1235	0.105	574247	keystroke_t	t	n/a
287.259	0.045	574518	keystroke_o	o	n/a
287.4535	0.105	574907	keystroke_c	c	n/a
287.5435	0.0905	575087	keystroke_o	o	n/a
287.7685	0.045	575537	keystroke_o	o	n/a
288.354	0.12	576708	keystroke_Key.backspace	Key.backspace	n/a
288.6385	0.12	577277	keystroke_l	l	n/a
288.7595	0.1055	577519	keystroke_s	s	n/a
288.879	0.1345	577758	keystroke_Key.space	Key.space	n/a
288.9685	0.135	577937	keystroke_a	a	n/a
289.0735	0.1055	578147	keystroke_s	s	n/a
289.2385	0.105	578477	keystroke_s	s	n/a
289.2985	0.12	578597	keystroke_u	u	n/a
289.3735	0.12	578747	keystroke_m	m	n/a
289.4485	0.12	578897	keystroke_p	p	n/a
289.554	0.105	579108	keystroke_t	t	n/a
289.6435	0.165	579287	keystroke_i	i	n/a
289.704	0.1655	579408	keystroke_o	o	n/a
289.7635	0.12	579527	keystroke_n	n	n/a
289.8385	0.0905	579677	keystroke_s	s	n/a
290.1535	0.15	580307	keystroke_Key.enter	Key.enter	n/a
290.311	5.3195	580622	prompt	n/a	online carpet refrigerator operated\n
291.0085	0.1205	582017	keystroke_o	o	n/a
291.3235	0.12	582647	keystroke_n	n	n/a
291.4735	0.165	582947	keystroke_l	l	n/a
291.5635	0.1205	583127	keystroke_i	i	n/a
291.6235	0.1505	583247	keystroke_n	n	n/a
291.7895	0.119	583579	keystroke_e	e	n/a
291.8935	0.15	583787	keystroke_Key.space	Key.space	n/a
292.0585	0.075	584117	keystroke_c	c	n/a
292.2085	0.136	584417	keystroke_a	a	n/a
292.3135	0.105	584627	keystroke_r	r	n/a
292.3885	0.135	584777	keystroke_p	p	n/a
292.4785	0.135	584957	keystroke_e	e	n/a
292.5685	0.135	585137	keystroke_t	t	n/a
292.6585	0.15	585317	keystroke_Key.space	Key.space	n/a
292.8385	0.105	585677	keystroke_r	r	n/a
292.9135	0.165	585827	keystroke_e	e	n/a
293.0935	0.09	586187	keystroke_f	f	n/a
293.3485	0.12	586697	keystroke_r	r	n/a
293.5135	0.105	587027	keystroke_i	i	n/a
293.6935	0.12	587387	keystroke_g	g	n/a
293.8735	0.15	587747	keystroke_e	e	n/a
293.9935	0.105	587987	keystroke_r	r	n/a
294.1435	0.135	588287	keystroke_a	a	n/a
294.2335	0.105	588467	keystroke_t	t	n/a
294.3395	0.134	588679	keystroke_o	o	n/a
294.4285	0.105	588857	keystroke_r	r	n/a
294.5485	0.09	589097	keystroke_Key.space	Key.space	n/a
294.7585	0.135	589517	keystroke_o	o	n/a
294.8035	0.12	589607	keystroke_p	p	n/a
294.8485	0.12	589697	keystroke_e	e	n/a
294.9085	0.12	589817	keystroke_r	r	n/a
295.0435	0.105	590087	keystroke_a	a	n/a
295.1335	0.105	590267	keystroke_t	t	n/a
295.2235	0.15	590447	keystroke_e	e	n/a
295.3585	0.105	590717	keystroke_d	d	n/a
295.5085	0.12	591017	keystroke_Key.enter	Key.enter	n/a
295.6375	3.2485	591275	prompt	n/a	land dallas sugar custom\n
296.1985	0.135	592397	keystroke_l	l	n/a
296.3185	0.135	592637	keystroke_a	a	n/a
296.4235	0.09	592847	keystroke_n	n	n/a
296.4985	0.09	592997	keystroke_d	d	n/a
296.6185	0.135	593237	keystroke_Key.space	Key.space	n/a
296.7085	0.105	593417	keystroke_d	d	n/a
296.8285	0.12	593657	keystroke_a	a	n/a
296.8885	0.061	593777	keystroke_l	l	n/a
297.0235	0.121	594047	keystroke_l	l	n/a
297.0835	0.15	594167	keystroke_a	a	n/a
297.1885	0.12	594377	keystroke_s	s	n/a
297.3235	0.06	594647	keystroke_Key.space	Key.space	n/a
297.4435	0.105	594887	keystroke_s	s	n/a
297.5185	0.105	595037	keystroke_u	u	n/a
297.6385	0.06	595277	keystroke_g	g	n/a
297.7585	0.105	595517	keystroke_a	a	n/a
297.8335	0.105	595667	keystroke_r	r	n/a
297.9235	0.105	595847	keystroke_Key.space	Key.space	n/a
298.0585	0.135	596117	keystroke_c	c	n/a
298.1785	0.105	596357	keystroke_u	u	n/a
298.2685	0.135	596537	keystroke_s	s	n/a
298.3885	0.075	596777	keystroke_t	t	n/a
298.4185	0.105	596837	keystroke_o	o	n/a
298.4785	0.135	596957	keystroke_m	m	n/a
298.7935	0.09	597587	keystroke_Key.enter	Key.enter	n/a
298.8895	4.6165	597779	prompt	n/a	increasingly particular bother barrel\n
299.4835	0.12	598967	keystroke_i	i	n/a
299.5435	0.12	599087	keystroke_n	n	n/a
299.6185	0.09	599237	keystroke_c	c	n/a
299.8285	0.105	599657	keystroke_r	r	n/a
299.8885	0.135	599777	keystroke_e	e	n/a
299.9485	0.18	599897	keystroke_a	a	n/a
300.1135	0.12	600227	keystroke_s	s	n/a
300.1735	0.135	600347	keystroke_i	i	n/a
300.2635	0.09	600527	keystroke_n	n	n/a
300.4135	0.105	600827	keystroke_g	g	n/a
300.4735	0.135	600947	keystroke_l	l	n/a
300.5635	0.09	601127	keystroke_y	y	n/a
300.6095	0.119	601219	keystroke_Key.space	Key.space	n/a
300.7735	0.135	601547	keystroke_p	p	n/a
300.8335	0.12	601667	keystroke_a	a	n/a
300.9235	0.105	601847	keystroke_r	r	n/a
301.1185	0.105	602237	keystroke_t	t	n/a
301.2085	0.12	602417	keystroke_i	i	n/a
301.3585	0.12	602717	keystroke_c	c	n/a
301.4635	0.135	602927	keystroke_u	u	n/a
301.5535	0.15	603107	keystroke_l	l	n/a
301.6145	0.134	603229	keystroke_a	a	n/a
301.7045	0.104	603409	keystroke_r	r	n/a
301.7785	0.135	603557	keystroke_Key.space	Key.space	n/a
301.8985	0.06	603797	keystroke_b	b	n/a
302.0635	0.12	604127	keystroke_o	o	n/a
302.1235	0.12	604247	keystroke_t	t	n/a
302.2285	0.135	604457	keystroke_h	h	n/a
302.3335	0.15	604667	keystroke_e	e	n/a
302.4235	0.105	604847	keystroke_r	r	n/a
302.4985	0.105	604997	keystroke_Key.space	Key.space	n/a
302.5735	0.105	605147	keystroke_b	b	n/a
302.6635	0.135	605327	keystroke_a	a	n/a
302.7535	0.06	605507	keystroke_r	r	n/a
302.9035	0.09	605807	keystroke_r	r	n/a
302.9645	0.104	605929	keystroke_e	e	n/a
303.0385	0.135	606077	keystroke_l	l	n/a
303.4135	0.09	606827	keystroke_Key.enter	Key.enter	n/a
303.5095	4.3015	607019	prompt	n/a	groove beef contests dependent\n
304.1185	0.06	608237	keystroke_g	g	n/a
304.3145	0.089	608629	keystroke_r	r	n/a
304.3895	0.059	608779	keystroke_o	o	n/a
304.5385	0.12	609077	keystroke_o	o	n/a
304.6145	0.104	609229	keystroke_v	v	n/a
304.6735	0.105	609347	keystroke_e	e	n/a
304.7335	0.15	609467	keystroke_Key.space	Key.space	n/a
304.8085	0.12	609617	keystroke_b	b	n/a
304.8985	0.06	609797	keystroke_e	e	n/a
305.0335	0.12	610067	keystroke_e	e	n/a
305.1235	0.12	610247	keystroke_f	f	n/a
305.4235	0.09	610847	keystroke_Key.space	Key.space	n/a
305.6635	0.105	611327	keystroke_c	c	n/a
305.7385	0.106	611477	keystroke_o	o	n/a
305.7985	0.135	611597	keystroke_n	n	n/a
305.8885	0.135	611777	keystroke_t	t	n/a
306.0085	0.12	612017	keystroke_e	e	n/a
306.2185	0.135	612437	keystroke_s	s	n/a
306.3235	0.09	612647	keystroke_t	t	n/a
306.4285	0.135	612857	keystroke_s	s	n/a
306.5785	0.075	613157	keystroke_Key.space	Key.space	n/a
306.6985	0.091	613397	keystroke_d	d	n/a
306.7585	0.135	613517	keystroke_e	e	n/a
306.8485	0.12	613697	keystroke_p	p	n/a
306.9985	0.121	613997	keystroke_e	e	n/a
307.1335	0.09	614267	keystroke_n	n	n/a
307.2385	0.105	614477	keystroke_d	d	n/a
307.3585	0.12	614717	keystroke_e	e	n/a
307.4635	0.12	614927	keystroke_n	n	n/a
307.5685	0.09	615137	keystroke_t	t	n/a
307.7335	0.075	615467	keystroke_Key.enter	Key.enter	n/a
307.8145	4.497	615629	prompt	n/a	strategies woods namespace ranging\n
308.3785	0.12	616757	keystroke_s	s	n/a
308.5285	0.09	617057	keystroke_t	t	n/a
308.7245	0.105	617449	keystroke_r	r	n/a
308.8295	0.149	617659	keystroke_a	a	n/a
308.9485	0.166	617897	keystroke_t	t	n/a
309.1585	0.135	618317	keystroke_e	e	n/a
309.3845	0.104	618769	keystroke_g	g	n/a
309.5035	0.15	619007	keystroke_i	i	n/a
309.6245	0.105	619249	keystroke_e	e	n/a
309.8035	0.105	619607	keystroke_s	s	n/a
309.8935	0.105	619787	keystroke_Key.space	Key.space	n/a
310.0135	0.106	620027	keystroke_w	w	n/a
310.1035	0.06	620207	keystroke_o	o	n/a
310.2395	0.104	620479	keystroke_o	o	n/a
310.2985	0.09	620597	keystroke_d	d	n/a
310.3585	0.105	620717	keystroke_s	s	n/a
310.4185	0.09	620837	keystroke_Key.space	Key.space	n/a
310.5985	0.09	621197	keystroke_n	n	n/a
310.6435	0.105	621287	keystroke_a	a	n/a
310.7785	0.105	621557	keystroke_m	m	n/a
310.9145	0.089	621829	keystroke_e	e	n/a
311.1095	0.105	622219	keystroke_s	s	n/a
311.1685	0.12	622337	keystroke_p	p	n/a
311.2585	0.09	622517	keystroke_a	a	n/a
311.3635	0.12	622727	keystroke_c	c	n/a
311.4235	0.12	622847	keystroke_e	e	n/a
311.4985	0.105	622997	keystroke_Key.space	Key.space	n/a
311.6195	0.104	623239	keystroke_r	r	n/a
311.7085	0.09	623417	keystroke_a	a	n/a
311.7395	0.12	623479	keystroke_n	n	n/a
311.8735	0.075	623747	keystroke_g	g	n/a
311.9035	0.12	623807	keystroke_i	i	n/a
311.9785	0.105	623957	keystroke_n	n	n/a
312.0535	0.09	624107	keystroke_g	g	n/a
312.2035	0.105	624407	keystroke_Key.enter	Key.enter	n/a
312.316	4.66	624632	prompt	n/a	plays guard disposition military\n
312.8195	0.089	625639	keystroke_p	p	n/a
313.0285	0.105	626057	keystroke_l	l	n/a
313.1185	0.121	626237	keystroke_a	a	n/a
313.2085	0.105	626417	keystroke_y	y	n/a
313.2985	0.12	626597	keystroke_s	s	n/a
313.4035	0.135	626807	keystroke_Key.space	Key.space	n/a
313.5845	0.105	627169	keystroke_g	g	n/a
313.6745	0.12	627349	keystroke_u	u	n/a
313.7795	0.135	627559	keystroke_a	a	n/a
313.8535	0.09	627707	keystroke_r	r	n/a
314.0485	0.105	628097	keystroke_d	d	n/a
314.1395	0.119	628279	keystroke_Key.space	Key.space	n/a
314.3035	0.121	628607	keystroke_d	d	n/a
314.4085	0.105	628817	keystroke_i	i	n/a
314.5445	0.105	629089	keystroke_s	s	n/a
314.6185	0.135	629237	keystroke_p	p	n/a
314.6795	0.179	629359	keystroke_o	o	n/a
315.2645	0.119	630529	keystroke_s	s	n/a
315.3995	0.06	630799	keystroke_i	i	n/a
315.4885	0.091	630977	keystroke_t	t	n/a
315.5635	0.151	631127	keystroke_i	i	n/a
315.6085	0.12	631217	keystroke_o	o	n/a
315.6685	0.105	631337	keystroke_n	n	n/a
315.8185	0.09	631637	keystroke_Key.space	Key.space	n/a
316.0435	0.091	632087	keystroke_m	m	n/a
316.0895	0.135	632179	keystroke_i	i	n/a
316.2535	0.166	632507	keystroke_l	l	n/a
316.3145	0.134	632629	keystroke_i	i	n/a
316.3885	0.091	632777	keystroke_t	t	n/a
316.5385	0.12	633077	keystroke_a	a	n/a
316.5845	0.105	633169	keystroke_r	r	n/a
316.6445	0.06	633289	keystroke_y	y	n/a
316.8685	0.105	633737	keystroke_Key.enter	Key.enter	n/a
316.981	3.9995	633962	prompt	n/a	crystal base hear longer\n
317.5445	0.12	635089	keystroke_c	c	n/a
317.7545	0.134	635509	keystroke_r	r	n/a
317.8585	0.09	635717	keystroke_y	y	n/a
317.9635	0.135	635927	keystroke_s	s	n/a
318.0835	0.06	636167	keystroke_t	t	n/a
318.1885	0.12	636377	keystroke_a	a	n/a
318.2035	0.135	636407	keystroke_l	l	n/a
318.4735	0.135	636947	keystroke_Key.space	Key.space	n/a
319.2545	0.119	638509	keystroke_b	b	n/a
319.3585	0.136	638717	keystroke_a	a	n/a
319.4345	0.105	638869	keystroke_s	s	n/a
319.6145	0.12	639229	keystroke_e	e	n/a
319.6585	0.12	639317	keystroke_Key.space	Key.space	n/a
319.7645	0.134	639529	keystroke_h	h	n/a
319.8235	0.166	639647	keystroke_e	e	n/a
319.8535	0.15	639707	keystroke_a	a	n/a
319.9285	0.121	639857	keystroke_r	r	n/a
320.0185	0.105	640037	keystroke_Key.space	Key.space	n/a
320.2285	0.091	640457	keystroke_l	l	n/a
320.3945	0.134	640789	keystroke_o	o	n/a
320.4535	0.135	640907	keystroke_n	n	n/a
320.4985	0.106	640997	keystroke_g	g	n/a
320.6345	0.134	641269	keystroke_e	e	n/a
320.7395	0.089	641479	keystroke_r	r	n/a
320.8585	0.12	641717	keystroke_Key.enter	Key.enter	n/a
320.985	3.896	641970	prompt	n/a	tunes gates offerings employ\n
321.6535	0.105	643307	keystroke_t	t	n/a
321.7135	0.121	643427	keystroke_u	u	n/a
321.7895	0.104	643579	keystroke_n	n	n/a
321.8635	0.09	643727	keystroke_e	e	n/a
322.0735	0.091	644147	keystroke_s	s	n/a
322.1335	0.105	644267	keystroke_Key.space	Key.space	n/a
322.3285	0.061	644657	keystroke_g	g	n/a
322.4485	0.12	644897	keystroke_a	a	n/a
322.5395	0.104	645079	keystroke_t	t	n/a
322.6285	0.09	645257	keystroke_e	e	n/a
322.7945	0.12	645589	keystroke_s	s	n/a
322.9285	0.105	645857	keystroke_Key.space	Key.space	n/a
322.9735	0.151	645947	keystroke_o	o	n/a
323.0485	0.061	646097	keystroke_f	f	n/a
323.1995	0.09	646399	keystroke_f	f	n/a
323.3035	0.106	646607	keystroke_e	e	n/a
323.3785	0.106	646757	keystroke_r	r	n/a
323.4235	0.136	646847	keystroke_i	i	n/a
323.4845	0.104	646969	keystroke_n	n	n/a
323.6045	0.044	647209	keystroke_g	g	n/a
323.7535	0.106	647507	keystroke_s	s	n/a
323.8145	0.089	647629	keystroke_Key.space	Key.space	n/a
323.9645	0.089	647929	keystroke_e	e	n/a
324.0395	0.089	648079	keystroke_m	m	n/a
324.0985	0.12	648197	keystroke_p	p	n/a
324.3235	0.061	648647	keystroke_l	l	n/a
324.4745	0.089	648949	keystroke_o	o	n/a
324.5345	0.075	649069	keystroke_y	y	n/a
324.7585	0.12	649517	keystroke_Key.enter	Key.enter	n/a
324.886	4.48	649772	prompt	n/a	feature pathology postcards semi\n
325.5395	0.105	651079	keystroke_f	f	n/a
325.6595	0.165	651319	keystroke_e	e	n/a
325.7045	0.15	651409	keystroke_a	a	n/a
325.7945	0.12	651589	keystroke_t	t	n/a
325.8845	0.119	651769	keystroke_u	u	n/a
325.9885	0.105	651977	keystroke_r	r	n/a
326.0485	0.136	652097	keystroke_e	e	n/a
326.1395	0.134	652279	keystroke_Key.space	Key.space	n/a
326.2285	0.106	652457	keystroke_p	p	n/a
326.3045	0.12	652609	keystroke_a	a	n/a
326.3795	0.119	652759	keystroke_t	t	n/a
326.4535	0.136	652907	keystroke_h	h	n/a
326.5435	0.09	653087	keystroke_o	o	n/a
326.7245	0.075	653449	keystroke_l	l	n/a
326.8745	0.104	653749	keystroke_o	o	n/a
326.9495	0.074	653899	keystroke_g	g	n/a
327.0395	0.075	654079	keystroke_y	y	n/a
327.0985	0.09	654197	keystroke_Key.space	Key.space	n/a
327.2195	0.179	654439	keystroke_p	p	n/a
327.3235	0.136	654647	keystroke_o	o	n/a
327.3845	0.15	654769	keystroke_s	s	n/a
327.5045	0.105	655009	keystroke_t	t	n/a
327.7585	0.076	655517	keystroke_c	c	n/a
327.8635	0.151	655727	keystroke_a	a	n/a
327.9685	0.075	655937	keystroke_r	r	n/a
328.1495	0.105	656299	keystroke_d	d	n/a
328.2245	0.104	656449	keystroke_s	s	n/a
328.2985	0.12	656597	keystroke_Key.space	Key.space	n/a
328.4485	0.09	656897	keystroke_s	s	n/a
328.6285	0.076	657257	keystroke_e	e	n/a
328.6745	0.165	657349	keystroke_m	m	n/a
328.8845	0.105	657769	keystroke_i	i	n/a
329.2285	0.136	658457	keystroke_Key.enter	Key.enter	n/a
329.3705	7.15	658741	prompt	n/a	morrison beverage simple parameters\n
329.9195	0.12	659839	keystroke_n	n	n/a
330.0095	0.18	660019	keystroke_o	o	n/a
330.6835	0.09	661367	keystroke_Key.backspace	Key.backspace	n/a
330.8645	0.075	661729	keystroke_Key.backspace	Key.backspace	n/a
331.0145	0.105	662029	keystroke_m	m	n/a
331.3745	0.12	662749	keystroke_o	o	n/a
331.5245	0.075	663049	keystroke_r	r	n/a
332.0795	0.09	664159	keystroke_r	r	n/a
332.2295	0.105	664459	keystroke_i	i	n/a
332.3495	0.105	664699	keystroke_s	s	n/a
332.4245	0.12	664849	keystroke_o	o	n/a
332.4845	0.09	664969	keystroke_n	n	n/a
332.6795	0.105	665359	keystroke_Key.space	Key.space	n/a
332.9345	0.105	665869	keystroke_b	b	n/a
333.0545	0.105	666109	keystroke_e	e	n/a
333.1745	0.105	666349	keystroke_v	v	n/a
333.2645	0.12	666529	keystroke_e	e	n/a
333.3545	0.105	666709	keystroke_r	r	n/a
333.4895	0.135	666979	keystroke_a	a	n/a
333.6395	0.09	667279	keystroke_g	g	n/a
333.6995	0.12	667399	keystroke_e	e	n/a
333.7885	0.121	667577	keystroke_Key.space	Key.space	n/a
334.0295	0.12	668059	keystroke_s	s	n/a
334.1345	0.135	668269	keystroke_i	i	n/a
334.6595	0.12	669319	keystroke_m	m	n/a
334.8095	0.15	669619	keystroke_p	p	n/a
334.8845	0.135	669769	keystroke_l	l	n/a
334.9895	0.105	669979	keystroke_e	e	n/a
335.1245	0.119	670249	keystroke_Key.space	Key.space	n/a
335.3045	0.105	670609	keystroke_p	p	n/a
335.3645	0.09	670729	keystroke_a	a	n/a
335.4395	0.09	670879	keystroke_r	r	n/a
335.5445	0.105	671089	keystroke_a	a	n/a
335.6345	0.105	671269	keystroke_m	m	n/a
335.7545	0.135	671509	keystroke_e	e	n/a
335.8745	0.105	671749	keystroke_t	t	n/a
335.9645	0.12	671929	keystroke_e	e	n/a
336.0545	0.105	672109	keystroke_r	r	n/a
336.2345	0.12	672469	keystroke_s	s	n/a
336.4145	0.104	672829	keystroke_Key.enter	Key.enter	n/a
336.525	4.407	673050	prompt	n/a	opposition summary fancy licenses\n
337.1495	0.12	674299	keystroke_o	o	n/a
337.2245	0.105	674449	keystroke_p	p	n/a
337.4045	0.105	674809	keystroke_p	p	n/a
337.4645	0.135	674929	keystroke_o	o	n/a
337.5695	0.135	675139	keystroke_s	s	n/a
337.6895	0.09	675379	keystroke_i	i	n/a
337.7945	0.09	675589	keystroke_t	t	n/a
337.8695	0.135	675739	keystroke_i	i	n/a
337.8995	0.105	675799	keystroke_o	o	n/a
337.9745	0.06	675949	keystroke_n	n	n/a
338.1095	0.12	676219	keystroke_Key.space	Key.space	n/a
338.2295	0.105	676459	keystroke_s	s	n/a
338.3195	0.105	676639	keystroke_u	u	n/a
338.3795	0.075	676759	keystroke_m	m	n/a
338.5145	0.105	677029	keystroke_m	m	n/a
338.5745	0.15	677149	keystroke_a	a	n/a
338.6495	0.12	677299	keystroke_r	r	n/a
338.7395	0.105	677479	keystroke_y	y	n/a
338.7845	0.15	677569	keystroke_Key.space	Key.space	n/a
338.9195	0.105	677839	keystroke_f	f	n/a
339.0095	0.12	678019	keystroke_a	a	n/a
339.0845	0.105	678169	keystroke_n	n	n/a
339.1745	0.135	678349	keystroke_c	c	n/a
339.2795	0.09	678559	keystroke_y	y	n/a
339.3395	0.135	678679	keystroke_Key.space	Key.space	n/a
339.5945	0.15	679189	keystroke_l	l	n/a
339.6845	0.135	679369	keystroke_i	i	n/a
339.7595	0.1195	679519	keystroke_c	c	n/a
339.8345	0.135	679669	keystroke_e	e	n/a
339.985	0.104	679970	keystroke_n	n	n/a
340.1045	0.09	680209	keystroke_s	s	n/a
340.284	0.075	680568	keystroke_e	e	n/a
340.449	0.105	680898	keystroke_s	s	n/a
340.824	0.105	681648	keystroke_Key.enter	Key.enter	n/a
340.936	5.05	681872	prompt	n/a	deer twins salaries described\n
341.709	0.15	683418	keystroke_d	d	n/a
341.844	0.105	683688	keystroke_e	e	n/a
342.024	0.1505	684048	keystroke_e	e	n/a
342.099	0.105	684198	keystroke_r	r	n/a
342.219	0.12	684438	keystroke_Key.space	Key.space	n/a
342.339	0.06	684678	keystroke_t	t	n/a
342.489	0.1355	684978	keystroke_w	w	n/a
342.5495	0.12	685099	keystroke_i	i	n/a
342.6095	0.12	685219	keystroke_n	n	n/a
342.7145	0.105	685429	keystroke_s	s	n/a
342.8345	0.12	685669	keystroke_Key.space	Key.space	n/a
343.0145	0.12	686029	keystroke_s	s	n/a
343.1945	0.135	686389	keystroke_a	a	n/a
343.2995	0.12	686599	keystroke_l	l	n/a
343.4345	0.135	686869	keystroke_a	a	n/a
343.5695	0.12	687139	keystroke_r	r	n/a
344.2595	0.135	688519	keystroke_i	i	n/a
344.3795	0.09	688759	keystroke_e	e	n/a
344.5595	0.105	689119	keystroke_s	s	n/a
344.6345	0.135	689269	keystroke_Key.space	Key.space	n/a
344.7395	0.135	689479	keystroke_d	d	n/a
344.8145	0.105	689629	keystroke_e	e	n/a
344.9945	0.12	689989	keystroke_s	s	n/a
345.084	0.0905	690168	keystroke_c	c	n/a
345.2945	0.1045	690589	keystroke_r	r	n/a
345.354	0.135	690708	keystroke_i	i	n/a
345.414	0.12	690828	keystroke_b	b	n/a
345.504	0.12	691008	keystroke_e	e	n/a
345.564	0.12	691128	keystroke_d	d	n/a
345.864	0.1205	691728	keystroke_Key.enter	Key.enter	n/a
345.991	4.375	691982	prompt	n/a	fleet subdivision fonts adopt\n
346.614	0.105	693228	keystroke_f	f	n/a
346.719	0.075	693438	keystroke_l	l	n/a
346.989	0.105	693978	keystroke_e	e	n/a
347.184	0.105	694368	keystroke_e	e	n/a
347.304	0.12	694608	keystroke_t	t	n/a
347.409	0.105	694818	keystroke_Key.space	Key.space	n/a
347.634	0.12	695268	keystroke_s	s	n/a
347.724	0.135	695448	keystroke_u	u	n/a
347.784	0.12	695568	keystroke_b	b	n/a
347.994	0.105	695988	keystroke_d	d	n/a
348.114	0.09	696228	keystroke_i	i	n/a
348.219	0.105	696438	keystroke_v	v	n/a
348.309	0.06	696618	keystroke_i	i	n/a
348.444	0.09	696888	keystroke_s	s	n/a
348.474	0.15	696948	keystroke_i	i	n/a
348.549	0.105	697098	keystroke_o	o	n/a
348.579	0.12	697158	keystroke_n	n	n/a
348.789	0.105	697578	keystroke_Key.space	Key.space	n/a
348.909	0.09	697818	keystroke_f	f	n/a
348.984	0.105	697968	keystroke_o	o	n/a
349.044	0.12	698088	keystroke_n	n	n/a
349.104	0.09	698208	keystroke_t	t	n/a
349.254	0.105	698508	keystroke_s	s	n/a
349.329	0.12	698658	keystroke_Key.space	Key.space	n/a
349.5095	0.1345	699019	keystroke_a	a	n/a
349.599	0.12	699198	keystroke_d	d	n/a
349.704	0.15	699408	keystroke_o	o	n/a
349.779	0.12	699558	keystroke_p	p	n/a
349.869	0.075	699738	keystroke_t	t	n/a
350.214	0.15	700428	keystroke_Key.enter	Key.enter	n/a
350.375	4.311	700750	prompt	n/a	explicit fair annie schools\n
350.949	0.09	701898	keystroke_e	e	n/a
351.204	0.12	702408	keystroke_x	x	n/a
351.309	0.09	702618	keystroke_p	p	n/a
351.504	0.165	703008	keystroke_l	l	n/a
351.594	0.12	703188	keystroke_i	i	n/a
351.684	0.09	703368	keystroke_c	c	n/a
351.819	0.135	703638	keystroke_i	i	n/a
351.939	0.09	703878	keystroke_t	t	n/a
352.149	0.09	704298	keystroke_Key.space	Key.space	n/a
352.419	0.06	704838	keystroke_f	f	n/a
352.554	0.105	705108	keystroke_a	a	n/a
352.644	0.135	705288	keystroke_i	i	n/a
352.764	0.09	705528	keystroke_r	r	n/a
352.854	0.09	705708	keystroke_Key.space	Key.space	n/a
352.989	0.12	705978	keystroke_a	a	n/a
353.064	0.09	706128	keystroke_n	n	n/a
353.214	0.12	706428	keystroke_n	n	n/a
353.274	0.15	706548	keystroke_i	i	n/a
353.364	0.12	706728	keystroke_e	e	n/a
353.469	0.12	706938	keystroke_Key.space	Key.space	n/a
353.619	0.09	707238	keystroke_s	s	n/a
353.679	0.12	707358	keystroke_c	c	n/a
353.739	0.075	707478	keystroke_h	h	n/a
353.784	0.09	707568	keystroke_o	o	n/a
353.934	0.105	707868	keystroke_o	o	n/a
354.129	0.105	708258	keystroke_l	l	n/a
354.294	0.075	708588	keystroke_s	s	n/a
354.564	0.12	709128	keystroke_Key.enter	Key.enter	n/a
354.6895	3.791	709379	prompt	n/a	turn will wrapping injection\n
355.359	0.12	710718	keystroke_t	t	n/a
355.464	0.135	710928	keystroke_u	u	n/a
355.584	0.105	711168	keystroke_r	r	n/a
355.674	0.09	711348	keystroke_n	n	n/a
355.974	0.03	711948	keystroke_Key.space	Key.space	n/a
355.989	0.075	711978	keystroke_w	w	n/a
356.079	0.105	712158	keystroke_i	i	n/a
356.124	0.075	712248	keystroke_l	l	n/a
356.259	0.15	712518	keystroke_l	l	n/a
356.379	0.12	712758	keystroke_Key.space	Key.space	n/a
356.454	0.15	712908	keystroke_w	w	n/a
356.634	0.105	713268	keystroke_r	r	n/a
356.709	0.135	713418	keystroke_a	a	n/a
356.799	0.075	713598	keystroke_p	p	n/a
356.934	0.135	713868	keystroke_p	p	n/a
356.994	0.15	713988	keystroke_i	i	n/a
357.054	0.105	714108	keystroke_n	n	n/a
357.145	0.074	714290	keystroke_g	g	n/a
357.234	0.12	714468	keystroke_Key.space	Key.space	n/a
357.354	0.15	714708	keystroke_i	i	n/a
357.444	0.12	714888	keystroke_n	n	n/a
357.549	0.135	715098	keystroke_j	j	n/a
357.639	0.105	715278	keystroke_e	e	n/a
357.699	0.09	715398	keystroke_c	c	n/a
357.924	0.105	715848	keystroke_t	t	n/a
358.029	0.165	716058	keystroke_i	i	n/a
358.089	0.135	716178	keystroke_o	o	n/a
358.134	0.105	716268	keystroke_n	n	n/a
358.344	0.135	716688	keystroke_Key.enter	Key.enter	n/a
358.4845	6.9115	716969	prompt	n/a	subdivision decorating wants switzerland\n
359.184	0.12	718368	keystroke_s	s	n/a
359.289	0.135	718578	keystroke_u	u	n/a
359.349	0.12	718698	keystroke_b	b	n/a
359.484	0.105	718968	keystroke_d	d	n/a
359.694	0.09	719388	keystroke_v	v	n/a
359.799	0.09	719598	keystroke_i	i	n/a
359.904	0.12	719808	keystroke_s	s	n/a
360.009	0.12	720018	keystroke_i	i	n/a
360.339	0.09	720678	keystroke_Key.backspace	Key.backspace	n/a
360.519	0.045	721038	keystroke_Key.backspace	Key.backspace	n/a
360.654	0.03	721308	keystroke_Key.backspace	Key.backspace	n/a
360.774	0.075	721548	keystroke_Key.backspace	Key.backspace	n/a
360.999	0.09	721998	keystroke_i	i	n/a
361.074	0.075	722148	keystroke_v	v	n/a
361.179	0.075	722358	keystroke_i	i	n/a
361.299	0.09	722598	keystroke_s	s	n/a
361.359	0.135	722718	keystroke_i	i	n/a
361.419	0.105	722838	keystroke_o	o	n/a
361.464	0.09	722928	keystroke_n	n	n/a
361.644	0.09	723288	keystroke_Key.space	Key.space	n/a
361.749	0.12	723498	keystroke_d	d	n/a
361.899	0.135	723798	keystroke_e	e	n/a
362.169	0.12	724338	keystroke_c	c	n/a
362.274	0.09	724548	keystroke_o	o	n/a
362.394	0.105	724788	keystroke_r	r	n/a
362.499	0.135	724998	keystroke_a	a	n/a
362.604	0.12	725208	keystroke_t	t	n/a
362.709	0.12	725418	keystroke_i	i	n/a
362.769	0.105	725538	keystroke_n	n	n/a
362.859	0.105	725718	keystroke_g	g	n/a
362.979	0.105	725958	keystroke_Key.space	Key.space	n/a
363.099	0.15	726198	keystroke_w	w	n/a
363.159	0.135	726318	keystroke_a	a	n/a
363.234	0.12	726468	keystroke_n	n	n/a
363.324	0.075	726648	keystroke_t	t	n/a
363.444	0.12	726888	keystroke_s	s	n/a
363.534	0.105	727068	keystroke_Key.space	Key.space	n/a
363.654	0.12	727308	keystroke_s	s	n/a
363.864	0.105	727728	keystroke_w	w	n/a
363.954	0.105	727908	keystroke_i	i	n/a
364.104	0.09	728208	keystroke_t	t	n/a
364.359	0.12	728718	keystroke_z	z	n/a
364.659	0.18	729318	keystroke_e	e	n/a
364.749	0.105	729498	keystroke_r	r	n/a
364.824	0.12	729648	keystroke_l	l	n/a
364.944	0.135	729888	keystroke_a	a	n/a
365.034	0.105	730068	keystroke_n	n	n/a
365.124	0.12	730248	keystroke_d	d	n/a
365.289	0.105	730578	keystroke_Key.enter	Key.enter	n/a
365.3995	6.1615	730799	prompt	n/a	trigger definition evaluations hardcover\n
366.114	0.076	732228	keystroke_t	t	n/a
366.294	0.09	732588	keystroke_r	r	n/a
366.354	0.12	732708	keystroke_i	i	n/a
366.489	0.075	732978	keystroke_g	g	n/a
366.624	0.105	733248	keystroke_g	g	n/a
366.759	0.15	733518	keystroke_e	e	n/a
366.849	0.105	733698	keystroke_r	r	n/a
366.969	0.135	733938	keystroke_Key.space	Key.space	n/a
367.119	0.12	734238	keystroke_d	d	n/a
367.194	0.165	734388	keystroke_e	e	n/a
367.374	0.135	734748	keystroke_f	f	n/a
367.539	0.15	735078	keystroke_i	i	n/a
367.659	0.105	735318	keystroke_n	n	n/a
367.765	0.089	735530	keystroke_i	i	n/a
367.869	0.09	735738	keystroke_t	t	n/a
367.944	0.166	735888	keystroke_i	i	n/a
368.004	0.12	736008	keystroke_o	o	n/a
368.064	0.105	736128	keystroke_n	n	n/a
368.259	0.12	736518	keystroke_Key.space	Key.space	n/a
368.634	0.12	737268	keystroke_e	e	n/a
368.844	0.105	737688	keystroke_v	v	n/a
369.009	0.105	738018	keystroke_a	a	n/a
369.084	0.135	738168	keystroke_l	l	n/a
369.189	0.105	738378	keystroke_u	u	n/a
369.309	0.135	738618	keystroke_a	a	n/a
369.399	0.105	738798	keystroke_t	t	n/a
369.474	0.135	738948	keystroke_i	i	n/a
369.519	0.12	739038	keystroke_o	o	n/a
369.549	0.12	739098	keystroke_n	n	n/a
369.624	0.12	739248	keystroke_s	s	n/a
369.759	0.105	739518	keystroke_Key.space	Key.space	n/a
369.939	0.135	739878	keystroke_h	h	n/a
370.014	0.135	740028	keystroke_a	a	n/a
370.089	0.12	740178	keystroke_r	r	n/a
370.314	0.09	740628	keystroke_d	d	n/a
370.599	0.12	741198	keystroke_c	c	n/a
370.794	0.12	741588	keystroke_o	o	n/a
370.899	0.075	741798	keystroke_v	v	n/a
371.064	0.105	742128	keystroke_e	e	n/a
371.139	0.105	742278	keystroke_r	r	n/a
371.439	0.12	742878	keystroke_Key.enter	Key.enter	n/a
371.5655	7.0905	743131	prompt	n/a	experienced newsletter continuously payment\n
372.144	0.105	744288	keystroke_e	e	n/a
372.384	0.12	744768	keystroke_x	x	n/a
372.519	0.105	745038	keystroke_p	p	n/a
372.819	0.15	745638	keystroke_e	e	n/a
372.924	0.135	745848	keystroke_r	r	n/a
373.044	0.105	746088	keystroke_i	i	n/a
373.164	0.135	746328	keystroke_e	e	n/a
