onset	duration	sample	value	key	prompt_text
12.3625	7.3125	24725	prompt	n/a	the quick brown fox jumps over a lazy dog\n
13.959	0.042	27918	keystroke_t	t	n/a
14.031	0.12	28062	keystroke_h	h	n/a
14.166	0.09	28332	keystroke_e	e	n/a
14.226	0.09	28452	keystroke_Key.space	Key.space	n/a
14.466	0.09	28932	keystroke_q	q	n/a
14.601	0.12	29202	keystroke_u	u	n/a
14.661	0.12	29322	keystroke_i	i	n/a
14.856	0.12	29712	keystroke_c	c	n/a
14.991	0.12	29982	keystroke_k	k	n/a
15.276	0.12	30552	keystroke_Key.space	Key.space	n/a
15.441	0.105	30882	keystroke_b	b	n/a
15.591	0.12	31182	keystroke_r	r	n/a
15.681	0.135	31362	keystroke_o	o	n/a
15.816	0.09	31632	keystroke_w	w	n/a
15.876	0.09	31752	keystroke_n	n	n/a
16.071	0.105	32142	keystroke_Key.space	Key.space	n/a
16.236	0.105	32472	keystroke_f	f	n/a
16.401	0.075	32802	keystroke_o	o	n/a
16.686	0.015	33372	keystroke_x	x	n/a
16.716	0.09	33432	keystroke_Key.space	Key.space	n/a
16.881	0.105	33762	keystroke_j	j	n/a
17.136	0.135	34272	keystroke_u	u	n/a
17.271	0.12	34542	keystroke_m	m	n/a
17.316	0.135	34632	keystroke_p	p	n/a
17.421	0.105	34842	keystroke_s	s	n/a
17.631	0.075	35262	keystroke_Key.space	Key.space	n/a
17.781	0.12	35562	keystroke_o	o	n/a
17.841	0.105	35682	keystroke_v	v	n/a
18.021	0.12	36042	keystroke_e	e	n/a
18.111	0.09	36222	keystroke_r	r	n/a
18.231	0.105	36462	keystroke_Key.space	Key.space	n/a
18.381	0.09	36762	keystroke_a	a	n/a
18.516	0.105	37032	keystroke_Key.space	Key.space	n/a
18.651	0.12	37302	keystroke_l	l	n/a
18.726	0.15	37452	keystroke_a	a	n/a
18.846	0.12	37692	keystroke_z	z	n/a
18.951	0.105	37902	keystroke_y	y	n/a
19.041	0.105	38082	keystroke_Key.space	Key.space	n/a
19.161	0.12	38322	keystroke_d	d	n/a
19.266	0.105	38532	keystroke_o	o	n/a
19.401	0.075	38802	keystroke_g	g	n/a
19.581	0.09	39162	keystroke_Key.enter	Key.enter	n/a
19.682	5.001	39364	prompt	n/a	federal maintain opposition salem\n
20.331	0.12	40662	keystroke_f	f	n/a
20.481	0.09	40962	keystroke_e	e	n/a
20.631	0.15	41262	keystroke_d	d	n/a
20.796	0.135	41592	keystroke_e	e	n/a
20.916	0.105	41832	keystroke_r	r	n/a
21.036	0.12	42072	keystroke_a	a	n/a
21.096	0.09	42192	keystroke_l	l	n/a
21.171	0.09	42342	keystroke_Key.space	Key.space	n/a
21.396	0.105	42792	keystroke_m	m	n/a
21.531	0.12	43062	keystroke_a	a	n/a
21.696	0.15	43392	keystroke_i	i	n/a
21.771	0.135	43542	keystroke_n	n	n/a
21.891	0.075	43782	keystroke_t	t	n/a
22.026	0.12	44052	keystroke_a	a	n/a
22.086	0.12	44172	keystroke_i	i	n/a
22.146	0.09	44292	keystroke_n	n	n/a
22.341	0.105	44682	keystroke_Key.space	Key.space	n/a
22.716	0.135	45432	keystroke_o	o	n/a
22.806	0.09	45612	keystroke_p	p	n/a
22.971	0.12	45942	keystroke_p	p	n/a
23.046	0.12	46092	keystroke_o	o	n/a
23.136	0.09	46272	keystroke_s	s	n/a
23.286	0.075	46572	keystroke_i	i	n/a
23.391	0.09	46782	keystroke_t	t	n/a
23.466	0.1355	46932	keystroke_i	i	n/a
23.511	0.105	47022	keystroke_o	o	n/a
23.571	0.075	47142	keystroke_n	n	n/a
23.736	0.12	47472	keystroke_Key.space	Key.space	n/a
23.871	0.135	47742	keystroke_s	s	n/a
23.946	0.135	47892	keystroke_a	a	n/a
24.021	0.12	48042	keystroke_l	l	n/a
24.171	0.105	48342	keystroke_e	e	n/a
24.291	0.09	48582	keystroke_m	m	n/a
24.606	0.075	49212	keystroke_Key.enter	Key.enter	n/a
24.6875	5.336	49375	prompt	n/a	invalid convert public devoted\n
25.311	0.165	50622	keystroke_i	i	n/a
25.401	0.12	50802	keystroke_n	n	n/a
25.506	0.105	51012	keystroke_v	v	n/a
25.626	0.15	51252	keystroke_a	a	n/a
25.746	0.15	51492	keystroke_l	l	n/a
25.791	0.15	51582	keystroke_i	i	n/a
25.911	0.105	51822	keystroke_d	d	n/a
26.046	0.105	52092	keystroke_Key.space	Key.space	n/a
26.211	0.12	52422	keystroke_c	c	n/a
26.286	0.105	52572	keystroke_o	o	n/a
26.361	0.09	52722	keystroke_n	n	n/a
26.421	0.12	52842	keystroke_v	v	n/a
26.586	0.12	53172	keystroke_e	e	n/a
26.676	0.09	53352	keystroke_r	r	n/a
26.856	0.06	53712	keystroke_t	t	n/a
26.946	0.135	53892	keystroke_Key.space	Key.space	n/a
27.066	0.12	54132	keystroke_p	p	n/a
27.201	0.135	54402	keystroke_u	u	n/a
27.291	0.135	54582	keystroke_b	b	n/a
27.411	0.135	54822	keystroke_l	l	n/a
27.471	0.135	54942	keystroke_i	i	n/a
27.561	0.09	55122	keystroke_c	c	n/a
27.696	0.12	55392	keystroke_Key.space	Key.space	n/a
27.921	0.12	55842	keystroke_d	d	n/a
28.056	0.15	56112	keystroke_e	e	n/a
28.176	0.105	56352	keystroke_c	c	n/a
28.341	0.12	56682	keystroke_o	o	n/a
28.731	0.03	57462	keystroke_Key.backspace	Key.backspace	n/a
28.896	0.06	57792	keystroke_Key.backspace	Key.backspace	n/a
29.121	0.09	58242	keystroke_v	v	n/a
29.271	0.15	58542	keystroke_o	o	n/a
29.406	0.105	58812	keystroke_t	t	n/a
29.571	0.135	59142	keystroke_e	e	n/a
29.661	0.105	59322	keystroke_d	d	n/a
29.931	0.09	59862	keystroke_Key.enter	Key.enter	n/a
30.0285	6.025	60057	prompt	n/a	reflect supplied himself kits\n
30.666	0.105	61332	keystroke_f	f	n/a
31.251	0.105	62502	keystroke_Key.backspace	Key.backspace	n/a
31.431	0.12	62862	keystroke_r	r	n/a
31.536	0.18	63072	keystroke_e	e	n/a
31.656	0.135	63312	keystroke_f	f	n/a
31.806	0.12	63612	keystroke_l	l	n/a
31.971	0.135	63942	keystroke_e	e	n/a
32.076	0.105	64152	keystroke_c	c	n/a
32.346	0.09	64692	keystroke_t	t	n/a
32.466	0.135	64932	keystroke_Key.space	Key.space	n/a
32.661	0.075	65322	keystroke_s	s	n/a
32.796	0.12	65592	keystroke_u	u	n/a
32.871	0.09	65742	keystroke_p	p	n/a
33.051	0.09	66102	keystroke_p	p	n/a
33.291	0.18	66582	keystroke_l	l	n/a
33.382	0.134	66764	keystroke_i	i	n/a
33.486	0.135	66972	keystroke_e	e	n/a
33.561	0.12	67122	keystroke_d	d	n/a
33.666	0.135	67332	keystroke_Key.space	Key.space	n/a
33.786	0.12	67572	keystroke_h	h	n/a
33.861	0.18	67722	keystroke_i	i	n/a
33.981	0.12	67962	keystroke_m	m	n/a
34.056	0.09	68112	keystroke_s	s	n/a
34.236	0.105	68472	keystroke_e	e	n/a
34.311	0.12	68622	keystroke_l	l	n/a
34.461	0.09	68922	keystroke_f	f	n/a
34.566	0.105	69132	keystroke_Key.space	Key.space	n/a
34.701	0.09	69402	keystroke_k	k	n/a
34.896	0.09	69792	keystroke_i	i	n/a
34.971	0.09	69942	keystroke_t	t	n/a
35.151	0.105	70302	keystroke_s	s	n/a
35.961	0.09	71922	keystroke_Key.enter	Key.enter	n/a
36.058	6.085	72116	prompt	n/a	publications summary arabia yield\n
37.251	0.105	74502	keystroke_p	p	n/a
37.536	0.075	75072	keystroke_u	u	n/a
37.881	0.12	75762	keystroke_b	b	n/a
38.121	0.15	76242	keystroke_l	l	n/a
38.196	0.15	76392	keystroke_i	i	n/a
38.286	0.105	76572	keystroke_c	c	n/a
38.451	0.12	76902	keystroke_a	a	n/a
38.556	0.105	77112	keystroke_t	t	n/a
38.646	0.135	77292	keystroke_i	i	n/a
38.676	0.136	77352	keystroke_o	o	n/a
38.736	0.09	77472	keystroke_n	n	n/a
38.796	0.12	77592	keystroke_s	s	n/a
38.931	0.12	77862	keystroke_Key.space	Key.space	n/a
39.036	0.075	78072	keystroke_s	s	n/a
39.141	0.135	78282	keystroke_u	u	n/a
39.231	0.075	78462	keystroke_m	m	n/a
39.396	0.09	78792	keystroke_m	m	n/a
39.471	0.106	78942	keystroke_a	a	n/a
39.546	0.12	79092	keystroke_r	r	n/a
39.636	0.105	79272	keystroke_y	y	n/a
39.711	0.12	79422	keystroke_Key.space	Key.space	n/a
39.846	0.135	79692	keystroke_a	a	n/a
39.951	0.105	79902	keystroke_r	r	n/a
40.086	0.12	80172	keystroke_a	a	n/a
40.191	0.045	80382	keystroke_b	b	n/a
40.386	0.105	80772	keystroke_i	i	n/a
40.476	0.105	80952	keystroke_a	a	n/a
40.566	0.09	81132	keystroke_Key.space	Key.space	n/a
40.881	0.09	81762	keystroke_y	y	n/a
41.106	0.09	82212	keystroke_i	i	n/a
41.511	0.105	83022	keystroke_e	e	n/a
41.646	0.12	83292	keystroke_l	l	n/a
41.796	0.09	83592	keystroke_d	d	n/a
42.051	0.09	84102	keystroke_Key.enter	Key.enter	n/a
42.147	5.1265	84294	prompt	n/a	truth alignment bolt occur\n
42.7115	0.089	85423	keystroke_t	t	n/a
42.9065	0.09	85813	keystroke_r	r	n/a
42.9655	0.12	85931	keystroke_u	u	n/a
43.1315	0.09	86263	keystroke_t	t	n/a
43.1605	0.12	86321	keystroke_h	h	n/a
43.2515	0.119	86503	keystroke_Key.space	Key.space	n/a
43.3865	0.12	86773	keystroke_a	a	n/a
43.5355	0.151	87071	keystroke_l	l	n/a
43.6715	0.134	87343	keystroke_i	i	n/a
43.8205	0.09	87641	keystroke_g	g	n/a
43.9265	0.089	87853	keystroke_n	n	n/a
44.1355	0.091	88271	keystroke_m	m	n/a
44.2105	0.105	88421	keystroke_e	e	n/a
44.3165	0.075	88633	keystroke_n	n	n/a
44.4065	0.105	88813	keystroke_t	t	n/a
44.4805	0.12	88961	keystroke_Key.space	Key.space	n/a
44.5565	0.12	89113	keystroke_b	b	n/a
44.7215	0.104	89443	keystroke_o	o	n/a
44.9305	0.091	89861	keystroke_l	l	n/a
45.0055	0.106	90011	keystroke_t	t	n/a
45.0955	0.12	90191	keystroke_Key.space	Key.space	n/a
45.1715	0.15	90343	keystroke_o	o	n/a
45.3065	0.12	90613	keystroke_c	c	n/a
45.4865	0.12	90973	keystroke_c	c	n/a
45.5915	0.089	91183	keystroke_u	u	n/a
45.7865	0.09	91573	keystroke_r	r	n/a
47.1815	0.089	94363	keystroke_Key.enter	Key.enter	n/a
47.278	6.2955	94556	prompt	n/a	bangkok their arising recipient\n
48.0515	0.09	96103	keystroke_b	b	n/a
48.2015	0.104	96403	keystroke_a	a	n/a
48.3355	0.136	96671	keystroke_n	n	n/a
48.9215	0.105	97843	keystroke_g	g	n/a
49.8215	0.119	99643	keystroke_k	k	n/a
49.9865	0.165	99973	keystroke_o	o	n/a
50.1065	0.105	100213	keystroke_k	k	n/a
50.4055	0.136	100811	keystroke_Key.space	Key.space	n/a
50.6015	0.105	101203	keystroke_t	t	n/a
50.6915	0.075	101383	keystroke_h	h	n/a
50.7815	0.105	101563	keystroke_e	e	n/a
50.8715	0.09	101743	keystroke_i	i	n/a
50.9465	0.135	101893	keystroke_r	r	n/a
51.0665	0.12	102133	keystroke_Key.space	Key.space	n/a
51.2015	0.165	102403	keystroke_a	a	n/a
51.3515	0.09	102703	keystroke_r	r	n/a
51.5615	0.09	103123	keystroke_i	i	n/a
51.7105	0.121	103421	keystroke_s	s	n/a
51.7855	0.136	103571	keystroke_i	i	n/a
51.8615	0.09	103723	keystroke_n	n	n/a
51.9525	0.104	103905	keystroke_g	g	n/a
52.0715	0.105	104143	keystroke_Key.space	Key.space	n/a
52.2215	0.105	104443	keystroke_r	r	n/a
52.2815	0.12	104563	keystroke_e	e	n/a
52.5065	0.105	105013	keystroke_c	c	n/a
52.8065	0.105	105613	keystroke_i	i	n/a
52.9265	0.135	105853	keystroke_p	p	n/a
53.0165	0.105	106033	keystroke_i	i	n/a
53.1215	0.105	106243	keystroke_e	e	n/a
53.2115	0.135	106423	keystroke_n	n	n/a
53.3315	0.105	106663	keystroke_t	t	n/a
53.4665	0.105	106933	keystroke_Key.enter	Key.enter	n/a
53.5795	4.974	107159	prompt	n/a	ends torture partial consortium\n
54.2015	0.135	108403	keystroke_e	e	n/a
54.2915	0.09	108583	keystroke_n	n	n/a
54.4865	0.12	108973	keystroke_d	d	n/a
54.5765	0.105	109153	keystroke_s	s	n/a
54.6665	0.12	109333	keystroke_Key.space	Key.space	n/a
54.8315	0.12	109663	keystroke_t	t	n/a
54.9215	0.135	109843	keystroke_o	o	n/a
55.0715	0.09	110143	keystroke_r	r	n/a
55.2365	0.105	110473	keystroke_t	t	n/a
55.3115	0.09	110623	keystroke_u	u	n/a
55.4465	0.12	110893	keystroke_e	e	n/a
55.9405	0.121	111881	keystroke_Key.backspace	Key.backspace	n/a
56.0765	0.12	112153	keystroke_r	r	n/a
56.1515	0.135	112303	keystroke_e	e	n/a
56.3165	0.105	112633	keystroke_Key.space	Key.space	n/a
56.4065	0.12	112813	keystroke_p	p	n/a
56.4515	0.12	112903	keystroke_a	a	n/a
56.5115	0.12	113023	keystroke_r	r	n/a
56.7065	0.09	113413	keystroke_t	t	n/a
56.7365	0.105	113473	keystroke_i	i	n/a
56.8715	0.135	113743	keystroke_a	a	n/a
56.9315	0.15	113863	keystroke_l	l	n/a
57.0365	0.12	114073	keystroke_Key.space	Key.space	n/a
57.1265	0.12	114253	keystroke_c	c	n/a
57.2475	0.104	114495	keystroke_o	o	n/a
57.3065	0.105	114613	keystroke_n	n	n/a
57.3665	0.105	114733	keystroke_s	s	n/a
57.6665	0.12	115333	keystroke_o	o	n/a
57.7715	0.105	115543	keystroke_r	r	n/a
57.9515	0.105	115903	keystroke_t	t	n/a
58.0265	0.165	116053	keystroke_i	i	n/a
58.1015	0.12	116203	keystroke_u	u	n/a
58.1915	0.075	116383	keystroke_m	m	n/a
58.4465	0.105	116893	keystroke_Key.enter	Key.enter	n/a
58.5585	4.449	117117	prompt	n/a	latest weblog regional flex\n
59.2715	0.105	118543	keystroke_l	l	n/a
59.3315	0.12	118663	keystroke_a	a	n/a
59.4365	0.15	118873	keystroke_t	t	n/a
59.5415	0.105	119083	keystroke_e	e	n/a
59.7365	0.135	119473	keystroke_s	s	n/a
59.8415	0.09	119683	keystroke_t	t	n/a
59.9765	0.105	119953	keystroke_Key.space	Key.space	n/a
60.0965	0.06	120193	keystroke_w	w	n/a
60.4115	0.09	120823	keystroke_e	e	n/a
60.5315	0.045	121063	keystroke_b	b	n/a
60.7265	0.06	121453	keystroke_l	l	n/a
60.9065	0.09	121813	keystroke_o	o	n/a
60.9815	0.105	121963	keystroke_g	g	n/a
61.1015	0.12	122203	keystroke_Key.space	Key.space	n/a
61.2365	0.105	122473	keystroke_r	r	n/a
61.3115	0.12	122623	keystroke_e	e	n/a
61.5215	0.09	123043	keystroke_g	g	n/a
61.6565	0.24	123313	keystroke_i	i	n/a
61.7915	0.165	123583	keystroke_o	o	n/a
61.8965	0.12	123793	keystroke_n	n	n/a
62.0015	0.135	124003	keystroke_a	a	n/a
62.1065	0.135	124213	keystroke_l	l	n/a
62.1965	0.135	124393	keystroke_Key.space	Key.space	n/a
62.3315	0.12	124663	keystroke_f	f	n/a
62.4365	0.12	124873	keystroke_l	l	n/a
62.5415	0.09	125083	keystroke_e	e	n/a
62.7365	0.09	125473	keystroke_x	x	n/a
62.9165	0.09	125833	keystroke_Key.enter	Key.enter	n/a
63.0115	5.4415	126023	prompt	n/a	tyler build championship efficiently\n
63.7715	0.105	127543	keystroke_t	t	n/a
63.8915	0.105	127783	keystroke_y	y	n/a
64.0265	0.15	128053	keystroke_l	l	n/a
64.1015	0.135	128203	keystroke_e	e	n/a
64.1615	0.12	128323	keystroke_r	r	n/a
64.2965	0.09	128593	keystroke_Key.space	Key.space	n/a
64.3565	0.09	128713	keystroke_b	b	n/a
64.6115	0.135	129223	keystroke_u	u	n/a
64.6565	0.15	129313	keystroke_i	i	n/a
64.6865	0.165	129373	keystroke_l	l	n/a
64.7765	0.105	129553	keystroke_d	d	n/a
64.8965	0.105	129793	keystroke_Key.space	Key.space	n/a
65.0165	0.105	130033	keystroke_c	c	n/a
65.0915	0.09	130183	keystroke_h	h	n/a
65.2115	0.105	130423	keystroke_a	a	n/a
65.3315	0.105	130663	keystroke_m	m	n/a
65.5865	0.15	131173	keystroke_p	p	n/a
65.7815	0.21	131563	keystroke_i	i	n/a
65.9465	0.15	131893	keystroke_o	o	n/a
66.1715	0.12	132343	keystroke_n	n	n/a
66.3965	0.105	132793	keystroke_s	s	n/a
66.4715	0.105	132943	keystroke_h	h	n/a
66.7415	0.135	133483	keystroke_i	i	n/a
66.7715	0.135	133543	keystroke_p	p	n/a
66.8905	0.135	133781	keystroke_Key.space	Key.space	n/a
67.0115	0.135	134023	keystroke_e	e	n/a
67.1315	0.09	134263	keystroke_f	f	n/a
67.3115	0.105	134623	keystroke_f	f	n/a
67.4015	0.105	134803	keystroke_i	i	n/a
67.5215	0.12	135043	keystroke_c	c	n/a
67.5965	0.105	135193	keystroke_i	i	n/a
67.7165	0.105	135433	keystroke_e	e	n/a
67.8065	0.09	135613	keystroke_n	n	n/a
67.9115	0.075	135823	keystroke_t	t	n/a
68.0165	0.12	136033	keystroke_l	l	n/a
68.0915	0.09	136183	keystroke_y	y	n/a
68.3465	0.104	136693	keystroke_Key.enter	Key.enter	n/a
68.4575	5.0365	136915	prompt	n/a	occasions infringement named singles\n
69.0815	0.12	138163	keystroke_o	o	n/a
69.1565	0.09	138313	keystroke_c	c	n/a
69.3215	0.09	138643	keystroke_c	c	n/a
69.4265	0.12	138853	keystroke_a	a	n/a
69.5015	0.135	139003	keystroke_s	s	n/a
69.5765	0.105	139153	keystroke_i	i	n/a
69.6215	0.12	139243	keystroke_o	o	n/a
69.6815	0.09	139363	keystroke_n	n	n/a
69.7715	0.105	139543	keystroke_s	s	n/a
69.8605	0.12	139721	keystroke_Key.space	Key.space	n/a
70.0115	0.135	140023	keystroke_i	i	n/a
70.0865	0.12	140173	keystroke_n	n	n/a
70.1765	0.09	140353	keystroke_f	f	n/a
70.3855	0.106	140771	keystroke_r	r	n/a
70.6565	0.105	141313	keystroke_i	i	n/a
70.9565	0.105	141913	keystroke_n	n	n/a
71.0765	0.075	142153	keystroke_g	g	n/a
71.2865	0.105	142573	keystroke_e	e	n/a
71.3765	0.06	142753	keystroke_m	m	n/a
71.4815	0.09	142963	keystroke_e	e	n/a
71.5415	0.09	143083	keystroke_n	n	n/a
71.6465	0.09	143293	keystroke_t	t	n/a
71.7665	0.09	143533	keystroke_Key.space	Key.space	n/a
71.9465	0.105	143893	keystroke_n	n	n/a
72.0365	0.12	144073	keystroke_a	a	n/a
72.1715	0.075	144343	keystroke_m	m	n/a
72.2165	0.165	144433	keystroke_e	e	n/a
72.3065	0.135	144613	keystroke_d	d	n/a
72.4105	0.121	144821	keystroke_Key.space	Key.space	n/a
72.5615	0.105	145123	keystroke_s	s	n/a
72.6215	0.12	145243	keystroke_i	i	n/a
72.7115	0.105	145423	keystroke_n	n	n/a
72.8315	0.105	145663	keystroke_g	g	n/a
72.9815	0.135	145963	keystroke_l	l	n/a
73.0715	0.105	146143	keystroke_e	e	n/a
73.2665	0.09	146533	keystroke_s	s	n/a
73.3865	0.105	146773	keystroke_Key.enter	Key.enter	n/a
73.501	4.7765	147002	prompt	n/a	taylor relief interest center\n
74.0615	0.12	148123	keystroke_t	t	n/a
74.1965	0.135	148393	keystroke_a	a	n/a
74.3165	0.105	148633	keystroke_y	y	n/a
74.4665	0.105	148933	keystroke_l	l	n/a
74.6765	0.09	149353	keystroke_o	o	n/a
74.7515	0.12	149503	keystroke_r	r	n/a
74.8865	0.12	149773	keystroke_Key.space	Key.space	n/a
75.0365	0.105	150073	keystroke_r	r	n/a
75.2015	0.075	150403	keystroke_e	e	n/a
75.3515	0.1795	150703	keystroke_l	l	n/a
75.441	0.135	150882	keystroke_i	i	n/a
75.516	0.135	151032	keystroke_e	e	n/a
75.606	0.12	151212	keystroke_f	f	n/a
75.741	0.09	151482	keystroke_Key.space	Key.space	n/a
75.966	0.12	151932	keystroke_i	i	n/a
76.041	0.12	152082	keystroke_n	n	n/a
76.116	0.12	152232	keystroke_t	t	n/a
76.221	0.135	152442	keystroke_e	e	n/a
76.311	0.135	152622	keystroke_r	r	n/a
76.401	0.12	152802	keystroke_e	e	n/a
76.611	0.15	153222	keystroke_s	s	n/a
76.791	0.1355	153582	keystroke_t	t	n/a
76.9865	0.105	153973	keystroke_Key.space	Key.space	n/a
77.1515	0.075	154303	keystroke_c	c	n/a
77.2865	0.0895	154573	keystroke_e	e	n/a
77.346	0.12	154692	keystroke_n	n	n/a
77.481	0.09	154962	keystroke_t	t	n/a
77.691	0.12	155382	keystroke_e	e	n/a
77.781	0.12	155562	keystroke_r	r	n/a
78.111	0.165	156222	keystroke_Key.enter	Key.enter	n/a
78.2815	5.036	156563	prompt	n/a	infected ingredients luis total\n
78.996	0.165	157992	keystroke_i	i	n/a
79.101	0.12	158202	keystroke_n	n	n/a
79.236	0.12	158472	keystroke_f	f	n/a
79.326	0.195	158652	keystroke_e	e	n/a
79.491	0.105	158982	keystroke_c	c	n/a
79.746	0.105	159492	keystroke_t	t	n/a
79.821	0.135	159642	keystroke_e	e	n/a
79.971	0.15	159942	keystroke_d	d	n/a
80.091	0.105	160182	keystroke_Key.space	Key.space	n/a
80.286	0.09	160572	keystroke_i	i	n/a
80.346	0.165	160692	keystroke_n	n	n/a
80.466	0.09	160932	keystroke_g	g	n/a
80.661	0.12	161322	keystroke_r	r	n/a
80.796	0.12	161592	keystroke_e	e	n/a
80.931	0.135	161862	keystroke_d	d	n/a
81.051	0.075	162102	keystroke_i	i	n/a
81.156	0.12	162312	keystroke_e	e	n/a
81.261	0.105	162522	keystroke_n	n	n/a
81.351	0.075	162702	keystroke_t	t	n/a
81.501	0.12	163002	keystroke_s	s	n/a
81.786	0.135	163572	keystroke_Key.space	Key.space	n/a
81.951	0.135	163902	keystroke_l	l	n/a
82.116	0.165	164232	keystroke_u	u	n/a
82.206	0.165	164412	keystroke_i	i	n/a
82.296	0.135	164592	keystroke_s	s	n/a
82.416	0.12	164832	keystroke_Key.space	Key.space	n/a
82.566	0.09	165132	keystroke_t	t	n/a
82.626	0.105	165252	keystroke_o	o	n/a
82.731	0.075	165462	keystroke_t	t	n/a
82.821	0.12	165642	keystroke_a	a	n/a
82.851	0.12	165702	keystroke_l	l	n/a
83.166	0.15	166332	keystroke_Key.enter	Key.enter	n/a
83.323	5.0195	166646	prompt	n/a	farmer anxiety murder conviction\n
84.066	0.105	168132	keystroke_f	f	n/a
84.201	0.12	168402	keystroke_a	a	n/a
84.291	0.12	168582	keystroke_r	r	n/a
84.396	0.09	168792	keystroke_m	m	n/a
84.501	0.12	169002	keystroke_e	e	n/a
84.576	0.105	169152	keystroke_r	r	n/a
84.651	0.105	169302	keystroke_Key.space	Key.space	n/a
84.831	0.105	169662	keystroke_a	a	n/a
84.921	0.105	169842	keystroke_n	n	n/a
85.131	0.105	170262	keystroke_x	x	n/a
85.326	0.135	170652	keystroke_i	i	n/a
85.476	0.12	170952	keystroke_e	e	n/a
85.581	0.105	171162	keystroke_t	t	n/a
85.701	0.075	171402	keystroke_y	y	n/a
85.821	0.135	171642	keystroke_Key.space	Key.space	n/a
86.196	0.135	172392	keystroke_m	m	n/a
86.301	0.135	172602	keystroke_u	u	n/a
86.391	0.09	172782	keystroke_r	r	n/a
86.586	0.12	173172	keystroke_d	d	n/a
86.676	0.12	173352	keystroke_e	e	n/a
86.766	0.105	173532	keystroke_r	r	n/a
86.841	0.12	173682	keystroke_Key.space	Key.space	n/a
87.006	0.135	174012	keystroke_c	c	n/a
87.096	0.135	174192	keystroke_o	o	n/a
87.171	0.135	174342	keystroke_n	n	n/a
87.276	0.105	174552	keystroke_v	v	n/a
87.396	0.105	174792	keystroke_i	i	n/a
87.471	0.105	174942	keystroke_c	c	n/a
87.726	0.075	175452	keystroke_t	t	n/a
87.771	0.15	175542	keystroke_i	i	n/a
87.816	0.135	175632	keystroke_o	o	n/a
87.876	0.12	175752	keystroke_n	n	n/a
88.236	0.105	176472	keystroke_Key.enter	Key.enter	n/a
88.3465	4.5865	176693	prompt	n/a	chan invention receipt eyes\n
89.016	0.12	178032	keystroke_c	c	n/a
89.076	0.105	178152	keystroke_h	h	n/a
89.196	0.12	178392	keystroke_a	a	n/a
89.301	0.09	178602	keystroke_n	n	n/a
89.481	0.075	178962	keystroke_Key.space	Key.space	n/a
89.571	0.15	179142	keystroke_i	i	n/a
89.691	0.105	179382	keystroke_n	n	n/a
89.781	0.135	179562	keystroke_v	v	n/a
89.931	0.135	179862	keystroke_e	e	n/a
90.036	0.12	180072	keystroke_n	n	n/a
90.126	0.15	180252	keystroke_t	t	n/a
90.216	0.15	180432	keystroke_i	i	n/a
90.261	0.135	180522	keystroke_o	o	n/a
90.306	0.105	180612	keystroke_n	n	n/a
90.501	0.105	181002	keystroke_Key.space	Key.space	n/a
90.576	0.135	181152	keystroke_r	r	n/a
90.726	0.135	181452	keystroke_e	e	n/a
90.921	0.135	181842	keystroke_c	c	n/a
91.461	0.09	182922	keystroke_e	e	n/a
91.731	0.09	183462	keystroke_i	i	n/a
91.866	0.12	183732	keystroke_p	p	n/a
92.016	0.12	184032	keystroke_t	t	n/a
92.151	0.09	184302	keystroke_Key.space	Key.space	n/a
92.331	0.105	184662	keystroke_e	e	n/a
92.391	0.09	184782	keystroke_y	y	n/a
92.511	0.105	185022	keystroke_e	e	n/a
92.706	0.105	185412	keystroke_s	s	n/a
92.826	0.105	185652	keystroke_Key.enter	Key.enter	n/a
92.9375	5.0805	185875	prompt	n/a	toll root phentermine flex\n
93.861	0.075	187722	keystroke_t	t	n/a
93.981	0.09	187962	keystroke_o	o	n/a
94.191	0.075	188382	keystroke_l	l	n/a
94.356	0.105	188712	keystroke_l	l	n/a
94.431	0.15	188862	keystroke_Key.space	Key.space	n/a
94.596	0.105	189192	keystroke_r	r	n/a
94.686	0.075	189372	keystroke_o	o	n/a
94.851	0.105	189702	keystroke_o	o	n/a
94.941	0.105	189882	keystroke_t	t	n/a
95.061	0.12	190122	keystroke_Key.space	Key.space	n/a
95.271	0.06	190542	keystroke_p	p	n/a
96.006	0.105	192012	keystroke_h	h	n/a
96.216	0.135	192432	keystroke_e	e	n/a
96.306	0.135	192612	keystroke_n	n	n/a
96.426	0.105	192852	keystroke_t	t	n/a
96.516	0.15	193032	keystroke_e	e	n/a
96.621	0.12	193242	keystroke_r	r	n/a
96.681	0.09	193362	keystroke_m	m	n/a
96.756	0.165	193512	keystroke_i	i	n/a
96.846	0.12	193692	keystroke_n	n	n/a
96.936	0.135	193872	keystroke_e	e	n/a
97.056	0.09	194112	keystroke_Key.space	Key.space	n/a
97.206	0.09	194412	keystroke_f	f	n/a
97.251	0.12	194502	keystroke_l	l	n/a
97.356	0.075	194712	keystroke_e	e	n/a
97.596	0.075	195192	keystroke_x	x	n/a
97.896	0.12	195792	keystroke_Key.enter	Key.enter	n/a
98.0225	4.825	196045	prompt	n/a	drew pepper funding compared\n
98.736	0.135	197472	keystroke_d	d	n/a
98.976	0.12	197952	keystroke_r	r	n/a
99.336	0.135	198672	keystroke_e	e	n/a
99.516	0.12	199032	keystroke_w	w	n/a
99.651	0.12	199302	keystroke_Key.space	Key.space	n/a
99.756	0.12	199512	keystroke_p	p	n/a
99.816	0.135	199632	keystroke_e	e	n/a
99.996	0.075	199992	keystroke_p	p	n/a
100.671	0.12	201342	keystroke_p	p	n/a
100.821	0.15	201642	keystroke_e	e	n/a
100.926	0.12	201852	keystroke_r	r	n/a
101.091	0.135	202182	keystroke_Key.space	Key.space	n/a
101.271	0.12	202542	keystroke_f	f	n/a
101.346	0.12	202692	keystroke_u	u	n/a
101.406	0.12	202812	keystroke_n	n	n/a
101.496	0.12	202992	keystroke_d	d	n/a
101.601	0.105	203202	keystroke_i	i	n/a
101.646	0.105	203292	keystroke_n	n	n/a
101.736	0.09	203472	keystroke_g	g	n/a
101.811	0.09	203622	keystroke_Key.space	Key.space	n/a
101.976	0.12	203952	keystroke_c	c	n/a
102.051	0.18	204102	keystroke_o	o	n/a
102.141	0.105	204282	keystroke_m	m	n/a
102.186	0.15	204372	keystroke_p	p	n/a
102.291	0.12	204582	keystroke_a	a	n/a
102.366	0.12	204732	keystroke_r	r	n/a
102.501	0.135	205002	keystroke_e	e	n/a
102.606	0.12	205212	keystroke_d	d	n/a
102.756	0.09	205512	keystroke_Key.enter	Key.enter	n/a
102.8515	5.772	205703	prompt	n/a	commercial impacts preferences mighty\n
103.476	0.12	206952	keystroke_c	c	n/a
103.626	0.12	207252	keystroke_o	o	n/a
103.701	0.075	207402	keystroke_m	m	n/a
103.851	0.12	207702	keystroke_m	m	n/a
103.941	0.12	207882	keystroke_e	e	n/a
103.986	0.105	207972	keystroke_r	r	n/a
104.241	0.105	208482	keystroke_c	c	n/a
104.316	0.09	208632	keystroke_i	i	n/a
104.451	0.105	208902	keystroke_a	a	n/a
104.511	0.12	209022	keystroke_l	l	n/a
104.601	0.105	209202	keystroke_Key.space	Key.space	n/a
104.751	0.165	209502	keystroke_i	i	n/a
104.871	0.135	209742	keystroke_m	m	n/a
104.946	0.15	209892	keystroke_p	p	n/a
105.051	0.12	210102	keystroke_a	a	n/a
105.126	0.09	210252	keystroke_c	c	n/a
105.336	0.09	210672	keystroke_t	t	n/a
105.501	0.135	211002	keystroke_s	s	n/a
105.591	0.15	211182	keystroke_Key.space	Key.space	n/a
105.696	0.15	211392	keystroke_p	p	n/a
105.801	0.15	211602	keystroke_r	r	n/a
105.921	0.195	211842	keystroke_e	e	n/a
106.056	0.135	212112	keystroke_f	f	n/a
106.281	0.09	212562	keystroke_e	e	n/a
106.671	0.12	213342	keystroke_r	r	n/a
106.806	0.135	213612	keystroke_e	e	n/a
106.896	0.135	213792	keystroke_n	n	n/a
107.046	0.135	214092	keystroke_c	c	n/a
107.151	0.105	214302	keystroke_e	e	n/a
107.361	0.105	214722	keystroke_s	s	n/a
107.436	0.075	214872	keystroke_Key.space	Key.space	n/a
107.646	0.09	215292	keystroke_m	m	n/a
107.691	0.105	215382	keystroke_i	i	n/a
107.901	0.12	215802	keystroke_g	g	n/a
107.991	0.105	215982	keystroke_h	h	n/a
108.051	0.09	216102	keystroke_t	t	n/a
108.231	0.09	216462	keystroke_y	y	n/a
108.531	0.09	217062	keystroke_Key.enter	Key.enter	n/a
108.63	3.6225	217260	prompt	n/a	peak suitable choose racks\n
109.191	0.105	218382	keystroke_p	p	n/a
109.401	0.15	218802	keystroke_e	e	n/a
109.446	0.15	218892	keystroke_a	a	n/a
109.521	0.135	219042	keystroke_k	k	n/a
109.641	0.09	219282	keystroke_Key.space	Key.space	n/a
109.746	0.135	219492	keystroke_s	s	n/a
109.866	0.135	219732	keystroke_u	u	n/a
109.941	0.135	219882	keystroke_i	i	n/a
110.016	0.105	220032	keystroke_t	t	n/a
110.106	0.12	220212	keystroke_a	a	n/a
110.181	0.075	220362	keystroke_b	b	n/a
110.346	0.12	220692	keystroke_l	l	n/a
110.436	0.12	220872	keystroke_e	e	n/a
110.571	0.09	221142	keystroke_Key.space	Key.space	n/a
110.676	0.105	221352	keystroke_c	c	n/a
110.766	0.075	221532	keystroke_h	h	n/a
110.826	0.075	221652	keystroke_o	o	n/a
110.976	0.12	221952	keystroke_o	o	n/a
111.051	0.105	222102	keystroke_s	s	n/a
111.261	0.075	222522	keystroke_e	e	n/a
111.306	0.09	222612	keystroke_Key.space	Key.space	n/a
111.471	0.105	222942	keystroke_r	r	n/a
111.561	0.15	223122	keystroke_a	a	n/a
111.696	0.105	223392	keystroke_c	c	n/a
111.831	0.12	223662	keystroke_k	k	n/a
111.966	0.09	223932	keystroke_s	s	n/a
112.146	0.105	224292	keystroke_Key.enter	Key.enter	n/a
112.2585	3.399	224517	prompt	n/a	darwin moment now dice\n
112.822	0.119	225644	keystroke_d	d	n/a
112.971	0.09	225942	keystroke_a	a	n/a
113.046	0.12	226092	keystroke_r	r	n/a
113.181	0.12	226362	keystroke_w	w	n/a
113.241	0.12	226482	keystroke_i	i	n/a
113.316	0.09	226632	keystroke_n	n	n/a
113.466	0.105	226932	keystroke_Key.space	Key.space	n/a
113.691	0.12	227382	keystroke_m	m	n/a
113.766	0.135	227532	keystroke_o	o	n/a
113.886	0.105	227772	keystroke_m	m	n/a
113.961	0.15	227922	keystroke_e	e	n/a
114.081	0.09	228162	keystroke_n	n	n/a
114.156	0.105	228312	keystroke_t	t	n/a
114.276	0.09	228552	keystroke_Key.space	Key.space	n/a
114.486	0.09	228972	keystroke_n	n	n/a
114.531	0.12	229062	keystroke_o	o	n/a
114.561	0.12	229122	keystroke_w	w	n/a
114.696	0.105	229392	keystroke_Key.space	Key.space	n/a
114.786	0.12	229572	keystroke_d	d	n/a
114.891	0.12	229782	keystroke_i	i	n/a
115.026	0.105	230052	keystroke_c	c	n/a
115.116	0.105	230232	keystroke_e	e	n/a
115.521	0.135	231042	keystroke_Key.enter	Key.enter	n/a
115.6635	3.8045	231327	prompt	n/a	eleven linux auburn consulting\n
116.301	0.12	232602	keystroke_e	e	n/a
116.406	0.12	232812	keystroke_l	l	n/a
116.511	0.135	233022	keystroke_e	e	n/a
116.616	0.15	233232	keystroke_v	v	n/a
116.721	0.12	233442	keystroke_e	e	n/a
116.781	0.105	233562	keystroke_n	n	n/a
116.976	0.12	233952	keystroke_Key.space	Key.space	n/a
117.066	0.195	234132	keystroke_l	l	n/a
117.171	0.165	234342	keystroke_i	i	n/a
117.291	0.135	234582	keystroke_n	n	n/a
117.396	0.12	234792	keystroke_u	u	n/a
117.471	0.12	234942	keystroke_x	x	n/a
117.606	0.12	235212	keystroke_Key.space	Key.space	n/a
117.696	0.135	235392	keystroke_a	a	n/a
117.816	0.12	235632	keystroke_u	u	n/a
117.891	0.135	235782	keystroke_b	b	n/a
118.011	0.15	236022	keystroke_u	u	n/a
118.086	0.12	236172	keystroke_r	r	n/a
118.191	0.075	236382	keystroke_n	n	n/a
118.341	0.105	236682	keystroke_Key.space	Key.space	n/a
118.447	0.119	236894	keystroke_c	c	n/a
118.521	0.105	237042	keystroke_o	o	n/a
118.581	0.09	237162	keystroke_n	n	n/a
118.656	0.105	237312	keystroke_s	s	n/a
118.776	0.12	237552	keystroke_u	u	n/a
118.851	0.135	237702	keystroke_l	l	n/a
118.941	0.105	237882	keystroke_t	t	n/a
119.061	0.105	238122	keystroke_i	i	n/a
119.121	0.105	238242	keystroke_n	n	n/a
119.196	0.09	238392	keystroke_g	g	n/a
119.361	0.105	238722	keystroke_Key.enter	Key.enter	n/a
119.472	3.446	238944	prompt	n/a	both janet cent hamilton\n
120.051	0.045	240102	keystroke_b	b	n/a
120.201	0.12	240402	keystroke_o	o	n/a
120.276	0.12	240552	keystroke_t	t	n/a
120.366	0.105	240732	keystroke_h	h	n/a
120.426	0.105	240852	keystroke_Key.space	Key.space	n/a
120.606	0.105	241212	keystroke_j	j	n/a
120.696	0.105	241392	keystroke_a	a	n/a
120.802	0.104	241604	keystroke_n	n	n/a
120.907	0.074	241814	keystroke_e	e	n/a
121.086	0.09	242172	keystroke_t	t	n/a
121.206	0.105	242412	keystroke_Key.space	Key.space	n/a
121.386	0.165	242772	keystroke_c	c	n/a
121.536	0.105	243072	keystroke_e	e	n/a
121.626	0.091	243252	keystroke_n	n	n/a
121.731	0.105	243462	keystroke_t	t	n/a
121.806	0.135	243612	keystroke_Key.space	Key.space	n/a
121.926	0.135	243852	keystroke_h	h	n/a
122.076	0.09	244152	keystroke_a	a	n/a
122.151	0.15	244302	keystroke_m	m	n/a
122.196	0.18	244392	keystroke_i	i	n/a
122.316	0.135	244632	keystroke_l	l	n/a
122.436	0.09	244872	keystroke_t	t	n/a
122.527	0.104	245054	keystroke_o	o	n/a
122.571	0.105	245142	keystroke_n	n	n/a
122.796	0.12	245592	keystroke_Key.enter	Key.enter	n/a
122.9225	5.3065	245845	prompt	n/a	repeated descending pumps fiber\n
123.562	0.104	247124	keystroke_r	r	n/a
123.636	0.09	247272	keystroke_e	e	n/a
123.711	0.106	247422	keystroke_p	p	n/a
123.831	0.18	247662	keystroke_e	e	n/a
123.891	0.135	247782	keystroke_a	a	n/a
123.996	0.12	247992	keystroke_t	t	n/a
124.086	0.15	248172	keystroke_e	e	n/a
124.222	0.134	248444	keystroke_d	d	n/a
124.371	0.135	248742	keystroke_Key.space	Key.space	n/a
124.566	0.12	249132	keystroke_d	d	n/a
124.626	0.135	249252	keystroke_e	e	n/a
124.821	0.12	249642	keystroke_s	s	n/a
124.897	0.179	249794	keystroke_c	c	n/a
125.061	0.12	250122	keystroke_e	e	n/a
125.166	0.105	250332	keystroke_n	n	n/a
125.286	0.12	250572	keystroke_d	d	n/a
125.346	0.09	250692	keystroke_i	i	n/a
125.421	0.12	250842	keystroke_n	n	n/a
125.572	0.104	251144	keystroke_g	g	n/a
125.706	0.135	251412	keystroke_Key.space	Key.space	n/a
125.931	0.091	251862	keystroke_p	p	n/a
126.022	0.119	252044	keystroke_u	u	n/a
126.111	0.135	252222	keystroke_m	m	n/a
126.201	0.105	252402	keystroke_p	p	n/a
126.321	0.135	252642	keystroke_s	s	n/a
126.486	0.105	252972	keystroke_Key.space	Key.space	n/a
126.606	0.09	253212	keystroke_f	f	n/a
126.666	0.12	253332	keystroke_i	i	n/a
126.772	0.119	253544	keystroke_b	b	n/a
126.876	0.121	253752	keystroke_e	e	n/a
126.936	0.09	253872	keystroke_r	r	n/a
128.106	0.12	256212	keystroke_Key.enter	Key.enter	n/a
128.233	7.045	256466	prompt	n/a	typically runner saint thomson\n
130.57	0.041	261140	keystroke_t	t	n/a
130.626	0.091	261252	keystroke_y	y	n/a
130.836	0.075	261672	keystroke_p	p	n/a
131.061	0.12	262122	keystroke_i	i	n/a
131.151	0.106	262302	keystroke_c	c	n/a
131.211	0.09	262422	keystroke_a	a	n/a
131.286	0.06	262572	keystroke_l	l	n/a
131.421	0.121	262842	keystroke_l	l	n/a
131.511	0.105	263022	keystroke_y	y	n/a
131.556	0.135	263112	keystroke_Key.space	Key.space	n/a
131.706	0.09	263412	keystroke_r	r	n/a
131.811	0.09	263622	keystroke_u	u	n/a
131.857	0.074	263714	keystroke_n	n	n/a
132.006	0.105	264012	keystroke_n	n	n/a
132.051	0.15	264102	keystroke_e	e	n/a
132.112	0.134	264224	keystroke_r	r	n/a
132.231	0.15	264462	keystroke_Key.space	Key.space	n/a
132.382	0.149	264764	keystroke_s	s	n/a
132.456	0.105	264912	keystroke_a	a	n/a
132.517	0.075	265034	keystroke_i	i	n/a
132.576	0.135	265152	keystroke_n	n	n/a
132.696	0.105	265392	keystroke_t	t	n/a
132.786	0.12	265572	keystroke_Key.space	Key.space	n/a
132.891	0.105	265782	keystroke_t	t	n/a
132.981	0.105	265962	keystroke_h	h	n/a
133.117	0.149	266234	keystroke_o	o	n/a
133.176	0.135	266352	keystroke_m	m	n/a
133.296	0.09	266592	keystroke_s	s	n/a
133.387	0.089	266774	keystroke_o	o	n/a
133.417	0.104	266834	keystroke_n	n	n/a
135.156	0.12	270312	keystroke_Key.enter	Key.enter	n/a
135.2815	7.0165	270563	prompt	n/a	asset substance items object\n
136.012	0.164	272024	keystroke_a	a	n/a
136.131	0.121	272262	keystroke_s	s	n/a
136.311	0.09	272622	keystroke_s	s	n/a
136.522	0.104	273044	keystroke_e	e	n/a
136.597	0.12	273194	keystroke_t	t	n/a
136.717	0.089	273434	keystroke_Key.space	Key.space	n/a
136.911	0.105	273822	keystroke_s	s	n/a
136.986	0.09	273972	keystroke_u	u	n/a
137.047	0.09	274094	keystroke_b	b	n/a
137.182	0.119	274364	keystroke_s	s	n/a
137.331	0.105	274662	keystroke_t	t	n/a
137.451	0.105	274902	keystroke_a	a	n/a
137.541	0.105	275082	keystroke_n	n	n/a
137.676	0.151	275352	keystroke_c	c	n/a
137.796	0.106	275592	keystroke_e	e	n/a
137.811	0.195	275622	keystroke_Key.space	Key.space	n/a
138.246	0.12	276492	keystroke_i	i	n/a
138.381	0.105	276762	keystroke_t	t	n/a
138.456	0.121	276912	keystroke_e	e	n/a
138.517	0.134	277034	keystroke_m	m	n/a
138.697	0.12	277394	keystroke_s	s	n/a
138.801	0.135	277602	keystroke_Key.space	Key.space	n/a
138.892	0.104	277784	keystroke_o	o	n/a
139.117	0.059	278234	keystroke_b	b	n/a
139.297	0.105	278594	keystroke_j	j	n/a
139.311	0.091	278622	keystroke_k	k	n/a
139.341	0.136	278682	keystroke_e	e	n/a
139.446	0.12	278892	keystroke_c	c	n/a
139.911	0.045	279822	keystroke_Key.backspace	Key.backspace	n/a
140.167	0.089	280334	keystroke_=	=	n/a
140.662	0.074	281324	keystroke_Key.backspace	Key.backspace	n/a
140.856	0.06	281712	keystroke_Key.backspace	Key.backspace	n/a
141.066	0.105	282132	keystroke_Key.backspace	Key.backspace	n/a
141.321	0.105	282642	keystroke_e	e	n/a
141.547	0.089	283094	keystroke_c	c	n/a
141.771	0.076	283542	keystroke_t	t	n/a
142.206	0.09	284412	keystroke_Key.enter	Key.enter	n/a
142.3025	8.0055	284605	prompt	n/a	requests distributions tutorials anchor\n
143.916	0.12	287832	keystroke_Key.space	Key.space	n/a
144.276	0.09	288552	keystroke_Key.backspace	Key.backspace	n/a
144.697	0.104	289394	keystroke_r	r	n/a
144.771	0.105	289542	keystroke_e	e	n/a
145.011	0.075	290022	keystroke_q	q	n/a
145.071	0.09	290142	keystroke_u	u	n/a
145.581	0.091	291162	keystroke_e	e	n/a
145.776	0.135	291552	keystroke_s	s	n/a
145.912	0.09	291824	keystroke_t	t	n/a
146.016	0.105	292032	keystroke_s	s	n/a
146.271	0.105	292542	keystroke_Key.space	Key.space	n/a
146.707	0.104	293414	keystroke_d	d	n/a
146.856	0.106	293712	keystroke_i	i	n/a
146.946	0.105	293892	keystroke_s	s	n/a
147.097	0.12	294194	keystroke_t	t	n/a
147.321	0.105	294642	keystroke_r	r	n/a
147.442	0.06	294884	keystroke_i	i	n/a
147.846	0.15	295692	keystroke_b	b	n/a
147.997	0.104	295994	keystroke_u	u	n/a
148.071	0.09	296142	keystroke_t	t	n/a
148.221	0.15	296442	keystroke_i	i	n/a
148.267	0.119	296534	keystroke_o	o	n/a
148.341	0.105	296682	keystroke_n	n	n/a
148.401	0.105	296802	keystroke_s	s	n/a
148.536	0.09	297072	keystroke_Key.space	Key.space	n/a
148.656	0.106	297312	keystroke_t	t	n/a
148.747	0.089	297494	keystroke_u	u	n/a
148.851	0.091	297702	keystroke_t	t	n/a
148.927	0.105	297854	keystroke_o	o	n/a
149.032	0.089	298064	keystroke_r	r	n/a
149.107	0.104	298214	keystroke_i	i	n/a
149.196	0.12	298392	keystroke_a	a	n/a
149.287	0.104	298574	keystroke_l	l	n/a
149.376	0.105	298752	keystroke_s	s	n/a
149.496	0.09	298992	keystroke_Key.space	Key.space	n/a
149.631	0.105	299262	keystroke_a	a	n/a
149.692	0.089	299384	keystroke_n	n	n/a
149.812	0.105	299624	keystroke_c	c	n/a
149.872	0.089	299744	keystroke_h	h	n/a
149.931	0.105	299862	keystroke_o	o	n/a
150.051	0.09	300102	keystroke_r	r	n/a
150.201	0.105	300402	keystroke_Key.enter	Key.enter	n/a
150.3115	5.2015	300623	prompt	n/a	emissions drew political watershed\n
150.862	0.119	301724	keystroke_e	e	n/a
150.967	0.089	301934	keystroke_m	m	n/a
151.042	0.12	302084	keystroke_i	i	n/a
151.116	0.09	302232	keystroke_s	s	n/a
151.282	0.104	302564	keystroke_s	s	n/a
151.312	0.119	302624	keystroke_i	i	n/a
151.357	0.089	302714	keystroke_o	o	n/a
151.401	0.105	302802	keystroke_n	n	n/a
151.492	0.09	302984	keystroke_s	s	n/a
151.596	0.105	303192	keystroke_Key.space	Key.space	n/a
151.912	0.105	303824	keystroke_d	d	n/a
152.241	0.075	304482	keystroke_r	r	n/a
152.451	0.136	304902	keystroke_e	e	n/a
152.542	0.104	305084	keystroke_w	w	n/a
152.692	0.089	305384	keystroke_Key.space	Key.space	n/a
152.826	0.135	305652	keystroke_p	p	n/a
153.262	0.075	306524	keystroke_o	o	n/a
153.456	0.136	306912	keystroke_l	l	n/a
153.531	0.091	307062	keystroke_i	i	n/a
153.607	0.104	307214	keystroke_t	t	n/a
153.697	0.104	307394	keystroke_i	i	n/a
153.862	0.12	307724	keystroke_c	c	n/a
153.922	0.165	307844	keystroke_a	a	n/a
153.997	0.12	307994	keystroke_l	l	n/a
154.101	0.135	308202	keystroke_Key.space	Key.space	n/a
154.192	0.104	308384	keystroke_w	w	n/a
154.266	0.135	308532	keystroke_a	a	n/a
154.371	0.106	308742	keystroke_t	t	n/a
154.462	0.135	308924	keystroke_e	e	n/a
154.582	0.044	309164	keystroke_r	r	n/a
154.747	0.104	309494	keystroke_s	s	n/a
154.807	0.09	309614	keystroke_h	h	n/a
154.942	0.12	309884	keystroke_e	e	n/a
155.032	0.105	310064	keystroke_d	d	n/a
155.376	0.135	310752	keystroke_Key.enter	Key.enter	n/a
155.5175	4.3455	311035	prompt	n/a	specs totally degrees homeless\n
156.247	0.105	312494	keystroke_s	s	n/a
156.367	0.15	312734	keystroke_p	p	n/a
156.457	0.119	312914	keystroke_e	e	n/a
156.606	0.121	313212	keystroke_c	c	n/a
156.787	0.105	313574	keystroke_s	s	n/a
156.892	0.134	313784	keystroke_Key.space	Key.space	n/a
157.041	0.091	314082	keystroke_t	t	n/a
157.117	0.075	314234	keystroke_o	o	n/a
157.206	0.136	314412	keystroke_t	t	n/a
157.326	0.106	314652	keystroke_a	a	n/a
157.371	0.03	314742	keystroke_l	l	n/a
157.507	0.119	315014	keystroke_l	l	n/a
157.641	0.12	315282	keystroke_y	y	n/a
157.686	0.105	315372	keystroke_Key.space	Key.space	n/a
157.806	0.121	315612	keystroke_d	d	n/a
157.867	0.119	315734	keystroke_e	e	n/a
157.956	0.105	315912	keystroke_g	g	n/a
158.076	0.105	316152	keystroke_r	r	n/a
158.151	0.09	316302	keystroke_e	e	n/a
158.287	0.105	316574	keystroke_e	e	n/a
158.497	0.12	316994	keystroke_s	s	n/a
158.601	0.105	317202	keystroke_Key.space	Key.space	n/a
158.707	0.075	317414	keystroke_h	h	n/a
158.797	0.165	317594	keystroke_o	o	n/a
158.902	0.12	317804	keystroke_m	m	n/a
159.007	0.09	318014	keystroke_e	e	n/a
159.112	0.135	318224	keystroke_l	l	n/a
159.217	0.09	318434	keystroke_e	e	n/a
159.411	0.09	318822	keystroke_s	s	n/a
159.562	0.105	319124	keystroke_s	s	n/a
159.772	0.089	319544	keystroke_Key.enter	Key.enter	n/a
159.8685	6.655	319737	prompt	n/a	tight melissa replaced showtimes\n
160.612	0.075	321224	keystroke_t	t	n/a
160.717	0.09	321434	keystroke_i	i	n/a
160.941	0.106	321882	keystroke_g	g	n/a
161.002	0.135	322004	keystroke_h	h	n/a
161.076	0.091	322152	keystroke_t	t	n/a
161.151	0.091	322302	keystroke_Key.space	Key.space	n/a
161.707	0.105	323414	keystroke_m	m	n/a
161.842	0.135	323684	keystroke_e	e	n/a
161.962	0.105	323924	keystroke_l	l	n/a
162.022	0.134	324044	keystroke_i	i	n/a
162.142	0.09	324284	keystroke_s	s	n/a
162.306	0.15	324612	keystroke_s	s	n/a
162.382	0.15	324764	keystroke_a	a	n/a
162.606	0.151	325212	keystroke_Key.space	Key.space	n/a
162.772	0.09	325544	keystroke_r	r	n/a
162.817	0.105	325634	keystroke_e	e	n/a
162.907	0.135	325814	keystroke_p	p	n/a
162.982	0.12	325964	keystroke_l	l	n/a
163.147	0.15	326294	keystroke_a	a	n/a
163.281	0.121	326562	keystroke_c	c	n/a
163.477	0.135	326954	keystroke_e	e	n/a
163.566	0.121	327132	keystroke_d	d	n/a
163.731	0.136	327462	keystroke_Key.space	Key.space	n/a
164.091	0.106	328182	keystroke_s	s	n/a
164.166	0.121	328332	keystroke_h	h	n/a
164.226	0.136	328452	keystroke_o	o	n/a
164.301	0.076	328602	keystroke_w	w	n/a
164.512	0.044	329024	keystroke_t	t	n/a
164.526	0.09	329052	keystroke_i	i	n/a
164.571	0.106	329142	keystroke_m	m	n/a
164.691	0.09	329382	keystroke_e	e	n/a
164.887	0.104	329774	keystroke_s	s	n/a
166.4015	0.12	332803	keystroke_Key.enter	Key.enter	n/a
166.532	6.3525	333064	prompt	n/a	she twist also cooked\n
167.4365	0.12	334873	keystroke_s	s	n/a
167.5265	0.12	335053	keystroke_h	h	n/a
167.7215	0.105	335443	keystroke_e	e	n/a
167.8715	0.12	335743	keystroke_Key.space	Key.space	n/a
168.0065	0.09	336013	keystroke_t	t	n/a
168.2315	0.09	336463	keystroke_w	w	n/a
168.3815	0.075	336763	keystroke_i	i	n/a
168.4715	0.165	336943	keystroke_s	s	n/a
168.6065	0.09	337213	keystroke_t	t	n/a
168.6815	0.12	337363	keystroke_Key.space	Key.space	n/a
168.8465	0.12	337693	keystroke_a	a	n/a
168.9365	0.09	337873	keystroke_l	l	n/a
169.0415	0.09	338083	keystroke_s	s	n/a
169.2065	0.135	338413	keystroke_o	o	n/a
169.4315	0.075	338863	keystroke_Key.space	Key.space	n/a
169.5215	0.09	339043	keystroke_c	c	n/a
169.5965	0.03	339193	keystroke_o	o	n/a
169.7165	0.15	339433	keystroke_o	o	n/a
169.7915	0.12	339583	keystroke_k	k	n/a
169.9415	0.075	339883	keystroke_w	w	n/a
170.0015	0.09	340003	keystroke_d	d	n/a
170.4365	0.105	340873	keystroke_=	=	n/a
170.6315	0.06	341263	keystroke_=	=	n/a
171.1715	0.09	342343	keystroke_Key.backspace	Key.backspace	n/a
171.3815	0.06	342763	keystroke_Key.backspace	Key.backspace	n/a
171.5615	0.09	343123	keystroke_Key.backspace	Key.backspace	n/a
172.0565	0.09	344113	keystroke_Key.backspace	Key.backspace	n/a
172.4465	0.165	344893	keystroke_e	e	n/a
172.5665	0.09	345133	keystroke_d	d	n/a
172.7915	0.09	345583	keystroke_Key.enter	Key.enter	n/a
172.889	7.645	345778	prompt	n/a	compatibility midnight intervals decreased\n
173.6165	0.12	347233	keystroke_c	c	n/a
173.8265	0.12	347653	keystroke_o	o	n/a
173.8865	0.15	347773	keystroke_m	m	n/a
174.0065	0.135	348013	keystroke_p	p	n/a
174.1115	0.09	348223	keystroke_a	a	n/a
174.3215	0.09	348643	keystroke_t	t	n/a
174.4265	0.165	348853	keystroke_i	i	n/a
174.5615	0.165	349123	keystroke_b	b	n/a
174.7115	0.12	349423	keystroke_i	i	n/a
174.7865	0.21	349573	keystroke_l	l	n/a
174.9215	0.12	349843	keystroke_i	i	n/a
175.0265	0.12	350053	keystroke_t	t	n/a
175.1315	0.09	350263	keystroke_y	y	n/a
175.2065	0.105	350413	keystroke_Key.space	Key.space	n/a
175.5515	0.15	351103	keystroke_i	i	n/a
175.9565	0.075	351913	keystroke_Key.backspace	Key.backspace	n/a
176.1815	0.09	352363	keystroke_m	m	n/a
176.2265	0.12	352453	keystroke_i	i	n/a
176.3165	0.12	352633	keystroke_d	d	n/a
176.4515	0.105	352903	keystroke_n	n	n/a
176.5115	0.105	353023	keystroke_i	i	n/a
176.7365	0.12	353473	keystroke_g	g	n/a
176.7815	0.105	353563	keystroke_h	h	n/a
176.8565	0.12	353713	keystroke_t	t	n/a
176.9615	0.105	353923	keystroke_Key.space	Key.space	n/a
177.1565	0.135	354313	keystroke_i	i	n/a
177.2465	0.12	354493	keystroke_n	n	n/a
177.3065	0.105	354613	keystroke_t	t	n/a
177.4265	0.12	354853	keystroke_e	e	n/a
177.4865	0.12	354973	keystroke_r	r	n/a
177.7565	0.105	355513	keystroke_v	v	n/a
177.8915	0.12	355783	keystroke_a	a	n/a
177.9815	0.106	355963	keystroke_l	l	n/a
178.0265	0.135	356053	keystroke_s	s	n/a
178.4315	0.105	356863	keystroke_Key.space	Key.space	n/a
178.6565	0.12	357313	keystroke_d	d	n/a
178.7315	0.12	357463	keystroke_e	e	n/a
178.9115	0.09	357823	keystroke_c	c	n/a
179.1215	0.09	358243	keystroke_r	r	n/a
179.1665	0.165	358333	keystroke_e	e	n/a
179.2415	0.21	358483	keystroke_a	a	n/a
179.4065	0.12	358813	keystroke_s	s	n/a
179.6015	0.105	359203	keystroke_e	e	n/a
179.6765	0.09	359353	keystroke_d	d	n/a
180.4265	0.1045	360853	keystroke_Key.enter	Key.enter	n/a
180.538	4.45	361076	prompt	n/a	diving bunny choice layout\n
181.296	0.105	362592	keystroke_d	d	n/a
181.492	0.09	362984	keystroke_i	i	n/a
181.656	0.12	363312	keystroke_v	v	n/a
181.762	0.1045	363524	keystroke_i	i	n/a
181.8365	0.105	363673	keystroke_n	n	n/a
181.9265	0.074	363853	keystroke_g	g	n/a
182.0305	0.135	364061	keystroke_Key.space	Key.space	n/a
182.1205	0.091	364241	keystroke_b	b	n/a
182.3465	0.105	364693	keystroke_u	u	n/a
182.4215	0.045	364843	keystroke_n	n	n/a
182.5555	0.106	365111	keystroke_n	n	n/a
182.6465	0.12	365293	keystroke_y	y	n/a
182.7805	0.09	365561	keystroke_Key.space	Key.space	n/a
183.1865	0.104	366373	keystroke_c	c	n/a
183.2755	0.075	366551	keystroke_h	h	n/a
183.3965	0.12	366793	keystroke_o	o	n/a
183.5015	0.12	367003	keystroke_i	i	n/a
183.5455	0.15	367091	keystroke_c	c	n/a
183.6805	0.106	367361	keystroke_e	e	n/a
183.7705	0.135	367541	keystroke_Key.space	Key.space	n/a
183.8755	0.121	367751	keystroke_l	l	n/a
184.0115	0.105	368023	keystroke_a	a	n/a
184.0865	0.075	368173	keystroke_y	y	n/a
184.2665	0.15	368533	keystroke_o	o	n/a
184.3415	0.105	368683	keystroke_u	u	n/a
184.4015	0.09	368803	keystroke_t	t	n/a
184.8665	0.119	369733	keystroke_Key.enter	Key.enter	n/a
184.993	6.9405	369986	prompt	n/a	britney limousines reasoning asin\n
185.7965	0.06	371593	keystroke_b	b	n/a
186.0215	0.104	372043	keystroke_r	r	n/a
186.0965	0.135	372193	keystroke_i	i	n/a
186.2615	0.075	372523	keystroke_t	t	n/a
186.3815	0.089	372763	keystroke_n	n	n/a
186.5015	0.135	373003	keystroke_e	e	n/a
186.5915	0.105	373183	keystroke_y	y	n/a
186.6805	0.106	373361	keystroke_Key.space	Key.space	n/a
187.4465	0.135	374893	keystroke_l	l	n/a
187.8215	0.059	375643	keystroke_i	i	n/a
188.1365	0.09	376273	keystroke_m	m	n/a
188.2865	0.135	376573	keystroke_o	o	n/a
188.3765	0.12	376753	keystroke_u	u	n/a
188.4975	0.119	376995	keystroke_s	s	n/a
188.5865	0.12	377173	keystroke_i	i	n/a
188.6315	0.12	377263	keystroke_n	n	n/a
188.8265	0.105	377653	keystroke_e	e	n/a
189.0365	0.105	378073	keystroke_s	s	n/a
189.1715	0.104	378343	keystroke_Key.space	Key.space	n/a
189.4115	0.135	378823	keystroke_r	r	n/a
189.4865	0.165	378973	keystroke_e	e	n/a
189.5765	0.18	379153	keystroke_a	a	n/a
189.7415	0.12	379483	keystroke_s	s	n/a
189.9365	0.09	379873	keystroke_o	o	n/a
189.9965	0.135	379993	keystroke_n	n	n/a
190.1015	0.135	380203	keystroke_i	i	n/a
190.2065	0.135	380413	keystroke_n	n	n/a
190.9415	0.09	381883	keystroke_g	g	n/a
191.1365	0.119	382273	keystroke_Key.space	Key.space	n/a
191.3315	0.135	382663	keystroke_a	a	n/a
191.4065	0.105	382813	keystroke_s	s	n/a
191.4815	0.12	382963	keystroke_i	i	n/a
191.5415	0.105	383083	keystroke_n	n	n/a
191.8115	0.12	383623	keystroke_Key.enter	Key.enter	n/a
191.9385	3.729	383877	prompt	n/a	notes interior funds chance\n
192.5165	0.15	385033	keystroke_n	n	n/a
192.6215	0.1645	385243	keystroke_o	o	n/a
192.7115	0.1195	385423	keystroke_t	t	n/a
192.816	0.121	385632	keystroke_e	e	n/a
193.026	0.12	386052	keystroke_s	s	n/a
193.101	0.15	386202	keystroke_Key.space	Key.space	n/a
193.281	0.12	386562	keystroke_i	i	n/a
193.356	0.135	386712	keystroke_n	n	n/a
193.476	0.09	386952	keystroke_f	f	n/a
193.596	0.15	387192	keystroke_e	e	n/a
193.701	0.105	387402	keystroke_r	r	n/a
193.791	0.135	387582	keystroke_i	i	n/a
193.851	0.105	387702	keystroke_o	o	n/a
193.941	0.09	387882	keystroke_r	r	n/a
194.046	0.105	388092	keystroke_Key.space	Key.space	n/a
194.196	0.12	388392	keystroke_f	f	n/a
194.301	0.12	388602	keystroke_u	u	n/a
194.331	0.12	388662	keystroke_n	n	n/a
194.466	0.15	388932	keystroke_d	d	n/a
194.556	0.135	389112	keystroke_s	s	n/a
194.706	0.075	389412	keystroke_Key.space	Key.space	n/a
194.826	0.105	389652	keystroke_c	c	n/a
194.901	0.075	389802	keystroke_h	h	n/a
194.961	0.135	389922	keystroke_a	a	n/a
195.097	0.059	390194	keystroke_n	n	n/a
195.171	0.09	390342	keystroke_c	c	n/a
195.231	0.09	390462	keystroke_e	e	n/a
195.561	0.105	391122	keystroke_Key.enter	Key.enter	n/a
195.6725	4.8555	391345	prompt	n/a	disk corporation bradley he's\n
196.266	0.105	392532	keystroke_d	d	n/a
196.326	0.105	392652	keystroke_i	i	n/a
196.461	0.09	392922	keystroke_s	s	n/a
196.552	0.089	393104	keystroke_k	k	n/a
196.626	0.105	393252	keystroke_Key.space	Key.space	n/a
196.821	0.105	393642	keystroke_c	c	n/a
197.241	0.135	394482	keystroke_o	o	n/a
197.406	0.09	394812	keystroke_r	r	n/a
197.497	0.119	394994	keystroke_p	p	n/a
197.556	0.135	395112	keystroke_o	o	n/a
197.631	0.09	395262	keystroke_r	r	n/a
197.736	0.135	395472	keystroke_a	a	n/a
197.811	0.105	395622	keystroke_t	t	n/a
197.887	0.134	395774	keystroke_i	i	n/a
197.931	0.091	395862	keystroke_o	o	n/a
197.976	0.075	395952	keystroke_n	n	n/a
198.141	0.12	396282	keystroke_Key.space	Key.space	n/a
198.216	0.135	396432	keystroke_b	b	n/a
198.336	0.135	396672	keystroke_r	r	n/a
198.487	0.119	396974	keystroke_a	a	n/a
198.636	0.09	397272	keystroke_d	d	n/a
198.696	0.105	397392	keystroke_l	l	n/a
198.906	0.03	397812	keystroke_e	e	n/a
199.206	0.135	398412	keystroke_y	y	n/a
199.296	0.105	398592	keystroke_Key.space	Key.space	n/a
199.506	0.06	399012	keystroke_h	h	n/a
199.581	0.075	399162	keystroke_e	e	n/a
200.196	0.06	400392	keystroke_'	'	n/a
200.241	0.06	400482	keystroke_s	s	n/a
200.481	0.045	400962	keystroke_Key.enter	Key.enter	n/a
200.5335	4.6	401067	prompt	n/a	his census polish well\n
201.217	0.12	402434	keystroke_h	h	n/a
201.411	0.135	402822	keystroke_i	i	n/a
201.531	0.135	403062	keystroke_s	s	n/a
201.651	0.105	403302	keystroke_Key.space	Key.space	n/a
201.801	0.105	403602	keystroke_c	c	n/a
201.891	0.105	403782	keystroke_e	e	n/a
201.997	0.09	403994	keystroke_n	n	n/a
202.117	0.119	404234	keystroke_s	s	n/a
202.176	0.12	404352	keystroke_u	u	n/a
202.791	0.075	405582	keystroke_s	s	n/a
202.881	0.12	405762	keystroke_Key.space	Key.space	n/a
202.986	0.09	405972	keystroke_p	p	n/a
203.211	0.075	406422	keystroke_o	o	n/a
203.436	0.106	406872	keystroke_l	l	n/a
203.511	0.135	407022	keystroke_i	i	n/a
203.661	0.105	407322	keystroke_s	s	n/a
203.781	0.105	407562	keystroke_h	h	n/a
203.856	0.105	407712	keystroke_Key.space	Key.space	n/a
204.081	0.12	408162	keystroke_w	w	n/a
204.306	0.09	408612	keystroke_e	e	n/a
204.412	0.029	408824	keystroke_l	l	n/a
204.531	0.06	409062	keystroke_l	l	n/a
205.026	0.105	410052	keystroke_Key.enter	Key.enter	n/a
205.139	4.3745	410278	prompt	n/a	temple dryer ignored mechanical\n
205.836	0.135	411672	keystroke_t	t	n/a
206.046	0.135	412092	keystroke_e	e	n/a
206.136	0.105	412272	keystroke_m	m	n/a
206.226	0.18	412452	keystroke_p	p	n/a
206.316	0.12	412632	keystroke_l	l	n/a
206.437	0.15	412874	keystroke_e	e	n/a
206.601	0.12	413202	keystroke_Key.space	Key.space	n/a
206.856	0.106	413712	keystroke_d	d	n/a
207.051	0.12	414102	keystroke_r	r	n/a
207.142	0.089	414284	keystroke_y	y	n/a
207.246	0.105	414492	keystroke_e	e	n/a
207.306	0.106	414612	keystroke_r	r	n/a
207.381	0.12	414762	keystroke_Key.space	Key.space	n/a
207.531	0.136	415062	keystroke_i	i	n/a
207.651	0.105	415302	keystroke_g	g	n/a
207.711	0.135	415422	keystroke_n	n	n/a
207.786	0.165	415572	keystroke_o	o	n/a
207.876	0.12	415752	keystroke_r	r	n/a
207.981	0.12	415962	keystroke_e	e	n/a
208.087	0.104	416174	keystroke_d	d	n/a
208.161	0.09	416322	keystroke_Key.space	Key.space	n/a
208.371	0.091	416742	keystroke_m	m	n/a
208.446	0.15	416892	keystroke_e	e	n/a
208.537	0.134	417074	keystroke_c	c	n/a
208.611	0.076	417222	keystroke_h	h	n/a
208.761	0.135	417522	keystroke_a	a	n/a
208.851	0.105	417702	keystroke_n	n	n/a
208.926	0.12	417852	keystroke_i	i	n/a
209.001	0.12	418002	keystroke_c	c	n/a
209.076	0.12	418152	keystroke_a	a	n/a
209.151	0.105	418302	keystroke_l	l	n/a
209.421	0.09	418842	keystroke_Key.enter	Key.enter	n/a
209.5185	5.1245	419037	prompt	n/a	owns basketball skirts rebate\n
210.096	0.12	420192	keystroke_o	o	n/a
210.231	0.105	420462	keystroke_w	w	n/a
210.321	0.075	420642	keystroke_n	n	n/a
210.441	0.09	420882	keystroke_s	s	n/a
210.532	0.134	421064	keystroke_Key.space	Key.space	n/a
210.651	0.09	421302	keystroke_b	b	n/a
210.742	0.134	421484	keystroke_a	a	n/a
210.816	0.105	421632	keystroke_s	s	n/a
210.907	0.12	421814	keystroke_k	k	n/a
211.042	0.104	422084	keystroke_e	e	n/a
211.161	0.091	422322	keystroke_t	t	n/a
211.296	0.075	422592	keystroke_b	b	n/a
211.446	0.105	422892	keystroke_a	a	n/a
211.506	0.09	423012	keystroke_l	l	n/a
211.657	0.135	423314	keystroke_l	l	n/a
211.731	0.105	423462	keystroke_Key.space	Key.space	n/a
211.821	0.105	423642	keystroke_s	s	n/a
211.866	0.09	423732	keystroke_k	k	n/a
212.046	0.105	424092	keystroke_i	i	n/a
212.166	0.12	424332	keystroke_r	r	n/a
212.361	0.09	424722	keystroke_t	t	n/a
212.526	0.121	425052	keystroke_s	s	n/a
212.616	0.105	425232	keystroke_Key.space	Key.space	n/a
212.781	0.09	425562	keystroke_r	r	n/a
212.826	0.135	425652	keystroke_e	e	n/a
212.946	0.09	425892	keystroke_b	b	n/a
213.187	0.119	426374	keystroke_a	a	n/a
213.291	0.106	426582	keystroke_t	t	n/a
213.367	0.104	426734	keystroke_e	e	n/a
214.491	0.15	428982	keystroke_Key.enter	Key.enter	n/a
214.647	3.7755	429294	prompt	n/a	justify compete are limited\n
215.3315	0.12	430663	keystroke_j	j	n/a
215.5415	0.105	431083	keystroke_u	u	n/a
215.6315	0.15	431263	keystroke_s	s	n/a
215.7665	0.12	431533	keystroke_t	t	n/a
215.9465	0.12	431893	keystroke_i	i	n/a
216.1415	0.105	432283	keystroke_f	f	n/a
216.2015	0.12	432403	keystroke_y	y	n/a
216.2915	0.12	432583	keystroke_Key.space	Key.space	n/a
216.4715	0.12	432943	keystroke_c	c	n/a
216.6065	0.105	433213	keystroke_o	o	n/a
216.6965	0.105	433393	keystroke_m	m	n/a
216.8315	0.12	433663	keystroke_p	p	n/a
216.8915	0.12	433783	keystroke_e	e	n/a
216.9815	0.135	433963	keystroke_t	t	n/a
217.0865	0.12	434173	keystroke_e	e	n/a
217.1915	0.12	434383	keystroke_Key.space	Key.space	n/a
217.2815	0.15	434563	keystroke_a	a	n/a
217.3565	0.105	434713	keystroke_r	r	n/a
217.4165	0.105	434833	keystroke_e	e	n/a
217.4765	0.135	434953	keystroke_Key.space	Key.space	n/a
217.5965	0.18	435193	keystroke_l	l	n/a
217.7015	0.12	435403	keystroke_i	i	n/a
217.8065	0.12	435613	keystroke_m	m	n/a
217.9115	0.135	435823	keystroke_i	i	n/a
217.9715	0.105	435943	keystroke_t	t	n/a
218.0615	0.105	436123	keystroke_e	e	n/a
218.1815	0.105	436363	keystroke_d	d	n/a
218.3465	0.075	436693	keystroke_Key.enter	Key.enter	n/a
218.427	4.5265	436854	prompt	n/a	saturn enhancing lightweight knew\n
219.0515	0.12	438103	keystroke_s	s	n/a
219.2315	0.105	438463	keystroke_a	a	n/a
219.3965	0.12	438793	keystroke_t	t	n/a
219.5315	0.105	439063	keystroke_u	u	n/a
219.6375	0.119	439275	keystroke_r	r	n/a
219.7115	0.09	439423	keystroke_n	n	n/a
219.8915	0.09	439783	keystroke_Key.space	Key.space	n/a
220.0265	0.105	440053	keystroke_e	e	n/a
220.1015	0.09	440203	keystroke_n	n	n/a
220.2665	0.09	440533	keystroke_h	h	n/a
220.3575	0.104	440715	keystroke_a	a	n/a
220.4615	0.105	440923	keystroke_n	n	n/a
220.5815	0.09	441163	keystroke_c	c	n/a
220.6415	0.105	441283	keystroke_i	i	n/a
220.7015	0.09	441403	keystroke_n	n	n/a
220.7925	0.059	441585	keystroke_g	g	n/a
220.8665	0.12	441733	keystroke_Key.space	Key.space	n/a
220.9415	0.135	441883	keystroke_l	l	n/a
221.0015	0.105	442003	keystroke_i	i	n/a
221.1965	0.165	442393	keystroke_g	g	n/a
221.2565	0.135	442513	keystroke_h	h	n/a
221.3615	0.015	442723	keystroke_t	t	n/a
221.4815	0.09	442963	keystroke_w	w	n/a
221.6765	0.105	443353	keystroke_e	e	n/a
221.8415	0.105	443683	keystroke_i	i	n/a
222.0665	0.075	444133	keystroke_g	g	n/a
222.1115	0.09	444223	keystroke_h	h	n/a
222.1565	0.12	444313	keystroke_t	t	n/a
222.2615	0.12	444523	keystroke_Key.space	Key.space	n/a
222.4265	0.12	444853	keystroke_k	k	n/a
222.5015	0.105	445003	keystroke_n	n	n/a
222.5915	0.105	445183	keystroke_e	e	n/a
222.6515	0.1045	445303	keystroke_w	w	n/a
222.831	0.12	445662	keystroke_Key.enter	Key.enter	n/a
222.963	3.485	445926	prompt	n/a	shirts relay html marilyn\n
223.462	0.12	446924	keystroke_s	s	n/a
223.551	0.12	447102	keystroke_h	h	n/a
223.626	0.135	447252	keystroke_i	i	n/a
223.686	0.09	447372	keystroke_r	r	n/a
223.866	0.075	447732	keystroke_t	t	n/a
224.032	0.089	448064	keystroke_s	s	n/a
224.106	0.12	448212	keystroke_Key.space	Key.space	n/a
224.241	0.09	448482	keystroke_r	r	n/a
224.286	0.121	448572	keystroke_e	e	n/a
224.376	0.106	448752	keystroke_l	l	n/a
224.497	0.135	448994	keystroke_a	a	n/a
224.586	0.09	449172	keystroke_y	y	n/a
224.646	0.09	449292	keystroke_Key.space	Key.space	n/a
224.781	0.076	449562	keystroke_h	h	n/a
224.871	0.09	449742	keystroke_t	t	n/a
224.991	0.12	449982	keystroke_m	m	n/a
225.066	0.12	450132	keystroke_l	l	n/a
225.246	0.09	450492	keystroke_Key.space	Key.space	n/a
225.471	0.061	450942	keystroke_m	m	n/a
225.487	0.135	450974	keystroke_a	a	n/a
225.591	0.121	451182	keystroke_r	r	n/a
225.682	0.149	451364	keystroke_i	i	n/a
225.801	0.105	451602	keystroke_l	l	n/a
225.921	0.121	451842	keystroke_y	y	n/a
226.012	0.134	452024	keystroke_n	n	n/a
226.356	0.09	452712	keystroke_Key.enter	Key.enter	n/a
226.453	5.62	452906	prompt	n/a	steering productivity subscriber showtimes\n
227.136	0.135	454272	keystroke_s	s	n/a
227.287	0.134	454574	keystroke_t	t	n/a
227.406	0.045	454812	keystroke_e	e	n/a
227.526	0.12	455052	keystroke_e	e	n/a
227.647	0.134	455294	keystroke_r	r	n/a
227.811	0.105	455622	keystroke_i	i	n/a
227.841	0.135	455682	keystroke_n	n	n/a
227.946	0.106	455892	keystroke_g	g	n/a
228.037	0.104	456074	keystroke_Key.space	Key.space	n/a
228.126	0.136	456252	keystroke_p	p	n/a
228.216	0.105	456432	keystroke_r	r	n/a
228.337	0.09	456674	keystroke_o	o	n/a
228.442	0.09	456884	keystroke_d	d	n/a
228.533	0.104	457066	keystroke_u	u	n/a
228.637	0.09	457274	keystroke_c	c	n/a
228.846	0.075	457692	keystroke_t	t	n/a
228.952	0.12	457904	keystroke_i	i	n/a
229.087	0.105	458174	keystroke_v	v	n/a
229.192	0.074	458384	keystroke_i	i	n/a
229.297	0.089	458594	keystroke_t	t	n/a
229.371	0.106	458742	keystroke_y	y	n/a
229.461	0.105	458922	keystroke_Key.space	Key.space	n/a
229.612	0.134	459224	keystroke_s	s	n/a
229.717	0.15	459434	keystroke_u	u	n/a
229.807	0.12	459614	keystroke_b	b	n/a
229.912	0.12	459824	keystroke_s	s	n/a
230.016	0.105	460032	keystroke_c	c	n/a
230.226	0.106	460452	keystroke_r	r	n/a
230.271	0.106	460542	keystroke_i	i	n/a
230.316	0.106	460632	keystroke_b	b	n/a
230.407	0.12	460814	keystroke_e	e	n/a
230.467	0.119	460934	keystroke_r	r	n/a
230.511	0.105	461022	keystroke_Key.space	Key.space	n/a
230.6915	0.12	461383	keystroke_s	s	n/a
230.7815	0.12	461563	keystroke_h	h	n/a
230.8565	0.15	461713	keystroke_o	o	n/a
230.9165	0.09	461833	keystroke_w	w	n/a
231.082	0.119	462164	keystroke_t	t	n/a
231.141	0.106	462282	keystroke_i	i	n/a
231.187	0.12	462374	keystroke_m	m	n/a
231.292	0.09	462584	keystroke_e	e	n/a
231.472	0.1045	462944	keystroke_s	s	n/a
231.9205	0.15	463841	keystroke_Key.enter	Key.enter	n/a
232.0785	5.155	464157	prompt	n/a	interpretation label indeed donated\n
232.7315	0.105	465463	keystroke_i	i	n/a
232.792	0.1345	465584	keystroke_n	n	n/a
233.0615	0.089	466123	keystroke_t	t	n/a
233.1655	0.18	466331	keystroke_e	e	n/a
233.272	0.1195	466544	keystroke_r	r	n/a
233.4355	0.121	466871	keystroke_p	p	n/a
233.5255	0.1065	467051	keystroke_r	r	n/a
233.587	0.1345	467174	keystroke_e	e	n/a
233.8565	0.104	467713	keystroke_t	t	n/a
234.0205	0.1215	468041	keystroke_a	a	n/a
234.096	0.105	468192	keystroke_t	t	n/a
234.217	0.194	468434	keystroke_i	i	n/a
234.307	0.134	468614	keystroke_o	o	n/a
234.382	0.119	468764	keystroke_n	n	n/a
234.771	0.135	469542	keystroke_Key.space	Key.space	n/a
235.086	0.136	470172	keystroke_l	l	n/a
235.207	0.134	470414	keystroke_a	a	n/a
235.326	0.09	470652	keystroke_b	b	n/a
235.446	0.091	470892	keystroke_e	e	n/a
235.521	0.12	471042	keystroke_l	l	n/a
235.596	0.105	471192	keystroke_Key.space	Key.space	n/a
235.716	0.12	471432	keystroke_i	i	n/a
235.806	0.09	471612	keystroke_n	n	n/a
235.897	0.06	471794	keystroke_d	d	n/a
235.941	0.075	471882	keystroke_e	e	n/a
236.137	0.09	472274	keystroke_e	e	n/a
236.256	0.12	472512	keystroke_d	d	n/a
236.406	0.075	472812	keystroke_Key.space	Key.space	n/a
236.557	0.089	473114	keystroke_d	d	n/a
236.601	0.091	473202	keystroke_o	o	n/a
236.662	0.104	473324	keystroke_n	n	n/a
236.751	0.09	473502	keystroke_a	a	n/a
236.811	0.105	473622	keystroke_t	t	n/a
236.902	0.135	473804	keystroke_e	e	n/a
237.021	0.105	474042	keystroke_d	d	n/a
237.141	0.09	474282	keystroke_Key.enter	Key.enter	n/a
237.2385	3.4595	474477	prompt	n/a	staying this constant office\n
237.771	0.105	475542	keystroke_s	s	n/a
237.922	0.12	475844	keystroke_t	t	n/a
238.011	0.15	476022	keystroke_a	a	n/a
238.072	0.165	476144	keystroke_y	y	n/a
238.146	0.15	476292	keystroke_i	i	n/a
238.237	0.089	476474	keystroke_n	n	n/a
238.357	0.089	476714	keystroke_g	g	n/a
238.462	0.089	476924	keystroke_Key.space	Key.space	n/a
238.582	0.089	477164	keystroke_t	t	n/a
238.657	0.15	477314	keystroke_h	h	n/a
238.716	0.135	477432	keystroke_i	i	n/a
238.792	0.105	477584	keystroke_s	s	n/a
238.881	0.105	477762	keystroke_Key.space	Key.space	n/a
239.076	0.106	478152	keystroke_c	c	n/a
239.136	0.105	478272	keystroke_o	o	n/a
239.196	0.106	478392	keystroke_n	n	n/a
239.316	0.12	478632	keystroke_s	s	n/a
239.451	0.106	478902	keystroke_t	t	n/a
239.572	0.104	479144	keystroke_a	a	n/a
239.616	0.105	479232	keystroke_n	n	n/a
239.737	0.12	479474	keystroke_t	t	n/a
239.826	0.105	479652	keystroke_Key.space	Key.space	n/a
239.902	0.134	479804	keystroke_o	o	n/a
240.021	0.045	480042	keystroke_f	f	n/a
240.157	0.075	480314	keystroke_f	f	n/a
240.247	0.104	480494	keystroke_i	i	n/a
240.352	0.119	480704	keystroke_c	c	n/a
240.442	0.104	480884	keystroke_e	e	n/a
240.576	0.12	481152	keystroke_Key.enter	Key.enter	n/a
240.702	4.3165	481404	prompt	n/a	trademark lung verify scoring\n
241.372	0.09	482744	keystroke_t	t	n/a
241.566	0.121	483132	keystroke_r	r	n/a
241.716	0.15	483432	keystroke_a	a	n/a
241.882	0.119	483764	keystroke_d	d	n/a
241.957	0.15	483914	keystroke_e	e	n/a
242.136	0.106	484272	keystroke_m	m	n/a
242.271	0.121	484542	keystroke_a	a	n/a
242.332	0.134	484664	keystroke_r	r	n/a
242.376	0.151	484752	keystroke_k	k	n/a
242.511	0.135	485022	keystroke_Key.space	Key.space	n/a
242.616	0.166	485232	keystroke_l	l	n/a
242.736	0.151	485472	keystroke_u	u	n/a
242.796	0.105	485592	keystroke_n	n	n/a
242.871	0.105	485742	keystroke_g	g	n/a
243.007	0.104	486014	keystroke_Key.space	Key.space	n/a
243.096	0.106	486192	keystroke_v	v	n/a
243.262	0.12	486524	keystroke_e	e	n/a
243.337	0.12	486674	keystroke_r	r	n/a
243.441	0.121	486882	keystroke_i	i	n/a
243.576	0.121	487152	keystroke_f	f	n/a
243.652	0.105	487304	keystroke_y	y	n/a
243.712	0.134	487424	keystroke_Key.space	Key.space	n/a
243.892	0.119	487784	keystroke_s	s	n/a
243.997	0.105	487994	keystroke_c	c	n/a
244.341	0.106	488682	keystroke_o	o	n/a
244.461	0.121	488922	keystroke_r	r	n/a
244.552	0.105	489104	keystroke_i	i	n/a
244.596	0.121	489192	keystroke_n	n	n/a
244.702	0.074	489404	keystroke_g	g	n/a
244.896	0.12	489792	keystroke_Key.enter	Key.enter	n/a
245.025	4.148	490050	prompt	n/a	talented approx types shakira\n
245.632	0.15	491264	keystroke_t	t	n/a
245.767	0.105	491534	keystroke_a	a	n/a
245.872	0.09	491744	keystroke_l	l	n/a
245.977	0.119	491954	keystroke_e	e	n/a
246.0655	0.1065	492131	keystroke_n	n	n/a
246.157	0.105	492314	keystroke_t	t	n/a
246.246	0.15	492492	keystroke_e	e	n/a
246.366	0.121	492732	keystroke_d	d	n/a
246.471	0.09	492942	keystroke_Key.space	Key.space	n/a
246.576	0.135	493152	keystroke_a	a	n/a
246.666	0.06	493332	keystroke_p	p	n/a
246.817	0.104	493634	keystroke_p	p	n/a
246.891	0.075	493782	keystroke_r	r	n/a
246.997	0.105	493994	keystroke_o	o	n/a
247.132	0.105	494264	keystroke_x	x	n/a
247.237	0.104	494474	keystroke_Key.space	Key.space	n/a
247.402	0.074	494804	keystroke_t	t	n/a
247.446	0.091	494892	keystroke_y	y	n/a
247.521	0.165	495042	keystroke_p	p	n/a
247.642	0.104	495284	keystroke_e	e	n/a
247.866	0.1205	495732	keystroke_s	s	n/a
248.152	0.105	496304	keystroke_Key.space	Key.space	n/a
248.317	0.134	496634	keystroke_s	s	n/a
248.437	0.075	496874	keystroke_h	h	n/a
248.542	0.105	497084	keystroke_a	a	n/a
248.617	0.075	497234	keystroke_k	k	n/a
248.782	0.105	497564	keystroke_i	i	n/a
248.8405	0.105	497681	keystroke_r	r	n/a
248.932	0.104	497864	keystroke_a	a	n/a
249.066	0.105	498132	keystroke_Key.enter	Key.enter	n/a
249.1765	7.902	498353	prompt	n/a	players objective fighters single\n
249.7415	0.0745	499483	keystroke_p	p	n/a
249.967	0.1045	499934	keystroke_l	l	n/a
250.027	0.1185	500054	keystroke_a	a	n/a
250.116	0.1055	500232	keystroke_y	y	n/a
250.2065	0.135	500413	keystroke_e	e	n/a
250.2965	0.12	500593	keystroke_r	r	n/a
250.4315	0.1355	500863	keystroke_s	s	n/a
250.5505	0.165	501101	keystroke_Key.space	Key.space	n/a
250.6405	0.166	501281	keystroke_o	o	n/a
250.8365	0.165	501673	keystroke_b	b	n/a
250.9565	0.18	501913	keystroke_j	j	n/a
251.1065	0.135	502213	keystroke_e	e	n/a
251.1965	0.09	502393	keystroke_c	c	n/a
251.3765	0.089	502753	keystroke_t	t	n/a
251.4665	0.12	502933	keystroke_i	i	n/a
251.6315	0.135	503263	keystroke_v	v	n/a
251.7065	0.12	503413	keystroke_e	e	n/a
251.751	0.1195	503502	keystroke_Key.space	Key.space	n/a
251.8865	0.09	503773	keystroke_f	f	n/a
251.9615	0.075	503923	keystroke_i	i	n/a
252.1415	0.15	504283	keystroke_g	g	n/a
252.2315	0.134	504463	keystroke_h	h	n/a
252.3365	0.1355	504673	keystroke_e	e	n/a
252.3965	0.135	504793	keystroke_r	r	n/a
252.6215	0.09	505243	keystroke_s	s	n/a
252.726	0.1045	505452	keystroke_Key.space	Key.space	n/a
253.0865	0.09	506173	keystroke_Key.backspace	Key.backspace	n/a
253.282	0.1045	506564	keystroke_Key.backspace	Key.backspace	n/a
253.4615	0.0895	506923	keystroke_Key.backspace	Key.backspace	n/a
253.6715	0.06	507343	keystroke_Key.backspace	Key.backspace	n/a
253.971	0.0755	507942	keystroke_Key.backspace	Key.backspace	n/a
255.2015	0.15	510403	keystroke_h	h	n/a
255.3365	0.075	510673	keystroke_t	t	n/a
255.6815	0.15	511363	keystroke_e	e	n/a
255.8015	0.06	511603	keystroke_r	r	n/a
255.9665	0.105	511933	keystroke_s	s	n/a
256.0565	0.149	512113	keystroke_Key.space	Key.space	n/a
256.2665	0.105	512533	keystroke_s	s	n/a
256.3115	0.15	512623	keystroke_i	i	n/a
256.4015	0.105	512803	keystroke_n	n	n/a
256.4915	0.075	512983	keystroke_g	g	n/a
256.5815	0.135	513163	keystroke_l	l	n/a
256.7005	0.091	513401	keystroke_e	e	n/a
256.9415	0.134	513883	keystroke_Key.enter	Key.enter	n/a
257.084	4.734	514168	prompt	n/a	approach checks compensation lives\n
257.6615	0.075	515323	keystroke_a	a	n/a
257.7665	0.06	515533	keystroke_p	p	n/a
257.9015	0.089	515803	keystroke_p	p	n/a
258.0065	0.135	516013	keystroke_r	r	n/a
258.1115	0.105	516223	keystroke_o	o	n/a
258.2315	0.12	516463	keystroke_a	a	n/a
258.3365	0.105	516673	keystroke_c	c	n/a
258.4115	0.12	516823	keystroke_h	h	n/a
258.4865	0.12	516973	keystroke_Key.space	Key.space	n/a
258.5915	0.121	517183	keystroke_c	c	n/a
258.6965	0.09	517393	keystroke_h	h	n/a
258.9065	0.165	517813	keystroke_e	e	n/a
259.1015	0.135	518203	keystroke_c	c	n/a
259.2215	0.105	518443	keystroke_k	k	n/a
259.3565	0.105	518713	keystroke_s	s	n/a
259.4765	0.105	518953	keystroke_Key.space	Key.space	n/a
259.7165	0.12	519433	keystroke_c	c	n/a
259.8215	0.12	519643	keystroke_o	o	n/a
259.9265	0.135	519853	keystroke_m	m	n/a
260.1065	0.09	520213	keystroke_p	p	n/a
260.2115	0.12	520423	keystroke_e	e	n/a
260.3165	0.09	520633	keystroke_n	n	n/a
260.4365	0.105	520873	keystroke_s	s	n/a
260.6015	0.135	521203	keystroke_a	a	n/a
260.7215	0.12	521443	keystroke_t	t	n/a
260.7665	0.165	521533	keystroke_i	i	n/a
260.8265	0.12	521653	keystroke_o	o	n/a
260.8865	0.105	521773	keystroke_n	n	n/a
261.0665	0.135	522133	keystroke_Key.space	Key.space	n/a
261.1415	0.165	522283	keystroke_l	l	n/a
261.2165	0.135	522433	keystroke_i	i	n/a
261.3075	0.074	522615	keystroke_v	v	n/a
261.3665	0.075	522733	keystroke_e	e	n/a
261.5615	0.09	523123	keystroke_s	s	n/a
261.7265	0.09	523453	keystroke_Key.enter	Key.enter	n/a
261.8235	5.244	523647	prompt	n/a	testing foul environment processing\n
262.4315	0.135	524863	keystroke_t	t	n/a
262.5515	0.135	525103	keystroke_e	e	n/a
262.7915	0.12	525583	keystroke_s	s	n/a
262.8965	0.12	525793	keystroke_t	t	n/a
262.9865	0.12	525973	keystroke_i	i	n/a
263.0465	0.12	526093	keystroke_n	n	n/a
263.1965	0.12	526393	keystroke_g	g	n/a
263.3615	0.105	526723	keystroke_Key.space	Key.space	n/a
263.5265	0.1045	527053	keystroke_f	f	n/a
263.601	0.105	527202	keystroke_o	o	n/a
263.691	0.15	527382	keystroke_u	u	n/a
263.796	0.165	527592	keystroke_l	l	n/a
263.931	0.12	527862	keystroke_Key.space	Key.space	n/a
264.141	0.105	528282	keystroke_e	e	n/a
264.261	0.135	528522	keystroke_n	n	n/a
264.366	0.09	528732	keystroke_v	v	n/a
264.741	0.12	529482	keystroke_i	i	n/a
264.876	0.105	529752	keystroke_r	r	n/a
264.951	0.075	529902	keystroke_o	o	n/a
264.996	0.105	529992	keystroke_n	n	n/a
265.236	0.09	530472	keystroke_m	m	n/a
265.326	0.105	530652	keystroke_e	e	n/a
265.416	0.09	530832	keystroke_n	n	n/a
265.491	0.105	530982	keystroke_t	t	n/a
265.581	0.105	531162	keystroke_Key.space	Key.space	n/a
265.701	0.12	531402	keystroke_p	p	n/a
265.776	0.105	531552	keystroke_r	r	n/a
265.866	0.135	531732	keystroke_o	o	n/a
266.031	0.1205	532062	keystroke_c	c	n/a
266.121	0.1055	532242	keystroke_e	e	n/a
266.3315	0.06	532663	keystroke_s	s	n/a
266.4815	0.12	532963	keystroke_s	s	n/a
266.5415	0.1495	533083	keystroke_i	i	n/a
266.616	0.09	533232	keystroke_n	n	n/a
266.721	0.075	533442	keystroke_g	g	n/a
266.931	0.135	533862	keystroke_Key.enter	Key.enter	n/a
267.072	5.5765	534144	prompt	n/a	continent believed myanmar nature\n
267.8315	0.12	535663	keystroke_c	c	n/a
267.8615	0.15	535723	keystroke_o	o	n/a
267.9815	0.135	535963	keystroke_n	n	n/a
268.1015	0.12	536203	keystroke_t	t	n/a
268.6265	0.135	537253	keystroke_i	i	n/a
268.7165	0.12	537433	keystroke_n	n	n/a
268.8215	0.12	537643	keystroke_e	e	n/a
268.9565	0.09	537913	keystroke_n	n	n/a
269.0765	0.105	538153	keystroke_t	t	n/a
269.1665	0.105	538333	keystroke_Key.space	Key.space	n/a
269.2415	0.135	538483	keystroke_b	b	n/a
269.4215	0.12	538843	keystroke_e	e	n/a
269.4815	0.135	538963	keystroke_l	l	n/a
269.5415	0.135	539083	keystroke_i	i	n/a
269.6165	0.135	539233	keystroke_e	e	n/a
269.7365	0.165	539473	keystroke_v	v	n/a
269.8865	0.15	539773	keystroke_e	e	n/a
270.0065	0.12	540013	keystroke_d	d	n/a
270.0965	0.105	540193	keystroke_Key.space	Key.space	n/a
270.4415	0.09	540883	keystroke_m	m	n/a
270.6665	0.105	541333	keystroke_y	y	n/a
270.8015	0.105	541603	keystroke_a	a	n/a
270.8915	0.09	541783	keystroke_n	n	n/a
271.1165	0.075	542233	keystroke_m	m	n/a
271.1615	0.135	542323	keystroke_a	a	n/a
271.2515	0.12	542503	keystroke_r	r	n/a
271.3265	0.09	542653	keystroke_Key.space	Key.space	n/a
271.5215	0.105	543043	keystroke_n	n	n/a
271.5815	0.135	543163	keystroke_a	a	n/a
271.6865	0.105	543373	keystroke_t	t	n/a
271.7615	0.09	543523	keystroke_u	u	n/a
271.8815	0.105	543763	keystroke_r	r	n/a
271.9415	0.12	543883	keystroke_e	e	n/a
272.4965	0.15	544993	keystroke_Key.enter	Key.enter	n/a
272.653	4.4805	545306	prompt	n/a	situation criterion comes so\n
273.6065	0.15	547213	keystroke_s	s	n/a
273.7265	0.105	547453	keystroke_i	i	n/a
273.8615	0.12	547723	keystroke_t	t	n/a
273.9515	0.105	547903	keystroke_u	u	n/a
274.0715	0.12	548143	keystroke_a	a	n/a
274.1465	0.12	548293	keystroke_t	t	n/a
274.1915	0.105	548383	keystroke_i	i	n/a
274.2065	0.12	548413	keystroke_o	o	n/a
274.2815	0.09	548563	keystroke_n	n	n/a
274.4615	0.12	548923	keystroke_Key.space	Key.space	n/a
274.5365	0.105	549073	keystroke_c	c	n/a
274.7615	0.09	549523	keystroke_r	r	n/a
274.9715	0.105	549943	keystroke_i	i	n/a
275.1065	0.105	550213	keystroke_t	t	n/a
275.2265	0.195	550453	keystroke_e	e	n/a
275.3315	0.12	550663	keystroke_r	r	n/a
275.4365	0.18	550873	keystroke_i	i	n/a
275.5115	0.135	551023	keystroke_o	o	n/a
275.5865	0.09	551173	keystroke_n	n	n/a
275.7665	0.075	551533	keystroke_Key.space	Key.space	n/a
275.9165	0.15	551833	keystroke_c	c	n/a
276.0965	0.15	552193	keystroke_o	o	n/a
276.1715	0.135	552343	keystroke_m	m	n/a
276.2615	0.09	552523	keystroke_e	e	n/a
276.4565	0.105	552913	keystroke_s	s	n/a
276.5615	0.135	553123	keystroke_Key.space	Key.space	n/a
276.6815	0.105	553363	keystroke_s	s	n/a
276.7715	0.105	553543	keystroke_o	o	n/a
277.0115	0.12	554023	keystroke_Key.enter	Key.enter	n/a
277.1375	7.915	554275	prompt	n/a	florists chuck katie amanda\n
277.9115	0.12	555823	keystroke_f	f	n/a
278.1515	0.075	556303	keystroke_l	l	n/a
278.3315	0.105	556663	keystroke_o	o	n/a
278.3915	0.075	556783	keystroke_r	r	n/a
278.6615	0.12	557323	keystroke_i	i	n/a
278.7965	0.075	557593	keystroke_s	s	n/a
279.2015	0.09	558403	keystroke_t	t	n/a
279.3815	0.12	558763	keystroke_s	s	n/a
279.5015	0.12	559003	keystroke_Key.space	Key.space	n/a
279.6515	0.12	559303	keystroke_c	c	n/a
279.7565	0.165	559513	keystroke_h	h	n/a
279.8165	0.15	559633	keystroke_u	u	n/a
280.5665	0.105	561133	keystroke_c	c	n/a
280.6415	0.12	561283	keystroke_k	k	n/a
280.8665	0.12	561733	keystroke_Key.space	Key.space	n/a
280.9715	0.12	561943	keystroke_k	k	n/a
281.0765	0.135	562153	keystroke_a	a	n/a
281.1965	0.09	562393	keystroke_t	t	n/a
281.2415	0.135	562483	keystroke_i	i	n/a
281.3315	0.135	562663	keystroke_e	e	n/a
281.4515	0.09	562903	keystroke_Key.space	Key.space	n/a
281.5865	0.09	563173	keystroke_a	a	n/a
281.6615	0.09	563323	keystroke_m	m	n/a
281.7815	0.12	563563	keystroke_a	a	n/a
282.0215	0.105	564043	keystroke_n	n	n/a
282.4715	0.09	564943	keystroke_Key.backspace	Key.backspace	n/a
282.6665	0.06	565333	keystroke_Key.backspace	Key.backspace	n/a
282.8465	0.06	565693	keystroke_Key.backspace	Key.backspace	n/a
283.0265	0.06	566053	keystroke_Key.backspace	Key.backspace	n/a
283.1915	0.075	566383	keystroke_Key.backspace	Key.backspace	n/a
283.3715	0.06	566743	keystroke_Key.backspace	Key.backspace	n/a
283.7465	0.03	567493	keystroke_Key.backspace	Key.backspace	n/a
284.0315	0.12	568063	keystroke_i	i	n/a
284.1365	0.135	568273	keystroke_e	e	n/a
284.2565	0.105	568513	keystroke_Key.space	Key.space	n/a
284.4215	0.105	568843	keystroke_a	a	n/a
284.4965	0.09	568993	keystroke_m	m	n/a
284.6015	0.1045	569203	keystroke_a	a	n/a
284.676	0.09	569352	keystroke_n	n	n/a
284.751	0.105	569502	keystroke_d	d	n/a
284.826	0.135	569652	keystroke_a	a	n/a
284.916	0.135	569832	keystroke_Key.enter	Key.enter	n/a
285.059	5.6335	570118	prompt	n/a	assault surgeons afternoon temporarily\n
285.906	0.21	571812	keystroke_a	a	n/a
286.026	0.105	572052	keystroke_s	s	n/a
286.206	0.15	572412	keystroke_s	s	n/a
286.311	0.135	572622	keystroke_a	a	n/a
286.401	0.15	572802	keystroke_u	u	n/a
286.476	0.105	572952	keystroke_l	l	n/a
286.552	0.104	573104	keystroke_t	t	n/a
286.731	0.135	573462	keystroke_Key.space	Key.space	n/a
286.881	0.12	573762	keystroke_s	s	n/a
287.016	0.12	574032	keystroke_u	u	n/a
287.121	0.105	574242	keystroke_r	r	n/a
287.346	0.135	574692	keystroke_g	g	n/a
287.421	0.12	574842	keystroke_e	e	n/a
287.451	0.135	574902	keystroke_o	o	n/a
287.526	0.12	575052	keystroke_n	n	n/a
287.661	0.105	575322	keystroke_s	s	n/a
287.751	0.135	575502	keystroke_Key.space	Key.space	n/a
287.871	0.105	575742	keystroke_a	a	n/a
288.216	0.075	576432	keystroke_f	f	n/a
288.411	0.105	576822	keystroke_t	t	n/a
288.531	0.135	577062	keystroke_e	e	n/a
288.621	0.105	577242	keystroke_r	r	n/a
288.681	0.09	577362	keystroke_n	n	n/a
288.741	0.075	577482	keystroke_o	o	n/a
288.891	0.09	577782	keystroke_o	o	n/a
288.921	0.105	577842	keystroke_n	n	n/a
289.101	0.105	578202	keystroke_Key.space	Key.space	n/a
289.251	0.105	578502	keystroke_t	t	n/a
289.416	0.12	578832	keystroke_e	e	n/a
289.521	0.105	579042	keystroke_m	m	n/a
289.596	0.15	579192	keystroke_p	p	n/a
289.701	0.12	579402	keystroke_o	o	n/a
289.776	0.075	579552	keystroke_r	r	n/a
289.881	0.12	579762	keystroke_a	a	n/a
289.941	0.105	579882	keystroke_r	r	n/a
290.031	0.135	580062	keystroke_i	i	n/a
290.091	0.15	580182	keystroke_l	l	n/a
290.226	0.06	580452	keystroke_y	y	n/a
290.556	0.135	581112	keystroke_Key.enter	Key.enter	n/a
290.6975	4.8855	581395	prompt	n/a	kinda picking positive pipes\n
291.276	0.09	582552	keystroke_k	k	n/a
291.501	0.105	583002	keystroke_i	i	n/a
291.561	0.105	583122	keystroke_n	n	n/a
291.651	0.09	583302	keystroke_d	d	n/a
291.711	0.12	583422	keystroke_a	a	n/a
291.861	0.135	583722	keystroke_Key.space	Key.space	n/a
292.026	0.18	584052	keystroke_p	p	n/a
292.146	0.09	584292	keystroke_i	i	n/a
292.281	0.12	584562	keystroke_c	c	n/a
292.416	0.105	584832	keystroke_k	k	n/a
292.611	0.12	585222	keystroke_i	i	n/a
292.686	0.09	585372	keystroke_n	n	n/a
292.747	0.089	585494	keystroke_g	g	n/a
292.866	0.105	585732	keystroke_Key.space	Key.space	n/a
292.956	0.15	585912	keystroke_p	p	n/a
293.046	0.15	586092	keystroke_o	o	n/a
293.181	0.09	586362	keystroke_s	s	n/a
293.286	0.09	586572	keystroke_i	i	n/a
293.391	0.09	586782	keystroke_t	t	n/a
293.481	0.12	586962	keystroke_i	i	n/a
293.631	0.12	587262	keystroke_v	v	n/a
293.721	0.12	587442	keystroke_e	e	n/a
293.796	0.105	587592	keystroke_Key.space	Key.space	n/a
293.976	0.135	587952	keystroke_p	p	n/a
294.081	0.15	588162	keystroke_i	i	n/a
294.216	0.105	588432	keystroke_p	p	n/a
294.291	0.105	588582	keystroke_e	e	n/a
294.501	0.045	589002	keystroke_w	w	n/a
295.176	0.105	590352	keystroke_Key.backspace	Key.backspace	n/a
295.326	0.105	590652	keystroke_s	s	n/a
295.476	0.105	590952	keystroke_Key.enter	Key.enter	n/a
295.587	7.0305	591174	prompt	n/a	productivity economic perhaps feedback\n
296.946	0.15	593892	keystroke_p	p	n/a
297.111	0.105	594222	keystroke_r	r	n/a
297.246	0.12	594492	keystroke_o	o	n/a
297.396	0.12	594792	keystroke_d	d	n/a
297.486	0.12	594972	keystroke_u	u	n/a
297.636	0.09	595272	keystroke_c	c	n/a
297.861	0.09	595722	keystroke_t	t	n/a
298.461	0.12	596922	keystroke_i	i	n/a
298.582	0.104	597164	keystroke_v	v	n/a
298.716	0.09	597432	keystroke_i	i	n/a
298.851	0.09	597702	keystroke_t	t	n/a
298.986	0.105	597972	keystroke_y	y	n/a
299.061	0.135	598122	keystroke_Key.space	Key.space	n/a
299.257	0.149	598514	keystroke_e	e	n/a
299.541	0.105	599082	keystroke_c	c	n/a
299.706	0.135	599412	keystroke_o	o	n/a
299.826	0.135	599652	keystroke_n	n	n/a
299.962	0.119	599924	keystroke_o	o	n/a
300.066	0.15	600132	keystroke_m	m	n/a
300.186	0.105	600372	keystroke_i	i	n/a
300.276	0.105	600552	keystroke_c	c	n/a
300.516	0.09	601032	keystroke_Key.space	Key.space	n/a
300.696	0.105	601392	keystroke_p	p	n/a
300.741	0.18	601482	keystroke_e	e	n/a
300.846	0.12	601692	keystroke_r	r	n/a
300.951	0.09	601902	keystroke_h	h	n/a
301.101	0.165	602202	keystroke_a	a	n/a
301.177	0.119	602354	keystroke_p	p	n/a
301.251	0.12	602502	keystroke_s	s	n/a
301.386	0.105	602772	keystroke_Key.space	Key.space	n/a
301.446	0.135	602892	keystroke_f	f	n/a
301.536	0.105	603072	keystroke_e	e	n/a
301.716	0.12	603432	keystroke_e	e	n/a
301.821	0.12	603642	keystroke_d	d	n/a
301.911	0.09	603822	keystroke_b	b	n/a
302.046	0.105	604092	keystroke_a	a	n/a
302.091	0.12	604182	keystroke_c	c	n/a
302.166	0.09	604332	keystroke_k	k	n/a
302.496	0.12	604992	keystroke_Key.enter	Key.enter	n/a
302.624	4.689	605248	prompt	n/a	onto bigger temporarily biblical\n
303.216	0.165	606432	keystroke_o	o	n/a
303.321	0.135	606642	keystroke_n	n	n/a
303.426	0.15	606852	keystroke_t	t	n/a
303.561	0.105	607122	keystroke_o	o	n/a
303.621	0.12	607242	keystroke_Key.space	Key.space	n/a
303.786	0.075	607572	keystroke_b	b	n/a
303.982	0.119	607964	keystroke_i	i	n/a
304.056	0.075	608112	keystroke_g	g	n/a
304.206	0.09	608412	keystroke_g	g	n/a
304.341	0.135	608682	keystroke_e	e	n/a
304.416	0.12	608832	keystroke_r	r	n/a
304.551	0.09	609102	keystroke_Key.space	Key.space	n/a
304.732	0.134	609464	keystroke_t	t	n/a
304.851	0.135	609702	keystroke_e	e	n/a
305.016	0.135	610032	keystroke_m	m	n/a
305.106	0.15	610212	keystroke_p	p	n/a
305.226	0.12	610452	keystroke_o	o	n/a
305.301	0.105	610602	keystroke_r	r	n/a
305.421	0.135	610842	keystroke_a	a	n/a
305.511	0.121	611022	keystroke_r	r	n/a
305.586	0.165	611172	keystroke_i	i	n/a
305.661	0.12	611322	keystroke_l	l	n/a
305.811	0.09	611622	keystroke_y	y	n/a
305.886	0.135	611772	keystroke_Key.space	Key.space	n/a
306.066	0.105	612132	keystroke_b	b	n/a
306.321	0.09	612642	keystroke_i	i	n/a
306.516	0.045	613032	keystroke_b	b	n/a
306.681	0.12	613362	keystroke_l	l	n/a
306.741	0.12	613482	keystroke_i	i	n/a
306.831	0.106	613662	keystroke_c	c	n/a
306.891	0.105	613782	keystroke_a	a	n/a
306.951	0.075	613902	keystroke_l	l	n/a
307.206	0.105	614412	keystroke_Key.enter	Key.enter	n/a
307.317	4.5115	614634	prompt	n/a	revenue carb personals accessed\n
307.941	0.105	615882	keystroke_r	r	n/a
308.061	0.15	616122	keystroke_e	e	n/a
308.241	0.18	616482	keystroke_v	v	n/a
308.331	0.135	616662	keystroke_e	e	n/a
308.481	0.105	616962	keystroke_n	n	n/a
308.526	0.12	617052	keystroke_u	u	n/a
308.677	0.119	617354	keystroke_e	e	n/a
308.826	0.12	617652	keystroke_Key.space	Key.space	n/a
308.961	0.075	617922	keystroke_c	c	n/a
309.066	0.15	618132	keystroke_a	a	n/a
309.186	0.105	618372	keystroke_r	r	n/a
309.261	0.09	618522	keystroke_b	b	n/a
309.321	0.135	618642	keystroke_Key.space	Key.space	n/a
309.486	0.12	618972	keystroke_p	p	n/a
309.561	0.135	619122	keystroke_e	e	n/a
309.651	0.075	619302	keystroke_r	r	n/a
309.876	0.12	619752	keystroke_s	s	n/a
309.966	0.075	619932	keystroke_o	o	n/a
310.011	0.12	620022	keystroke_n	n	n/a
310.116	0.105	620232	keystroke_a	a	n/a
310.191	0.12	620382	keystroke_l	l	n/a
310.296	0.09	620592	keystroke_s	s	n/a
310.401	0.09	620802	keystroke_Key.space	Key.space	n/a
310.446	0.12	620892	keystroke_a	a	n/a
310.551	0.075	621102	keystroke_c	c	n/a
310.686	0.121	621372	keystroke_c	c	n/a
310.821	0.09	621642	keystroke_e	e	n/a
311.031	0.075	622062	keystroke_s	s	n/a
311.166	0.105	622332	keystroke_s	s	n/a
311.376	0.075	622752	keystroke_e	e	n/a
311.391	0.12	622782	keystroke_d	d	n/a
311.721	0.105	623442	keystroke_Key.enter	Key.enter	n/a
311.835	5.4085	623670	prompt	n/a	funded stan anaheim organizations\n
313.027	0.089	626054	keystroke_f	f	n/a
313.266	0.12	626532	keystroke_u	u	n/a
313.311	0.12	626622	keystroke_n	n	n/a
313.416	0.135	626832	keystroke_d	d	n/a
313.566	0.15	627132	keystroke_e	e	n/a
313.626	0.151	627252	keystroke_d	d	n/a
313.791	0.09	627582	keystroke_Key.space	Key.space	n/a
313.926	0.195	627852	keystroke_s	s	n/a
314.106	0.12	628212	keystroke_t	t	n/a
314.196	0.135	628392	keystroke_a	a	n/a
314.301	0.09	628602	keystroke_n	n	n/a
314.526	0.06	629052	keystroke_Key.space	Key.space	n/a
314.706	0.105	629412	keystroke_a	a	n/a
314.841	0.045	629682	keystroke_n	n	n/a
314.901	0.12	629802	keystroke_a	a	n/a
315.081	0.105	630162	keystroke_h	h	n/a
315.246	0.09	630492	keystroke_e	e	n/a
315.306	0.121	630612	keystroke_i	i	n/a
315.381	0.12	630762	keystroke_m	m	n/a
315.576	0.12	631152	keystroke_Key.space	Key.space	n/a
315.666	0.135	631332	keystroke_o	o	n/a
315.726	0.12	631452	keystroke_r	r	n/a
315.936	0.09	631872	keystroke_g	g	n/a
316.041	0.091	632082	keystroke_a	a	n/a
316.101	0.075	632202	keystroke_n	n	n/a
316.146	0.15	632292	keystroke_i	i	n/a
316.251	0.105	632502	keystroke_z	z	n/a
316.401	0.12	632802	keystroke_a	a	n/a
316.536	0.09	633072	keystroke_t	t	n/a
316.581	0.12	633162	keystroke_i	i	n/a
316.611	0.12	633222	keystroke_o	o	n/a
316.671	0.105	633342	keystroke_n	n	n/a
316.746	0.105	633492	keystroke_s	s	n/a
317.151	0.09	634302	keystroke_Key.enter	Key.enter	n/a
317.2485	4.9445	634497	prompt	n/a	scottish cleaning garden auctions\n
317.962	0.104	635924	keystroke_s	s	n/a
318.142	0.134	636284	keystroke_c	c	n/a
318.366	0.105	636732	keystroke_o	o	n/a
318.486	0.06	636972	keystroke_t	t	n/a
318.651	0.046	637302	keystroke_t	t	n/a
318.666	0.135	637332	keystroke_i	i	n/a
318.861	0.12	637722	keystroke_s	s	n/a
318.982	0.134	637964	keystroke_h	h	n/a
319.101	0.135	638202	keystroke_Key.space	Key.space	n/a
319.251	0.12	638502	keystroke_c	c	n/a
319.356	0.12	638712	keystroke_l	l	n/a
319.461	0.18	638922	keystroke_e	e	n/a
319.521	0.15	639042	keystroke_a	a	n/a
319.566	0.106	639132	keystroke_n	n	n/a
319.626	0.12	639252	keystroke_i	i	n/a
319.731	0.09	639462	keystroke_n	n	n/a
319.836	0.09	639672	keystroke_g	g	n/a
319.927	0.104	639854	keystroke_Key.space	Key.space	n/a
320.016	0.09	640032	keystroke_g	g	n/a
320.226	0.12	640452	keystroke_a	a	n/a
320.376	0.12	640752	keystroke_r	r	n/a
320.601	0.135	641202	keystroke_d	d	n/a
320.691	0.15	641382	keystroke_e	e	n/a
320.811	0.105	641622	keystroke_n	n	n/a
320.991	0.12	641982	keystroke_Key.space	Key.space	n/a
321.156	0.105	642312	keystroke_a	a	n/a
321.231	0.105	642462	keystroke_u	u	n/a
321.351	0.06	642702	keystroke_c	c	n/a
321.561	0.09	643122	keystroke_t	t	n/a
321.621	0.15	643242	keystroke_i	i	n/a
321.681	0.135	643362	keystroke_o	o	n/a
321.726	0.106	643452	keystroke_n	n	n/a
321.787	0.104	643574	keystroke_s	s	n/a
322.041	0.15	644082	keystroke_Key.enter	Key.enter	n/a
322.1985	4.5095	644397	prompt	n/a	device mambo payments whole\n
323.121	0.135	646242	keystroke_d	d	n/a
323.226	0.15	646452	keystroke_e	e	n/a
323.586	0.105	647172	keystroke_v	v	n/a
323.736	0.105	647472	keystroke_i	i	n/a
323.811	0.165	647622	keystroke_c	c	n/a
323.916	0.12	647832	keystroke_e	e	n/a
324.021	0.09	648042	keystroke_Key.space	Key.space	n/a
324.246	0.075	648492	keystroke_m	m	n/a
324.352	0.089	648704	keystroke_a	a	n/a
324.426	0.09	648852	keystroke_m	m	n/a
324.592	0.059	649184	keystroke_b	b	n/a
324.742	0.104	649484	keystroke_o	o	n/a
324.891	0.12	649782	keystroke_Key.space	Key.space	n/a
324.996	0.105	649992	keystroke_p	p	n/a
325.102	0.104	650204	keystroke_a	a	n/a
325.176	0.076	650352	keystroke_y	y	n/a
325.341	0.12	650682	keystroke_m	m	n/a
325.447	0.12	650894	keystroke_e	e	n/a
325.552	0.089	651104	keystroke_n	n	n/a
325.627	0.045	651254	keystroke_t	t	n/a
325.776	0.091	651552	keystroke_s	s	n/a
325.896	0.12	651792	keystroke_Key.space	Key.space	n/a
326.031	0.09	652062	keystroke_w	w	n/a
326.091	0.106	652182	keystroke_h	h	n/a
326.136	0.105	652272	keystroke_o	o	n/a
326.331	0.076	652662	keystroke_l	l	n/a
326.391	0.09	652782	keystroke_e	e	n/a
326.602	0.104	653204	keystroke_Key.enter	Key.enter	n/a
326.712	6.326	653424	prompt	n/a	seemed lexington refrigerator xbox\n
327.3515	0.135	654703	keystroke_s	s	n/a
327.5915	0.105	655183	keystroke_e	e	n/a
327.7715	0.105	655543	keystroke_e	e	n/a
327.8615	0.09	655723	keystroke_m	m	n/a
327.9515	0.135	655903	keystroke_e	e	n/a
328.0265	0.135	656053	keystroke_d	d	n/a
328.1315	0.12	656263	keystroke_Key.space	Key.space	n/a
328.2365	0.135	656473	keystroke_l	l	n/a
328.3565	0.105	656713	keystroke_e	e	n/a
328.5515	0.135	657103	keystroke_x	x	n/a
328.6265	0.12	657253	keystroke_i	i	n/a
328.7165	0.12	657433	keystroke_n	n	n/a
328.8215	0.09	657643	keystroke_g	g	n/a
329.0165	0.09	658033	keystroke_t	t	n/a
329.0465	0.075	658093	keystroke_o	o	n/a
329.0765	0.105	658153	keystroke_n	n	n/a
329.2715	0.12	658543	keystroke_Key.space	Key.space	n/a
329.3465	0.06	658693	keystroke_f	f	n/a
329.7665	0.105	659533	keystroke_Key.backspace	Key.backspace	n/a
329.8865	0.09	659773	keystroke_r	r	n/a
329.9915	0.165	659983	keystroke_e	e	n/a
330.2315	0.105	660463	keystroke_f	f	n/a
330.4565	0.105	660913	keystroke_r	r	n/a
330.6365	0.12	661273	keystroke_i	i	n/a
330.7575	0.104	661515	keystroke_g	g	n/a
331.2515	0.135	662503	keystroke_e	e	n/a
331.3715	0.09	662743	keystroke_r	r	n/a
331.5365	0.15	663073	keystroke_a	a	n/a
331.6415	0.1045	663283	keystroke_t	t	n/a
331.7765	0.135	663553	keystroke_o	o	n/a
331.8965	0.12	663793	keystroke_r	r	n/a
332.0015	0.12	664003	keystroke_Key.space	Key.space	n/a
332.2415	0.105	664483	keystroke_x	x	n/a
332.3315	0.0745	664663	keystroke_b	b	n/a
332.511	0.1055	665022	keystroke_o	o	n/a
332.646	0.045	665292	keystroke_x	x	n/a
332.931	0.1055	665862	keystroke_Key.enter	Key.enter	n/a
333.0425	5.786	666085	prompt	n/a	news charter perspective gibson\n
334.596	0.12	669192	keystroke_n	n	n/a
334.7465	0.1645	669493	keystroke_e	e	n/a
334.836	0.1355	669672	keystroke_w	w	n/a
335.061	0.12	670122	keystroke_s	s	n/a
335.151	0.1205	670302	keystroke_Key.space	Key.space	n/a
335.2715	0.1345	670543	keystroke_c	c	n/a
335.391	0.09	670782	keystroke_h	h	n/a
335.451	0.105	670902	keystroke_a	a	n/a
335.526	0.105	671052	keystroke_r	r	n/a
335.7215	0.075	671443	keystroke_t	t	n/a
335.7815	0.1645	671563	keystroke_e	e	n/a
335.886	0.136	671772	keystroke_r	r	n/a
336.291	0.1055	672582	keystroke_Key.space	Key.space	n/a
336.456	0.105	672912	keystroke_p	p	n/a
336.621	0.165	673242	keystroke_e	e	n/a
336.7115	0.1195	673423	keystroke_r	r	n/a
336.966	0.105	673932	keystroke_s	s	n/a
337.056	0.105	674112	keystroke_p	p	n/a
337.221	0.165	674442	keystroke_e	e	n/a
337.326	0.105	674652	keystroke_c	c	n/a
337.536	0.09	675072	keystroke_t	t	n/a
337.686	0.075	675372	keystroke_i	i	n/a
337.776	0.12	675552	keystroke_v	v	n/a
337.851	0.12	675702	keystroke_e	e	n/a
337.956	0.075	675912	keystroke_Key.space	Key.space	n/a
338.046	0.09	676092	keystroke_g	g	n/a
338.121	0.135	676242	keystroke_i	i	n/a
338.211	0.12	676422	keystroke_b	b	n/a
338.301	0.105	676602	keystroke_s	s	n/a
338.391	0.105	676782	keystroke_o	o	n/a
338.451	0.12	676902	keystroke_n	n	n/a
338.721	0.105	677442	keystroke_Key.enter	Key.enter	n/a
338.8325	5.0805	677665	prompt	n/a	material calendars rings kitchen\n
339.471	0.12	678942	keystroke_m	m	n/a
339.576	0.12	679152	keystroke_a	a	n/a
339.666	0.135	679332	keystroke_t	t	n/a
339.801	0.151	679602	keystroke_e	e	n/a
339.906	0.12	679812	keystroke_r	r	n/a
340.056	0.075	680112	keystroke_i	i	n/a
340.116	0.135	680232	keystroke_a	a	n/a
340.206	0.15	680412	keystroke_l	l	n/a
340.311	0.135	680622	keystroke_Key.space	Key.space	n/a
340.491	0.15	680982	keystroke_c	c	n/a
340.671	0.12	681342	keystroke_a	a	n/a
340.836	0.12	681672	keystroke_l	l	n/a
341.406	0.105	682812	keystroke_e	e	n/a
341.541	0.09	683082	keystroke_n	n	n/a
341.661	0.15	683322	keystroke_d	d	n/a
341.781	0.12	683562	keystroke_a	a	n/a
341.871	0.12	683742	keystroke_r	r	n/a
342.006	0.12	684012	keystroke_s	s	n/a
342.111	0.12	684222	keystroke_Key.space	Key.space	n/a
342.276	0.135	684552	keystroke_r	r	n/a
342.366	0.135	684732	keystroke_i	i	n/a
342.441	0.12	684882	keystroke_n	n	n/a
342.502	0.074	685004	keystroke_g	g	n/a
342.696	0.105	685392	keystroke_s	s	n/a
342.756	0.105	685512	keystroke_Key.space	Key.space	n/a
342.891	0.0905	685782	keystroke_k	k	n/a
343.071	0.12	686142	keystroke_i	i	n/a
343.146	0.09	686292	keystroke_t	t	n/a
343.371	0.12	686742	keystroke_c	c	n/a
343.431	0.09	686862	keystroke_h	h	n/a
343.551	0.12	687102	keystroke_e	e	n/a
343.611	0.105	687222	keystroke_n	n	n/a
343.821	0.09	687642	keystroke_Key.enter	Key.enter	n/a
343.9175	5.2005	687835	prompt	n/a	link toilet still barcelona\n
345.651	0.18	691302	keystroke_l	l	n/a
345.786	0.12	691572	keystroke_i	i	n/a
345.876	0.12	691752	keystroke_n	n	n/a
345.981	0.135	691962	keystroke_k	k	n/a
346.101	0.12	692202	keystroke_Key.space	Key.space	n/a
346.222	0.119	692444	keystroke_t	t	n/a
346.326	0.135	692652	keystroke_o	o	n/a
346.431	0.21	692862	keystroke_i	i	n/a
346.596	0.165	693192	keystroke_l	l	n/a
346.716	0.15	693432	keystroke_e	e	n/a
346.806	0.105	693612	keystroke_t	t	n/a
346.896	0.135	693792	keystroke_Key.space	Key.space	n/a
347.076	0.18	694152	keystroke_s	s	n/a
347.196	0.105	694392	keystroke_t	t	n/a
347.286	0.105	694572	keystroke_i	i	n/a
347.331	0.09	694662	keystroke_l	l	n/a
347.511	0.09	695022	keystroke_l	l	n/a
347.586	0.12	695172	keystroke_Key.space	Key.space	n/a
347.736	0.12	695472	keystroke_b	b	n/a
347.796	0.12	695592	keystroke_a	a	n/a
347.886	0.09	695772	keystroke_r	r	n/a
348.096	0.12	696192	keystroke_c	c	n/a
348.201	0.12	696402	keystroke_e	e	n/a
348.516	0.09	697032	keystroke_l	l	n/a
348.696	0.12	697392	keystroke_o	o	n/a
348.726	0.121	697452	keystroke_n	n	n/a
348.831	0.09	697662	keystroke_a	a	n/a
348.981	0.135	697962	keystroke_Key.enter	Key.enter	n/a
349.1235	5.8745	698247	prompt	n/a	promotion nevertheless mill russell\n
349.746	0.105	699492	keystroke_p	p	n/a
349.866	0.09	699732	keystroke_r	r	n/a
349.971	0.121	699942	keystroke_o	o	n/a
350.077	0.134	700154	keystroke_m	m	n/a
350.181	0.105	700362	keystroke_o	o	n/a
350.301	0.09	700602	keystroke_t	t	n/a
350.361	0.15	700722	keystroke_i	i	n/a
350.392	0.134	700784	keystroke_o	o	n/a
350.451	0.09	700902	keystroke_n	n	n/a
350.601	0.135	701202	keystroke_Key.space	Key.space	n/a
350.721	0.09	701442	keystroke_n	n	n/a
350.796	0.105	701592	keystroke_e	e	n/a
350.961	0.06	701922	keystroke_v	v	n/a
351.036	0.105	702072	keystroke_e	e	n/a
351.096	0.09	702192	keystroke_r	r	n/a
351.261	0.09	702522	keystroke_t	t	n/a
351.306	0.09	702612	keystroke_h	h	n/a
351.441	0.106	702882	keystroke_e	e	n/a
351.531	0.135	703062	keystroke_l	l	n/a
351.636	0.105	703272	keystroke_e	e	n/a
351.831	0.06	703662	keystroke_s	s	n/a
351.996	0.09	703992	keystroke_s	s	n/a
352.041	0.105	704082	keystroke_Key.space	Key.space	n/a
352.491	0.105	704982	keystroke_m	m	n/a
352.566	0.135	705132	keystroke_i	i	n/a
352.656	0.09	705312	keystroke_l	l	n/a
352.836	0.105	705672	keystroke_l	l	n/a
352.926	0.105	705852	keystroke_Key.space	Key.space	n/a
353.211	0.105	706422	keystroke_r	r	n/a
353.286	0.09	706572	keystroke_u	u	n/a
353.406	0.12	706812	keystroke_s	s	n/a
353.616	0.09	707232	keystroke_s	s	n/a
353.841	0.075	707682	keystroke_e	e	n/a
353.917	0.059	707834	keystroke_l	l	n/a
354.051	0.075	708102	keystroke_l	l	n/a
354.906	0.09	709812	keystroke_Key.enter	Key.enter	n/a
355.0045	7.779	710009	prompt	n/a	symposium polymer anxiety tire\n
355.671	0.09	711342	keystroke_s	s	n/a
355.791	0.12	711582	keystroke_y	y	n/a
355.912	0.119	711824	keystroke_m	m	n/a
356.091	0.135	712182	keystroke_p	p	n/a
356.211	0.121	712422	keystroke_o	o	n/a
356.302	0.089	712604	keystroke_s	s	n/a
356.466	0.15	712932	keystroke_i	i	n/a
356.526	0.15	713052	keystroke_u	u	n/a
356.617	0.104	713234	keystroke_m	m	n/a
356.811	0.135	713622	keystroke_Key.space	Key.space	n/a
356.976	0.12	713952	keystroke_p	p	n/a
357.216	0.045	714432	keystroke_l	l	n/a
357.666	0.075	715332	keystroke_Key.backspace	Key.backspace	n/a
357.936	0.09	715872	keystroke_o	o	n/a
358.161	0.12	716322	keystroke_l	l	n/a
358.431	0.09	716862	keystroke_m	m	n/a
358.806	0.045	717612	keystroke_Key.backspace	Key.backspace	n/a
359.001	0.12	718002	keystroke_y	y	n/a
359.106	0.12	718212	keystroke_m	m	n/a
359.241	0.15	718482	keystroke_e	e	n/a
359.316	0.135	718632	keystroke_r	r	n/a
359.496	0.105	718992	keystroke_Key.space	Key.space	n/a
359.661	0.12	719322	keystroke_a	a	n/a
359.766	0.105	719532	keystroke_n	n	n/a
359.886	0.075	719772	keystroke_x	x	n/a
359.976	0.105	719952	keystroke_i	i	n/a
360.186	0.136	720372	keystroke_e	e	n/a
360.322	0.104	720644	keystroke_t	t	n/a
360.411	0.105	720822	keystroke_y	y	n/a
360.531	0.105	721062	keystroke_Key.space	Key.space	n/a
360.666	0.105	721332	keystroke_t	t	n/a
360.756	0.105	721512	keystroke_i	i	n/a
360.831	0.105	721662	keystroke_e	e	n/a
360.891	0.12	721782	keystroke_r	r	n/a
361.491	0.075	722982	keystroke_Key.backspace	Key.backspace	n/a
361.701	0.075	723402	keystroke_Key.backspace	Key.backspace	n/a
361.836	0.105	723672	keystroke_r	r	n/a
361.897	0.134	723794	keystroke_e	e	n/a
362.001	0.06	724002	keystroke_'	'	n/a
362.451	0.09	724902	keystroke_Key.backspace	Key.backspace	n/a
362.661	0.12	725322	keystroke_Key.enter	Key.enter	n/a
362.7875	8.3355	725575	prompt	n/a	update starsmerchant varieties paraguay\n
364.206	0.135	728412	keystroke_p	p	n/a
364.372	0.089	728744	keystroke_u	u	n/a
364.836	0.09	729672	keystroke_d	d	n/a
365.002	0.134	730004	keystroke_a	a	n/a
365.106	0.135	730212	keystroke_t	t	n/a
365.211	0.136	730422	keystroke_e	e	n/a
365.316	0.12	730632	keystroke_Key.space	Key.space	n/a
365.541	0.15	731082	keystroke_s	s	n/a
365.676	0.121	731352	keystroke_t	t	n/a
365.856	0.12	731712	keystroke_a	a	n/a
365.946	0.106	731892	keystroke_r	r	n/a
366.186	0.12	732372	keystroke_s	s	n/a
366.351	0.106	732702	keystroke_m	m	n/a
366.516	0.135	733032	keystroke_e	e	n/a
366.622	0.089	733244	keystroke_r	r	n/a
366.831	0.121	733662	keystroke_c	c	n/a
366.922	0.045	733844	keystroke_h	h	n/a
366.996	0.12	733992	keystroke_a	a	n/a
367.101	0.09	734202	keystroke_n	n	n/a
367.176	0.105	734352	keystroke_t	t	n/a
367.297	0.104	734594	keystroke_Key.space	Key.space	n/a
367.431	0.075	734862	keystroke_v	v	n/a
367.611	0.15	735222	keystroke_a	a	n/a
367.762	0.09	735524	keystroke_r	r	n/a
367.866	0.09	735732	keystroke_i	i	n/a
367.986	0.136	735972	keystroke_e	e	n/a
368.077	0.104	736154	keystroke_t	t	n/a
368.197	0.089	736394	keystroke_i	i	n/a
368.661	0.105	737322	keystroke_e	e	n/a
368.886	0.091	737772	keystroke_s	s	n/a
369.006	0.075	738012	keystroke_Key.space	Key.space	n/a
369.202	0.134	738404	keystroke_p	p	n/a
369.306	0.15	738612	keystroke_a	a	n/a
369.426	0.105	738852	keystroke_r	r	n/a
369.546	0.105	739092	keystroke_a	a	n/a
369.771	0.09	739542	keystroke_g	g	n/a
369.906	0.135	739812	keystroke_u	u	n/a
370.446	0.135	740892	keystroke_a	a	n/a
370.671	0.105	741342	keystroke_y	y	n/a
371.001	0.12	742002	keystroke_Key.enter	Key.enter	n/a
371.1295	4.0145	742259	prompt	n/a	keys brief social combat\n
371.931	0.091	743862	keystroke_k	k	n/a
372.216	0.12	744432	keystroke_e	e	n/a
372.322	0.104	744644	keystroke_y	y	n/a
372.441	0.12	744882	keystroke_s	s	n/a
372.546	0.105	745092	keystroke_Key.space	Key.space	n/a
372.711	0.09	745422	keystroke_b	b	n/a
372.816	0.105	745632	keystroke_r	r	n/a
372.937	0.104	745874	keystroke_i	i	n/a
373.026	0.165	746052	keystroke_e	e	n/a
373.117	0.135	746234	keystroke_f	f	n/a
373.281	0.105	746562	keystroke_Key.space	Key.space	n/a
373.446	0.151	746892	keystroke_s	s	n/a
373.582	0.12	747164	keystroke_o	o	n/a
373.686	0.12	747372	keystroke_c	c	n/a
373.926	0.09	747852	keystroke_i	i	n/a
374.091	0.12	748182	keystroke_a	a	n/a
374.136	0.15	748272	keystroke_l	l	n/a
374.241	0.105	748482	keystroke_Key.space	Key.space	n/a
374.377	0.105	748754	keystroke_c	c	n/a
374.452	0.104	748904	keystroke_o	o	n/a
374.512	0.105	749024	keystroke_m	m	n/a
374.661	0.105	749322	keystroke_b	b	n/a
374.782	0.09	749564	keystroke_a	a	n/a
374.886	0.061	749772	keystroke_t	t	n/a
375.021	0.12	750042	keystroke_Key.enter	Key.enter	n/a
375.149	6.895	750298	prompt	n/a	questionnaire relay text characterized\n
375.877	0.12	751754	keystroke_q	q	n/a
375.982	0.135	751964	keystroke_u	u	n/a
376.147	0.12	752294	keystroke_e	e	n/a
376.357	0.165	752714	keystroke_s	s	n/a
376.462	0.134	752924	keystroke_t	t	n/a
376.551	0.18	753102	keystroke_i	i	n/a
376.611	0.135	753222	keystroke_o	o	n/a
376.701	0.12	753402	keystroke_n	n	n/a
377.8565	0.135	755713	keystroke_n	n	n/a
378.097	0.134	756194	keystroke_a	a	n/a
378.201	0.12	756402	keystroke_i	i	n/a
378.292	0.12	756584	keystroke_r	r	n/a
378.366	0.136	756732	keystroke_e	e	n/a
378.471	0.135	756942	keystroke_Key.space	Key.space	n/a
378.592	0.089	757184	keystroke_r	r	n/a
378.652	0.12	757304	keystroke_e	e	n/a
378.727	0.105	757454	keystroke_l	l	n/a
378.861	0.121	757722	keystroke_a	a	n/a
378.936	0.12	757872	keystroke_y	y	n/a
378.996	0.12	757992	keystroke_Key.space	Key.space	n/a
379.1305	0.1065	758261	keystroke_t	t	n/a
379.2065	0.104	758413	keystroke_e	e	n/a
379.432	0.1185	758864	keystroke_x	x	n/a
379.6715	0.0895	759343	keystroke_t	t	n/a
379.791	0.1055	759582	keystroke_Key.space	Key.space	n/a
379.9855	0.12	759971	keystroke_c	c	n/a
380.1215	0.119	760243	keystroke_h	h	n/a
380.1965	0.104	760393	keystroke_a	a	n/a
380.271	0.1505	760542	keystroke_r	r	n/a
380.4055	0.121	760811	keystroke_a	a	n/a
380.5415	0.15	761083	keystroke_c	c	n/a
380.6765	0.104	761353	keystroke_t	t	n/a
381.0365	0.165	762073	keystroke_e	e	n/a
381.1415	0.119	762283	keystroke_r	r	n/a
381.2465	0.12	762493	keystroke_i	i	n/a
381.4255	0.151	762851	keystroke_z	z	n/a
381.7105	0.135	763421	keystroke_e	e	n/a
381.7865	0.135	763573	keystroke_d	d	n/a
381.9505	0.09	763901	keystroke_Key.enter	Key.enter	n/a
382.048	4.78	764096	prompt	n/a	joel actively char bhutan\n
383.0915	0.149	766183	keystroke_j	j	n/a
383.1965	0.135	766393	keystroke_o	o	n/a
383.316	0.1055	766632	keystroke_e	e	n/a
383.4505	0.106	766901	keystroke_l	l	n/a
383.5415	0.165	767083	keystroke_Key.space	Key.space	n/a
384.1415	0.119	768283	keystroke_a	a	n/a
384.2015	0.15	768403	keystroke_c	c	n/a
384.4555	0.106	768911	keystroke_t	t	n/a
384.6215	0.12	769243	keystroke_i	i	n/a
384.7865	0.105	769573	keystroke_v	v	n/a
384.8465	0.12	769693	keystroke_e	e	n/a
384.9515	0.164	769903	keystroke_l	l	n/a
385.0265	0.105	770053	keystroke_y	y	n/a
385.1005	0.09	770201	keystroke_Key.space	Key.space	n/a
385.1915	0.12	770383	keystroke_c	c	n/a
385.3265	0.105	770653	keystroke_h	h	n/a
385.3715	0.135	770743	keystroke_a	a	n/a
385.4615	0.104	770923	keystroke_r	r	n/a
385.5505	0.105	771101	keystroke_Key.space	Key.space	n/a
385.7765	0.12	771553	keystroke_b	b	n/a
385.9405	0.061	771881	keystroke_h	h	n/a
386.1055	0.136	772211	keystroke_u	u	n/a
386.2265	0.105	772453	keystroke_t	t	n/a
386.3465	0.12	772693	keystroke_a	a	n/a
386.4065	0.12	772813	keystroke_n	n	n/a
386.6765	0.149	773353	keystroke_Key.enter	Key.enter	n/a
386.833	4.2405	773666	prompt	n/a	leads country charlotte penalties\n
387.5015	0.12	775003	keystroke_l	l	n/a
387.5765	0.195	775153	keystroke_e	e	n/a
387.6515	0.165	775303	keystroke_a	a	n/a
387.8015	0.149	775603	keystroke_d	d	n/a
387.9065	0.135	775813	keystroke_s	s	n/a
388.0555	0.105	776111	keystroke_Key.space	Key.space	n/a
388.1915	0.135	776383	keystroke_c	c	n/a
388.2815	0.15	776563	keystroke_o	o	n/a
388.3265	0.15	776653	keystroke_u	u	n/a
388.3865	0.12	776773	keystroke_n	n	n/a
388.4605	0.106	776921	keystroke_t	t	n/a
388.6415	0.12	777283	keystroke_r	r	n/a
388.7155	0.105	777431	keystroke_y	y	n/a
388.7765	0.12	777553	keystroke_Key.space	Key.space	n/a
388.9265	0.104	777853	keystroke_c	c	n/a
389.0015	0.105	778003	keystroke_h	h	n/a
389.1075	0.104	778215	keystroke_a	a	n/a
389.1815	0.09	778363	keystroke_r	r	n/a
389.2865	0.075	778573	keystroke_l	l	n/a
389.4365	0.105	778873	keystroke_o	o	n/a
389.5115	0.075	779023	keystroke_t	t	n/a
389.6615	0.105	779323	keystroke_t	t	n/a
389.7365	0.135	779473	keystroke_e	e	n/a
389.8405	0.106	779681	keystroke_Key.space	Key.space	n/a
389.9315	0.12	779863	keystroke_p	p	n/a
390.0815	0.075	780163	keystroke_e	e	n/a
390.1115	0.105	780223	keystroke_n	n	n/a
390.2915	0.135	780583	keystroke_a	a	n/a
