onset	duration	sample	value	key	prompt_text
2.041	17.913	4082	prompt	n/a	the quick brown fox jumps over a lazy dog\n
4.536	0.1145	9072	keystroke_Key.up	Key.up	n/a
4.701	0.0685	9402	keystroke_Key.up	Key.up	n/a
9.4825	0.044	18965	keystroke_t	t	n/a
9.5715	0.075	19143	keystroke_h	h	n/a
9.6915	0.15	19383	keystroke_e	e	n/a
9.8265	0.105	19653	keystroke_Key.space	Key.space	n/a
10.0365	0.165	20073	keystroke_q	q	n/a
10.7705	0.091	21541	keystroke_u	u	n/a
10.9515	0.059	21903	keystroke_i	i	n/a
11.101	0.105	22202	keystroke_c	c	n/a
11.1465	0.1045	22293	keystroke_k	k	n/a
11.3105	0.121	22621	keystroke_Key.space	Key.space	n/a
11.5515	0.075	23103	keystroke_b	b	n/a
11.7165	0.105	23433	keystroke_r	r	n/a
11.8065	0.09	23613	keystroke_o	o	n/a
11.9715	0.105	23943	keystroke_w	w	n/a
12.0765	0.105	24153	keystroke_n	n	n/a
12.226	0.075	24452	keystroke_Key.space	Key.space	n/a
12.4515	0.0895	24903	keystroke_f	f	n/a
12.691	0.1055	25382	keystroke_o	o	n/a
12.841	0.1355	25682	keystroke_x	x	n/a
12.931	0.105	25862	keystroke_Key.space	Key.space	n/a
13.621	0.075	27242	keystroke_j	j	n/a
13.816	0.0605	27632	keystroke_u	u	n/a
14.086	0.015	28172	keystroke_m	m	n/a
14.1465	0.1045	28293	keystroke_p	p	n/a
14.281	0.105	28562	keystroke_s	s	n/a
14.3705	0.12	28741	keystroke_Key.space	Key.space	n/a
14.5055	0.091	29011	keystroke_o	o	n/a
14.5805	0.135	29161	keystroke_v	v	n/a
14.7305	0.166	29461	keystroke_e	e	n/a
14.8355	0.1655	29671	keystroke_r	r	n/a
14.926	0.1045	29852	keystroke_Key.space	Key.space	n/a
15.151	0.1495	30302	keystroke_a	a	n/a
15.2255	0.105	30451	keystroke_Key.space	Key.space	n/a
15.7055	0.1055	31411	keystroke_l	l	n/a
15.8255	0.091	31651	keystroke_a	a	n/a
16.051	0.1495	32102	keystroke_z	z	n/a
16.2605	0.106	32521	keystroke_Key.space	Key.space	n/a
16.711	0.09	33422	keystroke_Key.backspace	Key.backspace	n/a
16.831	0.1355	33662	keystroke_y	y	n/a
16.9355	0.12	33871	keystroke_Key.space	Key.space	n/a
17.431	0.105	34862	keystroke_g	g	n/a
17.5215	0.0895	35043	keystroke_o	o	n/a
17.836	0.0905	35672	keystroke_d	d	n/a
18.0305	0.06	36061	keystroke_Key.backspace	Key.backspace	n/a
18.1955	0.03	36391	keystroke_Key.backspace	Key.backspace	n/a
18.2855	0.0755	36571	keystroke_Key.backspace	Key.backspace	n/a
19.1415	0.105	38283	keystroke_d	d	n/a
19.2765	0.075	38553	keystroke_o	o	n/a
19.3815	0.1195	38763	keystroke_g	g	n/a
19.876	0.075	39752	keystroke_Key.enter	Key.enter	n/a
19.959	10.734	39918	prompt	n/a	specifies demands attacks threshold\n
20.5815	0.119	41163	keystroke_s	s	n/a
20.9865	0.089	41973	keystroke_p	p	n/a
21.1215	0.075	42243	keystroke_e	e	n/a
21.3465	0.075	42693	keystroke_c	c	n/a
21.4515	0.0895	42903	keystroke_i	i	n/a
21.8705	0.121	43741	keystroke_d	d	n/a
22.0065	0.105	44013	keystroke_i	i	n/a
22.4115	0.044	44823	keystroke_Key.backspace	Key.backspace	n/a
22.5305	0.09	45061	keystroke_Key.backspace	Key.backspace	n/a
23.011	0.09	46022	keystroke_f	f	n/a
23.206	0.0755	46412	keystroke_i	i	n/a
23.3265	0.09	46653	keystroke_e	e	n/a
23.521	0.1195	47042	keystroke_s	s	n/a
23.6415	0.0895	47283	keystroke_Key.space	Key.space	n/a
24.211	0.1805	48422	keystroke_d	d	n/a
24.3755	0.091	48751	keystroke_e	e	n/a
24.4365	0.104	48873	keystroke_m	m	n/a
24.5705	0.121	49141	keystroke_a	a	n/a
24.7055	0.1355	49411	keystroke_n	n	n/a
24.797	0.119	49594	keystroke_d	d	n/a
24.9755	0.1355	49951	keystroke_s	s	n/a
25.0815	0.0895	50163	keystroke_Key.space	Key.space	n/a
25.516	0.12	51032	keystroke_a	a	n/a
25.771	0.0755	51542	keystroke_t	t	n/a
25.951	0.0755	51902	keystroke_t	t	n/a
26.2805	0.075	52561	keystroke_a	a	n/a
26.4605	0.0905	52921	keystroke_c	c	n/a
26.5815	0.089	53163	keystroke_k	k	n/a
27.016	0.135	54032	keystroke_s	s	n/a
27.136	0.12	54272	keystroke_Key.space	Key.space	n/a
27.601	0.1195	55202	keystroke_t	t	n/a
27.751	0.0905	55502	keystroke_h	h	n/a
28.0805	0.106	56161	keystroke_r	r	n/a
28.441	0.1045	56882	keystroke_e	e	n/a
28.681	0.1045	57362	keystroke_s	s	n/a
29.341	0.09	58682	keystroke_h	h	n/a
29.5365	0.0745	59073	keystroke_o	o	n/a
29.971	0.09	59942	keystroke_l	l	n/a
30.166	0.105	60332	keystroke_d	d	n/a
30.631	0.06	61262	keystroke_Key.enter	Key.enter	n/a
30.699	6.594	61398	prompt	n/a	abortion chad messenger carrying\n
31.2765	0.1195	62553	keystroke_a	a	n/a
31.486	0.0905	62972	keystroke_b	b	n/a
31.6665	0.075	63333	keystroke_o	o	n/a
31.7415	0.104	63483	keystroke_r	r	n/a
32.0855	0.121	64171	keystroke_t	t	n/a
32.2215	0.075	64443	keystroke_i	i	n/a
32.4015	0.074	64803	keystroke_o	o	n/a
32.5665	0.119	65133	keystroke_n	n	n/a
32.6705	0.12	65341	keystroke_Key.space	Key.space	n/a
33.016	0.1355	66032	keystroke_c	c	n/a
33.106	0.09	66212	keystroke_h	h	n/a
33.241	0.12	66482	keystroke_a	a	n/a
33.406	0.15	66812	keystroke_d	d	n/a
33.541	0.0895	67082	keystroke_Key.space	Key.space	n/a
34.0065	0.104	68013	keystroke_m	m	n/a
34.141	0.1045	68282	keystroke_e	e	n/a
34.3505	0.106	68701	keystroke_s	s	n/a
34.5005	0.09	69001	keystroke_s	s	n/a
34.6815	0.104	69363	keystroke_e	e	n/a
34.7705	0.105	69541	keystroke_n	n	n/a
35.071	0.09	70142	keystroke_g	g	n/a
35.191	0.09	70382	keystroke_e	e	n/a
35.3865	0.0895	70773	keystroke_r	r	n/a
35.491	0.1055	70982	keystroke_Key.space	Key.space	n/a
35.8665	0.105	71733	keystroke_c	c	n/a
36.001	0.1345	72002	keystroke_a	a	n/a
36.211	0.075	72422	keystroke_r	r	n/a
36.361	0.105	72722	keystroke_r	r	n/a
36.5405	0.09	73081	keystroke_y	y	n/a
36.751	0.09	73502	keystroke_i	i	n/a
36.886	0.135	73772	keystroke_n	n	n/a
36.976	0.105	73952	keystroke_g	g	n/a
37.171	0.12	74342	keystroke_Key.enter	Key.enter	n/a
37.2975	8.6955	74595	prompt	n/a	villages housing veteran resulted\n
37.9205	0.12	75841	keystroke_v	v	n/a
38.071	0.075	76142	keystroke_i	i	n/a
38.2805	0.0605	76561	keystroke_l	l	n/a
38.4015	0.09	76803	keystroke_l	l	n/a
38.4915	0.12	76983	keystroke_a	a	n/a
38.7015	0.105	77403	keystroke_g	g	n/a
38.8965	0.0885	77793	keystroke_e	e	n/a
39.0765	0.12	78153	keystroke_s	s	n/a
39.1805	0.1055	78361	keystroke_Key.space	Key.space	n/a
39.4065	0.059	78813	keystroke_h	h	n/a
39.5715	0.0895	79143	keystroke_o	o	n/a
39.766	0.075	79532	keystroke_u	u	n/a
39.871	0.1045	79742	keystroke_s	s	n/a
39.9915	0.074	79983	keystroke_i	i	n/a
40.126	0.15	80252	keystroke_n	n	n/a
40.2605	0.1355	80521	keystroke_g	g	n/a
40.336	0.105	80672	keystroke_Key.space	Key.space	n/a
40.696	0.12	81392	keystroke_v	v	n/a
40.8315	0.1945	81663	keystroke_e	e	n/a
40.966	0.135	81932	keystroke_r	r	n/a
41.2205	0.105	82441	keystroke_t	t	n/a
41.626	0.105	83252	keystroke_Key.backspace	Key.backspace	n/a
41.7455	0.105	83491	keystroke_r	r	n/a
42.2265	0.06	84453	keystroke_Key.backspace	Key.backspace	n/a
42.3605	0.076	84721	keystroke_Key.backspace	Key.backspace	n/a
42.571	0.1505	85142	keystroke_t	t	n/a
42.781	0.18	85562	keystroke_e	e	n/a
42.8865	0.135	85773	keystroke_r	r	n/a
43.171	0.105	86342	keystroke_a	a	n/a
43.291	0.09	86582	keystroke_n	n	n/a
43.471	0.105	86942	keystroke_Key.space	Key.space	n/a
44.2515	0.179	88503	keystroke_r	r	n/a
44.3705	0.12	88741	keystroke_e	e	n/a
44.566	0.1195	89132	keystroke_s	s	n/a
44.6555	0.09	89311	keystroke_u	u	n/a
44.8955	0.045	89791	keystroke_l	l	n/a
44.9555	0.106	89911	keystroke_t	t	n/a
45.2105	0.136	90421	keystroke_e	e	n/a
45.3155	0.136	90631	keystroke_d	d	n/a
45.916	0.075	91832	keystroke_Key.enter	Key.enter	n/a
45.9975	8.02	91995	prompt	n/a	tactics hook i'll complement\n
46.606	0.09	93212	keystroke_t	t	n/a
46.845	0.121	93690	keystroke_a	a	n/a
47.011	0.1495	94022	keystroke_c	c	n/a
47.266	0.1045	94532	keystroke_t	t	n/a
47.431	0.1045	94862	keystroke_i	i	n/a
47.6105	0.0905	95221	keystroke_c	c	n/a
47.806	0.1495	95612	keystroke_s	s	n/a
47.896	0.1045	95792	keystroke_Key.space	Key.space	n/a
48.151	0.06	96302	keystroke_h	h	n/a
48.511	0.075	97022	keystroke_o	o	n/a
48.661	0.09	97322	keystroke_o	o	n/a
48.796	0.105	97592	keystroke_k	k	n/a
48.976	0.12	97952	keystroke_Key.space	Key.space	n/a
49.246	0.105	98492	keystroke_i	i	n/a
49.56	0.0765	99120	keystroke_'	'	n/a
49.786	0.0745	99572	keystroke_k	k	n/a
50.205	0.061	100410	keystroke_Key.backspace	Key.backspace	n/a
50.386	0.0905	100772	keystroke_l	l	n/a
50.536	0.105	101072	keystroke_l	l	n/a
50.7	0.136	101400	keystroke_Key.space	Key.space	n/a
51.241	0.1045	102482	keystroke_c	c	n/a
51.3165	0.074	102633	keystroke_i	i	n/a
51.8405	0.12	103681	keystroke_Key.backspace	Key.backspace	n/a
52.216	0.0745	104432	keystroke_o	o	n/a
52.3955	0.0905	104791	keystroke_m	m	n/a
52.5905	0.06	105181	keystroke_p	p	n/a
52.7255	0.09	105451	keystroke_l	l	n/a
52.8455	0.12	105691	keystroke_e	e	n/a
53.026	0.0895	106052	keystroke_m	m	n/a
53.1905	0.09	106381	keystroke_e	e	n/a
53.296	0.0605	106592	keystroke_n	n	n/a
53.4155	0.091	106831	keystroke_t	t	n/a
53.9405	0.0755	107881	keystroke_Key.enter	Key.enter	n/a
54.023	9.49	108046	prompt	n/a	usps brighton seeks regard\n
54.796	0.0745	109592	keystroke_u	u	n/a
55.351	0.09	110702	keystroke_s	s	n/a
55.456	0.1045	110912	keystroke_p	p	n/a
55.741	0.09	111482	keystroke_s	s	n/a
55.936	0.12	111872	keystroke_Key.space	Key.space	n/a
56.25	0.091	112500	keystroke_b	b	n/a
56.4605	0.1045	112921	keystroke_r	r	n/a
56.6255	0.0905	113251	keystroke_i	i	n/a
56.8505	0.06	113701	keystroke_g	g	n/a
57.016	0.0755	114032	keystroke_h	h	n/a
57.496	0.105	114992	keystroke_t	t	n/a
57.616	0.09	115232	keystroke_o	o	n/a
57.811	0.105	115622	keystroke_n	n	n/a
57.901	0.12	115802	keystroke_Key.space	Key.space	n/a
58.1265	0.1195	116253	keystroke_s	s	n/a
58.351	0.075	116702	keystroke_e	e	n/a
58.516	0.06	117032	keystroke_e	e	n/a
58.606	0.09	117212	keystroke_k	k	n/a
58.786	0.1045	117572	keystroke_s	s	n/a
58.876	0.104	117752	keystroke_Key.space	Key.space	n/a
59.566	0.18	119132	keystroke_r	r	n/a
59.701	0.165	119402	keystroke_e	e	n/a
59.896	0.15	119792	keystroke_g	g	n/a
60.241	0.0895	120482	keystroke_a	a	n/a
60.4205	0.12	120841	keystroke_r	r	n/a
60.616	0.1345	121232	keystroke_d	d	n/a
63.4985	0.012	126997	keystroke_Key.enter	Key.enter	n/a
63.5175	11.3045	127035	prompt	n/a	openings scheduled inventory dennis\n
64.41	0.061	128820	keystroke_o	o	n/a
64.576	0.075	129152	keystroke_p	p	n/a
64.68	0.106	129360	keystroke_e	e	n/a
64.831	0.09	129662	keystroke_n	n	n/a
64.996	0.09	129992	keystroke_i	i	n/a
65.131	0.12	130262	keystroke_n	n	n/a
65.266	0.1045	130532	keystroke_g	g	n/a
65.296	0.1345	130592	keystroke_Key.space	Key.space	n/a
65.8205	0.075	131641	keystroke_Key.backspace	Key.backspace	n/a
66.0005	0.1205	132001	keystroke_s	s	n/a
66.0905	0.09	132181	keystroke_Key.space	Key.space	n/a
68.8825	0.0585	137765	keystroke_s	s	n/a
68.9555	0.1355	137911	keystroke_c	c	n/a
69.1055	0.0905	138211	keystroke_h	h	n/a
69.331	0.105	138662	keystroke_e	e	n/a
69.481	0.104	138962	keystroke_d	d	n/a
69.6005	0.0895	139201	keystroke_u	u	n/a
69.946	0.075	139892	keystroke_l	l	n/a
70.081	0.09	140162	keystroke_e	e	n/a
70.186	0.075	140372	keystroke_Key.space	Key.space	n/a
70.5605	0.0605	141121	keystroke_Key.backspace	Key.backspace	n/a
70.651	0.1045	141302	keystroke_d	d	n/a
70.741	0.105	141482	keystroke_Key.space	Key.space	n/a
71.3415	0.0595	142683	keystroke_i	i	n/a
71.476	0.09	142952	keystroke_n	n	n/a
71.8065	0.1195	143613	keystroke_v	v	n/a
71.971	0.165	143942	keystroke_e	e	n/a
72.121	0.075	144242	keystroke_n	n	n/a
72.3015	0.1195	144603	keystroke_t	t	n/a
72.391	0.1055	144782	keystroke_o	o	n/a
72.7805	0.09	145561	keystroke_r	r	n/a
72.9455	0.0755	145891	keystroke_y	y	n/a
73.08	0.0905	146160	keystroke_Key.space	Key.space	n/a
73.321	0.165	146642	keystroke_d	d	n/a
73.487	0.104	146974	keystroke_e	e	n/a
73.636	0.0595	147272	keystroke_n	n	n/a
73.7855	0.0755	147571	keystroke_n	n	n/a
73.9355	0.105	147871	keystroke_i	i	n/a
74.026	0.12	148052	keystroke_s	s	n/a
74.731	0.0895	149462	keystroke_Key.enter	Key.enter	n/a
74.8275	8.9195	149655	prompt	n/a	trip illinois wherever philadelphia\n
75.525	0.015	151050	keystroke_t	t	n/a
75.601	0.1195	151202	keystroke_r	r	n/a
75.7055	0.075	151411	keystroke_i	i	n/a
75.916	0.0745	151832	keystroke_p	p	n/a
76.081	0.09	152162	keystroke_Key.space	Key.space	n/a
76.246	0.09	152492	keystroke_i	i	n/a
76.486	0.06	152972	keystroke_l	l	n/a
76.606	0.075	153212	keystroke_l	l	n/a
76.786	0.06	153572	keystroke_i	i	n/a
76.921	0.12	153842	keystroke_o	o	n/a
77.2055	0.09	154411	keystroke_n	n	n/a
77.476	0.06	154952	keystroke_o	o	n/a
77.6555	0.0755	155311	keystroke_i	i	n/a
77.761	0.135	155522	keystroke_s	s	n/a
77.881	0.1045	155762	keystroke_Key.space	Key.space	n/a
79.516	0.105	159032	keystroke_w	w	n/a
79.606	0.09	159212	keystroke_h	h	n/a
79.756	0.105	159512	keystroke_e	e	n/a
79.966	0.165	159932	keystroke_r	r	n/a
80.0865	0.1495	160173	keystroke_e	e	n/a
80.296	0.105	160592	keystroke_v	v	n/a
80.416	0.18	160832	keystroke_e	e	n/a
80.566	0.1345	161132	keystroke_r	r	n/a
80.7605	0.1055	161521	keystroke_Key.space	Key.space	n/a
81.241	0.0895	162482	keystroke_p	p	n/a
81.4805	0.09	162961	keystroke_h	h	n/a
81.6305	0.091	163261	keystroke_i	i	n/a
81.8405	0.076	163681	keystroke_l	l	n/a
81.9765	0.12	163953	keystroke_a	a	n/a
82.141	0.135	164282	keystroke_d	d	n/a
82.261	0.12	164522	keystroke_e	e	n/a
82.351	0.09	164702	keystroke_l	l	n/a
82.576	0.075	165152	keystroke_p	p	n/a
82.816	0.0755	165632	keystroke_h	h	n/a
82.936	0.105	165872	keystroke_i	i	n/a
83.0705	0.135	166141	keystroke_a	a	n/a
83.656	0.09	167312	keystroke_Key.enter	Key.enter	n/a
83.75	9.5975	167500	prompt	n/a	candidates proof dozens british\n
84.361	0.0895	168722	keystroke_c	c	n/a
84.511	0.12	169022	keystroke_a	a	n/a
84.586	0.0905	169172	keystroke_n	n	n/a
84.7205	0.1205	169441	keystroke_d	d	n/a
84.856	0.075	169712	keystroke_i	i	n/a
85.381	0.1205	170762	keystroke_d	d	n/a
85.502	0.1045	171004	keystroke_a	a	n/a
85.71	0.091	171420	keystroke_t	t	n/a
85.786	0.0745	171572	keystroke_i	i	n/a
86.176	0.06	172352	keystroke_Key.backspace	Key.backspace	n/a
86.251	0.075	172502	keystroke_e	e	n/a
86.431	0.15	172862	keystroke_s	s	n/a
86.535	0.1055	173070	keystroke_Key.space	Key.space	n/a
86.791	0.0895	173582	keystroke_p	p	n/a
86.941	0.09	173882	keystroke_r	r	n/a
87.0615	0.0745	174123	keystroke_o	o	n/a
87.346	0.0755	174692	keystroke_f	f	n/a
87.616	0.075	175232	keystroke_Key.backspace	Key.backspace	n/a
87.811	0.075	175622	keystroke_o	o	n/a
87.946	0.09	175892	keystroke_f	f	n/a
88.7855	0.09	177571	keystroke_Key.space	Key.space	n/a
89.0255	0.135	178051	keystroke_d	d	n/a
89.1305	0.1055	178261	keystroke_o	o	n/a
89.9255	0.105	179851	keystroke_z	z	n/a
90.1055	0.105	180211	keystroke_e	e	n/a
90.2255	0.0905	180451	keystroke_n	n	n/a
90.346	0.1045	180692	keystroke_s	s	n/a
90.435	0.1055	180870	keystroke_Key.space	Key.space	n/a
91.066	0.0895	182132	keystroke_b	b	n/a
91.2005	0.1055	182401	keystroke_r	r	n/a
91.3205	0.06	182641	keystroke_i	i	n/a
92.221	0.1045	184442	keystroke_t	t	n/a
92.3705	0.0905	184741	keystroke_i	i	n/a
92.4755	0.1355	184951	keystroke_s	s	n/a
92.5955	0.075	185191	keystroke_h	h	n/a
93.256	0.0895	186512	keystroke_Key.enter	Key.enter	n/a
93.354	7.8535	186708	prompt	n/a	greensboro edit inches primary\n
94.186	0.1045	188372	keystroke_g	g	n/a
94.3205	0.135	188641	keystroke_r	r	n/a
94.7855	0.075	189571	keystroke_e	e	n/a
94.9205	0.0755	189841	keystroke_e	e	n/a
94.9805	0.076	189961	keystroke_n	n	n/a
95.3405	0.0595	190681	keystroke_b	b	n/a
95.8055	0.075	191611	keystroke_Key.backspace	Key.backspace	n/a
95.91	0.106	191820	keystroke_s	s	n/a
96.121	0.0745	192242	keystroke_b	b	n/a
96.3305	0.0905	192661	keystroke_o	o	n/a
96.4355	0.105	192871	keystroke_r	r	n/a
96.7655	0.0905	193531	keystroke_o	o	n/a
96.915	0.121	193830	keystroke_Key.space	Key.space	n/a
97.231	0.1045	194462	keystroke_e	e	n/a
97.38	0.106	194760	keystroke_d	d	n/a
97.5	0.075	195000	keystroke_i	i	n/a
97.62	0.106	195240	keystroke_t	t	n/a
97.74	0.106	195480	keystroke_Key.space	Key.space	n/a
98.3105	0.0755	196621	keystroke_i	i	n/a
98.4755	0.09	196951	keystroke_n	n	n/a
98.596	0.0895	197192	keystroke_c	c	n/a
98.7005	0.0905	197401	keystroke_h	h	n/a
98.821	0.105	197642	keystroke_e	e	n/a
99.001	0.1195	198002	keystroke_s	s	n/a
99.135	0.105	198270	keystroke_Key.space	Key.space	n/a
99.4955	0.075	198991	keystroke_p	p	n/a
99.676	0.0895	199352	keystroke_r	r	n/a
99.7805	0.0895	199561	keystroke_i	i	n/a
100.291	0.09	200582	keystroke_m	m	n/a
100.411	0.105	200822	keystroke_a	a	n/a
100.606	0.09	201212	keystroke_r	r	n/a
100.711	0.075	201422	keystroke_y	y	n/a
101.131	0.0745	202262	keystroke_Key.enter	Key.enter	n/a
101.2115	9.866	202423	prompt	n/a	karaoke exhibit favorites tier\n
102.1355	0.075	204271	keystroke_k	k	n/a
102.841	0.105	205682	keystroke_a	a	n/a
103.3965	0.1195	206793	keystroke_r	r	n/a
103.666	0.075	207332	keystroke_a	a	n/a
103.861	0.075	207722	keystroke_o	o	n/a
104.071	0.09	208142	keystroke_k	k	n/a
104.206	0.09	208412	keystroke_e	e	n/a
104.716	0.104	209432	keystroke_Key.space	Key.space	n/a
105.466	0.1045	210932	keystroke_e	e	n/a
105.976	0.1345	211952	keystroke_x	x	n/a
106.0955	0.075	212191	keystroke_h	h	n/a
106.276	0.0905	212552	keystroke_i	i	n/a
106.741	0.1345	213482	keystroke_b	b	n/a
106.8905	0.0755	213781	keystroke_i	i	n/a
107.011	0.1345	214022	keystroke_t	t	n/a
107.1755	0.105	214351	keystroke_Key.space	Key.space	n/a
107.641	0.105	215282	keystroke_f	f	n/a
107.896	0.105	215792	keystroke_a	a	n/a
108.106	0.1345	216212	keystroke_v	v	n/a
108.256	0.075	216512	keystroke_o	o	n/a
108.4355	0.03	216871	keystroke_r	r	n/a
109.141	0.1045	218282	keystroke_i	i	n/a
109.2155	0.18	218431	keystroke_t	t	n/a
109.4105	0.15	218821	keystroke_e	e	n/a
109.5005	0.12	219001	keystroke_Key.space	Key.space	n/a
109.9505	0.06	219901	keystroke_Key.backspace	Key.backspace	n/a
110.0565	0.104	220113	keystroke_s	s	n/a
110.1155	0.1205	220231	keystroke_Key.space	Key.space	n/a
110.3105	0.12	220621	keystroke_t	t	n/a
110.4605	0.09	220921	keystroke_i	i	n/a
110.641	0.2095	221282	keystroke_e	e	n/a
110.7605	0.1645	221521	keystroke_r	r	n/a
110.94	0.136	221880	keystroke_Key.enter	Key.enter	n/a
111.0815	9.7755	222163	prompt	n/a	entered merge conclude dialogue\n
111.6765	0.119	223353	keystroke_e	e	n/a
111.87	0.0905	223740	keystroke_n	n	n/a
112.006	0.134	224012	keystroke_t	t	n/a
112.186	0.194	224372	keystroke_e	e	n/a
112.335	0.195	224670	keystroke_r	r	n/a
112.5	0.2255	225000	keystroke_e	e	n/a
112.74	0.195	225480	keystroke_d	d	n/a
112.92	0.105	225840	keystroke_Key.space	Key.space	n/a
113.4005	0.075	226801	keystroke_m	m	n/a
113.6105	0.15	227221	keystroke_a	a	n/a
113.9555	0.075	227911	keystroke_Key.backspace	Key.backspace	n/a
114.001	0.0895	228002	keystroke_e	e	n/a
114.241	0.0745	228482	keystroke_r	r	n/a
114.4655	0.12	228931	keystroke_g	g	n/a
114.6155	0.105	229231	keystroke_e	e	n/a
114.7045	0.106	229409	keystroke_Key.space	Key.space	n/a
115.0355	0.09	230071	keystroke_c	c	n/a
115.0955	0.075	230191	keystroke_o	o	n/a
115.2905	0.0895	230581	keystroke_n	n	n/a
115.9055	0.136	231811	keystroke_c	c	n/a
115.995	0.0755	231990	keystroke_l	l	n/a
116.221	0.09	232442	keystroke_u	u	n/a
116.296	0.165	232592	keystroke_d	d	n/a
116.446	0.15	232892	keystroke_e	e	n/a
116.581	0.105	233162	keystroke_Key.space	Key.space	n/a
117.301	0.015	234602	keystroke_i	i	n/a
117.6005	0.045	235201	keystroke_Key.backspace	Key.backspace	n/a
117.6905	0.12	235381	keystroke_d	d	n/a
117.8555	0.0905	235711	keystroke_i	i	n/a
118.02	0.106	236040	keystroke_a	a	n/a
118.2	0.091	236400	keystroke_l	l	n/a
118.426	0.044	236852	keystroke_o	o	n/a
119.326	0.104	238652	keystroke_g	g	n/a
119.611	0.09	239222	keystroke_u	u	n/a
119.956	0.074	239912	keystroke_e	e	n/a
120.7805	0.075	241561	keystroke_Key.enter	Key.enter	n/a
120.8615	7.9155	241723	prompt	n/a	anti newspapers passport starring\n
121.5455	0.105	243091	keystroke_a	a	n/a
121.68	0.09	243360	keystroke_n	n	n/a
121.8305	0.09	243661	keystroke_t	t	n/a
121.95	0.09	243900	keystroke_i	i	n/a
122.1005	0.12	244201	keystroke_Key.space	Key.space	n/a
122.3105	0.1205	244621	keystroke_n	n	n/a
122.3855	0.12	244771	keystroke_e	e	n/a
122.581	0.1345	245162	keystroke_w	w	n/a
122.835	0.09	245670	keystroke_s	s	n/a
123.0155	0.0905	246031	keystroke_p	p	n/a
123.2105	0.0755	246421	keystroke_a	a	n/a
123.45	0.1055	246900	keystroke_p	p	n/a
123.5705	0.0745	247141	keystroke_e	e	n/a
123.7505	0.0605	247501	keystroke_r	r	n/a
123.916	0.1345	247832	keystroke_s	s	n/a
124.0205	0.09	248041	keystroke_Key.space	Key.space	n/a
124.186	0.1195	248372	keystroke_p	p	n/a
124.2905	0.0755	248581	keystroke_a	a	n/a
124.501	0.195	249002	keystroke_s	s	n/a
124.816	0.105	249632	keystroke_s	s	n/a
125.25	0.091	250500	keystroke_p	p	n/a
125.506	0.09	251012	keystroke_o	o	n/a
125.7305	0.076	251461	keystroke_r	r	n/a
125.9255	0.0755	251851	keystroke_t	t	n/a
126.376	0.0895	252752	keystroke_Key.space	Key.space	n/a
126.6905	0.105	253381	keystroke_s	s	n/a
126.916	0.12	253832	keystroke_t	t	n/a
127.2305	0.09	254461	keystroke_a	a	n/a
127.4405	0.0755	254881	keystroke_r	r	n/a
127.561	0.105	255122	keystroke_r	r	n/a
127.7405	0.105	255481	keystroke_i	i	n/a
127.9205	0.105	255841	keystroke_n	n	n/a
127.996	0.09	255992	keystroke_g	g	n/a
128.6855	0.09	257371	keystroke_Key.enter	Key.enter	n/a
128.785	8.4825	257570	prompt	n/a	festivals blink medication contest\n
129.3455	0.12	258691	keystroke_f	f	n/a
129.5405	0.1355	259081	keystroke_a	a	n/a
129.991	0.0595	259982	keystroke_Key.backspace	Key.backspace	n/a
130.455	0.105	260910	keystroke_e	e	n/a
130.6655	0.1205	261331	keystroke_s	s	n/a
130.8905	0.1055	261781	keystroke_t	t	n/a
131.01	0.076	262020	keystroke_i	i	n/a
131.3255	0.09	262651	keystroke_v	v	n/a
131.5205	0.12	263041	keystroke_a	a	n/a
131.6255	0.105	263251	keystroke_l	l	n/a
131.8205	0.135	263641	keystroke_s	s	n/a
131.9705	0.075	263941	keystroke_Key.space	Key.space	n/a
132.196	0.0745	264392	keystroke_b	b	n/a
132.4055	0.075	264811	keystroke_l	l	n/a
132.9605	0.09	265921	keystroke_i	i	n/a
133.276	0.0745	266552	keystroke_n	n	n/a
133.411	0.119	266822	keystroke_k	k	n/a
133.545	0.121	267090	keystroke_Key.space	Key.space	n/a
134.055	0.091	268110	keystroke_m	m	n/a
134.16	0.106	268320	keystroke_e	e	n/a
134.341	0.105	268682	keystroke_d	d	n/a
134.4755	0.075	268951	keystroke_i	i	n/a
134.626	0.1195	269252	keystroke_c	c	n/a
134.776	0.12	269552	keystroke_a	a	n/a
134.985	0.0905	269970	keystroke_t	t	n/a
135.09	0.076	270180	keystroke_i	i	n/a
135.211	0.0595	270422	keystroke_o	o	n/a
135.4655	0.03	270931	keystroke_n	n	n/a
135.4805	0.09	270961	keystroke_Key.space	Key.space	n/a
135.6155	0.12	271231	keystroke_c	c	n/a
135.7365	0.074	271473	keystroke_o	o	n/a
135.9155	0.09	271831	keystroke_n	n	n/a
136.2755	0.105	272551	keystroke_t	t	n/a
136.4555	0.12	272911	keystroke_e	e	n/a
136.6655	0.09	273331	keystroke_s	s	n/a
136.8005	0.09	273601	keystroke_t	t	n/a
137.2055	0.0605	274411	keystroke_Key.enter	Key.enter	n/a
137.2785	8.149	274557	prompt	n/a	epson terminal cure readily\n
137.911	0.105	275822	keystroke_e	e	n/a
138.0455	0.09	276091	keystroke_p	p	n/a
138.3155	0.09	276631	keystroke_s	s	n/a
138.4065	0.075	276813	keystroke_o	o	n/a
138.6155	0.091	277231	keystroke_n	n	n/a
138.6915	0.119	277383	keystroke_Key.space	Key.space	n/a
139.306	0.104	278612	keystroke_t	t	n/a
139.651	0.135	279302	keystroke_e	e	n/a
139.756	0.09	279512	keystroke_r	r	n/a
139.891	0.0745	279782	keystroke_m	m	n/a
140.4455	0.06	280891	keystroke_i	i	n/a
141.1205	0.09	282241	keystroke_n	n	n/a
141.331	0.1195	282662	keystroke_a	a	n/a
141.5105	0.075	283021	keystroke_l	l	n/a
141.6605	0.12	283321	keystroke_Key.space	Key.space	n/a
142.1855	0.09	284371	keystroke_c	c	n/a
142.426	0.09	284852	keystroke_u	u	n/a
142.5465	0.164	285093	keystroke_r	r	n/a
142.666	0.1645	285332	keystroke_e	e	n/a
142.8165	0.119	285633	keystroke_Key.space	Key.space	n/a
143.7605	0.18	287521	keystroke_r	r	n/a
143.9255	0.1505	287851	keystroke_e	e	n/a
144.1815	0.164	288363	keystroke_a	a	n/a
144.3005	0.15	288601	keystroke_d	d	n/a
144.4355	0.0755	288871	keystroke_i	i	n/a
144.6755	0.0905	289351	keystroke_l	l	n/a
144.8705	0.135	289741	keystroke_y	y	n/a
145.3505	0.075	290701	keystroke_Key.enter	Key.enter	n/a
145.4335	9.729	290867	prompt	n/a	patterns doesn't powell bedford\n
146.146	0.09	292292	keystroke_p	p	n/a
146.2805	0.09	292561	keystroke_a	a	n/a
146.506	0.0895	293012	keystroke_t	t	n/a
146.6705	0.105	293341	keystroke_t	t	n/a
146.8065	0.194	293613	keystroke_e	e	n/a
146.986	0.1645	293972	keystroke_r	r	n/a
147.451	0.12	294902	keystroke_n	n	n/a
147.5555	0.12	295111	keystroke_s	s	n/a
147.6605	0.09	295321	keystroke_Key.space	Key.space	n/a
148.2905	0.1355	296581	keystroke_d	d	n/a
148.4405	0.12	296881	keystroke_e	e	n/a
148.5455	0.1205	297091	keystroke_o	o	n/a
148.7415	0.1045	297483	keystroke_s	s	n/a
149.2355	0.09	298471	keystroke_n	n	n/a
149.431	0.105	298862	keystroke_'	'	n/a
149.551	0.105	299102	keystroke_t	t	n/a
149.671	0.135	299342	keystroke_Key.space	Key.space	n/a
150.061	0.0755	300122	keystroke_p	p	n/a
150.256	0.075	300512	keystroke_o	o	n/a
150.3015	0.1945	300603	keystroke_w	w	n/a
150.4815	0.0895	300963	keystroke_e	e	n/a
150.751	0.06	301502	keystroke_r	r	n/a
151.231	0.06	302462	keystroke_Key.backspace	Key.backspace	n/a
151.441	0.075	302882	keystroke_l	l	n/a
151.5915	0.0895	303183	keystroke_l	l	n/a
151.7105	0.1355	303421	keystroke_Key.space	Key.space	n/a
152.041	0.075	304082	keystroke_b	b	n/a
152.146	0.1645	304292	keystroke_e	e	n/a
152.266	0.134	304532	keystroke_d	d	n/a
152.896	0.03	305792	keystroke_o	o	n/a
152.971	0.075	305942	keystroke_f	f	n/a
153.226	0.03	306452	keystroke_Key.backspace	Key.backspace	n/a
153.316	0.09	306632	keystroke_Key.backspace	Key.backspace	n/a
153.421	0.12	306842	keystroke_f	f	n/a
153.526	0.09	307052	keystroke_o	o	n/a
153.631	0.12	307262	keystroke_r	r	n/a
153.871	0.12	307742	keystroke_d	d	n/a
155.071	0.089	310142	keystroke_Key.enter	Key.enter	n/a
155.1665	5.6065	310333	prompt	n/a	reflect wave once cents\n
156.121	0.195	312242	keystroke_r	r	n/a
156.256	0.195	312512	keystroke_e	e	n/a
156.601	0.0895	313202	keystroke_l	l	n/a
156.916	0.0745	313832	keystroke_Key.backspace	Key.backspace	n/a
157.0205	0.15	314041	keystroke_f	f	n/a
157.1565	0.089	314313	keystroke_l	l	n/a
157.2605	0.121	314521	keystroke_e	e	n/a
157.456	0.1205	314912	keystroke_c	c	n/a
157.681	0.1505	315362	keystroke_t	t	n/a
157.8605	0.12	315721	keystroke_Key.space	Key.space	n/a
158.206	0.135	316412	keystroke_w	w	n/a
158.4605	0.1205	316921	keystroke_a	a	n/a
158.716	0.135	317432	keystroke_v	v	n/a
158.8515	0.1345	317703	keystroke_e	e	n/a
158.956	0.12	317912	keystroke_Key.space	Key.space	n/a
159.346	0.0905	318692	keystroke_o	o	n/a
159.541	0.09	319082	keystroke_n	n	n/a
159.6455	0.1055	319291	keystroke_c	c	n/a
159.7655	0.1505	319531	keystroke_e	e	n/a
159.8555	0.1205	319711	keystroke_Key.space	Key.space	n/a
160.021	0.15	320042	keystroke_c	c	n/a
160.156	0.135	320312	keystroke_e	e	n/a
160.231	0.105	320462	keystroke_n	n	n/a
160.351	0.105	320702	keystroke_t	t	n/a
160.576	0.12	321152	keystroke_s	s	n/a
160.651	0.12	321302	keystroke_Key.enter	Key.enter	n/a
160.778	6.999	321556	prompt	n/a	carol peterson woods michel\n
161.521	0.12	323042	keystroke_c	c	n/a
161.7615	0.12	323523	keystroke_a	a	n/a
161.9555	0.0905	323911	keystroke_r	r	n/a
162.0305	0.06	324061	keystroke_i	i	n/a
162.526	0.075	325052	keystroke_Key.backspace	Key.backspace	n/a
162.7965	0.0895	325593	keystroke_o	o	n/a
162.9915	0.104	325983	keystroke_l	l	n/a
163.1255	0.135	326251	keystroke_Key.space	Key.space	n/a
163.771	0.105	327542	keystroke_p	p	n/a
163.8905	0.105	327781	keystroke_e	e	n/a
164.1315	0.1195	328263	keystroke_t	t	n/a
164.311	0.195	328622	keystroke_e	e	n/a
164.416	0.15	328832	keystroke_r	r	n/a
164.896	0.105	329792	keystroke_s	s	n/a
164.986	0.075	329972	keystroke_o	o	n/a
165.166	0.105	330332	keystroke_n	n	n/a
165.286	0.12	330572	keystroke_Key.space	Key.space	n/a
165.421	0.075	330842	keystroke_w	w	n/a
165.526	0.0595	331052	keystroke_o	o	n/a
165.661	0.0895	331322	keystroke_o	o	n/a
165.9305	0.1205	331861	keystroke_d	d	n/a
166.1105	0.1205	332221	keystroke_s	s	n/a
166.1855	0.12	332371	keystroke_Key.space	Key.space	n/a
166.6355	0.12	333271	keystroke_m	m	n/a
166.861	0.0895	333722	keystroke_i	i	n/a
167.0405	0.0905	334081	keystroke_c	c	n/a
167.1455	0.0745	334291	keystroke_h	h	n/a
167.2805	0.1055	334561	keystroke_e	e	n/a
167.386	0.105	334772	keystroke_l	l	n/a
167.656	0.119	335312	keystroke_Key.enter	Key.enter	n/a
167.7795	5.878	335559	prompt	n/a	relation diamonds kenny answer\n
168.511	0.18	337022	keystroke_r	r	n/a
168.646	0.15	337292	keystroke_e	e	n/a
168.7655	0.105	337531	keystroke_l	l	n/a
168.901	0.0895	337802	keystroke_a	a	n/a
169.0815	0.0895	338163	keystroke_t	t	n/a
169.156	0.105	338312	keystroke_i	i	n/a
169.276	0.09	338552	keystroke_o	o	n/a
169.471	0.12	338942	keystroke_n	n	n/a
169.861	0.105	339722	keystroke_Key.space	Key.space	n/a
170.1015	0.1345	340203	keystroke_d	d	n/a
170.221	0.0905	340442	keystroke_i	i	n/a
170.341	0.104	340682	keystroke_a	a	n/a
170.536	0.105	341072	keystroke_m	m	n/a
170.731	0.06	341462	keystroke_o	o	n/a
170.911	0.0905	341822	keystroke_n	n	n/a
171.2855	0.09	342571	keystroke_d	d	n/a
171.421	0.1355	342842	keystroke_s	s	n/a
171.5405	0.1205	343081	keystroke_Key.space	Key.space	n/a
171.7805	0.091	343561	keystroke_k	k	n/a
171.9005	0.076	343801	keystroke_e	e	n/a
172.036	0.075	344072	keystroke_n	n	n/a
172.1705	0.09	344341	keystroke_n	n	n/a
172.366	0.1045	344732	keystroke_y	y	n/a
172.4555	0.135	344911	keystroke_Key.space	Key.space	n/a
172.6965	0.135	345393	keystroke_a	a	n/a
172.8455	0.105	345691	keystroke_n	n	n/a
172.981	0.2245	345962	keystroke_s	s	n/a
173.1605	0.18	346321	keystroke_e	e	n/a
173.3715	0.18	346743	keystroke_r	r	n/a
173.536	0.12	347072	keystroke_Key.enter	Key.enter	n/a
173.6665	8.271	347333	prompt	n/a	operator giant discharge robots\n
174.8405	0.045	349681	keystroke_o	o	n/a
174.9605	0.105	349921	keystroke_p	p	n/a
175.081	0.135	350162	keystroke_e	e	n/a
175.156	0.1345	350312	keystroke_r	r	n/a
175.4415	0.029	350883	keystroke_a	a	n/a
175.696	0.1055	351392	keystroke_t	t	n/a
175.831	0.105	351662	keystroke_o	o	n/a
175.966	0.0905	351932	keystroke_r	r	n/a
176.0855	0.1355	352171	keystroke_Key.space	Key.space	n/a
176.416	0.09	352832	keystroke_g	g	n/a
176.581	0.075	353162	keystroke_i	i	n/a
176.746	0.105	353492	keystroke_a	a	n/a
176.821	0.105	353642	keystroke_n	n	n/a
176.9865	0.1345	353973	keystroke_t	t	n/a
177.106	0.1195	354212	keystroke_Key.space	Key.space	n/a
177.781	0.12	355562	keystroke_d	d	n/a
177.931	0.075	355862	keystroke_i	i	n/a
178.021	0.12	356042	keystroke_s	s	n/a
178.276	0.09	356552	keystroke_c	c	n/a
178.486	0.075	356972	keystroke_h	h	n/a
178.5915	0.104	357183	keystroke_a	a	n/a
178.786	0.1055	357572	keystroke_r	r	n/a
178.966	0.105	357932	keystroke_g	g	n/a
179.056	0.105	358112	keystroke_e	e	n/a
179.461	0.15	358922	keystroke_Key.space	Key.space	n/a
179.8215	0.18	359643	keystroke_r	r	n/a
179.9865	0.03	359973	keystroke_o	o	n/a
180.1815	0.0745	360363	keystroke_b	b	n/a
180.391	0.0895	360782	keystroke_o	o	n/a
180.4505	0.106	360901	keystroke_t	t	n/a
180.7955	0.09	361591	keystroke_s	s	n/a
181.8305	0.105	363661	keystroke_Key.enter	Key.enter	n/a
181.944	7.508	363888	prompt	n/a	worst bumper vendor champion\n
183.1815	0.06	366363	keystroke_w	w	n/a
183.256	0.0905	366512	keystroke_o	o	n/a
183.406	0.105	366812	keystroke_r	r	n/a
183.646	0.105	367292	keystroke_s	s	n/a
183.826	0.1205	367652	keystroke_t	t	n/a
183.961	0.105	367922	keystroke_Key.space	Key.space	n/a
184.201	0.075	368402	keystroke_b	b	n/a
184.396	0.0755	368792	keystroke_u	u	n/a
184.8915	0.0435	369783	keystroke_m	m	n/a
185.131	0.09	370262	keystroke_p	p	n/a
185.416	0.21	370832	keystroke_e	e	n/a
185.566	0.1655	371132	keystroke_r	r	n/a
185.7155	0.091	371431	keystroke_Key.space	Key.space	n/a
185.9865	0.12	371973	keystroke_v	v	n/a
186.1205	0.166	372241	keystroke_e	e	n/a
186.2265	0.1045	372453	keystroke_n	n	n/a
186.4215	0.119	372843	keystroke_d	d	n/a
186.5105	0.09	373021	keystroke_o	o	n/a
186.7355	0.135	373471	keystroke_r	r	n/a
186.8405	0.105	373681	keystroke_Key.space	Key.space	n/a
187.217	0.089	374434	keystroke_c	c	n/a
187.321	0.06	374642	keystroke_h	h	n/a
187.426	0.1055	374852	keystroke_a	a	n/a
187.756	0.09	375512	keystroke_m	m	n/a
187.9665	0.0895	375933	keystroke_p	p	n/a
188.431	0.075	376862	keystroke_i	i	n/a
188.551	0.12	377102	keystroke_o	o	n/a
188.746	0.105	377492	keystroke_n	n	n/a
189.3755	0.0755	378751	keystroke_Key.enter	Key.enter	n/a
189.456	7.6015	378912	prompt	n/a	bold licenses medicine exercises\n
190.681	0.0745	381362	keystroke_b	b	n/a
190.9665	0.059	381933	keystroke_o	o	n/a
191.2505	0.09	382501	keystroke_l	l	n/a
191.4005	0.12	382801	keystroke_d	d	n/a
191.5355	0.105	383071	keystroke_Key.space	Key.space	n/a
191.7305	0.075	383461	keystroke_l	l	n/a
191.9255	0.0755	383851	keystroke_i	i	n/a
192.091	0.1195	384182	keystroke_c	c	n/a
192.241	0.105	384482	keystroke_e	e	n/a
192.3305	0.091	384661	keystroke_n	n	n/a
192.496	0.2395	384992	keystroke_s	s	n/a
192.6605	0.195	385321	keystroke_e	e	n/a
192.826	0.165	385652	keystroke_s	s	n/a
192.976	0.075	385952	keystroke_Key.space	Key.space	n/a
193.141	0.1045	386282	keystroke_m	m	n/a
193.3965	0.195	386793	keystroke_e	e	n/a
193.5765	0.135	387153	keystroke_d	d	n/a
193.6815	0.1045	387363	keystroke_i	i	n/a
193.876	0.09	387752	keystroke_c	c	n/a
193.981	0.075	387962	keystroke_i	i	n/a
194.1305	0.12	388261	keystroke_n	n	n/a
194.2515	0.105	388503	keystroke_e	e	n/a
194.371	0.09	388742	keystroke_Key.space	Key.space	n/a
194.5065	0.0895	389013	keystroke_e	e	n/a
194.731	0.105	389462	keystroke_x	x	n/a
195.001	0.18	390002	keystroke_e	e	n/a
195.121	0.135	390242	keystroke_r	r	n/a
195.407	0.134	390814	keystroke_c	c	n/a
195.481	0.12	390962	keystroke_i	i	n/a
195.616	0.18	391232	keystroke_s	s	n/a
195.856	0.21	391712	keystroke_e	e	n/a
196.081	0.2255	392162	keystroke_s	s	n/a
196.9205	0.1355	393841	keystroke_Key.enter	Key.enter	n/a
197.063	7.555	394126	prompt	n/a	remote circulation somewhere sorts\n
197.896	0.195	395792	keystroke_r	r	n/a
198.0315	0.1645	396063	keystroke_e	e	n/a
198.106	0.1205	396212	keystroke_m	m	n/a
198.256	0.12	396512	keystroke_o	o	n/a
198.391	0.0455	396782	keystroke_r	r	n/a
198.751	0.09	397502	keystroke_Key.backspace	Key.backspace	n/a
198.871	0.0905	397742	keystroke_t	t	n/a
199.156	0.165	398312	keystroke_e	e	n/a
199.291	0.135	398582	keystroke_Key.space	Key.space	n/a
199.6655	0.12	399331	keystroke_c	c	n/a
199.7555	0.105	399511	keystroke_i	i	n/a
199.8755	0.1205	399751	keystroke_r	r	n/a
200.116	0.1045	400232	keystroke_c	c	n/a
200.1755	0.076	400351	keystroke_u	u	n/a
200.3715	0.1045	400743	keystroke_l	l	n/a
200.4605	0.09	400921	keystroke_a	a	n/a
200.6715	0.1045	401343	keystroke_t	t	n/a
200.7915	0.059	401583	keystroke_i	i	n/a
200.9405	0.0755	401881	keystroke_o	o	n/a
201.1205	0.1205	402241	keystroke_n	n	n/a
201.211	0.1345	402422	keystroke_Key.space	Key.space	n/a
201.5255	0.1355	403051	keystroke_s	s	n/a
201.6315	0.09	403263	keystroke_o	o	n/a
201.7805	0.136	403561	keystroke_m	m	n/a
201.8715	0.105	403743	keystroke_e	e	n/a
202.111	0.135	404222	keystroke_w	w	n/a
202.411	0.105	404822	keystroke_h	h	n/a
202.831	0.1355	405662	keystroke_e	e	n/a
202.936	0.195	405872	keystroke_r	r	n/a
203.176	0.135	406352	keystroke_e	e	n/a
203.461	0.1055	406922	keystroke_Key.space	Key.space	n/a
203.6865	0.119	407373	keystroke_s	s	n/a
203.761	0.1055	407522	keystroke_o	o	n/a
203.8815	0.104	407763	keystroke_r	r	n/a
204.0915	0.0895	408183	keystroke_t	t	n/a
204.3005	0.105	408601	keystroke_s	s	n/a
204.4665	0.149	408933	keystroke_Key.enter	Key.enter	n/a
204.6225	5.545	409245	prompt	n/a	grand possible complete posts\n
205.381	0.12	410762	keystroke_g	g	n/a
205.546	0.135	411092	keystroke_r	r	n/a
205.801	0.105	411602	keystroke_a	a	n/a
206.026	0.09	412052	keystroke_n	n	n/a
206.176	0.12	412352	keystroke_d	d	n/a
206.281	0.105	412562	keystroke_Key.space	Key.space	n/a
206.551	0.075	413102	keystroke_p	p	n/a
206.731	0.075	413462	keystroke_o	o	n/a
206.821	0.075	413642	keystroke_s	s	n/a
206.9865	0.0745	413973	keystroke_s	s	n/a
207.046	0.09	414092	keystroke_i	i	n/a
207.241	0.0905	414482	keystroke_b	b	n/a
207.436	0.12	414872	keystroke_l	l	n/a
207.526	0.1055	415052	keystroke_e	e	n/a
207.661	0.09	415322	keystroke_Key.space	Key.space	n/a
207.7965	0.09	415593	keystroke_c	c	n/a
207.9015	0.06	415803	keystroke_o	o	n/a
208.081	0.06	416162	keystroke_m	m	n/a
208.2765	0.06	416553	keystroke_p	p	n/a
208.4265	0.09	416853	keystroke_l	l	n/a
208.4715	0.089	416943	keystroke_e	e	n/a
208.6955	0.181	417391	keystroke_t	t	n/a
208.8915	0.149	417783	keystroke_e	e	n/a
208.981	0.1045	417962	keystroke_Key.space	Key.space	n/a
209.1465	0.09	418293	keystroke_p	p	n/a
209.341	0.09	418682	keystroke_o	o	n/a
209.431	0.075	418862	keystroke_s	s	n/a
209.611	0.105	419222	keystroke_t	t	n/a
209.8215	0.105	419643	keystroke_s	s	n/a
210.0465	0.1195	420093	keystroke_Key.enter	Key.enter	n/a
210.173	9.145	420346	prompt	n/a	studio beyond appeared wonder\n
210.9615	0.119	421923	keystroke_s	s	n/a
211.171	0.0605	422342	keystroke_t	t	n/a
211.2615	0.104	422523	keystroke_u	u	n/a
211.4865	0.135	422973	keystroke_d	d	n/a
211.5605	0.076	423121	keystroke_i	i	n/a
211.7405	0.09	423481	keystroke_o	o	n/a
211.8915	0.134	423783	keystroke_Key.space	Key.space	n/a
212.326	0.0895	424652	keystroke_b	b	n/a
212.4305	0.12	424861	keystroke_e	e	n/a
212.8655	0.09	425731	keystroke_t	t	n/a
212.9415	0.09	425883	keystroke_o	o	n/a
213.3915	0.0445	426783	keystroke_Key.backspace	Key.backspace	n/a
213.511	0.0745	427022	keystroke_Key.backspace	Key.backspace	n/a
213.5705	0.1055	427141	keystroke_y	y	n/a
213.7355	0.0755	427471	keystroke_o	o	n/a
213.9005	0.1355	427801	keystroke_n	n	n/a
214.2755	0.1055	428551	keystroke_f	f	n/a
214.366	0.15	428732	keystroke_Key.space	Key.space	n/a
214.681	0.06	429362	keystroke_Key.backspace	Key.backspace	n/a
214.801	0.12	429602	keystroke_Key.backspace	Key.backspace	n/a
214.846	0.135	429692	keystroke_d	d	n/a
214.966	0.135	429932	keystroke_Key.space	Key.space	n/a
215.701	0.1045	431402	keystroke_a	a	n/a
215.8065	0.06	431613	keystroke_p	p	n/a
215.9415	0.104	431883	keystroke_p	p	n/a
216.1815	0.105	432363	keystroke_e	e	n/a
216.3465	0.104	432693	keystroke_a	a	n/a
216.4965	0.135	432993	keystroke_r	r	n/a
216.7065	0.179	433413	keystroke_e	e	n/a
216.8565	0.1645	433713	keystroke_d	d	n/a
216.991	0.1345	433982	keystroke_Key.space	Key.space	n/a
217.276	0.12	434552	keystroke_w	w	n/a
217.351	0.075	434702	keystroke_o	o	n/a
217.5155	0.09	435031	keystroke_n	n	n/a
217.5765	0.119	435153	keystroke_d	d	n/a
217.711	0.1045	435422	keystroke_e	e	n/a
217.8755	0.105	435751	keystroke_r	r	n/a
219.2415	0.0745	438483	keystroke_Key.enter	Key.enter	n/a
219.3225	10.09	438645	prompt	n/a	with exclusive copyrighted pure\n
220.096	0.1205	440192	keystroke_w	w	n/a
220.231	0.0755	440462	keystroke_i	i	n/a
220.3665	0.135	440733	keystroke_t	t	n/a
220.5015	0.09	441003	keystroke_h	h	n/a
220.6065	0.105	441213	keystroke_Key.space	Key.space	n/a
220.801	0.0755	441602	keystroke_e	e	n/a
221.0565	0.1195	442113	keystroke_x	x	n/a
221.222	0.075	442444	keystroke_l	l	n/a
221.521	0.06	443042	keystroke_Key.backspace	Key.backspace	n/a
221.611	0.105	443222	keystroke_c	c	n/a
221.7165	0.0895	443433	keystroke_l	l	n/a
221.986	0.09	443972	keystroke_u	u	n/a
222.466	0.105	444932	keystroke_s	s	n/a
222.616	0.09	445232	keystroke_i	i	n/a
222.691	0.135	445382	keystroke_v	v	n/a
222.841	0.1355	445682	keystroke_e	e	n/a
222.901	0.12	445802	keystroke_Key.space	Key.space	n/a
223.156	0.075	446312	keystroke_o	o	n/a
223.3355	0.09	446671	keystroke_p	p	n/a
224.6555	0.06	449311	keystroke_Key.backspace	Key.backspace	n/a
224.7905	0.0605	449581	keystroke_Key.backspace	Key.backspace	n/a
224.8965	0.105	449793	keystroke_c	c	n/a
225.016	0.0755	450032	keystroke_p	p	n/a
225.3905	0.06	450781	keystroke_Key.backspace	Key.backspace	n/a
225.5705	0.076	451141	keystroke_o	o	n/a
225.7655	0.075	451531	keystroke_p	p	n/a
226.066	0.0905	452132	keystroke_y	y	n/a
226.3655	0.1205	452731	keystroke_r	r	n/a
226.4705	0.0755	452941	keystroke_i	i	n/a
226.7105	0.0755	453421	keystroke_g	g	n/a
226.9055	0.075	453811	keystroke_h	h	n/a
226.9965	0.09	453993	keystroke_t	t	n/a
227.2355	0.1205	454471	keystroke_e	e	n/a
227.3415	0.1195	454683	keystroke_d	d	n/a
227.431	0.12	454862	keystroke_Key.space	Key.space	n/a
228	0.0765	456000	keystroke_p	p	n/a
228.2855	0.0905	456571	keystroke_u	u	n/a
228.406	0.1645	456812	keystroke_r	r	n/a
228.5255	0.195	457051	keystroke_e	e	n/a
229.3365	0.074	458673	keystroke_Key.enter	Key.enter	n/a
229.418	6.595	458836	prompt	n/a	who'd stone york except\n
229.9815	0.165	459963	keystroke_w	w	n/a
230.4915	0.135	460983	keystroke_h	h	n/a
230.7305	0.09	461461	keystroke_o	o	n/a
231.1965	0.075	462393	keystroke_'	'	n/a
231.3615	0.12	462723	keystroke_d	d	n/a
231.4955	0.105	462991	keystroke_Key.space	Key.space	n/a
231.706	0.0895	463412	keystroke_s	s	n/a
231.8705	0.121	463741	keystroke_t	t	n/a
231.9925	0.074	463985	keystroke_o	o	n/a
232.1715	0.12	464343	keystroke_n	n	n/a
232.292	0.104	464584	keystroke_e	e	n/a
232.4105	0.0895	464821	keystroke_Key.space	Key.space	n/a
233.101	0.1055	466202	keystroke_y	y	n/a
233.1765	0.0895	466353	keystroke_o	o	n/a
233.341	0.12	466682	keystroke_r	r	n/a
233.4165	0.1045	466833	keystroke_k	k	n/a
233.581	0.12	467162	keystroke_Key.space	Key.space	n/a
234.001	0.045	468002	keystroke_e	e	n/a
234.196	0.105	468392	keystroke_x	x	n/a
234.496	0.1055	468992	keystroke_c	c	n/a
234.586	0.18	469172	keystroke_e	e	n/a
234.691	0.105	469382	keystroke_p	p	n/a
234.871	0.135	469742	keystroke_t	t	n/a
235.936	0.075	471872	keystroke_Key.enter	Key.enter	n/a
236.0205	9.262	472041	prompt	n/a	consequence president circle gifts\n
236.7765	0.12	473553	keystroke_c	c	n/a
237.0165	0.0745	474033	keystroke_o	o	n/a
237.211	0.0905	474422	keystroke_n	n	n/a
237.376	0.12	474752	keystroke_s	s	n/a
237.526	0.135	475052	keystroke_e	e	n/a
237.826	0.135	475652	keystroke_q	q	n/a
237.916	0.09	475832	keystroke_u	u	n/a
238.471	0.0905	476942	keystroke_e	e	n/a
238.5905	0.075	477181	keystroke_n	n	n/a
238.696	0.0905	477392	keystroke_c	c	n/a
238.8155	0.15	477631	keystroke_e	e	n/a
238.9055	0.12	477811	keystroke_Key.space	Key.space	n/a
239.2205	0.076	478441	keystroke_p	p	n/a
239.3255	0.1805	478651	keystroke_r	r	n/a
239.476	0.105	478952	keystroke_e	e	n/a
239.7465	0.0745	479493	keystroke_s	s	n/a
239.806	0.105	479612	keystroke_i	i	n/a
240.2265	0.135	480453	keystroke_d	d	n/a
240.376	0.0755	480752	keystroke_e	e	n/a
240.4355	0.121	480871	keystroke_n	n	n/a
240.5865	0.135	481173	keystroke_t	t	n/a
240.7065	0.1185	481413	keystroke_Key.space	Key.space	n/a
240.9165	0.12	481833	keystroke_c	c	n/a
241.021	0.12	482042	keystroke_i	i	n/a
241.126	0.1645	482252	keystroke_r	r	n/a
241.6065	0.1045	483213	keystroke_c	c	n/a
241.846	0.105	483692	keystroke_l	l	n/a
241.9805	0.105	483961	keystroke_e	e	n/a
242.0405	0.1055	484081	keystroke_Key.space	Key.space	n/a
242.311	0.045	484622	keystroke_i	i	n/a
242.3415	0.1195	484683	keystroke_g	g	n/a
242.656	0.06	485312	keystroke_Key.backspace	Key.backspace	n/a
242.776	0.09	485552	keystroke_Key.backspace	Key.backspace	n/a
242.851	0.09	485702	keystroke_g	g	n/a
242.986	0.09	485972	keystroke_i	i	n/a
244.006	0.075	488012	keystroke_f	f	n/a
244.186	0.1195	488372	keystroke_t	t	n/a
244.8155	0.0905	489631	keystroke_s	s	n/a
245.2055	0.075	490411	keystroke_Key.enter	Key.enter	n/a
245.287	10.4355	490574	prompt	n/a	resident kinda incorporate extraction\n
246.061	0.1795	492122	keystroke_r	r	n/a
246.2105	0.105	492421	keystroke_e	e	n/a
246.736	0.12	493472	keystroke_s	s	n/a
246.8415	0.0895	493683	keystroke_i	i	n/a
246.9455	0.15	493891	keystroke_d	d	n/a
247.08	0.106	494160	keystroke_e	e	n/a
247.17	0.106	494340	keystroke_n	n	n/a
247.291	0.1345	494582	keystroke_t	t	n/a
247.441	0.0895	494882	keystroke_Key.space	Key.space	n/a
248.0105	0.105	496021	keystroke_k	k	n/a
248.1755	0.0755	496351	keystroke_i	i	n/a
248.3405	0.1055	496681	keystroke_n	n	n/a
248.461	0.12	496922	keystroke_d	d	n/a
248.716	0.165	497432	keystroke_a	a	n/a
248.866	0.105	497732	keystroke_Key.space	Key.space	n/a
249.046	0.09	498092	keystroke_i	i	n/a
249.196	0.1045	498392	keystroke_n	n	n/a
249.3015	0.1045	498603	keystroke_s	s	n/a
249.7355	0.0905	499471	keystroke_Key.backspace	Key.backspace	n/a
249.871	0.105	499742	keystroke_c	c	n/a
249.991	0.105	499982	keystroke_o	o	n/a
250.786	0.12	501572	keystroke_r	r	n/a
251.086	0.09	502172	keystroke_p	p	n/a
251.341	0.09	502682	keystroke_o	o	n/a
251.386	0.1055	502772	keystroke_r	r	n/a
251.626	0.09	503252	keystroke_a	a	n/a
251.866	0.1205	503732	keystroke_t	t	n/a
252.016	0.135	504032	keystroke_e	e	n/a
252.106	0.105	504212	keystroke_Key.space	Key.space	n/a
252.376	0.105	504752	keystroke_e	e	n/a
252.631	0.0755	505262	keystroke_x	x	n/a
252.871	0.09	505742	keystroke_t	t	n/a
253.096	0.105	506192	keystroke_r	r	n/a
253.5015	0.1195	507003	keystroke_a	a	n/a
254.3405	0.106	508681	keystroke_c	c	n/a
254.5655	0.09	509131	keystroke_t	t	n/a
254.641	0.0745	509282	keystroke_i	i	n/a
254.806	0.0745	509612	keystroke_o	o	n/a
254.941	0.1195	509882	keystroke_n	n	n/a
255.6305	0.09	511261	keystroke_Key.enter	Key.enter	n/a
255.729	15.5635	511458	prompt	n/a	certainly rouge prince document\n
256.3805	0.1655	512761	keystroke_c	c	n/a
256.606	0.18	513212	keystroke_e	e	n/a
256.7255	0.09	513451	keystroke_r	r	n/a
256.9205	0.075	513841	keystroke_t	t	n/a
257.1305	0.076	514261	keystroke_i	i	n/a
257.1465	0.0895	514293	keystroke_a	a	n/a
257.3105	0.0905	514621	keystroke_n	n	n/a
257.461	0.135	514922	keystroke_l	l	n/a
257.566	0.134	515132	keystroke_y	y	n/a
258.541	0.195	517082	keystroke_Key.space	Key.space	n/a
259.096	0.12	518192	keystroke_r	r	n/a
259.276	0.105	518552	keystroke_o	o	n/a
259.5155	0.09	519031	keystroke_u	u	n/a
260.116	0.135	520232	keystroke_g	g	n/a
260.236	0.165	520472	keystroke_e	e	n/a
260.341	0.105	520682	keystroke_Key.space	Key.space	n/a
263.8655	0.09	527731	keystroke_Key.right	Key.right	n/a
264.0455	0.0755	528091	keystroke_Key.right	Key.right	n/a
264.3455	0.0755	528691	keystroke_Key.backspace	Key.backspace	n/a
264.691	0.149	529382	keystroke_Key.right	Key.right	n/a
265.4105	0.06	530821	keystroke_i	i	n/a
267.0305	0.09	534061	keystroke_p	p	n/a
267.1665	0.12	534333	keystroke_r	r	n/a
267.301	0.09	534602	keystroke_i	i	n/a
267.4805	0.1205	534961	keystroke_n	n	n/a
267.721	0.105	535442	keystroke_c	c	n/a
267.87	0.166	535740	keystroke_e	e	n/a
267.9755	0.12	535951	keystroke_Key.space	Key.space	n/a
268.2755	0.136	536551	keystroke_d	d	n/a
268.3655	0.0755	536731	keystroke_o	o	n/a
268.7255	0.075	537451	keystroke_u	u	n/a
269.086	0.0745	538172	keystroke_Key.backspace	Key.backspace	n/a
269.1765	0.0895	538353	keystroke_c	c	n/a
269.3705	0.015	538741	keystroke_u	u	n/a
269.656	0.1195	539312	keystroke_t	t	n/a
270.0455	0.0605	540091	keystroke_Key.backspace	Key.backspace	n/a
270.256	0.09	540512	keystroke_m	m	n/a
270.376	0.09	540752	keystroke_e	e	n/a
270.4815	0.0745	540963	keystroke_n	n	n/a
270.511	0.1345	541022	keystroke_t	t	n/a
271.216	0.0745	542432	keystroke_Key.enter	Key.enter	n/a
271.298	8.6795	542596	prompt	n/a	section licensed floating homepage\n
271.966	0.09	543932	keystroke_c	c	n/a
272.235	0.105	544470	keystroke_Key.backspace	Key.backspace	n/a
272.326	0.194	544652	keystroke_s	s	n/a
272.446	0.149	544892	keystroke_e	e	n/a
272.686	0.105	545372	keystroke_c	c	n/a
272.8805	0.1055	545761	keystroke_t	t	n/a
272.971	0.06	545942	keystroke_i	i	n/a
273.121	0.075	546242	keystroke_o	o	n/a
273.301	0.1045	546602	keystroke_n	n	n/a
273.3755	0.1355	546751	keystroke_Key.space	Key.space	n/a
273.6755	0.0755	547351	keystroke_l	l	n/a
273.8855	0.0605	547771	keystroke_i	i	n/a
274.021	0.09	548042	keystroke_n	n	n/a
274.351	0.0745	548702	keystroke_Key.backspace	Key.backspace	n/a
274.411	0.12	548822	keystroke_c	c	n/a
274.546	0.134	549092	keystroke_e	e	n/a
274.666	0.089	549332	keystroke_n	n	n/a
275.206	0.1945	550412	keystroke_s	s	n/a
275.326	0.18	550652	keystroke_e	e	n/a
275.476	0.135	550952	keystroke_d	d	n/a
275.881	0.09	551762	keystroke_Key.space	Key.space	n/a
276.046	0.105	552092	keystroke_f	f	n/a
276.166	0.075	552332	keystroke_l	l	n/a
276.376	0.075	552752	keystroke_o	o	n/a
276.676	0.075	553352	keystroke_a	a	n/a
276.886	0.105	553772	keystroke_t	t	n/a
277.006	0.075	554012	keystroke_i	i	n/a
277.186	0.09	554372	keystroke_n	n	n/a
277.321	0.105	554642	keystroke_g	g	n/a
277.4555	0.1355	554911	keystroke_Key.space	Key.space	n/a
278.0255	0.06	556051	keystroke_h	h	n/a
278.2205	0.075	556441	keystroke_o	o	n/a
278.4005	0.0905	556801	keystroke_m	m	n/a
278.506	0.105	557012	keystroke_e	e	n/a
278.761	0.09	557522	keystroke_p	p	n/a
278.881	0.105	557762	keystroke_a	a	n/a
279.061	0.09	558122	keystroke_g	g	n/a
279.181	0.105	558362	keystroke_e	e	n/a
279.901	0.075	559802	keystroke_Key.enter	Key.enter	n/a
279.984	9.8935	559968	prompt	n/a	meyer opposite copies drilling\n
280.9355	0.0905	561871	keystroke_m	m	n/a
281.085	0.121	562170	keystroke_e	e	n/a
281.326	0.09	562652	keystroke_y	y	n/a
281.446	0.105	562892	keystroke_e	e	n/a
281.671	0.075	563342	keystroke_r	r	n/a
281.761	0.12	563522	keystroke_Key.space	Key.space	n/a
282.136	0.075	564272	keystroke_o	o	n/a
282.421	0.059	564842	keystroke_p	p	n/a
282.5715	0.0595	565143	keystroke_p	p	n/a
282.721	0.089	565442	keystroke_o	o	n/a
283.366	0.0595	566732	keystroke_s	s	n/a
283.4405	0.0455	566881	keystroke_i	i	n/a
283.6805	0.2105	567361	keystroke_r	r	n/a
284.1905	0.0595	568381	keystroke_Key.backspace	Key.backspace	n/a
284.236	0.0895	568472	keystroke_t	t	n/a
284.4005	0.1355	568801	keystroke_e	e	n/a
284.551	0.1195	569102	keystroke_Key.space	Key.space	n/a
285.0155	0.1055	570031	keystroke_c	c	n/a
285.151	0.06	570302	keystroke_o	o	n/a
285.3155	0.076	570631	keystroke_p	p	n/a
285.5255	0.075	571051	keystroke_i	i	n/a
285.6155	0.09	571231	keystroke_e	e	n/a
285.811	0.105	571622	keystroke_s	s	n/a
285.9165	0.119	571833	keystroke_Key.space	Key.space	n/a
286.4405	0.1205	572881	keystroke_d	d	n/a
286.651	0.09	573302	keystroke_r	r	n/a
286.7555	0.075	573511	keystroke_i	i	n/a
286.9805	0.045	573961	keystroke_l	l	n/a
287.101	0.06	574202	keystroke_l	l	n/a
287.2805	0.0605	574561	keystroke_i	i	n/a
287.431	0.09	574862	keystroke_n	n	n/a
287.551	0.134	575102	keystroke_g	g	n/a
289.862	0.014	579724	keystroke_Key.enter	Key.enter	n/a
289.883	8.6045	579766	prompt	n/a	chapters compensation momentum suggestion\n
290.731	0.12	581462	keystroke_c	c	n/a
290.896	0.075	581792	keystroke_h	h	n/a
290.986	0.12	581972	keystroke_a	a	n/a
291.151	0.075	582302	keystroke_p	p	n/a
291.3	0.0905	582600	keystroke_t	t	n/a
291.48	0.166	582960	keystroke_e	e	n/a
291.6	0.135	583200	keystroke_r	r	n/a
291.826	0.1205	583652	keystroke_s	s	n/a
291.9	0.12	583800	keystroke_Key.space	Key.space	n/a
292.095	0.091	584190	keystroke_c	c	n/a
292.171	0.09	584342	keystroke_o	o	n/a
292.38	0.091	584760	keystroke_m	m	n/a
292.635	0.091	585270	keystroke_p	p	n/a
292.891	0.0895	585782	keystroke_e	e	n/a
293.025	0.076	586050	keystroke_n	n	n/a
293.161	0.0905	586322	keystroke_s	s	n/a
293.37	0.076	586740	keystroke_a	a	n/a
293.581	0.075	587162	keystroke_t	t	n/a
293.717	0.059	587434	keystroke_i	i	n/a
293.8815	0.0745	587763	keystroke_o	o	n/a
294.076	0.09	588152	keystroke_n	n	n/a
294.181	0.12	588362	keystroke_Key.space	Key.space	n/a
294.361	0.105	588722	keystroke_m	m	n/a
294.616	0.06	589232	keystroke_o	o	n/a
294.901	0.089	589802	keystroke_m	m	n/a
295.0355	0.0755	590071	keystroke_e	e	n/a
295.185	0.0915	590370	keystroke_n	n	n/a
295.336	0.09	590672	keystroke_t	t	n/a
295.7715	0.0745	591543	keystroke_u	u	n/a
295.981	0.1195	591962	keystroke_m	m	n/a
296.116	0.1345	592232	keystroke_Key.space	Key.space	n/a
296.2965	0.1345	592593	keystroke_s	s	n/a
296.4155	0.075	592831	keystroke_u	u	n/a
296.641	0.0605	593282	keystroke_g	g	n/a
296.761	0.0895	593522	keystroke_g	g	n/a
296.881	0.0895	593762	keystroke_e	e	n/a
297.0605	0.075	594121	keystroke_s	s	n/a
297.2255	0.075	594451	keystroke_t	t	n/a
297.3615	0.044	594723	keystroke_i	i	n/a
297.526	0.075	595052	keystroke_o	o	n/a
297.706	0.075	595412	keystroke_n	n	n/a
298.4105	0.075	596821	keystroke_Key.enter	Key.enter	n/a
298.494	7.0285	596988	prompt	n/a	herald motel associate yale\n
299.386	0.075	598772	keystroke_h	h	n/a
299.566	0.09	599132	keystroke_e	e	n/a
299.806	0.09	599612	keystroke_r	r	n/a
300.061	0.105	600122	keystroke_a	a	n/a
300.121	0.105	600242	keystroke_l	l	n/a
300.886	0.1345	601772	keystroke_d	d	n/a
301.036	0.1195	602072	keystroke_Key.space	Key.space	n/a
301.2755	0.076	602551	keystroke_m	m	n/a
301.456	0.0755	602912	keystroke_o	o	n/a
301.576	0.1195	603152	keystroke_t	t	n/a
301.7855	0.0895	603571	keystroke_e	e	n/a
301.876	0.089	603752	keystroke_l	l	n/a
302.0105	0.1205	604021	keystroke_Key.space	Key.space	n/a
302.1755	0.0895	604351	keystroke_a	a	n/a
302.371	0.074	604742	keystroke_s	s	n/a
302.536	0.06	605072	keystroke_s	s	n/a
302.626	0.09	605252	keystroke_o	o	n/a
302.896	0.105	605792	keystroke_c	c	n/a
303.061	0.09	606122	keystroke_i	i	n/a
303.181	0.0905	606362	keystroke_a	a	n/a
303.556	0.12	607112	keystroke_t	t	n/a
303.766	0.12	607532	keystroke_e	e	n/a
303.871	0.135	607742	keystroke_Key.space	Key.space	n/a
304.785	0.0605	609570	keystroke_y	y	n/a
304.936	0.1045	609872	keystroke_a	a	n/a
305.0855	0.09	610171	keystroke_l	l	n/a
305.1605	0.105	610321	keystroke_e	e	n/a
305.3855	0.1355	610771	keystroke_Key.enter	Key.enter	n/a
305.528	9.6395	611056	prompt	n/a	safari clusters invision armenia\n
306.2115	0.0745	612423	keystroke_s	s	n/a
306.42	0.061	612840	keystroke_a	a	n/a
306.5855	0.09	613171	keystroke_f	f	n/a
306.7655	0.105	613531	keystroke_a	a	n/a
306.946	0.09	613892	keystroke_r	r	n/a
307.066	0.105	614132	keystroke_i	i	n/a
307.216	0.105	614432	keystroke_Key.space	Key.space	n/a
307.5155	0.0455	615031	keystroke_s	s	n/a
307.8305	0.075	615661	keystroke_Key.backspace	Key.backspace	n/a
307.951	0.0595	615902	keystroke_c	c	n/a
308.0555	0.0905	616111	keystroke_l	l	n/a
308.326	0.0745	616652	keystroke_u	u	n/a
308.4155	0.1055	616831	keystroke_s	s	n/a
308.61	0.12	617220	keystroke_t	t	n/a
308.7755	0.1805	617551	keystroke_e	e	n/a
308.896	0.164	617792	keystroke_r	r	n/a
309.1505	0.1355	618301	keystroke_s	s	n/a
309.24	0.106	618480	keystroke_Key.space	Key.space	n/a
309.466	0.06	618932	keystroke_i	i	n/a
309.616	0.1045	619232	keystroke_n	n	n/a
309.976	0.105	619952	keystroke_v	v	n/a
310.096	0.09	620192	keystroke_i	i	n/a
310.201	0.12	620402	keystroke_s	s	n/a
310.336	0.06	620672	keystroke_i	i	n/a
310.501	0.075	621002	keystroke_o	o	n/a
310.696	0.12	621392	keystroke_n	n	n/a
310.801	0.105	621602	keystroke_Key.space	Key.space	n/a
311.2665	0.089	622533	keystroke_a	a	n/a
311.4605	0.0905	622921	keystroke_r	r	n/a
311.7155	0.0755	623431	keystroke_m	m	n/a
311.851	0.12	623702	keystroke_e	e	n/a
312.211	0.075	624422	keystroke_n	n	n/a
312.3605	0.09	624721	keystroke_i	i	n/a
312.4355	0.1205	624871	keystroke_a	a	n/a
315.1385	0.0275	630277	keystroke_Key.enter	Key.enter	n/a
315.1735	6.834	630347	prompt	n/a	clerk cartridge such vista\n
315.8105	0.15	631621	keystroke_c	c	n/a
316.1715	0.12	632343	keystroke_l	l	n/a
316.3205	0.09	632641	keystroke_e	e	n/a
316.545	0.061	633090	keystroke_r	r	n/a
316.6215	0.089	633243	keystroke_k	k	n/a
316.7865	0.119	633573	keystroke_Key.space	Key.space	n/a
317.0415	0.089	634083	keystroke_c	c	n/a
317.2055	0.121	634411	keystroke_a	a	n/a
317.431	0.105	634862	keystroke_r	r	n/a
317.641	0.09	635282	keystroke_t	t	n/a
318.7215	0.12	637443	keystroke_r	r	n/a
318.8555	0.075	637711	keystroke_i	i	n/a
319.0515	0.1345	638103	keystroke_d	d	n/a
319.306	0.104	638612	keystroke_g	g	n/a
319.4265	0.105	638853	keystroke_e	e	n/a
319.4855	0.12	638971	keystroke_Key.space	Key.space	n/a
319.7855	0.106	639571	keystroke_s	s	n/a
319.8755	0.0755	639751	keystroke_u	u	n/a
319.966	0.1195	639932	keystroke_c	c	n/a
320.0705	0.105	640141	keystroke_h	h	n/a
320.1905	0.105	640381	keystroke_Key.space	Key.space	n/a
320.5205	0.1355	641041	keystroke_v	v	n/a
320.641	0.135	641282	keystroke_i	i	n/a
320.821	0.0755	641642	keystroke_s	s	n/a
321.031	0.105	642062	keystroke_t	t	n/a
321.361	0.105	642722	keystroke_a	a	n/a
321.9155	0.0905	643831	keystroke_Key.enter	Key.enter	n/a
322.0115	5.7555	644023	prompt	n/a	hints hunt format attempt\n
322.651	0.09	645302	keystroke_h	h	n/a
322.801	0.1055	645602	keystroke_i	i	n/a
322.966	0.1055	645932	keystroke_n	n	n/a
323.086	0.105	646172	keystroke_g	g	n/a
323.5355	0.105	647071	keystroke_Key.backspace	Key.backspace	n/a
323.626	0.105	647252	keystroke_t	t	n/a
323.8805	0.135	647761	keystroke_s	s	n/a
324.0305	0.0455	648061	keystroke_Key.space	Key.space	n/a
324.2865	0.0745	648573	keystroke_h	h	n/a
324.4505	0.091	648901	keystroke_u	u	n/a
324.5855	0.1055	649171	keystroke_n	n	n/a
324.766	0.105	649532	keystroke_t	t	n/a
324.901	0.12	649802	keystroke_Key.space	Key.space	n/a
325.156	0.105	650312	keystroke_f	f	n/a
325.276	0.045	650552	keystroke_o	o	n/a
325.351	0.0895	650702	keystroke_r	r	n/a
325.5015	0.089	651003	keystroke_m	m	n/a
325.6205	0.0905	651241	keystroke_a	a	n/a
325.846	0.075	651692	keystroke_t	t	n/a
325.9505	0.12	651901	keystroke_Key.space	Key.space	n/a
326.1755	0.09	652351	keystroke_a	a	n/a
326.386	0.075	652772	keystroke_t	t	n/a
326.536	0.09	653072	keystroke_t	t	n/a
326.6715	0.1195	653343	keystroke_e	e	n/a
326.776	0.09	653552	keystroke_m	m	n/a
326.956	0.105	653912	keystroke_p	p	n/a
327.046	0.105	654092	keystroke_t	t	n/a
327.676	0.0895	655352	keystroke_Key.enter	Key.enter	n/a
327.772	7.8555	655544	prompt	n/a	specs amber suzuki cylinder\n
328.6055	0.135	657211	keystroke_s	s	n/a
328.7415	0.0895	657483	keystroke_p	p	n/a
328.846	0.105	657692	keystroke_e	e	n/a
329.0565	0.1045	658113	keystroke_c	c	n/a
329.221	0.105	658442	keystroke_s	s	n/a
329.341	0.0895	658682	keystroke_Key.space	Key.space	n/a
329.5355	0.09	659071	keystroke_a	a	n/a
329.611	0.105	659222	keystroke_m	m	n/a
329.896	0.09	659792	keystroke_b	b	n/a
330.046	0.105	660092	keystroke_e	e	n/a
330.271	0.075	660542	keystroke_r	r	n/a
330.406	0.1045	660812	keystroke_Key.space	Key.space	n/a
330.676	0.0895	661352	keystroke_s	s	n/a
330.9455	0.0755	661891	keystroke_u	u	n/a
331.3205	0.1505	662641	keystroke_z	z	n/a
331.4105	0.09	662821	keystroke_u	u	n/a
331.711	0.0745	663422	keystroke_k	k	n/a
331.906	0.075	663812	keystroke_i	i	n/a
332.1305	0.1055	664261	keystroke_Key.space	Key.space	n/a
332.881	0.09	665762	keystroke_c	c	n/a
332.972	0.089	665944	keystroke_y	y	n/a
333.4655	0.076	666931	keystroke_l	l	n/a
333.6905	0.061	667381	keystroke_i	i	n/a
333.856	0.105	667712	keystroke_n	n	n/a
334.2155	0.1355	668431	keystroke_d	d	n/a
334.3515	0.1045	668703	keystroke_e	e	n/a
334.546	0.09	669092	keystroke_r	r	n/a
335.551	0.075	671102	keystroke_Key.enter	Key.enter	n/a
335.631	11.3965	671262	prompt	n/a	thursday jazz youth antivirus\n
336.5555	0.09	673111	keystroke_t	t	n/a
336.691	0.09	673382	keystroke_h	h	n/a
336.8255	0.105	673651	keystroke_r	r	n/a
336.961	0.075	673922	keystroke_u	u	n/a
337.066	0.1205	674132	keystroke_s	s	n/a
337.456	0.12	674912	keystroke_d	d	n/a
337.636	0.135	675272	keystroke_a	a	n/a
337.681	0.12	675362	keystroke_y	y	n/a
337.8755	0.0905	675751	keystroke_Key.space	Key.space	n/a
338.161	0.0895	676322	keystroke_j	j	n/a
338.5655	0.075	677131	keystroke_a	a	n/a
338.7905	0.0905	677581	keystroke_z	z	n/a
338.971	0.075	677942	keystroke_z	z	n/a
339.031	0.105	678062	keystroke_Key.space	Key.space	n/a
339.3315	0.1045	678663	keystroke_y	y	n/a
339.616	0.075	679232	keystroke_o	o	n/a
339.751	0.12	679502	keystroke_t	t	n/a
339.8715	0.0885	679743	keystroke_h	h	n/a
340.036	0.1345	680072	keystroke_Key.space	Key.space	n/a
340.4555	0.0605	680911	keystroke_Key.backspace	Key.backspace	n/a
340.591	0.0745	681182	keystroke_Key.backspace	Key.backspace	n/a
340.711	0.09	681422	keystroke_Key.backspace	Key.backspace	n/a
340.996	0.075	681992	keystroke_u	u	n/a
341.101	0.135	682202	keystroke_t	t	n/a
341.191	0.09	682382	keystroke_h	h	n/a
341.311	0.12	682622	keystroke_Key.space	Key.space	n/a
342.001	0.1045	684002	keystroke_a	a	n/a
342.3155	0.091	684631	keystroke_n	n	n/a
342.466	0.0755	684932	keystroke_t	t	n/a
342.5565	0.0595	685113	keystroke_i	i	n/a
343.0815	0.1195	686163	keystroke_v	v	n/a
343.216	0.06	686432	keystroke_i	i	n/a
343.351	0.105	686702	keystroke_s	s	n/a
343.4565	0.0745	686913	keystroke_u	u	n/a
343.786	0.06	687572	keystroke_Key.backspace	Key.backspace	n/a
343.906	0.105	687812	keystroke_Key.backspace	Key.backspace	n/a
344.026	0.075	688052	keystroke_r	r	n/a
344.2965	0.0745	688593	keystroke_s	s	n/a
344.6405	0.0905	689281	keystroke_Key.backspace	Key.backspace	n/a
344.8955	0.09	689791	keystroke_u	u	n/a
344.9705	0.135	689941	keystroke_s	s	n/a
346.8755	0.1505	693751	keystroke_Key.enter	Key.enter	n/a
347.035	6.2925	694070	prompt	n/a	kids winter tones instrumental\n
347.836	0.0895	695672	keystroke_k	k	n/a
348.046	0.09	696092	keystroke_i	i	n/a
348.121	0.12	696242	keystroke_d	d	n/a
348.301	0.12	696602	keystroke_s	s	n/a
348.406	0.12	696812	keystroke_Key.space	Key.space	n/a
348.811	0.105	697622	keystroke_w	w	n/a
348.9165	0.0745	697833	keystroke_i	i	n/a
349.081	0.0895	698162	keystroke_n	n	n/a
349.2155	0.135	698431	keystroke_d	d	n/a
349.3655	0.09	698731	keystroke_e	e	n/a
349.5455	0.0905	699091	keystroke_r	r	n/a
349.681	0.105	699362	keystroke_Key.space	Key.space	n/a
349.7705	0.1055	699541	keystroke_t	t	n/a
349.9205	0.076	699841	keystroke_o	o	n/a
350.1005	0.0905	700201	keystroke_n	n	n/a
350.1755	0.09	700351	keystroke_e	e	n/a
350.3715	0.104	700743	keystroke_s	s	n/a
350.446	0.0895	700892	keystroke_Key.space	Key.space	n/a
350.671	0.06	701342	keystroke_i	i	n/a
350.806	0.105	701612	keystroke_n	n	n/a
351.136	0.091	702272	keystroke_s	s	n/a
351.3005	0.076	702601	keystroke_t	t	n/a
351.5715	0.075	703143	keystroke_r	r	n/a
351.6615	0.075	703323	keystroke_u	u	n/a
351.916	0.09	703832	keystroke_m	m	n/a
352.021	0.075	704042	keystroke_e	e	n/a
352.141	0.09	704282	keystroke_n	n	n/a
352.261	0.09	704522	keystroke_t	t	n/a
352.531	0.09	705062	keystroke_a	a	n/a
352.591	0.09	705182	keystroke_l	l	n/a
353.2505	0.075	706501	keystroke_Key.enter	Key.enter	n/a
353.3325	10.81	706665	prompt	n/a	peak participants douglas referrals\n
354.1065	0.0745	708213	keystroke_p	p	n/a
354.226	0.12	708452	keystroke_e	e	n/a
354.496	0.09	708992	keystroke_a	a	n/a
354.601	0.105	709202	keystroke_k	k	n/a
354.751	0.0895	709502	keystroke_Key.space	Key.space	n/a
354.9615	0.0895	709923	keystroke_p	p	n/a
355.5915	0.0445	711183	keystroke_a	a	n/a
355.7555	0.09	711511	keystroke_r	r	n/a
356.086	0.0755	712172	keystroke_t	t	n/a
356.191	0.105	712382	keystroke_i	i	n/a
356.641	0.075	713282	keystroke_c	c	n/a
356.746	0.06	713492	keystroke_i	i	n/a
356.956	0.075	713912	keystroke_p	p	n/a
357.046	0.105	714092	keystroke_a	a	n/a
357.2415	0.0895	714483	keystroke_n	n	n/a
357.3455	0.075	714691	keystroke_t	t	n/a
357.5565	0.1045	715113	keystroke_s	s	n/a
357.616	0.09	715232	keystroke_Key.space	Key.space	n/a
357.766	0.12	715532	keystroke_d	d	n/a
357.901	0.075	715802	keystroke_o	o	n/a
358.126	0.0755	716252	keystroke_u	u	n/a
358.336	0.105	716672	keystroke_g	g	n/a
358.8455	0.0755	717691	keystroke_l	l	n/a
358.9815	0.194	717963	keystroke_a	a	n/a
359.1315	0.12	718263	keystroke_s	s	n/a
359.281	0.12	718562	keystroke_Key.space	Key.space	n/a
359.656	0.12	719312	keystroke_r	r	n/a
359.836	0.165	719672	keystroke_e	e	n/a
360.376	0.12	720752	keystroke_f	f	n/a
360.5405	0.1505	721081	keystroke_e	e	n/a
361.0205	0.046	722041	keystroke_r	r	n/a
361.1405	0.076	722281	keystroke_r	r	n/a
361.3215	0.1195	722643	keystroke_a	a	n/a
361.396	0.0905	722792	keystroke_l	l	n/a
361.5605	0.12	723121	keystroke_s	s	n/a
364.128	0.0125	728256	keystroke_Key.enter	Key.enter	n/a
364.1465	9.881	728293	prompt	n/a	sound therapeutic screening pond\n
364.771	0.149	729542	keystroke_s	s	n/a
364.846	0.09	729692	keystroke_o	o	n/a
365.086	0.075	730172	keystroke_u	u	n/a
365.566	0.105	731132	keystroke_n	n	n/a
365.731	0.105	731462	keystroke_d	d	n/a
365.851	0.105	731702	keystroke_Key.space	Key.space	n/a
366.706	0.105	733412	keystroke_t	t	n/a
366.812	0.089	733624	keystroke_h	h	n/a
367.111	0.18	734222	keystroke_e	e	n/a
367.2765	0.1045	734553	keystroke_r	r	n/a
367.501	0.105	735002	keystroke_a	a	n/a
367.6665	0.0895	735333	keystroke_p	p	n/a
368.206	0.12	736412	keystroke_e	e	n/a
368.356	0.12	736712	keystroke_u	u	n/a
368.611	0.12	737222	keystroke_t	t	n/a
368.701	0.105	737402	keystroke_i	i	n/a
368.896	0.105	737792	keystroke_c	c	n/a
368.971	0.119	737942	keystroke_Key.space	Key.space	n/a
369.1515	0.149	738303	keystroke_s	s	n/a
369.3305	0.1055	738661	keystroke_c	c	n/a
369.541	0.12	739082	keystroke_r	r	n/a
369.721	0.1205	739442	keystroke_e	e	n/a
369.916	0.1195	739832	keystroke_e	e	n/a
370.006	0.0905	740012	keystroke_n	n	n/a
370.2005	0.075	740401	keystroke_i	i	n/a
370.336	0.1355	740672	keystroke_n	n	n/a
370.561	0.0895	741122	keystroke_Key.space	Key.space	n/a
370.8755	0.075	741751	keystroke_Key.backspace	Key.backspace	n/a
370.966	0.09	741932	keystroke_g	g	n/a
371.071	0.12	742142	keystroke_Key.space	Key.space	n/a
371.2355	0.076	742471	keystroke_o	o	n/a
371.746	0.075	743492	keystroke_Key.backspace	Key.backspace	n/a
371.956	0.03	743912	keystroke_p	p	n/a
372.301	0.0905	744602	keystroke_i	i	n/a
372.571	0.03	745142	keystroke_n	n	n/a
372.841	0.045	745682	keystroke_Key.backspace	Key.backspace	n/a
372.961	0.06	745922	keystroke_Key.backspace	Key.backspace	n/a
373.156	0.06	746312	keystroke_o	o	n/a
373.321	0.1055	746642	keystroke_n	n	n/a
373.4265	0.1345	746853	keystroke_d	d	n/a
373.966	0.06	747932	keystroke_Key.enter	Key.enter	n/a
374.032	12.9555	748064	prompt	n/a	display expertise searched worst\n
374.611	0.075	749222	keystroke_d	d	n/a
374.686	0.09	749372	keystroke_i	i	n/a
374.821	0.105	749642	keystroke_s	s	n/a
375.061	0.09	750122	keystroke_c	c	n/a
375.406	0.075	750812	keystroke_Key.backspace	Key.backspace	n/a
375.6165	0.0745	751233	keystroke_p	p	n/a
375.7355	0.0905	751471	keystroke_a	a	n/a
376.0955	0.045	752191	keystroke_Key.backspace	Key.backspace	n/a
376.2005	0.06	752401	keystroke_Key.backspace	Key.backspace	n/a
376.591	0.075	753182	keystroke_p	p	n/a
376.7555	0.091	753511	keystroke_l	l	n/a
376.9055	0.0755	753811	keystroke_a	a	n/a
377.086	0.075	754172	keystroke_y	y	n/a
377.221	0.119	754442	keystroke_Key.space	Key.space	n/a
377.866	0.0905	755732	keystroke_e	e	n/a
378.121	0.0745	756242	keystroke_x	x	n/a
378.2255	0.09	756451	keystroke_p	p	n/a
378.406	0.135	756812	keystroke_e	e	n/a
378.5115	0.104	757023	keystroke_r	r	n/a
378.7505	0.0905	757501	keystroke_t	t	n/a
378.871	0.1195	757742	keystroke_i	i	n/a
379.0665	0.1495	758133	keystroke_s	s	n/a
379.186	0.165	758372	keystroke_e	e	n/a
379.306	0.1045	758612	keystroke_Key.space	Key.space	n/a
379.591	0.165	759182	keystroke_s	s	n/a
379.7405	0.15	759481	keystroke_e	e	n/a
379.936	0.105	759872	keystroke_a	a	n/a
380.1465	0.105	760293	keystroke_c	c	n/a
380.2815	0.089	760563	keystroke_h	h	n/a
380.3855	0.135	760771	keystroke_e	e	n/a
380.506	0.12	761012	keystroke_d	d	n/a
380.596	0.12	761192	keystroke_Key.space	Key.space	n/a
381.166	0.105	762332	keystroke_w	w	n/a
381.2405	0.1055	762481	keystroke_o	o	n/a
381.3905	0.1055	762781	keystroke_r	r	n/a
381.856	0.1195	763712	keystroke_s	s	n/a
382.096	0.12	764192	keystroke_t	t	n/a
383.086	0.06	766172	keystroke_Key.left	Key.left	n/a
383.251	0.075	766502	keystroke_Key.left	Key.left	n/a
383.431	0.0595	766862	keystroke_Key.left	Key.left	n/a
383.6255	0.045	767251	keystroke_Key.left	Key.left	n/a
383.776	0.0595	767552	keystroke_Key.left	Key.left	n/a
383.9255	0.075	767851	keystroke_Key.left	Key.left	n/a
384.0905	0.09	768181	keystroke_Key.left	Key.left	n/a
384.2855	0.0605	768571	keystroke_Key.left	Key.left	n/a
384.4505	0.06	768901	keystroke_Key.left	Key.left	n/a
385.186	0.075	770372	keystroke_Key.left	Key.left	n/a
385.561	0.1205	771122	keystroke_r	r	n/a
386.9255	0.06	773851	keystroke_Key.enter	Key.enter	n/a
386.9925	10.18	773985	prompt	n/a	inspections sets gibraltar score\n
387.8705	0.0605	775741	keystroke_i	i	n/a
388.0205	0.09	776041	keystroke_n	n	n/a
388.1405	0.1355	776281	keystroke_s	s	n/a
388.4405	0.091	776881	keystroke_p	p	n/a
388.5755	0.0755	777151	keystroke_e	e	n/a
388.8015	0.104	777603	keystroke_c	c	n/a
389.0105	0.09	778021	keystroke_t	t	n/a
389.086	0.075	778172	keystroke_i	i	n/a
389.266	0.0755	778532	keystroke_o	o	n/a
389.4315	0.105	778863	keystroke_n	n	n/a
389.551	0.1045	779102	keystroke_s	s	n/a
389.641	0.12	779282	keystroke_Key.space	Key.space	n/a
389.9565	0.1645	779913	keystroke_s	s	n/a
390.076	0.1205	780152	keystroke_e	e	n/a
390.301	0.09	780602	keystroke_t	t	n/a
390.4815	0.1345	780963	keystroke_s	s	n/a
390.556	0.1195	781112	keystroke_Key.space	Key.space	n/a
390.8865	0.105	781773	keystroke_g	g	n/a
391.0065	0.06	782013	keystroke_i	i	n/a
391.2915	0.089	782583	keystroke_l	l	n/a
392.041	0.0745	784082	keystroke_Key.backspace	Key.backspace	n/a
392.641	0.09	785282	keystroke_b	b	n/a
392.7615	0.089	785523	keystroke_r	r	n/a
392.9865	0.119	785973	keystroke_a	a	n/a
393.316	0.06	786632	keystroke_l	l	n/a
393.4955	0.091	786991	keystroke_t	t	n/a
393.7365	0.074	787473	keystroke_a	a	n/a
393.886	0.12	787772	keystroke_r	r	n/a
394.0205	0.105	788041	keystroke_Key.space	Key.space	n/a
394.231	0.0895	788462	keystroke_s	s	n/a
394.3505	0.045	788701	keystroke_o	o	n/a
394.621	0.0745	789242	keystroke_Key.backspace	Key.backspace	n/a
394.6815	0.135	789363	keystroke_c	c	n/a
394.876	0.0905	789752	keystroke_o	o	n/a
394.9805	0.18	789961	keystroke_r	r	n/a
395.1155	0.166	790231	keystroke_e	e	n/a
397.081	0.089	794162	keystroke_Key.enter	Key.enter	n/a
397.1775	7.7355	794355	prompt	n/a	gage consultants collectible simply\n
398.7765	0.1045	797553	keystroke_g	g	n/a
399.061	0.09	798122	keystroke_a	a	n/a
399.166	0.135	798332	keystroke_g	g	n/a
399.2855	0.0905	798571	keystroke_e	e	n/a
399.391	0.12	798782	keystroke_Key.space	Key.space	n/a
399.7955	0.0905	799591	keystroke_c	c	n/a
399.8555	0.091	799711	keystroke_o	o	n/a
400.036	0.09	800072	keystroke_n	n	n/a
400.185	0.1065	800370	keystroke_s	s	n/a
400.2915	0.0745	800583	keystroke_u	u	n/a
400.5015	0.089	801003	keystroke_l	l	n/a
400.6355	0.1055	801271	keystroke_t	t	n/a
400.876	0.09	801752	keystroke_a	a	n/a
400.951	0.105	801902	keystroke_n	n	n/a
401.086	0.09	802172	keystroke_t	t	n/a
401.2965	0.1045	802593	keystroke_s	s	n/a
401.371	0.09	802742	keystroke_Key.space	Key.space	n/a
401.566	0.09	803132	keystroke_c	c	n/a
401.641	0.0755	803282	keystroke_o	o	n/a
401.851	0.045	803702	keystroke_l	l	n/a
401.956	0.09	803912	keystroke_l	l	n/a
402.046	0.105	804092	keystroke_e	e	n/a
402.271	0.09	804542	keystroke_c	c	n/a
402.466	0.075	804932	keystroke_t	t	n/a
402.556	0.0755	805112	keystroke_i	i	n/a
402.7815	0.0745	805563	keystroke_b	b	n/a
402.9915	0.0745	805983	keystroke_l	l	n/a
403.051	0.075	806102	keystroke_e	e	n/a
403.216	0.06	806432	keystroke_Key.space	Key.space	n/a
403.501	0.09	807002	keystroke_s	s	n/a
403.621	0.09	807242	keystroke_i	i	n/a
403.8005	0.0755	807601	keystroke_m	m	n/a
404.0255	0.0455	808051	keystroke_p	p	n/a
404.131	0.0905	808262	keystroke_l	l	n/a
404.371	0.105	808742	keystroke_y	y	n/a
404.821	0.0895	809642	keystroke_Key.enter	Key.enter	n/a
404.917	5.5905	809834	prompt	n/a	thrown drive viruses shaw\n
405.4505	0.1055	810901	keystroke_t	t	n/a
405.571	0.0755	811142	keystroke_h	h	n/a
405.721	0.0905	811442	keystroke_r	r	n/a
405.856	0.0905	811712	keystroke_o	o	n/a
406.021	0.1045	812042	keystroke_w	w	n/a
406.1105	0.106	812221	keystroke_n	n	n/a
406.2455	0.12	812491	keystroke_Key.space	Key.space	n/a
406.621	0.12	813242	keystroke_d	d	n/a
406.801	0.12	813602	keystroke_r	r	n/a
406.906	0.0905	813812	keystroke_i	i	n/a
407.0715	0.0595	814143	keystroke_v	v	n/a
407.161	0.15	814322	keystroke_e	e	n/a
407.266	0.135	814532	keystroke_Key.space	Key.space	n/a
407.5515	0.1045	815103	keystroke_d	d	n/a
407.926	0.09	815852	keystroke_Key.backspace	Key.backspace	n/a
408.001	0.075	816002	keystroke_v	v	n/a
408.18	0.076	816360	keystroke_i	i	n/a
408.496	0.09	816992	keystroke_r	r	n/a
408.616	0.075	817232	keystroke_u	u	n/a
408.7515	0.1635	817503	keystroke_s	s	n/a
408.9	0.211	817800	keystroke_e	e	n/a
409.081	0.1805	818162	keystroke_s	s	n/a
409.2455	0.1055	818491	keystroke_Key.space	Key.space	n/a
409.9065	0.0745	819813	keystroke_s	s	n/a
409.966	0.075	819932	keystroke_h	h	n/a
410.101	0.12	820202	keystroke_a	a	n/a
410.236	0.135	820472	keystroke_w	w	n/a
410.386	0.119	820772	keystroke_Key.enter	Key.enter	n/a
410.5115	7.046	821023	prompt	n/a	dawn signal whole projects\n
411.181	0.135	822362	keystroke_d	d	n/a
411.3905	0.105	822781	keystroke_w	w	n/a
411.96	0.0755	823920	keystroke_Key.backspace	Key.backspace	n/a
412.0665	0.179	824133	keystroke_a	a	n/a
412.2165	0.119	824433	keystroke_w	w	n/a
412.3205	0.12	824641	keystroke_n	n	n/a
412.4415	0.134	824883	keystroke_Key.space	Key.space	n/a
412.7405	0.105	825481	keystroke_s	s	n/a
412.8305	0.09	825661	keystroke_i	i	n/a
412.951	0.105	825902	keystroke_g	g	n/a
413.1455	0.06	826291	keystroke_n	n	n/a
413.3255	0.0905	826651	keystroke_a	a	n/a
413.386	0.12	826772	keystroke_l	l	n/a
413.52	0.136	827040	keystroke_Key.space	Key.space	n/a
413.821	0.12	827642	keystroke_w	w	n/a
413.911	0.075	827822	keystroke_h	h	n/a
414.076	0.09	828152	keystroke_o	o	n/a
414.241	0.12	828482	keystroke_l	l	n/a
414.361	0.09	828722	keystroke_e	e	n/a
414.406	0.135	828812	keystroke_Key.space	Key.space	n/a
414.736	0.075	829472	keystroke_p	p	n/a
414.8705	0.106	829741	keystroke_r	r	n/a
414.9905	0.09	829981	keystroke_o	o	n/a
415.3805	0.03	830761	keystroke_e	e	n/a
415.6955	0.0905	831391	keystroke_Key.backspace	Key.backspace	n/a
415.921	0.075	831842	keystroke_j	j	n/a
416.026	0.1055	832052	keystroke_e	e	n/a
416.221	0.12	832442	keystroke_c	c	n/a
416.4165	0.0745	832833	keystroke_t	t	n/a
416.656	0.09	833312	keystroke_s	s	n/a
417.4805	0.075	834961	keystroke_Key.enter	Key.enter	n/a
417.5625	11.395	835125	prompt	n/a	deposits others runtime sentences\n
418.141	0.119	836282	keystroke_d	d	n/a
418.276	0.089	836552	keystroke_e	e	n/a
418.531	0.09	837062	keystroke_p	p	n/a
418.711	0.1045	837422	keystroke_o	o	n/a
418.861	0.1045	837722	keystroke_s	s	n/a
419.026	0.075	838052	keystroke_i	i	n/a
419.131	0.105	838262	keystroke_t	t	n/a
419.371	0.105	838742	keystroke_s	s	n/a
419.536	0.12	839072	keystroke_,	,	n/a
419.94	0.075	839880	keystroke_Key.backspace	Key.backspace	n/a
420.031	0.105	840062	keystroke_Key.space	Key.space	n/a
420.225	0.091	840450	keystroke_t	t	n/a
420.526	0.074	841052	keystroke_Key.backspace	Key.backspace	n/a
420.7215	0.074	841443	keystroke_o	o	n/a
420.8555	0.0905	841711	keystroke_t	t	n/a
421.0655	0.06	842131	keystroke_h	h	n/a
421.1855	0.135	842371	keystroke_e	e	n/a
421.305	0.0905	842610	keystroke_r	r	n/a
421.531	0.12	843062	keystroke_s	s	n/a
421.681	0.09	843362	keystroke_Key.space	Key.space	n/a
422.026	0.105	844052	keystroke_r	r	n/a
422.146	0.074	844292	keystroke_u	u	n/a
422.311	0.09	844622	keystroke_n	n	n/a
422.551	0.075	845102	keystroke_i	i	n/a
422.806	0.0745	845612	keystroke_m	m	n/a
422.926	0.12	845852	keystroke_e	e	n/a
423.301	0.045	846602	keystroke_Key.backspace	Key.backspace	n/a
423.45	0.045	846900	keystroke_Key.backspace	Key.backspace	n/a
423.6	0.061	847200	keystroke_Key.backspace	Key.backspace	n/a
423.826	0.06	847652	keystroke_t	t	n/a
423.976	0.075	847952	keystroke_u	u	n/a
424.156	0.105	848312	keystroke_m	m	n/a
424.3355	0.105	848671	keystroke_e	e	n/a
424.5755	0.0455	849151	keystroke_Key.backspace	Key.backspace	n/a
424.726	0.06	849452	keystroke_Key.backspace	Key.backspace	n/a
424.876	0.06	849752	keystroke_Key.backspace	Key.backspace	n/a
425.191	0.0595	850382	keystroke_i	i	n/a
425.401	0.09	850802	keystroke_m	m	n/a
425.536	0.1045	851072	keystroke_e	e	n/a
425.656	0.0895	851312	keystroke_Key.space	Key.space	n/a
426.4505	0.225	852901	keystroke_s	s	n/a
426.6605	0.0905	853321	keystroke_e	e	n/a
426.7655	0.12	853531	keystroke_n	n	n/a
427.261	0.105	854522	keystroke_t	t	n/a
427.4255	0.1505	854851	keystroke_e	e	n/a
427.561	0.075	855122	keystroke_n	n	n/a
428.011	0.1345	856022	keystroke_c	c	n/a
428.1755	0.0905	856351	keystroke_e	e	n/a
428.3715	0.1195	856743	keystroke_s	s	n/a
428.896	0.06	857792	keystroke_Key.enter	Key.enter	n/a
428.9615	8.381	857923	prompt	n/a	international twisted magnet permitted\n
429.496	0.089	858992	keystroke_i	i	n/a
429.676	0.0895	859352	keystroke_n	n	n/a
429.796	0.105	859592	keystroke_t	t	n/a
429.961	0.1945	859922	keystroke_e	e	n/a
430.0955	0.12	860191	keystroke_r	r	n/a
430.351	0.09	860702	keystroke_a	a	n/a
430.6655	0.06	861331	keystroke_Key.backspace	Key.backspace	n/a
430.9365	0.0745	861873	keystroke_n	n	n/a
431.011	0.075	862022	keystroke_a	a	n/a
431.221	0.09	862442	keystroke_t	t	n/a
431.326	0.045	862652	keystroke_i	i	n/a
431.4755	0.0755	862951	keystroke_o	o	n/a
431.5955	0.105	863191	keystroke_n	n	n/a
431.7605	0.1355	863521	keystroke_a	a	n/a
431.8505	0.1205	863701	keystroke_l	l	n/a
432.0005	0.12	864001	keystroke_Key.space	Key.space	n/a
432.7505	0.1055	865501	keystroke_t	t	n/a
433.021	0.12	866042	keystroke_w	w	n/a
433.171	0.09	866342	keystroke_i	i	n/a
433.3055	0.12	866611	keystroke_s	s	n/a
433.5305	0.105	867061	keystroke_t	t	n/a
433.756	0.18	867512	keystroke_e	e	n/a
433.8915	0.1345	867783	keystroke_d	d	n/a
433.981	0.105	867962	keystroke_Key.space	Key.space	n/a
434.191	0.105	868382	keystroke_m	m	n/a
434.356	0.09	868712	keystroke_a	a	n/a
434.5205	0.06	869041	keystroke_g	g	n/a
434.7305	0.09	869461	keystroke_n	n	n/a
434.8505	0.0755	869701	keystroke_e	e	n/a
435.106	0.075	870212	keystroke_t	t	n/a
435.256	0.09	870512	keystroke_Key.space	Key.space	n/a
435.541	0.09	871082	keystroke_p	p	n/a
435.6905	0.1655	871381	keystroke_e	e	n/a
435.8255	0.1205	871651	keystroke_r	r	n/a
436.141	0.09	872282	keystroke_m	m	n/a
436.351	0.0595	872702	keystroke_i	i	n/a
436.4705	0.0905	872941	keystroke_t	t	n/a
436.6365	0.0895	873273	keystroke_t	t	n/a
436.861	0.165	873722	keystroke_e	e	n/a
436.996	0.12	873992	keystroke_d	d	n/a
437.281	0.059	874562	keystroke_Key.enter	Key.enter	n/a
437.349	5.5585	874698	prompt	n/a	dies delta thumbs foot\n
438.076	0.105	876152	keystroke_d	d	n/a
438.196	0.06	876392	keystroke_i	i	n/a
438.271	0.105	876542	keystroke_e	e	n/a
438.451	0.1205	876902	keystroke_s	s	n/a
438.526	0.09	877052	keystroke_Key.space	Key.space	n/a
438.721	0.12	877442	keystroke_d	d	n/a
438.856	0.105	877712	keystroke_e	e	n/a
438.946	0.105	877892	keystroke_l	l	n/a
439.186	0.1045	878372	keystroke_t	t	n/a
439.411	0.0895	878822	keystroke_a	a	n/a
439.471	0.12	878942	keystroke_Key.space	Key.space	n/a
439.6655	0.1055	879331	keystroke_t	t	n/a
439.786	0.0605	879572	keystroke_h	h	n/a
439.9505	0.0755	879901	keystroke_u	u	n/a
440.161	0.0595	880322	keystroke_n	n	n/a
440.716	0.09	881432	keystroke_Key.backspace	Key.backspace	n/a
440.956	0.09	881912	keystroke_m	m	n/a
441.211	0.0755	882422	keystroke_b	b	n/a
441.586	0.1045	883172	keystroke_s	s	n/a
441.706	0.089	883412	keystroke_Key.space	Key.space	n/a
441.931	0.0895	883862	keystroke_f	f	n/a
442.0505	0.0605	884101	keystroke_o	o	n/a
442.2005	0.0755	884401	keystroke_o	o	n/a
442.246	0.1345	884492	keystroke_t	t	n/a
442.831	0.0745	885662	keystroke_Key.enter	Key.enter	n/a
442.913	7.6145	885826	prompt	n/a	binary marriage skilled engineers\n
443.701	0.075	887402	keystroke_b	b	n/a
443.881	0.075	887762	keystroke_i	i	n/a
444.046	0.09	888092	keystroke_n	n	n/a
444.1505	0.09	888301	keystroke_a	a	n/a
444.346	0.09	888692	keystroke_r	r	n/a
444.541	0.075	889082	keystroke_y	y	n/a
444.66	0.1205	889320	keystroke_Key.space	Key.space	n/a
444.9905	0.105	889981	keystroke_m	m	n/a
445.111	0.09	890222	keystroke_a	a	n/a
445.321	0.06	890642	keystroke_r	r	n/a
445.456	0.09	890912	keystroke_r	r	n/a
445.516	0.0905	891032	keystroke_i	i	n/a
445.7865	0.0895	891573	keystroke_a	a	n/a
445.891	0.105	891782	keystroke_g	g	n/a
446.011	0.0905	892022	keystroke_e	e	n/a
446.056	0.105	892112	keystroke_Key.space	Key.space	n/a
446.431	0.09	892862	keystroke_s	s	n/a
446.5365	0.0745	893073	keystroke_k	k	n/a
446.76	0.0465	893520	keystroke_i	i	n/a
447.0005	0.0595	894001	keystroke_l	l	n/a
447.136	0.075	894272	keystroke_l	l	n/a
447.226	0.104	894452	keystroke_e	e	n/a
447.315	0.12	894630	keystroke_d	d	n/a
447.39	0.15	894780	keystroke_Key.space	Key.space	n/a
447.826	0.105	895652	keystroke_e	e	n/a
447.9455	0.106	895891	keystroke_n	n	n/a
448.785	0.106	897570	keystroke_g	g	n/a
448.801	0.075	897602	keystroke_i	i	n/a
449.311	0.09	898622	keystroke_n	n	n/a
449.371	0.12	898742	keystroke_e	e	n/a
449.686	0.06	899372	keystroke_e	e	n/a
449.881	0.075	899762	keystroke_r	r	n/a
450.061	0.12	900122	keystroke_s	s	n/a
450.451	0.075	900902	keystroke_Key.enter	Key.enter	n/a
450.534	6.338	901068	prompt	n/a	improve salt lips view\n
451.3205	0.0755	902641	keystroke_i	i	n/a
451.501	0.09	903002	keystroke_m	m	n/a
451.696	0.075	903392	keystroke_p	p	n/a
452.101	0.075	904202	keystroke_r	r	n/a
452.341	0.0155	904682	keystroke_o	o	n/a
452.371	0.105	904742	keystroke_v	v	n/a
452.491	0.15	904982	keystroke_e	e	n/a
452.611	0.105	905222	keystroke_Key.space	Key.space	n/a
453.1055	0.09	906211	keystroke_s	s	n/a
453.3015	0.0745	906603	keystroke_a	a	n/a
453.361	0.075	906722	keystroke_l	l	n/a
453.676	0.0895	907352	keystroke_t	t	n/a
453.7805	0.105	907561	keystroke_Key.space	Key.space	n/a
454.0955	0.09	908191	keystroke_l	l	n/a
454.306	0.06	908612	keystroke_i	i	n/a
454.486	0.075	908972	keystroke_p	p	n/a
454.621	0.105	909242	keystroke_s	s	n/a
454.741	0.105	909482	keystroke_Key.space	Key.space	n/a
455.551	0.12	911102	keystroke_v	v	n/a
455.851	0.075	911702	keystroke_i	i	n/a
456.001	0.165	912002	keystroke_e	e	n/a
456.181	0.165	912362	keystroke_w	w	n/a
456.796	0.075	913592	keystroke_Key.enter	Key.enter	n/a
456.876	8.7715	913752	prompt	n/a	chicks output mutual consider\n
457.486	0.105	914972	keystroke_c	c	n/a
457.696	0.075	915392	keystroke_h	h	n/a
457.861	0.09	915722	keystroke_i	i	n/a
457.995	0.106	915990	keystroke_c	c	n/a
458.146	0.015	916292	keystroke_k	k	n/a
458.67	0.09	917340	keystroke_s	s	n/a
458.79	0.0905	917580	keystroke_Key.space	Key.space	n/a
459.286	0.0745	918572	keystroke_o	o	n/a
459.5405	0.0605	919081	keystroke_u	u	n/a
459.6455	0.09	919291	keystroke_t	t	n/a
459.9305	0.0905	919861	keystroke_p	p	n/a
460.9205	0.075	921841	keystroke_u	u	n/a
461.086	0.09	922172	keystroke_t	t	n/a
461.191	0.105	922382	keystroke_Key.space	Key.space	n/a
461.9105	0.09	923821	keystroke_m	m	n/a
462.3155	0.0605	924631	keystroke_u	u	n/a
462.675	0.105	925350	keystroke_t	t	n/a
462.916	0.075	925832	keystroke_u	u	n/a
463.096	0.105	926192	keystroke_a	a	n/a
463.216	0.104	926432	keystroke_l	l	n/a
463.351	0.12	926702	keystroke_Key.space	Key.space	n/a
463.86	0.09	927720	keystroke_c	c	n/a
463.966	0.075	927932	keystroke_o	o	n/a
464.1605	0.0755	928321	keystroke_n	n	n/a
464.3405	0.105	928681	keystroke_s	s	n/a
464.4605	0.09	928921	keystroke_i	i	n/a
464.5655	0.1355	929131	keystroke_d	d	n/a
464.7015	0.0745	929403	keystroke_e	e	n/a
464.866	0.105	929732	keystroke_r	r	n/a
465.631	0.015	931262	keystroke_Key.enter	Key.enter	n/a
465.652	19.705	931304	prompt	n/a	wedding batteries zimbabwe betty\n
466.306	0.18	932612	keystroke_w	w	n/a
466.426	0.15	932852	keystroke_e	e	n/a
466.651	0.089	933302	keystroke_d	d	n/a
466.8155	0.1045	933631	keystroke_d	d	n/a
466.935	0.075	933870	keystroke_i	i	n/a
467.0855	0.1045	934171	keystroke_n	n	n/a
467.176	0.105	934352	keystroke_g	g	n/a
467.311	0.1195	934622	keystroke_Key.space	Key.space	n/a
467.596	0.075	935192	keystroke_b	b	n/a
467.6715	0.105	935343	keystroke_e	e	n/a
467.941	0.0745	935882	keystroke_t	t	n/a
468.076	0.135	936152	keystroke_t	t	n/a
468.2265	0.1945	936453	keystroke_e	e	n/a
468.3605	0.1355	936721	keystroke_r	r	n/a
468.751	0.1045	937502	keystroke_i	i	n/a
468.886	0.0895	937772	keystroke_e	e	n/a
469.081	0.12	938162	keystroke_s	s	n/a
469.1555	0.1055	938311	keystroke_Key.space	Key.space	n/a
469.531	0.12	939062	keystroke_z	z	n/a
469.606	0.09	939212	keystroke_i	i	n/a
469.936	0.105	939872	keystroke_m	m	n/a
470.7605	0.09	941521	keystroke_b	b	n/a
470.881	0.1495	941762	keystroke_a	a	n/a
471.0005	0.09	942001	keystroke_b	b	n/a
471.5405	0.075	943081	keystroke_w	w	n/a
471.7355	0.075	943471	keystroke_e	e	n/a
472.9205	0.105	945841	keystroke_Key.left	Key.left	n/a
473.1305	0.06	946261	keystroke_Key.left	Key.left	n/a
473.266	0.0895	946532	keystroke_Key.left	Key.left	n/a
473.4305	0.075	946861	keystroke_Key.left	Key.left	n/a
473.5955	0.06	947191	keystroke_Key.left	Key.left	n/a
473.7605	0.06	947521	keystroke_Key.left	Key.left	n/a
473.8955	0.075	947791	keystroke_Key.left	Key.left	n/a
474.0605	0.075	948121	keystroke_Key.left	Key.left	n/a
474.211	0.075	948422	keystroke_Key.left	Key.left	n/a
474.3455	0.075	948691	keystroke_Key.left	Key.left	n/a
474.5105	0.0605	949021	keystroke_Key.left	Key.left	n/a
474.721	0.015	949442	keystroke_Key.left	Key.left	n/a
474.811	0.0595	949622	keystroke_Key.left	Key.left	n/a
474.961	0.045	949922	keystroke_Key.left	Key.left	n/a
475.111	0.06	950222	keystroke_Key.left	Key.left	n/a
475.231	0.09	950462	keystroke_Key.left	Key.left	n/a
475.636	0.105	951272	keystroke_Key.backspace	Key.backspace	n/a
475.786	0.135	951572	keystroke_a	a	n/a
476.251	0.075	952502	keystroke_Key.right	Key.right	n/a
476.446	0.0595	952892	keystroke_Key.right	Key.right	n/a
476.611	0.06	953222	keystroke_Key.right	Key.right	n/a
476.79	0.06	953580	keystroke_Key.right	Key.right	n/a
476.94	0.0755	953880	keystroke_Key.right	Key.right	n/a
477.091	0.074	954182	keystroke_Key.right	Key.right	n/a
477.241	0.075	954482	keystroke_Key.right	Key.right	n/a
477.406	0.0745	954812	keystroke_Key.right	Key.right	n/a
477.5555	0.09	955111	keystroke_Key.right	Key.right	n/a
477.706	0.0895	955412	keystroke_Key.right	Key.right	n/a
477.8555	0.0745	955711	keystroke_Key.right	Key.right	n/a
478.02	0.0605	956040	keystroke_Key.right	Key.right	n/a
478.185	0.06	956370	keystroke_Key.right	Key.right	n/a
478.35	0.046	956700	keystroke_Key.right	Key.right	n/a
478.501	0.045	957002	keystroke_Key.right	Key.right	n/a
478.6205	0.0745	957241	keystroke_Key.right	Key.right	n/a
478.771	0.075	957542	keystroke_Key.right	Key.right	n/a
478.921	0.06	957842	keystroke_Key.right	Key.right	n/a
479.49	0.12	958980	keystroke_Key.space	Key.space	n/a
479.761	0.106	959522	keystroke_b	b	n/a
479.8805	0.0905	959761	keystroke_e	e	n/a
480.016	0.06	960032	keystroke_t	t	n/a
480.151	0.105	960302	keystroke_t	t	n/a
480.211	0.09	960422	keystroke_e	e	n/a
480.391	0.105	960782	keystroke_r	r	n/a
481.486	0.044	962972	keystroke_Key.backspace	Key.backspace	n/a
481.605	0.061	963210	keystroke_Key.backspace	Key.backspace	n/a
481.7555	0.075	963511	keystroke_Key.backspace	Key.backspace	n/a
482.476	0.075	964952	keystroke_y	y	n/a
482.4905	0.0455	964981	keystroke_t	t	n/a
482.716	0.0745	965432	keystroke_u	u	n/a
483.061	0.03	966122	keystroke_Key.backspace	Key.backspace	n/a
483.196	0.059	966392	keystroke_Key.backspace	Key.backspace	n/a
483.3155	0.075	966631	keystroke_Key.backspace	Key.backspace	n/a
483.375	0.121	966750	keystroke_t	t	n/a
483.6005	0.1055	967201	keystroke_y	y	n/a
484.41	0.225	968820	keystroke_Key.ctrl_l	Key.ctrl_l	n/a
485.281	0.0745	970562	keystroke_Key.enter	Key.enter	n/a
485.3645	6.5325	970729	prompt	n/a	helpful child ordinance trio\n
486.1815	0.074	972363	keystroke_h	h	n/a
486.301	0.075	972602	keystroke_e	e	n/a
486.4055	0.075	972811	keystroke_l	l	n/a
486.586	0.075	973172	keystroke_p	p	n/a
486.7505	0.12	973501	keystroke_f	f	n/a
486.886	0.045	973772	keystroke_u	u	n/a
487.0655	0.09	974131	keystroke_l	l	n/a
487.201	0.12	974402	keystroke_Key.space	Key.space	n/a
487.335	0.105	974670	keystroke_c	c	n/a
487.455	0.0605	974910	keystroke_h	h	n/a
487.605	0.0755	975210	keystroke_i	i	n/a
487.801	0.104	975602	keystroke_l	l	n/a
487.95	0.1205	975900	keystroke_d	d	n/a
488.0715	0.1185	976143	keystroke_Key.space	Key.space	n/a
488.34	0.0755	976680	keystroke_o	o	n/a
488.4605	0.1055	976921	keystroke_r	r	n/a
488.671	0.12	977342	keystroke_d	d	n/a
488.776	0.074	977552	keystroke_i	i	n/a
488.986	0.075	977972	keystroke_n	n	n/a
489.046	0.1345	978092	keystroke_a	a	n/a
489.256	0.09	978512	keystroke_n	n	n/a
489.331	0.105	978662	keystroke_c	c	n/a
489.4655	0.105	978931	keystroke_e	e	n/a
489.556	0.119	979112	keystroke_Key.space	Key.space	n/a
489.841	0.105	979682	keystroke_t	t	n/a
490.036	0.105	980072	keystroke_r	r	n/a
490.1255	0.0755	980251	keystroke_i	i	n/a
490.336	0.09	980672	keystroke_p	p	n/a
490.831	0.075	981662	keystroke_Key.backspace	Key.backspace	n/a
491.056	0.105	982112	keystroke_o	o	n/a
491.7905	0.1055	983581	keystroke_Key.enter	Key.enter	n/a
491.901	6.881	983802	prompt	n/a	wichita renew there mandate\n
492.4655	0.135	984931	keystroke_w	w	n/a
492.5855	0.0755	985171	keystroke_i	i	n/a
493.096	0.09	986192	keystroke_c	c	n/a
493.2155	0.0605	986431	keystroke_h	h	n/a
493.366	0.0895	986732	keystroke_i	i	n/a
493.5605	0.076	987121	keystroke_t	t	n/a
493.771	0.12	987542	keystroke_a	a	n/a
493.876	0.12	987752	keystroke_Key.space	Key.space	n/a
494.056	0.1645	988112	keystroke_r	r	n/a
494.1755	0.1355	988351	keystroke_e	e	n/a
494.4455	0.09	988891	keystroke_n	n	n/a
494.566	0.09	989132	keystroke_e	e	n/a
494.776	0.15	989552	keystroke_w	w	n/a
496.0055	0.1055	992011	keystroke_Key.space	Key.space	n/a
496.366	0.12	992732	keystroke_t	t	n/a
496.486	0.075	992972	keystroke_h	h	n/a
496.591	0.15	993182	keystroke_e	e	n/a
496.681	0.181	993362	keystroke_r	r	n/a
496.831	0.12	993662	keystroke_e	e	n/a
497.0555	0.0895	994111	keystroke_Key.space	Key.space	n/a
497.281	0.0745	994562	keystroke_m	m	n/a
497.386	0.1195	994772	keystroke_a	a	n/a
497.521	0.075	995042	keystroke_n	n	n/a
497.791	0.089	995582	keystroke_d	d	n/a
497.911	0.105	995822	keystroke_a	a	n/a
498.121	0.105	996242	keystroke_t	t	n/a
498.271	0.119	996542	keystroke_e	e	n/a
498.705	0.0755	997410	keystroke_Key.enter	Key.enter	n/a
498.7865	8.0055	997573	prompt	n/a	miami wifi accident lone\n
499.591	0.075	999182	keystroke_m	m	n/a
499.755	0.076	999510	keystroke_i	i	n/a
499.906	0.12	999812	keystroke_a	a	n/a
500.34	0.061	1000680	keystroke_n	n	n/a
500.641	0.0595	1001282	keystroke_Key.backspace	Key.backspace	n/a
500.8655	0.075	1001731	keystroke_m	m	n/a
501.0455	0.06	1002091	keystroke_i	i	n/a
501.1805	0.105	1002361	keystroke_Key.space	Key.space	n/a
501.361	0.12	1002722	keystroke_w	w	n/a
501.4955	0.06	1002991	keystroke_i	i	n/a
502.0205	0.09	1004041	keystroke_f	f	n/a
502.171	0.0745	1004342	keystroke_i	i	n/a
502.276	0.1045	1004552	keystroke_Key.space	Key.space	n/a
502.426	0.09	1004852	keystroke_a	a	n/a
502.636	0.0445	1005272	keystroke_c	c	n/a
502.7855	0.045	1005571	keystroke_c	c	n/a
502.8605	0.0755	1005721	keystroke_i	i	n/a
502.9955	0.1055	1005991	keystroke_d	d	n/a
503.1455	0.09	1006291	keystroke_n	n	n/a
503.2205	0.09	1006441	keystroke_e	e	n/a
503.5955	0.0455	1007191	keystroke_Key.backspace	Key.backspace	n/a
503.731	0.0745	1007462	keystroke_Key.backspace	Key.backspace	n/a
503.821	0.0745	1007642	keystroke_e	e	n/a
503.9705	0.0755	1007941	keystroke_n	n	n/a
504.0905	0.075	1008181	keystroke_t	t	n/a
504.1805	0.1205	1008361	keystroke_Key.space	Key.space	n/a
504.856	0.09	1009712	keystroke_l	l	n/a
505.051	0.075	1010102	keystroke_o	o	n/a
505.201	0.09	1010402	keystroke_n	n	n/a
505.276	0.0745	1010552	keystroke_e	e	n/a
506.715	0.076	1013430	keystroke_Key.enter	Key.enter	n/a
506.796	7.601	1013592	prompt	n/a	activists visible veteran utah\n
507.511	0.105	1015022	keystroke_a	a	n/a
507.676	0.12	1015352	keystroke_c	c	n/a
507.945	0.091	1015890	keystroke_t	t	n/a
508.081	0.0745	1016162	keystroke_i	i	n/a
508.366	0.015	1016732	keystroke_v	v	n/a
508.395	0.0755	1016790	keystroke_i	i	n/a
508.561	0.09	1017122	keystroke_s	s	n/a
508.7705	0.09	1017541	keystroke_t	t	n/a
509.2055	0.0905	1018411	keystroke_s	s	n/a
509.3405	0.09	1018681	keystroke_Key.space	Key.space	n/a
509.5955	0.105	1019191	keystroke_v	v	n/a
509.731	0.0595	1019462	keystroke_i	i	n/a
509.851	0.0895	1019702	keystroke_s	s	n/a
509.9855	0.0755	1019971	keystroke_i	i	n/a
510.39	0.075	1020780	keystroke_b	b	n/a
510.6	0.076	1021200	keystroke_l	l	n/a
510.736	0.074	1021472	keystroke_e	e	n/a
510.825	0.105	1021650	keystroke_Key.space	Key.space	n/a
511.5155	0.1205	1023031	keystroke_v	v	n/a
511.6805	0.1645	1023361	keystroke_e	e	n/a
511.876	0.06	1023752	keystroke_t	t	n/a
512.416	0.135	1024832	keystroke_e	e	n/a
512.566	0.12	1025132	keystroke_r	r	n/a
512.806	0.09	1025612	keystroke_a	a	n/a
512.88	0.106	1025760	keystroke_n	n	n/a
513.0455	0.0745	1026091	keystroke_Key.space	Key.space	n/a
513.241	0.09	1026482	keystroke_u	u	n/a
513.361	0.12	1026722	keystroke_t	t	n/a
513.6605	0.076	1027321	keystroke_a	a	n/a
513.7205	0.075	1027441	keystroke_h	h	n/a
514.3205	0.075	1028641	keystroke_Key.enter	Key.enter	n/a
514.4025	8.5295	1028805	prompt	n/a	polish integrity regarded restored\n
515.1605	0.0745	1030321	keystroke_p	p	n/a
515.356	0.06	1030712	keystroke_o	o	n/a
515.535	0.0605	1031070	keystroke_l	l	n/a
515.7455	0.0595	1031491	keystroke_i	i	n/a
515.866	0.119	1031732	keystroke_s	s	n/a
515.986	0.0745	1031972	keystroke_h	h	n/a
516.1055	0.12	1032211	keystroke_Key.space	Key.space	n/a
516.7355	0.075	1033471	keystroke_i	i	n/a
516.9005	0.1055	1033801	keystroke_n	n	n/a
517.021	0.0745	1034042	keystroke_t	t	n/a
517.201	0.1345	1034402	keystroke_e	e	n/a
517.56	0.0905	1035120	keystroke_g	g	n/a
517.771	0.104	1035542	keystroke_r	r	n/a
517.877	0.0885	1035754	keystroke_i	i	n/a
518.2655	0.105	1036531	keystroke_t	t	n/a
518.4155	0.106	1036831	keystroke_y	y	n/a
518.536	0.1045	1037072	keystroke_Key.space	Key.space	n/a
518.7605	0.1795	1037521	keystroke_r	r	n/a
518.91	0.1505	1037820	keystroke_e	e	n/a
519.21	0.105	1038420	keystroke_g	g	n/a
519.436	0.075	1038872	keystroke_r	r	n/a
519.8105	0.09	1039621	keystroke_Key.backspace	Key.backspace	n/a
519.8855	0.09	1039771	keystroke_a	a	n/a
520.0805	0.09	1040161	keystroke_r	r	n/a
520.321	0.1195	1040642	keystroke_d	d	n/a
520.6955	0.0905	1041391	keystroke_e	e	n/a
520.8755	0.1345	1041751	keystroke_d	d	n/a
520.995	0.091	1041990	keystroke_Key.space	Key.space	n/a
521.2655	0.15	1042531	keystroke_r	r	n/a
521.4005	0.135	1042801	keystroke_e	e	n/a
521.82	0.075	1043640	keystroke_s	s	n/a
521.985	0.135	1043970	keystroke_t	t	n/a
522.1055	0.105	1044211	keystroke_o	o	n/a
522.2555	0.1355	1044511	keystroke_r	r	n/a
522.3455	0.12	1044691	keystroke_e	e	n/a
522.616	0.15	1045232	keystroke_d	d	n/a
522.796	0.1345	1045592	keystroke_Key.enter	Key.enter	n/a
522.941	16.341	1045882	prompt	n/a	season gerald sophisticated conference\n
523.9655	0.1055	1047931	keystroke_s	s	n/a
525.03	0.0905	1050060	keystroke_e	e	n/a
525.2105	0.1205	1050421	keystroke_a	a	n/a
525.4505	0.09	1050901	keystroke_s	s	n/a
525.5105	0.075	1051021	keystroke_o	o	n/a
525.7055	0.105	1051411	keystroke_n	n	n/a
525.796	0.1195	1051592	keystroke_Key.space	Key.space	n/a
526.4855	0.12	1052971	keystroke_g	g	n/a
526.68	0.181	1053360	keystroke_e	e	n/a
526.8305	0.1345	1053661	keystroke_r	r	n/a
527.22	0.045	1054440	keystroke_l	l	n/a
527.521	0.0595	1055042	keystroke_Key.backspace	Key.backspace	n/a
527.61	0.1205	1055220	keystroke_a	a	n/a
527.746	0.0745	1055492	keystroke_l	l	n/a
528.1655	0.1205	1056331	keystroke_d	d	n/a
528.2705	0.135	1056541	keystroke_Key.space	Key.space	n/a
528.6005	0.105	1057201	keystroke_s	s	n/a
528.6905	0.075	1057381	keystroke_o	o	n/a
529.2755	0.0755	1058551	keystroke_p	p	n/a
529.5005	0.0755	1059001	keystroke_h	h	n/a
529.65	0.1055	1059300	keystroke_i	i	n/a
529.74	0.1205	1059480	keystroke_s	s	n/a
529.98	0.09	1059960	keystroke_t	t	n/a
530.221	0.105	1060442	keystroke_i	i	n/a
530.461	0.09	1060922	keystroke_c	c	n/a
530.61	0.12	1061220	keystroke_a	a	n/a
530.9405	0.06	1061881	keystroke_t	t	n/a
531.03	0.0155	1062060	keystroke_t	t	n/a
531.2255	0.135	1062451	keystroke_e	e	n/a
531.346	0.089	1062692	keystroke_d	d	n/a
531.63	0.075	1063260	keystroke_Key.backspace	Key.backspace	n/a
531.765	0.09	1063530	keystroke_Key.backspace	Key.backspace	n/a
531.8855	0.1495	1063771	keystroke_e	e	n/a
531.991	0.15	1063982	keystroke_d	d	n/a
532.1105	0.0745	1064221	keystroke_Key.space	Key.space	n/a
532.335	0.06	1064670	keystroke_Key.backspace	Key.backspace	n/a
532.4855	0.0595	1064971	keystroke_Key.backspace	Key.backspace	n/a
532.6205	0.06	1065241	keystroke_Key.backspace	Key.backspace	n/a
532.7405	0.0895	1065481	keystroke_Key.backspace	Key.backspace	n/a
532.845	0.15	1065690	keystroke_e	e	n/a
532.965	0.1355	1065930	keystroke_d	d	n/a
533.0555	0.135	1066111	keystroke_Key.space	Key.space	n/a
537.078	0.0575	1074156	keystroke_c	c	n/a
537.15	0.091	1074300	keystroke_o	o	n/a
537.361	0.0745	1074722	keystroke_n	n	n/a
537.4655	0.1655	1074931	keystroke_f	f	n/a
537.6455	0.195	1075291	keystroke_e	e	n/a
537.7955	0.1805	1075591	keystroke_r	r	n/a
537.9455	0.1505	1075891	keystroke_e	e	n/a
538.3355	0.1055	1076671	keystroke_n	n	n/a
538.485	0.09	1076970	keystroke_c	c	n/a
538.605	0.1505	1077210	keystroke_e	e	n/a
539.1905	0.09	1078381	keystroke_Key.enter	Key.enter	n/a
539.2865	8.5005	1078573	prompt	n/a	seminars viking lafayette besides\n
539.866	0.18	1079732	keystroke_s	s	n/a
540.0005	0.135	1080001	keystroke_e	e	n/a
540.0905	0.1055	1080181	keystroke_m	m	n/a
540.3005	0.075	1080601	keystroke_i	i	n/a
540.4355	0.105	1080871	keystroke_n	n	n/a
540.496	0.0895	1080992	keystroke_a	a	n/a
540.6605	0.1205	1081321	keystroke_r	r	n/a
540.871	0.12	1081742	keystroke_s	s	n/a
540.991	0.119	1081982	keystroke_Key.space	Key.space	n/a
541.425	0.1355	1082850	keystroke_v	v	n/a
541.531	0.0745	1083062	keystroke_i	i	n/a
541.741	0.0755	1083482	keystroke_k	k	n/a
541.9205	0.09	1083841	keystroke_i	i	n/a
542.0405	0.135	1084081	keystroke_n	n	n/a
542.191	0.1045	1084382	keystroke_g	g	n/a
542.2805	0.12	1084561	keystroke_Key.space	Key.space	n/a
542.6105	0.09	1085221	keystroke_l	l	n/a
542.941	0.0895	1085882	keystroke_a	a	n/a
543.1655	0.105	1086331	keystroke_f	f	n/a
543.36	0.1055	1086720	keystroke_a	a	n/a
543.6605	0.075	1087321	keystroke_y	y	n/a
543.8105	0.06	1087621	keystroke_e	e	n/a
544.126	0.074	1088252	keystroke_t	t	n/a
544.275	0.105	1088550	keystroke_t	t	n/a
544.426	0.1645	1088852	keystroke_e	e	n/a
544.591	0.1045	1089182	keystroke_Key.space	Key.space	n/a
545.1755	0.0905	1090351	keystroke_b	b	n/a
545.266	0.104	1090532	keystroke_e	e	n/a
545.8205	0.12	1091641	keystroke_s	s	n/a
545.9105	0.105	1091821	keystroke_i	i	n/a
546.0455	0.1645	1092091	keystroke_d	d	n/a
546.1955	0.105	1092391	keystroke_e	e	n/a
546.4355	0.0745	1092871	keystroke_s	s	n/a
547.725	0.06	1095450	keystroke_Key.enter	Key.enter	n/a
547.7935	7.1785	1095587	prompt	n/a	consists evaluated pine bulletin\n
548.4005	0.1205	1096801	keystroke_c	c	n/a
548.4755	0.075	1096951	keystroke_o	o	n/a
548.6555	0.09	1097311	keystroke_n	n	n/a
548.7755	0.105	1097551	keystroke_s	s	n/a
548.8955	0.075	1097791	keystroke_i	i	n/a
549.0155	0.06	1098031	keystroke_s	s	n/a
549.1505	0.105	1098301	keystroke_t	t	n/a
549.39	0.105	1098780	keystroke_s	s	n/a
549.51	0.105	1099020	keystroke_Key.space	Key.space	n/a
550.0055	0.09	1100011	keystroke_e	e	n/a
550.3055	0.09	1100611	keystroke_v	v	n/a
550.531	0.0595	1101062	keystroke_a	a	n/a
550.605	0.0905	1101210	keystroke_l	l	n/a
550.8605	0.06	1101721	keystroke_u	u	n/a
550.9055	0.0905	1101811	keystroke_a	a	n/a
551.1455	0.075	1102291	keystroke_t	t	n/a
551.401	0.1645	1102802	keystroke_e	e	n/a
551.5505	0.105	1103101	keystroke_d	d	n/a
551.6405	0.075	1103281	keystroke_Key.space	Key.space	n/a
551.8355	0.0595	1103671	keystroke_p	p	n/a
552.045	0.0755	1104090	keystroke_i	i	n/a
552.1955	0.12	1104391	keystroke_n	n	n/a
552.346	0.135	1104692	keystroke_e	e	n/a
552.4655	0.105	1104931	keystroke_Key.space	Key.space	n/a
552.7055	0.09	1105411	keystroke_b	b	n/a
553.0655	0.105	1106131	keystroke_u	u	n/a
553.3205	0.09	1106641	keystroke_l	l	n/a
553.4555	0.075	1106911	keystroke_l	l	n/a
553.5455	0.135	1107091	keystroke_e	e	n/a
553.8305	0.12	1107661	keystroke_t	t	n/a
553.9205	0.075	1107841	keystroke_i	i	n/a
554.0705	0.09	1108141	keystroke_n	n	n/a
554.8655	0.105	1109731	keystroke_Key.enter	Key.enter	n/a
554.9765	6.07	1109953	prompt	n/a	sync sealed swim closest\n
555.5855	0.1055	1111171	keystroke_s	s	n/a
555.7055	0.09	1111411	keystroke_y	y	n/a
556.291	0.0745	1112582	keystroke_n	n	n/a
556.4705	0.09	1112941	keystroke_c	c	n/a
556.5755	0.105	1113151	keystroke_Key.space	Key.space	n/a
556.771	0.075	1113542	keystroke_s	s	n/a
556.9205	0.105	1113841	keystroke_e	e	n/a
557.1155	0.105	1114231	keystroke_a	a	n/a
557.1615	0.089	1114323	keystroke_l	l	n/a
557.5205	0.1345	1115041	keystroke_e	e	n/a
557.656	0.1345	1115312	keystroke_d	d	n/a
557.745	0.1055	1115490	keystroke_Key.space	Key.space	n/a
558.0155	0.09	1116031	keystroke_s	s	n/a
558.2855	0.135	1116571	keystroke_w	w	n/a
558.465	0.0905	1116930	keystroke_i	i	n/a
558.8255	0.0895	1117651	keystroke_m	m	n/a
558.96	0.12	1117920	keystroke_Key.space	Key.space	n/a
559.35	0.105	1118700	keystroke_c	c	n/a
559.575	0.0605	1119150	keystroke_l	l	n/a
559.8	0.06	1119600	keystroke_o	o	n/a
559.9655	0.0745	1119931	keystroke_s	s	n/a
560.1905	0.1195	1120381	keystroke_e	e	n/a
560.4595	0.0755	1120919	keystroke_s	s	n/a
560.6105	0.105	1121221	keystroke_t	t	n/a
560.9555	0.09	1121911	keystroke_Key.enter	Key.enter	n/a
561.0515	10.03	1122103	prompt	n/a	innovation household blade science\n
561.6155	0.075	1123231	keystroke_i	i	n/a
561.8255	0.06	1123651	keystroke_n	n	n/a
561.9595	0.076	1123919	keystroke_n	n	n/a
562.0955	0.12	1124191	keystroke_o	o	n/a
562.2005	0.1195	1124401	keystroke_a	a	n/a
562.5605	0.0895	1125121	keystroke_v	v	n/a
562.845	0.0605	1125690	keystroke_Key.backspace	Key.backspace	n/a
562.9655	0.09	1125931	keystroke_Key.backspace	Key.backspace	n/a
563.0705	0.075	1126141	keystroke_v	v	n/a
563.25	0.09	1126500	keystroke_a	a	n/a
563.4595	0.075	1126919	keystroke_t	t	n/a
563.5355	0.0735	1127071	keystroke_i	i	n/a
563.685	0.0745	1127370	keystroke_o	o	n/a
563.865	0.105	1127730	keystroke_n	n	n/a
563.955	0.12	1127910	keystroke_Key.space	Key.space	n/a
564.39	0.075	1128780	keystroke_h	h	n/a
564.57	0.0755	1129140	keystroke_o	o	n/a
564.7645	0.09	1129529	keystroke_u	u	n/a
564.9005	0.134	1129801	keystroke_s	s	n/a
565.0795	0.12	1130159	keystroke_e	e	n/a
565.2295	0.0755	1130459	keystroke_h	h	n/a
565.439	0.061	1130878	keystroke_i	i	n/a
566.0245	0.075	1132049	keystroke_Key.backspace	Key.backspace	n/a
