onset	duration	sample	value	key	prompt_text
12.267	12.781	24534	prompt	n/a	the quick brown fox jumps over a lazy dog\n
15.3875	0.057	30775	keystroke_t	t	n/a
15.4745	0.15	30949	keystroke_h	h	n/a
15.64	0.089	31280	keystroke_e	e	n/a
15.76	0.105	31520	keystroke_Key.space	Key.space	n/a
16.405	0.105	32810	keystroke_q	q	n/a
16.615	0.09	33230	keystroke_u	u	n/a
16.795	0.1505	33590	keystroke_i	i	n/a
16.96	0.12	33920	keystroke_c	c	n/a
17.17	0.15	34340	keystroke_k	k	n/a
17.395	0.135	34790	keystroke_Key.space	Key.space	n/a
17.74	0.12	35480	keystroke_b	b	n/a
18.1145	0.1205	36229	keystroke_r	r	n/a
18.295	0.12	36590	keystroke_o	o	n/a
18.37	0.1045	36740	keystroke_w	w	n/a
18.5205	0.104	37041	keystroke_n	n	n/a
18.76	0.1195	37520	keystroke_Key.space	Key.space	n/a
18.94	0.09	37880	keystroke_f	f	n/a
19.345	0.15	38690	keystroke_o	o	n/a
19.57	0.15	39140	keystroke_x	x	n/a
19.825	0.105	39650	keystroke_Key.space	Key.space	n/a
20.0055	0.1195	40011	keystroke_j	j	n/a
20.56	0.105	41120	keystroke_u	u	n/a
20.845	0.12	41690	keystroke_m	m	n/a
21.0555	0.15	42111	keystroke_p	p	n/a
21.19	0.105	42380	keystroke_s	s	n/a
21.385	0.12	42770	keystroke_Key.space	Key.space	n/a
21.4905	0.2095	42981	keystroke_o	o	n/a
21.715	0.12	43430	keystroke_v	v	n/a
22.03	0.165	44060	keystroke_e	e	n/a
22.1655	0.1495	44331	keystroke_r	r	n/a
22.36	0.105	44720	keystroke_Key.space	Key.space	n/a
22.57	0.12	45140	keystroke_a	a	n/a
22.6745	0.1055	45349	keystroke_Key.space	Key.space	n/a
23.0345	0.225	46069	keystroke_l	l	n/a
23.1855	0.089	46371	keystroke_a	a	n/a
23.4705	0.134	46941	keystroke_z	z	n/a
23.6655	0.209	47331	keystroke_y	y	n/a
23.7545	0.166	47509	keystroke_Key.space	Key.space	n/a
24.07	0.1645	48140	keystroke_d	d	n/a
24.2205	0.15	48441	keystroke_o	o	n/a
24.4295	0.1355	48859	keystroke_g	g	n/a
24.9095	0.135	49819	keystroke_Key.enter	Key.enter	n/a
25.053	12.234	50106	prompt	n/a	invited collecting compounds remark\n
25.87	0.1345	51740	keystroke_i	i	n/a
26.0495	0.15	52099	keystroke_n	n	n/a
26.3345	0.121	52669	keystroke_v	v	n/a
26.5145	0.24	53029	keystroke_i	i	n/a
26.86	0.1195	53720	keystroke_t	t	n/a
27.1895	0.076	54379	keystroke_e	e	n/a
27.5055	0.135	55011	keystroke_d	d	n/a
27.7295	0.09	55459	keystroke_Key.space	Key.space	n/a
28.0305	0.1345	56061	keystroke_c	c	n/a
28.18	0.105	56360	keystroke_o	o	n/a
28.495	0.075	56990	keystroke_l	l	n/a
28.66	0.1055	57320	keystroke_l	l	n/a
28.825	0.105	57650	keystroke_e	e	n/a
29.14	0.15	58280	keystroke_c	c	n/a
30.865	0.09	61730	keystroke_t	t	n/a
31	0.1495	62000	keystroke_i	i	n/a
31.1045	0.1805	62209	keystroke_n	n	n/a
31.2395	0.09	62479	keystroke_g	g	n/a
31.5545	0.0905	63109	keystroke_Key.space	Key.space	n/a
32.44	0.105	64880	keystroke_c	c	n/a
32.695	0.105	65390	keystroke_o	o	n/a
32.98	0.1495	65960	keystroke_m	m	n/a
33.2945	0.0755	66589	keystroke_p	p	n/a
33.4745	0.166	66949	keystroke_o	o	n/a
34.165	0.0145	68330	keystroke_u	u	n/a
34.3305	0.1345	68661	keystroke_n	n	n/a
34.9905	0.119	69981	keystroke_d	d	n/a
35.2745	0.075	70549	keystroke_s	s	n/a
35.5745	0.105	71149	keystroke_Key.space	Key.space	n/a
35.9795	0.1505	71959	keystroke_r	r	n/a
36.115	0.1205	72230	keystroke_e	e	n/a
36.37	0.105	72740	keystroke_m	m	n/a
36.52	0.105	73040	keystroke_a	a	n/a
36.5805	0.1495	73161	keystroke_r	r	n/a
36.79	0.135	73580	keystroke_k	k	n/a
37.165	0.12	74330	keystroke_Key.enter	Key.enter	n/a
37.291	13.856	74582	prompt	n/a	massachusetts transport adjustment michigan\n
38.17	0.1355	76340	keystroke_m	m	n/a
38.41	0.09	76820	keystroke_a	a	n/a
38.77	0.105	77540	keystroke_s	s	n/a
38.95	0.1205	77900	keystroke_s	s	n/a
39.175	0.0905	78350	keystroke_a	a	n/a
39.5645	0.1205	79129	keystroke_c	c	n/a
39.6855	0.0745	79371	keystroke_h	h	n/a
39.94	0.105	79880	keystroke_u	u	n/a
40.39	0.105	80780	keystroke_s	s	n/a
40.645	0.06	81290	keystroke_e	e	n/a
40.99	0.075	81980	keystroke_t	t	n/a
41.14	0.105	82280	keystroke_t	t	n/a
41.41	0.1195	82820	keystroke_s	s	n/a
41.695	0.1045	83390	keystroke_Key.space	Key.space	n/a
42.1145	0.1055	84229	keystroke_t	t	n/a
42.3555	0.1495	84711	keystroke_r	r	n/a
42.61	0.105	85220	keystroke_n	n	n/a
43.1195	0.12	86239	keystroke_Key.backspace	Key.backspace	n/a
43.285	0.1205	86570	keystroke_a	a	n/a
43.4345	0.09	86869	keystroke_n	n	n/a
43.6155	0.105	87231	keystroke_s	s	n/a
43.81	0.195	87620	keystroke_p	p	n/a
43.99	0.2095	87980	keystroke_o	o	n/a
44.185	0.075	88370	keystroke_r	r	n/a
44.6645	0.105	89329	keystroke_t	t	n/a
45.07	0.12	90140	keystroke_Key.space	Key.space	n/a
45.475	0.075	90950	keystroke_a	a	n/a
45.7295	0.105	91459	keystroke_d	d	n/a
45.9245	0.0905	91849	keystroke_j	j	n/a
46.21	0.105	92420	keystroke_u	u	n/a
46.3605	0.1045	92721	keystroke_s	s	n/a
46.675	0.135	93350	keystroke_t	t	n/a
47.215	0.15	94430	keystroke_m	m	n/a
47.396	0.119	94792	keystroke_e	e	n/a
47.5	0.0905	95000	keystroke_n	n	n/a
47.68	0.09	95360	keystroke_t	t	n/a
47.89	0.075	95780	keystroke_Key.space	Key.space	n/a
48.955	0.0455	97910	keystroke_m	m	n/a
49.15	0.1055	98300	keystroke_i	i	n/a
49.285	0.15	98570	keystroke_c	c	n/a
49.42	0.135	98840	keystroke_h	h	n/a
49.5855	0.1495	99171	keystroke_i	i	n/a
50.2305	0.15	100461	keystroke_g	g	n/a
50.47	0.0895	100940	keystroke_a	a	n/a
50.5905	0.1195	101181	keystroke_n	n	n/a
50.995	0.15	101990	keystroke_Key.enter	Key.enter	n/a
51.151	9.326	102302	prompt	n/a	faster resorts herself tries\n
52.3155	0.1645	104631	keystroke_f	f	n/a
52.66	0.075	105320	keystroke_a	a	n/a
52.885	0.12	105770	keystroke_s	s	n/a
53.245	0.12	106490	keystroke_t	t	n/a
53.5	0.195	107000	keystroke_e	e	n/a
53.62	0.1655	107240	keystroke_r	r	n/a
53.9045	0.12	107809	keystroke_Key.space	Key.space	n/a
54.1595	0.15	108319	keystroke_r	r	n/a
54.295	0.12	108590	keystroke_e	e	n/a
54.475	0.1055	108950	keystroke_s	s	n/a
54.64	0.165	109280	keystroke_o	o	n/a
54.745	0.255	109490	keystroke_u	u	n/a
55.435	0.09	110870	keystroke_Key.backspace	Key.backspace	n/a
55.75	0.12	111500	keystroke_r	r	n/a
56.185	0.12	112370	keystroke_t	t	n/a
56.515	0.121	113030	keystroke_s	s	n/a
56.74	0.075	113480	keystroke_Key.space	Key.space	n/a
56.89	0.135	113780	keystroke_h	h	n/a
57.01	0.15	114020	keystroke_e	e	n/a
57.1305	0.1045	114261	keystroke_r	r	n/a
57.385	0.135	114770	keystroke_s	s	n/a
57.7	0.06	115400	keystroke_e	e	n/a
58.27	0.165	116540	keystroke_l	l	n/a
58.5405	0.1345	117081	keystroke_f	f	n/a
58.81	0.135	117620	keystroke_Key.space	Key.space	n/a
59.125	0.1055	118250	keystroke_t	t	n/a
59.41	0.105	118820	keystroke_r	r	n/a
59.62	0.12	119240	keystroke_i	i	n/a
59.845	0.075	119690	keystroke_e	e	n/a
60.0845	0.1205	120169	keystroke_s	s	n/a
60.3395	0.135	120679	keystroke_Key.enter	Key.enter	n/a
60.481	11.261	120962	prompt	n/a	draw independence maine thinkpad\n
62.2005	0.104	124401	keystroke_d	d	n/a
62.8145	0.135	125629	keystroke_r	r	n/a
62.9655	0.075	125931	keystroke_a	a	n/a
63.2505	0.1045	126501	keystroke_w	w	n/a
63.4	0.105	126800	keystroke_Key.space	Key.space	n/a
63.58	0.165	127160	keystroke_i	i	n/a
63.7	0.105	127400	keystroke_n	n	n/a
64.0295	0.12	128059	keystroke_d	d	n/a
64.3155	0.1045	128631	keystroke_e	e	n/a
64.7645	0.1055	129529	keystroke_p	p	n/a
64.885	0.105	129770	keystroke_e	e	n/a
65.065	0.135	130130	keystroke_n	n	n/a
65.245	0.105	130490	keystroke_d	d	n/a
65.4995	0.09	130999	keystroke_e	e	n/a
65.6495	0.106	131299	keystroke_n	n	n/a
65.92	0.12	131840	keystroke_c	c	n/a
66.2495	0.12	132499	keystroke_e	e	n/a
66.3995	0.1205	132799	keystroke_Key.space	Key.space	n/a
66.9245	0.091	133849	keystroke_m	m	n/a
66.97	0.075	133940	keystroke_a	a	n/a
67.405	0.2105	134810	keystroke_i	i	n/a
67.54	0.12	135080	keystroke_n	n	n/a
67.81	0.1205	135620	keystroke_e	e	n/a
68.275	0.0905	136550	keystroke_Key.space	Key.space	n/a
68.65	0.105	137300	keystroke_t	t	n/a
68.77	0.135	137540	keystroke_h	h	n/a
68.935	0.165	137870	keystroke_i	i	n/a
69.085	0.18	138170	keystroke_n	n	n/a
70.0155	0.134	140031	keystroke_k	k	n/a
70.39	0.12	140780	keystroke_p	p	n/a
70.99	0.105	141980	keystroke_a	a	n/a
71.32	0.12	142640	keystroke_d	d	n/a
71.635	0.105	143270	keystroke_Key.enter	Key.enter	n/a
71.747	15.4605	143494	prompt	n/a	twenty patients single vitamin\n
72.865	0.1505	145730	keystroke_t	t	n/a
73.225	0.105	146450	keystroke_e	e	n/a
73.435	0.12	146870	keystroke_n	n	n/a
73.585	0.1045	147170	keystroke_t	t	n/a
73.9445	0.165	147889	keystroke_y	y	n/a
74.8895	0.0755	149779	keystroke_Key.backspace	Key.backspace	n/a
75.175	0.06	150350	keystroke_Key.backspace	Key.backspace	n/a
75.4145	0.105	150829	keystroke_Key.backspace	Key.backspace	n/a
75.67	0.0895	151340	keystroke_Key.backspace	Key.backspace	n/a
75.9095	0.105	151819	keystroke_w	w	n/a
76.1195	0.09	152239	keystroke_e	e	n/a
76.33	0.1195	152660	keystroke_n	n	n/a
76.5245	0.09	153049	keystroke_t	t	n/a
76.885	0.195	153770	keystroke_y	y	n/a
77.0495	0.1055	154099	keystroke_Key.space	Key.space	n/a
77.26	0.1045	154520	keystroke_p	p	n/a
77.4695	0.121	154939	keystroke_a	a	n/a
77.6945	0.091	155389	keystroke_t	t	n/a
77.7995	0.0905	155599	keystroke_i	i	n/a
77.935	0.075	155870	keystroke_e	e	n/a
78.0245	0.09	156049	keystroke_n	n	n/a
78.3695	0.1205	156739	keystroke_s	s	n/a
78.6545	0.09	157309	keystroke_Key.space	Key.space	n/a
79.87	0.121	159740	keystroke_Key.backspace	Key.backspace	n/a
80.2445	0.15	160489	keystroke_Key.backspace	Key.backspace	n/a
80.5445	0.105	161089	keystroke_t	t	n/a
81.0545	0.12	162109	keystroke_s	s	n/a
81.3095	0.105	162619	keystroke_Key.space	Key.space	n/a
81.58	0.1045	163160	keystroke_s	s	n/a
81.76	0.1345	163520	keystroke_i	i	n/a
82.015	0.12	164030	keystroke_n	n	n/a
82.6905	0.0595	165381	keystroke_g	g	n/a
82.855	0.12	165710	keystroke_l	l	n/a
82.9905	0.1345	165981	keystroke_e	e	n/a
83.17	0.075	166340	keystroke_Key.space	Key.space	n/a
83.8755	0.1195	167751	keystroke_v	v	n/a
84.025	0.12	168050	keystroke_i	i	n/a
84.3555	0.1345	168711	keystroke_t	t	n/a
84.55	0.105	169100	keystroke_a	a	n/a
84.745	0.135	169490	keystroke_m	m	n/a
85.105	0.195	170210	keystroke_i	i	n/a
85.255	0.105	170510	keystroke_n	n	n/a
85.675	0.105	171350	keystroke_e	e	n/a
86.38	0.1195	172760	keystroke_Key.backspace	Key.backspace	n/a
87.0695	0.135	174139	keystroke_Key.enter	Key.enter	n/a
87.2125	11.754	174425	prompt	n/a	souls outsourcing extra respondent\n
88.1495	0.06	176299	keystroke_s	s	n/a
88.375	0.195	176750	keystroke_o	o	n/a
88.525	0.12	177050	keystroke_u	u	n/a
88.885	0.15	177770	keystroke_l	l	n/a
89.095	0.075	178190	keystroke_s	s	n/a
89.665	0.105	179330	keystroke_Key.space	Key.space	n/a
90.13	0.1955	180260	keystroke_o	o	n/a
90.235	0.1805	180470	keystroke_u	u	n/a
90.475	0.1355	180950	keystroke_t	t	n/a
91.315	0.12	182630	keystroke_s	s	n/a
91.555	0.2105	183110	keystroke_o	o	n/a
91.72	0.1795	183440	keystroke_u	u	n/a
91.855	0.0895	183710	keystroke_r	r	n/a
92.32	0.09	184640	keystroke_c	c	n/a
92.425	0.12	184850	keystroke_i	i	n/a
92.56	0.135	185120	keystroke_n	n	n/a
92.665	0.09	185330	keystroke_g	g	n/a
92.98	0.075	185960	keystroke_Key.space	Key.space	n/a
93.5495	0.121	187099	keystroke_e	e	n/a
94.2255	0.119	188451	keystroke_x	x	n/a
94.69	0.12	189380	keystroke_t	t	n/a
94.9605	0.2245	189921	keystroke_r	r	n/a
95.1555	0.1195	190311	keystroke_a	a	n/a
95.4695	0.075	190939	keystroke_Key.space	Key.space	n/a
96.0245	0.166	192049	keystroke_r	r	n/a
96.1905	0.1345	192381	keystroke_e	e	n/a
96.4445	0.121	192889	keystroke_s	s	n/a
96.6245	0.12	193249	keystroke_p	p	n/a
96.8655	0.209	193731	keystroke_o	o	n/a
97.03	0.1495	194060	keystroke_n	n	n/a
97.2545	0.12	194509	keystroke_d	d	n/a
97.51	0.1055	195020	keystroke_e	e	n/a
97.6445	0.1655	195289	keystroke_n	n	n/a
97.84	0.1045	195680	keystroke_t	t	n/a
98.86	0.105	197720	keystroke_Key.enter	Key.enter	n/a
98.973	9.1135	197946	prompt	n/a	hanging palm usgs attempts\n
99.835	0.135	199670	keystroke_h	h	n/a
100.015	0.105	200030	keystroke_a	a	n/a
100.135	0.1205	200270	keystroke_n	n	n/a
100.315	0.06	200630	keystroke_g	g	n/a
100.405	0.18	200810	keystroke_i	i	n/a
100.555	0.105	201110	keystroke_n	n	n/a
100.66	0.105	201320	keystroke_g	g	n/a
100.87	0.09	201740	keystroke_Key.space	Key.space	n/a
101.785	0.1645	203570	keystroke_p	p	n/a
101.9645	0.135	203929	keystroke_a	a	n/a
102.2195	0.15	204439	keystroke_l	l	n/a
102.4745	0.1055	204949	keystroke_m	m	n/a
102.79	0.1345	205580	keystroke_Key.space	Key.space	n/a
103.24	0.2095	206480	keystroke_u	u	n/a
103.765	0.134	207530	keystroke_s	s	n/a
104.0355	0.12	208071	keystroke_g	g	n/a
104.305	0.119	208610	keystroke_s	s	n/a
104.574	0.0905	209148	keystroke_Key.space	Key.space	n/a
105.175	0.12	210350	keystroke_a	a	n/a
105.64	0.105	211280	keystroke_t	t	n/a
105.82	0.105	211640	keystroke_t	t	n/a
106.135	0.104	212270	keystroke_e	e	n/a
106.4195	0.12	212839	keystroke_m	m	n/a
106.8245	0.1355	213649	keystroke_p	p	n/a
107.0045	0.106	214009	keystroke_t	t	n/a
107.4095	0.1055	214819	keystroke_s	s	n/a
107.9495	0.1355	215899	keystroke_Key.enter	Key.enter	n/a
108.092	10.1945	216184	prompt	n/a	screw staff transmission aberdeen\n
109.4195	0.09	218839	keystroke_s	s	n/a
109.705	0.1195	219410	keystroke_c	c	n/a
110.1095	0.15	220219	keystroke_r	r	n/a
110.29	0.12	220580	keystroke_e	e	n/a
110.4995	0.09	220999	keystroke_w	w	n/a
110.815	0.1045	221630	keystroke_Key.space	Key.space	n/a
111.055	0.1195	222110	keystroke_s	s	n/a
111.4	0.1495	222800	keystroke_t	t	n/a
111.6105	0.089	223221	keystroke_a	a	n/a
111.88	0.0895	223760	keystroke_f	f	n/a
112.0595	0.09	224119	keystroke_f	f	n/a
112.2695	0.09	224539	keystroke_Key.space	Key.space	n/a
112.6445	0.0905	225289	keystroke_t	t	n/a
112.8695	0.2105	225739	keystroke_r	r	n/a
113.05	0.09	226100	keystroke_a	a	n/a
113.17	0.12	226340	keystroke_n	n	n/a
113.335	0.12	226670	keystroke_s	s	n/a
113.695	0.12	227390	keystroke_m	m	n/a
114.0095	0.135	228019	keystroke_i	i	n/a
114.1595	0.105	228319	keystroke_s	s	n/a
114.355	0.105	228710	keystroke_s	s	n/a
114.5345	0.21	229069	keystroke_i	i	n/a
114.655	0.18	229310	keystroke_o	o	n/a
114.76	0.1345	229520	keystroke_n	n	n/a
115.255	0.1045	230510	keystroke_Key.space	Key.space	n/a
115.8545	0.1355	231709	keystroke_a	a	n/a
116.1245	0.0905	232249	keystroke_b	b	n/a
116.4095	0.18	232819	keystroke_e	e	n/a
116.5445	0.135	233089	keystroke_r	r	n/a
117.025	0.0895	234050	keystroke_d	d	n/a
117.295	0.06	234590	keystroke_e	e	n/a
117.459	0.091	234918	keystroke_e	e	n/a
117.654	0.136	235308	keystroke_n	n	n/a
118.1495	0.1355	236299	keystroke_Key.enter	Key.enter	n/a
118.29	8.846	236580	prompt	n/a	plugins absolute sought average\n
119.635	0.09	239270	keystroke_p	p	n/a
119.98	0.1795	239960	keystroke_l	l	n/a
120.3245	0.225	240649	keystroke_u	u	n/a
120.5195	0.075	241039	keystroke_g	g	n/a
120.7445	0.135	241489	keystroke_i	i	n/a
120.85	0.1645	241700	keystroke_n	n	n/a
121.0745	0.135	242149	keystroke_s	s	n/a
121.5545	0.09	243109	keystroke_Key.space	Key.space	n/a
121.885	0.1195	243770	keystroke_a	a	n/a
122.1695	0.105	244339	keystroke_b	b	n/a
122.4695	0.105	244939	keystroke_s	s	n/a
122.635	0.105	245270	keystroke_o	o	n/a
122.8895	0.12	245779	keystroke_l	l	n/a
123.1595	0.2555	246319	keystroke_u	u	n/a
123.325	0.1345	246650	keystroke_t	t	n/a
123.5045	0.1055	247009	keystroke_e	e	n/a
124.2095	0.1055	248419	keystroke_Key.space	Key.space	n/a
124.4795	0.1505	248959	keystroke_s	s	n/a
124.5845	0.195	249169	keystroke_o	o	n/a
124.6745	0.2105	249349	keystroke_u	u	n/a
124.915	0.12	249830	keystroke_g	g	n/a
125.065	0.1205	250130	keystroke_h	h	n/a
125.215	0.09	250430	keystroke_t	t	n/a
125.35	0.09	250700	keystroke_Key.space	Key.space	n/a
125.5445	0.1055	251089	keystroke_a	a	n/a
125.8605	0.119	251721	keystroke_v	v	n/a
126.1	0.105	252200	keystroke_e	e	n/a
126.19	0.12	252380	keystroke_r	r	n/a
126.43	0.15	252860	keystroke_a	a	n/a
126.5945	0.1355	253189	keystroke_g	g	n/a
126.7445	0.075	253489	keystroke_e	e	n/a
127	0.1345	254000	keystroke_Key.enter	Key.enter	n/a
127.1395	9.972	254279	prompt	n/a	today belkin shown expiration\n
128.1095	0.1055	256219	keystroke_t	t	n/a
128.275	0.105	256550	keystroke_o	o	n/a
128.4395	0.135	256879	keystroke_d	d	n/a
128.6495	0.1055	257299	keystroke_a	a	n/a
128.785	0.134	257570	keystroke_y	y	n/a
128.92	0.165	257840	keystroke_Key.space	Key.space	n/a
129.474	0.076	258948	keystroke_b	b	n/a
129.999	0.106	259998	keystroke_e	e	n/a
130.209	0.121	260418	keystroke_l	l	n/a
130.4195	0.1055	260839	keystroke_k	k	n/a
130.66	0.2095	261320	keystroke_i	i	n/a
130.8395	0.12	261679	keystroke_n	n	n/a
131.065	0.075	262130	keystroke_Key.space	Key.space	n/a
131.3055	0.104	262611	keystroke_h	h	n/a
132.2195	0.1055	264439	keystroke_Key.backspace	Key.backspace	n/a
132.3855	0.089	264771	keystroke_s	s	n/a
132.5195	0.1355	265039	keystroke_h	h	n/a
132.715	0.135	265430	keystroke_o	o	n/a
132.8645	0.0905	265729	keystroke_w	w	n/a
132.9855	0.119	265971	keystroke_n	n	n/a
133.645	0.105	267290	keystroke_Key.space	Key.space	n/a
133.9	0.09	267800	keystroke_e	e	n/a
134.215	0.15	268430	keystroke_x	x	n/a
134.74	0.12	269480	keystroke_p	p	n/a
134.98	0.12	269960	keystroke_i	i	n/a
135.19	0.165	270380	keystroke_r	r	n/a
135.4	0.165	270800	keystroke_a	a	n/a
135.55	0.105	271100	keystroke_t	t	n/a
135.669	0.1955	271338	keystroke_i	i	n/a
135.7145	0.1955	271429	keystroke_o	o	n/a
135.8195	0.165	271639	keystroke_n	n	n/a
137.05	0.06	274100	keystroke_Key.enter	Key.enter	n/a
137.116	9.896	274232	prompt	n/a	excitement vessel boolean wall\n
138.1295	0.105	276259	keystroke_e	e	n/a
138.4445	0.135	276889	keystroke_x	x	n/a
138.7745	0.0905	277549	keystroke_c	c	n/a
138.9095	0.165	277819	keystroke_i	i	n/a
139.2095	0.105	278419	keystroke_t	t	n/a
139.4495	0.1055	278899	keystroke_e	e	n/a
139.705	0.1345	279410	keystroke_m	m	n/a
139.8695	0.106	279739	keystroke_e	e	n/a
139.9895	0.105	279979	keystroke_n	n	n/a
140.1245	0.105	280249	keystroke_t	t	n/a
140.5745	0.12	281149	keystroke_Key.space	Key.space	n/a
140.95	0.1045	281900	keystroke_v	v	n/a
141.1895	0.075	282379	keystroke_e	e	n/a
141.4145	0.075	282829	keystroke_s	s	n/a
142.1195	0.1055	284239	keystroke_s	s	n/a
142.375	0.105	284750	keystroke_e	e	n/a
142.6895	0.18	285379	keystroke_l	l	n/a
142.99	0.1345	285980	keystroke_Key.space	Key.space	n/a
143.23	0.105	286460	keystroke_b	b	n/a
143.4395	0.09	286879	keystroke_o	o	n/a
143.635	0.1045	287270	keystroke_o	o	n/a
143.98	0.195	287960	keystroke_l	l	n/a
144.07	0.165	288140	keystroke_e	e	n/a
144.25	0.165	288500	keystroke_a	a	n/a
144.4	0.09	288800	keystroke_n	n	n/a
144.865	0.105	289730	keystroke_Key.space	Key.space	n/a
145.24	0.15	290480	keystroke_w	w	n/a
145.345	0.135	290690	keystroke_a	a	n/a
145.63	0.0895	291260	keystroke_l	l	n/a
145.78	0.165	291560	keystroke_l	l	n/a
146.89	0.12	293780	keystroke_Key.enter	Key.enter	n/a
147.0165	11.9205	294033	prompt	n/a	nevada cities giant restriction\n
147.9995	0.136	295999	keystroke_v	v	n/a
148.4055	0.1195	296811	keystroke_e	e	n/a
149.125	0.0895	298250	keystroke_Key.backspace	Key.backspace	n/a
149.305	0.105	298610	keystroke_Key.backspace	Key.backspace	n/a
149.605	0.135	299210	keystroke_n	n	n/a
149.77	0.105	299540	keystroke_e	e	n/a
150.07	0.1195	300140	keystroke_v	v	n/a
150.3245	0.075	300649	keystroke_a	a	n/a
150.5945	0.12	301189	keystroke_d	d	n/a
150.805	0.0895	301610	keystroke_a	a	n/a
151.135	0.12	302270	keystroke_Key.space	Key.space	n/a
151.555	0.135	303110	keystroke_c	c	n/a
151.855	0.074	303710	keystroke_i	i	n/a
152.095	0.105	304190	keystroke_t	t	n/a
152.214	0.165	304428	keystroke_i	i	n/a
152.365	0.09	304730	keystroke_e	e	n/a
152.575	0.105	305150	keystroke_s	s	n/a
152.9795	0.12	305959	keystroke_Key.space	Key.space	n/a
153.43	0.135	306860	keystroke_g	g	n/a
153.625	0.135	307250	keystroke_i	i	n/a
153.745	0.15	307490	keystroke_a	a	n/a
153.9095	0.105	307819	keystroke_n	n	n/a
154.3	0.105	308600	keystroke_t	t	n/a
154.5395	0.0745	309079	keystroke_Key.space	Key.space	n/a
154.869	0.136	309738	keystroke_r	r	n/a
155.005	0.119	310010	keystroke_e	e	n/a
155.5895	0.105	311179	keystroke_s	s	n/a
155.905	0.0745	311810	keystroke_t	t	n/a
156.13	0.1045	312260	keystroke_r	r	n/a
156.2945	0.12	312589	keystroke_i	i	n/a
156.5795	0.1205	313159	keystroke_c	c	n/a
156.955	0.0895	313910	keystroke_t	t	n/a
157.0145	0.2405	314029	keystroke_i	i	n/a
157.1495	0.135	314299	keystroke_o	o	n/a
157.2245	0.1505	314449	keystroke_n	n	n/a
158.8	0.1345	317600	keystroke_Key.enter	Key.enter	n/a
158.9415	8.2	317883	prompt	n/a	burke adapter tags wifi\n
159.7895	0.09	319579	keystroke_b	b	n/a
160.119	0.1365	320238	keystroke_u	u	n/a
160.2555	0.089	320511	keystroke_r	r	n/a
160.5095	0.12	321019	keystroke_k	k	n/a
160.6	0.1045	321200	keystroke_e	e	n/a
160.9445	0.105	321889	keystroke_Key.space	Key.space	n/a
161.515	0.1495	323030	keystroke_a	a	n/a
161.83	0.12	323660	keystroke_d	d	n/a
162.069	0.106	324138	keystroke_a	a	n/a
162.294	0.1665	324588	keystroke_p	p	n/a
162.4755	0.134	324951	keystroke_t	t	n/a
162.7145	0.1655	325429	keystroke_e	e	n/a
162.835	0.1195	325670	keystroke_r	r	n/a
163.225	0.1195	326450	keystroke_Key.space	Key.space	n/a
163.615	0.15	327230	keystroke_t	t	n/a
163.78	0.1055	327560	keystroke_a	a	n/a
164.019	0.105	328038	keystroke_g	g	n/a
164.275	0.0895	328550	keystroke_s	s	n/a
164.425	0.1045	328850	keystroke_Key.space	Key.space	n/a
164.9645	0.09	329929	keystroke_w	w	n/a
165.0395	0.135	330079	keystroke_i	i	n/a
165.3545	0.076	330709	keystroke_i	i	n/a
165.8645	0.12	331729	keystroke_Key.backspace	Key.backspace	n/a
165.9855	0.104	331971	keystroke_f	f	n/a
166.1195	0.136	332239	keystroke_i	i	n/a
166.99	0.15	333980	keystroke_Key.enter	Key.enter	n/a
167.1455	8.141	334291	prompt	n/a	clay some rangers clerk\n
168.399	0.136	336798	keystroke_c	c	n/a
168.685	0.195	337370	keystroke_l	l	n/a
168.8495	0.1205	337699	keystroke_a	a	n/a
169.119	0.18	338238	keystroke_y	y	n/a
169.225	0.1645	338450	keystroke_Key.space	Key.space	n/a
169.4355	0.1335	338871	keystroke_s	s	n/a
169.6295	0.135	339259	keystroke_o	o	n/a
169.8995	0.1195	339799	keystroke_m	m	n/a
170.02	0.1195	340040	keystroke_e	e	n/a
170.2295	0.0895	340459	keystroke_Key.space	Key.space	n/a
170.935	0.239	341870	keystroke_r	r	n/a
171.235	0.135	342470	keystroke_a	a	n/a
171.475	0.135	342950	keystroke_n	n	n/a
171.669	0.046	343338	keystroke_t	t	n/a
172.284	0.135	344568	keystroke_Key.backspace	Key.backspace	n/a
172.375	0.075	344750	keystroke_g	g	n/a
172.54	0.18	345080	keystroke_e	e	n/a
172.69	0.12	345380	keystroke_r	r	n/a
172.975	0.12	345950	keystroke_s	s	n/a
173.1995	0.1055	346399	keystroke_Key.space	Key.space	n/a
173.785	0.045	347570	keystroke_c	c	n/a
173.95	0.1795	347900	keystroke_l	l	n/a
174.1595	0.18	348319	keystroke_e	e	n/a
174.3105	0.119	348621	keystroke_r	r	n/a
174.4595	0.12	348919	keystroke_k	k	n/a
175.1495	0.135	350299	keystroke_Key.enter	Key.enter	n/a
175.2905	10.091	350581	prompt	n/a	pull type agencies turbo\n
179.906	0.089	359812	keystroke_p	p	n/a
180.01	0.135	360020	keystroke_u	u	n/a
180.385	0.06	360770	keystroke_l	l	n/a
180.5645	0.0755	361129	keystroke_l	l	n/a
180.9845	0.0905	361969	keystroke_Key.space	Key.space	n/a
181.3895	0.136	362779	keystroke_t	t	n/a
181.5545	0.135	363109	keystroke_y	y	n/a
181.6595	0.165	363319	keystroke_p	p	n/a
181.8255	0.119	363651	keystroke_e	e	n/a
182.1545	0.1205	364309	keystroke_Key.space	Key.space	n/a
182.4405	0.1345	364881	keystroke_a	a	n/a
182.635	0.105	365270	keystroke_g	g	n/a
182.755	0.09	365510	keystroke_e	e	n/a
182.89	0.105	365780	keystroke_n	n	n/a
183.055	0.12	366110	keystroke_c	c	n/a
183.19	0.12	366380	keystroke_i	i	n/a
183.355	0.1645	366710	keystroke_e	e	n/a
183.5055	0.149	367011	keystroke_s	s	n/a
183.6395	0.09	367279	keystroke_Key.space	Key.space	n/a
183.9995	0.105	367999	keystroke_t	t	n/a
184.225	0.105	368450	keystroke_u	u	n/a
184.315	0.105	368630	keystroke_r	r	n/a
184.63	0.09	369260	keystroke_b	b	n/a
184.93	0.12	369860	keystroke_o	o	n/a
185.29	0.09	370580	keystroke_Key.enter	Key.enter	n/a
185.385	12.1465	370770	prompt	n/a	perry geographical psychological occurs\n
186.3545	0.15	372709	keystroke_p	p	n/a
186.4895	0.1655	372979	keystroke_e	e	n/a
186.61	0.075	373220	keystroke_r	r	n/a
186.76	0.15	373520	keystroke_r	r	n/a
186.97	0.18	373940	keystroke_y	y	n/a
187.075	0.165	374150	keystroke_Key.space	Key.space	n/a
187.5255	0.0745	375051	keystroke_g	g	n/a
187.7055	0.1045	375411	keystroke_e	e	n/a
188.0645	0.196	376129	keystroke_o	o	n/a
188.3945	0.12	376789	keystroke_g	g	n/a
188.665	0.21	377330	keystroke_r	r	n/a
188.89	0.105	377780	keystroke_a	a	n/a
189.1005	0.1045	378201	keystroke_p	p	n/a
189.25	0.15	378500	keystroke_h	h	n/a
189.415	0.1355	378830	keystroke_i	i	n/a
189.6695	0.09	379339	keystroke_c	c	n/a
189.9545	0.1055	379909	keystroke_a	a	n/a
190.09	0.165	380180	keystroke_l	l	n/a
190.2995	0.12	380599	keystroke_Key.space	Key.space	n/a
190.8845	0.135	381769	keystroke_p	p	n/a
191.0645	0.1205	382129	keystroke_s	s	n/a
191.2445	0.135	382489	keystroke_y	y	n/a
191.455	0.1345	382910	keystroke_c	c	n/a
191.605	0.12	383210	keystroke_h	h	n/a
191.77	0.105	383540	keystroke_o	o	n/a
191.9945	0.1355	383989	keystroke_l	l	n/a
192.235	0.12	384470	keystroke_o	o	n/a
192.37	0.1195	384740	keystroke_g	g	n/a
192.4745	0.1055	384949	keystroke_i	i	n/a
193.0295	0.1205	386059	keystroke_c	c	n/a
193.3445	0.075	386689	keystroke_a	a	n/a
193.4645	0.0905	386929	keystroke_l	l	n/a
193.615	0.105	387230	keystroke_l	l	n/a
194.3495	0.09	388699	keystroke_Key.backspace	Key.backspace	n/a
194.5595	0.12	389119	keystroke_Key.space	Key.space	n/a
194.9945	0.15	389989	keystroke_c	c	n/a
195.5945	0.075	391189	keystroke_Key.backspace	Key.backspace	n/a
195.7895	0.0905	391579	keystroke_o	o	n/a
196.0895	0.09	392179	keystroke_c	c	n/a
196.2995	0.0755	392599	keystroke_c	c	n/a
196.4195	0.1355	392839	keystroke_u	u	n/a
196.8545	0.121	393709	keystroke_r	r	n/a
197.125	0.135	394250	keystroke_s	s	n/a
197.4545	0.075	394909	keystroke_Key.enter	Key.enter	n/a
197.536	9.7	395072	prompt	n/a	venue small sustainability offered\n
198.85	0.06	397700	keystroke_v	v	n/a
198.985	0.12	397970	keystroke_e	e	n/a
199.12	0.105	398240	keystroke_n	n	n/a
199.435	0.15	398870	keystroke_u	u	n/a
199.5995	0.12	399199	keystroke_e	e	n/a
199.945	0.0745	399890	keystroke_Key.space	Key.space	n/a
200.3195	0.1355	400639	keystroke_s	s	n/a
200.5295	0.1055	401059	keystroke_m	m	n/a
200.6955	0.119	401391	keystroke_a	a	n/a
200.8295	0.06	401659	keystroke_l	l	n/a
200.9645	0.15	401929	keystroke_l	l	n/a
201.2645	0.1205	402529	keystroke_Key.space	Key.space	n/a
201.85	0.105	403700	keystroke_s	s	n/a
202	0.15	404000	keystroke_u	u	n/a
202.105	0.075	404210	keystroke_s	s	n/a
202.39	0.135	404780	keystroke_t	t	n/a
202.555	0.105	405110	keystroke_a	a	n/a
202.6895	0.1205	405379	keystroke_i	i	n/a
202.7805	0.15	405561	keystroke_n	n	n/a
202.975	0.1195	405950	keystroke_a	a	n/a
203.41	0.075	406820	keystroke_b	b	n/a
203.575	0.1045	407150	keystroke_i	i	n/a
204.34	0.104	408680	keystroke_l	l	n/a
204.58	0.135	409160	keystroke_i	i	n/a
204.835	0.0905	409670	keystroke_t	t	n/a
204.9995	0.18	409999	keystroke_y	y	n/a
205.2995	0.12	410599	keystroke_Key.space	Key.space	n/a
205.5695	0.105	411139	keystroke_o	o	n/a
205.66	0.075	411320	keystroke_f	f	n/a
205.8545	0.075	411709	keystroke_f	f	n/a
206.05	0.135	412100	keystroke_e	e	n/a
206.155	0.15	412310	keystroke_r	r	n/a
206.29	0.12	412580	keystroke_e	e	n/a
206.695	0.135	413390	keystroke_d	d	n/a
207.1	0.135	414200	keystroke_Key.enter	Key.enter	n/a
207.241	10.09	414482	prompt	n/a	relaxation great presence trust\n
208.36	0.135	416720	keystroke_r	r	n/a
208.48	0.12	416960	keystroke_e	e	n/a
208.705	0.09	417410	keystroke_l	l	n/a
208.855	0.12	417710	keystroke_a	a	n/a
209.23	0.09	418460	keystroke_x	x	n/a
209.68	0.105	419360	keystroke_a	a	n/a
210.055	0.1195	420110	keystroke_t	t	n/a
210.1895	0.241	420379	keystroke_i	i	n/a
210.325	0.1195	420650	keystroke_o	o	n/a
210.3695	0.1655	420739	keystroke_n	n	n/a
210.91	0.1045	421820	keystroke_Key.space	Key.space	n/a
211.285	0.15	422570	keystroke_g	g	n/a
211.6305	0.164	423261	keystroke_r	r	n/a
211.8095	0.18	423619	keystroke_e	e	n/a
212.0045	0.1205	424009	keystroke_a	a	n/a
212.4395	0.1205	424879	keystroke_t	t	n/a
212.68	0.135	425360	keystroke_Key.space	Key.space	n/a
212.965	0.18	425930	keystroke_p	p	n/a
213.115	0.15	426230	keystroke_r	r	n/a
213.43	0.09	426860	keystroke_e	e	n/a
214.03	0.0905	428060	keystroke_s	s	n/a
214.255	0.075	428510	keystroke_e	e	n/a
214.435	0.105	428870	keystroke_n	n	n/a
214.75	0.09	429500	keystroke_c	c	n/a
215.079	0.136	430158	keystroke_e	e	n/a
215.245	0.09	430490	keystroke_Key.space	Key.space	n/a
215.47	0.075	430940	keystroke_t	t	n/a
215.68	0.0755	431360	keystroke_r	r	n/a
215.815	0.15	431630	keystroke_u	u	n/a
215.9805	0.1045	431961	keystroke_s	s	n/a
216.865	0.1055	433730	keystroke_t	t	n/a
217.225	0.1045	434450	keystroke_Key.enter	Key.enter	n/a
217.344	12.3925	434688	prompt	n/a	passes britney sponsors hungary\n
218.275	0.1645	436550	keystroke_p	p	n/a
218.4845	0.1205	436969	keystroke_a	a	n/a
218.7395	0.06	437479	keystroke_s	s	n/a
218.905	0.0895	437810	keystroke_s	s	n/a
219.1145	0.105	438229	keystroke_e	e	n/a
219.2645	0.105	438529	keystroke_s	s	n/a
219.595	0.164	439190	keystroke_Key.space	Key.space	n/a
219.865	0.0905	439730	keystroke_b	b	n/a
220.2555	0.1195	440511	keystroke_r	r	n/a
220.5095	0.135	441019	keystroke_i	i	n/a
220.9145	0.105	441829	keystroke_t	t	n/a
221.2305	0.089	442461	keystroke_n	n	n/a
221.3795	0.1055	442759	keystroke_e	e	n/a
221.6645	0.18	443329	keystroke_y	y	n/a
221.7995	0.1505	443599	keystroke_Key.space	Key.space	n/a
222.025	0.12	444050	keystroke_s	s	n/a
222.355	0.015	444710	keystroke_p	p	n/a
222.415	0.165	444830	keystroke_o	o	n/a
222.535	0.135	445070	keystroke_n	n	n/a
222.625	0.12	445250	keystroke_s	s	n/a
225.326	0.0745	450652	keystroke_o	o	n/a
225.58	0.075	451160	keystroke_r	r	n/a
226.0895	0.15	452179	keystroke_s	s	n/a
226.3445	0.075	452689	keystroke_Key.space	Key.space	n/a
226.5395	0.105	453079	keystroke_h	h	n/a
226.7945	0.09	453589	keystroke_u	u	n/a
227.8895	0.09	455779	keystroke_n	n	n/a
228.115	0.105	456230	keystroke_g	g	n/a
228.46	0.1345	456920	keystroke_a	a	n/a
228.9095	0.0905	457819	keystroke_r	r	n/a
229.1945	0.18	458389	keystroke_y	y	n/a
229.6145	0.1205	459229	keystroke_Key.enter	Key.enter	n/a
229.7405	9.6415	459481	prompt	n/a	scores courses rescue default\n
230.56	0.105	461120	keystroke_s	s	n/a
230.83	0.1045	461660	keystroke_c	c	n/a
230.98	0.075	461960	keystroke_o	o	n/a
231.175	0.1345	462350	keystroke_r	r	n/a
231.3545	0.076	462709	keystroke_e	e	n/a
231.445	0.12	462890	keystroke_s	s	n/a
231.715	0.075	463430	keystroke_Key.space	Key.space	n/a
232	0.1205	464000	keystroke_c	c	n/a
232.0745	0.181	464149	keystroke_o	o	n/a
232.1805	0.209	464361	keystroke_u	u	n/a
232.4355	0.104	464871	keystroke_r	r	n/a
233.155	0.105	466310	keystroke_c	c	n/a
233.755	0.105	467510	keystroke_Key.backspace	Key.backspace	n/a
233.89	0.12	467780	keystroke_s	s	n/a
234.115	0.075	468230	keystroke_e	e	n/a
234.595	0.09	469190	keystroke_s	s	n/a
234.835	0.12	469670	keystroke_Key.space	Key.space	n/a
235.3	0.135	470600	keystroke_r	r	n/a
235.42	0.12	470840	keystroke_e	e	n/a
235.7805	0.0895	471561	keystroke_s	s	n/a
236.1095	0.105	472219	keystroke_c	c	n/a
236.29	0.135	472580	keystroke_u	u	n/a
236.575	0.135	473150	keystroke_e	e	n/a
236.785	0.12	473570	keystroke_Key.space	Key.space	n/a
237.07	0.12	474140	keystroke_d	d	n/a
237.325	0.09	474650	keystroke_e	e	n/a
237.535	0.12	475070	keystroke_f	f	n/a
237.729	0.121	475458	keystroke_a	a	n/a
237.865	0.09	475730	keystroke_u	u	n/a
238.09	0.135	476180	keystroke_l	l	n/a
238.24	0.045	476480	keystroke_t	t	n/a
238.2555	0.0145	476511	keystroke_g	g	n/a
238.93	0.06	477860	keystroke_Key.backspace	Key.backspace	n/a
239.275	0.105	478550	keystroke_Key.enter	Key.enter	n/a
239.385	32.1565	478770	prompt	n/a	tribune prairie posting provider\n
240.61	0.09	481220	keystroke_g	g	n/a
241.36	0.15	482720	keystroke_Key.backspace	Key.backspace	n/a
241.5555	0.0745	483111	keystroke_t	t	n/a
241.78	0.105	483560	keystroke_r	r	n/a
241.9	0.12	483800	keystroke_i	i	n/a
242.11	0.1205	484220	keystroke_b	b	n/a
242.275	0.075	484550	keystroke_u	u	n/a
242.5	0.1055	485000	keystroke_n	n	n/a
242.62	0.12	485240	keystroke_e	e	n/a
242.889	0.12	485778	keystroke_Key.space	Key.space	n/a
243.37	0.15	486740	keystroke_p	p	n/a
243.625	0.15	487250	keystroke_r	r	n/a
243.805	0.12	487610	keystroke_a	a	n/a
243.94	0.1355	487880	keystroke_i	i	n/a
244.225	0.15	488450	keystroke_r	r	n/a
244.495	0.12	488990	keystroke_e	e	n/a
244.825	0.075	489650	keystroke_Key.space	Key.space	n/a
245.14	0.12	490280	keystroke_p	p	n/a
246.235	0.1645	492470	keystroke_o	o	n/a
246.489	0.091	492978	keystroke_s	s	n/a
246.759	0.0615	493518	keystroke_t	t	n/a
246.8645	0.135	493729	keystroke_i	i	n/a
246.9845	0.09	493969	keystroke_n	n	n/a
247.0445	0.09	494089	keystroke_g	g	n/a
247.2095	0.09	494419	keystroke_Key.space	Key.space	n/a
247.3895	0.1505	494779	keystroke_p	p	n/a
247.66	0.105	495320	keystroke_r	r	n/a
247.7955	0.1495	495591	keystroke_o	o	n/a
251.006	0.089	502012	keystroke_Key.backspace	Key.backspace	n/a
251.335	0.105	502670	keystroke_Key.backspace	Key.backspace	n/a
251.68	0.09	503360	keystroke_Key.backspace	Key.backspace	n/a
251.995	0.09	503990	keystroke_Key.backspace	Key.backspace	n/a
252.355	0.09	504710	keystroke_Key.backspace	Key.backspace	n/a
252.655	0.105	505310	keystroke_Key.backspace	Key.backspace	n/a
253.015	0.075	506030	keystroke_Key.backspace	Key.backspace	n/a
253.315	0.105	506630	keystroke_Key.backspace	Key.backspace	n/a
253.659	0.091	507318	keystroke_Key.backspace	Key.backspace	n/a
253.9895	0.0905	507979	keystroke_Key.backspace	Key.backspace	n/a
254.32	0.105	508640	keystroke_Key.backspace	Key.backspace	n/a
254.6495	0.0895	509299	keystroke_Key.backspace	Key.backspace	n/a
255.009	0.09	510018	keystroke_Key.backspace	Key.backspace	n/a
255.4005	0.0885	510801	keystroke_i	i	n/a
255.6995	0.1055	511399	keystroke_e	e	n/a
255.969	0.09	511938	keystroke_Key.space	Key.space	n/a
256.195	0.1355	512390	keystroke_p	p	n/a
256.464	0.15	512928	keystroke_o	o	n/a
256.63	0.09	513260	keystroke_s	s	n/a
257.02	0.135	514040	keystroke_t	t	n/a
257.2	0.18	514400	keystroke_i	i	n/a
257.3495	0.135	514699	keystroke_n	n	n/a
257.455	0.09	514910	keystroke_g	g	n/a
257.755	0.1045	515510	keystroke_Key.space	Key.space	n/a
258.055	0.1345	516110	keystroke_p	p	n/a
258.2195	0.105	516439	keystroke_r	r	n/a
258.3395	0.12	516679	keystroke_o	o	n/a
258.6095	0.1205	517219	keystroke_v	v	n/a
258.775	0.135	517550	keystroke_i	i	n/a
259.2705	0.1195	518541	keystroke_d	d	n/a
259.585	0.1795	519170	keystroke_e	e	n/a
259.7345	0.1205	519469	keystroke_r	r	n/a
271.526	0.0145	543052	keystroke_Key.enter	Key.enter	n/a
271.548	22.014	543096	prompt	n/a	little responding fastest xbox\n
277.2865	0.0745	554573	keystroke_l	l	n/a
277.42	0.15	554840	keystroke_i	i	n/a
277.6905	0.1055	555381	keystroke_t	t	n/a
277.87	0.09	555740	keystroke_t	t	n/a
277.9905	0.1495	555981	keystroke_l	l	n/a
278.141	0.1045	556282	keystroke_e	e	n/a
278.515	0.1355	557030	keystroke_Key.space	Key.space	n/a
279.0405	0.045	558081	keystroke_r	r	n/a
279.2355	0.105	558471	keystroke_e	e	n/a
279.4155	0.15	558831	keystroke_s	s	n/a
279.5505	0.12	559101	keystroke_p	p	n/a
279.7305	0.165	559461	keystroke_o	o	n/a
279.8655	0.135	559731	keystroke_n	n	n/a
279.9855	0.135	559971	keystroke_d	d	n/a
280.135	0.1505	560270	keystroke_i	i	n/a
280.2555	0.12	560511	keystroke_n	n	n/a
280.3605	0.12	560721	keystroke_g	g	n/a
280.6155	0.104	561231	keystroke_Key.space	Key.space	n/a
281.3955	0.165	562791	keystroke_f	f	n/a
281.6955	0.1045	563391	keystroke_a	a	n/a
281.9355	0.135	563871	keystroke_s	s	n/a
282.2955	0.12	564591	keystroke_t	t	n/a
282.595	0.135	565190	keystroke_e	e	n/a
282.835	0.1505	565670	keystroke_s	s	n/a
283.2105	0.12	566421	keystroke_t	t	n/a
284.38	0.1355	568760	keystroke_Key.space	Key.space	n/a
284.635	0.15	569270	keystroke_x	x	n/a
285.4305	0.135	570861	keystroke_b	b	n/a
285.6705	0.12	571341	keystroke_o	o	n/a
286.1655	0.105	572331	keystroke_x	x	n/a
293.503	0.057	587006	keystroke_Key.enter	Key.enter	n/a
293.566	22.2265	587132	prompt	n/a	stylish mini documentary ensuring\n
303.523	0.058	607046	keystroke_s	s	n/a
304.316	0.1345	608632	keystroke_t	t	n/a
304.5715	0.134	609143	keystroke_y	y	n/a
305.2765	0.135	610553	keystroke_l	l	n/a
305.501	0.165	611002	keystroke_i	i	n/a
305.606	0.15	611212	keystroke_s	s	n/a
305.726	0.135	611452	keystroke_h	h	n/a
306.356	0.105	612712	keystroke_Key.space	Key.space	n/a
306.776	0.12	613552	keystroke_m	m	n/a
307.016	0.135	614032	keystroke_i	i	n/a
307.121	0.12	614242	keystroke_n	n	n/a
307.1965	0.0895	614393	keystroke_i	i	n/a
307.6905	0.09	615381	keystroke_Key.space	Key.space	n/a
308.261	0.075	616522	keystroke_c	c	n/a
308.771	0.105	617542	keystroke_Key.backspace	Key.backspace	n/a
308.891	0.1055	617782	keystroke_d	d	n/a
309.041	0.135	618082	keystroke_o	o	n/a
309.161	0.15	618322	keystroke_c	c	n/a
309.3115	0.1045	618623	keystroke_u	u	n/a
309.611	0.12	619222	keystroke_m	m	n/a
309.806	0.09	619612	keystroke_e	e	n/a
309.866	0.12	619732	keystroke_n	n	n/a
310.0605	0.1205	620121	keystroke_t	t	n/a
310.241	0.15	620482	keystroke_a	a	n/a
310.4215	0.1195	620843	keystroke_r	r	n/a
310.661	0.1355	621322	keystroke_y	y	n/a
310.946	0.12	621892	keystroke_Key.space	Key.space	n/a
311.546	0.135	623092	keystroke_e	e	n/a
311.966	0.12	623932	keystroke_n	n	n/a
312.176	0.135	624352	keystroke_s	s	n/a
312.461	0.165	624922	keystroke_u	u	n/a
312.686	0.105	625372	keystroke_r	r	n/a
312.836	0.12	625672	keystroke_i	i	n/a
312.926	0.1505	625852	keystroke_n	n	n/a
313.031	0.0745	626062	keystroke_g	g	n/a
315.703	0.088	631406	keystroke_Key.enter	Key.enter	n/a
315.797	16.871	631594	prompt	n/a	laboratory bulletin emma conventions\n
316.556	0.195	633112	keystroke_l	l	n/a
316.706	0.12	633412	keystroke_a	a	n/a
316.9465	0.075	633893	keystroke_b	b	n/a
317.0665	0.1495	634133	keystroke_o	o	n/a
317.261	0.165	634522	keystroke_r	r	n/a
317.396	0.1345	634792	keystroke_a	a	n/a
317.591	0.0895	635182	keystroke_t	t	n/a
317.7255	0.12	635451	keystroke_o	o	n/a
317.8305	0.105	635661	keystroke_r	r	n/a
317.9805	0.166	635961	keystroke_y	y	n/a
318.116	0.15	636232	keystroke_Key.space	Key.space	n/a
318.6105	0.135	637221	keystroke_b	b	n/a
318.8055	0.106	637611	keystroke_u	u	n/a
321.117	0.001	642234	keystroke_l	l	n/a
321.221	0.18	642442	keystroke_l	l	n/a
321.431	0.09	642862	keystroke_e	e	n/a
321.671	0.105	643342	keystroke_t	t	n/a
321.791	0.12	643582	keystroke_i	i	n/a
321.896	0.165	643792	keystroke_n	n	n/a
322.856	0.119	645712	keystroke_Key.space	Key.space	n/a
323.246	0.1205	646492	keystroke_e	e	n/a
323.696	0.105	647392	keystroke_m	m	n/a
323.876	0.105	647752	keystroke_m	m	n/a
324.1755	0.1205	648351	keystroke_a	a	n/a
324.686	0.06	649372	keystroke_Key.space	Key.space	n/a
325.151	0.12	650302	keystroke_c	c	n/a
325.316	0.18	650632	keystroke_o	o	n/a
325.451	0.165	650902	keystroke_n	n	n/a
325.7955	0.121	651591	keystroke_v	v	n/a
326.1405	0.12	652281	keystroke_n	n	n/a
326.7105	0.12	653421	keystroke_Key.backspace	Key.backspace	n/a
326.846	0.1195	653692	keystroke_e	e	n/a
326.9505	0.1355	653901	keystroke_n	n	n/a
327.1755	0.075	654351	keystroke_t	t	n/a
327.3555	0.1795	654711	keystroke_i	i	n/a
327.4015	0.18	654803	keystroke_o	o	n/a
327.5065	0.1795	655013	keystroke_n	n	n/a
327.626	0.135	655252	keystroke_s	s	n/a
332.578	0.0885	665156	keystroke_Key.enter	Key.enter	n/a
332.672	19.316	665344	prompt	n/a	demonstrates newman dave count\n
333.7315	0.1045	667463	keystroke_d	d	n/a
334.001	0.09	668002	keystroke_e	e	n/a
334.1665	0.1345	668333	keystroke_m	m	n/a
334.421	0.18	668842	keystroke_o	o	n/a
339.553	0.043	679106	keystroke_n	n	n/a
339.671	0.135	679342	keystroke_s	s	n/a
341.1715	0.105	682343	keystroke_t	t	n/a
341.4115	0.165	682823	keystroke_r	r	n/a
341.532	0.149	683064	keystroke_a	a	n/a
342.011	0.12	684022	keystroke_t	t	n/a
342.296	0.105	684592	keystroke_e	e	n/a
342.5365	0.1195	685073	keystroke_s	s	n/a
343.1665	0.09	686333	keystroke_Key.space	Key.space	n/a
343.4215	0.2095	686843	keystroke_n	n	n/a
343.5415	0.165	687083	keystroke_e	e	n/a
343.6915	0.1345	687383	keystroke_w	w	n/a
344.156	0.1505	688312	keystroke_m	m	n/a
344.321	0.1355	688642	keystroke_a	a	n/a
344.4415	0.105	688883	keystroke_n	n	n/a
345.4915	0.12	690983	keystroke_Key.space	Key.space	n/a
346.3155	0.1055	692631	keystroke_d	d	n/a
346.5565	0.1355	693113	keystroke_a	a	n/a
346.842	0.1795	693684	keystroke_v	v	n/a
347.0065	0.1345	694013	keystroke_e	e	n/a
347.7865	0.1195	695573	keystroke_Key.space	Key.space	n/a
347.981	0.15	695962	keystroke_c	c	n/a
348.132	0.194	696264	keystroke_o	o	n/a
348.2365	0.1195	696473	keystroke_u	u	n/a
348.506	0.1505	697012	keystroke_n	n	n/a
350.306	0.135	700612	keystroke_t	t	n/a
351.806	0.1805	703612	keystroke_Key.enter	Key.enter	n/a
351.992	7.781	703984	prompt	n/a	generated drama saturn houses\n
352.9015	0.119	705803	keystroke_g	g	n/a
353.142	0.1345	706284	keystroke_e	e	n/a
353.3515	0.165	706703	keystroke_n	n	n/a
353.4565	0.15	706913	keystroke_e	e	n/a
353.5615	0.165	707123	keystroke_r	r	n/a
353.7415	0.165	707483	keystroke_a	a	n/a
353.8915	0.135	707783	keystroke_t	t	n/a
354.0865	0.075	708173	keystroke_e	e	n/a
354.4605	0.09	708921	keystroke_d	d	n/a
354.6115	0.105	709223	keystroke_Key.space	Key.space	n/a
354.9255	0.105	709851	keystroke_d	d	n/a
355.1965	0.165	710393	keystroke_r	r	n/a
355.316	0.1195	710632	keystroke_a	a	n/a
355.5255	0.0915	711051	keystroke_m	m	n/a
355.646	0.1055	711292	keystroke_a	a	n/a
356.141	0.1205	712282	keystroke_Key.space	Key.space	n/a
356.5315	0.1195	713063	keystroke_s	s	n/a
356.801	0.045	713602	keystroke_a	a	n/a
357.1915	0.12	714383	keystroke_t	t	n/a
357.4165	0.1345	714833	keystroke_u	u	n/a
357.5365	0.1195	715073	keystroke_r	r	n/a
357.731	0.09	715462	keystroke_n	n	n/a
358.0165	0.075	716033	keystroke_Key.space	Key.space	n/a
358.3615	0.105	716723	keystroke_h	h	n/a
358.5115	0.21	717023	keystroke_o	o	n/a
358.6165	0.2255	717233	keystroke_u	u	n/a
358.8115	0.12	717623	keystroke_s	s	n/a
358.9615	0.12	717923	keystroke_e	e	n/a
359.1865	0.075	718373	keystroke_s	s	n/a
359.6515	0.12	719303	keystroke_Key.enter	Key.enter	n/a
359.7765	8.6215	719553	prompt	n/a	equations nvidia basin adams\n
360.7765	0.12	721553	keystroke_e	e	n/a
361.1215	0.104	722243	keystroke_q	q	n/a
361.3165	0.105	722633	keystroke_u	u	n/a
361.4965	0.12	722993	keystroke_a	a	n/a
361.7965	0.0895	723593	keystroke_t	t	n/a
361.871	0.1805	723742	keystroke_i	i	n/a
361.961	0.1505	723922	keystroke_o	o	n/a
362.081	0.1505	724162	keystroke_n	n	n/a
362.216	0.105	724432	keystroke_s	s	n/a
362.5315	0.0895	725063	keystroke_Key.space	Key.space	n/a
362.9665	0.105	725933	keystroke_n	n	n/a
363.296	0.105	726592	keystroke_v	v	n/a
363.401	0.12	726802	keystroke_i	i	n/a
363.6115	0.1345	727223	keystroke_d	d	n/a
364.3615	0.1345	728723	keystroke_i	i	n/a
364.541	0.135	729082	keystroke_a	a	n/a
364.7965	0.105	729593	keystroke_Key.space	Key.space	n/a
365.3515	0.105	730703	keystroke_b	b	n/a
365.592	0.089	731184	keystroke_a	a	n/a
365.801	0.105	731602	keystroke_s	s	n/a
365.921	0.1355	731842	keystroke_i	i	n/a
366.101	0.135	732202	keystroke_n	n	n/a
366.716	0.09	733432	keystroke_Key.space	Key.space	n/a
367.0915	0.0895	734183	keystroke_a	a	n/a
367.346	0.0905	734692	keystroke_d	d	n/a
367.5565	0.105	735113	keystroke_a	a	n/a
367.7215	0.105	735443	keystroke_m	m	n/a
367.8865	0.1055	735773	keystroke_s	s	n/a
368.2765	0.12	736553	keystroke_Key.enter	Key.enter	n/a
368.4025	7.9605	736805	prompt	n/a	obesity collectible deaf surf\n
369.4915	0.12	738983	keystroke_o	o	n/a
369.596	0.1045	739192	keystroke_b	b	n/a
369.8065	0.074	739613	keystroke_e	e	n/a
370.0165	0.105	740033	keystroke_s	s	n/a
370.1055	0.12	740211	keystroke_i	i	n/a
370.3605	0.121	740721	keystroke_t	t	n/a
370.5255	0.166	741051	keystroke_y	y	n/a
370.721	0.15	741442	keystroke_Key.space	Key.space	n/a
371.1415	0.134	742283	keystroke_c	c	n/a
371.2615	0.089	742523	keystroke_o	o	n/a
371.5615	0.045	743123	keystroke_l	l	n/a
371.6665	0.12	743333	keystroke_l	l	n/a
371.8615	0.09	743723	keystroke_e	e	n/a
372.176	0.1055	744352	keystroke_c	c	n/a
372.5665	0.1045	745133	keystroke_t	t	n/a
372.7315	0.105	745463	keystroke_i	i	n/a
373.1665	0.09	746333	keystroke_b	b	n/a
373.4065	0.12	746813	keystroke_l	l	n/a
373.5565	0.09	747113	keystroke_e	e	n/a
373.8565	0.06	747713	keystroke_Key.space	Key.space	n/a
374.2615	0.06	748523	keystroke_d	d	n/a
374.4565	0.15	748913	keystroke_e	e	n/a
374.5915	0.12	749183	keystroke_a	a	n/a
374.9515	0.09	749903	keystroke_f	f	n/a
375.1015	0.09	750203	keystroke_Key.space	Key.space	n/a
375.3115	0.105	750623	keystroke_s	s	n/a
375.4615	0.165	750923	keystroke_u	u	n/a
375.6415	0.075	751283	keystroke_r	r	n/a
375.9415	0.09	751883	keystroke_f	f	n/a
376.2415	0.12	752483	keystroke_Key.enter	Key.enter	n/a
376.3695	10.0285	752739	prompt	n/a	editors rwanda cats question\n
377.186	0.09	754372	keystroke_e	e	n/a
377.4415	0.12	754883	keystroke_d	d	n/a
377.486	0.21	754972	keystroke_i	i	n/a
377.771	0.105	755542	keystroke_t	t	n/a
378.836	0.1055	757672	keystroke_o	o	n/a
379.1505	0.15	758301	keystroke_r	r	n/a
379.4665	0.165	758933	keystroke_s	s	n/a
380.6365	0.089	761273	keystroke_Key.space	Key.space	n/a
380.9365	0.105	761873	keystroke_r	r	n/a
381.2505	0.12	762501	keystroke_w	w	n/a
381.446	0.1495	762892	keystroke_a	a	n/a
381.6115	0.134	763223	keystroke_n	n	n/a
381.971	0.0905	763942	keystroke_d	d	n/a
382.2115	0.1045	764423	keystroke_a	a	n/a
382.6165	0.1045	765233	keystroke_Key.space	Key.space	n/a
383.1115	0.075	766223	keystroke_c	c	n/a
383.3515	0.165	766703	keystroke_a	a	n/a
383.5465	0.105	767093	keystroke_t	t	n/a
383.9215	0.104	767843	keystroke_s	s	n/a
384.1005	0.136	768201	keystroke_Key.space	Key.space	n/a
384.4615	0.12	768923	keystroke_q	q	n/a
384.6415	0.1345	769283	keystroke_u	u	n/a
384.7615	0.105	769523	keystroke_e	e	n/a
385.136	0.1055	770272	keystroke_s	s	n/a
385.451	0.075	770902	keystroke_t	t	n/a
385.542	0.24	771084	keystroke_i	i	n/a
385.661	0.106	771322	keystroke_o	o	n/a
385.722	0.165	771444	keystroke_n	n	n/a
386.2765	0.12	772553	keystroke_Key.enter	Key.enter	n/a
386.403	7.42	772806	prompt	n/a	grad ministry folder transfer\n
387.1765	0.09	774353	keystroke_g	g	n/a
387.4465	0.135	774893	keystroke_r	r	n/a
387.5515	0.105	775103	keystroke_a	a	n/a
387.8365	0.12	775673	keystroke_d	d	n/a
388.0165	0.075	776033	keystroke_Key.space	Key.space	n/a
388.257	0.12	776514	keystroke_m	m	n/a
388.5265	0.09	777053	keystroke_i	i	n/a
388.6005	0.136	777201	keystroke_n	n	n/a
388.6765	0.12	777353	keystroke_i	i	n/a
388.8715	0.15	777743	keystroke_s	s	n/a
389.1865	0.09	778373	keystroke_t	t	n/a
389.4115	0.075	778823	keystroke_r	r	n/a
389.5315	0.15	779063	keystroke_y	y	n/a
389.8165	0.09	779633	keystroke_Key.space	Key.space	n/a
390.3415	0.09	780683	keystroke_f	f	n/a
390.461	0.1355	780922	keystroke_o	o	n/a
390.7015	0.18	781403	keystroke_l	l	n/a
390.8215	0.0905	781643	keystroke_d	d	n/a
391.0915	0.12	782183	keystroke_e	e	n/a
391.1965	0.09	782393	keystroke_r	r	n/a
391.3765	0.09	782753	keystroke_Key.space	Key.space	n/a
391.7815	0.09	783563	keystroke_t	t	n/a
391.9915	0.18	783983	keystroke_r	r	n/a
392.2015	0.12	784403	keystroke_a	a	n/a
392.4115	0.09	784823	keystroke_n	n	n/a
392.5765	0.09	785153	keystroke_s	s	n/a
392.8315	0.1205	785663	keystroke_f	f	n/a
393.0865	0.1495	786173	keystroke_e	e	n/a
393.2065	0.1795	786413	keystroke_r	r	n/a
393.7015	0.12	787403	keystroke_Key.enter	Key.enter	n/a
393.826	12.402	787652	prompt	n/a	announces straight richards ministers\n
394.676	0.12	789352	keystroke_a	a	n/a
394.886	0.0755	789772	keystroke_n	n	n/a
395.0065	0.105	790013	keystroke_n	n	n/a
395.246	0.1655	790492	keystroke_o	o	n/a
395.366	0.1045	790732	keystroke_u	u	n/a
395.6205	0.1355	791241	keystroke_n	n	n/a
395.786	0.1045	791572	keystroke_d	d	n/a
396.386	0.12	792772	keystroke_Key.backspace	Key.backspace	n/a
396.4765	0.1195	792953	keystroke_c	c	n/a
396.7915	0.165	793583	keystroke_e	e	n/a
396.986	0.135	793972	keystroke_s	s	n/a
397.211	0.075	794422	keystroke_Key.space	Key.space	n/a
397.646	0.1355	795292	keystroke_s	s	n/a
397.991	0.105	795982	keystroke_t	t	n/a
398.2165	0.1645	796433	keystroke_r	r	n/a
398.396	0.105	796792	keystroke_a	a	n/a
398.5765	0.1495	797153	keystroke_i	i	n/a
398.681	0.09	797362	keystroke_g	g	n/a
398.846	0.1205	797692	keystroke_h	h	n/a
398.9815	0.1045	797963	keystroke_t	t	n/a
399.5065	0.09	799013	keystroke_Key.space	Key.space	n/a
399.8365	0.06	799673	keystroke_r	r	n/a
399.9415	0.1345	799883	keystroke_i	i	n/a
400.196	0.1205	800392	keystroke_c	c	n/a
400.3165	0.105	800633	keystroke_h	h	n/a
400.5715	0.09	801143	keystroke_a	a	n/a
400.6465	0.12	801293	keystroke_r	r	n/a
401.0065	0.12	802013	keystroke_d	d	n/a
401.4715	0.09	802943	keystroke_s	s	n/a
401.831	0.075	803662	keystroke_Key.space	Key.space	n/a
402.176	0.136	804352	keystroke_m	m	n/a
403.632	0.1345	807264	keystroke_i	i	n/a
403.7815	0.1505	807563	keystroke_n	n	n/a
403.8865	0.1345	807773	keystroke_i	i	n/a
404.096	0.1355	808192	keystroke_s	s	n/a
404.591	0.105	809182	keystroke_t	t	n/a
404.846	0.135	809692	keystroke_e	e	n/a
404.936	0.0755	809872	keystroke_r	r	n/a
405.2065	0.15	810413	keystroke_s	s	n/a
406.0915	0.1345	812183	keystroke_Key.enter	Key.enter	n/a
406.232	10.0165	812464	prompt	n/a	guyana commentary carb taylor\n
407.2915	0.1345	814583	keystroke_g	g	n/a
407.4415	0.0895	814883	keystroke_u	u	n/a
407.6365	0.12	815273	keystroke_y	y	n/a
408.0565	0.105	816113	keystroke_a	a	n/a
408.1915	0.074	816383	keystroke_n	n	n/a
408.3105	0.0605	816621	keystroke_a	a	n/a
409.1815	0.1195	818363	keystroke_Key.space	Key.space	n/a
409.6015	0.1345	819203	keystroke_c	c	n/a
409.871	0.1205	819742	keystroke_o	o	n/a
410.4415	0.0745	820883	keystroke_m	m	n/a
410.5915	0.1045	821183	keystroke_m	m	n/a
410.876	0.1355	821752	keystroke_e	e	n/a
411.0265	0.1045	822053	keystroke_n	n	n/a
411.191	0.0905	822382	keystroke_t	t	n/a
411.5665	0.12	823133	keystroke_a	a	n/a
411.671	0.15	823342	keystroke_r	r	n/a
411.926	0.195	823852	keystroke_y	y	n/a
412.061	0.165	824122	keystroke_Key.space	Key.space	n/a
412.857	0.104	825714	keystroke_c	c	n/a
413.1565	0.1495	826313	keystroke_a	a	n/a
413.2915	0.0895	826583	keystroke_r	r	n/a
413.621	0.106	827242	keystroke_b	b	n/a
414.146	0.075	828292	keystroke_Key.space	Key.space	n/a
414.461	0.12	828922	keystroke_t	t	n/a
414.581	0.1355	829162	keystroke_a	a	n/a
414.821	0.1055	829642	keystroke_y	y	n/a
415.1665	0.135	830333	keystroke_l	l	n/a
415.421	0.1205	830842	keystroke_o	o	n/a
415.526	0.0905	831052	keystroke_r	r	n/a
416.111	0.135	832222	keystroke_Key.enter	Key.enter	n/a
416.2515	12.191	832503	prompt	n/a	tutorials diverse expenses shortly\n
417.6415	0.1045	835283	keystroke_t	t	n/a
417.777	0.134	835554	keystroke_u	u	n/a
417.9265	0.09	835853	keystroke_r	r	n/a
418.8265	0.045	837653	keystroke_Key.backspace	Key.backspace	n/a
418.962	0.0595	837924	keystroke_t	t	n/a
419.1865	0.15	838373	keystroke_o	o	n/a
419.3815	0.075	838763	keystroke_r	r	n/a
419.4865	0.105	838973	keystroke_i	i	n/a
419.6065	0.12	839213	keystroke_a	a	n/a
419.8015	0.165	839603	keystroke_l	l	n/a
419.9965	0.105	839993	keystroke_s	s	n/a
420.3115	0.09	840623	keystroke_Key.space	Key.space	n/a
420.7465	0.105	841493	keystroke_d	d	n/a
420.8665	0.105	841733	keystroke_i	i	n/a
421.5265	0.105	843053	keystroke_v	v	n/a
421.887	0.1345	843774	keystroke_e	e	n/a
421.9915	0.135	843983	keystroke_r	r	n/a
422.3065	0.135	844613	keystroke_s	s	n/a
423.116	0.105	846232	keystroke_e	e	n/a
423.4315	0.105	846863	keystroke_Key.space	Key.space	n/a
424.046	0.0905	848092	keystroke_e	e	n/a
424.3765	0.105	848753	keystroke_x	x	n/a
424.616	0.1345	849232	keystroke_p	p	n/a
424.8415	0.09	849683	keystroke_e	e	n/a
425.0205	0.136	850041	keystroke_n	n	n/a
425.1865	0.18	850373	keystroke_s	s	n/a
425.336	0.1505	850672	keystroke_e	e	n/a
425.5315	0.12	851063	keystroke_s	s	n/a
425.8615	0.105	851723	keystroke_Key.space	Key.space	n/a
426.0865	0.1495	852173	keystroke_s	s	n/a
426.2205	0.1355	852441	keystroke_h	h	n/a
426.341	0.166	852682	keystroke_o	o	n/a
426.492	0.0895	852984	keystroke_r	r	n/a
426.746	0.105	853492	keystroke_t	t	n/a
426.8665	0.1955	853733	keystroke_l	l	n/a
427.242	0.179	854484	keystroke_y	y	n/a
428.3215	0.12	856643	keystroke_Key.enter	Key.enter	n/a
428.4465	11.3965	856893	prompt	n/a	prospect sympathy stereo major\n
429.446	0.165	858892	keystroke_p	p	n/a
429.6865	0.1045	859373	keystroke_r	r	n/a
429.821	0.135	859642	keystroke_o	o	n/a
430.0465	0.15	860093	keystroke_s	s	n/a
430.2265	0.12	860453	keystroke_p	p	n/a
430.3915	0.105	860783	keystroke_e	e	n/a
430.7065	0.09	861413	keystroke_c	c	n/a
431.0955	0.151	862191	keystroke_t	t	n/a
431.3815	0.089	862763	keystroke_Key.space	Key.space	n/a
431.5915	0.104	863183	keystroke_s	s	n/a
431.7255	0.106	863451	keystroke_y	y	n/a
432.0715	0.12	864143	keystroke_m	m	n/a
432.3115	0.135	864623	keystroke_p	p	n/a
432.4915	0.12	864983	keystroke_a	a	n/a
432.7765	0.075	865553	keystroke_t	t	n/a
432.9115	0.12	865823	keystroke_h	h	n/a
433.1665	0.165	866333	keystroke_y	y	n/a
433.4965	0.0595	866993	keystroke_Key.space	Key.space	n/a
433.766	0.1505	867532	keystroke_s	s	n/a
434.111	0.105	868222	keystroke_t	t	n/a
434.366	0.15	868732	keystroke_e	e	n/a
434.471	0.135	868942	keystroke_r	r	n/a
434.651	0.1055	869302	keystroke_o	o	n/a
435.536	0.105	871072	keystroke_Key.backspace	Key.backspace	n/a
435.971	0.1055	871942	keystroke_e	e	n/a
436.1365	0.15	872273	keystroke_o	o	n/a
436.5115	0.09	873023	keystroke_Key.space	Key.space	n/a
436.8715	0.0745	873743	keystroke_s	s	n/a
437.096	0.151	874192	keystroke_m	m	n/a
437.3515	0.0595	874703	keystroke_a	a	n/a
437.801	0.09	875602	keystroke_Key.backspace	Key.backspace	n/a
438.0565	0.06	876113	keystroke_Key.backspace	Key.backspace	n/a
438.2665	0.06	876533	keystroke_Key.backspace	Key.backspace	n/a
438.6715	0.135	877343	keystroke_m	m	n/a
438.8365	0.105	877673	keystroke_a	a	n/a
439.0165	0.165	878033	keystroke_j	j	n/a
439.166	0.1505	878332	keystroke_o	o	n/a
439.3315	0.1205	878663	keystroke_r	r	n/a
439.7355	0.1055	879471	keystroke_Key.enter	Key.enter	n/a
439.8465	10.3915	879693	prompt	n/a	dentists recognized nuclear planner\n
440.8015	0.1055	881603	keystroke_d	d	n/a
441.041	0.0905	882082	keystroke_e	e	n/a
441.146	0.1055	882292	keystroke_n	n	n/a
441.3115	0.09	882623	keystroke_t	t	n/a
441.446	0.15	882892	keystroke_i	i	n/a
441.5815	0.15	883163	keystroke_s	s	n/a
441.881	0.09	883762	keystroke_t	t	n/a
442.121	0.12	884242	keystroke_s	s	n/a
442.691	0.12	885382	keystroke_Key.space	Key.space	n/a
443.0815	0.1505	886163	keystroke_r	r	n/a
443.201	0.12	886402	keystroke_e	e	n/a
443.8765	0.1355	887753	keystroke_c	c	n/a
444.0415	0.1205	888083	keystroke_o	o	n/a
444.326	0.12	888652	keystroke_g	g	n/a
444.836	0.015	889672	keystroke_n	n	n/a
444.911	0.12	889822	keystroke_i	i	n/a
445.181	0.1205	890362	keystroke_z	z	n/a
445.436	0.09	890872	keystroke_e	e	n/a
445.706	0.135	891412	keystroke_d	d	n/a
445.856	0.076	891712	keystroke_Key.space	Key.space	n/a
446.0515	0.0895	892103	keystroke_n	n	n/a
446.366	0.12	892732	keystroke_u	u	n/a
446.636	0.135	893272	keystroke_c	c	n/a
446.876	0.1355	893752	keystroke_l	l	n/a
447.116	0.06	894232	keystroke_e	e	n/a
447.1465	0.1495	894293	keystroke_a	a	n/a
447.266	0.135	894532	keystroke_r	r	n/a
447.731	0.105	895462	keystroke_Key.space	Key.space	n/a
448.212	0.134	896424	keystroke_p	p	n/a
448.527	0.134	897054	keystroke_l	l	n/a
448.691	0.105	897382	keystroke_a	a	n/a
448.8115	0.0605	897623	keystroke_n	n	n/a
448.947	0.074	897894	keystroke_n	n	n/a
449.082	0.149	898164	keystroke_e	e	n/a
449.2015	0.0895	898403	keystroke_r	r	n/a
450.161	0.075	900322	keystroke_Key.enter	Key.enter	n/a
450.2425	13.7355	900485	prompt	n/a	outreach norwegian keywords collapse\n
451.1815	0.1945	902363	keystroke_o	o	n/a
451.3315	0.1645	902663	keystroke_u	u	n/a
451.512	0.09	903024	keystroke_t	t	n/a
451.721	0.166	903442	keystroke_r	r	n/a
451.931	0.1205	903862	keystroke_e	e	n/a
452.3665	0.06	904733	keystroke_a	a	n/a
452.712	0.134	905424	keystroke_c	c	n/a
452.861	0.135	905722	keystroke_h	h	n/a
453.0565	0.105	906113	keystroke_Key.space	Key.space	n/a
453.686	0.135	907372	keystroke_n	n	n/a
453.837	0.2095	907674	keystroke_o	o	n/a
453.956	0.12	907912	keystroke_r	r	n/a
454.3015	0.0895	908603	keystroke_w	w	n/a
454.6765	0.0895	909353	keystroke_e	e	n/a
455.4565	0.15	910913	keystroke_i	i	n/a
455.8765	0.135	911753	keystroke_g	g	n/a
456.5815	0.09	913163	keystroke_Key.backspace	Key.backspace	n/a
456.8815	0.12	913763	keystroke_Key.backspace	Key.backspace	n/a
457.0765	0.105	914153	keystroke_g	g	n/a
457.2415	0.135	914483	keystroke_i	i	n/a
457.4365	0.15	914873	keystroke_a	a	n/a
457.572	0.1045	915144	keystroke_n	n	n/a
458.4565	0.12	916913	keystroke_Key.space	Key.space	n/a
458.8315	0.15	917663	keystroke_k	k	n/a
459.026	0.09	918052	keystroke_e	e	n/a
459.237	0.119	918474	keystroke_y	y	n/a
459.656	0.06	919312	keystroke_w	w	n/a
459.746	0.1055	919492	keystroke_o	o	n/a
459.8515	0.075	919703	keystroke_r	r	n/a
460.1965	0.1495	920393	keystroke_d	d	n/a
460.421	0.1055	920842	keystroke_s	s	n/a
460.631	0.105	921262	keystroke_Key.space	Key.space	n/a
461.0965	0.1495	922193	keystroke_c	c	n/a
461.6365	0.09	923273	keystroke_o	o	n/a
461.921	0.105	923842	keystroke_l	l	n/a
462.056	0.1055	924112	keystroke_l	l	n/a
462.476	0.09	924952	keystroke_a	a	n/a
462.716	0.15	925432	keystroke_p	p	n/a
463.1065	0.12	926213	keystroke_s	s	n/a
463.511	0.0895	927022	keystroke_e	e	n/a
463.8715	0.105	927743	keystroke_Key.enter	Key.enter	n/a
463.982	10.301	927964	prompt	n/a	mike sony frankfurt testimony\n
465.071	0.105	930142	keystroke_m	m	n/a
465.326	0.0755	930652	keystroke_i	i	n/a
465.5515	0.089	931103	keystroke_k	k	n/a
465.6415	0.134	931283	keystroke_e	e	n/a
465.881	0.105	931762	keystroke_Key.space	Key.space	n/a
466.4515	0.075	932903	keystroke_o	o	n/a
466.916	0.0895	933832	keystroke_Key.backspace	Key.backspace	n/a
467.0205	0.12	934041	keystroke_s	s	n/a
467.1855	0.105	934371	keystroke_o	o	n/a
467.276	0.1195	934552	keystroke_n	n	n/a
467.636	0.195	935272	keystroke_y	y	n/a
467.786	0.165	935572	keystroke_Key.space	Key.space	n/a
468.3705	0.1055	936741	keystroke_f	f	n/a
468.7465	0.18	937493	keystroke_r	r	n/a
468.9115	0.09	937823	keystroke_a	a	n/a
468.9865	0.105	937973	keystroke_n	n	n/a
469.2115	0.105	938423	keystroke_k	k	n/a
469.4215	0.12	938843	keystroke_f	f	n/a
469.6165	0.165	939233	keystroke_o	o	n/a
470.2615	0.105	940523	keystroke_Key.backspace	Key.backspace	n/a
470.5015	0.12	941003	keystroke_u	u	n/a
470.5765	0.165	941153	keystroke_r	r	n/a
470.9065	0.105	941813	keystroke_t	t	n/a
471.1915	0.105	942383	keystroke_Key.space	Key.space	n/a
471.5515	0.105	943103	keystroke_t	t	n/a
471.7165	0.104	943433	keystroke_e	e	n/a
471.8815	0.135	943763	keystroke_s	s	n/a
472.196	0.075	944392	keystroke_t	t	n/a
472.346	0.1055	944692	keystroke_i	i	n/a
472.7215	0.134	945443	keystroke_m	m	n/a
472.9905	0.1655	945981	keystroke_o	o	n/a
473.0655	0.1055	946131	keystroke_n	n	n/a
473.4565	0.1345	946913	keystroke_y	y	n/a
474.1615	0.12	948323	keystroke_Key.enter	Key.enter	n/a
474.287	8.501	948574	prompt	n/a	jungle robin 'twas spirits\n
475.466	0.1045	950932	keystroke_j	j	n/a
475.751	0.09	951502	keystroke_u	u	n/a
476.0065	0.105	952013	keystroke_n	n	n/a
476.4865	0.105	952973	keystroke_g	g	n/a
476.6065	0.12	953213	keystroke_l	l	n/a
476.7415	0.105	953483	keystroke_e	e	n/a
477.3115	0.06	954623	keystroke_Key.space	Key.space	n/a
477.6565	0.105	955313	keystroke_r	r	n/a
477.7915	0.12	955583	keystroke_o	o	n/a
477.9565	0.105	955913	keystroke_b	b	n/a
478.1205	0.12	956241	keystroke_i	i	n/a
478.2565	0.089	956513	keystroke_n	n	n/a
478.5555	0.106	957111	keystroke_Key.space	Key.space	n/a
479.5315	0.105	959063	keystroke_'	'	n/a
479.9365	0.075	959873	keystroke_t	t	n/a
480.191	0.15	960382	keystroke_w	w	n/a
480.431	0.105	960862	keystroke_a	a	n/a
480.626	0.105	961252	keystroke_s	s	n/a
480.8065	0.0895	961613	keystroke_Key.space	Key.space	n/a
481.001	0.15	962002	keystroke_s	s	n/a
481.286	0.12	962572	keystroke_p	p	n/a
481.4965	0.1195	962993	keystroke_i	i	n/a
481.646	0.075	963292	keystroke_r	r	n/a
481.7365	0.1045	963473	keystroke_i	i	n/a
481.8555	0.09	963711	keystroke_t	t	n/a
482.2005	0.136	964401	keystroke_s	s	n/a
482.6655	0.1205	965331	keystroke_Key.enter	Key.enter	n/a
482.7925	9.9855	965585	prompt	n/a	settle briefly charged limitations\n
483.6565	0.1195	967313	keystroke_s	s	n/a
483.8815	0.105	967763	keystroke_e	e	n/a
484.3315	0.045	968663	keystroke_t	t	n/a
484.4515	0.105	968903	keystroke_t	t	n/a
484.676	0.15	969352	keystroke_l	l	n/a
484.781	0.135	969562	keystroke_e	e	n/a
485.126	0.105	970252	keystroke_Key.space	Key.space	n/a
485.591	0.15	971182	keystroke_b	b	n/a
486.0265	0.074	972053	keystroke_r	r	n/a
486.1755	0.136	972351	keystroke_i	i	n/a
486.2955	0.09	972591	keystroke_e	e	n/a
486.5965	0.089	973193	keystroke_f	f	n/a
486.7455	0.165	973491	keystroke_l	l	n/a
487.1515	0.164	974303	keystroke_y	y	n/a
487.2565	0.1795	974513	keystroke_Key.space	Key.space	n/a
487.616	0.1355	975232	keystroke_c	c	n/a
487.811	0.1355	975622	keystroke_h	h	n/a
488.0065	0.1345	976013	keystroke_a	a	n/a
488.1265	0.1345	976253	keystroke_r	r	n/a
488.606	0.165	977212	keystroke_g	g	n/a
488.8465	0.0895	977693	keystroke_e	e	n/a
489.1465	0.15	978293	keystroke_d	d	n/a
489.6115	0.06	979223	keystroke_Key.space	Key.space	n/a
490.0155	0.15	980031	keystroke_l	l	n/a
490.3315	0.135	980663	keystroke_i	i	n/a
490.6455	0.135	981291	keystroke_m	m	n/a
490.9155	0.256	981831	keystroke_i	i	n/a
491.2155	0.165	982431	keystroke_t	t	n/a
491.4115	0.135	982823	keystroke_a	a	n/a
491.5315	0.105	983063	keystroke_t	t	n/a
491.6065	0.18	983213	keystroke_i	i	n/a
491.6965	0.09	983393	keystroke_o	o	n/a
491.757	0.1495	983514	keystroke_n	n	n/a
491.9365	0.12	983873	keystroke_s	s	n/a
492.6415	0.135	985283	keystroke_Key.enter	Key.enter	n/a
492.784	18.234	985568	prompt	n/a	prediction friendly worcester forests\n
493.7515	0.21	987503	keystroke_p	p	n/a
493.931	0.1505	987862	keystroke_r	r	n/a
494.066	0.1205	988132	keystroke_e	e	n/a
494.366	0.105	988732	keystroke_d	d	n/a
494.486	0.12	988972	keystroke_i	i	n/a
495.041	0.12	990082	keystroke_c	c	n/a
495.4315	0.0895	990863	keystroke_t	t	n/a
495.5365	0.2095	991073	keystroke_i	i	n/a
495.656	0.15	991312	keystroke_o	o	n/a
495.701	0.135	991402	keystroke_n	n	n/a
496.361	0.105	992722	keystroke_Key.space	Key.space	n/a
496.646	0.075	993292	keystroke_f	f	n/a
496.946	0.0605	993892	keystroke_r	r	n/a
497.0215	0.1345	994043	keystroke_i	i	n/a
497.141	0.0905	994282	keystroke_e	e	n/a
497.3065	0.075	994613	keystroke_n	n	n/a
497.4715	0.105	994943	keystroke_d	d	n/a
497.6815	0.15	995363	keystroke_l	l	n/a
498.056	0.1355	996112	keystroke_y	y	n/a
498.116	0.1505	996232	keystroke_Key.space	Key.space	n/a
498.491	0.075	996982	keystroke_w	w	n/a
498.6115	0.1195	997223	keystroke_o	o	n/a
499.0765	0.105	998153	keystroke_r	r	n/a
499.5415	0.09	999083	keystroke_c	c	n/a
499.811	0.1205	999622	keystroke_e	e	n/a
500.0065	0.15	1000013	keystroke_s	s	n/a
500.3515	0.12	1000703	keystroke_t	t	n/a
500.5315	0.165	1001063	keystroke_e	e	n/a
500.6665	0.12	1001333	keystroke_r	r	n/a
501.551	0.1055	1003102	keystroke_Key.space	Key.space	n/a
501.8205	0.106	1003641	keystroke_f	f	n/a
504.0285	0.1625	1008057	keystroke_o	o	n/a
504.1765	0.0905	1008353	keystroke_r	r	n/a
504.191	0.015	1008382	keystroke_f	f	n/a
504.267	0.1345	1008534	keystroke_e	e	n/a
504.4765	0.15	1008953	keystroke_s	s	n/a
505.466	0.1055	1010932	keystroke_Key.backspace	Key.backspace	n/a
505.691	0.0905	1011382	keystroke_Key.backspace	Key.backspace	n/a
506.0965	0.09	1012193	keystroke_Key.backspace	Key.backspace	n/a
506.682	0.09	1013364	keystroke_e	e	n/a
507.011	0.1345	1014022	keystroke_s	s	n/a
507.4905	0.106	1014981	keystroke_t	t	n/a
507.776	0.1355	1015552	keystroke_s	s	n/a
510.913	0.103	1021826	keystroke_Key.enter	Key.enter	n/a
511.0235	14.2895	1022047	prompt	n/a	church aurora bulgarian strap\n
512.9955	0.136	1025991	keystroke_c	c	n/a
513.2365	0.104	1026473	keystroke_h	h	n/a
513.5065	0.12	1027013	keystroke_u	u	n/a
513.6415	0.075	1027283	keystroke_r	r	n/a
514.0015	0.105	1028003	keystroke_c	c	n/a
514.166	0.091	1028332	keystroke_h	h	n/a
514.376	0.12	1028752	keystroke_Key.space	Key.space	n/a
515.0515	0.105	1030103	keystroke_a	a	n/a
515.306	0.18	1030612	keystroke_u	u	n/a
515.531	0.12	1031062	keystroke_r	r	n/a
516.057	0.134	1032114	keystroke_o	o	n/a
516.611	0.15	1033222	keystroke_r	r	n/a
516.807	0.12	1033614	keystroke_a	a	n/a
517.136	0.12	1034272	keystroke_Key.space	Key.space	n/a
517.376	0.0905	1034752	keystroke_b	b	n/a
517.5265	0.105	1035053	keystroke_u	u	n/a
517.8565	0.149	1035713	keystroke_l	l	n/a
518.111	0.105	1036222	keystroke_g	g	n/a
518.3215	0.1645	1036643	keystroke_a	a	n/a
518.5015	0.12	1037003	keystroke_r	r	n/a
518.6365	0.1505	1037273	keystroke_i	i	n/a
518.757	0.134	1037514	keystroke_a	a	n/a
518.936	0.135	1037872	keystroke_n	n	n/a
519.7165	0.09	1039433	keystroke_Key.space	Key.space	n/a
519.8665	0.165	1039733	keystroke_s	s	n/a
520.241	0.1055	1040482	keystroke_t	t	n/a
520.4815	0.15	1040963	keystroke_r	r	n/a
520.6015	0.1055	1041203	keystroke_a	a	n/a
520.8415	0.15	1041683	keystroke_p	p	n/a
525.179	0.132	1050358	keystroke_Key.enter	Key.enter	n/a
525.317	16.001	1050634	prompt	n/a	telecharger branch lookup firms\n
528.2075	0.059	1056415	keystroke_t	t	n/a
528.4165	0.09	1056833	keystroke_e	e	n/a
528.5515	0.195	1057103	keystroke_l	l	n/a
528.6715	0.105	1057343	keystroke_e	e	n/a
529.1215	0.151	1058243	keystroke_c	c	n/a
529.3165	0.12	1058633	keystroke_h	h	n/a
529.5115	0.1805	1059023	keystroke_a	a	n/a
529.9765	0.1045	1059953	keystroke_r	r	n/a
530.232	0.1645	1060464	keystroke_g	g	n/a
530.397	0.21	1060794	keystroke_e	e	n/a
530.5765	0.165	1061153	keystroke_r	r	n/a
531.5965	0.12	1063193	keystroke_Key.space	Key.space	n/a
531.882	0.1195	1063764	keystroke_b	b	n/a
533.9215	0.165	1067843	keystroke_r	r	n/a
534.1015	0.12	1068203	keystroke_a	a	n/a
534.3415	0.135	1068683	keystroke_n	n	n/a
534.6265	0.15	1069253	keystroke_c	c	n/a
534.8065	0.12	1069613	keystroke_h	h	n/a
535.8415	0.105	1071683	keystroke_Key.space	Key.space	n/a
536.457	0.1645	1072914	keystroke_l	l	n/a
536.8165	0.06	1073633	keystroke_o	o	n/a
536.9515	0.105	1073903	keystroke_o	o	n/a
537.2215	0.15	1074443	keystroke_k	k	n/a
537.5965	0.165	1075193	keystroke_u	u	n/a
537.7465	0.15	1075493	keystroke_p	p	n/a
538.1965	0.12	1076393	keystroke_Key.space	Key.space	n/a
538.572	0.1195	1077144	keystroke_f	f	n/a
538.6925	0.134	1077385	keystroke_i	i	n/a
538.8715	0.0605	1077743	keystroke_r	r	n/a
538.9765	0.1055	1077953	keystroke_m	m	n/a
539.216	0.15	1078432	keystroke_s	s	n/a
541.1815	0.135	1082363	keystroke_Key.enter	Key.enter	n/a
541.3225	9.5355	1082645	prompt	n/a	johnny child contained clara\n
542.2625	0.134	1084525	keystroke_j	j	n/a
542.4415	0.2405	1084883	keystroke_o	o	n/a
542.8165	0.135	1085633	keystroke_h	h	n/a
543.132	0.074	1086264	keystroke_n	n	n/a
543.266	0.0905	1086532	keystroke_n	n	n/a
543.7165	0.15	1087433	keystroke_y	y	n/a
544.091	0.135	1088182	keystroke_Key.space	Key.space	n/a
544.3765	0.2095	1088753	keystroke_c	c	n/a
544.497	0.119	1088994	keystroke_h	h	n/a
544.646	0.151	1089292	keystroke_i	i	n/a
544.947	0.194	1089894	keystroke_l	l	n/a
545.157	0.239	1090314	keystroke_d	d	n/a
545.6965	0.075	1091393	keystroke_Key.space	Key.space	n/a
546.1765	0.165	1092353	keystroke_c	c	n/a
546.3865	0.18	1092773	keystroke_o	o	n/a
546.5515	0.18	1093103	keystroke_n	n	n/a
546.7465	0.105	1093493	keystroke_t	t	n/a
546.8665	0.12	1093733	keystroke_a	a	n/a
546.9715	0.1495	1093943	keystroke_i	i	n/a
547.076	0.1505	1094152	keystroke_n	n	n/a
547.166	0.1055	1094332	keystroke_e	e	n/a
547.4665	0.1495	1094933	keystroke_d	d	n/a
547.7515	0.0595	1095503	keystroke_Key.space	Key.space	n/a
548.097	0.1345	1096194	keystroke_c	c	n/a
548.291	0.255	1096582	keystroke_l	l	n/a
548.517	0.1495	1097034	keystroke_a	a	n/a
548.6515	0.135	1097303	keystroke_r	r	n/a
548.8015	0.105	1097603	keystroke_a	a	n/a
550.6915	0.165	1101383	keystroke_Key.enter	Key.enter	n/a
550.862	13.646	1101724	prompt	n/a	evaluate bush bookmark functional\n
552.2215	0.165	1104443	keystroke_e	e	n/a
552.5365	0.15	1105073	keystroke_v	v	n/a
552.897	0.1045	1105794	keystroke_a	a	n/a
553.0915	0.09	1106183	keystroke_l	l	n/a
553.332	0.1795	1106664	keystroke_u	u	n/a
553.4665	0.255	1106933	keystroke_a	a	n/a
553.676	0.18	1107352	keystroke_t	t	n/a
553.9015	0.075	1107803	keystroke_e	e	n/a
556.6335	0.058	1113267	keystroke_Key.space	Key.space	n/a
557.022	0.1345	1114044	keystroke_b	b	n/a
557.2315	0.134	1114463	keystroke_u	u	n/a
557.4565	0.18	1114913	keystroke_s	s	n/a
557.6515	0.1505	1115303	keystroke_h	h	n/a
558.161	0.1355	1116322	keystroke_Key.space	Key.space	n/a
558.522	0.104	1117044	keystroke_b	b	n/a
558.821	0.286	1117642	keystroke_o	o	n/a
559.512	0.105	1119024	keystroke_o	o	n/a
559.781	0.151	1119562	keystroke_k	k	n/a
560.051	0.151	1120102	keystroke_m	m	n/a
560.2315	0.1945	1120463	keystroke_a	a	n/a
560.3815	0.15	1120763	keystroke_r	r	n/a
560.5015	0.12	1121003	keystroke_k	k	n/a
561.116	0.105	1122232	keystroke_Key.space	Key.space	n/a
561.417	0.119	1122834	keystroke_f	f	n/a
561.5965	0.1055	1123193	keystroke_u	u	n/a
561.941	0.15	1123882	keystroke_n	n	n/a
562.391	0.135	1124782	keystroke_c	c	n/a
562.782	0.12	1125564	keystroke_t	t	n/a
562.886	0.225	1125772	keystroke_i	i	n/a
563.022	0.105	1126044	keystroke_o	o	n/a
563.066	0.151	1126132	keystroke_n	n	n/a
563.2465	0.12	1126493	keystroke_a	a	n/a
563.367	0.18	1126734	keystroke_l	l	n/a
564.372	0.135	1128744	keystroke_Key.enter	Key.enter	n/a
564.5115	21.3265	1129023	prompt	n/a	disease significantly bufing margaret\n
571.153	0.134	1142306	keystroke_d	d	n/a
571.302	0.195	1142604	keystroke_i	i	n/a
571.857	0.135	1143714	keystroke_s	s	n/a
572.112	0.165	1144224	keystroke_e	e	n/a
572.247	0.135	1144494	keystroke_a	a	n/a
572.487	0.21	1144974	keystroke_s	s	n/a
572.682	0.21	1145364	keystroke_e	e	n/a
573.162	0.0895	1146324	keystroke_Key.space	Key.space	n/a
573.4475	0.134	1146895	keystroke_s	s	n/a
573.5965	0.1655	1147193	keystroke_i	i	n/a
573.777	0.075	1147554	keystroke_g	g	n/a
573.9265	0.105	1147853	keystroke_n	n	n/a
574.1365	0.1355	1148273	keystroke_i	i	n/a
574.4065	0.12	1148813	keystroke_i	i	n/a
574.887	0.059	1149774	keystroke_Key.backspace	Key.backspace	n/a
575.6365	0.105	1151273	keystroke_f	f	n/a
575.7565	0.1955	1151513	keystroke_i	i	n/a
576.0415	0.1205	1152083	keystroke_c	c	n/a
576.327	0.12	1152654	keystroke_a	a	n/a
576.491	0.12	1152982	keystroke_n	n	n/a
576.852	0.134	1153704	keystroke_t	t	n/a
577.001	0.151	1154002	keystroke_l	l	n/a
577.392	0.1805	1154784	keystroke_y	y	n/a
577.527	0.1345	1155054	keystroke_Key.space	Key.space	n/a
579.402	0.0895	1158804	keystroke_b	b	n/a
579.702	0.164	1159404	keystroke_u	u	n/a
580.077	0.134	1160154	keystroke_f	f	n/a
580.272	0.18	1160544	keystroke_i	i	n/a
580.422	0.164	1160844	keystroke_n	n	n/a
580.602	0.1045	1161204	keystroke_g	g	n/a
581.0365	0.105	1162073	keystroke_Key.space	Key.space	n/a
581.6065	0.18	1163213	keystroke_m	m	n/a
582.552	0.165	1165104	keystroke_a	a	n/a
582.852	0.1195	1165704	keystroke_r	r	n/a
583.2115	0.1355	1166423	keystroke_g	g	n/a
583.4815	0.1205	1166963	keystroke_a	a	n/a
583.827	0.134	1167654	keystroke_r	r	n/a
584.127	0.1045	1168254	keystroke_e	e	n/a
584.472	0.089	1168944	keystroke_t	t	n/a
585.686	0.15	1171372	keystroke_Key.enter	Key.enter	n/a
585.842	15.2365	1171684	prompt	n/a	testament peninsula stable window\n
586.8415	0.15	1173683	keystroke_t	t	n/a
587.111	0.075	1174222	keystroke_e	e	n/a
587.3065	0.1045	1174613	keystroke_s	s	n/a
587.547	0.1345	1175094	keystroke_t	t	n/a
587.7115	0.09	1175423	keystroke_a	a	n/a
588.042	0.15	1176084	keystroke_m	m	n/a
588.177	0.119	1176354	keystroke_e	e	n/a
588.311	0.106	1176622	keystroke_n	n	n/a
588.447	0.12	1176894	keystroke_t	t	n/a
588.986	0.075	1177972	keystroke_Key.space	Key.space	n/a
589.4065	0.1505	1178813	keystroke_p	p	n/a
589.572	0.12	1179144	keystroke_e	e	n/a
589.947	0.074	1179894	keystroke_n	n	n/a
590.0665	0.1055	1180133	keystroke_n	n	n/a
590.8465	0.0895	1181693	keystroke_Key.backspace	Key.backspace	n/a
591.0565	0.15	1182113	keystroke_i	i	n/a
591.1765	0.135	1182353	keystroke_n	n	n/a
591.972	0.12	1183944	keystroke_s	s	n/a
592.167	0.1645	1184334	keystroke_u	u	n/a
593.022	0.164	1186044	keystroke_l	l	n/a
593.367	0.105	1186734	keystroke_a	a	n/a
593.6065	0.1205	1187213	keystroke_Key.space	Key.space	n/a
593.907	0.165	1187814	keystroke_t	t	n/a
594.072	0.135	1188144	keystroke_a	a	n/a
595.0615	0.015	1190123	keystroke_Key.backspace	Key.backspace	n/a
595.1215	0.015	1190243	keystroke_Key.backspace	Key.backspace	n/a
595.317	0.0895	1190634	keystroke_Key.backspace	Key.backspace	n/a
595.8715	0.12	1191743	keystroke_Key.space	Key.space	n/a
596.0815	0.1205	1192163	keystroke_s	s	n/a
596.4565	0.1355	1192913	keystroke_t	t	n/a
596.652	0.1195	1193304	keystroke_a	a	n/a
596.9815	0.105	1193963	keystroke_b	b	n/a
597.6115	0.12	1195223	keystroke_l	l	n/a
597.747	0.0895	1195494	keystroke_e	e	n/a
598.1815	0.1205	1196363	keystroke_Key.space	Key.space	n/a
599.127	0.1045	1198254	keystroke_w	w	n/a
599.277	0.15	1198554	keystroke_i	i	n/a
599.472	0.1345	1198944	keystroke_n	n	n/a
599.6365	0.1055	1199273	keystroke_d	d	n/a
599.7865	0.12	1199573	keystroke_o	o	n/a
599.9815	0.1355	1199963	keystroke_w	w	n/a
600.942	0.135	1201884	keystroke_Key.enter	Key.enter	n/a
601.0815	8.4565	1202163	prompt	n/a	lawyer bind spent hopes\n
602.1125	0.179	1204225	keystroke_l	l	n/a
602.2915	0.105	1204583	keystroke_a	a	n/a
603.042	0.135	1206084	keystroke_w	w	n/a
603.297	0.15	1206594	keystroke_y	y	n/a
603.462	0.18	1206924	keystroke_e	e	n/a
603.597	0.15	1207194	keystroke_r	r	n/a
604.5565	0.1205	1209113	keystroke_Key.space	Key.space	n/a
604.7815	0.1055	1209563	keystroke_b	b	n/a
604.947	0.15	1209894	keystroke_i	i	n/a
605.1115	0.105	1210223	keystroke_n	n	n/a
605.5775	0.1495	1211155	keystroke_d	d	n/a
605.7865	0.0905	1211573	keystroke_Key.space	Key.space	n/a
606.1315	0.1355	1212263	keystroke_s	s	n/a
606.2675	0.1495	1212535	keystroke_p	p	n/a
606.522	0.12	1213044	keystroke_e	e	n/a
606.672	0.1345	1213344	keystroke_n	n	n/a
607.302	0.15	1214604	keystroke_t	t	n/a
607.572	0.059	1215144	keystroke_Key.space	Key.space	n/a
607.947	0.12	1215894	keystroke_h	h	n/a
608.142	0.1645	1216284	keystroke_o	o	n/a
608.367	0.1195	1216734	keystroke_p	p	n/a
608.5465	0.0755	1217093	keystroke_e	e	n/a
608.877	0.15	1217754	keystroke_s	s	n/a
609.416	0.12	1218832	keystroke_Key.enter	Key.enter	n/a
609.5415	16.8415	1219083	prompt	n/a	overcome instruments timeline forward\n
615.4495	0.1025	1230899	keystroke_o	o	n/a
615.627	0.12	1231254	keystroke_v	v	n/a
615.957	0.15	1231914	keystroke_e	e	n/a
616.062	0.12	1232124	keystroke_r	r	n/a
616.452	0.165	1232904	keystroke_c	c	n/a
616.632	0.135	1233264	keystroke_o	o	n/a
616.856	0.166	1233712	keystroke_m	m	n/a
616.992	0.135	1233984	keystroke_e	e	n/a
617.517	0.105	1235034	keystroke_Key.space	Key.space	n/a
617.742	0.1505	1235484	keystroke_i	i	n/a
617.847	0.165	1235694	keystroke_n	n	n/a
618.042	0.12	1236084	keystroke_s	s	n/a
618.342	0.09	1236684	keystroke_t	t	n/a
618.627	0.015	1237254	keystroke_r	r	n/a
618.687	0.09	1237374	keystroke_u	u	n/a
619.5565	0.1055	1239113	keystroke_m	m	n/a
619.692	0.1205	1239384	keystroke_e	e	n/a
619.827	0.0895	1239654	keystroke_n	n	n/a
619.9315	0.09	1239863	keystroke_t	t	n/a
620.202	0.1345	1240404	keystroke_s	s	n/a
620.5765	0.075	1241153	keystroke_Key.space	Key.space	n/a
620.9815	0.1055	1241963	keystroke_t	t	n/a
621.1015	0.0905	1242203	keystroke_i	i	n/a
621.3115	0.12	1242623	keystroke_m	m	n/a
621.4315	0.15	1242863	keystroke_e	e	n/a
621.8065	0.1495	1243613	keystroke_l	l	n/a
622.062	0.21	1244124	keystroke_i	i	n/a
622.227	0.165	1244454	keystroke_n	n	n/a
622.317	0.135	1244634	keystroke_e	e	n/a
622.842	0.1055	1245684	keystroke_Key.space	Key.space	n/a
623.217	0.09	1246434	keystroke_f	f	n/a
623.427	0.15	1246854	keystroke_o	o	n/a
623.622	0.1045	1247244	keystroke_r	r	n/a
623.9215	0.1655	1247843	keystroke_w	w	n/a
624.0565	0.1205	1248113	keystroke_a	a	n/a
624.852	0.1045	1249704	keystroke_r	r	n/a
625.1665	0.1205	1250333	keystroke_d	d	n/a
626.277	0.1045	1252554	keystroke_Key.enter	Key.enter	n/a
626.387	10.451	1252774	prompt	n/a	residence delays armed charitable\n
627.477	0.164	1254954	keystroke_r	r	n/a
627.672	0.1055	1255344	keystroke_e	e	n/a
627.8975	0.15	1255795	keystroke_s	s	n/a
628.302	0.1045	1256604	keystroke_i	i	n/a
628.4815	0.105	1256963	keystroke_d	d	n/a
628.7525	0.09	1257505	keystroke_e	e	n/a
628.8565	0.15	1257713	keystroke_n	n	n/a
629.1575	0.12	1258315	keystroke_c	c	n/a
629.502	0.1505	1259004	keystroke_e	e	n/a
630.042	0.1345	1260084	keystroke_Key.space	Key.space	n/a
630.3425	0.1195	1260685	keystroke_d	d	n/a
630.597	0.105	1261194	keystroke_e	e	n/a
630.762	0.135	1261524	keystroke_l	l	n/a
630.927	0.12	1261854	keystroke_a	a	n/a
631.167	0.119	1262334	keystroke_y	y	n/a
631.332	0.1205	1262664	keystroke_s	s	n/a
631.781	0.105	1263562	keystroke_Key.space	Key.space	n/a
632.202	0.134	1264404	keystroke_a	a	n/a
632.397	0.12	1264794	keystroke_r	r	n/a
632.711	0.1065	1265422	keystroke_m	m	n/a
632.861	0.106	1265722	keystroke_e	e	n/a
633.161	0.12	1266322	keystroke_d	d	n/a
633.4015	0.0755	1266803	keystroke_Key.space	Key.space	n/a
634.032	0.135	1268064	keystroke_c	c	n/a
634.197	0.134	1268394	keystroke_h	h	n/a
634.482	0.195	1268964	keystroke_a	a	n/a
634.692	0.12	1269384	keystroke_r	r	n/a
634.857	0.075	1269714	keystroke_i	i	n/a
635.202	0.15	1270404	keystroke_t	t	n/a
635.397	0.1205	1270794	keystroke_a	a	n/a
635.757	0.075	1271514	keystroke_b	b	n/a
635.981	0.136	1271962	keystroke_l	l	n/a
636.086	0.121	1272172	keystroke_e	e	n/a
636.702	0.135	1273404	keystroke_Key.enter	Key.enter	n/a
636.843	13.001	1273686	prompt	n/a	unsigned anne revelation performer\n
637.7975	0.1045	1275595	keystroke_u	u	n/a
638.082	0.075	1276164	keystroke_n	n	n/a
638.187	0.105	1276374	keystroke_s	s	n/a
638.307	0.12	1276614	keystroke_i	i	n/a
638.472	0.105	1276944	keystroke_g	g	n/a
638.727	0.15	1277454	keystroke_n	n	n/a
638.892	0.075	1277784	keystroke_e	e	n/a
639.177	0.165	1278354	keystroke_d	d	n/a
639.597	0.09	1279194	keystroke_Key.space	Key.space	n/a
639.897	0.12	1279794	keystroke_a	a	n/a
640.092	0.06	1280184	keystroke_n	n	n/a
640.197	0.105	1280394	keystroke_n	n	n/a
640.347	0.105	1280694	keystroke_e	e	n/a
640.632	0.105	1281264	keystroke_Key.space	Key.space	n/a
641.7565	0.1355	1283513	keystroke_r	r	n/a
641.9365	0.105	1283873	keystroke_e	e	n/a
642.2515	0.135	1284503	keystroke_v	v	n/a
642.4915	0.1055	1284983	keystroke_e	e	n/a
642.732	0.18	1285464	keystroke_l	l	n/a
642.852	0.225	1285704	keystroke_a	a	n/a
643.032	0.135	1286064	keystroke_t	t	n/a
643.182	0.21	1286364	keystroke_i	i	n/a
643.257	0.15	1286514	keystroke_o	o	n/a
643.362	0.1645	1286724	keystroke_n	n	n/a
644.0965	0.105	1288193	keystroke_Key.space	Key.space	n/a
644.3515	0.18	1288703	keystroke_p	p	n/a
644.5625	0.119	1289125	keystroke_e	e	n/a
644.637	0.1495	1289274	keystroke_r	r	n/a
644.9515	0.12	1289903	keystroke_f	f	n/a
645.1315	0.135	1290263	keystroke_o	o	n/a
645.2965	0.1355	1290593	keystroke_r	r	n/a
645.462	0.1355	1290924	keystroke_m	m	n/a
646.1515	0.211	1292303	keystroke_e	e	n/a
646.3015	0.15	1292603	keystroke_r	r	n/a
649.814	0.028	1299628	keystroke_Key.enter	Key.enter	n/a
649.8485	9.145	1299697	prompt	n/a	completely for tube desk\n
650.9225	0.1495	1301845	keystroke_c	c	n/a
651.042	0.12	1302084	keystroke_o	o	n/a
651.3125	0.1195	1302625	keystroke_m	m	n/a
651.642	0.09	1303284	keystroke_p	p	n/a
651.912	0.195	1303824	keystroke_l	l	n/a
652.017	0.12	1304034	keystroke_e	e	n/a
652.2725	0.12	1304545	keystroke_t	t	n/a
652.5425	0.06	1305085	keystroke_l	l	n/a
653.247	0.09	1306494	keystroke_Key.backspace	Key.backspace	n/a
653.3525	0.15	1306705	keystroke_e	e	n/a
653.5475	0.164	1307095	keystroke_l	l	n/a
653.9365	0.2105	1307873	keystroke_y	y	n/a
654.0715	0.135	1308143	keystroke_Key.space	Key.space	n/a
654.2225	0.12	1308445	keystroke_f	f	n/a
654.3275	0.1345	1308655	keystroke_o	o	n/a
654.5065	0.12	1309013	keystroke_r	r	n/a
654.597	0.0895	1309194	keystroke_Key.space	Key.space	n/a
654.8225	0.1045	1309645	keystroke_t	t	n/a
654.9575	0.269	1309915	keystroke_u	u	n/a
656.4875	0.09	1312975	keystroke_b	b	n/a
656.7875	0.135	1313575	keystroke_e	e	n/a
657.0565	0.106	1314113	keystroke_Key.space	Key.space	n/a
657.4315	0.136	1314863	keystroke_d	d	n/a
657.687	0.165	1315374	keystroke_e	e	n/a
657.837	0.165	1315674	keystroke_s	s	n/a
658.107	0.135	1316214	keystroke_k	k	n/a
658.857	0.135	1317714	keystroke_Key.enter	Key.enter	n/a
658.997	9.9715	1317994	prompt	n/a	easily foundation webmaster noise\n
659.7875	0.164	1319575	keystroke_e	e	n/a
660.0275	0.104	1320055	keystroke_a	a	n/a
660.2515	0.121	1320503	keystroke_s	s	n/a
660.402	0.075	1320804	keystroke_i	i	n/a
660.612	0.15	1321224	keystroke_l	l	n/a
660.972	0.1655	1321944	keystroke_y	y	n/a
661.047	0.1655	1322094	keystroke_Key.space	Key.space	n/a
661.2725	0.15	1322545	keystroke_f	f	n/a
661.4365	0.1505	1322873	keystroke_o	o	n/a
661.542	0.1055	1323084	keystroke_u	u	n/a
661.7815	0.1355	1323563	keystroke_n	n	n/a
661.8725	0.134	1323745	keystroke_d	d	n/a
662.2315	0.195	1324463	keystroke_a	a	n/a
662.4415	0.12	1324883	keystroke_t	t	n/a
662.5315	0.211	1325063	keystroke_i	i	n/a
662.6225	0.1645	1325245	keystroke_o	o	n/a
662.6815	0.15	1325363	keystroke_n	n	n/a
663.2065	0.091	1326413	keystroke_Key.space	Key.space	n/a
663.567	0.1505	1327134	keystroke_w	w	n/a
663.732	0.105	1327464	keystroke_e	e	n/a
664.032	0.09	1328064	keystroke_b	b	n/a
664.7515	0.121	1329503	keystroke_m	m	n/a
664.9025	0.12	1329805	keystroke_a	a	n/a
665.1275	0.12	1330255	keystroke_s	s	n/a
665.517	0.12	1331034	keystroke_t	t	n/a
665.7425	0.2095	1331485	keystroke_e	e	n/a
665.877	0.135	1331754	keystroke_r	r	n/a
666.312	0.0895	1332624	keystroke_Key.space	Key.space	n/a
666.957	0.135	1333914	keystroke_n	n	n/a
667.167	0.195	1334334	keystroke_o	o	n/a
667.332	0.285	1334664	keystroke_i	i	n/a
667.722	0.18	1335444	keystroke_s	s	n/a
668.0815	0.1355	1336163	keystroke_e	e	n/a
668.847	0.12	1337694	keystroke_Key.enter	Key.enter	n/a
668.972	9.5235	1337944	prompt	n/a	bunny needs cattle finest\n
669.9265	0.105	1339853	keystroke_b	b	n/a
670.1515	0.091	1340303	keystroke_u	u	n/a
670.6015	0.105	1341203	keystroke_n	n	n/a
670.8265	0.105	1341653	keystroke_n	n	n/a
671.337	0.135	1342674	keystroke_y	y	n/a
671.6065	0.12	1343213	keystroke_Key.space	Key.space	n/a
671.952	0.1345	1343904	keystroke_n	n	n/a
672.1765	0.0905	1344353	keystroke_e	e	n/a
672.3565	0.091	1344713	keystroke_e	e	n/a
672.6265	0.15	1345253	keystroke_d	d	n/a
672.8525	0.104	1345705	keystroke_s	s	n/a
673.737	0.105	1347474	keystroke_Key.space	Key.space	n/a
674.022	0.12	1348044	keystroke_c	c	n/a
674.337	0.105	1348674	keystroke_a	a	n/a
674.937	0.045	1349874	keystroke_t	t	n/a
674.997	0.045	1349994	keystroke_t	t	n/a
675.117	0.135	1350234	keystroke_l	l	n/a
675.222	0.135	1350444	keystroke_e	e	n/a
675.5065	0.1055	1351013	keystroke_Key.space	Key.space	n/a
676.017	0.09	1352034	keystroke_i	i	n/a
676.181	0.075	1352362	keystroke_f	f	n/a
676.556	0.106	1353112	keystroke_Key.backspace	Key.backspace	n/a
676.752	0.0745	1353504	keystroke_Key.backspace	Key.backspace	n/a
677.052	0.0905	1354104	keystroke_f	f	n/a
677.202	0.135	1354404	keystroke_i	i	n/a
677.322	0.165	1354644	keystroke_n	n	n/a
677.487	0.105	1354974	keystroke_e	e	n/a
677.712	0.105	1355424	keystroke_s	s	n/a
678.012	0.0595	1356024	keystroke_t	t	n/a
678.387	0.105	1356774	keystroke_Key.enter	Key.enter	n/a
678.5015	7.897	1357003	prompt	n/a	agree referral loans duck\n
679.4515	0.15	1358903	keystroke_a	a	n/a
679.7375	0.119	1359475	keystroke_g	g	n/a
680.0365	0.12	1360073	keystroke_r	r	n/a
680.2765	0.0455	1360553	keystroke_e	e	n/a
680.4265	0.12	1360853	keystroke_e	e	n/a
681.0565	0.1355	1362113	keystroke_Key.space	Key.space	n/a
681.4015	0.136	1362803	keystroke_r	r	n/a
681.612	0.105	1363224	keystroke_e	e	n/a
681.897	0.12	1363794	keystroke_f	f	n/a
682.1515	0.196	1364303	keystroke_e	e	n/a
682.3015	0.075	1364603	keystroke_r	r	n/a
682.4815	0.15	1364963	keystroke_r	r	n/a
682.6475	0.104	1365295	keystroke_a	a	n/a
682.8265	0.21	1365653	keystroke_l	l	n/a
683.0815	0.105	1366163	keystroke_Key.space	Key.space	n/a
683.4265	0.166	1366853	keystroke_l	l	n/a
683.712	0.1645	1367424	keystroke_o	o	n/a
683.9065	0.1205	1367813	keystroke_a	a	n/a
684.042	0.105	1368084	keystroke_n	n	n/a
684.192	0.105	1368384	keystroke_s	s	n/a
684.597	0.09	1369194	keystroke_Key.space	Key.space	n/a
685.168	0.149	1370336	keystroke_d	d	n/a
685.377	0.09	1370754	keystroke_u	u	n/a
685.526	0.136	1371052	keystroke_c	c	n/a
685.797	0.15	1371594	keystroke_k	k	n/a
686.277	0.12	1372554	keystroke_Key.enter	Key.enter	n/a
686.402	8.367	1372804	prompt	n/a	all plaza guitar mustn't\n
687.342	0.12	1374684	keystroke_a	a	n/a
687.552	0.09	1375104	keystroke_l	l	n/a
687.717	0.12	1375434	keystroke_l	l	n/a
687.852	0.135	1375704	keystroke_Key.space	Key.space	n/a
688.017	0.0895	1376034	keystroke_p	p	n/a
688.272	0.1795	1376544	keystroke_l	l	n/a
688.4065	0.136	1376813	keystroke_a	a	n/a
688.7065	0.12	1377413	keystroke_z	z	n/a
689.0815	0.1055	1378163	keystroke_a	a	n/a
689.3065	0.1055	1378613	keystroke_Key.space	Key.space	n/a
690.0425	0.089	1380085	keystroke_g	g	n/a
690.1475	0.119	1380295	keystroke_u	u	n/a
690.3725	0.1495	1380745	keystroke_i	i	n/a
690.5815	0.0905	1381163	keystroke_t	t	n/a
690.837	0.1495	1381674	keystroke_a	a	n/a
690.972	0.12	1381944	keystroke_r	r	n/a
691.3315	0.1055	1382663	keystroke_Key.space	Key.space	n/a
691.992	0.06	1383984	keystroke_m	m	n/a
692.367	0.18	1384734	keystroke_u	u	n/a
692.532	0.105	1385064	keystroke_s	s	n/a
692.862	0.105	1385724	keystroke_t	t	n/a
693.552	0.1655	1387104	keystroke_n	n	n/a
693.9415	0.0755	1387883	keystroke_'	'	n/a
694.1965	0.121	1388393	keystroke_t	t	n/a
694.6465	0.12	1389293	keystroke_Key.enter	Key.enter	n/a
694.772	8.2015	1389544	prompt	n/a	slim calculated chief carries\n
695.607	0.15	1391214	keystroke_s	s	n/a
695.817	0.135	1391634	keystroke_l	l	n/a
696.072	0.15	1392144	keystroke_i	i	n/a
696.312	0.12	1392624	keystroke_m	m	n/a
696.597	0.12	1393194	keystroke_Key.space	Key.space	n/a
697.017	0.12	1394034	keystroke_c	c	n/a
697.3175	0.1045	1394635	keystroke_a	a	n/a
697.4515	0.135	1394903	keystroke_l	l	n/a
697.992	0.1495	1395984	keystroke_c	c	n/a
698.1715	0.0755	1396343	keystroke_u	u	n/a
698.457	0.135	1396914	keystroke_l	l	n/a
698.5765	0.15	1397153	keystroke_a	a	n/a
698.787	0.135	1397574	keystroke_t	t	n/a
698.997	0.1045	1397994	keystroke_e	e	n/a
699.2665	0.1055	1398533	keystroke_d	d	n/a
699.402	0.104	1398804	keystroke_Key.space	Key.space	n/a
699.897	0.135	1399794	keystroke_c	c	n/a
700.062	0.119	1400124	keystroke_h	h	n/a
700.197	0.1955	1400394	keystroke_i	i	n/a
700.362	0.135	1400724	keystroke_e	e	n/a
700.647	0.12	1401294	keystroke_f	f	n/a
700.872	0.105	1401744	keystroke_Key.space	Key.space	n/a
701.277	0.105	1402554	keystroke_c	c	n/a
701.577	0.105	1403154	keystroke_a	a	n/a
701.742	0.0755	1403484	keystroke_r	r	n/a
701.937	0.0895	1403874	keystroke_r	r	n/a
702.0715	0.105	1404143	keystroke_i	i	n/a
702.1775	0.104	1404355	keystroke_e	e	n/a
702.4315	0.12	1404863	keystroke_s	s	n/a
702.8815	0.0905	1405763	keystroke_Key.enter	Key.enter	n/a
702.977	9.6715	1405954	prompt	n/a	venture realtors treo ieee\n
704.1875	0.1195	1408375	keystroke_v	v	n/a
704.322	0.1355	1408644	keystroke_e	e	n/a
704.502	0.09	1409004	keystroke_n	n	n/a
704.9375	0.1045	1409875	keystroke_t	t	n/a
705.117	0.15	1410234	keystroke_u	u	n/a
705.252	0.15	1410504	keystroke_r	r	n/a
705.417	0.12	1410834	keystroke_e	e	n/a
705.867	0.105	1411734	keystroke_Key.space	Key.space	n/a
706.347	0.2105	1412694	keystroke_r	r	n/a
706.542	0.1955	1413084	keystroke_e	e	n/a
706.782	0.075	1413564	keystroke_a	a	n/a
706.917	0.165	1413834	keystroke_l	l	n/a
707.187	0.105	1414374	keystroke_t	t	n/a
708.312	0.195	1416624	keystroke_o	o	n/a
708.492	0.09	1416984	keystroke_r	r	n/a
708.762	0.135	1417524	keystroke_s	s	n/a
709.002	0.09	1418004	keystroke_Key.space	Key.space	n/a
709.422	0.1195	1418844	keystroke_t	t	n/a
709.647	0.1195	1419294	keystroke_r	r	n/a
709.8715	0.105	1419743	keystroke_e	e	n/a
710.1115	0.1055	1420223	keystroke_o	o	n/a
710.351	0.106	1420702	keystroke_Key.space	Key.space	n/a
710.832	0.1345	1421664	keystroke_i	i	n/a
711.4015	0.105	1422803	keystroke_e	e	n/a
711.6265	0.0905	1423253	keystroke_e	e	n/a
711.8215	0.09	1423643	keystroke_e	e	n/a
712.5565	0.0905	1425113	keystroke_Key.enter	Key.enter	n/a
712.6515	15.822	1425303	prompt	n/a	brunette vinyl subscription tactics\n
713.8925	0.075	1427785	keystroke_v	v	n/a
714.552	0.165	1429104	keystroke_Key.backspace	Key.backspace	n/a
714.777	0.1055	1429554	keystroke_b	b	n/a
715.197	0.135	1430394	keystroke_r	r	n/a
715.437	0.105	1430874	keystroke_u	u	n/a
715.902	0.105	1431804	keystroke_n	n	n/a
716.172	0.09	1432344	keystroke_e	e	n/a
719.2035	0.001	1438407	keystroke_t	t	n/a
719.2925	0.104	1438585	keystroke_t	t	n/a
719.4865	0.09	1438973	keystroke_e	e	n/a
719.9065	0.06	1439813	keystroke_Key.space	Key.space	n/a
720.5075	0.134	1441015	keystroke_v	v	n/a
720.6565	0.135	1441313	keystroke_i	i	n/a
720.7765	0.15	1441553	keystroke_n	n	n/a
721.2565	0.12	1442513	keystroke_y	y	n/a
721.5865	0.151	1443173	keystroke_l	l	n/a
721.992	0.075	1443984	keystroke_Key.space	Key.space	n/a
722.337	0.135	1444674	keystroke_s	s	n/a
722.487	0.1205	1444974	keystroke_u	u	n/a
722.652	0.12	1445304	keystroke_b	b	n/a
722.9515	0.12	1445903	keystroke_s	s	n/a
723.3565	0.1055	1446713	keystroke_c	c	n/a
723.672	0.075	1447344	keystroke_r	r	n/a
723.792	0.165	1447584	keystroke_i	i	n/a
723.972	0.12	1447944	keystroke_p	p	n/a
724.152	0.0905	1448304	keystroke_t	t	n/a
724.257	0.1495	1448514	keystroke_i	i	n/a
724.3325	0.12	1448665	keystroke_o	o	n/a
724.4225	0.135	1448845	keystroke_n	n	n/a
725.187	0.105	1450374	keystroke_Key.space	Key.space	n/a
725.5925	0.1195	1451185	keystroke_t	t	n/a
725.847	0.12	1451694	keystroke_a	a	n/a
726.2675	0.105	1452535	keystroke_c	c	n/a
726.6715	0.075	1453343	keystroke_t	t	n/a
726.9265	0.15	1453853	keystroke_i	i	n/a
727.2265	0.106	1454453	keystroke_c	c	n/a
727.527	0.105	1455054	keystroke_s	s	n/a
728.337	0.135	1456674	keystroke_Key.enter	Key.enter	n/a
728.477	12.3265	1456954	prompt	n/a	realistic fiji goal working\n
729.537	0.15	1459074	keystroke_r	r	n/a
729.657	0.165	1459314	keystroke_e	e	n/a
729.807	0.09	1459614	keystroke_a	a	n/a
729.912	0.12	1459824	keystroke_l	l	n/a
730.1075	0.2395	1460215	keystroke_i	i	n/a
730.212	0.105	1460424	keystroke_s	s	n/a
730.467	0.09	1460934	keystroke_t	t	n/a
730.602	0.195	1461204	keystroke_i	i	n/a
730.872	0.135	1461744	keystroke_c	c	n/a
731.082	0.075	1462164	keystroke_Key.space	Key.space	n/a
731.6675	0.1195	1463335	keystroke_f	f	n/a
731.892	0.1655	1463784	keystroke_i	i	n/a
732.252	0.1055	1464504	keystroke_j	j	n/a
732.462	0.18	1464924	keystroke_i	i	n/a
732.9265	0.12	1465853	keystroke_Key.space	Key.space	n/a
734.577	0.105	1469154	keystroke_g	g	n/a
735.0425	0.134	1470085	keystroke_o	o	n/a
735.282	0.1195	1470564	keystroke_a	a	n/a
735.432	0.1645	1470864	keystroke_l	l	n/a
735.642	0.12	1471284	keystroke_Key.space	Key.space	n/a
736.0765	0.12	1472153	keystroke_w	w	n/a
736.1515	0.106	1472303	keystroke_o	o	n/a
736.2865	0.136	1472573	keystroke_r	r	n/a
736.4075	0.1345	1472815	keystroke_k	k	n/a
740.713	0.089	1481426	keystroke_Key.enter	Key.enter	n/a
740.8085	10.5555	1481617	prompt	n/a	soup springer keith authorization\n
741.733	0.194	1483466	keystroke_s	s	n/a
741.897	0.165	1483794	keystroke_o	o	n/a
741.987	0.1805	1483974	keystroke_u	u	n/a
742.122	0.1955	1484244	keystroke_p	p	n/a
742.302	0.1355	1484604	keystroke_Key.space	Key.space	n/a
742.497	0.1655	1484994	keystroke_s	s	n/a
742.9625	0.1345	1485925	keystroke_p	p	n/a
743.112	0.105	1486224	keystroke_r	r	n/a
743.202	0.135	1486404	keystroke_i	i	n/a
743.322	0.1655	1486644	keystroke_n	n	n/a
743.4125	0.12	1486825	keystroke_g	g	n/a
743.5925	0.165	1487185	keystroke_e	e	n/a
743.6975	0.15	1487395	keystroke_r	r	n/a
743.7575	0.03	1487515	keystroke_4	4	n/a
743.8175	0.12	1487635	keystroke_Key.space	Key.space	n/a
744.402	0.15	1488804	keystroke_k	k	n/a
744.5075	0.1345	1489015	keystroke_e	e	n/a
745.1375	0.105	1490275	keystroke_Key.backspace	Key.backspace	n/a
745.362	0.09	1490724	keystroke_Key.backspace	Key.backspace	n/a
745.617	0.09	1491234	keystroke_Key.backspace	Key.backspace	n/a
745.827	0.0905	1491654	keystroke_Key.backspace	Key.backspace	n/a
746.112	0.0755	1492224	keystroke_Key.space	Key.space	n/a
746.412	0.1205	1492824	keystroke_k	k	n/a
746.5025	0.105	1493005	keystroke_e	e	n/a
746.6675	0.12	1493335	keystroke_i	i	n/a
746.7725	0.074	1493545	keystroke_t	t	n/a
746.9075	0.135	1493815	keystroke_h	h	n/a
747.5965	0.091	1495193	keystroke_Key.space	Key.space	n/a
747.927	0.15	1495854	keystroke_a	a	n/a
748.1375	0.0895	1496275	keystroke_u	u	n/a
748.302	0.0605	1496604	keystroke_t	t	n/a
748.4075	0.105	1496815	keystroke_h	h	n/a
748.497	0.12	1496994	keystroke_o	o	n/a
748.617	0.09	1497234	keystroke_r	r	n/a
748.7675	0.1045	1497535	keystroke_i	i	n/a
749.007	0.1355	1498014	keystroke_z	z	n/a
749.3215	0.135	1498643	keystroke_a	a	n/a
749.5175	0.1045	1499035	keystroke_t	t	n/a
749.592	0.2255	1499184	keystroke_i	i	n/a
749.697	0.1355	1499394	keystroke_o	o	n/a
749.757	0.15	1499514	keystroke_n	n	n/a
751.242	0.1205	1502484	keystroke_Key.enter	Key.enter	n/a
751.3685	11.2	1502737	prompt	n/a	chef couple breeds denver\n
752.922	0.135	1505844	keystroke_c	c	n/a
753.192	0.1505	1506384	keystroke_h	h	n/a
753.5675	0.134	1507135	keystroke_e	e	n/a
755.022	0.12	1510044	keystroke_f	f	n/a
755.8465	0.1205	1511693	keystroke_Key.space	Key.space	n/a
756.3715	0.136	1512743	keystroke_c	c	n/a
756.5215	0.165	1513043	keystroke_o	o	n/a
756.5965	0.1955	1513193	keystroke_u	u	n/a
756.807	0.1195	1513614	keystroke_p	p	n/a
757.1975	0.179	1514395	keystroke_l	l	n/a
757.3325	0.104	1514665	keystroke_e	e	n/a
757.692	0.1045	1515384	keystroke_Key.space	Key.space	n/a
758.967	0.09	1517934	keystroke_b	b	n/a
759.342	0.1345	1518684	keystroke_r	r	n/a
759.5515	0.075	1519103	keystroke_e	e	n/a
759.7325	0.075	1519465	keystroke_e	e	n/a
760.0025	0.104	1520005	keystroke_d	d	n/a
760.1525	0.135	1520305	keystroke_s	s	n/a
760.317	0.1045	1520634	keystroke_Key.space	Key.space	n/a
760.9925	0.12	1521985	keystroke_d	d	n/a
761.2325	0.0895	1522465	keystroke_e	e	n/a
761.337	0.15	1522674	keystroke_n	n	n/a
761.652	0.105	1523304	keystroke_v	v	n/a
761.952	0.1355	1523904	keystroke_e	e	n/a
762.042	0.135	1524084	keystroke_r	r	n/a
762.4325	0.1345	1524865	keystroke_Key.enter	Key.enter	n/a
762.572	16.0315	1525144	prompt	n/a	trials bird nonprofit windsor\n
763.6625	0.09	1527325	keystroke_t	t	n/a
763.902	0.1355	1527804	keystroke_r	r	n/a
764.052	0.135	1528104	keystroke_i	i	n/a
764.217	0.09	1528434	keystroke_a	a	n/a
764.397	0.1355	1528794	keystroke_l	l	n/a
764.5475	0.105	1529095	keystroke_s	s	n/a
764.6965	0.136	1529393	keystroke_Key.space	Key.space	n/a
765.1175	0.09	1530235	keystroke_b	b	n/a
765.2675	0.2095	1530535	keystroke_i	i	n/a
766.3025	0.135	1532605	keystroke_r	r	n/a
766.6765	0.151	1533353	keystroke_d	d	n/a
766.872	0.105	1533744	keystroke_Key.space	Key.space	n/a
767.322	0.165	1534644	keystroke_n	n	n/a
767.472	0.165	1534944	keystroke_o	o	n/a
767.577	0.135	1535154	keystroke_n	n	n/a
768.027	0.1655	1536054	keystroke_p	p	n/a
768.3125	0.12	1536625	keystroke_r	r	n/a
768.3865	0.121	1536773	keystroke_o	o	n/a
769.9175	0.09	1539835	keystroke_f	f	n/a
770.1875	0.195	1540375	keystroke_i	i	n/a
770.4425	0.15	1540885	keystroke_t	t	n/a
773.3685	0.0435	1546737	keystroke_Key.space	Key.space	n/a
774.1325	0.1495	1548265	keystroke_w	w	n/a
774.672	0.165	1549344	keystroke_i	i	n/a
774.822	0.15	1549644	keystroke_n	n	n/a
775.452	0.1055	1550904	keystroke_d	d	n/a
775.752	0.1055	1551504	keystroke_s	s	n/a
775.872	0.1355	1551744	keystroke_o	o	n/a
777.3265	0.1355	1554653	keystroke_r	r	n/a
778.4365	0.165	1556873	keystroke_Key.enter	Key.enter	n/a
778.608	21.446	1557216	prompt	n/a	earlier instances wanted concerned\n
779.397	0.135	1558794	keystroke_e	e	n/a
779.577	0.12	1559154	keystroke_a	a	n/a
779.637	0.15	1559274	keystroke_r	r	n/a
779.862	0.12	1559724	keystroke_l	l	n/a
780.162	0.135	1560324	keystroke_i	i	n/a
780.312	0.1345	1560624	keystroke_e	e	n/a
780.387	0.1945	1560774	keystroke_r	r	n/a
780.8665	0.0905	1561733	keystroke_Key.space	Key.space	n/a
781.167	0.1645	1562334	keystroke_i	i	n/a
781.287	0.1795	1562574	keystroke_n	n	n/a
781.3465	0.15	1562693	keystroke_s	s	n/a
781.902	0.1045	1563804	keystroke_t	t	n/a
782.262	0.1345	1564524	keystroke_a	a	n/a
782.457	0.1195	1564914	keystroke_n	n	n/a
782.757	0.0445	1565514	keystroke_c	c	n/a
783.1925	0.1495	1566385	keystroke_e	e	n/a
786.239	0.088	1572478	keystroke_s	s	n/a
786.777	0.135	1573554	keystroke_Key.space	Key.space	n/a
787.182	0.165	1574364	keystroke_w	w	n/a
787.332	0.135	1574664	keystroke_a	a	n/a
787.437	0.1795	1574874	keystroke_n	n	n/a
787.6465	0.09	1575293	keystroke_t	t	n/a
787.902	0.09	1575804	keystroke_e	e	n/a
788.187	0.15	1576374	keystroke_d	d	n/a
788.427	0.09	1576854	keystroke_Key.space	Key.space	n/a
789.042	0.15	1578084	keystroke_c	c	n/a
789.207	0.1495	1578414	keystroke_o	o	n/a
789.3265	0.1655	1578653	keystroke_n	n	n/a
789.612	0.12	1579224	keystroke_c	c	n/a
789.972	0.15	1579944	keystroke_e	e	n/a
790.107	0.12	1580214	keystroke_r	r	n/a
790.317	0.135	1580634	keystroke_n	n	n/a
790.482	0.12	1580964	keystroke_e	e	n/a
790.782	0.075	1581564	keystroke_d	d	n/a
799.9045	0.148	1599809	keystroke_Key.enter	Key.enter	n/a
800.0575	11.952	1600115	prompt	n/a	symphony frames organizing grass\n
801.1175	0.195	1602235	keystroke_s	s	n/a
801.4325	0.135	1602865	keystroke_y	y	n/a
801.7925	0.1355	1603585	keystroke_m	m	n/a
802.017	0.15	1604034	keystroke_p	p	n/a
802.332	0.18	1604664	keystroke_h	h	n/a
802.557	0.2255	1605114	keystroke_o	o	n/a
802.7075	0.15	1605415	keystroke_n	n	n/a
803.1125	0.195	1606225	keystroke_y	y	n/a
803.2475	0.15	1606495	keystroke_Key.space	Key.space	n/a
803.6975	0.075	1607395	keystroke_f	f	n/a
804.0575	0.1945	1608115	keystroke_r	r	n/a
804.222	0.1055	1608444	keystroke_a	a	n/a
804.3575	0.1645	1608715	keystroke_m	m	n/a
804.5375	0.135	1609075	keystroke_e	e	n/a
804.7175	0.15	1609435	keystroke_s	s	n/a
805.092	0.09	1610184	keystroke_Key.space	Key.space	n/a
805.5875	0.2095	1611175	keystroke_o	o	n/a
805.722	0.1655	1611444	keystroke_r	r	n/a
806.0375	0.1645	1612075	keystroke_g	g	n/a
806.2175	0.104	1612435	keystroke_a	a	n/a
806.2925	0.1345	1612585	keystroke_n	n	n/a
806.502	0.1805	1613004	keystroke_i	i	n/a
806.922	0.135	1613844	keystroke_z	z	n/a
807.3725	0.165	1614745	keystroke_i	i	n/a
807.462	0.18	1614924	keystroke_n	n	n/a
807.6575	0.1345	1615315	keystroke_g	g	n/a
807.8375	0.09	1615675	keystroke_Key.space	Key.space	n/a
808.2275	0.12	1616455	keystroke_g	g	n/a
808.5125	0.15	1617025	keystroke_r	r	n/a
808.6175	0.12	1617235	keystroke_a	a	n/a
808.8875	0.0895	1617775	keystroke_s	s	n/a
809.0525	0.12	1618105	keystroke_s	s	n/a
811.905	0.1025	1623810	keystroke_Key.enter	Key.enter	n/a
812.0125	9.776	1624025	prompt	n/a	funk success claim selection\n
813.013	0.104	1626026	keystroke_f	f	n/a
813.2075	0.105	1626415	keystroke_u	u	n/a
813.447	0.12	1626894	keystroke_n	n	n/a
813.6275	0.12	1627255	keystroke_k	k	n/a
814.047	0.12	1628094	keystroke_Key.space	Key.space	n/a
814.407	0.1505	1628814	keystroke_s	s	n/a
814.6175	0.135	1629235	keystroke_u	u	n/a
814.8575	0.105	1629715	keystroke_c	c	n/a
815.0225	0.105	1630045	keystroke_c	c	n/a
815.3225	0.134	1630645	keystroke_e	e	n/a
815.5165	0.075	1631033	keystroke_s	s	n/a
815.6665	0.105	1631333	keystroke_s	s	n/a
815.8775	0.119	1631755	keystroke_Key.space	Key.space	n/a
816.1775	0.149	1632355	keystroke_c	c	n/a
816.4465	0.166	1632893	keystroke_l	l	n/a
816.5825	0.119	1633165	keystroke_a	a	n/a
816.7625	0.1195	1633525	keystroke_i	i	n/a
816.9875	0.135	1633975	keystroke_m	m	n/a
817.302	0.1195	1634604	keystroke_Key.space	Key.space	n/a
817.602	0.15	1635204	keystroke_s	s	n/a
817.947	0.1055	1635894	keystroke_e	e	n/a
818.1125	0.135	1636225	keystroke_l	l	n/a
818.1725	0.105	1636345	keystroke_e	e	n/a
818.517	0.091	1637034	keystroke_c	c	n/a
818.922	0.105	1637844	keystroke_t	t	n/a
819.028	0.194	1638056	keystroke_i	i	n/a
819.0725	0.0895	1638145	keystroke_k	k	n/a
819.163	0.0745	1638326	keystroke_o	o	n/a
819.1775	0.1805	1638355	keystroke_n	n	n/a
819.897	0.12	1639794	keystroke_Key.backspace	Key.backspace	n/a
820.0475	0.105	1640095	keystroke_Key.backspace	Key.backspace	n/a
820.1815	0.091	1640363	keystroke_Key.backspace	Key.backspace	n/a
820.9025	0.03	1641805	keystroke_o	o	n/a
820.9175	0.165	1641835	keystroke_n	n	n/a
821.6525	0.1345	1643305	keystroke_Key.enter	Key.enter	n/a
821.7925	9.3865	1643585	prompt	n/a	gold emotional filme alternative\n
822.822	0.045	1645644	keystroke_g	g	n/a
822.882	0.12	1645764	keystroke_o	o	n/a
823.422	0.1355	1646844	keystroke_l	l	n/a
823.5125	0.1345	1647025	keystroke_d	d	n/a
823.6775	0.1045	1647355	keystroke_Key.space	Key.space	n/a
824.022	0.15	1648044	keystroke_e	e	n/a
824.217	0.1205	1648434	keystroke_m	m	n/a
824.442	0.135	1648884	keystroke_o	o	n/a
824.6225	0.1045	1649245	keystroke_t	t	n/a
824.697	0.2105	1649394	keystroke_i	i	n/a
824.787	0.15	1649574	keystroke_o	o	n/a
824.8775	0.12	1649755	keystroke_n	n	n/a
825.0275	0.1195	1650055	keystroke_a	a	n/a
825.162	0.135	1650324	keystroke_l	l	n/a
825.402	0.1205	1650804	keystroke_Key.space	Key.space	n/a
825.8825	0.15	1651765	keystroke_f	f	n/a
826.0475	0.105	1652095	keystroke_i	i	n/a
826.2575	0.135	1652515	keystroke_l	l	n/a
826.4975	0.135	1652995	keystroke_m	m	n/a
826.6475	0.105	1653295	keystroke_e	e	n/a
827.4715	0.12	1654943	keystroke_Key.space	Key.space	n/a
827.728	0.1185	1655456	keystroke_a	a	n/a
827.8775	0.2545	1655755	keystroke_l	l	n/a
828.117	0.1045	1656234	keystroke_t	t	n/a
828.3575	0.12	1656715	keystroke_e	e	n/a
828.4625	0.104	1656925	keystroke_r	r	n/a
828.5525	0.135	1657105	keystroke_n	n	n/a
828.6715	0.166	1657343	keystroke_a	a	n/a
828.8075	0.089	1657615	keystroke_t	t	n/a
828.958	0.104	1657916	keystroke_i	i	n/a
829.1365	0.136	1658273	keystroke_v	v	n/a
829.2575	0.134	1658515	keystroke_e	e	n/a
831.1325	0.045	1662265	keystroke_Key.enter	Key.enter	n/a
831.183	21.641	1662366	prompt	n/a	aurora garcia defendant microwave\n
