onset	duration	sample	value	key	prompt_text
27.3185	9.335	54637	prompt	n/a	the quick brown fox jumps over a lazy dog\n
29.377	0.001	58754	keystroke_t	t	n/a
29.378	0.072	58756	keystroke_h	h	n/a
29.4955	0.09	58991	keystroke_e	e	n/a
29.57	0.1205	59140	keystroke_Key.space	Key.space	n/a
29.735	0.12	59470	keystroke_q	q	n/a
30.02	0.09	60040	keystroke_u	u	n/a
30.035	0.06	60070	keystroke_y	y	n/a
30.155	0.09	60310	keystroke_i	i	n/a
30.515	0.075	61030	keystroke_Key.backspace	Key.backspace	n/a
30.65	0.075	61300	keystroke_Key.backspace	Key.backspace	n/a
30.905	0.075	61810	keystroke_i	i	n/a
31.07	0.045	62140	keystroke_c	c	n/a
31.1005	0.1195	62201	keystroke_k	k	n/a
31.2495	0.09	62499	keystroke_Key.space	Key.space	n/a
31.6105	0.089	63221	keystroke_b	b	n/a
31.73	0.09	63460	keystroke_r	r	n/a
31.8045	0.09	63609	keystroke_o	o	n/a
31.91	0.105	63820	keystroke_w	w	n/a
32	0.09	64000	keystroke_n	n	n/a
32.075	0.1055	64150	keystroke_Key.space	Key.space	n/a
32.1805	0.075	64361	keystroke_f	f	n/a
32.27	0.09	64540	keystroke_o	o	n/a
32.405	0.09	64810	keystroke_x	x	n/a
32.51	0.075	65020	keystroke_Key.space	Key.space	n/a
32.7355	0.105	65471	keystroke_j	j	n/a
32.915	0.06	65830	keystroke_u	u	n/a
33.11	0.075	66220	keystroke_m	m	n/a
33.2	0.09	66400	keystroke_p	p	n/a
33.365	0.075	66730	keystroke_s	s	n/a
33.5	0.075	67000	keystroke_Key.space	Key.space	n/a
33.635	0.09	67270	keystroke_o	o	n/a
33.71	0.091	67420	keystroke_v	v	n/a
33.846	0.134	67692	keystroke_e	e	n/a
33.95	0.045	67900	keystroke_r	r	n/a
33.965	0.1055	67930	keystroke_Key.space	Key.space	n/a
34.1155	0.1045	68231	keystroke_a	a	n/a
34.16	0.075	68320	keystroke_Key.space	Key.space	n/a
34.4155	0.1045	68831	keystroke_l	l	n/a
34.6705	0.0595	69341	keystroke_z	z	n/a
35.045	0.0755	70090	keystroke_Key.backspace	Key.backspace	n/a
35.1205	0.09	70241	keystroke_a	a	n/a
35.3005	0.06	70601	keystroke_z	z	n/a
35.3755	0.0895	70751	keystroke_y	y	n/a
35.495	0.06	70990	keystroke_Key.space	Key.space	n/a
35.66	0.075	71320	keystroke_d	d	n/a
35.72	0.075	71440	keystroke_o	o	n/a
35.855	0.046	71710	keystroke_g	g	n/a
36.56	0.0905	73120	keystroke_Key.enter	Key.enter	n/a
36.658	6.3685	73316	prompt	n/a	unique brick updated logging\n
37.3255	0.06	74651	keystroke_u	u	n/a
37.4905	0.075	74981	keystroke_n	n	n/a
37.5805	0.09	75161	keystroke_i	i	n/a
37.6555	0.0895	75311	keystroke_q	q	n/a
37.7755	0.0745	75551	keystroke_u	u	n/a
37.866	0.074	75732	keystroke_e	e	n/a
37.955	0.06	75910	keystroke_Key.space	Key.space	n/a
38.3005	0.075	76601	keystroke_b	b	n/a
38.4055	0.06	76811	keystroke_r	r	n/a
38.4795	0.076	76959	keystroke_i	i	n/a
38.6005	0.075	77201	keystroke_c	c	n/a
38.6755	0.06	77351	keystroke_k	k	n/a
38.7055	0.014	77411	keystroke_j	j	n/a
38.7655	0.089	77531	keystroke_Key.space	Key.space	n/a
38.9605	0.075	77921	keystroke_u	u	n/a
39.0955	0.059	78191	keystroke_p	p	n/a
39.3045	0.061	78609	keystroke_Key.backspace	Key.backspace	n/a
39.4405	0.0595	78881	keystroke_Key.backspace	Key.backspace	n/a
39.5605	0.0895	79121	keystroke_Key.backspace	Key.backspace	n/a
39.71	0.09	79420	keystroke_Key.backspace	Key.backspace	n/a
39.86	0.075	79720	keystroke_Key.space	Key.space	n/a
39.921	0.134	79842	keystroke_u	u	n/a
40.04	0.105	80080	keystroke_p	p	n/a
40.16	0.09	80320	keystroke_d	d	n/a
40.235	0.0905	80470	keystroke_a	a	n/a
40.3405	0.105	80681	keystroke_t	t	n/a
40.4155	0.075	80831	keystroke_e	e	n/a
40.5655	0.09	81131	keystroke_d	d	n/a
40.6855	0.06	81371	keystroke_Key.space	Key.space	n/a
41.3455	0.09	82691	keystroke_l	l	n/a
41.7655	0.06	83531	keystroke_o	o	n/a
42.0055	0.06	84011	keystroke_g	g	n/a
42.1255	0.06	84251	keystroke_g	g	n/a
42.2155	0.12	84431	keystroke_i	i	n/a
42.29	0.105	84580	keystroke_n	n	n/a
42.3505	0.0295	84701	keystroke_g	g	n/a
42.965	0.06	85930	keystroke_Key.enter	Key.enter	n/a
43.0295	5.8925	86059	prompt	n/a	anne design worlds allowing\n
43.595	0.09	87190	keystroke_a	a	n/a
43.6695	0.06	87339	keystroke_n	n	n/a
43.8045	0.0755	87609	keystroke_n	n	n/a
43.8945	0.075	87789	keystroke_e	e	n/a
43.9855	0.0895	87971	keystroke_Key.space	Key.space	n/a
44.0895	0.061	88179	keystroke_d	d	n/a
44.255	0.1205	88510	keystroke_e	e	n/a
44.3455	0.09	88691	keystroke_s	s	n/a
44.4505	0.09	88901	keystroke_i	i	n/a
44.5855	0.045	89171	keystroke_g	g	n/a
44.6455	0.105	89291	keystroke_n	n	n/a
44.7505	0.105	89501	keystroke_Key.space	Key.space	n/a
45.3655	0.075	90731	keystroke_w	w	n/a
45.4705	0.09	90941	keystroke_o	o	n/a
45.6055	0.075	91211	keystroke_r	r	n/a
45.7555	0.105	91511	keystroke_l	l	n/a
45.8755	0.09	91751	keystroke_d	d	n/a
46.0105	0.1045	92021	keystroke_s	s	n/a
46.145	0.06	92290	keystroke_Key.space	Key.space	n/a
46.9105	0.075	93821	keystroke_a	a	n/a
47.0155	0.09	94031	keystroke_l	l	n/a
47.1505	0.0895	94301	keystroke_l	l	n/a
47.36	0.075	94720	keystroke_o	o	n/a
47.4505	0.06	94901	keystroke_w	w	n/a
47.9	0.2405	95800	keystroke_i	i	n/a
48.125	0.12	96250	keystroke_n	n	n/a
48.26	0.0755	96520	keystroke_g	g	n/a
48.8445	0.075	97689	keystroke_Key.enter	Key.enter	n/a
48.925	7.1675	97850	prompt	n/a	ended provide equity ipaq\n
49.5045	0.061	99009	keystroke_e	e	n/a
49.5795	0.076	99159	keystroke_n	n	n/a
49.6995	0.045	99399	keystroke_d	d	n/a
49.85	0.0445	99700	keystroke_e	e	n/a
49.9845	0.045	99969	keystroke_d	d	n/a
50.0145	0.105	100029	keystroke_Key.space	Key.space	n/a
50.2245	0.0765	100449	keystroke_p	p	n/a
50.315	0.06	100630	keystroke_r	r	n/a
50.4355	0.06	100871	keystroke_o	o	n/a
50.54	0.075	101080	keystroke_v	v	n/a
50.645	0.075	101290	keystroke_i	i	n/a
50.7505	0.0445	101501	keystroke_d	d	n/a
50.885	0.06	101770	keystroke_e	e	n/a
50.99	0.06	101980	keystroke_Key.space	Key.space	n/a
51.7855	0.1055	103571	keystroke_e	e	n/a
51.9955	0.0745	103991	keystroke_q	q	n/a
52.085	0.135	104170	keystroke_u	u	n/a
52.19	0.135	104380	keystroke_i	i	n/a
52.4	0.06	104800	keystroke_t	t	n/a
52.58	0.075	105160	keystroke_y	y	n/a
52.7	0.06	105400	keystroke_Key.space	Key.space	n/a
53.2855	0.09	106571	keystroke_i	i	n/a
53.6755	0.075	107351	keystroke_p	p	n/a
53.7805	0.06	107561	keystroke_a	a	n/a
53.8855	0.06	107771	keystroke_g	g	n/a
54.4705	0.0895	108941	keystroke_Key.backspace	Key.backspace	n/a
54.62	0.0605	109240	keystroke_q	q	n/a
56.0155	0.0745	112031	keystroke_Key.enter	Key.enter	n/a
56.096	7.226	112192	prompt	n/a	mastercard exception silver wide\n
56.8545	0.106	113709	keystroke_m	m	n/a
56.9455	0.06	113891	keystroke_a	a	n/a
56.9755	0.075	113951	keystroke_s	s	n/a
57.0805	0.06	114161	keystroke_t	t	n/a
57.1705	0.119	114341	keystroke_e	e	n/a
57.2455	0.089	114491	keystroke_r	r	n/a
57.425	0.0755	114850	keystroke_c	c	n/a
57.4855	0.0895	114971	keystroke_a	a	n/a
57.5905	0.119	115181	keystroke_r	r	n/a
57.6805	0.0895	115361	keystroke_d	d	n/a
57.8755	0.074	115751	keystroke_Key.space	Key.space	n/a
58.626	0.059	117252	keystroke_e	e	n/a
58.806	0.1045	117612	keystroke_x	x	n/a
58.955	0.105	117910	keystroke_c	c	n/a
59.03	0.09	118060	keystroke_e	e	n/a
59.165	0.075	118330	keystroke_p	p	n/a
59.3005	0.045	118601	keystroke_t	t	n/a
59.45	0.225	118900	keystroke_i	i	n/a
59.511	0.135	119022	keystroke_o	o	n/a
59.525	0.1955	119050	keystroke_n	n	n/a
59.735	0.0605	119470	keystroke_Key.space	Key.space	n/a
61.1305	0.06	122261	keystroke_s	s	n/a
61.2205	0.09	122441	keystroke_i	i	n/a
61.3555	0.105	122711	keystroke_l	l	n/a
61.4755	0.09	122951	keystroke_v	v	n/a
61.6105	0.15	123221	keystroke_e	e	n/a
61.7455	0.06	123491	keystroke_r	r	n/a
62.4055	0.09	124811	keystroke_Key.space	Key.space	n/a
62.5405	0.06	125081	keystroke_w	w	n/a
62.6155	0.105	125231	keystroke_i	i	n/a
62.7355	0.06	125471	keystroke_d	d	n/a
62.8855	0.06	125771	keystroke_e	e	n/a
63.2455	0.075	126491	keystroke_Key.enter	Key.enter	n/a
63.325	4.9465	126650	prompt	n/a	patents keep dogs heated\n
63.9955	0.075	127991	keystroke_p	p	n/a
64.071	0.059	128142	keystroke_a	a	n/a
64.1605	0.12	128321	keystroke_t	t	n/a
64.25	0.0905	128500	keystroke_e	e	n/a
64.3705	0.09	128741	keystroke_n	n	n/a
64.4455	0.075	128891	keystroke_t	t	n/a
64.5655	0.105	129131	keystroke_s	s	n/a
64.6855	0.06	129371	keystroke_Key.space	Key.space	n/a
65.451	0.0745	130902	keystroke_k	k	n/a
65.541	0.0595	131082	keystroke_e	e	n/a
65.675	0.075	131350	keystroke_e	e	n/a
65.78	0.075	131560	keystroke_p	p	n/a
65.9605	0.0745	131921	keystroke_Key.space	Key.space	n/a
66.2	0.075	132400	keystroke_d	d	n/a
66.291	0.059	132582	keystroke_o	o	n/a
66.41	0.061	132820	keystroke_g	g	n/a
66.44	0.105	132880	keystroke_s	s	n/a
66.605	0.075	133210	keystroke_Key.space	Key.space	n/a
67.4005	0.075	134801	keystroke_h	h	n/a
67.4455	0.105	134891	keystroke_e	e	n/a
67.5505	0.105	135101	keystroke_a	a	n/a
67.6405	0.105	135281	keystroke_t	t	n/a
67.7155	0.09	135431	keystroke_e	e	n/a
67.8955	0.075	135791	keystroke_d	d	n/a
68.24	0.03	136480	keystroke_Key.enter	Key.enter	n/a
68.2775	8.38	136555	prompt	n/a	serial adopt javascript baskets\n
68.8555	0.0595	137711	keystroke_s	s	n/a
69.11	0.12	138220	keystroke_e	e	n/a
69.215	0.075	138430	keystroke_r	r	n/a
69.305	0.09	138610	keystroke_i	i	n/a
69.44	0.0905	138880	keystroke_a	a	n/a
69.5455	0.09	139091	keystroke_l	l	n/a
69.6805	0.075	139361	keystroke_Key.space	Key.space	n/a
70.1005	0.06	140201	keystroke_a	a	n/a
70.2205	0.075	140441	keystroke_d	d	n/a
70.401	0.0595	140802	keystroke_o	o	n/a
70.5805	0.0755	141161	keystroke_p	p	n/a
70.8505	0.044	141701	keystroke_t	t	n/a
70.9705	0.075	141941	keystroke_Key.space	Key.space	n/a
71.42	0.06	142840	keystroke_j	j	n/a
71.481	0.075	142962	keystroke_a	a	n/a
71.616	0.074	143232	keystroke_v	v	n/a
71.706	0.089	143412	keystroke_a	a	n/a
71.9755	0.06	143951	keystroke_c	c	n/a
72.4105	0.0595	144821	keystroke_Key.backspace	Key.backspace	n/a
72.485	0.105	144970	keystroke_s	s	n/a
72.56	0.075	145120	keystroke_c	c	n/a
72.741	0.044	145482	keystroke_r	r	n/a
72.8155	0.0895	145631	keystroke_i	i	n/a
73.025	0.061	146050	keystroke_p	p	n/a
73.115	0.0455	146230	keystroke_t	t	n/a
73.565	0.0605	147130	keystroke_Key.space	Key.space	n/a
74.226	0.074	148452	keystroke_b	b	n/a
74.3155	0.1055	148631	keystroke_a	a	n/a
74.435	0.135	148870	keystroke_s	s	n/a
74.615	0.075	149230	keystroke_k	k	n/a
74.735	0.09	149470	keystroke_e	e	n/a
74.81	0.076	149620	keystroke_t	t	n/a
74.9455	0.09	149891	keystroke_s	s	n/a
76.5355	0.1195	153071	keystroke_Key.enter	Key.enter	n/a
76.661	8.067	153322	prompt	n/a	courses creek perry demonstrates\n
77.285	0.075	154570	keystroke_c	c	n/a
77.4655	0.1045	154931	keystroke_o	o	n/a
77.54	0.0905	155080	keystroke_u	u	n/a
77.616	0.089	155232	keystroke_r	r	n/a
77.72	0.105	155440	keystroke_s	s	n/a
77.751	0.104	155502	keystroke_e	e	n/a
77.976	0.089	155952	keystroke_s	s	n/a
78.1405	0.075	156281	keystroke_Key.space	Key.space	n/a
78.996	0.0745	157992	keystroke_c	c	n/a
79.2205	0.0445	158441	keystroke_r	r	n/a
79.325	0.06	158650	keystroke_e	e	n/a
79.475	0.075	158950	keystroke_e	e	n/a
79.551	0.0745	159102	keystroke_k	k	n/a
79.7	0.0755	159400	keystroke_Key.space	Key.space	n/a
80.3755	0.0745	160751	keystroke_p	p	n/a
80.51	0.09	161020	keystroke_e	e	n/a
80.585	0.0455	161170	keystroke_r	r	n/a
80.72	0.075	161440	keystroke_r	r	n/a
80.855	0.06	161710	keystroke_y	y	n/a
80.9455	0.06	161891	keystroke_Key.space	Key.space	n/a
81.8755	0.0595	163751	keystroke_d	d	n/a
82.1455	0.0445	164291	keystroke_e	e	n/a
82.2955	0.09	164591	keystroke_m	m	n/a
82.4145	0.121	164829	keystroke_o	o	n/a
82.5055	0.105	165011	keystroke_n	n	n/a
82.6705	0.089	165341	keystroke_s	s	n/a
82.7905	0.045	165581	keystroke_t	t	n/a
82.896	0.0745	165792	keystroke_r	r	n/a
82.9845	0.0905	165969	keystroke_a	a	n/a
83.0905	0.0895	166181	keystroke_t	t	n/a
83.135	0.15	166270	keystroke_e	e	n/a
83.255	0.136	166510	keystroke_s	s	n/a
84.6655	0.06	169331	keystroke_Key.enter	Key.enter	n/a
84.733	8.4085	169466	prompt	n/a	lucia travelling ratios pass\n
85.46	0.091	170920	keystroke_l	l	n/a
85.6405	0.09	171281	keystroke_u	u	n/a
85.7155	0.06	171431	keystroke_c	c	n/a
85.8355	0.0895	171671	keystroke_i	i	n/a
85.926	0.074	171852	keystroke_a	a	n/a
86.03	0.0605	172060	keystroke_Key.space	Key.space	n/a
86.5105	0.03	173021	keystroke_t	t	n/a
86.6305	0.06	173261	keystroke_r	r	n/a
86.7055	0.1055	173411	keystroke_a	a	n/a
86.8255	0.105	173651	keystroke_v	v	n/a
86.931	0.0745	173862	keystroke_e	e	n/a
87.0505	0.075	174101	keystroke_l	l	n/a
87.2455	0.105	174491	keystroke_i	i	n/a
87.3355	0.089	174671	keystroke_n	n	n/a
87.7555	0.075	175511	keystroke_Key.backspace	Key.backspace	n/a
87.8905	0.074	175781	keystroke_Key.backspace	Key.backspace	n/a
88.251	0.0895	176502	keystroke_l	l	n/a
88.4605	0.105	176921	keystroke_i	i	n/a
88.5205	0.09	177041	keystroke_n	n	n/a
88.5805	0.045	177161	keystroke_g	g	n/a
88.7005	0.09	177401	keystroke_Key.space	Key.space	n/a
89.645	0.106	179290	keystroke_r	r	n/a
89.735	0.106	179470	keystroke_a	a	n/a
89.855	0.075	179710	keystroke_t	t	n/a
89.96	0.076	179920	keystroke_i	i	n/a
90.126	0.074	180252	keystroke_o	o	n/a
90.23	0.0755	180460	keystroke_s	s	n/a
90.3205	0.075	180641	keystroke_Key.space	Key.space	n/a
91.1005	0.06	182201	keystroke_p	p	n/a
91.1605	0.0595	182321	keystroke_a	a	n/a
91.28	0.061	182560	keystroke_s	s	n/a
91.415	0.09	182830	keystroke_s	s	n/a
93.08	0.0605	186160	keystroke_Key.enter	Key.enter	n/a
93.1445	6.7625	186289	prompt	n/a	customers travel ensuring gilbert\n
93.8	0.09	187600	keystroke_c	c	n/a
94.0245	0.075	188049	keystroke_u	u	n/a
94.13	0.135	188260	keystroke_s	s	n/a
94.2495	0.046	188499	keystroke_t	t	n/a
94.325	0.09	188650	keystroke_o	o	n/a
94.355	0.12	188710	keystroke_m	m	n/a
94.445	0.12	188890	keystroke_e	e	n/a
94.535	0.09	189070	keystroke_r	r	n/a
94.7155	0.1045	189431	keystroke_s	s	n/a
94.835	0.0755	189670	keystroke_Key.space	Key.space	n/a
95.54	0.0755	191080	keystroke_t	t	n/a
95.69	0.0905	191380	keystroke_r	r	n/a
95.7955	0.09	191591	keystroke_a	a	n/a
95.915	0.09	191830	keystroke_v	v	n/a
96.005	0.0605	192010	keystroke_e	e	n/a
96.111	0.044	192222	keystroke_l	l	n/a
96.2005	0.09	192401	keystroke_Key.space	Key.space	n/a
96.695	0.06	193390	keystroke_e	e	n/a
96.861	0.1185	193722	keystroke_n	n	n/a
96.9955	0.074	193991	keystroke_s	s	n/a
97.1455	0.075	194291	keystroke_u	u	n/a
97.236	0.104	194472	keystroke_r	r	n/a
97.4155	0.09	194831	keystroke_i	i	n/a
97.4595	0.09	194919	keystroke_n	n	n/a
97.5645	0.046	195129	keystroke_g	g	n/a
97.6545	0.075	195309	keystroke_Key.space	Key.space	n/a
98.57	0.075	197140	keystroke_g	g	n/a
98.6905	0.09	197381	keystroke_i	i	n/a
98.84	0.09	197680	keystroke_l	l	n/a
98.9605	0.1195	197921	keystroke_b	b	n/a
99.0655	0.09	198131	keystroke_e	e	n/a
99.125	0.06	198250	keystroke_r	r	n/a
99.291	0.059	198582	keystroke_t	t	n/a
99.845	0.06	199690	keystroke_Key.enter	Key.enter	n/a
99.9105	6.611	199821	prompt	n/a	encoding pull champions sync\n
100.625	0.061	201250	keystroke_e	e	n/a
100.7305	0.075	201461	keystroke_n	n	n/a
100.8655	0.09	201731	keystroke_c	c	n/a
100.9855	0.09	201971	keystroke_o	o	n/a
101.1355	0.06	202271	keystroke_d	d	n/a
101.21	0.09	202420	keystroke_i	i	n/a
101.27	0.105	202540	keystroke_n	n	n/a
101.39	0.045	202780	keystroke_g	g	n/a
101.48	0.075	202960	keystroke_Key.space	Key.space	n/a
102.3805	0.06	204761	keystroke_p	p	n/a
102.5455	0.09	205091	keystroke_u	u	n/a
102.7405	0.06	205481	keystroke_l	l	n/a
102.8605	0.09	205721	keystroke_l	l	n/a
102.9955	0.075	205991	keystroke_Key.space	Key.space	n/a
103.67	0.045	207340	keystroke_c	c	n/a
103.73	0.09	207460	keystroke_h	h	n/a
103.835	0.075	207670	keystroke_a	a	n/a
103.955	0.09	207910	keystroke_m	m	n/a
104.06	0.1055	208120	keystroke_p	p	n/a
104.315	0.285	208630	keystroke_i	i	n/a
104.435	0.135	208870	keystroke_o	o	n/a
104.495	0.15	208990	keystroke_n	n	n/a
104.645	0.075	209290	keystroke_s	s	n/a
104.7505	0.0745	209501	keystroke_Key.space	Key.space	n/a
105.5305	0.075	211061	keystroke_s	s	n/a
105.6355	0.075	211271	keystroke_y	y	n/a
105.8315	0.074	211663	keystroke_n	n	n/a
105.9205	0.06	211841	keystroke_c	c	n/a
106.4305	0.09	212861	keystroke_Key.enter	Key.enter	n/a
106.524	6.014	213048	prompt	n/a	impression robot john firefox\n
107.345	0.06	214690	keystroke_i	i	n/a
107.3905	0.0595	214781	keystroke_m	m	n/a
107.495	0.075	214990	keystroke_p	p	n/a
107.5855	0.105	215171	keystroke_r	r	n/a
107.6455	0.09	215291	keystroke_e	e	n/a
107.8255	0.06	215651	keystroke_s	s	n/a
107.9755	0.075	215951	keystroke_s	s	n/a
108.0655	0.285	216131	keystroke_i	i	n/a
108.1855	0.105	216371	keystroke_o	o	n/a
108.2155	0.165	216431	keystroke_n	n	n/a
108.3345	0.076	216669	keystroke_Key.space	Key.space	n/a
109.3405	0.06	218681	keystroke_r	r	n/a
109.3705	0.075	218741	keystroke_o	o	n/a
109.5205	0.09	219041	keystroke_b	b	n/a
109.6405	0.105	219281	keystroke_o	o	n/a
109.7755	0.06	219551	keystroke_t	t	n/a
109.8805	0.075	219761	keystroke_Key.space	Key.space	n/a
110.51	0.1055	221020	keystroke_j	j	n/a
110.675	0.09	221350	keystroke_o	o	n/a
110.765	0.06	221530	keystroke_h	h	n/a
110.915	0.09	221830	keystroke_n	n	n/a
111.035	0.1055	222070	keystroke_Key.space	Key.space	n/a
111.17	0.075	222340	keystroke_f	f	n/a
111.275	0.076	222550	keystroke_i	i	n/a
111.365	0.09	222730	keystroke_r	r	n/a
111.425	0.075	222850	keystroke_e	e	n/a
111.59	0.0755	223180	keystroke_f	f	n/a
111.65	0.075	223300	keystroke_o	o	n/a
111.7855	0.075	223571	keystroke_x	x	n/a
112.385	0.15	224770	keystroke_Key.enter	Key.enter	n/a
112.5435	6.068	225087	prompt	n/a	indirect nikon investment discs\n
113.15	0.105	226300	keystroke_i	i	n/a
113.27	0.075	226540	keystroke_n	n	n/a
113.36	0.0595	226720	keystroke_d	d	n/a
113.4355	0.089	226871	keystroke_i	i	n/a
113.5255	0.075	227051	keystroke_r	r	n/a
113.6145	0.12	227229	keystroke_e	e	n/a
113.721	0.089	227442	keystroke_c	c	n/a
113.9	0.061	227800	keystroke_t	t	n/a
113.975	0.0895	227950	keystroke_Key.space	Key.space	n/a
114.6505	0.09	229301	keystroke_n	n	n/a
114.7705	0.075	229541	keystroke_i	i	n/a
114.9805	0.06	229961	keystroke_k	k	n/a
115.1605	0.06	230321	keystroke_o	o	n/a
115.2355	0.075	230471	keystroke_n	n	n/a
115.295	0.0905	230590	keystroke_Key.space	Key.space	n/a
115.7005	0.1045	231401	keystroke_i	i	n/a
115.79	0.075	231580	keystroke_n	n	n/a
115.85	0.075	231700	keystroke_v	v	n/a
115.9405	0.135	231881	keystroke_e	e	n/a
116.045	0.1355	232090	keystroke_s	s	n/a
116.135	0.0605	232270	keystroke_t	t	n/a
116.3755	0.135	232751	keystroke_m	m	n/a
116.5555	0.06	233111	keystroke_e	e	n/a
116.6305	0.075	233261	keystroke_n	n	n/a
116.7205	0.06	233441	keystroke_t	t	n/a
116.8105	0.075	233621	keystroke_Key.space	Key.space	n/a
117.5305	0.075	235061	keystroke_d	d	n/a
117.6355	0.09	235271	keystroke_i	i	n/a
117.7105	0.135	235421	keystroke_s	s	n/a
117.8155	0.09	235631	keystroke_c	c	n/a
117.9205	0.09	235841	keystroke_s	s	n/a
118.5505	0.06	237101	keystroke_Key.enter	Key.enter	n/a
118.615	9.1165	237230	prompt	n/a	proportion formed cache attended\n
119.3305	0.06	238661	keystroke_p	p	n/a
119.4055	0.075	238811	keystroke_r	r	n/a
119.57	0.0455	239140	keystroke_o	o	n/a
119.7345	0.0605	239469	keystroke_p	p	n/a
119.84	0.075	239680	keystroke_r	r	n/a
120.021	0.0745	240042	keystroke_i	i	n/a
120.11	0.0755	240220	keystroke_t	t	n/a
120.4255	0.045	240851	keystroke_Key.backspace	Key.backspace	n/a
120.5455	0.06	241091	keystroke_Key.backspace	Key.backspace	n/a
120.6805	0.075	241361	keystroke_Key.backspace	Key.backspace	n/a
120.8605	0.06	241721	keystroke_o	o	n/a
120.9805	0.075	241961	keystroke_r	r	n/a
121.1755	0.045	242351	keystroke_t	t	n/a
121.3105	0.195	242621	keystroke_i	i	n/a
121.3705	0.12	242741	keystroke_o	o	n/a
121.4155	0.135	242831	keystroke_n	n	n/a
121.5955	0.075	243191	keystroke_Key.space	Key.space	n/a
122.345	0.075	244690	keystroke_f	f	n/a
122.525	0.0905	245050	keystroke_o	o	n/a
122.6305	0.075	245261	keystroke_r	r	n/a
122.765	0.0905	245530	keystroke_m	m	n/a
122.78	0.06	245560	keystroke_e	e	n/a
123.245	0.076	246490	keystroke_d	d	n/a
123.38	0.075	246760	keystroke_Key.space	Key.space	n/a
123.53	0.105	247060	keystroke_c	c	n/a
123.65	0.075	247300	keystroke_a	a	n/a
123.905	0.075	247810	keystroke_c	c	n/a
124.055	0.075	248110	keystroke_h	h	n/a
124.1755	0.06	248351	keystroke_e	e	n/a
124.3555	0.045	248711	keystroke_d	d	n/a
124.4455	0.09	248891	keystroke_Key.space	Key.space	n/a
125.0455	0.075	250091	keystroke_Key.backspace	Key.backspace	n/a
125.1955	0.105	250391	keystroke_Key.backspace	Key.backspace	n/a
125.3605	0.09	250721	keystroke_Key.space	Key.space	n/a
125.5405	0.075	251081	keystroke_a	a	n/a
125.6455	0.045	251291	keystroke_t	t	n/a
125.7955	0.105	251591	keystroke_t	t	n/a
125.8855	0.105	251771	keystroke_e	e	n/a
126.0205	0.105	252041	keystroke_n	n	n/a
126.1705	0.06	252341	keystroke_d	d	n/a
126.3355	0.06	252671	keystroke_e	e	n/a
126.4705	0.075	252941	keystroke_d	d	n/a
127.6705	0.06	255341	keystroke_Key.enter	Key.enter	n/a
127.7345	9.793	255469	prompt	n/a	maritime prompt nicholas incentives\n
128.39	0.0905	256780	keystroke_m	m	n/a
128.45	0.105	256900	keystroke_a	a	n/a
128.54	0.0605	257080	keystroke_r	r	n/a
128.6605	0.075	257321	keystroke_i	i	n/a
128.7805	0.075	257561	keystroke_t	t	n/a
128.9155	0.135	257831	keystroke_i	i	n/a
128.9905	0.135	257981	keystroke_m	m	n/a
129.1255	0.09	258251	keystroke_e	e	n/a
129.2605	0.075	258521	keystroke_Key.space	Key.space	n/a
129.4855	0.089	258971	keystroke_p	p	n/a
129.6195	0.076	259239	keystroke_r	r	n/a
129.7555	0.135	259511	keystroke_o	o	n/a
129.8605	0.105	259721	keystroke_m	m	n/a
130.0255	0.075	260051	keystroke_p	p	n/a
130.175	0.045	260350	keystroke_t	t	n/a
130.31	0.075	260620	keystroke_Key.space	Key.space	n/a
130.791	0.0595	261582	keystroke_n	n	n/a
130.8955	0.0755	261791	keystroke_i	i	n/a
131.2405	0.045	262481	keystroke_c	c	n/a
131.3305	0.06	262661	keystroke_h	h	n/a
131.4055	0.09	262811	keystroke_o	o	n/a
131.6155	0.075	263231	keystroke_l	l	n/a
131.7505	0.12	263501	keystroke_a	a	n/a
131.8405	0.135	263681	keystroke_s	s	n/a
131.9905	0.06	263981	keystroke_Key.space	Key.space	n/a
134.8425	0.001	269685	keystroke_i	i	n/a
134.8435	0.0715	269687	keystroke_n	n	n/a
134.93	0.091	269860	keystroke_v	v	n/a
135.395	0.0605	270790	keystroke_Key.backspace	Key.backspace	n/a
135.785	0.03	271570	keystroke_c	c	n/a
135.8	0.06	271600	keystroke_e	e	n/a
135.92	0.12	271840	keystroke_n	n	n/a
136.265	0.046	272530	keystroke_t	t	n/a
136.37	0.0755	272740	keystroke_i	i	n/a
136.46	0.0755	272920	keystroke_v	v	n/a
136.52	0.135	273040	keystroke_e	e	n/a
136.64	0.12	273280	keystroke_s	s	n/a
137.465	0.06	274930	keystroke_Key.enter	Key.enter	n/a
137.5305	6.7315	275061	prompt	n/a	suites nicholas keeping intensity\n
138.4105	0.075	276821	keystroke_s	s	n/a
138.5155	0.105	277031	keystroke_u	u	n/a
138.6355	0.12	277271	keystroke_i	i	n/a
138.7405	0.135	277481	keystroke_t	t	n/a
138.7705	0.18	277541	keystroke_e	e	n/a
138.8905	0.135	277781	keystroke_s	s	n/a
139.0255	0.075	278051	keystroke_Key.space	Key.space	n/a
139.5205	0.09	279041	keystroke_n	n	n/a
139.7155	0.075	279431	keystroke_i	i	n/a
139.9105	0.045	279821	keystroke_c	c	n/a
140.0605	0.06	280121	keystroke_h	h	n/a
140.1505	0.09	280301	keystroke_o	o	n/a
140.331	0.0745	280662	keystroke_l	l	n/a
140.4355	0.105	280871	keystroke_a	a	n/a
140.5255	0.135	281051	keystroke_s	s	n/a
140.6455	0.075	281291	keystroke_Key.space	Key.space	n/a
141.2005	0.075	282401	keystroke_k	k	n/a
141.3205	0.06	282641	keystroke_e	e	n/a
141.4705	0.06	282941	keystroke_e	e	n/a
141.5305	0.075	283061	keystroke_p	p	n/a
141.74	0.076	283480	keystroke_i	i	n/a
141.785	0.0755	283570	keystroke_n	n	n/a
141.846	0.075	283692	keystroke_g	g	n/a
141.98	0.0605	283960	keystroke_Key.space	Key.space	n/a
142.7005	0.105	285401	keystroke_i	i	n/a
142.7905	0.09	285581	keystroke_n	n	n/a
142.9405	0.135	285881	keystroke_t	t	n/a
143.0455	0.075	286091	keystroke_e	e	n/a
143.1205	0.09	286241	keystroke_n	n	n/a
143.2405	0.09	286481	keystroke_s	s	n/a
143.3605	0.075	286721	keystroke_i	i	n/a
143.4505	0.0745	286901	keystroke_t	t	n/a
143.5705	0.0595	287141	keystroke_y	y	n/a
144.185	0.0755	288370	keystroke_Key.enter	Key.enter	n/a
144.2665	6.4905	288533	prompt	n/a	fairfield david hole skin\n
144.9355	0.105	289871	keystroke_f	f	n/a
145.0555	0.1195	290111	keystroke_a	a	n/a
145.22	0.09	290440	keystroke_r	r	n/a
145.655	0.06	291310	keystroke_Key.backspace	Key.backspace	n/a
145.8505	0.075	291701	keystroke_i	i	n/a
145.9405	0.06	291881	keystroke_r	r	n/a
146.1055	0.105	292211	keystroke_f	f	n/a
146.316	0.104	292632	keystroke_i	i	n/a
146.4955	0.045	292991	keystroke_e	e	n/a
146.72	0.075	293440	keystroke_l	l	n/a
146.855	0.06	293710	keystroke_d	d	n/a
146.96	0.075	293920	keystroke_Key.space	Key.space	n/a
147.92	0.075	295840	keystroke_d	d	n/a
148.04	0.121	296080	keystroke_a	a	n/a
148.191	0.044	296382	keystroke_v	v	n/a
148.2655	0.09	296531	keystroke_i	i	n/a
148.3705	0.075	296741	keystroke_d	d	n/a
148.4755	0.06	296951	keystroke_Key.space	Key.space	n/a
148.8655	0.075	297731	keystroke_h	h	n/a
148.9855	0.105	297971	keystroke_o	o	n/a
149.1805	0.075	298361	keystroke_l	l	n/a
149.2705	0.06	298541	keystroke_e	e	n/a
149.3905	0.06	298781	keystroke_Key.space	Key.space	n/a
149.5405	0.06	299081	keystroke_s	s	n/a
149.8105	0.075	299621	keystroke_k	k	n/a
149.9905	0.075	299981	keystroke_i	i	n/a
150.08	0.09	300160	keystroke_n	n	n/a
150.6655	0.09	301331	keystroke_Key.enter	Key.enter	n/a
150.7605	11.895	301521	prompt	n/a	breathing voyeurweb diabetes noticed\n
151.566	0.075	303132	keystroke_b	b	n/a
151.655	0.1205	303310	keystroke_r	r	n/a
151.746	0.105	303492	keystroke_e	e	n/a
151.8055	0.1205	303611	keystroke_a	a	n/a
151.9105	0.0755	303821	keystroke_t	t	n/a
152.0305	0.105	304061	keystroke_h	h	n/a
152.1655	0.135	304331	keystroke_i	i	n/a
152.2555	0.1045	304511	keystroke_n	n	n/a
152.3305	0.045	304661	keystroke_g	g	n/a
152.45	0.0755	304900	keystroke_Key.space	Key.space	n/a
152.6605	0.0745	305321	keystroke_v	v	n/a
152.885	0.09	305770	keystroke_o	o	n/a
153.275	0.075	306550	keystroke_y	y	n/a
153.665	0.09	307330	keystroke_e	e	n/a
153.726	0.075	307452	keystroke_r	r	n/a
153.9055	0.0905	307811	keystroke_u	u	n/a
154.37	0.045	308740	keystroke_Key.backspace	Key.backspace	n/a
154.446	0.059	308892	keystroke_Key.backspace	Key.backspace	n/a
154.536	0.075	309072	keystroke_u	u	n/a
154.67	0.076	309340	keystroke_r	r	n/a
155.1055	0.09	310211	keystroke_w	w	n/a
155.181	0.074	310362	keystroke_e	e	n/a
155.271	0.0895	310542	keystroke_b	b	n/a
155.6755	0.06	311351	keystroke_Key.space	Key.space	n/a
156.0055	0.06	312011	keystroke_d	d	n/a
156.0655	0.06	312131	keystroke_i	i	n/a
156.1265	0.104	312253	keystroke_a	a	n/a
156.2755	0.09	312551	keystroke_b	b	n/a
156.5005	0.03	313001	keystroke_t	t	n/a
156.5455	0.105	313091	keystroke_e	e	n/a
157.0555	0.045	314111	keystroke_Key.backspace	Key.backspace	n/a
157.1755	0.09	314351	keystroke_Key.backspace	Key.backspace	n/a
157.2505	0.12	314501	keystroke_e	e	n/a
157.3405	0.105	314681	keystroke_t	t	n/a
157.4305	0.135	314861	keystroke_e	e	n/a
157.5205	0.15	315041	keystroke_s	s	n/a
157.6405	0.075	315281	keystroke_Key.space	Key.space	n/a
158.721	0.0745	317442	keystroke_n	n	n/a
158.826	0.089	317652	keystroke_o	o	n/a
158.931	0.074	317862	keystroke_t	t	n/a
159.05	0.061	318100	keystroke_i	i	n/a
159.126	0.09	318252	keystroke_c	c	n/a
159.185	0.091	318370	keystroke_e	e	n/a
159.246	0.09	318492	keystroke_s	s	n/a
159.966	0.059	319932	keystroke_Key.backspace	Key.backspace	n/a
160.026	0.074	320052	keystroke_d	d	n/a
162.653	0.001	325306	keystroke_Key.enter	Key.enter	n/a
162.6585	11.7085	325317	prompt	n/a	bolivia bless excitement filter\n
164.226	0.0595	328452	keystroke_b	b	n/a
164.3905	0.045	328781	keystroke_o	o	n/a
165.455	0.06	330910	keystroke_Key.backspace	Key.backspace	n/a
165.575	0.091	331150	keystroke_Key.backspace	Key.backspace	n/a
166.4905	0.075	332981	keystroke_b	b	n/a
166.9705	0.075	333941	keystroke_o	o	n/a
167.2105	0.105	334421	keystroke_l	l	n/a
167.4355	0.045	334871	keystroke_i	i	n/a
167.5855	0.075	335171	keystroke_v	v	n/a
167.6905	0.0745	335381	keystroke_i	i	n/a
167.81	0.0755	335620	keystroke_a	a	n/a
167.9305	0.09	335861	keystroke_Key.space	Key.space	n/a
168.966	0.0595	337932	keystroke_b	b	n/a
169.1005	0.105	338201	keystroke_l	l	n/a
169.2505	0.105	338501	keystroke_e	e	n/a
169.3405	0.06	338681	keystroke_s	s	n/a
169.4905	0.075	338981	keystroke_s	s	n/a
169.6555	0.09	339311	keystroke_Key.space	Key.space	n/a
170.3605	0.06	340721	keystroke_e	e	n/a
170.6455	0.09	341291	keystroke_x	x	n/a
170.9005	0.09	341801	keystroke_c	c	n/a
171.1555	0.0595	342311	keystroke_i	i	n/a
171.305	0.1055	342610	keystroke_t	t	n/a
171.3805	0.105	342761	keystroke_e	e	n/a
171.5005	0.105	343001	keystroke_m	m	n/a
171.6205	0.075	343241	keystroke_e	e	n/a
171.7105	0.075	343421	keystroke_n	n	n/a
171.8	0.075	343600	keystroke_t	t	n/a
171.905	0.075	343810	keystroke_Key.space	Key.space	n/a
172.161	0.0745	344322	keystroke_f	f	n/a
172.2805	0.0755	344561	keystroke_i	i	n/a
172.3855	0.09	344771	keystroke_l	l	n/a
172.5055	0.075	345011	keystroke_t	t	n/a
172.5815	0.134	345163	keystroke_e	e	n/a
172.6705	0.09	345341	keystroke_r	r	n/a
174.291	0.074	348582	keystroke_Key.enter	Key.enter	n/a
174.37	6.328	348740	prompt	n/a	fill lowest separate printing\n
175.101	0.059	350202	keystroke_f	f	n/a
175.206	0.09	350412	keystroke_i	i	n/a
175.4005	0.0445	350801	keystroke_l	l	n/a
175.505	0.09	351010	keystroke_l	l	n/a
175.625	0.105	351250	keystroke_Key.space	Key.space	n/a
175.745	0.076	351490	keystroke_l	l	n/a
175.956	0.075	351912	keystroke_o	o	n/a
176.061	0.12	352122	keystroke_w	w	n/a
176.151	0.09	352302	keystroke_e	e	n/a
176.361	0.12	352722	keystroke_s	s	n/a
176.451	0.06	352902	keystroke_t	t	n/a
176.541	0.0745	353082	keystroke_Key.space	Key.space	n/a
177.0655	0.06	354131	keystroke_s	s	n/a
177.666	0.015	355332	keystroke_e	e	n/a
177.696	0.015	355392	keystroke_p	p	n/a
177.726	0.045	355452	keystroke_a	a	n/a
177.786	0.045	355572	keystroke_r	r	n/a
177.8905	0.0755	355781	keystroke_a	a	n/a
178.086	0.15	356172	keystroke_t	t	n/a
178.191	0.0895	356382	keystroke_e	e	n/a
178.3255	0.045	356651	keystroke_Key.space	Key.space	n/a
179.076	0.06	358152	keystroke_p	p	n/a
179.15	0.061	358300	keystroke_r	r	n/a
179.271	0.105	358542	keystroke_i	i	n/a
179.331	0.09	358662	keystroke_n	n	n/a
179.451	0.06	358902	keystroke_t	t	n/a
179.721	0.06	359442	keystroke_i	i	n/a
179.736	0.105	359472	keystroke_n	n	n/a
179.856	0.03	359712	keystroke_g	g	n/a
180.621	0.074	361242	keystroke_Key.enter	Key.enter	n/a
180.7005	13.0765	361401	prompt	n/a	ocean credit fossil robust\n
184.913	0.013	369826	keystroke_o	o	n/a
184.941	0.135	369882	keystroke_c	c	n/a
185.061	0.119	370122	keystroke_e	e	n/a
185.151	0.09	370302	keystroke_a	a	n/a
185.226	0.105	370452	keystroke_n	n	n/a
185.316	0.06	370632	keystroke_Key.space	Key.space	n/a
186.891	0.06	373782	keystroke_c	c	n/a
187.071	0.09	374142	keystroke_r	r	n/a
187.146	0.075	374292	keystroke_e	e	n/a
187.326	0.06	374652	keystroke_d	d	n/a
187.401	0.075	374802	keystroke_i	i	n/a
187.536	0.03	375072	keystroke_t	t	n/a
187.581	0.075	375162	keystroke_Key.space	Key.space	n/a
188.1655	0.06	376331	keystroke_f	f	n/a
188.2555	0.075	376511	keystroke_o	o	n/a
188.691	0.0445	377382	keystroke_s	s	n/a
188.8105	0.0905	377621	keystroke_s	s	n/a
188.916	0.075	377832	keystroke_i	i	n/a
189.111	0.0895	378222	keystroke_l	l	n/a
189.291	0.0595	378582	keystroke_Key.space	Key.space	n/a
190.1905	0.06	380381	keystroke_r	r	n/a
191.0155	0.105	382031	keystroke_o	o	n/a
191.2555	0.1045	382511	keystroke_b	b	n/a
191.2705	0.075	382541	keystroke_v	v	n/a
191.375	0.091	382750	keystroke_u	u	n/a
191.496	0.089	382992	keystroke_s	s	n/a
191.7955	0.045	383591	keystroke_Key.backspace	Key.backspace	n/a
191.9155	0.075	383831	keystroke_Key.backspace	Key.backspace	n/a
192.0655	0.09	384131	keystroke_Key.backspace	Key.backspace	n/a
192.321	0.059	384642	keystroke_u	u	n/a
192.396	0.104	384792	keystroke_s	s	n/a
192.47	0.045	384940	keystroke_t	t	n/a
193.671	0.1045	387342	keystroke_Key.enter	Key.enter	n/a
193.7805	8.247	387561	prompt	n/a	traveler college i'll textile\n
194.3755	0.06	388751	keystroke_t	t	n/a
194.5105	0.105	389021	keystroke_r	r	n/a
194.6005	0.105	389201	keystroke_a	a	n/a
194.7205	0.105	389441	keystroke_v	v	n/a
194.8105	0.06	389621	keystroke_e	e	n/a
194.901	0.09	389802	keystroke_l	l	n/a
195.021	0.12	390042	keystroke_e	e	n/a
195.111	0.09	390222	keystroke_r	r	n/a
195.231	0.06	390462	keystroke_Key.space	Key.space	n/a
195.936	0.09	391872	keystroke_c	c	n/a
196.206	0.0595	392412	keystroke_o	o	n/a
196.3705	0.06	392741	keystroke_l	l	n/a
196.4755	0.09	392951	keystroke_l	l	n/a
196.551	0.0895	393102	keystroke_e	e	n/a
196.6555	0.105	393311	keystroke_g	g	n/a
196.746	0.0895	393492	keystroke_e	e	n/a
196.8505	0.0605	393701	keystroke_Key.space	Key.space	n/a
198.036	0.059	396072	keystroke_i	i	n/a
198.5755	0.0605	397151	keystroke_'	'	n/a
199.0855	0.045	398171	keystroke_l	l	n/a
199.1755	0.09	398351	keystroke_l	l	n/a
199.3555	0.06	398711	keystroke_Key.space	Key.space	n/a
200.735	0.106	401470	keystroke_t	t	n/a
200.825	0.09	401650	keystroke_e	e	n/a
201.006	0.104	402012	keystroke_x	x	n/a
201.125	0.076	402250	keystroke_t	t	n/a
201.351	0.09	402702	keystroke_i	i	n/a
201.501	0.105	403002	keystroke_l	l	n/a
201.591	0.075	403182	keystroke_e	e	n/a
201.966	0.0595	403932	keystroke_Key.enter	Key.enter	n/a
202.0305	7.3615	404061	prompt	n/a	packages monitors western types\n
202.896	0.09	405792	keystroke_p	p	n/a
203.046	0.1045	406092	keystroke_a	a	n/a
203.1055	0.09	406211	keystroke_c	c	n/a
203.2255	0.045	406451	keystroke_k	k	n/a
203.3305	0.075	406661	keystroke_a	a	n/a
203.4355	0.09	406871	keystroke_g	g	n/a
203.5105	0.1195	407021	keystroke_e	e	n/a
203.5855	0.1205	407171	keystroke_s	s	n/a
203.706	0.059	407412	keystroke_Key.space	Key.space	n/a
204.456	0.09	408912	keystroke_m	m	n/a
204.59	0.075	409180	keystroke_o	o	n/a
204.741	0.0905	409482	keystroke_n	n	n/a
204.8	0.106	409600	keystroke_i	i	n/a
204.935	0.06	409870	keystroke_t	t	n/a
205.026	0.059	410052	keystroke_o	o	n/a
205.101	0.074	410202	keystroke_r	r	n/a
205.52	0.075	411040	keystroke_s	s	n/a
205.656	0.06	411312	keystroke_Key.space	Key.space	n/a
206.2255	0.105	412451	keystroke_w	w	n/a
206.3155	0.106	412631	keystroke_e	e	n/a
206.4655	0.165	412931	keystroke_s	s	n/a
206.6005	0.09	413201	keystroke_t	t	n/a
206.6755	0.135	413351	keystroke_e	e	n/a
206.7655	0.121	413531	keystroke_r	r	n/a
206.856	0.0895	413712	keystroke_n	n	n/a
207.0355	0.075	414071	keystroke_Key.space	Key.space	n/a
207.845	0.061	415690	keystroke_t	t	n/a
207.935	0.061	415870	keystroke_y	y	n/a
208.086	0.074	416172	keystroke_p	p	n/a
208.175	0.135	416350	keystroke_e	e	n/a
208.281	0.119	416562	keystroke_s	s	n/a
209.316	0.074	418632	keystroke_Key.enter	Key.enter	n/a
209.395	8.9975	418790	prompt	n/a	he'd mauritius none suggested\n
210.696	0.089	421392	keystroke_h	h	n/a
210.86	0.075	421720	keystroke_e	e	n/a
211.101	0.075	422202	keystroke_'	'	n/a
211.205	0.06	422410	keystroke_d	d	n/a
211.311	0.074	422622	keystroke_Key.space	Key.space	n/a
212.3305	0.075	424661	keystroke_m	m	n/a
212.497	0.134	424994	keystroke_a	a	n/a
212.736	0.0745	425472	keystroke_u	u	n/a
212.8255	0.0605	425651	keystroke_r	r	n/a
213.755	0.06	427510	keystroke_i	i	n/a
213.876	0.0595	427752	keystroke_t	t	n/a
214.1905	0.09	428381	keystroke_u	u	n/a
214.656	0.06	429312	keystroke_Key.backspace	Key.backspace	n/a
214.88	0.0605	429760	keystroke_i	i	n/a
215.0305	0.075	430061	keystroke_u	u	n/a
215.1205	0.075	430241	keystroke_s	s	n/a
215.2255	0.0755	430451	keystroke_Key.space	Key.space	n/a
216.0955	0.0755	432191	keystroke_n	n	n/a
216.201	0.12	432402	keystroke_o	o	n/a
216.306	0.075	432612	keystroke_n	n	n/a
216.366	0.0895	432732	keystroke_e	e	n/a
216.501	0.0745	433002	keystroke_Key.space	Key.space	n/a
216.6055	0.075	433211	keystroke_s	s	n/a
216.7405	0.0895	433481	keystroke_u	u	n/a
216.845	0.06	433690	keystroke_g	g	n/a
216.995	0.105	433990	keystroke_g	g	n/a
217.085	0.195	434170	keystroke_e	e	n/a
217.16	0.1065	434320	keystroke_s	s	n/a
217.235	0.136	434470	keystroke_t	t	n/a
217.356	0.089	434712	keystroke_e	e	n/a
217.506	0.074	435012	keystroke_d	d	n/a
218.315	0.075	436630	keystroke_Key.enter	Key.enter	n/a
218.395	10.6475	436790	prompt	n/a	scout cambodia cultures surrounded\n
221.122	0.044	442244	keystroke_s	s	n/a
221.123	0.103	442246	keystroke_c	c	n/a
221.3155	0.1195	442631	keystroke_o	o	n/a
221.4055	0.0745	442811	keystroke_u	u	n/a
221.495	0.06	442990	keystroke_t	t	n/a
221.615	0.075	443230	keystroke_Key.space	Key.space	n/a
222.2305	0.105	444461	keystroke_c	c	n/a
222.3205	0.075	444641	keystroke_a	a	n/a
222.4105	0.075	444821	keystroke_m	m	n/a
222.6205	0.045	445241	keystroke_b	b	n/a
222.7705	0.075	445541	keystroke_o	o	n/a
222.9805	0.06	445961	keystroke_i	i	n/a
223.1755	0.105	446351	keystroke_d	d	n/a
223.2955	0.075	446591	keystroke_a	a	n/a
223.61	0.045	447220	keystroke_Key.backspace	Key.backspace	n/a
223.7305	0.105	447461	keystroke_Key.backspace	Key.backspace	n/a
223.91	0.0605	447820	keystroke_Key.backspace	Key.backspace	n/a
223.971	0.089	447942	keystroke_d	d	n/a
224.091	0.074	448182	keystroke_i	i	n/a
224.195	0.0605	448390	keystroke_a	a	n/a
224.286	0.074	448572	keystroke_Key.space	Key.space	n/a
225.5455	0.09	451091	keystroke_c	c	n/a
225.6805	0.075	451361	keystroke_u	u	n/a
225.816	0.0895	451632	keystroke_l	l	n/a
225.9205	0.075	451841	keystroke_t	t	n/a
226.0105	0.09	452021	keystroke_u	u	n/a
226.0855	0.1205	452171	keystroke_r	r	n/a
226.161	0.149	452322	keystroke_e	e	n/a
226.2655	0.135	452531	keystroke_s	s	n/a
226.3555	0.075	452711	keystroke_Key.space	Key.space	n/a
227.24	0.045	454480	keystroke_s	s	n/a
227.3455	0.0445	454691	keystroke_u	u	n/a
227.406	0.059	454812	keystroke_r	r	n/a
227.541	0.059	455082	keystroke_r	r	n/a
227.646	0.105	455292	keystroke_o	o	n/a
227.751	0.075	455502	keystroke_u	u	n/a
227.931	0.075	455862	keystroke_n	n	n/a
227.991	0.075	455982	keystroke_d	d	n/a
228.171	0.0295	456342	keystroke_e	e	n/a
228.306	0.044	456612	keystroke_d	d	n/a
228.9655	0.075	457931	keystroke_Key.enter	Key.enter	n/a
229.0455	6.822	458091	prompt	n/a	relationship ahead picture hoping\n
229.7	0.105	459400	keystroke_r	r	n/a
229.806	0.06	459612	keystroke_a	a	n/a
229.895	0.12	459790	keystroke_e	e	n/a
230.24	0.03	460480	keystroke_Key.backspace	Key.backspace	n/a
230.3455	0.105	460691	keystroke_Key.backspace	Key.backspace	n/a
230.4055	0.09	460811	keystroke_e	e	n/a
230.5705	0.075	461141	keystroke_l	l	n/a
230.6605	0.075	461321	keystroke_a	a	n/a
230.7505	0.076	461501	keystroke_t	t	n/a
230.8555	0.285	461711	keystroke_i	i	n/a
230.9455	0.1655	461891	keystroke_o	o	n/a
231.0055	0.15	462011	keystroke_n	n	n/a
231.2155	0.0905	462431	keystroke_s	s	n/a
231.291	0.105	462582	keystroke_h	h	n/a
231.366	0.105	462732	keystroke_i	i	n/a
231.576	0.059	463152	keystroke_p	p	n/a
231.7255	0.06	463451	keystroke_Key.space	Key.space	n/a
232.4	0.075	464800	keystroke_a	a	n/a
232.55	0.075	465100	keystroke_h	h	n/a
232.61	0.061	465220	keystroke_e	e	n/a
232.7155	0.0895	465431	keystroke_a	a	n/a
232.775	0.12	465550	keystroke_d	d	n/a
232.881	0.074	465762	keystroke_Key.space	Key.space	n/a
233.135	0.0755	466270	keystroke_p	p	n/a
233.331	0.059	466662	keystroke_i	i	n/a
233.375	0.075	466750	keystroke_c	c	n/a
233.57	0.0455	467140	keystroke_t	t	n/a
233.631	0.0745	467262	keystroke_u	u	n/a
233.721	0.09	467442	keystroke_r	r	n/a
233.781	0.089	467562	keystroke_e	e	n/a
233.886	0.044	467772	keystroke_Key.space	Key.space	n/a
234.5615	0.074	469123	keystroke_h	h	n/a
234.6955	0.075	469391	keystroke_o	o	n/a
234.8605	0.06	469721	keystroke_p	p	n/a
235.0555	0.075	470111	keystroke_i	i	n/a
235.0855	0.075	470171	keystroke_n	n	n/a
235.1755	0.045	470351	keystroke_g	g	n/a
235.79	0.075	471580	keystroke_Key.enter	Key.enter	n/a
235.873	5.199	471746	prompt	n/a	const functions devon chip\n
236.5555	0.075	473111	keystroke_c	c	n/a
236.6455	0.105	473291	keystroke_o	o	n/a
236.7355	0.075	473471	keystroke_n	n	n/a
236.8255	0.105	473651	keystroke_s	s	n/a
236.9155	0.06	473831	keystroke_t	t	n/a
237.0205	0.0755	474041	keystroke_Key.space	Key.space	n/a
237.2455	0.06	474491	keystroke_f	f	n/a
237.336	0.0595	474672	keystroke_u	u	n/a
237.4855	0.09	474971	keystroke_n	n	n/a
237.5905	0.09	475181	keystroke_c	c	n/a
238.1155	0.0455	476231	keystroke_t	t	n/a
238.206	0.195	476412	keystroke_i	i	n/a
238.296	0.12	476592	keystroke_o	o	n/a
238.311	0.12	476622	keystroke_n	n	n/a
238.461	0.075	476922	keystroke_s	s	n/a
238.611	0.06	477222	keystroke_Key.space	Key.space	n/a
239.346	0.075	478692	keystroke_d	d	n/a
239.526	0.06	479052	keystroke_e	e	n/a
239.631	0.09	479262	keystroke_v	v	n/a
239.736	0.105	479472	keystroke_o	o	n/a
239.811	0.1045	479622	keystroke_n	n	n/a
239.9005	0.06	479801	keystroke_Key.space	Key.space	n/a
240.1255	0.0605	480251	keystroke_c	c	n/a
240.2305	0.1355	480461	keystroke_h	h	n/a
240.3505	0.045	480701	keystroke_i	i	n/a
240.5155	0.06	481031	keystroke_p	p	n/a
241.0255	0.045	482051	keystroke_Key.enter	Key.enter	n/a
241.076	7.497	482152	prompt	n/a	phones manufacture collectables streams\n
241.836	0.075	483672	keystroke_p	p	n/a
242.031	0.06	484062	keystroke_h	h	n/a
242.121	0.1495	484242	keystroke_o	o	n/a
242.24	0.06	484480	keystroke_n	n	n/a
242.255	0.15	484510	keystroke_e	e	n/a
242.345	0.1205	484690	keystroke_s	s	n/a
242.451	0.074	484902	keystroke_Key.space	Key.space	n/a
242.915	0.105	485830	keystroke_m	m	n/a
243.036	0.089	486072	keystroke_a	a	n/a
243.14	0.09	486280	keystroke_n	n	n/a
243.245	0.0905	486490	keystroke_u	u	n/a
243.4105	0.075	486821	keystroke_f	f	n/a
243.5605	0.12	487121	keystroke_a	a	n/a
243.6955	0.075	487391	keystroke_c	c	n/a
243.8605	0.06	487721	keystroke_t	t	n/a
243.9505	0.0745	487901	keystroke_u	u	n/a
244.04	0.09	488080	keystroke_r	r	n/a
244.101	0.0905	488202	keystroke_e	e	n/a
244.5505	0.06	489101	keystroke_Key.space	Key.space	n/a
245.0605	0.0895	490121	keystroke_c	c	n/a
245.181	0.0745	490362	keystroke_o	o	n/a
245.3605	0.046	490721	keystroke_l	l	n/a
245.4655	0.0905	490931	keystroke_l	l	n/a
245.586	0.12	491172	keystroke_e	e	n/a
245.631	0.09	491262	keystroke_c	c	n/a
245.841	0.06	491682	keystroke_t	t	n/a
245.991	0.075	491982	keystroke_a	a	n/a
246.111	0.075	492222	keystroke_b	b	n/a
246.246	0.105	492492	keystroke_l	l	n/a
246.381	0.06	492762	keystroke_e	e	n/a
246.546	0.0745	493092	keystroke_s	s	n/a
246.6505	0.0755	493301	keystroke_Key.space	Key.space	n/a
247.4	0.0755	494800	keystroke_s	s	n/a
247.5055	0.06	495011	keystroke_t	t	n/a
247.6255	0.1205	495251	keystroke_r	r	n/a
247.7155	0.105	495431	keystroke_e	e	n/a
247.805	0.105	495610	keystroke_a	a	n/a
247.9405	0.0895	495881	keystroke_m	m	n/a
248.046	0.075	496092	keystroke_s	s	n/a
248.511	0.06	497022	keystroke_Key.enter	Key.enter	n/a
248.5765	6.9405	497153	prompt	n/a	printer downloaded austria genes\n
249.3055	0.09	498611	keystroke_p	p	n/a
249.4265	0.074	498853	keystroke_r	r	n/a
249.5455	0.09	499091	keystroke_i	i	n/a
249.6055	0.075	499211	keystroke_n	n	n/a
249.6655	0.075	499331	keystroke_t	t	n/a
249.7555	0.105	499511	keystroke_e	e	n/a
249.8155	0.12	499631	keystroke_r	r	n/a
249.9205	0.045	499841	keystroke_Key.space	Key.space	n/a
250.3705	0.075	500741	keystroke_d	d	n/a
250.4905	0.075	500981	keystroke_o	o	n/a
250.5805	0.0905	501161	keystroke_w	w	n/a
250.6555	0.0905	501311	keystroke_n	n	n/a
250.851	0.06	501702	keystroke_l	l	n/a
251.016	0.059	502032	keystroke_o	o	n/a
251.0605	0.0895	502121	keystroke_a	a	n/a
251.151	0.045	502302	keystroke_d	d	n/a
251.33	0.045	502660	keystroke_e	e	n/a
251.481	0.06	502962	keystroke_d	d	n/a
251.57	0.06	503140	keystroke_Key.space	Key.space	n/a
252.2605	0.075	504521	keystroke_a	a	n/a
252.396	0.0745	504792	keystroke_u	u	n/a
252.486	0.075	504972	keystroke_s	s	n/a
252.5755	0.0755	505151	keystroke_t	t	n/a
252.7255	0.0895	505451	keystroke_r	r	n/a
252.801	0.075	505602	keystroke_i	i	n/a
252.935	0.076	505870	keystroke_a	a	n/a
253.04	0.06	506080	keystroke_Key.space	Key.space	n/a
254.016	0.0745	508032	keystroke_g	g	n/a
254.1055	0.075	508211	keystroke_e	e	n/a
254.1965	0.0895	508393	keystroke_n	n	n/a
254.271	0.15	508542	keystroke_e	e	n/a
254.376	0.135	508752	keystroke_s	s	n/a
255.4405	0.075	510881	keystroke_Key.enter	Key.enter	n/a
255.5195	12.463	511039	prompt	n/a	sailing java filed philips\n
256.205	0.0605	512410	keystroke_s	s	n/a
256.3555	0.075	512711	keystroke_a	a	n/a
256.4605	0.0755	512921	keystroke_i	i	n/a
256.581	0.0745	513162	keystroke_l	l	n/a
256.761	0.0745	513522	keystroke_i	i	n/a
256.8055	0.105	513611	keystroke_n	n	n/a
256.8955	0.06	513791	keystroke_g	g	n/a
257.0005	0.09	514001	keystroke_Key.space	Key.space	n/a
257.3755	0.06	514751	keystroke_j	j	n/a
257.4355	0.09	514871	keystroke_a	a	n/a
257.5405	0.105	515081	keystroke_v	v	n/a
257.631	0.0895	515262	keystroke_a	a	n/a
257.7505	0.09	515501	keystroke_Key.space	Key.space	n/a
258.7405	0.075	517481	keystroke_f	f	n/a
258.831	0.0745	517662	keystroke_i	i	n/a
258.996	0.075	517992	keystroke_l	l	n/a
259.071	0.06	518142	keystroke_e	e	n/a
259.221	0.075	518442	keystroke_d	d	n/a
259.31	0.061	518620	keystroke_Key.space	Key.space	n/a
259.475	0.076	518950	keystroke_p	p	n/a
259.671	0.09	519342	keystroke_h	h	n/a
259.731	0.119	519462	keystroke_i	i	n/a
259.97	0.075	519940	keystroke_l	l	n/a
260.21	0.045	520420	keystroke_i	i	n/a
260.376	0.044	520752	keystroke_p	p	n/a
260.45	0.075	520900	keystroke_s	s	n/a
260.556	0.045	521112	keystroke_Key.space	Key.space	n/a
261.035	0.075	522070	keystroke_Key.backspace	Key.backspace	n/a
267.968	0.013	535936	keystroke_Key.enter	Key.enter	n/a
267.986	4.556	535972	prompt	n/a	metal mega fits munich\n
268.776	0.105	537552	keystroke_m	m	n/a
268.836	0.12	537672	keystroke_e	e	n/a
268.941	0.09	537882	keystroke_t	t	n/a
269.016	0.075	538032	keystroke_a	a	n/a
269.106	0.075	538212	keystroke_l	l	n/a
269.211	0.075	538422	keystroke_Key.space	Key.space	n/a
269.346	0.09	538692	keystroke_m	m	n/a
269.421	0.075	538842	keystroke_e	e	n/a
269.511	0.09	539022	keystroke_g	g	n/a
269.586	0.09	539172	keystroke_a	a	n/a
269.691	0.075	539382	keystroke_Key.space	Key.space	n/a
269.841	0.075	539682	keystroke_f	f	n/a
269.946	0.075	539892	keystroke_i	i	n/a
270.051	0.045	540102	keystroke_t	t	n/a
270.111	0.09	540222	keystroke_s	s	n/a
270.246	0.074	540492	keystroke_Key.space	Key.space	n/a
270.546	0.09	541092	keystroke_m	m	n/a
270.77	0.046	541540	keystroke_u	u	n/a
270.981	0.075	541962	keystroke_n	n	n/a
271.071	0.075	542142	keystroke_i	i	n/a
271.147	0.074	542294	keystroke_c	c	n/a
271.311	0.045	542622	keystroke_h	h	n/a
272.496	0.045	544992	keystroke_Key.enter	Key.enter	n/a
272.545	6.8825	545090	prompt	n/a	dept tries response adjustments\n
273.246	0.0745	546492	keystroke_d	d	n/a
273.411	0.0745	546822	keystroke_e	e	n/a
273.621	0.0745	547242	keystroke_p	p	n/a
273.7705	0.061	547541	keystroke_t	t	n/a
273.861	0.0745	547722	keystroke_Key.space	Key.space	n/a
274.19	0.045	548380	keystroke_t	t	n/a
274.326	0.105	548652	keystroke_r	r	n/a
274.4455	0.075	548891	keystroke_i	i	n/a
274.5055	0.0905	549011	keystroke_e	e	n/a
274.7155	0.075	549431	keystroke_s	s	n/a
274.8205	0.0605	549641	keystroke_Key.space	Key.space	n/a
274.971	0.0895	549942	keystroke_r	r	n/a
275.0305	0.106	550061	keystroke_e	e	n/a
275.196	0.0895	550392	keystroke_p	p	n/a
275.796	0.06	551592	keystroke_Key.backspace	Key.backspace	n/a
275.961	0.0595	551922	keystroke_s	s	n/a
276.0355	0.0755	552071	keystroke_p	p	n/a
276.2155	0.0895	552431	keystroke_o	o	n/a
276.276	0.075	552552	keystroke_n	n	n/a
276.336	0.105	552672	keystroke_s	s	n/a
276.411	0.075	552822	keystroke_e	e	n/a
276.5305	0.06	553061	keystroke_Key.space	Key.space	n/a
277.2655	0.1205	554531	keystroke_a	a	n/a
277.3705	0.075	554741	keystroke_d	d	n/a
277.4305	0.1055	554861	keystroke_j	j	n/a
277.5955	0.075	555191	keystroke_u	u	n/a
277.686	0.0595	555372	keystroke_s	s	n/a
277.7755	0.12	555551	keystroke_t	t	n/a
278.2105	0.0905	556421	keystroke_m	m	n/a
278.345	0.0615	556690	keystroke_e	e	n/a
278.42	0.061	556840	keystroke_n	n	n/a
278.496	0.06	556992	keystroke_t	t	n/a
278.586	0.1055	557172	keystroke_s	s	n/a
279.336	0.0895	558672	keystroke_Key.enter	Key.enter	n/a
279.4315	4.991	558863	prompt	n/a	orlando wagner caps killed\n
280.0555	0.06	560111	keystroke_o	o	n/a
280.1765	0.074	560353	keystroke_r	r	n/a
280.296	0.075	560592	keystroke_l	l	n/a
280.401	0.075	560802	keystroke_a	a	n/a
280.491	0.06	560982	keystroke_n	n	n/a
280.566	0.06	561132	keystroke_d	d	n/a
280.701	0.06	561402	keystroke_o	o	n/a
280.821	0.075	561642	keystroke_Key.space	Key.space	n/a
281.5405	0.06	563081	keystroke_w	w	n/a
281.676	0.0745	563352	keystroke_a	a	n/a
281.8105	0.06	563621	keystroke_g	g	n/a
281.9455	0.075	563891	keystroke_n	n	n/a
282.081	0.12	564162	keystroke_e	e	n/a
282.1705	0.06	564341	keystroke_r	r	n/a
282.261	0.075	564522	keystroke_Key.space	Key.space	n/a
282.786	0.105	565572	keystroke_c	c	n/a
282.876	0.075	565752	keystroke_a	a	n/a
282.966	0.06	565932	keystroke_p	p	n/a
283.071	0.09	566142	keystroke_s	s	n/a
283.206	0.06	566412	keystroke_Key.space	Key.space	n/a
283.341	0.075	566682	keystroke_k	k	n/a
283.536	0.06	567072	keystroke_i	i	n/a
283.686	0.06	567372	keystroke_l	l	n/a
283.791	0.09	567582	keystroke_l	l	n/a
283.851	0.045	567702	keystroke_e	e	n/a
284.0165	0.0445	568033	keystroke_d	d	n/a
284.316	0.105	568632	keystroke_Key.enter	Key.enter	n/a
284.426	9.9715	568852	prompt	n/a	decreased extract suspension louisiana\n
285.036	0.09	570072	keystroke_d	d	n/a
285.216	0.075	570432	keystroke_e	e	n/a
285.471	0.06	570942	keystroke_c	c	n/a
285.651	0.09	571302	keystroke_r	r	n/a
285.726	0.09	571452	keystroke_e	e	n/a
285.786	0.12	571572	keystroke_a	a	n/a
285.891	0.075	571782	keystroke_s	s	n/a
285.936	0.09	571872	keystroke_e	e	n/a
286.1165	0.074	572233	keystroke_d	d	n/a
286.2055	0.075	572411	keystroke_Key.space	Key.space	n/a
286.881	0.09	573762	keystroke_e	e	n/a
287.0755	0.1055	574151	keystroke_x	x	n/a
287.166	0.0445	574332	keystroke_t	t	n/a
287.301	0.0745	574602	keystroke_r	r	n/a
287.4055	0.1055	574811	keystroke_a	a	n/a
287.4655	0.105	574931	keystroke_c	c	n/a
287.676	0.06	575352	keystroke_t	t	n/a
287.766	0.075	575532	keystroke_Key.space	Key.space	n/a
288.3355	0.076	576671	keystroke_s	s	n/a
288.4415	0.1045	576883	keystroke_u	u	n/a
288.576	0.0605	577152	keystroke_s	s	n/a
288.7855	0.0755	577571	keystroke_p	p	n/a
288.9805	0.091	577961	keystroke_e	e	n/a
288.9955	0.1055	577991	keystroke_n	n	n/a
289.4605	0.06	578921	keystroke_s	s	n/a
289.5965	0.1945	579193	keystroke_i	i	n/a
289.6555	0.12	579311	keystroke_o	o	n/a
289.6705	0.15	579341	keystroke_n	n	n/a
289.8355	0.076	579671	keystroke_Key.space	Key.space	n/a
290.6605	0.0755	581321	keystroke_l	l	n/a
290.9155	0.12	581831	keystroke_o	o	n/a
291.1405	0.166	582281	keystroke_u	u	n/a
291.2605	0.1205	582521	keystroke_i	i	n/a
291.456	0.0745	582912	keystroke_s	s	n/a
291.801	0.075	583602	keystroke_a	a	n/a
292.191	0.059	584382	keystroke_Key.backspace	Key.backspace	n/a
292.4005	0.0605	584801	keystroke_i	i	n/a
292.4905	0.061	584981	keystroke_a	a	n/a
292.5805	0.075	585161	keystroke_n	n	n/a
293.211	0.061	586422	keystroke_a	a	n/a
294.321	0.075	588642	keystroke_Key.enter	Key.enter	n/a
294.4005	7.3915	588801	prompt	n/a	tampa contractor unlimited claire\n
295.1605	0.076	590321	keystroke_t	t	n/a
295.2805	0.075	590561	keystroke_a	a	n/a
295.371	0.0745	590742	keystroke_m	m	n/a
295.4605	0.0905	590921	keystroke_p	p	n/a
295.566	0.0745	591132	keystroke_a	a	n/a
295.731	0.06	591462	keystroke_Key.space	Key.space	n/a
296.091	0.0895	592182	keystroke_c	c	n/a
296.1665	0.074	592333	keystroke_o	o	n/a
296.2105	0.09	592421	keystroke_n	n	n/a
296.3455	0.015	592691	keystroke_t	t	n/a
296.436	0.0745	592872	keystroke_r	r	n/a
296.5255	0.1355	593051	keystroke_a	a	n/a
296.631	0.09	593262	keystroke_c	c	n/a
296.826	0.045	593652	keystroke_t	t	n/a
296.901	0.075	593802	keystroke_o	o	n/a
296.976	0.06	593952	keystroke_r	r	n/a
297.096	0.06	594192	keystroke_Key.space	Key.space	n/a
297.9955	0.075	595991	keystroke_u	u	n/a
298.1755	0.09	596351	keystroke_n	n	n/a
298.28	0.1365	596560	keystroke_l	l	n/a
298.476	0.12	596952	keystroke_i	i	n/a
298.581	0.1195	597162	keystroke_m	m	n/a
298.7305	0.075	597461	keystroke_i	i	n/a
298.851	0.105	597702	keystroke_t	t	n/a
298.9255	0.09	597851	keystroke_e	e	n/a
299.0755	0.105	598151	keystroke_d	d	n/a
299.1955	0.06	598391	keystroke_Key.space	Key.space	n/a
299.871	0.075	599742	keystroke_c	c	n/a
300.021	0.0895	600042	keystroke_l	l	n/a
300.1405	0.075	600281	keystroke_a	a	n/a
300.246	0.09	600492	keystroke_i	i	n/a
300.351	0.045	600702	keystroke_r	r	n/a
300.771	0.06	601542	keystroke_e	e	n/a
301.716	0.075	603432	keystroke_Key.enter	Key.enter	n/a
301.795	7.9025	603590	prompt	n/a	cord brokers transcription cigarettes\n
302.541	0.0755	605082	keystroke_c	c	n/a
302.7055	0.09	605411	keystroke_o	o	n/a
302.7805	0.15	605561	keystroke_r	r	n/a
302.9155	0.076	605831	keystroke_d	d	n/a
303.006	0.0745	606012	keystroke_Key.space	Key.space	n/a
303.2155	0.075	606431	keystroke_b	b	n/a
303.3355	0.031	606671	keystroke_r	r	n/a
303.3955	0.105	606791	keystroke_o	o	n/a
303.4715	0.104	606943	keystroke_k	k	n/a
303.5155	0.18	607031	keystroke_e	e	n/a
303.6205	0.135	607241	keystroke_r	r	n/a
303.771	0.12	607542	keystroke_s	s	n/a
303.876	0.06	607752	keystroke_Key.space	Key.space	n/a
304.701	0.045	609402	keystroke_t	t	n/a
304.821	0.105	609642	keystroke_r	r	n/a
304.91	0.1215	609820	keystroke_a	a	n/a
304.986	0.105	609972	keystroke_n	n	n/a
305.1215	0.0735	610243	keystroke_s	s	n/a
305.226	0.06	610452	keystroke_c	c	n/a
305.4215	0.044	610843	keystroke_r	r	n/a
305.6305	0.135	611261	keystroke_i	i	n/a
305.9755	0.06	611951	keystroke_p	p	n/a
306.0955	0.045	612191	keystroke_t	t	n/a
306.201	0.2695	612402	keystroke_i	i	n/a
306.3355	0.105	612671	keystroke_o	o	n/a
306.3655	0.1205	612731	keystroke_n	n	n/a
306.5455	0.075	613091	keystroke_Key.space	Key.space	n/a
307.611	0.015	615222	keystroke_c	c	n/a
307.671	0.044	615342	keystroke_i	i	n/a
307.941	0.075	615882	keystroke_g	g	n/a
308.0305	0.106	616061	keystroke_a	a	n/a
308.1655	0.075	616331	keystroke_r	r	n/a
308.496	0.0745	616992	keystroke_e	e	n/a
308.66	0.045	617320	keystroke_t	t	n/a
308.7805	0.1055	617561	keystroke_t	t	n/a
308.84	0.151	617680	keystroke_e	e	n/a
309.006	0.104	618012	keystroke_s	s	n/a
309.62	0.076	619240	keystroke_Key.enter	Key.enter	n/a
309.7025	6.2945	619405	prompt	n/a	runner gulf expenditure records\n
310.476	0.045	620952	keystroke_r	r	n/a
310.535	0.076	621070	keystroke_u	u	n/a
310.7015	0.074	621403	keystroke_n	n	n/a
310.821	0.1045	621642	keystroke_n	n	n/a
310.911	0.1495	621822	keystroke_e	e	n/a
311.016	0.1345	622032	keystroke_r	r	n/a
311.1055	0.09	622211	keystroke_Key.space	Key.space	n/a
311.2555	0.045	622511	keystroke_g	g	n/a
311.3305	0.09	622661	keystroke_u	u	n/a
311.4655	0.12	622931	keystroke_l	l	n/a
311.5865	0.0595	623173	keystroke_f	f	n/a
311.691	0.075	623382	keystroke_Key.space	Key.space	n/a
312.561	0.045	625122	keystroke_e	e	n/a
312.711	0.06	625422	keystroke_x	x	n/a
312.8605	0.0605	625721	keystroke_p	p	n/a
312.951	0.075	625902	keystroke_e	e	n/a
313.071	0.075	626142	keystroke_n	n	n/a
313.161	0.06	626322	keystroke_d	d	n/a
313.2805	0.06	626561	keystroke_i	i	n/a
313.416	0.06	626832	keystroke_t	t	n/a
313.821	0.0295	627642	keystroke_u	u	n/a
313.8355	0.075	627671	keystroke_r	r	n/a
313.8805	0.105	627761	keystroke_e	e	n/a
314.0005	0.0755	628001	keystroke_Key.space	Key.space	n/a
314.721	0.12	629442	keystroke_r	r	n/a
314.8105	0.1055	629621	keystroke_e	e	n/a
314.976	0.09	629952	keystroke_c	c	n/a
315.081	0.09	630162	keystroke_o	o	n/a
315.186	0.1045	630372	keystroke_r	r	n/a
315.246	0.18	630492	keystroke_d	d	n/a
315.365	0.12	630730	keystroke_s	s	n/a
315.92	0.075	631840	keystroke_Key.enter	Key.enter	n/a
316	7.392	632000	prompt	n/a	termination liverpool hispanic pins\n
316.7755	0.06	633551	keystroke_t	t	n/a
316.8655	0.1205	633731	keystroke_e	e	n/a
316.9405	0.09	633881	keystroke_r	r	n/a
317.001	0.09	634002	keystroke_m	m	n/a
317.1505	0.105	634301	keystroke_i	i	n/a
317.2105	0.09	634421	keystroke_n	n	n/a
317.2855	0.09	634571	keystroke_a	a	n/a
317.3915	0.044	634783	keystroke_t	t	n/a
317.496	0.1945	634992	keystroke_i	i	n/a
317.526	0.1345	635052	keystroke_o	o	n/a
317.5855	0.1655	635171	keystroke_n	n	n/a
317.736	0.0445	635472	keystroke_Key.space	Key.space	n/a
318.576	0.075	637152	keystroke_l	l	n/a
318.726	0.09	637452	keystroke_i	i	n/a
318.771	0.09	637542	keystroke_v	v	n/a
318.921	0.1045	637842	keystroke_e	e	n/a
318.9955	0.09	637991	keystroke_r	r	n/a
319.1305	0.075	638261	keystroke_p	p	n/a
319.3405	0.0605	638681	keystroke_o	o	n/a
319.491	0.0445	638982	keystroke_o	o	n/a
319.641	0.06	639282	keystroke_l	l	n/a
319.8355	0.075	639671	keystroke_Key.space	Key.space	n/a
320.765	0.0755	641530	keystroke_h	h	n/a
320.87	0.105	641740	keystroke_i	i	n/a
320.99	0.075	641980	keystroke_s	s	n/a
321.096	0.075	642192	keystroke_p	p	n/a
321.2	0.09	642400	keystroke_a	a	n/a
321.3055	0.0745	642611	keystroke_n	n	n/a
321.44	0.09	642880	keystroke_i	i	n/a
321.545	0.06	643090	keystroke_c	c	n/a
321.635	0.076	643270	keystroke_Key.space	Key.space	n/a
322.536	0.045	645072	keystroke_p	p	n/a
322.746	0.12	645492	keystroke_i	i	n/a
322.806	0.09	645612	keystroke_n	n	n/a
322.911	0.075	645822	keystroke_s	s	n/a
323.3305	0.06	646661	keystroke_Key.enter	Key.enter	n/a
323.395	5.383	646790	prompt	n/a	cited active diving academic\n
323.9605	0.105	647921	keystroke_c	c	n/a
324.0665	0.059	648133	keystroke_i	i	n/a
324.1855	0.0755	648371	keystroke_t	t	n/a
324.246	0.09	648492	keystroke_e	e	n/a
324.411	0.104	648822	keystroke_d	d	n/a
324.53	0.061	649060	keystroke_Key.space	Key.space	n/a
324.561	0.12	649122	keystroke_a	a	n/a
324.636	0.105	649272	keystroke_c	c	n/a
324.846	0.044	649692	keystroke_t	t	n/a
324.921	0.075	649842	keystroke_i	i	n/a
325.0105	0.0745	650021	keystroke_v	v	n/a
325.071	0.09	650142	keystroke_e	e	n/a
325.1905	0.0445	650381	keystroke_Key.space	Key.space	n/a
325.685	0.06	651370	keystroke_a	a	n/a
326.046	0.06	652092	keystroke_Key.backspace	Key.backspace	n/a
326.1365	0.0595	652273	keystroke_d	d	n/a
326.241	0.075	652482	keystroke_i	i	n/a
326.331	0.075	652662	keystroke_v	v	n/a
326.421	0.09	652842	keystroke_i	i	n/a
326.481	0.09	652962	keystroke_n	n	n/a
326.541	0.045	653082	keystroke_g	g	n/a
326.646	0.09	653292	keystroke_Key.space	Key.space	n/a
327.291	0.12	654582	keystroke_a	a	n/a
327.441	0.12	654882	keystroke_c	c	n/a
327.591	0.075	655182	keystroke_a	a	n/a
327.786	0.045	655572	keystroke_d	d	n/a
327.951	0.06	655902	keystroke_e	e	n/a
328.026	0.105	656052	keystroke_m	m	n/a
328.191	0.074	656382	keystroke_i	i	n/a
328.28	0.046	656560	keystroke_c	c	n/a
328.7305	0.045	657461	keystroke_Key.enter	Key.enter	n/a
328.7805	7.272	657561	prompt	n/a	constructed cakes creature bedford\n
329.4515	0.09	658903	keystroke_c	c	n/a
329.5705	0.1205	659141	keystroke_o	o	n/a
329.676	0.06	659352	keystroke_n	n	n/a
329.7655	0.06	659531	keystroke_s	s	n/a
329.841	0.0595	659682	keystroke_t	t	n/a
329.9905	0.045	659981	keystroke_r	r	n/a
330.0655	0.075	660131	keystroke_u	u	n/a
330.1555	0.09	660311	keystroke_c	c	n/a
330.3805	0.09	660761	keystroke_t	t	n/a
330.4555	0.0905	660911	keystroke_e	e	n/a
330.6055	0.105	661211	keystroke_d	d	n/a
330.7255	0.06	661451	keystroke_Key.space	Key.space	n/a
331.3855	0.121	662771	keystroke_c	c	n/a
331.4905	0.0755	662981	keystroke_a	a	n/a
331.581	0.075	663162	keystroke_k	k	n/a
331.6405	0.151	663281	keystroke_e	e	n/a
331.761	0.105	663522	keystroke_s	s	n/a
331.881	0.06	663762	keystroke_Key.space	Key.space	n/a
332.451	0.0905	664902	keystroke_c	c	n/a
332.6605	0.1205	665321	keystroke_r	r	n/a
332.7505	0.12	665501	keystroke_e	e	n/a
332.8555	0.105	665711	keystroke_a	a	n/a
332.946	0.045	665892	keystroke_t	t	n/a
333.0505	0.0905	666101	keystroke_u	u	n/a
333.096	0.12	666192	keystroke_r	r	n/a
333.171	0.105	666342	keystroke_e	e	n/a
333.321	0.06	666642	keystroke_Key.space	Key.space	n/a
334.1455	0.09	668291	keystroke_b	b	n/a
334.341	0.0595	668682	keystroke_e	e	n/a
334.4755	0.075	668951	keystroke_d	d	n/a
334.611	0.075	669222	keystroke_o	o	n/a
334.716	0.075	669432	keystroke_f	f	n/a
335.061	0.045	670122	keystroke_Key.backspace	Key.backspace	n/a
335.1955	0.1055	670391	keystroke_Key.backspace	Key.backspace	n/a
335.2555	0.061	670511	keystroke_f	f	n/a
335.376	0.075	670752	keystroke_o	o	n/a
335.436	0.105	670872	keystroke_r	r	n/a
335.526	0.09	671052	keystroke_d	d	n/a
335.976	0.075	671952	keystroke_Key.enter	Key.enter	n/a
336.0555	6.117	672111	prompt	n/a	park vary empirical daily\n
336.936	0.105	673872	keystroke_p	p	n/a
337.056	0.09	674112	keystroke_a	a	n/a
337.116	0.09	674232	keystroke_r	r	n/a
337.22	0.0605	674440	keystroke_k	k	n/a
337.3555	0.0905	674711	keystroke_Key.space	Key.space	n/a
337.506	0.06	675012	keystroke_v	v	n/a
337.611	0.09	675222	keystroke_a	a	n/a
337.671	0.09	675342	keystroke_r	r	n/a
337.776	0.06	675552	keystroke_y	y	n/a
337.881	0.06	675762	keystroke_Key.space	Key.space	n/a
338.6165	0.044	677233	keystroke_e	e	n/a
338.6905	0.12	677381	keystroke_m	m	n/a
338.8715	0.0895	677743	keystroke_p	p	n/a
339.0815	0.0595	678163	keystroke_r	r	n/a
339.5755	0.06	679151	keystroke_Key.backspace	Key.backspace	n/a
339.7555	0.06	679511	keystroke_i	i	n/a
339.8315	0.0595	679663	keystroke_r	r	n/a
339.9355	0.0755	679871	keystroke_i	i	n/a
340.012	0.089	680024	keystroke_c	c	n/a
340.116	0.12	680232	keystroke_a	a	n/a
340.266	0.09	680532	keystroke_l	l	n/a
340.4455	0.0755	680891	keystroke_Key.space	Key.space	n/a
340.926	0.12	681852	keystroke_d	d	n/a
341.047	0.074	682094	keystroke_a	a	n/a
341.136	0.1045	682272	keystroke_i	i	n/a
341.2555	0.091	682511	keystroke_l	l	n/a
341.376	0.0595	682752	keystroke_y	y	n/a
342.096	0.0745	684192	keystroke_Key.enter	Key.enter	n/a
342.175	7.3925	684350	prompt	n/a	campbell robin incomplete rivers\n
342.7865	0.074	685573	keystroke_c	c	n/a
343.0405	0.045	686081	keystroke_a	a	n/a
343.1155	0.09	686231	keystroke_m	m	n/a
343.2205	0.105	686441	keystroke_p	p	n/a
343.476	0.0445	686952	keystroke_b	b	n/a
343.581	0.0745	687162	keystroke_e	e	n/a
343.671	0.0755	687342	keystroke_l	l	n/a
343.8205	0.09	687641	keystroke_l	l	n/a
343.9705	0.09	687941	keystroke_Key.space	Key.space	n/a
344.8705	0.045	689741	keystroke_r	r	n/a
344.9755	0.151	689951	keystroke_o	o	n/a
345.1405	0.09	690281	keystroke_b	b	n/a
345.3505	0.12	690701	keystroke_i	i	n/a
345.4405	0.12	690881	keystroke_n	n	n/a
345.6955	0.0755	691391	keystroke_Key.space	Key.space	n/a
346.341	0.1345	692682	keystroke_i	i	n/a
346.4605	0.1055	692921	keystroke_n	n	n/a
346.941	0.06	693882	keystroke_c	c	n/a
347.076	0.105	694152	keystroke_o	o	n/a
347.151	0.075	694302	keystroke_m	m	n/a
347.271	0.06	694542	keystroke_p	p	n/a
347.436	0.06	694872	keystroke_l	l	n/a
347.511	0.075	695022	keystroke_e	e	n/a
347.601	0.12	695202	keystroke_t	t	n/a
347.676	0.09	695352	keystroke_e	e	n/a
347.781	0.075	695562	keystroke_Key.space	Key.space	n/a
348.5615	0.0745	697123	keystroke_r	r	n/a
348.651	0.075	697302	keystroke_i	i	n/a
348.741	0.075	697482	keystroke_v	v	n/a
348.831	0.1345	697662	keystroke_e	e	n/a
348.9505	0.1205	697901	keystroke_r	r	n/a
349.0555	0.075	698111	keystroke_s	s	n/a
349.4905	0.075	698981	keystroke_Key.enter	Key.enter	n/a
349.57	6.7475	699140	prompt	n/a	marco so're wood visitors\n
350.331	0.1045	700662	keystroke_m	m	n/a
350.421	0.0895	700842	keystroke_a	a	n/a
350.4805	0.0605	700961	keystroke_r	r	n/a
350.6455	0.075	701291	keystroke_c	c	n/a
350.736	0.06	701472	keystroke_o	o	n/a
350.8255	0.09	701651	keystroke_Key.space	Key.space	n/a
351.2005	0.0755	702401	keystroke_s	s	n/a
351.2905	0.06	702581	keystroke_o	o	n/a
352.101	0.0595	704202	keystroke_'	'	n/a
352.1905	0.0905	704381	keystroke_r	r	n/a
352.2205	0.1205	704441	keystroke_e	e	n/a
352.356	0.06	704712	keystroke_Key.space	Key.space	n/a
353.4515	0.074	706903	keystroke_w	w	n/a
353.572	0.0745	707144	keystroke_o	o	n/a
353.706	0.075	707412	keystroke_o	o	n/a
353.796	0.075	707592	keystroke_d	d	n/a
353.886	0.0605	707772	keystroke_Key.space	Key.space	n/a
354.711	0.06	709422	keystroke_v	v	n/a
354.786	0.075	709572	keystroke_i	i	n/a
354.921	0.105	709842	keystroke_s	s	n/a
355.446	0.06	710892	keystroke_i	i	n/a
355.5365	0.0745	711073	keystroke_t	t	n/a
355.6265	0.0895	711253	keystroke_o	o	n/a
355.701	0.09	711402	keystroke_r	r	n/a
355.821	0.105	711642	keystroke_s	s	n/a
356.256	0.06	712512	keystroke_Key.enter	Key.enter	n/a
356.32	7.1975	712640	prompt	n/a	astronomy means allergy mining\n
356.8715	0.104	713743	keystroke_a	a	n/a
356.9455	0.135	713891	keystroke_s	s	n/a
357.0655	0.0755	714131	keystroke_t	t	n/a
357.2165	0.0745	714433	keystroke_r	r	n/a
357.4855	0.03	714971	keystroke_o	o	n/a
357.5455	0.045	715091	keystroke_o	o	n/a
357.786	0.0905	715572	keystroke_n	n	n/a
358.0855	0.045	716171	keystroke_Key.backspace	Key.backspace	n/a
358.2055	0.0605	716411	keystroke_Key.backspace	Key.backspace	n/a
358.371	0.06	716742	keystroke_n	n	n/a
358.446	0.1045	716892	keystroke_o	o	n/a
358.6115	0.0745	717223	keystroke_m	m	n/a
358.9405	0.031	717881	keystroke_y	y	n/a
359.0915	0.0595	718183	keystroke_Key.space	Key.space	n/a
359.871	0.075	719742	keystroke_m	m	n/a
359.916	0.075	719832	keystroke_e	e	n/a
359.992	0.104	719984	keystroke_a	a	n/a
360.081	0.075	720162	keystroke_n	n	n/a
360.1865	0.089	720373	keystroke_s	s	n/a
360.2605	0.09	720521	keystroke_Key.space	Key.space	n/a
360.426	0.075	720852	keystroke_a	a	n/a
360.546	0.045	721092	keystroke_l	l	n/a
360.666	0.075	721332	keystroke_l	l	n/a
360.711	0.105	721422	keystroke_e	e	n/a
360.786	0.075	721572	keystroke_r	r	n/a
360.921	0.075	721842	keystroke_g	g	n/a
361.0115	0.0745	722023	keystroke_y	y	n/a
361.116	0.045	722232	keystroke_Key.space	Key.space	n/a
362.226	0.105	724452	keystroke_m	m	n/a
362.3615	0.0895	724723	keystroke_i	i	n/a
362.436	0.06	724872	keystroke_n	n	n/a
362.556	0.105	725112	keystroke_i	i	n/a
362.616	0.075	725232	keystroke_n	n	n/a
362.6915	0.0595	725383	keystroke_g	g	n/a
363.441	0.075	726882	keystroke_Key.enter	Key.enter	n/a
363.5205	6.252	727041	prompt	n/a	impossible attachments late pipes\n
364.1605	0.09	728321	keystroke_i	i	n/a
364.2655	0.105	728531	keystroke_m	m	n/a
364.4305	0.0755	728861	keystroke_p	p	n/a
364.626	0.075	729252	keystroke_o	o	n/a
364.746	0.045	729492	keystroke_s	s	n/a
364.911	0.03	729822	keystroke_s	s	n/a
364.986	0.135	729972	keystroke_i	i	n/a
365.166	0.09	730332	keystroke_b	b	n/a
365.271	0.09	730542	keystroke_l	l	n/a
365.376	0.06	730752	keystroke_e	e	n/a
365.4965	0.0745	730993	keystroke_Key.space	Key.space	n/a
366.081	0.06	732162	keystroke_a	a	n/a
366.2165	0.06	732433	keystroke_t	t	n/a
366.3515	0.06	732703	keystroke_t	t	n/a
366.4415	0.0895	732883	keystroke_a	a	n/a
366.5465	0.1045	733093	keystroke_c	c	n/a
366.6065	0.0595	733213	keystroke_h	h	n/a
366.7565	0.09	733513	keystroke_m	m	n/a
366.831	0.075	733662	keystroke_e	e	n/a
366.9365	0.075	733873	keystroke_n	n	n/a
366.996	0.1055	733992	keystroke_t	t	n/a
367.086	0.1055	734172	keystroke_s	s	n/a
367.206	0.06	734412	keystroke_Key.space	Key.space	n/a
367.8965	0.03	735793	keystroke_l	l	n/a
367.9105	0.046	735821	keystroke_a	a	n/a
367.9865	0.09	735973	keystroke_t	t	n/a
368.0465	0.09	736093	keystroke_e	e	n/a
368.1655	0.06	736331	keystroke_Key.space	Key.space	n/a
368.691	0.06	737382	keystroke_p	p	n/a
368.856	0.075	737712	keystroke_i	i	n/a
368.946	0.12	737892	keystroke_p	p	n/a
369.051	0.135	738102	keystroke_e	e	n/a
369.141	0.12	738282	keystroke_s	s	n/a
369.726	0.045	739452	keystroke_Key.enter	Key.enter	n/a
369.775	6.973	739550	prompt	n/a	void object views hormone\n
370.5065	0.06	741013	keystroke_v	v	n/a
370.6115	0.06	741223	keystroke_o	o	n/a
370.7755	0.06	741551	keystroke_i	i	n/a
370.8505	0.075	741701	keystroke_d	d	n/a
370.941	0.0895	741882	keystroke_Key.space	Key.space	n/a
371.1055	0.075	742211	keystroke_o	o	n/a
371.256	0.076	742512	keystroke_b	b	n/a
371.376	0.1195	742752	keystroke_e	e	n/a
371.4505	0.061	742901	keystroke_j	j	n/a
371.616	0.105	743232	keystroke_c	c	n/a
371.9155	0.045	743831	keystroke_Key.backspace	Key.backspace	n/a
372.0355	0.0905	744071	keystroke_Key.backspace	Key.backspace	n/a
372.2165	0.0595	744433	keystroke_Key.backspace	Key.backspace	n/a
372.291	0.075	744582	keystroke_j	j	n/a
372.351	0.0755	744702	keystroke_e	e	n/a
372.411	0.06	744822	keystroke_c	c	n/a
372.5915	0.059	745183	keystroke_t	t	n/a
372.6805	0.046	745361	keystroke_Key.space	Key.space	n/a
373.4465	0.0745	746893	keystroke_v	v	n/a
373.581	0.09	747162	keystroke_i	i	n/a
373.6555	0.135	747311	keystroke_e	e	n/a
373.731	0.1045	747462	keystroke_w	w	n/a
373.9105	0.09	747821	keystroke_s	s	n/a
374.0015	0.0595	748003	keystroke_Key.space	Key.space	n/a
374.586	0.06	749172	keystroke_h	h	n/a
374.691	0.09	749382	keystroke_o	o	n/a
374.811	0.06	749622	keystroke_r	r	n/a
374.961	0.09	749922	keystroke_o	o	n/a
375.3355	0.075	750671	keystroke_m	m	n/a
375.576	0.0445	751152	keystroke_Key.backspace	Key.backspace	n/a
375.6965	0.074	751393	keystroke_Key.backspace	Key.backspace	n/a
375.8605	0.0605	751721	keystroke_m	m	n/a
375.9505	0.12	751901	keystroke_o	o	n/a
376.0405	0.075	752081	keystroke_n	n	n/a
376.1015	0.059	752203	keystroke_e	e	n/a
376.656	0.0895	753312	keystroke_Key.enter	Key.enter	n/a
376.7505	7.843	753501	prompt	n/a	waters latina ford blame\n
377.5715	0.059	755143	keystroke_w	w	n/a
377.6915	0.074	755383	keystroke_a	a	n/a
377.7815	0.09	755563	keystroke_t	t	n/a
377.8865	0.105	755773	keystroke_e	e	n/a
377.9615	0.12	755923	keystroke_r	r	n/a
378.0365	0.105	756073	keystroke_e	e	n/a
378.1265	0.089	756253	keystroke_s	s	n/a
378.261	0.075	756522	keystroke_Key.space	Key.space	n/a
378.696	0.06	757392	keystroke_Key.backspace	Key.backspace	n/a
378.8305	0.09	757661	keystroke_Key.backspace	Key.backspace	n/a
378.9655	0.09	757931	keystroke_Key.backspace	Key.backspace	n/a
379.0405	0.076	758081	keystroke_s	s	n/a
379.1615	0.0745	758323	keystroke_Key.space	Key.space	n/a
379.7765	0.089	759553	keystroke_l	l	n/a
379.8965	0.074	759793	keystroke_a	a	n/a
379.9865	0.045	759973	keystroke_t	t	n/a
380.1505	0.091	760301	keystroke_i	i	n/a
380.2115	0.12	760423	keystroke_n	n	n/a
380.3465	0.075	760693	keystroke_a	a	n/a
380.4815	0.06	760963	keystroke_Key.space	Key.space	n/a
381.1865	0.045	762373	keystroke_f	f	n/a
381.2915	0.09	762583	keystroke_o	o	n/a
381.3965	0.105	762793	keystroke_r	r	n/a
381.4715	0.0895	762943	keystroke_d	d	n/a
381.606	0.06	763212	keystroke_Key.space	Key.space	n/a
382.446	0.075	764892	keystroke_b	b	n/a
382.581	0.105	765162	keystroke_l	l	n/a
382.701	0.0455	765402	keystroke_a	a	n/a
382.851	0.12	765702	keystroke_m	m	n/a
383.0165	0.059	766033	keystroke_e	e	n/a
384.5165	0.074	769033	keystroke_Key.enter	Key.enter	n/a
384.5975	6.67	769195	prompt	n/a	view advertiser should perspective\n
385.2515	0.059	770503	keystroke_v	v	n/a
385.3565	0.074	770713	keystroke_i	i	n/a
385.4465	0.135	770893	keystroke_e	e	n/a
385.5055	0.12	771011	keystroke_w	w	n/a
385.6115	0.074	771223	keystroke_Key.space	Key.space	n/a
385.761	0.105	771522	keystroke_a	a	n/a
385.881	0.06	771762	keystroke_d	d	n/a
386.046	0.0755	772092	keystroke_v	v	n/a
386.2115	0.09	772423	keystroke_e	e	n/a
386.2865	0.09	772573	keystroke_r	r	n/a
386.4965	0.104	772993	keystroke_s	s	n/a
386.946	0.075	773892	keystroke_Key.backspace	Key.backspace	n/a
387.066	0.045	774132	keystroke_t	t	n/a
387.156	0.075	774312	keystroke_i	i	n/a
387.231	0.12	774462	keystroke_s	s	n/a
387.336	0.105	774672	keystroke_e	e	n/a
387.426	0.06	774852	keystroke_r	r	n/a
387.531	0.0755	775062	keystroke_Key.space	Key.space	n/a
388.311	0.0745	776622	keystroke_s	s	n/a
388.4005	0.061	776801	keystroke_h	h	n/a
388.506	0.105	777012	keystroke_o	o	n/a
388.581	0.09	777162	keystroke_u	u	n/a
388.731	0.09	777462	keystroke_l	l	n/a
388.851	0.0605	777702	keystroke_d	d	n/a
388.9565	0.06	777913	keystroke_Key.space	Key.space	n/a
389.5865	0.09	779173	keystroke_p	p	n/a
389.6615	0.105	779323	keystroke_e	e	n/a
389.7215	0.075	779443	keystroke_r	r	n/a
389.8715	0.089	779743	keystroke_s	s	n/a
390.0815	0.059	780163	keystroke_p	p	n/a
390.186	0.105	780372	keystroke_e	e	n/a
390.261	0.075	780522	keystroke_c	c	n/a
390.441	0.06	780882	keystroke_t	t	n/a
390.546	0.0755	781092	keystroke_i	i	n/a
390.651	0.06	781302	keystroke_v	v	n/a
390.696	0.06	781392	keystroke_e	e	n/a
391.206	0.06	782412	keystroke_Key.enter	Key.enter	n/a
391.27	7.1075	782540	prompt	n/a	research spray kevin five\n
391.896	0.105	783792	keystroke_r	r	n/a
391.956	0.1055	783912	keystroke_e	e	n/a
392.0915	0.12	784183	keystroke_s	s	n/a
392.1815	0.1345	784363	keystroke_e	e	n/a
392.271	0.1645	784542	keystroke_r	r	n/a
392.3015	0.0895	784603	keystroke_a	a	n/a
392.6315	0.0445	785263	keystroke_c	c	n/a
392.8855	0.045	785771	keystroke_Key.backspace	Key.backspace	n/a
393.0055	0.075	786011	keystroke_Key.backspace	Key.backspace	n/a
393.1555	0.0755	786311	keystroke_Key.backspace	Key.backspace	n/a
393.186	0.1345	786372	keystroke_a	a	n/a
393.276	0.0745	786552	keystroke_r	r	n/a
393.4555	0.076	786911	keystroke_c	c	n/a
393.4865	0.09	786973	keystroke_h	h	n/a
393.6655	0.0455	787331	keystroke_Key.space	Key.space	n/a
394.2955	0.091	788591	keystroke_s	s	n/a
394.4315	0.075	788863	keystroke_p	p	n/a
394.5215	0.0895	789043	keystroke_r	r	n/a
394.581	0.0755	789162	keystroke_a	a	n/a
394.701	0.0605	789402	keystroke_y	y	n/a
394.791	0.09	789582	keystroke_Key.space	Key.space	n/a
395.6465	0.1045	791293	keystroke_k	k	n/a
395.7815	0.0745	791563	keystroke_e	e	n/a
395.946	0.06	791892	keystroke_v	v	n/a
396.036	0.105	792072	keystroke_i	i	n/a
396.096	0.105	792192	keystroke_n	n	n/a
396.2165	0.0745	792433	keystroke_Key.space	Key.space	n/a
396.426	0.0605	792852	keystroke_f	f	n/a
396.561	0.0745	793122	keystroke_i	i	n/a
396.7265	0.0895	793453	keystroke_v	v	n/a
396.7865	0.075	793573	keystroke_e	e	n/a
398.3165	0.0595	796633	keystroke_Key.enter	Key.enter	n/a
398.3805	7.197	796761	prompt	n/a	pest attacked johnson charity\n
399.156	0.075	798312	keystroke_p	p	n/a
399.276	0.1805	798552	keystroke_e	e	n/a
399.291	0.1655	798582	keystroke_s	s	n/a
399.426	0.075	798852	keystroke_t	t	n/a
399.5465	0.1045	799093	keystroke_Key.space	Key.space	n/a
399.906	0.09	799812	keystroke_a	a	n/a
400.041	0.045	800082	keystroke_t	t	n/a
400.1605	0.076	800321	keystroke_t	t	n/a
400.2665	0.104	800533	keystroke_a	a	n/a
400.3415	0.089	800683	keystroke_c	c	n/a
400.4455	0.061	800891	keystroke_k	k	n/a
400.4755	0.076	800951	keystroke_e	e	n/a
400.6265	0.09	801253	keystroke_d	d	n/a
400.7305	0.06	801461	keystroke_Key.space	Key.space	n/a
401.3615	0.165	802723	keystroke_j	j	n/a
401.5715	0.029	803143	keystroke_o	o	n/a
401.6305	0.106	803261	keystroke_h	h	n/a
401.796	0.0755	803592	keystroke_n	n	n/a
401.946	0.09	803892	keystroke_s	s	n/a
402.021	0.1345	804042	keystroke_o	o	n/a
402.0955	0.0755	804191	keystroke_n	n	n/a
402.2155	0.0605	804431	keystroke_Key.space	Key.space	n/a
402.906	0.09	805812	keystroke_c	c	n/a
403.011	0.03	806022	keystroke_h	h	n/a
403.056	0.061	806112	keystroke_i	i	n/a
403.086	0.1055	806172	keystroke_a	a	n/a
403.581	0.06	807162	keystroke_Key.backspace	Key.backspace	n/a
403.701	0.09	807402	keystroke_Key.backspace	Key.backspace	n/a
403.792	0.089	807584	keystroke_a	a	n/a
403.8515	0.0745	807703	keystroke_r	r	n/a
403.9415	0.075	807883	keystroke_i	i	n/a
404.0465	0.074	808093	keystroke_t	t	n/a
404.1665	0.059	808333	keystroke_y	y	n/a
405.4865	0.0895	810973	keystroke_Key.enter	Key.enter	n/a
405.5805	7.707	811161	prompt	n/a	perl desktops lookup drums\n
406.4465	0.0745	812893	keystroke_p	p	n/a
406.551	0.105	813102	keystroke_e	e	n/a
406.671	0.091	813342	keystroke_r	r	n/a
406.8515	0.075	813703	keystroke_l	l	n/a
407.0615	0.045	814123	keystroke_Key.space	Key.space	n/a
407.5555	0.075	815111	keystroke_d	d	n/a
407.7355	0.12	815471	keystroke_e	e	n/a
407.8105	0.121	815621	keystroke_s	s	n/a
407.9455	0.09	815891	keystroke_k	k	n/a
408.1265	0.029	816253	keystroke_t	t	n/a
408.351	0.0755	816702	keystroke_o	o	n/a
408.621	0.09	817242	keystroke_p	p	n/a
408.7415	0.0745	817483	keystroke_s	s	n/a
408.8615	0.074	817723	keystroke_Key.space	Key.space	n/a
409.8365	0.075	819673	keystroke_l	l	n/a
410.046	0.0595	820092	keystroke_o	o	n/a
410.1965	0.089	820393	keystroke_o	o	n/a
410.3315	0.135	820663	keystroke_k	k	n/a
410.6765	0.06	821353	keystroke_u	u	n/a
411.1255	0.075	822251	keystroke_p	p	n/a
411.3815	0.044	822763	keystroke_Key.space	Key.space	n/a
412.1165	0.074	824233	keystroke_d	d	n/a
412.386	0.0605	824772	keystroke_r	r	n/a
412.462	0.074	824924	keystroke_u	u	n/a
412.641	0.09	825282	keystroke_m	m	n/a
412.747	0.059	825494	keystroke_s	s	n/a
413.211	0.0755	826422	keystroke_Key.enter	Key.enter	n/a
413.291	5.427	826582	prompt	n/a	seemed patient rail patient\n
413.8555	0.061	827711	keystroke_s	s	n/a
413.976	0.06	827952	keystroke_e	e	n/a
414.126	0.0745	828252	keystroke_e	e	n/a
414.1705	0.105	828341	keystroke_m	m	n/a
414.3215	0.044	828643	keystroke_e	e	n/a
414.4565	0.089	828913	keystroke_d	d	n/a
414.5315	0.0595	829063	keystroke_Key.space	Key.space	n/a
415.0255	0.076	830051	keystroke_p	p	n/a
415.1015	0.104	830203	keystroke_a	a	n/a
415.2205	0.06	830441	keystroke_t	t	n/a
415.5055	0.075	831011	keystroke_i	i	n/a
415.6265	0.03	831253	keystroke_e	e	n/a
415.7005	0.09	831401	keystroke_n	n	n/a
415.7765	0.06	831553	keystroke_t	t	n/a
415.8955	0.06	831791	keystroke_Key.space	Key.space	n/a
416.6455	0.045	833291	keystroke_r	r	n/a
416.706	0.0445	833412	keystroke_a	a	n/a
416.8105	0.0905	833621	keystroke_i	i	n/a
416.9455	0.106	833891	keystroke_l	l	n/a
417.0655	0.0605	834131	keystroke_Key.space	Key.space	n/a
417.3955	0.075	834791	keystroke_p	p	n/a
417.4855	0.0905	834971	keystroke_a	a	n/a
417.5905	0.06	835181	keystroke_t	t	n/a
417.666	0.0905	835332	keystroke_i	i	n/a
417.8155	0.045	835631	keystroke_e	e	n/a
418.116	0.0745	836232	keystroke_n	n	n/a
418.206	0.06	836412	keystroke_t	t	n/a
418.641	0.075	837282	keystroke_Key.enter	Key.enter	n/a
418.721	7.197	837442	prompt	n/a	lazy beads latinas continuous\n
419.376	0.09	838752	keystroke_l	l	n/a
419.481	0.075	838962	keystroke_a	a	n/a
419.691	0.075	839382	keystroke_z	z	n/a
419.781	0.0895	839562	keystroke_y	y	n/a
419.9155	0.0755	839831	keystroke_Key.space	Key.space	n/a
420.1555	0.075	840311	keystroke_b	b	n/a
420.2155	0.0755	840431	keystroke_e	e	n/a
420.321	0.09	840642	keystroke_a	a	n/a
420.426	0.12	840852	keystroke_d	d	n/a
420.501	0.12	841002	keystroke_s	s	n/a
420.636	0.075	841272	keystroke_Key.space	Key.space	n/a
420.771	0.09	841542	keystroke_l	l	n/a
420.877	0.074	841754	keystroke_a	a	n/a
421.0405	0.0605	842081	keystroke_t	t	n/a
421.1455	0.1055	842291	keystroke_i	i	n/a
421.191	0.105	842382	keystroke_n	n	n/a
421.281	0.105	842562	keystroke_a	a	n/a
421.371	0.15	842742	keystroke_s	s	n/a
421.536	0.045	843072	keystroke_Key.space	Key.space	n/a
422.331	0.0755	844662	keystroke_c	c	n/a
422.3915	0.135	844783	keystroke_o	o	n/a
422.5555	0.1205	845111	keystroke_n	n	n/a
422.6905	0.061	845381	keystroke_t	t	n/a
422.7655	0.1355	845531	keystroke_i	i	n/a
422.9155	0.135	845831	keystroke_n	n	n/a
423.1705	0.09	846341	keystroke_u	u	n/a
423.576	0.1055	847152	keystroke_o	o	n/a
423.7255	0.0905	847451	keystroke_u	u	n/a
423.8605	0.106	847721	keystroke_s	s	n/a
425.841	0.075	851682	keystroke_Key.enter	Key.enter	n/a
425.9205	8.8775	851841	prompt	n/a	lower survivors dish he've\n
426.5005	0.0905	853001	keystroke_l	l	n/a
426.7105	0.061	853421	keystroke_o	o	n/a
426.7855	0.15	853571	keystroke_w	w	n/a
426.8615	0.134	853723	keystroke_e	e	n/a
426.9215	0.089	853843	keystroke_r	r	n/a
427.026	0.0895	854052	keystroke_Key.space	Key.space	n/a
427.1605	0.0905	854321	keystroke_s	s	n/a
427.2655	0.061	854531	keystroke_u	u	n/a
427.3105	0.0905	854621	keystroke_r	r	n/a
427.506	0.0745	855012	keystroke_v	v	n/a
427.596	0.0745	855192	keystroke_i	i	n/a
428.0905	0.06	856181	keystroke_o	o	n/a
428.406	0.06	856812	keystroke_=	=	n/a
428.826	0.075	857652	keystroke_Key.backspace	Key.backspace	n/a
428.976	0.075	857952	keystroke_Key.backspace	Key.backspace	n/a
429.441	0.06	858882	keystroke_v	v	n/a
429.771	0.075	859542	keystroke_o	o	n/a
429.847	0.104	859694	keystroke_r	r	n/a
429.936	0.0905	859872	keystroke_s	s	n/a
430.056	0.06	860112	keystroke_Key.space	Key.space	n/a
430.8805	0.06	861761	keystroke_d	d	n/a
431.0305	0.0605	862061	keystroke_i	i	n/a
431.106	0.0745	862212	keystroke_s	s	n/a
431.2255	0.0905	862451	keystroke_h	h	n/a
431.3005	0.0905	862601	keystroke_Key.space	Key.space	n/a
431.526	0.09	863052	keystroke_h	h	n/a
431.6305	0.075	863261	keystroke_e	e	n/a
432.3205	0.0755	864641	keystroke_'	'	n/a
432.3815	0.09	864763	keystroke_v	v	n/a
432.4565	0.089	864913	keystroke_e	e	n/a
434.783	0.013	869566	keystroke_Key.enter	Key.enter	n/a
434.801	8.037	869602	prompt	n/a	graduate bottles ignored trailer\n
435.486	0.06	870972	keystroke_g	g	n/a
435.651	0.06	871302	keystroke_a	a	n/a
435.741	0.075	871482	keystroke_r	r	n/a
436.236	0.06	872472	keystroke_Key.backspace	Key.backspace	n/a
436.356	0.06	872712	keystroke_Key.backspace	Key.backspace	n/a
436.401	0.105	872802	keystroke_r	r	n/a
436.492	0.119	872984	keystroke_a	a	n/a
436.671	0.12	873342	keystroke_d	d	n/a
436.836	0.0905	873672	keystroke_u	u	n/a
437.106	0.1045	874212	keystroke_a	a	n/a
437.2555	0.105	874511	keystroke_t	t	n/a
437.3315	0.179	874663	keystroke_e	e	n/a
437.4655	0.06	874931	keystroke_Key.space	Key.space	n/a
438.4865	0.0895	876973	keystroke_b	b	n/a
438.606	0.105	877212	keystroke_o	o	n/a
438.726	0.06	877452	keystroke_t	t	n/a
438.861	0.0755	877722	keystroke_t	t	n/a
438.9655	0.12	877931	keystroke_l	l	n/a
439.0555	0.1655	878111	keystroke_e	e	n/a
439.161	0.1205	878322	keystroke_s	s	n/a
439.266	0.075	878532	keystroke_Key.space	Key.space	n/a
439.9715	0.06	879943	keystroke_i	i	n/a
440.0605	0.061	880121	keystroke_g	g	n/a
440.2405	0.076	880481	keystroke_n	n	n/a
440.3615	0.0745	880723	keystroke_o	o	n/a
440.4215	0.105	880843	keystroke_r	r	n/a
440.4965	0.089	880993	keystroke_e	e	n/a
440.6605	0.106	881321	keystroke_d	d	n/a
440.7665	0.059	881533	keystroke_Key.space	Key.space	n/a
441.1105	0.046	882221	keystroke_t	t	n/a
441.2305	0.106	882461	keystroke_r	r	n/a
441.3205	0.075	882641	keystroke_a	a	n/a
441.3515	0.105	882703	keystroke_i	i	n/a
441.5005	0.09	883001	keystroke_l	l	n/a
441.516	0.1795	883032	keystroke_e	e	n/a
441.6515	0.0895	883303	keystroke_r	r	n/a
442.8205	0.0155	885641	keystroke_Key.enter	Key.enter	n/a
442.8405	10.587	885681	prompt	n/a	anthropology ethernet fully biblical\n
443.601	0.09	887202	keystroke_a	a	n/a
444.261	0.0595	888522	keystroke_n	n	n/a
444.381	0.0595	888762	keystroke_t	t	n/a
444.4555	0.076	888911	keystroke_h	h	n/a
444.5455	0.076	889091	keystroke_r	r	n/a
444.6665	0.0745	889333	keystroke_o	o	n/a
445.747	0.059	891494	keystroke_[	[	n/a
446.406	0.075	892812	keystroke_Key.backspace	Key.backspace	n/a
447.126	0.09	894252	keystroke_p	p	n/a
447.636	0.06	895272	keystroke_o	o	n/a
447.801	0.06	895602	keystroke_l	l	n/a
447.951	0.06	895902	keystroke_o	o	n/a
448.0415	0.0595	896083	keystroke_g	g	n/a
448.131	0.075	896262	keystroke_y	y	n/a
448.266	0.0755	896532	keystroke_Key.space	Key.space	n/a
449.0605	0.09	898121	keystroke_e	e	n/a
449.376	0.0595	898752	keystroke_t	t	n/a
449.466	0.09	898932	keystroke_h	h	n/a
449.541	0.105	899082	keystroke_e	e	n/a
449.616	0.09	899232	keystroke_r	r	n/a
449.736	0.09	899472	keystroke_n	n	n/a
449.811	0.12	899622	keystroke_e	e	n/a
449.901	0.0605	899802	keystroke_t	t	n/a
449.991	0.075	899982	keystroke_Key.space	Key.space	n/a
450.5755	0.06	901151	keystroke_f	f	n/a
450.6515	0.09	901303	keystroke_u	u	n/a
450.8155	0.06	901631	keystroke_l	l	n/a
450.9515	0.059	901903	keystroke_l	l	n/a
451.056	0.0895	902112	keystroke_y	y	n/a
451.1615	0.0745	902323	keystroke_Key.space	Key.space	n/a
451.326	0.09	902652	keystroke_b	b	n/a
451.506	0.0755	903012	keystroke_i	i	n/a
451.641	0.09	903282	keystroke_b	b	n/a
452.0455	0.075	904091	keystroke_l	l	n/a
452.1665	0.0895	904333	keystroke_i	i	n/a
452.271	0.09	904542	keystroke_c	c	n/a
452.346	0.06	904692	keystroke_a	a	n/a
452.421	0.06	904842	keystroke_l	l	n/a
453.366	0.06	906732	keystroke_Key.enter	Key.enter	n/a
453.43	4.6175	906860	prompt	n/a	boxing drilling combo pack\n
454.1305	0.0605	908261	keystroke_b	b	n/a
454.266	0.09	908532	keystroke_o	o	n/a
454.371	0.075	908742	keystroke_x	x	n/a
454.506	0.12	909012	keystroke_i	i	n/a
454.596	0.105	909192	keystroke_n	n	n/a
454.671	0.06	909342	keystroke_g	g	n/a
454.776	0.075	909552	keystroke_Key.space	Key.space	n/a
454.911	0.075	909822	keystroke_d	d	n/a
455.046	0.075	910092	keystroke_r	r	n/a
455.1355	0.061	910271	keystroke_i	i	n/a
455.2715	0.075	910543	keystroke_l	l	n/a
455.4065	0.075	910813	keystroke_l	l	n/a
455.5405	0.121	911081	keystroke_i	i	n/a
455.6165	0.12	911233	keystroke_n	n	n/a
455.6915	0.06	911383	keystroke_g	g	n/a
455.7655	0.09	911531	keystroke_Key.space	Key.space	n/a
455.8865	0.09	911773	keystroke_c	c	n/a
455.9915	0.135	911983	keystroke_o	o	n/a
456.0655	0.0905	912131	keystroke_m	m	n/a
456.291	0.045	912582	keystroke_b	b	n/a
456.441	0.0605	912882	keystroke_o	o	n/a
456.9065	0.0595	913813	keystroke_Key.space	Key.space	n/a
457.116	0.0755	914232	keystroke_p	p	n/a
457.206	0.1055	914412	keystroke_a	a	n/a
457.251	0.09	914502	keystroke_c	c	n/a
457.3265	0.0745	914653	keystroke_k	k	n/a
458.001	0.045	916002	keystroke_Key.enter	Key.enter	n/a
458.051	6.762	916102	prompt	n/a	newcastle legacy recipes particle\n
458.8715	0.075	917743	keystroke_n	n	n/a
458.9315	0.135	917863	keystroke_e	e	n/a
458.9915	0.12	917983	keystroke_w	w	n/a
459.2165	0.105	918433	keystroke_c	c	n/a
459.3065	0.1045	918613	keystroke_a	a	n/a
459.397	0.134	918794	keystroke_s	s	n/a
459.486	0.09	918972	keystroke_t	t	n/a
459.606	0.06	919212	keystroke_l	l	n/a
459.711	0.075	919422	keystroke_e	e	n/a
459.816	0.0755	919632	keystroke_Key.space	Key.space	n/a
460.296	0.06	920592	keystroke_l	l	n/a
460.326	0.075	920652	keystroke_e	e	n/a
460.461	0.09	920922	keystroke_g	g	n/a
460.536	0.1055	921072	keystroke_a	a	n/a
460.6855	0.09	921371	keystroke_c	c	n/a
460.7905	0.06	921581	keystroke_y	y	n/a
460.9115	0.06	921823	keystroke_Key.space	Key.space	n/a
461.7805	0.1055	923561	keystroke_r	r	n/a
461.8565	0.09	923713	keystroke_e	e	n/a
462.0065	0.105	924013	keystroke_c	c	n/a
462.096	0.0445	924192	keystroke_i	i	n/a
462.261	0.06	924522	keystroke_p	p	n/a
462.336	0.12	924672	keystroke_e	e	n/a
462.426	0.105	924852	keystroke_s	s	n/a
462.5615	0.1045	925123	keystroke_Key.space	Key.space	n/a
463.4315	0.0895	926863	keystroke_p	p	n/a
463.536	0.06	927072	keystroke_a	a	n/a
463.5815	0.0595	927163	keystroke_r	r	n/a
463.761	0.045	927522	keystroke_t	t	n/a
463.881	0.09	927762	keystroke_i	i	n/a
463.986	0.0905	927972	keystroke_c	c	n/a
464.106	0.0755	928212	keystroke_l	l	n/a
464.2115	0.0745	928423	keystroke_e	e	n/a
464.736	0.075	929472	keystroke_Key.enter	Key.enter	n/a
464.8175	7.795	929635	prompt	n/a	quantity targets removal indoor\n
465.471	0.09	930942	keystroke_q	q	n/a
465.576	0.075	931152	keystroke_u	u	n/a
465.757	0.074	931514	keystroke_n	n	n/a
465.771	0.09	931542	keystroke_a	a	n/a
466.1605	0.106	932321	keystroke_Key.backspace	Key.backspace	n/a
466.281	0.0755	932562	keystroke_Key.backspace	Key.backspace	n/a
466.341	0.06	932682	keystroke_a	a	n/a
466.461	0.105	932922	keystroke_n	n	n/a
466.551	0.105	933102	keystroke_i	i	n/a
466.611	0.105	933222	keystroke_t	t	n/a
467.331	0.06	934662	keystroke_Key.backspace	Key.backspace	n/a
467.451	0.075	934902	keystroke_Key.backspace	Key.backspace	n/a
467.541	0.075	935082	keystroke_t	t	n/a
467.646	0.06	935292	keystroke_i	i	n/a
467.721	0.06	935442	keystroke_t	t	n/a
467.811	0.075	935622	keystroke_y	y	n/a
467.9765	0.0745	935953	keystroke_Key.space	Key.space	n/a
468.7265	0.06	937453	keystroke_t	t	n/a
468.8465	0.1045	937693	keystroke_a	a	n/a
468.921	0.0895	937842	keystroke_r	r	n/a
469.131	0.06	938262	keystroke_g	g	n/a
469.206	0.12	938412	keystroke_e	e	n/a
469.311	0.105	938622	keystroke_t	t	n/a
469.431	0.09	938862	keystroke_s	s	n/a
469.536	0.0605	939072	keystroke_Key.space	Key.space	n/a
470.256	0.09	940512	keystroke_r	r	n/a
470.316	0.105	940632	keystroke_e	e	n/a
470.4065	0.075	940813	keystroke_m	m	n/a
470.511	0.045	941022	keystroke_o	o	n/a
470.526	0.09	941052	keystroke_v	v	n/a
470.6015	0.075	941203	keystroke_a	a	n/a
470.751	0.09	941502	keystroke_l	l	n/a
470.991	0.06	941982	keystroke_Key.space	Key.space	n/a
471.6955	0.12	943391	keystroke_i	i	n/a
471.801	0.0595	943602	keystroke_n	n	n/a
471.8615	0.06	943723	keystroke_d	d	n/a
471.9815	0.06	943963	keystroke_o	o	n/a
472.0865	0.09	944173	keystroke_o	o	n/a
472.1615	0.06	944323	keystroke_r	r	n/a
472.5515	0.059	945103	keystroke_Key.enter	Key.enter	n/a
472.6155	7.1525	945231	prompt	n/a	obtained waiver processors directive\n
473.3015	0.045	946603	keystroke_o	o	n/a
473.4515	0.075	946903	keystroke_b	b	n/a
473.5415	0.075	947083	keystroke_t	t	n/a
473.6315	0.09	947263	keystroke_a	a	n/a
473.7215	0.105	947443	keystroke_i	i	n/a
473.7815	0.105	947563	keystroke_n	n	n/a
473.9015	0.03	947803	keystroke_e	e	n/a
474.0515	0.0445	948103	keystroke_d	d	n/a
474.111	0.0605	948222	keystroke_Key.space	Key.space	n/a
474.6055	0.091	949211	keystroke_w	w	n/a
474.7265	0.074	949453	keystroke_a	a	n/a
474.8305	0.076	949661	keystroke_i	i	n/a
474.9505	0.046	949901	keystroke_v	v	n/a
475.0705	0.121	950141	keystroke_e	e	n/a
475.1605	0.075	950321	keystroke_r	r	n/a
475.2805	0.0455	950561	keystroke_Key.space	Key.space	n/a
476.001	0.06	952002	keystroke_p	p	n/a
476.0765	0.075	952153	keystroke_r	r	n/a
476.2705	0.046	952541	keystroke_o	o	n/a
476.3305	0.1055	952661	keystroke_c	c	n/a
476.4065	0.104	952813	keystroke_e	e	n/a
476.6015	0.059	953203	keystroke_s	s	n/a
476.736	0.0745	953472	keystroke_s	s	n/a
476.9455	0.09	953891	keystroke_o	o	n/a
477.126	0.06	954252	keystroke_r	r	n/a
477.2315	0.1045	954463	keystroke_s	s	n/a
477.636	0.045	955272	keystroke_Key.space	Key.space	n/a
477.9815	0.0595	955963	keystroke_d	d	n/a
478.071	0.075	956142	keystroke_i	i	n/a
478.161	0.09	956322	keystroke_r	r	n/a
478.2665	0.135	956533	keystroke_e	e	n/a
478.3715	0.074	956743	keystroke_c	c	n/a
478.5515	0.044	957103	keystroke_t	t	n/a
478.6565	0.059	957313	keystroke_i	i	n/a
478.7465	0.059	957493	keystroke_v	v	n/a
478.791	0.09	957582	keystroke_e	e	n/a
479.6905	0.075	959381	keystroke_Key.enter	Key.enter	n/a
479.771	9.537	959542	prompt	n/a	concentrate reaction location households\n
480.4105	0.075	960821	keystroke_c	c	n/a
480.4705	0.151	960941	keystroke_o	o	n/a
480.5755	0.09	961151	keystroke_n	n	n/a
480.6805	0.06	961361	keystroke_c	c	n/a
481.326	0.075	962652	keystroke_e	e	n/a
481.416	0.06	962832	keystroke_n	n	n/a
481.716	0.0905	963432	keystroke_t	t	n/a
481.866	0.09	963732	keystroke_r	r	n/a
481.971	0.105	963942	keystroke_a	a	n/a
482.121	0.105	964242	keystroke_t	t	n/a
482.212	0.1045	964424	keystroke_e	e	n/a
482.3465	0.045	964693	keystroke_Key.space	Key.space	n/a
483.231	0.09	966462	keystroke_r	r	n/a
483.291	0.09	966582	keystroke_e	e	n/a
483.426	0.18	966852	keystroke_a	a	n/a
483.561	0.1205	967122	keystroke_c	c	n/a
483.8015	0.045	967603	keystroke_t	t	n/a
483.876	0.18	967752	keystroke_i	i	n/a
483.9365	0.105	967873	keystroke_o	o	n/a
483.981	0.1355	967962	keystroke_n	n	n/a
484.1005	0.0605	968201	keystroke_Key.space	Key.space	n/a
484.8365	0.09	969673	keystroke_l	l	n/a
485.0305	0.076	970061	keystroke_o	o	n/a
485.1205	0.106	970241	keystroke_c	c	n/a
485.2105	0.1355	970421	keystroke_a	a	n/a
485.331	0.105	970662	keystroke_t	t	n/a
485.391	0.271	970782	keystroke_i	i	n/a
485.496	0.1355	970992	keystroke_o	o	n/a
485.541	0.135	971082	keystroke_n	n	n/a
485.691	0.06	971382	keystroke_Key.space	Key.space	n/a
486.4565	0.0445	972913	keystroke_h	h	n/a
486.561	0.1205	973122	keystroke_o	o	n/a
486.666	0.075	973332	keystroke_u	u	n/a
486.6965	0.074	973393	keystroke_s	s	n/a
486.7415	0.074	973483	keystroke_e	e	n/a
486.936	0.06	973872	keystroke_h	h	n/a
487.0565	0.1045	974113	keystroke_o	o	n/a
487.131	0.06	974262	keystroke_u	u	n/a
487.896	0.0745	975792	keystroke_Key.backspace	Key.backspace	n/a
488.226	0.061	976452	keystroke_l	l	n/a
488.346	0.1805	976692	keystroke_d	d	n/a
488.4965	0.0745	976993	keystroke_s	s	n/a
489.246	0.06	978492	keystroke_Key.enter	Key.enter	n/a
489.3105	7.407	978621	prompt	n/a	quiet excluded thinking fifty\n
490.0405	0.091	980081	keystroke_q	q	n/a
490.1465	0.0745	980293	keystroke_u	u	n/a
490.1905	0.1055	980381	keystroke_i	i	n/a
490.311	0.06	980622	keystroke_t	t	n/a
490.386	0.1955	980772	keystroke_e	e	n/a
490.776	0.045	981552	keystroke_Key.backspace	Key.backspace	n/a
490.911	0.075	981822	keystroke_Key.backspace	Key.backspace	n/a
490.971	0.105	981942	keystroke_e	e	n/a
491.031	0.075	982062	keystroke_t	t	n/a
491.121	0.06	982242	keystroke_Key.space	Key.space	n/a
491.736	0.03	983472	keystroke_e	e	n/a
491.9015	0.0445	983803	keystroke_x	x	n/a
491.931	0.09	983862	keystroke_c	c	n/a
492.381	0.09	984762	keystroke_l	l	n/a
492.456	0.105	984912	keystroke_u	u	n/a
492.577	0.044	985154	keystroke_d	d	n/a
492.726	0.06	985452	keystroke_e	e	n/a
492.8465	0.075	985693	keystroke_d	d	n/a
492.951	0.0605	985902	keystroke_Key.space	Key.space	n/a
493.566	0.15	987132	keystroke_t	t	n/a
493.701	0.045	987402	keystroke_h	h	n/a
493.731	0.075	987462	keystroke_i	i	n/a
493.851	0.09	987702	keystroke_n	n	n/a
493.926	0.09	987852	keystroke_k	k	n/a
494.346	0.12	988692	keystroke_i	i	n/a
494.4065	0.0895	988813	keystroke_n	n	n/a
494.496	0.06	988992	keystroke_g	g	n/a
494.631	0.06	989262	keystroke_Key.space	Key.space	n/a
495.306	0.075	990612	keystroke_f	f	n/a
495.396	0.06	990792	keystroke_i	i	n/a
495.471	0.075	990942	keystroke_f	f	n/a
495.6365	0.0595	991273	keystroke_t	t	n/a
495.846	0.06	991692	keystroke_y	y	n/a
496.6555	0.06	993311	keystroke_Key.enter	Key.enter	n/a
496.7205	9.852	993441	prompt	n/a	remarkable expert surveys brings\n
497.466	0.1055	994932	keystroke_r	r	n/a
497.526	0.106	995052	keystroke_e	e	n/a
497.691	0.1045	995382	keystroke_m	m	n/a
497.811	0.105	995622	keystroke_a	a	n/a
497.901	0.0755	995802	keystroke_r	r	n/a
498.0205	0.0605	996041	keystroke_k	k	n/a
498.1705	0.0755	996341	keystroke_a	a	n/a
498.261	0.075	996522	keystroke_b	b	n/a
498.381	0.09	996762	keystroke_l	l	n/a
498.501	0.0755	997002	keystroke_e	e	n/a
498.591	0.075	997182	keystroke_Key.space	Key.space	n/a
499.356	0.06	998712	keystroke_e	e	n/a
499.5515	0.09	999103	keystroke_x	x	n/a
499.671	0.06	999342	keystroke_p	p	n/a
499.791	0.09	999582	keystroke_e	e	n/a
499.866	0.06	999732	keystroke_r	r	n/a
500.016	0.06	1000032	keystroke_t	t	n/a
500.136	0.075	1000272	keystroke_Key.space	Key.space	n/a
500.586	0.09	1001172	keystroke_s	s	n/a
500.706	0.075	1001412	keystroke_u	u	n/a
500.7965	0.0445	1001593	keystroke_r	r	n/a
500.991	0.03	1001982	keystroke_v	v	n/a
501.006	0.075	1002012	keystroke_e	e	n/a
501.0965	0.059	1002193	keystroke_y	y	n/a
501.2455	0.075	1002491	keystroke_Key.space	Key.space	n/a
501.831	0.0605	1003662	keystroke_=	=	n/a
501.9205	0.0605	1003841	keystroke_s	s	n/a
502.0105	0.06	1004021	keystroke_Key.space	Key.space	n/a
502.626	0.03	1005252	keystroke_Key.backspace	Key.backspace	n/a
502.746	0.06	1005492	keystroke_Key.backspace	Key.backspace	n/a
502.866	0.075	1005732	keystroke_Key.backspace	Key.backspace	n/a
503.016	0.075	1006032	keystroke_Key.backspace	Key.backspace	n/a
503.301	0.0755	1006602	keystroke_s	s	n/a
503.556	0.045	1007112	keystroke_Key.space	Key.space	n/a
504.4705	0.076	1008941	keystroke_b	b	n/a
504.5765	0.074	1009153	keystroke_r	r	n/a
504.6805	0.1205	1009361	keystroke_i	i	n/a
504.7565	0.075	1009513	keystroke_n	n	n/a
504.816	0.0895	1009632	keystroke_g	g	n/a
504.9215	0.09	1009843	keystroke_s	s	n/a
506.511	0.06	1013022	keystroke_Key.enter	Key.enter	n/a
506.576	6.3725	1013152	prompt	n/a	disposition generations mines trouble\n
507.2315	0.075	1014463	keystroke_d	d	n/a
507.3815	0.075	1014763	keystroke_i	i	n/a
507.4865	0.075	1014973	keystroke_s	s	n/a
507.5915	0.06	1015183	keystroke_p	p	n/a
507.7865	0.045	1015573	keystroke_o	o	n/a
508.0265	0.0895	1016053	keystroke_s	s	n/a
508.146	0.0755	1016292	keystroke_i	i	n/a
508.2805	0.06	1016561	keystroke_t	t	n/a
508.3705	0.2105	1016741	keystroke_i	i	n/a
508.4465	0.09	1016893	keystroke_o	o	n/a
508.4765	0.12	1016953	keystroke_n	n	n/a
508.6105	0.0605	1017221	keystroke_Key.space	Key.space	n/a
509.4065	0.074	1018813	keystroke_g	g	n/a
509.4955	0.075	1018991	keystroke_e	e	n/a
509.586	0.0895	1019172	keystroke_n	n	n/a
509.7205	0.09	1019441	keystroke_e	e	n/a
509.7815	0.075	1019563	keystroke_r	r	n/a
509.8865	0.119	1019773	keystroke_a	a	n/a
509.9765	0.06	1019953	keystroke_t	t	n/a
510.0665	0.21	1020133	keystroke_i	i	n/a
510.1405	0.1055	1020281	keystroke_o	o	n/a
510.1705	0.1205	1020341	keystroke_n	n	n/a
510.306	0.075	1020612	keystroke_s	s	n/a
510.411	0.075	1020822	keystroke_Key.space	Key.space	n/a
511.206	0.0905	1022412	keystroke_m	m	n/a
511.341	0.105	1022682	keystroke_i	i	n/a
511.401	0.09	1022802	keystroke_n	n	n/a
511.461	0.12	1022922	keystroke_e	e	n/a
511.536	0.06	1023072	keystroke_s	s	n/a
511.611	0.0755	1023222	keystroke_Key.space	Key.space	n/a
511.7315	0.0445	1023463	keystroke_t	t	n/a
511.851	0.0605	1023702	keystroke_r	r	n/a
511.8665	0.12	1023733	keystroke_o	o	n/a
511.956	0.0905	1023912	keystroke_u	u	n/a
512.2255	0.076	1024451	keystroke_b	b	n/a
512.3755	0.09	1024751	keystroke_l	l	n/a
512.4815	0.0445	1024963	keystroke_e	e	n/a
512.8855	0.06	1025771	keystroke_Key.enter	Key.enter	n/a
512.951	10.5115	1025902	prompt	n/a	turning outcome adjustment human\n
513.7555	0.046	1027511	keystroke_t	t	n/a
513.8305	0.0605	1027661	keystroke_u	u	n/a
513.9365	0.06	1027873	keystroke_r	r	n/a
514.0115	0.075	1028023	keystroke_n	n	n/a
514.1015	0.12	1028203	keystroke_i	i	n/a
514.2065	0.0595	1028413	keystroke_n	n	n/a
514.251	0.06	1028502	keystroke_g	g	n/a
514.326	0.09	1028652	keystroke_Key.space	Key.space	n/a
514.431	0.105	1028862	keystroke_o	o	n/a
514.521	0.0455	1029042	keystroke_u	u	n/a
514.551	0.0755	1029102	keystroke_t	t	n/a
514.8215	0.075	1029643	keystroke_c	c	n/a
514.9415	0.15	1029883	keystroke_o	o	n/a
515.0615	0.1345	1030123	keystroke_m	m	n/a
515.2555	0.061	1030511	keystroke_e	e	n/a
515.3755	0.076	1030751	keystroke_Key.space	Key.space	n/a
515.6915	0.105	1031383	keystroke_a	a	n/a
515.8115	0.074	1031623	keystroke_d	d	n/a
515.8865	0.075	1031773	keystroke_j	j	n/a
516.0515	0.06	1032103	keystroke_u	u	n/a
516.1115	0.0895	1032223	keystroke_s	s	n/a
516.216	0.105	1032432	keystroke_t	t	n/a
516.3065	0.0745	1032613	keystroke_e	e	n/a
516.3665	0.075	1032733	keystroke_m	m	n/a
516.501	0.0755	1033002	keystroke_e	e	n/a
516.561	0.0905	1033122	keystroke_n	n	n/a
516.681	0.0755	1033362	keystroke_t	t	n/a
516.771	0.0905	1033542	keystroke_Key.space	Key.space	n/a
517.566	0.0445	1035132	keystroke_Key.backspace	Key.backspace	n/a
517.7155	0.045	1035431	keystroke_Key.backspace	Key.backspace	n/a
517.7315	0.014	1035463	keystroke_=	=	n/a
517.971	0.045	1035942	keystroke_=	=	n/a
518.8105	0.06	1037621	keystroke_Key.backspace	Key.backspace	n/a
518.9755	0.06	1037951	keystroke_Key.backspace	Key.backspace	n/a
519.1705	0.0755	1038341	keystroke_Key.backspace	Key.backspace	n/a
519.3505	0.075	1038701	keystroke_Key.backspace	Key.backspace	n/a
519.5455	0.075	1039091	keystroke_Key.backspace	Key.backspace	n/a
519.7555	0.06	1039511	keystroke_Key.backspace	Key.backspace	n/a
520.701	0.075	1041402	keystroke_m	m	n/a
520.7765	0.045	1041553	keystroke_e	e	n/a
520.8805	0.075	1041761	keystroke_n	n	n/a
520.9565	0.045	1041913	keystroke_t	t	n/a
521.061	0.0745	1042122	keystroke_Key.space	Key.space	n/a
521.7515	0.074	1043503	keystroke_h	h	n/a
521.9465	0.015	1043893	keystroke_u	u	n/a
522.246	0.09	1044492	keystroke_m	m	n/a
522.381	0.06	1044762	keystroke_a	a	n/a
522.456	0.06	1044912	keystroke_n	n	n/a
523.401	0.06	1046802	keystroke_Key.enter	Key.enter	n/a
523.4655	6.732	1046931	prompt	n/a	america array mods mint\n
524.031	0.06	1048062	keystroke_a	a	n/a
524.106	0.105	1048212	keystroke_m	m	n/a
524.226	0.0905	1048452	keystroke_e	e	n/a
524.286	0.075	1048572	keystroke_r	r	n/a
524.376	0.0605	1048752	keystroke_i	i	n/a
524.467	0.104	1048934	keystroke_c	c	n/a
524.5415	0.0745	1049083	keystroke_a	a	n/a
524.617	0.074	1049234	keystroke_Key.space	Key.space	n/a
524.7805	0.061	1049561	keystroke_a	a	n/a
524.901	0.0595	1049802	keystroke_r	r	n/a
525.0355	0.075	1050071	keystroke_r	r	n/a
525.0965	0.074	1050193	keystroke_a	a	n/a
525.2005	0.0755	1050401	keystroke_y	y	n/a
525.3065	0.059	1050613	keystroke_Key.space	Key.space	n/a
525.8305	0.0755	1051661	keystroke_m	m	n/a
525.921	0.045	1051842	keystroke_o	o	n/a
525.936	0.015	1051872	keystroke_i	i	n/a
525.981	0.075	1051962	keystroke_d	d	n/a
526.041	0.09	1052082	keystroke_s	s	n/a
526.431	0.0305	1052862	keystroke_Key.backspace	Key.backspace	n/a
526.5365	0.09	1053073	keystroke_Key.backspace	Key.backspace	n/a
526.6715	0.12	1053343	keystroke_d	d	n/a
526.7315	0.105	1053463	keystroke_s	s	n/a
527.106	0.03	1054212	keystroke_Key.backspace	Key.backspace	n/a
527.241	0.06	1054482	keystroke_Key.backspace	Key.backspace	n/a
527.361	0.09	1054722	keystroke_Key.backspace	Key.backspace	n/a
527.452	0.1035	1054904	keystroke_d	d	n/a
527.5115	0.089	1055023	keystroke_s	s	n/a
527.6155	0.045	1055231	keystroke_Key.space	Key.space	n/a
528.5615	0.0895	1057123	keystroke_m	m	n/a
528.6955	0.09	1057391	keystroke_i	i	n/a
528.7555	0.0755	1057511	keystroke_n	n	n/a
528.846	0.0445	1057692	keystroke_t	t	n/a
530.1215	0.074	1060243	keystroke_Key.enter	Key.enter	n/a
530.2005	10.137	1060401	prompt	n/a	projectors activities frequency companion\n
531.0965	0.06	1062193	keystroke_p	p	n/a
531.1715	0.09	1062343	keystroke_r	r	n/a
531.3065	0.075	1062613	keystroke_o	o	n/a
531.3665	0.075	1062733	keystroke_j	j	n/a
531.4265	0.105	1062853	keystroke_e	e	n/a
531.4865	0.09	1062973	keystroke_c	c	n/a
531.681	0.045	1063362	keystroke_t	t	n/a
531.756	0.09	1063512	keystroke_o	o	n/a
531.861	0.0455	1063722	keystroke_r	r	n/a
531.9655	0.09	1063931	keystroke_s	s	n/a
532.101	0.0595	1064202	keystroke_Key.space	Key.space	n/a
532.7315	0.1195	1065463	keystroke_a	a	n/a
532.836	0.09	1065672	keystroke_c	c	n/a
533.031	0.015	1066062	keystroke_g	g	n/a
533.031	0.045	1066062	keystroke_t	t	n/a
533.136	0.075	1066272	keystroke_i	i	n/a
533.226	0.06	1066452	keystroke_v	v	n/a
533.331	0.06	1066662	keystroke_i	i	n/a
533.556	0.045	1067112	keystroke_Key.backspace	Key.backspace	n/a
533.676	0.075	1067352	keystroke_Key.backspace	Key.backspace	n/a
533.811	0.09	1067622	keystroke_Key.backspace	Key.backspace	n/a
534.021	0.045	1068042	keystroke_v	v	n/a
