onset	duration	sample	value	key	prompt_text
6.061	5.765	12122	prompt	n/a	the quick brown fox jumps over a lazy dog\n
7.1005	0.0715	14201	keystroke_t	t	n/a
7.157	0.1065	14314	keystroke_h	h	n/a
7.2485	0.105	14497	keystroke_e	e	n/a
7.3085	0.1045	14617	keystroke_Key.space	Key.space	n/a
7.458	0.12	14916	keystroke_q	q	n/a
7.563	0.1205	15126	keystroke_u	u	n/a
7.6225	0.1215	15245	keystroke_i	i	n/a
7.759	0.09	15518	keystroke_c	c	n/a
7.864	0.0745	15728	keystroke_k	k	n/a
7.9085	0.104	15817	keystroke_Key.space	Key.space	n/a
8.0435	0.0595	16087	keystroke_b	b	n/a
8.0885	0.105	16177	keystroke_r	r	n/a
8.3135	0.06	16627	keystroke_w	w	n/a
8.628	0.0755	17256	keystroke_Key.backspace	Key.backspace	n/a
8.8685	0.089	17737	keystroke_o	o	n/a
8.9735	0.1045	17947	keystroke_w	w	n/a
9.048	0.075	18096	keystroke_n	n	n/a
9.1975	0.105	18395	keystroke_Key.space	Key.space	n/a
9.289	0.1045	18578	keystroke_f	f	n/a
9.3785	0.104	18757	keystroke_o	o	n/a
9.5125	0.09	19025	keystroke_x	x	n/a
9.6325	0.135	19265	keystroke_Key.space	Key.space	n/a
9.753	0.09	19506	keystroke_j	j	n/a
9.9475	0.104	19895	keystroke_u	u	n/a
10.0075	0.134	20015	keystroke_m	m	n/a
10.082	0.1205	20164	keystroke_p	p	n/a
10.1565	0.107	20313	keystroke_s	s	n/a
10.2635	0.1485	20527	keystroke_Key.space	Key.space	n/a
10.3525	0.1195	20705	keystroke_o	o	n/a
10.397	0.09	20794	keystroke_v	v	n/a
10.502	0.1495	21004	keystroke_e	e	n/a
10.6215	0.0905	21243	keystroke_r	r	n/a
10.727	0.075	21454	keystroke_Key.space	Key.space	n/a
10.817	0.0895	21634	keystroke_a	a	n/a
10.892	0.1045	21784	keystroke_Key.space	Key.space	n/a
10.9815	0.121	21963	keystroke_l	l	n/a
11.0415	0.1645	22083	keystroke_a	a	n/a
11.146	0.1075	22292	keystroke_z	z	n/a
11.207	0.0765	22414	keystroke_y	y	n/a
11.2545	0.0885	22509	keystroke_Key.space	Key.space	n/a
11.358	0.105	22716	keystroke_d	d	n/a
11.433	0.105	22866	keystroke_o	o	n/a
11.5525	0.09	23105	keystroke_g	g	n/a
11.733	0.0895	23466	keystroke_Key.enter	Key.enter	n/a
11.8325	4.537	23665	prompt	n/a	griffin fork bald ingredients\n
12.4215	0.105	24843	keystroke_f	f	n/a
12.631	0.1205	25262	keystroke_r	r	n/a
12.946	0.075	25892	keystroke_Key.backspace	Key.backspace	n/a
13.11	0.061	26220	keystroke_Key.backspace	Key.backspace	n/a
13.156	0.0915	26312	keystroke_g	g	n/a
13.336	0.105	26672	keystroke_r	r	n/a
13.426	0.09	26852	keystroke_i	i	n/a
13.5905	0.045	27181	keystroke_f	f	n/a
13.711	0.105	27422	keystroke_f	f	n/a
13.831	0.1195	27662	keystroke_i	i	n/a
13.9205	0.09	27841	keystroke_n	n	n/a
14.145	0.1055	28290	keystroke_Key.space	Key.space	n/a
14.2655	0.09	28531	keystroke_f	f	n/a
14.3405	0.1045	28681	keystroke_o	o	n/a
14.446	0.089	28892	keystroke_r	r	n/a
14.49	0.1055	28980	keystroke_k	k	n/a
14.5805	0.076	29161	keystroke_Key.space	Key.space	n/a
14.701	0.06	29402	keystroke_b	b	n/a
14.746	0.12	29492	keystroke_a	a	n/a
14.851	0.1045	29702	keystroke_l	l	n/a
14.926	0.0895	29852	keystroke_d	d	n/a
14.9705	0.105	29941	keystroke_Key.space	Key.space	n/a
15.1205	0.091	30241	keystroke_i	i	n/a
15.1665	0.105	30333	keystroke_n	n	n/a
15.1965	0.09	30393	keystroke_g	g	n/a
15.3615	0.0895	30723	keystroke_r	r	n/a
15.436	0.15	30872	keystroke_e	e	n/a
15.571	0.1205	31142	keystroke_d	d	n/a
15.661	0.0755	31322	keystroke_i	i	n/a
15.7065	0.135	31413	keystroke_e	e	n/a
15.8265	0.0895	31653	keystroke_n	n	n/a
15.8715	0.0895	31743	keystroke_t	t	n/a
16.021	0.12	32042	keystroke_s	s	n/a
16.277	0.09	32554	keystroke_Key.enter	Key.enter	n/a
16.3745	4.5825	32749	prompt	n/a	undefined board guys quick\n
17.9705	0.1355	35941	keystroke_u	u	n/a
18.061	0.1195	36122	keystroke_n	n	n/a
18.3615	0.1345	36723	keystroke_d	d	n/a
18.526	0.1495	37052	keystroke_e	e	n/a
18.6155	0.1355	37231	keystroke_f	f	n/a
18.6905	0.1655	37381	keystroke_i	i	n/a
18.736	0.135	37472	keystroke_n	n	n/a
18.796	0.1195	37592	keystroke_e	e	n/a
18.886	0.1045	37772	keystroke_d	d	n/a
18.9755	0.105	37951	keystroke_Key.space	Key.space	n/a
19.1855	0.045	38371	keystroke_b	b	n/a
19.3355	0.1195	38671	keystroke_o	o	n/a
19.3805	0.1045	38761	keystroke_a	a	n/a
19.47	0.075	38940	keystroke_r	r	n/a
19.65	0.076	39300	keystroke_d	d	n/a
19.68	0.106	39360	keystroke_Key.space	Key.space	n/a
19.8455	0.0905	39691	keystroke_g	g	n/a
19.921	0.1645	39842	keystroke_u	u	n/a
19.9805	0.12	39961	keystroke_y	y	n/a
20.0705	0.0905	40141	keystroke_s	s	n/a
20.206	0.09	40412	keystroke_Key.space	Key.space	n/a
20.341	0.1195	40682	keystroke_q	q	n/a
20.4005	0.12	40801	keystroke_u	u	n/a
20.4755	0.075	40951	keystroke_i	i	n/a
20.6105	0.0905	41221	keystroke_c	c	n/a
20.671	0.0745	41342	keystroke_k	k	n/a
20.8805	0.075	41761	keystroke_Key.enter	Key.enter	n/a
20.961	4.2415	41922	prompt	n/a	minor plus moved evaluated\n
21.5705	0.135	43141	keystroke_m	m	n/a
21.6905	0.105	43381	keystroke_i	i	n/a
21.929	0.106	43858	keystroke_n	n	n/a
22.095	0.1055	44190	keystroke_o	o	n/a
22.1705	0.105	44341	keystroke_r	r	n/a
22.2605	0.105	44521	keystroke_Key.space	Key.space	n/a
22.3355	0.105	44671	keystroke_p	p	n/a
22.56	0.0895	45120	keystroke_l	l	n/a
22.636	0.1045	45272	keystroke_u	u	n/a
22.6805	0.105	45361	keystroke_s	s	n/a
22.7705	0.074	45541	keystroke_Key.space	Key.space	n/a
22.9505	0.1195	45901	keystroke_m	m	n/a
22.965	0.12	45930	keystroke_o	o	n/a
23.025	0.091	46050	keystroke_v	v	n/a
23.146	0.1495	46292	keystroke_e	e	n/a
23.2505	0.105	46501	keystroke_d	d	n/a
23.3105	0.105	46621	keystroke_Key.space	Key.space	n/a
23.52	0.091	47040	keystroke_a	a	n/a
23.865	0.0455	47730	keystroke_Key.backspace	Key.backspace	n/a
23.9405	0.1345	47881	keystroke_e	e	n/a
24.03	0.106	48060	keystroke_v	v	n/a
24.151	0.1045	48302	keystroke_a	a	n/a
24.226	0.1045	48452	keystroke_l	l	n/a
24.2855	0.1045	48571	keystroke_u	u	n/a
24.3755	0.134	48751	keystroke_a	a	n/a
24.4805	0.1205	48961	keystroke_t	t	n/a
24.585	0.1495	49170	keystroke_e	e	n/a
24.7055	0.119	49411	keystroke_d	d	n/a
25.094	0.106	50188	keystroke_Key.enter	Key.enter	n/a
25.2075	4.285	50415	prompt	n/a	stereo rider interactions burn\n
25.7405	0.105	51481	keystroke_s	s	n/a
25.8895	0.12	51779	keystroke_t	t	n/a
26.0245	0.105	52049	keystroke_e	e	n/a
26.1145	0.121	52229	keystroke_r	r	n/a
26.2045	0.1345	52409	keystroke_e	e	n/a
26.5945	0.1065	53189	keystroke_o	o	n/a
26.73	0.1495	53460	keystroke_Key.space	Key.space	n/a
27.0445	0.1205	54089	keystroke_r	r	n/a
27.15	0.075	54300	keystroke_i	i	n/a
27.24	0.12	54480	keystroke_d	d	n/a
27.346	0.1185	54692	keystroke_e	e	n/a
27.4495	0.09	54899	keystroke_r	r	n/a
27.4945	0.1205	54989	keystroke_Key.space	Key.space	n/a
27.616	0.134	55232	keystroke_i	i	n/a
27.69	0.1055	55380	keystroke_n	n	n/a
27.72	0.0905	55440	keystroke_t	t	n/a
27.8255	0.1195	55651	keystroke_e	e	n/a
27.885	0.12	55770	keystroke_r	r	n/a
28.05	0.1205	56100	keystroke_a	a	n/a
28.2305	0.12	56461	keystroke_c	c	n/a
28.485	0.09	56970	keystroke_t	t	n/a
28.545	0.15	57090	keystroke_i	i	n/a
28.59	0.12	57180	keystroke_o	o	n/a
28.635	0.09	57270	keystroke_n	n	n/a
28.68	0.105	57360	keystroke_s	s	n/a
28.845	0.105	57690	keystroke_Key.space	Key.space	n/a
28.92	0.075	57840	keystroke_b	b	n/a
29.0695	0.106	58139	keystroke_u	u	n/a
29.1605	0.075	58321	keystroke_r	r	n/a
29.2655	0.09	58531	keystroke_n	n	n/a
29.3855	0.1045	58771	keystroke_Key.enter	Key.enter	n/a
29.498	4.1785	58996	prompt	n/a	refers phys huge suites\n
30.105	0.0755	60210	keystroke_f	f	n/a
30.45	0.075	60900	keystroke_Key.backspace	Key.backspace	n/a
30.54	0.1205	61080	keystroke_r	r	n/a
30.6455	0.1645	61291	keystroke_e	e	n/a
30.75	0.12	61500	keystroke_f	f	n/a
30.885	0.135	61770	keystroke_e	e	n/a
30.975	0.09	61950	keystroke_r	r	n/a
31.125	0.105	62250	keystroke_s	s	n/a
31.185	0.12	62370	keystroke_Key.space	Key.space	n/a
31.26	0.1045	62520	keystroke_p	p	n/a
31.4695	0.03	62939	keystroke_h	h	n/a
31.62	0.06	63240	keystroke_y	y	n/a
31.8445	0.105	63689	keystroke_s	s	n/a
32.0995	0.0905	64199	keystroke_Key.space	Key.space	n/a
32.3395	0.075	64679	keystroke_h	h	n/a
32.3545	0.135	64709	keystroke_u	u	n/a
32.4295	0.105	64859	keystroke_g	g	n/a
32.4745	0.135	64949	keystroke_e	e	n/a
32.7745	0.12	65549	keystroke_Key.space	Key.space	n/a
32.9095	0.1345	65819	keystroke_s	s	n/a
33.029	0.166	66058	keystroke_u	u	n/a
33.135	0.135	66270	keystroke_i	i	n/a
33.21	0.1345	66420	keystroke_t	t	n/a
33.3145	0.12	66629	keystroke_e	e	n/a
33.5245	0.0905	67049	keystroke_s	s	n/a
33.5695	0.105	67139	keystroke_Key.enter	Key.enter	n/a
33.6825	5.679	67365	prompt	n/a	renewable challenges jessica records\n
34.4845	0.105	68969	keystroke_r	r	n/a
34.7995	0.09	69599	keystroke_e	e	n/a
35.3245	0.105	70649	keystroke_n	n	n/a
35.4595	0.105	70919	keystroke_e	e	n/a
35.4895	0.165	70979	keystroke_w	w	n/a
35.7595	0.12	71519	keystroke_a	a	n/a
35.8195	0.075	71639	keystroke_b	b	n/a
35.969	0.1505	71938	keystroke_l	l	n/a
36.0445	0.12	72089	keystroke_e	e	n/a
36.1495	0.1045	72299	keystroke_Key.space	Key.space	n/a
36.269	0.105	72538	keystroke_c	c	n/a
36.3595	0.0745	72719	keystroke_h	h	n/a
36.449	0.1205	72898	keystroke_a	a	n/a
36.524	0.061	73048	keystroke_l	l	n/a
36.66	0.1195	73320	keystroke_l	l	n/a
36.7645	0.105	73529	keystroke_e	e	n/a
36.8395	0.105	73679	keystroke_n	n	n/a
36.8995	0.09	73799	keystroke_g	g	n/a
36.9745	0.09	73949	keystroke_e	e	n/a
37.1695	0.09	74339	keystroke_s	s	n/a
37.1995	0.12	74399	keystroke_Key.space	Key.space	n/a
37.4845	0.09	74969	keystroke_j	j	n/a
37.5895	0.105	75179	keystroke_e	e	n/a
37.7845	0.06	75569	keystroke_s	s	n/a
37.9045	0.1195	75809	keystroke_s	s	n/a
37.9645	0.1205	75929	keystroke_i	i	n/a
38.101	0.119	76202	keystroke_c	c	n/a
38.175	0.1045	76350	keystroke_a	a	n/a
38.235	0.1045	76470	keystroke_Key.space	Key.space	n/a
38.4145	0.09	76829	keystroke_r	r	n/a
38.4895	0.1505	76979	keystroke_e	e	n/a
38.685	0.1195	77370	keystroke_c	c	n/a
38.8195	0.105	77639	keystroke_o	o	n/a
38.9395	0.06	77879	keystroke_r	r	n/a
39.105	0.104	78210	keystroke_d	d	n/a
39.18	0.105	78360	keystroke_s	s	n/a
39.24	0.119	78480	keystroke_Key.enter	Key.enter	n/a
39.368	4.7645	78736	prompt	n/a	seasonal models blogging alliance\n
39.9895	0.089	79979	keystroke_s	s	n/a
40.1685	0.151	80337	keystroke_e	e	n/a
40.2745	0.18	80549	keystroke_a	a	n/a
40.4085	0.061	80817	keystroke_o	o	n/a
40.4095	0.12	80819	keystroke_s	s	n/a
40.9935	0.0455	81987	keystroke_Key.backspace	Key.backspace	n/a
41.114	0.06	82228	keystroke_Key.backspace	Key.backspace	n/a
41.22	0.12	82440	keystroke_s	s	n/a
41.295	0.0895	82590	keystroke_o	o	n/a
41.325	0.1045	82650	keystroke_n	n	n/a
41.4145	0.12	82829	keystroke_a	a	n/a
41.5195	0.105	83039	keystroke_l	l	n/a
41.6085	0.076	83217	keystroke_Key.space	Key.space	n/a
41.7895	0.09	83579	keystroke_m	m	n/a
41.8195	0.12	83639	keystroke_o	o	n/a
41.8485	0.135	83697	keystroke_d	d	n/a
41.9395	0.1055	83879	keystroke_e	e	n/a
42.03	0.075	84060	keystroke_l	l	n/a
42.135	0.105	84270	keystroke_s	s	n/a
42.209	0.0905	84418	keystroke_Key.space	Key.space	n/a
42.255	0.0735	84510	keystroke_b	b	n/a
42.4645	0.0605	84929	keystroke_l	l	n/a
42.615	0.1035	85230	keystroke_o	o	n/a
42.6735	0.076	85347	keystroke_g	g	n/a
42.8085	0.106	85617	keystroke_g	g	n/a
42.8395	0.105	85679	keystroke_i	i	n/a
42.8985	0.076	85797	keystroke_n	n	n/a
42.9895	0.0755	85979	keystroke_g	g	n/a
43.079	0.105	86158	keystroke_Key.space	Key.space	n/a
43.334	0.0905	86668	keystroke_a	a	n/a
43.4095	0.044	86819	keystroke_l	l	n/a
43.53	0.149	87060	keystroke_l	l	n/a
43.59	0.12	87180	keystroke_i	i	n/a
43.695	0.12	87390	keystroke_a	a	n/a
43.8	0.0895	87600	keystroke_n	n	n/a
43.8735	0.076	87747	keystroke_c	c	n/a
43.9345	0.0745	87869	keystroke_e	e	n/a
44.04	0.089	88080	keystroke_Key.enter	Key.enter	n/a
44.1365	3.2045	88273	prompt	n/a	engaged attach grown tier\n
44.6545	0.12	89309	keystroke_e	e	n/a
44.7295	0.119	89459	keystroke_n	n	n/a
44.8345	0.075	89669	keystroke_g	g	n/a
44.9245	0.1055	89849	keystroke_a	a	n/a
45	0.105	90000	keystroke_g	g	n/a
45.06	0.1645	90120	keystroke_e	e	n/a
45.2095	0.105	90419	keystroke_d	d	n/a
45.2685	0.121	90537	keystroke_Key.space	Key.space	n/a
45.3735	0.1365	90747	keystroke_a	a	n/a
45.465	0.09	90930	keystroke_t	t	n/a
45.615	0.1195	91230	keystroke_t	t	n/a
45.7035	0.151	91407	keystroke_a	a	n/a
45.8695	0.1205	91739	keystroke_c	c	n/a
45.975	0.09	91950	keystroke_h	h	n/a
46.049	0.106	92098	keystroke_Key.space	Key.space	n/a
46.125	0.105	92250	keystroke_g	g	n/a
46.3345	0.105	92669	keystroke_r	r	n/a
46.4845	0.0755	92969	keystroke_o	o	n/a
46.56	0.135	93120	keystroke_w	w	n/a
46.635	0.074	93270	keystroke_n	n	n/a
46.7835	0.12	93567	keystroke_Key.space	Key.space	n/a
46.8445	0.1205	93689	keystroke_t	t	n/a
46.95	0.1045	93900	keystroke_i	i	n/a
47.0245	0.105	94049	keystroke_e	e	n/a
47.0845	0.12	94169	keystroke_r	r	n/a
47.2485	0.091	94497	keystroke_Key.enter	Key.enter	n/a
47.345	5.066	94690	prompt	n/a	iowa eric quilt curriculum\n
48.3295	0.15	96659	keystroke_i	i	n/a
48.4195	0.105	96839	keystroke_o	o	n/a
48.5545	0.12	97109	keystroke_w	w	n/a
48.7345	0.105	97469	keystroke_a	a	n/a
48.8545	0.135	97709	keystroke_Key.space	Key.space	n/a
48.9895	0.12	97979	keystroke_e	e	n/a
49.0645	0.12	98129	keystroke_r	r	n/a
49.1695	0.105	98339	keystroke_i	i	n/a
49.3045	0.105	98609	keystroke_c	c	n/a
49.4245	0.0905	98849	keystroke_Key.space	Key.space	n/a
49.53	0.1345	99060	keystroke_q	q	n/a
49.605	0.1345	99210	keystroke_u	u	n/a
49.6495	0.195	99299	keystroke_i	i	n/a
49.7545	0.135	99509	keystroke_l	l	n/a
49.8445	0.12	99689	keystroke_t	t	n/a
49.9945	0.12	99989	keystroke_Key.space	Key.space	n/a
50.3545	0.135	100709	keystroke_c	c	n/a
50.6395	0.105	101279	keystroke_u	u	n/a
50.7595	0.045	101519	keystroke_r	r	n/a
50.8795	0.09	101759	keystroke_r	r	n/a
50.9395	0.105	101879	keystroke_i	i	n/a
51.1045	0.105	102209	keystroke_c	c	n/a
51.5395	0.195	103079	keystroke_u	u	n/a
51.8845	0.135	103769	keystroke_l	l	n/a
51.9595	0.15	103919	keystroke_u	u	n/a
52.0645	0.12	104129	keystroke_m	m	n/a
52.274	0.1355	104548	keystroke_Key.enter	Key.enter	n/a
52.415	4.9765	104830	prompt	n/a	advanced prices postings beijing\n
52.9795	0.1345	105959	keystroke_a	a	n/a
53.0545	0.1345	106109	keystroke_d	d	n/a
53.5345	0.0895	107069	keystroke_v	v	n/a
53.654	0.135	107308	keystroke_a	a	n/a
53.744	0.105	107488	keystroke_n	n	n/a
53.804	0.135	107608	keystroke_c	c	n/a
53.969	0.15	107938	keystroke_e	e	n/a
54.059	0.135	108118	keystroke_d	d	n/a
54.194	0.09	108388	keystroke_Key.space	Key.space	n/a
54.704	0.105	109408	keystroke_p	p	n/a
54.794	0.09	109588	keystroke_r	r	n/a
54.899	0.105	109798	keystroke_i	i	n/a
55.034	0.12	110068	keystroke_c	c	n/a
55.139	0.105	110278	keystroke_e	e	n/a
55.3345	0.09	110669	keystroke_s	s	n/a
55.4395	0.12	110879	keystroke_Key.space	Key.space	n/a
55.5295	0.135	111059	keystroke_p	p	n/a
55.6045	0.1645	111209	keystroke_o	o	n/a
55.6795	0.135	111359	keystroke_s	s	n/a
55.799	0.1205	111598	keystroke_t	t	n/a
55.8745	0.1045	111749	keystroke_i	i	n/a
55.9345	0.1045	111869	keystroke_n	n	n/a
56.009	0.075	112018	keystroke_g	g	n/a
56.114	0.135	112228	keystroke_s	s	n/a
56.189	0.12	112378	keystroke_Key.space	Key.space	n/a
56.2795	0.0895	112559	keystroke_b	b	n/a
56.459	0.105	112918	keystroke_e	e	n/a
56.549	0.09	113098	keystroke_i	i	n/a
56.714	0.0905	113428	keystroke_j	j	n/a
56.924	0.12	113848	keystroke_i	i	n/a
56.999	0.105	113998	keystroke_n	n	n/a
57.089	0.075	114178	keystroke_g	g	n/a
57.2695	0.12	114539	keystroke_Key.enter	Key.enter	n/a
57.396	4.39	114792	prompt	n/a	elliott desired called hearings\n
57.9745	0.09	115949	keystroke_e	e	n/a
58.109	0.09	116218	keystroke_l	l	n/a
58.2745	0.09	116549	keystroke_l	l	n/a
58.4095	0.1345	116819	keystroke_i	i	n/a
58.4695	0.1045	116939	keystroke_o	o	n/a
58.5595	0.0595	117119	keystroke_t	t	n/a
58.694	0.105	117388	keystroke_t	t	n/a
58.844	0.12	117688	keystroke_Key.space	Key.space	n/a
59.114	0.09	118228	keystroke_d	d	n/a
59.279	0.105	118558	keystroke_e	e	n/a
59.459	0.12	118918	keystroke_s	s	n/a
59.549	0.09	119098	keystroke_i	i	n/a
59.624	0.105	119248	keystroke_r	r	n/a
59.714	0.1205	119428	keystroke_e	e	n/a
60.014	0.105	120028	keystroke_d	d	n/a
60.134	0.105	120268	keystroke_Key.space	Key.space	n/a
60.2545	0.09	120509	keystroke_c	c	n/a
60.3145	0.12	120629	keystroke_a	a	n/a
60.3895	0.06	120779	keystroke_l	l	n/a
60.5395	0.09	121079	keystroke_l	l	n/a
60.5995	0.12	121199	keystroke_e	e	n/a
60.6595	0.12	121319	keystroke_d	d	n/a
60.7345	0.105	121469	keystroke_Key.space	Key.space	n/a
60.8095	0.09	121619	keystroke_h	h	n/a
60.8695	0.18	121739	keystroke_e	e	n/a
60.9145	0.136	121829	keystroke_a	a	n/a
60.9445	0.12	121889	keystroke_r	r	n/a
61.0345	0.135	122069	keystroke_i	i	n/a
61.0945	0.105	122189	keystroke_n	n	n/a
61.1545	0.06	122309	keystroke_g	g	n/a
61.3045	0.1045	122609	keystroke_s	s	n/a
61.679	0.105	123358	keystroke_Key.enter	Key.enter	n/a
61.7915	2.8755	123583	prompt	n/a	opera head sticky fish\n
62.4145	0.135	124829	keystroke_o	o	n/a
62.4745	0.12	124949	keystroke_p	p	n/a
62.5345	0.105	125069	keystroke_e	e	n/a
62.6095	0.1045	125219	keystroke_r	r	n/a
62.699	0.1355	125398	keystroke_a	a	n/a
62.8045	0.09	125609	keystroke_Key.space	Key.space	n/a
63.074	0.105	126148	keystroke_h	h	n/a
63.134	0.1655	126268	keystroke_e	e	n/a
63.194	0.1355	126388	keystroke_a	a	n/a
63.2995	0.09	126599	keystroke_d	d	n/a
63.3145	0.135	126629	keystroke_Key.space	Key.space	n/a
63.4345	0.1345	126869	keystroke_s	s	n/a
63.539	0.105	127078	keystroke_t	t	n/a
63.614	0.09	127228	keystroke_i	i	n/a
63.8095	0.075	127619	keystroke_c	c	n/a
63.8545	0.15	127709	keystroke_k	k	n/a
64.0195	0.075	128039	keystroke_y	y	n/a
64.0795	0.075	128159	keystroke_Key.space	Key.space	n/a
64.1395	0.1045	128279	keystroke_f	f	n/a
64.2145	0.075	128429	keystroke_i	i	n/a
64.3195	0.105	128639	keystroke_s	s	n/a
64.3495	0.09	128699	keystroke_h	h	n/a
64.559	0.105	129118	keystroke_Key.enter	Key.enter	n/a
64.6705	3.7605	129341	prompt	n/a	assumption christmas hopes jesus\n
65.249	0.1355	130498	keystroke_a	a	n/a
65.3395	0.075	130679	keystroke_s	s	n/a
65.4745	0.12	130949	keystroke_s	s	n/a
65.5345	0.135	131069	keystroke_u	u	n/a
65.6545	0.12	131309	keystroke_m	m	n/a
65.7145	0.105	131429	keystroke_p	p	n/a
65.8045	0.1045	131609	keystroke_t	t	n/a
65.864	0.15	131728	keystroke_i	i	n/a
65.924	0.12	131848	keystroke_o	o	n/a
65.984	0.075	131968	keystroke_n	n	n/a
66.149	0.105	132298	keystroke_Key.space	Key.space	n/a
66.239	0.1055	132478	keystroke_c	c	n/a
66.3295	0.075	132659	keystroke_h	h	n/a
66.4345	0.105	132869	keystroke_r	r	n/a
66.5245	0.105	133049	keystroke_i	i	n/a
66.5995	0.15	133199	keystroke_s	s	n/a
66.6895	0.12	133379	keystroke_t	t	n/a
66.7645	0.135	133529	keystroke_m	m	n/a
66.8845	0.135	133769	keystroke_a	a	n/a
66.9445	0.105	133889	keystroke_s	s	n/a
67.0195	0.105	134039	keystroke_Key.space	Key.space	n/a
67.1095	0.105	134219	keystroke_h	h	n/a
67.3345	0.15	134669	keystroke_o	o	n/a
67.4095	0.12	134819	keystroke_p	p	n/a
67.4545	0.12	134909	keystroke_e	e	n/a
67.6495	0.12	135299	keystroke_s	s	n/a
67.7545	0.09	135509	keystroke_Key.space	Key.space	n/a
67.8145	0.105	135629	keystroke_j	j	n/a
67.8895	0.09	135779	keystroke_e	e	n/a
68.0695	0.09	136139	keystroke_s	s	n/a
68.1445	0.075	136289	keystroke_u	u	n/a
68.2345	0.105	136469	keystroke_s	s	n/a
68.3545	0.075	136709	keystroke_Key.enter	Key.enter	n/a
68.436	5.665	136872	prompt	n/a	implementing readers india protected\n
69.104	0.075	138208	keystroke_o	o	n/a
69.119	0.06	138238	keystroke_i	i	n/a
69.509	0.06	139018	keystroke_Key.backspace	Key.backspace	n/a
69.644	0.045	139288	keystroke_Key.backspace	Key.backspace	n/a
69.824	0.105	139648	keystroke_i	i	n/a
69.899	0.105	139798	keystroke_m	m	n/a
70.049	0.12	140098	keystroke_p	p	n/a
70.424	0.09	140848	keystroke_l	l	n/a
70.664	0.12	141328	keystroke_e	e	n/a
70.739	0.105	141478	keystroke_m	m	n/a
70.859	0.135	141718	keystroke_e	e	n/a
70.964	0.09	141928	keystroke_n	n	n/a
71.054	0.15	142108	keystroke_t	t	n/a
71.189	0.1205	142378	keystroke_i	i	n/a
71.264	0.0905	142528	keystroke_n	n	n/a
71.3245	0.105	142649	keystroke_g	g	n/a
71.4445	0.105	142889	keystroke_Key.space	Key.space	n/a
71.5495	0.105	143099	keystroke_r	r	n/a
71.6095	0.225	143219	keystroke_e	e	n/a
71.6695	0.166	143339	keystroke_a	a	n/a
71.8355	0.074	143671	keystroke_d	d	n/a
71.8795	0.15	143759	keystroke_e	e	n/a
71.9845	0.105	143969	keystroke_r	r	n/a
72.1345	0.12	144269	keystroke_s	s	n/a
72.1945	0.105	144389	keystroke_Key.space	Key.space	n/a
72.2695	0.15	144539	keystroke_i	i	n/a
72.3745	0.09	144749	keystroke_n	n	n/a
72.4495	0.1195	144899	keystroke_d	d	n/a
72.554	0.075	145108	keystroke_i	i	n/a
72.629	0.105	145258	keystroke_a	a	n/a
72.839	0.12	145678	keystroke_Key.space	Key.space	n/a
72.974	0.105	145948	keystroke_p	p	n/a
73.049	0.105	146098	keystroke_r	r	n/a
73.139	0.105	146278	keystroke_o	o	n/a
73.229	0.1055	146458	keystroke_t	t	n/a
73.3045	0.135	146609	keystroke_e	e	n/a
73.4845	0.09	146969	keystroke_c	c	n/a
73.694	0.09	147388	keystroke_t	t	n/a
73.769	0.15	147538	keystroke_e	e	n/a
73.904	0.09	147808	keystroke_d	d	n/a
74.009	0.09	148018	keystroke_Key.enter	Key.enter	n/a
74.1065	4.24	148213	prompt	n/a	suburban rope younger webcast\n
74.7295	0.12	149459	keystroke_s	s	n/a
74.8045	0.075	149609	keystroke_u	u	n/a
75.0145	0.075	150029	keystroke_b	b	n/a
75.2395	0.105	150479	keystroke_u	u	n/a
75.3295	0.12	150659	keystroke_r	r	n/a
75.4645	0.075	150929	keystroke_b	b	n/a
75.5695	0.135	151139	keystroke_a	a	n/a
75.689	0.0605	151378	keystroke_n	n	n/a
75.7945	0.09	151589	keystroke_Key.space	Key.space	n/a
75.9745	0.12	151949	keystroke_r	r	n/a
76.0345	0.135	152069	keystroke_o	o	n/a
76.1095	0.105	152219	keystroke_p	p	n/a
76.1845	0.12	152369	keystroke_e	e	n/a
76.2445	0.12	152489	keystroke_Key.space	Key.space	n/a
76.4245	0.1945	152849	keystroke_y	y	n/a
76.529	0.1655	153058	keystroke_o	o	n/a
76.604	0.1505	153208	keystroke_u	u	n/a
76.6955	0.1185	153391	keystroke_n	n	n/a
76.769	0.075	153538	keystroke_g	g	n/a
76.8595	0.1345	153719	keystroke_e	e	n/a
76.964	0.09	153928	keystroke_r	r	n/a
77.039	0.1355	154078	keystroke_Key.space	Key.space	n/a
77.144	0.1055	154288	keystroke_w	w	n/a
77.3245	0.105	154649	keystroke_e	e	n/a
77.3695	0.105	154739	keystroke_b	b	n/a
77.5345	0.105	155069	keystroke_c	c	n/a
77.6545	0.135	155309	keystroke_a	a	n/a
77.7295	0.105	155459	keystroke_s	s	n/a
77.8195	0.1045	155639	keystroke_t	t	n/a
78.2545	0.09	156509	keystroke_Key.enter	Key.enter	n/a
78.3505	3.836	156701	prompt	n/a	heights bean yacht move\n
79.0495	0.09	158099	keystroke_h	h	n/a
79.1545	0.09	158309	keystroke_e	e	n/a
79.2595	0.09	158519	keystroke_i	i	n/a
79.4995	0.12	158999	keystroke_g	g	n/a
79.5745	0.09	159149	keystroke_h	h	n/a
79.6205	0.059	159241	keystroke_t	t	n/a
79.7395	0.105	159479	keystroke_s	s	n/a
79.8295	0.09	159659	keystroke_Key.space	Key.space	n/a
79.8895	0.09	159779	keystroke_b	b	n/a
79.9945	0.15	159989	keystroke_e	e	n/a
80.0545	0.1195	160109	keystroke_a	a	n/a
80.1295	0.1045	160259	keystroke_n	n	n/a
80.1445	0.1495	160289	keystroke_Key.space	Key.space	n/a
80.639	0.105	161278	keystroke_y	y	n/a
80.834	0.12	161668	keystroke_a	a	n/a
81.2395	0.105	162479	keystroke_c	c	n/a
81.3295	0.09	162659	keystroke_h	h	n/a
81.4945	0.09	162989	keystroke_t	t	n/a
81.5695	0.06	163139	keystroke_Key.space	Key.space	n/a
81.7495	0.09	163499	keystroke_m	m	n/a
81.7795	0.135	163559	keystroke_o	o	n/a
81.8545	0.105	163709	keystroke_v	v	n/a
81.9155	0.134	163831	keystroke_e	e	n/a
82.0795	0.1045	164159	keystroke_Key.enter	Key.enter	n/a
82.19	4.241	164380	prompt	n/a	duration dietary decreased rover\n
82.7995	0.1195	165599	keystroke_d	d	n/a
82.889	0.105	165778	keystroke_u	u	n/a
83.114	0.12	166228	keystroke_r	r	n/a
83.264	0.15	166528	keystroke_a	a	n/a
83.354	0.135	166708	keystroke_t	t	n/a
83.429	0.135	166858	keystroke_i	i	n/a
83.474	0.105	166948	keystroke_o	o	n/a
83.534	0.075	167068	keystroke_n	n	n/a
83.684	0.135	167368	keystroke_Key.space	Key.space	n/a
83.804	0.105	167608	keystroke_d	d	n/a
83.894	0.075	167788	keystroke_i	i	n/a
83.984	0.12	167968	keystroke_e	e	n/a
84.044	0.1355	168088	keystroke_t	t	n/a
84.2695	0.12	168539	keystroke_a	a	n/a
84.3145	0.12	168629	keystroke_r	r	n/a
84.3745	0.105	168749	keystroke_y	y	n/a
84.4495	0.12	168899	keystroke_Key.space	Key.space	n/a
84.5845	0.135	169169	keystroke_d	d	n/a
84.6745	0.24	169349	keystroke_e	e	n/a
84.8545	0.135	169709	keystroke_c	c	n/a
85.0945	0.105	170189	keystroke_r	r	n/a
85.1395	0.15	170279	keystroke_e	e	n/a
85.2145	0.195	170429	keystroke_a	a	n/a
85.3795	0.09	170759	keystroke_s	s	n/a
85.5445	0.12	171089	keystroke_e	e	n/a
85.5895	0.105	171179	keystroke_d	d	n/a
85.6495	0.12	171299	keystroke_Key.space	Key.space	n/a
85.7845	0.105	171569	keystroke_r	r	n/a
85.8745	0.105	171749	keystroke_o	o	n/a
85.9945	0.075	171989	keystroke_v	v	n/a
86.1895	0.09	172379	keystroke_e	e	n/a
86.2495	0.09	172499	keystroke_r	r	n/a
86.3545	0.075	172709	keystroke_Key.enter	Key.enter	n/a
86.4365	5.034	172873	prompt	n/a	limitations calculate surplus color\n
87.0145	0.15	174029	keystroke_l	l	n/a
87.1195	0.105	174239	keystroke_i	i	n/a
87.2095	0.06	174419	keystroke_m	m	n/a
87.3295	0.09	174659	keystroke_i	i	n/a
87.6745	0.105	175349	keystroke_t	t	n/a
87.8095	0.15	175619	keystroke_a	a	n/a
87.8845	0.135	175769	keystroke_t	t	n/a
87.9295	0.165	175859	keystroke_i	i	n/a
87.9895	0.12	175979	keystroke_o	o	n/a
88.0345	0.105	176069	keystroke_n	n	n/a
88.1245	0.12	176249	keystroke_s	s	n/a
88.2295	0.135	176459	keystroke_Key.space	Key.space	n/a
88.4095	0.12	176819	keystroke_c	c	n/a
88.5445	0.12	177089	keystroke_a	a	n/a
88.7845	0.09	177569	keystroke_l	l	n/a
88.9795	0.09	177959	keystroke_c	c	n/a
89.0245	0.135	178049	keystroke_u	u	n/a
89.1295	0.12	178259	keystroke_l	l	n/a
89.1895	0.12	178379	keystroke_a	a	n/a
89.2945	0.12	178589	keystroke_t	t	n/a
89.3845	0.135	178769	keystroke_e	e	n/a
89.4745	0.12	178949	keystroke_Key.space	Key.space	n/a
89.6245	0.15	179249	keystroke_s	s	n/a
89.6995	0.09	179399	keystroke_u	u	n/a
89.8795	0.105	179759	keystroke_r	r	n/a
89.9995	0.09	179999	keystroke_p	p	n/a
90.2395	0.12	180479	keystroke_l	l	n/a
90.299	0.1205	180598	keystroke_u	u	n/a
90.3745	0.135	180749	keystroke_s	s	n/a
90.4645	0.1345	180929	keystroke_Key.space	Key.space	n/a
90.629	0.12	181258	keystroke_c	c	n/a
90.704	0.15	181408	keystroke_o	o	n/a
90.989	0.09	181978	keystroke_l	l	n/a
91.184	0.045	182368	keystroke_o	o	n/a
91.214	0.105	182428	keystroke_r	r	n/a
91.379	0.09	182758	keystroke_Key.enter	Key.enter	n/a
91.4765	4.465	182953	prompt	n/a	tile playing monetary supervision\n
92.0845	0.09	184169	keystroke_t	t	n/a
92.3845	0.165	184769	keystroke_i	i	n/a
92.4595	0.135	184919	keystroke_l	l	n/a
92.5795	0.09	185159	keystroke_e	e	n/a
92.6995	0.105	185399	keystroke_Key.space	Key.space	n/a
92.7745	0.09	185549	keystroke_p	p	n/a
92.9995	0.09	185999	keystroke_l	l	n/a
93.1045	0.12	186209	keystroke_a	a	n/a
93.1795	0.09	186359	keystroke_y	y	n/a
93.2395	0.15	186479	keystroke_i	i	n/a
93.4495	0.09	186899	keystroke_n	n	n/a
93.5245	0.105	187049	keystroke_g	g	n/a
93.6145	0.105	187229	keystroke_Key.space	Key.space	n/a
93.8395	0.105	187679	keystroke_m	m	n/a
93.9295	0.12	187859	keystroke_o	o	n/a
94.0645	0.105	188129	keystroke_n	n	n/a
94.1705	0.134	188341	keystroke_e	e	n/a
94.2895	0.105	188579	keystroke_t	t	n/a
94.4395	0.135	188879	keystroke_a	a	n/a
94.4995	0.105	188999	keystroke_r	r	n/a
94.5895	0.075	189179	keystroke_y	y	n/a
94.6345	0.105	189269	keystroke_Key.space	Key.space	n/a
94.7695	0.12	189539	keystroke_s	s	n/a
94.8445	0.105	189689	keystroke_u	u	n/a
94.9045	0.09	189809	keystroke_p	p	n/a
94.9645	0.105	189929	keystroke_e	e	n/a
95.0245	0.1045	190049	keystroke_r	r	n/a
95.234	0.09	190468	keystroke_v	v	n/a
95.339	0.075	190678	keystroke_i	i	n/a
95.429	0.075	190858	keystroke_s	s	n/a
95.505	0.089	191010	keystroke_i	i	n/a
95.534	0.12	191068	keystroke_o	o	n/a
95.609	0.09	191218	keystroke_n	n	n/a
95.819	0.12	191638	keystroke_Key.enter	Key.enter	n/a
95.9475	5.185	191895	prompt	n/a	replies listprice engineers investigate\n
96.524	0.105	193048	keystroke_r	r	n/a
96.599	0.105	193198	keystroke_e	e	n/a
96.824	0.06	193648	keystroke_p	p	n/a
97.019	0.0905	194038	keystroke_l	l	n/a
97.064	0.1055	194128	keystroke_i	i	n/a
97.1245	0.105	194249	keystroke_e	e	n/a
97.5145	0.12	195029	keystroke_s	s	n/a
97.6795	0.105	195359	keystroke_Key.space	Key.space	n/a
97.9045	0.09	195809	keystroke_l	l	n/a
97.9345	0.135	195869	keystroke_i	i	n/a
98.0095	0.15	196019	keystroke_s	s	n/a
98.1295	0.105	196259	keystroke_t	t	n/a
98.2645	0.09	196529	keystroke_p	p	n/a
98.3395	0.105	196679	keystroke_r	r	n/a
98.4595	0.06	196919	keystroke_i	i	n/a
98.5795	0.12	197159	keystroke_c	c	n/a
98.6395	0.135	197279	keystroke_e	e	n/a
98.7295	0.09	197459	keystroke_Key.space	Key.space	n/a
98.8645	0.12	197729	keystroke_e	e	n/a
98.9245	0.105	197849	keystroke_n	n	n/a
99.0305	0.104	198061	keystroke_g	g	n/a
99.1045	0.105	198209	keystroke_i	i	n/a
99.1645	0.09	198329	keystroke_n	n	n/a
99.2395	0.09	198479	keystroke_e	e	n/a
99.3745	0.135	198749	keystroke_e	e	n/a
99.4345	0.12	198869	keystroke_r	r	n/a
99.6295	0.135	199259	keystroke_s	s	n/a
99.7795	0.12	199559	keystroke_Key.space	Key.space	n/a
99.9145	0.135	199829	keystroke_i	i	n/a
100.0045	0.09	200009	keystroke_n	n	n/a
100.0795	0.105	200159	keystroke_v	v	n/a
100.1695	0.12	200339	keystroke_e	e	n/a
100.3795	0.12	200759	keystroke_s	s	n/a
100.4695	0.12	200939	keystroke_t	t	n/a
100.6045	0.075	201209	keystroke_i	i	n/a
100.6805	0.074	201361	keystroke_g	g	n/a
100.7695	0.105	201539	keystroke_a	a	n/a
100.8595	0.09	201719	keystroke_t	t	n/a
100.9195	0.135	201839	keystroke_e	e	n/a
101.0395	0.09	202079	keystroke_Key.enter	Key.enter	n/a
101.137	5.875	202274	prompt	n/a	existence finally sophisticated absence\n
101.8795	0.105	203759	keystroke_e	e	n/a
102.0745	0.12	204149	keystroke_x	x	n/a
102.2095	0.09	204419	keystroke_i	i	n/a
102.2695	0.135	204539	keystroke_s	s	n/a
102.4195	0.12	204839	keystroke_t	t	n/a
102.5095	0.15	205019	keystroke_e	e	n/a
102.5995	0.105	205199	keystroke_n	n	n/a
102.7355	0.089	205471	keystroke_c	c	n/a
102.7795	0.135	205559	keystroke_e	e	n/a
102.8545	0.12	205709	keystroke_Key.space	Key.space	n/a
102.9755	0.074	205951	keystroke_f	f	n/a
103.0205	0.104	206041	keystroke_i	i	n/a
103.0795	0.12	206159	keystroke_n	n	n/a
103.1695	0.075	206339	keystroke_a	a	n/a
103.2455	0.074	206491	keystroke_l	l	n/a
103.3945	0.105	206789	keystroke_l	l	n/a
103.4695	0.075	206939	keystroke_y	y	n/a
103.5145	0.09	207029	keystroke_Key.space	Key.space	n/a
103.6345	0.105	207269	keystroke_s	s	n/a
103.7245	0.105	207449	keystroke_o	o	n/a
103.7405	0.059	207481	keystroke_i	i	n/a
103.7695	0.105	207539	keystroke_p	p	n/a
104.2045	0.06	208409	keystroke_Key.backspace	Key.backspace	n/a
104.3395	0.09	208679	keystroke_Key.backspace	Key.backspace	n/a
104.565	0.074	209130	keystroke_p	p	n/a
104.774	0.105	209548	keystroke_h	h	n/a
104.8345	0.1195	209669	keystroke_i	i	n/a
104.924	0.1355	209848	keystroke_s	s	n/a
105.1795	0.12	210359	keystroke_t	t	n/a
105.3445	0.075	210689	keystroke_i	i	n/a
105.4645	0.0895	210929	keystroke_c	c	n/a
105.5845	0.135	211169	keystroke_a	a	n/a
105.6745	0.121	211349	keystroke_t	t	n/a
105.7795	0.165	211559	keystroke_e	e	n/a
105.9155	0.12	211831	keystroke_d	d	n/a
105.9905	0.104	211981	keystroke_Key.space	Key.space	n/a
106.1245	0.12	212249	keystroke_a	a	n/a
106.2295	0.09	212459	keystroke_b	b	n/a
106.3345	0.09	212669	keystroke_s	s	n/a
106.4995	0.12	212999	keystroke_e	e	n/a
106.5895	0.09	213179	keystroke_n	n	n/a
106.6655	0.104	213331	keystroke_c	c	n/a
106.7405	0.089	213481	keystroke_e	e	n/a
106.8745	0.135	213749	keystroke_Key.enter	Key.enter	n/a
107.016	3.401	214032	prompt	n/a	salem civic repeat genuine\n
107.6845	0.165	215369	keystroke_s	s	n/a
107.7745	0.136	215549	keystroke_a	a	n/a
107.8795	0.0895	215759	keystroke_l	l	n/a
107.999	0.121	215998	keystroke_e	e	n/a
108.089	0.075	216178	keystroke_m	m	n/a
108.2695	0.1195	216539	keystroke_Key.space	Key.space	n/a
108.375	0.119	216750	keystroke_c	c	n/a
108.524	0.075	217048	keystroke_i	i	n/a
108.584	0.106	217168	keystroke_v	v	n/a
108.704	0.09	217408	keystroke_i	i	n/a
108.794	0.1055	217588	keystroke_c	c	n/a
108.914	0.09	217828	keystroke_Key.space	Key.space	n/a
109.034	0.1055	218068	keystroke_r	r	n/a
109.109	0.06	218218	keystroke_e	e	n/a
109.185	0.089	218370	keystroke_p	p	n/a
109.2295	0.24	218459	keystroke_e	e	n/a
109.3345	0.151	218669	keystroke_a	a	n/a
109.424	0.1355	218848	keystroke_t	t	n/a
109.5745	0.09	219149	keystroke_Key.space	Key.space	n/a
109.6955	0.119	219391	keystroke_g	g	n/a
109.7695	0.135	219539	keystroke_e	e	n/a
109.8445	0.15	219689	keystroke_n	n	n/a
109.9495	0.166	219899	keystroke_u	u	n/a
110.0245	0.135	220049	keystroke_i	i	n/a
110.0845	0.12	220169	keystroke_n	n	n/a
110.1745	0.12	220349	keystroke_e	e	n/a
110.3095	0.1045	220619	keystroke_Key.enter	Key.enter	n/a
110.421	3.1155	220842	prompt	n/a	luxury regulation was oven\n
111.1655	0.119	222331	keystroke_l	l	n/a
111.2545	0.09	222509	keystroke_u	u	n/a
111.3455	0.119	222691	keystroke_x	x	n/a
111.4495	0.075	222899	keystroke_u	u	n/a
111.5845	0.105	223169	keystroke_r	r	n/a
111.6445	0.091	223289	keystroke_y	y	n/a
111.7045	0.12	223409	keystroke_Key.space	Key.space	n/a
111.8095	0.106	223619	keystroke_r	r	n/a
111.8845	0.15	223769	keystroke_e	e	n/a
112.0495	0.09	224099	keystroke_g	g	n/a
112.0655	0.134	224131	keystroke_u	u	n/a
112.1545	0.106	224309	keystroke_l	l	n/a
112.2445	0.1345	224489	keystroke_a	a	n/a
112.3045	0.1195	224609	keystroke_t	t	n/a
112.394	0.105	224788	keystroke_i	i	n/a
112.409	0.12	224818	keystroke_o	o	n/a
112.454	0.1055	224908	keystroke_n	n	n/a
112.6195	0.135	225239	keystroke_Key.space	Key.space	n/a
112.6795	0.135	225359	keystroke_w	w	n/a
112.7845	0.1645	225569	keystroke_a	a	n/a
112.889	0.075	225778	keystroke_s	s	n/a
112.965	0.119	225930	keystroke_Key.space	Key.space	n/a
113.039	0.105	226078	keystroke_o	o	n/a
113.114	0.0905	226228	keystroke_v	v	n/a
113.1745	0.1045	226349	keystroke_e	e	n/a
113.25	0.0595	226500	keystroke_n	n	n/a
113.459	0.075	226918	keystroke_Key.enter	Key.enter	n/a
113.542	4.075	227084	prompt	n/a	luther inside artist deck\n
114.1045	0.135	228209	keystroke_l	l	n/a
114.2695	0.075	228539	keystroke_i	i	n/a
114.2855	0.044	228571	keystroke_u	u	n/a
114.8095	0.09	229619	keystroke_Key.backspace	Key.backspace	n/a
114.9595	0.06	229919	keystroke_Key.backspace	Key.backspace	n/a
115.1705	0.089	230341	keystroke_u	u	n/a
115.3045	0.105	230609	keystroke_t	t	n/a
115.3955	0.089	230791	keystroke_h	h	n/a
115.4405	0.149	230881	keystroke_e	e	n/a
115.5295	0.12	231059	keystroke_r	r	n/a
115.6045	0.075	231209	keystroke_Key.space	Key.space	n/a
115.7245	0.151	231449	keystroke_i	i	n/a
115.8145	0.09	231629	keystroke_n	n	n/a
115.8905	0.119	231781	keystroke_s	s	n/a
116.0255	0.09	232051	keystroke_i	i	n/a
116.0995	0.121	232199	keystroke_d	d	n/a
116.1605	0.119	232321	keystroke_e	e	n/a
116.2345	0.135	232469	keystroke_Key.space	Key.space	n/a
116.3545	0.12	232709	keystroke_a	a	n/a
116.4145	0.09	232829	keystroke_r	r	n/a
116.5495	0.105	233099	keystroke_t	t	n/a
116.6245	0.105	233249	keystroke_i	i	n/a
116.6995	0.136	233399	keystroke_s	s	n/a
116.7905	0.104	233581	keystroke_t	t	n/a
116.8645	0.12	233729	keystroke_Key.space	Key.space	n/a
117.0155	0.089	234031	keystroke_d	d	n/a
117.0905	0.194	234181	keystroke_e	e	n/a
117.2405	0.119	234481	keystroke_c	c	n/a
117.2995	0.09	234599	keystroke_k	k	n/a
117.5245	0.091	235049	keystroke_Key.enter	Key.enter	n/a
117.6215	6.97	235243	prompt	n/a	telecommunications brown mistakes achievement\n
118.4545	0.121	236909	keystroke_t	t	n/a
118.5605	0.105	237121	keystroke_e	e	n/a
118.6795	0.076	237359	keystroke_l	l	n/a
118.7245	0.136	237449	keystroke_e	e	n/a
118.8745	0.106	237749	keystroke_c	c	n/a
118.9655	0.134	237931	keystroke_o	o	n/a
119.0405	0.104	238081	keystroke_m	m	n/a
119.1895	0.1205	238379	keystroke_m	m	n/a
119.5495	0.135	239099	keystroke_u	u	n/a
119.6695	0.106	239339	keystroke_n	n	n/a
119.7445	0.12	239489	keystroke_i	i	n/a
119.8045	0.09	239609	keystroke_c	c	n/a
119.9245	0.105	239849	keystroke_a	a	n/a
120.6755	0.12	241351	keystroke_t	t	n/a
120.7795	0.15	241559	keystroke_i	i	n/a
120.8245	0.136	241649	keystroke_o	o	n/a
120.8845	0.121	241769	keystroke_n	n	n/a
120.9755	0.104	241951	keystroke_s	s	n/a
121.1395	0.105	242279	keystroke_Key.space	Key.space	n/a
121.3495	0.046	242699	keystroke_b	b	n/a
121.4095	0.09	242819	keystroke_r	r	n/a
121.5155	0.074	243031	keystroke_o	o	n/a
121.6045	0.105	243209	keystroke_w	w	n/a
121.6795	0.09	243359	keystroke_n	n	n/a
121.7705	0.059	243541	keystroke_Key.space	Key.space	n/a
121.9655	0.09	243931	keystroke_m	m	n/a
121.9945	0.106	243989	keystroke_i	i	n/a
122.0405	0.194	244081	keystroke_s	s	n/a
122.1745	0.09	244349	keystroke_t	t	n/a
122.2355	0.135	244471	keystroke_a	a	n/a
122.3105	0.119	244621	keystroke_k	k	n/a
122.3995	0.09	244799	keystroke_e	e	n/a
122.5945	0.091	245189	keystroke_s	s	n/a
122.6405	0.104	245281	keystroke_Key.space	Key.space	n/a
122.7895	0.15	245579	keystroke_a	a	n/a
122.9105	0.119	245821	keystroke_c	c	n/a
122.9995	0.091	245999	keystroke_h	h	n/a
123.0445	0.12	246089	keystroke_i	i	n/a
123.1045	0.12	246209	keystroke_e	e	n/a
123.1945	0.106	246389	keystroke_v	v	n/a
123.2855	0.089	246571	keystroke_e	e	n/a
123.3445	0.091	246689	keystroke_m	m	n/a
123.4645	0.09	246929	keystroke_e	e	n/a
123.5245	0.12	247049	keystroke_n	n	n/a
123.6005	0.104	247201	keystroke_t	t	n/a
123.7795	0.106	247559	keystroke_Key.space	Key.space	n/a
124.3195	0.075	248639	keystroke_Key.backspace	Key.backspace	n/a
124.4845	0.105	248969	keystroke_Key.enter	Key.enter	n/a
124.596	4.8565	249192	prompt	n/a	hash harry msgid counting\n
125.2195	0.105	250439	keystroke_h	h	n/a
125.2805	0.165	250561	keystroke_a	a	n/a
125.3545	0.135	250709	keystroke_s	s	n/a
125.4595	0.105	250919	keystroke_Key.space	Key.space	n/a
125.9845	0.135	251969	keystroke_Key.backspace	Key.backspace	n/a
127.0655	0.09	254131	keystroke_h	h	n/a
127.2295	0.105	254459	keystroke_Key.space	Key.space	n/a
127.4105	0.089	254821	keystroke_h	h	n/a
127.4545	0.12	254909	keystroke_a	a	n/a
127.5145	0.105	255029	keystroke_r	r	n/a
127.6795	0.106	255359	keystroke_r	r	n/a
127.6945	0.105	255389	keystroke_y	y	n/a
127.7855	0.089	255571	keystroke_Key.space	Key.space	n/a
127.9945	0.076	255989	keystroke_m	m	n/a
128.0105	0.105	256021	keystroke_s	s	n/a
128.1455	0.104	256291	keystroke_g	g	n/a
128.2195	0.105	256439	keystroke_i	i	n/a
128.3395	0.121	256679	keystroke_d	d	n/a
128.4605	0.104	256921	keystroke_Key.space	Key.space	n/a
128.6855	0.135	257371	keystroke_c	c	n/a
128.7605	0.134	257521	keystroke_o	o	n/a
128.7905	0.15	257581	keystroke_u	u	n/a
128.8655	0.104	257731	keystroke_n	n	n/a
128.9545	0.12	257909	keystroke_t	t	n/a
129.0445	0.105	258089	keystroke_i	i	n/a
129.0905	0.119	258181	keystroke_n	n	n/a
129.1795	0.06	258359	keystroke_g	g	n/a
129.3295	0.12	258659	keystroke_Key.enter	Key.enter	n/a
129.457	4.3	258914	prompt	n/a	peninsula edge bodies mobility\n
130.0655	0.105	260131	keystroke_p	p	n/a
130.1555	0.12	260311	keystroke_e	e	n/a
130.2305	0.119	260461	keystroke_n	n	n/a
130.3955	0.15	260791	keystroke_i	i	n/a
130.5155	0.104	261031	keystroke_n	n	n/a
130.6355	0.105	261271	keystroke_s	s	n/a
130.7255	0.15	261451	keystroke_u	u	n/a
130.8455	0.135	261691	keystroke_l	l	n/a
130.9655	0.105	261931	keystroke_a	a	n/a
131.0845	0.15	262169	keystroke_Key.space	Key.space	n/a
131.2195	0.151	262439	keystroke_e	e	n/a
131.3105	0.105	262621	keystroke_d	d	n/a
131.5205	0.104	263041	keystroke_g	g	n/a
131.5945	0.121	263189	keystroke_e	e	n/a
131.6695	0.121	263339	keystroke_Key.space	Key.space	n/a
131.8055	0.075	263611	keystroke_b	b	n/a
131.9255	0.135	263851	keystroke_o	o	n/a
132.0155	0.12	264031	keystroke_d	d	n/a
132.1505	0.135	264301	keystroke_i	i	n/a
132.2405	0.089	264481	keystroke_e	e	n/a
132.419	0.1065	264838	keystroke_s	s	n/a
132.4645	0.09	264929	keystroke_Key.space	Key.space	n/a
132.6745	0.105	265349	keystroke_m	m	n/a
132.7355	0.12	265471	keystroke_o	o	n/a
132.9445	0.06	265889	keystroke_b	b	n/a
133.1105	0.135	266221	keystroke_i	i	n/a
133.1995	0.18	266399	keystroke_l	l	n/a
133.3495	0.106	266699	keystroke_i	i	n/a
133.4405	0.089	266881	keystroke_t	t	n/a
133.5305	0.03	267061	keystroke_y	y	n/a
133.6795	0.075	267359	keystroke_Key.enter	Key.enter	n/a
133.761	4.976	267522	prompt	n/a	herself divx undertaken hence\n
134.4905	0.135	268981	keystroke_h	h	n/a
134.6255	0.15	269251	keystroke_e	e	n/a
134.7155	0.12	269431	keystroke_r	r	n/a
134.9105	0.12	269821	keystroke_s	s	n/a
135.2395	0.105	270479	keystroke_e	e	n/a
135.5405	0.12	271081	keystroke_l	l	n/a
135.6455	0.075	271291	keystroke_f	f	n/a
135.7645	0.121	271529	keystroke_Key.space	Key.space	n/a
136.2295	0.091	272459	keystroke_d	d	n/a
136.3355	0.105	272671	keystroke_i	i	n/a
136.4555	0.09	272911	keystroke_v	v	n/a
136.6945	0.121	273389	keystroke_x	x	n/a
137.0105	0.09	274021	keystroke_Key.space	Key.space	n/a
137.1755	0.12	274351	keystroke_u	u	n/a
137.2355	0.12	274471	keystroke_n	n	n/a
137.2645	0.121	274529	keystroke_d	d	n/a
137.3695	0.136	274739	keystroke_e	e	n/a
137.4755	0.105	274951	keystroke_r	r	n/a
137.6405	0.09	275281	keystroke_t	t	n/a
137.6855	0.12	275371	keystroke_a	a	n/a
137.7905	0.105	275581	keystroke_k	k	n/a
137.8655	0.135	275731	keystroke_e	e	n/a
137.9405	0.104	275881	keystroke_n	n	n/a
138.1205	0.059	276241	keystroke_Key.space	Key.space	n/a
138.1655	0.075	276331	keystroke_h	h	n/a
138.2705	0.135	276541	keystroke_e	e	n/a
138.3905	0.09	276781	keystroke_n	n	n/a
138.4655	0.09	276931	keystroke_c	c	n/a
138.5255	0.12	277051	keystroke_e	e	n/a
138.6305	0.105	277261	keystroke_Key.enter	Key.enter	n/a
138.7415	5.831	277483	prompt	n/a	pipeline highland anything america\n
139.3505	0.12	278701	keystroke_p	p	n/a
139.5295	0.136	279059	keystroke_i	i	n/a
139.6205	0.105	279241	keystroke_p	p	n/a
139.7855	0.06	279571	keystroke_e	e	n/a
140.0995	0.181	280199	keystroke_l	l	n/a
140.1755	0.1505	280351	keystroke_i	i	n/a
140.2655	0.0905	280531	keystroke_n	n	n/a
140.326	0.1045	280652	keystroke_e	e	n/a
140.6105	0.119	281221	keystroke_Key.space	Key.space	n/a
140.8055	0.075	281611	keystroke_h	h	n/a
140.9855	0.105	281971	keystroke_i	i	n/a
141.2855	0.105	282571	keystroke_h	h	n/a
141.9605	0.06	283921	keystroke_Key.backspace	Key.backspace	n/a
142.3205	0.105	284641	keystroke_g	g	n/a
142.3955	0.09	284791	keystroke_h	h	n/a
142.6055	0.09	285211	keystroke_l	l	n/a
142.6805	0.12	285361	keystroke_a	a	n/a
142.7555	0.105	285511	keystroke_n	n	n/a
142.8455	0.12	285691	keystroke_d	d	n/a
142.9505	0.09	285901	keystroke_Key.space	Key.space	n/a
143.0855	0.15	286171	keystroke_a	a	n/a
143.1605	0.12	286321	keystroke_n	n	n/a
143.2505	0.09	286501	keystroke_y	y	n/a
143.3705	0.12	286741	keystroke_t	t	n/a
143.4755	0.105	286951	keystroke_h	h	n/a
143.5055	0.12	287011	keystroke_i	i	n/a
143.5505	0.105	287101	keystroke_n	n	n/a
143.5955	0.09	287191	keystroke_g	g	n/a
143.7455	0.075	287491	keystroke_Key.space	Key.space	n/a
143.8205	0.15	287641	keystroke_a	a	n/a
143.9555	0.075	287911	keystroke_m	m	n/a
144.0305	0.12	288061	keystroke_e	e	n/a
144.1055	0.12	288211	keystroke_r	r	n/a
144.2105	0.09	288421	keystroke_i	i	n/a
144.3455	0.09	288691	keystroke_c	c	n/a
144.3905	0.135	288781	keystroke_a	a	n/a
144.5105	0.06	289021	keystroke_Key.enter	Key.enter	n/a
144.5765	3.4455	289153	prompt	n/a	juice forgot hose headed\n
145.2005	0.09	290401	keystroke_j	j	n/a
145.3955	0.135	290791	keystroke_u	u	n/a
145.4705	0.12	290941	keystroke_i	i	n/a
145.5455	0.105	291091	keystroke_c	c	n/a
145.6055	0.12	291211	keystroke_e	e	n/a
145.6805	0.105	291361	keystroke_Key.space	Key.space	n/a
145.8005	0.12	291601	keystroke_f	f	n/a
145.9355	0.075	291871	keystroke_o	o	n/a
145.9805	0.12	291961	keystroke_r	r	n/a
146.3105	0.105	292621	keystroke_g	g	n/a
146.3855	0.105	292771	keystroke_o	o	n/a
146.5055	0.105	293011	keystroke_t	t	n/a
146.5955	0.09	293191	keystroke_Key.space	Key.space	n/a
146.6255	0.135	293251	keystroke_h	h	n/a
146.7305	0.15	293461	keystroke_o	o	n/a
146.7905	0.105	293581	keystroke_s	s	n/a
146.9555	0.105	293911	keystroke_e	e	n/a
147.0155	0.12	294031	keystroke_Key.space	Key.space	n/a
147.0905	0.12	294181	keystroke_h	h	n/a
147.1655	0.21	294331	keystroke_e	e	n/a
147.2405	0.15	294481	keystroke_a	a	n/a
147.3755	0.075	294751	keystroke_d	d	n/a
147.4655	0.12	294931	keystroke_e	e	n/a
147.5255	0.135	295051	keystroke_d	d	n/a
147.8705	0.15	295741	keystroke_Key.enter	Key.enter	n/a
148.029	3.0535	296058	prompt	n/a	aged property plane cart\n
148.5305	0.105	297061	keystroke_a	a	n/a
148.6205	0.105	297241	keystroke_g	g	n/a
148.7105	0.15	297421	keystroke_e	e	n/a
148.8305	0.12	297661	keystroke_d	d	n/a
148.9055	0.12	297811	keystroke_Key.space	Key.space	n/a
149.0555	0.075	298111	keystroke_p	p	n/a
149.1455	0.105	298291	keystroke_r	r	n/a
149.2055	0.15	298411	keystroke_o	o	n/a
149.2805	0.09	298561	keystroke_p	p	n/a
149.3105	0.12	298621	keystroke_e	e	n/a
149.3855	0.09	298771	keystroke_r	r	n/a
149.5505	0.09	299101	keystroke_t	t	n/a
149.5955	0.09	299191	keystroke_y	y	n/a
149.6555	0.135	299311	keystroke_Key.space	Key.space	n/a
149.8055	0.045	299611	keystroke_p	p	n/a
149.9855	0.075	299971	keystroke_l	l	n/a
150.0305	0.105	300061	keystroke_a	a	n/a
150.1505	0.09	300301	keystroke_n	n	n/a
150.2105	0.09	300421	keystroke_e	e	n/a
150.3305	0.12	300661	keystroke_Key.space	Key.space	n/a
150.5405	0.06	301081	keystroke_c	c	n/a
150.6755	0.12	301351	keystroke_a	a	n/a
150.7805	0.09	301561	keystroke_r	r	n/a
150.9305	0.09	301861	keystroke_t	t	n/a
150.9905	0.09	301981	keystroke_Key.enter	Key.enter	n/a
151.087	5.101	302174	prompt	n/a	fabrics incomplete albums adolescent\n
151.8605	0.06	303721	keystroke_f	f	n/a
151.9655	0.09	303931	keystroke_a	a	n/a
152.0405	0.06	304081	keystroke_b	b	n/a
152.1605	0.09	304321	keystroke_r	r	n/a
152.2355	0.105	304471	keystroke_i	i	n/a
152.3705	0.105	304741	keystroke_c	c	n/a
152.4455	0.105	304891	keystroke_s	s	n/a
152.5205	0.105	305041	keystroke_Key.space	Key.space	n/a
152.6105	0.1355	305221	keystroke_i	i	n/a
152.701	0.105	305402	keystroke_n	n	n/a
152.776	0.1355	305552	keystroke_c	c	n/a
152.8965	0.09	305793	keystroke_o	o	n/a
152.9565	0.075	305913	keystroke_m	m	n/a
153.257	0.0605	306514	keystroke_p	p	n/a
153.437	0.1055	306874	keystroke_l	l	n/a
153.5275	0.1205	307055	keystroke_e	e	n/a
153.6025	0.1205	307205	keystroke_t	t	n/a
153.693	0.12	307386	keystroke_e	e	n/a
153.783	0.1205	307566	keystroke_Key.space	Key.space	n/a
153.9185	0.1045	307837	keystroke_a	a	n/a
153.9485	0.12	307897	keystroke_l	l	n/a
154.2035	0.015	308407	keystroke_b	b	n/a
154.324	0.12	308648	keystroke_u	u	n/a
154.399	0.12	308798	keystroke_m	m	n/a
154.474	0.12	308948	keystroke_s	s	n/a
154.594	0.1355	309188	keystroke_Key.space	Key.space	n/a
154.6695	0.105	309339	keystroke_a	a	n/a
154.7445	0.1355	309489	keystroke_d	d	n/a
154.865	0.1045	309730	keystroke_o	o	n/a
155.12	0.105	310240	keystroke_l	l	n/a
155.24	0.0905	310480	keystroke_e	e	n/a
155.3905	0.12	310781	keystroke_s	s	n/a
155.4955	0.135	310991	keystroke_c	c	n/a
155.6155	0.1055	311231	keystroke_e	e	n/a
155.676	0.075	311352	keystroke_n	n	n/a
155.8715	0.0895	311743	keystroke_t	t	n/a
156.1115	0.075	312223	keystroke_Key.enter	Key.enter	n/a
156.193	4.9065	312386	prompt	n/a	broadband discovered elect stadium\n
156.832	0.06	313664	keystroke_b	b	n/a
156.9525	0.1045	313905	keystroke_r	r	n/a
157.027	0.105	314054	keystroke_o	o	n/a
157.147	0.1355	314294	keystroke_a	a	n/a
157.2525	0.1205	314505	keystroke_d	d	n/a
157.388	0.09	314776	keystroke_b	b	n/a
157.8695	0.105	315739	keystroke_a	a	n/a
157.9435	0.121	315887	keystroke_n	n	n/a
158.0485	0.105	316097	keystroke_d	d	n/a
158.1385	0.1055	316277	keystroke_Key.space	Key.space	n/a
158.26	0.089	316520	keystroke_d	d	n/a
158.32	0.1195	316640	keystroke_i	i	n/a
158.4695	0.1045	316939	keystroke_s	s	n/a
158.7395	0.1055	317479	keystroke_c	c	n/a
158.905	0.0905	317810	keystroke_o	o	n/a
158.95	0.121	317900	keystroke_v	v	n/a
159.115	0.135	318230	keystroke_e	e	n/a
159.206	0.1345	318412	keystroke_r	r	n/a
159.3265	0.134	318653	keystroke_e	e	n/a
159.4305	0.121	318861	keystroke_d	d	n/a
159.5205	0.09	319041	keystroke_Key.space	Key.space	n/a
159.6405	0.0905	319281	keystroke_e	e	n/a
159.746	0.09	319492	keystroke_l	l	n/a
159.791	0.1355	319582	keystroke_e	e	n/a
159.851	0.0905	319702	keystroke_c	c	n/a
160.061	0.0755	320122	keystroke_t	t	n/a
160.1215	0.12	320243	keystroke_Key.space	Key.space	n/a
160.2565	0.1505	320513	keystroke_s	s	n/a
160.377	0.105	320754	keystroke_t	t	n/a
160.467	0.135	320934	keystroke_a	a	n/a
160.587	0.12	321174	keystroke_d	d	n/a
160.647	0.1355	321294	keystroke_i	i	n/a
160.692	0.1205	321384	keystroke_u	u	n/a
160.7835	0.089	321567	keystroke_m	m	n/a
160.978	0.1195	321956	keystroke_Key.enter	Key.enter	n/a
161.105	4.3215	322210	prompt	n/a	conversion wiley gently escorts\n
161.7145	0.1195	323429	keystroke_c	c	n/a
161.79	0.119	323580	keystroke_o	o	n/a
161.879	0.09	323758	keystroke_n	n	n/a
161.925	0.0895	323850	keystroke_v	v	n/a
162.074	0.1355	324148	keystroke_e	e	n/a
162.179	0.0905	324358	keystroke_r	r	n/a
162.3295	0.1205	324659	keystroke_s	s	n/a
162.5395	0.1655	325079	keystroke_i	i	n/a
162.615	0.105	325230	keystroke_o	o	n/a
162.676	0.06	325352	keystroke_n	n	n/a
162.81	0.1205	325620	keystroke_Key.space	Key.space	n/a
162.9315	0.089	325863	keystroke_w	w	n/a
163.0365	0.1345	326073	keystroke_i	i	n/a
163.0805	0.1205	326161	keystroke_l	l	n/a
163.186	0.1205	326372	keystroke_e	e	n/a
163.2915	0.075	326583	keystroke_y	y	n/a
163.3515	0.09	326703	keystroke_Key.space	Key.space	n/a
163.4265	0.12	326853	keystroke_g	g	n/a
163.532	0.135	327064	keystroke_e	e	n/a
163.637	0.09	327274	keystroke_n	n	n/a
163.742	0.1055	327484	keystroke_t	t	n/a
163.802	0.1505	327604	keystroke_l	l	n/a
163.8925	0.105	327785	keystroke_y	y	n/a
163.9525	0.12	327905	keystroke_Key.space	Key.space	n/a
164.0575	0.105	328115	keystroke_e	e	n/a
164.283	0.105	328566	keystroke_s	s	n/a
164.6885	0.105	329377	keystroke_c	c	n/a
164.8085	0.1205	329617	keystroke_o	o	n/a
164.914	0.075	329828	keystroke_r	r	n/a
165.064	0.09	330128	keystroke_t	t	n/a
165.229	0.1055	330458	keystroke_s	s	n/a
165.3195	0.105	330639	keystroke_Key.enter	Key.enter	n/a
165.4305	4.412	330861	prompt	n/a	validity hurricane reaching keyword\n
166.1605	0.09	332321	keystroke_v	v	n/a
166.2655	0.1505	332531	keystroke_a	a	n/a
166.401	0.15	332802	keystroke_l	l	n/a
166.506	0.105	333012	keystroke_i	i	n/a
166.581	0.09	333162	keystroke_d	d	n/a
166.686	0.0755	333372	keystroke_i	i	n/a
166.8065	0.105	333613	keystroke_t	t	n/a
166.8665	0.12	333733	keystroke_y	y	n/a
166.957	0.0895	333914	keystroke_Key.space	Key.space	n/a
167.122	0.09	334244	keystroke_h	h	n/a
167.302	0.1055	334604	keystroke_u	u	n/a
167.3625	0.075	334725	keystroke_r	r	n/a
167.4975	0.105	334995	keystroke_r	r	n/a
167.5725	0.075	335145	keystroke_i	i	n/a
167.723	0.105	335446	keystroke_c	c	n/a
167.813	0.12	335626	keystroke_a	a	n/a
167.873	0.105	335746	keystroke_n	n	n/a
167.993	0.105	335986	keystroke_e	e	n/a
168.083	0.1055	336166	keystroke_Key.space	Key.space	n/a
168.1735	0.105	336347	keystroke_r	r	n/a
168.2335	0.1505	336467	keystroke_e	e	n/a
168.3085	0.0905	336617	keystroke_a	a	n/a
168.429	0.105	336858	keystroke_c	c	n/a
168.4735	0.1355	336947	keystroke_h	h	n/a
168.519	0.135	337038	keystroke_i	i	n/a
168.61	0.074	337220	keystroke_n	n	n/a
168.669	0.1055	337338	keystroke_g	g	n/a
168.7895	0.105	337579	keystroke_Key.space	Key.space	n/a
168.8795	0.12	337759	keystroke_k	k	n/a
168.9695	0.12	337939	keystroke_e	e	n/a
169.18	0.09	338360	keystroke_y	y	n/a
169.3	0.1205	338600	keystroke_w	w	n/a
169.3905	0.1195	338781	keystroke_o	o	n/a
169.465	0.0905	338930	keystroke_r	r	n/a
169.6605	0.0905	339321	keystroke_d	d	n/a
169.7355	0.1055	339471	keystroke_Key.enter	Key.enter	n/a
169.847	4.9385	339694	prompt	n/a	terry zshops reprint build\n
170.4565	0.1055	340913	keystroke_t	t	n/a
170.547	0.15	341094	keystroke_e	e	n/a
170.652	0.1055	341304	keystroke_r	r	n/a
170.8025	0.105	341605	keystroke_r	r	n/a
170.8475	0.12	341695	keystroke_y	y	n/a
170.9375	0.075	341875	keystroke_Key.space	Key.space	n/a
171.0575	0.1355	342115	keystroke_z	z	n/a
171.313	0.105	342626	keystroke_s	s	n/a
171.403	0.06	342806	keystroke_h	h	n/a
171.5985	0.165	343197	keystroke_o	o	n/a
171.6735	0.1355	343347	keystroke_p	p	n/a
171.794	0.0895	343588	keystroke_s	s	n/a
171.929	0.135	343858	keystroke_Key.space	Key.space	n/a
172.3945	0.105	344789	keystroke_r	r	n/a
172.4695	0.1355	344939	keystroke_e	e	n/a
172.575	0.09	345150	keystroke_p	p	n/a
172.65	0.12	345300	keystroke_r	r	n/a
172.755	0.105	345510	keystroke_i	i	n/a
172.8	0.105	345600	keystroke_n	n	n/a
172.86	0.1205	345720	keystroke_t	t	n/a
172.9955	0.12	345991	keystroke_Key.space	Key.space	n/a
173.431	0.12	346862	keystroke_r	r	n/a
173.7765	0.0605	347553	keystroke_Key.backspace	Key.backspace	n/a
174.002	0.045	348004	keystroke_b	b	n/a
174.2125	0.135	348425	keystroke_u	u	n/a
174.2875	0.15	348575	keystroke_i	i	n/a
174.3325	0.135	348665	keystroke_l	l	n/a
174.558	0.135	349116	keystroke_d	d	n/a
174.678	0.105	349356	keystroke_Key.enter	Key.enter	n/a
174.79	3.66	349580	prompt	n/a	asus matthew sean alexandria\n
175.309	0.15	350618	keystroke_a	a	n/a
175.429	0.105	350858	keystroke_s	s	n/a
175.519	0.1055	351038	keystroke_u	u	n/a
175.6095	0.12	351219	keystroke_s	s	n/a
175.6695	0.09	351339	keystroke_Key.space	Key.space	n/a
175.8795	0.075	351759	keystroke_m	m	n/a
175.8945	0.1205	351789	keystroke_a	a	n/a
176	0.09	352000	keystroke_t	t	n/a
176.135	0.105	352270	keystroke_t	t	n/a
176.18	0.1055	352360	keystroke_h	h	n/a
176.3305	0.12	352661	keystroke_e	e	n/a
176.4055	0.12	352811	keystroke_w	w	n/a
176.4655	0.105	352931	keystroke_Key.space	Key.space	n/a
176.631	0.09	353262	keystroke_s	s	n/a
176.796	0.165	353592	keystroke_e	e	n/a
176.841	0.1505	353682	keystroke_a	a	n/a
176.931	0.0905	353862	keystroke_n	n	n/a
176.9765	0.12	353953	keystroke_Key.space	Key.space	n/a
177.2465	0.1055	354493	keystroke_a	a	n/a
177.3365	0.1205	354673	keystroke_l	l	n/a
177.442	0.075	354884	keystroke_e	e	n/a
177.622	0.0905	355244	keystroke_x	x	n/a
177.6825	0.15	355365	keystroke_a	a	n/a
177.8175	0.06	355635	keystroke_n	n	n/a
177.8925	0.075	355785	keystroke_d	d	n/a
178.058	0.105	356116	keystroke_r	r	n/a
178.133	0.09	356266	keystroke_i	i	n/a
178.208	0.1055	356416	keystroke_a	a	n/a
178.3585	0.09	356717	keystroke_Key.enter	Key.enter	n/a
178.455	3.9755	356910	prompt	n/a	jennifer mere voice morrison\n
179.0645	0.09	358129	keystroke_j	j	n/a
179.56	0.1055	359120	keystroke_e	e	n/a
179.65	0.0905	359300	keystroke_n	n	n/a
179.8005	0.12	359601	keystroke_n	n	n/a
179.8755	0.135	359751	keystroke_i	i	n/a
179.9805	0.1055	359961	keystroke_f	f	n/a
180.101	0.135	360202	keystroke_e	e	n/a
180.191	0.12	360382	keystroke_r	r	n/a
180.281	0.09	360562	keystroke_Key.space	Key.space	n/a
180.5065	0.075	361013	keystroke_m	m	n/a
180.5215	0.12	361043	keystroke_e	e	n/a
180.5965	0.1355	361193	keystroke_r	r	n/a
180.687	0.135	361374	keystroke_e	e	n/a
180.7775	0.1195	361555	keystroke_Key.space	Key.space	n/a
180.912	0.12	361824	keystroke_v	v	n/a
181.047	0.1205	362094	keystroke_o	o	n/a
181.1225	0.105	362245	keystroke_i	i	n/a
181.1825	0.12	362365	keystroke_c	c	n/a
181.2425	0.135	362485	keystroke_e	e	n/a
181.3175	0.09	362635	keystroke_Key.space	Key.space	n/a
181.558	0.075	363116	keystroke_m	m	n/a
181.618	0.105	363236	keystroke_o	o	n/a
181.724	0.0595	363448	keystroke_r	r	n/a
181.8285	0.105	363657	keystroke_r	r	n/a
181.9185	0.12	363837	keystroke_i	i	n/a
182.0235	0.1205	364047	keystroke_s	s	n/a
182.0835	0.1205	364167	keystroke_o	o	n/a
182.114	0.12	364228	keystroke_n	n	n/a
182.309	0.12	364618	keystroke_Key.enter	Key.enter	n/a
182.434	3.8425	364868	prompt	n/a	champion common asin sbjct\n
183.075	0.1055	366150	keystroke_c	c	n/a
183.1655	0.09	366331	keystroke_h	h	n/a
183.2705	0.105	366541	keystroke_a	a	n/a
183.3605	0.09	366721	keystroke_m	m	n/a
183.4205	0.1205	366841	keystroke_p	p	n/a
183.571	0.21	367142	keystroke_i	i	n/a
183.676	0.12	367352	keystroke_o	o	n/a
183.751	0.1055	367502	keystroke_n	n	n/a
183.9165	0.105	367833	keystroke_Key.space	Key.space	n/a
184.0065	0.105	368013	keystroke_c	c	n/a
184.0665	0.1205	368133	keystroke_o	o	n/a
184.1565	0.0605	368313	keystroke_m	m	n/a
184.292	0.09	368584	keystroke_m	m	n/a
184.352	0.135	368704	keystroke_o	o	n/a
184.457	0.0905	368914	keystroke_n	n	n/a
184.6225	0.135	369245	keystroke_Key.space	Key.space	n/a
184.6975	0.15	369395	keystroke_a	a	n/a
184.7725	0.1355	369545	keystroke_s	s	n/a
184.8325	0.1205	369665	keystroke_i	i	n/a
184.893	0.12	369786	keystroke_n	n	n/a
185.058	0.105	370116	keystroke_Key.space	Key.space	n/a
185.208	0.1055	370416	keystroke_s	s	n/a
185.2835	0.075	370567	keystroke_b	b	n/a
185.569	0.12	371138	keystroke_j	j	n/a
185.809	0.09	371618	keystroke_c	c	n/a
186.0495	0.09	372099	keystroke_t	t	n/a
186.1545	0.1205	372309	keystroke_Key.enter	Key.enter	n/a
186.2805	3.7365	372561	prompt	n/a	particles biggest mixed theme\n
186.8905	0.1055	373781	keystroke_p	p	n/a
186.9355	0.0905	373871	keystroke_a	a	n/a
187.011	0.09	374022	keystroke_r	r	n/a
187.161	0.09	374322	keystroke_t	t	n/a
187.281	0.0905	374562	keystroke_i	i	n/a
187.4015	0.105	374803	keystroke_c	c	n/a
187.4765	0.12	374953	keystroke_l	l	n/a
187.5665	0.09	375133	keystroke_e	e	n/a
187.732	0.135	375464	keystroke_s	s	n/a
187.852	0.075	375704	keystroke_Key.space	Key.space	n/a
187.912	0.06	375824	keystroke_b	b	n/a
188.0775	0.105	376155	keystroke_i	i	n/a
188.1225	0.075	376245	keystroke_g	g	n/a
188.2425	0.12	376485	keystroke_g	g	n/a
188.3175	0.1055	376635	keystroke_e	e	n/a
188.498	0.15	376996	keystroke_s	s	n/a
188.618	0.1205	377236	keystroke_t	t	n/a
188.678	0.0905	377356	keystroke_Key.space	Key.space	n/a
188.8735	0.075	377747	keystroke_m	m	n/a
188.9035	0.135	377807	keystroke_i	i	n/a
188.9635	0.12	377927	keystroke_x	x	n/a
189.114	0.165	378228	keystroke_e	e	n/a
189.189	0.135	378378	keystroke_d	d	n/a
189.264	0.12	378528	keystroke_Key.space	Key.space	n/a
189.414	0.0905	378828	keystroke_t	t	n/a
189.5055	0.074	379011	keystroke_h	h	n/a
189.5945	0.105	379189	keystroke_e	e	n/a
189.7145	0.0755	379429	keystroke_m	m	n/a
189.7745	0.1055	379549	keystroke_e	e	n/a
189.925	0.09	379850	keystroke_Key.enter	Key.enter	n/a
190.021	3.542	380042	prompt	n/a	villa divine handhelds also\n
190.631	0.075	381262	keystroke_v	v	n/a
190.691	0.105	381382	keystroke_i	i	n/a
190.766	0.0755	381532	keystroke_l	l	n/a
190.9015	0.12	381803	keystroke_l	l	n/a
191.0065	0.09	382013	keystroke_a	a	n/a
191.0665	0.105	382133	keystroke_Key.space	Key.space	n/a
191.2165	0.1205	382433	keystroke_d	d	n/a
191.352	0.075	382704	keystroke_i	i	n/a
191.457	0.09	382914	keystroke_v	v	n/a
191.517	0.1205	383034	keystroke_i	i	n/a
191.6075	0.105	383215	keystroke_n	n	n/a
191.6975	0.12	383395	keystroke_e	e	n/a
191.7875	0.105	383575	keystroke_Key.space	Key.space	n/a
191.938	0.105	383876	keystroke_h	h	n/a
192.058	0.105	384116	keystroke_a	a	n/a
192.178	0.0905	384356	keystroke_n	n	n/a
192.2835	0.09	384567	keystroke_d	d	n/a
192.3885	0.075	384777	keystroke_h	h	n/a
192.5235	0.12	385047	keystroke_e	e	n/a
192.6585	0.0905	385317	keystroke_l	l	n/a
192.764	0.09	385528	keystroke_d	d	n/a
192.824	0.09	385648	keystroke_s	s	n/a
192.884	0.09	385768	keystroke_Key.space	Key.space	n/a
193.0345	0.105	386069	keystroke_a	a	n/a
193.1095	0.06	386219	keystroke_l	l	n/a
193.1995	0.105	386399	keystroke_s	s	n/a
193.2745	0.0905	386549	keystroke_o	o	n/a
193.485	0.075	386970	keystroke_Key.enter	Key.enter	n/a
193.5685	4.47	387137	prompt	n/a	slovak thomas fairly incentive\n
194.2065	0.12	388413	keystroke_s	s	n/a
194.2965	0.089	388593	keystroke_l	l	n/a
194.477	0.09	388954	keystroke_o	o	n/a
194.522	0.12	389044	keystroke_v	v	n/a
194.582	0.135	389164	keystroke_a	a	n/a
194.687	0.1205	389374	keystroke_k	k	n/a
194.7775	0.119	389555	keystroke_Key.space	Key.space	n/a
195.0475	0.03	390095	keystroke_f	f	n/a
195.348	0.075	390696	keystroke_Key.backspace	Key.backspace	n/a
195.438	0.1055	390876	keystroke_t	t	n/a
195.5585	0.135	391117	keystroke_h	h	n/a
195.6635	0.18	391327	keystroke_o	o	n/a
195.7685	0.1355	391537	keystroke_m	m	n/a
195.919	0.135	391838	keystroke_a	a	n/a
196.009	0.15	392018	keystroke_s	s	n/a
196.174	0.0755	392348	keystroke_Key.space	Key.space	n/a
196.2645	0.06	392529	keystroke_f	f	n/a
196.3545	0.12	392709	keystroke_a	a	n/a
196.4145	0.09	392829	keystroke_i	i	n/a
196.5195	0.105	393039	keystroke_r	r	n/a
196.6095	0.0905	393219	keystroke_l	l	n/a
196.6695	0.0905	393339	keystroke_y	y	n/a
196.745	0.075	393490	keystroke_Key.space	Key.space	n/a
196.835	0.135	393670	keystroke_i	i	n/a
196.925	0.0905	393850	keystroke_n	n	n/a
197.2255	0.1505	394451	keystroke_c	c	n/a
197.3455	0.1355	394691	keystroke_e	e	n/a
197.436	0.105	394872	keystroke_n	n	n/a
197.571	0.12	395142	keystroke_t	t	n/a
197.676	0.075	395352	keystroke_i	i	n/a
197.7815	0.09	395563	keystroke_v	v	n/a
197.8565	0.105	395713	keystroke_e	e	n/a
197.9465	0.09	395893	keystroke_Key.enter	Key.enter	n/a
198.0445	4.589	396089	prompt	n/a	sheer officers racing lingerie\n
198.6225	0.135	397245	keystroke_s	s	n/a
198.6975	0.09	397395	keystroke_h	h	n/a
198.848	0.075	397696	keystroke_e	e	n/a
198.998	0.12	397996	keystroke_e	e	n/a
199.073	0.135	398146	keystroke_r	r	n/a
199.148	0.135	398296	keystroke_Key.space	Key.space	n/a
199.268	0.1355	398536	keystroke_o	o	n/a
199.3735	0.105	398747	keystroke_f	f	n/a
199.5535	0.09	399107	keystroke_f	f	n/a
199.6285	0.1205	399257	keystroke_i	i	n/a
199.734	0.09	399468	keystroke_c	c	n/a
199.809	0.15	399618	keystroke_e	e	n/a
199.929	0.09	399858	keystroke_r	r	n/a
200.0495	0.12	400099	keystroke_s	s	n/a
200.1545	0.12	400309	keystroke_Key.space	Key.space	n/a
200.2295	0.105	400459	keystroke_r	r	n/a
200.3195	0.1355	400639	keystroke_a	a	n/a
200.47	0.105	400940	keystroke_c	c	n/a
200.53	0.12	401060	keystroke_i	i	n/a
200.59	0.09	401180	keystroke_n	n	n/a
200.695	0.105	401390	keystroke_g	g	n/a
200.8755	0.135	401751	keystroke_Key.space	Key.space	n/a
201.0405	0.195	402081	keystroke_l	l	n/a
201.1605	0.1355	402321	keystroke_i	i	n/a
201.2205	0.1055	402441	keystroke_n	n	n/a
201.281	0.09	402562	keystroke_g	g	n/a
201.416	0.15	402832	keystroke_e	e	n/a
201.506	0.12	403012	keystroke_r	r	n/a
201.611	0.105	403222	keystroke_i	i	n/a
201.701	0.06	403402	keystroke_e	e	n/a
201.851	0.0905	403702	keystroke_s	s	n/a
202.3015	0.075	404603	keystroke_Key.backspace	Key.backspace	n/a
202.5265	0.105	405053	keystroke_Key.enter	Key.enter	n/a
202.638	3.8945	405276	prompt	n/a	improving david orleans jump\n
203.277	0.1045	406554	keystroke_i	i	n/a
203.3965	0.135	406793	keystroke_m	m	n/a
203.5325	0.119	407065	keystroke_p	p	n/a
203.6365	0.105	407273	keystroke_r	r	n/a
203.7115	0.1345	407423	keystroke_o	o	n/a
203.861	0.105	407722	keystroke_v	v	n/a
203.921	0.1205	407842	keystroke_i	i	n/a
203.981	0.0905	407962	keystroke_n	n	n/a
204.0565	0.105	408113	keystroke_g	g	n/a
204.1765	0.12	408353	keystroke_Key.space	Key.space	n/a
204.356	0.1355	408712	keystroke_d	d	n/a
204.4915	0.09	408983	keystroke_a	a	n/a
204.6115	0.12	409223	keystroke_v	v	n/a
204.6865	0.1195	409373	keystroke_i	i	n/a
204.851	0.105	409702	keystroke_d	d	n/a
204.911	0.105	409822	keystroke_Key.space	Key.space	n/a
205.1365	0.12	410273	keystroke_o	o	n/a
205.2715	0.0895	410543	keystroke_r	r	n/a
205.391	0.09	410782	keystroke_l	l	n/a
205.466	0.1655	410932	keystroke_e	e	n/a
205.5565	0.165	411113	keystroke_a	a	n/a
205.5865	0.075	411173	keystroke_n	n	n/a
205.7365	0.1195	411473	keystroke_s	s	n/a
205.826	0.12	411652	keystroke_Key.space	Key.space	n/a
205.901	0.105	411802	keystroke_j	j	n/a
206.081	0.1055	412162	keystroke_u	u	n/a
206.1565	0.105	412313	keystroke_m	m	n/a
206.2015	0.1045	412403	keystroke_p	p	n/a
206.456	0.075	412912	keystroke_Key.enter	Key.enter	n/a
206.536	3.042	413072	prompt	n/a	town topics tough next\n
207.146	0.09	414292	keystroke_t	t	n/a
207.191	0.1195	414382	keystroke_o	o	n/a
207.3255	0.105	414651	keystroke_w	w	n/a
207.4155	0.0905	414831	keystroke_n	n	n/a
207.491	0.105	414982	keystroke_Key.space	Key.space	n/a
207.611	0.09	415222	keystroke_t	t	n/a
207.671	0.1795	415342	keystroke_o	o	n/a
207.746	0.1345	415492	keystroke_p	p	n/a
207.8655	0.09	415731	keystroke_i	i	n/a
207.9405	0.075	415881	keystroke_c	c	n/a
207.9705	0.1505	415941	keystroke_s	s	n/a
208.091	0.09	416182	keystroke_Key.space	Key.space	n/a
208.226	0.0895	416452	keystroke_t	t	n/a
208.3005	0.12	416601	keystroke_o	o	n/a
208.3455	0.1205	416691	keystroke_u	u	n/a
208.586	0.12	417172	keystroke_g	g	n/a
208.646	0.1345	417292	keystroke_h	h	n/a
208.7655	0.09	417531	keystroke_Key.space	Key.space	n/a
208.9155	0.12	417831	keystroke_n	n	n/a
208.9905	0.0755	417981	keystroke_e	e	n/a
209.141	0.12	418282	keystroke_x	x	n/a
209.3805	0.09	418761	keystroke_t	t	n/a
209.4555	0.12	418911	keystroke_Key.enter	Key.enter	n/a
209.5835	3.653	419167	prompt	n/a	citizen tobago notify later\n
210.1605	0.1345	420321	keystroke_c	c	n/a
210.28	0.06	420560	keystroke_i	i	n/a
210.37	0.09	420740	keystroke_t	t	n/a
210.445	0.0605	420890	keystroke_i	i	n/a
210.5955	0.09	421191	keystroke_z	z	n/a
210.85	0.105	421700	keystroke_e	e	n/a
210.94	0.09	421880	keystroke_n	n	n/a
211	0.1205	422000	keystroke_Key.space	Key.space	n/a
211.1805	0.1345	422361	keystroke_t	t	n/a
211.3	0.075	422600	keystroke_o	o	n/a
211.48	0.075	422960	keystroke_b	b	n/a
211.54	0.09	423080	keystroke_a	a	n/a
211.615	0.12	423230	keystroke_g	g	n/a
211.69	0.12	423380	keystroke_o	o	n/a
211.795	0.105	423590	keystroke_Key.space	Key.space	n/a
212.095	0.1495	424190	keystroke_n	n	n/a
212.185	0.1345	424370	keystroke_o	o	n/a
212.2895	0.1055	424579	keystroke_t	t	n/a
212.41	0.075	424820	keystroke_i	i	n/a
212.5	0.105	425000	keystroke_f	f	n/a
212.575	0.09	425150	keystroke_y	y	n/a
212.635	0.1195	425270	keystroke_Key.space	Key.space	n/a
212.7695	0.135	425539	keystroke_l	l	n/a
212.8145	0.105	425629	keystroke_a	a	n/a
212.8895	0.09	425779	keystroke_t	t	n/a
212.9945	0.105	425989	keystroke_e	e	n/a
213.0695	0.1055	426139	keystroke_r	r	n/a
213.16	0.075	426320	keystroke_Key.enter	Key.enter	n/a
213.242	4.8235	426484	prompt	n/a	highs angola developments vegas\n
213.8795	0.135	427759	keystroke_h	h	n/a
213.9545	0.12	427909	keystroke_i	i	n/a
214.1945	0.12	428389	keystroke_g	g	n/a
214.2545	0.12	428509	keystroke_h	h	n/a
214.3595	0.105	428719	keystroke_s	s	n/a
214.4645	0.105	428929	keystroke_Key.space	Key.space	n/a
214.5845	0.105	429169	keystroke_a	a	n/a
214.6895	0.09	429379	keystroke_n	n	n/a
214.7945	0.105	429589	keystroke_g	g	n/a
214.8695	0.09	429739	keystroke_o	o	n/a
215.0645	0.12	430129	keystroke_l	l	n/a
215.1545	0.1045	430309	keystroke_a	a	n/a
215.1695	0.03	430339	keystroke_Key.space	Key.space	n/a
215.964	0.12	431928	keystroke_d	d	n/a
216.1145	0.1495	432229	keystroke_e	e	n/a
216.2045	0.1495	432409	keystroke_v	v	n/a
216.309	0.12	432618	keystroke_e	e	n/a
216.384	0.105	432768	keystroke_l	l	n/a
216.459	0.105	432918	keystroke_o	o	n/a
216.549	0.06	433098	keystroke_p	p	n/a
216.909	0.09	433818	keystroke_m	m	n/a
217.014	0.1355	434028	keystroke_e	e	n/a
217.1195	0.0895	434239	keystroke_n	n	n/a
217.179	0.075	434358	keystroke_t	t	n/a
217.314	0.09	434628	keystroke_s	s	n/a
217.389	0.12	434778	keystroke_Key.space	Key.space	n/a
217.524	0.105	435048	keystroke_v	v	n/a
217.644	0.1195	435288	keystroke_e	e	n/a
217.7485	0.0905	435497	keystroke_g	g	n/a
217.854	0.105	435708	keystroke_a	a	n/a
217.914	0.12	435828	keystroke_s	s	n/a
217.989	0.075	435978	keystroke_Key.enter	Key.enter	n/a
218.0695	4.6015	436139	prompt	n/a	hardcover passport anna edition\n
218.7235	0.1055	437447	keystroke_h	h	n/a
218.769	0.12	437538	keystroke_a	a	n/a
218.859	0.09	437718	keystroke_r	r	n/a
219.024	0.105	438048	keystroke_d	d	n/a
219.2185	0.105	438437	keystroke_c	c	n/a
219.2935	0.105	438587	keystroke_o	o	n/a
219.4135	0.06	438827	keystroke_v	v	n/a
219.5185	0.1505	439037	keystroke_e	e	n/a
219.624	0.075	439248	keystroke_r	r	n/a
219.654	0.1345	439308	keystroke_Key.space	Key.space	n/a
219.7585	0.12	439517	keystroke_p	p	n/a
219.8335	0.105	439667	keystroke_a	a	n/a
219.9085	0.075	439817	keystroke_s	s	n/a
220.0435	0.105	440087	keystroke_s	s	n/a
220.1185	0.135	440237	keystroke_p	p	n/a
220.1935	0.135	440387	keystroke_o	o	n/a
220.2835	0.105	440567	keystroke_r	r	n/a
220.4635	0.09	440927	keystroke_t	t	n/a
220.5685	0.09	441137	keystroke_Key.space	Key.space	n/a
220.7185	0.105	441437	keystroke_a	a	n/a
220.8085	0.06	441617	keystroke_n	n	n/a
220.9135	0.09	441827	keystroke_n	n	n/a
221.0185	0.105	442037	keystroke_a	a	n/a
221.1085	0.105	442217	keystroke_Key.space	Key.space	n/a
221.1985	0.09	442397	keystroke_a	a	n/a
221.2735	0.105	442547	keystroke_d	d	n/a
221.738	0.06	443476	keystroke_Key.backspace	Key.backspace	n/a
221.873	0.09	443746	keystroke_Key.backspace	Key.backspace	n/a
221.948	0.1205	443896	keystroke_e	e	n/a
222.0385	0.105	444077	keystroke_d	d	n/a
222.1285	0.0895	444257	keystroke_i	i	n/a
222.248	0.0905	444496	keystroke_t	t	n/a
222.293	0.1055	444586	keystroke_i	i	n/a
222.323	0.1205	444646	keystroke_o	o	n/a
222.3835	0.09	444767	keystroke_n	n	n/a
222.5485	0.12	445097	keystroke_Key.enter	Key.enter	n/a
222.676	4.373	445352	prompt	n/a	locking disorders selections highway\n
223.208	0.09	446416	keystroke_l	l	n/a
223.373	0.075	446746	keystroke_o	o	n/a
223.418	0.105	446836	keystroke_c	c	n/a
223.538	0.075	447076	keystroke_k	k	n/a
223.6875	0.12	447375	keystroke_i	i	n/a
223.7475	0.09	447495	keystroke_n	n	n/a
223.7775	0.1055	447555	keystroke_g	g	n/a
223.9125	0.1055	447825	keystroke_Key.space	Key.space	n/a
224.078	0.1045	448156	keystroke_d	d	n/a
224.1675	0.105	448335	keystroke_i	i	n/a
224.2735	0.104	448547	keystroke_s	s	n/a
224.3475	0.15	448695	keystroke_o	o	n/a
224.4375	0.105	448875	keystroke_r	r	n/a
224.6325	0.105	449265	keystroke_d	d	n/a
224.6925	0.18	449385	keystroke_e	e	n/a
224.8275	0.105	449655	keystroke_r	r	n/a
224.9625	0.15	449925	keystroke_s	s	n/a
225.0675	0.1195	450135	keystroke_Key.space	Key.space	n/a
225.217	0.06	450434	keystroke_s	s	n/a
225.3975	0.075	450795	keystroke_e	e	n/a
225.4425	0.09	450885	keystroke_l	l	n/a
225.5475	0.1045	451095	keystroke_e	e	n/a
225.6075	0.0895	451215	keystroke_c	c	n/a
225.787	0.09	451574	keystroke_t	t	n/a
225.847	0.135	451694	keystroke_i	i	n/a
225.877	0.135	451754	keystroke_o	o	n/a
225.937	0.09	451874	keystroke_n	n	n/a
225.997	0.0755	451994	keystroke_s	s	n/a
226.1025	0.1045	452205	keystroke_Key.space	Key.space	n/a
226.162	0.15	452324	keystroke_h	h	n/a
226.252	0.105	452504	keystroke_i	i	n/a
226.462	0.1055	452924	keystroke_g	g	n/a
226.5225	0.105	453045	keystroke_h	h	n/a
226.6125	0.1495	453225	keystroke_w	w	n/a
226.672	0.12	453344	keystroke_a	a	n/a
226.747	0.075	453494	keystroke_y	y	n/a
226.972	0.075	453944	keystroke_Key.enter	Key.enter	n/a
227.054	3.5645	454108	prompt	n/a	suspended steal cause chester\n
227.572	0.12	455144	keystroke_s	s	n/a
227.707	0.075	455414	keystroke_u	u	n/a
227.783	0.119	455566	keystroke_s	s	n/a
227.887	0.09	455774	keystroke_p	p	n/a
227.992	0.09	455984	keystroke_e	e	n/a
228.022	0.1195	456044	keystroke_n	n	n/a
228.1715	0.105	456343	keystroke_d	d	n/a
228.2615	0.135	456523	keystroke_e	e	n/a
228.3515	0.1205	456703	keystroke_d	d	n/a
228.4415	0.1055	456883	keystroke_Key.space	Key.space	n/a
228.562	0.1495	457124	keystroke_s	s	n/a
228.6965	0.1205	457393	keystroke_t	t	n/a
228.7865	0.1505	457573	keystroke_e	e	n/a
228.832	0.15	457664	keystroke_a	a	n/a
228.877	0.135	457754	keystroke_l	l	n/a
228.967	0.1495	457934	keystroke_Key.space	Key.space	n/a
229.1015	0.1055	458203	keystroke_c	c	n/a
229.1765	0.1205	458353	keystroke_a	a	n/a
229.2365	0.1355	458473	keystroke_u	u	n/a
229.357	0.09	458714	keystroke_s	s	n/a
229.522	0.0895	459044	keystroke_e	e	n/a
229.552	0.1645	459104	keystroke_Key.space	Key.space	n/a
229.7015	0.12	459403	keystroke_c	c	n/a
229.8065	0.09	459613	keystroke_h	h	n/a
229.8515	0.135	459703	keystroke_e	e	n/a
230.1515	0.12	460303	keystroke_s	s	n/a
230.2565	0.12	460513	keystroke_t	t	n/a
230.3615	0.12	460723	keystroke_e	e	n/a
230.4515	0.105	460903	keystroke_r	r	n/a
230.5115	0.105	461023	keystroke_Key.enter	Key.enter	n/a
230.622	5.1405	461244	prompt	n/a	citation visitors independently religion\n
231.216	0.105	462432	keystroke_c	c	n/a
231.366	0.105	462732	keystroke_i	i	n/a
231.472	0.089	462944	keystroke_t	t	n/a
231.591	0.135	463182	keystroke_a	a	n/a
231.651	0.105	463302	keystroke_t	t	n/a
231.711	0.15	463422	keystroke_i	i	n/a
231.741	0.135	463482	keystroke_o	o	n/a
231.801	0.09	463602	keystroke_n	n	n/a
231.981	0.09	463962	keystroke_Key.space	Key.space	n/a
232.072	0.074	464144	keystroke_v	v	n/a
232.206	0.075	464412	keystroke_i	i	n/a
232.296	0.105	464592	keystroke_s	s	n/a
232.416	0.09	464832	keystroke_i	i	n/a
232.596	0.09	465192	keystroke_t	t	n/a
232.701	0.09	465402	keystroke_o	o	n/a
232.776	0.105	465552	keystroke_r	r	n/a
232.896	0.105	465792	keystroke_s	s	n/a
232.971	0.0895	465942	keystroke_Key.space	Key.space	n/a
233.1655	0.12	466331	keystroke_i	i	n/a
233.2405	0.09	466481	keystroke_n	n	n/a
233.3005	0.105	466601	keystroke_d	d	n/a
233.3605	0.1205	466721	keystroke_e	e	n/a
233.4655	0.15	466931	keystroke_p	p	n/a
233.6905	0.105	467381	keystroke_e	e	n/a
233.7805	0.12	467561	keystroke_n	n	n/a
233.9005	0.105	467801	keystroke_d	d	n/a
233.9605	0.12	467921	keystroke_e	e	n/a
234.0505	0.105	468101	keystroke_n	n	n/a
234.1565	0.089	468313	keystroke_t	t	n/a
234.2305	0.135	468461	keystroke_l	l	n/a
234.3205	0.09	468641	keystroke_y	y	n/a
234.3665	0.134	468733	keystroke_Key.space	Key.space	n/a
234.9205	0.105	469841	keystroke_r	r	n/a
234.9655	0.1345	469931	keystroke_e	e	n/a
235.085	0.1205	470170	keystroke_l	l	n/a
235.2205	0.075	470441	keystroke_i	i	n/a
235.3105	0.075	470621	keystroke_g	g	n/a
235.3705	0.135	470741	keystroke_i	i	n/a
235.4005	0.12	470801	keystroke_o	o	n/a
235.4605	0.12	470921	keystroke_n	n	n/a
235.625	0.135	471250	keystroke_Key.enter	Key.enter	n/a
235.768	5.4825	471536	prompt	n/a	sofa india arrival reproduce\n
236.285	0.15	472570	keystroke_s	s	n/a
236.42	0.12	472840	keystroke_o	o	n/a
236.51	0.1195	473020	keystroke_f	f	n/a
236.6895	0.12	473379	keystroke_a	a	n/a
236.7945	0.0905	473589	keystroke_Key.space	Key.space	n/a
236.9	0.15	473800	keystroke_i	i	n/a
237.0795	0.12	474159	keystroke_d	d	n/a
237.2145	0.135	474429	keystroke_i	i	n/a
237.3345	0.075	474669	keystroke_a	a	n/a
237.6795	0.075	475359	keystroke_Key.backspace	Key.backspace	n/a
237.8295	0.06	475659	keystroke_Key.backspace	Key.backspace	n/a
237.9645	0.075	475929	keystroke_Key.backspace	Key.backspace	n/a
238.069	0.1055	476138	keystroke_n	n	n/a
238.1745	0.12	476349	keystroke_d	d	n/a
238.2645	0.0905	476529	keystroke_i	i	n/a
238.34	0.105	476680	keystroke_a	a	n/a
238.459	0.1055	476918	keystroke_Key.space	Key.space	n/a
238.6845	0.089	477369	keystroke_a	a	n/a
238.7895	0.209	477579	keystroke_r	r	n/a
238.9835	0.12	477967	keystroke_i	i	n/a
239.5695	0.059	479139	keystroke_Key.backspace	Key.backspace	n/a
239.6895	0.105	479379	keystroke_r	r	n/a
239.8095	0.075	479619	keystroke_i	i	n/a
239.9145	0.089	479829	keystroke_v	v	n/a
239.9895	0.135	479979	keystroke_a	a	n/a
240.0645	0.119	480129	keystroke_l	l	n/a
240.1545	0.12	480309	keystroke_Key.space	Key.space	n/a
240.2895	0.089	480579	keystroke_r	r	n/a
240.3495	0.135	480699	keystroke_e	e	n/a
240.4545	0.1045	480909	keystroke_p	p	n/a
240.574	0.105	481148	keystroke_r	r	n/a
240.649	0.104	481298	keystroke_o	o	n/a
240.769	0.09	481538	keystroke_d	d	n/a
240.844	0.074	481688	keystroke_u	u	n/a
240.964	0.09	481928	keystroke_c	c	n/a
241.008	0.106	482016	keystroke_e	e	n/a
241.129	0.12	482258	keystroke_Key.enter	Key.enter	n/a
241.2555	3.91	482511	prompt	n/a	nightmare iran dollar presenting\n
241.984	0.1045	483968	keystroke_n	n	n/a
242.0435	0.105	484087	keystroke_i	i	n/a
242.269	0.09	484538	keystroke_g	g	n/a
242.314	0.105	484628	keystroke_h	h	n/a
242.373	0.091	484746	keystroke_t	t	n/a
242.5235	0.12	485047	keystroke_m	m	n/a
242.5985	0.135	485197	keystroke_a	a	n/a
242.6585	0.105	485317	keystroke_r	r	n/a
242.7185	0.164	485437	keystroke_e	e	n/a
242.7785	0.135	485557	keystroke_Key.space	Key.space	n/a
242.9285	0.09	485857	keystroke_i	i	n/a
242.9885	0.105	485977	keystroke_r	r	n/a
243.0935	0.12	486187	keystroke_a	a	n/a
243.1685	0.12	486337	keystroke_n	n	n/a
243.2585	0.119	486517	keystroke_Key.space	Key.space	n/a
243.4085	0.12	486817	keystroke_d	d	n/a
243.4835	0.09	486967	keystroke_o	o	n/a
243.6635	0.06	487327	keystroke_l	l	n/a
243.7825	0.106	487565	keystroke_l	l	n/a
243.8285	0.15	487657	keystroke_a	a	n/a
243.9035	0.12	487807	keystroke_r	r	n/a
243.9485	0.09	487897	keystroke_Key.space	Key.space	n/a
244.0085	0.12	488017	keystroke_p	p	n/a
244.0985	0.12	488197	keystroke_r	r	n/a
244.1735	0.09	488347	keystroke_e	e	n/a
244.3535	0.09	488707	keystroke_s	s	n/a
244.5025	0.1055	489005	keystroke_e	e	n/a
244.563	0.105	489126	keystroke_n	n	n/a
244.653	0.105	489306	keystroke_t	t	n/a
244.713	0.105	489426	keystroke_i	i	n/a
244.773	0.12	489546	keystroke_n	n	n/a
244.878	0.09	489756	keystroke_g	g	n/a
245.028	0.135	490056	keystroke_Key.enter	Key.enter	n/a
245.173	3.501	490346	prompt	n/a	keys permitted sole directed\n
245.7185	0.105	491437	keystroke_k	k	n/a
245.8085	0.105	491617	keystroke_e	e	n/a
245.8985	0.09	491797	keystroke_y	y	n/a
246.0185	0.1045	492037	keystroke_s	s	n/a
246.123	0.1205	492246	keystroke_Key.space	Key.space	n/a
246.2285	0.105	492457	keystroke_p	p	n/a
246.3035	0.105	492607	keystroke_e	e	n/a
246.3635	0.105	492727	keystroke_r	r	n/a
246.4385	0.09	492877	keystroke_m	m	n/a
246.4835	0.105	492967	keystroke_i	i	n/a
246.5585	0.0745	493117	keystroke_t	t	n/a
246.693	0.105	493386	keystroke_t	t	n/a
246.768	0.15	493536	keystroke_e	e	n/a
246.888	0.135	493776	keystroke_d	d	n/a
246.978	0.075	493956	keystroke_Key.space	Key.space	n/a
247.173	0.105	494346	keystroke_s	s	n/a
247.248	0.09	494496	keystroke_o	o	n/a
247.443	0.06	494886	keystroke_l	l	n/a
247.488	0.12	494976	keystroke_e	e	n/a
247.593	0.1195	495186	keystroke_Key.space	Key.space	n/a
247.6975	0.105	495395	keystroke_d	d	n/a
247.7875	0.105	495575	keystroke_i	i	n/a
247.8625	0.09	495725	keystroke_r	r	n/a
247.9225	0.18	495845	keystroke_e	e	n/a
248.0725	0.09	496145	keystroke_c	c	n/a
248.2825	0.105	496565	keystroke_t	t	n/a
248.3725	0.135	496745	keystroke_e	e	n/a
248.4775	0.135	496955	keystroke_d	d	n/a
248.5675	0.105	497135	keystroke_Key.enter	Key.enter	n/a
248.6775	4.9445	497355	prompt	n/a	proposal biggest munich popularity\n
249.332	0.075	498664	keystroke_p	p	n/a
249.437	0.075	498874	keystroke_r	r	n/a
249.512	0.12	499024	keystroke_o	o	n/a
249.587	0.18	499174	keystroke_p	p	n/a
249.872	0.12	499744	keystroke_o	o	n/a
249.992	0.105	499984	keystroke_s	s	n/a
250.187	0.105	500374	keystroke_a	a	n/a
250.307	0.12	500614	keystroke_l	l	n/a
250.442	0.105	500884	keystroke_Key.space	Key.space	n/a
250.5915	0.075	501183	keystroke_b	b	n/a
250.8015	0.12	501603	keystroke_i	i	n/a
250.8765	0.075	501753	keystroke_g	g	n/a
250.9965	0.105	501993	keystroke_g	g	n/a
251.0715	0.12	502143	keystroke_e	e	n/a
251.2815	0.15	502563	keystroke_s	s	n/a
251.3865	0.09	502773	keystroke_t	t	n/a
251.4315	0.09	502863	keystroke_Key.space	Key.space	n/a
251.6715	0.105	503343	keystroke_m	m	n/a
251.7915	0.135	503583	keystroke_u	u	n/a
251.9415	0.105	503883	keystroke_n	n	n/a
252.0915	0.135	504183	keystroke_i	i	n/a
252.2115	0.105	504423	keystroke_c	c	n/a
252.3315	0.09	504663	keystroke_h	h	n/a
252.4065	0.1195	504813	keystroke_Key.space	Key.space	n/a
252.511	0.09	505022	keystroke_p	p	n/a
252.646	0.165	505292	keystroke_o	o	n/a
252.736	0.105	505472	keystroke_p	p	n/a
252.8705	0.151	505741	keystroke_u	u	n/a
252.9755	0.12	505951	keystroke_l	l	n/a
253.0055	0.12	506011	keystroke_a	a	n/a
253.0805	0.12	506161	keystroke_r	r	n/a
253.1855	0.09	506371	keystroke_i	i	n/a
253.2905	0.09	506581	keystroke_t	t	n/a
253.3505	0.075	506701	keystroke_y	y	n/a
253.5455	0.075	507091	keystroke_Key.enter	Key.enter	n/a
253.626	4.256	507252	prompt	n/a	increases barbados rough stuck\n
254.175	0.12	508350	keystroke_i	i	n/a
254.235	0.12	508470	keystroke_n	n	n/a
254.266	0.104	508532	keystroke_c	c	n/a
254.46	0.135	508920	keystroke_r	r	n/a
254.55	0.15	509100	keystroke_e	e	n/a
254.625	0.195	509250	keystroke_a	a	n/a
254.775	0.09	509550	keystroke_s	s	n/a
254.94	0.105	509880	keystroke_e	e	n/a
255.091	0.134	510182	keystroke_s	s	n/a
255.195	0.105	510390	keystroke_Key.space	Key.space	n/a
255.27	0.09	510540	keystroke_b	b	n/a
255.315	0.135	510630	keystroke_a	a	n/a
255.405	0.1195	510810	keystroke_r	r	n/a
255.5095	0.06	511019	keystroke_b	b	n/a
255.5845	0.09	511169	keystroke_a	a	n/a
255.6595	0.15	511319	keystroke_d	d	n/a
255.7645	0.09	511529	keystroke_o	o	n/a
255.8695	0.12	511739	keystroke_s	s	n/a
255.9745	0.105	511949	keystroke_Key.space	Key.space	n/a
256.0945	0.105	512189	keystroke_r	r	n/a
256.1695	0.151	512339	keystroke_o	o	n/a
256.2595	0.106	512519	keystroke_u	u	n/a
256.5295	0.031	513059	keystroke_g	g	n/a
256.5445	0.12	513089	keystroke_h	h	n/a
256.949	0.1055	513898	keystroke_Key.space	Key.space	n/a
257.024	0.1505	514048	keystroke_s	s	n/a
257.1145	0.105	514229	keystroke_t	t	n/a
257.1895	0.09	514379	keystroke_u	u	n/a
257.3545	0.09	514709	keystroke_c	c	n/a
257.3995	0.1045	514799	keystroke_k	k	n/a
257.774	0.105	515548	keystroke_Key.enter	Key.enter	n/a
257.8865	3.4145	515773	prompt	n/a	portraits trek punch played\n
258.4495	0.1345	516899	keystroke_p	p	n/a
258.554	0.12	517108	keystroke_o	o	n/a
258.614	0.12	517228	keystroke_r	r	n/a
258.794	0.105	517588	keystroke_t	t	n/a
258.974	0.105	517948	keystroke_r	r	n/a
259.049	0.165	518098	keystroke_a	a	n/a
259.109	0.12	518218	keystroke_i	i	n/a
259.1995	0.0745	518399	keystroke_t	t	n/a
259.304	0.15	518608	keystroke_s	s	n/a
259.424	0.105	518848	keystroke_Key.space	Key.space	n/a
259.514	0.105	519028	keystroke_t	t	n/a
259.694	0.105	519388	keystroke_r	r	n/a
259.754	0.136	519508	keystroke_e	e	n/a
259.814	0.105	519628	keystroke_k	k	n/a
259.904	0.0895	519808	keystroke_Key.space	Key.space	n/a
260.0235	0.12	520047	keystroke_p	p	n/a
260.0835	0.135	520167	keystroke_u	u	n/a
260.1585	0.105	520317	keystroke_n	n	n/a
260.2935	0.1205	520587	keystroke_c	c	n/a
260.3385	0.105	520677	keystroke_h	h	n/a
260.429	0.1045	520858	keystroke_Key.space	Key.space	n/a
260.5185	0.105	521037	keystroke_p	p	n/a
260.7135	0.09	521427	keystroke_l	l	n/a
260.7885	0.09	521577	keystroke_a	a	n/a
260.9085	0.045	521817	keystroke_y	y	n/a
260.9685	0.135	521937	keystroke_e	e	n/a
261.1045	0.104	522209	keystroke_d	d	n/a
261.2235	0.075	522447	keystroke_Key.enter	Key.enter	n/a
261.305	5.904	522610	prompt	n/a	physically why're texture moving\n
261.8695	0.0885	523739	keystroke_p	p	n/a
262.064	0.075	524128	keystroke_h	h	n/a
262.243	0.075	524486	keystroke_y	y	n/a
262.303	0.135	524606	keystroke_s	s	n/a
262.889	0.12	525778	keystroke_i	i	n/a
263.053	0.18	526106	keystroke_c	c	n/a
263.204	0.119	526408	keystroke_a	a	n/a
263.293	0.09	526586	keystroke_l	l	n/a
263.4275	0.09	526855	keystroke_l	l	n/a
263.5925	0.105	527185	keystroke_y	y	n/a
263.6825	0.105	527365	keystroke_Key.space	Key.space	n/a
263.8475	0.105	527695	keystroke_w	w	n/a
263.9225	0.06	527845	keystroke_h	h	n/a
264.0875	0.046	528175	keystroke_y	y	n/a
265.1525	0.09	530305	keystroke_'	'	n/a
265.378	0.1345	530756	keystroke_r	r	n/a
265.4975	0.105	530995	keystroke_e	e	n/a
265.5425	0.12	531085	keystroke_Key.space	Key.space	n/a
265.6775	0.12	531355	keystroke_t	t	n/a
265.7825	0.075	531565	keystroke_e	e	n/a
265.9925	0.075	531985	keystroke_x	x	n/a
266.2025	0.09	532405	keystroke_t	t	n/a
266.2475	0.105	532495	keystroke_u	u	n/a
266.3675	0.105	532735	keystroke_r	r	n/a
266.4275	0.135	532855	keystroke_e	e	n/a
266.4575	0.09	532915	keystroke_Key.space	Key.space	n/a
266.6525	0.09	533305	keystroke_m	m	n/a
266.6825	0.12	533365	keystroke_o	o	n/a
266.7575	0.105	533515	keystroke_v	v	n/a
266.8475	0.105	533695	keystroke_i	i	n/a
266.8925	0.09	533785	keystroke_n	n	n/a
266.9675	0.09	533935	keystroke_g	g	n/a
267.1175	0.09	534235	keystroke_Key.enter	Key.enter	n/a
267.2135	3.669	534427	prompt	n/a	glenn rocky bookstore metres\n
267.7775	0.09	535555	keystroke_g	g	n/a
267.8375	0.105	535675	keystroke_l	l	n/a
267.9575	0.1045	535915	keystroke_e	e	n/a
268.047	0.06	536094	keystroke_n	n	n/a
268.182	0.075	536364	keystroke_n	n	n/a
268.347	0.105	536694	keystroke_Key.space	Key.space	n/a
268.437	0.105	536874	keystroke_r	r	n/a
268.527	0.105	537054	keystroke_o	o	n/a
268.677	0.105	537354	keystroke_c	c	n/a
268.752	0.075	537504	keystroke_k	k	n/a
268.902	0.09	537804	keystroke_y	y	n/a
268.962	0.09	537924	keystroke_Key.space	Key.space	n/a
269.157	0.075	538314	keystroke_b	b	n/a
269.262	0.06	538524	keystroke_o	o	n/a
269.397	0.1345	538794	keystroke_o	o	n/a
269.4865	0.12	538973	keystroke_k	k	n/a
269.5465	0.15	539093	keystroke_s	s	n/a
269.6515	0.12	539303	keystroke_t	t	n/a
269.7565	0.105	539513	keystroke_o	o	n/a
269.8465	0.105	539693	keystroke_r	r	n/a
269.9065	0.165	539813	keystroke_e	e	n/a
269.9815	0.075	539963	keystroke_Key.space	Key.space	n/a
270.1615	0.09	540323	keystroke_m	m	n/a
270.1915	0.135	540383	keystroke_e	e	n/a
270.2965	0.105	540593	keystroke_t	t	n/a
270.4615	0.12	540923	keystroke_r	r	n/a
270.5065	0.105	541013	keystroke_e	e	n/a
270.7015	0.12	541403	keystroke_s	s	n/a
270.7765	0.105	541553	keystroke_Key.enter	Key.enter	n/a
270.8865	9.145	541773	prompt	n/a	your committees implementation jury\n
271.526	0.15	543052	keystroke_y	y	n/a
271.616	0.12	543232	keystroke_o	o	n/a
271.677	0.179	543354	keystroke_u	u	n/a
271.736	0.105	543472	keystroke_r	r	n/a
271.842	0.119	543684	keystroke_Key.space	Key.space	n/a
271.976	0.105	543952	keystroke_c	c	n/a
272.036	0.12	544072	keystroke_o	o	n/a
272.141	0.06	544282	keystroke_m	m	n/a
272.351	0.03	544702	keystroke_m	m	n/a
272.366	0.09	544732	keystroke_i	i	n/a
272.426	0.06	544852	keystroke_t	t	n/a
272.561	0.105	545122	keystroke_t	t	n/a
272.667	0.119	545334	keystroke_e	e	n/a
272.831	0.1195	545662	keystroke_e	e	n/a
273.0255	0.12	546051	keystroke_s	s	n/a
273.1005	0.105	546201	keystroke_Key.space	Key.space	n/a
273.4005	0.135	546801	keystroke_i	i	n/a
273.4905	0.105	546981	keystroke_m	m	n/a
273.5805	0.09	547161	keystroke_p	p	n/a
273.7755	0.09	547551	keystroke_l	l	n/a
273.8355	0.09	547671	keystroke_e	e	n/a
273.9555	0.09	547911	keystroke_n	n	n/a
274.0155	0.135	548031	keystroke_e	e	n/a
274.1205	0.09	548241	keystroke_t	t	n/a
274.2255	0.12	548451	keystroke_a	a	n/a
274.3005	0.12	548601	keystroke_t	t	n/a
274.3605	0.135	548721	keystroke_i	i	n/a
274.4055	0.105	548811	keystroke_o	o	n/a
274.4505	0.075	548901	keystroke_n	n	n/a
274.6155	0.12	549231	keystroke_Key.space	Key.space	n/a
274.6905	0.075	549381	keystroke_j	j	n/a
274.8855	0.1045	549771	keystroke_u	u	n/a
275.005	0.075	550010	keystroke_r	r	n/a
275.095	0.06	550190	keystroke_y	y	n/a
275.74	0.075	551480	keystroke_Key.backspace	Key.backspace	n/a
275.92	0.03	551840	keystroke_Key.backspace	Key.backspace	n/a
276.04	0.06	552080	keystroke_Key.backspace	Key.backspace	n/a
276.19	0.06	552380	keystroke_Key.backspace	Key.backspace	n/a
276.34	0.045	552680	keystroke_Key.backspace	Key.backspace	n/a
276.475	0.045	552950	keystroke_Key.backspace	Key.backspace	n/a
276.64	0.06	553280	keystroke_Key.backspace	Key.backspace	n/a
276.82	0.075	553640	keystroke_Key.backspace	Key.backspace	n/a
277.0595	0.015	554119	keystroke_Key.backspace	Key.backspace	n/a
277.1495	0.06	554299	keystroke_Key.backspace	Key.backspace	n/a
277.3145	0.075	554629	keystroke_Key.backspace	Key.backspace	n/a
277.4645	0.12	554929	keystroke_Key.backspace	Key.backspace	n/a
277.7045	0.075	555409	keystroke_t	t	n/a
277.8095	0.15	555619	keystroke_a	a	n/a
277.8845	0.12	555769	keystroke_t	t	n/a
277.9445	0.18	555889	keystroke_i	i	n/a
277.9895	0.135	555979	keystroke_o	o	n/a
278.0495	0.105	556099	keystroke_n	n	n/a
278.2295	0.105	556459	keystroke_Key.space	Key.space	n/a
279.249	0.075	558498	keystroke_j	j	n/a
279.444	0.0755	558888	keystroke_u	u	n/a
279.504	0.075	559008	keystroke_r	r	n/a
279.639	0.075	559278	keystroke_y	y	n/a
279.924	0.105	559848	keystroke_Key.enter	Key.enter	n/a
280.0355	3.9545	560071	prompt	n/a	interest bras ascii surgical\n
280.6135	0.135	561227	keystroke_i	i	n/a
280.6885	0.135	561377	keystroke_n	n	n/a
280.7785	0.12	561557	keystroke_t	t	n/a
280.8685	0.285	561737	keystroke_e	e	n/a
280.974	0.1195	561948	keystroke_r	r	n/a
281.4085	0.09	562817	keystroke_e	e	n/a
281.5885	0.15	563177	keystroke_s	s	n/a
281.7085	0.12	563417	keystroke_t	t	n/a
281.7835	0.12	563567	keystroke_Key.space	Key.space	n/a
281.8735	0.12	563747	keystroke_b	b	n/a
281.9485	0.105	563897	keystroke_r	r	n/a
282.0385	0.135	564077	keystroke_a	a	n/a
282.1285	0.135	564257	keystroke_s	s	n/a
282.2335	0.105	564467	keystroke_Key.space	Key.space	n/a
282.3085	0.135	564617	keystroke_a	a	n/a
282.3985	0.135	564797	keystroke_s	s	n/a
282.5185	0.1195	565037	keystroke_c	c	n/a
282.623	0.075	565246	keystroke_i	i	n/a
282.788	0.09	565576	keystroke_i	i	n/a
282.863	0.105	565726	keystroke_Key.space	Key.space	n/a
282.923	0.12	565846	keystroke_s	s	n/a
283.058	0.09	566116	keystroke_u	u	n/a
283.133	0.09	566266	keystroke_r	r	n/a
283.328	0.105	566656	keystroke_g	g	n/a
283.418	0.105	566836	keystroke_i	i	n/a
283.538	0.09	567076	keystroke_c	c	n/a
283.583	0.12	567166	keystroke_a	a	n/a
283.643	0.09	567286	keystroke_l	l	n/a
283.883	0.105	567766	keystroke_Key.enter	Key.enter	n/a
283.994	4.0745	567988	prompt	n/a	notion phase hanging musicians\n
284.6475	0.105	569295	keystroke_n	n	n/a
284.7225	0.09	569445	keystroke_o	o	n/a
284.7975	0.09	569595	keystroke_t	t	n/a
284.9325	0.135	569865	keystroke_i	i	n/a
284.9625	0.121	569925	keystroke_o	o	n/a
285.0225	0.105	570045	keystroke_n	n	n/a
285.2025	0.165	570405	keystroke_Key.space	Key.space	n/a
285.2625	0.09	570525	keystroke_p	p	n/a
285.472	0.105	570944	keystroke_h	h	n/a
285.5475	0.1345	571095	keystroke_a	a	n/a
285.622	0.105	571244	keystroke_s	s	n/a
285.787	0.135	571574	keystroke_e	e	n/a
285.892	0.12	571784	keystroke_Key.space	Key.space	n/a
285.982	0.09	571964	keystroke_h	h	n/a
286.057	0.12	572114	keystroke_a	a	n/a
286.178	0.104	572356	keystroke_n	n	n/a
286.267	0.09	572534	keystroke_g	g	n/a
286.312	0.12	572624	keystroke_i	i	n/a
286.387	0.075	572774	keystroke_n	n	n/a
286.447	0.09	572894	keystroke_g	g	n/a
286.538	0.089	573076	keystroke_Key.space	Key.space	n/a
286.762	0.075	573524	keystroke_m	m	n/a
286.807	0.105	573614	keystroke_u	u	n/a
286.867	0.135	573734	keystroke_s	s	n/a
287.017	0.09	574034	keystroke_i	i	n/a
287.107	0.105	574214	keystroke_c	c	n/a
287.197	0.09	574394	keystroke_i	i	n/a
287.272	0.12	574544	keystroke_a	a	n/a
287.362	0.105	574724	keystroke_n	n	n/a
287.452	0.09	574904	keystroke_s	s	n/a
287.947	0.1195	575894	keystroke_Key.enter	Key.enter	n/a
288.074	4.4335	576148	prompt	n/a	inspector upon outsourcing maintaining\n
288.7415	0.12	577483	keystroke_i	i	n/a
288.8165	0.105	577633	keystroke_n	n	n/a
288.8915	0.12	577783	keystroke_s	s	n/a
288.9965	0.12	577993	keystroke_p	p	n/a
289.0865	0.135	578173	keystroke_e	e	n/a
289.1615	0.105	578323	keystroke_c	c	n/a
289.3565	0.105	578713	keystroke_t	t	n/a
289.4465	0.09	578893	keystroke_o	o	n/a
289.5375	0.104	579075	keystroke_r	r	n/a
289.6115	0.105	579223	keystroke_Key.space	Key.space	n/a
289.7015	0.105	579403	keystroke_u	u	n/a
289.8215	0.15	579643	keystroke_p	p	n/a
289.9265	0.1345	579853	keystroke_o	o	n/a
290.016	0.105	580032	keystroke_n	n	n/a
290.196	0.12	580392	keystroke_Key.space	Key.space	n/a
290.271	0.135	580542	keystroke_o	o	n/a
290.346	0.135	580692	keystroke_u	u	n/a
290.391	0.105	580782	keystroke_t	t	n/a
290.571	0.105	581142	keystroke_s	s	n/a
290.661	0.12	581322	keystroke_o	o	n/a
290.706	0.12	581412	keystroke_u	u	n/a
290.766	0.105	581532	keystroke_r	r	n/a
290.976	0.105	581952	keystroke_c	c	n/a
291.021	0.105	582042	keystroke_i	i	n/a
291.052	0.104	582104	keystroke_n	n	n/a
291.171	0.09	582342	keystroke_g	g	n/a
291.246	0.075	582492	keystroke_Key.space	Key.space	n/a
291.426	0.105	582852	keystroke_m	m	n/a
291.516	0.12	583032	keystroke_a	a	n/a
291.621	0.105	583242	keystroke_i	i	n/a
291.651	0.12	583302	keystroke_n	n	n/a
291.741	0.105	583482	keystroke_t	t	n/a
291.831	0.12	583662	keystroke_a	a	n/a
291.891	0.12	583782	keystroke_i	i	n/a
291.966	0.12	583932	keystroke_n	n	n/a
292.116	0.105	584232	keystroke_i	i	n/a
292.191	0.12	584382	keystroke_n	n	n/a
292.281	0.075	584562	keystroke_g	g	n/a
292.416	0.0895	584832	keystroke_Key.enter	Key.enter	n/a
292.5115	6.9985	585023	prompt	n/a	psychological mason detailed forgotten\n
293.0305	0.09	586061	keystroke_p	p	n/a
293.2255	0.075	586451	keystroke_h	h	n/a
293.4055	0.075	586811	keystroke_y	y	n/a
294.3805	0.0445	588761	keystroke_Key.backspace	Key.backspace	n/a
294.515	0.075	589030	keystroke_Key.backspace	Key.backspace	n/a
294.785	0.121	589570	keystroke_s	s	n/a
294.995	0.075	589990	keystroke_y	y	n/a
295.4595	0.105	590919	keystroke_c	c	n/a
295.5795	0.105	591159	keystroke_h	h	n/a
295.8795	0.105	591759	keystroke_o	o	n/a
296.0895	0.09	592179	keystroke_l	l	n/a
296.2845	0.09	592569	keystroke_o	o	n/a
296.3445	0.0895	592689	keystroke_g	g	n/a
296.45	0.119	592900	keystroke_i	i	n/a
296.554	0.12	593108	keystroke_c	c	n/a
296.614	0.15	593228	keystroke_a	a	n/a
296.689	0.105	593378	keystroke_l	l	n/a
296.765	0.089	593530	keystroke_Key.space	Key.space	n/a
296.959	0.09	593918	keystroke_m	m	n/a
296.989	0.12	593978	keystroke_a	a	n/a
297.064	0.105	594128	keystroke_s	s	n/a
297.124	0.0905	594248	keystroke_o	o	n/a
297.154	0.0905	594308	keystroke_n	n	n/a
297.3345	0.1045	594669	keystroke_Key.space	Key.space	n/a
297.439	0.135	594878	keystroke_d	d	n/a
297.544	0.15	595088	keystroke_e	e	n/a
297.664	0.12	595328	keystroke_t	t	n/a
297.769	0.135	595538	keystroke_a	a	n/a
297.859	0.12	595718	keystroke_i	i	n/a
297.874	0.135	595748	keystroke_l	l	n/a
297.964	0.135	595928	keystroke_e	e	n/a
298.039	0.12	596078	keystroke_d	d	n/a
298.114	0.105	596228	keystroke_Key.space	Key.space	n/a
298.249	0.09	596498	keystroke_f	f	n/a
298.369	0.09	596738	keystroke_o	o	n/a
298.414	0.09	596828	keystroke_r	r	n/a
298.594	0.09	597188	keystroke_g	g	n/a
298.669	0.09	597338	keystroke_o	o	n/a
298.789	0.045	597578	keystroke_t	t	n/a
298.909	0.105	597818	keystroke_t	t	n/a
298.999	0.12	597998	keystroke_e	e	n/a
299.1335	0.105	598267	keystroke_n	n	n/a
299.4035	0.105	598807	keystroke_Key.enter	Key.enter	n/a
299.514	4.8105	599028	prompt	n/a	britney organizational updated feelings\n
300.1235	0.045	600247	keystroke_b	b	n/a
300.3785	0.105	600757	keystroke_r	r	n/a
300.4985	0.105	600997	keystroke_i	i	n/a
300.6185	0.105	601237	keystroke_t	t	n/a
300.7085	0.12	601417	keystroke_n	n	n/a
300.8135	0.12	601627	keystroke_e	e	n/a
300.9185	0.12	601837	keystroke_y	y	n/a
301.0085	0.12	602017	keystroke_Key.space	Key.space	n/a
301.2635	0.135	602527	keystroke_o	o	n/a
301.3535	0.0895	602707	keystroke_r	r	n/a
301.533	0.09	603066	keystroke_g	g	n/a
301.638	0.15	603276	keystroke_a	a	n/a
301.773	0.135	603546	keystroke_n	n	n/a
301.893	0.09	603786	keystroke_i	i	n/a
301.953	0.18	603906	keystroke_z	z	n/a
302.103	0.195	604206	keystroke_a	a	n/a
302.268	0.12	604536	keystroke_t	t	n/a
302.328	0.135	604656	keystroke_i	i	n/a
302.358	0.12	604716	keystroke_o	o	n/a
302.418	0.105	604836	keystroke_n	n	n/a
302.508	0.12	605016	keystroke_a	a	n/a
302.613	0.105	605226	keystroke_l	l	n/a
302.703	0.06	605406	keystroke_Key.space	Key.space	n/a
302.808	0.105	605616	keystroke_u	u	n/a
302.868	0.105	605736	keystroke_p	p	n/a
302.928	0.12	605856	keystroke_d	d	n/a
303.033	0.12	606066	keystroke_a	a	n/a
303.123	0.105	606246	keystroke_t	t	n/a
303.198	0.165	606396	keystroke_e	e	n/a
303.333	0.105	606666	keystroke_d	d	n/a
303.393	0.12	606786	keystroke_Key.space	Key.space	n/a
303.528	0.09	607056	keystroke_f	f	n/a
303.573	0.0895	607146	keystroke_e	e	n/a
303.7375	0.1055	607475	keystroke_e	e	n/a
303.7825	0.12	607565	keystroke_l	l	n/a
303.8575	0.135	607715	keystroke_i	i	n/a
303.8875	0.09	607775	keystroke_n	n	n/a
303.9475	0.06	607895	keystroke_g	g	n/a
304.0975	0.105	608195	keystroke_s	s	n/a
304.2175	0.105	608435	keystroke_Key.enter	Key.enter	n/a
304.331	5.1375	608662	prompt	n/a	prints tires defeat sexuality\n
304.9825	0.09	609965	keystroke_p	p	n/a
305.0575	0.12	610115	keystroke_r	r	n/a
305.1625	0.12	610325	keystroke_i	i	n/a
305.2225	0.1045	610445	keystroke_n	n	n/a
305.2675	0.0895	610535	keystroke_t	t	n/a
305.402	0.135	610804	keystroke_s	s	n/a
305.522	0.105	611044	keystroke_Key.space	Key.space	n/a
305.702	0.12	611404	keystroke_t	t	n/a
305.807	0.09	611614	keystroke_i	i	n/a
305.882	0.12	611764	keystroke_r	r	n/a
305.957	0.18	611914	keystroke_e	e	n/a
306.107	0.12	612214	keystroke_d	d	n/a
306.557	0.075	613114	keystroke_Key.backspace	Key.backspace	n/a
306.692	0.12	613384	keystroke_s	s	n/a
306.857	0.105	613714	keystroke_Key.space	Key.space	n/a
307.007	0.105	614014	keystroke_d	d	n/a
307.232	0.165	614464	keystroke_e	e	n/a
307.352	0.105	614704	keystroke_f	f	n/a
307.517	0.165	615034	keystroke_e	e	n/a
307.8615	0.12	615723	keystroke_a	a	n/a
307.9665	0.105	615933	keystroke_t	t	n/a
308.0865	0.09	616173	keystroke_Key.space	Key.space	n/a
308.1915	0.12	616383	keystroke_s	s	n/a
308.3715	0.09	616743	keystroke_e	e	n/a
308.5665	0.105	617133	keystroke_x	x	n/a
308.6415	0.06	617283	keystroke_u	u	n/a
308.7315	0.105	617463	keystroke_a	a	n/a
308.8065	0.15	617613	keystroke_l	l	n/a
308.8965	0.105	617793	keystroke_i	i	n/a
308.9715	0.09	617943	keystroke_t	t	n/a
309.0915	0.09	618183	keystroke_y	y	n/a
309.376	0.09	618752	keystroke_Key.enter	Key.enter	n/a
309.474	4.4925	618948	prompt	n/a	stanley principal reached hazards\n
310.066	0.15	620132	keystroke_s	s	n/a
310.231	0.0745	620462	keystroke_t	t	n/a
310.2605	0.135	620521	keystroke_a	a	n/a
310.3505	0.135	620701	keystroke_n	n	n/a
310.4855	0.165	620971	keystroke_l	l	n/a
310.5755	0.12	621151	keystroke_e	e	n/a
310.6655	0.075	621331	keystroke_y	y	n/a
310.7105	0.105	621421	keystroke_Key.space	Key.space	n/a
310.8755	0.12	621751	keystroke_p	p	n/a
310.9505	0.12	621901	keystroke_r	r	n/a
311.2355	0.12	622471	keystroke_i	i	n/a
311.3105	0.12	622621	keystroke_n	n	n/a
311.4155	0.105	622831	keystroke_c	c	n/a
311.5505	0.12	623101	keystroke_i	i	n/a
311.7305	0.09	623461	keystroke_p	p	n/a
311.8505	0.12	623701	keystroke_a	a	n/a
311.9555	0.135	623911	keystroke_l	l	n/a
312.0755	0.12	624151	keystroke_Key.space	Key.space	n/a
312.2105	0.105	624421	keystroke_r	r	n/a
312.3005	0.21	624601	keystroke_e	e	n/a
312.3605	0.165	624721	keystroke_a	a	n/a
312.4805	0.12	624961	keystroke_c	c	n/a
312.6155	0.075	625231	keystroke_h	h	n/a
312.6755	0.15	625351	keystroke_e	e	n/a
312.7505	0.135	625501	keystroke_d	d	n/a
312.8555	0.075	625711	keystroke_Key.space	Key.space	n/a
312.9005	0.12	625801	keystroke_h	h	n/a
312.9905	0.18	625981	keystroke_a	a	n/a
313.1555	0.12	626311	keystroke_z	z	n/a
313.44	0.15	626880	keystroke_a	a	n/a
313.5755	0.0745	627151	keystroke_r	r	n/a
313.755	0.105	627510	keystroke_d	d	n/a
313.815	0.12	627630	keystroke_s	s	n/a
313.875	0.09	627750	keystroke_Key.enter	Key.enter	n/a
313.97	4.841	627940	prompt	n/a	vehicles sleeping heather important\n
314.566	0.104	629132	keystroke_v	v	n/a
314.7	0.135	629400	keystroke_e	e	n/a
314.79	0.105	629580	keystroke_h	h	n/a
314.85	0.12	629700	keystroke_i	i	n/a
314.94	0.09	629880	keystroke_c	c	n/a
315.06	0.0895	630120	keystroke_l	l	n/a
315.1045	0.105	630209	keystroke_e	e	n/a
315.2995	0.105	630599	keystroke_s	s	n/a
315.3895	0.075	630779	keystroke_Key.space	Key.space	n/a
315.5845	0.09	631169	keystroke_s	s	n/a
315.6745	0.045	631349	keystroke_l	l	n/a
315.7945	0.045	631589	keystroke_e	e	n/a
316.394	0.09	632788	keystroke_e	e	n/a
316.499	0.135	632998	keystroke_p	p	n/a
316.589	0.135	633178	keystroke_i	i	n/a
316.664	0.09	633328	keystroke_n	n	n/a
316.709	0.075	633418	keystroke_g	g	n/a
316.844	0.105	633688	keystroke_Key.space	Key.space	n/a
316.919	0.12	633838	keystroke_h	h	n/a
316.964	0.18	633928	keystroke_e	e	n/a
317.024	0.15	634048	keystroke_a	a	n/a
317.129	0.135	634258	keystroke_t	t	n/a
317.234	0.09	634468	keystroke_h	h	n/a
317.249	0.15	634498	keystroke_e	e	n/a
317.339	0.12	634678	keystroke_r	r	n/a
317.4285	0.1055	634857	keystroke_Key.space	Key.space	n/a
317.6085	0.12	635217	keystroke_i	i	n/a
317.7135	0.135	635427	keystroke_m	m	n/a
317.8335	0.12	635667	keystroke_p	p	n/a
317.8935	0.135	635787	keystroke_o	o	n/a
317.9385	0.105	635877	keystroke_r	r	n/a
318.1185	0.12	636237	keystroke_t	t	n/a
318.2235	0.1355	636447	keystroke_a	a	n/a
318.314	0.12	636628	keystroke_n	n	n/a
318.404	0.09	636808	keystroke_t	t	n/a
318.719	0.09	637438	keystroke_Key.enter	Key.enter	n/a
318.815	4.4655	637630	prompt	n/a	forwarding aaron maldives announces\n
319.4235	0.105	638847	keystroke_f	f	n/a
319.5135	0.12	639027	keystroke_o	o	n/a
319.6185	0.105	639237	keystroke_r	r	n/a
319.7085	0.195	639417	keystroke_w	w	n/a
319.8285	0.09	639657	keystroke_a	a	n/a
319.8885	0.135	639777	keystroke_r	r	n/a
320.0985	0.12	640197	keystroke_d	d	n/a
320.1435	0.12	640287	keystroke_i	i	n/a
320.2035	0.09	640407	keystroke_n	n	n/a
320.3235	0.09	640647	keystroke_g	g	n/a
320.3835	0.135	640767	keystroke_Key.space	Key.space	n/a
320.5035	0.09	641007	keystroke_a	a	n/a
320.6835	0.106	641367	keystroke_a	a	n/a
320.7735	0.135	641547	keystroke_r	r	n/a
320.8485	0.135	641697	keystroke_o	o	n/a
320.9385	0.09	641877	keystroke_n	n	n/a
321.1035	0.0905	642207	keystroke_Key.space	Key.space	n/a
321.314	0.089	642628	keystroke_m	m	n/a
321.389	0.105	642778	keystroke_a	a	n/a
321.509	0.105	643018	keystroke_l	l	n/a
321.569	0.0885	643138	keystroke_d	d	n/a
321.6885	0.105	643377	keystroke_i	i	n/a
321.7785	0.075	643557	keystroke_v	v	n/a
321.8985	0.09	643797	keystroke_e	e	n/a
322.0635	0.135	644127	keystroke_s	s	n/a
322.1385	0.089	644277	keystroke_Key.space	Key.space	n/a
322.2575	0.106	644515	keystroke_a	a	n/a
322.3485	0.06	644697	keystroke_n	n	n/a
322.4835	0.105	644967	keystroke_n	n	n/a
322.5435	0.134	645087	keystroke_o	o	n/a
322.6325	0.121	645265	keystroke_u	u	n/a
322.7085	0.105	645417	keystroke_n	n	n/a
322.7835	0.059	645567	keystroke_c	c	n/a
322.8285	0.089	645657	keystroke_e	e	n/a
323.023	0.105	646046	keystroke_s	s	n/a
323.203	0.075	646406	keystroke_Key.enter	Key.enter	n/a
323.284	2.786	646568	prompt	n/a	no para mart bold\n
323.983	0.135	647966	keystroke_n	n	n/a
324.102	0.136	648204	keystroke_o	o	n/a
324.223	0.089	648446	keystroke_Key.space	Key.space	n/a
324.343	0.12	648686	keystroke_p	p	n/a
324.373	0.12	648746	keystroke_a	a	n/a
