onset	duration	sample	value	key	prompt_text
20.5025	14.114	41005	prompt	n/a	the quick brown fox jumps over a lazy dog\n
23.6965	0.057	47393	keystroke_t	t	n/a
23.7385	0.105	47477	keystroke_h	h	n/a
23.8885	0.135	47777	keystroke_e	e	n/a
24.0075	0.09	48015	keystroke_Key.space	Key.space	n/a
24.3825	0.135	48765	keystroke_q	q	n/a
24.9675	0.135	49935	keystroke_u	u	n/a
25.0585	0.149	50117	keystroke_i	i	n/a
25.3435	0.104	50687	keystroke_c	c	n/a
25.4775	0.09	50955	keystroke_k	k	n/a
25.9125	0.12	51825	keystroke_Key.space	Key.space	n/a
26.1375	0.061	52275	keystroke_v	v	n/a
26.8575	0.076	53715	keystroke_Key.backspace	Key.backspace	n/a
27.1135	0.119	54227	keystroke_b	b	n/a
27.2925	0.1505	54585	keystroke_r	r	n/a
27.413	0.105	54826	keystroke_o	o	n/a
27.563	0.135	55126	keystroke_w	w	n/a
27.713	0.09	55426	keystroke_n	n	n/a
27.9835	0.105	55967	keystroke_Key.space	Key.space	n/a
28.1775	0.1205	56355	keystroke_f	f	n/a
28.3125	0.0905	56625	keystroke_o	o	n/a
28.4475	0.135	56895	keystroke_x	x	n/a
28.6275	0.1055	57255	keystroke_Key.space	Key.space	n/a
28.8085	0.1195	57617	keystroke_j	j	n/a
28.943	0.09	57886	keystroke_u	u	n/a
29.183	0.09	58366	keystroke_m	m	n/a
29.393	0.0905	58786	keystroke_p	p	n/a
29.5585	0.15	59117	keystroke_s	s	n/a
29.7525	0.136	59505	keystroke_Key.space	Key.space	n/a
29.9185	0.06	59837	keystroke_o	o	n/a
30.1285	0.105	60257	keystroke_v	v	n/a
30.2785	0.12	60557	keystroke_e	e	n/a
30.3835	0.15	60767	keystroke_r	r	n/a
30.4885	0.134	60977	keystroke_Key.space	Key.space	n/a
30.9235	0.15	61847	keystroke_a	a	n/a
31.1335	0.15	62267	keystroke_Key.space	Key.space	n/a
31.3135	0.105	62627	keystroke_l	l	n/a
31.4935	0.105	62987	keystroke_a	a	n/a
32.1535	0.12	64307	keystroke_z	z	n/a
32.3335	0.075	64667	keystroke_y	y	n/a
32.5435	0.135	65087	keystroke_Key.space	Key.space	n/a
32.8585	0.09	65717	keystroke_d	d	n/a
32.9635	0.105	65927	keystroke_o	o	n/a
33.0685	0.09	66137	keystroke_g	g	n/a
34.553	0.06	69106	keystroke_Key.enter	Key.enter	n/a
34.634	14.098	69268	prompt	n/a	jean artist midlands sponsorship\n
35.528	0.09	71056	keystroke_h	h	n/a
35.633	0.18	71266	keystroke_e	e	n/a
35.783	0.15	71566	keystroke_a	a	n/a
35.918	0.076	71836	keystroke_n	n	n/a
36.128	0.135	72256	keystroke_Key.space	Key.space	n/a
36.683	0.09	73366	keystroke_Key.backspace	Key.backspace	n/a
36.893	0.06	73786	keystroke_Key.backspace	Key.backspace	n/a
37.073	0.09	74146	keystroke_Key.backspace	Key.backspace	n/a
37.268	0.09	74536	keystroke_Key.backspace	Key.backspace	n/a
37.463	0.105	74926	keystroke_Key.backspace	Key.backspace	n/a
38.198	0.076	76396	keystroke_j	j	n/a
38.348	0.105	76696	keystroke_e	e	n/a
38.558	0.105	77116	keystroke_a	a	n/a
38.753	0.09	77506	keystroke_n	n	n/a
39.098	0.12	78196	keystroke_Key.space	Key.space	n/a
39.368	0.165	78736	keystroke_a	a	n/a
39.458	0.105	78916	keystroke_r	r	n/a
39.683	0.076	79366	keystroke_t	t	n/a
39.788	0.105	79576	keystroke_i	i	n/a
39.923	0.166	79846	keystroke_s	s	n/a
40.058	0.105	80116	keystroke_t	t	n/a
40.283	0.09	80566	keystroke_Key.space	Key.space	n/a
40.493	0.09	80986	keystroke_m	m	n/a
40.703	0.075	81406	keystroke_i	i	n/a
40.973	0.135	81946	keystroke_d	d	n/a
41.408	0.105	82816	keystroke_l	l	n/a
41.574	0.135	83148	keystroke_a	a	n/a
41.723	0.0905	83446	keystroke_n	n	n/a
41.859	0.1195	83718	keystroke_d	d	n/a
42.444	0.089	84888	keystroke_s	s	n/a
43.7185	0.105	87437	keystroke_Key.space	Key.space	n/a
43.9885	0.076	87977	keystroke_s	s	n/a
45.3685	0.076	90737	keystroke_p	p	n/a
45.5935	0.225	91187	keystroke_o	o	n/a
45.7595	0.09	91519	keystroke_n	n	n/a
46.0295	0.119	92059	keystroke_s	s	n/a
46.4635	0.151	92927	keystroke_e	e	n/a
46.9895	0.089	93979	keystroke_Key.backspace	Key.backspace	n/a
47.2435	0.135	94487	keystroke_o	o	n/a
47.3935	0.105	94787	keystroke_r	r	n/a
47.6935	0.105	95387	keystroke_s	s	n/a
47.8595	0.164	95719	keystroke_h	h	n/a
47.9485	0.165	95897	keystroke_i	i	n/a
48.0395	0.119	96079	keystroke_p	p	n/a
48.6685	0.06	97337	keystroke_Key.enter	Key.enter	n/a
48.736	12.07	97472	prompt	n/a	journals landscape wiley defensive\n
49.9445	0.135	99889	keystroke_j	j	n/a
50.0345	0.149	100069	keystroke_o	o	n/a
50.5885	0.105	101177	keystroke_u	u	n/a
50.7835	0.091	101567	keystroke_r	r	n/a
50.9045	0.074	101809	keystroke_n	n	n/a
51.0995	0.135	102199	keystroke_a	a	n/a
51.2785	0.12	102557	keystroke_l	l	n/a
51.4735	0.135	102947	keystroke_s	s	n/a
51.7735	0.12	103547	keystroke_Key.space	Key.space	n/a
51.9685	0.135	103937	keystroke_l	l	n/a
52.0895	0.134	104179	keystroke_a	a	n/a
52.2385	0.09	104477	keystroke_n	n	n/a
52.4035	0.136	104807	keystroke_d	d	n/a
52.6585	0.12	105317	keystroke_s	s	n/a
53.634	0.165	107268	keystroke_a	a	n/a
54.204	0.105	108408	keystroke_Key.backspace	Key.backspace	n/a
54.354	0.15	108708	keystroke_c	c	n/a
54.519	0.12	109038	keystroke_a	a	n/a
54.774	0.105	109548	keystroke_p	p	n/a
55.224	0.09	110448	keystroke_e	e	n/a
55.464	0.135	110928	keystroke_Key.space	Key.space	n/a
56.214	0.135	112428	keystroke_w	w	n/a
56.829	0.105	113658	keystroke_i	i	n/a
57.069	0.105	114138	keystroke_l	l	n/a
57.234	0.09	114468	keystroke_e	e	n/a
57.489	0.09	114978	keystroke_y	y	n/a
57.984	0.09	115968	keystroke_Key.space	Key.space	n/a
58.239	0.075	116478	keystroke_d	d	n/a
58.449	0.06	116898	keystroke_e	e	n/a
58.644	0.075	117288	keystroke_f	f	n/a
58.824	0.105	117648	keystroke_e	e	n/a
58.944	0.105	117888	keystroke_n	n	n/a
59.229	0.12	118458	keystroke_s	s	n/a
59.364	0.1045	118728	keystroke_i	i	n/a
60.2035	0.09	120407	keystroke_v	v	n/a
60.4285	0.09	120857	keystroke_e	e	n/a
60.7285	0.075	121457	keystroke_Key.enter	Key.enter	n/a
60.8105	8.426	121621	prompt	n/a	keep proven staff demonstration\n
61.659	0.12	123318	keystroke_k	k	n/a
61.809	0.075	123618	keystroke_e	e	n/a
61.974	0.12	123948	keystroke_e	e	n/a
62.124	0.09	124248	keystroke_p	p	n/a
62.289	0.135	124578	keystroke_Key.space	Key.space	n/a
62.559	0.075	125118	keystroke_p	p	n/a
62.709	0.106	125418	keystroke_r	r	n/a
62.829	0.09	125658	keystroke_o	o	n/a
63.069	0.09	126138	keystroke_v	v	n/a
63.234	0.105	126468	keystroke_e	e	n/a
63.369	0.1205	126738	keystroke_n	n	n/a
63.5645	0.119	127129	keystroke_Key.space	Key.space	n/a
63.7445	0.15	127489	keystroke_s	s	n/a
64.0145	0.09	128029	keystroke_t	t	n/a
64.2095	0.105	128419	keystroke_a	a	n/a
64.4345	0.09	128869	keystroke_f	f	n/a
64.6145	0.09	129229	keystroke_f	f	n/a
64.8985	0.09	129797	keystroke_Key.space	Key.space	n/a
65.1545	0.075	130309	keystroke_d	d	n/a
65.3935	0.076	130787	keystroke_e	e	n/a
65.6185	0.15	131237	keystroke_m	m	n/a
65.7695	0.135	131539	keystroke_o	o	n/a
65.9945	0.15	131989	keystroke_n	n	n/a
67.6745	0.149	135349	keystroke_s	s	n/a
67.8685	0.106	135737	keystroke_t	t	n/a
68.0495	0.15	136099	keystroke_r	r	n/a
68.2135	0.136	136427	keystroke_a	a	n/a
68.4095	0.12	136819	keystroke_t	t	n/a
68.5595	0.179	137119	keystroke_i	i	n/a
68.6495	0.18	137299	keystroke_o	o	n/a
68.7845	0.12	137569	keystroke_n	n	n/a
69.1595	0.074	138319	keystroke_Key.enter	Key.enter	n/a
69.242	10.075	138484	prompt	n/a	solaris where virgin magical\n
70.1945	0.135	140389	keystroke_s	s	n/a
70.2845	0.075	140569	keystroke_o	o	n/a
70.4935	0.106	140987	keystroke_l	l	n/a
70.6595	0.06	141319	keystroke_a	a	n/a
70.9745	0.105	141949	keystroke_r	r	n/a
71.1095	0.105	142219	keystroke_i	i	n/a
71.2595	0.134	142519	keystroke_s	s	n/a
72.5795	0.12	145159	keystroke_Key.space	Key.space	n/a
72.8195	0.105	145639	keystroke_w	w	n/a
72.9095	0.105	145819	keystroke_h	h	n/a
73.0745	0.12	146149	keystroke_e	e	n/a
73.1795	0.18	146359	keystroke_r	r	n/a
73.2995	0.12	146599	keystroke_e	e	n/a
73.9895	0.105	147979	keystroke_Key.space	Key.space	n/a
75.2945	0.105	150589	keystroke_v	v	n/a
75.5795	0.09	151159	keystroke_i	i	n/a
75.7145	0.105	151429	keystroke_r	r	n/a
76.0295	0.09	152059	keystroke_g	g	n/a
76.2995	0.18	152599	keystroke_i	i	n/a
76.4045	0.135	152809	keystroke_n	n	n/a
76.7495	0.12	153499	keystroke_Key.space	Key.space	n/a
76.8995	0.12	153799	keystroke_m	m	n/a
77.0345	0.15	154069	keystroke_a	a	n/a
77.9195	0.075	155839	keystroke_g	g	n/a
78.0245	0.12	156049	keystroke_i	i	n/a
78.2045	0.12	156409	keystroke_c	c	n/a
78.4295	0.165	156859	keystroke_a	a	n/a
78.6095	0.105	157219	keystroke_l	l	n/a
79.2095	0.105	158419	keystroke_Key.enter	Key.enter	n/a
79.323	5.7525	158646	prompt	n/a	demand music relative quite\n
80.2295	0.075	160459	keystroke_d	d	n/a
80.4245	0.09	160849	keystroke_e	e	n/a
80.5595	0.09	161119	keystroke_m	m	n/a
80.6945	0.105	161389	keystroke_a	a	n/a
80.8145	0.105	161629	keystroke_n	n	n/a
80.9345	0.165	161869	keystroke_d	d	n/a
81.1145	0.105	162229	keystroke_Key.space	Key.space	n/a
81.2795	0.09	162559	keystroke_m	m	n/a
81.4895	0.09	162979	keystroke_u	u	n/a
81.6245	0.09	163249	keystroke_s	s	n/a
81.729	0.105	163458	keystroke_i	i	n/a
81.894	0.18	163788	keystroke_c	c	n/a
82.089	0.105	164178	keystroke_Key.space	Key.space	n/a
82.389	0.15	164778	keystroke_r	r	n/a
82.479	0.135	164958	keystroke_e	e	n/a
82.689	0.12	165378	keystroke_l	l	n/a
82.794	0.135	165588	keystroke_a	a	n/a
83.0935	0.075	166187	keystroke_t	t	n/a
83.2135	0.09	166427	keystroke_i	i	n/a
83.4985	0.015	166997	keystroke_v	v	n/a
83.6335	0.15	167267	keystroke_e	e	n/a
83.7685	0.135	167537	keystroke_Key.space	Key.space	n/a
84.0835	0.135	168167	keystroke_q	q	n/a
84.2335	0.1645	168467	keystroke_u	u	n/a
84.3535	0.1645	168707	keystroke_i	i	n/a
84.578	0.165	169156	keystroke_t	t	n/a
84.713	0.105	169426	keystroke_e	e	n/a
84.998	0.075	169996	keystroke_Key.enter	Key.enter	n/a
85.0845	13.218	170169	prompt	n/a	volt newport regularly satisfactory\n
86.4225	0.105	172845	keystroke_v	v	n/a
86.5125	0.12	173025	keystroke_o	o	n/a
86.7225	0.105	173445	keystroke_l	l	n/a
86.9325	0.12	173865	keystroke_t	t	n/a
87.2475	0.134	174495	keystroke_Key.space	Key.space	n/a
87.6375	0.074	175275	keystroke_n	n	n/a
87.8025	0.1495	175605	keystroke_e	e	n/a
87.8915	0.1505	175783	keystroke_w	w	n/a
88.162	0.09	176324	keystroke_p	p	n/a
88.327	0.119	176654	keystroke_o	o	n/a
88.867	0.09	177734	keystroke_r	r	n/a
89.062	0.089	178124	keystroke_t	t	n/a
90.036	0.09	180072	keystroke_Key.space	Key.space	n/a
90.201	0.21	180402	keystroke_r	r	n/a
90.336	0.135	180672	keystroke_e	e	n/a
90.741	0.12	181482	keystroke_g	g	n/a
92.7955	0.1055	185591	keystroke_u	u	n/a
93.9205	0.09	187841	keystroke_l	l	n/a
94.145	0.18	188290	keystroke_a	a	n/a
94.28	0.135	188560	keystroke_r	r	n/a
94.865	0.075	189730	keystroke_l	l	n/a
95.105	0.105	190210	keystroke_y	y	n/a
95.45	0.105	190900	keystroke_Key.space	Key.space	n/a
95.81	0.105	191620	keystroke_s	s	n/a
96.05	0.105	192100	keystroke_a	a	n/a
96.275	0.105	192550	keystroke_t	t	n/a
96.395	0.12	192790	keystroke_i	i	n/a
96.62	0.12	193240	keystroke_s	s	n/a
96.845	0.09	193690	keystroke_f	f	n/a
96.98	0.12	193960	keystroke_a	a	n/a
97.205	0.135	194410	keystroke_c	c	n/a
97.49	0.135	194980	keystroke_t	t	n/a
97.655	0.105	195310	keystroke_o	o	n/a
97.775	0.15	195550	keystroke_r	r	n/a
97.91	0.12	195820	keystroke_y	y	n/a
98.225	0.075	196450	keystroke_Key.enter	Key.enter	n/a
98.3075	8.89	196615	prompt	n/a	tigers how'd excuse freedom\n
100.598	0.027	201196	keystroke_t	t	n/a
100.61	0.105	201220	keystroke_i	i	n/a
100.865	0.105	201730	keystroke_g	g	n/a
101.135	0.165	202270	keystroke_e	e	n/a
101.225	0.15	202450	keystroke_r	r	n/a
101.45	0.195	202900	keystroke_s	s	n/a
101.585	0.12	203170	keystroke_Key.space	Key.space	n/a
101.81	0.18	203620	keystroke_h	h	n/a
101.915	0.195	203830	keystroke_o	o	n/a
102.155	0.15	204310	keystroke_w	w	n/a
102.83	0.075	205660	keystroke_'	'	n/a
103.415	0.135	206830	keystroke_d	d	n/a
103.61	0.135	207220	keystroke_Key.space	Key.space	n/a
103.805	0.12	207610	keystroke_e	e	n/a
104.03	0.135	208060	keystroke_x	x	n/a
104.24	0.12	208480	keystroke_c	c	n/a
104.39	0.075	208780	keystroke_u	u	n/a
104.705	0.165	209410	keystroke_s	s	n/a
104.825	0.18	209650	keystroke_e	e	n/a
105.095	0.09	210190	keystroke_Key.space	Key.space	n/a
105.47	0.105	210940	keystroke_f	f	n/a
105.74	0.165	211480	keystroke_r	r	n/a
105.83	0.12	211660	keystroke_e	e	n/a
106.04	0.075	212080	keystroke_e	e	n/a
106.265	0.075	212530	keystroke_d	d	n/a
106.37	0.105	212740	keystroke_o	o	n/a
106.595	0.09	213190	keystroke_m	m	n/a
107.105	0.09	214210	keystroke_Key.enter	Key.enter	n/a
107.204	11.9935	214408	prompt	n/a	stayed should've deputy accessible\n
108.14	0.12	216280	keystroke_s	s	n/a
108.29	0.105	216580	keystroke_t	t	n/a
108.47	0.15	216940	keystroke_a	a	n/a
108.621	0.104	217242	keystroke_y	y	n/a
108.77	0.09	217540	keystroke_e	e	n/a
108.98	0.165	217960	keystroke_d	d	n/a
109.13	0.12	218260	keystroke_Key.space	Key.space	n/a
109.37	0.09	218740	keystroke_s	s	n/a
109.535	0.09	219070	keystroke_h	h	n/a
109.61	0.15	219220	keystroke_o	o	n/a
109.925	0.135	219850	keystroke_l	l	n/a
111.11	0.075	222220	keystroke_Key.backspace	Key.backspace	n/a
111.396	0.089	222792	keystroke_u	u	n/a
111.62	0.105	223240	keystroke_l	l	n/a
111.83	0.105	223660	keystroke_d	d	n/a
112.73	0.045	225460	keystroke_'	'	n/a
113.135	0.09	226270	keystroke_v	v	n/a
114.6355	0.075	229271	keystroke_e	e	n/a
114.8595	0.136	229719	keystroke_Key.space	Key.space	n/a
115.401	0.089	230802	keystroke_d	d	n/a
115.656	0.074	231312	keystroke_e	e	n/a
116	0.166	232000	keystroke_p	p	n/a
116.135	0.106	232270	keystroke_u	u	n/a
116.301	0.105	232602	keystroke_t	t	n/a
116.451	0.089	232902	keystroke_y	y	n/a
116.645	0.12	233290	keystroke_Key.space	Key.space	n/a
116.915	0.076	233830	keystroke_a	a	n/a
117.4105	0.075	234821	keystroke_c	c	n/a
117.6055	0.075	235211	keystroke_c	c	n/a
117.8455	0.135	235691	keystroke_e	e	n/a
118.0255	0.105	236051	keystroke_s	s	n/a
118.2055	0.165	236411	keystroke_s	s	n/a
118.3855	0.09	236771	keystroke_i	i	n/a
118.5655	0.135	237131	keystroke_b	b	n/a
118.8205	0.105	237641	keystroke_l	l	n/a
118.9255	0.09	237851	keystroke_e	e	n/a
119.0905	0.105	238181	keystroke_Key.enter	Key.enter	n/a
119.203	8.7995	238406	prompt	n/a	illustrated angel atmosphere lightbox\n
120.185	0.075	240370	keystroke_i	i	n/a
120.365	0.075	240730	keystroke_l	l	n/a
120.515	0.09	241030	keystroke_l	l	n/a
120.71	0.1055	241420	keystroke_u	u	n/a
120.8305	0.1795	241661	keystroke_s	s	n/a
120.995	0.075	241990	keystroke_t	t	n/a
121.175	0.151	242350	keystroke_r	r	n/a
121.295	0.18	242590	keystroke_a	a	n/a
121.49	0.12	242980	keystroke_t	t	n/a
121.776	0.09	243552	keystroke_e	e	n/a
121.97	0.12	243940	keystroke_d	d	n/a
122.105	0.105	244210	keystroke_Key.space	Key.space	n/a
122.27	0.135	244540	keystroke_a	a	n/a
122.465	0.105	244930	keystroke_n	n	n/a
122.631	0.119	245262	keystroke_g	g	n/a
122.78	0.12	245560	keystroke_e	e	n/a
122.931	0.089	245862	keystroke_l	l	n/a
123.065	0.12	246130	keystroke_Key.space	Key.space	n/a
123.4705	0.225	246941	keystroke_a	a	n/a
123.8605	0.075	247721	keystroke_t	t	n/a
124.0265	0.1795	248053	keystroke_m	m	n/a
124.175	0.12	248350	keystroke_o	o	n/a
125.0915	0.15	250183	keystroke_s	s	n/a
125.3765	0.059	250753	keystroke_p	p	n/a
125.5715	0.075	251143	keystroke_h	h	n/a
125.7355	0.1195	251471	keystroke_e	e	n/a
125.826	0.1795	251652	keystroke_r	r	n/a
125.9905	0.195	251981	keystroke_e	e	n/a
126.1705	0.105	252341	keystroke_Key.space	Key.space	n/a
126.3955	0.15	252791	keystroke_l	l	n/a
126.5305	0.12	253061	keystroke_i	i	n/a
126.6655	0.09	253331	keystroke_g	g	n/a
126.7565	0.105	253513	keystroke_h	h	n/a
126.9055	0.105	253811	keystroke_t	t	n/a
127.2805	0.15	254561	keystroke_b	b	n/a
127.4005	0.12	254801	keystroke_o	o	n/a
127.4755	0.12	254951	keystroke_x	x	n/a
127.9255	0.075	255851	keystroke_Key.enter	Key.enter	n/a
128.0075	8.065	256015	prompt	n/a	demonstration claims null discipline\n
129.0655	0.09	258131	keystroke_d	d	n/a
129.2605	0.09	258521	keystroke_e	e	n/a
129.3655	0.12	258731	keystroke_m	m	n/a
129.5455	0.18	259091	keystroke_o	o	n/a
129.6655	0.12	259331	keystroke_n	n	n/a
129.8005	0.15	259601	keystroke_s	s	n/a
129.9355	0.105	259871	keystroke_t	t	n/a
130.1155	0.15	260231	keystroke_r	r	n/a
130.2505	0.195	260501	keystroke_a	a	n/a
130.4605	0.135	260921	keystroke_t	t	n/a
130.5665	0.149	261133	keystroke_i	i	n/a
130.6255	0.165	261251	keystroke_o	o	n/a
130.7455	0.151	261491	keystroke_n	n	n/a
130.8805	0.105	261761	keystroke_Key.space	Key.space	n/a
131.1205	0.09	262241	keystroke_c	c	n/a
131.2255	0.09	262451	keystroke_l	l	n/a
131.3755	0.135	262751	keystroke_a	a	n/a
131.5255	0.06	263051	keystroke_i	i	n/a
131.7505	0.105	263501	keystroke_m	m	n/a
131.9005	0.135	263801	keystroke_s	s	n/a
132.0655	0.105	264131	keystroke_Key.space	Key.space	n/a
132.5005	0.09	265001	keystroke_n	n	n/a
132.7405	0.09	265481	keystroke_u	u	n/a
133.2205	0.06	266441	keystroke_l	l	n/a
133.386	0.075	266772	keystroke_l	l	n/a
133.626	0.105	267252	keystroke_Key.space	Key.space	n/a
133.776	0.105	267552	keystroke_d	d	n/a
133.896	0.105	267792	keystroke_i	i	n/a
134.226	0.15	268452	keystroke_s	s	n/a
134.586	0.105	269172	keystroke_c	c	n/a
134.721	0.09	269442	keystroke_i	i	n/a
134.886	0.09	269772	keystroke_p	p	n/a
135.096	0.135	270192	keystroke_l	l	n/a
135.321	0.105	270642	keystroke_i	i	n/a
135.576	0.09	271152	keystroke_n	n	n/a
135.771	0.075	271542	keystroke_e	e	n/a
135.996	0.075	271992	keystroke_Key.enter	Key.enter	n/a
136.077	7.6915	272154	prompt	n/a	aids greater licking nations\n
136.941	0.09	273882	keystroke_a	a	n/a
137.346	0.075	274692	keystroke_i	i	n/a
137.466	0.105	274932	keystroke_d	d	n/a
137.616	0.1795	275232	keystroke_s	s	n/a
137.8555	0.075	275711	keystroke_Key.space	Key.space	n/a
138.0655	0.0755	276131	keystroke_g	g	n/a
138.261	0.15	276522	keystroke_r	r	n/a
138.336	0.135	276672	keystroke_e	e	n/a
138.441	0.12	276882	keystroke_a	a	n/a
138.696	0.105	277392	keystroke_t	t	n/a
138.921	0.135	277842	keystroke_e	e	n/a
139.011	0.15	278022	keystroke_r	r	n/a
140.271	0.105	280542	keystroke_Key.space	Key.space	n/a
140.496	0.12	280992	keystroke_l	l	n/a
140.601	0.105	281202	keystroke_i	i	n/a
140.766	0.15	281532	keystroke_c	c	n/a
140.901	0.075	281802	keystroke_k	k	n/a
141.081	0.24	282162	keystroke_i	i	n/a
141.216	0.15	282432	keystroke_n	n	n/a
141.351	0.12	282702	keystroke_g	g	n/a
141.486	0.12	282972	keystroke_Key.space	Key.space	n/a
141.696	0.105	283392	keystroke_n	n	n/a
141.816	0.165	283632	keystroke_a	a	n/a
142.101	0.06	284202	keystroke_t	t	n/a
142.176	0.12	284352	keystroke_i	i	n/a
142.221	0.21	284442	keystroke_o	o	n/a
142.356	0.15	284712	keystroke_n	n	n/a
142.536	0.12	285072	keystroke_s	s	n/a
143.6605	0.105	287321	keystroke_Key.enter	Key.enter	n/a
143.7735	17.74	287547	prompt	n/a	magnificent engine allah lauderdale\n
144.6965	0.134	289393	keystroke_m	m	n/a
144.9215	0.135	289843	keystroke_a	a	n/a
145.3265	0.09	290653	keystroke_g	g	n/a
145.566	0.18	291132	keystroke_n	n	n/a
145.716	0.135	291432	keystroke_i	i	n/a
148.209	0.042	296418	keystroke_f	f	n/a
148.266	0.105	296532	keystroke_i	i	n/a
148.476	0.12	296952	keystroke_c	c	n/a
148.971	0.12	297942	keystroke_e	e	n/a
149.076	0.105	298152	keystroke_n	n	n/a
149.211	0.09	298422	keystroke_t	t	n/a
149.706	0.165	299412	keystroke_Key.space	Key.space	n/a
150.426	0.135	300852	keystroke_e	e	n/a
150.546	0.105	301092	keystroke_n	n	n/a
151.041	0.09	302082	keystroke_g	g	n/a
151.161	0.09	302322	keystroke_i	i	n/a
151.327	0.119	302654	keystroke_n	n	n/a
151.461	0.105	302922	keystroke_e	e	n/a
151.806	0.105	303612	keystroke_Key.space	Key.space	n/a
152.031	0.135	304062	keystroke_a	a	n/a
152.151	0.105	304302	keystroke_l	l	n/a
152.331	0.165	304662	keystroke_l	l	n/a
153.801	0.105	307602	keystroke_a	a	n/a
153.906	0.105	307812	keystroke_h	h	n/a
154.206	0.105	308412	keystroke_Key.space	Key.space	n/a
154.401	0.09	308802	keystroke_l	l	n/a
154.716	0.18	309432	keystroke_a	a	n/a
154.941	0.12	309882	keystroke_u	u	n/a
155.121	0.075	310242	keystroke_d	d	n/a
155.346	0.21	310692	keystroke_e	e	n/a
155.511	0.135	311022	keystroke_r	r	n/a
155.931	0.12	311862	keystroke_d	d	n/a
156.156	0.105	312312	keystroke_a	a	n/a
156.306	0.105	312612	keystroke_l	l	n/a
156.426	0.09	312852	keystroke_e	e	n/a
161.469	0.042	322938	keystroke_Key.enter	Key.enter	n/a
161.5175	7.5405	323035	prompt	n/a	evolution shelter highs brazilian\n
162.411	0.06	324822	keystroke_e	e	n/a
162.651	0.15	325302	keystroke_v	v	n/a
162.891	0.09	325782	keystroke_o	o	n/a
163.116	0.076	326232	keystroke_l	l	n/a
163.296	0.12	326592	keystroke_u	u	n/a
163.596	0.105	327192	keystroke_t	t	n/a
163.716	0.135	327432	keystroke_i	i	n/a
163.777	0.179	327554	keystroke_o	o	n/a
163.911	0.1505	327822	keystroke_n	n	n/a
164.1065	0.135	328213	keystroke_Key.space	Key.space	n/a
164.3765	0.105	328753	keystroke_s	s	n/a
164.5115	0.1045	329023	keystroke_h	h	n/a
164.676	0.12	329352	keystroke_e	e	n/a
164.781	0.105	329562	keystroke_l	l	n/a
164.976	0.09	329952	keystroke_t	t	n/a
165.171	0.12	330342	keystroke_e	e	n/a
165.246	0.165	330492	keystroke_r	r	n/a
165.381	0.15	330762	keystroke_Key.space	Key.space	n/a
165.636	0.15	331272	keystroke_h	h	n/a
165.726	0.135	331452	keystroke_i	i	n/a
165.831	0.0905	331662	keystroke_g	g	n/a
165.981	0.105	331962	keystroke_h	h	n/a
166.146	0.105	332292	keystroke_s	s	n/a
166.446	0.12	332892	keystroke_Key.space	Key.space	n/a
166.731	0.105	333462	keystroke_b	b	n/a
166.881	0.15	333762	keystroke_r	r	n/a
167.526	0.1205	335052	keystroke_a	a	n/a
167.7215	0.165	335443	keystroke_z	z	n/a
167.8715	0.075	335743	keystroke_i	i	n/a
168.0515	0.1645	336103	keystroke_l	l	n/a
168.1865	0.1195	336373	keystroke_i	i	n/a
168.336	0.12	336672	keystroke_a	a	n/a
168.517	0.074	337034	keystroke_n	n	n/a
168.9965	0.06	337993	keystroke_Key.enter	Key.enter	n/a
169.0635	8.5305	338127	prompt	n/a	simpsons benjamin concrete explain\n
170.0615	0.105	340123	keystroke_s	s	n/a
170.1065	0.075	340213	keystroke_i	i	n/a
170.3165	0.075	340633	keystroke_m	m	n/a
170.5115	0.105	341023	keystroke_p	p	n/a
170.7515	0.09	341503	keystroke_s	s	n/a
170.8715	0.15	341743	keystroke_o	o	n/a
170.9615	0.15	341923	keystroke_n	n	n/a
171.0965	0.1945	342193	keystroke_s	s	n/a
171.276	0.12	342552	keystroke_Key.space	Key.space	n/a
171.501	0.105	343002	keystroke_b	b	n/a
171.8315	0.1645	343663	keystroke_e	e	n/a
171.981	0.09	343962	keystroke_n	n	n/a
172.2515	0.1045	344503	keystroke_j	j	n/a
172.446	0.15	344892	keystroke_a	a	n/a
172.581	0.075	345162	keystroke_m	m	n/a
172.776	0.21	345552	keystroke_i	i	n/a
172.911	0.12	345822	keystroke_n	n	n/a
173.121	0.135	346242	keystroke_Key.space	Key.space	n/a
173.5565	0.105	347113	keystroke_c	c	n/a
173.6465	0.15	347293	keystroke_o	o	n/a
173.7365	0.12	347473	keystroke_n	n	n/a
173.9165	0.075	347833	keystroke_c	c	n/a
174.1265	0.225	348253	keystroke_r	r	n/a
174.3065	0.15	348613	keystroke_e	e	n/a
174.5465	0.18	349093	keystroke_t	t	n/a
174.6515	0.135	349303	keystroke_e	e	n/a
175.3565	0.135	350713	keystroke_Key.space	Key.space	n/a
176.0915	0.105	352183	keystroke_e	e	n/a
176.3765	0.135	352753	keystroke_x	x	n/a
176.5565	0.105	353113	keystroke_p	p	n/a
176.7815	0.12	353563	keystroke_l	l	n/a
176.9615	0.105	353923	keystroke_a	a	n/a
177.1265	0.15	354253	keystroke_i	i	n/a
177.2015	0.15	354403	keystroke_n	n	n/a
177.577	0.015	355154	keystroke_Key.enter	Key.enter	n/a
177.5985	10.855	355197	prompt	n/a	renewable visual panasonic compatibility\n
178.417	0.195	356834	keystroke_r	r	n/a
178.522	0.1345	357044	keystroke_e	e	n/a
178.7015	0.135	357403	keystroke_n	n	n/a
178.8665	0.15	357733	keystroke_e	e	n/a
178.9715	0.165	357943	keystroke_w	w	n/a
179.2715	0.1345	358543	keystroke_a	a	n/a
179.466	0.105	358932	keystroke_b	b	n/a
179.587	0.134	359174	keystroke_l	l	n/a
179.706	0.165	359412	keystroke_e	e	n/a
179.856	0.15	359712	keystroke_Key.space	Key.space	n/a
180.426	0.105	360852	keystroke_v	v	n/a
180.576	0.075	361152	keystroke_i	i	n/a
180.696	0.12	361392	keystroke_s	s	n/a
180.786	0.09	361572	keystroke_u	u	n/a
180.921	0.135	361842	keystroke_a	a	n/a
181.071	0.09	362142	keystroke_l	l	n/a
181.281	0.105	362562	keystroke_Key.space	Key.space	n/a
181.701	0.09	363402	keystroke_p	p	n/a
181.806	0.165	363612	keystroke_a	a	n/a
182.001	0.105	364002	keystroke_n	n	n/a
182.166	0.12	364332	keystroke_a	a	n/a
182.421	0.135	364842	keystroke_s	s	n/a
182.541	0.105	365082	keystroke_o	o	n/a
182.751	0.105	365502	keystroke_n	n	n/a
182.841	0.105	365682	keystroke_i	i	n/a
183.021	0.135	366042	keystroke_c	c	n/a
183.366	0.1045	366732	keystroke_Key.space	Key.space	n/a
183.7265	0.12	367453	keystroke_c	c	n/a
183.8165	0.09	367633	keystroke_o	o	n/a
184.0415	0.075	368083	keystroke_m	m	n/a
184.2665	0.09	368533	keystroke_p	p	n/a
185.167	0.225	370334	keystroke_a	a	n/a
186.8465	0.12	373693	keystroke_t	t	n/a
186.9365	0.089	373873	keystroke_i	i	n/a
187.1165	0.165	374233	keystroke_l	l	n/a
187.2365	0.1055	374473	keystroke_i	i	n/a
187.507	0.1945	375014	keystroke_b	b	n/a
187.686	0.136	375372	keystroke_i	i	n/a
187.8065	0.075	375613	keystroke_t	t	n/a
187.9265	0.12	375853	keystroke_y	y	n/a
188.4065	0.0455	376813	keystroke_Key.enter	Key.enter	n/a
188.459	10.075	376918	prompt	n/a	liberal might've paperbacks applies\n
189.307	0.12	378614	keystroke_l	l	n/a
189.382	0.105	378764	keystroke_i	i	n/a
189.622	0.105	379244	keystroke_b	b	n/a
189.772	0.135	379544	keystroke_e	e	n/a
189.937	0.165	379874	keystroke_r	r	n/a
190.087	0.15	380174	keystroke_a	a	n/a
190.252	0.06	380504	keystroke_l	l	n/a
190.356	0.121	380712	keystroke_Key.space	Key.space	n/a
190.492	0.09	380984	keystroke_m	m	n/a
190.687	0.09	381374	keystroke_i	i	n/a
190.822	0.075	381644	keystroke_g	g	n/a
190.927	0.105	381854	keystroke_h	h	n/a
191.062	0.12	382124	keystroke_t	t	n/a
191.617	0.09	383234	keystroke_'	'	n/a
192.157	0.09	384314	keystroke_v	v	n/a
192.502	0.105	385004	keystroke_e	e	n/a
192.757	0.135	385514	keystroke_Key.space	Key.space	n/a
192.937	0.09	385874	keystroke_p	p	n/a
193.072	0.105	386144	keystroke_a	a	n/a
193.237	0.09	386474	keystroke_p	p	n/a
193.357	0.045	386714	keystroke_a	a	n/a
193.852	0.105	387704	keystroke_Key.backspace	Key.backspace	n/a
194.407	0.135	388814	keystroke_e	e	n/a
194.497	0.15	388994	keystroke_r	r	n/a
195.292	0.045	390584	keystroke_b	b	n/a
195.787	0.12	391574	keystroke_a	a	n/a
196.312	0.09	392624	keystroke_c	c	n/a
196.417	0.105	392834	keystroke_k	k	n/a
196.567	0.15	393134	keystroke_s	s	n/a
196.792	0.12	393584	keystroke_Key.space	Key.space	n/a
197.152	0.105	394304	keystroke_a	a	n/a
197.302	0.06	394604	keystroke_p	p	n/a
197.437	0.075	394874	keystroke_p	p	n/a
197.647	0.165	395294	keystroke_l	l	n/a
197.752	0.18	395504	keystroke_i	i	n/a
197.962	0.15	395924	keystroke_e	e	n/a
198.067	0.15	396134	keystroke_s	s	n/a
198.442	0.09	396884	keystroke_Key.enter	Key.enter	n/a
198.5415	10.2375	397083	prompt	n/a	fisheries realtors dispatched females\n
199.522	0.135	399044	keystroke_f	f	n/a
199.627	0.12	399254	keystroke_i	i	n/a
200.362	0.15	400724	keystroke_s	s	n/a
200.497	0.12	400994	keystroke_h	h	n/a
200.947	0.105	401894	keystroke_e	e	n/a
201.097	0.135	402194	keystroke_r	r	n/a
201.262	0.12	402524	keystroke_i	i	n/a
201.367	0.21	402734	keystroke_e	e	n/a
201.502	0.21	403004	keystroke_s	s	n/a
201.757	0.135	403514	keystroke_Key.space	Key.space	n/a
202.252	0.165	404504	keystroke_r	r	n/a
202.342	0.21	404684	keystroke_e	e	n/a
202.507	0.18	405014	keystroke_a	a	n/a
203.032	0.09	406064	keystroke_l	l	n/a
203.4065	0.09	406813	keystroke_t	t	n/a
203.5875	0.089	407175	keystroke_o	o	n/a
203.7365	0.076	407473	keystroke_r	r	n/a
203.9015	0.165	407803	keystroke_s	s	n/a
204.0815	0.135	408163	keystroke_Key.space	Key.space	n/a
204.2775	0.105	408555	keystroke_d	d	n/a
204.6375	0.104	409275	keystroke_i	i	n/a
204.7865	0.151	409573	keystroke_s	s	n/a
205.0865	0.106	410173	keystroke_p	p	n/a
205.2515	0.135	410503	keystroke_a	a	n/a
205.5215	0.0605	411043	keystroke_t	t	n/a
205.7615	0.106	411523	keystroke_c	c	n/a
205.8965	0.105	411793	keystroke_h	h	n/a
206.0165	0.09	412033	keystroke_e	e	n/a
206.2415	0.09	412483	keystroke_d	d	n/a
206.4515	0.075	412903	keystroke_Key.space	Key.space	n/a
207.2165	0.12	414433	keystroke_f	f	n/a
207.412	0.105	414824	keystroke_e	e	n/a
207.562	0.105	415124	keystroke_m	m	n/a
207.682	0.12	415364	keystroke_a	a	n/a
207.832	0.165	415664	keystroke_l	l	n/a
207.952	0.15	415904	keystroke_e	e	n/a
208.057	0.135	416114	keystroke_s	s	n/a
208.687	0.09	417374	keystroke_Key.enter	Key.enter	n/a
208.795	7.5585	417590	prompt	n/a	kathy interact compromise twins\n
209.768	0.089	419536	keystroke_k	k	n/a
209.872	0.135	419744	keystroke_a	a	n/a
210.112	0.09	420224	keystroke_t	t	n/a
210.217	0.06	420434	keystroke_h	h	n/a
210.427	0.09	420854	keystroke_y	y	n/a
210.592	0.12	421184	keystroke_Key.space	Key.space	n/a
210.802	0.18	421604	keystroke_i	i	n/a
210.937	0.09	421874	keystroke_n	n	n/a
211.072	0.09	422144	keystroke_t	t	n/a
211.3265	0.1805	422653	keystroke_e	e	n/a
211.447	0.18	422894	keystroke_r	r	n/a
211.657	0.135	423314	keystroke_a	a	n/a
211.957	0.12	423914	keystroke_c	c	n/a
212.212	0.105	424424	keystroke_t	t	n/a
212.632	0.075	425264	keystroke_Key.space	Key.space	n/a
212.827	0.12	425654	keystroke_c	c	n/a
212.962	0.09	425924	keystroke_o	o	n/a
213.142	0.105	426284	keystroke_m	m	n/a
213.367	0.0895	426734	keystroke_p	p	n/a
213.5165	0.105	427033	keystroke_r	r	n/a
213.6225	0.074	427245	keystroke_o	o	n/a
213.8165	0.09	427633	keystroke_m	m	n/a
214.0115	0.075	428023	keystroke_i	i	n/a
214.2065	0.12	428413	keystroke_s	s	n/a
214.2815	0.15	428563	keystroke_e	e	n/a
214.4765	0.075	428953	keystroke_s	s	n/a
214.9115	0.075	429823	keystroke_Key.backspace	Key.backspace	n/a
215.2115	0.105	430423	keystroke_Key.space	Key.space	n/a
215.4065	0.105	430813	keystroke_t	t	n/a
215.5715	0.136	431143	keystroke_w	w	n/a
215.7215	0.166	431443	keystroke_i	i	n/a
215.8565	0.12	431713	keystroke_n	n	n/a
215.9915	0.09	431983	keystroke_s	s	n/a
216.2915	0.06	432583	keystroke_Key.enter	Key.enter	n/a
216.3595	9.789	432719	prompt	n/a	downloaded trend properties powell\n
217.1025	0.09	434205	keystroke_d	d	n/a
217.4015	0.09	434803	keystroke_o	o	n/a
217.6715	0.09	435343	keystroke_w	w	n/a
217.8515	0.076	435703	keystroke_n	n	n/a
218.0315	0.076	436063	keystroke_l	l	n/a
218.2275	0.089	436455	keystroke_o	o	n/a
218.3765	0.105	436753	keystroke_a	a	n/a
218.6175	0.074	437235	keystroke_d	d	n/a
218.8425	0.059	437685	keystroke_e	e	n/a
219.0375	0.134	438075	keystroke_d	d	n/a
219.1865	0.105	438373	keystroke_Key.space	Key.space	n/a
219.7715	0.105	439543	keystroke_f	f	n/a
220.3865	0.105	440773	keystroke_Key.backspace	Key.backspace	n/a
220.6875	0.074	441375	keystroke_t	t	n/a
220.8975	0.134	441795	keystroke_r	r	n/a
221.1525	0.105	442305	keystroke_e	e	n/a
221.3025	0.104	442605	keystroke_n	n	n/a
221.4515	0.061	442903	keystroke_d	d	n/a
222.7565	0.106	445513	keystroke_Key.space	Key.space	n/a
222.9375	0.104	445875	keystroke_p	p	n/a
223.0875	0.135	446175	keystroke_r	r	n/a
223.2515	0.105	446503	keystroke_o	o	n/a
223.4765	0.15	446953	keystroke_p	p	n/a
223.6565	0.15	447313	keystroke_e	e	n/a
223.7475	0.134	447495	keystroke_r	r	n/a
223.9875	0.104	447975	keystroke_t	t	n/a
224.1375	0.12	448275	keystroke_i	i	n/a
224.2265	0.181	448453	keystroke_e	e	n/a
224.3625	0.225	448725	keystroke_s	s	n/a
224.5715	0.105	449143	keystroke_Key.space	Key.space	n/a
224.7975	0.165	449595	keystroke_p	p	n/a
224.9025	0.165	449805	keystroke_o	o	n/a
225.0975	0.15	450195	keystroke_w	w	n/a
225.1875	0.15	450375	keystroke_e	e	n/a
225.3675	0.075	450735	keystroke_l	l	n/a
225.5325	0.104	451065	keystroke_l	l	n/a
226.0425	0.104	452085	keystroke_Key.enter	Key.enter	n/a
226.154	9.476	452308	prompt	n/a	distances affects shaved donations\n
226.9725	0.104	453945	keystroke_d	d	n/a
227.0625	0.09	454125	keystroke_i	i	n/a
227.2125	0.135	454425	keystroke_s	s	n/a
227.4225	0.09	454845	keystroke_t	t	n/a
227.5875	0.135	455175	keystroke_a	a	n/a
227.7075	0.105	455415	keystroke_n	n	n/a
227.8575	0.09	455715	keystroke_c	c	n/a
228.0375	0.15	456075	keystroke_e	e	n/a
228.1425	0.165	456285	keystroke_s	s	n/a
228.3375	0.119	456675	keystroke_Key.space	Key.space	n/a
228.5925	0.089	457185	keystroke_a	a	n/a
228.8025	0.06	457605	keystroke_f	f	n/a
228.9375	0.075	457875	keystroke_f	f	n/a
229.2525	0.06	458505	keystroke_e	e	n/a
230.3925	0.12	460785	keystroke_c	c	n/a
230.6475	0.09	461295	keystroke_t	t	n/a
231.143	0.135	462286	keystroke_s	s	n/a
231.413	0.104	462826	keystroke_Key.space	Key.space	n/a
231.698	0.12	463396	keystroke_s	s	n/a
231.848	0.12	463696	keystroke_h	h	n/a
231.938	0.135	463876	keystroke_a	a	n/a
232.403	0.09	464806	keystroke_v	v	n/a
232.658	0.105	465316	keystroke_e	e	n/a
232.898	0.075	465796	keystroke_d	d	n/a
233.543	0.075	467086	keystroke_Key.space	Key.space	n/a
234.083	0.105	468166	keystroke_d	d	n/a
234.248	0.09	468496	keystroke_o	o	n/a
234.428	0.09	468856	keystroke_n	n	n/a
234.503	0.15	469006	keystroke_a	a	n/a
234.758	0.105	469516	keystroke_t	t	n/a
234.848	0.165	469696	keystroke_i	i	n/a
234.923	0.21	469846	keystroke_o	o	n/a
235.058	0.119	470116	keystroke_n	n	n/a
235.148	0.12	470296	keystroke_s	s	n/a
235.553	0.074	471106	keystroke_Key.enter	Key.enter	n/a
235.635	16.345	471270	prompt	n/a	anthropology uruguay baseline dominant\n
236.602	0.196	473204	keystroke_a	a	n/a
236.828	0.119	473656	keystroke_n	n	n/a
237.052	0.09	474104	keystroke_t	t	n/a
237.188	0.089	474376	keystroke_h	h	n/a
237.788	0.15	475576	keystroke_r	r	n/a
237.953	0.105	475906	keystroke_o	o	n/a
238.178	0.165	476356	keystroke_p	p	n/a
238.328	0.135	476656	keystroke_o	o	n/a
238.553	0.09	477106	keystroke_l	l	n/a
238.718	0.12	477436	keystroke_o	o	n/a
238.958	0.09	477916	keystroke_g	g	n/a
239.093	0.105	478186	keystroke_y	y	n/a
239.288	0.12	478576	keystroke_Key.space	Key.space	n/a
239.6925	0.105	479385	keystroke_u	u	n/a
240.2925	0.165	480585	keystroke_r	r	n/a
240.4725	0.15	480945	keystroke_u	u	n/a
241.1175	0.12	482235	keystroke_g	g	n/a
241.2825	0.09	482565	keystroke_u	u	n/a
241.4625	0.15	482925	keystroke_a	a	n/a
241.6725	0.105	483345	keystroke_y	y	n/a
242.4525	0.12	484905	keystroke_Key.space	Key.space	n/a
242.6925	0.09	485385	keystroke_b	b	n/a
242.8725	0.12	485745	keystroke_a	a	n/a
243.1125	0.135	486225	keystroke_s	s	n/a
243.4125	0.15	486825	keystroke_l	l	n/a
243.5325	0.135	487065	keystroke_i	i	n/a
243.7275	0.12	487455	keystroke_n	n	n/a
243.8925	0.165	487785	keystroke_e	e	n/a
244.0875	0.12	488175	keystroke_Key.space	Key.space	n/a
244.3725	0.135	488745	keystroke_d	d	n/a
244.4935	0.089	488987	keystroke_o	o	n/a
244.7175	0.075	489435	keystroke_m	m	n/a
244.8975	0.075	489795	keystroke_i	i	n/a
245.0925	0.105	490185	keystroke_n	n	n/a
245.1825	0.12	490365	keystroke_a	a	n/a
245.8125	0.135	491625	keystroke_n	n	n/a
246.0375	0.075	492075	keystroke_t	t	n/a
248.0025	0.105	496005	keystroke_Key.left	Key.left	n/a
248.1975	0.075	496395	keystroke_Key.left	Key.left	n/a
248.3625	0.06	496725	keystroke_Key.left	Key.left	n/a
248.5125	0.075	497025	keystroke_Key.left	Key.left	n/a
248.6625	0.075	497325	keystroke_Key.left	Key.left	n/a
248.8275	0.06	497655	keystroke_Key.left	Key.left	n/a
248.9775	0.075	497955	keystroke_Key.left	Key.left	n/a
249.1275	0.09	498255	keystroke_Key.left	Key.left	n/a
249.2925	0.075	498585	keystroke_Key.left	Key.left	n/a
249.4425	0.09	498885	keystroke_Key.left	Key.left	n/a
249.6225	0.09	499245	keystroke_Key.left	Key.left	n/a
249.7725	0.105	499545	keystroke_Key.left	Key.left	n/a
249.9075	0.135	499815	keystroke_Key.left	Key.left	n/a
250.4625	0.091	500925	keystroke_e	e	n/a
251.9025	0.075	503805	keystroke_Key.enter	Key.enter	n/a
251.9915	12.068	503983	prompt	n/a	merely societies meta deutsche\n
252.8335	0.105	505667	keystroke_m	m	n/a
252.9825	0.135	505965	keystroke_e	e	n/a
253.1025	0.181	506205	keystroke_r	r	n/a
253.2375	0.135	506475	keystroke_e	e	n/a
253.4785	0.09	506957	keystroke_l	l	n/a
253.6875	0.09	507375	keystroke_y	y	n/a
254.1675	0.105	508335	keystroke_Key.space	Key.space	n/a
254.4825	0.151	508965	keystroke_s	s	n/a
254.5875	0.105	509175	keystroke_o	o	n/a
254.7825	0.076	509565	keystroke_c	c	n/a
254.8885	0.089	509777	keystroke_i	i	n/a
255.0225	0.136	510045	keystroke_e	e	n/a
255.3385	0.075	510677	keystroke_t	t	n/a
255.4725	0.1365	510945	keystroke_i	i	n/a
255.594	0.149	511188	keystroke_e	e	n/a
255.683	0.15	511366	keystroke_s	s	n/a
256.4335	0.135	512867	keystroke_Key.space	Key.space	n/a
256.7035	0.045	513407	keystroke_m	m	n/a
256.7635	0.06	513527	keystroke_m	m	n/a
257.5885	0.09	515177	keystroke_Key.backspace	Key.backspace	n/a
257.8285	0.15	515657	keystroke_e	e	n/a
258.1435	0.12	516287	keystroke_t	t	n/a
258.4135	0.075	516827	keystroke_a	a	n/a
258.6535	0.135	517307	keystroke_Key.space	Key.space	n/a
259.3135	0.09	518627	keystroke_d	d	n/a
259.6885	0.21	519377	keystroke_e	e	n/a
260.4385	0.045	520877	keystroke_u	u	n/a
260.7535	0.105	521507	keystroke_t	t	n/a
261.1435	0.15	522287	keystroke_s	s	n/a
261.578	0.105	523156	keystroke_c	c	n/a
261.728	0.105	523456	keystroke_h	h	n/a
261.8485	0.0895	523697	keystroke_e	e	n/a
264.056	0	528112	keystroke_Key.enter	Key.enter	n/a
264.07	9.3155	528140	prompt	n/a	volumes town victory techno\n
265.149	0.119	530298	keystroke_v	v	n/a
265.209	0.119	530418	keystroke_o	o	n/a
265.4635	0.15	530927	keystroke_l	l	n/a
265.5835	0.12	531167	keystroke_u	u	n/a
265.8835	0.15	531767	keystroke_m	m	n/a
266.0185	0.18	532037	keystroke_e	e	n/a
266.1835	0.18	532367	keystroke_s	s	n/a
266.3785	0.12	532757	keystroke_Key.space	Key.space	n/a
266.5735	0.105	533147	keystroke_t	t	n/a
266.6635	0.12	533327	keystroke_o	o	n/a
266.7985	0.12	533597	keystroke_w	w	n/a
266.9485	0.105	533897	keystroke_n	n	n/a
267.1585	0.105	534317	keystroke_Key.space	Key.space	n/a
268.1485	0.12	536297	keystroke_v	v	n/a
268.3135	0.09	536627	keystroke_i	i	n/a
268.4635	0.09	536927	keystroke_c	c	n/a
268.6885	0.09	537377	keystroke_t	t	n/a
268.8085	0.105	537617	keystroke_o	o	n/a
269.2885	0.105	538577	keystroke_r	r	n/a
269.4685	0.105	538937	keystroke_y	y	n/a
269.7535	0.12	539507	keystroke_Key.space	Key.space	n/a
270.0535	0.15	540107	keystroke_t	t	n/a
270.1885	0.12	540377	keystroke_e	e	n/a
270.6985	0.135	541397	keystroke_c	c	n/a
271.1035	0.165	542207	keystroke_n	n	n/a
271.2235	0.135	542447	keystroke_o	o	n/a
271.748	0.09	543496	keystroke_Key.backspace	Key.backspace	n/a
271.944	0.12	543888	keystroke_Key.backspace	Key.backspace	n/a
272.409	0.09	544818	keystroke_h	h	n/a
272.664	0.15	545328	keystroke_n	n	n/a
272.769	0.105	545538	keystroke_o	o	n/a
273.309	0.075	546618	keystroke_Key.enter	Key.enter	n/a
273.3895	9.026	546779	prompt	n/a	donor guaranteed freeze crops\n
274.2685	0.09	548537	keystroke_d	d	n/a
274.4035	0.105	548807	keystroke_o	o	n/a
274.5685	0.12	549137	keystroke_n	n	n/a
274.7635	0.105	549527	keystroke_o	o	n/a
274.9135	0.135	549827	keystroke_r	r	n/a
275.1385	0.105	550277	keystroke_Key.space	Key.space	n/a
275.3785	0.105	550757	keystroke_g	g	n/a
275.7385	0.135	551477	keystroke_u	u	n/a
276.0085	0.21	552017	keystroke_r	r	n/a
276.5635	0.105	553127	keystroke_Key.backspace	Key.backspace	n/a
276.8645	0.179	553729	keystroke_a	a	n/a
277.9285	0.12	555857	keystroke_r	r	n/a
278.0935	0.12	556187	keystroke_a	a	n/a
278.1985	0.12	556397	keystroke_n	n	n/a
278.3635	0.135	556727	keystroke_t	t	n/a
278.4985	0.105	556997	keystroke_e	e	n/a
278.7235	0.09	557447	keystroke_e	e	n/a
278.934	0.105	557868	keystroke_d	d	n/a
279.0985	0.135	558197	keystroke_Key.space	Key.space	n/a
279.3385	0.075	558677	keystroke_f	f	n/a
279.5335	0.12	559067	keystroke_r	r	n/a
279.8035	0.06	559607	keystroke_e	e	n/a
279.9835	0.075	559967	keystroke_e	e	n/a
280.2385	0.1055	560477	keystroke_z	z	n/a
280.509	0.1045	561018	keystroke_e	e	n/a
280.7485	0.12	561497	keystroke_Key.space	Key.space	n/a
281.094	0.105	562188	keystroke_c	c	n/a
281.364	0.105	562728	keystroke_r	r	n/a
281.5885	0.18	563177	keystroke_o	o	n/a
281.7235	0.1205	563447	keystroke_p	p	n/a
281.8885	0.09	563777	keystroke_s	s	n/a
282.3385	0.075	564677	keystroke_Key.enter	Key.enter	n/a
282.421	6.97	564842	prompt	n/a	vegetation buck informal segments\n
283.2985	0.105	566597	keystroke_v	v	n/a
283.4935	0.135	566987	keystroke_e	e	n/a
283.7485	0.09	567497	keystroke_g	g	n/a
283.8835	0.195	567767	keystroke_e	e	n/a
284.0635	0.105	568127	keystroke_t	t	n/a
284.2135	0.165	568427	keystroke_a	a	n/a
284.4385	0.09	568877	keystroke_t	t	n/a
284.5585	0.165	569117	keystroke_i	i	n/a
284.6335	0.21	569267	keystroke_o	o	n/a
284.7685	0.135	569537	keystroke_n	n	n/a
284.9485	0.105	569897	keystroke_Key.space	Key.space	n/a
285.1135	0.09	570227	keystroke_b	b	n/a
285.3235	0.12	570647	keystroke_u	u	n/a
285.4735	0.105	570947	keystroke_c	c	n/a
285.6235	0.12	571247	keystroke_k	k	n/a
285.9385	0.135	571877	keystroke_Key.space	Key.space	n/a
286.2085	0.15	572417	keystroke_i	i	n/a
286.3735	0.12	572747	keystroke_n	n	n/a
286.5085	0.06	573017	keystroke_f	f	n/a
286.5985	0.12	573197	keystroke_o	o	n/a
286.7335	0.15	573467	keystroke_r	r	n/a
286.9285	0.12	573857	keystroke_m	m	n/a
287.1085	0.15	574217	keystroke_a	a	n/a
287.2885	0.12	574577	keystroke_l	l	n/a
287.4985	0.12	574997	keystroke_Key.space	Key.space	n/a
287.8885	0.105	575777	keystroke_s	s	n/a
288.1435	0.12	576287	keystroke_e	e	n/a
288.3685	0.105	576737	keystroke_g	g	n/a
288.5335	0.12	577067	keystroke_m	m	n/a
288.6385	0.12	577277	keystroke_e	e	n/a
288.7595	0.104	577519	keystroke_n	n	n/a
288.8935	0.09	577787	keystroke_t	t	n/a
289.0285	0.1505	578057	keystroke_s	s	n/a
289.314	0.075	578628	keystroke_Key.enter	Key.enter	n/a
289.396	9.3695	578792	prompt	n/a	phentermine based readers contracts\n
290.3485	0.045	580697	keystroke_p	p	n/a
290.469	0.105	580938	keystroke_h	h	n/a
290.739	0.165	581478	keystroke_e	e	n/a
291.5785	0.09	583157	keystroke_n	n	n/a
292.1485	0.105	584297	keystroke_t	t	n/a
292.3735	0.1355	584747	keystroke_e	e	n/a
292.4635	0.1355	584927	keystroke_r	r	n/a
292.629	0.0895	585258	keystroke_m	m	n/a
292.8235	0.12	585647	keystroke_i	i	n/a
293.0035	0.12	586007	keystroke_n	n	n/a
293.1535	0.18	586307	keystroke_e	e	n/a
293.2885	0.1505	586577	keystroke_Key.space	Key.space	n/a
294.159	0.105	588318	keystroke_b	b	n/a
294.309	0.075	588618	keystroke_a	a	n/a
294.504	0.21	589008	keystroke_s	s	n/a
294.639	0.12	589278	keystroke_e	e	n/a
294.864	0.15	589728	keystroke_d	d	n/a
294.999	0.105	589998	keystroke_Key.space	Key.space	n/a
295.239	0.135	590478	keystroke_r	r	n/a
295.374	0.15	590748	keystroke_e	e	n/a
295.644	0.075	591288	keystroke_a	a	n/a
295.809	0.09	591618	keystroke_d	d	n/a
296.004	0.18	592008	keystroke_e	e	n/a
296.109	0.134	592218	keystroke_r	r	n/a
296.304	0.18	592608	keystroke_s	s	n/a
296.423	0.12	592846	keystroke_Key.space	Key.space	n/a
296.6795	0.12	593359	keystroke_c	c	n/a
296.7995	0.12	593599	keystroke_o	o	n/a
296.8595	0.135	593719	keystroke_n	n	n/a
297.384	0.0895	594768	keystroke_t	t	n/a
297.5935	0.105	595187	keystroke_r	r	n/a
297.7435	0.121	595487	keystroke_a	a	n/a
297.9985	0.09	595997	keystroke_c	c	n/a
298.2095	0.104	596419	keystroke_t	t	n/a
298.3435	0.136	596687	keystroke_s	s	n/a
298.6735	0.09	597347	keystroke_Key.enter	Key.enter	n/a
298.771	24.49	597542	prompt	n/a	telecommunications spies individual mint\n
300.009	0.195	600018	keystroke_t	t	n/a
300.189	0.135	600378	keystroke_e	e	n/a
300.519	0.105	601038	keystroke_l	l	n/a
301.209	0.105	602418	keystroke_e	e	n/a
301.4945	0.09	602989	keystroke_c	c	n/a
301.5995	0.09	603199	keystroke_o	o	n/a
301.7945	0.105	603589	keystroke_m	m	n/a
302.0345	0.075	604069	keystroke_u	u	n/a
302.3195	0.12	604639	keystroke_n	n	n/a
302.3945	0.15	604789	keystroke_i	i	n/a
302.6045	0.09	605209	keystroke_c	c	n/a
302.7845	0.12	605569	keystroke_a	a	n/a
303.0395	0.12	606079	keystroke_t	t	n/a
303.1445	0.12	606289	keystroke_i	i	n/a
303.2045	0.195	606409	keystroke_o	o	n/a
303.3245	0.1195	606649	keystroke_n	n	n/a
303.459	0.165	606918	keystroke_s	s	n/a
303.594	0.12	607188	keystroke_Key.space	Key.space	n/a
303.984	0.12	607968	keystroke_s	s	n/a
304.134	0.105	608268	keystroke_p	p	n/a
304.329	0.135	608658	keystroke_i	i	n/a
304.465	0.149	608930	keystroke_e	e	n/a
304.554	0.165	609108	keystroke_s	s	n/a
308.622	0.012	617244	keystroke_Key.left	Key.left	n/a
308.724	0.075	617448	keystroke_Key.left	Key.left	n/a
308.889	0.075	617778	keystroke_Key.left	Key.left	n/a
309.039	0.09	618078	keystroke_Key.left	Key.left	n/a
309.189	0.09	618378	keystroke_Key.left	Key.left	n/a
309.354	0.09	618708	keystroke_Key.left	Key.left	n/a
309.534	0.09	619068	keystroke_Key.left	Key.left	n/a
309.714	0.075	619428	keystroke_Key.left	Key.left	n/a
309.879	0.075	619758	keystroke_Key.left	Key.left	n/a
310.059	0.06	620118	keystroke_Key.left	Key.left	n/a
310.224	0.09	620448	keystroke_Key.left	Key.left	n/a
310.404	0.09	620808	keystroke_Key.left	Key.left	n/a
310.584	0.09	621168	keystroke_Key.left	Key.left	n/a
310.764	0.09	621528	keystroke_Key.left	Key.left	n/a
310.989	0.06	621978	keystroke_Key.left	Key.left	n/a
311.229	0.075	622458	keystroke_Key.left	Key.left	n/a
312.159	0.09	624318	keystroke_m	m	n/a
317.337	0.042	634674	keystroke_Key.space	Key.space	n/a
317.56	0.195	635120	keystroke_i	i	n/a
317.664	0.105	635328	keystroke_n	n	n/a
318.069	0.105	636138	keystroke_d	d	n/a
318.189	0.09	636378	keystroke_i	i	n/a
319.194	0.12	638388	keystroke_v	v	n/a
319.299	0.12	638598	keystroke_i	i	n/a
321.16	0.104	642320	keystroke_d	d	n/a
321.234	0.075	642468	keystroke_u	u	n/a
321.399	0.135	642798	keystroke_a	a	n/a
321.489	0.09	642978	keystroke_l	l	n/a
321.654	0.105	643308	keystroke_Key.space	Key.space	n/a
321.804	0.105	643608	keystroke_m	m	n/a
322.029	0.165	644058	keystroke_i	i	n/a
322.149	0.135	644298	keystroke_n	n	n/a
322.689	0.075	645378	keystroke_t	t	n/a
323.184	0.075	646368	keystroke_Key.enter	Key.enter	n/a
323.268	7.989	646536	prompt	n/a	awareness acrobat discussing speaking\n
324.1295	0.12	648259	keystroke_a	a	n/a
324.3995	0.135	648799	keystroke_w	w	n/a
324.6395	0.105	649279	keystroke_a	a	n/a
324.9555	0.164	649911	keystroke_r	r	n/a
325.0445	0.15	650089	keystroke_e	e	n/a
325.2245	0.135	650449	keystroke_n	n	n/a
325.3445	0.15	650689	keystroke_e	e	n/a
325.4195	0.135	650839	keystroke_s	s	n/a
325.6595	0.135	651319	keystroke_s	s	n/a
325.8395	0.15	651679	keystroke_Key.space	Key.space	n/a
326.1845	0.12	652369	keystroke_a	a	n/a
326.4695	0.136	652939	keystroke_c	c	n/a
326.8595	0.105	653719	keystroke_r	r	n/a
326.9945	0.06	653989	keystroke_o	o	n/a
327.1595	0.12	654319	keystroke_b	b	n/a
327.2645	0.12	654529	keystroke_a	a	n/a
327.5045	0.075	655009	keystroke_t	t	n/a
327.8495	0.105	655699	keystroke_Key.space	Key.space	n/a
328.0745	0.1055	656149	keystroke_d	d	n/a
328.195	0.135	656390	keystroke_i	i	n/a
328.315	0.1205	656630	keystroke_s	s	n/a
328.5695	0.105	657139	keystroke_c	c	n/a
328.6905	0.104	657381	keystroke_u	u	n/a
328.8245	0.075	657649	keystroke_s	s	n/a
329.0045	0.105	658009	keystroke_s	s	n/a
329.1245	0.18	658249	keystroke_i	i	n/a
329.2295	0.135	658459	keystroke_n	n	n/a
329.3495	0.1505	658699	keystroke_g	g	n/a
329.515	0.12	659030	keystroke_Key.space	Key.space	n/a
329.725	0.135	659450	keystroke_s	s	n/a
329.89	0.12	659780	keystroke_p	p	n/a
329.995	0.15	659990	keystroke_e	e	n/a
330.16	0.15	660320	keystroke_a	a	n/a
330.325	0.075	660650	keystroke_k	k	n/a
330.505	0.195	661010	keystroke_i	i	n/a
330.625	0.15	661250	keystroke_n	n	n/a
330.73	0.105	661460	keystroke_g	g	n/a
331.18	0.075	662360	keystroke_Key.enter	Key.enter	n/a
331.2605	9.957	662521	prompt	n/a	magnitude implementation strict swedish\n
332.14	0.105	664280	keystroke_m	m	n/a
332.305	0.135	664610	keystroke_a	a	n/a
332.695	0.105	665390	keystroke_g	g	n/a
333.04	0.12	666080	keystroke_n	n	n/a
333.205	0.15	666410	keystroke_i	i	n/a
333.475	0.105	666950	keystroke_t	t	n/a
333.67	0.105	667340	keystroke_u	u	n/a
333.835	0.09	667670	keystroke_d	d	n/a
334.0595	0.1655	668119	keystroke_e	e	n/a
334.2095	0.12	668419	keystroke_Key.space	Key.space	n/a
334.375	0.0895	668750	keystroke_i	i	n/a
334.5995	0.0755	669199	keystroke_m	m	n/a
334.78	0.075	669560	keystroke_p	p	n/a
334.99	0.09	669980	keystroke_l	l	n/a
335.155	0.105	670310	keystroke_e	e	n/a
335.275	0.09	670550	keystroke_m	m	n/a
335.545	0.135	671090	keystroke_e	e	n/a
335.695	0.09	671390	keystroke_n	n	n/a
335.83	0.105	671660	keystroke_t	t	n/a
335.995	0.15	671990	keystroke_a	a	n/a
336.13	0.12	672260	keystroke_t	t	n/a
336.206	0.179	672412	keystroke_i	i	n/a
336.295	0.21	672590	keystroke_o	o	n/a
336.43	0.12	672860	keystroke_n	n	n/a
336.535	0.135	673070	keystroke_Key.space	Key.space	n/a
336.73	0.18	673460	keystroke_s	s	n/a
336.94	0.09	673880	keystroke_t	t	n/a
337.15	0.105	674300	keystroke_r	r	n/a
337.285	0.12	674570	keystroke_i	i	n/a
337.465	0.09	674930	keystroke_c	c	n/a
337.75	0.075	675500	keystroke_t	t	n/a
338.02	0.12	676040	keystroke_Key.space	Key.space	n/a
338.215	0.105	676430	keystroke_s	s	n/a
338.455	0.12	676910	keystroke_w	w	n/a
338.635	0.18	677270	keystroke_e	e	n/a
339.04	0.135	678080	keystroke_d	d	n/a
339.22	0.09	678440	keystroke_i	i	n/a
339.34	0.105	678680	keystroke_s	s	n/a
339.415	0.09	678830	keystroke_h	h	n/a
341.155	0.06	682310	keystroke_Key.enter	Key.enter	n/a
341.2225	6.5645	682445	prompt	n/a	images losses tenant shark\n
342.115	0.12	684230	keystroke_i	i	n/a
342.385	0.105	684770	keystroke_m	m	n/a
342.475	0.09	684950	keystroke_a	a	n/a
342.73	0.195	685460	keystroke_g	g	n/a
342.82	0.195	685640	keystroke_e	e	n/a
343.06	0.24	686120	keystroke_s	s	n/a
343.525	0.09	687050	keystroke_Key.space	Key.space	n/a
343.735	0.105	687470	keystroke_l	l	n/a
343.975	0.105	687950	keystroke_o	o	n/a
344.125	0.075	688250	keystroke_s	s	n/a
344.305	0.12	688610	keystroke_s	s	n/a
344.5	0.1195	689000	keystroke_e	e	n/a
344.6645	0.18	689329	keystroke_s	s	n/a
344.8895	0.12	689779	keystroke_Key.space	Key.space	n/a
345.2795	0.105	690559	keystroke_t	t	n/a
345.4595	0.165	690919	keystroke_e	e	n/a
345.7295	0.105	691459	keystroke_n	n	n/a
345.8645	0.135	691729	keystroke_a	a	n/a
346.0145	0.105	692029	keystroke_n	n	n/a
346.1495	0.09	692299	keystroke_t	t	n/a
346.3295	0.105	692659	keystroke_Key.space	Key.space	n/a
346.5845	0.105	693169	keystroke_s	s	n/a
346.7795	0.106	693559	keystroke_h	h	n/a
346.8995	0.21	693799	keystroke_a	a	n/a
347.0195	0.15	694039	keystroke_r	r	n/a
347.3345	0.105	694669	keystroke_k	k	n/a
347.6645	0.12	695329	keystroke_Key.enter	Key.enter	n/a
347.793	11.109	695586	prompt	n/a	adware cent subsequently murder\n
348.6245	0.135	697249	keystroke_a	a	n/a
349.1495	0.09	698299	keystroke_d	d	n/a
349.4495	0.105	698899	keystroke_w	w	n/a
349.7345	0.075	699469	keystroke_a	a	n/a
350.0045	0.15	700009	keystroke_r	r	n/a
350.0945	0.1955	700189	keystroke_e	e	n/a
350.35	0.15	700700	keystroke_Key.space	Key.space	n/a
350.86	0.12	701720	keystroke_c	c	n/a
351.085	0.12	702170	keystroke_e	e	n/a
351.19	0.105	702380	keystroke_n	n	n/a
351.37	0.09	702740	keystroke_t	t	n/a
351.58	0.105	703160	keystroke_Key.space	Key.space	n/a
351.88	0.135	703760	keystroke_s	s	n/a
352.03	0.105	704060	keystroke_u	u	n/a
352.495	0.105	704990	keystroke_b	b	n/a
352.765	0.09	705530	keystroke_s	s	n/a
352.99	0.15	705980	keystroke_e	e	n/a
353.29	0.1205	706580	keystroke_q	q	n/a
353.3655	0.09	706731	keystroke_u	u	n/a
355.6785	0.071	711357	keystroke_e	e	n/a
355.7205	0.119	711441	keystroke_n	n	n/a
355.8855	0.075	711771	keystroke_t	t	n/a
356.0045	0.09	712009	keystroke_l	l	n/a
356.2145	0.076	712429	keystroke_y	y	n/a
356.9505	0.134	713901	keystroke_Key.space	Key.space	n/a
357.2205	0.075	714441	keystroke_m	m	n/a
357.445	0.075	714890	keystroke_u	u	n/a
357.625	0.105	715250	keystroke_r	r	n/a
357.85	0.06	715700	keystroke_d	d	n/a
358.045	0.165	716090	keystroke_e	e	n/a
358.165	0.135	716330	keystroke_r	r	n/a
358.81	0.0895	717620	keystroke_Key.enter	Key.enter	n/a
358.908	8.529	717816	prompt	n/a	disciplines dana processors privacy\n
359.7555	0.12	719511	keystroke_d	d	n/a
359.8895	0.12	719779	keystroke_i	i	n/a
360.0245	0.106	720049	keystroke_s	s	n/a
360.2945	0.135	720589	keystroke_c	c	n/a
360.3855	0.075	720771	keystroke_i	i	n/a
360.5795	0.09	721159	keystroke_p	p	n/a
360.7905	0.104	721581	keystroke_l	l	n/a
360.9395	0.105	721879	keystroke_i	i	n/a
361.1645	0.135	722329	keystroke_n	n	n/a
361.2545	0.1955	722509	keystroke_e	e	n/a
361.3745	0.2255	722749	keystroke_s	s	n/a
361.585	0.135	723170	keystroke_Key.space	Key.space	n/a
361.99	0.105	723980	keystroke_d	d	n/a
362.23	0.105	724460	keystroke_a	a	n/a
362.455	0.136	724910	keystroke_n	n	n/a
362.575	0.15	725150	keystroke_a	a	n/a
362.815	0.135	725630	keystroke_Key.space	Key.space	n/a
363.01	0.105	726020	keystroke_p	p	n/a
363.19	0.105	726380	keystroke_r	r	n/a
363.31	0.12	726620	keystroke_o	o	n/a
363.4755	0.09	726951	keystroke_c	c	n/a
363.6855	0.135	727371	keystroke_e	e	n/a
363.8795	0.106	727759	keystroke_s	s	n/a
364.0455	0.134	728091	keystroke_s	s	n/a
364.2105	0.165	728421	keystroke_o	o	n/a
364.3605	0.1045	728721	keystroke_r	r	n/a
364.555	0.15	729110	keystroke_s	s	n/a
364.69	0.12	729380	keystroke_Key.space	Key.space	n/a
364.9	0.105	729800	keystroke_p	p	n/a
365.05	0.1205	730100	keystroke_r	r	n/a
365.215	0.09	730430	keystroke_i	i	n/a
365.515	0.105	731030	keystroke_v	v	n/a
365.725	0.105	731450	keystroke_a	a	n/a
365.95	0.105	731900	keystroke_c	c	n/a
366.115	0.105	732230	keystroke_y	y	n/a
367.36	0.075	734720	keystroke_Key.enter	Key.enter	n/a
367.4425	14.3055	734885	prompt	n/a	beauty addressed cancel systems\n
368.305	0.09	736610	keystroke_b	b	n/a
368.515	0.135	737030	keystroke_e	e	n/a
368.665	0.135	737330	keystroke_a	a	n/a
369.55	0.105	739100	keystroke_u	u	n/a
369.85	0.06	739700	keystroke_t	t	n/a
370.105	0.105	740210	keystroke_y	y	n/a
371.035	0.105	742070	keystroke_Key.space	Key.space	n/a
371.23	0.075	742460	keystroke_a	a	n/a
371.425	0.075	742850	keystroke_d	d	n/a
371.605	0.075	743210	keystroke_d	d	n/a
371.815	0.135	743630	keystroke_r	r	n/a
371.89	0.165	743780	keystroke_e	e	n/a
371.98	0.135	743960	keystroke_s	s	n/a
372.22	0.165	744440	keystroke_s	s	n/a
372.356	0.104	744712	keystroke_e	e	n/a
372.58	0.105	745160	keystroke_d	d	n/a
372.79	0.105	745580	keystroke_Key.space	Key.space	n/a
373.18	0.09	746360	keystroke_c	c	n/a
373.435	0.12	746870	keystroke_a	a	n/a
373.57	0.105	747140	keystroke_n	n	n/a
373.72	0.105	747440	keystroke_c	c	n/a
373.9	0.105	747800	keystroke_e	e	n/a
374.02	0.12	748040	keystroke_l	l	n/a
374.17	0.12	748340	keystroke_Key.space	Key.space	n/a
374.32	0.12	748640	keystroke_s	s	n/a
374.441	0.104	748882	keystroke_y	y	n/a
374.56	0.15	749120	keystroke_s	s	n/a
374.77	0.105	749540	keystroke_t	t	n/a
374.92	0.165	749840	keystroke_e	e	n/a
375.025	0.135	750050	keystroke_r	r	n/a
375.25	0.12	750500	keystroke_m	m	n/a
379.3035	0.027	758607	keystroke_Key.backspace	Key.backspace	n/a
379.51	0.045	759020	keystroke_Key.backspace	Key.backspace	n/a
380.9205	0.075	761841	keystroke_m	m	n/a
381.1305	0.105	762261	keystroke_s	s	n/a
381.6705	0.075	763341	keystroke_Key.enter	Key.enter	n/a
381.7525	9.403	763505	prompt	n/a	priest foundations acres nickel\n
383.457	0.09	766914	keystroke_p	p	n/a
383.741	0.121	767482	keystroke_r	r	n/a
384.027	0.105	768054	keystroke_i	i	n/a
384.207	0.134	768414	keystroke_e	e	n/a
384.417	0.18	768834	keystroke_s	s	n/a
384.582	0.1055	769164	keystroke_t	t	n/a
384.7765	0.106	769553	keystroke_Key.space	Key.space	n/a
385.0175	0.105	770035	keystroke_f	f	n/a
385.2575	0.105	770515	keystroke_o	o	n/a
385.422	0.09	770844	keystroke_u	u	n/a
385.662	0.105	771324	keystroke_n	n	n/a
386.052	0.105	772104	keystroke_d	d	n/a
386.2475	0.135	772495	keystroke_a	a	n/a
386.4875	0.09	772975	keystroke_t	t	n/a
386.5925	0.135	773185	keystroke_i	i	n/a
386.6525	0.18	773305	keystroke_o	o	n/a
386.7875	0.12	773575	keystroke_n	n	n/a
386.8925	0.15	773785	keystroke_s	s	n/a
387.1175	0.075	774235	keystroke_Key.space	Key.space	n/a
387.3275	0.1205	774655	keystroke_a	a	n/a
387.598	0.12	775196	keystroke_c	c	n/a
388.033	0.165	776066	keystroke_r	r	n/a
388.093	0.195	776186	keystroke_e	e	n/a
388.213	0.165	776426	keystroke_s	s	n/a
388.498	0.12	776996	keystroke_Key.space	Key.space	n/a
388.7535	0.15	777507	keystroke_n	n	n/a
388.8735	0.105	777747	keystroke_i	i	n/a
388.9935	0.09	777987	keystroke_c	c	n/a
389.1585	0.15	778317	keystroke_k	k	n/a
389.2935	0.09	778587	keystroke_e	e	n/a
389.8035	0.135	779607	keystroke_l	l	n/a
391.049	0.105	782098	keystroke_Key.enter	Key.enter	n/a
391.16	8.1735	782320	prompt	n/a	induced industry thai exploring\n
391.8745	0.15	783749	keystroke_i	i	n/a
392.0395	0.1505	784079	keystroke_n	n	n/a
392.325	0.105	784650	keystroke_d	d	n/a
392.445	0.105	784890	keystroke_u	u	n/a
392.595	0.06	785190	keystroke_c	c	n/a
392.79	0.075	785580	keystroke_e	e	n/a
392.985	0.135	785970	keystroke_d	d	n/a
393.105	0.12	786210	keystroke_Key.space	Key.space	n/a
393.24	0.18	786480	keystroke_i	i	n/a
393.36	0.12	786720	keystroke_n	n	n/a
393.645	0.12	787290	keystroke_d	d	n/a
393.78	0.09	787560	keystroke_u	u	n/a
393.885	0.165	787770	keystroke_s	s	n/a
394.065	0.09	788130	keystroke_t	t	n/a
394.275	0.105	788550	keystroke_r	r	n/a
394.44	0.105	788880	keystroke_y	y	n/a
394.5905	0.135	789181	keystroke_Key.space	Key.space	n/a
394.8605	0.075	789721	keystroke_t	t	n/a
394.9505	0.075	789901	keystroke_h	h	n/a
395.1005	0.135	790201	keystroke_a	a	n/a
396.0605	0.075	792121	keystroke_i	i	n/a
396.721	0.12	793442	keystroke_Key.space	Key.space	n/a
397.081	0.105	794162	keystroke_e	e	n/a
397.336	0.18	794672	keystroke_x	x	n/a
397.546	0.09	795092	keystroke_p	p	n/a
397.7865	0.09	795573	keystroke_l	l	n/a
397.9665	0.105	795933	keystroke_o	o	n/a
398.1315	0.105	796263	keystroke_r	r	n/a
398.2515	0.195	796503	keystroke_i	i	n/a
398.3565	0.135	796713	keystroke_n	n	n/a
398.5365	0.105	797073	keystroke_g	g	n/a
399.2415	0.09	798483	keystroke_Key.enter	Key.enter	n/a
399.3395	9.0725	798679	prompt	n/a	superb anxiety airports hammer\n
400.007	0.135	800014	keystroke_s	s	n/a
400.157	0.12	800314	keystroke_u	u	n/a
400.442	0.12	800884	keystroke_p	p	n/a
400.682	0.12	801364	keystroke_e	e	n/a
400.772	0.15	801544	keystroke_r	r	n/a
400.9975	0.105	801995	keystroke_b	b	n/a
401.2075	0.12	802415	keystroke_Key.space	Key.space	n/a
401.4625	0.165	802925	keystroke_a	a	n/a
401.8375	0.135	803675	keystroke_n	n	n/a
402.3175	0.105	804635	keystroke_x	x	n/a
402.4975	0.1055	804995	keystroke_i	i	n/a
402.708	0.165	805416	keystroke_e	e	n/a
402.858	0.105	805716	keystroke_t	t	n/a
403.023	0.105	806046	keystroke_y	y	n/a
403.458	0.105	806916	keystroke_Key.space	Key.space	n/a
403.878	0.135	807756	keystroke_a	a	n/a
404.028	0.0905	808056	keystroke_i	i	n/a
404.1485	0.105	808297	keystroke_r	r	n/a
404.2835	0.09	808567	keystroke_p	p	n/a
404.4785	0.09	808957	keystroke_o	o	n/a
404.6295	0.089	809259	keystroke_r	r	n/a
404.8235	0.09	809647	keystroke_t	t	n/a
405.0035	0.135	810007	keystroke_s	s	n/a
405.1985	0.135	810397	keystroke_Key.space	Key.space	n/a
405.4535	0.105	810907	keystroke_h	h	n/a
405.5435	0.1355	811087	keystroke_a	a	n/a
405.709	0.09	811418	keystroke_n	n	n/a
405.874	0.105	811748	keystroke_n	n	n/a
406.414	0.09	812828	keystroke_Key.backspace	Key.backspace	n/a
406.639	0.105	813278	keystroke_Key.backspace	Key.backspace	n/a
407.029	0.09	814058	keystroke_m	m	n/a
407.2395	0.075	814479	keystroke_m	m	n/a
407.4195	0.12	814839	keystroke_e	e	n/a
407.5995	0.09	815199	keystroke_r	r	n/a
408.3345	0.075	816669	keystroke_Key.enter	Key.enter	n/a
408.4175	4.541	816835	prompt	n/a	have coating me ranging\n
409.145	0.105	818290	keystroke_h	h	n/a
409.28	0.135	818560	keystroke_a	a	n/a
409.416	0.104	818832	keystroke_v	v	n/a
409.58	0.12	819160	keystroke_e	e	n/a
409.67	0.135	819340	keystroke_Key.space	Key.space	n/a
409.925	0.12	819850	keystroke_c	c	n/a
410.03	0.12	820060	keystroke_o	o	n/a
410.151	0.119	820302	keystroke_a	a	n/a
410.39	0.075	820780	keystroke_t	t	n/a
410.495	0.1805	820990	keystroke_i	i	n/a
410.6005	0.135	821201	keystroke_n	n	n/a
410.7205	0.136	821441	keystroke_g	g	n/a
410.8705	0.075	821741	keystroke_Key.space	Key.space	n/a
411.0505	0.091	822101	keystroke_m	m	n/a
411.1705	0.15	822341	keystroke_e	e	n/a
411.3505	0.105	822701	keystroke_Key.space	Key.space	n/a
411.5605	0.12	823121	keystroke_r	r	n/a
411.7705	0.12	823541	keystroke_a	a	n/a
411.8755	0.105	823751	keystroke_n	n	n/a
412.0405	0.105	824081	keystroke_g	g	n/a
412.1605	0.1955	824321	keystroke_i	i	n/a
412.266	0.135	824532	keystroke_n	n	n/a
412.387	0.089	824774	keystroke_g	g	n/a
412.881	0.075	825762	keystroke_Key.enter	Key.enter	n/a
412.9645	10.1365	825929	prompt	n/a	punishment pole amendment accreditation\n
413.8265	0.075	827653	keystroke_p	p	n/a
413.9765	0.105	827953	keystroke_u	u	n/a
414.2765	0.15	828553	keystroke_n	n	n/a
414.3815	0.135	828763	keystroke_i	i	n/a
414.5315	0.135	829063	keystroke_s	s	n/a
414.6515	0.075	829303	keystroke_h	h	n/a
414.997	0.1045	829994	keystroke_m	m	n/a
415.147	0.12	830294	keystroke_e	e	n/a
415.237	0.105	830474	keystroke_n	n	n/a
415.4025	0.1055	830805	keystroke_t	t	n/a
415.5675	0.105	831135	keystroke_Key.space	Key.space	n/a
415.7475	0.105	831495	keystroke_p	p	n/a
415.9575	0.09	831915	keystroke_o	o	n/a
416.1525	0.09	832305	keystroke_l	l	n/a
416.2725	0.15	832545	keystroke_e	e	n/a
416.4075	0.12	832815	keystroke_Key.space	Key.space	n/a
416.8725	0.12	833745	keystroke_a	a	n/a
417.0825	0.1055	834165	keystroke_m	m	n/a
417.293	0.15	834586	keystroke_e	e	n/a
417.488	0.09	834976	keystroke_n	n	n/a
418.043	0.12	836086	keystroke_d	d	n/a
419.483	0.09	838966	keystroke_m	m	n/a
419.663	0.105	839326	keystroke_e	e	n/a
419.738	0.105	839476	keystroke_n	n	n/a
419.918	0.105	839836	keystroke_t	t	n/a
420.158	0.105	840316	keystroke_Key.space	Key.space	n/a
420.383	0.09	840766	keystroke_a	a	n/a
420.608	0.06	841216	keystroke_c	c	n/a
420.758	0.105	841516	keystroke_c	c	n/a
421.028	0.15	842056	keystroke_r	r	n/a
421.118	0.1955	842236	keystroke_e	e	n/a
421.5535	0.15	843107	keystroke_d	d	n/a
421.7185	0.12	843437	keystroke_i	i	n/a
421.8835	0.105	843767	keystroke_t	t	n/a
422.0335	0.165	844067	keystroke_a	a	n/a
422.2135	0.12	844427	keystroke_t	t	n/a
422.3335	0.165	844667	keystroke_i	i	n/a
422.4235	0.18	844847	keystroke_o	o	n/a
422.5585	0.12	845117	keystroke_n	n	n/a
423.0235	0.075	846047	keystroke_Key.enter	Key.enter	n/a
423.11	11.3165	846220	prompt	n/a	transaction scales foot scores\n
423.9545	0.075	847909	keystroke_t	t	n/a
424.1045	0.134	848209	keystroke_r	r	n/a
424.2535	0.151	848507	keystroke_a	a	n/a
424.3895	0.105	848779	keystroke_n	n	n/a
424.5245	0.105	849049	keystroke_s	s	n/a
424.7645	0.06	849529	keystroke_c	c	n/a
425.574	0.075	851148	keystroke_Key.backspace	Key.backspace	n/a
425.935	0.075	851870	keystroke_n	n	n/a
427.029	0.12	854058	keystroke_Key.backspace	Key.backspace	n/a
427.99	0.1655	855980	keystroke_a	a	n/a
428.38	0.1195	856760	keystroke_c	c	n/a
429.5795	0.091	859159	keystroke_t	t	n/a
429.7905	0.21	859581	keystroke_i	i	n/a
429.8805	0.165	859761	keystroke_o	o	n/a
430.0305	0.09	860061	keystroke_n	n	n/a
430.479	0.1055	860958	keystroke_Key.space	Key.space	n/a
430.7355	0.1045	861471	keystroke_s	s	n/a
431.0505	0.09	862101	keystroke_c	c	n/a
431.2005	0.1195	862401	keystroke_a	a	n/a
431.365	0.135	862730	keystroke_l	l	n/a
431.485	0.15	862970	keystroke_e	e	n/a
431.575	0.195	863150	keystroke_s	s	n/a
431.799	0.12	863598	keystroke_Key.space	Key.space	n/a
432.46	0.09	864920	keystroke_f	f	n/a
432.565	0.09	865130	keystroke_o	o	n/a
432.73	0.12	865460	keystroke_o	o	n/a
432.88	0.164	865760	keystroke_t	t	n/a
433.03	0.119	866060	keystroke_Key.space	Key.space	n/a
433.21	0.12	866420	keystroke_s	s	n/a
433.524	0.106	867048	keystroke_c	c	n/a
433.69	0.135	867380	keystroke_o	o	n/a
433.855	0.195	867710	keystroke_r	r	n/a
433.93	0.15	867860	keystroke_e	e	n/a
434.02	0.149	868040	keystroke_s	s	n/a
434.335	0.089	868670	keystroke_Key.enter	Key.enter	n/a
434.4315	11.425	868863	prompt	n/a	disorder sculpture helena sensor\n
435.235	0.135	870470	keystroke_d	d	n/a
435.565	0.105	871130	keystroke_i	i	n/a
435.745	0.135	871490	keystroke_s	s	n/a
436.525	0.09	873050	keystroke_o	o	n/a
436.705	0.105	873410	keystroke_r	r	n/a
436.945	0.09	873890	keystroke_d	d	n/a
437.14	0.12	874280	keystroke_e	e	n/a
437.245	0.15	874490	keystroke_r	r	n/a
437.365	0.12	874730	keystroke_Key.space	Key.space	n/a
437.59	0.12	875180	keystroke_s	s	n/a
437.86	0.135	875720	keystroke_c	c	n/a
437.98	0.09	875960	keystroke_u	u	n/a
438.175	0.1345	876350	keystroke_l	l	n/a
440.5625	0.027	881125	keystroke_p	p	n/a
440.7095	0.105	881419	keystroke_t	t	n/a
440.8745	0.075	881749	keystroke_u	u	n/a
441.0545	0.135	882109	keystroke_r	r	n/a
441.1445	0.15	882289	keystroke_e	e	n/a
441.5195	0.12	883039	keystroke_Key.space	Key.space	n/a
441.8195	0.09	883639	keystroke_h	h	n/a
441.9545	0.12	883909	keystroke_e	e	n/a
442.1195	0.12	884239	keystroke_l	l	n/a
442.2745	0.115	884549	keystroke_e	e	n/a
442.4195	0.12	884839	keystroke_n	n	n/a
442.5545	0.105	885109	keystroke_a	a	n/a
442.8095	0.09	885619	keystroke_Key.space	Key.space	n/a
442.9745	0.12	885949	keystroke_s	s	n/a
444.5795	0.12	889159	keystroke_e	e	n/a
444.7145	0.09	889429	keystroke_n	n	n/a
444.8345	0.165	889669	keystroke_s	s	n/a
445.1495	0.105	890299	keystroke_o	o	n/a
445.2995	0.075	890599	keystroke_r	r	n/a
445.824	0.031	891648	keystroke_Key.enter	Key.enter	n/a
445.8605	9.4455	891721	prompt	n/a	possibilities comp websites montreal\n
446.605	0.0885	893210	keystroke_p	p	n/a
447.174	0.0905	894348	keystroke_o	o	n/a
447.399	0.09	894798	keystroke_s	s	n/a
447.579	0.105	895158	keystroke_s	s	n/a
447.699	0.105	895398	keystroke_i	i	n/a
447.894	0.18	895788	keystroke_b	b	n/a
448.044	0.09	896088	keystroke_i	i	n/a
448.239	0.18	896478	keystroke_l	l	n/a
448.389	0.105	896778	keystroke_i	i	n/a
448.584	0.09	897168	keystroke_t	t	n/a
448.704	0.12	897408	keystroke_i	i	n/a
448.809	0.135	897618	keystroke_e	e	n/a
448.899	0.195	897798	keystroke_s	s	n/a
449.064	0.12	898128	keystroke_Key.space	Key.space	n/a
449.319	0.105	898638	keystroke_c	c	n/a
450.459	0.18	900918	keystroke_o	o	n/a
450.624	0.15	901248	keystroke_m	m	n/a
451.164	0.06	902328	keystroke_p	p	n/a
451.5535	0.12	903107	keystroke_Key.space	Key.space	n/a
451.8395	0.12	903679	keystroke_w	w	n/a
452.0045	0.135	904009	keystroke_e	e	n/a
452.1845	0.12	904369	keystroke_b	b	n/a
452.3495	0.135	904699	keystroke_s	s	n/a
452.4545	0.12	904909	keystroke_i	i	n/a
452.5595	0.15	905119	keystroke_t	t	n/a
452.6645	0.15	905329	keystroke_e	e	n/a
452.8155	0.179	905631	keystroke_s	s	n/a
453.0095	0.135	906019	keystroke_Key.space	Key.space	n/a
453.444	0.12	906888	keystroke_m	m	n/a
453.714	0.195	907428	keystroke_o	o	n/a
453.834	0.135	907668	keystroke_n	n	n/a
454.044	0.075	908088	keystroke_t	t	n/a
454.209	0.15	908418	keystroke_r	r	n/a
454.584	0.135	909168	keystroke_e	e	n/a
454.704	0.15	909408	keystroke_a	a	n/a
454.855	0.104	909710	keystroke_l	l	n/a
455.244	0.06	910488	keystroke_Key.enter	Key.enter	n/a
455.3105	6.5045	910621	prompt	n/a	transactions native get search\n
456.144	0.075	912288	keystroke_t	t	n/a
456.309	0.1345	912618	keystroke_r	r	n/a
456.4585	0.135	912917	keystroke_a	a	n/a
456.5635	0.105	913127	keystroke_n	n	n/a
456.7135	0.121	913427	keystroke_s	s	n/a
456.9985	0.12	913997	keystroke_a	a	n/a
457.2235	0.09	914447	keystroke_c	c	n/a
457.4345	0.12	914869	keystroke_t	t	n/a
457.5385	0.166	915077	keystroke_i	i	n/a
457.6145	0.179	915229	keystroke_o	o	n/a
457.7195	0.134	915439	keystroke_n	n	n/a
457.8685	0.165	915737	keystroke_s	s	n/a
458.0485	0.15	916097	keystroke_Key.space	Key.space	n/a
458.2735	0.12	916547	keystroke_n	n	n/a
458.379	0.1195	916758	keystroke_a	a	n/a
458.6335	0.076	917267	keystroke_t	t	n/a
458.6945	0.06	917389	keystroke_i	i	n/a
458.873	0.106	917746	keystroke_v	v	n/a
458.993	0.195	917986	keystroke_e	e	n/a
459.143	0.135	918286	keystroke_Key.space	Key.space	n/a
459.428	0.06	918856	keystroke_g	g	n/a
459.579	0.194	919158	keystroke_e	e	n/a
459.774	0.135	919548	keystroke_t	t	n/a
459.893	0.12	919786	keystroke_Key.space	Key.space	n/a
460.298	0.12	920596	keystroke_s	s	n/a
460.568	0.121	921136	keystroke_e	e	n/a
460.823	0.195	921646	keystroke_a	a	n/a
460.943	0.106	921886	keystroke_r	r	n/a
461.184	0.104	922368	keystroke_c	c	n/a
461.319	0.074	922638	keystroke_h	h	n/a
461.723	0.09	923446	keystroke_Key.enter	Key.enter	n/a
461.8205	10.405	923641	prompt	n/a	behind files employer highlighted\n
463.073	0.106	926146	keystroke_b	b	n/a
463.223	0.106	926446	keystroke_e	e	n/a
463.464	0.119	926928	keystroke_h	h	n/a
463.554	0.195	927108	keystroke_i	i	n/a
463.689	0.12	927378	keystroke_n	n	n/a
463.793	0.18	927586	keystroke_d	d	n/a
463.943	0.12	927886	keystroke_Key.space	Key.space	n/a
464.229	0.089	928458	keystroke_f	f	n/a
464.409	0.149	928818	keystroke_l	l	n/a
464.9935	0.075	929987	keystroke_Key.backspace	Key.backspace	n/a
465.2035	0.089	930407	keystroke_i	i	n/a
465.4125	0.151	930825	keystroke_l	l	n/a
465.5025	0.181	931005	keystroke_e	e	n/a
465.6085	0.225	931217	keystroke_s	s	n/a
466.7925	0.12	933585	keystroke_Key.space	Key.space	n/a
467.1375	0.091	934275	keystroke_e	e	n/a
467.2735	0.074	934547	keystroke_m	m	n/a
467.4675	0.121	934935	keystroke_p	p	n/a
468.054	0.119	936108	keystroke_l	l	n/a
468.294	0.105	936588	keystroke_o	o	n/a
469.3135	0.09	938627	keystroke_y	y	n/a
469.4485	0.164	938897	keystroke_e	e	n/a
469.5835	0.195	939167	keystroke_r	r	n/a
469.7475	0.135	939495	keystroke_Key.space	Key.space	n/a
470.034	0.135	940068	keystroke_h	h	n/a
470.109	0.135	940218	keystroke_i	i	n/a
470.229	0.135	940458	keystroke_g	g	n/a
470.379	0.075	940758	keystroke_h	h	n/a
470.574	0.135	941148	keystroke_l	l	n/a
470.663	0.136	941326	keystroke_i	i	n/a
470.813	0.091	941626	keystroke_g	g	n/a
470.904	0.1195	941808	keystroke_h	h	n/a
471.0535	0.135	942107	keystroke_t	t	n/a
471.2035	0.09	942407	keystroke_e	e	n/a
471.3985	0.105	942797	keystroke_d	d	n/a
472.1335	0.09	944267	keystroke_Key.enter	Key.enter	n/a
472.2295	14.23	944459	prompt	n/a	haven anonymous wired specifies\n
472.9735	0.09	945947	keystroke_h	h	n/a
473.0935	0.15	946187	keystroke_a	a	n/a
473.2285	0.105	946457	keystroke_v	v	n/a
473.379	0.0895	946758	keystroke_e	e	n/a
473.5585	0.03	947117	keystroke_n	n	n/a
473.7235	0.119	947447	keystroke_Key.space	Key.space	n/a
475.7025	0.151	951405	keystroke_a	a	n/a
475.9575	0.166	951915	keystroke_n	n	n/a
476.2725	0.15	952545	keystroke_o	o	n/a
476.4825	0.09	952965	keystroke_n	n	n/a
476.7375	0.075	953475	keystroke_y	y	n/a
476.9785	0.104	953957	keystroke_m	m	n/a
477.1725	0.181	954345	keystroke_o	o	n/a
477.3225	0.12	954645	keystroke_u	u	n/a
477.4585	0.194	954917	keystroke_s	s	n/a
477.5925	0.135	955185	keystroke_Key.space	Key.space	n/a
477.8475	0.105	955695	keystroke_w	w	n/a
477.9675	0.09	955935	keystroke_i	i	n/a
478.1325	0.165	956265	keystroke_r	r	n/a
478.2075	0.165	956415	keystroke_e	e	n/a
478.4475	0.195	956895	keystroke_d	d	n/a
478.6275	0.105	957255	keystroke_Key.space	Key.space	n/a
478.8825	0.165	957765	keystroke_s	s	n/a
479.1525	0.105	958305	keystroke_p	p	n/a
480.293	0.12	960586	keystroke_e	e	n/a
481.703	0.12	963406	keystroke_c	c	n/a
481.868	0.075	963736	keystroke_i	i	n/a
482.018	0.105	964036	keystroke_f	f	n/a
482.168	0.105	964336	keystroke_i	i	n/a
484.1475	0.135	968295	keystroke_e	e	n/a
484.2375	0.12	968475	keystroke_s	s	n/a
486.4315	0.026	972863	keystroke_Key.enter	Key.enter	n/a
486.466	12.0835	972932	prompt	n/a	french tournaments payments processed\n
487.4925	0.09	974985	keystroke_f	f	n/a
487.7035	0.104	975407	keystroke_r	r	n/a
487.8235	0.165	975647	keystroke_e	e	n/a
487.9885	0.105	975977	keystroke_n	n	n/a
488.1835	0.09	976367	keystroke_c	c	n/a
488.3335	0.104	976667	keystroke_h	h	n/a
488.5275	0.1345	977055	keystroke_Key.space	Key.space	n/a
490.297	0.105	980594	keystroke_t	t	n/a
490.687	0.09	981374	keystroke_o	o	n/a
490.867	0.106	981734	keystroke_u	u	n/a
491.032	0.12	982064	keystroke_r	r	n/a
491.242	0.106	982484	keystroke_n	n	n/a
493.2065	0.181	986413	keystroke_a	a	n/a
493.3725	0.119	986745	keystroke_m	m	n/a
493.5375	0.149	987075	keystroke_e	e	n/a
493.6575	0.134	987315	keystroke_n	n	n/a
493.7765	0.09	987553	keystroke_t	t	n/a
493.9275	0.12	987855	keystroke_s	s	n/a
494.6915	0.12	989383	keystroke_Key.space	Key.space	n/a
494.8725	0.119	989745	keystroke_p	p	n/a
495.0225	0.15	990045	keystroke_a	a	n/a
495.1575	0.105	990315	keystroke_y	y	n/a
495.4115	0.12	990823	keystroke_m	m	n/a
495.5165	0.12	991033	keystroke_e	e	n/a
495.6065	0.151	991213	keystroke_n	n	n/a
495.7415	0.076	991483	keystroke_t	t	n/a
495.8775	0.209	991755	keystroke_s	s	n/a
496.0565	0.12	992113	keystroke_Key.space	Key.space	n/a
496.2075	0.105	992415	keystroke_p	p	n/a
496.3425	0.12	992685	keystroke_r	r	n/a
496.4475	0.104	992895	keystroke_o	o	n/a
496.7025	0.045	993405	keystroke_c	c	n/a
496.9575	0.179	993915	keystroke_e	e	n/a
497.1525	0.105	994305	keystroke_s	s	n/a
497.3475	0.165	994695	keystroke_s	s	n/a
497.4665	0.121	994933	keystroke_e	e	n/a
497.6775	0.105	995355	keystroke_d	d	n/a
498.4575	0.09	996915	keystroke_Key.enter	Key.enter	n/a
498.554	9.94	997108	prompt	n/a	luggage realty remainder also\n
499.4175	0.09	998835	keystroke_l	l	n/a
499.6125	0.089	999225	keystroke_u	u	n/a
499.7475	0.06	999495	keystroke_g	g	n/a
499.8675	0.105	999735	keystroke_g	g	n/a
500.0475	0.119	1000095	keystroke_a	a	n/a
500.2875	0.15	1000575	keystroke_g	g	n/a
500.3915	0.136	1000783	keystroke_e	e	n/a
500.6315	0.121	1001263	keystroke_Key.space	Key.space	n/a
500.8575	0.179	1001715	keystroke_r	r	n/a
500.9615	0.151	1001923	keystroke_e	e	n/a
501.0815	0.166	1002163	keystroke_a	a	n/a
501.2475	0.135	1002495	keystroke_l	l	n/a
501.3375	0.135	1002675	keystroke_i	i	n/a
501.5025	0.075	1003005	keystroke_t	t	n/a
501.6225	0.09	1003245	keystroke_y	y	n/a
502.5375	0.09	1005075	keystroke_Key.backspace	Key.backspace	n/a
502.7475	0.104	1005495	keystroke_Key.backspace	Key.backspace	n/a
503.0025	0.044	1006005	keystroke_Key.backspace	Key.backspace	n/a
503.962	0.12	1007924	keystroke_t	t	n/a
504.187	0.06	1008374	keystroke_y	y	n/a
504.592	0.105	1009184	keystroke_Key.space	Key.space	n/a
504.9815	0.24	1009963	keystroke_r	r	n/a
505.3415	0.1205	1010683	keystroke_e	e	n/a
505.522	0.09	1011044	keystroke_m	m	n/a
506.782	0.165	1013564	keystroke_a	a	n/a
506.962	0.165	1013924	keystroke_i	i	n/a
507.052	0.15	1014104	keystroke_n	n	n/a
507.187	0.075	1014374	keystroke_d	d	n/a
507.382	0.135	1014764	keystroke_e	e	n/a
507.487	0.165	1014974	keystroke_r	r	n/a
507.591	0.12	1015182	keystroke_Key.space	Key.space	n/a
507.772	0.075	1015544	keystroke_a	a	n/a
507.831	0.121	1015662	keystroke_l	l	n/a
507.967	0.09	1015934	keystroke_s	s	n/a
508.072	0.09	1016144	keystroke_o	o	n/a
508.416	0.076	1016832	keystroke_Key.enter	Key.enter	n/a
508.499	9.549	1016998	prompt	n/a	cialis networking events infrared\n
509.556	0.121	1019112	keystroke_c	c	n/a
509.722	0.105	1019444	keystroke_i	i	n/a
510.892	0.105	1021784	keystroke_a	a	n/a
511.191	0.15	1022382	keystroke_l	l	n/a
511.282	0.164	1022564	keystroke_i	i	n/a
511.491	0.136	1022982	keystroke_s	s	n/a
512.121	0.09	1024242	keystroke_Key.space	Key.space	n/a
512.347	0.119	1024694	keystroke_n	n	n/a
512.572	0.134	1025144	keystroke_e	e	n/a
512.811	0.135	1025622	keystroke_t	t	n/a
513.441	0.1355	1026882	keystroke_w	w	n/a
513.5465	0.105	1027093	keystroke_o	o	n/a
513.6965	0.105	1027393	keystroke_r	r	n/a
513.8165	0.075	1027633	keystroke_k	k	n/a
513.9965	0.18	1027993	keystroke_i	i	n/a
514.1165	0.12	1028233	keystroke_n	n	n/a
514.1915	0.18	1028383	keystroke_g	g	n/a
514.3865	0.105	1028773	keystroke_Key.space	Key.space	n/a
514.8965	0.105	1029793	keystroke_e	e	n/a
515.1365	0.105	1030273	keystroke_v	v	n/a
515.3465	0.15	1030693	keystroke_e	e	n/a
515.4365	0.12	1030873	keystroke_n	n	n/a
515.5715	0.12	1031143	keystroke_t	t	n/a
515.7365	0.15	1031473	keystroke_s	s	n/a
515.9315	0.135	1031863	keystroke_Key.space	Key.space	n/a
516.2165	0.09	1032433	keystroke_i	i	n/a
516.4265	0.09	1032853	keystroke_n	n	n/a
516.5915	0.09	1033183	keystroke_f	f	n/a
516.8165	0.15	1033633	keystroke_r	r	n/a
516.9365	0.165	1033873	keystroke_a	a	n/a
517.1465	0.18	1034293	keystroke_r	r	n/a
517.2815	0.12	1034563	keystroke_e	e	n/a
517.4915	0.09	1034983	keystroke_d	d	n/a
517.9565	0.09	1035913	keystroke_Key.enter	Key.enter	n/a
518.0535	8.1995	1036107	prompt	n/a	country castle proceeds frank\n
518.8415	0.105	1037683	keystroke_c	c	n/a
518.9015	0.165	1037803	keystroke_o	o	n/a
519.0065	0.105	1038013	keystroke_u	u	n/a
519.2315	0.135	1038463	keystroke_n	n	n/a
519.4115	0.105	1038823	keystroke_t	t	n/a
520.0415	0.12	1040083	keystroke_r	r	n/a
520.2365	0.105	1040473	keystroke_y	y	n/a
520.7465	0.105	1041493	keystroke_Key.space	Key.space	n/a
521.0315	0.09	1042063	keystroke_c	c	n/a
521.1665	0.105	1042333	keystroke_a	a	n/a
521.3615	0.15	1042723	keystroke_s	s	n/a
521.5415	0.12	1043083	keystroke_t	t	n/a
521.7065	0.12	1043413	keystroke_l	l	n/a
521.841	0.091	1043682	keystroke_e	e	n/a
522.186	0.1195	1044372	keystroke_Key.space	Key.space	n/a
522.3965	0.12	1044793	keystroke_p	p	n/a
522.7565	0.09	1045513	keystroke_r	r	n/a
522.9055	0.105	1045811	keystroke_o	o	n/a
523.0705	0.09	1046141	keystroke_c	c	n/a
523.4315	0.075	1046863	keystroke_e	e	n/a
523.6105	0.105	1047221	keystroke_e	e	n/a
523.9115	0.149	1047823	keystroke_d	d	n/a
524.0305	0.135	1048061	keystroke_s	s	n/a
524.3455	0.12	1048691	keystroke_Key.space	Key.space	n/a
524.6455	0.091	1049291	keystroke_f	f	n/a
524.8865	0.105	1049773	keystroke_r	r	n/a
525.0215	0.164	1050043	keystroke_a	a	n/a
525.1555	0.075	1050311	keystroke_n	n	n/a
525.2465	0.104	1050493	keystroke_k	k	n/a
526.1605	0.09	1052321	keystroke_Key.enter	Key.enter	n/a
526.259	8.7535	1052518	prompt	n/a	context twice spyware directory\n
526.9865	0.104	1053973	keystroke_c	c	n/a
527.0465	0.165	1054093	keystroke_o	o	n/a
527.1815	0.104	1054363	keystroke_n	n	n/a
527.2865	0.12	1054573	keystroke_t	t	n/a
527.3755	0.106	1054751	keystroke_e	e	n/a
527.5565	0.135	1055113	keystroke_x	x	n/a
527.7965	0.119	1055593	keystroke_t	t	n/a
527.9165	0.134	1055833	keystroke_Key.space	Key.space	n/a
528.5465	0.15	1057093	keystroke_r	r	n/a
528.7705	0.151	1057541	keystroke_w	w	n/a
528.9065	0.09	1057813	keystroke_i	i	n/a
529.4015	0.074	1058803	keystroke_Key.backspace	Key.backspace	n/a
529.5815	0.089	1059163	keystroke_Key.backspace	Key.backspace	n/a
529.7455	0.106	1059491	keystroke_Key.backspace	Key.backspace	n/a
529.9865	0.09	1059973	keystroke_t	t	n/a
530.2715	0.104	1060543	keystroke_w	w	n/a
530.4065	0.09	1060813	keystroke_i	i	n/a
530.5705	0.106	1061141	keystroke_c	c	n/a
531.2015	0.105	1062403	keystroke_e	e	n/a
531.5315	0.134	1063063	keystroke_Key.space	Key.space	n/a
531.9065	0.1645	1063813	keystroke_s	s	n/a
532.041	0.06	1064082	keystroke_p	p	n/a
532.221	0.12	1064442	keystroke_y	y	n/a
532.461	0.105	1064922	keystroke_w	w	n/a
532.686	0.165	1065372	keystroke_a	a	n/a
532.821	0.18	1065642	keystroke_r	r	n/a
532.896	0.179	1065792	keystroke_e	e	n/a
533.061	0.12	1066122	keystroke_Key.space	Key.space	n/a
533.271	0.12	1066542	keystroke_d	d	n/a
533.42	0.105	1066840	keystroke_i	i	n/a
533.616	0.15	1067232	keystroke_r	r	n/a
533.705	0.121	1067410	keystroke_e	e	n/a
533.96	0.0615	1067920	keystroke_c	c	n/a
534.1415	0.1045	1068283	keystroke_t	t	n/a
534.246	0.135	1068492	keystroke_o	o	n/a
534.396	0.1055	1068792	keystroke_r	r	n/a
534.441	0.15	1068882	keystroke_y	y	n/a
534.95	0.0605	1069900	keystroke_Key.enter	Key.enter	n/a
535.0165	13.0605	1070033	prompt	n/a	hyundai austria tone has\n
536.4955	0.09	1072991	keystroke_h	h	n/a
536.7505	0.105	1073501	keystroke_y	y	n/a
537.936	0.105	1075872	keystroke_u	u	n/a
538.236	0.09	1076472	keystroke_n	n	n/a
538.506	0.09	1077012	keystroke_d	d	n/a
538.731	0.105	1077462	keystroke_a	a	n/a
538.821	0.105	1077642	keystroke_i	i	n/a
539.031	0.12	1078062	keystroke_Key.space	Key.space	n/a
544.599	0.057	1089198	keystroke_a	a	n/a
544.896	0.104	1089792	keystroke_u	u	n/a
545.06	0.151	1090120	keystroke_s	s	n/a
545.36	0.106	1090720	keystroke_t	t	n/a
545.571	0.119	1091142	keystroke_r	r	n/a
545.796	0.089	1091592	keystroke_i	i	n/a
545.93	0.121	1091860	keystroke_a	a	n/a
546.41	0.12	1092820	keystroke_Key.space	Key.space	n/a
546.725	0.135	1093450	keystroke_t	t	n/a
546.845	0.18	1093690	keystroke_o	o	n/a
546.966	0.135	1093932	keystroke_n	n	n/a
547.085	0.151	1094170	keystroke_e	e	n/a
547.22	0.12	1094440	keystroke_Key.space	Key.space	n/a
547.385	0.106	1094770	keystroke_h	h	n/a
547.491	0.18	1094982	keystroke_a	a	n/a
547.64	0.121	1095280	keystroke_s	s	n/a
548.03	0.045	1096060	keystroke_Key.enter	Key.enter	n/a
548.083	7.0895	1096166	prompt	n/a	does increase shake structural\n
548.8255	0.105	1097651	keystroke_d	d	n/a
548.9595	0.105	1097919	keystroke_o	o	n/a
549.0795	0.12	1098159	keystroke_e	e	n/a
549.1695	0.195	1098339	keystroke_s	s	n/a
549.3495	0.105	1098699	keystroke_Key.space	Key.space	n/a
549.5295	0.106	1099059	keystroke_i	i	n/a
549.7095	0.121	1099419	keystroke_n	n	n/a
549.8595	0.0765	1099719	keystroke_c	c	n/a
550.0545	0.136	1100109	keystroke_r	r	n/a
550.1295	0.195	1100259	keystroke_e	e	n/a
550.3405	0.089	1100681	keystroke_a	a	n/a
550.5655	0.21	1101131	keystroke_s	s	n/a
550.6995	0.18	1101399	keystroke_e	e	n/a
550.8955	0.105	1101791	keystroke_Key.space	Key.space	n/a
551.0455	0.15	1102091	keystroke_s	s	n/a
551.1795	0.12	1102359	keystroke_h	h	n/a
551.3605	0.134	1102721	keystroke_a	a	n/a
551.6155	0.089	1103231	keystroke_k	k	n/a
551.6905	0.12	1103381	keystroke_e	e	n/a
551.915	0.105	1103830	keystroke_Key.space	Key.space	n/a
552.261	0.149	1104522	keystroke_s	s	n/a
552.5455	0.075	1105091	keystroke_t	t	n/a
553.086	0.12	1106172	keystroke_r	r	n/a
553.191	0.12	1106382	keystroke_u	u	n/a
553.506	0.1045	1107012	keystroke_c	c	n/a
553.7755	0.12	1107551	keystroke_t	t	n/a
554.0005	0.135	1108001	keystroke_u	u	n/a
554.2255	0.09	1108451	keystroke_r	r	n/a
554.3755	0.149	1108751	keystroke_a	a	n/a
554.5095	0.106	1109019	keystroke_l	l	n/a
555.0505	0.119	1110101	keystroke_Key.enter	Key.enter	n/a
555.178	15.4135	1110356	prompt	n/a	sells subscription applicants academy\n
555.9805	0.12	1111961	keystroke_s	s	n/a
556.2655	0.09	1112531	keystroke_e	e	n/a
556.3845	0.091	1112769	keystroke_l	l	n/a
556.5655	0.105	1113131	keystroke_l	l	n/a
556.8795	0.121	1113759	keystroke_s	s	n/a
557.0895	0.12	1114179	keystroke_Key.space	Key.space	n/a
557.4505	0.12	1114901	keystroke_s	s	n/a
557.5855	0.06	1115171	keystroke_u	u	n/a
557.7805	0.104	1115561	keystroke_b	b	n/a
557.8105	0.059	1115621	keystroke_v	v	n/a
557.9305	0.149	1115861	keystroke_s	s	n/a
558.2905	0.105	1116581	keystroke_c	c	n/a
558.5155	0.135	1117031	keystroke_r	r	n/a
558.6355	0.09	1117271	keystroke_i	i	n/a
558.7705	0.12	1117541	keystroke_t	t	n/a
558.8755	0.195	1117751	keystroke_i	i	n/a
559.0255	0.165	1118051	keystroke_p	p	n/a
559.1595	0.091	1118319	keystroke_n	n	n/a
559.9545	0.0905	1119909	keystroke_Key.backspace	Key.backspace	n/a
560.1655	0.105	1120331	keystroke_Key.backspace	Key.backspace	n/a
560.3905	0.0885	1120781	keystroke_Key.backspace	Key.backspace	n/a
560.615	0.105	1121230	keystroke_Key.backspace	Key.backspace	n/a
560.945	0.075	1121890	keystroke_Key.backspace	Key.backspace	n/a
561.605	0.104	1123210	keystroke_Key.backspace	Key.backspace	n/a
561.829	0.076	1123658	keystroke_Key.backspace	Key.backspace	n/a
562.04	0.09	1124080	keystroke_Key.backspace	Key.backspace	n/a
562.25	0.075	1124500	keystroke_Key.backspace	Key.backspace	n/a
562.67	0.105	1125340	keystroke_s	s	n/a
562.925	0.105	1125850	keystroke_c	c	n/a
563.165	0.12	1126330	keystroke_r	r	n/a
564.3495	0.105	1128699	keystroke_i	i	n/a
564.5445	0.12	1129089	keystroke_p	p	n/a
565.4745	0.105	1130949	keystroke_t	t	n/a
565.5805	0.179	1131161	keystroke_i	i	n/a
565.6695	0.18	1131339	keystroke_o	o	n/a
565.8045	0.105	1131609	keystroke_n	n	n/a
566.3895	0.105	1132779	keystroke_Key.space	Key.space	n/a
566.6895	0.12	1133379	keystroke_a	a	n/a
566.8245	0.075	1133649	keystroke_p	p	n/a
566.9745	0.105	1133949	keystroke_p	p	n/a
567.1845	0.15	1134369	keystroke_l	l	n/a
567.2895	0.1355	1134579	keystroke_i	i	n/a
567.44	0.09	1134880	keystroke_c	c	n/a
567.575	0.1495	1135150	keystroke_a	a	n/a
567.8295	0.12	1135659	keystroke_n	n	n/a
568.0245	0.105	1136049	keystroke_t	t	n/a
568.2945	0.12	1136589	keystroke_s	s	n/a
568.5795	0.105	1137159	keystroke_Key.space	Key.space	n/a
568.8945	0.105	1137789	keystroke_a	a	n/a
569.1945	0.06	1138389	keystroke_c	c	n/a
569.3745	0.0905	1138749	keystroke_a	a	n/a
569.6	0.09	1139200	keystroke_d	d	n/a
569.81	0.06	1139620	keystroke_e	e	n/a
569.9	0.075	1139800	keystroke_m	m	n/a
570.14	0.09	1140280	keystroke_y	y	n/a
570.515	0.075	1141030	keystroke_Key.enter	Key.enter	n/a
570.5965	9.4445	1141193	prompt	n/a	approximate religious quite official\n
571.3845	0.1355	1142769	keystroke_a	a	n/a
571.58	0.09	1143160	keystroke_p	p	n/a
571.745	0.12	1143490	keystroke_p	p	n/a
571.954	0.136	1143908	keystroke_r	r	n/a
572.074	0.105	1144148	keystroke_o	o	n/a
572.39	0.224	1144780	keystroke_x	x	n/a
572.674	0.075	1145348	keystroke_i	i	n/a
572.915	0.105	1145830	keystroke_m	m	n/a
573.095	0.135	1146190	keystroke_a	a	n/a
573.4395	0.135	1146879	keystroke_t	t	n/a
573.5145	0.135	1147029	keystroke_e	e	n/a
574.5645	0.06	1149129	keystroke_Key.space	Key.space	n/a
574.7745	0.165	1149549	keystroke_r	r	n/a
574.8945	0.165	1149789	keystroke_e	e	n/a
575.1195	0.165	1150239	keystroke_l	l	n/a
575.2095	0.165	1150419	keystroke_i	i	n/a
575.5245	0.105	1151049	keystroke_g	g	n/a
575.6745	0.15	1151349	keystroke_i	i	n/a
575.7495	0.18	1151499	keystroke_o	o	n/a
575.8695	0.15	1151739	keystroke_u	u	n/a
576.0045	0.21	1152009	keystroke_s	s	n/a
576.1395	0.15	1152279	keystroke_Key.space	Key.space	n/a
576.5745	0.12	1153149	keystroke_q	q	n/a
576.7545	0.165	1153509	keystroke_u	u	n/a
576.8595	0.165	1153719	keystroke_i	i	n/a
577.2495	0.165	1154499	keystroke_t	t	n/a
577.3545	0.15	1154709	keystroke_e	e	n/a
577.6695	0.12	1155339	keystroke_Key.space	Key.space	n/a
577.9695	0.105	1155939	keystroke_o	o	n/a
578.1345	0.0595	1156269	keystroke_f	f	n/a
578.3145	0.075	1156629	keystroke_f	f	n/a
578.434	0.12	1156868	keystroke_i	i	n/a
578.599	0.09	1157198	keystroke_c	c	n/a
578.779	0.09	1157558	keystroke_i	i	n/a
578.929	0.12	1157858	keystroke_a	a	n/a
579.034	0.105	1158068	keystroke_l	l	n/a
579.949	0.09	1159898	keystroke_Key.enter	Key.enter	n/a
580.046	16.1045	1160092	prompt	n/a	infectious percent chevy sanyo\n
580.699	0.255	1161398	keystroke_i	i	n/a
580.879	0.15	1161758	keystroke_n	n	n/a
581.254	0.09	1162508	keystroke_f	f	n/a
581.389	0.105	1162778	keystroke_e	e	n/a
581.644	0.075	1163288	keystroke_c	c	n/a
581.869	0.09	1163738	keystroke_t	t	n/a
582.019	0.27	1164038	keystroke_i	i	n/a
582.124	0.21	1164248	keystroke_o	o	n/a
582.274	0.15	1164548	keystroke_u	u	n/a
582.454	0.21	1164908	keystroke_s	s	n/a
582.604	0.135	1165208	keystroke_Key.space	Key.space	n/a
583.024	0.12	1166048	keystroke_p	p	n/a
583.2785	0.18	1166557	keystroke_e	e	n/a
583.4145	0.15	1166829	keystroke_r	r	n/a
586.732	0.042	1173464	keystroke_c	c	n/a
586.834	0.194	1173668	keystroke_e	e	n/a
586.924	0.12	1173848	keystroke_n	n	n/a
587.059	0.15	1174118	keystroke_t	t	n/a
587.223	0.121	1174446	keystroke_Key.space	Key.space	n/a
587.659	0.15	1175318	keystroke_c	c	n/a
587.794	0.135	1175588	keystroke_h	h	n/a
587.944	0.12	1175888	keystroke_e	e	n/a
588.274	0.09	1176548	keystroke_c	c	n/a
588.424	0.09	1176848	keystroke_y	y	n/a
589.083	0.12	1178166	keystroke_Key.backspace	Key.backspace	n/a
589.459	0.105	1178918	keystroke_Key.backspace	Key.backspace	n/a
590.629	0.09	1181258	keystroke_v	v	n/a
590.914	0.089	1181828	keystroke_y	y	n/a
591.439	0.12	1182878	keystroke_Key.space	Key.space	n/a
591.829	0.165	1183658	keystroke_s	s	n/a
592.714	0.135	1185428	keystroke_a	a	n/a
592.864	0.09	1185728	keystroke_n	n	n/a
593.134	0.09	1186268	keystroke_y	y	n/a
593.344	0.104	1186688	keystroke_o	o	n/a
596.137	0.011	1192274	keystroke_Key.enter	Key.enter	n/a
596.1555	8.8895	1192311	prompt	n/a	smooth plain cubic msgstr\n
596.868	0.121	1193736	keystroke_s	s	n/a
597.303	0.121	1194606	keystroke_m	m	n/a
597.543	0.075	1195086	keystroke_o	o	n/a
597.993	0.091	1195986	keystroke_o	o	n/a
598.218	0.105	1196436	keystroke_t	t	n/a
598.338	0.075	1196676	keystroke_h	h	n/a
598.533	0.105	1197066	keystroke_Key.space	Key.space	n/a
598.788	0.09	1197576	keystroke_p	p	n/a
598.983	0.105	1197966	keystroke_l	l	n/a
599.133	0.165	1198266	keystroke_a	a	n/a
599.284	0.194	1198568	keystroke_i	i	n/a
599.388	0.136	1198776	keystroke_n	n	n/a
599.5685	0.075	1199137	keystroke_Key.space	Key.space	n/a
599.8385	0.09	1199677	keystroke_c	c	n/a
600.0185	0.09	1200037	keystroke_u	u	n/a
600.663	0.09	1201326	keystroke_b	b	n/a
600.798	0.09	1201596	keystroke_i	i	n/a
600.948	0.0905	1201896	keystroke_c	c	n/a
601.758	0.09	1203516	keystroke_Key.space	Key.space	n/a
602.013	0.1355	1204026	keystroke_m	m	n/a
602.313	0.1205	1204626	keystroke_a	a	n/a
602.748	0.12	1205496	keystroke_Key.backspace	Key.backspace	n/a
602.958	0.09	1205916	keystroke_s	s	n/a
603.304	0.119	1206608	keystroke_g	g	n/a
603.588	0.105	1207176	keystroke_s	s	n/a
603.843	0.045	1207686	keystroke_t	t	n/a
603.993	0.09	1207986	keystroke_r	r	n/a
604.953	0.09	1209906	keystroke_Key.enter	Key.enter	n/a
605.0505	20.215	1210101	prompt	n/a	panic brass discrimination memorabilia\n
605.883	0.12	1211766	keystroke_p	p	n/a
606.033	0.15	1212066	keystroke_a	a	n/a
606.333	0.165	1212666	keystroke_n	n	n/a
606.348	0.135	1212696	keystroke_i	i	n/a
607.023	0.06	1214046	keystroke_c	c	n/a
607.743	0.12	1215486	keystroke_Key.space	Key.space	n/a
608.463	0.09	1216926	keystroke_v	v	n/a
608.704	0.134	1217408	keystroke_r	r	n/a
608.868	0.135	1217736	keystroke_a	a	n/a
609.153	0.09	1218306	keystroke_Key.backspace	Key.backspace	n/a
609.348	0.09	1218696	keystroke_Key.backspace	Key.backspace	n/a
609.543	0.105	1219086	keystroke_Key.backspace	Key.backspace	n/a
610.113	0.075	1220226	keystroke_b	b	n/a
610.383	0.09	1220766	keystroke_r	r	n/a
610.489	0.1645	1220978	keystroke_a	a	n/a
610.8185	0.09	1221637	keystroke_s	s	n/a
610.9985	0.135	1221997	keystroke_s	s	n/a
611.3285	0.105	1222657	keystroke_Key.space	Key.space	n/a
611.6735	0.09	1223347	keystroke_d	d	n/a
611.7935	0.105	1223587	keystroke_i	i	n/a
611.9135	0.12	1223827	keystroke_s	s	n/a
612.1685	0.105	1224337	keystroke_c	c	n/a
612.2885	0.09	1224577	keystroke_i	i	n/a
612.5285	0.09	1225057	keystroke_m	m	n/a
612.7385	0.09	1225477	keystroke_i	i	n/a
613.0085	0.09	1226017	keystroke_n	n	n/a
613.1585	0.18	1226317	keystroke_a	a	n/a
613.3835	0.105	1226767	keystroke_t	t	n/a
613.4735	0.165	1226947	keystroke_i	i	n/a
613.5635	0.195	1227127	keystroke_o	o	n/a
613.6835	0.135	1227367	keystroke_n	n	n/a
613.9085	0.105	1227817	keystroke_Key.space	Key.space	n/a
614.0885	0.135	1228177	keystroke_m	m	n/a
614.2685	0.12	1228537	keystroke_e	e	n/a
615.888	0.075	1231776	keystroke_Key.backspace	Key.backspace	n/a
616.158	0.015	1232316	keystroke_Key.backspace	Key.backspace	n/a
616.2935	0.075	1232587	keystroke_Key.backspace	Key.backspace	n/a
616.4885	0.075	1232977	keystroke_Key.backspace	Key.backspace	n/a
616.6685	0.0745	1233337	keystroke_Key.backspace	Key.backspace	n/a
616.8635	0.06	1233727	keystroke_Key.backspace	Key.backspace	n/a
617.0435	0.09	1234087	keystroke_Key.backspace	Key.backspace	n/a
617.2385	0.075	1234477	keystroke_Key.backspace	Key.backspace	n/a
617.4185	0.09	1234837	keystroke_Key.backspace	Key.backspace	n/a
617.6135	0.09	1235227	keystroke_Key.backspace	Key.backspace	n/a
617.808	0.105	1235616	keystroke_Key.backspace	Key.backspace	n/a
618.018	0.105	1236036	keystroke_Key.backspace	Key.backspace	n/a
618.513	0.135	1237026	keystroke_r	r	n/a
618.633	0.09	1237266	keystroke_i	i	n/a
618.858	0.09	1237716	keystroke_m	m	n/a
619.053	0.09	1238106	keystroke_i	i	n/a
619.248	0.12	1238496	keystroke_n	n	n/a
619.443	0.12	1238886	keystroke_a	a	n/a
619.713	0.09	1239426	keystroke_t	t	n/a
619.773	0.18	1239546	keystroke_i	i	n/a
619.863	0.195	1239726	keystroke_o	o	n/a
619.983	0.12	1239966	keystroke_n	n	n/a
620.298	0.12	1240596	keystroke_Key.space	Key.space	n/a
620.463	0.105	1240926	keystroke_m	m	n/a
620.748	0.12	1241496	keystroke_e	e	n/a
620.973	0.105	1241946	keystroke_m	m	n/a
621.153	0.135	1242306	keystroke_o	o	n/a
621.543	0.21	1243086	keystroke_r	r	n/a
621.978	0.225	1243956	keystroke_a	a	n/a
622.908	0.09	1245816	keystroke_b	b	n/a
623.043	0.075	1246086	keystroke_i	i	n/a
623.253	0.18	1246506	keystroke_l	l	n/a
623.388	0.15	1246776	keystroke_i	i	n/a
623.598	0.121	1247196	keystroke_a	a	n/a
625.143	0.12	1250286	keystroke_Key.enter	Key.enter	n/a
625.271	6.7135	1250542	prompt	n/a	injection facts walk tyler\n
626.028	0.225	1252056	keystroke_i	i	n/a
626.148	0.15	1252296	keystroke_n	n	n/a
626.433	0.12	1252866	keystroke_j	j	n/a
626.613	0.075	1253226	keystroke_e	e	n/a
626.823	0.09	1253646	keystroke_c	c	n/a
627.033	0.12	1254066	keystroke_t	t	n/a
627.108	0.21	1254216	keystroke_i	i	n/a
627.198	0.225	1254396	keystroke_o	o	n/a
627.333	0.15	1254666	keystroke_n	n	n/a
627.513	0.12	1255026	keystroke_Key.space	Key.space	n/a
627.813	0.12	1255626	keystroke_f	f	n/a
628.038	0.105	1256076	keystroke_a	a	n/a
628.278	0.075	1256556	keystroke_c	c	n/a
628.488	0.12	1256976	keystroke_t	t	n/a
628.698	0.165	1257396	keystroke_s	s	n/a
628.938	0.12	1257876	keystroke_Key.space	Key.space	n/a
629.358	0.1645	1258716	keystroke_w	w	n/a
629.5075	0.166	1259015	keystroke_a	a	n/a
629.7325	0.135	1259465	keystroke_l	l	n/a
629.8225	0.165	1259645	keystroke_k	k	n/a
630.0775	0.12	1260155	keystroke_Key.space	Key.space	n/a
630.6325	0.09	1261265	keystroke_t	t	n/a
630.8425	0.09	1261685	keystroke_y	y	n/a
631.0675	0.12	1262135	keystroke_l	l	n/a
631.2175	0.15	1262435	keystroke_e	e	n/a
631.3225	0.12	1262645	keystroke_r	r	n/a
631.908	0.075	1263816	keystroke_Key.enter	Key.enter	n/a
631.988	12.777	1263976	prompt	n/a	adjustments pittsburgh immune sensitive\n
632.913	0.12	1265826	keystroke_a	a	n/a
633.438	0.1495	1266876	keystroke_d	d	n/a
633.828	0.09	1267656	keystroke_j	j	n/a
634.038	0.09	1268076	keystroke_u	u	n/a
634.173	0.15	1268346	keystroke_s	s	n/a
634.458	0.105	1268916	keystroke_t	t	n/a
634.728	0.105	1269456	keystroke_m	m	n/a
634.848	0.135	1269696	keystroke_e	e	n/a
634.953	0.12	1269906	keystroke_n	n	n/a
635.088	0.09	1270176	keystroke_t	t	n/a
635.253	0.165	1270506	keystroke_s	s	n/a
635.448	0.135	1270896	keystroke_Key.space	Key.space	n/a
635.823	0.105	1271646	keystroke_p	p	n/a
636.078	0.12	1272156	keystroke_i	i	n/a
636.303	0.045	1272606	keystroke_t	t	n/a
636.468	0.09	1272936	keystroke_t	t	n/a
637.038	0.105	1274076	keystroke_s	s	n/a
638.118	0.075	1276236	keystroke_b	b	n/a
638.328	0.12	1276656	keystroke_u	u	n/a
638.508	0.09	1277016	keystroke_r	r	n/a
638.733	0.09	1277466	keystroke_g	g	n/a
639.258	0.0745	1278516	keystroke_h	h	n/a
640.143	0.09	1280286	keystroke_Key.space	Key.space	n/a
640.308	0.09	1280616	keystroke_i	i	n/a
640.548	0.0745	1281096	keystroke_m	m	n/a
640.683	0.1045	1281366	keystroke_m	m	n/a
640.938	0.1045	1281876	keystroke_u	u	n/a
641.5825	0.135	1283165	keystroke_n	n	n/a
641.7475	0.135	1283495	keystroke_e	e	n/a
642.5725	0.09	1285145	keystroke_Key.space	Key.space	n/a
642.7825	0.105	1285565	keystroke_s	s	n/a
642.9775	0.105	1285955	keystroke_e	e	n/a
643.0975	0.12	1286195	keystroke_n	n	n/a
643.2475	0.15	1286495	keystroke_s	s	n/a
643.4125	0.105	1286825	keystroke_i	i	n/a
643.6825	0.105	1287365	keystroke_t	t	n/a
643.8175	0.105	1287635	keystroke_i	i	n/a
644.0125	0.06	1288025	keystroke_v	v	n/a
644.2075	0.09	1288415	keystroke_e	e	n/a
644.6725	0.09	1289345	keystroke_Key.enter	Key.enter	n/a
644.7695	12.46	1289539	prompt	n/a	groove banking tribal enquiries\n
645.6175	0.09	1291235	keystroke_g	g	n/a
645.8425	0.09	1291685	keystroke_r	r	n/a
646.0375	0.075	1292075	keystroke_o	o	n/a
646.1725	0.12	1292345	keystroke_o	o	n/a
646.3375	0.105	1292675	keystroke_v	v	n/a
646.5625	0.165	1293125	keystroke_e	e	n/a
646.7125	0.12	1293425	keystroke_Key.space	Key.space	n/a
648.003	0.075	1296006	keystroke_b	b	n/a
648.1975	0.15	1296395	keystroke_a	a	n/a
648.3625	0.09	1296725	keystroke_n	n	n/a
648.6175	0.09	1297235	keystroke_k	k	n/a
648.8125	0.195	1297625	keystroke_i	i	n/a
648.9325	0.135	1297865	keystroke_n	n	n/a
649.0525	0.15	1298105	keystroke_g	g	n/a
649.2175	0.12	1298435	keystroke_Key.space	Key.space	n/a
649.4725	0.06	1298945	keystroke_t	t	n/a
649.6375	0.12	1299275	keystroke_r	r	n/a
649.7875	0.12	1299575	keystroke_i	i	n/a
650.1775	0.105	1300355	keystroke_v	v	n/a
650.6875	0.105	1301375	keystroke_Key.backspace	Key.backspace	n/a
650.8975	0.06	1301795	keystroke_b	b	n/a
651.1075	0.135	1302215	keystroke_a	a	n/a
651.2725	0.09	1302545	keystroke_l	l	n/a
652.6075	0.15	1305215	keystroke_Key.space	Key.space	n/a
653.0425	0.12	1306085	keystroke_e	e	n/a
653.3725	0.0755	1306745	keystroke_n	n	n/a
653.748	0.165	1307496	keystroke_q	q	n/a
653.988	0.12	1307976	keystroke_u	u	n/a
654.228	0.165	1308456	keystroke_i	i	n/a
655.458	0.12	1310916	keystroke_r	r	n/a
655.637	0.151	1311274	keystroke_i	i	n/a
655.713	0.18	1311426	keystroke_e	e	n/a
655.833	0.135	1311666	keystroke_s	s	n/a
657.138	0.09	1314276	keystroke_Key.enter	Key.enter	n/a
657.236	8.258	1314472	prompt	n/a	share sections para obviously\n
658.247	0.105	1316494	keystroke_s	s	n/a
658.367	0.105	1316734	keystroke_h	h	n/a
658.502	0.195	1317004	keystroke_a	a	n/a
658.667	0.18	1317334	keystroke_r	r	n/a
658.742	0.211	1317484	keystroke_e	e	n/a
658.907	0.135	1317814	keystroke_Key.space	Key.space	n/a
659.177	0.135	1318354	keystroke_s	s	n/a
659.477	0.12	1318954	keystroke_e	e	n/a
659.747	0.09	1319494	keystroke_c	c	n/a
659.987	0.09	1319974	keystroke_t	t	n/a
660.062	0.18	1320124	keystroke_i	i	n/a
660.168	0.194	1320336	keystroke_o	o	n/a
660.317	0.105	1320634	keystroke_n	n	n/a
660.437	0.165	1320874	keystroke_s	s	n/a
660.662	0.12	1321324	keystroke_Key.space	Key.space	n/a
660.858	0.12	1321716	keystroke_p	p	n/a
661.187	0.18	1322374	keystroke_a	a	n/a
661.382	0.135	1322764	keystroke_r	r	n/a
661.502	0.15	1323004	keystroke_a	a	n/a
661.802	0.12	1323604	keystroke_Key.space	Key.space	n/a
662.552	0.105	1325104	keystroke_o	o	n/a
663.092	0.075	1326184	keystroke_b	b	n/a
663.362	0.0755	1326724	keystroke_v	v	n/a
663.4675	0.089	1326935	keystroke_i	i	n/a
663.6615	0.195	1327323	keystroke_o	o	n/a
663.8125	0.135	1327625	keystroke_u	u	n/a
664.0225	0.119	1328045	keystroke_s	s	n/a
664.2325	0.105	1328465	keystroke_l	l	n/a
664.4425	0.105	1328885	keystroke_y	y	n/a
665.4025	0.089	1330805	keystroke_Key.enter	Key.enter	n/a
665.5005	10.1185	1331001	prompt	n/a	recognized classic peaceful write\n
666.3175	0.165	1332635	keystroke_r	r	n/a
666.4065	0.136	1332813	keystroke_e	e	n/a
666.7375	0.12	1333475	keystroke_c	c	n/a
666.9025	0.12	1333805	keystroke_o	o	n/a
667.0975	0.119	1334195	keystroke_g	g	n/a
667.2925	0.179	1334585	keystroke_n	n	n/a
667.4125	0.18	1334825	keystroke_i	i	n/a
667.5775	0.075	1335155	keystroke_z	z	n/a
667.6975	0.03	1335395	keystroke_z	z	n/a
668.1025	0.075	1336205	keystroke_e	e	n/a
668.4165	0.076	1336833	keystroke_Key.backspace	Key.backspace	n/a
668.5965	0.09	1337193	keystroke_Key.backspace	Key.backspace	n/a
668.8525	0.045	1337705	keystroke_e	e	n/a
669.0325	0.06	1338065	keystroke_d	d	n/a
669.7075	0.121	1339415	keystroke_Key.space	Key.space	n/a
670.157	0.135	1340314	keystroke_c	c	n/a
670.277	0.135	1340554	keystroke_l	l	n/a
670.412	0.09	1340824	keystroke_a	a	n/a
670.607	0.105	1341214	keystroke_s	s	n/a
670.742	0.121	1341484	keystroke_s	s	n/a
671.477	0.075	1342954	keystroke_i	i	n/a
671.597	0.075	1343194	keystroke_c	c	n/a
672.167	0.135	1344334	keystroke_Key.space	Key.space	n/a
672.452	0.12	1344904	keystroke_p	p	n/a
672.737	0.105	1345474	keystroke_e	e	n/a
672.917	0.09	1345834	keystroke_a	a	n/a
673.187	0.075	1346374	keystroke_c	c	n/a
673.412	0.09	1346824	keystroke_e	e	n/a
673.592	0.105	1347184	keystroke_f	f	n/a
673.727	0.075	1347454	keystroke_u	u	n/a
673.907	0.12	1347814	keystroke_l	l	n/a
674.087	0.12	1348174	keystroke_Key.space	Key.space	n/a
674.237	0.15	1348474	keystroke_w	w	n/a
674.657	0.09	1349314	keystroke_r	r	n/a
674.777	0.12	1349554	keystroke_i	i	n/a
674.882	0.135	1349764	keystroke_t	t	n/a
674.972	0.12	1349944	keystroke_e	e	n/a
675.527	0.09	1351054	keystroke_Key.enter	Key.enter	n/a
675.624	11.6195	1351248	prompt	n/a	being compound supplier expected\n
676.697	0.06	1353394	keystroke_v	v	n/a
677.267	0.105	1354534	keystroke_Key.backspace	Key.backspace	n/a
677.597	0.135	1355194	keystroke_b	b	n/a
677.942	0.12	1355884	keystroke_e	e	n/a
678.122	0.165	1356244	keystroke_i	i	n/a
678.227	0.135	1356454	keystroke_n	n	n/a
678.407	0.09	1356814	keystroke_g	g	n/a
678.677	0.12	1357354	keystroke_Key.space	Key.space	n/a
679.067	0.105	1358134	keystroke_c	c	n/a
679.157	0.105	1358314	keystroke_o	o	n/a
679.352	0.105	1358704	keystroke_m	m	n/a
679.562	0.166	1359124	keystroke_p	p	n/a
679.982	0.12	1359964	keystroke_o	o	n/a
680.222	0.105	1360444	keystroke_u	u	n/a
681.017	0.075	1362034	keystroke_n	n	n/a
681.167	0.09	1362334	keystroke_d	d	n/a
682.202	0.135	1364404	keystroke_Key.space	Key.space	n/a
682.577	0.15	1365154	keystroke_s	s	n/a
682.757	0.06	1365514	keystroke_u	u	n/a
683.283	0.074	1366566	keystroke_p	p	n/a
683.447	0.09	1366894	keystroke_p	p	n/a
683.657	0.15	1367314	keystroke_l	l	n/a
683.777	0.15	1367554	keystroke_i	i	n/a
683.912	0.195	1367824	keystroke_e	e	n/a
684.3775	0.1045	1368755	keystroke_r	r	n/a
685.0065	0.12	1370013	keystroke_Key.space	Key.space	n/a
685.2615	0.105	1370523	keystroke_e	e	n/a
685.577	0.12	1371154	keystroke_x	x	n/a
685.802	0.12	1371604	keystroke_p	p	n/a
685.952	0.09	1371904	keystroke_e	e	n/a
686.192	0.075	1372384	keystroke_c	c	n/a
686.402	0.12	1372804	keystroke_t	t	n/a
686.477	0.135	1372954	keystroke_e	e	n/a
686.702	0.075	1373404	keystroke_d	d	n/a
687.137	0.105	1374274	keystroke_Key.enter	Key.enter	n/a
687.249	10.5395	1374498	prompt	n/a	comics renaissance apparent viking\n
688.277	0.105	1376554	keystroke_c	c	n/a
688.787	0.075	1377574	keystroke_o	o	n/a
689.027	0.09	1378054	keystroke_m	m	n/a
689.267	0.075	1378534	keystroke_i	i	n/a
689.492	0.09	1378984	keystroke_c	c	n/a
690.107	0.09	1380214	keystroke_s	s	n/a
690.378	0.104	1380756	keystroke_Key.space	Key.space	n/a
690.812	0.15	1381624	keystroke_r	r	n/a
691.067	0.105	1382134	keystroke_e	e	n/a
691.322	0.105	1382644	keystroke_n	n	n/a
691.652	0.15	1383304	keystroke_a	a	n/a
691.787	0.09	1383574	keystroke_i	i	n/a
691.922	0.09	1383844	keystroke_s	s	n/a
692.102	0.075	1384204	keystroke_s	s	n/a
692.297	0.12	1384594	keystroke_a	a	n/a
692.597	0.12	1385194	keystroke_n	n	n/a
692.792	0.12	1385584	keystroke_c	c	n/a
693.032	0.165	1386064	keystroke_e	e	n/a
693.227	0.105	1386454	keystroke_Key.space	Key.space	n/a
693.5725	0.134	1387145	keystroke_a	a	n/a
693.7365	0.075	1387473	keystroke_p	p	n/a
693.9165	0.105	1387833	keystroke_p	p	n/a
694.3665	0.121	1388733	keystroke_a	a	n/a
