onset	duration	sample	value	key	prompt_text
6.285	8.7995	12570	prompt	n/a	the quick brown fox jumps over a lazy dog\n
7.3585	0.058	14717	keystroke_t	t	n/a
7.4465	0.1655	14893	keystroke_h	h	n/a
7.552	0.12	15104	keystroke_e	e	n/a
7.732	0.12	15464	keystroke_Key.space	Key.space	n/a
7.882	0.1355	15764	keystroke_q	q	n/a
8.0325	0.1195	16065	keystroke_u	u	n/a
8.347	0.105	16694	keystroke_i	i	n/a
9.022	0.105	18044	keystroke_c	c	n/a
9.277	0.195	18554	keystroke_k	k	n/a
9.457	0.135	18914	keystroke_Key.space	Key.space	n/a
9.577	0.15	19154	keystroke_b	b	n/a
9.8475	0.0895	19695	keystroke_o	o	n/a
10.207	0.075	20414	keystroke_Key.backspace	Key.backspace	n/a
10.327	0.105	20654	keystroke_r	r	n/a
10.492	0.12	20984	keystroke_o	o	n/a
10.627	0.12	21254	keystroke_w	w	n/a
10.762	0.135	21524	keystroke_n	n	n/a
10.912	0.12	21824	keystroke_Key.space	Key.space	n/a
11.047	0.09	22094	keystroke_f	f	n/a
11.152	0.21	22304	keystroke_o	o	n/a
11.377	0.105	22754	keystroke_x	x	n/a
11.483	0.104	22966	keystroke_Key.space	Key.space	n/a
11.632	0.12	23264	keystroke_j	j	n/a
11.8575	0.0745	23715	keystroke_u	u	n/a
12.0825	0.105	24165	keystroke_m	m	n/a
12.3075	0.15	24615	keystroke_p	p	n/a
12.4425	0.12	24885	keystroke_s	s	n/a
12.5625	0.149	25125	keystroke_Key.space	Key.space	n/a
12.6975	0.165	25395	keystroke_o	o	n/a
12.8175	0.09	25635	keystroke_v	v	n/a
12.982	0.1955	25964	keystroke_e	e	n/a
13.1025	0.135	26205	keystroke_r	r	n/a
13.2375	0.135	26475	keystroke_Key.space	Key.space	n/a
13.3875	0.135	26775	keystroke_a	a	n/a
13.4925	0.165	26985	keystroke_Key.space	Key.space	n/a
13.7025	0.15	27405	keystroke_l	l	n/a
13.7475	0.12	27495	keystroke_a	a	n/a
14.0015	0.0605	28003	keystroke_z	z	n/a
14.2125	0.104	28425	keystroke_y	y	n/a
14.3615	0.12	28723	keystroke_Key.space	Key.space	n/a
14.5125	0.119	29025	keystroke_d	d	n/a
14.6165	0.1505	29233	keystroke_o	o	n/a
14.782	0.1195	29564	keystroke_g	g	n/a
14.9915	0.09	29983	keystroke_Key.enter	Key.enter	n/a
15.0885	5.065	30177	prompt	n/a	wishing kenny kuwait dans\n
15.7715	0.106	31543	keystroke_w	w	n/a
15.8465	0.135	31693	keystroke_i	i	n/a
16.027	0.15	32054	keystroke_s	s	n/a
16.1165	0.1355	32233	keystroke_h	h	n/a
16.267	0.135	32534	keystroke_i	i	n/a
16.387	0.18	32774	keystroke_n	n	n/a
16.522	0.09	33044	keystroke_g	g	n/a
16.627	0.1345	33254	keystroke_Key.space	Key.space	n/a
16.7765	0.1505	33553	keystroke_k	k	n/a
16.897	0.105	33794	keystroke_e	e	n/a
17.0475	0.0895	34095	keystroke_n	n	n/a
17.197	0.135	34394	keystroke_n	n	n/a
17.287	0.105	34574	keystroke_y	y	n/a
17.452	0.15	34904	keystroke_Key.space	Key.space	n/a
17.617	0.12	35234	keystroke_k	k	n/a
17.857	0.1355	35714	keystroke_u	u	n/a
18.0815	0.181	36163	keystroke_w	w	n/a
18.1715	0.151	36343	keystroke_a	a	n/a
18.2915	0.135	36583	keystroke_i	i	n/a
18.5475	0.164	37095	keystroke_t	t	n/a
18.8615	0.12	37723	keystroke_Key.space	Key.space	n/a
18.9965	0.105	37993	keystroke_d	d	n/a
19.2215	0.106	38443	keystroke_a	a	n/a
19.2965	0.12	38593	keystroke_n	n	n/a
19.4915	0.12	38983	keystroke_s	s	n/a
20.0765	0.075	40153	keystroke_Key.enter	Key.enter	n/a
20.158	7.7055	40316	prompt	n/a	affordable duty estates removed\n
20.812	0.12	41624	keystroke_a	a	n/a
20.977	0.105	41954	keystroke_f	f	n/a
21.1425	0.105	42285	keystroke_f	f	n/a
21.2775	0.135	42555	keystroke_o	o	n/a
21.3825	0.09	42765	keystroke_r	r	n/a
21.5925	0.105	43185	keystroke_d	d	n/a
21.8475	0.105	43695	keystroke_a	a	n/a
21.9225	0.0895	43845	keystroke_b	b	n/a
22.147	0.135	44294	keystroke_l	l	n/a
22.252	0.12	44504	keystroke_e	e	n/a
22.417	0.15	44834	keystroke_Key.space	Key.space	n/a
22.552	0.12	45104	keystroke_d	d	n/a
22.717	0.12	45434	keystroke_u	u	n/a
22.852	0.075	45704	keystroke_y	y	n/a
23.077	0.045	46154	keystroke_u	u	n/a
23.182	0.135	46364	keystroke_Key.space	Key.space	n/a
23.842	0.075	47684	keystroke_Key.backspace	Key.backspace	n/a
24.007	0.105	48014	keystroke_Key.backspace	Key.backspace	n/a
24.157	0.105	48314	keystroke_t	t	n/a
24.4875	0.075	48975	keystroke_Key.backspace	Key.backspace	n/a
24.6675	0.075	49335	keystroke_Key.backspace	Key.backspace	n/a
24.7125	0.089	49425	keystroke_t	t	n/a
24.9215	0.076	49843	keystroke_y	y	n/a
25.1475	0.134	50295	keystroke_Key.space	Key.space	n/a
25.2965	0.1955	50593	keystroke_e	e	n/a
25.447	0.105	50894	keystroke_s	s	n/a
25.732	0.105	51464	keystroke_t	t	n/a
25.912	0.1205	51824	keystroke_a	a	n/a
26.0175	0.165	52035	keystroke_t	t	n/a
26.1675	0.225	52335	keystroke_e	e	n/a
26.3175	0.15	52635	keystroke_s	s	n/a
26.4825	0.1195	52965	keystroke_Key.space	Key.space	n/a
26.722	0.135	53444	keystroke_r	r	n/a
26.827	0.135	53654	keystroke_e	e	n/a
26.977	0.15	53954	keystroke_m	m	n/a
27.097	0.165	54194	keystroke_o	o	n/a
27.187	0.09	54374	keystroke_v	v	n/a
27.352	0.075	54704	keystroke_e	e	n/a
27.532	0.12	55064	keystroke_d	d	n/a
27.772	0.09	55544	keystroke_Key.enter	Key.enter	n/a
27.868	7.556	55736	prompt	n/a	vacations bermuda titanium affecting\n
28.5515	0.12	57103	keystroke_v	v	n/a
28.7915	0.106	57583	keystroke_a	a	n/a
29.0015	0.165	58003	keystroke_c	c	n/a
29.1515	0.136	58303	keystroke_a	a	n/a
29.4075	0.12	58815	keystroke_t	t	n/a
29.5425	0.135	59085	keystroke_i	i	n/a
29.6625	0.18	59325	keystroke_o	o	n/a
29.7675	0.18	59535	keystroke_n	n	n/a
29.9175	0.1195	59835	keystroke_s	s	n/a
30.007	0.135	60014	keystroke_Key.space	Key.space	n/a
30.187	0.15	60374	keystroke_b	b	n/a
30.292	0.165	60584	keystroke_e	e	n/a
30.382	0.15	60764	keystroke_r	r	n/a
30.562	0.12	61124	keystroke_m	m	n/a
30.787	0.135	61574	keystroke_u	u	n/a
30.8925	0.1495	61785	keystroke_d	d	n/a
31.267	0.135	62534	keystroke_a	a	n/a
31.447	0.1205	62894	keystroke_Key.space	Key.space	n/a
31.6425	0.09	63285	keystroke_t	t	n/a
31.7625	0.135	63525	keystroke_i	i	n/a
31.9425	0.09	63885	keystroke_t	t	n/a
32.1525	0.165	64305	keystroke_a	a	n/a
32.3325	0.075	64665	keystroke_n	n	n/a
32.5275	0.12	65055	keystroke_i	i	n/a
33.097	0.09	66194	keystroke_u	u	n/a
33.382	0.18	66764	keystroke_m	m	n/a
33.592	0.105	67184	keystroke_Key.space	Key.space	n/a
33.727	0.12	67454	keystroke_a	a	n/a
33.877	0.09	67754	keystroke_f	f	n/a
34.072	0.075	68144	keystroke_f	f	n/a
34.117	0.15	68234	keystroke_e	e	n/a
34.342	0.12	68684	keystroke_c	c	n/a
34.612	0.105	69224	keystroke_t	t	n/a
34.747	0.12	69494	keystroke_i	i	n/a
34.792	0.195	69584	keystroke_n	n	n/a
34.972	0.105	69944	keystroke_g	g	n/a
35.347	0.075	70694	keystroke_Key.enter	Key.enter	n/a
35.4265	5.1425	70853	prompt	n/a	pour dangerous reward cite\n
36.187	0.15	72374	keystroke_p	p	n/a
36.322	0.09	72644	keystroke_o	o	n/a
36.547	0.12	73094	keystroke_u	u	n/a
36.787	0.1205	73574	keystroke_r	r	n/a
36.9975	0.12	73995	keystroke_Key.space	Key.space	n/a
37.0875	0.105	74175	keystroke_d	d	n/a
37.298	0.119	74596	keystroke_a	a	n/a
37.402	0.12	74804	keystroke_n	n	n/a
37.537	0.09	75074	keystroke_g	g	n/a
37.747	0.135	75494	keystroke_e	e	n/a
37.837	0.12	75674	keystroke_r	r	n/a
38.0325	0.15	76065	keystroke_o	o	n/a
38.1375	0.15	76275	keystroke_u	u	n/a
38.3025	0.135	76605	keystroke_s	s	n/a
38.4525	0.12	76905	keystroke_Key.space	Key.space	n/a
38.6025	0.1195	77205	keystroke_r	r	n/a
38.812	0.09	77624	keystroke_e	e	n/a
39.022	0.15	78044	keystroke_w	w	n/a
39.127	0.21	78254	keystroke_a	a	n/a
39.247	0.135	78494	keystroke_r	r	n/a
39.472	0.15	78944	keystroke_d	d	n/a
39.652	0.1205	79304	keystroke_Key.space	Key.space	n/a
39.8175	0.12	79635	keystroke_c	c	n/a
39.9525	0.15	79905	keystroke_i	i	n/a
40.0725	0.105	80145	keystroke_t	t	n/a
40.2825	0.09	80565	keystroke_e	e	n/a
40.4925	0.075	80985	keystroke_Key.enter	Key.enter	n/a
40.572	5.6215	81144	prompt	n/a	abuse winds layer capability\n
41.1675	0.15	82335	keystroke_a	a	n/a
41.3025	0.135	82605	keystroke_b	b	n/a
41.5125	0.135	83025	keystroke_u	u	n/a
41.6625	0.105	83325	keystroke_s	s	n/a
41.9775	0.105	83955	keystroke_e	e	n/a
42.1725	0.135	84345	keystroke_Key.space	Key.space	n/a
42.3525	0.09	84705	keystroke_w	w	n/a
42.4725	0.12	84945	keystroke_i	i	n/a
42.5625	0.165	85125	keystroke_n	n	n/a
42.6825	0.15	85365	keystroke_d	d	n/a
42.8625	0.135	85725	keystroke_s	s	n/a
43.0125	0.09	86025	keystroke_Key.space	Key.space	n/a
43.1775	0.165	86355	keystroke_l	l	n/a
43.2825	0.075	86565	keystroke_a	a	n/a
43.4925	0.09	86985	keystroke_y	y	n/a
43.7325	0.195	87465	keystroke_e	e	n/a
43.8375	0.15	87675	keystroke_r	r	n/a
44.0175	0.135	88035	keystroke_Key.space	Key.space	n/a
44.1825	0.1495	88365	keystroke_c	c	n/a
44.347	0.165	88694	keystroke_a	a	n/a
44.572	0.105	89144	keystroke_p	p	n/a
44.6925	0.15	89385	keystroke_a	a	n/a
44.9175	0.12	89835	keystroke_b	b	n/a
45.2475	0.15	90495	keystroke_i	i	n/a
45.3825	0.195	90765	keystroke_l	l	n/a
45.5175	0.1195	91035	keystroke_i	i	n/a
45.6225	0.0745	91245	keystroke_t	t	n/a
45.817	0.09	91634	keystroke_y	y	n/a
46.117	0.075	92234	keystroke_Key.enter	Key.enter	n/a
46.1975	7.2725	92395	prompt	n/a	temporary offerings directors newsletter\n
46.807	0.09	93614	keystroke_t	t	n/a
47.002	0.135	94004	keystroke_e	e	n/a
47.108	0.075	94216	keystroke_m	m	n/a
47.273	0.135	94546	keystroke_p	p	n/a
47.378	0.15	94756	keystroke_o	o	n/a
47.498	0.09	94996	keystroke_r	r	n/a
47.678	0.2245	95356	keystroke_a	a	n/a
47.8275	0.105	95655	keystroke_r	r	n/a
48.0825	0.09	96165	keystroke_y	y	n/a
48.2325	0.1195	96465	keystroke_Key.space	Key.space	n/a
48.3975	0.18	96795	keystroke_o	o	n/a
48.4875	0.075	96975	keystroke_f	f	n/a
48.6375	0.09	97275	keystroke_f	f	n/a
48.7575	0.21	97515	keystroke_e	e	n/a
48.9075	0.12	97815	keystroke_r	r	n/a
49.0425	0.165	98085	keystroke_i	i	n/a
49.1625	0.165	98325	keystroke_n	n	n/a
49.2825	0.105	98565	keystroke_g	g	n/a
49.4325	0.18	98865	keystroke_s	s	n/a
49.6275	0.12	99255	keystroke_Key.space	Key.space	n/a
49.7475	0.15	99495	keystroke_d	d	n/a
49.8675	0.15	99735	keystroke_i	i	n/a
50.0475	0.165	100095	keystroke_r	r	n/a
50.1825	0.105	100365	keystroke_e	e	n/a
50.4225	0.105	100845	keystroke_c	c	n/a
50.7075	0.09	101415	keystroke_t	t	n/a
50.8575	0.12	101715	keystroke_o	o	n/a
50.9625	0.105	101925	keystroke_r	r	n/a
51.2025	0.135	102405	keystroke_s	s	n/a
51.3975	0.105	102795	keystroke_Key.space	Key.space	n/a
51.6075	0.165	103215	keystroke_n	n	n/a
51.6675	0.195	103335	keystroke_e	e	n/a
51.8175	0.09	103635	keystroke_w	w	n/a
52.058	0.12	104116	keystroke_s	s	n/a
52.268	0.165	104536	keystroke_l	l	n/a
52.4025	0.1055	104805	keystroke_e	e	n/a
52.688	0.104	105376	keystroke_t	t	n/a
52.868	0.075	105736	keystroke_t	t	n/a
53.048	0.165	106096	keystroke_e	e	n/a
53.138	0.135	106276	keystroke_r	r	n/a
53.378	0.089	106756	keystroke_Key.enter	Key.enter	n/a
53.4825	7.727	106965	prompt	n/a	initiative express streets description\n
54.038	0.119	108076	keystroke_i	i	n/a
54.187	0.136	108374	keystroke_n	n	n/a
54.352	0.136	108704	keystroke_i	i	n/a
54.488	0.075	108976	keystroke_t	t	n/a
54.622	0.12	109244	keystroke_i	i	n/a
54.8925	0.15	109785	keystroke_a	a	n/a
55.0575	0.09	110115	keystroke_t	t	n/a
55.1625	0.135	110325	keystroke_i	i	n/a
55.3275	0.105	110655	keystroke_v	v	n/a
55.5075	0.105	111015	keystroke_e	e	n/a
55.6275	0.105	111255	keystroke_Key.space	Key.space	n/a
55.7475	0.105	111495	keystroke_e	e	n/a
55.987	0.135	111974	keystroke_x	x	n/a
56.302	0.105	112604	keystroke_p	p	n/a
56.632	0.12	113264	keystroke_r	r	n/a
56.722	0.225	113444	keystroke_e	e	n/a
56.902	0.105	113804	keystroke_s	s	n/a
57.112	0.09	114224	keystroke_s	s	n/a
57.247	0.135	114494	keystroke_Key.space	Key.space	n/a
57.397	0.105	114794	keystroke_s	s	n/a
57.577	0.09	115154	keystroke_t	t	n/a
57.817	0.15	115634	keystroke_r	r	n/a
57.922	0.15	115844	keystroke_e	e	n/a
58.267	0.135	116534	keystroke_e	e	n/a
58.522	0.075	117044	keystroke_t	t	n/a
58.7625	0.135	117525	keystroke_s	s	n/a
58.9275	0.15	117855	keystroke_Key.space	Key.space	n/a
59.1525	0.09	118305	keystroke_d	d	n/a
59.3625	0.105	118725	keystroke_e	e	n/a
59.4825	0.12	118965	keystroke_s	s	n/a
59.7975	0.09	119595	keystroke_c	c	n/a
60.0225	0.09	120045	keystroke_r	r	n/a
60.1275	0.15	120255	keystroke_i	i	n/a
60.2625	0.105	120525	keystroke_p	p	n/a
60.3825	0.105	120765	keystroke_t	t	n/a
60.4725	0.18	120945	keystroke_i	i	n/a
60.6075	0.1795	121215	keystroke_o	o	n/a
60.712	0.15	121424	keystroke_n	n	n/a
61.147	0.06	122294	keystroke_Key.enter	Key.enter	n/a
61.2195	7.1445	122439	prompt	n/a	soldiers versus specific permanent\n
61.777	0.165	123554	keystroke_s	s	n/a
61.897	0.06	123794	keystroke_o	o	n/a
62.092	0.09	124184	keystroke_l	l	n/a
62.287	0.135	124574	keystroke_d	d	n/a
62.6775	0.105	125355	keystroke_i	i	n/a
62.9775	0.165	125955	keystroke_e	e	n/a
63.1125	0.105	126225	keystroke_r	r	n/a
63.3375	0.135	126675	keystroke_s	s	n/a
63.6225	0.15	127245	keystroke_Key.space	Key.space	n/a
63.8325	0.12	127665	keystroke_v	v	n/a
64.102	0.1805	128204	keystroke_e	e	n/a
64.2225	0.105	128445	keystroke_r	r	n/a
64.5075	0.105	129015	keystroke_s	s	n/a
64.5975	0.1205	129195	keystroke_u	u	n/a
64.7475	0.1055	129495	keystroke_s	s	n/a
64.958	0.12	129916	keystroke_Key.space	Key.space	n/a
65.228	0.135	130456	keystroke_s	s	n/a
65.348	0.135	130696	keystroke_p	p	n/a
65.498	0.09	130996	keystroke_e	e	n/a
65.738	0.105	131476	keystroke_c	c	n/a
65.858	0.135	131716	keystroke_i	i	n/a
66.038	0.105	132076	keystroke_f	f	n/a
66.113	0.135	132226	keystroke_i	i	n/a
66.323	0.135	132646	keystroke_c	c	n/a
66.503	0.12	133006	keystroke_Key.space	Key.space	n/a
66.757	0.12	133514	keystroke_p	p	n/a
66.832	0.195	133664	keystroke_e	e	n/a
66.967	0.135	133934	keystroke_r	r	n/a
67.297	0.165	134594	keystroke_m	m	n/a
67.463	0.104	134926	keystroke_a	a	n/a
67.537	0.135	135074	keystroke_n	n	n/a
67.747	0.105	135494	keystroke_e	e	n/a
67.867	0.105	135734	keystroke_n	n	n/a
67.957	0.12	135914	keystroke_t	t	n/a
68.272	0.09	136544	keystroke_Key.enter	Key.enter	n/a
68.3665	6.733	136733	prompt	n/a	clean assessments norfolk solely\n
69.0675	0.105	138135	keystroke_c	c	n/a
69.1125	0.165	138225	keystroke_l	l	n/a
69.3225	0.075	138645	keystroke_e	e	n/a
69.5175	0.12	139035	keystroke_a	a	n/a
69.6225	0.12	139245	keystroke_n	n	n/a
69.7575	0.12	139515	keystroke_Key.space	Key.space	n/a
69.8925	0.075	139785	keystroke_a	a	n/a
70.117	0.06	140234	keystroke_s	s	n/a
70.882	0.015	141764	keystroke_s	s	n/a
71.032	0.105	142064	keystroke_e	e	n/a
71.242	0.105	142484	keystroke_s	s	n/a
71.437	0.12	142874	keystroke_s	s	n/a
71.602	0.15	143204	keystroke_m	m	n/a
71.767	0.075	143534	keystroke_e	e	n/a
71.857	0.165	143714	keystroke_n	n	n/a
71.962	0.135	143924	keystroke_t	t	n/a
72.217	0.135	144434	keystroke_s	s	n/a
72.337	0.12	144674	keystroke_Key.space	Key.space	n/a
72.517	0.12	145034	keystroke_n	n	n/a
72.712	0.135	145424	keystroke_o	o	n/a
72.817	0.12	145634	keystroke_r	r	n/a
73.117	0.15	146234	keystroke_f	f	n/a
73.252	0.105	146504	keystroke_o	o	n/a
73.492	0.165	146984	keystroke_l	l	n/a
73.627	0.21	147254	keystroke_k	k	n/a
73.792	0.165	147584	keystroke_Key.space	Key.space	n/a
73.942	0.1505	147884	keystroke_s	s	n/a
74.0475	0.09	148095	keystroke_o	o	n/a
74.2725	0.12	148545	keystroke_l	l	n/a
74.3625	0.105	148725	keystroke_e	e	n/a
74.4975	0.1345	148995	keystroke_l	l	n/a
74.737	0.121	149474	keystroke_y	y	n/a
75.022	0.075	150044	keystroke_Key.enter	Key.enter	n/a
75.11	7.7145	150220	prompt	n/a	ranking modify modified champagne\n
75.742	0.09	151484	keystroke_r	r	n/a
75.877	0.18	151754	keystroke_a	a	n/a
76.042	0.105	152084	keystroke_n	n	n/a
76.162	0.136	152324	keystroke_g	g	n/a
76.253	0.134	152506	keystroke_k	k	n/a
76.687	0.06	153374	keystroke_Key.backspace	Key.backspace	n/a
76.807	0.105	153614	keystroke_Key.backspace	Key.backspace	n/a
77.287	0.09	154574	keystroke_k	k	n/a
77.512	0.15	155024	keystroke_i	i	n/a
77.632	0.165	155264	keystroke_n	n	n/a
77.812	0.105	155624	keystroke_g	g	n/a
77.947	0.105	155894	keystroke_Key.space	Key.space	n/a
78.172	0.165	156344	keystroke_m	m	n/a
78.338	0.119	156676	keystroke_o	o	n/a
78.442	0.135	156884	keystroke_d	d	n/a
78.562	0.151	157124	keystroke_i	i	n/a
78.697	0.136	157394	keystroke_f	f	n/a
79.028	0.135	158056	keystroke_y	y	n/a
79.253	0.135	158506	keystroke_Key.space	Key.space	n/a
79.463	0.18	158926	keystroke_m	m	n/a
79.613	0.164	159226	keystroke_o	o	n/a
79.792	0.15	159584	keystroke_d	d	n/a
79.927	0.135	159854	keystroke_i	i	n/a
80.137	0.12	160274	keystroke_f	f	n/a
80.242	0.12	160484	keystroke_i	i	n/a
80.377	0.075	160754	keystroke_e	e	n/a
80.572	0.12	161144	keystroke_d	d	n/a
80.707	0.12	161414	keystroke_Key.space	Key.space	n/a
80.857	0.135	161714	keystroke_c	c	n/a
80.977	0.105	161954	keystroke_h	h	n/a
81.097	0.15	162194	keystroke_a	a	n/a
81.307	0.105	162614	keystroke_m	m	n/a
81.472	0.105	162944	keystroke_p	p	n/a
81.607	0.105	163214	keystroke_a	a	n/a
82.147	0.105	164294	keystroke_g	g	n/a
82.312	0.105	164624	keystroke_n	n	n/a
82.462	0.12	164924	keystroke_e	e	n/a
82.747	0.075	165494	keystroke_Key.enter	Key.enter	n/a
82.8345	4.5645	165669	prompt	n/a	taste hints worked titles\n
83.542	0.075	167084	keystroke_t	t	n/a
83.677	0.135	167354	keystroke_a	a	n/a
83.932	0.09	167864	keystroke_s	s	n/a
84.097	0.12	168194	keystroke_t	t	n/a
84.232	0.135	168464	keystroke_e	e	n/a
84.368	0.119	168736	keystroke_Key.space	Key.space	n/a
84.517	0.135	169034	keystroke_h	h	n/a
84.637	0.135	169274	keystroke_i	i	n/a
84.757	0.15	169514	keystroke_n	n	n/a
84.922	0.09	169844	keystroke_t	t	n/a
85.102	0.15	170204	keystroke_s	s	n/a
85.282	0.15	170564	keystroke_Key.space	Key.space	n/a
85.462	0.12	170924	keystroke_w	w	n/a
85.583	0.119	171166	keystroke_o	o	n/a
85.687	0.105	171374	keystroke_r	r	n/a
85.807	0.165	171614	keystroke_k	k	n/a
85.9275	0.1055	171855	keystroke_e	e	n/a
86.183	0.09	172366	keystroke_d	d	n/a
86.287	0.136	172574	keystroke_Key.space	Key.space	n/a
86.453	0.104	172906	keystroke_t	t	n/a
86.572	0.12	173144	keystroke_i	i	n/a
86.693	0.089	173386	keystroke_t	t	n/a
86.827	0.135	173654	keystroke_l	l	n/a
86.932	0.225	173864	keystroke_e	e	n/a
87.097	0.15	174194	keystroke_s	s	n/a
87.322	0.075	174644	keystroke_Key.enter	Key.enter	n/a
87.4035	4.7505	174807	prompt	n/a	fetish washing things mariah\n
88.058	0.089	176116	keystroke_f	f	n/a
88.222	0.105	176444	keystroke_e	e	n/a
88.447	0.12	176894	keystroke_t	t	n/a
88.627	0.12	177254	keystroke_i	i	n/a
88.762	0.15	177524	keystroke_s	s	n/a
88.913	0.164	177826	keystroke_h	h	n/a
89.062	0.1505	178124	keystroke_Key.space	Key.space	n/a
89.182	0.1655	178364	keystroke_w	w	n/a
89.3025	0.121	178605	keystroke_a	a	n/a
89.5275	0.12	179055	keystroke_s	s	n/a
89.6325	0.105	179265	keystroke_h	h	n/a
89.7075	0.165	179415	keystroke_i	i	n/a
89.8425	0.18	179685	keystroke_n	n	n/a
89.9325	0.105	179865	keystroke_g	g	n/a
90.0825	0.105	180165	keystroke_Key.space	Key.space	n/a
90.2325	0.105	180465	keystroke_t	t	n/a
90.3385	0.104	180677	keystroke_h	h	n/a
90.4125	0.165	180825	keystroke_i	i	n/a
90.5475	0.1645	181095	keystroke_n	n	n/a
90.682	0.105	181364	keystroke_g	g	n/a
90.847	0.136	181694	keystroke_s	s	n/a
91.012	0.105	182024	keystroke_Key.space	Key.space	n/a
91.162	0.165	182324	keystroke_m	m	n/a
91.282	0.15	182564	keystroke_a	a	n/a
91.433	0.089	182866	keystroke_r	r	n/a
91.523	0.134	183046	keystroke_i	i	n/a
91.687	0.12	183374	keystroke_a	a	n/a
91.792	0.12	183584	keystroke_h	h	n/a
92.077	0.075	184154	keystroke_Key.enter	Key.enter	n/a
92.1565	5.3825	184313	prompt	n/a	its glasses couple witch\n
92.827	0.12	185654	keystroke_i	i	n/a
92.932	0.091	185864	keystroke_t	t	n/a
93.082	0.165	186164	keystroke_s	s	n/a
93.217	0.135	186434	keystroke_Key.space	Key.space	n/a
93.427	0.105	186854	keystroke_g	g	n/a
93.547	0.12	187094	keystroke_l	l	n/a
93.682	0.12	187364	keystroke_a	a	n/a
93.922	0.09	187844	keystroke_s	s	n/a
94.447	0.105	188894	keystroke_s	s	n/a
94.7625	0.135	189525	keystroke_e	e	n/a
94.9275	0.09	189855	keystroke_s	s	n/a
95.0325	0.135	190065	keystroke_Key.space	Key.space	n/a
95.2275	0.15	190455	keystroke_c	c	n/a
95.3175	0.15	190635	keystroke_o	o	n/a
95.4075	0.09	190815	keystroke_u	u	n/a
95.6325	0.06	191265	keystroke_p	p	n/a
95.9325	0.105	191865	keystroke_l	l	n/a
96.1125	0.105	192225	keystroke_e	e	n/a
96.2475	0.135	192495	keystroke_Key.space	Key.space	n/a
96.3675	0.105	192735	keystroke_w	w	n/a
96.4875	0.135	192975	keystroke_i	i	n/a
96.637	0.0905	193274	keystroke_t	t	n/a
96.9375	0.135	193875	keystroke_c	c	n/a
96.9975	0.12	193995	keystroke_h	h	n/a
97.478	0.06	194956	keystroke_Key.enter	Key.enter	n/a
97.5465	7.253	195093	prompt	n/a	requested bizrate haven't bright\n
98.167	0.135	196334	keystroke_r	r	n/a
98.272	0.09	196544	keystroke_e	e	n/a
98.512	0.09	197024	keystroke_q	q	n/a
98.587	0.136	197174	keystroke_u	u	n/a
98.753	0.179	197506	keystroke_e	e	n/a
98.887	0.196	197774	keystroke_s	s	n/a
99.007	0.15	198014	keystroke_t	t	n/a
99.202	0.105	198404	keystroke_e	e	n/a
99.4575	0.15	198915	keystroke_d	d	n/a
99.6525	0.15	199305	keystroke_Key.space	Key.space	n/a
100.417	0.09	200834	keystroke_b	b	n/a
100.642	0.135	201284	keystroke_i	i	n/a
100.747	0.12	201494	keystroke_z	z	n/a
101.032	0.09	202064	keystroke_r	r	n/a
101.167	0.12	202334	keystroke_a	a	n/a
101.407	0.105	202814	keystroke_t	t	n/a
101.5425	0.135	203085	keystroke_e	e	n/a
101.7225	0.1045	203445	keystroke_Key.space	Key.space	n/a
101.902	0.12	203804	keystroke_h	h	n/a
101.978	0.104	203956	keystroke_a	a	n/a
102.217	0.105	204434	keystroke_v	v	n/a
102.412	0.105	204824	keystroke_e	e	n/a
102.533	0.074	205066	keystroke_n	n	n/a
102.7425	0.135	205485	keystroke_'	'	n/a
103.088	0.105	206176	keystroke_t	t	n/a
103.478	0.104	206956	keystroke_Key.space	Key.space	n/a
103.868	0.089	207736	keystroke_b	b	n/a
103.987	0.105	207974	keystroke_r	r	n/a
104.107	0.105	208214	keystroke_i	i	n/a
104.257	0.12	208514	keystroke_g	g	n/a
104.332	0.09	208664	keystroke_h	h	n/a
104.512	0.105	209024	keystroke_t	t	n/a
104.722	0.075	209444	keystroke_Key.enter	Key.enter	n/a
104.81	5.374	209620	prompt	n/a	thermal request vocal casio\n
105.502	0.1055	211004	keystroke_t	t	n/a
105.623	0.12	211246	keystroke_h	h	n/a
105.758	0.18	211516	keystroke_e	e	n/a
105.908	0.105	211816	keystroke_r	r	n/a
105.998	0.15	211996	keystroke_m	m	n/a
106.163	0.1195	212326	keystroke_a	a	n/a
106.2975	0.15	212595	keystroke_l	l	n/a
106.4775	0.135	212955	keystroke_Key.space	Key.space	n/a
106.6275	0.105	213255	keystroke_r	r	n/a
106.6875	0.075	213375	keystroke_e	e	n/a
106.8975	0.09	213795	keystroke_q	q	n/a
107.0025	0.12	214005	keystroke_u	u	n/a
107.1525	0.225	214305	keystroke_e	e	n/a
107.3025	0.165	214605	keystroke_s	s	n/a
107.4525	0.12	214905	keystroke_t	t	n/a
107.6025	0.135	215205	keystroke_Key.space	Key.space	n/a
107.7975	0.1055	215595	keystroke_v	v	n/a
107.9775	0.12	215955	keystroke_o	o	n/a
108.1275	0.12	216255	keystroke_c	c	n/a
108.3225	0.1505	216645	keystroke_a	a	n/a
108.413	0.195	216826	keystroke_l	l	n/a
108.623	0.119	217246	keystroke_Key.space	Key.space	n/a
108.757	0.091	217514	keystroke_a	a	n/a
109.147	0.105	218294	keystroke_Key.backspace	Key.backspace	n/a
109.238	0.119	218476	keystroke_c	c	n/a
109.327	0.121	218654	keystroke_a	a	n/a
109.568	0.105	219136	keystroke_s	s	n/a
109.658	0.1495	219316	keystroke_i	i	n/a
109.7925	0.135	219585	keystroke_o	o	n/a
110.1075	0.075	220215	keystroke_Key.enter	Key.enter	n/a
110.1865	4.4975	220373	prompt	n/a	walls lean slight nancy\n
110.7825	0.165	221565	keystroke_w	w	n/a
110.9025	0.135	221805	keystroke_a	a	n/a
111.0225	0.105	222045	keystroke_l	l	n/a
111.2175	0.12	222435	keystroke_l	l	n/a
111.2925	0.12	222585	keystroke_s	s	n/a
111.4125	0.135	222825	keystroke_Key.space	Key.space	n/a
111.5325	0.195	223065	keystroke_l	l	n/a
111.7125	0.075	223425	keystroke_e	e	n/a
111.8925	0.12	223785	keystroke_a	a	n/a
111.9675	0.15	223935	keystroke_n	n	n/a
112.1025	0.12	224205	keystroke_Key.space	Key.space	n/a
112.1775	0.18	224355	keystroke_s	s	n/a
112.3425	0.165	224685	keystroke_l	l	n/a
112.4475	0.15	224895	keystroke_i	i	n/a
112.6125	0.12	225225	keystroke_g	g	n/a
112.7325	0.135	225465	keystroke_h	h	n/a
112.9125	0.12	225825	keystroke_t	t	n/a
113.0625	0.15	226125	keystroke_Key.space	Key.space	n/a
113.2575	0.12	226515	keystroke_n	n	n/a
113.3625	0.135	226725	keystroke_a	a	n/a
113.5125	0.09	227025	keystroke_n	n	n/a
113.6475	0.09	227295	keystroke_y	y	n/a
114.007	0.09	228014	keystroke_Key.backspace	Key.backspace	n/a
114.112	0.105	228224	keystroke_c	c	n/a
114.367	0.09	228734	keystroke_y	y	n/a
114.607	0.075	229214	keystroke_Key.enter	Key.enter	n/a
114.6865	6.0575	229373	prompt	n/a	shade northern clock stable\n
115.327	0.1205	230654	keystroke_s	s	n/a
115.4325	0.12	230865	keystroke_h	h	n/a
115.5825	0.105	231165	keystroke_a	a	n/a
115.7175	0.09	231435	keystroke_d	d	n/a
115.9125	0.105	231825	keystroke_e	e	n/a
116.0475	0.135	232095	keystroke_Key.space	Key.space	n/a
116.3325	0.105	232665	keystroke_n	n	n/a
116.4975	0.12	232995	keystroke_o	o	n/a
116.5425	0.09	233085	keystroke_r	r	n/a
116.7975	0.12	233595	keystroke_t	t	n/a
116.9025	0.135	233805	keystroke_h	h	n/a
117.0675	0.21	234135	keystroke_e	e	n/a
117.3075	0.135	234615	keystroke_r	r	n/a
117.5475	0.165	235095	keystroke_n	n	n/a
117.7575	0.15	235515	keystroke_Key.space	Key.space	n/a
117.8925	0.15	235785	keystroke_c	c	n/a
117.9975	0.18	235995	keystroke_l	l	n/a
118.1325	0.135	236265	keystroke_o	o	n/a
118.1925	0.165	236385	keystroke_s	s	n/a
118.822	0.06	237644	keystroke_Key.backspace	Key.backspace	n/a
118.987	0.135	237974	keystroke_c	c	n/a
119.302	0.225	238604	keystroke_k	k	n/a
119.542	0.12	239084	keystroke_Key.space	Key.space	n/a
119.707	0.165	239414	keystroke_s	s	n/a
119.857	0.09	239714	keystroke_t	t	n/a
120.007	0.135	240014	keystroke_a	a	n/a
120.127	0.105	240254	keystroke_b	b	n/a
120.337	0.15	240674	keystroke_l	l	n/a
120.442	0.09	240884	keystroke_e	e	n/a
120.712	0.03	241424	keystroke_Key.enter	Key.enter	n/a
120.748	6.5815	241496	prompt	n/a	debian with evil browsers\n
121.312	0.105	242624	keystroke_d	d	n/a
121.552	0.105	243104	keystroke_e	e	n/a
121.673	0.119	243346	keystroke_b	b	n/a
121.927	0.135	243854	keystroke_i	i	n/a
122.017	0.165	244034	keystroke_a	a	n/a
122.197	0.135	244394	keystroke_n	n	n/a
122.3475	0.105	244695	keystroke_Key.space	Key.space	n/a
122.4075	0.12	244815	keystroke_w	w	n/a
122.5425	0.1345	245085	keystroke_i	i	n/a
122.692	0.12	245384	keystroke_t	t	n/a
122.752	0.165	245504	keystroke_h	h	n/a
122.902	0.135	245804	keystroke_Key.space	Key.space	n/a
123.007	0.09	246014	keystroke_e	e	n/a
123.247	0.105	246494	keystroke_v	v	n/a
123.412	0.1205	246824	keystroke_e	e	n/a
123.8625	0.135	247725	keystroke_i	i	n/a
123.9825	0.165	247965	keystroke_l	l	n/a
124.4175	0.06	248835	keystroke_Key.backspace	Key.backspace	n/a
124.5825	0.075	249165	keystroke_Key.backspace	Key.backspace	n/a
124.7175	0.075	249435	keystroke_Key.backspace	Key.backspace	n/a
124.9875	0.135	249975	keystroke_i	i	n/a
125.1075	0.165	250215	keystroke_l	l	n/a
125.2875	0.12	250575	keystroke_Key.space	Key.space	n/a
125.4825	0.12	250965	keystroke_b	b	n/a
125.5875	0.12	251175	keystroke_r	r	n/a
125.7525	0.12	251505	keystroke_o	o	n/a
125.8575	0.075	251715	keystroke_w	w	n/a
126.2175	0.21	252435	keystroke_s	s	n/a
126.5025	0.105	253005	keystroke_e	e	n/a
126.7425	0.105	253485	keystroke_r	r	n/a
127.0125	0.105	254025	keystroke_s	s	n/a
127.2225	0.105	254445	keystroke_Key.enter	Key.enter	n/a
127.34	7.384	254680	prompt	n/a	suspended premium madagascar mood\n
127.9725	0.105	255945	keystroke_s	s	n/a
128.3325	0.15	256665	keystroke_u	u	n/a
128.6475	0.1195	257295	keystroke_s	s	n/a
128.932	0.12	257864	keystroke_p	p	n/a
129.097	0.105	258194	keystroke_e	e	n/a
129.248	0.119	258496	keystroke_n	n	n/a
129.337	0.12	258674	keystroke_d	d	n/a
129.637	0.075	259274	keystroke_e	e	n/a
129.817	0.105	259634	keystroke_d	d	n/a
129.982	0.135	259964	keystroke_Key.space	Key.space	n/a
130.132	0.15	260264	keystroke_p	p	n/a
130.222	0.15	260444	keystroke_r	r	n/a
130.327	0.15	260654	keystroke_e	e	n/a
130.522	0.15	261044	keystroke_m	m	n/a
130.657	0.09	261314	keystroke_i	i	n/a
130.852	0.075	261704	keystroke_u	u	n/a
131.093	0.149	262186	keystroke_m	m	n/a
131.257	0.135	262514	keystroke_Key.space	Key.space	n/a
131.377	0.1805	262754	keystroke_m	m	n/a
131.542	0.15	263084	keystroke_a	a	n/a
131.677	0.15	263354	keystroke_d	d	n/a
131.902	0.1205	263804	keystroke_a	a	n/a
132.2025	0.09	264405	keystroke_g	g	n/a
132.4275	0.09	264855	keystroke_a	a	n/a
132.6375	0.09	265275	keystroke_s	s	n/a
132.8625	0.12	265725	keystroke_c	c	n/a
133.0575	0.09	266115	keystroke_a	a	n/a
133.2075	0.105	266415	keystroke_r	r	n/a
133.3875	0.12	266775	keystroke_Key.space	Key.space	n/a
133.7625	0.06	267525	keystroke_m	m	n/a
134.1225	0.09	268245	keystroke_o	o	n/a
134.3025	0.12	268605	keystroke_o	o	n/a
134.4075	0.135	268815	keystroke_d	d	n/a
134.6475	0.075	269295	keystroke_Key.enter	Key.enter	n/a
134.7265	6.403	269453	prompt	n/a	rebound payday zoning education\n
135.3525	0.12	270705	keystroke_r	r	n/a
135.4575	0.105	270915	keystroke_e	e	n/a
135.6975	0.1355	271395	keystroke_b	b	n/a
135.892	0.12	271784	keystroke_o	o	n/a
135.967	0.18	271934	keystroke_u	u	n/a
136.117	0.18	272234	keystroke_n	n	n/a
136.267	0.135	272534	keystroke_d	d	n/a
136.387	0.12	272774	keystroke_Key.space	Key.space	n/a
136.537	0.135	273074	keystroke_p	p	n/a
136.642	0.09	273284	keystroke_a	a	n/a
136.882	0.09	273764	keystroke_y	y	n/a
137.107	0.105	274214	keystroke_d	d	n/a
137.3025	0.1195	274605	keystroke_a	a	n/a
137.588	0.104	275176	keystroke_y	y	n/a
137.737	0.12	275474	keystroke_Key.space	Key.space	n/a
138.0525	0.12	276105	keystroke_o	o	n/a
138.4275	0.06	276855	keystroke_Key.backspace	Key.backspace	n/a
138.5325	0.12	277065	keystroke_z	z	n/a
138.6825	0.15	277365	keystroke_o	o	n/a
138.8775	0.121	277755	keystroke_n	n	n/a
139.0275	0.15	278055	keystroke_i	i	n/a
139.1475	0.165	278295	keystroke_n	n	n/a
139.2975	0.105	278595	keystroke_g	g	n/a
139.4325	0.12	278865	keystroke_Key.space	Key.space	n/a
139.5825	0.105	279165	keystroke_e	e	n/a
139.7925	0.105	279585	keystroke_d	d	n/a
139.8825	0.105	279765	keystroke_u	u	n/a
140.0475	0.135	280095	keystroke_c	c	n/a
140.1675	0.105	280335	keystroke_a	a	n/a
140.4225	0.12	280845	keystroke_t	t	n/a
140.4975	0.12	280995	keystroke_i	i	n/a
140.6475	0.12	281295	keystroke_o	o	n/a
140.6625	0.15	281325	keystroke_n	n	n/a
141.068	0.06	282136	keystroke_Key.enter	Key.enter	n/a
141.14	7.519	282280	prompt	n/a	glasses indonesia english chef\n
141.728	0.105	283456	keystroke_g	g	n/a
141.923	0.15	283846	keystroke_l	l	n/a
142.058	0.075	284116	keystroke_a	a	n/a
142.268	0.06	284536	keystroke_s	s	n/a
142.598	0.134	285196	keystroke_s	s	n/a
142.912	0.09	285824	keystroke_e	e	n/a
143.092	0.12	286184	keystroke_s	s	n/a
143.467	0.135	286934	keystroke_Key.space	Key.space	n/a
143.753	0.149	287506	keystroke_i	i	n/a
143.947	0.091	287894	keystroke_n	n	n/a
144.023	0.15	288046	keystroke_d	d	n/a
144.158	0.135	288316	keystroke_o	o	n/a
144.263	0.165	288526	keystroke_n	n	n/a
144.548	0.12	289096	keystroke_e	e	n/a
144.713	0.09	289426	keystroke_s	s	n/a
144.773	0.195	289546	keystroke_i	i	n/a
145.643	0.12	291286	keystroke_a	a	n/a
145.838	0.135	291676	keystroke_Key.space	Key.space	n/a
146.048	0.12	292096	keystroke_e	e	n/a
146.153	0.119	292306	keystroke_n	n	n/a
146.318	0.135	292636	keystroke_g	g	n/a
146.423	0.165	292846	keystroke_l	l	n/a
146.542	0.151	293084	keystroke_i	i	n/a
146.708	0.15	293416	keystroke_s	s	n/a
146.827	0.136	293654	keystroke_h	h	n/a
147.098	0.135	294196	keystroke_Key.space	Key.space	n/a
147.562	0.121	295124	keystroke_c	c	n/a
147.668	0.135	295336	keystroke_h	h	n/a
147.833	0.104	295666	keystroke_e	e	n/a
148.0725	0.03	296145	keystroke_f	f	n/a
148.5675	0.09	297135	keystroke_Key.enter	Key.enter	n/a
148.6695	5.1045	297339	prompt	n/a	totals lover rugs career\n
149.5275	0.09	299055	keystroke_t	t	n/a
149.6925	0.105	299385	keystroke_o	o	n/a
149.7975	0.105	299595	keystroke_t	t	n/a
150.0225	0.105	300045	keystroke_a	a	n/a
150.0825	0.15	300165	keystroke_l	l	n/a
150.3525	0.12	300705	keystroke_s	s	n/a
150.4875	0.135	300975	keystroke_Key.space	Key.space	n/a
150.713	0.1195	301426	keystroke_l	l	n/a
150.8175	0.195	301635	keystroke_o	o	n/a
151.0275	0.09	302055	keystroke_v	v	n/a
151.1925	0.15	302385	keystroke_e	e	n/a
151.4025	0.105	302805	keystroke_r	r	n/a
151.5085	0.119	303017	keystroke_Key.space	Key.space	n/a
151.6285	0.104	303257	keystroke_r	r	n/a
151.7475	0.105	303495	keystroke_u	u	n/a
151.8675	0.12	303735	keystroke_g	g	n/a
152.1225	0.15	304245	keystroke_s	s	n/a
152.3475	0.135	304695	keystroke_Key.space	Key.space	n/a
152.6475	0.12	305295	keystroke_c	c	n/a
152.7975	0.18	305595	keystroke_a	a	n/a
152.9625	0.105	305925	keystroke_r	r	n/a
153.1575	0.09	306315	keystroke_e	e	n/a
153.3675	0.15	306735	keystroke_e	e	n/a
153.4125	0.165	306825	keystroke_r	r	n/a
153.6975	0.075	307395	keystroke_Key.enter	Key.enter	n/a
153.7765	11.728	307553	prompt	n/a	cigarette dramatic varying assembled\n
154.4325	0.12	308865	keystroke_c	c	n/a
154.5825	0.1505	309165	keystroke_i	i	n/a
154.8225	0.09	309645	keystroke_g	g	n/a
155.0775	0.12	310155	keystroke_r	r	n/a
155.6175	0.06	311235	keystroke_=	=	n/a
155.7225	0.105	311445	keystroke_a	a	n/a
155.9625	0.105	311925	keystroke_Key.backspace	Key.backspace	n/a
156.1875	0.06	312375	keystroke_Key.backspace	Key.backspace	n/a
156.5925	0.0605	313185	keystroke_Key.backspace	Key.backspace	n/a
156.878	0.105	313756	keystroke_a	a	n/a
157.043	0.09	314086	keystroke_r	r	n/a
157.298	0.105	314596	keystroke_t	t	n/a
157.673	0.105	315346	keystroke_Key.backspace	Key.backspace	n/a
157.808	0.09	315616	keystroke_e	e	n/a
158.0025	0.1055	316005	keystroke_t	t	n/a
158.183	0.075	316366	keystroke_t	t	n/a
158.393	0.09	316786	keystroke_e	e	n/a
158.498	0.135	316996	keystroke_Key.space	Key.space	n/a
158.693	0.1045	317386	keystroke_d	d	n/a
158.9175	0.09	317835	keystroke_r	r	n/a
159.1575	0.075	318315	keystroke_a	a	n/a
159.2335	0.149	318467	keystroke_m	m	n/a
159.5175	0.12	319035	keystroke_a	a	n/a
159.8025	0.075	319605	keystroke_t	t	n/a
159.9525	0.12	319905	keystroke_i	i	n/a
160.1175	0.15	320235	keystroke_c	c	n/a
160.2975	0.15	320595	keystroke_Key.space	Key.space	n/a
160.5675	0.12	321135	keystroke_v	v	n/a
160.808	0.12	321616	keystroke_a	a	n/a
160.973	0.105	321946	keystroke_r	r	n/a
161.227	0.091	322454	keystroke_y	y	n/a
161.392	0.136	322784	keystroke_i	i	n/a
161.483	0.179	322966	keystroke_n	n	n/a
161.647	0.12	323294	keystroke_g	g	n/a
161.782	0.15	323564	keystroke_Key.space	Key.space	n/a
161.947	0.045	323894	keystroke_s	s	n/a
162.172	0.105	324344	keystroke_a	a	n/a
162.668	0.0745	325336	keystroke_Key.backspace	Key.backspace	n/a
162.8475	0.06	325695	keystroke_Key.backspace	Key.backspace	n/a
162.9525	0.105	325905	keystroke_a	a	n/a
163.1775	0.09	326355	keystroke_s	s	n/a
163.3725	0.105	326745	keystroke_s	s	n/a
163.6425	0.09	327285	keystroke_e	e	n/a
163.7775	0.165	327555	keystroke_m	m	n/a
164.4375	0.105	328875	keystroke_b	b	n/a
164.8275	0.135	329655	keystroke_l	l	n/a
164.9775	0.075	329955	keystroke_e	e	n/a
165.1875	0.105	330375	keystroke_d	d	n/a
165.4125	0.09	330825	keystroke_Key.enter	Key.enter	n/a
165.515	8.1195	331030	prompt	n/a	remind behavioral blame outlined\n
166.2525	0.135	332505	keystroke_r	r	n/a
166.3725	0.12	332745	keystroke_e	e	n/a
166.538	0.1345	333076	keystroke_m	m	n/a
166.658	0.2095	333316	keystroke_i	i	n/a
166.8225	0.2105	333645	keystroke_n	n	n/a
167.078	0.12	334156	keystroke_d	d	n/a
167.183	0.15	334366	keystroke_Key.space	Key.space	n/a
167.393	0.135	334786	keystroke_b	b	n/a
167.513	0.12	335026	keystroke_e	e	n/a
167.648	0.15	335296	keystroke_h	h	n/a
167.828	0.105	335656	keystroke_a	a	n/a
168.068	0.135	336136	keystroke_v	v	n/a
168.368	0.15	336736	keystroke_i	i	n/a
168.503	0.15	337006	keystroke_o	o	n/a
168.683	0.105	337366	keystroke_r	r	n/a
168.923	0.165	337846	keystroke_l	l	n/a
169.073	0.15	338146	keystroke_a	a	n/a
169.508	0.075	339016	keystroke_Key.backspace	Key.backspace	n/a
169.658	0.09	339316	keystroke_Key.backspace	Key.backspace	n/a
169.808	0.15	339616	keystroke_a	a	n/a
169.943	0.165	339886	keystroke_l	l	n/a
170.138	0.195	340276	keystroke_Key.space	Key.space	n/a
170.348	0.09	340696	keystroke_Key.space	Key.space	n/a
170.903	0.09	341806	keystroke_Key.backspace	Key.backspace	n/a
171.278	0.09	342556	keystroke_b	b	n/a
171.503	0.165	343006	keystroke_l	l	n/a
171.653	0.135	343306	keystroke_a	a	n/a
171.818	0.15	343636	keystroke_m	m	n/a
171.983	0.1045	343966	keystroke_e	e	n/a
172.1025	0.135	344205	keystroke_Key.space	Key.space	n/a
172.4025	0.12	344805	keystroke_o	o	n/a
172.4775	0.12	344955	keystroke_u	u	n/a
172.6275	0.105	345255	keystroke_t	t	n/a
172.7335	0.194	345467	keystroke_l	l	n/a
172.8825	0.1955	345765	keystroke_i	i	n/a
173.018	0.135	346036	keystroke_n	n	n/a
173.093	0.09	346186	keystroke_e	e	n/a
173.318	0.105	346636	keystroke_d	d	n/a
173.558	0.075	347116	keystroke_Key.enter	Key.enter	n/a
173.645	6.844	347290	prompt	n/a	soon struggle seattle geographic\n
174.233	0.18	348466	keystroke_s	s	n/a
174.368	0.09	348736	keystroke_o	o	n/a
174.563	0.135	349126	keystroke_o	o	n/a
174.638	0.225	349276	keystroke_n	n	n/a
174.833	0.135	349666	keystroke_Key.space	Key.space	n/a
174.908	0.15	349816	keystroke_s	s	n/a
175.148	0.09	350296	keystroke_t	t	n/a
175.358	0.105	350716	keystroke_r	r	n/a
175.433	0.135	350866	keystroke_u	u	n/a
175.643	0.075	351286	keystroke_g	g	n/a
175.8375	0.0755	351675	keystroke_g	g	n/a
176.063	0.195	352126	keystroke_l	l	n/a
176.243	0.075	352486	keystroke_e	e	n/a
176.333	0.18	352666	keystroke_Key.space	Key.space	n/a
176.468	0.195	352936	keystroke_s	s	n/a
176.648	0.09	353296	keystroke_e	e	n/a
176.843	0.12	353686	keystroke_a	a	n/a
177.023	0.12	354046	keystroke_t	t	n/a
177.263	0.105	354526	keystroke_t	t	n/a
177.428	0.165	354856	keystroke_l	l	n/a
177.578	0.12	355156	keystroke_e	e	n/a
177.728	0.1495	355456	keystroke_Key.space	Key.space	n/a
177.9225	0.0905	355845	keystroke_g	g	n/a
178.193	0.12	356386	keystroke_e	e	n/a
178.298	0.12	356596	keystroke_o	o	n/a
178.433	0.105	356866	keystroke_r	r	n/a
179.138	0.06	358276	keystroke_Key.backspace	Key.backspace	n/a
179.2275	0.0905	358455	keystroke_g	g	n/a
179.453	0.105	358906	keystroke_r	r	n/a
179.573	0.15	359146	keystroke_a	a	n/a
179.738	0.09	359476	keystroke_p	p	n/a
179.918	0.1195	359836	keystroke_h	h	n/a
180.0225	0.135	360045	keystroke_i	i	n/a
180.1875	0.165	360375	keystroke_c	c	n/a
180.4125	0.075	360825	keystroke_Key.enter	Key.enter	n/a
180.492	5.652	360984	prompt	n/a	renew fitting nationally distance\n
181.327	0.15	362654	keystroke_r	r	n/a
181.432	0.165	362864	keystroke_e	e	n/a
181.582	0.151	363164	keystroke_n	n	n/a
181.733	0.164	363466	keystroke_e	e	n/a
181.852	0.1355	363704	keystroke_w	w	n/a
182.0625	0.12	364125	keystroke_Key.space	Key.space	n/a
182.1675	0.12	364335	keystroke_f	f	n/a
182.3025	0.12	364605	keystroke_i	i	n/a
182.4525	0.09	364905	keystroke_t	t	n/a
182.6475	0.0745	365295	keystroke_t	t	n/a
182.753	0.135	365506	keystroke_i	i	n/a
182.812	0.196	365624	keystroke_n	n	n/a
182.992	0.136	365984	keystroke_g	g	n/a
183.142	0.166	366284	keystroke_Key.space	Key.space	n/a
183.3085	0.1945	366617	keystroke_n	n	n/a
183.442	0.106	366884	keystroke_a	a	n/a
183.607	0.12	367214	keystroke_t	t	n/a
183.697	0.196	367394	keystroke_i	i	n/a
183.833	0.135	367666	keystroke_o	o	n/a
183.878	0.18	367756	keystroke_n	n	n/a
184.012	0.165	368024	keystroke_a	a	n/a
184.192	0.09	368384	keystroke_l	l	n/a
184.373	0.119	368746	keystroke_l	l	n/a
184.507	0.105	369014	keystroke_y	y	n/a
184.642	0.1355	369284	keystroke_Key.space	Key.space	n/a
184.8075	0.135	369615	keystroke_d	d	n/a
184.9435	0.134	369887	keystroke_i	i	n/a
185.0325	0.12	370065	keystroke_s	s	n/a
185.2425	0.105	370485	keystroke_t	t	n/a
185.4075	0.135	370815	keystroke_a	a	n/a
185.5275	0.15	371055	keystroke_n	n	n/a
185.6925	0.15	371385	keystroke_c	c	n/a
185.8275	0.12	371655	keystroke_e	e	n/a
186.0675	0.075	372135	keystroke_Key.enter	Key.enter	n/a
186.1465	6.478	372293	prompt	n/a	beliefs qualities where're serum\n
186.758	0.105	373516	keystroke_b	b	n/a
186.848	0.09	373696	keystroke_e	e	n/a
187.043	0.195	374086	keystroke_l	l	n/a
187.148	0.195	374296	keystroke_i	i	n/a
187.358	0.075	374716	keystroke_e	e	n/a
187.538	0.105	375076	keystroke_f	f	n/a
187.688	0.165	375376	keystroke_s	s	n/a
187.853	0.12	375706	keystroke_Key.space	Key.space	n/a
188.078	0.075	376156	keystroke_q	q	n/a
188.168	0.12	376336	keystroke_u	u	n/a
188.528	0.105	377056	keystroke_a	a	n/a
188.7825	0.18	377565	keystroke_l	l	n/a
188.9175	0.15	377835	keystroke_i	i	n/a
189.0225	0.105	378045	keystroke_t	t	n/a
189.1425	0.15	378285	keystroke_i	i	n/a
189.3225	0.2255	378645	keystroke_e	e	n/a
189.4725	0.135	378945	keystroke_s	s	n/a
189.5925	0.105	379185	keystroke_Key.space	Key.space	n/a
189.7275	0.135	379455	keystroke_w	w	n/a
189.848	0.1345	379696	keystroke_h	h	n/a
190.012	0.12	380024	keystroke_e	e	n/a
190.117	0.1955	380234	keystroke_r	r	n/a
190.2825	0.105	380565	keystroke_e	e	n/a
190.4025	0.15	380805	keystroke_'	'	n/a
190.8825	0.1505	381765	keystroke_r	r	n/a
191.093	0.105	382186	keystroke_e	e	n/a
191.318	0.135	382636	keystroke_Key.space	Key.space	n/a
191.513	0.12	383026	keystroke_s	s	n/a
191.693	0.225	383386	keystroke_e	e	n/a
191.813	0.165	383626	keystroke_r	r	n/a
191.993	0.105	383986	keystroke_u	u	n/a
192.248	0.135	384496	keystroke_m	m	n/a
192.5475	0.075	385095	keystroke_Key.enter	Key.enter	n/a
192.6365	6.1675	385273	prompt	n/a	china comparative send pharmacies\n
193.2675	0.135	386535	keystroke_c	c	n/a
193.3875	0.105	386775	keystroke_h	h	n/a
193.5075	0.12	387015	keystroke_i	i	n/a
193.5825	0.18	387165	keystroke_n	n	n/a
193.7175	0.09	387435	keystroke_a	a	n/a
193.8225	0.18	387645	keystroke_Key.space	Key.space	n/a
194.0175	0.165	388035	keystroke_c	c	n/a
194.1375	0.1495	388275	keystroke_o	o	n/a
194.302	0.136	388604	keystroke_m	m	n/a
194.453	0.165	388906	keystroke_p	p	n/a
194.633	0.134	389266	keystroke_a	a	n/a
194.752	0.121	389504	keystroke_r	r	n/a
194.978	0.06	389956	keystroke_a	a	n/a
195.368	0.12	390736	keystroke_t	t	n/a
195.608	0.135	391216	keystroke_i	i	n/a
195.757	0.105	391514	keystroke_v	v	n/a
195.952	0.1205	391904	keystroke_e	e	n/a
196.057	0.12	392114	keystroke_Key.space	Key.space	n/a
196.178	0.164	392356	keystroke_s	s	n/a
196.402	0.105	392804	keystroke_e	e	n/a
196.508	0.149	393016	keystroke_n	n	n/a
196.642	0.151	393284	keystroke_d	d	n/a
196.777	0.075	393554	keystroke_Key.space	Key.space	n/a
196.942	0.09	393884	keystroke_p	p	n/a
197.197	0.136	394394	keystroke_h	h	n/a
197.347	0.181	394694	keystroke_a	a	n/a
197.437	0.12	394874	keystroke_r	r	n/a
197.632	0.135	395264	keystroke_m	m	n/a
197.842	0.121	395684	keystroke_a	a	n/a
198.1125	0.15	396225	keystroke_c	c	n/a
198.2475	0.15	396495	keystroke_i	i	n/a
198.4275	0.225	396855	keystroke_e	e	n/a
198.5625	0.15	397125	keystroke_s	s	n/a
198.7275	0.075	397455	keystroke_Key.enter	Key.enter	n/a
198.809	6.9405	397618	prompt	n/a	gaming photos incredible gather\n
199.4175	0.075	398835	keystroke_g	g	n/a
199.5975	0.165	399195	keystroke_a	a	n/a
199.7325	0.15	399465	keystroke_m	m	n/a
200.0175	0.15	400035	keystroke_i	i	n/a
200.1525	0.165	400305	keystroke_n	n	n/a
200.2725	0.105	400545	keystroke_g	g	n/a
200.3625	0.15	400725	keystroke_Key.space	Key.space	n/a
200.5275	0.15	401055	keystroke_p	p	n/a
200.7075	0.195	401415	keystroke_h	h	n/a
200.8875	0.135	401775	keystroke_o	o	n/a
201.0075	0.1055	402015	keystroke_t	t	n/a
201.128	0.15	402256	keystroke_o	o	n/a
201.248	0.165	402496	keystroke_s	s	n/a
201.398	0.15	402796	keystroke_Key.space	Key.space	n/a
201.563	0.135	403126	keystroke_i	i	n/a
201.668	0.18	403336	keystroke_n	n	n/a
201.818	0.105	403636	keystroke_c	c	n/a
202.088	0.135	404176	keystroke_r	r	n/a
202.178	0.135	404356	keystroke_e	e	n/a
202.433	0.105	404866	keystroke_d	d	n/a
202.508	0.12	405016	keystroke_i	i	n/a
202.673	0.09	405346	keystroke_t	t	n/a
203.348	0.075	406696	keystroke_Key.backspace	Key.backspace	n/a
204.023	0.09	408046	keystroke_b	b	n/a
204.263	0.15	408526	keystroke_l	l	n/a
204.383	0.12	408766	keystroke_e	e	n/a
204.533	0.18	409066	keystroke_Key.space	Key.space	n/a
204.803	0.105	409606	keystroke_g	g	n/a
204.998	0.18	409996	keystroke_a	a	n/a
205.133	0.12	410266	keystroke_t	t	n/a
205.268	0.119	410536	keystroke_h	h	n/a
205.402	0.165	410804	keystroke_e	e	n/a
205.448	0.164	410896	keystroke_r	r	n/a
205.672	0.075	411344	keystroke_Key.enter	Key.enter	n/a
205.752	4.9325	411504	prompt	n/a	great give quiz separately\n
206.287	0.105	412574	keystroke_g	g	n/a
206.573	0.149	413146	keystroke_r	r	n/a
206.677	0.105	413354	keystroke_e	e	n/a
206.9025	0.0895	413805	keystroke_a	a	n/a
207.097	0.12	414194	keystroke_t	t	n/a
207.2325	0.1195	414465	keystroke_Key.space	Key.space	n/a
207.367	0.1055	414734	keystroke_g	g	n/a
207.457	0.15	414914	keystroke_i	i	n/a
207.622	0.09	415244	keystroke_v	v	n/a
207.802	0.1065	415604	keystroke_e	e	n/a
207.8775	0.135	415755	keystroke_Key.space	Key.space	n/a
208.0575	0.12	416115	keystroke_q	q	n/a
208.1625	0.165	416325	keystroke_u	u	n/a
208.2825	0.165	416565	keystroke_i	i	n/a
208.6125	0.1355	417225	keystroke_z	z	n/a
208.762	0.151	417524	keystroke_Key.space	Key.space	n/a
208.942	0.211	417884	keystroke_s	s	n/a
209.137	0.135	418274	keystroke_e	e	n/a
209.287	0.121	418574	keystroke_p	p	n/a
209.393	0.164	418786	keystroke_a	a	n/a
209.6175	0.1505	419235	keystroke_r	r	n/a
209.737	0.135	419474	keystroke_a	a	n/a
209.993	0.1345	419986	keystroke_t	t	n/a
210.0535	0.149	420107	keystroke_e	e	n/a
210.2335	0.12	420467	keystroke_l	l	n/a
210.3535	0.135	420707	keystroke_y	y	n/a
210.6075	0.0755	421215	keystroke_Key.enter	Key.enter	n/a
210.687	5.952	421374	prompt	n/a	gang volvo mason wearing\n
211.3575	0.105	422715	keystroke_g	g	n/a
211.5825	0.135	423165	keystroke_a	a	n/a
211.9725	0.12	423945	keystroke_n	n	n/a
212.1075	0.12	424215	keystroke_g	g	n/a
212.2575	0.135	424515	keystroke_Key.space	Key.space	n/a
212.4525	0.135	424905	keystroke_v	v	n/a
212.5425	0.105	425085	keystroke_o	o	n/a
212.738	0.15	425476	keystroke_l	l	n/a
212.889	0.119	425778	keystroke_v	v	n/a
213.158	0.12	426316	keystroke_o	o	n/a
213.398	0.12	426796	keystroke_Key.space	Key.space	n/a
213.683	0.165	427366	keystroke_m	m	n/a
213.863	0.09	427726	keystroke_a	a	n/a
214.088	0.135	428176	keystroke_s	s	n/a
214.208	0.165	428416	keystroke_o	o	n/a
214.313	0.18	428626	keystroke_n	n	n/a
214.478	0.165	428956	keystroke_Key.space	Key.space	n/a
214.793	0.149	429586	keystroke_w	w	n/a
214.898	0.135	429796	keystroke_e	e	n/a
215.078	0.225	430156	keystroke_a	a	n/a
215.318	0.06	430636	keystroke_i	i	n/a
215.738	0.075	431476	keystroke_Key.backspace	Key.backspace	n/a
215.843	0.09	431686	keystroke_r	r	n/a
216.0225	0.165	432045	keystroke_i	i	n/a
216.1275	0.195	432255	keystroke_n	n	n/a
216.3075	0.12	432615	keystroke_g	g	n/a
216.5625	0.0755	433125	keystroke_Key.enter	Key.enter	n/a
216.644	7.3905	433288	prompt	n/a	reflections playing butler fabulous\n
217.2225	0.15	434445	keystroke_r	r	n/a
217.3575	0.12	434715	keystroke_e	e	n/a
217.5975	0.12	435195	keystroke_f	f	n/a
217.7025	0.12	435405	keystroke_l	l	n/a
217.8075	0.09	435615	keystroke_e	e	n/a
218.0475	0.09	436095	keystroke_c	c	n/a
218.273	0.1195	436546	keystroke_t	t	n/a
218.3775	0.165	436755	keystroke_i	i	n/a
218.4825	0.165	436965	keystroke_o	o	n/a
218.7225	0.18	437445	keystroke_n	n	n/a
218.7385	0.045	437477	keystroke_s	s	n/a
219.3225	0.121	438645	keystroke_Key.space	Key.space	n/a
219.5035	0.075	439007	keystroke_p	p	n/a
219.7285	0.135	439457	keystroke_l	l	n/a
219.8035	0.089	439607	keystroke_a	a	n/a
220.0285	0.1045	440057	keystroke_y	y	n/a
220.163	0.12	440326	keystroke_i	i	n/a
220.253	0.195	440506	keystroke_n	n	n/a
220.403	0.105	440806	keystroke_g	g	n/a
220.463	0.18	440926	keystroke_Key.space	Key.space	n/a
220.613	0.195	441226	keystroke_b	b	n/a
220.778	0.15	441556	keystroke_u	u	n/a
220.988	0.12	441976	keystroke_t	t	n/a
221.213	0.165	442426	keystroke_l	l	n/a
221.423	0.195	442846	keystroke_e	e	n/a
221.558	0.12	443116	keystroke_r	r	n/a
221.693	0.135	443386	keystroke_Key.space	Key.space	n/a
221.843	0.12	443686	keystroke_f	f	n/a
222.038	0.12	444076	keystroke_a	a	n/a
222.293	0.105	444586	keystroke_b	b	n/a
222.848	0.12	445696	keystroke_u	u	n/a
223.103	0.12	446206	keystroke_l	l	n/a
223.343	0.165	446686	keystroke_o	o	n/a
223.463	0.165	446926	keystroke_u	u	n/a
223.643	0.12	447286	keystroke_s	s	n/a
223.958	0.075	447916	keystroke_Key.enter	Key.enter	n/a
224.0455	5.5835	448091	prompt	n/a	chip wedding bookmarks layer\n
224.7825	0.135	449565	keystroke_c	c	n/a
224.8575	0.1355	449715	keystroke_h	h	n/a
225.008	0.105	450016	keystroke_i	i	n/a
225.218	0.15	450436	keystroke_p	p	n/a
225.353	0.165	450706	keystroke_Key.space	Key.space	n/a
225.533	0.165	451066	keystroke_w	w	n/a
225.653	0.12	451306	keystroke_e	e	n/a
225.908	0.09	451816	keystroke_d	d	n/a
226.088	0.12	452176	keystroke_d	d	n/a
226.193	0.135	452386	keystroke_i	i	n/a
226.283	0.225	452566	keystroke_n	n	n/a
226.448	0.135	452896	keystroke_g	g	n/a
226.538	0.15	453076	keystroke_Key.space	Key.space	n/a
226.688	0.15	453376	keystroke_b	b	n/a
226.883	0.105	453766	keystroke_o	o	n/a
227.063	0.12	454126	keystroke_o	o	n/a
227.348	0.15	454696	keystroke_k	k	n/a
227.693	0.12	455386	keystroke_m	m	n/a
227.828	0.165	455656	keystroke_a	a	n/a
227.948	0.105	455896	keystroke_r	r	n/a
228.083	0.15	456166	keystroke_k	k	n/a
228.203	0.135	456406	keystroke_s	s	n/a
228.383	0.15	456766	keystroke_Key.space	Key.space	n/a
228.638	0.15	457276	keystroke_l	l	n/a
228.743	0.105	457486	keystroke_a	a	n/a
228.983	0.09	457966	keystroke_y	y	n/a
229.223	0.15	458446	keystroke_e	e	n/a
229.298	0.18	458596	keystroke_r	r	n/a
229.553	0.075	459106	keystroke_Key.enter	Key.enter	n/a
229.6315	8.0535	459263	prompt	n/a	additionally directive develops excel\n
230.198	0.18	460396	keystroke_a	a	n/a
230.393	0.075	460786	keystroke_d	d	n/a
230.573	0.105	461146	keystroke_d	d	n/a
230.783	0.105	461566	keystroke_i	i	n/a
230.963	0.12	461926	keystroke_t	t	n/a
231.0685	0.1945	462137	keystroke_i	i	n/a
231.278	0.165	462556	keystroke_o	o	n/a
231.502	0.135	463004	keystroke_n	n	n/a
231.698	0.1205	463396	keystroke_a	a	n/a
231.8335	0.09	463667	keystroke_l	l	n/a
232.0435	0.135	464087	keystroke_l	l	n/a
232.1635	0.119	464327	keystroke_y	y	n/a
232.2525	0.165	464505	keystroke_Key.space	Key.space	n/a
232.4325	0.135	464865	keystroke_d	d	n/a
232.5375	0.136	465075	keystroke_i	i	n/a
232.7325	0.12	465465	keystroke_r	r	n/a
232.8225	0.105	465645	keystroke_e	e	n/a
233.0325	0.12	466065	keystroke_c	c	n/a
233.3025	0.105	466605	keystroke_t	t	n/a
233.4225	0.12	466845	keystroke_o	o	n/a
233.9175	0.075	467835	keystroke_Key.backspace	Key.backspace	n/a
234.158	0.135	468316	keystroke_i	i	n/a
234.278	0.12	468556	keystroke_v	v	n/a
234.503	0.105	469006	keystroke_e	e	n/a
234.668	0.135	469336	keystroke_Key.space	Key.space	n/a
234.818	0.105	469636	keystroke_d	d	n/a
235.073	0.075	470146	keystroke_e	e	n/a
235.298	0.12	470596	keystroke_v	v	n/a
235.478	0.135	470956	keystroke_e	e	n/a
235.598	0.135	471196	keystroke_l	l	n/a
235.733	0.1645	471466	keystroke_o	o	n/a
235.9275	0.1655	471855	keystroke_p	p	n/a
236.108	0.15	472216	keystroke_s	s	n/a
236.348	0.1645	472696	keystroke_Key.space	Key.space	n/a
236.5425	0.09	473085	keystroke_e	e	n/a
236.7975	0.135	473595	keystroke_x	x	n/a
236.9925	0.165	473985	keystroke_c	c	n/a
237.1725	0.15	474345	keystroke_e	e	n/a
237.2925	0.165	474585	keystroke_l	l	n/a
237.6225	0.06	475245	keystroke_Key.enter	Key.enter	n/a
237.7	7.23	475400	prompt	n/a	dating shorter bedrooms went\n
238.223	0.06	476446	keystroke_a	a	n/a
238.553	0.09	477106	keystroke_Key.backspace	Key.backspace	n/a
238.644	0.1335	477288	keystroke_d	d	n/a
238.7785	0.104	477557	keystroke_a	a	n/a
239.0325	0.09	478065	keystroke_t	t	n/a
239.1235	0.164	478247	keystroke_i	i	n/a
239.2425	0.225	478485	keystroke_n	n	n/a
239.5125	0.1655	479025	keystroke_Key.space	Key.space	n/a
239.828	0.12	479656	keystroke_s	s	n/a
240.1725	0.06	480345	keystroke_Key.backspace	Key.backspace	n/a
240.3225	0.09	480645	keystroke_Key.backspace	Key.backspace	n/a
240.4285	0.089	480857	keystroke_g	g	n/a
240.563	0.135	481126	keystroke_Key.space	Key.space	n/a
240.728	0.165	481456	keystroke_s	s	n/a
240.833	0.135	481666	keystroke_h	h	n/a
240.998	0.1645	481996	keystroke_o	o	n/a
241.0875	0.09	482175	keystroke_r	r	n/a
241.2825	0.105	482565	keystroke_t	t	n/a
241.5375	0.195	483075	keystroke_e	e	n/a
241.6275	0.165	483255	keystroke_r	r	n/a
241.8075	0.1205	483615	keystroke_Key.space	Key.space	n/a
242.0325	0.12	484065	keystroke_b	b	n/a
242.0925	0.075	484185	keystroke_e	e	n/a
242.2725	0.12	484545	keystroke_d	d	n/a
242.5125	0.15	485025	keystroke_r	r	n/a
242.6475	0.075	485295	keystroke_o	o	n/a
242.8425	0.135	485685	keystroke_o	o	n/a
242.9785	0.149	485957	keystroke_m	m	n/a
243.1725	0.165	486345	keystroke_s	s	n/a
243.3975	0.15	486795	keystroke_Key.space	Key.space	n/a
243.5775	0.105	487155	keystroke_w	w	n/a
243.8325	0.06	487665	keystroke_n	n	n/a
244.2525	0.06	488505	keystroke_Key.backspace	Key.backspace	n/a
244.3275	0.105	488655	keystroke_e	e	n/a
244.5075	0.135	489015	keystroke_n	n	n/a
244.6275	0.1055	489255	keystroke_t	t	n/a
244.883	0.044	489766	keystroke_Key.enter	Key.enter	n/a
244.94	8.285	489880	prompt	n/a	moderators techno substances position\n
245.572	0.181	491144	keystroke_m	m	n/a
245.903	0.12	491806	keystroke_o	o	n/a
246.068	0.105	492136	keystroke_d	d	n/a
246.352	0.151	492704	keystroke_e	e	n/a
246.488	0.12	492976	keystroke_r	r	n/a
246.668	0.21	493336	keystroke_a	a	n/a
246.968	0.105	493936	keystroke_o	o	n/a
247.328	0.075	494656	keystroke_Key.backspace	Key.backspace	n/a
247.418	0.105	494836	keystroke_t	t	n/a
247.613	0.15	495226	keystroke_o	o	n/a
247.748	0.105	495496	keystroke_r	r	n/a
247.988	0.15	495976	keystroke_s	s	n/a
248.139	0.149	496278	keystroke_Key.space	Key.space	n/a
248.288	0.105	496576	keystroke_t	t	n/a
248.423	0.12	496846	keystroke_e	e	n/a
248.708	0.1495	497416	keystroke_c	c	n/a
248.8125	0.09	497625	keystroke_h	h	n/a
249.0675	0.165	498135	keystroke_n	n	n/a
249.2925	0.21	498585	keystroke_o	o	n/a
249.5175	0.15	499035	keystroke_Key.space	Key.space	n/a
249.7725	0.135	499545	keystroke_s	s	n/a
249.8475	0.09	499695	keystroke_u	u	n/a
250.0275	0.135	500055	keystroke_b	b	n/a
250.1775	0.12	500355	keystroke_s	s	n/a
250.4025	0.105	500805	keystroke_t	t	n/a
250.5675	0.15	501135	keystroke_a	a	n/a
250.7025	0.135	501405	keystroke_n	n	n/a
250.8675	0.165	501735	keystroke_c	c	n/a
250.9875	0.255	501975	keystroke_e	e	n/a
251.1375	0.15	502275	keystroke_s	s	n/a
251.3025	0.105	502605	keystroke_Key.space	Key.space	n/a
251.4525	0.18	502905	keystroke_p	p	n/a
251.6175	0.135	503235	keystroke_o	o	n/a
251.9175	0.15	503835	keystroke_s	s	n/a
252.0975	0.15	504195	keystroke_i	i	n/a
252.4425	0.12	504885	keystroke_t	t	n/a
252.5775	0.135	505155	keystroke_i	i	n/a
252.6825	0.18	505365	keystroke_o	o	n/a
252.7575	0.15	505515	keystroke_n	n	n/a
253.1325	0.09	506265	keystroke_Key.enter	Key.enter	n/a
253.2355	8.494	506471	prompt	n/a	developing mathematical jacksonville heavily\n
253.7925	0.09	507585	keystroke_d	d	n/a
254.018	0.075	508036	keystroke_e	e	n/a
254.2575	0.105	508515	keystroke_v	v	n/a
254.4075	0.12	508815	keystroke_e	e	n/a
254.5285	0.149	509057	keystroke_l	l	n/a
254.6625	0.12	509325	keystroke_o	o	n/a
254.8275	0.135	509655	keystroke_p	p	n/a
255.0675	0.165	510135	keystroke_i	i	n/a
255.2025	0.21	510405	keystroke_n	n	n/a
255.3675	0.135	510735	keystroke_g	g	n/a
255.4725	0.12	510945	keystroke_Key.space	Key.space	n/a
255.6375	0.195	511275	keystroke_m	m	n/a
255.7725	0.105	511545	keystroke_a	a	n/a
255.9825	0.12	511965	keystroke_t	t	n/a
256.0725	0.135	512145	keystroke_h	h	n/a
256.2675	0.12	512535	keystroke_e	e	n/a
256.5225	0.105	513045	keystroke_m	m	n/a
256.6725	0.105	513345	keystroke_a	a	n/a
256.9275	0.105	513855	keystroke_t	t	n/a
257.0625	0.135	514125	keystroke_i	i	n/a
257.2125	0.15	514425	keystroke_c	c	n/a
257.4075	0.18	514815	keystroke_a	a	n/a
257.5425	0.165	515085	keystroke_l	l	n/a
257.6775	0.15	515355	keystroke_Key.space	Key.space	n/a
257.9625	0.15	515925	keystroke_j	j	n/a
258.1275	0.06	516255	keystroke_a	a	n/a
258.3675	0.12	516735	keystroke_c	c	n/a
258.4725	0.165	516945	keystroke_k	k	n/a
258.7275	0.12	517455	keystroke_s	s	n/a
258.8775	0.195	517755	keystroke_o	o	n/a
259.0425	0.165	518085	keystroke_n	n	n/a
259.4475	0.12	518895	keystroke_v	v	n/a
259.5525	0.105	519105	keystroke_i	i	n/a
259.763	0.0895	519526	keystroke_l	l	n/a
259.9725	0.105	519945	keystroke_l	l	n/a
260.0925	0.105	520185	keystroke_e	e	n/a
260.2575	0.1355	520515	keystroke_Key.space	Key.space	n/a
260.453	0.1345	520906	keystroke_h	h	n/a
260.5575	0.0905	521115	keystroke_e	e	n/a
260.753	0.1195	521506	keystroke_a	a	n/a
260.9925	0.1205	521985	keystroke_v	v	n/a
261.128	0.15	522256	keystroke_i	i	n/a
261.188	0.21	522376	keystroke_l	l	n/a
261.383	0.12	522766	keystroke_y	y	n/a
261.638	0.09	523276	keystroke_Key.enter	Key.enter	n/a
261.7415	5.823	523483	prompt	n/a	fairy hostel closely arabia\n
262.313	0.12	524626	keystroke_f	f	n/a
262.538	0.09	525076	keystroke_a	a	n/a
262.718	0.15	525436	keystroke_i	i	n/a
262.853	0.105	525706	keystroke_r	r	n/a
263.198	0.09	526396	keystroke_y	y	n/a
263.588	0.12	527176	keystroke_Key.space	Key.space	n/a
263.783	0.135	527566	keystroke_h	h	n/a
263.933	0.15	527866	keystroke_o	o	n/a
264.053	0.12	528106	keystroke_s	s	n/a
264.323	0.105	528646	keystroke_t	t	n/a
264.548	0.12	529096	keystroke_e	e	n/a
264.683	0.195	529366	keystroke_l	l	n/a
264.848	0.15	529696	keystroke_Key.space	Key.space	n/a
265.043	0.15	530086	keystroke_c	c	n/a
265.178	0.18	530356	keystroke_l	l	n/a
265.298	0.165	530596	keystroke_o	o	n/a
265.433	0.18	530866	keystroke_s	s	n/a
265.538	0.165	531076	keystroke_e	e	n/a
265.688	0.135	531376	keystroke_l	l	n/a
265.853	0.15	531706	keystroke_y	y	n/a
266.153	0.15	532306	keystroke_Key.space	Key.space	n/a
266.333	0.12	532666	keystroke_a	a	n/a
266.558	0.12	533116	keystroke_r	r	n/a
266.738	0.135	533476	keystroke_a	a	n/a
266.903	0.075	533806	keystroke_b	b	n/a
267.113	0.12	534226	keystroke_i	i	n/a
267.218	0.165	534436	keystroke_a	a	n/a
267.488	0.075	534976	keystroke_Key.enter	Key.enter	n/a
267.567	7.723	535134	prompt	n/a	olympus merge equipment liberia\n
268.1775	0.105	536355	keystroke_o	o	n/a
268.4175	0.135	536835	keystroke_l	l	n/a
268.9125	0.135	537825	keystroke_u	u	n/a
269.453	0.105	538906	keystroke_Key.backspace	Key.backspace	n/a
269.5875	0.12	539175	keystroke_y	y	n/a
269.8275	0.135	539655	keystroke_m	m	n/a
270.0825	0.075	540165	keystroke_p	p	n/a
270.2925	0.15	540585	keystroke_u	u	n/a
270.5025	0.135	541005	keystroke_s	s	n/a
270.728	0.135	541456	keystroke_Key.space	Key.space	n/a
271.118	0.1345	542236	keystroke_m	m	n/a
271.2075	0.18	542415	keystroke_e	e	n/a
271.2975	0.15	542595	keystroke_r	r	n/a
271.6275	0.12	543255	keystroke_g	g	n/a
271.8225	0.12	543645	keystroke_e	e	n/a
271.9575	0.135	543915	keystroke_Key.space	Key.space	n/a
272.1075	0.06	544215	keystroke_e	e	n/a
272.3175	0.12	544635	keystroke_q	q	n/a
272.4075	0.195	544815	keystroke_u	u	n/a
272.5575	0.12	545115	keystroke_i	i	n/a
272.8275	0.075	545655	keystroke_p	p	n/a
273.0525	0.165	546105	keystroke_m	m	n/a
273.2025	0.09	546405	keystroke_e	e	n/a
273.3075	0.195	546615	keystroke_n	n	n/a
273.3975	0.12	546795	keystroke_t	t	n/a
273.5625	0.135	547125	keystroke_Key.space	Key.space	n/a
273.8175	0.21	547635	keystroke_l	l	n/a
273.9825	0.105	547965	keystroke_i	i	n/a
274.2075	0.165	548415	keystroke_b	b	n/a
274.3875	0.165	548775	keystroke_e	e	n/a
274.5075	0.1355	549015	keystroke_r	r	n/a
274.6575	0.165	549315	keystroke_i	i	n/a
274.8075	0.151	549615	keystroke_a	a	n/a
275.2125	0.075	550425	keystroke_Key.enter	Key.enter	n/a
275.3005	6.844	550601	prompt	n/a	critical dresses greetings tracker\n
276.0535	0.119	552107	keystroke_c	c	n/a
276.3075	0.105	552615	keystroke_r	r	n/a
276.3825	0.12	552765	keystroke_i	i	n/a
276.5325	0.12	553065	keystroke_t	t	n/a
276.6225	0.1355	553245	keystroke_i	i	n/a
276.953	0.12	553906	keystroke_c	c	n/a
277.178	0.165	554356	keystroke_a	a	n/a
277.328	0.15	554656	keystroke_l	l	n/a
277.463	0.15	554926	keystroke_Key.space	Key.space	n/a
277.688	0.15	555376	keystroke_d	d	n/a
277.973	0.165	555946	keystroke_r	r	n/a
278.078	0.135	556156	keystroke_e	e	n/a
278.318	0.105	556636	keystroke_s	s	n/a
278.543	0.09	557086	keystroke_s	s	n/a
278.693	0.195	557386	keystroke_e	e	n/a
278.873	0.12	557746	keystroke_s	s	n/a
279.008	0.1645	558016	keystroke_Key.space	Key.space	n/a
279.1875	0.12	558375	keystroke_g	g	n/a
279.4425	0.1655	558885	keystroke_r	r	n/a
279.578	0.105	559156	keystroke_e	e	n/a
279.773	0.1495	559546	keystroke_e	e	n/a
279.9235	0.0895	559847	keystroke_t	t	n/a
280.058	0.12	560116	keystroke_i	i	n/a
280.163	0.1955	560326	keystroke_n	n	n/a
280.2835	0.134	560567	keystroke_g	g	n/a
280.4935	0.15	560987	keystroke_s	s	n/a
280.5835	0.15	561167	keystroke_Key.space	Key.space	n/a
280.7935	0.105	561587	keystroke_t	t	n/a
281.0335	0.1195	562067	keystroke_r	r	n/a
281.228	0.105	562456	keystroke_a	a	n/a
281.4685	0.105	562937	keystroke_c	c	n/a
281.5585	0.135	563117	keystroke_k	k	n/a
281.7085	0.15	563417	keystroke_e	e	n/a
281.7985	0.165	563597	keystroke_r	r	n/a
282.0825	0.061	564165	keystroke_Key.enter	Key.enter	n/a
282.147	7.018	564294	prompt	n/a	traveller associates suffer sectors\n
282.7285	0.089	565457	keystroke_t	t	n/a
282.9085	0.119	565817	keystroke_r	r	n/a
283.0135	0.134	566027	keystroke_a	a	n/a
283.2685	0.134	566537	keystroke_v	v	n/a
283.4175	0.105	566835	keystroke_e	e	n/a
283.5375	0.075	567075	keystroke_l	l	n/a
283.7325	0.105	567465	keystroke_l	l	n/a
283.8225	0.135	567645	keystroke_e	e	n/a
283.9135	0.134	567827	keystroke_r	r	n/a
284.0625	0.15	568125	keystroke_Key.space	Key.space	n/a
284.1975	0.135	568395	keystroke_a	a	n/a
284.4375	0.105	568875	keystroke_s	s	n/a
284.6325	0.09	569265	keystroke_s	s	n/a
284.7525	0.12	569505	keystroke_o	o	n/a
284.9025	0.15	569805	keystroke_c	c	n/a
285.0075	0.15	570015	keystroke_i	i	n/a
285.1275	0.12	570255	keystroke_a	a	n/a
285.3675	0.135	570735	keystroke_t	t	n/a
285.5035	0.254	571007	keystroke_e	e	n/a
285.6825	0.105	571365	keystroke_s	s	n/a
285.8025	0.15	571605	keystroke_Key.space	Key.space	n/a
285.9825	0.105	571965	keystroke_s	s	n/a
286.0725	0.1505	572145	keystroke_u	u	n/a
286.238	0.09	572476	keystroke_f	f	n/a
286.388	0.105	572776	keystroke_f	f	n/a
286.583	0.165	573166	keystroke_e	e	n/a
286.718	0.12	573436	keystroke_r	r	n/a
286.853	0.1355	573706	keystroke_Key.space	Key.space	n/a
287.0185	0.195	574037	keystroke_s	s	n/a
287.1535	0.135	574307	keystroke_e	e	n/a
287.4235	0.119	574847	keystroke_c	c	n/a
287.6785	0.105	575357	keystroke_t	t	n/a
287.8125	0.136	575625	keystroke_o	o	n/a
287.9635	0.104	575927	keystroke_r	r	n/a
288.0835	0.134	576167	keystroke_i	i	n/a
288.2325	0.045	576465	keystroke_s	s	n/a
288.578	0.09	577156	keystroke_Key.backspace	Key.backspace	n/a
288.758	0.075	577516	keystroke_Key.backspace	Key.backspace	n/a
288.848	0.135	577696	keystroke_s	s	n/a
289.088	0.075	578176	keystroke_Key.enter	Key.enter	n/a
289.1755	8.374	578351	prompt	n/a	voices reactions sean negotiations\n
289.8235	0.135	579647	keystroke_v	v	n/a
290.138	0.15	580276	keystroke_o	o	n/a
290.543	0.12	581086	keystroke_i	i	n/a
290.813	0.105	581626	keystroke_c	c	n/a
291.113	0.195	582226	keystroke_e	e	n/a
291.263	0.15	582526	keystroke_s	s	n/a
291.473	0.135	582946	keystroke_Key.space	Key.space	n/a
291.818	0.135	583636	keystroke_r	r	n/a
291.908	0.105	583816	keystroke_e	e	n/a
292.163	0.06	584326	keystroke_a	a	n/a
292.4625	0.12	584925	keystroke_c	c	n/a
292.7175	0.135	585435	keystroke_t	t	n/a
292.8375	0.15	585675	keystroke_i	i	n/a
292.9885	0.149	585977	keystroke_o	o	n/a
293.0625	0.165	586125	keystroke_n	n	n/a
293.1825	0.165	586365	keystroke_s	s	n/a
293.3175	0.135	586635	keystroke_Key.space	Key.space	n/a
293.4975	0.135	586995	keystroke_s	s	n/a
293.6025	0.105	587205	keystroke_e	e	n/a
293.7825	0.15	587565	keystroke_a	a	n/a
293.9475	0.165	587895	keystroke_n	n	n/a
294.0975	0.135	588195	keystroke_Key.space	Key.space	n/a
294.3375	0.136	588675	keystroke_n	n	n/a
294.4735	0.119	588947	keystroke_e	e	n/a
294.8775	0.12	589755	keystroke_o	o	n/a
295.0875	0.075	590175	keystroke_g	g	n/a
295.3725	0.06	590745	keystroke_Key.backspace	Key.backspace	n/a
295.5235	0.059	591047	keystroke_Key.backspace	Key.backspace	n/a
295.6425	0.136	591285	keystroke_g	g	n/a
295.7925	0.15	591585	keystroke_o	o	n/a
295.9725	0.105	591945	keystroke_t	t	n/a
296.1375	0.135	592275	keystroke_i	i	n/a
296.4225	0.0905	592845	keystroke_a	a	n/a
296.573	0.135	593146	keystroke_t	t	n/a
296.693	0.1195	593386	keystroke_i	i	n/a
296.8275	0.135	593655	keystroke_o	o	n/a
296.8875	0.18	593775	keystroke_n	n	n/a
297.1425	0.15	594285	keystroke_s	s	n/a
297.4575	0.09	594915	keystroke_Key.enter	Key.enter	n/a
297.5595	4.7745	595119	prompt	n/a	cats coleman harm polish\n
298.2225	0.165	596445	keystroke_c	c	n/a
298.3575	0.105	596715	keystroke_a	a	n/a
298.5675	0.1355	597135	keystroke_t	t	n/a
298.703	0.18	597406	keystroke_s	s	n/a
298.868	0.12	597736	keystroke_Key.space	Key.space	n/a
299.003	0.165	598006	keystroke_c	c	n/a
299.108	0.09	598216	keystroke_o	o	n/a
299.318	0.105	598636	keystroke_l	l	n/a
299.483	0.12	598966	keystroke_e	e	n/a
299.573	0.15	599146	keystroke_m	m	n/a
299.783	0.135	599566	keystroke_a	a	n/a
299.873	0.1495	599746	keystroke_n	n	n/a
300.0825	0.135	600165	keystroke_Key.space	Key.space	n/a
300.3075	0.135	600615	keystroke_h	h	n/a
300.4575	0.09	600915	keystroke_a	a	n/a
300.6225	0.1505	601245	keystroke_r	r	n/a
300.728	0.165	601456	keystroke_m	m	n/a
300.908	0.15	601816	keystroke_Key.space	Key.space	n/a
301.073	0.165	602146	keystroke_p	p	n/a
301.193	0.15	602386	keystroke_o	o	n/a
301.493	0.225	602986	keystroke_l	l	n/a
301.643	0.15	603286	keystroke_i	i	n/a
301.853	0.15	603706	keystroke_s	s	n/a
301.958	0.12	603916	keystroke_h	h	n/a
302.273	0.06	604546	keystroke_Key.enter	Key.enter	n/a
302.337	6.793	604674	prompt	n/a	episodes modular rebel prospects\n
302.9025	0.09	605805	keystroke_e	e	n/a
303.2025	0.105	606405	keystroke_p	p	n/a
303.4725	0.12	606945	keystroke_i	i	n/a
303.6225	0.12	607245	keystroke_s	s	n/a
303.7875	0.12	607575	keystroke_o	o	n/a
303.9975	0.12	607995	keystroke_d	d	n/a
304.2825	0.241	608565	keystroke_e	e	n/a
304.4475	0.165	608895	keystroke_s	s	n/a
304.5975	0.1505	609195	keystroke_Key.space	Key.space	n/a
304.868	0.195	609736	keystroke_m	m	n/a
305.048	0.165	610096	keystroke_o	o	n/a
305.183	0.135	610366	keystroke_d	d	n/a
305.363	0.09	610726	keystroke_u	u	n/a
305.588	0.15	611176	keystroke_l	l	n/a
305.723	0.165	611446	keystroke_a	a	n/a
305.858	0.15	611716	keystroke_r	r	n/a
305.993	0.135	611986	keystroke_Key.space	Key.space	n/a
306.173	0.15	612346	keystroke_r	r	n/a
306.278	0.12	612556	keystroke_e	e	n/a
306.458	0.135	612916	keystroke_b	b	n/a
306.563	0.1355	613126	keystroke_e	e	n/a
306.7885	0.2245	613577	keystroke_l	l	n/a
306.998	0.165	613996	keystroke_Key.space	Key.space	n/a
307.193	0.165	614386	keystroke_p	p	n/a
307.343	0.12	614686	keystroke_r	r	n/a
307.448	0.15	614896	keystroke_o	o	n/a
307.733	0.15	615466	keystroke_s	s	n/a
308.003	0.12	616006	keystroke_p	p	n/a
308.108	0.09	616216	keystroke_e	e	n/a
308.348	0.12	616696	keystroke_c	c	n/a
308.603	0.0895	617206	keystroke_t	t	n/a
308.798	0.1505	617596	keystroke_s	s	n/a
309.068	0.06	618136	keystroke_Key.enter	Key.enter	n/a
309.1405	5.779	618281	prompt	n/a	vessels thinks fountain html\n
309.728	0.12	619456	keystroke_v	v	n/a
309.938	0.12	619876	keystroke_e	e	n/a
310.133	0.105	620266	keystroke_s	s	n/a
310.343	0.045	620686	keystroke_s	s	n/a
310.553	0.105	621106	keystroke_e	e	n/a
310.733	0.15	621466	keystroke_l	l	n/a
310.853	0.15	621706	keystroke_s	s	n/a
311.048	0.135	622096	keystroke_Key.space	Key.space	n/a
311.198	0.12	622396	keystroke_t	t	n/a
311.318	0.135	622636	keystroke_h	h	n/a
311.438	0.135	622876	keystroke_i	i	n/a
311.558	0.21	623116	keystroke_n	n	n/a
311.738	0.1495	623476	keystroke_k	k	n/a
311.858	0.1795	623716	keystroke_s	s	n/a
312.023	0.1345	624046	keystroke_Key.space	Key.space	n/a
312.188	0.1345	624376	keystroke_f	f	n/a
312.3075	0.165	624615	keystroke_o	o	n/a
312.4575	0.1805	624915	keystroke_u	u	n/a
312.6075	0.196	625215	keystroke_n	n	n/a
312.938	0.105	625876	keystroke_t	t	n/a
313.268	0.1345	626536	keystroke_a	a	n/a
313.3875	0.1355	626775	keystroke_i	i	n/a
313.493	0.1945	626986	keystroke_n	n	n/a
313.673	0.15	627346	keystroke_Key.space	Key.space	n/a
313.868	0.1505	627736	keystroke_h	h	n/a
314.1535	0.12	628307	keystroke_t	t	n/a
314.4085	0.149	628817	keystroke_m	m	n/a
314.5585	0.119	629117	keystroke_l	l	n/a
314.8575	0.06	629715	keystroke_Key.enter	Key.enter	n/a
314.922	7.873	629844	prompt	n/a	layout minus horizontal median\n
315.6075	0.135	631215	keystroke_l	l	n/a
315.6825	0.105	631365	keystroke_a	a	n/a
315.9525	0.0905	631905	keystroke_y	y	n/a
316.073	0.18	632146	keystroke_o	o	n/a
316.178	0.165	632356	keystroke_u	u	n/a
316.313	0.135	632626	keystroke_t	t	n/a
316.463	0.135	632926	keystroke_Key.space	Key.space	n/a
316.793	0.045	633586	keystroke_m	m	n/a
317.048	0.09	634096	keystroke_i	i	n/a
317.288	0.075	634576	keystroke_u	u	n/a
317.738	0.075	635476	keystroke_Key.backspace	Key.backspace	n/a
317.993	0.135	635986	keystroke_n	n	n/a
318.218	0.12	636436	keystroke_u	u	n/a
318.368	0.15	636736	keystroke_s	s	n/a
318.578	0.15	637156	keystroke_Key.space	Key.space	n/a
318.893	0.105	637786	keystroke_h	h	n/a
319.103	0.1805	638206	keystroke_o	o	n/a
319.2685	0.1045	638537	keystroke_r	r	n/a
319.448	0.135	638896	keystroke_i	i	n/a
319.613	0.165	639226	keystroke_z	z	n/a
319.793	0.15	639586	keystroke_o	o	n/a
319.868	0.1795	639736	keystroke_n	n	n/a
320.0325	0.105	640065	keystroke_t	t	n/a
320.1985	0.164	640397	keystroke_a	a	n/a
320.3325	0.15	640665	keystroke_l	l	n/a
320.4675	0.12	640935	keystroke_Key.space	Key.space	n/a
320.6325	0.181	641265	keystroke_m	m	n/a
320.7825	0.076	641565	keystroke_e	e	n/a
320.9775	0.136	641955	keystroke_d	d	n/a
321.1275	0.105	642255	keystroke_i	i	n/a
321.3225	0.121	642645	keystroke_a	a	n/a
321.4275	0.09	642855	keystroke_m	m	n/a
322.103	0.09	644206	keystroke_Key.backspace	Key.backspace	n/a
322.388	0.105	644776	keystroke_n	n	n/a
322.7175	0.075	645435	keystroke_Key.enter	Key.enter	n/a
322.8055	9.0045	645611	prompt	n/a	mathematical imperial areas objects\n
323.4225	0.18	646845	keystroke_m	m	n/a
323.5575	0.075	647115	keystroke_a	a	n/a
323.7535	0.09	647507	keystroke_t	t	n/a
324.6075	0.121	649215	keystroke_h	h	n/a
324.8325	0.151	649665	keystroke_e	e	n/a
324.9385	0.119	649877	keystroke_r	r	n/a
325.3275	0.105	650655	keystroke_Key.backspace	Key.backspace	n/a
325.9275	0.135	651855	keystroke_m	m	n/a
326.0925	0.09	652185	keystroke_a	a	n/a
326.2875	0.105	652575	keystroke_t	t	n/a
326.4225	0.135	652845	keystroke_i	i	n/a
326.5875	0.12	653175	keystroke_c	c	n/a
326.7675	0.1805	653535	keystroke_a	a	n/a
326.8725	0.1355	653745	keystroke_l	l	n/a
326.978	0.165	653956	keystroke_Key.space	Key.space	n/a
327.128	0.15	654256	keystroke_i	i	n/a
327.263	0.15	654526	keystroke_m	m	n/a
327.458	0.135	654916	keystroke_p	p	n/a
327.743	0.03	655486	keystroke_e	e	n/a
328.088	0.105	656176	keystroke_r	r	n/a
328.253	0.15	656506	keystroke_i	i	n/a
328.493	0.12	656986	keystroke_a	a	n/a
328.7035	0.135	657407	keystroke_l	l	n/a
328.8535	0.15	657707	keystroke_Key.space	Key.space	n/a
329.1235	0.1195	658247	keystroke_a	a	n/a
329.303	0.1805	658606	keystroke_r	r	n/a
329.423	0.1055	658846	keystroke_e	e	n/a
329.6335	0.15	659267	keystroke_a	a	n/a
329.9775	0.151	659955	keystroke_s	s	n/a
330.2175	0.12	660435	keystroke_Key.space	Key.space	n/a
330.3825	0.091	660765	keystroke_o	o	n/a
330.5935	0.12	661187	keystroke_b	b	n/a
330.803	0.12	661606	keystroke_j	j	n/a
330.8635	0.0745	661727	keystroke_e	e	n/a
331.088	0.105	662176	keystroke_c	c	n/a
331.328	0.09	662656	keystroke_t	t	n/a
331.523	0.12	663046	keystroke_s	s	n/a
331.718	0.09	663436	keystroke_Key.enter	Key.enter	n/a
331.823	7.562	663646	prompt	n/a	hugh such biological browsers\n
332.423	0.18	664846	keystroke_h	h	n/a
332.633	0.0295	665266	keystroke_u	u	n/a
333.0225	0.12	666045	keystroke_g	g	n/a
333.1575	0.105	666315	keystroke_h	h	n/a
333.4125	0.105	666825	keystroke_Key.space	Key.space	n/a
333.5775	0.15	667155	keystroke_s	s	n/a
333.7285	0.119	667457	keystroke_u	u	n/a
333.8775	0.15	667755	keystroke_c	c	n/a
333.9975	0.195	667995	keystroke_h	h	n/a
334.1935	0.119	668387	keystroke_Key.space	Key.space	n/a
334.4325	0.105	668865	keystroke_b	b	n/a
334.658	0.195	669316	keystroke_u	u	n/a
334.868	0.015	669736	keystroke_i	i	n/a
335.423	0.075	670846	keystroke_Key.backspace	Key.backspace	n/a
335.588	0.045	671176	keystroke_Key.backspace	Key.backspace	n/a
335.813	0.21	671626	keystroke_i	i	n/a
335.993	0.105	671986	keystroke_o	o	n/a
336.233	0.15	672466	keystroke_l	l	n/a
336.353	0.135	672706	keystroke_o	o	n/a
336.473	0.12	672946	keystroke_g	g	n/a
336.608	0.1345	673216	keystroke_i	i	n/a
336.8925	0.12	673785	keystroke_c	c	n/a
337.2225	0.03	674445	keystroke_a	a	n/a
337.2375	0.105	674475	keystroke_l	l	n/a
337.3125	0.15	674625	keystroke_Key.space	Key.space	n/a
337.5075	0.12	675015	keystroke_b	b	n/a
337.6425	0.121	675285	keystroke_r	r	n/a
337.8375	0.135	675675	keystroke_o	o	n/a
338.1075	0.09	676215	keystroke_w	w	n/a
338.5125	0.15	677025	keystroke_s	s	n/a
338.6175	0.1655	677235	keystroke_e	e	n/a
338.888	0.12	677776	keystroke_r	r	n/a
339.098	0.105	678196	keystroke_s	s	n/a
339.338	0.045	678676	keystroke_Key.enter	Key.enter	n/a
339.3955	9.38	678791	prompt	n/a	angels examine peripherals bibliography\n
339.9985	0.134	679997	keystroke_a	a	n/a
340.1485	0.119	680297	keystroke_n	n	n/a
340.3275	0.105	680655	keystroke_g	g	n/a
340.5375	0.09	681075	keystroke_e	e	n/a
340.6125	0.136	681225	keystroke_l	l	n/a
340.7925	0.15	681585	keystroke_s	s	n/a
340.9275	0.151	681855	keystroke_Key.space	Key.space	n/a
341.0935	0.09	682187	keystroke_e	e	n/a
341.3635	0.09	682727	keystroke_x	x	n/a
341.5885	0.12	683177	keystroke_a	a	n/a
341.6935	0.119	683387	keystroke_m	m	n/a
341.9625	0.1655	683925	keystroke_i	i	n/a
342.098	0.18	684196	keystroke_n	n	n/a
342.263	0.12	684526	keystroke_e	e	n/a
342.398	0.135	684796	keystroke_Key.space	Key.space	n/a
342.578	0.1345	685156	keystroke_p	p	n/a
342.8325	0.12	685665	keystroke_e	e	n/a
342.9825	0.15	685965	keystroke_r	r	n/a
343.2075	0.12	686415	keystroke_i	i	n/a
343.4475	0.12	686895	keystroke_p	p	n/a
343.7175	0.12	687435	keystroke_h	h	n/a
343.9875	0.165	687975	keystroke_e	e	n/a
344.1375	0.135	688275	keystroke_r	r	n/a
344.3025	0.15	688605	keystroke_a	a	n/a
344.4375	0.165	688875	keystroke_l	l	n/a
344.6335	0.15	689267	keystroke_s	s	n/a
344.798	0.135	689596	keystroke_Key.space	Key.space	n/a
345.0525	0.09	690105	keystroke_b	b	n/a
345.5185	0.1195	691037	keystroke_i	i	n/a
345.683	0.135	691366	keystroke_b	b	n/a
346.043	0.105	692086	keystroke_l	l	n/a
346.193	0.2245	692386	keystroke_i	i	n/a
346.4035	0.1495	692807	keystroke_o	o	n/a
346.568	0.12	693136	keystroke_g	g	n/a
346.9285	0.09	693857	keystroke_a	a	n/a
347.2435	0.105	694487	keystroke_r	r	n/a
347.5585	0.0595	695117	keystroke_Key.backspace	Key.backspace	n/a
347.723	0.06	695446	keystroke_Key.backspace	Key.backspace	n/a
347.798	0.09	695596	keystroke_r	r	n/a
347.948	0.15	695896	keystroke_a	a	n/a
348.143	0.075	696286	keystroke_p	p	n/a
348.3085	0.105	696617	keystroke_h	h	n/a
348.4435	0.105	696887	keystroke_y	y	n/a
348.6985	0.075	697397	keystroke_Key.enter	Key.enter	n/a
348.7865	6.213	697573	prompt	n/a	ericsson start cars saint\n
349.5685	0.2095	699137	keystroke_e	e	n/a
349.7185	0.1195	699437	keystroke_r	r	n/a
349.868	0.1495	699736	keystroke_i	i	n/a
350.033	0.135	700066	keystroke_c	c	n/a
350.243	0.1345	700486	keystroke_s	s	n/a
350.633	0.1195	701266	keystroke_s	s	n/a
350.7825	0.165	701565	keystroke_o	o	n/a
350.8575	0.1955	701715	keystroke_n	n	n/a
351.038	0.15	702076	keystroke_Key.space	Key.space	n/a
351.143	0.105	702286	keystroke_s	s	n/a
351.308	0.1205	702616	keystroke_t	t	n/a
351.4875	0.196	702975	keystroke_a	a	n/a
351.6235	0.09	703247	keystroke_r	r	n/a
351.8185	0.105	703637	keystroke_t	t	n/a
351.9385	0.165	703877	keystroke_Key.space	Key.space	n/a
352.1335	0.135	704267	keystroke_c	c	n/a
352.2985	0.119	704597	keystroke_a	a	n/a
352.5075	0.091	705015	keystroke_r	r	n/a
352.7175	0.12	705435	keystroke_s	s	n/a
352.8075	0.1505	705615	keystroke_Key.space	Key.space	n/a
352.973	0.075	705946	keystroke_s	s	n/a
353.153	0.105	706306	keystroke_a	a	n/a
353.243	0.105	706486	keystroke_i	i	n/a
353.543	0.12	707086	keystroke_t	t	n/a
353.678	0.12	707356	keystroke_n	n	n/a
354.1585	0.075	708317	keystroke_Key.backspace	Key.backspace	n/a
354.3235	0.045	708647	keystroke_Key.backspace	Key.backspace	n/a
354.578	0.105	709156	keystroke_n	n	n/a
354.653	0.105	709306	keystroke_t	t	n/a
354.953	0.045	709906	keystroke_Key.enter	Key.enter	n/a
355.011	5.7635	710022	prompt	n/a	dana demo municipal fact\n
355.5985	0.09	711197	keystroke_d	d	n/a
355.7785	0.12	711557	keystroke_a	a	n/a
355.8685	0.15	711737	keystroke_n	n	n/a
356.1085	0.15	712217	keystroke_a	a	n/a
356.2735	0.135	712547	keystroke_Key.space	Key.space	n/a
356.4985	0.12	712997	keystroke_d	d	n/a
356.7385	0.105	713477	keystroke_e	e	n/a
356.8585	0.135	713717	keystroke_m	m	n/a
357.1285	0.105	714257	keystroke_o	o	n/a
357.2935	0.15	714587	keystroke_Key.space	Key.space	n/a
357.6385	0.09	715277	keystroke_m	m	n/a
358.0285	0.09	716057	keystroke_u	u	n/a
358.2835	0.09	716567	keystroke_m	m	n/a
358.5385	0.105	717077	keystroke_i	i	n/a
358.8225	0.12	717645	keystroke_c	c	n/a
358.8825	0.105	717765	keystroke_i	i	n/a
359.108	0.1205	718216	keystroke_p	p	n/a
359.2435	0.15	718487	keystroke_a	a	n/a
359.3785	0.194	718757	keystroke_l	l	n/a
359.5585	0.164	719117	keystroke_Key.space	Key.space	n/a
359.7375	0.076	719475	keystroke_f	f	n/a
359.9025	0.1205	719805	keystroke_a	a	n/a
360.158	0.09	720316	keystroke_c	c	n/a
360.428	0.1055	720856	keystroke_t	t	n/a
360.713	0.0595	721426	keystroke_Key.enter	Key.enter	n/a
360.777	6.058	721554	prompt	n/a	positive marion brochure tions\n
361.343	0.135	722686	keystroke_p	p	n/a
361.478	0.12	722956	keystroke_o	o	n/a
361.658	0.105	723316	keystroke_s	s	n/a
361.778	0.105	723556	keystroke_i	i	n/a
361.928	0.09	723856	keystroke_t	t	n/a
362.048	0.12	724096	keystroke_i	i	n/a
362.213	0.105	724426	keystroke_v	v	n/a
362.378	0.12	724756	keystroke_e	e	n/a
362.468	0.135	724936	keystroke_Key.space	Key.space	n/a
362.663	0.1505	725326	keystroke_m	m	n/a
362.7985	0.135	725597	keystroke_a	a	n/a
362.9035	0.15	725807	keystroke_r	r	n/a
363.0235	0.195	726047	keystroke_i	i	n/a
363.2035	0.1945	726407	keystroke_o	o	n/a
363.338	0.2105	726676	keystroke_n	n	n/a
363.5335	0.165	727067	keystroke_Key.space	Key.space	n/a
363.7585	0.165	727517	keystroke_b	b	n/a
363.9385	0.105	727877	keystroke_r	r	n/a
364.1485	0.06	728297	keystroke_a	a	n/a
364.5685	0.074	729137	keystroke_Key.backspace	Key.backspace	n/a
364.8235	0.12	729647	keystroke_o	o	n/a
364.9885	0.135	729977	keystroke_c	c	n/a
365.0785	0.105	730157	keystroke_h	h	n/a
365.3185	0.135	730637	keystroke_u	u	n/a
365.4385	0.09	730877	keystroke_r	r	n/a
365.648	0.135	731296	keystroke_e	e	n/a
365.813	0.105	731626	keystroke_Key.space	Key.space	n/a
365.993	0.12	731986	keystroke_t	t	n/a
366.083	0.165	732166	keystroke_i	i	n/a
366.233	0.165	732466	keystroke_o	o	n/a
366.338	0.15	732676	keystroke_n	n	n/a
366.503	0.15	733006	keystroke_s	s	n/a
366.758	0.075	733516	keystroke_Key.enter	Key.enter	n/a
366.838	6.1915	733676	prompt	n/a	naked sentence christopher tell\n
367.523	0.09	735046	keystroke_n	n	n/a
367.628	0.105	735256	keystroke_a	a	n/a
367.793	0.165	735586	keystroke_k	k	n/a
367.973	0.075	735946	keystroke_e	e	n/a
368.183	0.12	736366	keystroke_d	d	n/a
368.363	0.12	736726	keystroke_Key.space	Key.space	n/a
368.498	0.15	736996	keystroke_s	s	n/a
368.7235	0.089	737447	keystroke_e	e	n/a
368.8425	0.105	737685	keystroke_n	n	n/a
369.0825	0.105	738165	keystroke_t	t	n/a
369.3085	0.119	738617	keystroke_e	e	n/a
369.4435	0.135	738887	keystroke_n	n	n/a
369.6085	0.15	739217	keystroke_c	c	n/a
369.7585	0.15	739517	keystroke_e	e	n/a
369.9375	0.105	739875	keystroke_Key.space	Key.space	n/a
370.2375	0.121	740475	keystroke_c	c	n/a
370.3285	0.135	740657	keystroke_h	h	n/a
370.5085	0.104	741017	keystroke_r	r	n/a
370.6585	0.135	741317	keystroke_i	i	n/a
370.8075	0.106	741615	keystroke_s	s	n/a
371.003	0.12	742006	keystroke_t	t	n/a
371.168	0.21	742336	keystroke_o	o	n/a
371.393	0.09	742786	keystroke_p	p	n/a
371.5885	0.1495	743177	keystroke_h	h	n/a
371.7235	0.1645	743447	keystroke_e	e	n/a
371.9035	0.1195	743807	keystroke_r	r	n/a
372.0835	0.1195	744167	keystroke_Key.space	Key.space	n/a
372.188	0.105	744376	keystroke_t	t	n/a
372.368	0.15	744736	keystroke_e	e	n/a
372.488	0.09	744976	keystroke_l	l	n/a
372.653	0.1055	745306	keystroke_l	l	n/a
372.938	0.09	745876	keystroke_Key.enter	Key.enter	n/a
373.032	6.4625	746064	prompt	n/a	intense individual cross actual\n
373.613	0.09	747226	keystroke_i	i	n/a
373.793	0.12	747586	keystroke_n	n	n/a
373.883	0.09	747766	keystroke_t	t	n/a
374.078	0.0905	748156	keystroke_e	e	n/a
374.1835	0.135	748367	keystroke_n	n	n/a
374.4235	0.18	748847	keystroke_s	s	n/a
374.5285	0.15	749057	keystroke_e	e	n/a
374.7085	0.134	749417	keystroke_Key.space	Key.space	n/a
374.8285	0.165	749657	keystroke_i	i	n/a
374.9635	0.135	749927	keystroke_n	n	n/a
375.0985	0.15	750197	keystroke_d	d	n/a
375.2335	0.12	750467	keystroke_i	i	n/a
375.3985	0.1195	750797	keystroke_v	v	n/a
375.473	0.12	750946	keystroke_i	i	n/a
375.728	0.105	751456	keystroke_u	u	n/a
376.283	0.06	752566	keystroke_Key.backspace	Key.backspace	n/a
376.3885	0.1195	752777	keystroke_d	d	n/a
376.673	0.0905	753346	keystroke_u	u	n/a
376.838	0.105	753676	keystroke_a	a	n/a
376.958	0.165	753916	keystroke_l	l	n/a
377.138	0.165	754276	keystroke_Key.space	Key.space	n/a
377.318	0.12	754636	keystroke_c	c	n/a
377.588	0.105	755176	keystroke_r	r	n/a
377.694	0.119	755388	keystroke_o	o	n/a
377.828	0.12	755656	keystroke_s	s	n/a
378.038	0.06	756076	keystroke_s	s	n/a
378.128	0.135	756256	keystroke_Key.space	Key.space	n/a
378.233	0.106	756466	keystroke_a	a	n/a
378.458	0.105	756916	keystroke_c	c	n/a
378.698	0.105	757396	keystroke_t	t	n/a
378.818	0.105	757636	keystroke_u	u	n/a
378.968	0.165	757936	keystroke_a	a	n/a
379.088	0.135	758176	keystroke_l	l	n/a
379.418	0.075	758836	keystroke_Key.enter	Key.enter	n/a
379.4985	9.702	758997	prompt	n/a	undefined depth returning catalyst\n
380.123	0.105	760246	keystroke_u	u	n/a
380.393	0.12	760786	keystroke_n	n	n/a
380.618	0.075	761236	keystroke_e	e	n/a
381.3535	0.09	762707	keystroke_Key.backspace	Key.backspace	n/a
381.4435	0.105	762887	keystroke_d	d	n/a
381.7285	0.15	763457	keystroke_e	e	n/a
382.1935	0.075	764387	keystroke_i	i	n/a
382.5685	0.075	765137	keystroke_Key.backspace	Key.backspace	n/a
382.6585	0.135	765317	keystroke_f	f	n/a
382.9885	0.09	765977	keystroke_i	i	n/a
383.1235	0.1795	766247	keystroke_n	n	n/a
383.318	0.105	766636	keystroke_e	e	n/a
383.558	0.12	767116	keystroke_d	d	n/a
383.768	0.15	767536	keystroke_Key.space	Key.space	n/a
384.098	0.09	768196	keystroke_d	d	n/a
384.323	0.105	768646	keystroke_e	e	n/a
384.443	0.09	768886	keystroke_p	p	n/a
384.848	0.075	769696	keystroke_h	h	n/a
385.313	0.075	770626	keystroke_Key.backspace	Key.backspace	n/a
385.433	0.105	770866	keystroke_t	t	n/a
385.613	0.15	771226	keystroke_h	h	n/a
385.793	0.12	771586	keystroke_Key.space	Key.space	n/a
385.974	0.149	771948	keystroke_r	r	n/a
386.1085	0.135	772217	keystroke_e	e	n/a
386.3185	0.1055	772637	keystroke_t	t	n/a
386.408	0.105	772816	keystroke_u	u	n/a
386.544	0.119	773088	keystroke_r	r	n/a
386.648	0.12	773296	keystroke_n	n	n/a
386.858	0.166	773716	keystroke_i	i	n/a
386.993	0.21	773986	keystroke_n	n	n/a
387.173	0.12	774346	keystroke_g	g	n/a
387.308	0.15	774616	keystroke_Key.space	Key.space	n/a
387.518	0.12	775036	keystroke_c	c	n/a
387.653	0.105	775306	keystroke_a	a	n/a
387.863	0.105	775726	keystroke_t	t	n/a
387.953	0.15	775906	keystroke_a	a	n/a
388.2225	0.1505	776445	keystroke_l	l	n/a
388.403	0.105	776806	keystroke_y	y	n/a
388.6435	0.12	777287	keystroke_s	s	n/a
388.8535	0.075	777707	keystroke_t	t	n/a
389.1235	0.075	778247	keystroke_Key.enter	Key.enter	n/a
389.2125	6.3475	778425	prompt	n/a	parameter other annotated manchester\n
389.7985	0.105	779597	keystroke_p	p	n/a
389.9485	0.12	779897	keystroke_a	a	n/a
390.0985	0.165	780197	keystroke_r	r	n/a
390.2485	0.135	780497	keystroke_a	a	n/a
390.3685	0.1505	780737	keystroke_m	m	n/a
390.533	0.106	781066	keystroke_e	e	n/a
390.6985	0.135	781397	keystroke_t	t	n/a
390.9235	0.18	781847	keystroke_e	e	n/a
391.0285	0.135	782057	keystroke_r	r	n/a
391.1785	0.135	782357	keystroke_Key.space	Key.space	n/a
391.2835	0.1645	782567	keystroke_o	o	n/a
391.3885	0.1195	782777	keystroke_t	t	n/a
391.538	0.15	783076	keystroke_h	h	n/a
391.673	0.18	783346	keystroke_e	e	n/a
391.793	0.1355	783586	keystroke_r	r	n/a
391.8835	0.1355	783767	keystroke_Key.space	Key.space	n/a
392.048	0.15	784096	keystroke_a	a	n/a
392.274	0.09	784548	keystroke_n	n	n/a
392.439	0.105	784878	keystroke_n	n	n/a
392.648	0.12	785296	keystroke_o	o	n/a
392.873	0.09	785746	keystroke_t	t	n/a
393.023	0.211	786046	keystroke_a	a	n/a
393.218	0.0905	786436	keystroke_t	t	n/a
393.3685	0.12	786737	keystroke_e	e	n/a
393.5785	0.12	787157	keystroke_d	d	n/a
393.7285	0.105	787457	keystroke_Key.space	Key.space	n/a
393.9235	0.135	787847	keystroke_m	m	n/a
394.0285	0.12	788057	keystroke_a	a	n/a
394.1635	0.135	788327	keystroke_n	n	n/a
394.3585	0.135	788717	keystroke_c	c	n/a
394.4785	0.105	788957	keystroke_h	h	n/a
394.6885	0.195	789377	keystroke_e	e	n/a
394.8385	0.165	789677	keystroke_s	s	n/a
394.9435	0.135	789887	keystroke_t	t	n/a
395.1235	0.1945	790247	keystroke_e	e	n/a
395.2585	0.1505	790517	keystroke_r	r	n/a
395.469	0.089	790938	keystroke_Key.enter	Key.enter	n/a
395.5625	4.9025	791125	prompt	n/a	showed customer cloth tubes\n
396.1585	0.135	792317	keystroke_s	s	n/a
396.2635	0.12	792527	keystroke_h	h	n/a
396.4135	0.15	792827	keystroke_o	o	n/a
396.5185	0.09	793037	keystroke_w	w	n/a
396.728	0.075	793456	keystroke_e	e	n/a
396.923	0.135	793846	keystroke_d	d	n/a
397.103	0.12	794206	keystroke_Key.space	Key.space	n/a
397.388	0.12	794776	keystroke_c	c	n/a
397.478	0.105	794956	keystroke_u	u	n/a
397.583	0.225	795166	keystroke_s	s	n/a
397.733	0.12	795466	keystroke_t	t	n/a
397.868	0.15	795736	keystroke_o	o	n/a
397.958	0.195	795916	keystroke_m	m	n/a
398.108	0.12	796216	keystroke_e	e	n/a
398.183	0.12	796366	keystroke_r	r	n/a
398.273	0.15	796546	keystroke_Key.space	Key.space	n/a
398.483	0.135	796966	keystroke_c	c	n/a
398.573	0.1805	797146	keystroke_l	l	n/a
398.7085	0.15	797417	keystroke_o	o	n/a
398.9635	0.12	797927	keystroke_t	t	n/a
399.0685	0.165	798137	keystroke_h	h	n/a
399.2635	0.12	798527	keystroke_Key.space	Key.space	n/a
399.4885	0.105	798977	keystroke_t	t	n/a
399.5935	0.12	799187	keystroke_u	u	n/a
399.7735	0.15	799547	keystroke_b	b	n/a
399.9385	0.0895	799877	keystroke_e	e	n/a
400.148	0.12	800296	keystroke_s	s	n/a
400.373	0.09	800746	keystroke_Key.enter	Key.enter	n/a
400.4695	5.935	800939	prompt	n/a	stories penny bones freebsd\n
400.9735	0.105	801947	keystroke_s	s	n/a
401.2285	0.12	802457	keystroke_t	t	n/a
401.3785	0.12	802757	keystroke_o	o	n/a
401.4985	0.195	802997	keystroke_r	r	n/a
401.6935	0.0755	803387	keystroke_e	e	n/a
402.099	0.0595	804198	keystroke_Key.backspace	Key.backspace	n/a
402.339	0.135	804678	keystroke_i	i	n/a
402.4585	0.21	804917	keystroke_e	e	n/a
402.6235	0.135	805247	keystroke_s	s	n/a
402.7285	0.1505	805457	keystroke_Key.space	Key.space	n/a
402.9835	0.1055	805967	keystroke_p	p	n/a
403.1785	0.105	806357	keystroke_e	e	n/a
403.2835	0.09	806567	keystroke_n	n	n/a
403.4485	0.21	806897	keystroke_n	n	n/a
403.6435	0.045	807287	keystroke_y	y	n/a
403.6735	0.09	807347	keystroke_Key.space	Key.space	n/a
403.8085	0.1945	807617	keystroke_b	b	n/a
404.019	0.21	808038	keystroke_o	o	n/a
404.213	0.075	808426	keystroke_n	n	n/a
404.334	0.149	808668	keystroke_e	e	n/a
404.528	0.15	809056	keystroke_s	s	n/a
404.693	0.09	809386	keystroke_Key.space	Key.space	n/a
404.813	0.181	809626	keystroke_f	f	n/a
405.173	0.091	810346	keystroke_r	r	n/a
405.323	0.121	810646	keystroke_e	e	n/a
405.548	0.076	811096	keystroke_e	e	n/a
405.699	0.21	811398	keystroke_b	b	n/a
405.893	0.076	811786	keystroke_s	s	n/a
406.029	0.1645	812058	keystroke_d	d	n/a
406.388	0.015	812776	keystroke_Key.enter	Key.enter	n/a
406.409	6.8815	812818	prompt	n/a	shooting corporations radar acquire\n
407.018	0.15	814036	keystroke_s	s	n/a
407.153	0.105	814306	keystroke_h	h	n/a
407.273	0.12	814546	keystroke_o	o	n/a
407.468	0.09	814936	keystroke_o	o	n/a
407.573	0.075	815146	keystroke_t	t	n/a
407.693	0.1205	815386	keystroke_i	i	n/a
407.7535	0.195	815507	keystroke_n	n	n/a
407.9185	0.1195	815837	keystroke_g	g	n/a
408.038	0.18	816076	keystroke_Key.space	Key.space	n/a
408.2485	0.12	816497	keystroke_c	c	n/a
408.3085	0.1345	816617	keystroke_o	o	n/a
408.5185	0.09	817037	keystroke_r	r	n/a
408.6235	0.18	817247	keystroke_p	p	n/a
408.7885	0.135	817577	keystroke_o	o	n/a
408.9085	0.105	817817	keystroke_r	r	n/a
409.1035	0.135	818207	keystroke_a	a	n/a
409.3885	0.09	818777	keystroke_t	t	n/a
409.4335	0.12	818867	keystroke_i	i	n/a
409.5385	0.165	819077	keystroke_o	o	n/a
409.6135	0.195	819227	keystroke_n	n	n/a
409.7935	0.1945	819587	keystroke_s	s	n/a
410.003	0.18	820006	keystroke_Key.space	Key.space	n/a
410.213	0.12	820426	keystroke_r	r	n/a
410.363	0.1955	820726	keystroke_a	a	n/a
410.5735	0.15	821147	keystroke_d	d	n/a
410.7385	0.09	821477	keystroke_o	o	n/a
411.128	0.09	822256	keystroke_Key.backspace	Key.backspace	n/a
411.263	0.12	822526	keystroke_a	a	n/a
411.533	0.075	823066	keystroke_r	r	n/a
411.638	0.15	823276	keystroke_Key.space	Key.space	n/a
411.788	0.15	823576	keystroke_a	a	n/a
412.2835	0.0895	824567	keystroke_c	c	n/a
412.478	0.105	824956	keystroke_q	q	n/a
412.599	0.12	825198	keystroke_u	u	n/a
412.688	0.2255	825376	keystroke_i	i	n/a
412.898	0.1055	825796	keystroke_r	r	n/a
412.958	0.135	825916	keystroke_e	e	n/a
413.258	0.0295	826516	keystroke_Key.enter	Key.enter	n/a
413.301	5.8685	826602	prompt	n/a	checkout civic katie zimbabwe\n
413.9485	0.1345	827897	keystroke_c	c	n/a
414.113	0.09	828226	keystroke_h	h	n/a
414.188	0.09	828376	keystroke_e	e	n/a
414.413	0.105	828826	keystroke_c	c	n/a
414.458	0.135	828916	keystroke_k	k	n/a
414.713	0.165	829426	keystroke_o	o	n/a
414.848	0.135	829696	keystroke_u	u	n/a
414.998	0.12	829996	keystroke_t	t	n/a
415.223	0.12	830446	keystroke_Key.space	Key.space	n/a
415.493	0.09	830986	keystroke_c	c	n/a
415.598	0.105	831196	keystroke_i	i	n/a
415.748	0.105	831496	keystroke_v	v	n/a
415.868	0.12	831736	keystroke_i	i	n/a
416.0785	0.12	832157	keystroke_c	c	n/a
416.2435	0.12	832487	keystroke_Key.space	Key.space	n/a
416.513	0.165	833026	keystroke_k	k	n/a
416.618	0.09	833236	keystroke_a	a	n/a
416.798	0.135	833596	keystroke_t	t	n/a
416.963	0.135	833926	keystroke_i	i	n/a
417.143	0.105	834286	keystroke_e	e	n/a
417.308	0.12	834616	keystroke_Key.space	Key.space	n/a
417.563	0.12	835126	keystroke_z	z	n/a
417.713	0.165	835426	keystroke_i	i	n/a
417.833	0.135	835666	keystroke_m	m	n/a
418.088	0.1505	836176	keystroke_b	b	n/a
418.298	0.12	836596	keystroke_a	a	n/a
418.433	0.1205	836866	keystroke_b	b	n/a
418.7325	0.15	837465	keystroke_w	w	n/a
418.8385	0.135	837677	keystroke_e	e	n/a
419.0925	0.075	838185	keystroke_Key.enter	Key.enter	n/a
419.1735	6.221	838347	prompt	n/a	absolutely stereo machine broader\n
419.7235	0.15	839447	keystroke_a	a	n/a
419.8585	0.105	839717	keystroke_b	b	n/a
420.0235	0.135	840047	keystroke_s	s	n/a
420.1435	0.135	840287	keystroke_o	o	n/a
420.4135	0.09	840827	keystroke_l	l	n/a
420.6235	0.1195	841247	keystroke_u	u	n/a
420.998	0.105	841996	keystroke_t	t	n/a
421.178	0.15	842356	keystroke_e	e	n/a
421.313	0.1655	842626	keystroke_l	l	n/a
421.4485	0.12	842897	keystroke_y	y	n/a
421.5835	0.165	843167	keystroke_Key.space	Key.space	n/a
421.7635	0.1645	843527	keystroke_s	s	n/a
421.913	0.105	843826	keystroke_t	t	n/a
422.093	0.1805	844186	keystroke_e	e	n/a
422.228	0.15	844456	keystroke_r	r	n/a
422.408	0.15	844816	keystroke_e	e	n/a
422.618	0.1655	845236	keystroke_o	o	n/a
422.7985	0.135	845597	keystroke_Key.space	Key.space	n/a
423.053	0.15	846106	keystroke_m	m	n/a
423.113	0.135	846226	keystroke_a	a	n/a
423.353	0.15	846706	keystroke_c	c	n/a
423.428	0.135	846856	keystroke_h	h	n/a
423.578	0.15	847156	keystroke_i	i	n/a
423.683	0.195	847366	keystroke_n	n	n/a
423.863	0.105	847726	keystroke_e	e	n/a
423.9985	0.1345	847997	keystroke_Key.space	Key.space	n/a
424.2235	0.1045	848447	keystroke_b	b	n/a
424.358	0.1205	848716	keystroke_r	r	n/a
424.5535	0.12	849107	keystroke_o	o	n/a
424.6135	0.1645	849227	keystroke_a	a	n/a
424.793	0.09	849586	keystroke_d	d	n/a
424.988	0.135	849976	keystroke_e	e	n/a
425.078	0.135	850156	keystroke_r	r	n/a
425.318	0.075	850636	keystroke_Key.enter	Key.enter	n/a
425.4	6.1295	850800	prompt	n/a	from destruction attraction katie\n
425.963	0.135	851926	keystroke_f	f	n/a
426.233	0.12	852466	keystroke_r	r	n/a
426.338	0.166	852676	keystroke_o	o	n/a
426.413	0.225	852826	keystroke_m	m	n/a
426.594	0.1495	853188	keystroke_Key.space	Key.space	n/a
426.683	0.0905	853366	keystroke_d	d	n/a
426.9085	0.165	853817	keystroke_e	e	n/a
427.0585	0.12	854117	keystroke_s	s	n/a
427.2235	0.1195	854447	keystroke_t	t	n/a
427.508	0.091	855016	keystroke_r	r	n/a
427.628	0.12	855256	keystroke_u	u	n/a
427.853	0.105	855706	keystroke_c	c	n/a
428.093	0.105	856186	keystroke_t	t	n/a
428.168	0.15	856336	keystroke_i	i	n/a
428.288	0.195	856576	keystroke_o	o	n/a
428.408	0.18	856816	keystroke_n	n	n/a
428.573	0.135	857146	keystroke_Key.space	Key.space	n/a
428.633	0.1355	857266	keystroke_a	a	n/a
428.8885	0.074	857777	keystroke_t	t	n/a
429.054	0.089	858108	keystroke_t	t	n/a
429.264	0.075	858528	keystroke_r	r	n/a
429.384	0.15	858768	keystroke_a	a	n/a
429.639	0.134	859278	keystroke_c	c	n/a
429.878	0.105	859756	keystroke_t	t	n/a
430.013	0.1805	860026	keystroke_i	i	n/a
430.1635	0.21	860327	keystroke_o	o	n/a
430.3135	0.165	860627	keystroke_n	n	n/a
430.4635	0.135	860927	keystroke_Key.space	Key.space	n/a
430.5835	0.165	861167	keystroke_k	k	n/a
430.6735	0.12	861347	keystroke_a	a	n/a
430.9285	0.12	861857	keystroke_t	t	n/a
431.0185	0.135	862037	keystroke_i	i	n/a
431.1985	0.09	862397	keystroke_e	e	n/a
431.4685	0.06	862937	keystroke_Key.enter	Key.enter	n/a
431.5325	5.067	863065	prompt	n/a	abuse cookbook winning free\n
432.1885	0.165	864377	keystroke_a	a	n/a
432.3535	0.09	864707	keystroke_b	b	n/a
432.5335	0.135	865067	keystroke_u	u	n/a
432.6535	0.2245	865307	keystroke_s	s	n/a
432.803	0.135	865606	keystroke_e	e	n/a
432.923	0.12	865846	keystroke_Key.space	Key.space	n/a
433.103	0.165	866206	keystroke_c	c	n/a
433.193	0.075	866386	keystroke_o	o	n/a
433.358	0.09	866716	keystroke_o	o	n/a
433.568	0.12	867136	keystroke_k	k	n/a
433.808	0.105	867616	keystroke_b	b	n/a
434.0485	0.09	868097	keystroke_o	o	n/a
434.2285	0.075	868457	keystroke_o	o	n/a
434.3635	0.195	868727	keystroke_k	k	n/a
434.5285	0.1195	869057	keystroke_Key.space	Key.space	n/a
434.633	0.15	869266	keystroke_w	w	n/a
434.753	0.15	869506	keystroke_i	i	n/a
434.873	0.09	869746	keystroke_n	n	n/a
435.053	0.09	870106	keystroke_n	n	n/a
435.173	0.15	870346	keystroke_i	i	n/a
435.308	0.27	870616	keystroke_n	n	n/a
435.563	0.045	871126	keystroke_g	g	n/a
435.593	0.1205	871186	keystroke_Key.space	Key.space	n/a
435.6975	0.1065	871395	keystroke_f	f	n/a
435.954	0.089	871908	keystroke_r	r	n/a
436.088	0.1055	872176	keystroke_e	e	n/a
436.2975	0.091	872595	keystroke_e	e	n/a
436.4935	0.1055	872987	keystroke_Key.enter	Key.enter	n/a
436.6025	5.397	873205	prompt	n/a	combined boost toolbox hits\n
437.1835	0.18	874367	keystroke_c	c	n/a
437.2885	0.1355	874577	keystroke_o	o	n/a
437.5735	0.12	875147	keystroke_m	m	n/a
437.904	0.0745	875808	keystroke_b	b	n/a
438.1135	0.1205	876227	keystroke_i	i	n/a
438.278	0.135	876556	keystroke_n	n	n/a
438.444	0.09	876888	keystroke_e	e	n/a
438.654	0.12	877308	keystroke_d	d	n/a
438.789	0.12	877578	keystroke_Key.space	Key.space	n/a
438.954	0.1195	877908	keystroke_b	b	n/a
439.1785	0.105	878357	keystroke_o	o	n/a
439.3735	0.12	878747	keystroke_o	o	n/a
439.4785	0.12	878957	keystroke_s	s	n/a
439.6135	0.135	879227	keystroke_t	t	n/a
439.7635	0.09	879527	keystroke_Key.space	Key.space	n/a
439.8385	0.135	879677	keystroke_t	t	n/a
439.9435	0.12	879887	keystroke_o	o	n/a
440.1685	0.075	880337	keystroke_o	o	n/a
440.3635	0.105	880727	keystroke_l	l	n/a
440.6035	0.075	881207	keystroke_b	b	n/a
440.7685	0.135	881537	keystroke_o	o	n/a
440.9185	0.165	881837	keystroke_x	x	n/a
441.0385	0.135	882077	keystroke_Key.space	Key.space	n/a
441.2635	0.15	882527	keystroke_h	h	n/a
441.3985	0.165	882797	keystroke_i	i	n/a
441.5335	0.105	883067	keystroke_t	t	n/a
441.7135	0.18	883427	keystroke_s	s	n/a
441.9085	0.0895	883817	keystroke_Key.enter	Key.enter	n/a
442.0025	7.483	884005	prompt	n/a	twins certified coaching expressions\n
442.5835	0.105	885167	keystroke_t	t	n/a
442.7935	0.15	885587	keystroke_w	w	n/a
442.9135	0.12	885827	keystroke_i	i	n/a
443.0035	0.21	886007	keystroke_n	n	n/a
443.1685	0.15	886337	keystroke_s	s	n/a
443.3035	0.15	886607	keystroke_Key.space	Key.space	n/a
443.4835	0.135	886967	keystroke_c	c	n/a
443.7085	0.165	887417	keystroke_e	e	n/a
443.8585	0.12	887717	keystroke_r	r	n/a
444.084	0.105	888168	keystroke_t	t	n/a
444.189	0.09	888378	keystroke_i	i	n/a
444.459	0.12	888918	keystroke_f	f	n/a
444.594	0.1045	889188	keystroke_i	i	n/a
444.7435	0.09	889487	keystroke_e	e	n/a
444.9385	0.135	889877	keystroke_d	d	n/a
445.1185	0.12	890237	keystroke_Key.space	Key.space	n/a
445.2535	0.15	890507	keystroke_c	c	n/a
445.3885	0.12	890777	keystroke_o	o	n/a
445.5095	0.119	891019	keystroke_a	a	n/a
445.7185	0.135	891437	keystroke_c	c	n/a
445.8235	0.12	891647	keystroke_h	h	n/a
445.9585	0.15	891917	keystroke_i	i	n/a
446.0785	0.21	892157	keystroke_n	n	n/a
446.2435	0.105	892487	keystroke_g	g	n/a
446.3635	0.165	892727	keystroke_Key.space	Key.space	n/a
446.5435	0.09	893087	keystroke_e	e	n/a
446.7685	0.15	893537	keystroke_x	x	n/a
446.9035	0.105	893807	keystroke_p	p	n/a
447.1435	0.09	894287	keystroke_r	r	n/a
447.2035	0.195	894407	keystroke_e	e	n/a
447.3985	0.105	894797	keystroke_s	s	n/a
447.6085	0.09	895217	keystroke_s	s	n/a
447.7135	0.1345	895427	keystroke_i	i	n/a
447.818	0.165	895636	keystroke_o	o	n/a
448.0435	0.075	896087	keystroke_s	s	n/a
448.1035	0.165	896207	keystroke_n	n	n/a
448.659	0.06	897318	keystroke_Key.backspace	Key.backspace	n/a
448.809	0.06	897618	keystroke_Key.backspace	Key.backspace	n/a
449.034	0.1345	898068	keystroke_n	n	n/a
449.1235	0.135	898247	keystroke_s	s	n/a
449.4085	0.075	898817	keystroke_Key.enter	Key.enter	n/a
449.498	8.3725	898996	prompt	n/a	nonprofit characteristic pathology optics\n
450.159	0.12	900318	keystroke_n	n	n/a
450.294	0.165	900588	keystroke_o	o	n/a
450.444	0.1195	900888	keystroke_n	n	n/a
450.6835	0.135	901367	keystroke_p	p	n/a
450.8935	0.12	901787	keystroke_r	r	n/a
450.9985	0.12	901997	keystroke_o	o	n/a
451.3285	0.12	902657	keystroke_f	f	n/a
451.4785	0.135	902957	keystroke_i	i	n/a
451.6435	0.135	903287	keystroke_t	t	n/a
451.8085	0.135	903617	keystroke_Key.space	Key.space	n/a
452.2435	0.15	904487	keystroke_c	c	n/a
452.3485	0.165	904697	keystroke_h	h	n/a
452.5135	0.1945	905027	keystroke_a	a	n/a
452.6635	0.1345	905327	keystroke_r	r	n/a
452.858	0.12	905716	keystroke_a	a	n/a
453.098	0.12	906196	keystroke_c	c	n/a
453.353	0.105	906706	keystroke_t	t	n/a
453.533	0.195	907066	keystroke_e	e	n/a
453.668	0.135	907336	keystroke_r	r	n/a
454.029	0.015	908058	keystroke_i	i	n/a
454.0585	0.1505	908117	keystroke_s	s	n/a
454.269	0.105	908538	keystroke_t	t	n/a
454.389	0.1195	908778	keystroke_i	i	n/a
454.569	0.149	909138	keystroke_c	c	n/a
454.704	0.119	909408	keystroke_Key.space	Key.space	n/a
454.854	0.12	909708	keystroke_p	p	n/a
454.989	0.09	909978	keystroke_a	a	n/a
455.214	0.12	910428	keystroke_t	t	n/a
455.319	0.12	910638	keystroke_h	h	n/a
455.559	0.09	911118	keystroke_o	o	n/a
455.784	0.075	911568	keystroke_l	l	n/a
455.964	0.12	911928	keystroke_o	o	n/a
456.069	0.09	912138	keystroke_g	g	n/a
456.309	0.105	912618	keystroke_y	y	n/a
456.429	0.135	912858	keystroke_Key.space	Key.space	n/a
456.6685	0.1645	913337	keystroke_o	o	n/a
456.848	0.12	913696	keystroke_p	p	n/a
457.013	0.105	914026	keystroke_t	t	n/a
457.178	0.1355	914356	keystroke_i	i	n/a
457.3735	0.12	914747	keystroke_c	c	n/a
457.5535	0.15	915107	keystroke_s	s	n/a
457.7935	0.075	915587	keystroke_Key.enter	Key.enter	n/a
457.881	8.089	915762	prompt	n/a	adding heather calculator cialis\n
458.4685	0.135	916937	keystroke_a	a	n/a
458.6335	0.1045	917267	keystroke_d	d	n/a
458.814	0.105	917628	keystroke_d	d	n/a
458.948	0.135	917896	keystroke_i	i	n/a
459.039	0.209	918078	keystroke_n	n	n/a
459.203	0.105	918406	keystroke_g	g	n/a
459.339	0.119	918678	keystroke_Key.space	Key.space	n/a
459.534	0.149	919068	keystroke_h	h	n/a
459.638	0.091	919276	keystroke_e	e	n/a
459.819	0.135	919638	keystroke_a	a	n/a
460.013	0.106	920026	keystroke_t	t	n/a
460.134	0.134	920268	keystroke_h	h	n/a
460.269	0.149	920538	keystroke_e	e	n/a
460.344	0.15	920688	keystroke_r	r	n/a
460.508	0.135	921016	keystroke_Key.space	Key.space	n/a
460.674	0.134	921348	keystroke_c	c	n/a
460.838	0.15	921676	keystroke_a	a	n/a
460.973	0.12	921946	keystroke_l	l	n/a
461.693	0.105	923386	keystroke_c	c	n/a
461.813	0.09	923626	keystroke_u	u	n/a
462.924	0.165	925848	keystroke_l	l	n/a
463.029	0.12	926058	keystroke_a	a	n/a
463.194	0.105	926388	keystroke_t	t	n/a
463.344	0.135	926688	keystroke_o	o	n/a
463.464	0.135	926928	keystroke_r	r	n/a
463.734	0.12	927468	keystroke_Key.space	Key.space	n/a
464.1085	0.1345	928217	keystroke_c	c	n/a
464.318	0.075	928636	keystroke_a	a	n/a
464.693	0.075	929386	keystroke_Key.backspace	Key.backspace	n/a
464.948	0.12	929896	keystroke_i	i	n/a
465.023	0.1805	930046	keystroke_a	a	n/a
465.2635	0.21	930527	keystroke_l	l	n/a
465.3985	0.18	930797	keystroke_i	i	n/a
465.5935	0.165	931187	keystroke_s	s	n/a
465.909	0.06	931818	keystroke_Key.enter	Key.enter	n/a
465.9825	9.528	931965	prompt	n/a	experiences pontiac password transformation\n
466.689	0.075	933378	keystroke_e	e	n/a
466.914	0.15	933828	keystroke_x	x	n/a
467.154	0.075	934308	keystroke_p	p	n/a
467.289	0.105	934578	keystroke_e	e	n/a
467.499	0.12	934998	keystroke_r	r	n/a
