onset	duration	sample	value	key	prompt_text
12.5045	18.6	25009	prompt	n/a	the quick brown fox jumps over a lazy dog\n
22.916	0.012	45832	keystroke_t	t	n/a
23.033	0.059	46066	keystroke_h	h	n/a
23.1825	0.09	46365	keystroke_e	e	n/a
23.8725	0.075	47745	keystroke_Key.space	Key.space	n/a
24.0075	0.09	48015	keystroke_q	q	n/a
24.1125	0.045	48225	keystroke_u	u	n/a
24.2325	0.06	48465	keystroke_i	i	n/a
24.3075	0.105	48615	keystroke_c	c	n/a
24.4125	0.06	48825	keystroke_k	k	n/a
24.5025	0.075	49005	keystroke_Key.space	Key.space	n/a
24.8625	0.045	49725	keystroke_r	r	n/a
25.1925	0.06	50385	keystroke_Key.backspace	Key.backspace	n/a
25.2825	0.09	50565	keystroke_b	b	n/a
25.3575	0.09	50715	keystroke_r	r	n/a
25.4925	0.075	50985	keystroke_o	o	n/a
25.5075	0.045	51015	keystroke_p	p	n/a
25.5975	0.12	51195	keystroke_w	w	n/a
25.897	0.075	51794	keystroke_Key.backspace	Key.backspace	n/a
26.032	0.076	52064	keystroke_Key.backspace	Key.backspace	n/a
26.197	0.09	52394	keystroke_w	w	n/a
26.318	0.059	52636	keystroke_n	n	n/a
26.467	0.075	52934	keystroke_Key.space	Key.space	n/a
26.557	0.075	53114	keystroke_f	f	n/a
26.648	0.074	53296	keystroke_o	o	n/a
26.752	0.091	53504	keystroke_x	x	n/a
26.903	0.06	53806	keystroke_Key.space	Key.space	n/a
27.068	0.075	54136	keystroke_j	j	n/a
27.203	0.075	54406	keystroke_u	u	n/a
27.338	0.09	54676	keystroke_m	m	n/a
27.488	0.09	54976	keystroke_p	p	n/a
27.563	0.105	55126	keystroke_s	s	n/a
27.653	0.075	55306	keystroke_Key.space	Key.space	n/a
27.743	0.0745	55486	keystroke_o	o	n/a
27.8025	0.09	55605	keystroke_v	v	n/a
27.9075	0.105	55815	keystroke_e	e	n/a
27.9825	0.105	55965	keystroke_r	r	n/a
28.0575	0.09	56115	keystroke_Key.space	Key.space	n/a
28.1775	0.12	56355	keystroke_a	a	n/a
28.2675	0.06	56535	keystroke_Key.space	Key.space	n/a
28.4025	0.0745	56805	keystroke_l	l	n/a
28.4925	0.0445	56985	keystroke_a	a	n/a
28.687	0.06	57374	keystroke_z	z	n/a
28.762	0.015	57524	keystroke_z	z	n/a
28.897	0.09	57794	keystroke_y	y	n/a
29.047	0.075	58094	keystroke_Key.space	Key.space	n/a
29.137	0.12	58274	keystroke_d	d	n/a
29.527	0.075	59054	keystroke_Key.backspace	Key.backspace	n/a
29.677	0.075	59354	keystroke_Key.backspace	Key.backspace	n/a
29.827	0.06	59654	keystroke_Key.backspace	Key.backspace	n/a
29.947	0.0755	59894	keystroke_Key.backspace	Key.backspace	n/a
30.0375	0.075	60075	keystroke_y	y	n/a
30.2325	0.075	60465	keystroke_Key.space	Key.space	n/a
30.3225	0.105	60645	keystroke_d	d	n/a
30.4125	0.075	60825	keystroke_o	o	n/a
30.5475	0.075	61095	keystroke_g	g	n/a
31.0275	0.075	62055	keystroke_Key.enter	Key.enter	n/a
31.1095	4.345	62219	prompt	n/a	wildlife or cats zoloft\n
31.8525	0.105	63705	keystroke_w	w	n/a
31.9725	0.075	63945	keystroke_i	i	n/a
32.1375	0.09	64275	keystroke_l	l	n/a
32.2125	0.09	64425	keystroke_d	d	n/a
32.3325	0.06	64665	keystroke_l	l	n/a
32.4675	0.06	64935	keystroke_i	i	n/a
32.5275	0.12	65055	keystroke_f	f	n/a
32.6025	0.105	65205	keystroke_e	e	n/a
32.7225	0.06	65445	keystroke_Key.space	Key.space	n/a
32.8275	0.06	65655	keystroke_o	o	n/a
32.8875	0.075	65775	keystroke_r	r	n/a
32.9475	0.075	65895	keystroke_Key.space	Key.space	n/a
33.0825	0.135	66165	keystroke_c	c	n/a
33.1725	0.135	66345	keystroke_a	a	n/a
33.6075	0.105	67215	keystroke_t	t	n/a
33.8175	0.105	67635	keystroke_s	s	n/a
33.9375	0.06	67875	keystroke_Key.space	Key.space	n/a
34.3125	0.075	68625	keystroke_z	z	n/a
34.3725	0.045	68745	keystroke_o	o	n/a
34.5225	0.045	69045	keystroke_l	l	n/a
34.6425	0.06	69285	keystroke_o	o	n/a
34.9875	0.105	69975	keystroke_f	f	n/a
35.1825	0.09	70365	keystroke_t	t	n/a
35.4075	0.045	70815	keystroke_Key.enter	Key.enter	n/a
35.458	5.9365	70916	prompt	n/a	strand kirk afraid transparency\n
36.203	0.06	72406	keystroke_s	s	n/a
36.5775	0.105	73155	keystroke_t	t	n/a
36.6375	0.075	73275	keystroke_r	r	n/a
36.8025	0.135	73605	keystroke_a	a	n/a
36.9075	0.075	73815	keystroke_n	n	n/a
37.013	0.105	74026	keystroke_d	d	n/a
37.072	0.06	74144	keystroke_Key.space	Key.space	n/a
37.208	0.045	74416	keystroke_k	k	n/a
37.313	0.09	74626	keystroke_i	i	n/a
37.388	0.09	74776	keystroke_r	r	n/a
37.508	0.09	75016	keystroke_k	k	n/a
37.583	0.074	75166	keystroke_Key.space	Key.space	n/a
37.717	0.091	75434	keystroke_a	a	n/a
37.853	0.075	75706	keystroke_f	f	n/a
38.003	0.105	76006	keystroke_r	r	n/a
38.108	0.119	76216	keystroke_a	a	n/a
38.228	0.074	76456	keystroke_i	i	n/a
38.363	0.075	76726	keystroke_d	d	n/a
38.707	0.09	77414	keystroke_Key.space	Key.space	n/a
38.992	0.105	77984	keystroke_t	t	n/a
39.037	0.0905	78074	keystroke_r	r	n/a
39.2175	0.1195	78435	keystroke_a	a	n/a
39.3075	0.0755	78615	keystroke_n	n	n/a
39.442	0.105	78884	keystroke_s	s	n/a
39.637	0.09	79274	keystroke_p	p	n/a
39.772	0.15	79544	keystroke_a	a	n/a
39.937	0.135	79874	keystroke_r	r	n/a
39.982	0.12	79964	keystroke_e	e	n/a
40.133	0.074	80266	keystroke_n	n	n/a
40.2975	0.1055	80595	keystroke_c	c	n/a
40.5675	0.075	81135	keystroke_y	y	n/a
41.318	0.0745	82636	keystroke_Key.enter	Key.enter	n/a
41.3995	7.6595	82799	prompt	n/a	asylum rocky supplies bulgarian\n
42.0525	0.105	84105	keystroke_a	a	n/a
42.2475	0.105	84495	keystroke_s	s	n/a
42.458	0.075	84916	keystroke_y	y	n/a
42.638	0.06	85276	keystroke_l	l	n/a
42.908	0.075	85816	keystroke_u	u	n/a
43.058	0.06	86116	keystroke_m	m	n/a
43.193	0.09	86386	keystroke_Key.space	Key.space	n/a
43.328	0.09	86656	keystroke_r	r	n/a
43.388	0.09	86776	keystroke_o	o	n/a
43.538	0.105	87076	keystroke_c	c	n/a
43.613	0.075	87226	keystroke_k	k	n/a
43.823	0.09	87646	keystroke_y	y	n/a
43.958	0.09	87916	keystroke_Key.space	Key.space	n/a
44.093	0.09	88186	keystroke_s	s	n/a
44.213	0.06	88426	keystroke_u	u	n/a
44.423	0.075	88846	keystroke_p	p	n/a
44.543	0.09	89086	keystroke_p	p	n/a
44.708	0.075	89416	keystroke_l	l	n/a
44.858	0.045	89716	keystroke_o	o	n/a
44.948	0.135	89896	keystroke_e	e	n/a
45.053	0.135	90106	keystroke_s	s	n/a
45.638	0.06	91276	keystroke_Key.backspace	Key.backspace	n/a
45.758	0.18	91516	keystroke_Key.backspace	Key.backspace	n/a
46.2075	0.075	92415	keystroke_Key.backspace	Key.backspace	n/a
46.4625	0.09	92925	keystroke_i	i	n/a
46.5825	0.09	93165	keystroke_e	e	n/a
46.6425	0.15	93285	keystroke_s	s	n/a
46.7775	0.09	93555	keystroke_Key.space	Key.space	n/a
46.8975	0.1055	93795	keystroke_b	b	n/a
47.018	0.075	94036	keystroke_u	u	n/a
47.243	0.075	94486	keystroke_l	l	n/a
47.5275	0.1205	95055	keystroke_g	g	n/a
47.663	0.135	95326	keystroke_a	a	n/a
47.843	0.09	95686	keystroke_r	r	n/a
47.933	0.075	95866	keystroke_i	i	n/a
48.053	0.105	96106	keystroke_a	a	n/a
48.173	0.075	96346	keystroke_n	n	n/a
48.983	0.075	97966	keystroke_Key.enter	Key.enter	n/a
49.063	9.6865	98126	prompt	n/a	cincinnati lenses amino sides\n
49.673	0.105	99346	keystroke_c	c	n/a
49.793	0.09	99586	keystroke_i	i	n/a
49.838	0.105	99676	keystroke_n	n	n/a
50.003	0.105	100006	keystroke_c	c	n/a
50.183	0.105	100366	keystroke_i	i	n/a
50.258	0.075	100516	keystroke_n	n	n/a
50.813	0.03	101626	keystroke_a	a	n/a
51.053	0.09	102106	keystroke_Key.backspace	Key.backspace	n/a
51.353	0.075	102706	keystroke_n	n	n/a
51.518	0.09	103036	keystroke_a	a	n/a
51.713	0.075	103426	keystroke_t	t	n/a
51.893	0.06	103786	keystroke_i	i	n/a
52.043	0.06	104086	keystroke_Key.space	Key.space	n/a
52.193	0.06	104386	keystroke_l	l	n/a
52.373	0.09	104746	keystroke_e	e	n/a
52.478	0.075	104956	keystroke_n	n	n/a
52.643	0.135	105286	keystroke_s	s	n/a
52.748	0.105	105496	keystroke_e	e	n/a
53.063	0.09	106126	keystroke_s	s	n/a
53.438	0.06	106876	keystroke_Key.space	Key.space	n/a
53.543	0.12	107086	keystroke_a	a	n/a
53.633	0.075	107266	keystroke_m	m	n/a
53.723	0.1045	107446	keystroke_i	i	n/a
53.8275	0.075	107655	keystroke_n	n	n/a
53.9925	0.09	107985	keystroke_o	o	n/a
54.2325	0.09	108465	keystroke_Key.space	Key.space	n/a
54.3975	0.105	108795	keystroke_s	s	n/a
54.5175	0.09	109035	keystroke_l	l	n/a
54.6675	0.075	109335	keystroke_i	i	n/a
54.7725	0.075	109545	keystroke_d	d	n/a
54.9525	0.09	109905	keystroke_e	e	n/a
55.0125	0.135	110025	keystroke_s	s	n/a
58.735	0.013	117470	keystroke_Key.enter	Key.enter	n/a
58.753	4.886	117506	prompt	n/a	slide renew ticket governance\n
59.348	0.105	118696	keystroke_s	s	n/a
59.558	0.09	119116	keystroke_l	l	n/a
59.723	0.09	119446	keystroke_i	i	n/a
59.798	0.06	119596	keystroke_d	d	n/a
59.933	0.09	119866	keystroke_e	e	n/a
60.008	0.075	120016	keystroke_Key.space	Key.space	n/a
60.098	0.1355	120196	keystroke_r	r	n/a
60.1585	0.06	120317	keystroke_e	e	n/a
60.2635	0.06	120527	keystroke_n	n	n/a
60.3985	0.06	120797	keystroke_e	e	n/a
60.5025	0.106	121005	keystroke_w	w	n/a
60.8625	0.09	121725	keystroke_Key.space	Key.space	n/a
61.0425	0.09	122085	keystroke_t	t	n/a
61.1475	0.076	122295	keystroke_i	i	n/a
61.2535	0.105	122507	keystroke_c	c	n/a
61.3275	0.075	122655	keystroke_k	k	n/a
61.4325	0.135	122865	keystroke_e	e	n/a
61.5525	0.09	123105	keystroke_t	t	n/a
61.6725	0.09	123345	keystroke_Key.space	Key.space	n/a
61.8375	0.105	123675	keystroke_g	g	n/a
62.0035	0.075	124007	keystroke_o	o	n/a
62.0925	0.106	124185	keystroke_v	v	n/a
62.1985	0.12	124397	keystroke_e	e	n/a
62.2725	0.121	124545	keystroke_r	r	n/a
62.4085	0.09	124817	keystroke_n	n	n/a
62.5575	0.121	125115	keystroke_a	a	n/a
62.6485	0.075	125297	keystroke_n	n	n/a
62.8135	0.135	125627	keystroke_c	c	n/a
62.8725	0.105	125745	keystroke_e	e	n/a
63.563	0.075	127126	keystroke_Key.enter	Key.enter	n/a
63.643	5.862	127286	prompt	n/a	quarter acquired deviant elite\n
64.2975	0.1055	128595	keystroke_q	q	n/a
64.418	0.06	128836	keystroke_u	u	n/a
64.538	0.135	129076	keystroke_a	a	n/a
64.658	0.12	129316	keystroke_r	r	n/a
64.853	0.12	129706	keystroke_t	t	n/a
64.943	0.165	129886	keystroke_e	e	n/a
65.048	0.135	130096	keystroke_r	r	n/a
65.168	0.075	130336	keystroke_Key.space	Key.space	n/a
65.5875	0.075	131175	keystroke_a	a	n/a
65.7975	0.105	131595	keystroke_c	c	n/a
66.0975	0.105	132195	keystroke_r	r	n/a
66.428	0.06	132856	keystroke_Key.backspace	Key.backspace	n/a
66.878	0.105	133756	keystroke_q	q	n/a
66.983	0.06	133966	keystroke_u	u	n/a
67.118	0.075	134236	keystroke_i	i	n/a
67.2225	0.12	134445	keystroke_r	r	n/a
67.2825	0.09	134565	keystroke_e	e	n/a
67.4625	0.0905	134925	keystroke_d	d	n/a
67.583	0.09	135166	keystroke_Key.space	Key.space	n/a
67.838	0.075	135676	keystroke_d	d	n/a
67.9875	0.06	135975	keystroke_e	e	n/a
68.1225	0.12	136245	keystroke_v	v	n/a
68.2275	0.075	136455	keystroke_i	i	n/a
68.3175	0.105	136635	keystroke_a	a	n/a
68.4075	0.09	136815	keystroke_n	n	n/a
68.5425	0.09	137085	keystroke_t	t	n/a
68.6025	0.09	137205	keystroke_Key.space	Key.space	n/a
68.7525	0.12	137505	keystroke_e	e	n/a
68.8425	0.075	137685	keystroke_l	l	n/a
68.9775	0.075	137955	keystroke_i	i	n/a
69.0375	0.12	138075	keystroke_t	t	n/a
69.0975	0.1205	138195	keystroke_e	e	n/a
69.428	0.075	138856	keystroke_Key.enter	Key.enter	n/a
69.513	8.811	139026	prompt	n/a	modification bahamas ebony jackson\n
70.058	0.12	140116	keystroke_m	m	n/a
70.148	0.105	140296	keystroke_o	o	n/a
70.268	0.105	140536	keystroke_d	d	n/a
70.433	0.075	140866	keystroke_i	i	n/a
70.628	0.105	141256	keystroke_f	f	n/a
70.778	0.06	141556	keystroke_i	i	n/a
70.913	0.135	141826	keystroke_c	c	n/a
71.018	0.105	142036	keystroke_a	a	n/a
71.228	0.09	142456	keystroke_t	t	n/a
71.288	0.075	142576	keystroke_i	i	n/a
71.408	0.105	142816	keystroke_o	o	n/a
71.468	0.075	142936	keystroke_n	n	n/a
71.587	0.09	143174	keystroke_Key.space	Key.space	n/a
71.723	0.09	143446	keystroke_b	b	n/a
71.873	0.12	143746	keystroke_a	a	n/a
72.023	0.075	144046	keystroke_h	h	n/a
72.128	0.105	144256	keystroke_a	a	n/a
72.278	0.09	144556	keystroke_m	m	n/a
72.398	0.105	144796	keystroke_a	a	n/a
72.488	0.12	144976	keystroke_s	s	n/a
72.7725	0.105	145545	keystroke_Key.space	Key.space	n/a
73.043	0.075	146086	keystroke_e	e	n/a
73.2385	0.104	146477	keystroke_b	b	n/a
73.3285	0.119	146657	keystroke_o	o	n/a
73.4025	0.09	146805	keystroke_n	n	n/a
73.6125	0.06	147225	keystroke_y	y	n/a
74.7225	0.075	149445	keystroke_Key.space	Key.space	n/a
75.6075	0.075	151215	keystroke_j	j	n/a
75.6975	0.09	151395	keystroke_a	a	n/a
75.7575	0.12	151515	keystroke_c	c	n/a
75.8475	0.0755	151695	keystroke_k	k	n/a
75.938	0.12	151876	keystroke_s	s	n/a
76.028	0.105	152056	keystroke_o	o	n/a
76.103	0.075	152206	keystroke_n	n	n/a
78.2805	0.042	156561	keystroke_Key.enter	Key.enter	n/a
78.3295	6.145	156659	prompt	n/a	skype providence labor pontiac\n
78.863	0.12	157726	keystroke_s	s	n/a
79.013	0.09	158026	keystroke_k	k	n/a
79.193	0.105	158386	keystroke_y	y	n/a
79.283	0.075	158566	keystroke_p	p	n/a
79.403	0.105	158806	keystroke_e	e	n/a
79.493	0.09	158986	keystroke_Key.space	Key.space	n/a
79.658	0.075	159316	keystroke_p	p	n/a
79.718	0.09	159436	keystroke_r	r	n/a
79.838	0.06	159676	keystroke_o	o	n/a
79.958	0.105	159916	keystroke_v	v	n/a
80.093	0.075	160186	keystroke_i	i	n/a
80.168	0.075	160336	keystroke_d	d	n/a
80.318	0.1045	160636	keystroke_e	e	n/a
80.408	0.0745	160816	keystroke_n	n	n/a
80.5275	0.15	161055	keystroke_c	c	n/a
80.5875	0.135	161175	keystroke_e	e	n/a
80.6925	0.09	161385	keystroke_Key.space	Key.space	n/a
80.9175	0.075	161835	keystroke_l	l	n/a
81.0225	0.1205	162045	keystroke_a	a	n/a
81.098	0.135	162196	keystroke_c	c	n/a
81.473	0.09	162946	keystroke_Key.backspace	Key.backspace	n/a
81.593	0.105	163186	keystroke_b	b	n/a
81.683	0.075	163366	keystroke_o	o	n/a
81.983	0.075	163966	keystroke_r	r	n/a
82.133	0.075	164266	keystroke_Key.space	Key.space	n/a
82.388	0.06	164776	keystroke_p	p	n/a
82.7325	0.105	165465	keystroke_o	o	n/a
82.8225	0.12	165645	keystroke_n	n	n/a
82.9725	0.12	165945	keystroke_t	t	n/a
83.0625	0.12	166125	keystroke_a	a	n/a
83.1675	0.06	166335	keystroke_i	i	n/a
83.4075	0.045	166815	keystroke_Key.backspace	Key.backspace	n/a
83.5275	0.075	167055	keystroke_Key.backspace	Key.backspace	n/a
83.693	0.09	167386	keystroke_i	i	n/a
83.798	0.135	167596	keystroke_a	a	n/a
83.918	0.12	167836	keystroke_c	c	n/a
84.398	0.075	168796	keystroke_Key.enter	Key.enter	n/a
84.4785	14.654	168957	prompt	n/a	highlight refrigerator arkansas ensemble\n
85.163	0.105	170326	keystroke_h	h	n/a
85.253	0.075	170506	keystroke_i	i	n/a
85.343	0.12	170686	keystroke_g	g	n/a
85.403	0.105	170806	keystroke_h	h	n/a
85.553	0.075	171106	keystroke_l	l	n/a
85.688	0.1045	171376	keystroke_i	i	n/a
85.7775	0.06	171555	keystroke_g	g	n/a
85.8075	0.135	171615	keystroke_h	h	n/a
85.9125	0.09	171825	keystroke_t	t	n/a
86.0625	0.075	172125	keystroke_Key.space	Key.space	n/a
86.2275	0.135	172455	keystroke_r	r	n/a
86.2875	0.105	172575	keystroke_e	e	n/a
86.5425	0.12	173085	keystroke_f	f	n/a
86.7525	0.06	173505	keystroke_i	i	n/a
87.097	0.09	174194	keystroke_Key.backspace	Key.backspace	n/a
87.278	0.075	174556	keystroke_r	r	n/a
87.458	0.06	174916	keystroke_i	i	n/a
88.043	0.12	176086	keystroke_g	g	n/a
88.178	0.135	176356	keystroke_e	e	n/a
88.253	0.12	176506	keystroke_r	r	n/a
88.463	0.1645	176926	keystroke_a	a	n/a
88.5075	0.09	177015	keystroke_t	t	n/a
89.2125	0.06	178425	keystroke_o	o	n/a
89.3175	0.075	178635	keystroke_r	r	n/a
89.4675	0.09	178935	keystroke_Key.space	Key.space	n/a
89.7225	0.135	179445	keystroke_a	a	n/a
89.9475	0.105	179895	keystroke_r	r	n/a
90.0825	0.105	180165	keystroke_k	k	n/a
90.2025	0.135	180405	keystroke_a	a	n/a
90.3225	0.06	180645	keystroke_n	n	n/a
90.5775	0.1205	181155	keystroke_s	s	n/a
90.698	0.195	181396	keystroke_a	a	n/a
90.878	0.0895	181756	keystroke_s	s	n/a
91.4175	0.075	182835	keystroke_Key.space	Key.space	n/a
91.7475	0.075	183495	keystroke_e	e	n/a
91.8525	0.075	183705	keystroke_n	n	n/a
92.408	0.105	184816	keystroke_s	s	n/a
92.483	0.09	184966	keystroke_e	e	n/a
92.753	0.075	185506	keystroke_m	m	n/a
92.948	0.105	185896	keystroke_b	b	n/a
93.068	0.06	186136	keystroke_l	l	n/a
93.188	0.105	186376	keystroke_e	e	n/a
99.13	0	198260	keystroke_Key.enter	Key.enter	n/a
99.1365	5.438	198273	prompt	n/a	hunting intensity chan it\n
99.953	0.09	199906	keystroke_h	h	n/a
100.073	0.1205	200146	keystroke_u	u	n/a
100.1635	0.105	200327	keystroke_n	n	n/a
100.3135	0.09	200627	keystroke_t	t	n/a
100.3885	0.105	200777	keystroke_i	i	n/a
100.4485	0.09	200897	keystroke_n	n	n/a
100.5085	0.12	201017	keystroke_g	g	n/a
100.6435	0.105	201287	keystroke_Key.space	Key.space	n/a
100.8235	0.105	201647	keystroke_i	i	n/a
100.8685	0.105	201737	keystroke_n	n	n/a
100.9585	0.12	201917	keystroke_t	t	n/a
101.0185	0.12	202037	keystroke_e	e	n/a
101.1235	0.09	202247	keystroke_n	n	n/a
101.2585	0.105	202517	keystroke_s	s	n/a
101.3635	0.075	202727	keystroke_i	i	n/a
101.4685	0.0895	202937	keystroke_t	t	n/a
101.648	0.09	203296	keystroke_y	y	n/a
101.783	0.075	203566	keystroke_Key.space	Key.space	n/a
102.038	0.105	204076	keystroke_c	c	n/a
102.158	0.0605	204316	keystroke_h	h	n/a
102.2335	0.12	204467	keystroke_a	a	n/a
102.3235	0.06	204647	keystroke_n	n	n/a
102.4735	0.075	204947	keystroke_Key.space	Key.space	n/a
102.7585	0.06	205517	keystroke_i	i	n/a
102.8635	0.06	205727	keystroke_t	t	n/a
104.498	0.075	208996	keystroke_Key.enter	Key.enter	n/a
104.5775	6.582	209155	prompt	n/a	mountain archived shan't dept\n
105.263	0.015	210526	keystroke_m	m	n/a
105.323	0.075	210646	keystroke_o	o	n/a
105.488	0.1055	210976	keystroke_u	u	n/a
105.548	0.0895	211096	keystroke_n	n	n/a
105.6835	0.119	211367	keystroke_t	t	n/a
105.7735	0.134	211547	keystroke_a	a	n/a
105.8775	0.136	211755	keystroke_i	i	n/a
105.9225	0.106	211845	keystroke_n	n	n/a
106.0725	0.105	212145	keystroke_Key.space	Key.space	n/a
106.238	0.12	212476	keystroke_a	a	n/a
106.388	0.09	212776	keystroke_r	r	n/a
106.583	0.12	213166	keystroke_c	c	n/a
106.688	0.075	213376	keystroke_h	h	n/a
106.838	0.075	213676	keystroke_i	i	n/a
106.928	0.1195	213856	keystroke_v	v	n/a
107.0175	0.12	214035	keystroke_e	e	n/a
107.2125	0.12	214425	keystroke_d	d	n/a
107.6925	0.09	215385	keystroke_Key.space	Key.space	n/a
107.9325	0.105	215865	keystroke_s	s	n/a
108.0525	0.06	216105	keystroke_h	h	n/a
108.218	0.1045	216436	keystroke_a	a	n/a
108.4275	0.075	216855	keystroke_n	n	n/a
109.0135	0.105	218027	keystroke_t	t	n/a
109.4935	0.045	218987	keystroke_Key.backspace	Key.backspace	n/a
109.7485	0.105	219497	keystroke_'	'	n/a
109.9435	0.075	219887	keystroke_t	t	n/a
110.0775	0.09	220155	keystroke_Key.space	Key.space	n/a
110.1985	0.09	220397	keystroke_d	d	n/a
110.3485	0.105	220697	keystroke_e	e	n/a
110.4385	0.075	220877	keystroke_p	p	n/a
110.5885	0.09	221177	keystroke_t	t	n/a
111.0985	0.06	222197	keystroke_Key.enter	Key.enter	n/a
111.163	6.9265	222326	prompt	n/a	prescription showed chip assumptions\n
111.7885	0.09	223577	keystroke_p	p	n/a
111.8935	0.135	223787	keystroke_r	r	n/a
111.9685	0.075	223937	keystroke_e	e	n/a
112.1485	0.135	224297	keystroke_s	s	n/a
112.3135	0.135	224627	keystroke_c	c	n/a
112.4635	0.105	224927	keystroke_r	r	n/a
112.643	0.0605	225286	keystroke_i	i	n/a
112.9275	0.075	225855	keystroke_Key.backspace	Key.backspace	n/a
113.6485	0.06	227297	keystroke_i	i	n/a
113.8125	0.09	227625	keystroke_p	p	n/a
113.9325	0.075	227865	keystroke_t	t	n/a
114.0525	0.075	228105	keystroke_i	i	n/a
114.1725	0.12	228345	keystroke_o	o	n/a
114.2325	0.09	228465	keystroke_n	n	n/a
114.4425	0.075	228885	keystroke_Key.space	Key.space	n/a
114.6525	0.09	229305	keystroke_d	d	n/a
114.9825	0.075	229965	keystroke_Key.backspace	Key.backspace	n/a
115.0725	0.0605	230145	keystroke_s	s	n/a
115.223	0.0745	230446	keystroke_h	h	n/a
115.268	0.0755	230536	keystroke_o	o	n/a
115.4185	0.075	230837	keystroke_w	w	n/a
115.538	0.09	231076	keystroke_e	e	n/a
115.703	0.075	231406	keystroke_d	d	n/a
115.808	0.075	231616	keystroke_Key.space	Key.space	n/a
115.898	0.105	231796	keystroke_c	c	n/a
116.018	0.15	232036	keystroke_h	h	n/a
116.1085	0.1045	232217	keystroke_i	i	n/a
116.3325	0.075	232665	keystroke_p	p	n/a
116.4825	0.09	232965	keystroke_Key.space	Key.space	n/a
116.5575	0.12	233115	keystroke_a	a	n/a
116.6785	0.074	233357	keystroke_s	s	n/a
116.8125	0.105	233625	keystroke_s	s	n/a
116.9325	0.09	233865	keystroke_u	u	n/a
117.1125	0.06	234225	keystroke_m	m	n/a
117.2625	0.075	234525	keystroke_p	p	n/a
117.3825	0.09	234765	keystroke_t	t	n/a
117.4575	0.075	234915	keystroke_i	i	n/a
117.5625	0.12	235125	keystroke_o	o	n/a
117.6225	0.09	235245	keystroke_n	n	n/a
117.7275	0.09	235455	keystroke_s	s	n/a
117.9975	0.09	235995	keystroke_Key.enter	Key.enter	n/a
118.092	5.7125	236184	prompt	n/a	password headphones slow niagara\n
118.733	0.09	237466	keystroke_p	p	n/a
118.868	0.12	237736	keystroke_a	a	n/a
119.003	0.075	238006	keystroke_s	s	n/a
119.108	0.12	238216	keystroke_s	s	n/a
119.633	0.105	239266	keystroke_w	w	n/a
119.753	0.09	239506	keystroke_o	o	n/a
119.858	0.06	239716	keystroke_r	r	n/a
120.008	0.09	240016	keystroke_d	d	n/a
120.113	0.075	240226	keystroke_Key.space	Key.space	n/a
120.308	0.075	240616	keystroke_h	h	n/a
120.443	0.075	240886	keystroke_e	e	n/a
120.578	0.135	241156	keystroke_a	a	n/a
120.653	0.135	241306	keystroke_d	d	n/a
120.863	0.105	241726	keystroke_p	p	n/a
121.088	0.075	242176	keystroke_h	h	n/a
121.193	0.12	242386	keystroke_o	o	n/a
121.253	0.105	242506	keystroke_n	n	n/a
121.343	0.075	242686	keystroke_e	e	n/a
121.508	0.105	243016	keystroke_s	s	n/a
121.583	0.075	243166	keystroke_Key.space	Key.space	n/a
121.7175	0.105	243435	keystroke_s	s	n/a
121.8235	0.074	243647	keystroke_l	l	n/a
121.9575	0.06	243915	keystroke_o	o	n/a
122.0475	0.105	244095	keystroke_w	w	n/a
122.3175	0.0755	244635	keystroke_Key.space	Key.space	n/a
122.483	0.09	244966	keystroke_n	n	n/a
122.528	0.09	245056	keystroke_i	i	n/a
122.678	0.075	245356	keystroke_a	a	n/a
122.933	0.075	245866	keystroke_g	g	n/a
123.158	0.06	246316	keystroke_r	r	n/a
123.3235	0.105	246647	keystroke_a	a	n/a
123.7285	0.075	247457	keystroke_Key.enter	Key.enter	n/a
123.807	4.7675	247614	prompt	n/a	verbal march villa cassette\n
124.3885	0.1195	248777	keystroke_v	v	n/a
124.493	0.105	248986	keystroke_e	e	n/a
124.553	0.105	249106	keystroke_r	r	n/a
124.733	0.075	249466	keystroke_b	b	n/a
124.838	0.1195	249676	keystroke_a	a	n/a
124.9575	0.0755	249915	keystroke_l	l	n/a
125.108	0.075	250216	keystroke_Key.space	Key.space	n/a
125.258	0.105	250516	keystroke_m	m	n/a
125.543	0.09	251086	keystroke_a	a	n/a
125.663	0.075	251326	keystroke_r	r	n/a
125.843	0.12	251686	keystroke_c	c	n/a
125.903	0.045	251806	keystroke_h	h	n/a
126.053	0.0745	252106	keystroke_Key.space	Key.space	n/a
126.1425	0.09	252285	keystroke_v	v	n/a
126.2475	0.06	252495	keystroke_i	i	n/a
126.3825	0.075	252765	keystroke_l	l	n/a
126.5025	0.075	253005	keystroke_l	l	n/a
126.6075	0.09	253215	keystroke_a	a	n/a
126.6825	0.09	253365	keystroke_Key.space	Key.space	n/a
126.8025	0.135	253605	keystroke_c	c	n/a
126.9225	0.105	253845	keystroke_a	a	n/a
127.1325	0.105	254265	keystroke_s	s	n/a
127.7325	0.045	255465	keystroke_s	s	n/a
127.8375	0.075	255675	keystroke_e	e	n/a
127.9575	0.06	255915	keystroke_t	t	n/a
128.1075	0.09	256215	keystroke_t	t	n/a
128.1825	0.105	256365	keystroke_e	e	n/a
128.4975	0.0755	256995	keystroke_Key.enter	Key.enter	n/a
128.578	8.726	257156	prompt	n/a	spectacular newsletters human early\n
129.1425	0.1055	258285	keystroke_s	s	n/a
129.218	0.075	258436	keystroke_p	p	n/a
129.338	0.06	258676	keystroke_e	e	n/a
129.443	0.105	258886	keystroke_c	c	n/a
129.6675	0.09	259335	keystroke_t	t	n/a
130.313	0.105	260626	keystroke_a	a	n/a
131.603	0.09	263206	keystroke_c	c	n/a
131.753	0.075	263506	keystroke_u	u	n/a
131.963	0.06	263926	keystroke_l	l	n/a
132.038	0.105	264076	keystroke_a	a	n/a
132.098	0.15	264196	keystroke_r	r	n/a
132.352	0.075	264704	keystroke_Key.space	Key.space	n/a
133.028	0.075	266056	keystroke_n	n	n/a
133.118	0.135	266236	keystroke_e	e	n/a
133.163	0.12	266326	keystroke_w	w	n/a
133.387	0.105	266774	keystroke_s	s	n/a
133.643	0.075	267286	keystroke_l	l	n/a
133.823	0.09	267646	keystroke_e	e	n/a
133.973	0.06	267946	keystroke_t	t	n/a
134.093	0.075	268186	keystroke_t	t	n/a
134.183	0.18	268366	keystroke_e	e	n/a
134.288	0.105	268576	keystroke_r	r	n/a
134.483	0.105	268966	keystroke_s	s	n/a
134.738	0.075	269476	keystroke_Key.space	Key.space	n/a
135.1575	0.03	270315	keystroke_h	h	n/a
135.2475	0.075	270495	keystroke_u	u	n/a
135.4125	0.09	270825	keystroke_m	m	n/a
135.518	0.12	271036	keystroke_a	a	n/a
135.638	0.059	271276	keystroke_n	n	n/a
135.772	0.0905	271544	keystroke_Key.space	Key.space	n/a
136.057	0.1055	272114	keystroke_c	c	n/a
136.342	0.075	272684	keystroke_Key.backspace	Key.backspace	n/a
136.403	0.09	272806	keystroke_e	e	n/a
136.478	0.1045	272956	keystroke_a	a	n/a
136.5525	0.151	273105	keystroke_r	r	n/a
136.658	0.075	273316	keystroke_l	l	n/a
136.853	0.075	273706	keystroke_y	y	n/a
137.2275	0.075	274455	keystroke_Key.enter	Key.enter	n/a
137.307	5.5025	274614	prompt	n/a	quick difference contest arlington\n
137.978	0.09	275956	keystroke_q	q	n/a
138.098	0.0595	276196	keystroke_u	u	n/a
138.2325	0.09	276465	keystroke_i	i	n/a
138.3075	0.135	276615	keystroke_c	c	n/a
138.3975	0.105	276795	keystroke_k	k	n/a
138.4575	0.09	276915	keystroke_Key.space	Key.space	n/a
138.5625	0.06	277125	keystroke_d	d	n/a
138.6375	0.09	277275	keystroke_i	i	n/a
138.7425	0.06	277485	keystroke_f	f	n/a
138.8475	0.105	277695	keystroke_f	f	n/a
138.9675	0.105	277935	keystroke_e	e	n/a
139.0575	0.135	278115	keystroke_r	r	n/a
139.1775	0.075	278355	keystroke_e	e	n/a
139.2375	0.075	278475	keystroke_n	n	n/a
139.4325	0.105	278865	keystroke_c	c	n/a
139.4475	0.105	278895	keystroke_e	e	n/a
139.6125	0.09	279225	keystroke_Key.space	Key.space	n/a
139.7625	0.1205	279525	keystroke_c	c	n/a
139.823	0.105	279646	keystroke_o	o	n/a
139.898	0.09	279796	keystroke_n	n	n/a
140.048	0.135	280096	keystroke_t	t	n/a
140.153	0.09	280306	keystroke_e	e	n/a
140.393	0.12	280786	keystroke_s	s	n/a
140.468	0.12	280936	keystroke_t	t	n/a
140.618	0.105	281236	keystroke_Key.space	Key.space	n/a
140.903	0.105	281806	keystroke_a	a	n/a
141.023	0.09	282046	keystroke_r	r	n/a
141.143	0.075	282286	keystroke_l	l	n/a
141.308	0.105	282616	keystroke_i	i	n/a
141.338	0.105	282676	keystroke_n	n	n/a
141.443	0.09	282886	keystroke_g	g	n/a
141.578	0.075	283156	keystroke_t	t	n/a
141.623	0.105	283246	keystroke_o	o	n/a
141.683	0.075	283366	keystroke_n	n	n/a
142.7475	0.06	285495	keystroke_Key.enter	Key.enter	n/a
142.812	6.1625	285624	prompt	n/a	activation anonymous paid mega\n
143.4225	0.12	286845	keystroke_a	a	n/a
143.5725	0.1055	287145	keystroke_c	c	n/a
143.7825	0.075	287565	keystroke_t	t	n/a
143.9175	0.046	287835	keystroke_i	i	n/a
144.0525	0.1205	288105	keystroke_v	v	n/a
144.218	0.12	288436	keystroke_a	a	n/a
144.488	0.09	288976	keystroke_t	t	n/a
144.593	0.06	289186	keystroke_i	i	n/a
144.713	0.1045	289426	keystroke_o	o	n/a
144.758	0.0745	289516	keystroke_n	n	n/a
144.8925	0.09	289785	keystroke_Key.space	Key.space	n/a
145.0875	0.12	290175	keystroke_a	a	n/a
145.2225	0.06	290445	keystroke_n	n	n/a
145.5675	0.075	291135	keystroke_o	o	n/a
145.6875	0.09	291375	keystroke_n	n	n/a
145.8975	0.105	291795	keystroke_y	y	n/a
146.1225	0.09	292245	keystroke_m	m	n/a
146.3325	0.075	292665	keystroke_o	o	n/a
146.4975	0.075	292995	keystroke_u	u	n/a
146.6025	0.105	293205	keystroke_s	s	n/a
146.7375	0.075	293475	keystroke_Key.space	Key.space	n/a
146.9325	0.105	293865	keystroke_p	p	n/a
147.053	0.1045	294106	keystroke_a	a	n/a
147.1725	0.075	294345	keystroke_i	i	n/a
147.2625	0.09	294525	keystroke_d	d	n/a
147.3675	0.075	294735	keystroke_Key.space	Key.space	n/a
147.5475	0.075	295095	keystroke_m	m	n/a
147.6375	0.135	295275	keystroke_e	e	n/a
147.7425	0.105	295485	keystroke_g	g	n/a
147.8925	0.105	295785	keystroke_a	a	n/a
148.8975	0.075	297795	keystroke_Key.enter	Key.enter	n/a
148.978	6.911	297956	prompt	n/a	rolls honest respondent gratuit\n
149.6025	0.105	299205	keystroke_r	r	n/a
149.6775	0.075	299355	keystroke_o	o	n/a
149.8125	0.075	299625	keystroke_l	l	n/a
149.9475	0.09	299895	keystroke_l	l	n/a
150.0225	0.09	300045	keystroke_s	s	n/a
150.1425	0.06	300285	keystroke_Key.space	Key.space	n/a
150.338	0.06	300676	keystroke_h	h	n/a
150.368	0.105	300736	keystroke_o	o	n/a
150.428	0.1055	300856	keystroke_n	n	n/a
150.578	0.105	301156	keystroke_s	s	n/a
150.9225	0.09	301845	keystroke_Key.backspace	Key.backspace	n/a
151.0135	0.089	302027	keystroke_e	e	n/a
151.1775	0.105	302355	keystroke_s	s	n/a
151.2525	0.12	302505	keystroke_t	t	n/a
151.3875	0.09	302775	keystroke_Key.space	Key.space	n/a
151.6125	0.105	303225	keystroke_r	r	n/a
151.7025	0.105	303405	keystroke_e	e	n/a
151.9275	0.105	303855	keystroke_s	s	n/a
152.0475	0.0905	304095	keystroke_p	p	n/a
152.213	0.105	304426	keystroke_o	o	n/a
152.258	0.105	304516	keystroke_n	n	n/a
152.393	0.105	304786	keystroke_d	d	n/a
152.753	0.09	305506	keystroke_a	a	n/a
153.098	0.09	306196	keystroke_Key.backspace	Key.backspace	n/a
153.218	0.09	306436	keystroke_e	e	n/a
153.323	0.075	306646	keystroke_n	n	n/a
153.443	0.12	306886	keystroke_t	t	n/a
153.593	0.075	307186	keystroke_Key.space	Key.space	n/a
154.1025	0.12	308205	keystroke_g	g	n/a
154.1625	0.135	308325	keystroke_r	r	n/a
154.5975	0.135	309195	keystroke_a	a	n/a
154.8225	0.1055	309645	keystroke_t	t	n/a
155.078	0.075	310156	keystroke_u	u	n/a
155.198	0.105	310396	keystroke_i	i	n/a
155.318	0.06	310636	keystroke_t	t	n/a
155.813	0.075	311626	keystroke_Key.enter	Key.enter	n/a
155.8935	5.9655	311787	prompt	n/a	extending situations homework named\n
156.518	0.09	313036	keystroke_e	e	n/a
156.713	0.105	313426	keystroke_x	x	n/a
156.923	0.105	313846	keystroke_t	t	n/a
156.983	0.105	313966	keystroke_e	e	n/a
157.118	0.06	314236	keystroke_n	n	n/a
157.193	0.105	314386	keystroke_d	d	n/a
157.283	0.12	314566	keystroke_i	i	n/a
157.343	0.09	314686	keystroke_n	n	n/a
157.388	0.09	314776	keystroke_g	g	n/a
157.793	0.09	315586	keystroke_Key.space	Key.space	n/a
157.973	0.09	315946	keystroke_s	s	n/a
158.2135	0.075	316427	keystroke_i	i	n/a
158.3485	0.089	316697	keystroke_t	t	n/a
158.6185	0.0595	317237	keystroke_u	u	n/a
158.753	0.135	317506	keystroke_a	a	n/a
158.873	0.12	317746	keystroke_t	t	n/a
158.993	0.075	317986	keystroke_i	i	n/a
159.113	0.105	318226	keystroke_o	o	n/a
159.158	0.09	318316	keystroke_n	n	n/a
159.278	0.09	318556	keystroke_s	s	n/a
159.353	0.09	318706	keystroke_Key.space	Key.space	n/a
159.758	0.09	319516	keystroke_h	h	n/a
159.818	0.105	319636	keystroke_o	o	n/a
159.863	0.105	319726	keystroke_m	m	n/a
159.998	0.09	319996	keystroke_e	e	n/a
160.193	0.09	320386	keystroke_w	w	n/a
160.268	0.09	320536	keystroke_o	o	n/a
160.343	0.15	320686	keystroke_r	r	n/a
160.448	0.09	320896	keystroke_k	k	n/a
160.658	0.09	321316	keystroke_Key.space	Key.space	n/a
160.958	0.075	321916	keystroke_n	n	n/a
161.048	0.09	322096	keystroke_a	a	n/a
161.123	0.075	322246	keystroke_m	m	n/a
161.228	0.09	322456	keystroke_e	e	n/a
161.378	0.105	322756	keystroke_d	d	n/a
161.783	0.075	323566	keystroke_Key.enter	Key.enter	n/a
161.862	6.702	323724	prompt	n/a	rooms lounge festivals territories\n
162.533	0.105	325066	keystroke_r	r	n/a
162.653	0.045	325306	keystroke_o	o	n/a
162.758	0.105	325516	keystroke_o	o	n/a
162.908	0.09	325816	keystroke_m	m	n/a
163.028	0.12	326056	keystroke_s	s	n/a
163.133	0.075	326266	keystroke_Key.space	Key.space	n/a
163.298	0.075	326596	keystroke_l	l	n/a
163.463	0.09	326926	keystroke_o	o	n/a
163.6875	0.06	327375	keystroke_u	u	n/a
163.7025	0.09	327405	keystroke_n	n	n/a
163.7775	0.12	327555	keystroke_g	g	n/a
163.8525	0.12	327705	keystroke_e	e	n/a
163.9275	0.105	327855	keystroke_Key.space	Key.space	n/a
164.0925	0.135	328185	keystroke_f	f	n/a
164.1675	0.105	328335	keystroke_e	e	n/a
164.4675	0.09	328935	keystroke_s	s	n/a
164.6175	0.105	329235	keystroke_t	t	n/a
164.7525	0.075	329505	keystroke_i	i	n/a
164.8725	0.12	329745	keystroke_v	v	n/a
164.9475	0.195	329895	keystroke_a	a	n/a
165.1575	0.09	330315	keystroke_l	l	n/a
165.2625	0.09	330525	keystroke_s	s	n/a
165.3825	0.09	330765	keystroke_Key.space	Key.space	n/a
165.593	0.12	331186	keystroke_t	t	n/a
165.653	0.15	331306	keystroke_e	e	n/a
165.848	0.075	331696	keystroke_r	r	n/a
165.968	0.105	331936	keystroke_r	r	n/a
166.118	0.0595	332236	keystroke_i	i	n/a
166.1925	0.105	332385	keystroke_r	r	n/a
166.8675	0.105	333735	keystroke_Key.backspace	Key.backspace	n/a
166.9875	0.12	333975	keystroke_t	t	n/a
167.0925	0.06	334185	keystroke_o	o	n/a
167.7075	0.09	335415	keystroke_r	r	n/a
167.7975	0.075	335595	keystroke_i	i	n/a
167.8875	0.105	335775	keystroke_e	e	n/a
168.0675	0.1205	336135	keystroke_s	s	n/a
168.4875	0.075	336975	keystroke_Key.enter	Key.enter	n/a
168.568	7.5865	337136	prompt	n/a	concentration jurisdiction establish neck\n
169.222	0.135	338444	keystroke_c	c	n/a
169.297	0.12	338594	keystroke_o	o	n/a
169.372	0.09	338744	keystroke_n	n	n/a
169.433	0.134	338866	keystroke_c	c	n/a
169.507	0.136	339014	keystroke_e	e	n/a
169.612	0.0755	339224	keystroke_n	n	n/a
169.8675	0.105	339735	keystroke_t	t	n/a
169.8975	0.12	339795	keystroke_r	r	n/a
170.0625	0.135	340125	keystroke_a	a	n/a
170.2575	0.075	340515	keystroke_i	i	n/a
170.6325	0.09	341265	keystroke_Key.backspace	Key.backspace	n/a
171.0525	0.105	342105	keystroke_t	t	n/a
171.1425	0.0745	342285	keystroke_i	i	n/a
171.277	0.0755	342554	keystroke_o	o	n/a
171.322	0.0765	342644	keystroke_n	n	n/a
171.4575	0.105	342915	keystroke_Key.space	Key.space	n/a
171.7125	0.09	343425	keystroke_j	j	n/a
171.8925	0.06	343785	keystroke_u	u	n/a
172.0275	0.09	344055	keystroke_r	r	n/a
172.1625	0.06	344325	keystroke_i	i	n/a
172.2825	0.1055	344565	keystroke_s	s	n/a
172.8975	0.03	345795	keystroke_d	d	n/a
172.9425	0.09	345885	keystroke_i	i	n/a
173.1225	0.105	346245	keystroke_c	c	n/a
173.3625	0.09	346725	keystroke_t	t	n/a
173.4675	0.045	346935	keystroke_i	i	n/a
173.5875	0.12	347175	keystroke_o	o	n/a
173.6635	0.074	347327	keystroke_n	n	n/a
173.798	0.105	347596	keystroke_Key.space	Key.space	n/a
173.948	0.09	347896	keystroke_e	e	n/a
174.158	0.09	348316	keystroke_s	s	n/a
174.293	0.105	348586	keystroke_t	t	n/a
174.443	0.09	348886	keystroke_a	a	n/a
174.578	0.105	349156	keystroke_b	b	n/a
174.653	0.09	349306	keystroke_l	l	n/a
174.8025	0.075	349605	keystroke_i	i	n/a
174.8925	0.105	349785	keystroke_s	s	n/a
174.9525	0.06	349905	keystroke_h	h	n/a
175.103	0.06	350206	keystroke_Key.space	Key.space	n/a
175.238	0.075	350476	keystroke_n	n	n/a
175.433	0.06	350866	keystroke_e	e	n/a
175.583	0.105	351166	keystroke_c	c	n/a
175.673	0.075	351346	keystroke_k	k	n/a
176.062	0.09	352124	keystroke_Key.enter	Key.enter	n/a
176.1575	6.0415	352315	prompt	n/a	wound sold wizard similar\n
176.7825	0.1055	353565	keystroke_w	w	n/a
176.858	0.09	353716	keystroke_o	o	n/a
177.038	0.09	354076	keystroke_u	u	n/a
177.2175	0.09	354435	keystroke_d	d	n/a
177.638	0.075	355276	keystroke_Key.backspace	Key.backspace	n/a
177.863	0.075	355726	keystroke_n	n	n/a
177.953	0.06	355906	keystroke_d	d	n/a
178.103	0.09	356206	keystroke_Key.space	Key.space	n/a
179.0625	0.15	358125	keystroke_s	s	n/a
179.1525	0.075	358305	keystroke_o	o	n/a
179.3025	0.09	358605	keystroke_l	l	n/a
179.4075	0.075	358815	keystroke_d	d	n/a
179.7825	0.09	359565	keystroke_Key.space	Key.space	n/a
180.0375	0.09	360075	keystroke_w	w	n/a
180.1425	0.06	360285	keystroke_i	i	n/a
180.6075	0.105	361215	keystroke_z	z	n/a
180.833	0.0745	361666	keystroke_a	a	n/a
180.983	0.105	361966	keystroke_r	r	n/a
181.163	0.105	362326	keystroke_d	d	n/a
181.2525	0.06	362505	keystroke_Key.space	Key.space	n/a
181.3125	0.1205	362625	keystroke_s	s	n/a
181.4025	0.09	362805	keystroke_i	i	n/a
181.478	0.1195	362956	keystroke_m	m	n/a
181.5825	0.09	363165	keystroke_i	i	n/a
181.763	0.0895	363526	keystroke_l	l	n/a
181.8375	0.105	363675	keystroke_a	a	n/a
181.8975	0.15	363795	keystroke_r	r	n/a
182.0925	0.105	364185	keystroke_Key.enter	Key.enter	n/a
182.2025	6.5665	364405	prompt	n/a	spotlight ongoing moldova cite\n
182.7525	0.1205	365505	keystroke_s	s	n/a
182.828	0.09	365656	keystroke_p	p	n/a
183.008	0.075	366016	keystroke_o	o	n/a
183.113	0.105	366226	keystroke_t	t	n/a
183.233	0.0595	366466	keystroke_l	l	n/a
183.3675	0.075	366735	keystroke_i	i	n/a
183.4275	0.075	366855	keystroke_g	g	n/a
183.4875	0.12	366975	keystroke_h	h	n/a
183.5925	0.09	367185	keystroke_t	t	n/a
183.6975	0.075	367395	keystroke_Key.space	Key.space	n/a
183.8625	0.105	367725	keystroke_o	o	n/a
183.9225	0.105	367845	keystroke_n	n	n/a
184.132	0.135	368264	keystroke_g	g	n/a
184.222	0.0905	368444	keystroke_o	o	n/a
184.3575	0.09	368715	keystroke_i	i	n/a
184.3875	0.105	368775	keystroke_n	n	n/a
184.4475	0.09	368895	keystroke_g	g	n/a
184.5525	0.09	369105	keystroke_Key.space	Key.space	n/a
184.7475	0.1205	369495	keystroke_m	m	n/a
184.8075	0.1195	369615	keystroke_o	o	n/a
185.332	0.076	370664	keystroke_l	l	n/a
185.497	0.075	370994	keystroke_d	d	n/a
185.8425	0.09	371685	keystroke_o	o	n/a
185.992	0.1355	371984	keystroke_v	v	n/a
186.1125	0.12	372225	keystroke_a	a	n/a
186.2625	0.105	372525	keystroke_Key.space	Key.space	n/a
186.4725	0.105	372945	keystroke_c	c	n/a
186.5925	0.06	373185	keystroke_i	i	n/a
187.1325	0.12	374265	keystroke_t	t	n/a
187.2225	0.135	374445	keystroke_e	e	n/a
188.7075	0.06	377415	keystroke_Key.enter	Key.enter	n/a
188.7725	5.9965	377545	prompt	n/a	citations baby feature europe\n
189.3375	0.135	378675	keystroke_c	c	n/a
189.4575	0.06	378915	keystroke_i	i	n/a
189.6225	0.12	379245	keystroke_t	t	n/a
189.7125	0.135	379425	keystroke_a	a	n/a
189.8175	0.12	379635	keystroke_t	t	n/a
189.9075	0.075	379815	keystroke_i	i	n/a
190.0275	0.09	380055	keystroke_o	o	n/a
190.0575	0.12	380115	keystroke_n	n	n/a
190.1625	0.105	380325	keystroke_s	s	n/a
190.2525	0.105	380505	keystroke_Key.space	Key.space	n/a
190.5225	0.075	381045	keystroke_b	b	n/a
190.6575	0.12	381315	keystroke_a	a	n/a
190.7925	0.105	381585	keystroke_b	b	n/a
191.0025	0.075	382005	keystroke_y	y	n/a
191.1375	0.075	382275	keystroke_Key.space	Key.space	n/a
191.3175	0.135	382635	keystroke_f	f	n/a
191.4075	0.1055	382815	keystroke_e	e	n/a
191.543	0.12	383086	keystroke_a	a	n/a
191.678	0.075	383356	keystroke_t	t	n/a
191.783	0.075	383566	keystroke_u	u	n/a
191.978	0.135	383956	keystroke_r	r	n/a
192.053	0.12	384106	keystroke_e	e	n/a
192.218	0.105	384436	keystroke_Key.space	Key.space	n/a
192.353	0.105	384706	keystroke_e	e	n/a
192.608	0.075	385216	keystroke_u	u	n/a
193.0275	0.06	386055	keystroke_r	r	n/a
193.1175	0.09	386235	keystroke_o	o	n/a
193.2675	0.105	386535	keystroke_p	p	n/a
193.3875	0.09	386775	keystroke_e	e	n/a
194.6925	0.075	389385	keystroke_Key.enter	Key.enter	n/a
194.7715	5.2025	389543	prompt	n/a	meals fiber terminal yemen\n
195.623	0.0895	391246	keystroke_m	m	n/a
195.728	0.1045	391456	keystroke_e	e	n/a
195.8175	0.15	391635	keystroke_a	a	n/a
195.9525	0.075	391905	keystroke_l	l	n/a
196.0125	0.135	392025	keystroke_s	s	n/a
196.1475	0.09	392295	keystroke_Key.space	Key.space	n/a
196.5975	0.135	393195	keystroke_f	f	n/a
196.7175	0.06	393435	keystroke_i	i	n/a
196.943	0.09	393886	keystroke_b	b	n/a
197.078	0.135	394156	keystroke_e	e	n/a
197.153	0.15	394306	keystroke_r	r	n/a
197.318	0.075	394636	keystroke_Key.space	Key.space	n/a
197.408	0.12	394816	keystroke_t	t	n/a
197.468	0.12	394936	keystroke_e	e	n/a
197.633	0.105	395266	keystroke_r	r	n/a
197.798	0.135	395596	keystroke_m	m	n/a
197.948	0.12	395896	keystroke_i	i	n/a
198.023	0.1045	396046	keystroke_n	n	n/a
198.1425	0.12	396285	keystroke_a	a	n/a
198.2175	0.105	396435	keystroke_l	l	n/a
198.3075	0.075	396615	keystroke_Key.space	Key.space	n/a
198.6075	0.09	397215	keystroke_y	y	n/a
198.6525	0.135	397305	keystroke_e	e	n/a
198.7725	0.105	397545	keystroke_m	m	n/a
198.8625	0.12	397725	keystroke_e	e	n/a
199.0575	0.09	398115	keystroke_n	n	n/a
199.913	0.06	399826	keystroke_Key.enter	Key.enter	n/a
199.977	6.867	399954	prompt	n/a	diagnostic carriers durham essays\n
200.528	0.075	401056	keystroke_d	d	n/a
200.768	0.06	401536	keystroke_i	i	n/a
200.873	0.105	401746	keystroke_a	a	n/a
201.1875	0.09	402375	keystroke_g	g	n/a
201.6075	0.09	403215	keystroke_n	n	n/a
201.7275	0.075	403455	keystroke_o	o	n/a
201.8925	0.135	403785	keystroke_s	s	n/a
202.0425	0.09	404085	keystroke_t	t	n/a
202.1775	0.06	404355	keystroke_i	i	n/a
202.3275	0.0895	404655	keystroke_c	c	n/a
202.462	0.091	404924	keystroke_Key.space	Key.space	n/a
202.583	0.15	405166	keystroke_c	c	n/a
202.688	0.12	405376	keystroke_a	a	n/a
202.9125	0.06	405825	keystroke_r	r	n/a
203.0175	0.09	406035	keystroke_r	r	n/a
203.3325	0.075	406665	keystroke_i	i	n/a
203.4225	0.15	406845	keystroke_e	e	n/a
203.4975	0.105	406995	keystroke_r	r	n/a
203.7525	0.09	407505	keystroke_s	s	n/a
204.0375	0.09	408075	keystroke_Key.space	Key.space	n/a
204.188	0.09	408376	keystroke_d	d	n/a
204.368	0.0445	408736	keystroke_u	u	n/a
204.608	0.0745	409216	keystroke_r	r	n/a
204.8325	0.075	409665	keystroke_h	h	n/a
204.9375	0.135	409875	keystroke_a	a	n/a
205.0275	0.075	410055	keystroke_m	m	n/a
205.1625	0.09	410325	keystroke_Key.space	Key.space	n/a
205.2375	0.0895	410475	keystroke_e	e	n/a
205.387	0.09	410774	keystroke_s	s	n/a
205.522	0.12	411044	keystroke_s	s	n/a
205.687	0.135	411374	keystroke_a	a	n/a
205.912	0.075	411824	keystroke_y	y	n/a
206.168	0.09	412336	keystroke_s	s	n/a
206.768	0.0745	413536	keystroke_Key.enter	Key.enter	n/a
206.848	17.906	413696	prompt	n/a	hair clinics where're bloomberg\n
207.533	0.075	415066	keystroke_h	h	n/a
207.638	0.12	415276	keystroke_a	a	n/a
207.743	0.0745	415486	keystroke_i	i	n/a
207.863	0.075	415726	keystroke_r	r	n/a
207.967	0.076	415934	keystroke_Key.space	Key.space	n/a
208.118	0.089	416236	keystroke_c	c	n/a
208.2225	0.075	416445	keystroke_l	l	n/a
208.3725	0.09	416745	keystroke_i	i	n/a
208.4325	0.09	416865	keystroke_n	n	n/a
208.5375	0.09	417075	keystroke_i	i	n/a
208.7175	0.1045	417435	keystroke_c	c	n/a
208.7775	0.1345	417555	keystroke_s	s	n/a
209.062	0.075	418124	keystroke_Key.space	Key.space	n/a
209.4075	0.105	418815	keystroke_w	w	n/a
209.6775	0.075	419355	keystroke_h	h	n/a
209.8725	0.09	419745	keystroke_e	e	n/a
210.233	0.09	420466	keystroke_'	'	n/a
210.443	0.149	420886	keystroke_r	r	n/a
210.503	0.119	421006	keystroke_e	e	n/a
210.8775	0.09	421755	keystroke_Key.space	Key.space	n/a
211.0875	0.1045	422175	keystroke_b	b	n/a
211.207	0.045	422414	keystroke_l	l	n/a
211.313	0.074	422626	keystroke_o	o	n/a
211.432	0.09	422864	keystroke_o	o	n/a
211.702	0.075	423404	keystroke_m	m	n/a
211.9125	0.105	423825	keystroke_b	b	n/a
212.0325	0.12	424065	keystroke_e	e	n/a
212.1225	0.105	424245	keystroke_r	r	n/a
212.2875	0.135	424575	keystroke_g	g	n/a
216.865	0.001	433730	keystroke_Key.left	Key.left	n/a
216.9375	0.06	433875	keystroke_Key.left	Key.left	n/a
217.0725	0.06	434145	keystroke_Key.left	Key.left	n/a
217.2075	0.075	434415	keystroke_Key.left	Key.left	n/a
217.3575	0.0605	434715	keystroke_Key.left	Key.left	n/a
217.507	0.046	435014	keystroke_Key.left	Key.left	n/a
217.643	0.06	435286	keystroke_Key.left	Key.left	n/a
217.778	0.075	435556	keystroke_Key.left	Key.left	n/a
217.943	0.06	435886	keystroke_Key.left	Key.left	n/a
218.078	0.0745	436156	keystroke_Key.left	Key.left	n/a
218.2275	0.075	436455	keystroke_Key.left	Key.left	n/a
218.948	0.075	437896	keystroke_Key.left	Key.left	n/a
219.787	0.076	439574	keystroke_Key.left	Key.left	n/a
220.057	0.0605	440114	keystroke_r	r	n/a
220.2375	0.105	440475	keystroke_e	e	n/a
222.4445	0.001	444889	keystroke_Key.right	Key.right	n/a
222.6075	0.06	445215	keystroke_Key.right	Key.right	n/a
222.7425	0.075	445485	keystroke_Key.right	Key.right	n/a
222.8775	0.09	445755	keystroke_Key.right	Key.right	n/a
223.0425	0.06	446085	keystroke_Key.right	Key.right	n/a
223.1925	0.075	446385	keystroke_Key.right	Key.right	n/a
223.3425	0.075	446685	keystroke_Key.right	Key.right	n/a
223.4925	0.075	446985	keystroke_Key.right	Key.right	n/a
223.6575	0.0745	447315	keystroke_Key.right	Key.right	n/a
223.792	0.075	447584	keystroke_Key.right	Key.right	n/a
223.942	0.075	447884	keystroke_Key.right	Key.right	n/a
224.092	0.0905	448184	keystroke_Key.right	Key.right	n/a
224.2425	0.075	448485	keystroke_Key.right	Key.right	n/a
224.407	0.0755	448814	keystroke_Key.right	Key.right	n/a
224.6925	0.06	449385	keystroke_Key.enter	Key.enter	n/a
224.757	4.212	449514	prompt	n/a	getting anger colon agent\n
225.427	0.105	450854	keystroke_g	g	n/a
225.517	0.1055	451034	keystroke_e	e	n/a
225.653	0.0595	451306	keystroke_t	t	n/a
225.758	0.1195	451516	keystroke_t	t	n/a
225.8925	0.12	451785	keystroke_i	i	n/a
225.9375	0.09	451875	keystroke_n	n	n/a
225.9975	0.105	451995	keystroke_g	g	n/a
226.1025	0.075	452205	keystroke_Key.space	Key.space	n/a
226.3725	0.06	452745	keystroke_n	n	n/a
226.747	0.09	453494	keystroke_Key.backspace	Key.backspace	n/a
226.837	0.0905	453674	keystroke_a	a	n/a
226.9425	0.075	453885	keystroke_n	n	n/a
227.0325	0.12	454065	keystroke_g	g	n/a
227.1225	0.09	454245	keystroke_e	e	n/a
227.4825	0.075	454965	keystroke_r	r	n/a
227.5875	0.075	455175	keystroke_Key.space	Key.space	n/a
227.7075	0.105	455415	keystroke_c	c	n/a
227.7975	0.075	455595	keystroke_o	o	n/a
227.9475	0.09	455895	keystroke_l	l	n/a
228.0825	0.0895	456165	keystroke_o	o	n/a
228.142	0.075	456284	keystroke_n	n	n/a
228.277	0.09	456554	keystroke_Key.space	Key.space	n/a
228.382	0.06	456764	keystroke_a	a	n/a
228.472	0.12	456944	keystroke_g	g	n/a
228.547	0.12	457094	keystroke_e	e	n/a
228.607	0.075	457214	keystroke_n	n	n/a
228.772	0.075	457544	keystroke_t	t	n/a
228.8775	0.09	457755	keystroke_Key.enter	Key.enter	n/a
228.9735	3.8205	457947	prompt	n/a	networks knife bacon vote\n
229.5225	0.09	459045	keystroke_n	n	n/a
229.6275	0.1345	459255	keystroke_e	e	n/a
229.7475	0.0745	459495	keystroke_t	t	n/a
229.882	0.09	459764	keystroke_w	w	n/a
229.942	0.09	459884	keystroke_o	o	n/a
230.017	0.09	460034	keystroke_r	r	n/a
230.092	0.105	460184	keystroke_k	k	n/a
230.182	0.105	460364	keystroke_s	s	n/a
230.302	0.0605	460604	keystroke_Key.space	Key.space	n/a
230.422	0.105	460844	keystroke_k	k	n/a
230.497	0.075	460994	keystroke_n	n	n/a
230.587	0.06	461174	keystroke_i	i	n/a
230.662	0.105	461324	keystroke_f	f	n/a
230.707	0.12	461414	keystroke_e	e	n/a
231.0975	0.1205	462195	keystroke_Key.space	Key.space	n/a
231.293	0.0895	462586	keystroke_b	b	n/a
231.4425	0.135	462885	keystroke_a	a	n/a
231.5325	0.135	463065	keystroke_c	c	n/a
231.6375	0.12	463275	keystroke_o	o	n/a
231.6975	0.09	463395	keystroke_n	n	n/a
231.8475	0.09	463695	keystroke_Key.space	Key.space	n/a
231.9675	0.12	463935	keystroke_v	v	n/a
232.3425	0.0755	464685	keystroke_o	o	n/a
232.493	0.105	464986	keystroke_t	t	n/a
232.538	0.119	465076	keystroke_e	e	n/a
232.673	0.119	465346	keystroke_Key.enter	Key.enter	n/a
232.7985	6.3705	465597	prompt	n/a	lists selections locked explosion\n
233.6325	0.105	467265	keystroke_l	l	n/a
233.8275	0.105	467655	keystroke_i	i	n/a
233.8875	0.12	467775	keystroke_s	s	n/a
233.9925	0.1495	467985	keystroke_t	t	n/a
234.0675	0.2095	468135	keystroke_s	s	n/a
234.307	0.0905	468614	keystroke_Key.space	Key.space	n/a
234.4125	0.09	468825	keystroke_s	s	n/a
234.5625	0.12	469125	keystroke_e	e	n/a
234.6675	0.075	469335	keystroke_l	l	n/a
234.893	0.075	469786	keystroke_e	e	n/a
234.998	0.1045	469996	keystroke_c	c	n/a
235.2075	0.09	470415	keystroke_t	t	n/a
235.3275	0.06	470655	keystroke_i	i	n/a
235.4475	0.105	470895	keystroke_o	o	n/a
235.4925	0.09	470985	keystroke_n	n	n/a
235.6275	0.09	471255	keystroke_Key.space	Key.space	n/a
235.7775	0.075	471555	keystroke_l	l	n/a
235.8975	0.09	471795	keystroke_o	o	n/a
235.9875	0.135	471975	keystroke_c	c	n/a
236.1075	0.105	472215	keystroke_e	e	n/a
236.5575	0.075	473115	keystroke_k	k	n/a
236.8425	0.06	473685	keystroke_Key.backspace	Key.backspace	n/a
236.9625	0.075	473925	keystroke_Key.backspace	Key.backspace	n/a
237.1425	0.075	474285	keystroke_k	k	n/a
237.2185	0.074	474437	keystroke_e	e	n/a
237.3675	0.105	474735	keystroke_d	d	n/a
237.4575	0.09	474915	keystroke_Key.space	Key.space	n/a
237.6375	0.06	475275	keystroke_e	e	n/a
237.9525	0.06	475905	keystroke_x	x	n/a
238.1025	0.1055	476205	keystroke_p	p	n/a
238.163	0.09	476326	keystroke_l	l	n/a
238.313	0.09	476626	keystroke_o	o	n/a
238.417	0.091	476834	keystroke_s	s	n/a
238.508	0.06	477016	keystroke_i	i	n/a
238.627	0.091	477254	keystroke_o	o	n/a
238.672	0.091	477344	keystroke_n	n	n/a
239.092	0.075	478184	keystroke_Key.enter	Key.enter	n/a
239.1715	9.823	478343	prompt	n/a	discover searching trinidad reduces\n
239.708	0.089	479416	keystroke_d	d	n/a
239.828	0.06	479656	keystroke_i	i	n/a
239.903	0.09	479806	keystroke_s	s	n/a
240.023	0.1195	480046	keystroke_c	c	n/a
240.1575	0.06	480315	keystroke_o	o	n/a
240.3075	0.105	480615	keystroke_v	v	n/a
240.4275	0.1045	480855	keystroke_e	e	n/a
240.5175	0.1045	481035	keystroke_r	r	n/a
240.862	0.075	481724	keystroke_Key.space	Key.space	n/a
241.072	0.105	482144	keystroke_s	s	n/a
241.252	0.105	482504	keystroke_e	e	n/a
241.372	0.09	482744	keystroke_a	a	n/a
241.417	0.105	482834	keystroke_r	r	n/a
241.597	0.1355	483194	keystroke_c	c	n/a
241.688	0.0745	483376	keystroke_h	h	n/a
241.7625	0.1645	483525	keystroke_i	i	n/a
241.8375	0.1195	483675	keystroke_n	n	n/a
241.942	0.06	483884	keystroke_g	g	n/a
242.047	0.1055	484094	keystroke_Key.space	Key.space	n/a
242.4975	0.105	484995	keystroke_t	t	n/a
242.5725	0.075	485145	keystroke_i	i	n/a
242.6175	0.135	485235	keystroke_n	n	n/a
242.7225	0.12	485445	keystroke_i	i	n/a
243.802	0.12	487604	keystroke_a	a	n/a
243.862	0.15	487724	keystroke_d	d	n/a
244.3875	0.06	488775	keystroke_Key.backspace	Key.backspace	n/a
244.507	0.075	489014	keystroke_Key.backspace	Key.backspace	n/a
244.8825	0.075	489765	keystroke_Key.backspace	Key.backspace	n/a
245.0325	0.06	490065	keystroke_Key.backspace	Key.backspace	n/a
245.1525	0.075	490305	keystroke_Key.backspace	Key.backspace	n/a
245.2575	0.105	490515	keystroke_r	r	n/a
245.4675	0.09	490935	keystroke_i	i	n/a
245.5725	0.12	491145	keystroke_n	n	n/a
245.8575	0.075	491715	keystroke_i	i	n/a
246.1275	0.09	492255	keystroke_d	d	n/a
246.2625	0.135	492525	keystroke_a	a	n/a
246.3525	0.165	492705	keystroke_d	d	n/a
246.5925	0.09	493185	keystroke_Key.space	Key.space	n/a
246.7275	0.12	493455	keystroke_r	r	n/a
246.7875	0.12	493575	keystroke_e	e	n/a
247.3575	0.09	494715	keystroke_d	d	n/a
247.5075	0.06	495015	keystroke_u	u	n/a
247.6275	0.105	495255	keystroke_c	c	n/a
247.7625	0.105	495525	keystroke_e	e	n/a
247.9275	0.135	495855	keystroke_s	s	n/a
248.917	0.075	497834	keystroke_Key.enter	Key.enter	n/a
248.999	9.64	497998	prompt	n/a	quality faqs inch diseases\n
249.667	0.09	499334	keystroke_q	q	n/a
249.802	0.075	499604	keystroke_u	u	n/a
249.922	0.135	499844	keystroke_a	a	n/a
250.042	0.06	500084	keystroke_l	l	n/a
250.177	0.06	500354	keystroke_i	i	n/a
250.252	0.105	500504	keystroke_t	t	n/a
250.342	0.105	500684	keystroke_y	y	n/a
250.477	0.09	500954	keystroke_Key.space	Key.space	n/a
250.657	0.18	501314	keystroke_f	f	n/a
250.777	0.15	501554	keystroke_a	a	n/a
250.988	0.134	501976	keystroke_w	w	n/a
251.977	0.075	503954	keystroke_Key.backspace	Key.backspace	n/a
252.308	0.119	504616	keystroke_q	q	n/a
252.503	0.074	505006	keystroke_s	s	n/a
252.787	0.09	505574	keystroke_Key.space	Key.space	n/a
253.027	0.105	506054	keystroke_i	i	n/a
253.072	0.105	506144	keystroke_n	n	n/a
253.222	0.1205	506444	keystroke_c	c	n/a
253.3575	0.06	506715	keystroke_h	h	n/a
253.5075	0.075	507015	keystroke_Key.space	Key.space	n/a
254.1525	0.1055	508305	keystroke_d	d	n/a
254.228	0.075	508456	keystroke_i	i	n/a
254.363	0.12	508726	keystroke_s	s	n/a
254.573	0.105	509146	keystroke_e	e	n/a
254.693	0.1345	509386	keystroke_a	a	n/a
254.7975	0.15	509595	keystroke_s	s	n/a
255.8475	0.06	511695	keystroke_e	e	n/a
256.0275	0.09	512055	keystroke_s	s	n/a
258.6245	0.013	517249	keystroke_Key.enter	Key.enter	n/a
258.642	9.357	517284	prompt	n/a	initiatives marble appointment expressions\n
259.2675	0.105	518535	keystroke_n	n	n/a
259.3275	0.12	518655	keystroke_i	i	n/a
259.882	0.075	519764	keystroke_Key.backspace	Key.backspace	n/a
260.017	0.09	520034	keystroke_Key.backspace	Key.backspace	n/a
260.227	0.075	520454	keystroke_i	i	n/a
260.317	0.09	520634	keystroke_n	n	n/a
260.422	0.09	520844	keystroke_i	i	n/a
260.902	0.1205	521804	keystroke_t	t	n/a
261.0375	0.045	522075	keystroke_i	i	n/a
261.1875	0.12	522375	keystroke_a	a	n/a
261.3825	0.09	522765	keystroke_t	t	n/a
261.4875	0.075	522975	keystroke_i	i	n/a
261.7575	0.09	523515	keystroke_v	v	n/a
261.8175	0.12	523635	keystroke_e	e	n/a
262.0425	0.105	524085	keystroke_s	s	n/a
262.372	0.105	524744	keystroke_m	m	n/a
262.792	0.03	525584	keystroke_Key.backspace	Key.backspace	n/a
262.943	0.075	525886	keystroke_Key.space	Key.space	n/a
263.078	0.09	526156	keystroke_m	m	n/a
263.198	0.09	526396	keystroke_a	a	n/a
263.243	0.12	526486	keystroke_r	r	n/a
263.468	0.09	526936	keystroke_b	b	n/a
263.543	0.075	527086	keystroke_l	l	n/a
263.648	0.1045	527296	keystroke_e	e	n/a
263.8425	0.075	527685	keystroke_Key.space	Key.space	n/a
264.0975	0.1345	528195	keystroke_a	a	n/a
264.202	0.09	528404	keystroke_p	p	n/a
264.337	0.1055	528674	keystroke_p	p	n/a
264.5025	0.075	529005	keystroke_o	o	n/a
264.6375	0.09	529275	keystroke_i	i	n/a
264.6825	0.105	529365	keystroke_n	n	n/a
264.7725	0.105	529545	keystroke_t	t	n/a
264.8775	0.12	529755	keystroke_m	m	n/a
264.9825	0.075	529965	keystroke_e	e	n/a
265.0425	0.1045	530085	keystroke_n	n	n/a
265.132	0.09	530264	keystroke_t	t	n/a
265.597	0.09	531194	keystroke_Key.space	Key.space	n/a
265.867	0.06	531734	keystroke_e	e	n/a
266.047	0.0905	532094	keystroke_x	x	n/a
266.1825	0.075	532365	keystroke_p	p	n/a
266.3025	0.105	532605	keystroke_r	r	n/a
266.3475	0.0895	532695	keystroke_e	e	n/a
266.512	0.105	533024	keystroke_s	s	n/a
266.677	0.105	533354	keystroke_s	s	n/a
266.767	0.045	533534	keystroke_i	i	n/a
266.887	0.105	533774	keystroke_o	o	n/a
266.932	0.105	533864	keystroke_n	n	n/a
267.067	0.105	534134	keystroke_s	s	n/a
267.787	0.2105	535574	keystroke_Key.enter	Key.enter	n/a
268.0025	7.3315	536005	prompt	n/a	everywhere deals isbn dated\n
268.627	0.09	537254	keystroke_e	e	n/a
268.852	0.075	537704	keystroke_v	v	n/a
268.942	0.1205	537884	keystroke_e	e	n/a
269.0475	0.105	538095	keystroke_r	r	n/a
269.212	0.09	538424	keystroke_y	y	n/a
269.4225	0.09	538845	keystroke_w	w	n/a
269.5575	0.09	539115	keystroke_h	h	n/a
269.6775	0.1045	539355	keystroke_e	e	n/a
269.737	0.18	539474	keystroke_r	r	n/a
269.872	0.12	539744	keystroke_e	e	n/a
270.052	0.076	540104	keystroke_Key.space	Key.space	n/a
270.233	0.03	540466	keystroke_e	e	n/a
270.7575	0.09	541515	keystroke_Key.backspace	Key.backspace	n/a
270.8775	0.075	541755	keystroke_d	d	n/a
271.0575	0.075	542115	keystroke_e	e	n/a
271.1925	0.15	542385	keystroke_a	a	n/a
271.3725	0.075	542745	keystroke_l	l	n/a
271.4775	0.12	542955	keystroke_s	s	n/a
271.7325	0.09	543465	keystroke_Key.space	Key.space	n/a
272.0025	0.09	544005	keystroke_i	i	n/a
272.0625	0.12	544125	keystroke_s	s	n/a
272.453	0.09	544906	keystroke_b	b	n/a
272.618	0.075	545236	keystroke_n	n	n/a
272.753	0.105	545506	keystroke_Key.space	Key.space	n/a
272.888	0.105	545776	keystroke_d	d	n/a
273.038	0.12	546076	keystroke_a	a	n/a
273.172	0.1655	546344	keystroke_t	t	n/a
273.2775	0.12	546555	keystroke_e	e	n/a
273.5475	0.105	547095	keystroke_s	s	n/a
274.222	0.075	548444	keystroke_Key.backspace	Key.backspace	n/a
274.313	0.059	548626	keystroke_d	d	n/a
275.2575	0.075	550515	keystroke_Key.enter	Key.enter	n/a
275.337	8.532	550674	prompt	n/a	replication ordinance deaths favorite\n
275.8875	0.12	551775	keystroke_r	r	n/a
275.9325	0.165	551865	keystroke_e	e	n/a
276.0825	0.0895	552165	keystroke_p	p	n/a
276.577	0.12	553154	keystroke_p	p	n/a
276.637	0.09	553274	keystroke_l	l	n/a
276.802	0.075	553604	keystroke_o	o	n/a
277.267	0.0755	554534	keystroke_Key.backspace	Key.backspace	n/a
277.402	0.06	554804	keystroke_Key.backspace	Key.backspace	n/a
277.522	0.075	555044	keystroke_Key.backspace	Key.backspace	n/a
277.717	0.075	555434	keystroke_l	l	n/a
277.882	0.075	555764	keystroke_i	i	n/a
277.972	0.105	555944	keystroke_c	c	n/a
278.017	0.09	556034	keystroke_a	a	n/a
278.213	0.105	556426	keystroke_t	t	n/a
278.303	0.03	556606	keystroke_i	i	n/a
278.408	0.09	556816	keystroke_o	o	n/a
278.438	0.09	556876	keystroke_n	n	n/a
278.573	0.105	557146	keystroke_Key.space	Key.space	n/a
278.843	0.075	557686	keystroke_o	o	n/a
278.933	0.0745	557866	keystroke_r	r	n/a
279.2475	0.075	558495	keystroke_d	d	n/a
279.3525	0.075	558705	keystroke_i	i	n/a
279.7575	0.0745	559515	keystroke_n	n	n/a
279.847	0.1205	559694	keystroke_a	a	n/a
279.9525	0.075	559905	keystroke_n	n	n/a
280.0575	0.1055	560115	keystroke_c	c	n/a
280.1025	0.1055	560205	keystroke_e	e	n/a
280.268	0.075	560536	keystroke_Key.space	Key.space	n/a
280.433	0.12	560866	keystroke_f	f	n/a
280.493	0.135	560986	keystroke_e	e	n/a
280.613	0.12	561226	keystroke_a	a	n/a
280.988	0.075	561976	keystroke_Key.backspace	Key.backspace	n/a
281.1525	0.06	562305	keystroke_Key.backspace	Key.backspace	n/a
281.272	0.045	562544	keystroke_Key.backspace	Key.backspace	n/a
281.378	0.075	562756	keystroke_d	d	n/a
281.528	0.075	563056	keystroke_e	e	n/a
281.603	0.119	563206	keystroke_a	a	n/a
281.812	0.076	563624	keystroke_t	t	n/a
281.842	0.09	563684	keystroke_h	h	n/a
282.007	0.12	564014	keystroke_s	s	n/a
282.097	0.075	564194	keystroke_Key.space	Key.space	n/a
282.187	0.135	564374	keystroke_f	f	n/a
282.262	0.045	564524	keystroke_d	d	n/a
282.337	0.105	564674	keystroke_a	a	n/a
282.712	0.06	565424	keystroke_Key.backspace	Key.backspace	n/a
282.8325	0.105	565665	keystroke_Key.backspace	Key.backspace	n/a
282.9525	0.0895	565905	keystroke_a	a	n/a
283.087	0.105	566174	keystroke_v	v	n/a
283.162	0.09	566324	keystroke_o	o	n/a
283.312	0.105	566624	keystroke_r	r	n/a
283.402	0.075	566804	keystroke_i	i	n/a
283.492	0.12	566984	keystroke_t	t	n/a
283.552	0.12	567104	keystroke_e	e	n/a
283.777	0.09	567554	keystroke_Key.enter	Key.enter	n/a
283.8715	14.248	567743	prompt	n/a	enhancement learners quizzes budapest\n
284.4825	0.075	568965	keystroke_e	e	n/a
284.6175	0.09	569235	keystroke_n	n	n/a
284.9325	0.09	569865	keystroke_h	h	n/a
285.0525	0.105	570105	keystroke_a	a	n/a
285.3525	0.09	570705	keystroke_n	n	n/a
285.5175	0.1195	571035	keystroke_c	c	n/a
285.607	0.1055	571214	keystroke_e	e	n/a
285.7575	0.0895	571515	keystroke_m	m	n/a
285.832	0.09	571664	keystroke_e	e	n/a
285.937	0.075	571874	keystroke_n	n	n/a
286.042	0.076	572084	keystroke_t	t	n/a
286.1475	0.075	572295	keystroke_Key.space	Key.space	n/a
286.343	0.105	572686	keystroke_l	l	n/a
286.433	0.09	572866	keystroke_e	e	n/a
286.508	0.165	573016	keystroke_a	a	n/a
287.108	0.104	574216	keystroke_r	r	n/a
287.227	0.06	574454	keystroke_n	n	n/a
287.332	0.15	574664	keystroke_e	e	n/a
287.422	0.09	574844	keystroke_r	r	n/a
287.603	0.104	575206	keystroke_s	s	n/a
287.722	0.09	575444	keystroke_Key.space	Key.space	n/a
287.872	0.106	575744	keystroke_q	q	n/a
287.992	0.045	575984	keystroke_u	u	n/a
288.1425	0.075	576285	keystroke_i	i	n/a
288.517	0.076	577034	keystroke_z	z	n/a
288.607	0.106	577214	keystroke_z	z	n/a
288.8775	0.09	577755	keystroke_z	z	n/a
289.1325	0.045	578265	keystroke_e	e	n/a
289.2675	0.09	578535	keystroke_s	s	n/a
289.3725	0.09	578745	keystroke_Key.space	Key.space	n/a
289.6275	0.105	579255	keystroke_b	b	n/a
289.7475	0.03	579495	keystroke_u	u	n/a
289.8375	0.075	579675	keystroke_d	d	n/a
290.0475	0.105	580095	keystroke_a	a	n/a
290.2125	0.105	580425	keystroke_p	p	n/a
290.5125	0.075	581025	keystroke_e	e	n/a
290.6175	0.135	581235	keystroke_s	s	n/a
290.7225	0.12	581445	keystroke_t	t	n/a
294.835	0.012	589670	keystroke_Key.left	Key.left	n/a
294.922	0.06	589844	keystroke_Key.left	Key.left	n/a
295.057	0.075	590114	keystroke_Key.left	Key.left	n/a
295.207	0.075	590414	keystroke_Key.left	Key.left	n/a
295.357	0.075	590714	keystroke_Key.left	Key.left	n/a
295.522	0.06	591044	keystroke_Key.left	Key.left	n/a
295.657	0.075	591314	keystroke_Key.left	Key.left	n/a
295.807	0.075	591614	keystroke_Key.left	Key.left	n/a
295.942	0.075	591884	keystroke_Key.left	Key.left	n/a
296.1075	0.0595	592215	keystroke_Key.left	Key.left	n/a
296.227	0.075	592454	keystroke_Key.left	Key.left	n/a
296.962	0.06	593924	keystroke_Key.backspace	Key.backspace	n/a
298.0575	0.0595	596115	keystroke_Key.enter	Key.enter	n/a
298.123	4.721	596246	prompt	n/a	after free glasses vermont\n
298.732	0.06	597464	keystroke_a	a	n/a
299.062	0.105	598124	keystroke_f	f	n/a
299.227	0.105	598454	keystroke_t	t	n/a
299.317	0.15	598634	keystroke_e	e	n/a
299.437	0.12	598874	keystroke_r	r	n/a
299.572	0.09	599144	keystroke_Key.space	Key.space	n/a
299.677	0.09	599354	keystroke_f	f	n/a
299.857	0.09	599714	keystroke_r	r	n/a
299.917	0.075	599834	keystroke_e	e	n/a
300.037	0.1055	600074	keystroke_e	e	n/a
300.2025	0.105	600405	keystroke_Key.space	Key.space	n/a
300.5325	0.0895	601065	keystroke_g	g	n/a
300.667	0.075	601334	keystroke_l	l	n/a
300.772	0.12	601544	keystroke_a	a	n/a
300.877	0.06	601754	keystroke_s	s	n/a
301.012	0.09	602024	keystroke_s	s	n/a
301.162	0.09	602324	keystroke_e	e	n/a
301.237	0.12	602474	keystroke_s	s	n/a
301.417	0.075	602834	keystroke_Key.space	Key.space	n/a
301.822	0.075	603644	keystroke_v	v	n/a
301.912	0.105	603824	keystroke_e	e	n/a
301.972	0.12	603944	keystroke_r	r	n/a
302.137	0.105	604274	keystroke_m	m	n/a
302.243	0.119	604486	keystroke_o	o	n/a
302.317	0.09	604634	keystroke_n	n	n/a
302.422	0.09	604844	keystroke_t	t	n/a
302.752	0.09	605504	keystroke_Key.enter	Key.enter	n/a
302.8465	4.4525	605693	prompt	n/a	rebates broader fair nest\n
303.517	0.12	607034	keystroke_r	r	n/a
303.547	0.1505	607094	keystroke_e	e	n/a
303.952	0.105	607904	keystroke_b	b	n/a
304.102	0.12	608204	keystroke_a	a	n/a
304.2675	0.1045	608535	keystroke_t	t	n/a
304.327	0.105	608654	keystroke_e	e	n/a
304.522	0.091	609044	keystroke_s	s	n/a
304.627	0.06	609254	keystroke_Key.space	Key.space	n/a
304.762	0.09	609524	keystroke_b	b	n/a
304.897	0.105	609794	keystroke_r	r	n/a
305.017	0.075	610034	keystroke_o	o	n/a
305.107	0.15	610214	keystroke_a	a	n/a
305.242	0.105	610484	keystroke_d	d	n/a
305.423	0.104	610846	keystroke_e	e	n/a
305.482	0.165	610964	keystroke_r	r	n/a
305.633	0.104	611266	keystroke_Key.space	Key.space	n/a
305.812	0.135	611624	keystroke_f	f	n/a
305.902	0.1505	611804	keystroke_a	a	n/a
306.0675	0.0745	612135	keystroke_i	i	n/a
306.172	0.105	612344	keystroke_r	r	n/a
306.232	0.09	612464	keystroke_Key.space	Key.space	n/a
306.412	0.075	612824	keystroke_n	n	n/a
306.502	0.105	613004	keystroke_e	e	n/a
306.697	0.105	613394	keystroke_s	s	n/a
306.757	0.12	613514	keystroke_t	t	n/a
307.2225	0.075	614445	keystroke_Key.enter	Key.enter	n/a
307.3025	6.971	614605	prompt	n/a	sponsor monica victims basis\n
307.987	0.135	615974	keystroke_s	s	n/a
308.107	0.03	616214	keystroke_p	p	n/a
308.182	0.12	616364	keystroke_o	o	n/a
308.242	0.105	616484	keystroke_n	n	n/a
308.377	0.135	616754	keystroke_s	s	n/a
308.482	0.075	616964	keystroke_o	o	n/a
308.602	0.105	617204	keystroke_r	r	n/a
308.692	0.075	617384	keystroke_Key.space	Key.space	n/a
308.947	0.09	617894	keystroke_m	m	n/a
309.007	0.09	618014	keystroke_o	o	n/a
309.112	0.105	618224	keystroke_n	n	n/a
309.202	0.09	618404	keystroke_i	i	n/a
309.367	0.12	618734	keystroke_c	c	n/a
309.442	0.12	618884	keystroke_a	a	n/a
309.622	0.105	619244	keystroke_Key.space	Key.space	n/a
310.0125	0.1045	620025	keystroke_v	v	n/a
310.522	0.075	621044	keystroke_i	i	n/a
310.612	0.12	621224	keystroke_c	c	n/a
310.852	0.09	621704	keystroke_t	t	n/a
310.927	0.12	621854	keystroke_i	i	n/a
310.972	0.105	621944	keystroke_m	m	n/a
311.122	0.12	622244	keystroke_s	s	n/a
311.227	0.105	622454	keystroke_Key.space	Key.space	n/a
311.467	0.105	622934	keystroke_b	b	n/a
311.587	0.165	623174	keystroke_a	a	n/a
311.677	0.15	623354	keystroke_s	s	n/a
311.842	0.105	623684	keystroke_i	i	n/a
311.932	0.12	623864	keystroke_s	s	n/a
314.259	0.013	628518	keystroke_Key.enter	Key.enter	n/a
314.279	10.18	628558	prompt	n/a	sequences messenger quarters laboratories\n
315.4425	0.09	630885	keystroke_s	s	n/a
315.6675	0.09	631335	keystroke_e	e	n/a
316.0125	0.075	632025	keystroke_q	q	n/a
316.2525	0.09	632505	keystroke_u	u	n/a
316.3575	0.09	632715	keystroke_e	e	n/a
316.4475	0.075	632895	keystroke_n	n	n/a
316.5375	0.12	633075	keystroke_c	c	n/a
316.6125	0.105	633225	keystroke_e	e	n/a
316.7625	0.1645	633525	keystroke_s	s	n/a
316.882	0.105	633764	keystroke_Key.space	Key.space	n/a
317.107	0.105	634214	keystroke_m	m	n/a
317.228	0.075	634456	keystroke_e	e	n/a
317.422	0.06	634844	keystroke_s	s	n/a
317.527	0.15	635054	keystroke_s	s	n/a
317.678	0.134	635356	keystroke_a	a	n/a
317.782	0.151	635564	keystroke_g	g	n/a
317.888	0.12	635776	keystroke_e	e	n/a
317.992	0.09	635984	keystroke_Key.space	Key.space	n/a
318.277	0.091	636554	keystroke_q	q	n/a
318.412	0.061	636824	keystroke_u	u	n/a
318.502	0.18	637004	keystroke_a	a	n/a
318.638	0.104	637276	keystroke_r	r	n/a
318.847	0.105	637694	keystroke_t	t	n/a
318.937	0.1505	637874	keystroke_e	e	n/a
319.027	0.1205	638054	keystroke_r	r	n/a
319.2075	0.15	638415	keystroke_s	s	n/a
319.3575	0.075	638715	keystroke_Key.space	Key.space	n/a
319.5675	0.09	639135	keystroke_l	l	n/a
319.6725	0.21	639345	keystroke_a	a	n/a
319.8675	0.12	639735	keystroke_b	b	n/a
320.0325	0.09	640065	keystroke_o	o	n/a
320.257	0.105	640514	keystroke_r	r	n/a
320.3775	0.075	640755	keystroke_i	i	n/a
320.8125	0.09	641625	keystroke_Key.backspace	Key.backspace	n/a
320.9175	0.135	641835	keystroke_a	a	n/a
321.0675	0.12	642135	keystroke_t	t	n/a
323.4545	0.028	646909	keystroke_o	o	n/a
323.5125	0.12	647025	keystroke_r	r	n/a
323.6175	0.06	647235	keystroke_i	i	n/a
323.6925	0.09	647385	keystroke_e	e	n/a
323.8725	0.12	647745	keystroke_s	s	n/a
324.3825	0.075	648765	keystroke_Key.enter	Key.enter	n/a
324.4615	6.552	648923	prompt	n/a	battlefield sticky sleep incentives\n
325.0875	0.105	650175	keystroke_b	b	n/a
325.2225	0.135	650445	keystroke_a	a	n/a
325.3875	0.075	650775	keystroke_t	t	n/a
325.5075	0.105	651015	keystroke_t	t	n/a
325.6275	0.09	651255	keystroke_l	l	n/a
325.6875	0.09	651375	keystroke_e	e	n/a
326.137	0.105	652274	keystroke_f	f	n/a
326.257	0.075	652514	keystroke_i	i	n/a
326.317	0.1205	652634	keystroke_e	e	n/a
326.4525	0.09	652905	keystroke_l	l	n/a
326.5275	0.09	653055	keystroke_d	d	n/a
326.6325	0.09	653265	keystroke_Key.space	Key.space	n/a
326.7525	0.09	653505	keystroke_s	s	n/a
326.8575	0.075	653715	keystroke_t	t	n/a
326.9325	0.075	653865	keystroke_i	i	n/a
327.0375	0.105	654075	keystroke_c	c	n/a
327.0975	0.09	654195	keystroke_k	k	n/a
327.3075	0.09	654615	keystroke_y	y	n/a
327.3825	0.075	654765	keystroke_Key.space	Key.space	n/a
327.5325	0.12	655065	keystroke_s	s	n/a
327.6375	0.09	655275	keystroke_l	l	n/a
327.7425	0.075	655485	keystroke_e	e	n/a
327.8775	0.12	655755	keystroke_e	e	n/a
327.9525	0.09	655905	keystroke_p	p	n/a
328.1025	0.0895	656205	keystroke_Key.space	Key.space	n/a
328.237	0.105	656474	keystroke_i	i	n/a
328.282	0.09	656564	keystroke_n	n	n/a
328.492	0.06	656984	keystroke_v	v	n/a
328.8975	0.09	657795	keystroke_Key.backspace	Key.backspace	n/a
328.9875	0.105	657975	keystroke_c	c	n/a
329.0475	0.105	658095	keystroke_e	e	n/a
329.1675	0.075	658335	keystroke_n	n	n/a
329.3475	0.09	658695	keystroke_t	t	n/a
329.4675	0.075	658935	keystroke_i	i	n/a
329.5725	0.12	659145	keystroke_v	v	n/a
329.6475	0.12	659295	keystroke_e	e	n/a
329.842	0.12	659684	keystroke_s	s	n/a
330.938	0.075	661876	keystroke_Key.enter	Key.enter	n/a
331.0165	4.1825	662033	prompt	n/a	theft robin burns play\n
332.0175	0.075	664035	keystroke_t	t	n/a
332.0625	0.0755	664125	keystroke_h	h	n/a
332.183	0.165	664366	keystroke_e	e	n/a
332.273	0.135	664546	keystroke_f	f	n/a
332.483	0.09	664966	keystroke_t	t	n/a
332.558	0.105	665116	keystroke_Key.space	Key.space	n/a
332.648	0.075	665296	keystroke_r	r	n/a
332.738	0.0895	665476	keystroke_o	o	n/a
332.8285	0.119	665657	keystroke_b	b	n/a
332.9325	0.12	665865	keystroke_i	i	n/a
332.9775	0.105	665955	keystroke_n	n	n/a
333.4125	0.09	666825	keystroke_Key.space	Key.space	n/a
333.6675	0.09	667335	keystroke_b	b	n/a
333.7875	0.075	667575	keystroke_u	u	n/a
333.8775	0.105	667755	keystroke_r	r	n/a
333.9675	0.075	667935	keystroke_n	n	n/a
334.0725	0.12	668145	keystroke_s	s	n/a
334.1775	0.105	668355	keystroke_Key.space	Key.space	n/a
334.3725	0.105	668745	keystroke_p	p	n/a
334.4175	0.105	668835	keystroke_l	l	n/a
334.5075	0.105	669015	keystroke_a	a	n/a
334.6875	0.09	669375	keystroke_y	y	n/a
335.107	0.09	670214	keystroke_Key.enter	Key.enter	n/a
335.201	9.808	670402	prompt	n/a	comparison upcoming kill fight\n
335.752	0.135	671504	keystroke_c	c	n/a
335.797	0.105	671594	keystroke_o	o	n/a
335.843	0.074	671686	keystroke_m	m	n/a
336.007	0.091	672014	keystroke_p	p	n/a
336.052	0.1355	672104	keystroke_a	a	n/a
336.2025	0.12	672405	keystroke_r	r	n/a
336.5175	0.075	673035	keystroke_i	i	n/a
336.6225	0.105	673245	keystroke_s	s	n/a
336.6975	0.12	673395	keystroke_o	o	n/a
336.7575	0.09	673515	keystroke_n	n	n/a
336.8925	0.105	673785	keystroke_Key.space	Key.space	n/a
337.1475	0.075	674295	keystroke_u	u	n/a
337.327	0.09	674654	keystroke_p	p	n/a
337.462	0.105	674924	keystroke_o	o	n/a
337.702	0.12	675404	keystroke_c	c	n/a
337.777	0.105	675554	keystroke_o	o	n/a
337.837	0.075	675674	keystroke_m	m	n/a
337.957	0.105	675914	keystroke_i	i	n/a
337.988	0.104	675976	keystroke_n	n	n/a
338.1075	0.0895	676215	keystroke_g	g	n/a
338.182	0.09	676364	keystroke_Key.space	Key.space	n/a
338.347	0.06	676694	keystroke_f	f	n/a
338.392	0.06	676784	keystroke_k	k	n/a
338.647	0.0905	677294	keystroke_Key.backspace	Key.backspace	n/a
338.7825	0.06	677565	keystroke_Key.backspace	Key.backspace	n/a
338.9625	0.075	677925	keystroke_k	k	n/a
339.0975	0.075	678195	keystroke_i	i	n/a
339.2325	0.075	678465	keystroke_l	l	n/a
339.3525	0.12	678705	keystroke_l	l	n/a
339.4575	0.09	678915	keystroke_Key.space	Key.space	n/a
340.3725	0.09	680745	keystroke_f	f	n/a
340.4775	0.075	680955	keystroke_i	i	n/a
340.5975	0.075	681195	keystroke_g	g	n/a
340.6575	0.105	681315	keystroke_h	h	n/a
340.7625	0.075	681525	keystroke_t	t	n/a
341.5275	0.075	683055	keystroke_Key.left	Key.left	n/a
341.6775	0.06	683355	keystroke_Key.left	Key.left	n/a
341.8125	0.06	683625	keystroke_Key.left	Key.left	n/a
341.9475	0.075	683895	keystroke_Key.left	Key.left	n/a
342.0825	0.06	684165	keystroke_Key.left	Key.left	n/a
342.2175	0.06	684435	keystroke_Key.left	Key.left	n/a
342.3675	0.075	684735	keystroke_Key.left	Key.left	n/a
342.5025	0.075	685005	keystroke_Key.left	Key.left	n/a
342.6375	0.09	685275	keystroke_Key.left	Key.left	n/a
342.7875	0.075	685575	keystroke_Key.left	Key.left	n/a
342.9375	0.075	685875	keystroke_Key.left	Key.left	n/a
343.0875	0.075	686175	keystroke_Key.left	Key.left	n/a
343.2375	0.075	686475	keystroke_Key.left	Key.left	n/a
343.3875	0.06	686775	keystroke_Key.left	Key.left	n/a
343.5225	0.075	687045	keystroke_Key.left	Key.left	n/a
343.6725	0.06	687345	keystroke_Key.left	Key.left	n/a
344.0175	0.09	688035	keystroke_Key.right	Key.right	n/a
344.3025	0.045	688605	keystroke_Key.backspace	Key.backspace	n/a
344.9175	0.09	689835	keystroke_Key.enter	Key.enter	n/a
345.012	6.387	690024	prompt	n/a	scales youth lands custody\n
345.5625	0.09	691125	keystroke_s	s	n/a
345.7875	0.15	691575	keystroke_c	c	n/a
345.8775	0.15	691755	keystroke_a	a	n/a
345.9975	0.09	691995	keystroke_l	l	n/a
346.0725	0.0745	692145	keystroke_e	e	n/a
346.177	0.15	692354	keystroke_s	s	n/a
346.297	0.0905	692594	keystroke_Key.space	Key.space	n/a
346.5825	0.105	693165	keystroke_y	y	n/a
346.6575	0.075	693315	keystroke_o	o	n/a
346.8075	0.0745	693615	keystroke_u	u	n/a
346.897	0.09	693794	keystroke_t	t	n/a
346.942	0.105	693884	keystroke_h	h	n/a
347.062	0.09	694124	keystroke_Key.space	Key.space	n/a
347.227	0.09	694454	keystroke_l	l	n/a
347.332	0.09	694664	keystroke_a	a	n/a
347.392	0.075	694784	keystroke_n	n	n/a
347.482	0.12	694964	keystroke_d	d	n/a
347.557	0.12	695114	keystroke_s	s	n/a
347.737	0.105	695474	keystroke_Key.space	Key.space	n/a
347.857	0.106	695714	keystroke_c	c	n/a
347.978	0.045	695956	keystroke_u	u	n/a
348.038	0.1345	696076	keystroke_s	s	n/a
348.1575	0.1045	696315	keystroke_t	t	n/a
348.248	0.104	696496	keystroke_o	o	n/a
348.292	0.09	696584	keystroke_m	m	n/a
348.413	0.104	696826	keystroke_y	y	n/a
348.742	0.075	697484	keystroke_Key.backspace	Key.backspace	n/a
348.892	0.03	697784	keystroke_Key.backspace	Key.backspace	n/a
348.967	0.06	697934	keystroke_Key.backspace	Key.backspace	n/a
349.672	0.09	699344	keystroke_o	o	n/a
349.777	0.09	699554	keystroke_d	d	n/a
349.927	0.105	699854	keystroke_y	y	n/a
351.307	0.09	702614	keystroke_Key.enter	Key.enter	n/a
351.4015	12.2675	702803	prompt	n/a	maryland probe orders call\n
352.042	0.0905	704084	keystroke_m	m	n/a
352.1625	0.135	704325	keystroke_a	a	n/a
352.3125	0.12	704625	keystroke_r	r	n/a
352.7625	0.075	705525	keystroke_y	y	n/a
352.9275	0.09	705855	keystroke_l	l	n/a
353.1375	0.075	706275	keystroke_n	n	n/a
353.2275	0.075	706455	keystroke_d	d	n/a
353.3475	0.09	706695	keystroke_Key.space	Key.space	n/a
353.6775	0.09	707355	keystroke_p	p	n/a
354.0525	0.0595	708105	keystroke_Key.backspace	Key.backspace	n/a
354.202	0.06	708404	keystroke_Key.backspace	Key.backspace	n/a
354.337	0.06	708674	keystroke_Key.backspace	Key.backspace	n/a
354.472	0.075	708944	keystroke_Key.backspace	Key.backspace	n/a
354.667	0.09	709334	keystroke_a	a	n/a
354.742	0.0905	709484	keystroke_n	n	n/a
354.8475	0.075	709695	keystroke_d	d	n/a
354.967	0.045	709934	keystroke_Key.space	Key.space	n/a
355.0875	0.105	710175	keystroke_p	p	n/a
355.2375	0.06	710475	keystroke_r	r	n/a
355.2825	0.09	710565	keystroke_o	o	n/a
355.4175	0.1345	710835	keystroke_v	v	n/a
355.5075	0.1345	711015	keystroke_e	e	n/a
356.0025	0.06	712005	keystroke_Key.backspace	Key.backspace	n/a
356.152	0.06	712304	keystroke_Key.backspace	Key.backspace	n/a
356.197	0.105	712394	keystroke_b	b	n/a
356.272	0.135	712544	keystroke_e	e	n/a
356.842	0.0905	713684	keystroke_Key.space	Key.space	n/a
357.0075	0.09	714015	keystroke_o	o	n/a
357.1125	0.06	714225	keystroke_r	r	n/a
357.2925	0.105	714585	keystroke_d	d	n/a
357.4875	0.12	714975	keystroke_e	e	n/a
357.5175	0.105	715035	keystroke_r	r	n/a
357.7425	0.09	715485	keystroke_s	s	n/a
357.8475	0.06	715695	keystroke_Key.space	Key.space	n/a
358.0425	0.105	716085	keystroke_c	c	n/a
358.1025	0.135	716205	keystroke_a	a	n/a
358.1925	0.06	716385	keystroke_l	l	n/a
358.2975	0.075	716595	keystroke_l	l	n/a
363.6545	0.013	727309	keystroke_Key.enter	Key.enter	n/a
363.6725	5.4715	727345	prompt	n/a	payments even procedures credit\n
364.4025	0.06	728805	keystroke_a	a	n/a
364.6125	0.09	729225	keystroke_Key.backspace	Key.backspace	n/a
364.7775	0.09	729555	keystroke_p	p	n/a
364.8825	0.06	729765	keystroke_a	a	n/a
365.0175	0.105	730035	keystroke_y	y	n/a
365.1075	0.09	730215	keystroke_m	m	n/a
365.1825	0.105	730365	keystroke_e	e	n/a
365.2725	0.075	730545	keystroke_n	n	n/a
365.3175	0.105	730635	keystroke_t	t	n/a
365.4375	0.12	730875	keystroke_s	s	n/a
365.5725	0.075	731145	keystroke_Key.space	Key.space	n/a
365.7375	0.12	731475	keystroke_e	e	n/a
365.8875	0.105	731775	keystroke_v	v	n/a
365.9475	0.12	731895	keystroke_e	e	n/a
366.0825	0.0605	732165	keystroke_n	n	n/a
366.203	0.09	732406	keystroke_Key.space	Key.space	n/a
366.368	0.105	732736	keystroke_p	p	n/a
366.488	0.09	732976	keystroke_r	r	n/a
366.593	0.06	733186	keystroke_o	o	n/a
366.788	0.12	733576	keystroke_c	c	n/a
366.833	0.135	733666	keystroke_e	e	n/a
367.3125	0.105	734625	keystroke_d	d	n/a
367.4475	0.075	734895	keystroke_u	u	n/a
367.5675	0.075	735135	keystroke_r	r	n/a
367.5825	0.105	735165	keystroke_e	e	n/a
367.7475	0.15	735495	keystroke_s	s	n/a
367.8975	0.09	735795	keystroke_Key.space	Key.space	n/a
368.0175	0.105	736035	keystroke_c	c	n/a
368.2275	0.12	736455	keystroke_r	r	n/a
368.2875	0.09	736575	keystroke_e	e	n/a
368.4675	0.09	736935	keystroke_d	d	n/a
368.5725	0.06	737145	keystroke_i	i	n/a
368.7375	0.075	737475	keystroke_t	t	n/a
369.0825	0.06	738165	keystroke_Key.enter	Key.enter	n/a
369.148	6.641	738296	prompt	n/a	wiley webcast record rocket\n
369.7425	0.12	739485	keystroke_w	w	n/a
369.8475	0.06	739695	keystroke_i	i	n/a
369.9825	0.105	739965	keystroke_l	l	n/a
370.148	0.12	740296	keystroke_e	e	n/a
370.358	0.105	740716	keystroke_y	y	n/a
370.463	0.09	740926	keystroke_Key.space	Key.space	n/a
370.643	0.15	741286	keystroke_w	w	n/a
370.763	0.105	741526	keystroke_e	e	n/a
370.943	0.09	741886	keystroke_b	b	n/a
371.168	0.12	742336	keystroke_c	c	n/a
371.228	0.135	742456	keystroke_a	a	n/a
371.482	0.091	742964	keystroke_t	t	n/a
372.1425	0.105	744285	keystroke_Key.backspace	Key.backspace	n/a
372.2475	0.105	744495	keystroke_s	s	n/a
372.3225	0.105	744645	keystroke_t	t	n/a
372.4275	0.0895	744855	keystroke_Key.space	Key.space	n/a
372.6225	0.12	745245	keystroke_r	r	n/a
372.6825	0.0905	745365	keystroke_e	e	n/a
372.893	0.09	745786	keystroke_c	c	n/a
372.968	0.105	745936	keystroke_o	o	n/a
373.088	0.045	746176	keystroke_r	r	n/a
373.223	0.12	746446	keystroke_d	d	n/a
373.313	0.09	746626	keystroke_Key.space	Key.space	n/a
373.553	0.075	747106	keystroke_r	r	n/a
373.643	0.06	747286	keystroke_o	o	n/a
373.733	0.105	747466	keystroke_c	c	n/a
373.808	0.09	747616	keystroke_k	k	n/a
373.913	0.165	747826	keystroke_e	e	n/a
374.018	0.12	748036	keystroke_t	t	n/a
375.712	0.075	751424	keystroke_Key.enter	Key.enter	n/a
375.792	6.822	751584	prompt	n/a	olympics safe bears avoiding\n
376.3425	0.09	752685	keystroke_o	o	n/a
376.4925	0.105	752985	keystroke_l	l	n/a
376.6575	0.105	753315	keystroke_y	y	n/a
376.7475	0.09	753495	keystroke_m	m	n/a
376.897	0.076	753794	keystroke_p	p	n/a
377.063	0.09	754126	keystroke_i	i	n/a
377.138	0.135	754276	keystroke_c	c	n/a
377.183	0.18	754366	keystroke_s	s	n/a
377.348	0.075	754696	keystroke_Key.space	Key.space	n/a
377.468	0.15	754936	keystroke_s	s	n/a
377.603	0.135	755206	keystroke_a	a	n/a
377.723	0.135	755446	keystroke_f	f	n/a
377.798	0.075	755596	keystroke_e	e	n/a
377.918	0.105	755836	keystroke_Key.space	Key.space	n/a
378.6075	0.12	757215	keystroke_v	v	n/a
378.6975	0.165	757395	keystroke_e	e	n/a
379.1025	0.075	758205	keystroke_Key.backspace	Key.backspace	n/a
379.2375	0.075	758475	keystroke_Key.backspace	Key.backspace	n/a
379.2975	0.09	758595	keystroke_b	b	n/a
379.4325	0.105	758865	keystroke_e	e	n/a
379.5675	0.1205	759135	keystroke_a	a	n/a
379.658	0.135	759316	keystroke_r	r	n/a
379.898	0.105	759796	keystroke_s	s	n/a
380.048	0.0895	760096	keystroke_Key.space	Key.space	n/a
380.2125	0.105	760425	keystroke_v	v	n/a
380.4525	0.09	760905	keystroke_Key.backspace	Key.backspace	n/a
380.5575	0.09	761115	keystroke_a	a	n/a
380.6475	0.15	761295	keystroke_v	v	n/a
380.7825	0.09	761565	keystroke_o	o	n/a
380.8875	0.0895	761775	keystroke_d	d	n/a
380.962	0.135	761924	keystroke_i	i	n/a
381.037	0.106	762074	keystroke_n	n	n/a
381.157	0.09	762314	keystroke_g	g	n/a
381.532	0.06	763064	keystroke_Key.backspace	Key.backspace	n/a
381.667	0.075	763334	keystroke_Key.backspace	Key.backspace	n/a
381.802	0.075	763604	keystroke_Key.backspace	Key.backspace	n/a
381.937	0.075	763874	keystroke_Key.backspace	Key.backspace	n/a
382.1175	0.06	764235	keystroke_i	i	n/a
382.1625	0.105	764325	keystroke_d	d	n/a
382.2525	0.09	764505	keystroke_i	i	n/a
382.2975	0.075	764595	keystroke_n	n	n/a
382.3425	0.09	764685	keystroke_g	g	n/a
382.5225	0.09	765045	keystroke_Key.enter	Key.enter	n/a
382.6165	5.7725	765233	prompt	n/a	peninsula odds worried he'll\n
383.438	0.014	766876	keystroke_p	p	n/a
383.482	0.075	766964	keystroke_e	e	n/a
384.052	0.075	768104	keystroke_n	n	n/a
384.1875	0.12	768375	keystroke_i	i	n/a
384.2925	0.075	768585	keystroke_n	n	n/a
384.7875	0.12	769575	keystroke_s	s	n/a
384.8625	0.06	769725	keystroke_u	u	n/a
385.0275	0.09	770055	keystroke_l	l	n/a
385.162	0.105	770324	keystroke_a	a	n/a
385.447	0.06	770894	keystroke_Key.space	Key.space	n/a
385.597	0.075	771194	keystroke_o	o	n/a
385.837	0.06	771674	keystroke_d	d	n/a
385.972	0.135	771944	keystroke_d	d	n/a
386.092	0.15	772184	keystroke_s	s	n/a
386.257	0.06	772514	keystroke_Key.space	Key.space	n/a
386.332	0.0905	772664	keystroke_w	w	n/a
386.4225	0.06	772845	keystroke_o	o	n/a
386.4975	0.06	772995	keystroke_r	r	n/a
386.6325	0.09	773265	keystroke_r	r	n/a
386.7525	0.06	773505	keystroke_i	i	n/a
386.8275	0.06	773655	keystroke_e	e	n/a
387.0375	0.09	774075	keystroke_d	d	n/a
387.2025	0.09	774405	keystroke_Key.space	Key.space	n/a
387.4275	0.075	774855	keystroke_h	h	n/a
387.5175	0.12	775035	keystroke_e	e	n/a
387.7275	0.1045	775455	keystroke_'	'	n/a
387.967	0.06	775934	keystroke_l	l	n/a
388.087	0.091	776174	keystroke_l	l	n/a
388.297	0.091	776594	keystroke_Key.enter	Key.enter	n/a
388.3935	7.48	776787	prompt	n/a	intake nuts maintains accompanied\n
389.048	0.1045	778096	keystroke_i	i	n/a
389.093	0.1045	778186	keystroke_n	n	n/a
389.2125	0.105	778425	keystroke_t	t	n/a
389.2725	0.12	778545	keystroke_a	a	n/a
389.3625	0.075	778725	keystroke_k	k	n/a
389.4525	0.105	778905	keystroke_e	e	n/a
389.5425	0.075	779085	keystroke_Key.space	Key.space	n/a
389.6925	0.105	779385	keystroke_n	n	n/a
389.7525	0.105	779505	keystroke_u	u	n/a
389.8425	0.105	779685	keystroke_t	t	n/a
389.8875	0.09	779775	keystroke_e	e	n/a
390.0675	0.12	780135	keystroke_s	s	n/a
390.1275	0.09	780255	keystroke_Key.space	Key.space	n/a
390.292	0.09	780584	keystroke_m	m	n/a
391.207	0.0605	782414	keystroke_Key.backspace	Key.backspace	n/a
391.3575	0.06	782715	keystroke_Key.backspace	Key.backspace	n/a
391.492	0.075	782984	keystroke_Key.backspace	Key.backspace	n/a
391.657	0.045	783314	keystroke_Key.backspace	Key.backspace	n/a
391.747	0.0905	783494	keystroke_s	s	n/a
391.8975	0.0755	783795	keystroke_Key.space	Key.space	n/a
392.093	0.0895	784186	keystroke_m	m	n/a
392.1975	0.1355	784395	keystroke_a	a	n/a
392.3025	0.0755	784605	keystroke_i	i	n/a
392.348	0.075	784696	keystroke_n	n	n/a
392.438	0.12	784876	keystroke_t	t	n/a
392.5425	0.1505	785085	keystroke_a	a	n/a
392.6775	0.105	785355	keystroke_i	i	n/a
392.723	0.0895	785446	keystroke_n	n	n/a
392.8425	0.105	785685	keystroke_s	s	n/a
393.3075	0.015	786615	keystroke_Key.space	Key.space	n/a
393.3675	0.105	786735	keystroke_a	a	n/a
393.7125	0.075	787425	keystroke_c	c	n/a
393.8625	0.045	787725	keystroke_c	c	n/a
394.1775	0.105	788355	keystroke_o	o	n/a
394.2375	0.09	788475	keystroke_m	m	n/a
394.4475	0.09	788895	keystroke_p	p	n/a
394.823	0.119	789646	keystroke_a	a	n/a
394.957	0.12	789914	keystroke_n	n	n/a
395.032	0.09	790064	keystroke_i	i	n/a
395.273	0.074	790546	keystroke_e	e	n/a
395.452	0.075	790904	keystroke_d	d	n/a
395.797	0.075	791594	keystroke_Key.enter	Key.enter	n/a
395.876	6.5825	791752	prompt	n/a	craig brook serving cattle\n
396.517	0.105	793034	keystroke_c	c	n/a
396.697	0.06	793394	keystroke_r	r	n/a
396.847	0.1355	793694	keystroke_a	a	n/a
396.9675	0.06	793935	keystroke_i	i	n/a
397.0425	0.12	794085	keystroke_f	f	n/a
397.2225	0.075	794445	keystroke_Key.space	Key.space	n/a
397.4025	0.09	794805	keystroke_b	b	n/a
397.6275	0.075	795255	keystroke_Key.backspace	Key.backspace	n/a
397.7775	0.075	795555	keystroke_Key.backspace	Key.backspace	n/a
398.1675	0.075	796335	keystroke_Key.backspace	Key.backspace	n/a
398.8275	0.0895	797655	keystroke_g	g	n/a
398.9025	0.0895	797805	keystroke_Key.space	Key.space	n/a
399.007	0.09	798014	keystroke_b	b	n/a
399.082	0.06	798164	keystroke_o	o	n/a
399.202	0.105	798404	keystroke_o	o	n/a
399.382	0.105	798764	keystroke_k	k	n/a
399.442	0.105	798884	keystroke_Key.space	Key.space	n/a
399.832	0.12	799664	keystroke_s	s	n/a
400.087	0.121	800174	keystroke_e	e	n/a
400.102	0.091	800204	keystroke_r	r	n/a
400.538	0.09	801076	keystroke_v	v	n/a
400.658	0.12	801316	keystroke_i	i	n/a
400.718	0.09	801436	keystroke_n	n	n/a
400.823	0.0895	801646	keystroke_g	g	n/a
400.9725	0.105	801945	keystroke_Key.space	Key.space	n/a
401.318	0.1495	802636	keystroke_c	c	n/a
401.4525	0.105	802905	keystroke_a	a	n/a
401.6475	0.06	803295	keystroke_t	t	n/a
401.7675	0.135	803535	keystroke_t	t	n/a
401.9175	0.06	803835	keystroke_l	l	n/a
401.9925	0.09	803985	keystroke_e	e	n/a
402.382	0.075	804764	keystroke_Key.enter	Key.enter	n/a
402.4615	6.6875	804923	prompt	n/a	savage rely cancel reproduction\n
403.0575	0.12	806115	keystroke_s	s	n/a
403.3125	0.09	806625	keystroke_a	a	n/a
403.462	0.12	806924	keystroke_v	v	n/a
403.612	0.105	807224	keystroke_a	a	n/a
403.912	0.075	807824	keystroke_g	g	n/a
403.942	0.105	807884	keystroke_e	e	n/a
404.122	0.075	808244	keystroke_Key.space	Key.space	n/a
404.302	0.1205	808604	keystroke_r	r	n/a
404.3475	0.105	808695	keystroke_e	e	n/a
404.4675	0.075	808935	keystroke_l	l	n/a
404.6025	0.075	809205	keystroke_l	l	n/a
404.6925	0.075	809385	keystroke_y	y	n/a
405.1425	0.075	810285	keystroke_Key.backspace	Key.backspace	n/a
405.2775	0.09	810555	keystroke_Key.backspace	Key.backspace	n/a
405.3975	0.0895	810795	keystroke_y	y	n/a
405.592	0.075	811184	keystroke_Key.space	Key.space	n/a
405.877	0.12	811754	keystroke_c	c	n/a
405.937	0.12	811874	keystroke_a	a	n/a
406.042	0.06	812084	keystroke_n	n	n/a
406.162	0.12	812324	keystroke_c	c	n/a
406.252	0.105	812504	keystroke_e	e	n/a
406.417	0.075	812834	keystroke_l	l	n/a
406.567	0.09	813134	keystroke_Key.space	Key.space	n/a
406.822	0.1205	813644	keystroke_r	r	n/a
406.837	0.1205	813674	keystroke_e	e	n/a
407.3325	0.09	814665	keystroke_p	p	n/a
407.5425	0.09	815085	keystroke_r	r	n/a
407.6475	0.075	815295	keystroke_o	o	n/a
407.7525	0.12	815505	keystroke_d	d	n/a
407.8875	0.045	815775	keystroke_u	u	n/a
407.9775	0.09	815955	keystroke_c	c	n/a
408.1575	0.105	816315	keystroke_t	t	n/a
408.2325	0.06	816465	keystroke_i	i	n/a
408.3525	0.135	816705	keystroke_o	o	n/a
408.4275	0.09	816855	keystroke_n	n	n/a
409.0725	0.075	818145	keystroke_Key.enter	Key.enter	n/a
409.1515	4.212	818303	prompt	n/a	sell allows weekend sink\n
409.6725	0.06	819345	keystroke_s	s	n/a
410.107	0.0755	820214	keystroke_e	e	n/a
410.332	0.075	820664	keystroke_l	l	n/a
410.452	0.0905	820904	keystroke_l	l	n/a
410.5875	0.09	821175	keystroke_Key.space	Key.space	n/a
410.6625	0.105	821325	keystroke_a	a	n/a
410.7525	0.09	821505	keystroke_l	l	n/a
410.8725	0.075	821745	keystroke_l	l	n/a
411.007	0.075	822014	keystroke_o	o	n/a
411.097	0.0755	822194	keystroke_w	w	n/a
411.2625	0.105	822525	keystroke_s	s	n/a
411.3225	0.09	822645	keystroke_Key.space	Key.space	n/a
411.4875	0.12	822975	keystroke_w	w	n/a
411.7125	0.075	823425	keystroke_e	e	n/a
411.8475	0.105	823695	keystroke_e	e	n/a
411.9675	0.075	823935	keystroke_k	k	n/a
412.0275	0.09	824055	keystroke_e	e	n/a
412.1475	0.075	824295	keystroke_n	n	n/a
412.297	0.09	824594	keystroke_d	d	n/a
412.552	0.0755	825104	keystroke_Key.space	Key.space	n/a
412.7025	0.12	825405	keystroke_s	s	n/a
412.8075	0.075	825615	keystroke_i	i	n/a
412.8375	0.105	825675	keystroke_n	n	n/a
412.9725	0.105	825945	keystroke_k	k	n/a
413.2725	0.09	826545	keystroke_Key.enter	Key.enter	n/a
413.3665	8.862	826733	prompt	n/a	shirts icons competitions population\n
414.0375	0.09	828075	keystroke_s	s	n/a
414.3375	0.105	828675	keystroke_h	h	n/a
414.4725	0.045	828945	keystroke_i	i	n/a
414.8625	0.15	829725	keystroke_r	r	n/a
414.9975	0.1195	829995	keystroke_s	s	n/a
415.222	0.09	830444	keystroke_t	t	n/a
415.582	0.075	831164	keystroke_Key.backspace	Key.backspace	n/a
415.717	0.09	831434	keystroke_Key.backspace	Key.backspace	n/a
415.822	0.105	831644	keystroke_t	t	n/a
415.882	0.135	831764	keystroke_s	s	n/a
416.692	0.09	833384	keystroke_Key.space	Key.space	n/a
417.112	0.075	834224	keystroke_i	i	n/a
417.202	0.105	834404	keystroke_c	c	n/a
417.277	0.105	834554	keystroke_o	o	n/a
417.337	0.075	834674	keystroke_n	n	n/a
417.397	0.105	834794	keystroke_s	s	n/a
417.502	0.09	835004	keystroke_Key.space	Key.space	n/a
417.712	0.105	835424	keystroke_c	c	n/a
417.802	0.075	835604	keystroke_o	o	n/a
417.832	0.075	835664	keystroke_m	m	n/a
417.967	0.09	835934	keystroke_p	p	n/a
418.102	0.0895	836204	keystroke_o	o	n/a
418.1765	0.105	836353	keystroke_e	e	n/a
418.3265	0.1355	836653	keystroke_t	t	n/a
418.7175	0.06	837435	keystroke_Key.backspace	Key.backspace	n/a
418.8375	0.09	837675	keystroke_Key.backspace	Key.backspace	n/a
418.9575	0.0745	837915	keystroke_Key.backspace	Key.backspace	n/a
419.0175	0.105	838035	keystroke_e	e	n/a
419.1075	0.12	838215	keystroke_t	t	n/a
419.4525	0.0745	838905	keystroke_i	i	n/a
419.5425	0.1195	839085	keystroke_t	t	n/a
419.632	0.06	839264	keystroke_i	i	n/a
419.767	0.09	839534	keystroke_o	o	n/a
419.797	0.105	839594	keystroke_n	n	n/a
419.917	0.12	839834	keystroke_s	s	n/a
420.022	0.09	840044	keystroke_Key.space	Key.space	n/a
420.262	0.09	840524	keystroke_p	p	n/a
420.472	0.06	840944	keystroke_o	o	n/a
421.072	0.09	842144	keystroke_p	p	n/a
421.312	0.06	842624	keystroke_u	u	n/a
421.492	0.075	842984	keystroke_l	l	n/a
421.582	0.105	843164	keystroke_a	a	n/a
421.672	0.105	843344	keystroke_t	t	n/a
421.732	0.06	843464	keystroke_i	i	n/a
421.8525	0.09	843705	keystroke_o	o	n/a
421.8825	0.105	843765	keystroke_n	n	n/a
422.1525	0.075	844305	keystroke_Key.enter	Key.enter	n/a
422.232	20.7115	844464	prompt	n/a	regarding remembered thee maintaining\n
422.7825	0.135	845565	keystroke_r	r	n/a
422.8275	0.105	845655	keystroke_e	e	n/a
422.9925	0.12	845985	keystroke_g	g	n/a
423.1125	0.12	846225	keystroke_a	a	n/a
423.2175	0.12	846435	keystroke_r	r	n/a
423.3825	0.1345	846765	keystroke_d	d	n/a
423.532	0.135	847064	keystroke_i	i	n/a
423.607	0.105	847214	keystroke_n	n	n/a
423.727	0.075	847454	keystroke_g	g	n/a
424.177	0.12	848354	keystroke_Key.space	Key.space	n/a
424.492	0.12	848984	keystroke_r	r	n/a
424.552	0.1355	849104	keystroke_e	e	n/a
424.7325	0.09	849465	keystroke_m	m	n/a
424.7925	0.105	849585	keystroke_e	e	n/a
425.0175	0.09	850035	keystroke_b	b	n/a
425.1225	0.195	850245	keystroke_e	e	n/a
425.2425	0.045	850485	keystroke_r	r	n/a
425.7375	0.075	851475	keystroke_d	d	n/a
426.0375	0.075	852075	keystroke_Key.backspace	Key.backspace	n/a
426.142	0.09	852284	keystroke_e	e	n/a
426.307	0.09	852614	keystroke_d	d	n/a
426.382	0.075	852764	keystroke_Key.space	Key.space	n/a
426.682	0.105	853364	keystroke_t	t	n/a
426.742	0.105	853484	keystroke_h	h	n/a
426.997	0.06	853994	keystroke_e	e	n/a
427.117	0.105	854234	keystroke_e	e	n/a
427.237	0.045	854474	keystroke_Key.space	Key.space	n/a
427.357	0.105	854714	keystroke_m	m	n/a
427.477	0.105	854954	keystroke_a	a	n/a
427.567	0.105	855134	keystroke_i	i	n/a
427.627	0.105	855254	keystroke_n	n	n/a
427.702	0.12	855404	keystroke_t	t	n/a
427.777	0.12	855554	keystroke_a	a	n/a
427.837	0.105	855674	keystroke_i	i	n/a
427.882	0.105	855764	keystroke_n	n	n/a
428.002	0.09	856004	keystroke_g	g	n/a
431.2745	0.402	862549	keystroke_Key.left	Key.left	n/a
432.0075	0.09	864015	keystroke_Key.left	Key.left	n/a
433.912	0.075	867824	keystroke_Key.left	Key.left	n/a
434.3325	0.09	868665	keystroke_Key.right	Key.right	n/a
434.5125	0.09	869025	keystroke_Key.right	Key.right	n/a
435.217	0.09	870434	keystroke_Key.left	Key.left	n/a
435.937	0.06	871874	keystroke_n	n	n/a
436.282	0.06	872564	keystroke_i	i	n/a
437.5875	0.075	875175	keystroke_Key.left	Key.left	n/a
437.7525	0.045	875505	keystroke_Key.left	Key.left	n/a
437.8725	0.06	875745	keystroke_Key.left	Key.left	n/a
438.0225	0.06	876045	keystroke_Key.left	Key.left	n/a
438.1575	0.075	876315	keystroke_Key.left	Key.left	n/a
438.3075	0.06	876615	keystroke_Key.left	Key.left	n/a
438.4425	0.075	876885	keystroke_Key.left	Key.left	n/a
438.5925	0.075	877185	keystroke_Key.left	Key.left	n/a
438.7425	0.06	877485	keystroke_Key.left	Key.left	n/a
438.8925	0.06	877785	keystroke_Key.left	Key.left	n/a
439.0575	0.06	878115	keystroke_Key.left	Key.left	n/a
439.2075	0.06	878415	keystroke_Key.left	Key.left	n/a
439.3575	0.06	878715	keystroke_Key.left	Key.left	n/a
439.5075	0.06	879015	keystroke_Key.left	Key.left	n/a
439.642	0.0755	879284	keystroke_Key.left	Key.left	n/a
439.807	0.06	879614	keystroke_Key.left	Key.left	n/a
439.972	0.06	879944	keystroke_Key.left	Key.left	n/a
440.1225	0.075	880245	keystroke_Key.left	Key.left	n/a
440.2725	0.075	880545	keystroke_Key.left	Key.left	n/a
440.4375	0.075	880875	keystroke_Key.left	Key.left	n/a
441.442	0.075	882884	keystroke_Key.left	Key.left	n/a
441.592	0.105	883184	keystroke_Key.left	Key.left	n/a
442.327	0.075	884654	keystroke_m	m	n/a
442.867	0.075	885734	keystroke_Key.enter	Key.enter	n/a
442.9465	4.272	885893	prompt	n/a	shooting on can't mails\n
443.587	0.0755	887174	keystroke_s	s	n/a
443.7525	0.12	887505	keystroke_h	h	n/a
443.8275	0.06	887655	keystroke_o	o	n/a
443.9475	0.09	887895	keystroke_o	o	n/a
444.0375	0.089	888075	keystroke_t	t	n/a
444.1425	0.104	888285	keystroke_i	i	n/a
444.1715	0.106	888343	keystroke_n	n	n/a
444.2165	0.106	888433	keystroke_g	g	n/a
444.4715	0.09	888943	keystroke_Key.space	Key.space	n/a
444.7115	0.105	889423	keystroke_o	o	n/a
444.7725	0.075	889545	keystroke_n	n	n/a
444.9065	0.09	889813	keystroke_Key.space	Key.space	n/a
445.028	0.104	890056	keystroke_c	c	n/a
445.087	0.135	890174	keystroke_a	a	n/a
445.177	0.075	890354	keystroke_n	n	n/a
445.417	0.09	890834	keystroke_'	'	n/a
445.612	0.06	891224	keystroke_t	t	n/a
445.762	0.06	891524	keystroke_Key.space	Key.space	n/a
445.958	0.089	891916	keystroke_m	m	n/a
446.557	0.135	893114	keystroke_a	a	n/a
446.662	0.075	893324	keystroke_i	i	n/a
446.842	0.09	893684	keystroke_l	l	n/a
446.947	0.09	893894	keystroke_s	s	n/a
447.127	0.09	894254	keystroke_Key.enter	Key.enter	n/a
447.221	6.1475	894442	prompt	n/a	sonic forum downloadable terminal\n
447.8175	0.105	895635	keystroke_s	s	n/a
447.8925	0.09	895785	keystroke_o	o	n/a
448.0275	0.09	896055	keystroke_n	n	n/a
448.1475	0.075	896295	keystroke_i	i	n/a
448.2675	0.12	896535	keystroke_c	c	n/a
448.3725	0.075	896745	keystroke_Key.space	Key.space	n/a
448.5075	0.12	897015	keystroke_f	f	n/a
448.5975	0.09	897195	keystroke_o	o	n/a
448.7325	0.135	897465	keystroke_r	r	n/a
448.8075	0.075	897615	keystroke_u	u	n/a
448.9875	0.06	897975	keystroke_m	m	n/a
449.0625	0.09	898125	keystroke_s	s	n/a
449.422	0.075	898844	keystroke_Key.backspace	Key.backspace	n/a
449.692	0.075	899384	keystroke_Key.space	Key.space	n/a
449.797	0.09	899594	keystroke_d	d	n/a
449.9475	0.09	899895	keystroke_o	o	n/a
450.157	0.09	900314	keystroke_w	w	n/a
450.248	0.089	900496	keystroke_n	n	n/a
450.427	0.075	900854	keystroke_l	l	n/a
450.547	0.075	901094	keystroke_o	o	n/a
450.607	0.135	901214	keystroke_a	a	n/a
450.697	0.12	901394	keystroke_d	d	n/a
451.252	0.09	902504	keystroke_a	a	n/a
451.432	0.105	902864	keystroke_b	b	n/a
451.552	0.06	903104	keystroke_l	l	n/a
451.642	0.105	903284	keystroke_e	e	n/a
451.807	0.075	903614	keystroke_Key.space	Key.space	n/a
451.972	0.06	903944	keystroke_t	t	n/a
452.017	0.1355	904034	keystroke_e	e	n/a
452.4225	0.09	904845	keystroke_r	r	n/a
452.5875	0.09	905175	keystroke_m	m	n/a
452.7225	0.12	905445	keystroke_i	i	n/a
452.7825	0.075	905565	keystroke_n	n	n/a
452.8725	0.12	905745	keystroke_a	a	n/a
452.9775	0.09	905955	keystroke_l	l	n/a
453.292	0.075	906584	keystroke_Key.enter	Key.enter	n/a
453.371	6.5675	906742	prompt	n/a	childhood natural questions coordinate\n
453.9525	0.12	907905	keystroke_c	c	n/a
454.1025	0.12	908205	keystroke_h	h	n/a
454.1625	0.09	908325	keystroke_i	i	n/a
454.3425	0.075	908685	keystroke_l	l	n/a
454.4025	0.075	908805	keystroke_d	d	n/a
454.6725	0.1045	909345	keystroke_h	h	n/a
454.792	0.06	909584	keystroke_o	o	n/a
454.912	0.075	909824	keystroke_o	o	n/a
455.062	0.09	910124	keystroke_d	d	n/a
455.692	0.075	911384	keystroke_Key.space	Key.space	n/a
455.857	0.0745	911714	keystroke_n	n	n/a
455.9165	0.105	911833	keystroke_a	a	n/a
456.0365	0.106	912073	keystroke_t	t	n/a
456.1425	0.075	912285	keystroke_u	u	n/a
456.2615	0.076	912523	keystroke_r	r	n/a
456.3665	0.166	912733	keystroke_a	a	n/a
456.5025	0.105	913005	keystroke_l	l	n/a
456.6515	0.105	913303	keystroke_Key.space	Key.space	n/a
456.9365	0.12	913873	keystroke_q	q	n/a
457.0875	0.059	914175	keystroke_u	u	n/a
457.1625	0.06	914325	keystroke_e	e	n/a
457.2365	0.151	914473	keystroke_s	s	n/a
457.3565	0.105	914713	keystroke_t	t	n/a
457.4165	0.06	914833	keystroke_i	i	n/a
457.5365	0.106	915073	keystroke_o	o	n/a
457.5825	0.089	915165	keystroke_n	n	n/a
457.6875	0.09	915375	keystroke_s	s	n/a
457.7615	0.09	915523	keystroke_Key.space	Key.space	n/a
457.9575	0.105	915915	keystroke_c	c	n/a
458.0475	0.075	916095	keystroke_o	o	n/a
458.1665	0.075	916333	keystroke_o	o	n/a
458.2715	0.075	916543	keystroke_r	r	n/a
458.4665	0.061	916933	keystroke_d	d	n/a
458.5565	0.105	917113	keystroke_i	i	n/a
458.6165	0.076	917233	keystroke_n	n	n/a
458.7375	0.105	917475	keystroke_a	a	n/a
458.9025	0.12	917805	keystroke_t	t	n/a
458.9625	0.105	917925	keystroke_e	e	n/a
459.8625	0.075	919725	keystroke_Key.enter	Key.enter	n/a
459.9415	4.332	919883	prompt	n/a	gets scanned latest contacts\n
460.567	0.075	921134	keystroke_g	g	n/a
460.612	0.15	921224	keystroke_e	e	n/a
460.732	0.09	921464	keystroke_t	t	n/a
460.852	0.105	921704	keystroke_s	s	n/a
460.958	0.074	921916	keystroke_Key.space	Key.space	n/a
461.062	0.105	922124	keystroke_s	s	n/a
461.182	0.135	922364	keystroke_c	c	n/a
461.272	0.135	922544	keystroke_a	a	n/a
461.377	0.06	922754	keystroke_n	n	n/a
461.497	0.075	922994	keystroke_n	n	n/a
461.587	0.045	923174	keystroke_e	e	n/a
461.722	0.0905	923444	keystroke_d	d	n/a
461.782	0.0605	923564	keystroke_Key.space	Key.space	n/a
461.9025	0.075	923805	keystroke_l	l	n/a
461.9925	0.09	923985	keystroke_a	a	n/a
462.1425	0.12	924285	keystroke_t	t	n/a
462.2175	0.12	924435	keystroke_e	e	n/a
462.412	0.09	924824	keystroke_s	s	n/a
462.472	0.12	924944	keystroke_t	t	n/a
462.622	0.075	925244	keystroke_Key.space	Key.space	n/a
462.7425	0.105	925485	keystroke_c	c	n/a
462.8175	0.09	925635	keystroke_o	o	n/a
462.8775	0.075	925755	keystroke_n	n	n/a
463.147	0.12	926294	keystroke_t	t	n/a
463.222	0.135	926444	keystroke_a	a	n/a
463.402	0.105	926804	keystroke_c	c	n/a
463.612	0.075	927224	keystroke_t	t	n/a
463.777	0.105	927554	keystroke_s	s	n/a
464.1975	0.075	928395	keystroke_Key.enter	Key.enter	n/a
464.278	5.7105	928556	prompt	n/a	permalink compact upset bell\n
464.8575	0.09	929715	keystroke_p	p	n/a
464.9625	0.105	929925	keystroke_e	e	n/a
465.0225	0.135	930045	keystroke_r	r	n/a
465.1725	0.0745	930345	keystroke_m	m	n/a
465.307	0.12	930614	keystroke_a	a	n/a
465.4865	0.09	930973	keystroke_l	l	n/a
465.6515	0.075	931303	keystroke_i	i	n/a
465.6825	0.089	931365	keystroke_n	n	n/a
465.8015	0.105	931603	keystroke_k	k	n/a
465.9215	0.09	931843	keystroke_Key.space	Key.space	n/a
466.222	0.12	932444	keystroke_c	c	n/a
466.297	0.075	932594	keystroke_o	o	n/a
466.357	0.06	932714	keystroke_m	m	n/a
466.477	0.105	932954	keystroke_p	p	n/a
466.567	0.105	933134	keystroke_a	a	n/a
466.642	0.12	933284	keystroke_c	c	n/a
466.867	0.075	933734	keystroke_t	t	n/a
467.032	0.075	934064	keystroke_Key.space	Key.space	n/a
467.287	0.06	934574	keystroke_u	u	n/a
467.482	0.09	934964	keystroke_p	p	n/a
467.557	0.09	935114	keystroke_s	s	n/a
467.737	0.12	935474	keystroke_e	e	n/a
467.782	0.15	935564	keystroke_t	t	n/a
468.112	0.0745	936224	keystroke_Key.space	Key.space	n/a
468.2625	0.074	936525	keystroke_b	b	n/a
468.6515	0.09	937303	keystroke_e	e	n/a
468.8015	0.061	937603	keystroke_l	l	n/a
468.8915	0.09	937783	keystroke_l	l	n/a
469.927	0.06	939854	keystroke_Key.enter	Key.enter	n/a
469.991	4.858	939982	prompt	n/a	loves vote spell derby\n
470.542	0.075	941084	keystroke_l	l	n/a
470.692	0.075	941384	keystroke_o	o	n/a
470.782	0.09	941564	keystroke_v	v	n/a
470.827	0.1045	941654	keystroke_e	e	n/a
471.0065	0.12	942013	keystroke_s	s	n/a
471.1115	0.075	942223	keystroke_Key.space	Key.space	n/a
471.3515	0.045	942703	keystroke_v	v	n/a
471.7115	0.06	943423	keystroke_o	o	n/a
471.8465	0.12	943693	keystroke_t	t	n/a
471.9065	0.105	943813	keystroke_e	e	n/a
472.0265	0.075	944053	keystroke_Key.space	Key.space	n/a
472.1465	0.105	944293	keystroke_s	s	n/a
472.2525	0.0745	944505	keystroke_p	p	n/a
472.342	0.105	944684	keystroke_e	e	n/a
472.462	0.045	944924	keystroke_l	l	n/a
472.537	0.09	945074	keystroke_l	l	n/a
472.687	0.105	945374	keystroke_Key.space	Key.space	n/a
473.017	0.015	946034	keystroke_d	d	n/a
473.137	0.135	946274	keystroke_e	e	n/a
473.212	0.12	946424	keystroke_r	r	n/a
473.467	0.105	946934	keystroke_b	b	n/a
473.752	0.045	947504	keystroke_y	y	n/a
474.772	0.075	949544	keystroke_Key.enter	Key.enter	n/a
474.8515	13.422	949703	prompt	n/a	uzbekistan unknown occurrence produced\n
475.657	0.06	951314	keystroke_u	u	n/a
475.8675	0.12	951735	keystroke_z	z	n/a
476.2725	0.075	952545	keystroke_b	b	n/a
476.422	0.09	952844	keystroke_e	e	n/a
477.037	0.075	954074	keystroke_k	k	n/a
477.202	0.045	954404	keystroke_i	i	n/a
477.277	0.09	954554	keystroke_s	s	n/a
477.382	0.12	954764	keystroke_t	t	n/a
477.472	0.12	954944	keystroke_a	a	n/a
477.607	0.06	955214	keystroke_n	n	n/a
478.2825	0.075	956565	keystroke_Key.space	Key.space	n/a
478.6725	0.09	957345	keystroke_n	n	n/a
479.287	0.09	958574	keystroke_Key.backspace	Key.backspace	n/a
480.757	0.09	961514	keystroke_u	u	n/a
480.802	0.09	961604	keystroke_n	n	n/a
480.952	0.105	961904	keystroke_k	k	n/a
481.132	0.09	962264	keystroke_o	o	n/a
481.222	0.12	962444	keystroke_w	w	n/a
481.327	0.075	962654	keystroke_n	n	n/a
482.1215	0.075	964243	keystroke_Key.backspace	Key.backspace	n/a
482.2865	0.06	964573	keystroke_Key.backspace	Key.backspace	n/a
482.4065	0.075	964813	keystroke_Key.backspace	Key.backspace	n/a
482.6165	0.06	965233	keystroke_n	n	n/a
482.7075	0.074	965415	keystroke_o	o	n/a
482.7975	0.119	965595	keystroke_w	w	n/a
482.9015	0.06	965803	keystroke_n	n	n/a
483.1115	0.075	966223	keystroke_Key.space	Key.space	n/a
483.3975	0.089	966795	keystroke_o	o	n/a
483.5165	0.075	967033	keystroke_c	c	n/a
483.6515	0.105	967303	keystroke_c	c	n/a
483.7715	0.06	967543	keystroke_u	u	n/a
483.8775	0.059	967755	keystroke_r	r	n/a
484.0125	0.1045	968025	keystroke_e	e	n/a
484.147	0.075	968294	keystroke_n	n	n/a
484.237	0.135	968474	keystroke_c	c	n/a
484.312	0.15	968624	keystroke_e	e	n/a
484.417	0.075	968834	keystroke_Key.space	Key.space	n/a
484.657	0.09	969314	keystroke_p	p	n/a
484.792	0.0905	969584	keystroke_r	r	n/a
484.8525	0.0745	969705	keystroke_o	o	n/a
484.957	0.09	969914	keystroke_d	d	n/a
485.0625	0.0595	970125	keystroke_u	u	n/a
485.137	0.15	970274	keystroke_c	c	n/a
485.272	0.09	970544	keystroke_e	e	n/a
485.437	0.1055	970874	keystroke_d	d	n/a
488.2595	0.012	976519	keystroke_Key.enter	Key.enter	n/a
488.277	6.2215	976554	prompt	n/a	expected sponsorship gates pretty\n
488.8425	0.09	977685	keystroke_s	s	n/a
