onset	duration	sample	value	key	prompt_text
15.367	16.5125	30734	prompt	n/a	the quick brown fox jumps over a lazy dog\n
18.8295	0.102	37659	keystroke	t	n/a
18.8715	0.135	37743	keystroke	h	n/a
19.0215	0.15	38043	keystroke	e	n/a
19.1865	0.135	38373	keystroke	Key.space	n/a
20.2815	0.105	40563	keystroke	q	n/a
20.4165	0.12	40833	keystroke	u	n/a
20.6265	0.12	41253	keystroke	i	n/a
21.5265	0.15	43053	keystroke	c	n/a
21.6315	0.15	43263	keystroke	k	n/a
21.8265	0.12	43653	keystroke	Key.space	n/a
22.1265	0.105	44253	keystroke	b	n/a
22.2765	0.165	44553	keystroke	r	n/a
22.4415	0.135	44883	keystroke	o	n/a
22.5915	0.435	45183	keystroke	w	n/a
23.6715	0.105	47343	keystroke	n	n/a
23.8515	0.105	47703	keystroke	Key.space	n/a
24.3315	0.09	48663	keystroke	f	n/a
24.4515	0.105	48903	keystroke	o	n/a
25.2915	0.15	50583	keystroke	x	n/a
25.8915	0.105	51783	keystroke	Key.space	n/a
26.0565	0.09	52113	keystroke	j	n/a
26.2665	0.105	52533	keystroke	u	n/a
26.7465	0.165	53493	keystroke	m	n/a
26.8965	0.136	53793	keystroke	p	n/a
27.1365	0.1505	54273	keystroke	s	n/a
27.377	0.15	54754	keystroke	Key.space	n/a
27.662	0.15	55324	keystroke	o	n/a
27.992	0.15	55984	keystroke	v	n/a
28.322	0.15	56644	keystroke	e	n/a
28.412	0.15	56824	keystroke	r	n/a
28.952	0.12	57904	keystroke	Key.space	n/a
29.117	0.165	58234	keystroke	a	n/a
29.267	0.15	58534	keystroke	Key.space	n/a
29.642	0.105	59284	keystroke	l	n/a
29.762	0.12	59524	keystroke	a	n/a
30.077	0.18	60154	keystroke	z	n/a
30.272	0.075	60544	keystroke	y	n/a
30.542	0.12	61084	keystroke	Key.space	n/a
30.917	0.165	61834	keystroke	d	n/a
31.037	0.135	62074	keystroke	o	n/a
31.307	0.12	62614	keystroke	g	n/a
31.757	0.12	63514	keystroke	Key.enter	n/a
31.8835	7.81	63767	prompt	n/a	week tourist card runtime\n
32.672	0.18	65344	keystroke	w	n/a
32.822	0.135	65644	keystroke	e	n/a
33.062	0.105	66124	keystroke	e	n/a
33.197	0.105	66394	keystroke	k	n/a
33.452	0.105	66904	keystroke	Key.space	n/a
33.992	0.105	67984	keystroke	t	n/a
34.082	0.12	68164	keystroke	o	n/a
34.247	0.105	68494	keystroke	u	n/a
34.472	0.105	68944	keystroke	r	n/a
34.682	0.09	69364	keystroke	i	n/a
35.057	0.165	70114	keystroke	s	n/a
35.267	0.12	70534	keystroke	t	n/a
36.212	0.135	72424	keystroke	Key.space	n/a
36.482	0.18	72964	keystroke	c	n/a
36.632	0.195	73264	keystroke	a	n/a
36.857	0.105	73714	keystroke	r	n/a
37.187	0.12	74374	keystroke	d	n/a
37.367	0.09	74734	keystroke	Key.space	n/a
38.462	0.135	76924	keystroke	r	n/a
38.642	0.105	77284	keystroke	u	n/a
38.837	0.09	77674	keystroke	n	n/a
38.942	0.105	77884	keystroke	t	n/a
39.062	0.105	78124	keystroke	i	n/a
39.242	0.105	78484	keystroke	m	n/a
39.377	0.135	78754	keystroke	e	n/a
39.617	0.075	79234	keystroke	Key.enter	n/a
39.696	16.1525	79392	prompt	n/a	myers resolution babe submitting\n
40.712	0.09	81424	keystroke	m	n/a
40.967	0.105	81934	keystroke	y	n/a
41.267	0.27	82534	keystroke	s	n/a
41.387	0.255	82774	keystroke	e	n/a
41.567	0.165	83134	keystroke	r	n/a
41.927	0.075	83854	keystroke	Key.backspace	n/a
42.122	0.045	84244	keystroke	Key.backspace	n/a
42.257	0.12	84514	keystroke	Key.backspace	n/a
42.392	0.18	84784	keystroke	e	n/a
42.497	0.12	84994	keystroke	r	n/a
42.962	0.105	85924	keystroke	s	n/a
43.217	0.12	86434	keystroke	Key.space	n/a
43.832	0.135	87664	keystroke	r	n/a
43.907	0.255	87814	keystroke	e	n/a
44.087	0.135	88174	keystroke	s	n/a
44.897	0.0745	89794	keystroke	o	n/a
45.1065	0.12	90213	keystroke	l	n/a
45.4365	0.0905	90873	keystroke	u	n/a
45.827	0.12	91654	keystroke	t	n/a
46.037	0.09	92074	keystroke	i	n/a
46.232	0.105	92464	keystroke	o	n/a
46.442	0.075	92884	keystroke	n	n/a
49.459	0.043	98918	keystroke	Key.space	n/a
50.402	0.09	100804	keystroke	b	n/a
50.537	0.135	101074	keystroke	a	n/a
50.642	0.075	101284	keystroke	b	n/a
51.527	0.135	103054	keystroke	e	n/a
51.962	0.18	103924	keystroke	Key.space	n/a
52.667	0.15	105334	keystroke	s	n/a
52.832	0.105	105664	keystroke	u	n/a
53.102	0.075	106204	keystroke	b	n/a
53.462	0.18	106924	keystroke	m	n/a
53.627	0.12	107254	keystroke	i	n/a
54.362	0.12	108724	keystroke	t	n/a
54.707	0.015	109414	keystroke	t	n/a
54.932	0.105	109864	keystroke	i	n/a
55.112	0.12	110224	keystroke	n	n/a
55.217	0.15	110434	keystroke	g	n/a
55.712	0.135	111424	keystroke	Key.enter	n/a
55.852	12.7315	111704	prompt	n/a	isn't instant she'll rolls\n
56.957	0.135	113914	keystroke	i	n/a
57.137	0.15	114274	keystroke	s	n/a
57.482	0.09	114964	keystroke	n	n/a
58.532	0.15	117064	keystroke	'	n/a
58.742	0.135	117484	keystroke	t	n/a
59.297	0.165	118594	keystroke	Key.space	n/a
60.017	0.105	120034	keystroke	i	n/a
60.212	0.075	120424	keystroke	n	n/a
60.377	0.195	120754	keystroke	s	n/a
60.692	0.18	121384	keystroke	t	n/a
60.857	0.165	121714	keystroke	a	n/a
61.262	0.105	122524	keystroke	n	n/a
61.457	0.15	122914	keystroke	t	n/a
62.102	0.15	124204	keystroke	Key.space	n/a
62.462	0.135	124924	keystroke	s	n/a
62.567	0.09	125134	keystroke	h	n/a
63.0465	0.1505	126093	keystroke	e	n/a
64.7875	0.06	129575	keystroke	'	n/a
65.7925	0.045	131585	keystroke	l	n/a
65.9575	0.09	131915	keystroke	l	n/a
66.1675	0.105	132335	keystroke	Key.space	n/a
66.7675	0.12	133535	keystroke	r	n/a
66.8725	0.105	133745	keystroke	o	n/a
67.6375	0.06	135275	keystroke	l	n/a
67.8175	0.09	135635	keystroke	l	n/a
67.9675	0.12	135935	keystroke	s	n/a
68.5075	0.075	137015	keystroke	Key.enter	n/a
68.5865	11.187	137173	prompt	n/a	confirm chosen trap consoles\n
69.557	0.165	139114	keystroke	c	n/a
69.677	0.105	139354	keystroke	o	n/a
69.872	0.09	139744	keystroke	n	n/a
70.022	0.12	140044	keystroke	f	n/a
70.142	0.135	140284	keystroke	i	n/a
70.307	0.12	140614	keystroke	r	n/a
70.472	0.09	140944	keystroke	m	n/a
71.057	0.135	142114	keystroke	Key.space	n/a
71.342	0.15	142684	keystroke	c	n/a
71.462	0.105	142924	keystroke	h	n/a
71.657	0.135	143314	keystroke	o	n/a
71.882	0.15	143764	keystroke	s	n/a
72.6165	0.135	145233	keystroke	e	n/a
72.842	0.105	145684	keystroke	n	n/a
73.052	0.135	146104	keystroke	Key.space	n/a
74.597	0.18	149194	keystroke	t	n/a
74.702	0.195	149404	keystroke	r	n/a
74.837	0.165	149674	keystroke	a	n/a
75.062	0.15	150124	keystroke	p	n/a
75.782	0.105	151564	keystroke	Key.space	n/a
76.157	0.15	152314	keystroke	c	n/a
76.292	0.12	152584	keystroke	o	n/a
76.502	0.09	153004	keystroke	n	n/a
76.922	0.135	153844	keystroke	s	n/a
77.507	0.105	155014	keystroke	o	n/a
77.717	0.105	155434	keystroke	l	n/a
77.927	0.12	155854	keystroke	e	n/a
78.542	0.18	157084	keystroke	s	n/a
79.667	0.105	159334	keystroke	Key.enter	n/a
79.7765	9.357	159553	prompt	n/a	essay logical contacts ignored\n
80.792	0.12	161584	keystroke	e	n/a
81.137	0.09	162274	keystroke	s	n/a
81.332	0.12	162664	keystroke	s	n/a
81.527	0.135	163054	keystroke	a	n/a
81.917	0.105	163834	keystroke	y	n/a
82.472	0.12	164944	keystroke	Key.space	n/a
82.937	0.09	165874	keystroke	l	n/a
83.132	0.12	166264	keystroke	o	n/a
83.612	0.135	167224	keystroke	g	n/a
83.912	0.12	167824	keystroke	i	n/a
84.152	0.195	168304	keystroke	c	n/a
84.317	0.15	168634	keystroke	a	n/a
84.827	0.105	169654	keystroke	l	n/a
85.067	0.12	170134	keystroke	Key.space	n/a
85.412	0.135	170824	keystroke	c	n/a
85.517	0.105	171034	keystroke	o	n/a
85.697	0.09	171394	keystroke	n	n/a
85.847	0.15	171694	keystroke	t	n/a
86.072	0.135	172144	keystroke	a	n/a
86.312	0.105	172624	keystroke	c	n/a
86.552	0.06	173104	keystroke	t	n/a
86.747	0.12	173494	keystroke	s	n/a
86.927	0.105	173854	keystroke	Key.space	n/a
87.6325	0.09	175265	keystroke	i	n/a
87.8425	0.09	175685	keystroke	g	n/a
88.0675	0.075	176135	keystroke	n	n/a
88.2325	0.09	176465	keystroke	o	n/a
88.3675	0.1345	176735	keystroke	r	n/a
88.577	0.12	177154	keystroke	e	n/a
88.832	0.105	177664	keystroke	d	n/a
89.042	0.09	178084	keystroke	Key.enter	n/a
89.137	15.162	178274	prompt	n/a	anger trend student those're\n
90.1515	0.12	180303	keystroke	a	n/a
90.2565	0.075	180513	keystroke	n	n/a
90.4365	0.105	180873	keystroke	g	n/a
90.6165	0.18	181233	keystroke	e	n/a
90.7365	0.12	181473	keystroke	r	n/a
91.397	0.12	182794	keystroke	Key.space	n/a
91.742	0.1345	183484	keystroke	t	n/a
91.8315	0.18	183663	keystroke	r	n/a
91.9815	0.12	183963	keystroke	a	n/a
92.4315	0.09	184863	keystroke	Key.backspace	n/a
92.5225	0.104	185045	keystroke	e	n/a
92.7165	0.0905	185433	keystroke	n	n/a
92.927	0.12	185854	keystroke	d	n/a
94.5765	0.12	189153	keystroke	Key.space	n/a
94.8165	0.15	189633	keystroke	s	n/a
94.9965	0.09	189993	keystroke	t	n/a
95.5815	0.09	191163	keystroke	u	n/a
95.6565	0.105	191313	keystroke	d	n/a
96.3465	0.12	192693	keystroke	e	n/a
97.7565	0.09	195513	keystroke	n	n/a
97.8615	0.105	195723	keystroke	t	n/a
98.2665	0.135	196533	keystroke	Key.space	n/a
98.6565	0.12	197313	keystroke	t	n/a
98.7315	0.09	197463	keystroke	h	n/a
98.8965	0.12	197793	keystroke	o	n/a
99.1515	0.225	198303	keystroke	s	n/a
99.3165	0.15	198633	keystroke	e	n/a
102.9645	0.102	205929	keystroke	'	n/a
103.0515	0.135	206103	keystroke	r	n/a
103.1565	0.135	206313	keystroke	e	n/a
104.2065	0.09	208413	keystroke	Key.enter	n/a
104.3035	15.9255	208607	prompt	n/a	publisher quiz dramatic workplace\n
105.4515	0.1355	210903	keystroke	p	n/a
105.662	0.075	211324	keystroke	u	n/a
106.1865	0.09	212373	keystroke	b	n/a
106.3515	0.12	212703	keystroke	l	n/a
106.5915	0.075	213183	keystroke	i	n/a
106.9665	0.24	213933	keystroke	s	n/a
107.0565	0.09	214113	keystroke	h	n/a
107.1915	0.195	214383	keystroke	e	n/a
107.3115	0.135	214623	keystroke	r	n/a
107.5065	0.1055	215013	keystroke	Key.space	n/a
108.3465	0.12	216693	keystroke	q	n/a
108.4965	0.105	216993	keystroke	u	n/a
108.7215	0.09	217443	keystroke	i	n/a
108.9765	0.135	217953	keystroke	c	n/a
109.1715	0.12	218343	keystroke	k	n/a
109.7715	0.12	219543	keystroke	Key.space	n/a
110.462	0.1055	220924	keystroke	d	n/a
110.7015	0.165	221403	keystroke	r	n/a
110.8365	0.135	221673	keystroke	a	n/a
111.1665	0.105	222333	keystroke	m	n/a
111.3165	0.15	222633	keystroke	a	n/a
111.8565	0.075	223713	keystroke	t	n/a
111.9765	0.12	223953	keystroke	i	n/a
112.5315	0.105	225063	keystroke	c	n/a
112.8915	0.12	225783	keystroke	Key.space	n/a
113.1925	0.149	226385	keystroke	w	n/a
113.3275	0.12	226655	keystroke	o	n/a
113.5515	0.105	227103	keystroke	r	n/a
116.39	0.027	232780	keystroke	Key.backspace	n/a
116.567	0.105	233134	keystroke	r	n/a
117.407	0.09	234814	keystroke	k	n/a
118.592	0.105	237184	keystroke	p	n/a
118.817	0.09	237634	keystroke	l	n/a
118.892	0.12	237784	keystroke	a	n/a
119.177	0.21	238354	keystroke	c	n/a
119.357	0.12	238714	keystroke	e	n/a
120.167	0.06	240334	keystroke	Key.enter	n/a
120.2315	13.783	240463	prompt	n/a	renewal adjustments marine trials\n
121.3225	0.12	242645	keystroke	r	n/a
121.4125	0.15	242825	keystroke	e	n/a
121.6525	0.075	243305	keystroke	n	n/a
121.8025	0.15	243605	keystroke	e	n/a
121.9975	0.135	243995	keystroke	w	n/a
122.4025	0.15	244805	keystroke	a	n/a
122.5975	0.12	245195	keystroke	l	n/a
123.0925	0.135	246185	keystroke	Key.space	n/a
123.5275	0.105	247055	keystroke	a	n/a
123.7525	0.09	247505	keystroke	d	n/a
124.0825	0.09	248165	keystroke	j	n/a
124.2775	0.105	248555	keystroke	u	n/a
124.3975	0.225	248795	keystroke	s	n/a
124.5775	0.135	249155	keystroke	t	n/a
124.8925	0.135	249785	keystroke	m	n/a
125.0125	0.1795	250025	keystroke	e	n/a
125.1625	0.105	250325	keystroke	n	n/a
125.3125	0.135	250625	keystroke	t	n/a
125.5225	0.195	251045	keystroke	s	n/a
125.8375	0.135	251675	keystroke	Key.space	n/a
126.0925	0.12	252185	keystroke	m	n/a
126.2135	0.164	252427	keystroke	a	n/a
126.4225	0.15	252845	keystroke	r	n/a
126.6175	0.135	253235	keystroke	i	n/a
127.0075	0.015	254015	keystroke	c	n/a
127.0375	0.135	254075	keystroke	e	n/a
128.0275	0.06	256055	keystroke	Key.backspace	n/a
128.1925	0.075	256385	keystroke	Key.backspace	n/a
128.4325	0.075	256865	keystroke	n	n/a
128.5675	0.135	257135	keystroke	e	n/a
128.6875	0.105	257375	keystroke	Key.space	n/a
128.9725	0.15	257945	keystroke	t	n/a
129.1375	0.105	258275	keystroke	i	n/a
131.4205	0.042	262841	keystroke	Key.backspace	n/a
131.6275	0.15	263255	keystroke	r	n/a
131.7175	0.105	263435	keystroke	e	n/a
132.1525	0.09	264305	keystroke	Key.backspace	n/a
132.4075	0.075	264815	keystroke	i	n/a
132.6025	0.15	265205	keystroke	a	n/a
133.2475	0.09	266495	keystroke	l	n/a
133.3385	0.134	266677	keystroke	s	n/a
133.9525	0.06	267905	keystroke	Key.enter	n/a
134.0175	7.647	268035	prompt	n/a	licking subscribers wire phase\n
134.8825	0.09	269765	keystroke	l	n/a
135.0475	0.105	270095	keystroke	i	n/a
135.2725	0.165	270545	keystroke	c	n/a
135.4075	0.075	270815	keystroke	k	n/a
135.6025	0.075	271205	keystroke	i	n/a
135.7675	0.075	271535	keystroke	n	n/a
135.9025	0.12	271805	keystroke	g	n/a
136.0525	0.12	272105	keystroke	Key.space	n/a
136.3525	0.135	272705	keystroke	s	n/a
136.8175	0.09	273635	keystroke	u	n/a
136.9975	0.09	273995	keystroke	b	n/a
137.1625	0.165	274325	keystroke	s	n/a
137.4925	0.15	274985	keystroke	c	n/a
137.7475	0.12	275495	keystroke	r	n/a
137.9425	0.12	275885	keystroke	i	n/a
138.1975	0.075	276395	keystroke	b	n/a
138.3475	0.18	276695	keystroke	e	n/a
138.4525	0.136	276905	keystroke	r	n/a
138.6625	0.166	277325	keystroke	s	n/a
138.8575	0.12	277715	keystroke	Key.space	n/a
139.1275	0.136	278255	keystroke	w	n/a
139.2475	0.105	278495	keystroke	i	n/a
139.5625	0.195	279125	keystroke	r	n/a
139.7425	0.12	279485	keystroke	e	n/a
139.9075	0.105	279815	keystroke	Key.space	n/a
140.2225	0.12	280445	keystroke	p	n/a
140.4325	0.105	280865	keystroke	h	n/a
140.6875	0.135	281375	keystroke	a	n/a
140.9725	0.12	281945	keystroke	s	n/a
141.2725	0.165	282545	keystroke	e	n/a
141.5575	0.105	283115	keystroke	Key.enter	n/a
141.6675	17.532	283335	prompt	n/a	kuwait landscape equality anthropology\n
143.2825	0.09	286565	keystroke	k	n/a
143.4775	0.075	286955	keystroke	u	n/a
144.2735	0.164	288547	keystroke	w	n/a
144.3925	0.165	288785	keystroke	a	n/a
144.5425	0.12	289085	keystroke	i	n/a
144.7375	0.135	289475	keystroke	t	n/a
145.3225	0.15	290645	keystroke	Key.space	n/a
145.5175	0.135	291035	keystroke	l	n/a
145.6385	0.149	291277	keystroke	a	n/a
145.8475	0.075	291695	keystroke	n	n/a
146.0125	0.121	292025	keystroke	d	n/a
146.4475	0.18	292895	keystroke	s	n/a
146.5825	0.12	293165	keystroke	a	n/a
147.0925	0.105	294185	keystroke	Key.backspace	n/a
147.3625	0.12	294725	keystroke	c	n/a
147.5875	0.135	295175	keystroke	a	n/a
148.1425	0.136	296285	keystroke	p	n/a
148.9375	0.105	297875	keystroke	e	n/a
149.1625	0.15	298325	keystroke	Key.space	n/a
150.7835	0.18	301567	keystroke	e	n/a
151.1875	0.075	302375	keystroke	q	n/a
151.9535	0.119	303907	keystroke	u	n/a
152.0875	0.15	304175	keystroke	a	n/a
152.2535	0.164	304507	keystroke	l	n/a
152.4925	0.12	304985	keystroke	i	n/a
152.7025	0.105	305405	keystroke	t	n/a
152.8375	0.121	305675	keystroke	y	n/a
153.5425	0.12	307085	keystroke	Key.space	n/a
153.9475	0.15	307895	keystroke	a	n/a
154.1275	0.09	308255	keystroke	n	n/a
154.4885	0.135	308977	keystroke	t	n/a
154.6385	0.089	309277	keystroke	h	n/a
154.8475	0.121	309695	keystroke	r	n/a
154.9985	0.135	309997	keystroke	o	n/a
155.4635	0.15	310927	keystroke	p	n/a
156.0175	0.135	312035	keystroke	o	n/a
156.4835	0.135	312967	keystroke	l	n/a
156.8725	0.09	313745	keystroke	o	n/a
158.3275	0.106	316655	keystroke	g	n/a
158.5375	0.091	317075	keystroke	y	n/a
159.1075	0.09	318215	keystroke	Key.enter	n/a
159.2025	11.922	318405	prompt	n/a	conferencing monetary deck intake\n
160.1135	0.165	320227	keystroke	c	n/a
160.2475	0.105	320495	keystroke	o	n/a
160.4725	0.061	320945	keystroke	n	n/a
160.6985	0.12	321397	keystroke	f	n/a
160.8935	0.179	321787	keystroke	e	n/a
161.0425	0.196	322085	keystroke	r	n/a
161.2225	0.12	322445	keystroke	e	n/a
162.1835	0.075	324367	keystroke	n	n/a
162.3035	0.149	324607	keystroke	c	n/a
162.4225	0.121	324845	keystroke	i	n/a
162.6785	0.105	325357	keystroke	n	n/a
162.8735	0.12	325747	keystroke	g	n/a
163.2175	0.106	326435	keystroke	Key.space	n/a
163.4735	0.15	326947	keystroke	m	n/a
163.6375	0.106	327275	keystroke	o	n/a
163.8175	0.075	327635	keystroke	n	n/a
163.9535	0.135	327907	keystroke	e	n/a
164.8235	0.18	329647	keystroke	t	n/a
164.9885	0.164	329977	keystroke	a	n/a
165.6335	0.135	331267	keystroke	r	n/a
165.7835	0.119	331567	keystroke	y	n/a
166.3975	0.166	332795	keystroke	Key.space	n/a
167.0585	0.09	334117	keystroke	d	n/a
167.2535	0.09	334507	keystroke	e	n/a
167.5235	0.12	335047	keystroke	c	n/a
167.7635	0.09	335527	keystroke	k	n/a
168.5735	0.09	337147	keystroke	Key.space	n/a
168.8135	0.104	337627	keystroke	i	n/a
169.0535	0.075	338107	keystroke	n	n/a
169.3385	0.105	338677	keystroke	t	n/a
169.5785	0.165	339157	keystroke	a	n/a
170.0885	0.09	340177	keystroke	k	n/a
170.2385	0.09	340477	keystroke	e	n/a
171.0485	0.074	342097	keystroke	Key.enter	n/a
171.1275	16.887	342255	prompt	n/a	awarded sterling hint vietnamese\n
172.4735	0.09	344947	keystroke	a	n/a
173.6735	0.119	347347	keystroke	q	n/a
174.1835	0.135	348367	keystroke	a	n/a
174.6035	0.135	349207	keystroke	r	n/a
175.5485	0.075	351097	keystroke	Key.backspace	n/a
175.7435	0.06	351487	keystroke	Key.backspace	n/a
175.9085	0.075	351817	keystroke	Key.backspace	n/a
176.9735	0.18	353947	keystroke	w	n/a
177.1685	0.135	354337	keystroke	a	n/a
178.2185	0.09	356437	keystroke	r	n/a
178.4135	0.075	356827	keystroke	e	n/a
178.8785	0.105	357757	keystroke	Key.backspace	n/a
178.9985	0.105	357997	keystroke	d	n/a
179.2685	0.075	358537	keystroke	e	n/a
179.4635	0.12	358927	keystroke	d	n/a
179.7935	0.135	359587	keystroke	Key.space	n/a
180.1535	0.135	360307	keystroke	s	n/a
180.3485	0.15	360697	keystroke	t	n/a
180.5885	0.18	361177	keystroke	e	n/a
180.7385	0.135	361477	keystroke	r	n/a
181.4135	0.135	362827	keystroke	l	n/a
181.6235	0.105	363247	keystroke	i	n/a
181.8335	0.09	363667	keystroke	n	n/a
181.9985	0.1345	363997	keystroke	g	n/a
183.1385	0.15	366277	keystroke	Key.space	n/a
183.8285	0.105	367657	keystroke	h	n/a
183.9635	0.12	367927	keystroke	i	n/a
184.1735	0.09	368347	keystroke	n	n/a
184.3535	0.105	368707	keystroke	t	n/a
184.6685	0.12	369337	keystroke	Key.space	n/a
185.5535	0.15	371107	keystroke	v	n/a
185.6885	0.12	371377	keystroke	i	n/a
185.9135	0.15	371827	keystroke	e	n/a
186.4385	0.105	372877	keystroke	t	n/a
186.6785	0.12	373357	keystroke	n	n/a
186.8135	0.15	373627	keystroke	a	n/a
187.0385	0.135	374077	keystroke	m	n/a
187.2485	0.15	374497	keystroke	e	n/a
187.5185	0.18	375037	keystroke	s	n/a
187.6685	0.135	375337	keystroke	e	n/a
187.9385	0.075	375877	keystroke	Key.enter	n/a
188.017	12.5225	376034	prompt	n/a	tactics boundary butterfly camping\n
188.8235	0.135	377647	keystroke	t	n/a
188.9435	0.135	377887	keystroke	a	n/a
189.1685	0.12	378337	keystroke	c	n/a
189.4085	0.09	378817	keystroke	t	n/a
189.6335	0.105	379267	keystroke	i	n/a
189.7985	0.135	379597	keystroke	c	n/a
190.5335	0.135	381067	keystroke	s	n/a
190.6685	0.12	381337	keystroke	Key.space	n/a
191.1935	0.06	382387	keystroke	b	n/a
191.3585	0.105	382717	keystroke	o	n/a
191.5385	0.075	383077	keystroke	u	n/a
191.7485	0.09	383497	keystroke	n	n/a
191.8835	0.165	383767	keystroke	d	n/a
192.0035	0.165	384007	keystroke	a	n/a
192.2285	0.09	384457	keystroke	r	n/a
192.3635	0.105	384727	keystroke	y	n/a
192.7835	0.12	385567	keystroke	Key.space	n/a
193.0235	0.105	386047	keystroke	b	n/a
193.1885	0.135	386377	keystroke	u	n/a
193.4135	0.06	386827	keystroke	t	n/a
193.5485	0.12	387097	keystroke	t	n/a
193.7285	0.18	387457	keystroke	e	n/a
193.8485	0.12	387697	keystroke	r	n/a
194.5535	0.105	389107	keystroke	f	n/a
194.6735	0.12	389347	keystroke	l	n/a
194.8835	0.09	389767	keystroke	y	n/a
195.2135	0.12	390427	keystroke	Key.space	n/a
195.6185	0.21	391237	keystroke	c	n/a
195.9185	0.165	391837	keystroke	a	n/a
196.1585	0.165	392317	keystroke	m	n/a
196.3685	0.09	392737	keystroke	p	n/a
196.8485	0.135	393697	keystroke	l	n/a
198.1085	0.09	396217	keystroke	Key.backspace	n/a
199.3085	0.09	398617	keystroke	i	n/a
199.4735	0.105	398947	keystroke	n	n/a
199.6985	0.09	399397	keystroke	g	n/a
200.4785	0.06	400957	keystroke	Key.enter	n/a
200.542	17.398	401084	prompt	n/a	cdna complexity headline blind\n
201.8735	0.135	403747	keystroke	c	n/a
201.9785	0.135	403957	keystroke	d	n/a
202.2335	0.06	404467	keystroke	n	n/a
202.4885	0.165	404977	keystroke	a	n/a
202.8035	0.12	405607	keystroke	Key.space	n/a
203.2685	0.135	406537	keystroke	c	n/a
203.3735	0.135	406747	keystroke	o	n/a
203.5985	0.105	407197	keystroke	m	n/a
203.7635	0.105	407527	keystroke	p	n/a
204.0035	0.075	408007	keystroke	l	n/a
204.6785	0.105	409357	keystroke	e	n/a
206.5385	0.165	413077	keystroke	x	n/a
206.7185	0.105	413437	keystroke	i	n/a
206.9585	0.105	413917	keystroke	t	n/a
207.0935	0.075	414187	keystroke	y	n/a
208.4285	0.135	416857	keystroke	Key.space	n/a
208.9685	0.09	417937	keystroke	h	n/a
209.1485	0.18	418297	keystroke	e	n/a
209.2535	0.165	418507	keystroke	a	n/a
214.311	0.087	428622	keystroke	d	n/a
214.383	0.105	428766	keystroke	l	n/a
214.563	0.09	429126	keystroke	i	n/a
214.743	0.075	429486	keystroke	n	n/a
214.879	0.149	429758	keystroke	e	n/a
215.493	0.15	430986	keystroke	Key.space	n/a
215.868	0.075	431736	keystroke	b	n/a
216.738	0.121	433476	keystroke	l	n/a
216.978	0.09	433956	keystroke	i	n/a
217.218	0.075	434436	keystroke	n	n/a
217.368	0.135	434736	keystroke	e	n/a
217.878	0.06	435756	keystroke	Key.enter	n/a
217.943	9.8065	435886	prompt	n/a	jessica unwrap beast char\n
219.933	0.075	439866	keystroke	j	n/a
220.083	0.136	440166	keystroke	e	n/a
220.368	0.09	440736	keystroke	s	n/a
220.534	0.1635	441068	keystroke	s	n/a
220.6835	0.1195	441367	keystroke	i	n/a
220.863	0.15	441726	keystroke	c	n/a
220.998	0.181	441996	keystroke	a	n/a
221.328	0.135	442656	keystroke	Key.space	n/a
221.688	0.091	443376	keystroke	u	n/a
221.868	0.075	443736	keystroke	n	n/a
222.618	0.195	445236	keystroke	w	n/a
222.933	0.105	445866	keystroke	r	n/a
223.083	0.18	446166	keystroke	a	n/a
223.579	0.12	447158	keystroke	p	n/a
224.703	0.135	449406	keystroke	Key.space	n/a
224.988	0.091	449976	keystroke	b	n/a
225.168	0.1495	450336	keystroke	e	n/a
225.6035	0.164	451207	keystroke	a	n/a
225.7235	0.18	451447	keystroke	s	n/a
226.0535	0.134	452107	keystroke	t	n/a
226.4425	0.165	452885	keystroke	Key.space	n/a
226.6835	0.164	453367	keystroke	c	n/a
226.8625	0.075	453725	keystroke	h	n/a
226.9975	0.181	453995	keystroke	a	n/a
227.4325	0.15	454865	keystroke	r	n/a
227.6425	0.105	455285	keystroke	Key.enter	n/a
227.752	7.048	455504	prompt	n/a	cool merely anatomy floors\n
228.6935	0.12	457387	keystroke	c	n/a
228.8435	0.104	457687	keystroke	o	n/a
229.248	0.075	458496	keystroke	o	n/a
229.488	0.09	458976	keystroke	l	n/a
229.683	0.105	459366	keystroke	Key.space	n/a
229.923	0.105	459846	keystroke	m	n/a
230.043	0.195	460086	keystroke	e	n/a
230.208	0.195	460416	keystroke	r	n/a
230.388	0.12	460776	keystroke	e	n/a
230.928	0.135	461856	keystroke	l	n/a
231.168	0.09	462336	keystroke	y	n/a
231.408	0.12	462816	keystroke	Key.space	n/a
231.648	0.12	463296	keystroke	a	n/a
231.813	0.105	463626	keystroke	n	n/a
231.933	0.135	463866	keystroke	a	n/a
232.533	0.105	465066	keystroke	t	n/a
232.653	0.105	465306	keystroke	o	n/a
232.878	0.09	465756	keystroke	m	n/a
233.133	0.06	466266	keystroke	y	n/a
233.343	0.12	466686	keystroke	Key.space	n/a
233.673	0.105	467346	keystroke	f	n/a
233.779	0.074	467558	keystroke	l	n/a
233.943	0.075	467886	keystroke	o	n/a
234.123	0.12	468246	keystroke	o	n/a
234.303	0.09	468606	keystroke	r	n/a
234.543	0.12	469086	keystroke	s	n/a
234.708	0.09	469416	keystroke	Key.enter	n/a
234.8045	11.77	469609	prompt	n/a	automobiles competition wake consists\n
235.728	0.15	471456	keystroke	a	n/a
235.968	0.135	471936	keystroke	u	n/a
236.223	0.105	472446	keystroke	t	n/a
236.388	0.135	472776	keystroke	o	n/a
236.913	0.105	473826	keystroke	m	n/a
237.138	0.135	474276	keystroke	o	n/a
237.843	0.075	475686	keystroke	b	n/a
237.993	0.12	475986	keystroke	i	n/a
238.188	0.15	476376	keystroke	l	n/a
238.353	0.165	476706	keystroke	e	n/a
238.758	0.135	477516	keystroke	s	n/a
238.863	0.135	477726	keystroke	Key.space	n/a
239.193	0.15	478386	keystroke	c	n/a
239.313	0.105	478626	keystroke	o	n/a
239.493	0.09	478986	keystroke	m	n/a
239.628	0.105	479256	keystroke	p	n/a
239.838	0.135	479676	keystroke	e	n/a
240.078	0.105	480156	keystroke	t	n/a
240.888	0.105	481776	keystroke	i	n/a
241.023	0.12	482046	keystroke	t	n/a
241.248	0.06	482496	keystroke	i	n/a
241.458	0.075	482916	keystroke	o	n/a
241.608	0.09	483216	keystroke	n	n/a
242.073	0.135	484146	keystroke	Key.space	n/a
242.373	0.165	484746	keystroke	w	n/a
242.478	0.18	484956	keystroke	a	n/a
242.673	0.09	485346	keystroke	k	n/a
242.778	0.135	485556	keystroke	e	n/a
243.033	0.165	486066	keystroke	Key.space	n/a
243.498	0.15	486996	keystroke	c	n/a
243.573	0.12	487146	keystroke	o	n/a
243.768	0.09	487536	keystroke	n	n/a
244.083	0.135	488166	keystroke	s	n/a
244.233	0.135	488466	keystroke	i	n/a
244.653	0.15	489306	keystroke	s	n/a
244.863	0.12	489726	keystroke	t	n/a
245.103	0.075	490206	keystroke	e	n/a
245.508	0.135	491016	keystroke	Key.backspace	n/a
245.644	0.119	491288	keystroke	s	n/a
245.778	0.105	491556	keystroke	Key.space	n/a
246.498	0.075	492996	keystroke	Key.enter	n/a
246.5795	14.2	493159	prompt	n/a	carey heating assessed rank\n
247.533	0.165	495066	keystroke	c	n/a
247.638	0.21	495276	keystroke	a	n/a
247.878	0.12	495756	keystroke	r	n/a
248.058	0.12	496116	keystroke	e	n/a
249.438	0.075	498876	keystroke	y	n/a
252.366	0.042	504732	keystroke	Key.space	n/a
252.543	0.09	505086	keystroke	h	n/a
252.708	0.195	505416	keystroke	e	n/a
252.843	0.15	505686	keystroke	a	n/a
253.158	0.105	506316	keystroke	r	n/a
253.473	0.06	506946	keystroke	i	n/a
253.803	0.06	507606	keystroke	Key.backspace	n/a
253.968	0.105	507936	keystroke	Key.backspace	n/a
254.058	0.105	508116	keystroke	t	n/a
254.238	0.075	508476	keystroke	i	n/a
254.433	0.075	508866	keystroke	n	n/a
254.583	0.09	509166	keystroke	g	n/a
255.168	0.12	510336	keystroke	Key.space	n/a
255.348	0.135	510696	keystroke	a	n/a
255.573	0.075	511146	keystroke	s	n/a
255.768	0.12	511536	keystroke	s	n/a
255.993	0.12	511986	keystroke	e	n/a
256.143	0.12	512286	keystroke	s	n/a
257.208	0.165	514416	keystroke	s	n/a
257.358	0.135	514716	keystroke	e	n/a
257.868	0.105	515736	keystroke	d	n/a
258.678	0.105	517356	keystroke	Key.space	n/a
258.903	0.12	517806	keystroke	r	n/a
258.978	0.15	517956	keystroke	a	n/a
260.283	0.075	520566	keystroke	n	n/a
260.448	0.075	520896	keystroke	k	n/a
260.688	0.09	521376	keystroke	Key.enter	n/a
260.783	15.912	521566	prompt	n/a	chamber vietnam wear deep\n
261.693	0.15	523386	keystroke	c	n/a
261.828	0.075	523656	keystroke	h	n/a
261.918	0.165	523836	keystroke	a	n/a
262.098	0.09	524196	keystroke	n	n/a
262.533	0.105	525066	keystroke	Key.backspace	n/a
263.493	0.075	526986	keystroke	m	n/a
263.943	0.09	527886	keystroke	b	n/a
264.063	0.18	528126	keystroke	e	n/a
264.138	0.15	528276	keystroke	r	n/a
264.738	0.135	529476	keystroke	Key.space	n/a
265.023	0.15	530046	keystroke	c	n/a
265.188	0.135	530376	keystroke	i	n/a
266.043	0.165	532086	keystroke	e	n/a
266.253	0.12	532506	keystroke	t	n/a
266.508	0.09	533016	keystroke	n	n/a
266.613	0.165	533226	keystroke	a	n/a
266.763	0.105	533526	keystroke	m	n/a
267.408	0.075	534816	keystroke	Key.backspace	n/a
267.603	0.045	535206	keystroke	Key.backspace	n/a
267.783	0.045	535566	keystroke	Key.backspace	n/a
267.948	0.06	535896	keystroke	Key.backspace	n/a
268.113	0.075	536226	keystroke	Key.backspace	n/a
268.308	0.075	536616	keystroke	Key.backspace	n/a
268.488	0.105	536976	keystroke	Key.backspace	n/a
269.178	0.12	538356	keystroke	v	n/a
269.328	0.105	538656	keystroke	i	n/a
269.4785	0.1355	538957	keystroke	e	n/a
270.1985	0.09	540397	keystroke	t	n/a
270.4235	0.075	540847	keystroke	m	n/a
270.6335	0.06	541267	keystroke	a	n/a
270.9335	0.06	541867	keystroke	Key.backspace	n/a
271.0985	0.0905	542197	keystroke	Key.backspace	n/a
271.339	0.075	542678	keystroke	n	n/a
271.474	0.135	542948	keystroke	a	n/a
271.639	0.09	543278	keystroke	m	n/a
272.209	0.135	544418	keystroke	Key.space	n/a
272.554	0.195	545108	keystroke	w	n/a
272.674	0.15	545348	keystroke	e	n/a
272.854	0.12	545708	keystroke	k	n/a
273.004	0.135	546008	keystroke	a	n/a
273.559	0.075	547118	keystroke	Key.backspace	n/a
273.739	0.12	547478	keystroke	Key.backspace	n/a
273.859	0.105	547718	keystroke	r	n/a
274.324	0.105	548648	keystroke	Key.backspace	n/a
274.414	0.225	548828	keystroke	a	n/a
274.564	0.15	549128	keystroke	r	n/a
275.374	0.135	550748	keystroke	Key.space	n/a
275.689	0.105	551378	keystroke	d	n/a
275.944	0.075	551888	keystroke	e	n/a
276.124	0.12	552248	keystroke	e	n/a
276.259	0.12	552518	keystroke	p	n/a
276.619	0.075	553238	keystroke	Key.enter	n/a
276.698	8.847	553396	prompt	n/a	placed under appreciated additions\n
277.489	0.09	554978	keystroke	p	n/a
277.699	0.105	555398	keystroke	l	n/a
277.834	0.135	555668	keystroke	a	n/a
278.374	0.195	556748	keystroke	c	n/a
278.614	0.105	557228	keystroke	e	n/a
278.824	0.12	557648	keystroke	d	n/a
278.989	0.12	557978	keystroke	Key.space	n/a
279.409	0.09	558818	keystroke	u	n/a
279.604	0.09	559208	keystroke	n	n/a
279.724	0.09	559448	keystroke	d	n/a
279.964	0.15	559928	keystroke	e	n/a
280.054	0.15	560108	keystroke	r	n/a
280.279	0.12	560558	keystroke	Key.space	n/a
280.654	0.12	561308	keystroke	a	n/a
280.894	0.06	561788	keystroke	p	n/a
281.059	0.09	562118	keystroke	p	n/a
281.224	0.12	562448	keystroke	r	n/a
281.299	0.135	562598	keystroke	e	n/a
281.539	0.135	563078	keystroke	c	n/a
281.704	0.12	563408	keystroke	i	n/a
281.869	0.165	563738	keystroke	a	n/a
282.154	0.135	564308	keystroke	t	n/a
282.364	0.12	564728	keystroke	e	n/a
282.664	0.12	565328	keystroke	d	n/a
283.159	0.15	566318	keystroke	Key.space	n/a
283.324	0.135	566648	keystroke	a	n/a
283.639	0.075	567278	keystroke	d	n/a
283.819	0.105	567638	keystroke	d	n/a
283.954	0.09	567908	keystroke	i	n/a
284.269	0.105	568538	keystroke	t	n/a
284.464	0.075	568928	keystroke	i	n/a
284.644	0.09	569288	keystroke	o	n/a
284.824	0.075	569648	keystroke	n	n/a
285.214	0.12	570428	keystroke	s	n/a
285.4835	0.06	570967	keystroke	Key.enter	n/a
285.548	19.032	571096	prompt	n/a	grounds journal signatures something's\n
286.729	0.135	573458	keystroke	g	n/a
286.849	0.1345	573698	keystroke	r	n/a
286.939	0.1345	573878	keystroke	o	n/a
287.1185	0.075	574237	keystroke	u	n/a
287.3435	0.075	574687	keystroke	n	n/a
287.6735	0.105	575347	keystroke	d	n/a
287.8685	0.135	575737	keystroke	s	n/a
288.0335	0.15	576067	keystroke	Key.space	n/a
288.5135	0.09	577027	keystroke	j	n/a
288.6935	0.075	577387	keystroke	o	n/a
290.0885	0.09	580177	keystroke	u	n/a
290.4335	0.12	580867	keystroke	r	n/a
291.2585	0.06	582517	keystroke	n	n/a
291.3785	0.12	582757	keystroke	a	n/a
291.7235	0.15	583447	keystroke	l	n/a
292.0085	0.12	584017	keystroke	Key.space	n/a
292.6835	0.15	585367	keystroke	s	n/a
292.8185	0.105	585637	keystroke	i	n/a
293.1635	0.105	586327	keystroke	g	n/a
293.4785	0.09	586957	keystroke	n	n/a
293.6885	0.15	587377	keystroke	a	n/a
298.1605	0.058	596321	keystroke	t	n/a
298.2335	0.105	596467	keystroke	u	n/a
298.4135	0.18	596827	keystroke	r	n/a
298.5185	0.165	597037	keystroke	e	n/a
298.9985	0.15	597997	keystroke	s	n/a
299.2085	0.165	598417	keystroke	Key.space	n/a
299.8235	0.135	599647	keystroke	s	n/a
299.9435	0.135	599887	keystroke	o	n/a
300.1685	0.09	600337	keystroke	m	n/a
300.6935	0.18	601387	keystroke	e	n/a
300.8885	0.18	601777	keystroke	t	n/a
301.0235	0.105	602047	keystroke	h	n/a
301.1735	0.105	602347	keystroke	i	n/a
302.6135	0.075	605227	keystroke	n	n/a
302.6885	0.15	605377	keystroke	g	n/a
303.3035	0.135	606607	keystroke	'	n/a
303.7535	0.195	607507	keystroke	s	n/a
304.4285	0.15	608857	keystroke	Key.enter	n/a
304.583	10.437	609166	prompt	n/a	reload intended curves innovative\n
305.7485	0.18	611497	keystroke	r	n/a
305.8685	0.195	611737	keystroke	e	n/a
306.1385	0.105	612277	keystroke	l	n/a
306.3335	0.105	612667	keystroke	o	n/a
306.5135	0.165	613027	keystroke	a	n/a
307.1435	0.15	614287	keystroke	d	n/a
307.6085	0.165	615217	keystroke	Key.space	n/a
307.9085	0.075	615817	keystroke	i	n/a
308.1035	0.075	616207	keystroke	n	n/a
308.2085	0.135	616417	keystroke	t	n/a
308.3885	0.15	616777	keystroke	e	n/a
308.9135	0.075	617827	keystroke	n	n/a
309.0485	0.105	618097	keystroke	d	n/a
309.2885	0.045	618577	keystroke	e	n/a
309.4535	0.135	618907	keystroke	d	n/a
309.6335	0.12	619267	keystroke	Key.space	n/a
309.9335	0.15	619867	keystroke	c	n/a
310.2185	0.105	620437	keystroke	u	n/a
310.3385	0.135	620677	keystroke	r	n/a
310.9985	0.15	621997	keystroke	v	n/a
311.2535	0.12	622507	keystroke	e	n/a
311.5685	0.165	623137	keystroke	s	n/a
311.7785	0.135	623557	keystroke	Key.space	n/a
312.0785	0.105	624157	keystroke	i	n/a
312.3185	0.045	624637	keystroke	n	n/a
312.4835	0.075	624967	keystroke	n	n/a
312.6485	0.12	625297	keystroke	o	n/a
312.9035	0.135	625807	keystroke	v	n/a
313.0535	0.18	626107	keystroke	a	n/a
313.4585	0.135	626917	keystroke	t	n/a
314.0285	0.12	628057	keystroke	i	n/a
314.3885	0.12	628777	keystroke	v	n/a
314.5535	0.135	629107	keystroke	e	n/a
314.9135	0.105	629827	keystroke	Key.enter	n/a
315.023	11.802	630046	prompt	n/a	spank nights polyphonic provision\n
315.8735	0.18	631747	keystroke	s	n/a
315.9785	0.15	631957	keystroke	p	n/a
316.1585	0.21	632317	keystroke	a	n/a
316.3535	0.105	632707	keystroke	k	n/a
317.2235	0.09	634447	keystroke	Key.backspace	n/a
317.4935	0.075	634987	keystroke	n	n/a
317.7035	0.09	635407	keystroke	k	n/a
317.943	0.105	635886	keystroke	Key.space	n/a
318.6335	0.105	637267	keystroke	n	n/a
318.7535	0.135	637507	keystroke	i	n/a
318.9035	0.135	637807	keystroke	g	n/a
319.0235	0.09	638047	keystroke	h	n/a
319.1885	0.12	638377	keystroke	t	n/a
319.3835	0.18	638767	keystroke	s	n/a
319.5485	0.12	639097	keystroke	Key.space	n/a
320.5235	0.15	641047	keystroke	p	n/a
321.0785	0.12	642157	keystroke	o	n/a
321.2885	0.135	642577	keystroke	l	n/a
321.5885	0.06	643177	keystroke	y	n/a
322.3535	0.12	644707	keystroke	p	n/a
323.0885	0.075	646177	keystroke	h	n/a
323.2685	0.075	646537	keystroke	o	n/a
323.4335	0.09	646867	keystroke	n	n/a
323.7185	0.075	647437	keystroke	i	n/a
323.9885	0.1355	647977	keystroke	c	n/a
324.634	0.12	649268	keystroke	Key.space	n/a
324.919	0.135	649838	keystroke	p	n/a
325.084	0.135	650168	keystroke	r	n/a
325.234	0.105	650468	keystroke	o	n/a
325.639	0.075	651278	keystroke	v	n/a
325.744	0.12	651488	keystroke	i	n/a
325.894	0.195	651788	keystroke	s	n/a
326.044	0.075	652088	keystroke	i	n/a
326.209	0.09	652418	keystroke	o	n/a
326.389	0.075	652778	keystroke	n	n/a
326.719	0.105	653438	keystroke	Key.enter	n/a
326.8275	10.0025	653655	prompt	n/a	scenic suffered judges annex\n
327.589	0.195	655178	keystroke	s	n/a
327.799	0.15	655598	keystroke	c	n/a
328.009	0.12	656018	keystroke	e	n/a
328.459	0.15	656918	keystroke	n	n/a
328.564	0.12	657128	keystroke	i	n/a
329.044	0.135	658088	keystroke	c	n/a
329.194	0.15	658388	keystroke	Key.space	n/a
329.509	0.15	659018	keystroke	s	n/a
329.719	0.105	659438	keystroke	u	n/a
330.004	0.075	660008	keystroke	f	n/a
330.154	0.105	660308	keystroke	f	n/a
330.379	0.135	660758	keystroke	e	n/a
330.454	0.18	660908	keystroke	r	n/a
330.649	0.12	661298	keystroke	e	n/a
331.084	0.15	662168	keystroke	d	n/a
331.279	0.12	662558	keystroke	Key.space	n/a
331.834	0.09	663668	keystroke	j	n/a
331.999	0.105	663998	keystroke	u	n/a
332.224	0.075	664448	keystroke	s	n/a
332.614	0.105	665228	keystroke	Key.backspace	n/a
332.734	0.135	665468	keystroke	d	n/a
333.574	0.1045	667148	keystroke	g	n/a
333.7835	0.225	667567	keystroke	e	n/a
333.9785	0.135	667957	keystroke	s	n/a
334.2785	0.15	668557	keystroke	Key.space	n/a
335.0735	0.165	670147	keystroke	a	n/a
335.3885	0.06	670777	keystroke	n	n/a
335.5535	0.09	671107	keystroke	n	n/a
335.8685	0.12	671737	keystroke	e	n/a
336.2735	0.075	672547	keystroke	x	n/a
336.7385	0.09	673477	keystroke	Key.enter	n/a
336.833	13.782	673666	prompt	n/a	itself mitsubishi write dramatically\n
338.1635	0.12	676327	keystroke	i	n/a
338.2985	0.105	676597	keystroke	t	n/a
338.7035	0.18	677407	keystroke	s	n/a
338.8385	0.135	677677	keystroke	e	n/a
339.2435	0.105	678487	keystroke	l	n/a
340.3685	0.1355	680737	keystroke	f	n/a
340.519	0.15	681038	keystroke	Key.space	n/a
340.834	0.18	681668	keystroke	m	n/a
340.984	0.105	681968	keystroke	i	n/a
341.269	0.105	682538	keystroke	t	n/a
341.674	0.15	683348	keystroke	s	n/a
341.914	0.15	683828	keystroke	u	n/a
342.334	0.105	684668	keystroke	b	n/a
342.589	0.15	685178	keystroke	i	n/a
342.859	0.165	685718	keystroke	s	n/a
342.994	0.135	685988	keystroke	h	n/a
343.264	0.15	686528	keystroke	i	n/a
343.969	0.105	687938	keystroke	Key.space	n/a
344.284	0.15	688568	keystroke	w	n/a
344.569	0.135	689138	keystroke	i	n/a
345.019	0.105	690038	keystroke	Key.backspace	n/a
345.139	0.15	690278	keystroke	r	n/a
345.304	0.105	690608	keystroke	i	n/a
345.829	0.18	691658	keystroke	t	n/a
346.054	0.18	692108	keystroke	e	n/a
346.249	0.135	692498	keystroke	Key.space	n/a
347.044	0.09	694088	keystroke	d	n/a
347.284	0.18	694568	keystroke	r	n/a
347.449	0.135	694898	keystroke	a	n/a
347.929	0.12	695858	keystroke	m	n/a
348.094	0.18	696188	keystroke	a	n/a
348.859	0.12	697718	keystroke	t	n/a
348.994	0.135	697988	keystroke	i	n/a
349.279	0.18	698558	keystroke	c	n/a
349.414	0.21	698828	keystroke	a	n/a
349.669	0.075	699338	keystroke	l	n/a
349.864	0.105	699728	keystroke	l	n/a
350.119	0.075	700238	keystroke	y	n/a
350.554	0.06	701108	keystroke	Key.enter	n/a
350.6175	11.563	701235	prompt	n/a	harvest outputs line employed\n
351.919	0.09	703838	keystroke	h	n/a
352.039	0.18	704078	keystroke	a	n/a
352.294	0.105	704588	keystroke	r	n/a
352.579	0.12	705158	keystroke	v	n/a
352.774	0.195	705548	keystroke	e	n/a
353.134	0.135	706268	keystroke	s	n/a
353.314	0.15	706628	keystroke	t	n/a
353.539	0.165	707078	keystroke	Key.space	n/a
354.829	0.135	709658	keystroke	o	n/a
355.024	0.105	710048	keystroke	p	n/a
355.534	0.105	711068	keystroke	Key.backspace	n/a
355.864	0.075	711728	keystroke	u	n/a
356.2245	0.12	712449	keystroke	t	n/a
356.6745	0.15	713349	keystroke	p	n/a
357.5445	0.09	715089	keystroke	u	n/a
357.6495	0.135	715299	keystroke	t	n/a
357.8445	0.21	715689	keystroke	s	n/a
358.0545	0.135	716109	keystroke	Key.space	n/a
358.6395	0.09	717279	keystroke	l	n/a
358.8045	0.105	717609	keystroke	i	n/a
358.9845	0.09	717969	keystroke	n	n/a
359.1045	0.18	718209	keystroke	e	n/a
359.3145	0.075	718629	keystroke	Key.space	n/a
360.3345	0.135	720669	keystroke	e	n/a
360.4545	0.135	720909	keystroke	m	n/a
360.6495	0.06	721299	keystroke	p	n/a
360.8745	0.12	721749	keystroke	l	n/a
361.0995	0.105	722199	keystroke	o	n/a
361.5645	0.105	723129	keystroke	y	n/a
361.6845	0.105	723369	keystroke	e	n/a
361.9545	0.105	723909	keystroke	d	n/a
362.0895	0.09	724179	keystroke	Key.enter	n/a
362.1835	6.2825	724367	prompt	n/a	none audit expo bell\n
362.9895	0.075	725979	keystroke	n	n/a
363.1395	0.12	726279	keystroke	o	n/a
363.3645	0.075	726729	keystroke	n	n/a
363.5595	0.12	727119	keystroke	e	n/a
363.7095	0.105	727419	keystroke	Key.space	n/a
364.2195	0.15	728439	keystroke	a	n/a
364.3395	0.09	728679	keystroke	u	n/a
364.5945	0.195	729189	keystroke	d	n/a
364.7745	0.105	729549	keystroke	i	n/a
365.4795	0.09	730959	keystroke	t	n/a
365.5545	0.12	731109	keystroke	Key.space	n/a
365.7645	0.09	731529	keystroke	e	n/a
366.0495	0.165	732099	keystroke	x	n/a
366.2895	0.105	732579	keystroke	p	n/a
366.4845	0.105	732969	keystroke	o	n/a
366.8595	0.105	733719	keystroke	Key.space	n/a
367.3545	0.09	734709	keystroke	b	n/a
367.4595	0.105	734919	keystroke	e	n/a
367.9845	0.075	735969	keystroke	l	n/a
368.1645	0.06	736329	keystroke	l	n/a
368.3745	0.09	736749	keystroke	Key.enter	n/a
368.47	9.416	736940	prompt	n/a	minus adware reviewer legacy\n
369.3195	0.165	738639	keystroke	m	n/a
369.4695	0.12	738939	keystroke	i	n/a
370.0245	0.105	740049	keystroke	n	n/a
370.1445	0.12	740289	keystroke	u	n/a
370.4295	0.165	740859	keystroke	s	n/a
370.5795	0.105	741159	keystroke	Key.space	n/a
370.7745	0.15	741549	keystroke	a	n/a
371.2095	0.105	742419	keystroke	d	n/a
371.6745	0.18	743349	keystroke	w	n/a
371.8395	0.15	743679	keystroke	a	n/a
372.3195	0.105	744639	keystroke	r	n/a
372.3795	0.165	744759	keystroke	e	n/a
372.6045	0.12	745209	keystroke	Key.space	n/a
372.9645	0.12	745929	keystroke	r	n/a
373.0545	0.12	746109	keystroke	e	n/a
373.3095	0.1345	746619	keystroke	v	n/a
373.49	0.104	746980	keystroke	i	n/a
373.639	0.24	747278	keystroke	e	n/a
373.849	0.15	747698	keystroke	w	n/a
374.509	0.135	749018	keystroke	e	n/a
375.049	0.12	750098	keystroke	r	n/a
375.724	0.12	751448	keystroke	Key.space	n/a
375.934	0.12	751868	keystroke	l	n/a
376.069	0.12	752138	keystroke	e	n/a
376.279	0.12	752558	keystroke	g	n/a
376.43	0.164	752860	keystroke	a	n/a
376.744	0.12	753488	keystroke	c	n/a
377.104	0.105	754208	keystroke	y	n/a
377.809	0.075	755618	keystroke	Key.enter	n/a
377.8885	14.5925	755777	prompt	n/a	howard steam mazda ships\n
378.784	0.075	757568	keystroke	h	n/a
378.934	0.09	757868	keystroke	o	n/a
379.054	0.136	758108	keystroke	w	n/a
379.415	0.164	758830	keystroke	a	n/a
379.64	0.12	759280	keystroke	r	n/a
379.969	0.135	759938	keystroke	d	n/a
380.359	0.135	760718	keystroke	Key.space	n/a
380.734	0.165	761468	keystroke	s	n/a
380.929	0.135	761858	keystroke	t	n/a
381.169	0.165	762338	keystroke	e	n/a
381.4695	0.165	762939	keystroke	a	n/a
381.8745	0.09	763749	keystroke	m	n/a
382.0695	0.105	764139	keystroke	Key.space	n/a
388.0865	0.013	776173	keystroke	m	n/a
388.1295	0.18	776259	keystroke	a	n/a
389.3145	0.135	778629	keystroke	z	n/a
390.2595	0.24	780519	keystroke	d	n/a
390.4395	0.18	780879	keystroke	a	n/a
390.7695	0.135	781539	keystroke	Key.space	n/a
391.0545	0.135	782109	keystroke	s	n/a
391.16	0.0895	782320	keystroke	h	n/a
391.4445	0.105	782889	keystroke	i	n/a
391.6695	0.075	783339	keystroke	p	n/a
391.8495	0.15	783699	keystroke	s	n/a
392.0145	0.105	784029	keystroke	Key.space	n/a
392.4045	0.075	784809	keystroke	Key.enter	n/a
392.484	10.662	784968	prompt	n/a	food atlantic minor protocol\n
393.3195	0.105	786639	keystroke	f	n/a
393.4545	0.075	786909	keystroke	o	n/a
393.6495	0.075	787299	keystroke	o	n/a
393.7995	0.18	787599	keystroke	d	n/a
393.9345	0.12	787869	keystroke	Key.space	n/a
394.1595	0.165	788319	keystroke	a	n/a
394.3845	0.135	788769	keystroke	r	n/a
394.9395	0.12	789879	keystroke	Key.backspace	n/a
395.0895	0.15	790179	keystroke	t	n/a
395.2545	0.105	790509	keystroke	a	n/a
396.1695	0.075	792339	keystroke	Key.backspace	n/a
396.8445	0.09	793689	keystroke	l	n/a
396.9045	0.195	793809	keystroke	a	n/a
397.1295	0.075	794259	keystroke	n	n/a
397.3095	0.12	794619	keystroke	t	n/a
397.4445	0.09	794889	keystroke	i	n/a
397.6695	0.135	795339	keystroke	c	n/a
397.9245	0.12	795849	keystroke	Key.space	n/a
398.1945	0.18	796389	keystroke	m	n/a
398.3595	0.15	796719	keystroke	i	n/a
398.7795	0.075	797559	keystroke	n	n/a
398.9595	0.09	797919	keystroke	o	n/a
399.1395	0.12	798279	keystroke	r	n/a
399.6795	0.105	799359	keystroke	Key.space	n/a
400.5795	0.075	801159	keystroke	p	n/a
400.7445	0.105	801489	keystroke	r	n/a
400.8945	0.09	801789	keystroke	o	n/a
401.1645	0.105	802329	keystroke	t	n/a
401.4195	0.075	802839	keystroke	o	n/a
402.1095	0.135	804219	keystroke	c	n/a
402.1845	0.09	804369	keystroke	o	n/a
402.4245	0.06	804849	keystroke	l	n/a
403.0545	0.09	806109	keystroke	Key.enter	n/a
403.149	20.4575	806298	prompt	n/a	lions interpretation fujitsu isaac\n
403.9545	0.105	807909	keystroke	l	n/a
404.1345	0.09	808269	keystroke	i	n/a
404.6895	0.09	809379	keystroke	o	n/a
404.8695	0.075	809739	keystroke	n	n/a
405.0345	0.195	810069	keystroke	s	n/a
405.2145	0.09	810429	keystroke	Key.space	n/a
405.4695	0.09	810939	keystroke	i	n/a
405.6645	0.075	811329	keystroke	n	n/a
405.8295	0.12	811659	keystroke	t	n/a
405.9945	0.195	811989	keystroke	e	n/a
406.1295	0.12	812259	keystroke	r	n/a
407.2095	0.12	814419	keystroke	p	n/a
407.3895	0.165	814779	keystroke	r	n/a
407.5095	0.18	815019	keystroke	e	n/a
407.8545	0.165	815709	keystroke	t	n/a
408.1095	0.09	816219	keystroke	a	n/a
408.4695	0.15	816939	keystroke	t	n/a
408.6795	0.075	817359	keystroke	i	n/a
408.8895	0.06	817779	keystroke	o	n/a
409.0545	0.075	818109	keystroke	n	n/a
409.2345	0.06	818469	keystroke	s	n/a
409.6545	0.09	819309	keystroke	Key.backspace	n/a
409.8645	0.12	819729	keystroke	Key.space	n/a
412.2675	0.087	824535	keystroke	f	n/a
412.3395	0.105	824679	keystroke	u	n/a
412.9245	0.075	825849	keystroke	j	n/a
413.0745	0.12	826149	keystroke	i	n/a
413.2545	0.15	826509	keystroke	t	n/a
414.1695	0.135	828339	keystroke	s	n/a
414.4095	0.12	828819	keystroke	u	n/a
415.3095	0.12	830619	keystroke	Key.space	n/a
415.7145	0.105	831429	keystroke	i	n/a
421.0725	0.088	842145	keystroke	s	n/a
421.5345	0.075	843069	keystroke	a	n/a
421.7745	0.21	843549	keystroke	a	n/a
422.7955	0.119	845591	keystroke	c	n/a
423.5445	0.06	847089	keystroke	Key.enter	n/a
423.616	9.1555	847232	prompt	n/a	timer oklahoma spread relay\n
424.6555	0.149	849311	keystroke	t	n/a
424.7745	0.105	849549	keystroke	i	n/a
424.9545	0.12	849909	keystroke	m	n/a
425.1055	0.164	850211	keystroke	e	n/a
425.1805	0.135	850361	keystroke	r	n/a
425.3595	0.135	850719	keystroke	Key.space	n/a
425.7345	0.12	851469	keystroke	o	n/a
425.9745	0.105	851949	keystroke	k	n/a
426.3195	0.015	852639	keystroke	l	n/a
427.3845	0.12	854769	keystroke	a	n/a
427.7445	0.091	855489	keystroke	h	n/a
427.9395	0.09	855879	keystroke	o	n/a
428.2095	0.09	856419	keystroke	m	n/a
428.3295	0.181	856659	keystroke	a	n/a
428.7645	0.135	857529	keystroke	Key.space	n/a
429.1095	0.15	858219	keystroke	s	n/a
429.2745	0.106	858549	keystroke	p	n/a
429.6045	0.12	859209	keystroke	r	n/a
429.6795	0.225	859359	keystroke	e	n/a
429.8745	0.21	859749	keystroke	a	n/a
430.2805	0.164	860561	keystroke	d	n/a
430.9995	0.15	861999	keystroke	Key.space	n/a
431.4345	0.12	862869	keystroke	r	n/a
431.4945	0.195	862989	keystroke	e	n/a
431.7205	0.119	863441	keystroke	l	n/a
431.9895	0.18	863979	keystroke	a	n/a
432.2605	0.105	864521	keystroke	y	n/a
432.6795	0.09	865359	keystroke	Key.enter	n/a
432.7745	10.377	865549	prompt	n/a	dayton convertible parameter except\n
434.3305	0.15	868661	keystroke	d	n/a
434.3895	0.18	868779	keystroke	a	n/a
434.7805	0.134	869561	keystroke	y	n/a
435.1255	0.134	870251	keystroke	t	n/a
435.2155	0.134	870431	keystroke	o	n/a
435.4545	0.09	870909	keystroke	n	n/a
435.5595	0.196	871119	keystroke	a	n/a
435.7845	0.12	871569	keystroke	Key.space	n/a
436.0245	0.165	872049	keystroke	c	n/a
436.1305	0.119	872261	keystroke	o	n/a
436.3395	0.076	872679	keystroke	n	n/a
436.4745	0.105	872949	keystroke	v	n/a
436.6855	0.164	873371	keystroke	e	n/a
436.8045	0.076	873609	keystroke	r	n/a
437.2255	0.12	874451	keystroke	t	n/a
437.4645	0.121	874929	keystroke	i	n/a
437.9905	0.089	875981	keystroke	b	n/a
438.1845	0.105	876369	keystroke	l	n/a
438.3505	0.15	876701	keystroke	e	n/a
438.6645	0.09	877329	keystroke	Key.space	n/a
438.8605	0.104	877721	keystroke	p	n/a
439.0395	0.211	878079	keystroke	a	n/a
439.3095	0.18	878619	keystroke	r	n/a
439.4745	0.136	878949	keystroke	a	n/a
439.9105	0.105	879821	keystroke	m	n/a
440.0455	0.195	880091	keystroke	e	n/a
440.2855	0.149	880571	keystroke	t	n/a
440.4505	0.255	880901	keystroke	e	n/a
440.5855	0.18	881171	keystroke	r	n/a
441.0645	0.105	882129	keystroke	Key.space	n/a
441.3205	0.12	882641	keystroke	e	n/a
441.7095	0.151	883419	keystroke	x	n/a
442.1005	0.15	884201	keystroke	c	n/a
442.3255	0.149	884651	keystroke	e	n/a
442.5345	0.106	885069	keystroke	p	n/a
442.6995	0.136	885399	keystroke	t	n/a
443.0455	0.105	886091	keystroke	Key.enter	n/a
443.1545	10.842	886309	prompt	n/a	biol displayed contracting murray\n
444.7705	0.075	889541	keystroke	b	n/a
444.9205	0.089	889841	keystroke	i	n/a
445.1455	0.075	890291	keystroke	o	n/a
445.6105	0.09	891221	keystroke	l	n/a
446.2855	0.135	892571	keystroke	Key.space	n/a
446.7355	0.15	893471	keystroke	d	n/a
446.8405	0.12	893681	keystroke	i	n/a
447.0055	0.15	894011	keystroke	s	n/a
447.2155	0.03	894431	keystroke	l	n/a
447.5605	0.09	895121	keystroke	Key.backspace	n/a
448.1455	0.06	896291	keystroke	p	n/a
448.3245	0.106	896649	keystroke	l	n/a
448.4305	0.195	896861	keystroke	a	n/a
448.6255	0.12	897251	keystroke	y	n/a
448.8655	0.15	897731	keystroke	e	n/a
449.1205	0.165	898241	keystroke	d	n/a
449.2705	0.12	898541	keystroke	Key.space	n/a
449.8405	0.15	899681	keystroke	c	n/a
449.9455	0.12	899891	keystroke	o	n/a
450.1405	0.105	900281	keystroke	n	n/a
450.3355	0.15	900671	keystroke	t	n/a
450.4255	0.24	900851	keystroke	r	n/a
450.6205	0.15	901241	keystroke	a	n/a
450.8905	0.135	901781	keystroke	c	n/a
451.1605	0.15	902321	keystroke	t	n/a
451.4455	0.09	902891	keystroke	i	n/a
451.6105	0.105	903221	keystroke	n	n/a
451.7605	0.15	903521	keystroke	g	n/a
451.9555	0.105	903911	keystroke	Key.space	n/a
452.2105	0.09	904421	keystroke	m	n/a
452.4205	0.075	904841	keystroke	u	n/a
452.5855	0.075	905171	keystroke	s	n/a
452.9605	0.09	905921	keystroke	Key.backspace	n/a
453.0655	0.09	906131	keystroke	r	n/a
453.2455	0.165	906491	keystroke	r	n/a
453.3805	0.165	906761	keystroke	a	n/a
453.5755	0.075	907151	keystroke	y	n/a
453.9055	0.09	907811	keystroke	Key.enter	n/a
453.9995	13.6025	907999	prompt	n/a	cult oman perceived according\n
454.9405	0.15	909881	keystroke	c	n/a
455.0455	0.105	910091	keystroke	u	n/a
455.2405	0.12	910481	keystroke	l	n/a
455.4355	0.15	910871	keystroke	t	n/a
455.9455	0.135	911891	keystroke	Key.space	n/a
456.5455	0.09	913091	keystroke	o	n/a
456.7705	0.09	913541	keystroke	m	n/a
456.9505	0.18	913901	keystroke	a	n/a
457.2505	0.105	914501	keystroke	n	n/a
457.5505	0.135	915101	keystroke	Key.space	n/a
458.0305	0.105	916061	keystroke	p	n/a
458.1655	0.165	916331	keystroke	e	n/a
458.2705	0.105	916541	keystroke	r	n/a
459.0505	0.2095	918101	keystroke	c	n/a
459.275	0.15	918550	keystroke	e	n/a
459.455	0.135	918910	keystroke	i	n/a
459.86	0.135	919720	keystroke	v	n/a
460.085	0.105	920170	keystroke	e	n/a
460.34	0.105	920680	keystroke	d	n/a
461.165	0.135	922330	keystroke	Key.space	n/a
461.4055	0.165	922811	keystroke	s	n/a
461.7355	0.105	923471	keystroke	c	n/a
461.9905	0.06	923981	keystroke	o	n/a
462.1405	0.105	924281	keystroke	o	n/a
462.9655	0.075	925931	keystroke	Key.backspace	n/a
463.1455	0.075	926291	keystroke	Key.backspace	n/a
463.3255	0.075	926651	keystroke	Key.backspace	n/a
463.4905	0.105	926981	keystroke	Key.backspace	n/a
464.3005	0.105	928601	keystroke	a	n/a
465.5305	0.075	931061	keystroke	c	n/a
465.6805	0.165	931361	keystroke	c	n/a
465.8605	0.135	931721	keystroke	o	n/a
466.5055	0.075	933011	keystroke	r	n/a
466.6855	0.12	933371	keystroke	d	n/a
466.8205	0.09	933641	keystroke	i	n/a
466.9855	0.09	933971	keystroke	n	n/a
467.1055	0.105	934211	keystroke	g	n/a
467.5405	0.06	935081	keystroke	Key.enter	n/a
467.6045	12.537	935209	prompt	n/a	extraction tournament blow cheers\n
468.9205	0.075	937841	keystroke	e	n/a
469.1905	0.105	938381	keystroke	x	n/a
469.5655	0.135	939131	keystroke	t	n/a
469.6255	0.225	939251	keystroke	r	n/a
469.7905	0.15	939581	keystroke	a	n/a
470.0905	0.105	940181	keystroke	c	n/a
470.3455	0.105	940691	keystroke	t	n/a
470.5405	0.075	941081	keystroke	i	n/a
470.7205	0.075	941441	keystroke	o	n/a
470.9305	0.06	941861	keystroke	n	n/a
471.0955	0.105	942191	keystroke	Key.space	n/a
471.4255	0.12	942851	keystroke	t	n/a
471.5605	0.135	943121	keystroke	o	n/a
471.7405	0.09	943481	keystroke	u	n/a
472.1005	0.06	944201	keystroke	r	n/a
472.3555	0.09	944711	keystroke	n	n/a
472.4905	0.15	944981	keystroke	a	n/a
473.0005	0.105	946001	keystroke	m	n/a
473.1505	0.135	946301	keystroke	e	n/a
473.2555	0.075	946511	keystroke	n	n/a
473.4355	0.105	946871	keystroke	t	n/a
473.8405	0.105	947681	keystroke	Key.space	n/a
474.1405	0.075	948281	keystroke	b	n/a
474.8155	0.09	949631	keystroke	e	n/a
474.9055	0.12	949811	keystroke	l	n/a
475.1005	0.09	950201	keystroke	o	n/a
475.2655	0.135	950531	keystroke	w	n/a
475.5805	0.12	951161	keystroke	Key.space	n/a
475.8805	0.15	951761	keystroke	c	n/a
476.0155	0.09	952031	keystroke	h	n/a
476.1955	0.075	952391	keystroke	e	n/a
476.3755	0.105	952751	keystroke	e	n/a
476.5555	0.105	953111	keystroke	r	n/a
476.7505	0.015	953501	keystroke	y	n/a
477.1255	0.105	954251	keystroke	s	n/a
477.5755	0.06	955151	keystroke	=	n/a
477.7555	0.075	955511	keystroke	Key.backspace	n/a
478.0555	0.06	956111	keystroke	Key.backspace	n/a
478.2205	0.105	956441	keystroke	Key.backspace	n/a
478.4455	0.09	956891	keystroke	s	n/a
480.095	0.045	960190	keystroke	Key.enter	n/a
480.1445	9.627	960289	prompt	n/a	modular selections cork the\n
481.79	0.15	963580	keystroke	m	n/a
481.925	0.12	963850	keystroke	o	n/a
482.405	0.18	964810	keystroke	d	n/a
482.51	0.105	965020	keystroke	u	n/a
482.735	0.12	965470	keystroke	l	n/a
482.975	0.18	965950	keystroke	a	n/a
483.65	0.135	967300	keystroke	r	n/a
483.86	0.12	967720	keystroke	Key.space	n/a
484.625	0.225	969250	keystroke	s	n/a
484.73	0.15	969460	keystroke	e	n/a
484.925	0.135	969850	keystroke	l	n/a
485.075	0.15	970150	keystroke	e	n/a
485.735	0.12	971470	keystroke	c	n/a
486.035	0.15	972070	keystroke	t	n/a
486.155	0.06	972310	keystroke	i	n/a
486.335	0.075	972670	keystroke	o	n/a
486.485	0.09	972970	keystroke	n	n/a
486.65	0.15	973300	keystroke	s	n/a
486.785	0.12	973570	keystroke	Key.space	n/a
487.31	0.12	974620	keystroke	c	n/a
487.431	0.104	974862	keystroke	o	n/a
487.595	0.12	975190	keystroke	r	n/a
488	0.09	976000	keystroke	k	n/a
489.035	0.105	978070	keystroke	Key.space	n/a
489.185	0.15	978370	keystroke	t	n/a
489.32	0.105	978640	keystroke	h	n/a
489.44	0.15	978880	keystroke	e	n/a
489.71	0.06	979420	keystroke	Key.enter	n/a
489.776	11.456	979552	prompt	n/a	beginners leave coordinator endorsement\n
491.105	0.06	982210	keystroke	b	n/a
491.195	0.135	982390	keystroke	e	n/a
491.465	0.105	982930	keystroke	g	n/a
491.585	0.105	983170	keystroke	i	n/a
492.29	0.06	984580	keystroke	n	n/a
492.44	0.075	984880	keystroke	n	n/a
492.56	0.12	985120	keystroke	e	n/a
493.055	0.15	986110	keystroke	r	n/a
493.34	0.15	986680	keystroke	s	n/a
493.82	0.165	987640	keystroke	Key.space	n/a
494.18	0.075	988360	keystroke	l	n/a
494.27	0.195	988540	keystroke	e	n/a
494.375	0.165	988750	keystroke	a	n/a
494.69	0.09	989380	keystroke	v	n/a
494.855	0.165	989710	keystroke	e	n/a
495.035	0.12	990070	keystroke	Key.space	n/a
495.32	0.135	990640	keystroke	c	n/a
495.44	0.09	990880	keystroke	o	n/a
495.65	0.105	991300	keystroke	o	n/a
495.965	0.105	991930	keystroke	r	n/a
496.55	0.15	993100	keystroke	d	n/a
496.655	0.105	993310	keystroke	i	n/a
496.865	0.075	993730	keystroke	n	n/a
497.03	0.18	994060	keystroke	a	n/a
497.225	0.135	994450	keystroke	t	n/a
497.735	0.135	995470	keystroke	o	n/a
497.885	0.12	995770	keystroke	r	n/a
498.38	0.12	996760	keystroke	Key.space	n/a
498.62	0.09	997240	keystroke	e	n/a
498.98	0.075	997960	keystroke	n	n/a
499.145	0.135	998290	keystroke	d	n/a
499.37	0.09	998740	keystroke	o	n/a
499.505	0.12	999010	keystroke	r	n/a
499.91	0.15	999820	keystroke	s	n/a
500.195	0.12	1000390	keystroke	e	n/a
500.555	0.075	1001110	keystroke	m	n/a
500.66	0.15	1001320	keystroke	e	n/a
500.78	0.09	1001560	keystroke	n	n/a
500.915	0.135	1001830	keystroke	t	n/a
501.14	0.09	1002280	keystroke	Key.enter	n/a
501.235	12.5665	1002470	prompt	n/a	fears pressed inputs astrology\n
502.205	0.15	1004410	keystroke	f	n/a
502.37	0.225	1004740	keystroke	e	n/a
502.55	0.165	1005100	keystroke	a	n/a
502.835	0.12	1005670	keystroke	r	n/a
503.165	0.15	1006330	keystroke	s	n/a
503.8695	0.12	1007739	keystroke	Key.space	n/a
504.0945	0.105	1008189	keystroke	p	n/a
504.2295	0.135	1008459	keystroke	r	n/a
504.3195	0.195	1008639	keystroke	e	n/a
504.6645	0.12	1009329	keystroke	s	n/a
504.9195	0.09	1009839	keystroke	s	n/a
505.0845	0.105	1010169	keystroke	s	n/a
505.6395	0.09	1011279	keystroke	Key.backspace	n/a
505.7445	0.135	1011489	keystroke	e	n/a
506.5095	0.135	1013019	keystroke	Key.space	n/a
507.1695	0.075	1014339	keystroke	Key.backspace	n/a
507.2145	0.15	1014429	keystroke	d	n/a
507.4245	0.135	1014849	keystroke	Key.space	n/a
508.2645	0.075	1016529	keystroke	i	n/a
508.8345	0.075	1017669	keystroke	n	n/a
509.0445	0.105	1018089	keystroke	p	n/a
509.2695	0.06	1018539	keystroke	u	n/a
509.4645	0.105	1018929	keystroke	t	n/a
509.8845	0.165	1019769	keystroke	s	n/a
510.0195	0.12	1020039	keystroke	Key.space	n/a
510.2895	0.135	1020579	keystroke	a	n/a
510.6495	0.165	1021299	keystroke	s	n/a
511.0395	0.15	1022079	keystroke	t	n/a
511.1745	0.12	1022349	keystroke	r	n/a
511.4145	0.12	1022829	keystroke	o	n/a
511.7145	0.03	1023429	keystroke	l	n/a
511.8795	0.105	1023759	keystroke	o	n/a
512.1495	0.105	1024299	keystroke	g	n/a
512.7495	0.075	1025499	keystroke	y	n/a
513.7395	0.06	1027479	keystroke	Key.enter	n/a
513.804	12.7475	1027608	prompt	n/a	bugs definitions regular scottish\n
514.9855	0.089	1029971	keystroke	b	n/a
515.0895	0.1805	1030179	keystroke	u	n/a
515.285	0.12	1030570	keystroke	g	n/a
515.54	0.18	1031080	keystroke	s	n/a
515.675	0.15	1031350	keystroke	Key.space	n/a
516.365	0.09	1032730	keystroke	d	n/a
516.575	0.09	1033150	keystroke	e	n/a
516.755	0.15	1033510	keystroke	f	n/a
516.92	0.09	1033840	keystroke	i	n/a
517.085	0.075	1034170	keystroke	n	n/a
517.265	0.075	1034530	keystroke	i	n/a
518.51	0.12	1037020	keystroke	t	n/a
518.615	0.075	1037230	keystroke	i	n/a
518.795	0.09	1037590	keystroke	o	n/a
518.975	0.06	1037950	keystroke	n	n/a
519.095	0.18	1038190	keystroke	s	n/a
519.575	0.135	1039150	keystroke	Key.space	n/a
519.86	0.135	1039720	keystroke	r	n/a
519.95	0.135	1039900	keystroke	e	n/a
520.19	0.105	1040380	keystroke	g	n/a
520.835	0.09	1041670	keystroke	u	n/a
522.245	0.09	1044490	keystroke	l	n/a
522.35	0.21	1044700	keystroke	a	n/a
522.605	0.15	1045210	keystroke	r	n/a
523.46	0.105	1046920	keystroke	Key.space	n/a
523.895	0.135	1047790	keystroke	s	n/a
524.105	0.135	1048210	keystroke	c	n/a
524.42	0.12	1048840	keystroke	o	n/a
524.705	0.105	1049410	keystroke	t	n/a
524.9	0.105	1049800	keystroke	t	n/a
525.455	0.06	1050910	keystroke	i	n/a
526.055	0.18	1052110	keystroke	s	n/a
526.205	0.045	1052410	keystroke	h	n/a
526.475	0.075	1052950	keystroke	Key.enter	n/a
526.554	12.4475	1053108	prompt	n/a	activists broadcast exciting lined\n
527.3	0.12	1054600	keystroke	a	n/a
527.555	0.135	1055110	keystroke	c	n/a
527.84	0.09	1055680	keystroke	t	n/a
527.99	0.09	1055980	keystroke	i	n/a
528.2	0.09	1056400	keystroke	v	n/a
528.305	0.075	1056610	keystroke	i	n/a
528.83	0.195	1057660	keystroke	s	n/a
528.995	0.18	1057990	keystroke	t	n/a
529.985	0.165	1059970	keystroke	s	n/a
530.105	0.15	1060210	keystroke	Key.space	n/a
530.555	0.075	1061110	keystroke	b	n/a
530.705	0.12	1061410	keystroke	r	n/a
531.365	0.12	1062730	keystroke	o	n/a
531.86	0.15	1063720	keystroke	a	n/a
533.015	0.135	1066030	keystroke	d	n/a
533.585	0.165	1067170	keystroke	c	n/a
533.72	0.135	1067440	keystroke	a	n/a
533.84	0.135	1067680	keystroke	s	n/a
534.635	0.075	1069270	keystroke	t	n/a
535.37	0.165	1070740	keystroke	Key.space	n/a
535.835	0.075	1071670	keystroke	e	n/a
536.225	0.135	1072450	keystroke	x	n/a
536.495	0.15	1072990	keystroke	c	n/a
536.66	0.105	1073320	keystroke	i	n/a
536.825	0.135	1073650	keystroke	t	n/a
536.975	0.12	1073950	keystroke	i	n/a
537.155	0.09	1074310	keystroke	n	n/a
537.32	0.12	1074640	keystroke	g	n/a
537.455	0.12	1074910	keystroke	Key.space	n/a
537.755	0.075	1075510	keystroke	l	n/a
537.92	0.09	1075840	keystroke	i	n/a
538.1	0.09	1076200	keystroke	n	n/a
538.415	0.09	1076830	keystroke	e	n/a
538.67	0.15	1077340	keystroke	d	n/a
538.925	0.075	1077850	keystroke	Key.enter	n/a
539.004	16.978	1078008	prompt	n/a	committees object styles measures\n
539.9	0.15	1079800	keystroke	c	n/a
540.02	0.105	1080040	keystroke	o	n/a
540.245	0.075	1080490	keystroke	m	n/a
540.425	0.09	1080850	keystroke	m	n/a
540.695	0.09	1081390	keystroke	o	n/a
541.6105	0.09	1083221	keystroke	Key.backspace	n/a
541.9105	0.075	1083821	keystroke	i	n/a
542.2405	0.09	1084481	keystroke	t	n/a
542.4055	0.135	1084811	keystroke	t	n/a
542.7955	0.09	1085591	keystroke	e	n/a
542.9755	0.135	1085951	keystroke	e	n/a
543.2305	0.18	1086461	keystroke	s	n/a
543.5005	0.135	1087001	keystroke	Key.space	n/a
544.0555	0.105	1088111	keystroke	o	n/a
544.2805	0.075	1088561	keystroke	b	n/a
544.7605	0.075	1089521	keystroke	j	n/a
544.8655	0.18	1089731	keystroke	e	n/a
545.421	0.15	1090842	keystroke	c	n/a
545.751	0.135	1091502	keystroke	t	n/a
546.276	0.119	1092552	keystroke	Key.space	n/a
546.486	0.18	1092972	keystroke	s	n/a
546.681	0.105	1093362	keystroke	t	n/a
546.89	0.045	1093780	keystroke	r	n/a
547.266	0.075	1094532	keystroke	Key.backspace	n/a
547.505	0.061	1095010	keystroke	y	n/a
548.151	0.09	1096302	keystroke	l	n/a
548.285	0.181	1096570	keystroke	e	n/a
548.391	0.18	1096782	keystroke	s	n/a
548.781	0.105	1097562	keystroke	Key.space	n/a
549.051	0.24	1098102	keystroke	e	n/a
550.266	0.075	1100532	keystroke	Key.backspace	n/a
551.151	0.09	1102302	keystroke	m	n/a
551.226	0.195	1102452	keystroke	e	n/a
551.331	0.195	1102662	keystroke	a	n/a
554.078	0.073	1108156	keystroke	s	n/a
555.006	0.06	1110012	keystroke	u	n/a
555.096	0.12	1110192	keystroke	r	n/a
555.171	0.285	1110342	keystroke	e	n/a
555.411	0.135	1110822	keystroke	s	n/a
555.906	0.075	1111812	keystroke	Key.enter	n/a
555.985	9.627	1111970	prompt	n/a	adopt status virus socket\n
556.836	0.135	1113672	keystroke	a	n/a
557.256	0.15	1114512	keystroke	d	n/a
557.901	0.075	1115802	keystroke	o	n/a
558.096	0.105	1116192	keystroke	p	n/a
558.576	0.075	1117152	keystroke	t	n/a
558.846	0.12	1117692	keystroke	Key.space	n/a
559.746	0.15	1119492	keystroke	a	n/a
559.956	0.18	1119912	keystroke	t	n/a
560.166	0.165	1120332	keystroke	a	n/a
560.391	0.15	1120782	keystroke	t	n/a
560.961	0.075	1121922	keystroke	u	n/a
561.111	0.135	1122222	keystroke	s	n/a
561.276	0.12	1122552	keystroke	Key.space	n/a
562.251	0.12	1124502	keystroke	v	n/a
562.356	0.09	1124712	keystroke	i	n/a
562.821	0.135	1125642	keystroke	r	n/a
562.971	0.09	1125942	keystroke	u	n/a
563.106	0.165	1126212	keystroke	s	n/a
563.931	0.135	1127862	keystroke	Key.space	n/a
564.186	0.15	1128372	keystroke	s	n/a
564.321	0.09	1128642	keystroke	o	n/a
564.561	0.18	1129122	keystroke	c	n/a
564.741	0.09	1129482	keystroke	k	n/a
565.011	0.135	1130022	keystroke	e	n/a
565.191	0.105	1130382	keystroke	t	n/a
565.506	0.105	1131012	keystroke	Key.enter	n/a
565.615	9.7315	1131230	prompt	n/a	proper searched guys yeast\n
566.421	0.105	1132842	keystroke	p	n/a
566.571	0.1495	1133142	keystroke	r	n/a
566.7505	0.09	1133501	keystroke	o	n/a
567.291	0.06	1134582	keystroke	p	n/a
567.381	0.21	1134762	keystroke	e	n/a
567.516	0.135	1135032	keystroke	r	n/a
567.846	0.075	1135692	keystroke	Key.space	n/a
568.101	0.225	1136202	keystroke	s	n/a
568.206	0.165	1136412	keystroke	e	n/a
568.506	0.18	1137012	keystroke	a	n/a
568.761	0.12	1137522	keystroke	r	n/a
569.091	0.135	1138182	keystroke	c	n/a
569.751	0.06	1139502	keystroke	h	n/a
569.856	0.105	1139712	keystroke	e	n/a
570.111	0.12	1140222	keystroke	d	n/a
570.276	0.12	1140552	keystroke	Key.space	n/a
570.621	0.075	1141242	keystroke	j	n/a
571.056	0.075	1142112	keystroke	Key.backspace	n/a
571.326	0.15	1142652	keystroke	g	n/a
571.851	0.075	1143702	keystroke	u	n/a
572.031	0.075	1144062	keystroke	y	n/a
572.286	0.165	1144572	keystroke	s	n/a
572.421	0.135	1144842	keystroke	Key.space	n/a
573.156	0.075	1146312	keystroke	y	n/a
573.246	0.225	1146492	keystroke	e	n/a
573.396	0.165	1146792	keystroke	a	n/a
573.711	0.105	1147422	keystroke	t	n/a
574.131	0.075	1148262	keystroke	Key.backspace	n/a
574.221	0.165	1148442	keystroke	s	n/a
574.416	0.1645	1148832	keystroke	t	n/a
575.2855	0.06	1150571	keystroke	Key.enter	n/a
575.349	7.978	1150698	prompt	n/a	stereo comics falls rest\n
576.3505	0.165	1152701	keystroke	s	n/a
576.5005	0.15	1153001	keystroke	t	n/a
576.7105	0.195	1153421	keystroke	e	n/a
576.8755	0.18	1153751	keystroke	r	n/a
577.0405	0.12	1154081	keystroke	e	n/a
577.3855	0.12	1154771	keystroke	o	n/a
578.0155	0.15	1156031	keystroke	Key.space	n/a
578.4955	0.12	1156991	keystroke	c	n/a
578.6005	0.105	1157201	keystroke	o	n/a
578.8555	0.105	1157711	keystroke	m	n/a
579.0805	0.09	1158161	keystroke	i	n/a
579.5755	0.12	1159151	keystroke	c	n/a
580.1155	0.165	1160231	keystroke	s	n/a
580.3255	0.135	1160651	keystroke	Key.space	n/a
581.3305	0.165	1162661	keystroke	f	n/a
581.4355	0.165	1162871	keystroke	a	n/a
581.6755	0.06	1163351	keystroke	l	n/a
581.8405	0.09	1163681	keystroke	l	n/a
581.9755	0.18	1163951	keystroke	s	n/a
582.1255	0.09	1164251	keystroke	Key.space	n/a
582.3805	0.15	1164761	keystroke	r	n/a
582.4705	0.195	1164941	keystroke	e	n/a
582.5905	0.165	1165181	keystroke	s	n/a
582.8605	0.12	1165721	keystroke	t	n/a
583.2655	0.06	1166531	keystroke	Key.enter	n/a
583.33	18.5365	1166660	prompt	n/a	continuous ecological hereby albania\n
584.2105	0.18	1168421	keystroke	c	n/a
584.3305	0.09	1168661	keystroke	o	n/a
584.5105	0.09	1169021	keystroke	n	n/a
584.6605	0.135	1169321	keystroke	t	n/a
584.8555	0.105	1169711	keystroke	i	n/a
585.0205	0.105	1170041	keystroke	n	n/a
585.1705	0.105	1170341	keystroke	u	n/a
585.4105	0.105	1170821	keystroke	o	n/a
585.6205	0.06	1171241	keystroke	u	n/a
586.1455	0.015	1172291	keystroke	Key.backspace	n/a
587.1655	0.06	1174331	keystroke	u	n/a
587.3155	0.18	1174631	keystroke	s	n/a
587.5105	0.105	1175021	keystroke	Key.space	n/a
588.0955	0.12	1176191	keystroke	e	n/a
588.4855	0.105	1176971	keystroke	c	n/a
588.6355	0.105	1177271	keystroke	o	n/a
588.8605	0.09	1177721	keystroke	l	n/a
589.0405	0.075	1178081	keystroke	o	n/a
589.8655	0.105	1179731	keystroke	g	n/a
589.9705	0.105	1179941	keystroke	i	n/a
590.1055	0.165	1180211	keystroke	a	n/a
590.4055	0.09	1180811	keystroke	l	n/a
592.4605	0.06	1184921	keystroke	Key.backspace	n/a
592.6555	0.075	1185311	keystroke	Key.backspace	n/a
593.2705	0.21	1186541	keystroke	c	n/a
593.4205	0.225	1186841	keystroke	a	n/a
593.5555	0.165	1187111	keystroke	l	n/a
593.8855	0.15	1187771	keystroke	Key.space	n/a
595.7755	0.09	1191551	keystroke	h	n/a
595.8955	0.135	1191791	keystroke	e	n/a
595.9705	0.165	1191941	keystroke	r	n/a
596.1655	0.09	1192331	keystroke	e	n/a
597.2005	0.075	1194401	keystroke	v	n/a
597.7105	0.06	1195421	keystroke	Key.backspace	n/a
597.8305	0.135	1195661	keystroke	b	n/a
598.8205	0.075	1197641	keystroke	y	n/a
599.0155	0.12	1198031	keystroke	Key.space	n/a
599.4505	0.21	1198901	keystroke	a	n/a
599.5405	0.105	1199081	keystroke	l	n/a
600.2605	0.06	1200521	keystroke	b	n/a
600.9955	0.18	1201991	keystroke	a	n/a
601.1455	0.09	1202291	keystroke	n	n/a
601.3405	0.105	1202681	keystroke	i	n/a
601.5055	0.18	1203011	keystroke	a	n/a
601.7755	0.09	1203551	keystroke	Key.enter	n/a
601.8695	23.0825	1203739	prompt	n/a	definitely hottest communist aerial\n
602.7205	0.09	1205441	keystroke	d	n/a
602.9455	0.075	1205891	keystroke	e	n/a
603.1105	0.12	1206221	keystroke	f	n/a
603.2605	0.09	1206521	keystroke	i	n/a
603.4255	0.075	1206851	keystroke	n	n/a
603.5905	0.09	1207181	keystroke	i	n/a
603.9205	0.09	1207841	keystroke	t	n/a
604.0855	0.135	1208171	keystroke	e	n/a
604.4305	0.075	1208861	keystroke	y	n/a
604.6705	0.105	1209341	keystroke	l	n/a
604.9705	0.06	1209941	keystroke	y	n/a
605.5105	0.075	1211021	keystroke	Key.backspace	n/a
605.7055	0.075	1211411	keystroke	Key.backspace	n/a
605.9005	0.075	1211801	keystroke	Key.backspace	n/a
607.0105	0.075	1214021	keystroke	Key.backspace	n/a
608.825	0.09	1217650	keystroke	e	n/a
608.945	0.09	1217890	keystroke	;	n/a
609.17	0.06	1218340	keystroke	y	n/a
609.47	0.091	1218940	keystroke	Key.space	n/a
610.685	0.075	1221370	keystroke	h	n/a
610.865	0.106	1221730	keystroke	o	n/a
611.061	0.074	1222122	keystroke	t	n/a
611.271	0.105	1222542	keystroke	t	n/a
611.48	0.12	1222960	keystroke	e	n/a
611.735	0.181	1223470	keystroke	s	n/a
611.945	0.135	1223890	keystroke	t	n/a
612.5	0.105	1225000	keystroke	Key.space	n/a
613.235	0.075	1226470	keystroke	Key.backspace	n/a
613.43	0.06	1226860	keystroke	Key.backspace	n/a
613.625	0.045	1227250	keystroke	Key.backspace	n/a
613.805	0.06	1227610	keystroke	Key.backspace	n/a
613.985	0.075	1227970	keystroke	Key.backspace	n/a
614.165	0.06	1228330	keystroke	Key.backspace	n/a
614.345	0.06	1228690	keystroke	Key.backspace	n/a
614.525	0.06	1229050	keystroke	Key.backspace	n/a
614.69	0.075	1229380	keystroke	Key.backspace	n/a
614.87	0.09	1229740	keystroke	Key.backspace	n/a
615.14	0.105	1230280	keystroke	Key.backspace	n/a
615.815	0.105	1231630	keystroke	l	n/a
616.1	0.045	1232200	keystroke	y	n/a
616.4	0.105	1232800	keystroke	Key.space	n/a
617.345	0.06	1234690	keystroke	h	n/a
617.495	0.091	1234990	keystroke	o	n/a
617.615	0.076	1235230	keystroke	t	n/a
617.78	0.12	1235560	keystroke	t	n/a
617.945	0.12	1235890	keystroke	e	n/a
618.155	0.15	1236310	keystroke	s	n/a
618.35	0.166	1236700	keystroke	t	n/a
618.575	0.135	1237150	keystroke	Key.space	n/a
618.86	0.15	1237720	keystroke	c	n/a
618.995	0.106	1237990	keystroke	o	n/a
619.235	0.075	1238470	keystroke	m	n/a
619.416	0.074	1238832	keystroke	m	n/a
619.611	0.074	1239222	keystroke	u	n/a
620.45	0.106	1240900	keystroke	n	n/a
620.571	0.12	1241142	keystroke	i	n/a
620.721	0.179	1241442	keystroke	s	n/a
621.05	0.091	1242100	keystroke	t	n/a
621.275	0.12	1242550	keystroke	Key.space	n/a
621.8	0.166	1243600	keystroke	a	n/a
621.95	0.151	1243900	keystroke	r	n/a
622.565	0.075	1245130	keystroke	Key.backspace	n/a
622.656	0.18	1245312	keystroke	e	n/a
622.791	0.119	1245582	keystroke	r	n/a
623.586	0.089	1247172	keystroke	i	n/a
623.735	0.166	1247470	keystroke	a	n/a
623.885	0.106	1247770	keystroke	l	n/a
624.89	0.061	1249780	keystroke	Key.enter	n/a
624.956	9.2065	1249912	prompt	n/a	cargo cowboy diagram exams\n
625.866	0.18	1251732	keystroke	c	n/a
626	0.196	1252000	keystroke	a	n/a
626.21	0.106	1252420	keystroke	r	n/a
626.466	0.12	1252932	keystroke	g	n/a
626.631	0.105	1253262	keystroke	o	n/a
626.825	0.136	1253650	keystroke	Key.space	n/a
627.111	0.135	1254222	keystroke	c	n/a
627.216	0.09	1254432	keystroke	o	n/a
627.56	0.151	1255120	keystroke	w	n/a
628.161	0.06	1256322	keystroke	b	n/a
628.341	0.089	1256682	keystroke	o	n/a
628.49	0.15	1256980	keystroke	w	n/a
628.641	0.12	1257282	keystroke	Key.space	n/a
629.346	0.135	1258692	keystroke	d	n/a
629.451	0.12	1258902	keystroke	i	n/a
629.601	0.21	1259202	keystroke	a	n/a
631.101	0.12	1262202	keystroke	g	n/a
631.176	0.18	1262352	keystroke	r	n/a
631.371	0.15	1262742	keystroke	a	n/a
631.745	0.151	1263490	keystroke	m	n/a
632.406	0.165	1264812	keystroke	Key.space	n/a
632.661	0.135	1265322	keystroke	e	n/a
633.051	0.165	1266102	keystroke	x	n/a
633.321	0.18	1266642	keystroke	a	n/a
633.545	0.106	1267090	keystroke	m	n/a
633.725	0.18	1267450	keystroke	s	n/a
634.085	0.076	1268170	keystroke	Key.enter	n/a
634.1675	15.265	1268335	prompt	n/a	editors anne shortly administrator\n
635.121	0.105	1270242	keystroke	e	n/a
635.331	0.135	1270662	keystroke	d	n/a
637.056	0.09	1274112	keystroke	i	n/a
637.191	0.105	1274382	keystroke	t	n/a
637.326	0.075	1274652	keystroke	o	n/a
637.461	0.105	1274922	keystroke	r	n/a
637.686	0.1655	1275372	keystroke	s	n/a
637.8365	0.12	1275673	keystroke	Key.space	n/a
638.2715	0.15	1276543	keystroke	a	n/a
638.5415	0.06	1277083	keystroke	n	n/a
638.7965	0.015	1277593	keystroke	n	n/a
638.8415	0.165	1277683	keystroke	e	n/a
639.0515	0.105	1278103	keystroke	Key.space	n/a
639.8315	0.165	1279663	keystroke	s	n/a
639.9365	0.075	1279873	keystroke	h	n/a
640.1015	0.12	1280203	keystroke	o	n/a
640.3715	0.165	1280743	keystroke	r	n/a
640.5215	0.15	1281043	keystroke	t	n/a
640.8815	0.105	1281763	keystroke	l	n/a
641.1515	0.06	1282303	keystroke	y	n/a
641.5865	0.15	1283173	keystroke	Key.space	n/a
642.5315	0.21	1285063	keystroke	a	n/a
643.0565	0.15	1286113	keystroke	d	n/a
643.6115	0.18	1287223	keystroke	m	n/a
643.7615	0.12	1287523	keystroke	i	n/a
644.0615	0.135	1288123	keystroke	n	n/a
644.2565	0.135	1288513	keystroke	i	n/a
644.8565	0.15	1289713	keystroke	s	n/a
645.2765	0.18	1290553	keystroke	t	n/a
645.4715	0.21	1290943	keystroke	r	n/a
645.6215	0.165	1291243	keystroke	a	n/a
646.2215	0.06	1292443	keystroke	o	n/a
647.1065	0.06	1294213	keystroke	Key.backspace	n/a
648.7565	0.135	1297513	keystroke	t	n/a
648.8765	0.09	1297753	keystroke	o	n/a
649.0115	0.12	1298023	keystroke	r	n/a
649.3565	0.075	1298713	keystroke	Key.enter	n/a
649.435	9.0875	1298870	prompt	n/a	function bread dying considered\n
650.5565	0.12	1301113	keystroke	f	n/a
650.6915	0.09	1301383	keystroke	u	n/a
650.8715	0.09	1301743	keystroke	n	n/a
651.2465	0.12	1302493	keystroke	c	n/a
651.5165	0.09	1303033	keystroke	t	n/a
651.6365	0.075	1303273	keystroke	i	n/a
651.8165	0.075	1303633	keystroke	o	n/a
651.9515	0.075	1303903	keystroke	n	n/a
652.1465	0.075	1304293	keystroke	Key.space	n/a
652.5665	0.105	1305133	keystroke	v	n/a
652.9715	0.105	1305943	keystroke	Key.backspace	n/a
653.0315	0.12	1306063	keystroke	b	n/a
653.2415	0.165	1306483	keystroke	r	n/a
653.5115	0.225	1307023	keystroke	e	n/a
653.6765	0.18	1307353	keystroke	a	n/a
654.0215	0.135	1308043	keystroke	d	n/a
654.1865	0.12	1308373	keystroke	Key.space	n/a
654.8315	0.15	1309663	keystroke	d	n/a
654.9515	0.09	1309903	keystroke	y	n/a
655.1765	0.12	1310353	keystroke	i	n/a
655.401	0.09	1310802	keystroke	n	n/a
655.521	0.15	1311042	keystroke	g	n/a
655.701	0.105	1311402	keystroke	Key.space	n/a
656.241	0.15	1312482	keystroke	c	n/a
656.331	0.105	1312662	keystroke	o	n/a
656.526	0.09	1313052	keystroke	n	n/a
656.676	0.18	1313352	keystroke	s	n/a
656.871	0.09	1313742	keystroke	i	n/a
657.321	0.09	1314642	keystroke	d	n/a
657.546	0.15	1315092	keystroke	e	n/a
657.636	0.195	1315272	keystroke	r	n/a
657.831	0.105	1315662	keystroke	e	n/a
658.041	0.135	1316082	keystroke	d	n/a
658.446	0.075	1316892	keystroke	Key.enter	n/a
658.5255	22.2565	1317051	prompt	n/a	shouldn't provincial notifications stake\n
659.451	0.165	1318902	keystroke	s	n/a
659.526	0.075	1319052	keystroke	h	n/a
659.721	0.075	1319442	keystroke	o	n/a
659.856	0.075	1319712	keystroke	u	n/a
660.066	0.06	1320132	keystroke	l	n/a
660.216	0.15	1320432	keystroke	d	n/a
660.816	0.09	1321632	keystroke	n	n/a
661.251	0.135	1322502	keystroke	'	n/a
661.326	0.135	1322652	keystroke	t	n/a
661.566	0.18	1323132	keystroke	Key.space	n/a
662.631	0.09	1325262	keystroke	p	n/a
662.826	0.09	1325652	keystroke	r	n/a
663.036	0.075	1326072	keystroke	o	n/a
664.686	0.075	1329372	keystroke	n	n/a
665.196	0.075	1330392	keystroke	Key.backspace	n/a
666.066	0.12	1332132	keystroke	v	n/a
666.187	0.089	1332374	keystroke	i	n/a
666.366	0.09	1332732	keystroke	n	n/a
666.516	0.09	1333032	keystroke	i	n/a
666.981	0.15	1333962	keystroke	v	n/a
667.071	0.195	1334142	keystroke	a	n/a
667.491	0.075	1334982	keystroke	l	n/a
668.526	0.075	1337052	keystroke	Key.backspace	n/a
668.736	0.075	1337472	keystroke	Key.backspace	n/a
668.901	0.09	1337802	keystroke	Key.backspace	n/a
670.281	0.135	1340562	keystroke	c	n/a
670.386	0.105	1340772	keystroke	i	n/a
670.551	0.165	1341102	keystroke	a	n/a
671.136	0.075	1342272	keystroke	l	n/a
671.436	0.135	1342872	keystroke	Key.space	n/a
671.976	0.06	1343952	keystroke	n	n/a
672.111	0.105	1344222	keystroke	o	n/a
672.246	0.135	1344492	keystroke	t	n/a
672.396	0.09	1344792	keystroke	i	n/a
673.416	0.105	1346832	keystroke	g	n/a
673.551	0.12	1347102	keystroke	i	n/a
674.3005	0.075	1348601	keystroke	Key.backspace	n/a
674.4655	0.105	1348931	keystroke	Key.backspace	n/a
675.6505	0.105	1351301	keystroke	f	n/a
675.7705	0.105	1351541	keystroke	i	n/a
675.9805	0.165	1351961	keystroke	c	n/a
676.1305	0.225	1352261	keystroke	a	n/a
676.3565	0.104	1352713	keystroke	t	n/a
676.4905	0.09	1352981	keystroke	i	n/a
676.6705	0.075	1353341	keystroke	o	n/a
676.8355	0.075	1353671	keystroke	n	n/a
677.0005	0.165	1354001	keystroke	s	n/a
677.5255	0.105	1355051	keystroke	Key.space	n/a
677.7355	0.195	1355471	keystroke	s	n/a
677.9455	0.165	1355891	keystroke	t	n/a
678.0955	0.15	1356191	keystroke	a	n/a
680.4685	0.057	1360937	keystroke	k	n/a
680.5555	0.105	1361111	keystroke	e	n/a
680.7205	0.06	1361441	keystroke	Key.enter	n/a
680.785	12.7625	1361570	prompt	n/a	roger lists submitted connected\n
682.4905	0.105	1364981	keystroke	r	n/a
682.6105	0.09	1365221	keystroke	o	n/a
682.8205	0.09	1365641	keystroke	g	n/a
683.0155	0.18	1366031	keystroke	e	n/a
683.1355	0.12	1366271	keystroke	r	n/a
683.7655	0.135	1367531	keystroke	Key.space	n/a
684.0205	0.09	1368041	keystroke	l	n/a
684.2005	0.09	1368401	keystroke	i	n/a
684.3355	0.24	1368671	keystroke	s	n/a
684.5305	0.165	1369061	keystroke	t	n/a
684.7555	0.285	1369511	keystroke	s	n/a
685.3255	0.15	1370651	keystroke	Key.space	n/a
685.8055	0.165	1371611	keystroke	s	n/a
686.0155	0.105	1372031	keystroke	u	n/a
686.2555	0.09	1372511	keystroke	b	n/a
686.6905	0.15	1373381	keystroke	m	n/a
686.7955	0.135	1373591	keystroke	i	n/a
687.3655	0.09	1374731	keystroke	t	n/a
687.5605	0.12	1375121	keystroke	t	n/a
688.0255	0.135	1376051	keystroke	e	n/a
688.5205	0.165	1377041	keystroke	d	n/a
689.0305	0.135	1378061	keystroke	Key.space	n/a
690.0205	0.165	1380041	keystroke	c	n/a
690.2005	0.105	1380401	keystroke	o	n/a
690.4865	0.044	1380973	keystroke	n	n/a
690.6055	0.105	1381211	keystroke	n	n/a
690.7855	0.12	1381571	keystroke	e	n/a
691.2655	0.135	1382531	keystroke	c	n/a
691.6705	0.091	1383341	keystroke	r	n/a
691.6865	0.089	1383373	keystroke	t	n/a
692.1655	0.09	1384331	keystroke	Key.backspace	n/a
692.661	0.075	1385322	keystroke	Key.backspace	n/a
692.796	0.15	1385592	keystroke	t	n/a
692.976	0.165	1385952	keystroke	e	n/a
693.246	0.135	1386492	keystroke	d	n/a
693.456	0.09	1386912	keystroke	Key.enter	n/a
693.55	17.4725	1387100	prompt	n/a	fuzzy volunteer reducing ministry\n
694.791	0.15	1389582	keystroke	f	n/a
694.926	0.105	1389852	keystroke	u	n/a
695.841	0.135	1391682	keystroke	z	n/a
696.036	0.18	1392072	keystroke	z	n/a
696.306	0.105	1392612	keystroke	y	n/a
696.996	0.12	1393992	keystroke	Key.space	n/a
697.761	0.165	1395522	keystroke	v	n/a
697.881	0.105	1395762	keystroke	o	n/a
698.061	0.09	1396122	keystroke	u	n/a
698.271	0.12	1396542	keystroke	l	n/a
699.486	0.075	1398972	keystroke	u	n/a
700.671	0.06	1401342	keystroke	Key.backspace	n/a
700.956	0.075	1401912	keystroke	n	n/a
702.231	0.045	1404462	keystroke	Key.backspace	n/a
702.441	0.09	1404882	keystroke	Key.backspace	n/a
703.296	0.09	1406592	keystroke	Key.backspace	n/a
703.956	0.06	1407912	keystroke	l	n/a
704.346	0.09	1408692	keystroke	u	n/a
704.601	0.075	1409202	keystroke	n	n/a
704.826	0.15	1409652	keystroke	t	n/a
705.216	0.12	1410432	keystroke	e	n/a
705.441	0.12	1410882	keystroke	e	n/a
705.681	0.15	1411362	keystroke	r	n/a
706.251	0.12	1412502	keystroke	Key.space	n/a
706.776	0.15	1413552	keystroke	r	n/a
706.881	0.18	1413762	keystroke	e	n/a
707.721	0.15	1415442	keystroke	d	n/a
707.931	0.12	1415862	keystroke	u	n/a
708.216	0.15	1416432	keystroke	c	n/a
708.351	0.105	1416702	keystroke	i	n/a
708.531	0.105	1417062	keystroke	n	n/a
708.651	0.135	1417302	keystroke	g	n/a
708.831	0.12	1417662	keystroke	Key.space	n/a
709.221	0.18	1418442	keystroke	m	n/a
709.341	0.15	1418682	keystroke	i	n/a
709.581	0.075	1419162	keystroke	n	n/a
709.716	0.09	1419432	keystroke	i	n/a
710.016	0.15	1420032	keystroke	s	n/a
710.211	0.195	1420422	keystroke	t	n/a
710.421	0.195	1420842	keystroke	r	n/a
710.571	0.105	1421142	keystroke	y	n/a
710.961	0.06	1421922	keystroke	Key.enter	n/a
711.026	11.097	1422052	prompt	n/a	parcel pike angeles mysql\n
711.8765	0.105	1423753	keystroke	p	n/a
711.9655	0.24	1423931	keystroke	a	n/a
712.1755	0.12	1424351	keystroke	r	n/a
712.5055	0.195	1425011	keystroke	c	n/a
712.6855	0.15	1425371	keystroke	e	n/a
712.8205	0.12	1425641	keystroke	l	n/a
713.0305	0.135	1426061	keystroke	Key.space	n/a
713.3765	0.12	1426753	keystroke	p	n/a
713.6465	0.104	1427293	keystroke	i	n/a
714.0365	0.089	1428073	keystroke	k	n/a
714.2315	0.134	1428463	keystroke	e	n/a
714.4105	0.105	1428821	keystroke	Key.space	n/a
714.9965	0.179	1429993	keystroke	a	n/a
715.1305	0.091	1430261	keystroke	n	n/a
715.5355	0.15	1431071	keystroke	g	n/a
716.9155	0.12	1433831	keystroke	e	n/a
717.0205	0.12	1434041	keystroke	l	n/a
717.2155	0.106	1434431	keystroke	e	n/a
717.8315	0.194	1435663	keystroke	s	n/a
718.1605	0.12	1436321	keystroke	Key.space	n/a
718.4605	0.121	1436921	keystroke	m	n/a
718.7605	0.075	1437521	keystroke	y	n/a
719.5105	0.151	1439021	keystroke	s	n/a
720.8915	0.15	1441783	keystroke	q	n/a
721.6265	0.104	1443253	keystroke	l	n/a
722.0305	0.09	1444061	keystroke	Key.enter	n/a
722.126	17.892	1444252	prompt	n/a	surround stockings travelling chrome\n
724.2065	0.165	1448413	keystroke	s	n/a
724.7315	0.105	1449463	keystroke	u	n/a
725.7965	0.075	1451593	keystroke	r	n/a
725.9615	0.12	1451923	keystroke	r	n/a
726.1115	0.105	1452223	keystroke	o	n/a
726.2915	0.075	1452583	keystroke	u	n/a
726.4865	0.12	1452973	keystroke	n	n/a
726.6665	0.165	1453333	keystroke	d	n/a
726.9965	0.105	1453993	keystroke	i	n/a
727.1765	0.105	1454353	keystroke	n	n/a
727.3265	0.12	1454653	keystroke	g	n/a
727.6415	0.18	1455283	keystroke	s	n/a
727.8065	0.12	1455613	keystroke	Key.space	n/a
728.1815	0.135	1456363	keystroke	s	n/a
728.3615	0.12	1456723	keystroke	t	n/a
728.8865	0.09	1457773	keystroke	o	n/a
729.1265	0.15	1458253	keystroke	c	n/a
729.2915	0.09	1458583	keystroke	k	n/a
729.5015	0.075	1459003	keystroke	i	n/a
729.6365	0.105	1459273	keystroke	n	n/a
729.7565	0.12	1459513	keystroke	g	n/a
730.0265	0.18	1460053	keystroke	s	n/a
730.2215	0.12	1460443	keystroke	Key.space	n/a
730.6565	0.15	1461313	keystroke	t	n/a
730.7615	0.21	1461523	keystroke	r	n/a
730.9415	0.15	1461883	keystroke	a	n/a
732.0965	0.105	1464193	keystroke	v	n/a
732.2765	0.165	1464553	keystroke	e	n/a
732.5015	0.135	1465003	keystroke	l	n/a
735.9835	0.0275	1471967	keystroke	l	n/a
736.116	0.075	1472232	keystroke	i	n/a
736.311	0.075	1472622	keystroke	n	n/a
736.491	0.135	1472982	keystroke	g	n/a
736.791	0.1055	1473582	keystroke	Key.space	n/a
737.587	0.1495	1475174	keystroke	c	n/a
737.7215	0.09	1475443	keystroke	h	n/a
737.9165	0.105	1475833	keystroke	r	n/a
738.0515	0.12	1476103	keystroke	o	n/a
739.4915	0.075	1478983	keystroke	m	n/a
739.5965	0.15	1479193	keystroke	e	n/a
739.9415	0.075	1479883	keystroke	Key.enter	n/a
740.0205	15.253	1480041	prompt	n/a	behind catherine rides spyware\n
741.1865	0.06	1482373	keystroke	b	n/a
741.2915	0.15	1482583	keystroke	e	n/a
741.4115	0.09	1482823	keystroke	h	n/a
741.5915	0.075	1483183	keystroke	i	n/a
741.7415	0.09	1483483	keystroke	n	n/a
742.2665	0.15	1484533	keystroke	d	n/a
742.3865	0.12	1484773	keystroke	Key.space	n/a
742.7315	0.135	1485463	keystroke	c	n/a
742.8365	0.195	1485673	keystroke	a	n/a
743.0615	0.135	1486123	keystroke	t	n/a
743.2115	0.075	1486423	keystroke	h	n/a
743.3615	0.18	1486723	keystroke	e	n/a
743.4665	0.135	1486933	keystroke	r	n/a
743.9615	0.09	1487923	keystroke	i	n/a
744.1265	0.09	1488253	keystroke	n	n/a
744.8765	0.165	1489753	keystroke	e	n/a
745.1915	0.15	1490383	keystroke	Key.space	n/a
748.1795	0.027	1496359	keystroke	r	n/a
748.2515	0.105	1496503	keystroke	i	n/a
748.4315	0.12	1496863	keystroke	d	n/a
748.5665	0.165	1497133	keystroke	e	n/a
748.8515	0.165	1497703	keystroke	s	n/a
749.0465	0.135	1498093	keystroke	Key.space	n/a
749.8265	0.135	1499653	keystroke	s	n/a
750.0665	0.06	1500133	keystroke	p	n/a
753.1145	0.012	1506229	keystroke	y	n/a
753.4565	0.165	1506913	keystroke	w	n/a
753.5165	0.165	1507033	keystroke	a	n/a
754.4015	0.18	1508803	keystroke	r	n/a
754.9715	0.165	1509943	keystroke	e	n/a
755.2115	0.06	1510423	keystroke	Key.enter	n/a
755.2765	13.452	1510553	prompt	n/a	shorter acceptance integral development\n
756.1115	0.165	1512223	keystroke	s	n/a
756.2015	0.105	1512403	keystroke	h	n/a
756.3815	0.09	1512763	keystroke	o	n/a
756.9515	0.12	1513903	keystroke	r	n/a
757.1765	0.12	1514353	keystroke	t	n/a
757.4015	0.18	1514803	keystroke	e	n/a
757.5365	0.135	1515073	keystroke	r	n/a
757.8365	0.105	1515673	keystroke	Key.space	n/a
758.0465	0.12	1516093	keystroke	a	n/a
758.6165	0.105	1517233	keystroke	c	n/a
758.7815	0.135	1517563	keystroke	c	n/a
759.3815	0.165	1518763	keystroke	e	n/a
759.7265	0.12	1519453	keystroke	p	n/a
759.9065	0.105	1519813	keystroke	t	n/a
760.1615	0.165	1520323	keystroke	a	n/a
760.8215	0.105	1521643	keystroke	n	n/a
760.9565	0.225	1521913	keystroke	c	n/a
761.1365	0.15	1522273	keystroke	e	n/a
761.6915	0.105	1523383	keystroke	Key.space	n/a
762.0665	0.105	1524133	keystroke	i	n/a
762.2465	0.09	1524493	keystroke	n	n/a
762.6065	0.09	1525213	keystroke	t	n/a
762.9215	0.135	1525843	keystroke	e	n/a
763.6715	0.135	1527343	keystroke	g	n/a
763.7765	0.18	1527553	keystroke	r	n/a
763.9575	0.194	1527915	keystroke	a	n/a
764.1665	0.15	1528333	keystroke	l	n/a
764.4065	0.12	1528813	keystroke	Key.space	n/a
764.7965	0.105	1529593	keystroke	d	n/a
765.0065	0.105	1530013	keystroke	e	n/a
765.3665	0.135	1530733	keystroke	v	n/a
765.5915	0.15	1531183	keystroke	e	n/a
765.7715	0.12	1531543	keystroke	l	n/a
765.9815	0.09	1531963	keystroke	o	n/a
766.2365	0.06	1532473	keystroke	p	n/a
766.9265	0.15	1533853	keystroke	e	n/a
767.3915	0.06	1534783	keystroke	Key.backspace	n/a
768.0665	0.06	1536133	keystroke	m	n/a
768.1565	0.18	1536313	keystroke	e	n/a
768.3065	0.06	1536613	keystroke	n	n/a
768.4115	0.135	1536823	keystroke	t	n/a
768.6515	0.075	1537303	keystroke	Key.enter	n/a
768.7325	21.071	1537465	prompt	n/a	hanging markets tube improvement\n
769.822	0.09	1539644	keystroke	h	n/a
769.927	0.18	1539854	keystroke	a	n/a
770.092	0.09	1540184	keystroke	n	n/a
770.362	0.15	1540724	keystroke	g	n/a
770.512	0.105	1541024	keystroke	l	n/a
770.707	0.075	1541414	keystroke	i	n/a
770.842	0.105	1541684	keystroke	n	n/a
770.992	0.135	1541984	keystroke	g	n/a
771.097	0.105	1542194	keystroke	Key.space	n/a
771.427	0.09	1542854	keystroke	m	n/a
771.532	0.135	1543064	keystroke	a	n/a
771.712	0.15	1543424	keystroke	r	n/a
771.907	0.09	1543814	keystroke	k	n/a
772.177	0.15	1544354	keystroke	e	n/a
772.342	0.15	1544684	keystroke	t	n/a
772.612	0.165	1545224	keystroke	s	n/a
772.792	0.105	1545584	keystroke	Key.space	n/a
773.242	0.15	1546484	keystroke	t	n/a
773.377	0.09	1546754	keystroke	u	n/a
773.527	0.105	1547054	keystroke	b	n/a
773.722	0.18	1547444	keystroke	e	n/a
773.947	0.12	1547894	keystroke	Key.space	n/a
777.159	0.013	1554318	keystroke	Key.backspace	n/a
777.307	0.045	1554614	keystroke	Key.backspace	n/a
777.817	0.06	1555634	keystroke	Key.backspace	n/a
778.027	0.06	1556054	keystroke	Key.backspace	n/a
778.237	0.06	1556474	keystroke	Key.backspace	n/a
778.432	0.06	1556864	keystroke	Key.backspace	n/a
778.612	0.06	1557224	keystroke	Key.backspace	n/a
778.792	0.06	1557584	keystroke	Key.backspace	n/a
778.987	0.06	1557974	keystroke	Key.backspace	n/a
779.182	0.06	1558364	keystroke	Key.backspace	n/a
779.392	0.06	1558784	keystroke	Key.backspace	n/a
779.587	0.06	1559174	keystroke	Key.backspace	n/a
779.782	0.06	1559564	keystroke	Key.backspace	n/a
779.992	0.06	1559984	keystroke	Key.backspace	n/a
780.187	0.06	1560374	keystroke	Key.backspace	n/a
780.412	0.045	1560824	keystroke	Key.backspace	n/a
780.607	0.06	1561214	keystroke	Key.backspace	n/a
780.907	0.075	1561814	keystroke	Key.backspace	n/a
781.747	0.06	1563494	keystroke	i	n/a
781.897	0.075	1563794	keystroke	n	n/a
782.032	0.15	1564064	keystroke	g	n/a
782.167	0.09	1564334	keystroke	Key.space	n/a
782.902	0.075	1565804	keystroke	m	n/a
782.977	0.21	1565954	keystroke	a	n/a
783.172	0.135	1566344	keystroke	r	n/a
783.427	0.075	1566854	keystroke	k	n/a
783.577	0.12	1567154	keystroke	e	n/a
783.862	0.12	1567724	keystroke	t	n/a
784.087	0.15	1568174	keystroke	s	n/a
784.267	0.09	1568534	keystroke	Key.space	n/a
784.912	0.105	1569824	keystroke	t	n/a
785.047	0.105	1570094	keystroke	u	n/a
785.272	0.09	1570544	keystroke	b	n/a
785.812	0.18	1571624	keystroke	e	n/a
785.947	0.12	1571894	keystroke	Key.space	n/a
786.397	0.105	1572794	keystroke	i	n/a
786.607	0.105	1573214	keystroke	m	n/a
786.772	0.12	1573544	keystroke	p	n/a
787.597	0.105	1575194	keystroke	r	n/a
787.762	0.135	1575524	keystroke	o	n/a
788.527	0.15	1577054	keystroke	v	n/a
788.737	0.18	1577474	keystroke	e	n/a
788.932	0.075	1577864	keystroke	m	n/a
789.082	0.1655	1578164	keystroke	e	n/a
789.157	0.0905	1578314	keystroke	n	n/a
789.3075	0.135	1578615	keystroke	t	n/a
789.5025	0.18	1579005	keystroke	s	n/a
789.7275	0.075	1579455	keystroke	Key.enter	n/a
789.8085	10.885	1579617	prompt	n/a	greetings correctly strain involves\n
790.9425	0.135	1581885	keystroke	g	n/a
791.0625	0.195	1582125	keystroke	r	n/a
791.4675	0.105	1582935	keystroke	e	n/a
791.6625	0.09	1583325	keystroke	e	n/a
791.8125	0.134	1583625	keystroke	t	n/a
791.9625	0.09	1583925	keystroke	i	n/a
792.1115	0.106	1584223	keystroke	n	n/a
792.2325	0.135	1584465	keystroke	g	n/a
792.6225	0.15	1585245	keystroke	s	n/a
792.9375	0.149	1585875	keystroke	Key.space	n/a
793.2525	0.165	1586505	keystroke	c	n/a
793.4325	0.09	1586865	keystroke	o	n/a
793.6125	0.105	1587225	keystroke	r	n/a
793.8075	0.15	1587615	keystroke	r	n/a
794.0325	0.119	1588065	keystroke	w	n/a
794.7675	0.09	1589535	keystroke	Key.backspace	n/a
794.8725	0.12	1589745	keystroke	e	n/a
795.2165	0.151	1590433	keystroke	c	n/a
795.5475	0.12	1591095	keystroke	t	n/a
795.8775	0.105	1591755	keystroke	l	n/a
796.0725	0.09	1592145	keystroke	y	n/a
796.3125	0.119	1592625	keystroke	Key.space	n/a
796.7775	0.15	1593555	keystroke	s	n/a
796.9125	0.18	1593825	keystroke	t	n/a
797.1075	0.24	1594215	keystroke	r	n/a
797.2725	0.18	1594545	keystroke	a	n/a
797.5125	0.12	1595025	keystroke	i	n/a
797.7075	0.12	1595415	keystroke	n	n/a
797.9325	0.135	1595865	keystroke	Key.space	n/a
798.3675	0.09	1596735	keystroke	i	n/a
798.517	0.105	1597034	keystroke	n	n/a
798.742	0.09	1597484	keystroke	v	n/a
799.147	0.12	1598294	keystroke	o	n/a
799.372	0.09	1598744	keystroke	l	n/a
799.837	0.09	1599674	keystroke	v	n/a
800.062	0.21	1600124	keystroke	e	n/a
800.242	0.15	1600484	keystroke	s	n/a
800.587	0.105	1601174	keystroke	Key.enter	n/a
800.696	11.1725	1601392	prompt	n/a	gets sequences how's still\n
801.5025	0.104	1603005	keystroke	g	n/a
801.6675	0.195	1603335	keystroke	e	n/a
801.8025	0.135	1603605	keystroke	t	n/a
802.0125	0.164	1604025	keystroke	s	n/a
802.1925	0.105	1604385	keystroke	Key.space	n/a
802.5225	0.105	1605045	keystroke	s	n/a
802.7625	0.03	1605525	keystroke	w	n/a
803.5565	0.106	1607113	keystroke	Key.backspace	n/a
803.6475	0.165	1607295	keystroke	e	n/a
804.6375	0.12	1609275	keystroke	q	n/a
805.0725	0.105	1610145	keystroke	u	n/a
805.3275	0.15	1610655	keystroke	e	n/a
805.6275	0.135	1611255	keystroke	n	n/a
806.3175	0.165	1612635	keystroke	c	n/a
806.6625	0.12	1613325	keystroke	e	n/a
807.7125	0.15	1615425	keystroke	s	n/a
807.9075	0.1345	1615815	keystroke	Key.space	n/a
808.192	0.06	1616384	keystroke	h	n/a
808.342	0.12	1616684	keystroke	o	n/a
809.077	0.135	1618154	keystroke	w	n/a
809.647	0.18	1619294	keystroke	'	n/a
809.797	0.165	1619594	keystroke	s	n/a
810.187	0.15	1620374	keystroke	Key.space	n/a
810.442	0.18	1620884	keystroke	s	n/a
810.667	0.165	1621334	keystroke	t	n/a
810.937	0.12	1621874	keystroke	i	n/a
811.252	0.09	1622504	keystroke	l	n/a
811.432	0.09	1622864	keystroke	l	n/a
811.807	0.06	1623614	keystroke	Key.enter	n/a
811.8715	14.7865	1623743	prompt	n/a	combination heads up unemployment\n
813.067	0.15	1626134	keystroke	c	n/a
813.157	0.135	1626314	keystroke	o	n/a
813.397	0.12	1626794	keystroke	m	n/a
814.822	0.06	1629644	keystroke	b	n/a
815.002	0.09	1630004	keystroke	i	n/a
815.737	0.075	1631474	keystroke	n	n/a
815.872	0.15	1631744	keystroke	a	n/a
816.8615	0.15	1633723	keystroke	t	n/a
817.3265	0.09	1634653	keystroke	i	n/a
817.5365	0.09	1635073	keystroke	o	n/a
817.7165	0.09	1635433	keystroke	n	n/a
818.4215	0.15	1636843	keystroke	Key.space	n/a
818.6915	0.105	1637383	keystroke	h	n/a
818.8415	0.21	1637683	keystroke	e	n/a
818.9615	0.195	1637923	keystroke	a	n/a
819.5765	0.165	1639153	keystroke	d	n/a
820.3115	0.135	1640623	keystroke	Key.space	n/a
820.7315	0.09	1641463	keystroke	Key.backspace	n/a
820.8365	0.21	1641673	keystroke	s	n/a
820.9715	0.12	1641943	keystroke	Key.space	n/a
821.8565	0.105	1643713	keystroke	u	n/a
822.0215	0.105	1644043	keystroke	p	n/a
822.2915	0.15	1644583	keystroke	Key.space	n/a
823.0565	0.09	1646113	keystroke	u	n/a
823.2515	0.09	1646503	keystroke	n	n/a
823.4465	0.135	1646893	keystroke	e	n/a
823.6115	0.135	1647223	keystroke	m	n/a
824.6615	0.09	1649323	keystroke	p	n/a
824.8715	0.105	1649743	keystroke	l	n/a
825.0815	0.075	1650163	keystroke	o	n/a
825.4415	0.105	1650883	keystroke	y	n/a
825.8015	0.105	1651603	keystroke	m	n/a
825.9515	0.195	1651903	keystroke	e	n/a
826.1015	0.09	1652203	keystroke	n	n/a
826.2515	0.15	1652503	keystroke	t	n/a
826.5665	0.09	1653133	keystroke	Key.enter	n/a
826.661	12.0275	1653322	prompt	n/a	generations tier counsel commodity\n
828.1565	0.135	1656313	keystroke	g	n/a
828.4115	0.18	1656823	keystroke	e	n/a
828.6065	0.105	1657213	keystroke	n	n/a
828.7415	0.18	1657483	keystroke	e	n/a
829.3865	0.18	1658773	keystroke	r	n/a
829.5965	0.225	1659193	keystroke	a	n/a
830.572	0.15	1661144	keystroke	t	n/a
830.752	0.09	1661504	keystroke	i	n/a
830.947	0.09	1661894	keystroke	o	n/a
831.142	0.09	1662284	keystroke	n	n/a
831.562	0.18	1663124	keystroke	s	n/a
832.072	0.135	1664144	keystroke	Key.space	n/a
832.402	0.165	1664804	keystroke	t	n/a
832.552	0.135	1665104	keystroke	i	n/a
832.747	0.21	1665494	keystroke	e	n/a
833.137	0.15	1666274	keystroke	r	n/a
833.467	0.135	1666934	keystroke	Key.space	n/a
833.827	0.21	1667654	keystroke	c	n/a
833.962	0.135	1667924	keystroke	o	n/a
834.172	0.075	1668344	keystroke	u	n/a
834.427	0.09	1668854	keystroke	n	n/a
835.132	0.21	1670264	keystroke	s	n/a
835.252	0.15	1670504	keystroke	e	n/a
835.432	0.15	1670864	keystroke	l	n/a
835.912	0.12	1671824	keystroke	Key.space	n/a
836.212	0.135	1672424	keystroke	c	n/a
836.317	0.12	1672634	keystroke	o	n/a
836.557	0.045	1673114	keystroke	m	n/a
836.797	0.12	1673594	keystroke	m	n/a
837.187	0.09	1674374	keystroke	o	n/a
837.862	0.165	1675724	keystroke	d	n/a
837.982	0.105	1675964	keystroke	i	n/a
838.132	0.15	1676264	keystroke	t	n/a
838.297	0.09	1676594	keystroke	y	n/a
838.582	0.105	1677164	keystroke	Key.enter	n/a
838.691	8.037	1677382	prompt	n/a	alerts knee pills power\n
839.482	0.18	1678964	keystroke	a	n/a
839.617	0.105	1679234	keystroke	l	n/a
840.052	0.18	1680104	keystroke	e	n/a
840.172	0.15	1680344	keystroke	r	n/a
840.457	0.105	1680914	keystroke	t	n/a
840.667	0.165	1681334	keystroke	s	n/a
840.877	0.135	1681754	keystroke	Key.space	n/a
841.732	0.075	1683464	keystroke	k	n/a
841.897	0.075	1683794	keystroke	n	n/a
842.287	0.075	1684574	keystroke	e	n/a
842.482	0.135	1684964	keystroke	e	n/a
842.932	0.105	1685864	keystroke	Key.space	n/a
843.472	0.105	1686944	keystroke	p	n/a
843.652	0.09	1687304	keystroke	i	n/a
843.997	0.075	1687994	keystroke	l	n/a
844.162	0.105	1688324	keystroke	l	n/a
844.597	0.195	1689194	keystroke	s	n/a
844.777	0.09	1689554	keystroke	Key.space	n/a
845.302	0.105	1690604	keystroke	p	n/a
845.527	0.09	1691054	keystroke	o	n/a
845.767	0.165	1691534	keystroke	w	n/a
846.217	0.15	1692434	keystroke	e	n/a
846.277	0.15	1692554	keystroke	r	n/a
846.667	0.06	1693334	keystroke	Key.enter	n/a
846.732	14.712	1693464	prompt	n/a	nascar boulevard subjective devoted\n
847.747	0.06	1695494	keystroke	n	n/a
847.837	0.15	1695674	keystroke	a	n/a
847.972	0.195	1695944	keystroke	s	n/a
848.602	0.18	1697204	keystroke	c	n/a
848.722	0.225	1697444	keystroke	a	n/a
849.097	0.135	1698194	keystroke	r	n/a
849.787	0.12	1699574	keystroke	Key.space	n/a
850.132	0.075	1700264	keystroke	b	n/a
850.327	0.105	1700654	keystroke	o	n/a
850.507	0.075	1701014	keystroke	u	n/a
850.732	0.075	1701464	keystroke	l	n/a
850.927	0.12	1701854	keystroke	e	n/a
851.452	0.135	1702904	keystroke	v	n/a
851.557	0.225	1703114	keystroke	a	n/a
851.872	0.12	1703744	keystroke	r	n/a
852.352	0.135	1704704	keystroke	d	n/a
852.757	0.135	1705514	keystroke	Key.space	n/a
853.162	0.15	1706324	keystroke	a	n/a
853.687	0.12	1707374	keystroke	Key.backspace	n/a
853.822	0.18	1707644	keystroke	s	n/a
853.987	0.075	1707974	keystroke	u	n/a
855.202	0.075	1710404	keystroke	b	n/a
856.162	0.075	1712324	keystroke	j	n/a
856.282	0.105	1712564	keystroke	e	n/a
856.642	0.135	1713284	keystroke	c	n/a
857.002	0.09	1714004	keystroke	t	n/a
857.752	0.09	1715504	keystroke	i	n/a
857.902	0.135	1715804	keystroke	v	n/a
858.187	0.165	1716374	keystroke	e	n/a
858.667	0.135	1717334	keystroke	Key.space	n/a
859.207	0.105	1718414	keystroke	d	n/a
859.432	0.12	1718864	keystroke	e	n/a
859.672	0.15	1719344	keystroke	v	n/a
860.2125	0.09	1720425	keystroke	o	n/a
860.3325	0.15	1720665	keystroke	t	n/a
860.5875	0.12	1721175	keystroke	e	n/a
860.8725	0.15	1721745	keystroke	d	n/a
861.3525	0.09	1722705	keystroke	Key.enter	n/a
861.4545	13.7595	1722909	prompt	n/a	identifier catherine deaf vast\n
862.4925	0.09	1724985	keystroke	i	n/a
862.6425	0.18	1725285	keystroke	d	n/a
862.8675	0.075	1725735	keystroke	n	n/a
863.0475	0.18	1726095	keystroke	e	n/a
863.4825	0.06	1726965	keystroke	Key.backspace	n/a
863.6475	0.105	1727295	keystroke	Key.backspace	n/a
863.7675	0.15	1727535	keystroke	e	n/a
863.9025	0.09	1727805	keystroke	n	n/a
864.0825	0.165	1728165	keystroke	t	n/a
865.7025	0.045	1731405	keystroke	i	n/a
865.9425	0.15	1731885	keystroke	f	n/a
866.1075	0.09	1732215	keystroke	i	n/a
866.4075	0.225	1732815	keystroke	e	n/a
866.6025	0.135	1733205	keystroke	s	n/a
867.0525	0.09	1734105	keystroke	Key.backspace	n/a
867.1575	0.165	1734315	keystroke	r	n/a
867.4275	0.12	1734855	keystroke	Key.space	n/a
868.1175	0.15	1736235	keystroke	c	n/a
868.2225	0.21	1736445	keystroke	a	n/a
869.0325	0.12	1738065	keystroke	t	n/a
869.1675	0.09	1738335	keystroke	h	n/a
869.3025	0.165	1738605	keystroke	e	n/a
869.3925	0.135	1738785	keystroke	r	n/a
869.7375	0.12	1739475	keystroke	i	n/a
869.9325	0.075	1739865	keystroke	n	n/a
870.0525	0.15	1740105	keystroke	e	n/a
870.4875	0.12	1740975	keystroke	Key.space	n/a
870.8925	0.075	1741785	keystroke	d	n/a
871.0875	0.105	1742175	keystroke	e	n/a
871.5975	0.18	1743195	keystroke	a	n/a
871.9275	0.105	1743855	keystroke	f	n/a
872.1375	0.105	1744275	keystroke	Key.space	n/a
872.4825	0.135	1744965	keystroke	c	n/a
872.6175	0.195	1745235	keystroke	a	n/a
872.8425	0.195	1745685	keystroke	s	n/a
873.4425	0.075	1746885	keystroke	Key.backspace	n/a
873.6375	0.06	1747275	keystroke	Key.backspace	n/a
873.8175	0.12	1747635	keystroke	Key.backspace	n/a
873.9525	0.15	1747905	keystroke	v	n/a
874.1625	0.165	1748325	keystroke	a	n/a
874.5075	0.195	1749015	keystroke	s	n/a
874.7475	0.15	1749495	keystroke	t	n/a
875.1525	0.06	1750305	keystroke	Key.enter	n/a
875.2165	10.723	1750433	prompt	n/a	guards store vice slowly\n
876.6225	0.075	1753245	keystroke	g	n/a
876.7725	0.075	1753545	keystroke	u	n/a
876.7875	0.045	1753575	keystroke	i	n/a
876.8625	0.195	1753725	keystroke	a	n/a
877.1475	0.12	1754295	keystroke	t	n/a
877.5675	0.075	1755135	keystroke	Key.backspace	n/a
877.7475	0.075	1755495	keystroke	Key.backspace	n/a
877.9275	0.105	1755855	keystroke	Key.backspace	n/a
879.4725	0.15	1758945	keystroke	a	n/a
879.7725	0.15	1759545	keystroke	r	n/a
880.1475	0.135	1760295	keystroke	d	n/a
881.0475	0.15	1762095	keystroke	s	n/a
881.1675	0.15	1762335	keystroke	Key.space	n/a
881.3625	0.165	1762725	keystroke	s	n/a
881.5725	0.165	1763145	keystroke	t	n/a
881.7975	0.105	1763595	keystroke	o	n/a
881.9625	0.18	1763925	keystroke	r	n/a
882.1275	0.165	1764255	keystroke	e	n/a
882.3675	0.135	1764735	keystroke	Key.space	n/a
882.9075	0.15	1765815	keystroke	v	n/a
883.0125	0.12	1766025	keystroke	i	n/a
883.2975	0.225	1766595	keystroke	c	n/a
883.4625	0.18	1766925	keystroke	e	n/a
883.9275	0.12	1767855	keystroke	Key.space	n/a
884.0925	0.195	1768185	keystroke	s	n/a
884.2125	0.12	1768425	keystroke	l	n/a
884.4525	0.075	1768905	keystroke	o	n/a
884.5725	0.18	1769145	keystroke	w	n/a
885.1125	0.075	1770225	keystroke	l	n/a
885.3225	0.075	1770645	keystroke	y	n/a
885.8625	0.075	1771725	keystroke	Key.enter	n/a
885.9425	23.397	1771885	prompt	n/a	retrieval celebrities lease correct\n
886.9875	0.12	1773975	keystroke	t	n/a
887.0475	0.105	1774095	keystroke	r	n/a
887.4525	0.105	1774905	keystroke	Key.backspace	n/a
887.5725	0.135	1775145	keystroke	e	n/a
887.9175	0.06	1775835	keystroke	Key.backspace	n/a
888.0675	0.12	1776135	keystroke	Key.backspace	n/a
888.2325	0.21	1776465	keystroke	r	n/a
888.4275	0.165	1776855	keystroke	e	n/a
889.3275	0.15	1778655	keystroke	t	n/a
889.4925	0.15	1778985	keystroke	r	n/a
889.7175	0.18	1779435	keystroke	i	n/a
890.7825	0.12	1781565	keystroke	e	n/a
891.3375	0.135	1782675	keystroke	v	n/a
891.4425	0.21	1782885	keystroke	a	n/a
891.6525	0.15	1783305	keystroke	l	n/a
891.9225	0.135	1783845	keystroke	Key.space	n/a
892.3725	0.06	1784745	keystroke	c	n/a
892.4625	0.03	1784925	keystroke	v	n/a
892.853	0.03	1785706	keystroke	Key.backspace	n/a
893.002	0.091	1786004	keystroke	Key.backspace	n/a
893.603	0.09	1787206	keystroke	Key.space	n/a
893.873	0.18	1787746	keystroke	c	n/a
894.038	0.165	1788076	keystroke	e	n/a
894.188	0.135	1788376	keystroke	l	n/a
894.368	0.15	1788736	keystroke	e	n/a
895.943	0.06	1791886	keystroke	Key.backspace	n/a
896.123	0.059	1792246	keystroke	Key.backspace	n/a
896.302	0.061	1792604	keystroke	Key.backspace	n/a
896.483	0.06	1792966	keystroke	Key.backspace	n/a
896.6475	0.105	1793295	keystroke	Key.backspace	n/a
897.5775	0.165	1795155	keystroke	c	n/a
897.6975	0.18	1795395	keystroke	e	n/a
897.8925	0.075	1795785	keystroke	l	n/a
898.0575	0.135	1796115	keystroke	e	n/a
899.2875	0.1205	1798575	keystroke	b	n/a
899.453	0.195	1798906	keystroke	r	n/a
899.603	0.165	1799206	keystroke	a	n/a
901.208	0.09	1802416	keystroke	Key.backspace	n/a
901.853	0.075	1803706	keystroke	i	n/a
901.988	0.12	1803976	keystroke	t	n/a
902.153	0.075	1804306	keystroke	i	n/a
902.168	0.045	1804336	keystroke	o	n/a
902.498	0.255	1804996	keystroke	e	n/a
902.648	0.135	1805296	keystroke	s	n/a
902.993	0.06	1805986	keystroke	Key.backspace	n/a
903.173	0.075	1806346	keystroke	Key.backspace	n/a
903.353	0.12	1806706	keystroke	Key.backspace	n/a
903.638	0.165	1807276	keystroke	e	n/a
903.743	0.165	1807486	keystroke	s	n/a
904.553	0.165	1809106	keystroke	Key.space	n/a
904.853	0.105	1809706	keystroke	l	n/a
905.003	0.18	1810006	keystroke	e	n/a
905.108	0.18	1810216	keystroke	a	n/a
905.648	0.135	1811296	keystroke	s	n/a
