onset	duration	sample	value	key	prompt_text
13.0525	26.4465	26105	prompt	n/a	the quick brown fox jumps over a lazy dog\n
15.4535	0.073	30907	keystroke_t	t	n/a
15.4965	0.09	30993	keystroke_h	h	n/a
15.6315	0.1795	31263	keystroke_e	e	n/a
15.7065	0.1495	31413	keystroke_Key.space	Key.space	n/a
15.961	0.135	31922	keystroke_q	q	n/a
16.081	0.0905	32162	keystroke_u	u	n/a
16.4255	0.075	32851	keystroke_i	i	n/a
16.651	0.15	33302	keystroke_c	c	n/a
16.936	0.075	33872	keystroke_Key.space	Key.space	n/a
17.8365	0.075	35673	keystroke_Key.backspace	Key.backspace	n/a
18.2715	0.06	36543	keystroke_k	k	n/a
18.3915	0.12	36783	keystroke_Key.space	Key.space	n/a
18.9165	0.06	37833	keystroke_b	b	n/a
19.1265	0.0895	38253	keystroke_o	o	n/a
19.6365	0.105	39273	keystroke_w	w	n/a
21.0465	0.12	42093	keystroke_n	n	n/a
21.3465	0.12	42693	keystroke_Key.space	Key.space	n/a
22.1415	0.075	44283	keystroke_Key.backspace	Key.backspace	n/a
22.3065	0.045	44613	keystroke_Key.backspace	Key.backspace	n/a
22.4715	0.03	44943	keystroke_Key.backspace	Key.backspace	n/a
22.6065	0.045	45213	keystroke_Key.backspace	Key.backspace	n/a
23.6565	0.09	47313	keystroke_r	r	n/a
23.8515	0.09	47703	keystroke_o	o	n/a
24.0015	0.105	48003	keystroke_w	w	n/a
24.1815	0.1195	48363	keystroke_n	n	n/a
25.231	0.12	50462	keystroke_Key.space	Key.space	n/a
25.756	0.1205	51512	keystroke_f	f	n/a
25.9215	0.135	51843	keystroke_o	o	n/a
26.2515	0.135	52503	keystroke_x	x	n/a
26.3715	0.12	52743	keystroke_Key.space	Key.space	n/a
26.6865	0.24	53373	keystroke_j	j	n/a
26.8965	0.075	53793	keystroke_u	u	n/a
27.1965	0.12	54393	keystroke_m	m	n/a
27.6315	0.18	55263	keystroke_o	o	n/a
27.841	0.105	55682	keystroke_s	s	n/a
27.9165	0.1195	55833	keystroke_Key.space	Key.space	n/a
28.696	0.075	57392	keystroke_Key.backspace	Key.backspace	n/a
28.8615	0.09	57723	keystroke_Key.backspace	Key.backspace	n/a
28.9965	0.075	57993	keystroke_Key.backspace	Key.backspace	n/a
29.686	0.075	59372	keystroke_p	p	n/a
29.791	0.1355	59582	keystroke_s	s	n/a
29.9115	0.12	59823	keystroke_Key.space	Key.space	n/a
30.1515	0.06	60303	keystroke_o	o	n/a
30.2565	0.15	60513	keystroke_v	v	n/a
30.3765	0.165	60753	keystroke_e	e	n/a
30.4965	0.15	60993	keystroke_r	r	n/a
30.6165	0.135	61233	keystroke_Key.space	Key.space	n/a
31.0365	0.165	62073	keystroke_a	a	n/a
31.0665	0.2095	62133	keystroke_Key.space	Key.space	n/a
31.441	0.075	62882	keystroke_o	o	n/a
31.726	0.091	63452	keystroke_a	a	n/a
32.146	0.06	64292	keystroke_Key.backspace	Key.backspace	n/a
32.5515	0.06	65103	keystroke_=	=	n/a
32.7315	0.03	65463	keystroke_=	=	n/a
33.7215	0.0595	67443	keystroke_Key.backspace	Key.backspace	n/a
33.886	0.075	67772	keystroke_Key.backspace	Key.backspace	n/a
34.081	0.06	68162	keystroke_Key.backspace	Key.backspace	n/a
34.4265	0.075	68853	keystroke_Key.backspace	Key.backspace	n/a
35.3265	0.105	70653	keystroke_Key.space	Key.space	n/a
36.0915	0.105	72183	keystroke_l	l	n/a
36.2565	0.09	72513	keystroke_a	a	n/a
36.5115	0.15	73023	keystroke_z	z	n/a
36.6915	0.09	73383	keystroke_y	y	n/a
36.8265	0.09	73653	keystroke_Key.space	Key.space	n/a
37.0365	0.09	74073	keystroke_f	f	n/a
38.1765	0.075	76353	keystroke_Key.backspace	Key.backspace	n/a
38.5065	0.09	77013	keystroke_d	d	n/a
38.8215	0.075	77643	keystroke_o	o	n/a
39.0465	0.105	78093	keystroke_g	g	n/a
39.4365	0.06	78873	keystroke_Key.enter	Key.enter	n/a
39.5035	12.895	79007	prompt	n/a	verzeichnis it's tripadvisor offline\n
40.531	0.09	81062	keystroke_c	c	n/a
41.2965	0.105	82593	keystroke_Key.backspace	Key.backspace	n/a
41.477	0.105	82954	keystroke_v	v	n/a
41.747	0.1495	83494	keystroke_e	e	n/a
41.8665	0.135	83733	keystroke_r	r	n/a
42.9015	0.12	85803	keystroke_z	z	n/a
43.2465	0.1205	86493	keystroke_e	e	n/a
43.577	0.15	87154	keystroke_i	i	n/a
43.862	0.15	87724	keystroke_c	c	n/a
44.027	0.12	88054	keystroke_h	h	n/a
44.207	0.179	88414	keystroke_i	i	n/a
44.746	0.0605	89492	keystroke_Key.backspace	Key.backspace	n/a
45.0615	0.165	90123	keystroke_n	n	n/a
45.1815	0.165	90363	keystroke_i	i	n/a
45.3615	0.165	90723	keystroke_s	s	n/a
45.5415	0.075	91083	keystroke_Key.space	Key.space	n/a
46.0515	0.12	92103	keystroke_i	i	n/a
46.2315	0.12	92463	keystroke_t	t	n/a
46.5165	0.03	93033	keystroke_'	'	n/a
46.6965	0.12	93393	keystroke_s	s	n/a
46.7865	0.135	93573	keystroke_Key.space	Key.space	n/a
47.0565	0.06	94113	keystroke_t	t	n/a
47.2065	0.165	94413	keystroke_r	r	n/a
47.4165	0.18	94833	keystroke_i	i	n/a
48.841	0.121	97682	keystroke_p	p	n/a
49.606	0.12	99212	keystroke_a	a	n/a
49.786	0.09	99572	keystroke_d	d	n/a
50.041	0.151	100082	keystroke_v	v	n/a
50.266	0.12	100532	keystroke_i	i	n/a
50.461	0.12	100922	keystroke_s	s	n/a
50.596	0.135	101192	keystroke_o	o	n/a
50.941	0.165	101882	keystroke_r	r	n/a
51.151	0.12	102302	keystroke_Key.space	Key.space	n/a
51.302	0.104	102604	keystroke_o	o	n/a
51.466	0.0905	102932	keystroke_f	f	n/a
51.6315	0.09	103263	keystroke_f	f	n/a
51.7665	0.135	103533	keystroke_i	i	n/a
51.9315	0.09	103863	keystroke_c	c	n/a
52.0065	0.12	104013	keystroke_e	e	n/a
52.3365	0.06	104673	keystroke_Key.enter	Key.enter	n/a
52.402	13.5865	104804	prompt	n/a	executives toll appeals operator\n
53.087	0.119	106174	keystroke_e	e	n/a
53.356	0.105	106712	keystroke_x	x	n/a
53.626	0.015	107252	keystroke_e	e	n/a
53.791	0.12	107582	keystroke_c	c	n/a
54.017	0.06	108034	keystroke_u	u	n/a
54.286	0.076	108572	keystroke_t	t	n/a
54.452	0.105	108904	keystroke_i	i	n/a
54.692	0.12	109384	keystroke_v	v	n/a
54.857	0.135	109714	keystroke_e	e	n/a
54.977	0.165	109954	keystroke_s	s	n/a
55.157	0.15	110314	keystroke_Key.space	Key.space	n/a
55.547	0.045	111094	keystroke_t	t	n/a
55.607	0.06	111214	keystroke_o	o	n/a
55.7865	0.075	111573	keystroke_l	l	n/a
55.9365	0.075	111873	keystroke_l	l	n/a
56.0565	0.135	112113	keystroke_Key.space	Key.space	n/a
56.2665	0.15	112533	keystroke_a	a	n/a
56.5215	0.06	113043	keystroke_p	p	n/a
56.6715	0.0755	113343	keystroke_p	p	n/a
56.927	0.12	113854	keystroke_e	e	n/a
57.137	0.105	114274	keystroke_a	a	n/a
57.332	0.105	114664	keystroke_l	l	n/a
57.497	0.165	114994	keystroke_s	s	n/a
57.692	0.03	115384	keystroke_s	s	n/a
57.707	0.135	115414	keystroke_Key.space	Key.space	n/a
57.962	0.09	115924	keystroke_o	o	n/a
60.829	0.012	121658	keystroke_Key.backspace	Key.backspace	n/a
60.946	0.06	121892	keystroke_Key.backspace	Key.backspace	n/a
61.111	0.0755	122222	keystroke_Key.backspace	Key.backspace	n/a
61.4865	0.0595	122973	keystroke_Key.backspace	Key.backspace	n/a
62.7765	0.165	125553	keystroke_s	s	n/a
62.9865	0.12	125973	keystroke_Key.space	Key.space	n/a
63.8415	0.105	127683	keystroke_o	o	n/a
64.0215	0.09	128043	keystroke_p	p	n/a
64.2315	0.24	128463	keystroke_e	e	n/a
64.5165	0.165	129033	keystroke_r	r	n/a
64.9965	0.135	129993	keystroke_a	a	n/a
65.2065	0.105	130413	keystroke_t	t	n/a
65.522	0.105	131044	keystroke_o	o	n/a
65.687	0.105	131374	keystroke_r	r	n/a
65.927	0.06	131854	keystroke_Key.enter	Key.enter	n/a
65.992	5.2915	131984	prompt	n/a	varies high allow tile\n
67.3665	0.135	134733	keystroke_v	v	n/a
67.4565	0.135	134913	keystroke_a	a	n/a
67.6815	0.135	135363	keystroke_r	r	n/a
67.8615	0.105	135723	keystroke_i	i	n/a
68.0115	0.165	136023	keystroke_e	e	n/a
68.1615	0.1805	136323	keystroke_s	s	n/a
68.387	0.105	136774	keystroke_Key.space	Key.space	n/a
68.717	0.15	137434	keystroke_h	h	n/a
68.852	0.12	137704	keystroke_i	i	n/a
69.017	0.105	138034	keystroke_g	g	n/a
69.107	0.105	138214	keystroke_h	h	n/a
69.227	0.1195	138454	keystroke_Key.space	Key.space	n/a
69.4215	0.12	138843	keystroke_a	a	n/a
69.5715	0.06	139143	keystroke_l	l	n/a
69.7365	0.075	139473	keystroke_l	l	n/a
69.9315	0.075	139863	keystroke_o	o	n/a
70.0665	0.135	140133	keystroke_w	w	n/a
70.2315	0.1205	140463	keystroke_Key.space	Key.space	n/a
70.517	0.09	141034	keystroke_t	t	n/a
70.607	0.0895	141214	keystroke_i	i	n/a
70.8165	0.12	141633	keystroke_l	l	n/a
70.9815	0.0905	141963	keystroke_e	e	n/a
71.207	0.075	142414	keystroke_Key.enter	Key.enter	n/a
71.2875	15.311	142575	prompt	n/a	kirk sheets margaret automated\n
72.047	0.075	144094	keystroke_k	k	n/a
72.362	0.09	144724	keystroke_i	i	n/a
72.617	0.12	145234	keystroke_r	r	n/a
72.9175	0.105	145835	keystroke_k	k	n/a
73.1875	0.0745	146375	keystroke_Key.space	Key.space	n/a
73.4575	0.09	146915	keystroke_s	s	n/a
73.8025	0.105	147605	keystroke_e	e	n/a
74.0125	0.044	148025	keystroke_h	h	n/a
74.3865	0.075	148773	keystroke_Key.backspace	Key.backspace	n/a
74.5665	0.045	149133	keystroke_Key.backspace	Key.backspace	n/a
74.792	0.075	149584	keystroke_h	h	n/a
74.972	0.045	149944	keystroke_e	e	n/a
75.3465	0.06	150693	keystroke_t	t	n/a
75.7365	0.075	151473	keystroke_Key.backspace	Key.backspace	n/a
75.8565	0.18	151713	keystroke_e	e	n/a
76.0215	0.1205	152043	keystroke_t	t	n/a
76.232	0.195	152464	keystroke_s	s	n/a
76.4115	0.1345	152823	keystroke_Key.space	Key.space	n/a
76.847	0.1195	153694	keystroke_m	m	n/a
77.0115	0.135	154023	keystroke_a	a	n/a
77.297	0.075	154594	keystroke_r	r	n/a
78.062	0.105	156124	keystroke_g	g	n/a
78.347	0.1195	156694	keystroke_a	a	n/a
78.6165	0.09	157233	keystroke_r	r	n/a
78.9915	0.12	157983	keystroke_e	e	n/a
79.1865	0.105	158373	keystroke_t	t	n/a
83.8545	0.057	167709	keystroke_Key.space	Key.space	n/a
84.122	0.135	168244	keystroke_a	a	n/a
84.317	0.1195	168634	keystroke_u	u	n/a
84.5565	0.135	169113	keystroke_t	t	n/a
84.6765	0.09	169353	keystroke_o	o	n/a
84.9015	0.1055	169803	keystroke_m	m	n/a
85.082	0.105	170164	keystroke_a	a	n/a
85.247	0.075	170494	keystroke_t	t	n/a
85.352	0.12	170704	keystroke_i	i	n/a
85.8165	0.06	171633	keystroke_Key.backspace	Key.backspace	n/a
85.9515	0.09	171903	keystroke_e	e	n/a
86.3115	0.105	172623	keystroke_d	d	n/a
86.5065	0.09	173013	keystroke_Key.enter	Key.enter	n/a
86.602	10.587	173204	prompt	n/a	photographer winner tabs synthesis\n
87.2565	0.1055	174513	keystroke_p	p	n/a
87.527	0.075	175054	keystroke_h	h	n/a
87.617	0.135	175234	keystroke_o	o	n/a
87.872	0.12	175744	keystroke_t	t	n/a
88.022	0.09	176044	keystroke_o	o	n/a
88.8015	0.15	177603	keystroke_g	g	n/a
89.0115	0.121	178023	keystroke_r	r	n/a
89.1915	0.1055	178383	keystroke_a	a	n/a
89.372	0.105	178744	keystroke_p	p	n/a
89.567	0.135	179134	keystroke_h	h	n/a
89.747	0.225	179494	keystroke_e	e	n/a
89.852	0.165	179704	keystroke_r	r	n/a
89.987	0.15	179974	keystroke_Key.space	Key.space	n/a
90.5115	0.12	181023	keystroke_w	w	n/a
90.6615	0.03	181323	keystroke_h	h	n/a
90.7815	0.06	181563	keystroke_i	i	n/a
91.1565	0.045	182313	keystroke_Key.backspace	Key.backspace	n/a
91.292	0.06	182584	keystroke_Key.backspace	Key.backspace	n/a
91.5315	0.09	183063	keystroke_i	i	n/a
91.7565	0.09	183513	keystroke_n	n	n/a
91.9365	0.075	183873	keystroke_n	n	n/a
92.1015	0.21	184203	keystroke_e	e	n/a
92.2515	0.106	184503	keystroke_r	r	n/a
92.3275	0.1195	184655	keystroke_Key.space	Key.space	n/a
92.4925	0.1345	184985	keystroke_t	t	n/a
92.612	0.12	185224	keystroke_a	a	n/a
92.8675	0.12	185735	keystroke_b	b	n/a
93.1225	0.135	186245	keystroke_s	s	n/a
93.2865	0.135	186573	keystroke_Key.space	Key.space	n/a
93.8115	0.1355	187623	keystroke_s	s	n/a
94.007	0.03	188014	keystroke_y	y	n/a
94.5315	0.105	189063	keystroke_n	n	n/a
94.8465	0.105	189693	keystroke_t	t	n/a
94.9515	0.105	189903	keystroke_h	h	n/a
95.2515	0.121	190503	keystroke_e	e	n/a
95.4025	0.15	190805	keystroke_s	s	n/a
95.5225	0.135	191045	keystroke_e	e	n/a
96.137	0.09	192274	keystroke_Key.backspace	Key.backspace	n/a
96.272	0.1045	192544	keystroke_Key.backspace	Key.backspace	n/a
96.7215	0.105	193443	keystroke_i	i	n/a
96.8565	0.135	193713	keystroke_s	s	n/a
97.1115	0.075	194223	keystroke_Key.enter	Key.enter	n/a
97.1925	14.3365	194385	prompt	n/a	install resumes banner tobago\n
98.0425	0.104	196085	keystroke_i	i	n/a
98.1775	0.119	196355	keystroke_s	s	n/a
98.522	0.135	197044	keystroke_t	t	n/a
98.687	0.135	197374	keystroke_a	a	n/a
99.032	0.075	198064	keystroke_Key.backspace	Key.backspace	n/a
99.182	0.06	198364	keystroke_Key.backspace	Key.backspace	n/a
99.332	0.075	198664	keystroke_Key.backspace	Key.backspace	n/a
99.647	0.105	199294	keystroke_n	n	n/a
100.1865	0.12	200373	keystroke_s	s	n/a
100.3665	0.121	200733	keystroke_t	t	n/a
100.5025	0.135	201005	keystroke_a	a	n/a
100.6525	0.0745	201305	keystroke_l	l	n/a
100.907	0.015	201814	keystroke_l	l	n/a
100.967	0.135	201934	keystroke_Key.space	Key.space	n/a
101.282	0.15	202564	keystroke_r	r	n/a
101.387	0.1345	202774	keystroke_e	e	n/a
101.6265	0.135	203253	keystroke_s	s	n/a
101.7165	0.105	203433	keystroke_u	u	n/a
102.0165	0.09	204033	keystroke_m	m	n/a
102.1665	0.135	204333	keystroke_e	e	n/a
102.3615	0.1805	204723	keystroke_s	s	n/a
102.572	0.12	205144	keystroke_Key.space	Key.space	n/a
103.067	0.12	206134	keystroke_a	a	n/a
103.7415	0.075	207483	keystroke_Key.backspace	Key.backspace	n/a
104.2815	0.105	208563	keystroke_b	b	n/a
104.4315	0.121	208863	keystroke_a	a	n/a
104.5965	0.075	209193	keystroke_n	n	n/a
104.7315	0.09	209463	keystroke_n	n	n/a
104.9565	0.196	209913	keystroke_e	e	n/a
105.0915	0.15	210183	keystroke_r	r	n/a
105.287	0.09	210574	keystroke_Key.space	Key.space	n/a
105.782	0.0895	211564	keystroke_t	t	n/a
105.9465	0.12	211893	keystroke_o	o	n/a
106.217	0.12	212434	keystroke_g	g	n/a
106.7715	0.09	213543	keystroke_a	a	n/a
107.2365	0.091	214473	keystroke_g	g	n/a
107.6715	0.12	215343	keystroke_o	o	n/a
109.3675	0.09	218735	keystroke_Key.backspace	Key.backspace	n/a
109.5325	0.075	219065	keystroke_Key.backspace	Key.backspace	n/a
109.6825	0.06	219365	keystroke_Key.backspace	Key.backspace	n/a
109.8475	0.03	219695	keystroke_Key.backspace	Key.backspace	n/a
110.6125	0.119	221225	keystroke_b	b	n/a
110.7475	0.135	221495	keystroke_a	a	n/a
110.9875	0.119	221975	keystroke_g	g	n/a
111.1825	0.075	222365	keystroke_o	o	n/a
111.467	0.06	222934	keystroke_Key.enter	Key.enter	n/a
111.5345	9.249	223069	prompt	n/a	acquisition stats davis heat\n
112.2765	0.105	224553	keystroke_a	a	n/a
112.5465	0.105	225093	keystroke_c	c	n/a
113.447	0.15	226894	keystroke_u	u	n/a
114.152	0.075	228304	keystroke_Key.backspace	Key.backspace	n/a
114.422	0.12	228844	keystroke_q	q	n/a
114.662	0.135	229324	keystroke_u	u	n/a
115.727	0.135	231454	keystroke_i	i	n/a
116.042	0.12	232084	keystroke_s	s	n/a
116.192	0.09	232384	keystroke_i	i	n/a
116.357	0.105	232714	keystroke_t	t	n/a
116.447	0.285	232894	keystroke_i	i	n/a
116.567	0.12	233134	keystroke_o	o	n/a
116.612	0.15	233224	keystroke_n	n	n/a
116.747	0.105	233494	keystroke_Key.space	Key.space	n/a
116.9865	0.1505	233973	keystroke_t	t	n/a
117.167	0.09	234334	keystroke_a	a	n/a
117.272	0.1645	234544	keystroke_t	t	n/a
117.4965	0.181	234993	keystroke_e	e	n/a
117.7215	0.135	235443	keystroke_s	s	n/a
117.9315	0.12	235863	keystroke_Key.space	Key.space	n/a
118.1715	0.106	236343	keystroke_d	d	n/a
118.2925	0.1345	236585	keystroke_a	a	n/a
118.532	0.135	237064	keystroke_v	v	n/a
118.727	0.12	237454	keystroke_i	i	n/a
118.862	0.165	237724	keystroke_s	s	n/a
119.057	0.12	238114	keystroke_Key.space	Key.space	n/a
119.297	0.0895	238594	keystroke_h	h	n/a
119.4475	0.075	238895	keystroke_e	e	n/a
119.4915	0.15	238983	keystroke_a	a	n/a
119.7465	0.06	239493	keystroke_t	t	n/a
120.722	0.06	241444	keystroke_Key.enter	Key.enter	n/a
120.7865	13.482	241573	prompt	n/a	montreal arrangements investigations cognitive\n
121.8465	0.121	243693	keystroke_m	m	n/a
122.0415	0.121	244083	keystroke_o	o	n/a
122.387	0.105	244774	keystroke_n	n	n/a
122.627	0.1045	245254	keystroke_t	t	n/a
122.8815	0.135	245763	keystroke_r	r	n/a
123.0615	0.135	246123	keystroke_e	e	n/a
123.1815	0.136	246363	keystroke_a	a	n/a
123.2565	0.151	246513	keystroke_l	l	n/a
123.467	0.135	246934	keystroke_Key.space	Key.space	n/a
123.677	0.0905	247354	keystroke_a	a	n/a
123.857	0.09	247714	keystroke_r	r	n/a
124.037	0.09	248074	keystroke_r	r	n/a
124.232	0.1205	248464	keystroke_a	a	n/a
124.3825	0.105	248765	keystroke_n	n	n/a
124.5625	0.15	249125	keystroke_g	g	n/a
124.9525	0.15	249905	keystroke_e	e	n/a
125.402	0.1055	250804	keystroke_m	m	n/a
125.6125	0.1495	251225	keystroke_e	e	n/a
125.6425	0.1045	251285	keystroke_n	n	n/a
125.852	0.12	251704	keystroke_t	t	n/a
126.7815	0.151	253563	keystroke_s	s	n/a
127.0365	0.135	254073	keystroke_Key.space	Key.space	n/a
127.412	0.12	254824	keystroke_i	i	n/a
127.607	0.1355	255214	keystroke_n	n	n/a
128.147	0.105	256294	keystroke_v	v	n/a
128.372	0.105	256744	keystroke_e	e	n/a
128.522	0.105	257044	keystroke_s	s	n/a
128.732	0.105	257464	keystroke_t	t	n/a
128.852	0.09	257704	keystroke_i	i	n/a
129.167	0.12	258334	keystroke_g	g	n/a
129.302	0.12	258604	keystroke_a	a	n/a
129.497	0.09	258994	keystroke_t	t	n/a
129.617	0.21	259234	keystroke_i	i	n/a
129.707	0.12	259414	keystroke_o	o	n/a
129.782	0.135	259564	keystroke_n	n	n/a
129.872	0.18	259744	keystroke_s	s	n/a
130.007	0.135	260014	keystroke_Key.space	Key.space	n/a
130.637	0.15	261274	keystroke_c	c	n/a
130.757	0.135	261514	keystroke_o	o	n/a
131.942	0.09	263884	keystroke_g	g	n/a
133.082	0.165	266164	keystroke_n	n	n/a
133.172	0.1345	266344	keystroke_i	i	n/a
133.502	0.12	267004	keystroke_t	t	n/a
133.607	0.075	267214	keystroke_i	i	n/a
133.817	0.135	267634	keystroke_v	v	n/a
133.937	0.165	267874	keystroke_e	e	n/a
134.192	0.075	268384	keystroke_Key.enter	Key.enter	n/a
134.272	6.6115	268544	prompt	n/a	meets harvard jane cost\n
135.9765	0.0605	271953	keystroke_n	n	n/a
136.3965	0.09	272793	keystroke_Key.backspace	Key.backspace	n/a
136.6815	0.075	273363	keystroke_m	m	n/a
136.9065	0.105	273813	keystroke_e	e	n/a
137.0865	0.1505	274173	keystroke_e	e	n/a
137.4165	0.181	274833	keystroke_s	s	n/a
137.5675	0.135	275135	keystroke_Key.space	Key.space	n/a
137.7325	0.12	275465	keystroke_h	h	n/a
137.8825	0.135	275765	keystroke_a	a	n/a
138.0925	0.12	276185	keystroke_r	r	n/a
138.4675	0.135	276935	keystroke_v	v	n/a
138.5875	0.105	277175	keystroke_a	a	n/a
138.7375	0.09	277475	keystroke_r	r	n/a
138.962	0.135	277924	keystroke_d	d	n/a
139.082	0.135	278164	keystroke_Key.space	Key.space	n/a
139.3365	0.121	278673	keystroke_j	j	n/a
139.5015	0.1355	279003	keystroke_a	a	n/a
139.652	0.09	279304	keystroke_n	n	n/a
139.802	0.12	279604	keystroke_e	e	n/a
139.982	0.105	279964	keystroke_Key.space	Key.space	n/a
140.192	0.09	280384	keystroke_c	c	n/a
140.282	0.0905	280564	keystroke_o	o	n/a
140.4175	0.12	280835	keystroke_s	s	n/a
140.5975	0.1195	281195	keystroke_t	t	n/a
140.7925	0.09	281585	keystroke_Key.enter	Key.enter	n/a
140.8865	10.1675	281773	prompt	n/a	application upcoming bored readily\n
141.5575	0.09	283115	keystroke_a	a	n/a
142.0825	0.09	284165	keystroke_p	p	n/a
142.247	0.06	284494	keystroke_p	p	n/a
142.427	0.105	284854	keystroke_l	l	n/a
142.607	0.105	285214	keystroke_i	i	n/a
142.802	0.12	285604	keystroke_c	c	n/a
142.847	0.105	285694	keystroke_a	a	n/a
143.102	0.09	286204	keystroke_t	t	n/a
143.207	0.24	286414	keystroke_i	i	n/a
143.252	0.18	286504	keystroke_o	o	n/a
143.372	0.15	286744	keystroke_n	n	n/a
143.687	0.135	287374	keystroke_Key.space	Key.space	n/a
143.957	0.09	287914	keystroke_u	u	n/a
144.182	0.1055	288364	keystroke_p	p	n/a
144.977	0.12	289954	keystroke_c	c	n/a
145.052	0.105	290104	keystroke_o	o	n/a
145.232	0.075	290464	keystroke_m	m	n/a
145.442	0.105	290884	keystroke_i	i	n/a
145.487	0.165	290974	keystroke_n	n	n/a
145.653	0.134	291306	keystroke_g	g	n/a
145.757	0.105	291514	keystroke_Key.space	Key.space	n/a
146.057	0.135	292114	keystroke_o	o	n/a
146.207	0.1355	292414	keystroke_r	r	n/a
146.4925	0.105	292985	keystroke_e	e	n/a
146.8225	0.06	293645	keystroke_Key.backspace	Key.backspace	n/a
146.9575	0.06	293915	keystroke_Key.backspace	Key.backspace	n/a
147.1075	0.045	294215	keystroke_Key.backspace	Key.backspace	n/a
147.6025	0.075	295205	keystroke_b	b	n/a
147.7825	0.075	295565	keystroke_o	o	n/a
147.9475	0.075	295895	keystroke_r	r	n/a
148.1425	0.06	296285	keystroke_e	e	n/a
148.3225	0.1495	296645	keystroke_d	d	n/a
148.487	0.135	296974	keystroke_Key.space	Key.space	n/a
148.832	0.135	297664	keystroke_r	r	n/a
148.952	0.135	297904	keystroke_e	e	n/a
149.072	0.165	298144	keystroke_a	a	n/a
149.2815	0.12	298563	keystroke_d	d	n/a
150.242	0.075	300484	keystroke_i	i	n/a
150.407	0.105	300814	keystroke_l	l	n/a
150.662	0.09	301324	keystroke_y	y	n/a
150.992	0.06	301984	keystroke_Key.enter	Key.enter	n/a
151.057	12.0115	302114	prompt	n/a	broadcasting strange abstracts mono\n
151.862	0.105	303724	keystroke_b	b	n/a
152.012	0.12	304024	keystroke_r	r	n/a
152.147	0.1205	304294	keystroke_o	o	n/a
152.2975	0.135	304595	keystroke_a	a	n/a
153.257	0.105	306514	keystroke_d	d	n/a
153.557	0.165	307114	keystroke_c	c	n/a
153.677	0.105	307354	keystroke_a	a	n/a
153.992	0.105	307984	keystroke_s	s	n/a
154.217	0.06	308434	keystroke_t	t	n/a
154.352	0.21	308704	keystroke_i	i	n/a
154.442	0.165	308884	keystroke_n	n	n/a
154.622	0.105	309244	keystroke_g	g	n/a
154.712	0.105	309424	keystroke_Key.space	Key.space	n/a
154.892	0.105	309784	keystroke_s	s	n/a
155.087	0.09	310174	keystroke_t	t	n/a
155.267	0.105	310534	keystroke_r	r	n/a
155.387	0.1055	310774	keystroke_a	a	n/a
155.5375	0.105	311075	keystroke_n	n	n/a
155.7615	0.136	311523	keystroke_g	g	n/a
155.8525	0.165	311705	keystroke_e	e	n/a
156.0315	0.136	312063	keystroke_Key.space	Key.space	n/a
156.2415	0.0905	312483	keystroke_s	s	n/a
156.6325	0.09	313265	keystroke_Key.backspace	Key.backspace	n/a
156.7525	0.105	313505	keystroke_a	a	n/a
157.0075	0.075	314015	keystroke_b	b	n/a
157.3225	0.104	314645	keystroke_s	s	n/a
157.7865	0.015	315573	keystroke_r	r	n/a
158.342	0.075	316684	keystroke_Key.backspace	Key.backspace	n/a
158.462	0.12	316924	keystroke_t	t	n/a
159.482	0.12	318964	keystroke_r	r	n/a
160.667	0.12	321334	keystroke_a	a	n/a
160.937	0.12	321874	keystroke_c	c	n/a
161.237	0.1205	322474	keystroke_t	t	n/a
161.7025	0.149	323405	keystroke_s	s	n/a
161.9865	0.1055	323973	keystroke_Key.space	Key.space	n/a
162.257	0.09	324514	keystroke_m	m	n/a
162.422	0.105	324844	keystroke_o	o	n/a
162.587	0.09	325174	keystroke_n	n	n/a
162.722	0.075	325444	keystroke_o	o	n/a
163.007	0.06	326014	keystroke_Key.enter	Key.enter	n/a
163.072	15.612	326144	prompt	n/a	water announced cologne manitoba\n
163.907	0.09	327814	keystroke_a	a	n/a
164.312	0.075	328624	keystroke_Key.backspace	Key.backspace	n/a
164.477	0.165	328954	keystroke_w	w	n/a
164.627	0.12	329254	keystroke_a	a	n/a
164.8225	0.165	329645	keystroke_t	t	n/a
164.9425	0.225	329885	keystroke_e	e	n/a
165.1225	0.18	330245	keystroke_r	r	n/a
165.3325	0.15	330665	keystroke_Key.space	Key.space	n/a
165.8575	0.12	331715	keystroke_a	a	n/a
166.0825	0.075	332165	keystroke_n	n	n/a
166.2175	0.105	332435	keystroke_n	n	n/a
166.3675	0.195	332735	keystroke_o	o	n/a
166.4725	0.15	332945	keystroke_u	u	n/a
166.6975	0.135	333395	keystroke_c	c	n/a
166.8475	0.12	333695	keystroke_e	e	n/a
167.0275	0.18	334055	keystroke_d	d	n/a
167.267	0.09	334534	keystroke_Key.space	Key.space	n/a
169.669	0.013	339338	keystroke_Key.backspace	Key.backspace	n/a
169.7875	0.06	339575	keystroke_Key.backspace	Key.backspace	n/a
169.9375	0.105	339875	keystroke_Key.backspace	Key.backspace	n/a
170.0725	0.09	340145	keystroke_Key.backspace	Key.backspace	n/a
170.4025	0.075	340805	keystroke_Key.backspace	Key.backspace	n/a
171.3175	0.075	342635	keystroke_u	u	n/a
171.6025	0.075	343205	keystroke_n	n	n/a
171.8725	0.105	343745	keystroke_c	c	n/a
172.0525	0.09	344105	keystroke_e	e	n/a
172.367	0.15	344734	keystroke_d	d	n/a
172.682	0.12	345364	keystroke_Key.space	Key.space	n/a
173.012	0.105	346024	keystroke_c	c	n/a
173.132	0.075	346264	keystroke_o	o	n/a
173.342	0.105	346684	keystroke_l	l	n/a
173.552	0.105	347104	keystroke_o	o	n/a
173.837	0.105	347674	keystroke_g	g	n/a
174.077	0.135	348154	keystroke_n	n	n/a
174.3625	0.165	348725	keystroke_e	e	n/a
174.6315	0.15	349263	keystroke_Key.space	Key.space	n/a
174.9025	0.105	349805	keystroke_m	m	n/a
175.0825	0.135	350165	keystroke_a	a	n/a
175.4125	0.104	350825	keystroke_i	i	n/a
176.042	0.075	352084	keystroke_Key.backspace	Key.backspace	n/a
176.372	0.135	352744	keystroke_n	n	n/a
176.522	0.12	353044	keystroke_i	i	n/a
177.317	0.12	354634	keystroke_t	t	n/a
177.752	0.12	355504	keystroke_o	o	n/a
178.1275	0.09	356255	keystroke_b	b	n/a
178.4425	0.105	356885	keystroke_a	a	n/a
178.6225	0.06	357245	keystroke_Key.enter	Key.enter	n/a
178.6875	6.9415	357375	prompt	n/a	locked reverse governing travis\n
179.432	0.06	358864	keystroke_l	l	n/a
179.702	0.09	359404	keystroke_o	o	n/a
179.882	0.105	359764	keystroke_c	c	n/a
180.002	0.105	360004	keystroke_k	k	n/a
180.167	0.09	360334	keystroke_e	e	n/a
180.407	0.105	360814	keystroke_d	d	n/a
180.527	0.135	361054	keystroke_Key.space	Key.space	n/a
181.067	0.1355	362134	keystroke_r	r	n/a
181.1875	0.165	362375	keystroke_e	e	n/a
181.5775	0.12	363155	keystroke_v	v	n/a
181.7875	0.18	363575	keystroke_e	e	n/a
181.9075	0.12	363815	keystroke_r	r	n/a
182.0875	0.18	364175	keystroke_s	s	n/a
182.2375	0.165	364475	keystroke_e	e	n/a
182.3415	0.136	364683	keystroke_Key.space	Key.space	n/a
182.6125	0.105	365225	keystroke_g	g	n/a
182.7775	0.089	365555	keystroke_o	o	n/a
182.9575	0.119	365915	keystroke_v	v	n/a
183.0475	0.134	366095	keystroke_e	e	n/a
183.1675	0.165	366335	keystroke_r	r	n/a
183.5125	0.089	367025	keystroke_n	n	n/a
183.7215	0.195	367443	keystroke_i	i	n/a
183.8275	0.134	367655	keystroke_n	n	n/a
183.9015	0.195	367803	keystroke_g	g	n/a
184.1115	0.1205	368223	keystroke_Key.space	Key.space	n/a
184.4275	0.09	368855	keystroke_t	t	n/a
184.5925	0.135	369185	keystroke_r	r	n/a
184.8325	0.135	369665	keystroke_a	a	n/a
185.0575	0.12	370115	keystroke_v	v	n/a
185.1925	0.1195	370385	keystroke_i	i	n/a
185.342	0.15	370684	keystroke_s	s	n/a
185.552	0.075	371104	keystroke_Key.enter	Key.enter	n/a
185.632	7.947	371264	prompt	n/a	expect case regularly enhanced\n
186.3165	0.12	372633	keystroke_e	e	n/a
186.842	0.12	373684	keystroke_x	x	n/a
187.052	0.105	374104	keystroke_p	p	n/a
187.202	0.075	374404	keystroke_e	e	n/a
187.412	0.105	374824	keystroke_c	c	n/a
187.667	0.06	375334	keystroke_t	t	n/a
187.787	0.15	375574	keystroke_Key.space	Key.space	n/a
188.042	0.12	376084	keystroke_c	c	n/a
188.117	0.135	376234	keystroke_a	a	n/a
188.4025	0.165	376805	keystroke_s	s	n/a
188.5225	0.135	377045	keystroke_e	e	n/a
188.6425	0.135	377285	keystroke_Key.space	Key.space	n/a
188.8975	0.195	377795	keystroke_r	r	n/a
189.0025	0.15	378005	keystroke_e	e	n/a
189.302	0.135	378604	keystroke_g	g	n/a
189.452	0.075	378904	keystroke_u	u	n/a
189.737	0.075	379474	keystroke_l	l	n/a
189.917	0.105	379834	keystroke_a	a	n/a
190.067	0.105	380134	keystroke_r	r	n/a
190.322	0.0755	380644	keystroke_l	l	n/a
190.5775	0.1045	381155	keystroke_y	y	n/a
191.0725	0.12	382145	keystroke_Key.space	Key.space	n/a
192.0625	0.105	384125	keystroke_e	e	n/a
192.1375	0.105	384275	keystroke_n	n	n/a
192.422	0.06	384844	keystroke_h	h	n/a
192.527	0.105	385054	keystroke_a	a	n/a
192.647	0.105	385294	keystroke_n	n	n/a
192.872	0.12	385744	keystroke_c	c	n/a
193.037	0.105	386074	keystroke_e	e	n/a
193.247	0.135	386494	keystroke_d	d	n/a
193.4865	0.09	386973	keystroke_Key.enter	Key.enter	n/a
193.582	7.9015	387164	prompt	n/a	replication awareness comm investment\n
194.5215	0.165	389043	keystroke_r	r	n/a
194.6415	0.1805	389283	keystroke_e	e	n/a
194.8675	0.105	389735	keystroke_p	p	n/a
195.0775	0.12	390155	keystroke_l	l	n/a
195.2275	0.135	390455	keystroke_i	i	n/a
195.3775	0.1345	390755	keystroke_c	c	n/a
195.4525	0.0895	390905	keystroke_a	a	n/a
195.632	0.12	391264	keystroke_t	t	n/a
195.753	0.269	391506	keystroke_i	i	n/a
195.782	0.18	391564	keystroke_o	o	n/a
195.902	0.195	391804	keystroke_n	n	n/a
196.082	0.12	392164	keystroke_Key.space	Key.space	n/a
196.262	0.105	392524	keystroke_a	a	n/a
196.487	0.105	392974	keystroke_w	w	n/a
196.667	0.135	393334	keystroke_a	a	n/a
196.922	0.15	393844	keystroke_r	r	n/a
197.073	0.1495	394146	keystroke_e	e	n/a
197.2825	0.0895	394565	keystroke_n	n	n/a
197.447	0.1205	394894	keystroke_e	e	n/a
197.6575	0.105	395315	keystroke_s	s	n/a
197.852	0.12	395704	keystroke_s	s	n/a
198.032	0.135	396064	keystroke_Key.space	Key.space	n/a
198.242	0.12	396484	keystroke_c	c	n/a
198.332	0.09	396664	keystroke_o	o	n/a
198.602	0.045	397204	keystroke_m	m	n/a
198.737	0.06	397474	keystroke_m	m	n/a
199.262	0.1195	398524	keystroke_Key.space	Key.space	n/a
199.6815	0.165	399363	keystroke_i	i	n/a
199.7715	0.135	399543	keystroke_n	n	n/a
200.0565	0.105	400113	keystroke_v	v	n/a
200.2675	0.18	400535	keystroke_e	e	n/a
200.4025	0.12	400805	keystroke_s	s	n/a
200.5525	0.165	401105	keystroke_t	t	n/a
200.8375	0.06	401675	keystroke_m	m	n/a
200.9725	0.09	401945	keystroke_e	e	n/a
201.0475	0.075	402095	keystroke_n	n	n/a
201.1825	0.12	402365	keystroke_t	t	n/a
201.4225	0.06	402845	keystroke_Key.enter	Key.enter	n/a
201.487	12.1165	402974	prompt	n/a	guinea adjustment microwave heard\n
202.217	0.12	404434	keystroke_g	g	n/a
202.457	0.105	404914	keystroke_u	u	n/a
202.9225	0.09	405845	keystroke_i	i	n/a
203.2375	0.09	406475	keystroke_n	n	n/a
203.4475	0.135	406895	keystroke_e	e	n/a
203.6425	0.15	407285	keystroke_a	a	n/a
203.9125	0.12	407825	keystroke_Key.space	Key.space	n/a
204.0925	0.105	408185	keystroke_a	a	n/a
204.3325	0.075	408665	keystroke_d	d	n/a
205.0375	0.12	410075	keystroke_j	j	n/a
205.6375	0.119	411275	keystroke_e	e	n/a
206.3425	0.015	412685	keystroke_Key.backspace	Key.backspace	n/a
206.5975	0.06	413195	keystroke_u	u	n/a
206.7175	0.12	413435	keystroke_s	s	n/a
207.0175	0.075	414035	keystroke_t	t	n/a
207.4825	0.075	414965	keystroke_m	m	n/a
207.6325	0.105	415265	keystroke_e	e	n/a
207.7375	0.105	415475	keystroke_n	n	n/a
207.8875	0.15	415775	keystroke_t	t	n/a
208.0225	0.12	416045	keystroke_Key.space	Key.space	n/a
209.6875	0.12	419375	keystroke_m	m	n/a
209.9425	0.09	419885	keystroke_i	i	n/a
210.317	0.09	420634	keystroke_c	c	n/a
210.527	0.105	421054	keystroke_r	r	n/a
210.8275	0.135	421655	keystroke_o	o	n/a
211.5325	0.12	423065	keystroke_w	w	n/a
211.7575	0.12	423515	keystroke_a	a	n/a
211.9375	0.18	423875	keystroke_v	v	n/a
212.1325	0.1645	424265	keystroke_e	e	n/a
212.2675	0.164	424535	keystroke_Key.space	Key.space	n/a
212.597	0.105	425194	keystroke_h	h	n/a
212.732	0.315	425464	keystroke_e	e	n/a
212.882	0.18	425764	keystroke_a	a	n/a
212.972	0.12	425944	keystroke_r	r	n/a
213.272	0.135	426544	keystroke_d	d	n/a
213.527	0.075	427054	keystroke_Key.enter	Key.enter	n/a
213.607	7.542	427214	prompt	n/a	educated bible catering cruz\n
214.3675	0.12	428735	keystroke_e	e	n/a
214.7575	0.09	429515	keystroke_d	d	n/a
214.9375	0.09	429875	keystroke_u	u	n/a
215.0575	0.135	430115	keystroke_c	c	n/a
215.2375	0.135	430475	keystroke_a	a	n/a
215.4175	0.135	430835	keystroke_t	t	n/a
215.5975	0.135	431195	keystroke_e	e	n/a
215.8075	0.15	431615	keystroke_d	d	n/a
215.9275	0.119	431855	keystroke_Key.space	Key.space	n/a
216.1825	0.105	432365	keystroke_b	b	n/a
216.3315	0.015	432663	keystroke_i	i	n/a
216.662	0.105	433324	keystroke_b	b	n/a
217.067	0.09	434134	keystroke_l	l	n/a
217.277	0.1805	434554	keystroke_e	e	n/a
217.4125	0.12	434825	keystroke_Key.space	Key.space	n/a
217.8925	0.1795	435785	keystroke_c	c	n/a
218.057	0.09	436114	keystroke_a	a	n/a
218.282	0.09	436564	keystroke_t	t	n/a
218.432	0.15	436864	keystroke_e	e	n/a
218.552	0.135	437104	keystroke_r	r	n/a
218.732	0.195	437464	keystroke_i	i	n/a
218.807	0.165	437614	keystroke_n	n	n/a
218.912	0.15	437824	keystroke_g	g	n/a
219.047	0.12	438094	keystroke_Key.space	Key.space	n/a
219.242	0.105	438484	keystroke_c	c	n/a
219.467	0.12	438934	keystroke_r	r	n/a
219.632	0.105	439264	keystroke_u	u	n/a
219.812	0.135	439624	keystroke_s	s	n/a
220.637	0.015	441274	keystroke_Key.backspace	Key.backspace	n/a
220.667	0.09	441334	keystroke_z	z	n/a
221.1025	0.045	442205	keystroke_Key.enter	Key.enter	n/a
221.153	7.361	442306	prompt	n/a	nuts marking cedar lost\n
222.0475	0.12	444095	keystroke_n	n	n/a
222.6325	0.12	445265	keystroke_u	u	n/a
222.9775	0.105	445955	keystroke_t	t	n/a
223.2025	0.1795	446405	keystroke_s	s	n/a
223.397	0.105	446794	keystroke_Key.space	Key.space	n/a
223.592	0.105	447184	keystroke_m	m	n/a
223.727	0.12	447454	keystroke_a	a	n/a
223.907	0.135	447814	keystroke_r	r	n/a
224.4775	0.12	448955	keystroke_k	k	n/a
224.747	0.21	449494	keystroke_i	i	n/a
224.837	0.18	449674	keystroke_n	n	n/a
224.942	0.166	449884	keystroke_g	g	n/a
225.062	0.15	450124	keystroke_Key.space	Key.space	n/a
225.332	0.075	450664	keystroke_c	c	n/a
225.527	0.06	451054	keystroke_e	e	n/a
225.707	0.06	451414	keystroke_d	d	n/a
225.887	0.045	451774	keystroke_e	e	n/a
226.4125	0.044	452825	keystroke_Key.backspace	Key.backspace	n/a
226.4715	0.106	452943	keystroke_a	a	n/a
226.5625	0.135	453125	keystroke_r	r	n/a
227.012	0.12	454024	keystroke_Key.space	Key.space	n/a
227.792	0.09	455584	keystroke_l	l	n/a
228.017	0.09	456034	keystroke_o	o	n/a
228.152	0.15	456304	keystroke_s	s	n/a
228.287	0.12	456574	keystroke_t	t	n/a
228.452	0.06	456904	keystroke_Key.enter	Key.enter	n/a
228.517	10.272	457034	prompt	n/a	scared steering msgstr protest\n
229.202	0.1205	458404	keystroke_s	s	n/a
229.6825	0.06	459365	keystroke_a	a	n/a
230.1925	0.075	460385	keystroke_Key.backspace	Key.backspace	n/a
230.4475	0.105	460895	keystroke_c	c	n/a
230.5825	0.135	461165	keystroke_a	a	n/a
230.8675	0.075	461735	keystroke_e	e	n/a
230.9125	0.045	461825	keystroke_r	r	n/a
231.497	0.0455	462994	keystroke_Key.backspace	Key.backspace	n/a
231.6175	0.075	463235	keystroke_Key.backspace	Key.backspace	n/a
231.7075	0.12	463415	keystroke_r	r	n/a
232.0075	0.1045	464015	keystroke_e	e	n/a
232.217	0.135	464434	keystroke_d	d	n/a
232.412	0.15	464824	keystroke_Key.space	Key.space	n/a
232.772	0.15	465544	keystroke_s	s	n/a
233.0125	0.135	466025	keystroke_t	t	n/a
233.2375	0.0895	466475	keystroke_e	e	n/a
233.432	0.075	466864	keystroke_e	e	n/a
233.732	0.09	467464	keystroke_r	r	n/a
234.017	0.21	468034	keystroke_i	i	n/a
234.077	0.1945	468154	keystroke_n	n	n/a
234.2575	0.149	468515	keystroke_g	g	n/a
234.3775	0.12	468755	keystroke_Key.space	Key.space	n/a
234.7075	0.06	469415	keystroke_m	m	n/a
234.8275	0.12	469655	keystroke_s	s	n/a
235.307	0.165	470614	keystroke_g	g	n/a
235.832	0.105	471664	keystroke_s	s	n/a
236.087	0.0755	472174	keystroke_t	t	n/a
236.447	0.135	472894	keystroke_r	r	n/a
236.912	0.1205	473824	keystroke_Key.space	Key.space	n/a
237.0775	0.12	474155	keystroke_p	p	n/a
237.2275	0.15	474455	keystroke_r	r	n/a
237.3775	0.09	474755	keystroke_o	o	n/a
237.7225	0.105	475445	keystroke_t	t	n/a
237.8725	0.09	475745	keystroke_e	e	n/a
238.352	0.135	476704	keystroke_s	s	n/a
238.472	0.12	476944	keystroke_t	t	n/a
238.712	0.075	477424	keystroke_Key.enter	Key.enter	n/a
238.792	10.6615	477584	prompt	n/a	links departmental celebration jackie\n
239.6275	0.075	479255	keystroke_l	l	n/a
239.822	0.06	479644	keystroke_i	i	n/a
239.972	0.195	479944	keystroke_n	n	n/a
240.137	0.12	480274	keystroke_k	k	n/a
240.707	0.075	481414	keystroke_s	s	n/a
240.962	0.1205	481924	keystroke_Key.space	Key.space	n/a
241.217	0.075	482434	keystroke_d	d	n/a
241.427	0.075	482854	keystroke_e	e	n/a
241.607	0.105	483214	keystroke_p	p	n/a
241.742	0.12	483484	keystroke_a	a	n/a
241.847	0.105	483694	keystroke_r	r	n/a
242.057	0.09	484114	keystroke_t	t	n/a
242.387	0.09	484774	keystroke_m	m	n/a
242.537	0.135	485074	keystroke_e	e	n/a
242.687	0.09	485374	keystroke_n	n	n/a
242.822	0.105	485644	keystroke_t	t	n/a
242.912	0.1505	485824	keystroke_a	a	n/a
243.0925	0.105	486185	keystroke_l	l	n/a
243.3025	0.1495	486605	keystroke_Key.space	Key.space	n/a
243.797	0.121	487594	keystroke_c	c	n/a
243.963	0.089	487926	keystroke_l	l	n/a
244.6825	0.075	489365	keystroke_Key.backspace	Key.backspace	n/a
244.8025	0.12	489605	keystroke_e	e	n/a
245.0125	0.12	490025	keystroke_l	l	n/a
245.823	0.1045	491646	keystroke_e	e	n/a
246.5875	0.09	493175	keystroke_b	b	n/a
246.7675	0.105	493535	keystroke_r	r	n/a
246.9475	0.15	493895	keystroke_a	a	n/a
247.1875	0.105	494375	keystroke_t	t	n/a
247.3225	0.255	494645	keystroke_i	i	n/a
247.3825	0.165	494765	keystroke_o	o	n/a
247.4725	0.18	494945	keystroke_n	n	n/a
247.6375	0.105	495275	keystroke_Key.space	Key.space	n/a
247.9675	0.105	495935	keystroke_j	j	n/a
248.117	0.09	496234	keystroke_a	a	n/a
248.3425	0.12	496685	keystroke_c	c	n/a
248.4775	0.09	496955	keystroke_k	k	n/a
248.7475	0.09	497495	keystroke_i	i	n/a
249.0175	0.12	498035	keystroke_e	e	n/a
249.3925	0.0595	498785	keystroke_Key.enter	Key.enter	n/a
249.457	7.3765	498914	prompt	n/a	arrive literary episode meta\n
250.142	0.12	500284	keystroke_a	a	n/a
250.382	0.045	500764	keystroke_r	r	n/a
250.517	0.09	501034	keystroke_r	r	n/a
250.6975	0.105	501395	keystroke_i	i	n/a
250.8175	0.165	501635	keystroke_v	v	n/a
250.9525	0.15	501905	keystroke_e	e	n/a
251.1475	0.105	502295	keystroke_Key.space	Key.space	n/a
251.477	0.105	502954	keystroke_l	l	n/a
251.687	0.105	503374	keystroke_i	i	n/a
251.942	0.121	503884	keystroke_t	t	n/a
252.108	0.195	504216	keystroke_e	e	n/a
252.243	0.135	504486	keystroke_r	r	n/a
252.618	0.015	505236	keystroke_a	a	n/a
252.648	0.12	505296	keystroke_r	r	n/a
252.828	0.105	505656	keystroke_y	y	n/a
253.067	0.105	506134	keystroke_Key.space	Key.space	n/a
253.277	0.1055	506554	keystroke_e	e	n/a
253.5925	0.09	507185	keystroke_p	p	n/a
253.832	0.06	507664	keystroke_o	o	n/a
254.447	0.06	508894	keystroke_Key.backspace	Key.backspace	n/a
254.672	0.1055	509344	keystroke_i	i	n/a
254.8975	0.075	509795	keystroke_s	s	n/a
255.0175	0.09	510035	keystroke_o	o	n/a
255.1675	0.09	510335	keystroke_d	d	n/a
255.392	0.12	510784	keystroke_e	e	n/a
255.647	0.12	511294	keystroke_Key.space	Key.space	n/a
256.052	0.075	512104	keystroke_m	m	n/a
256.172	0.135	512344	keystroke_e	e	n/a
256.397	0.12	512794	keystroke_t	t	n/a
256.487	0.165	512974	keystroke_a	a	n/a
256.757	0.075	513514	keystroke_Key.enter	Key.enter	n/a
256.837	10.7365	513674	prompt	n/a	adelaide invasion rates foundations\n
257.522	0.12	515044	keystroke_a	a	n/a
257.717	0.135	515434	keystroke_d	d	n/a
258.107	0.105	516214	keystroke_e	e	n/a
258.392	0.09	516784	keystroke_l	l	n/a
258.572	0.105	517144	keystroke_a	a	n/a
259.3375	0.12	518675	keystroke_i	i	n/a
259.5775	0.09	519155	keystroke_d	d	n/a
259.7575	0.105	519515	keystroke_e	e	n/a
259.9375	0.135	519875	keystroke_Key.space	Key.space	n/a
260.1625	0.105	520325	keystroke_i	i	n/a
260.3275	0.18	520655	keystroke_n	n	n/a
260.6425	0.12	521285	keystroke_v	v	n/a
260.8075	0.135	521615	keystroke_a	a	n/a
261.0175	0.1345	522035	keystroke_c	c	n/a
261.153	0.1645	522306	keystroke_e	e	n/a
262.1275	0.0745	524255	keystroke_Key.backspace	Key.backspace	n/a
262.6525	0.075	525305	keystroke_Key.backspace	Key.backspace	n/a
262.892	0.1055	525784	keystroke_s	s	n/a
263.042	0.286	526084	keystroke_i	i	n/a
263.162	0.136	526324	keystroke_o	o	n/a
263.252	0.1495	526504	keystroke_n	n	n/a
263.7015	0.15	527403	keystroke_Key.space	Key.space	n/a
264.1075	0.164	528215	keystroke_r	r	n/a
264.2575	0.15	528515	keystroke_a	a	n/a
264.392	0.1355	528784	keystroke_t	t	n/a
264.4675	0.135	528935	keystroke_e	e	n/a
264.6625	0.165	529325	keystroke_s	s	n/a
264.8125	0.1495	529625	keystroke_Key.space	Key.space	n/a
265.1275	0.12	530255	keystroke_f	f	n/a
265.5325	0.18	531065	keystroke_o	o	n/a
265.6225	0.12	531245	keystroke_u	u	n/a
265.6675	0.18	531335	keystroke_n	n	n/a
265.8625	0.119	531725	keystroke_d	d	n/a
266.1925	0.165	532385	keystroke_a	a	n/a
266.5225	0.105	533045	keystroke_t	t	n/a
266.6425	0.27	533285	keystroke_i	i	n/a
266.7475	0.15	533495	keystroke_o	o	n/a
266.8375	0.15	533675	keystroke_n	n	n/a
267.1825	0.1045	534365	keystroke_s	s	n/a
267.4975	0.075	534995	keystroke_Key.enter	Key.enter	n/a
267.577	9.642	535154	prompt	n/a	resort poly away forum\n
268.337	0.15	536674	keystroke_r	r	n/a
268.428	0.134	536856	keystroke_e	e	n/a
268.682	0.09	537364	keystroke_p	p	n/a
269.102	0.075	538204	keystroke_Key.backspace	Key.backspace	n/a
269.193	0.119	538386	keystroke_s	s	n/a
269.372	0.136	538744	keystroke_r	r	n/a
269.6425	0.105	539285	keystroke_t	t	n/a
270.857	0.045	541714	keystroke_Key.backspace	Key.backspace	n/a
270.992	0.06	541984	keystroke_Key.backspace	Key.backspace	n/a
271.5025	0.105	543005	keystroke_o	o	n/a
271.6825	0.135	543365	keystroke_r	r	n/a
271.8625	0.15	543725	keystroke_t	t	n/a
272.0275	0.15	544055	keystroke_Key.space	Key.space	n/a
272.552	0.045	545104	keystroke_p	p	n/a
272.792	0.09	545584	keystroke_o	o	n/a
273.002	0.09	546004	keystroke_l	l	n/a
273.242	0.06	546484	keystroke_u	u	n/a
273.992	0.075	547984	keystroke_Key.backspace	Key.backspace	n/a
274.472	0.075	548944	keystroke_y	y	n/a
274.622	0.15	549244	keystroke_Key.space	Key.space	n/a
274.847	0.075	549694	keystroke_a	a	n/a
275.087	0.195	550174	keystroke_w	w	n/a
275.252	0.135	550504	keystroke_a	a	n/a
275.447	0.12	550894	keystroke_y	y	n/a
275.612	0.12	551224	keystroke_Key.space	Key.space	n/a
275.807	0.135	551614	keystroke_f	f	n/a
275.957	0.105	551914	keystroke_o	o	n/a
276.077	0.1355	552154	keystroke_r	r	n/a
276.512	0.09	553024	keystroke_u	u	n/a
276.842	0.045	553684	keystroke_m	m	n/a
277.157	0.0605	554314	keystroke_Key.enter	Key.enter	n/a
277.222	9.4765	554444	prompt	n/a	social institute lowest permit\n
277.862	0.15	555724	keystroke_s	s	n/a
278.027	0.105	556054	keystroke_o	o	n/a
278.192	0.1355	556384	keystroke_c	c	n/a
278.3125	0.075	556625	keystroke_i	i	n/a
278.4775	0.105	556955	keystroke_a	a	n/a
278.6125	0.105	557225	keystroke_l	l	n/a
278.7775	0.135	557555	keystroke_Key.space	Key.space	n/a
279.0175	0.18	558035	keystroke_i	i	n/a
279.1825	0.165	558365	keystroke_n	n	n/a
279.5725	0.12	559145	keystroke_s	s	n/a
280.1575	0.09	560315	keystroke_t	t	n/a
280.3075	0.0745	560615	keystroke_i	i	n/a
280.577	0.0905	561154	keystroke_t	t	n/a
280.6975	0.09	561395	keystroke_u	u	n/a
281.327	0.135	562654	keystroke_e	e	n/a
281.9125	0.075	563825	keystroke_Key.backspace	Key.backspace	n/a
282.1225	0.105	564245	keystroke_t	t	n/a
282.2725	0.09	564545	keystroke_u	u	n/a
282.7525	0.06	565505	keystroke_Key.backspace	Key.backspace	n/a
282.8875	0.165	565775	keystroke_e	e	n/a
283.0975	0.105	566195	keystroke_Key.space	Key.space	n/a
283.3675	0.075	566735	keystroke_l	l	n/a
283.5475	0.09	567095	keystroke_o	o	n/a
283.7575	0.12	567515	keystroke_e	e	n/a
284.2975	0.075	568595	keystroke_Key.backspace	Key.backspace	n/a
284.4025	0.09	568805	keystroke_w	w	n/a
284.5975	0.195	569195	keystroke_e	e	n/a
284.7625	0.15	569525	keystroke_s	s	n/a
284.9275	0.135	569855	keystroke_t	t	n/a
285.1075	0.1345	570215	keystroke_Key.space	Key.space	n/a
285.618	0.09	571236	keystroke_p	p	n/a
285.753	0.15	571506	keystroke_e	e	n/a
285.828	0.134	571656	keystroke_r	r	n/a
286.0825	0.105	572165	keystroke_m	m	n/a
286.2625	0.09	572525	keystroke_i	i	n/a
286.397	0.135	572794	keystroke_t	t	n/a
286.637	0.06	573274	keystroke_Key.enter	Key.enter	n/a
286.702	18.717	573404	prompt	n/a	investors permits marks continuous\n
287.447	0.18	574894	keystroke_i	i	n/a
287.552	0.165	575104	keystroke_n	n	n/a
287.732	0.09	575464	keystroke_v	v	n/a
287.927	0.18	575854	keystroke_e	e	n/a
288.047	0.135	576094	keystroke_s	s	n/a
288.227	0.105	576454	keystroke_t	t	n/a
288.362	0.135	576724	keystroke_o	o	n/a
288.512	0.165	577024	keystroke_r	r	n/a
288.8275	0.15	577655	keystroke_s	s	n/a
289.0225	0.105	578045	keystroke_Key.space	Key.space	n/a
289.2475	0.105	578495	keystroke_p	p	n/a
289.3975	0.15	578795	keystroke_e	e	n/a
289.4875	0.135	578975	keystroke_r	r	n/a
289.7725	0.12	579545	keystroke_f	f	n/a
290.4475	0.075	580895	keystroke_Key.backspace	Key.backspace	n/a
290.7175	0.09	581435	keystroke_m	m	n/a
290.8975	0.09	581795	keystroke_i	i	n/a
291.3325	0.135	582665	keystroke_t	t	n/a
291.5275	0.135	583055	keystroke_s	s	n/a
291.7075	0.135	583415	keystroke_Key.space	Key.space	n/a
291.8875	0.09	583775	keystroke_m	m	n/a
292.0525	0.105	584105	keystroke_a	a	n/a
292.1425	0.135	584285	keystroke_r	r	n/a
292.3225	0.105	584645	keystroke_k	k	n/a
292.5775	0.15	585155	keystroke_s	s	n/a
292.7125	0.135	585425	keystroke_Key.space	Key.space	n/a
293.597	0.135	587194	keystroke_c	c	n/a
293.687	0.165	587374	keystroke_o	o	n/a
293.807	0.12	587614	keystroke_n	n	n/a
294.092	0.105	588184	keystroke_t	t	n/a
294.242	0.135	588484	keystroke_i	i	n/a
295.292	0.105	590584	keystroke_n	n	n/a
295.6825	0.195	591365	keystroke_o	o	n/a
295.7725	0.15	591545	keystroke_u	u	n/a
298.009	0.088	596018	keystroke_s	s	n/a
301.789	0.0285	603578	keystroke_Key.backspace	Key.backspace	n/a
301.922	0.06	603844	keystroke_Key.backspace	Key.backspace	n/a
302.042	0.075	604084	keystroke_Key.backspace	Key.backspace	n/a
302.853	0.074	605706	keystroke_u	u	n/a
303.1675	0.15	606335	keystroke_o	o	n/a
304.802	0.09	609604	keystroke_u	u	n/a
305.027	0.136	610054	keystroke_s	s	n/a
305.343	0.0745	610686	keystroke_Key.enter	Key.enter	n/a
305.4225	11.396	610845	prompt	n/a	chairman dana billion interior\n
306.5575	0.135	613115	keystroke_c	c	n/a
306.6775	0.12	613355	keystroke_h	h	n/a
306.8575	0.135	613715	keystroke_a	a	n/a
307.0225	0.12	614045	keystroke_i	i	n/a
307.2025	0.09	614405	keystroke_r	r	n/a
307.4125	0.075	614825	keystroke_m	m	n/a
307.6075	0.105	615215	keystroke_a	a	n/a
307.7425	0.105	615485	keystroke_n	n	n/a
307.877	0.105	615754	keystroke_Key.space	Key.space	n/a
308.087	0.1055	616174	keystroke_d	d	n/a
308.2675	0.075	616535	keystroke_a	a	n/a
308.4475	0.1195	616895	keystroke_d	d	n/a
308.5975	0.105	617195	keystroke_a	a	n/a
308.987	0.105	617974	keystroke_Key.space	Key.space	n/a
309.2725	0.075	618545	keystroke_b	b	n/a
309.4075	0.09	618815	keystroke_i	i	n/a
309.8725	0.09	619745	keystroke_l	l	n/a
310.0375	0.09	620075	keystroke_l	l	n/a
310.5475	0.0905	621095	keystroke_Key.backspace	Key.backspace	n/a
310.713	0.074	621426	keystroke_Key.backspace	Key.backspace	n/a
310.862	0.091	621724	keystroke_Key.backspace	Key.backspace	n/a
311.042	0.045	622084	keystroke_Key.backspace	Key.backspace	n/a
311.328	0.0895	622656	keystroke_Key.backspace	Key.backspace	n/a
311.6875	0.09	623375	keystroke_Key.backspace	Key.backspace	n/a
312.872	0.045	625744	keystroke_Key.backspace	Key.backspace	n/a
313.1275	0.09	626255	keystroke_n	n	n/a
313.2625	0.15	626525	keystroke_a	a	n/a
313.4125	0.12	626825	keystroke_Key.space	Key.space	n/a
314.0575	0.12	628115	keystroke_b	b	n/a
314.2225	0.09	628445	keystroke_i	i	n/a
314.4325	0.075	628865	keystroke_l	l	n/a
314.5825	0.075	629165	keystroke_l	l	n/a
314.762	0.12	629524	keystroke_i	i	n/a
314.957	0.105	629914	keystroke_o	o	n/a
315.152	0.105	630304	keystroke_n	n	n/a
315.317	0.15	630634	keystroke_Key.space	Key.space	n/a
315.512	0.12	631024	keystroke_i	i	n/a
315.542	0.181	631084	keystroke_n	n	n/a
315.737	0.151	631474	keystroke_t	t	n/a
315.902	0.1505	631804	keystroke_e	e	n/a
316.007	0.1505	632014	keystroke_r	r	n/a
316.1425	0.105	632285	keystroke_i	i	n/a
316.3375	0.105	632675	keystroke_o	o	n/a
316.4725	0.12	632945	keystroke_r	r	n/a
316.7425	0.075	633485	keystroke_Key.enter	Key.enter	n/a
316.822	8.112	633644	prompt	n/a	counters food staying latter\n
317.492	0.15	634984	keystroke_c	c	n/a
317.627	0.1955	635254	keystroke_o	o	n/a
317.7325	0.135	635465	keystroke_u	u	n/a
318.512	0.135	637024	keystroke_r	r	n/a
318.9175	0.075	637835	keystroke_Key.backspace	Key.backspace	n/a
319.382	0.09	638764	keystroke_t	t	n/a
319.9525	0.09	639905	keystroke_Key.backspace	Key.backspace	n/a
320.222	0.105	640444	keystroke_n	n	n/a
320.357	0.15	640714	keystroke_t	t	n/a
320.522	0.15	641044	keystroke_e	e	n/a
320.597	0.165	641194	keystroke_r	r	n/a
320.852	0.18	641704	keystroke_s	s	n/a
321.002	0.18	642004	keystroke_Key.space	Key.space	n/a
321.4675	0.15	642935	keystroke_f	f	n/a
321.6775	0.075	643355	keystroke_o	o	n/a
321.8275	0.105	643655	keystroke_o	o	n/a
322.037	0.135	644074	keystroke_d	d	n/a
322.127	0.165	644254	keystroke_Key.space	Key.space	n/a
322.472	0.105	644944	keystroke_s	s	n/a
322.697	0.105	645394	keystroke_t	t	n/a
322.8775	0.15	645755	keystroke_a	a	n/a
323.1025	0.075	646205	keystroke_y	y	n/a
323.327	0.195	646654	keystroke_i	i	n/a
323.433	0.18	646866	keystroke_n	n	n/a
323.538	0.134	647076	keystroke_g	g	n/a
323.613	0.134	647226	keystroke_Key.space	Key.space	n/a
323.837	0.091	647674	keystroke_l	l	n/a
323.957	0.105	647914	keystroke_a	a	n/a
324.152	0.09	648304	keystroke_t	t	n/a
324.317	0.136	648634	keystroke_t	t	n/a
324.467	0.1955	648934	keystroke_e	e	n/a
324.603	0.1345	649206	keystroke_r	r	n/a
324.8425	0.09	649685	keystroke_Key.enter	Key.enter	n/a
324.9375	10.346	649875	prompt	n/a	alternate zoning portland mint\n
325.6075	0.12	651215	keystroke_a	a	n/a
325.8775	0.105	651755	keystroke_l	l	n/a
326.0875	0.1645	652175	keystroke_r	r	n/a
326.2075	0.1795	652415	keystroke_e	e	n/a
326.462	0.165	652924	keystroke_n	n	n/a
326.657	0.09	653314	keystroke_a	a	n/a
326.807	0.15	653614	keystroke_t	t	n/a
327.288	0.06	654576	keystroke_Key.backspace	Key.backspace	n/a
327.438	0.074	654876	keystroke_Key.backspace	Key.backspace	n/a
327.587	0.09	655174	keystroke_Key.backspace	Key.backspace	n/a
327.7675	0.075	655535	keystroke_Key.backspace	Key.backspace	n/a
327.9325	0.06	655865	keystroke_Key.backspace	Key.backspace	n/a
328.5625	0.12	657125	keystroke_t	t	n/a
328.7875	0.18	657575	keystroke_e	e	n/a
328.8925	0.15	657785	keystroke_r	r	n/a
329.1325	0.105	658265	keystroke_n	n	n/a
329.2525	0.135	658505	keystroke_a	a	n/a
329.4325	0.105	658865	keystroke_t	t	n/a
329.6575	0.09	659315	keystroke_i	i	n/a
329.8675	0.09	659735	keystroke_v	v	n/a
330.2425	0.075	660485	keystroke_Key.backspace	Key.backspace	n/a
330.3925	0.075	660785	keystroke_Key.backspace	Key.backspace	n/a
330.4825	0.12	660965	keystroke_e	e	n/a
330.7525	0.12	661505	keystroke_Key.space	Key.space	n/a
331.5175	0.135	663035	keystroke_z	z	n/a
331.6075	0.135	663215	keystroke_o	o	n/a
331.7275	0.09	663455	keystroke_n	n	n/a
331.9375	0.195	663875	keystroke_i	i	n/a
332.0275	0.18	664055	keystroke_n	n	n/a
332.1175	0.135	664235	keystroke_g	g	n/a
332.2225	0.135	664445	keystroke_Key.space	Key.space	n/a
332.462	0.12	664924	keystroke_p	p	n/a
332.777	0.09	665554	keystroke_o	o	n/a
332.912	0.15	665824	keystroke_r	r	n/a
333.077	0.15	666154	keystroke_t	t	n/a
333.362	0.09	666724	keystroke_l	l	n/a
333.5125	0.105	667025	keystroke_a	a	n/a
333.6025	0.135	667205	keystroke_n	n	n/a
333.7525	0.18	667505	keystroke_d	d	n/a
334.2625	0.15	668525	keystroke_Key.space	Key.space	n/a
334.5625	0.09	669125	keystroke_m	m	n/a
334.7425	0.105	669485	keystroke_i	i	n/a
334.8475	0.1345	669695	keystroke_n	n	n/a
334.997	0.135	669994	keystroke_t	t	n/a
335.2075	0.075	670415	keystroke_Key.enter	Key.enter	n/a
335.2885	11.4855	670577	prompt	n/a	technologies antonio folks mustn't\n
336.228	0.164	672456	keystroke_t	t	n/a
336.333	0.134	672666	keystroke_e	e	n/a
336.602	0.181	673204	keystroke_c	c	n/a
336.738	0.119	673476	keystroke_h	h	n/a
336.992	0.165	673984	keystroke_n	n	n/a
337.127	0.105	674254	keystroke_o	o	n/a
337.3525	0.075	674705	keystroke_l	l	n/a
337.5325	0.09	675065	keystroke_o	o	n/a
337.6975	0.135	675395	keystroke_g	g	n/a
337.8625	0.12	675725	keystroke_i	i	n/a
338.0125	0.165	676025	keystroke_e	e	n/a
338.1475	0.165	676295	keystroke_s	s	n/a
338.2675	0.1505	676535	keystroke_Key.space	Key.space	n/a
338.538	0.12	677076	keystroke_a	a	n/a
339.647	0.105	679294	keystroke_n	n	n/a
340.0075	0.1055	680015	keystroke_t	t	n/a
340.128	0.105	680256	keystroke_o	o	n/a
340.3675	0.135	680735	keystroke_n	n	n/a
340.4725	0.12	680945	keystroke_i	i	n/a
340.6675	0.135	681335	keystroke_o	o	n/a
340.8925	0.135	681785	keystroke_Key.space	Key.space	n/a
341.1625	0.1355	682325	keystroke_f	f	n/a
341.403	0.09	682806	keystroke_o	o	n/a
341.628	0.104	683256	keystroke_l	l	n/a
342.378	0.134	684756	keystroke_k	k	n/a
342.557	0.135	685114	keystroke_s	s	n/a
342.842	0.135	685684	keystroke_Key.space	Key.space	n/a
343.397	0.09	686794	keystroke_m	m	n/a
343.652	0.106	687304	keystroke_u	u	n/a
343.937	0.091	687874	keystroke_s	s	n/a
344.342	0.15	688684	keystroke_t	t	n/a
344.7475	0.105	689495	keystroke_n	n	n/a
345.1225	0.105	690245	keystroke_'	'	n/a
345.3625	0.06	690725	keystroke_y	y	n/a
346.067	0.105	692134	keystroke_Key.backspace	Key.backspace	n/a
346.4125	0.09	692825	keystroke_t	t	n/a
346.6825	0.09	693365	keystroke_Key.enter	Key.enter	n/a
346.778	14.651	693556	prompt	n/a	exports received specializing childhood\n
347.492	0.09	694984	keystroke_e	e	n/a
347.717	0.135	695434	keystroke_x	x	n/a
347.882	0.12	695764	keystroke_p	p	n/a
348.062	0.135	696124	keystroke_o	o	n/a
348.242	0.135	696484	keystroke_r	r	n/a
348.407	0.15	696814	keystroke_t	t	n/a
348.617	0.18	697234	keystroke_s	s	n/a
348.782	0.165	697564	keystroke_Key.space	Key.space	n/a
349.2925	0.09	698585	keystroke_e	e	n/a
349.697	0.105	699394	keystroke_Key.backspace	Key.backspace	n/a
349.817	0.15	699634	keystroke_r	r	n/a
349.937	0.15	699874	keystroke_e	e	n/a
350.357	0.12	700714	keystroke_c	c	n/a
350.567	0.135	701134	keystroke_e	e	n/a
350.732	0.105	701464	keystroke_i	i	n/a
350.942	0.12	701884	keystroke_v	v	n/a
351.137	0.09	702274	keystroke_e	e	n/a
351.347	0.12	702694	keystroke_d	d	n/a
351.437	0.12	702874	keystroke_Key.space	Key.space	n/a
351.872	0.135	703744	keystroke_s	s	n/a
352.142	0.09	704284	keystroke_p	p	n/a
352.292	0.105	704584	keystroke_e	e	n/a
352.682	0.135	705364	keystroke_c	c	n/a
352.818	0.074	705636	keystroke_i	i	n/a
352.967	0.135	705934	keystroke_a	a	n/a
353.1475	0.0595	706295	keystroke_l	l	n/a
357.905	0.0125	715810	keystroke_i	i	n/a
357.962	0.1355	715924	keystroke_z	z	n/a
358.1125	0.18	716225	keystroke_i	i	n/a
358.157	0.1655	716314	keystroke_n	n	n/a
358.2775	0.1795	716555	keystroke_g	g	n/a
358.4725	0.1345	716945	keystroke_Key.space	Key.space	n/a
359.0575	0.135	718115	keystroke_c	c	n/a
359.1625	0.12	718325	keystroke_h	h	n/a
359.2675	0.105	718535	keystroke_i	i	n/a
359.4775	0.12	718955	keystroke_l	l	n/a
359.6125	0.1195	719225	keystroke_d	d	n/a
360.137	0.06	720274	keystroke_h	h	n/a
360.303	0.074	720606	keystroke_o	o	n/a
360.498	0.06	720996	keystroke_o	o	n/a
361.053	0.12	722106	keystroke_d	d	n/a
361.3375	0.09	722675	keystroke_Key.enter	Key.enter	n/a
361.432	9.7625	722864	prompt	n/a	classics journalist paid editors\n
362.1475	0.15	724295	keystroke_c	c	n/a
362.2985	0.1045	724597	keystroke_h	h	n/a
362.718	0.09	725436	keystroke_Key.backspace	Key.backspace	n/a
363.033	0.075	726066	keystroke_l	l	n/a
363.153	0.105	726306	keystroke_a	a	n/a
363.393	0.06	726786	keystroke_s	s	n/a
363.543	0.09	727086	keystroke_s	s	n/a
363.812	0.12	727624	keystroke_i	i	n/a
363.977	0.12	727954	keystroke_c	c	n/a
364.247	0.0905	728494	keystroke_s	s	n/a
364.3675	0.135	728735	keystroke_Key.space	Key.space	n/a
364.6675	0.165	729335	keystroke_j	j	n/a
364.8925	0.225	729785	keystroke_o	o	n/a
365.0575	0.105	730115	keystroke_i	i	n/a
365.0725	0.075	730145	keystroke_u	u	n/a
365.9875	0.09	731975	keystroke_Key.backspace	Key.backspace	n/a
366.1525	0.06	732305	keystroke_Key.backspace	Key.backspace	n/a
366.693	0.18	733386	keystroke_u	u	n/a
366.933	0.12	733866	keystroke_r	r	n/a
367.4725	0.12	734945	keystroke_n	n	n/a
367.6375	0.12	735275	keystroke_a	a	n/a
367.7875	0.09	735575	keystroke_l	l	n/a
367.9825	0.105	735965	keystroke_i	i	n/a
368.1625	0.135	736325	keystroke_s	s	n/a
368.2975	0.165	736595	keystroke_t	t	n/a
368.4325	0.15	736865	keystroke_Key.space	Key.space	n/a
368.6575	0.106	737315	keystroke_p	p	n/a
368.823	0.135	737646	keystroke_a	a	n/a
368.958	0.12	737916	keystroke_i	i	n/a
369.0925	0.165	738185	keystroke_d	d	n/a
369.2725	0.105	738545	keystroke_Key.space	Key.space	n/a
369.468	0.075	738936	keystroke_e	e	n/a
369.663	0.12	739326	keystroke_d	d	n/a
369.768	0.075	739536	keystroke_i	i	n/a
370.3975	0.135	740795	keystroke_t	t	n/a
370.5475	0.06	741095	keystroke_o	o	n/a
370.6375	0.12	741275	keystroke_r	r	n/a
370.8475	0.15	741695	keystroke_s	s	n/a
371.1325	0.06	742265	keystroke_Key.enter	Key.enter	n/a
371.199	9.566	742398	prompt	n/a	improve scanners doug morning\n
371.8975	0.105	743795	keystroke_i	i	n/a
372.0925	0.12	744185	keystroke_m	m	n/a
372.377	0.061	744754	keystroke_p	p	n/a
372.5435	0.1035	745087	keystroke_o	o	n/a
372.9775	0.15	745955	keystroke_r	r	n/a
373.3225	0.06	746645	keystroke_Key.backspace	Key.backspace	n/a
373.4575	0.09	746915	keystroke_Key.backspace	Key.backspace	n/a
373.6075	0.1055	747215	keystroke_r	r	n/a
373.7725	0.0455	747545	keystroke_i	i	n/a
374.568	0.075	749136	keystroke_Key.backspace	Key.backspace	n/a
374.973	0.09	749946	keystroke_o	o	n/a
375.198	0.105	750396	keystroke_v	v	n/a
375.393	0.105	750786	keystroke_e	e	n/a
375.603	0.135	751206	keystroke_d	d	n/a
375.633	0.18	751266	keystroke_Key.space	Key.space	n/a
376.2775	0.105	752555	keystroke_s	s	n/a
376.5625	0.12	753125	keystroke_c	c	n/a
376.7275	0.105	753455	keystroke_a	a	n/a
376.9375	0.075	753875	keystroke_n	n	n/a
377.0875	0.0745	754175	keystroke_n	n	n/a
377.2825	0.105	754565	keystroke_e	e	n/a
377.3125	0.18	754625	keystroke_r	r	n/a
377.507	0.1655	755014	keystroke_s	s	n/a
377.6275	0.1645	755255	keystroke_Key.space	Key.space	n/a
377.897	0.12	755794	keystroke_d	d	n/a
378.047	0.211	756094	keystroke_o	o	n/a
378.137	0.151	756274	keystroke_u	u	n/a
378.738	0.1495	757476	keystroke_g	g	n/a
378.9925	0.12	757985	keystroke_Key.space	Key.space	n/a
379.2325	0.12	758465	keystroke_m	m	n/a
379.3825	0.105	758765	keystroke_o	o	n/a
379.8775	0.12	759755	keystroke_r	r	n/a
380.0575	0.1205	760115	keystroke_n	n	n/a
380.252	0.18	760504	keystroke_i	i	n/a
380.372	0.12	760744	keystroke_n	n	n/a
380.478	0.149	760956	keystroke_g	g	n/a
380.687	0.075	761374	keystroke_Key.enter	Key.enter	n/a
380.768	14.6665	761536	prompt	n/a	transportation groups forbes removal\n
381.5725	0.12	763145	keystroke_t	t	n/a
381.7825	0.135	763565	keystroke_r	r	n/a
381.9325	0.12	763865	keystroke_a	a	n/a
382.967	0.09	765934	keystroke_n	n	n/a
383.177	0.1055	766354	keystroke_s	s	n/a
383.6275	0.075	767255	keystroke_p	p	n/a
383.837	0.09	767674	keystroke_o	o	n/a
383.972	0.0605	767944	keystroke_r	r	n/a
384.8725	0.06	769745	keystroke_t	t	n/a
384.993	0.105	769986	keystroke_a	a	n/a
385.203	0.105	770406	keystroke_t	t	n/a
385.4125	0.225	770825	keystroke_i	i	n/a
385.4725	0.166	770945	keystroke_o	o	n/a
385.5475	0.15	771095	keystroke_n	n	n/a
385.7725	0.15	771545	keystroke_Key.space	Key.space	n/a
386.688	0.12	773376	keystroke_f	f	n/a
386.928	0.09	773856	keystroke_r	r	n/a
387.2875	0.255	774575	keystroke_o	o	n/a
387.3775	0.15	774755	keystroke_u	u	n/a
387.4825	0.165	774965	keystroke_p	p	n/a
388.5775	0.1655	777155	keystroke_s	s	n/a
388.773	0.135	777546	keystroke_Key.space	Key.space	n/a
389.028	0.135	778056	keystroke_f	f	n/a
389.148	0.1195	778296	keystroke_o	o	n/a
389.313	0.105	778626	keystroke_r	r	n/a
389.568	0.075	779136	keystroke_b	b	n/a
389.6725	0.15	779345	keystroke_e	e	n/a
389.8975	0.18	779795	keystroke_s	s	n/a
390.0925	0.09	780185	keystroke_Key.space	Key.space	n/a
390.333	0.1495	780666	keystroke_r	r	n/a
390.438	0.1195	780876	keystroke_e	e	n/a
390.6625	0.1055	781325	keystroke_m	m	n/a
390.828	0.135	781656	keystroke_o	o	n/a
394.8045	0.073	789609	keystroke_v	v	n/a
394.8925	0.15	789785	keystroke_a	a	n/a
395.0125	0.105	790025	keystroke_l	l	n/a
395.3575	0.075	790715	keystroke_Key.enter	Key.enter	n/a
395.4375	9.582	790875	prompt	n/a	scanning silent circuits owen\n
396.4825	0.075	792965	keystroke_s	s	n/a
396.6775	0.12	793355	keystroke_a	a	n/a
396.8125	0.15	793625	keystroke_c	c	n/a
397.608	0.104	795216	keystroke_Key.backspace	Key.backspace	n/a
398.268	0.09	796536	keystroke_Key.backspace	Key.backspace	n/a
398.5525	0.105	797105	keystroke_s	s	n/a
398.913	0.105	797826	keystroke_Key.backspace	Key.backspace	n/a
399.048	0.15	798096	keystroke_c	c	n/a
399.153	0.135	798306	keystroke_a	a	n/a
399.348	0.06	798696	keystroke_n	n	n/a
399.483	0.075	798966	keystroke_n	n	n/a
399.708	0.195	799416	keystroke_i	i	n/a
399.798	0.165	799596	keystroke_n	n	n/a
399.903	0.15	799806	keystroke_g	g	n/a
400.008	0.12	800016	keystroke_Key.space	Key.space	n/a
400.263	0.15	800526	keystroke_s	s	n/a
400.428	0.075	800856	keystroke_i	i	n/a
400.6375	0.09	801275	keystroke_l	l	n/a
400.7425	0.12	801485	keystroke_e	e	n/a
400.8925	0.15	801785	keystroke_n	n	n/a
401.0275	0.135	802055	keystroke_t	t	n/a
401.1475	0.15	802295	keystroke_Key.space	Key.space	n/a
401.5525	0.12	803105	keystroke_c	c	n/a
401.7325	0.105	803465	keystroke_i	i	n/a
401.943	0.12	803886	keystroke_r	r	n/a
402.258	0.1345	804516	keystroke_c	c	n/a
402.4375	0.075	804875	keystroke_u	u	n/a
402.6925	0.075	805385	keystroke_i	i	n/a
403.1875	0.1205	806375	keystroke_t	t	n/a
403.443	0.195	806886	keystroke_s	s	n/a
403.638	0.135	807276	keystroke_Key.space	Key.space	n/a
403.818	0.0895	807636	keystroke_o	o	n/a
404.2375	0.12	808475	keystroke_w	w	n/a
404.4625	0.12	808925	keystroke_e	e	n/a
404.6275	0.0905	809255	keystroke_n	n	n/a
404.958	0.06	809916	keystroke_Key.enter	Key.enter	n/a
405.0225	9.6565	810045	prompt	n/a	mandatory newest announce rank\n
405.783	0.1355	811566	keystroke_m	m	n/a
405.9335	0.1195	811867	keystroke_a	a	n/a
406.068	0.105	812136	keystroke_n	n	n/a
406.293	0.1195	812586	keystroke_d	d	n/a
406.818	0.12	813636	keystroke_a	a	n/a
407.193	0.09	814386	keystroke_t	t	n/a
407.298	0.105	814596	keystroke_o	o	n/a
407.433	0.135	814866	keystroke_r	r	n/a
407.643	0.105	815286	keystroke_y	y	n/a
407.808	0.105	815616	keystroke_Key.space	Key.space	n/a
408.318	0.135	816636	keystroke_n	n	n/a
408.468	0.15	816936	keystroke_e	e	n/a
408.648	0.1645	817296	keystroke_s	s	n/a
409.7125	0.09	819425	keystroke_Key.backspace	Key.backspace	n/a
409.923	0.1195	819846	keystroke_w	w	n/a
410.2525	0.1805	820505	keystroke_e	e	n/a
410.388	0.165	820776	keystroke_s	s	n/a
410.5375	0.1655	821075	keystroke_t	t	n/a
410.7625	0.1505	821525	keystroke_Key.space	Key.space	n/a
411.0325	0.1055	822065	keystroke_a	a	n/a
411.3925	0.06	822785	keystroke_n	n	n/a
411.5275	0.105	823055	keystroke_n	n	n/a
411.9175	0.195	823835	keystroke_o	o	n/a
412.0075	0.136	824015	keystroke_u	u	n/a
412.5025	0.135	825005	keystroke_n	n	n/a
412.7275	0.166	825455	keystroke_c	c	n/a
412.8625	0.165	825725	keystroke_e	e	n/a
413.0425	0.1505	826085	keystroke_Key.space	Key.space	n/a
413.6425	0.121	827285	keystroke_r	r	n/a
413.7925	0.135	827585	keystroke_a	a	n/a
414.1085	0.074	828217	keystroke_n	n	n/a
414.3025	0.09	828605	keystroke_k	k	n/a
414.6175	0.06	829235	keystroke_Key.enter	Key.enter	n/a
414.682	8.067	829364	prompt	n/a	thesis fame shipment unwrap\n
415.3975	0.1655	830795	keystroke_t	t	n/a
415.623	0.12	831246	keystroke_h	h	n/a
416.418	0.12	832836	keystroke_e	e	n/a
417.0175	0.09	834035	keystroke_s	s	n/a
417.1235	0.075	834247	keystroke_i	i	n/a
417.2285	0.1195	834457	keystroke_s	s	n/a
417.438	0.12	834876	keystroke_Key.space	Key.space	n/a
417.663	0.135	835326	keystroke_f	f	n/a
417.783	0.135	835566	keystroke_a	a	n/a
417.963	0.105	835926	keystroke_m	m	n/a
418.098	0.165	836196	keystroke_e	e	n/a
418.233	0.1345	836466	keystroke_Key.space	Key.space	n/a
418.6375	0.15	837275	keystroke_s	s	n/a
418.7725	0.105	837545	keystroke_h	h	n/a
418.983	0.075	837966	keystroke_i	i	n/a
419.208	0.0895	838416	keystroke_p	p	n/a
419.718	0.075	839436	keystroke_m	m	n/a
419.838	0.104	839676	keystroke_e	e	n/a
419.958	0.09	839916	keystroke_n	n	n/a
420.108	0.15	840216	keystroke_t	t	n/a
420.243	0.134	840486	keystroke_Key.space	Key.space	n/a
420.528	0.09	841056	keystroke_u	u	n/a
420.783	0.135	841566	keystroke_p	p	n/a
421.608	0.09	843216	keystroke_w	w	n/a
421.908	0.105	843816	keystroke_r	r	n/a
422.208	0.135	844416	keystroke_a	a	n/a
422.358	0.0895	844716	keystroke_p	p	n/a
422.6875	0.06	845375	keystroke_Key.enter	Key.enter	n/a
422.7525	7.542	845505	prompt	n/a	analyzes processors retired none\n
423.468	0.12	846936	keystroke_a	a	n/a
423.573	0.12	847146	keystroke_n	n	n/a
423.738	0.105	847476	keystroke_a	a	n/a
423.963	0.09	847926	keystroke_l	l	n/a
424.218	0.09	848436	keystroke_y	y	n/a
424.713	0.135	849426	keystroke_z	z	n/a
425.2075	0.1205	850415	keystroke_e	e	n/a
425.388	0.135	850776	keystroke_s	s	n/a
425.5525	0.15	851105	keystroke_Key.space	Key.space	n/a
425.9425	0.09	851885	keystroke_p	p	n/a
426.0625	0.15	852125	keystroke_r	r	n/a
426.1975	0.106	852395	keystroke_o	o	n/a
426.4825	0.135	852965	keystroke_c	c	n/a
426.6625	0.075	853325	keystroke_e	e	n/a
426.8575	0.075	853715	keystroke_s	s	n/a
427.0525	0.06	854105	keystroke_s	s	n/a
427.2025	0.1205	854405	keystroke_o	o	n/a
427.338	0.12	854676	keystroke_r	r	n/a
427.548	0.18	855096	keystroke_s	s	n/a
427.713	0.135	855426	keystroke_Key.space	Key.space	n/a
428.0125	0.135	856025	keystroke_r	r	n/a
428.1025	0.105	856205	keystroke_e	e	n/a
428.3125	0.1205	856625	keystroke_t	t	n/a
428.418	0.105	856836	keystroke_i	i	n/a
428.568	0.135	857136	keystroke_r	r	n/a
428.688	0.165	857376	keystroke_e	e	n/a
428.898	0.225	857796	keystroke_d	d	n/a
429.138	0.12	858276	keystroke_Key.space	Key.space	n/a
429.468	0.165	858936	keystroke_n	n	n/a
429.618	0.12	859236	keystroke_o	o	n/a
429.753	0.12	859506	keystroke_n	n	n/a
429.948	0.12	859896	keystroke_e	e	n/a
430.218	0.075	860436	keystroke_Key.enter	Key.enter	n/a
430.2975	6.207	860595	prompt	n/a	ranks special yamaha willing\n
431.013	0.105	862026	keystroke_r	r	n/a
431.148	0.1645	862296	keystroke_a	a	n/a
431.2975	0.09	862595	keystroke_n	n	n/a
431.4625	0.105	862925	keystroke_k	k	n/a
431.6275	0.151	863255	keystroke_s	s	n/a
431.7475	0.135	863495	keystroke_Key.space	Key.space	n/a
432.0175	0.12	864035	keystroke_s	s	n/a
432.1975	0.105	864395	keystroke_p	p	n/a
432.3325	0.075	864665	keystroke_e	e	n/a
432.5575	0.15	865115	keystroke_c	c	n/a
432.6925	0.075	865385	keystroke_i	i	n/a
432.8285	0.134	865657	keystroke_a	a	n/a
433.0075	0.12	866015	keystroke_l	l	n/a
433.143	0.135	866286	keystroke_Key.space	Key.space	n/a
433.443	0.09	866886	keystroke_y	y	n/a
433.623	0.105	867246	keystroke_a	a	n/a
433.878	0.09	867756	keystroke_m	m	n/a
434.238	0.09	868476	keystroke_a	a	n/a
434.583	0.06	869166	keystroke_h	h	n/a
434.7625	0.135	869525	keystroke_a	a	n/a
434.9575	0.105	869915	keystroke_Key.space	Key.space	n/a
435.213	0.12	870426	keystroke_w	w	n/a
435.378	0.075	870756	keystroke_i	i	n/a
435.558	0.09	871116	keystroke_l	l	n/a
435.708	0.075	871416	keystroke_l	l	n/a
435.918	0.1655	871836	keystroke_i	i	n/a
435.978	0.1655	871956	keystroke_n	n	n/a
436.1285	0.105	872257	keystroke_g	g	n/a
436.4435	0.0595	872887	keystroke_Key.enter	Key.enter	n/a
436.5075	10.827	873015	prompt	n/a	oaks portal riding adidas\n
437.2835	0.09	874567	keystroke_o	o	n/a
437.4475	0.121	874895	keystroke_a	a	n/a
437.6425	0.105	875285	keystroke_k	k	n/a
437.8675	0.105	875735	keystroke_s	s	n/a
438.0635	0.119	876127	keystroke_Key.space	Key.space	n/a
438.3485	0.09	876697	keystroke_p	p	n/a
438.5135	0.105	877027	keystroke_r	r	n/a
438.6635	0.075	877327	keystroke_o	o	n/a
439.1285	0.135	878257	keystroke_t	t	n/a
440.1625	0.0455	880325	keystroke_Key.backspace	Key.backspace	n/a
440.2825	0.105	880565	keystroke_Key.backspace	Key.backspace	n/a
440.793	0.0895	881586	keystroke_Key.backspace	Key.backspace	n/a
441.393	0.0755	882786	keystroke_o	o	n/a
441.6635	0.09	883327	keystroke_r	r	n/a
441.963	0.15	883926	keystroke_t	t	n/a
442.143	0.12	884286	keystroke_a	a	n/a
442.308	0.105	884616	keystroke_l	l	n/a
443.493	0.135	886986	keystroke_Key.space	Key.space	n/a
443.8375	0.1205	887675	keystroke_r	r	n/a
444.003	0.06	888006	keystroke_i	i	n/a
444.123	0.135	888246	keystroke_d	d	n/a
444.273	0.225	888546	keystroke_i	i	n/a
444.363	0.195	888726	keystroke_n	n	n/a
444.483	0.15	888966	keystroke_g	g	n/a
444.588	0.135	889176	keystroke_Key.space	Key.space	n/a
444.843	0.12	889686	keystroke_a	a	n/a
445.038	0.12	890076	keystroke_d	d	n/a
445.458	0.1045	890916	keystroke_a	a	n/a
445.8925	0.075	891785	keystroke_Key.backspace	Key.backspace	n/a
446.2375	0.075	892475	keystroke_i	i	n/a
446.6575	0.12	893315	keystroke_d	d	n/a
446.8375	0.1205	893675	keystroke_a	a	n/a
447.033	0.1195	894066	keystroke_s	s	n/a
447.2885	0.045	894577	keystroke_Key.enter	Key.enter	n/a
447.342	9.1275	894684	prompt	n/a	underlying sunset common thou\n
448.068	0.105	896136	keystroke_u	u	n/a
448.293	0.105	896586	keystroke_d	d	n/a
448.743	0.06	897486	keystroke_Key.backspace	Key.backspace	n/a
449.013	0.09	898026	keystroke_n	n	n/a
449.118	0.06	898236	keystroke_d	d	n/a
449.3285	0.209	898657	keystroke_e	e	n/a
449.4475	0.15	898895	keystroke_r	r	n/a
450.4675	0.09	900935	keystroke_l	l	n/a
450.7525	0.075	901505	keystroke_y	y	n/a
451.038	0.18	902076	keystroke_i	i	n/a
451.083	0.18	902166	keystroke_n	n	n/a
451.248	0.18	902496	keystroke_g	g	n/a
451.413	0.105	902826	keystroke_Key.space	Key.space	n/a
451.683	0.105	903366	keystroke_s	s	n/a
451.8175	0.09	903635	keystroke_u	u	n/a
452.0425	0.12	904085	keystroke_n	n	n/a
452.6585	0.12	905317	keystroke_s	s	n/a
452.7935	0.105	905587	keystroke_e	e	n/a
452.9885	0.165	905977	keystroke_t	t	n/a
453.2735	0.105	906547	keystroke_Key.space	Key.space	n/a
453.4985	0.12	906997	keystroke_c	c	n/a
453.5885	0.075	907177	keystroke_o	o	n/a
453.8885	0.015	907777	keystroke_m	m	n/a
454.1285	0.045	908257	keystroke_m	m	n/a
454.4435	0.105	908887	keystroke_o	o	n/a
454.5635	0.105	909127	keystroke_n	n	n/a
454.8335	0.15	909667	keystroke_Key.space	Key.space	n/a
455.628	0.1055	911256	keystroke_t	t	n/a
455.8535	0.12	911707	keystroke_h	h	n/a
455.9885	0.195	911977	keystroke_o	o	n/a
456.0785	0.12	912157	keystroke_u	u	n/a
456.4385	0.03	912877	keystroke_Key.enter	Key.enter	n/a
456.473	6.1615	912946	prompt	n/a	organization blood chen might\n
457.203	0.1195	914406	keystroke_o	o	n/a
457.3825	0.06	914765	keystroke_r	r	n/a
457.5935	0.135	915187	keystroke_g	g	n/a
457.7735	0.1195	915547	keystroke_a	a	n/a
458.058	0.09	916116	keystroke_n	n	n/a
458.238	0.075	916476	keystroke_i	i	n/a
458.373	0.12	916746	keystroke_z	z	n/a
458.613	0.105	917226	keystroke_a	a	n/a
458.868	0.09	917736	keystroke_t	t	n/a
458.9875	0.241	917975	keystroke_i	i	n/a
459.0635	0.15	918127	keystroke_o	o	n/a
459.1085	0.18	918217	keystroke_n	n	n/a
459.2735	0.1195	918547	keystroke_Key.space	Key.space	n/a
459.513	0.135	919026	keystroke_b	b	n/a
459.603	0.105	919206	keystroke_l	l	n/a
459.813	0.075	919626	keystroke_o	o	n/a
459.978	0.06	919956	keystroke_o	o	n/a
460.188	0.12	920376	keystroke_d	d	n/a
460.293	0.15	920586	keystroke_Key.space	Key.space	n/a
460.683	0.105	921366	keystroke_c	c	n/a
460.773	0.0895	921546	keystroke_h	h	n/a
460.9385	0.105	921877	keystroke_e	e	n/a
461.1335	0.074	922267	keystroke_n	n	n/a
461.268	0.12	922536	keystroke_Key.space	Key.space	n/a
461.448	0.12	922896	keystroke_m	m	n/a
461.628	0.105	923256	keystroke_i	i	n/a
462.018	0.105	924036	keystroke_g	g	n/a
462.183	0.075	924366	keystroke_h	h	n/a
462.318	0.1045	924636	keystroke_t	t	n/a
462.573	0.0595	925146	keystroke_Key.enter	Key.enter	n/a
462.637	13.3025	925274	prompt	n/a	clan guilty instrument site\n
463.3225	0.105	926645	keystroke_c	c	n/a
463.4425	0.09	926885	keystroke_l	l	n/a
463.6075	0.105	927215	keystroke_a	a	n/a
463.7725	0.105	927545	keystroke_n	n	n/a
463.9525	0.1055	927905	keystroke_Key.space	Key.space	n/a
464.328	0.105	928656	keystroke_g	g	n/a
464.433	0.075	928866	keystroke_u	u	n/a
464.703	0.075	929406	keystroke_i	i	n/a
464.958	0.09	929916	keystroke_l	l	n/a
465.153	0.09	930306	keystroke_t	t	n/a
466.4135	0.06	932827	keystroke_Key.backspace	Key.backspace	n/a
466.8335	0.06	933667	keystroke_u	u	n/a
467.403	0.075	934806	keystroke_Key.backspace	Key.backspace	n/a
467.553	0.06	935106	keystroke_Key.backspace	Key.backspace	n/a
467.868	0.165	935736	keystroke_t	t	n/a
468.048	0.105	936096	keystroke_y	y	n/a
469.458	0.09	938916	keystroke_Key.backspace	Key.backspace	n/a
469.608	0.075	939216	keystroke_Key.backspace	Key.backspace	n/a
470.2375	0.075	940475	keystroke_l	l	n/a
470.5075	0.151	941015	keystroke_t	t	n/a
470.6875	0.105	941375	keystroke_y	y	n/a
471.333	0.045	942666	keystroke_Key.space	Key.space	n/a
471.4835	0.165	942967	keystroke_i	i	n/a
471.5885	0.15	943177	keystroke_n	n	n/a
471.8135	0.105	943627	keystroke_s	s	n/a
472.0535	0.105	944107	keystroke_t	t	n/a
472.2485	0.135	944497	keystroke_r	r	n/a
472.4885	0.075	944977	keystroke_u	u	n/a
473.853	0.12	947706	keystroke_m	m	n/a
474.2735	0.105	948547	keystroke_e	e	n/a
474.4235	0.09	948847	keystroke_n	n	n/a
474.5735	0.135	949147	keystroke_t	t	n/a
474.7085	0.135	949417	keystroke_Key.space	Key.space	n/a
475.0385	0.105	950077	keystroke_s	s	n/a
475.353	0.105	950706	keystroke_i	i	n/a
475.503	0.1205	951006	keystroke_t	t	n/a
475.5785	0.195	951157	keystroke_e	e	n/a
475.8785	0.06	951757	keystroke_Key.enter	Key.enter	n/a
475.943	21.4615	951886	prompt	n/a	protective who'd've subsection aspects\n
476.7485	0.105	953497	keystroke_p	p	n/a
476.913	0.15	953826	keystroke_r	r	n/a
477.4375	0.121	954875	keystroke_o	o	n/a
477.6935	0.12	955387	keystroke_t	t	n/a
477.8585	0.15	955717	keystroke_e	e	n/a
478.2935	0.105	956587	keystroke_c	c	n/a
478.5485	0.06	957097	keystroke_t	t	n/a
478.6385	0.12	957277	keystroke_i	i	n/a
478.8485	0.15	957697	keystroke_v	v	n/a
478.9085	0.165	957817	keystroke_e	e	n/a
479.0435	0.135	958087	keystroke_Key.space	Key.space	n/a
479.493	0.12	958986	keystroke_w	w	n/a
479.6285	0.18	959257	keystroke_h	h	n/a
480.0625	0.091	960125	keystroke_o	o	n/a
480.453	0.09	960906	keystroke_'	'	n/a
480.618	0.1355	961236	keystroke_s	s	n/a
480.7385	0.12	961477	keystroke_Key.space	Key.space	n/a
481.1735	0.09	962347	keystroke_Key.backspace	Key.backspace	n/a
481.413	0.0605	962826	keystroke_Key.backspace	Key.backspace	n/a
481.5485	0.15	963097	keystroke_v	v	n/a
481.6535	0.21	963307	keystroke_e	e	n/a
481.7885	0.225	963577	keystroke_r	r	n/a
482.1185	0.12	964237	keystroke_Key.space	Key.space	n/a
482.673	0.12	965346	keystroke_s	s	n/a
483.7075	0.091	967415	keystroke_u	u	n/a
483.8885	0.075	967777	keystroke_b	b	n/a
487.895	0.058	975790	keystroke_Key.backspace	Key.backspace	n/a
488.058	0.075	976116	keystroke_Key.backspace	Key.backspace	n/a
488.223	0.075	976446	keystroke_Key.backspace	Key.backspace	n/a
488.418	0.06	976836	keystroke_Key.backspace	Key.backspace	n/a
488.628	0.03	977256	keystroke_Key.backspace	Key.backspace	n/a
488.763	0.075	977526	keystroke_Key.backspace	Key.backspace	n/a
489.3485	0.074	978697	keystroke_Key.backspace	Key.backspace	n/a
489.7985	0.12	979597	keystroke_d	d	n/a
491.328	0.09	982656	keystroke_'	'	n/a
492.1985	0.255	984397	keystroke_v	v	n/a
492.4085	0.135	984817	keystroke_e	e	n/a
492.6185	0.18	985237	keystroke_Key.space	Key.space	n/a
493.0835	0.15	986167	keystroke_s	s	n/a
493.2185	0.0895	986437	keystroke_u	u	n/a
493.533	0.135	987066	keystroke_b	b	n/a
493.893	0.135	987786	keystroke_s	s	n/a
494.1485	0.105	988297	keystroke_e	e	n/a
494.4485	0.09	988897	keystroke_c	c	n/a
494.733	0.09	989466	keystroke_t	t	n/a
494.853	0.21	989706	keystroke_i	i	n/a
494.913	0.135	989826	keystroke_o	o	n/a
495.003	0.12	990006	keystroke_n	n	n/a
495.108	0.12	990216	keystroke_Key.space	Key.space	n/a
495.3335	0.105	990667	keystroke_s	s	n/a
495.7685	0.105	991537	keystroke_Key.backspace	Key.backspace	n/a
495.9185	0.1195	991837	keystroke_a	a	n/a
496.053	0.165	992106	keystroke_s	s	n/a
496.338	0.075	992676	keystroke_p	p	n/a
496.443	0.075	992886	keystroke_e	e	n/a
496.653	0.09	993306	keystroke_c	c	n/a
496.878	0.12	993756	keystroke_t	t	n/a
497.043	0.12	994086	keystroke_s	s	n/a
497.328	0.0755	994656	keystroke_Key.enter	Key.enter	n/a
497.408	7.632	994816	prompt	n/a	total intended boston surge\n
498.1685	0.135	996337	keystroke_t	t	n/a
498.3185	0.12	996637	keystroke_o	o	n/a
498.4685	0.18	996937	keystroke_t	t	n/a
498.6035	0.1345	997207	keystroke_a	a	n/a
498.723	0.165	997446	keystroke_l	l	n/a
498.903	0.15	997806	keystroke_Key.space	Key.space	n/a
499.1285	0.1495	998257	keystroke_i	i	n/a
499.2185	0.1345	998437	keystroke_n	n	n/a
499.563	0.135	999126	keystroke_t	t	n/a
499.758	0.21	999516	keystroke_e	e	n/a
500.598	0.12	1001196	keystroke_n	n	n/a
500.898	0.105	1001796	keystroke_d	d	n/a
501.4835	0.075	1002967	keystroke_e	e	n/a
501.693	0.1195	1003386	keystroke_d	d	n/a
501.8585	0.135	1003717	keystroke_Key.space	Key.space	n/a
502.2185	0.12	1004437	keystroke_b	b	n/a
502.2935	0.105	1004587	keystroke_o	o	n/a
502.4435	0.135	1004887	keystroke_s	s	n/a
502.6535	0.09	1005307	keystroke_t	t	n/a
502.8035	0.15	1005607	keystroke_o	o	n/a
502.8935	0.165	1005787	keystroke_n	n	n/a
503.5235	0.135	1007047	keystroke_Key.space	Key.space	n/a
504.1085	0.1195	1008217	keystroke_s	s	n/a
504.258	0.12	1008516	keystroke_u	u	n/a
504.408	0.12	1008816	keystroke_r	r	n/a
504.618	0.15	1009236	keystroke_g	g	n/a
504.723	0.165	1009446	keystroke_e	e	n/a
504.963	0.075	1009926	keystroke_Key.enter	Key.enter	n/a
505.044	16.3155	1010088	prompt	n/a	tutorials falls impression nutritional\n
505.9375	0.135	1011875	keystroke_t	t	n/a
506.6435	0.105	1013287	keystroke_u	u	n/a
507.0475	0.091	1014095	keystroke_t	t	n/a
507.2135	0.119	1014427	keystroke_o	o	n/a
507.5425	0.1205	1015085	keystroke_r	r	n/a
507.708	0.12	1015416	keystroke_i	i	n/a
508.263	0.12	1016526	keystroke_a	a	n/a
508.428	0.12	1016856	keystroke_l	l	n/a
508.638	0.15	1017276	keystroke_s	s	n/a
509.013	0.15	1018026	keystroke_Key.space	Key.space	n/a
509.8525	0.165	1019705	keystroke_f	f	n/a
509.9875	0.165	1019975	keystroke_a	a	n/a
510.1225	0.06	1020245	keystroke_l	l	n/a
510.2575	0.0755	1020515	keystroke_l	l	n/a
510.348	0.105	1020696	keystroke_e	e	n/a
510.828	0.075	1021656	keystroke_Key.backspace	Key.backspace	n/a
510.933	0.21	1021866	keystroke_s	s	n/a
511.083	0.15	1022166	keystroke_Key.space	Key.space	n/a
512.088	0.105	1024176	keystroke_i	i	n/a
512.253	0.1055	1024506	keystroke_m	m	n/a
512.4485	0.09	1024897	keystroke_p	p	n/a
512.6135	0.135	1025227	keystroke_r	r	n/a
512.7185	0.06	1025437	keystroke_e	e	n/a
512.8985	0.105	1025797	keystroke_s	s	n/a
513.093	0.09	1026186	keystroke_s	s	n/a
513.258	0.24	1026516	keystroke_i	i	n/a
513.363	0.12	1026726	keystroke_o	o	n/a
513.408	0.135	1026816	keystroke_n	n	n/a
513.678	0.12	1027356	keystroke_Key.space	Key.space	n/a
514.1135	0.1045	1028227	keystroke_n	n	n/a
514.338	0.105	1028676	keystroke_u	u	n/a
514.698	0.09	1029396	keystroke_t	t	n/a
514.893	0.09	1029786	keystroke_u	u	n/a
515.8525	0.075	1031705	keystroke_Key.backspace	Key.backspace	n/a
516.0335	0.104	1032067	keystroke_r	r	n/a
516.2125	0.0905	1032425	keystroke_i	i	n/a
517.413	0.135	1034826	keystroke_t	t	n/a
517.503	0.2405	1035006	keystroke_u	u	n/a
517.6075	0.105	1035215	keystroke_i	i	n/a
517.6225	0.106	1035245	keystroke_o	o	n/a
517.6375	0.045	1035275	keystroke_n	n	n/a
517.7575	0.03	1035515	keystroke_n	n	n/a
517.8625	0.09	1035725	keystroke_a	a	n/a
518.3875	0.075	1036775	keystroke_Key.backspace	Key.backspace	n/a
518.5525	0.06	1037105	keystroke_Key.backspace	Key.backspace	n/a
518.7025	0.09	1037405	keystroke_Key.backspace	Key.backspace	n/a
518.8525	0.06	1037705	keystroke_Key.backspace	Key.backspace	n/a
520.5635	0.075	1041127	keystroke_o	o	n/a
520.7585	0.075	1041517	keystroke_n	n	n/a
520.9385	0.1045	1041877	keystroke_a	a	n/a
521.058	0.06	1042116	keystroke_l	l	n/a
521.313	0.045	1042626	keystroke_Key.enter	Key.enter	n/a
521.3625	9.627	1042725	prompt	n/a	tokyo showcase metro glucose\n
522.423	0.15	1044846	keystroke_t	t	n/a
522.558	0.105	1045116	keystroke_o	o	n/a
522.8875	0.105	1045775	keystroke_k	k	n/a
523.5485	0.105	1047097	keystroke_y	y	n/a
523.7285	0.09	1047457	keystroke_o	o	n/a
524.1485	0.135	1048297	keystroke_Key.space	Key.space	n/a
524.5385	0.12	1049077	keystroke_c	c	n/a
525.0335	0.075	1050067	keystroke_Key.backspace	Key.backspace	n/a
525.2135	0.0895	1050427	keystroke_s	s	n/a
525.348	0.12	1050696	keystroke_h	h	n/a
525.438	0.135	1050876	keystroke_o	o	n/a
525.633	0.12	1051266	keystroke_w	w	n/a
526.2335	0.1495	1052467	keystroke_c	c	n/a
526.368	0.135	1052736	keystroke_a	a	n/a
526.518	0.195	1053036	keystroke_s	s	n/a
526.668	0.18	1053336	keystroke_e	e	n/a
526.803	0.165	1053606	keystroke_Key.space	Key.space	n/a
527.103	0.045	1054206	keystroke_m	m	n/a
527.178	0.105	1054356	keystroke_e	e	n/a
527.3435	0.12	1054687	keystroke_t	t	n/a
527.5385	0.18	1055077	keystroke_r	r	n/a
527.8835	0.135	1055767	keystroke_o	o	n/a
528.1685	0.135	1056337	keystroke_Key.space	Key.space	n/a
528.7685	0.105	1057537	keystroke_g	g	n/a
528.8735	0.12	1057747	keystroke_l	l	n/a
529.2035	0.0895	1058407	keystroke_u	u	n/a
530.028	0.15	1060056	keystroke_c	c	n/a
530.208	0.15	1060416	keystroke_o	o	n/a
530.418	0.165	1060836	keystroke_s	s	n/a
530.568	0.15	1061136	keystroke_e	e	n/a
530.913	0.075	1061826	keystroke_Key.enter	Key.enter	n/a
530.9925	8.5625	1061985	prompt	n/a	operations speaking antiques right\n
531.7685	0.1195	1063537	keystroke_o	o	n/a
532.008	0.075	1064016	keystroke_p	p	n/a
532.098	0.21	1064196	keystroke_e	e	n/a
532.248	0.18	1064496	keystroke_r	r	n/a
532.548	0.15	1065096	keystroke_a	a	n/a
532.683	0.1355	1065366	keystroke_t	t	n/a
532.8635	0.225	1065727	keystroke_i	i	n/a
532.9235	0.15	1065847	keystroke_o	o	n/a
533.0285	0.12	1066057	keystroke_n	n	n/a
533.1635	0.1495	1066327	keystroke_s	s	n/a
533.328	0.135	1066656	keystroke_Key.space	Key.space	n/a
533.658	0.135	1067316	keystroke_s	s	n/a
534.033	0.12	1068066	keystroke_p	p	n/a
534.2885	0.135	1068577	keystroke_e	e	n/a
534.3935	0.165	1068787	keystroke_a	a	n/a
534.5885	0.105	1069177	keystroke_k	k	n/a
534.8435	0.18	1069687	keystroke_i	i	n/a
534.9335	0.21	1069867	keystroke_n	n	n/a
535.0985	0.15	1070197	keystroke_g	g	n/a
535.1885	0.15	1070377	keystroke_Key.space	Key.space	n/a
535.593	0.06	1071186	keystroke_a	a	n/a
535.983	0.12	1071966	keystroke_n	n	n/a
536.268	0.045	1072536	keystroke_i	i	n/a
536.7185	0.075	1073437	keystroke_Key.backspace	Key.backspace	n/a
536.8385	0.12	1073677	keystroke_t	t	n/a
536.9885	0.12	1073977	keystroke_u	u	n/a
537.3335	0.09	1074667	keystroke_q	q	n/a
537.4385	0.12	1074877	keystroke_u	u	n/a
537.6635	0.12	1075327	keystroke_e	e	n/a
537.9635	0.12	1075927	keystroke_s	s	n/a
538.1885	0.12	1076377	keystroke_Key.space	Key.space	n/a
538.863	0.15	1077726	keystroke_r	r	n/a
538.938	0.105	1077876	keystroke_i	i	n/a
539.073	0.15	1078146	keystroke_g	g	n/a
539.193	0.1055	1078386	keystroke_h	h	n/a
539.3135	0.135	1078627	keystroke_t	t	n/a
539.4935	0.059	1078987	keystroke_Key.enter	Key.enter	n/a
539.558	8.8015	1079116	prompt	n/a	buy metallic untitled knowledge\n
540.453	0.135	1080906	keystroke_b	b	n/a
540.603	0.1205	1081206	keystroke_u	u	n/a
540.9335	0.0745	1081867	keystroke_y	y	n/a
541.218	0.105	1082436	keystroke_Key.space	Key.space	n/a
541.473	0.075	1082946	keystroke_m	m	n/a
541.593	0.12	1083186	keystroke_e	e	n/a
541.848	0.09	1083696	keystroke_t	t	n/a
541.983	0.15	1083966	keystroke_a	a	n/a
542.538	0.03	1085076	keystroke_l	l	n/a
542.643	0.12	1085286	keystroke_l	l	n/a
543.3185	0.09	1086637	keystroke_i	i	n/a
543.4835	0.135	1086967	keystroke_c	c	n/a
543.6485	0.1345	1087297	keystroke_Key.space	Key.space	n/a
544.1885	0.105	1088377	keystroke_u	u	n/a
544.3685	0.105	1088737	keystroke_n	n	n/a
544.6385	0.12	1089277	keystroke_t	t	n/a
544.7735	0.09	1089547	keystroke_i	i	n/a
544.9385	0.12	1089877	keystroke_t	t	n/a
545.1035	0.075	1090207	keystroke_l	l	n/a
545.2235	0.1045	1090447	keystroke_e	e	n/a
545.493	0.165	1090986	keystroke_d	d	n/a
545.673	0.135	1091346	keystroke_Key.space	Key.space	n/a
545.943	0.105	1091886	keystroke_k	k	n/a
546.168	0.12	1092336	keystroke_n	n	n/a
546.423	0.075	1092846	keystroke_o	o	n/a
546.633	0.0905	1093266	keystroke_w	w	n/a
546.8285	0.06	1093657	keystroke_l	l	n/a
546.9935	0.075	1093987	keystroke_e	e	n/a
547.1885	0.1045	1094377	keystroke_d	d	n/a
547.623	0.12	1095246	keystroke_e	e	n/a
548.2985	0.06	1096597	keystroke_Key.enter	Key.enter	n/a
548.363	5.607	1096726	prompt	n/a	mass model mating beans\n
549.093	0.105	1098186	keystroke_m	m	n/a
549.3035	0.12	1098607	keystroke_a	a	n/a
549.5435	0.09	1099087	keystroke_s	s	n/a
549.7535	0.09	1099507	keystroke_s	s	n/a
549.8285	0.105	1099657	keystroke_Key.space	Key.space	n/a
549.9935	0.09	1099987	keystroke_m	m	n/a
550.3235	0.075	1100647	keystroke_o	o	n/a
550.4435	0.0895	1100887	keystroke_d	d	n/a
550.653	0.075	1101306	keystroke_e	e	n/a
551.298	0.105	1102596	keystroke_l	l	n/a
551.793	0.1055	1103586	keystroke_Key.space	Key.space	n/a
552.1085	0.09	1104217	keystroke_m	m	n/a
552.2285	0.105	1104457	keystroke_a	a	n/a
552.4535	0.075	1104907	keystroke_t	t	n/a
552.5885	0.18	1105177	keystroke_i	i	n/a
552.6635	0.165	1105327	keystroke_n	n	n/a
552.7835	0.135	1105567	keystroke_g	g	n/a
552.8885	0.12	1105777	keystroke_Key.space	Key.space	n/a
553.0535	0.09	1106107	keystroke_b	b	n/a
553.2035	0.1345	1106407	keystroke_e	e	n/a
553.368	0.135	1106736	keystroke_a	a	n/a
553.518	0.09	1107036	keystroke_n	n	n/a
553.653	0.12	1107306	keystroke_s	s	n/a
553.893	0.075	1107786	keystroke_Key.enter	Key.enter	n/a
553.9745	11.4405	1107949	prompt	n/a	accept scripts explicitly everyday\n
554.643	0.105	1109286	keystroke_a	a	n/a
554.973	0.105	1109946	keystroke_x	x	n/a
555.123	0.06	1110246	keystroke_x	x	n/a
555.3485	0.0895	1110697	keystroke_x	x	n/a
555.843	0.06	1111686	keystroke_Key.backspace	Key.backspace	n/a
555.993	0.09	1111986	keystroke_Key.backspace	Key.backspace	n/a
556.158	0.06	1112316	keystroke_Key.backspace	Key.backspace	n/a
556.383	0.12	1112766	keystroke_c	c	n/a
556.548	0.105	1113096	keystroke_c	c	n/a
556.803	0.105	1113606	keystroke_e	e	n/a
556.998	0.09	1113996	keystroke_p	p	n/a
557.223	0.105	1114446	keystroke_t	t	n/a
558.138	0.12	1116276	keystroke_Key.space	Key.space	n/a
558.4835	0.105	1116967	keystroke_s	s	n/a
558.7235	0.09	1117447	keystroke_c	c	n/a
558.9485	0.105	1117897	keystroke_r	r	n/a
559.968	0.045	1119936	keystroke_i	i	n/a
560.1485	0.075	1120297	keystroke_p	p	n/a
560.3585	0.12	1120717	keystroke_t	t	n/a
561.1235	0.075	1122247	keystroke_s	s	n/a
561.2285	0.1195	1122457	keystroke_Key.space	Key.space	n/a
561.5135	0.105	1123027	keystroke_e	e	n/a
561.7835	0.165	1123567	keystroke_x	x	n/a
561.9635	0.075	1123927	keystroke_p	p	n/a
562.1735	0.09	1124347	keystroke_l	l	n/a
562.4285	0.09	1124857	keystroke_i	i	n/a
562.6235	0.105	1125247	keystroke_c	c	n/a
562.7585	0.09	1125517	keystroke_i	i	n/a
562.9535	0.105	1125907	keystroke_t	t	n/a
563.2085	0.075	1126417	keystroke_y	y	n/a
563.4935	0.15	1126987	keystroke_Key.space	Key.space	n/a
563.7185	0.105	1127437	keystroke_e	e	n/a
564.0635	0.09	1128127	keystroke_v	v	n/a
564.198	0.195	1128396	keystroke_e	e	n/a
564.348	0.15	1128696	keystroke_r	r	n/a
564.543	0.045	1129086	keystroke_y	y	n/a
564.678	0.15	1129356	keystroke_d	d	n/a
564.783	0.15	1129566	keystroke_a	a	n/a
564.963	0.075	1129926	keystroke_y	y	n/a
565.338	0.075	1130676	keystroke_Key.enter	Key.enter	n/a
565.4185	8.9815	1130837	prompt	n/a	meter staffing satellite closure\n
566.5835	0.09	1133167	keystroke_m	m	n/a
566.868	0.135	1133736	keystroke_e	e	n/a
567.033	0.165	1134066	keystroke_t	t	n/a
567.228	0.1805	1134456	keystroke_e	e	n/a
567.2885	0.195	1134577	keystroke_r	r	n/a
567.4985	0.135	1134997	keystroke_Key.space	Key.space	n/a
567.7385	0.104	1135477	keystroke_s	s	n/a
567.9185	0.165	1135837	keystroke_t	t	n/a
568.0685	0.12	1136137	keystroke_a	a	n/a
568.3825	0.06	1136765	keystroke_f	f	n/a
568.5335	0.089	1137067	keystroke_f	f	n/a
568.6975	0.226	1137395	keystroke_i	i	n/a
568.803	0.1505	1137606	keystroke_n	n	n/a
568.8935	0.164	1137787	keystroke_g	g	n/a
569.0275	0.121	1138055	keystroke_Key.space	Key.space	n/a
569.343	0.12	1138686	keystroke_s	s	n/a
569.719	0.105	1139438	keystroke_a	a	n/a
570.034	0.105	1140068	keystroke_t	t	n/a
570.348	0.09	1140696	keystroke_e	e	n/a
570.573	0.06	1141146	keystroke_l	l	n/a
570.708	0.09	1141416	keystroke_l	l	n/a
570.9935	0.075	1141987	keystroke_i	i	n/a
571.2785	0.0895	1142557	keystroke_t	t	n/a
571.5785	0.105	1143157	keystroke_e	e	n/a
571.8635	0.105	1143727	keystroke_Key.space	Key.space	n/a
572.1485	0.105	1144297	keystroke_c	c	n/a
572.2385	0.0745	1144477	keystroke_l	l	n/a
572.434	0.089	1144868	keystroke_o	o	n/a
572.628	0.09	1145256	keystroke_s	s	n/a
572.883	0.09	1145766	keystroke_u	u	n/a
573.5735	0.075	1147147	keystroke_r	r	n/a
573.5885	0.045	1147177	keystroke_e	e	n/a
574.3385	0.06	1148677	keystroke_Key.enter	Key.enter	n/a
574.4035	7.9165	1148807	prompt	n/a	replaced union discounted singing\n
575.388	0.1355	1150776	keystroke_r	r	n/a
575.4785	0.21	1150957	keystroke_e	e	n/a
576.0335	0.06	1152067	keystroke_p	p	n/a
576.2585	0.09	1152517	keystroke_l	l	n/a
576.723	0.12	1153446	keystroke_a	a	n/a
576.918	0.135	1153836	keystroke_c	c	n/a
577.068	0.0905	1154136	keystroke_e	e	n/a
577.278	0.121	1154556	keystroke_d	d	n/a
577.354	0.134	1154708	keystroke_Key.space	Key.space	n/a
577.609	0.075	1155218	keystroke_u	u	n/a
577.819	0.075	1155638	keystroke_n	n	n/a
577.999	0.075	1155998	keystroke_i	i	n/a
578.193	0.09	1156386	keystroke_o	o	n/a
578.3885	0.09	1156777	keystroke_n	n	n/a
578.7035	0.135	1157407	keystroke_Key.space	Key.space	n/a
579.0035	0.09	1158007	keystroke_d	d	n/a
579.0935	0.09	1158187	keystroke_i	i	n/a
579.2585	0.0895	1158517	keystroke_s	s	n/a
579.588	0.135	1159176	keystroke_c	c	n/a
579.708	0.15	1159416	keystroke_o	o	n/a
579.784	0.104	1159568	keystroke_u	u	n/a
579.873	0.12	1159746	keystroke_n	n	n/a
580.008	0.09	1160016	keystroke_t	t	n/a
580.158	0.105	1160316	keystroke_e	e	n/a
580.3685	0.135	1160737	keystroke_d	d	n/a
580.4885	0.105	1160977	keystroke_Key.space	Key.space	n/a
580.6385	0.135	1161277	keystroke_s	s	n/a
580.8485	0.09	1161697	keystroke_i	i	n/a
581.0285	0.09	1162057	keystroke_n	n	n/a
581.2085	0.075	1162417	keystroke_g	g	n/a
581.6585	0.12	1163317	keystroke_i	i	n/a
581.7485	0.1195	1163497	keystroke_n	n	n/a
581.973	0.075	1163946	keystroke_g	g	n/a
582.243	0.075	1164486	keystroke_Key.enter	Key.enter	n/a
582.323	6.327	1164646	prompt	n/a	rural plastic rack english\n
583.098	0.135	1166196	keystroke_r	r	n/a
583.4735	0.1345	1166947	keystroke_u	u	n/a
583.923	0.135	1167846	keystroke_r	r	n/a
584.073	0.15	1168146	keystroke_a	a	n/a
584.2535	0.09	1168507	keystroke_l	l	n/a
584.4935	0.135	1168987	keystroke_Key.space	Key.space	n/a
584.7485	0.075	1169497	keystroke_p	p	n/a
584.943	0.12	1169886	keystroke_l	l	n/a
585.078	0.12	1170156	keystroke_a	a	n/a
585.408	0.105	1170816	keystroke_s	s	n/a
585.678	0.09	1171356	keystroke_t	t	n/a
585.798	0.105	1171596	keystroke_i	i	n/a
585.993	0.135	1171986	keystroke_c	c	n/a
586.143	0.105	1172286	keystroke_Key.space	Key.space	n/a
586.368	0.12	1172736	keystroke_r	r	n/a
586.548	0.12	1173096	keystroke_a	a	n/a
586.788	0.165	1173576	keystroke_c	c	n/a
586.968	0.09	1173936	keystroke_k	k	n/a
587.178	0.105	1174356	keystroke_Key.space	Key.space	n/a
587.373	0.105	1174746	keystroke_e	e	n/a
587.448	0.105	1174896	keystroke_n	n	n/a
587.688	0.075	1175376	keystroke_g	g	n/a
587.883	0.09	1175766	keystroke_l	l	n/a
588.063	0.09	1176126	keystroke_i	i	n/a
588.183	0.105	1176366	keystroke_s	s	n/a
588.363	0.045	1176726	keystroke_h	h	n/a
588.588	0.06	1177176	keystroke_Key.enter	Key.enter	n/a
588.654	6.206	1177308	prompt	n/a	sail beginning informed sleep\n
589.398	0.105	1178796	keystroke_s	s	n/a
589.638	0.105	1179276	keystroke_a	a	n/a
589.758	0.075	1179516	keystroke_i	i	n/a
589.953	0.075	1179906	keystroke_l	l	n/a
590.118	0.1055	1180236	keystroke_Key.space	Key.space	n/a
590.3585	0.06	1180717	keystroke_b	b	n/a
590.4485	0.105	1180897	keystroke_e	e	n/a
590.7185	0.075	1181437	keystroke_g	g	n/a
590.928	0.09	1181856	keystroke_i	i	n/a
591.1535	0.0745	1182307	keystroke_n	n	n/a
591.318	0.0755	1182636	keystroke_n	n	n/a
591.514	0.15	1183028	keystroke_i	i	n/a
591.619	0.1645	1183238	keystroke_n	n	n/a
591.739	0.1195	1183478	keystroke_g	g	n/a
591.8285	0.12	1183657	keystroke_Key.space	Key.space	n/a
592.0985	0.09	1184197	keystroke_i	i	n/a
592.2185	0.09	1184437	keystroke_n	n	n/a
592.8785	0.105	1185757	keystroke_f	f	n/a
592.9985	0.075	1185997	keystroke_o	o	n/a
593.1185	0.105	1186237	keystroke_r	r	n/a
593.433	0.015	1186866	keystroke_m	m	n/a
593.464	0.014	1186928	keystroke_e	e	n/a
593.583	0.12	1187166	keystroke_d	d	n/a
593.718	0.075	1187436	keystroke_Key.space	Key.space	n/a
593.854	0.134	1187708	keystroke_s	s	n/a
594.003	0.06	1188006	keystroke_l	l	n/a
594.1835	0.0745	1188367	keystroke_e	e	n/a
594.348	0.105	1188696	keystroke_e	e	n/a
594.528	0.075	1189056	keystroke_p	p	n/a
594.798	0.06	1189596	keystroke_Key.enter	Key.enter	n/a
594.863	7.977	1189726	prompt	n/a	admitted asset cord curtis\n
595.5635	0.09	1191127	keystroke_s	s	n/a
595.9235	0.06	1191847	keystroke_Key.backspace	Key.backspace	n/a
596.0585	0.12	1192117	keystroke_a	a	n/a
596.2085	0.12	1192417	keystroke_d	d	n/a
596.4185	0.075	1192837	keystroke_m	m	n/a
596.6135	0.06	1193227	keystroke_i	i	n/a
596.8385	0.045	1193677	keystroke_t	t	n/a
597.0035	0.06	1194007	keystroke_t	t	n/a
597.1685	0.09	1194337	keystroke_e	e	n/a
597.363	0.12	1194726	keystroke_d	d	n/a
597.498	0.135	1194996	keystroke_Key.space	Key.space	n/a
597.828	0.09	1195656	keystroke_a	a	n/a
598.038	0.09	1196076	keystroke_s	s	n/a
598.203	0.105	1196406	keystroke_s	s	n/a
598.413	0.09	1196826	keystroke_e	e	n/a
598.593	0.105	1197186	keystroke_t	t	n/a
598.773	0.105	1197546	keystroke_Key.space	Key.space	n/a
599.028	0.105	1198056	keystroke_c	c	n/a
599.148	0.105	1198296	keystroke_o	o	n/a
599.328	0.091	1198656	keystroke_r	r	n/a
599.553	0.121	1199106	keystroke_d	d	n/a
599.674	0.104	1199348	keystroke_Key.space	Key.space	n/a
600.123	0.075	1200246	keystroke_c	c	n/a
600.513	0.075	1201026	keystroke_r	r	n/a
600.978	0.075	1201956	keystroke_Key.backspace	Key.backspace	n/a
601.713	0.075	1203426	keystroke_u	u	n/a
601.893	0.105	1203786	keystroke_r	r	n/a
602.163	0.105	1204326	keystroke_t	t	n/a
602.3435	0.075	1204687	keystroke_i	i	n/a
602.4635	0.15	1204927	keystroke_s	s	n/a
602.7635	0.075	1205527	keystroke_Key.enter	Key.enter	n/a
602.845	9.0545	1205690	prompt	n/a	response graphical bedford neighbors\n
603.6185	0.135	1207237	keystroke_r	r	n/a
603.7235	0.1345	1207447	keystroke_e	e	n/a
603.948	0.135	1207896	keystroke_s	s	n/a
604.638	0.09	1209276	keystroke_p	p	n/a
604.848	0.09	1209696	keystroke_o	o	n/a
604.999	0.1045	1209998	keystroke_n	n	n/a
605.2085	0.15	1210417	keystroke_s	s	n/a
605.3885	0.15	1210777	keystroke_e	e	n/a
605.4935	0.15	1210987	keystroke_Key.space	Key.space	n/a
605.7935	0.165	1211587	keystroke_g	g	n/a
605.9735	0.105	1211947	keystroke_r	r	n/a
606.0785	0.15	1212157	keystroke_a	a	n/a
606.3035	0.1045	1212607	keystroke_p	p	n/a
606.483	0.105	1212966	keystroke_h	h	n/a
606.693	0.105	1213386	keystroke_i	i	n/a
606.828	0.12	1213656	keystroke_c	c	n/a
606.978	0.135	1213956	keystroke_a	a	n/a
607.143	0.09	1214286	keystroke_l	l	n/a
607.308	0.135	1214616	keystroke_Key.space	Key.space	n/a
607.5935	0.075	1215187	keystroke_b	b	n/a
607.6985	0.12	1215397	keystroke_e	e	n/a
607.9835	0.12	1215967	keystroke_d	d	n/a
608.403	0.105	1216806	keystroke_f	f	n/a
608.509	0.104	1217018	keystroke_o	o	n/a
608.658	0.075	1217316	keystroke_r	r	n/a
608.913	0.18	1217826	keystroke_d	d	n/a
609.168	0.136	1218336	keystroke_Key.space	Key.space	n/a
609.409	0.105	1218818	keystroke_n	n	n/a
609.529	0.12	1219058	keystroke_e	e	n/a
609.664	0.09	1219328	keystroke_i	i	n/a
609.859	0.09	1219718	keystroke_g	g	n/a
609.994	0.075	1219988	keystroke_h	h	n/a
610.3835	0.075	1220767	keystroke_b	b	n/a
610.5935	0.09	1221187	keystroke_o	o	n/a
610.8185	0.105	1221637	keystroke_r	r	n/a
611.6435	0.09	1223287	keystroke_s	s	n/a
611.8235	0.075	1223647	keystroke_Key.enter	Key.enter	n/a
611.9035	10.0165	1223807	prompt	n/a	receives merchant causes salad\n
612.6335	0.1495	1225267	keystroke_r	r	n/a
612.7385	0.1345	1225477	keystroke_e	e	n/a
613.0235	0.105	1226047	keystroke_c	c	n/a
613.2335	0.09	1226467	keystroke_e	e	n/a
613.3985	0.12	1226797	keystroke_i	i	n/a
613.5785	0.1345	1227157	keystroke_v	v	n/a
613.684	0.134	1227368	keystroke_e	e	n/a
613.9535	0.09	1227907	keystroke_d	d	n/a
614.5085	0.075	1229017	keystroke_Key.backspace	Key.backspace	n/a
614.598	0.135	1229196	keystroke_s	s	n/a
614.734	0.149	1229468	keystroke_Key.space	Key.space	n/a
615.153	0.075	1230306	keystroke_m	m	n/a
615.258	0.15	1230516	keystroke_e	e	n/a
615.438	0.12	1230876	keystroke_r	r	n/a
615.753	0.15	1231506	keystroke_c	c	n/a
615.888	0.075	1231776	keystroke_h	h	n/a
616.0085	0.105	1232017	keystroke_a	a	n/a
616.1285	0.105	1232257	keystroke_n	n	n/a
616.3235	0.15	1232647	keystroke_t	t	n/a
616.5185	0.12	1233037	keystroke_Key.space	Key.space	n/a
616.893	0.135	1233786	keystroke_c	c	n/a
617.013	0.1355	1234026	keystroke_a	a	n/a
617.178	0.135	1234356	keystroke_u	u	n/a
617.613	0.12	1235226	keystroke_s	s	n/a
617.748	0.1355	1235496	keystroke_e	e	n/a
618.4535	0.09	1236907	keystroke_s	s	n/a
618.753	0.1205	1237506	keystroke_Key.space	Key.space	n/a
619.2035	0.1055	1238407	keystroke_s	s	n/a
619.459	0.119	1238918	keystroke_a	a	n/a
619.683	0.06	1239366	keystroke_l	l	n/a
619.864	0.045	1239728	keystroke_s	s	n/a
620.568	0.06	1241136	keystroke_Key.backspace	Key.backspace	n/a
620.613	0.105	1241226	keystroke_a	a	n/a
620.794	0.119	1241588	keystroke_s	s	n/a
621.5135	0.0905	1243027	keystroke_Key.backspace	Key.backspace	n/a
621.634	0.105	1243268	keystroke_d	d	n/a
621.873	0.045	1243746	keystroke_Key.enter	Key.enter	n/a
621.9245	7.3905	1243849	prompt	n/a	however faith indices fought\n
622.9685	0.1795	1245937	keystroke_h	h	n/a
623.088	0.1955	1246176	keystroke_o	o	n/a
623.209	0.1795	1246418	keystroke_w	w	n/a
623.4035	0.15	1246807	keystroke_e	e	n/a
623.6585	0.12	1247317	keystroke_v	v	n/a
623.7335	0.15	1247467	keystroke_e	e	n/a
623.8085	0.165	1247617	keystroke_r	r	n/a
624.0785	0.15	1248157	keystroke_Key.space	Key.space	n/a
624.783	0.15	1249566	keystroke_f	f	n/a
624.918	0.135	1249836	keystroke_a	a	n/a
625.098	0.12	1250196	keystroke_i	i	n/a
625.248	0.1505	1250496	keystroke_t	t	n/a
625.4135	0.09	1250827	keystroke_h	h	n/a
625.5485	0.135	1251097	keystroke_Key.space	Key.space	n/a
625.9985	0.105	1251997	keystroke_i	i	n/a
626.1485	0.12	1252297	keystroke_n	n	n/a
627.0335	0.075	1254067	keystroke_d	d	n/a
627.1385	0.09	1254277	keystroke_i	i	n/a
627.273	0.1205	1254546	keystroke_c	c	n/a
627.5435	0.075	1255087	keystroke_e	e	n/a
627.7235	0.15	1255447	keystroke_s	s	n/a
627.9635	0.12	1255927	keystroke_Key.space	Key.space	n/a
628.3685	0.12	1256737	keystroke_f	f	n/a
628.5485	0.21	1257097	keystroke_o	o	n/a
628.6235	0.15	1257247	keystroke_u	u	n/a
628.7435	0.12	1257487	keystroke_g	g	n/a
628.8485	0.135	1257697	keystroke_h	h	n/a
628.9985	0.09	1257997	keystroke_t	t	n/a
629.2235	0.09	1258447	keystroke_Key.enter	Key.enter	n/a
629.318	15.6125	1258636	prompt	n/a	blind recover achievements policy\n
630.033	0.09	1260066	keystroke_b	b	n/a
630.228	0.0905	1260456	keystroke_l	l	n/a
630.4235	0.105	1260847	keystroke_i	i	n/a
630.4385	0.045	1260877	keystroke_u	u	n/a
630.6485	0.15	1261297	keystroke_n	n	n/a
630.8885	0.1355	1261777	keystroke_d	d	n/a
631.759	0.015	1263518	keystroke_Key.backspace	Key.backspace	n/a
631.788	0.061	1263576	keystroke_Key.backspace	Key.backspace	n/a
632.418	0.06	1264836	keystroke_Key.backspace	Key.backspace	n/a
632.688	0.105	1265376	keystroke_n	n	n/a
632.824	0.149	1265648	keystroke_d	d	n/a
632.958	0.12	1265916	keystroke_Key.space	Key.space	n/a
633.618	0.105	1267236	keystroke_e	e	n/a
633.768	0.135	1267536	keystroke_r	r	n/a
634.113	0.03	1268226	keystroke_Key.backspace	Key.backspace	n/a
634.233	0.0905	1268466	keystroke_Key.backspace	Key.backspace	n/a
634.308	0.165	1268616	keystroke_r	r	n/a
634.428	0.12	1268856	keystroke_e	e	n/a
634.8935	0.105	1269787	keystroke_c	c	n/a
635.043	0.105	1270086	keystroke_o	o	n/a
635.223	0.15	1270446	keystroke_v	v	n/a
635.388	0.12	1270776	keystroke_e	e	n/a
635.463	0.165	1270926	keystroke_r	r	n/a
636.4385	0.12	1272877	keystroke_Key.space	Key.space	n/a
636.7385	0.105	1273477	keystroke_a	a	n/a
637.0535	0.12	1274107	keystroke_c	c	n/a
637.1585	0.105	1274317	keystroke_h	h	n/a
637.4285	0.075	1274857	keystroke_i	i	n/a
637.7285	0.075	1275457	keystroke_e	e	n/a
638.463	0.06	1276926	keystroke_Key.backspace	Key.backspace	n/a
640.0085	0.12	1280017	keystroke_e	e	n/a
640.2035	0.1495	1280407	keystroke_v	v	n/a
640.3235	0.1195	1280647	keystroke_e	e	n/a
640.983	0.12	1281966	keystroke_m	m	n/a
641.103	0.12	1282206	keystroke_e	e	n/a
641.238	0.12	1282476	keystroke_n	n	n/a
641.343	0.075	1282686	keystroke_t	t	n/a
641.583	0.135	1283166	keystroke_s	s	n/a
641.733	0.15	1283466	keystroke_Key.space	Key.space	n/a
642.138	0.09	1284276	keystroke_p	p	n/a
642.333	0.09	1284666	keystroke_l	l	n/a
643.4885	0.06	1286977	keystroke_Key.backspace	Key.backspace	n/a
643.7585	0.06	1287517	keystroke_o	o	n/a
643.9235	0.075	1287847	keystroke_l	l	n/a
644.1185	0.075	1288237	keystroke_i	i	n/a
644.2685	0.12	1288537	keystroke_c	c	n/a
644.5385	0.075	1289077	keystroke_y	y	n/a
644.8685	0.06	1289737	keystroke_Key.enter	Key.enter	n/a
644.9355	6.759	1289871	prompt	n/a	hawaii edmonton treat mouse\n
645.7985	0.09	1291597	keystroke_h	h	n/a
645.9485	0.135	1291897	keystroke_a	a	n/a
646.248	0.105	1292496	keystroke_w	w	n/a
646.473	0.135	1292946	keystroke_a	a	n/a
646.893	0.075	1293786	keystroke_i	i	n/a
647.043	0.075	1294086	keystroke_i	i	n/a
647.223	0.1505	1294446	keystroke_Key.space	Key.space	n/a
647.4935	0.075	1294987	keystroke_e	e	n/a
647.7035	0.105	1295407	keystroke_d	d	n/a
648.0935	0.105	1296187	keystroke_m	m	n/a
648.2585	0.105	1296517	keystroke_o	o	n/a
648.5435	0.1045	1297087	keystroke_n	n	n/a
648.828	0.165	1297656	keystroke_t	t	n/a
649.008	0.12	1298016	keystroke_o	o	n/a
649.188	0.12	1298376	keystroke_n	n	n/a
649.578	0.135	1299156	keystroke_Key.space	Key.space	n/a
649.863	0.105	1299726	keystroke_t	t	n/a
650.058	0.15	1300116	keystroke_r	r	n/a
650.223	0.165	1300446	keystroke_e	e	n/a
650.373	0.15	1300746	keystroke_a	a	n/a
650.538	0.15	1301076	keystroke_t	t	n/a
650.643	0.15	1301286	keystroke_Key.space	Key.space	n/a
650.853	0.15	1301706	keystroke_m	m	n/a
651.018	0.2255	1302036	keystroke_o	o	n/a
651.078	0.1505	1302156	keystroke_u	u	n/a
651.2285	0.15	1302457	keystroke_s	s	n/a
651.364	0.1495	1302728	keystroke_e	e	n/a
651.6185	0.075	1303237	keystroke_Key.enter	Key.enter	n/a
651.6985	14.022	1303397	prompt	n/a	adjusted albania semester actively\n
652.4735	0.135	1304947	keystroke_a	a	n/a
652.7435	0.1505	1305487	keystroke_j	j	n/a
653.8085	0.0905	1307617	keystroke_Key.backspace	Key.backspace	n/a
654.049	0.0895	1308098	keystroke_d	d	n/a
654.3035	0.09	1308607	keystroke_j	j	n/a
654.5135	0.09	1309027	keystroke_u	u	n/a
654.6935	0.15	1309387	keystroke_s	s	n/a
654.7835	0.165	1309567	keystroke_t	t	n/a
654.9635	0.105	1309927	keystroke_e	e	n/a
655.1435	0.165	1310287	keystroke_d	d	n/a
655.2935	0.12	1310587	keystroke_Key.space	Key.space	n/a
655.9085	0.195	1311817	keystroke_a	a	n/a
656.0135	0.105	1312027	keystroke_l	l	n/a
