onset	duration	sample	value	key	prompt_text
3.011	13.63	6022	prompt	n/a	the quick brown fox jumps over a lazy dog\n
6.05	0.073	12100	keystroke_t	t	n/a
6.108	0.135	12216	keystroke_h	h	n/a
6.258	0.15	12516	keystroke_e	e	n/a
7.6985	0.12	15397	keystroke_Key.space	Key.space	n/a
8.1485	0.105	16297	keystroke_q	q	n/a
8.3285	0.18	16657	keystroke_u	u	n/a
8.5235	0.09	17047	keystroke_i	i	n/a
8.7785	0.18	17557	keystroke_c	c	n/a
8.9435	0.225	17887	keystroke_k	k	n/a
9.1535	0.105	18307	keystroke_Key.space	Key.space	n/a
9.6185	0.09	19237	keystroke_b	b	n/a
9.8735	0.12	19747	keystroke_r	r	n/a
10.0685	0.15	20137	keystroke_o	o	n/a
10.2635	0.135	20527	keystroke_w	w	n/a
10.4435	0.104	20887	keystroke_n	n	n/a
10.7435	0.105	21487	keystroke_Key.space	Key.space	n/a
11.0585	0.12	22117	keystroke_f	f	n/a
11.3135	0.105	22627	keystroke_o	o	n/a
11.5685	0.134	23137	keystroke_x	x	n/a
11.8225	0.076	23645	keystroke_Key.space	Key.space	n/a
12.0485	0.075	24097	keystroke_j	j	n/a
12.2885	0.09	24577	keystroke_u	u	n/a
12.5725	0.12	25145	keystroke_m	m	n/a
12.783	0.1205	25566	keystroke_p	p	n/a
13.0235	0.134	26047	keystroke_s	s	n/a
13.1875	0.121	26375	keystroke_Key.space	Key.space	n/a
13.3235	0.12	26647	keystroke_o	o	n/a
13.488	0.1055	26976	keystroke_v	v	n/a
13.6385	0.2095	27277	keystroke_e	e	n/a
13.788	0.1205	27576	keystroke_r	r	n/a
13.8785	0.105	27757	keystroke_Key.space	Key.space	n/a
14.0285	0.12	28057	keystroke_a	a	n/a
14.1035	0.09	28207	keystroke_Key.space	Key.space	n/a
14.2235	0.12	28447	keystroke_l	l	n/a
14.3285	0.105	28657	keystroke_a	a	n/a
14.6585	0.06	29317	keystroke_z	z	n/a
14.9735	0.105	29947	keystroke_y	y	n/a
15.2585	0.09	30517	keystroke_Key.space	Key.space	n/a
15.6185	0.135	31237	keystroke_d	d	n/a
15.7385	0.09	31477	keystroke_o	o	n/a
16.4135	0.075	32827	keystroke_g	g	n/a
16.593	0.045	33186	keystroke_Key.enter	Key.enter	n/a
16.645	11.545	33290	prompt	n/a	boys texas crossword pavilion\n
17.373	0.075	34746	keystroke_b	b	n/a
17.493	0.15	34986	keystroke_o	o	n/a
17.733	0.09	35466	keystroke_y	y	n/a
18.078	0.12	36156	keystroke_s	s	n/a
18.273	0.12	36546	keystroke_Key.space	Key.space	n/a
18.5435	0.105	37087	keystroke_t	t	n/a
18.7385	0.105	37477	keystroke_e	e	n/a
19.0085	0.1195	38017	keystroke_x	x	n/a
19.2635	0.135	38527	keystroke_a	a	n/a
19.4585	0.135	38917	keystroke_s	s	n/a
19.6085	0.105	39217	keystroke_Key.space	Key.space	n/a
19.8485	0.075	39697	keystroke_c	c	n/a
20.0885	0.12	40177	keystroke_r	r	n/a
20.3435	0.09	40687	keystroke_o	o	n/a
20.6435	0.09	41287	keystroke_s	s	n/a
20.8535	0.105	41707	keystroke_s	s	n/a
21.1535	0.09	42307	keystroke_w	w	n/a
21.2285	0.105	42457	keystroke_o	o	n/a
21.3935	0.09	42787	keystroke_r	r	n/a
21.7535	0.09	43507	keystroke_d	d	n/a
22.0085	0.105	44017	keystroke_Key.space	Key.space	n/a
22.4725	0.0905	44945	keystroke_a	a	n/a
22.893	0.105	45786	keystroke_Key.backspace	Key.backspace	n/a
23.223	0.105	46446	keystroke_p	p	n/a
23.434	0.119	46868	keystroke_a	a	n/a
23.764	0.09	47528	keystroke_v	v	n/a
23.838	0.105	47676	keystroke_i	i	n/a
24.348	0.09	48696	keystroke_l	l	n/a
25.638	0.12	51276	keystroke_i	i	n/a
25.878	0.15	51756	keystroke_o	o	n/a
26.148	0.1055	52296	keystroke_n	n	n/a
28.0975	0.09	56195	keystroke_Key.enter	Key.enter	n/a
28.1935	8.6375	56387	prompt	n/a	which's investment marked josh\n
29.208	0.1205	58416	keystroke_w	w	n/a
29.3585	0.18	58717	keystroke_h	h	n/a
29.4635	0.105	58927	keystroke_i	i	n/a
29.6585	0.165	59317	keystroke_c	c	n/a
29.7785	0.105	59557	keystroke_h	h	n/a
30.9935	0.045	61987	keystroke_'	'	n/a
31.5025	0.075	63005	keystroke_s	s	n/a
31.953	0.12	63906	keystroke_Key.space	Key.space	n/a
32.343	0.076	64686	keystroke_i	i	n/a
32.493	0.105	64986	keystroke_n	n	n/a
32.673	0.105	65346	keystroke_v	v	n/a
32.838	0.135	65676	keystroke_e	e	n/a
33.063	0.21	66126	keystroke_s	s	n/a
33.198	0.1205	66396	keystroke_t	t	n/a
33.4535	0.105	66907	keystroke_m	m	n/a
33.5435	0.18	67087	keystroke_e	e	n/a
33.6935	0.105	67387	keystroke_n	n	n/a
34.3085	0.105	68617	keystroke_t	t	n/a
34.578	0.105	69156	keystroke_Key.space	Key.space	n/a
34.758	0.12	69516	keystroke_m	m	n/a
34.923	0.195	69846	keystroke_a	a	n/a
35.103	0.105	70206	keystroke_r	r	n/a
35.253	0.09	70506	keystroke_k	k	n/a
35.373	0.105	70746	keystroke_e	e	n/a
35.613	0.135	71226	keystroke_d	d	n/a
35.703	0.135	71406	keystroke_Key.space	Key.space	n/a
35.943	0.09	71886	keystroke_j	j	n/a
36.153	0.105	72306	keystroke_o	o	n/a
36.363	0.165	72726	keystroke_s	s	n/a
36.498	0.075	72996	keystroke_h	h	n/a
36.738	0.09	73476	keystroke_Key.enter	Key.enter	n/a
36.834	8.6175	73668	prompt	n/a	triumph somerset date aging\n
37.5485	0.105	75097	keystroke_t	t	n/a
38.0285	0.105	76057	keystroke_r	r	n/a
38.868	0.105	77736	keystroke_i	i	n/a
39.168	0.075	78336	keystroke_u	u	n/a
39.468	0.12	78936	keystroke_m	m	n/a
39.693	0.165	79386	keystroke_p	p	n/a
39.948	0.12	79896	keystroke_h	h	n/a
40.203	0.1205	80406	keystroke_Key.space	Key.space	n/a
40.503	0.1355	81006	keystroke_s	s	n/a
40.6085	0.075	81217	keystroke_o	o	n/a
40.7885	0.12	81577	keystroke_m	m	n/a
40.9235	0.105	81847	keystroke_e	e	n/a
41.3585	0.105	82717	keystroke_r	r	n/a
41.733	0.165	83466	keystroke_s	s	n/a
41.868	0.21	83736	keystroke_e	e	n/a
42.138	0.03	84276	keystroke_t	t	n/a
42.348	0.09	84696	keystroke_Key.space	Key.space	n/a
42.483	0.1355	84966	keystroke_d	d	n/a
42.6785	0.12	85357	keystroke_a	a	n/a
42.8585	0.18	85717	keystroke_t	t	n/a
42.9785	0.15	85957	keystroke_e	e	n/a
43.8185	0.12	87637	keystroke_Key.space	Key.space	n/a
44.1185	0.1045	88237	keystroke_a	a	n/a
44.2685	0.1795	88537	keystroke_g	g	n/a
44.478	0.1205	88956	keystroke_i	i	n/a
44.8685	0.105	89737	keystroke_n	n	n/a
45.1385	0.15	90277	keystroke_g	g	n/a
45.3335	0.105	90667	keystroke_Key.enter	Key.enter	n/a
45.456	8.024	90912	prompt	n/a	loans computation complicated bullet\n
46.263	0.09	92526	keystroke_l	l	n/a
46.473	0.135	92946	keystroke_o	o	n/a
46.593	0.135	93186	keystroke_a	a	n/a
46.743	0.12	93486	keystroke_n	n	n/a
46.953	0.15	93906	keystroke_s	s	n/a
47.118	0.12	94236	keystroke_Key.space	Key.space	n/a
47.493	0.165	94986	keystroke_c	c	n/a
47.613	0.09	95226	keystroke_o	o	n/a
47.793	0.135	95586	keystroke_m	m	n/a
47.943	0.195	95886	keystroke_p	p	n/a
48.093	0.09	96186	keystroke_u	u	n/a
48.258	0.105	96516	keystroke_t	t	n/a
48.513	0.135	97026	keystroke_a	a	n/a
48.649	0.119	97298	keystroke_t	t	n/a
48.858	0.09	97716	keystroke_i	i	n/a
48.873	0.24	97746	keystroke_o	o	n/a
49.083	0.135	98166	keystroke_n	n	n/a
49.8035	0.045	99607	keystroke_Key.space	Key.space	n/a
50.0135	0.12	100027	keystroke_c	c	n/a
50.1035	0.09	100207	keystroke_o	o	n/a
50.2985	0.12	100597	keystroke_m	m	n/a
50.4035	0.12	100807	keystroke_p	p	n/a
50.643	0.165	101286	keystroke_l	l	n/a
50.823	0.09	101646	keystroke_i	i	n/a
51.048	0.12	102096	keystroke_c	c	n/a
51.228	0.12	102456	keystroke_a	a	n/a
51.408	0.15	102816	keystroke_t	t	n/a
51.588	0.135	103176	keystroke_e	e	n/a
51.8285	0.1645	103657	keystroke_d	d	n/a
51.948	0.105	103896	keystroke_Key.space	Key.space	n/a
52.248	0.09	104496	keystroke_b	b	n/a
52.383	0.0605	104766	keystroke_u	u	n/a
52.5935	0.09	105187	keystroke_l	l	n/a
52.8035	0.09	105607	keystroke_l	l	n/a
52.8485	0.285	105697	keystroke_e	e	n/a
53.0585	0.135	106117	keystroke_t	t	n/a
53.3435	0.135	106687	keystroke_Key.enter	Key.enter	n/a
53.4835	8.99	106967	prompt	n/a	infections hypothesis stadium puppy\n
54.0935	0.09	108187	keystroke_i	i	n/a
54.2585	0.105	108517	keystroke_n	n	n/a
54.468	0.1055	108936	keystroke_f	f	n/a
54.6485	0.09	109297	keystroke_e	e	n/a
54.8885	0.135	109777	keystroke_c	c	n/a
55.128	0.12	110256	keystroke_t	t	n/a
55.278	0.225	110556	keystroke_i	i	n/a
55.353	0.18	110706	keystroke_o	o	n/a
55.518	0.105	111036	keystroke_n	n	n/a
55.683	0.135	111366	keystroke_s	s	n/a
56.118	0.075	112236	keystroke_Key.space	Key.space	n/a
56.568	0.06	113136	keystroke_h	h	n/a
56.778	0.09	113556	keystroke_y	y	n/a
57.003	0.105	114006	keystroke_p	p	n/a
57.228	0.09	114456	keystroke_o	o	n/a
57.483	0.135	114966	keystroke_t	t	n/a
57.619	0.089	115238	keystroke_h	h	n/a
57.768	0.135	115536	keystroke_e	e	n/a
57.993	0.165	115986	keystroke_s	s	n/a
58.188	0.105	116376	keystroke_i	i	n/a
58.353	0.15	116706	keystroke_s	s	n/a
58.488	0.105	116976	keystroke_Key.space	Key.space	n/a
58.758	0.1655	117516	keystroke_s	s	n/a
58.9535	0.18	117907	keystroke_t	t	n/a
59.1185	0.135	118237	keystroke_a	a	n/a
59.4035	0.165	118807	keystroke_d	d	n/a
59.5685	0.06	119137	keystroke_i	i	n/a
60.1235	0.09	120247	keystroke_u	u	n/a
60.4535	0.1645	120907	keystroke_m	m	n/a
60.603	0.135	121206	keystroke_Key.space	Key.space	n/a
60.753	0.165	121506	keystroke_p	p	n/a
60.858	0.105	121716	keystroke_u	u	n/a
61.158	0.09	122316	keystroke_p	p	n/a
61.353	0.135	122706	keystroke_p	p	n/a
61.533	0.12	123066	keystroke_y	y	n/a
62.3735	0.09	124747	keystroke_Key.enter	Key.enter	n/a
62.478	7.997	124956	prompt	n/a	grip separated quarters folk\n
63.2285	0.075	126457	keystroke_g	g	n/a
63.4385	0.12	126877	keystroke_r	r	n/a
63.7385	0.09	127477	keystroke_i	i	n/a
63.9935	0.165	127987	keystroke_p	p	n/a
64.1285	0.105	128257	keystroke_Key.space	Key.space	n/a
64.3685	0.075	128737	keystroke_s	s	n/a
64.863	0.105	129726	keystroke_e	e	n/a
65.178	0.105	130356	keystroke_p	p	n/a
65.673	0.12	131346	keystroke_a	a	n/a
65.838	0.12	131676	keystroke_r	r	n/a
66.078	0.15	132156	keystroke_a	a	n/a
66.273	0.12	132546	keystroke_t	t	n/a
66.438	0.135	132876	keystroke_e	e	n/a
66.723	0.12	133446	keystroke_d	d	n/a
66.888	0.091	133776	keystroke_Key.space	Key.space	n/a
67.2625	0.106	134525	keystroke_q	q	n/a
67.428	0.12	134856	keystroke_u	u	n/a
67.593	0.195	135186	keystroke_a	a	n/a
67.908	0.09	135816	keystroke_r	r	n/a
68.103	0.105	136206	keystroke_t	t	n/a
68.253	0.195	136506	keystroke_e	e	n/a
68.433	0.09	136866	keystroke_r	r	n/a
68.643	0.1055	137286	keystroke_s	s	n/a
68.7785	0.149	137557	keystroke_Key.space	Key.space	n/a
68.9435	0.105	137887	keystroke_f	f	n/a
69.0335	0.09	138067	keystroke_o	o	n/a
69.2575	0.121	138515	keystroke_l	l	n/a
69.3925	0.076	138785	keystroke_d	d	n/a
69.8125	0.09	139625	keystroke_Key.backspace	Key.backspace	n/a
70.0975	0.0755	140195	keystroke_k	k	n/a
70.398	0.075	140796	keystroke_Key.enter	Key.enter	n/a
70.484	7.888	140968	prompt	n/a	carrying affect secrets tongue\n
71.103	0.105	142206	keystroke_c	c	n/a
71.298	0.135	142596	keystroke_a	a	n/a
71.478	0.06	142956	keystroke_r	r	n/a
71.628	0.135	143256	keystroke_r	r	n/a
71.778	0.12	143556	keystroke_y	y	n/a
71.988	0.0895	143976	keystroke_i	i	n/a
72.1825	0.105	144365	keystroke_n	n	n/a
72.3775	0.105	144755	keystroke_g	g	n/a
72.6625	0.105	145325	keystroke_Key.space	Key.space	n/a
72.9775	0.105	145955	keystroke_a	a	n/a
73.1425	0.09	146285	keystroke_f	f	n/a
73.3075	0.18	146615	keystroke_f	f	n/a
73.4275	0.12	146855	keystroke_e	e	n/a
73.6825	0.151	147365	keystroke_c	c	n/a
73.9525	0.105	147905	keystroke_t	t	n/a
74.0725	0.09	148145	keystroke_Key.space	Key.space	n/a
74.223	0.165	148446	keystroke_s	s	n/a
74.328	0.135	148656	keystroke_e	e	n/a
74.6135	0.09	149227	keystroke_c	c	n/a
74.9885	0.18	149977	keystroke_r	r	n/a
75.1385	0.1345	150277	keystroke_e	e	n/a
75.498	0.0905	150996	keystroke_t	t	n/a
75.7385	0.12	151477	keystroke_s	s	n/a
76.0685	0.105	152137	keystroke_Key.space	Key.space	n/a
76.9225	0.12	153845	keystroke_t	t	n/a
77.1175	0.121	154235	keystroke_o	o	n/a
77.3425	0.106	154685	keystroke_n	n	n/a
77.5385	0.12	155077	keystroke_g	g	n/a
77.7175	0.105	155435	keystroke_u	u	n/a
77.9275	0.09	155855	keystroke_e	e	n/a
78.288	0.075	156576	keystroke_Key.enter	Key.enter	n/a
78.3765	10.991	156753	prompt	n/a	columns outreach islamic relations\n
79.023	0.105	158046	keystroke_c	c	n/a
79.113	0.09	158226	keystroke_o	o	n/a
79.398	0.15	158796	keystroke_l	l	n/a
79.608	0.12	159216	keystroke_u	u	n/a
79.908	0.09	159816	keystroke_m	m	n/a
80.268	0.09	160536	keystroke_n	n	n/a
80.553	0.12	161106	keystroke_s	s	n/a
80.808	0.105	161616	keystroke_Key.space	Key.space	n/a
81.168	0.165	162336	keystroke_o	o	n/a
81.288	0.1055	162576	keystroke_u	u	n/a
81.4685	0.12	162937	keystroke_t	t	n/a
81.7235	0.15	163447	keystroke_r	r	n/a
81.8285	0.12	163657	keystroke_e	e	n/a
82.0235	0.135	164047	keystroke_a	a	n/a
82.2935	0.135	164587	keystroke_c	c	n/a
82.638	0.105	165276	keystroke_h	h	n/a
82.908	0.12	165816	keystroke_Key.space	Key.space	n/a
83.133	0.1045	166266	keystroke_i	i	n/a
83.3725	0.12	166745	keystroke_s	s	n/a
83.5825	0.12	167165	keystroke_l	l	n/a
83.7175	0.105	167435	keystroke_a	a	n/a
83.8975	0.1655	167795	keystroke_m	m	n/a
84.033	0.12	168066	keystroke_i	i	n/a
84.303	0.135	168606	keystroke_c	c	n/a
84.543	0.105	169086	keystroke_Key.space	Key.space	n/a
84.783	0.075	169566	keystroke_r	r	n/a
84.843	0.12	169686	keystroke_e	e	n/a
85.068	0.09	170136	keystroke_l	l	n/a
85.308	0.12	170616	keystroke_t	t	n/a
85.458	0.03	170916	keystroke_i	i	n/a
86.688	0.015	173376	keystroke_Key.backspace	Key.backspace	n/a
86.793	0.105	173586	keystroke_Key.backspace	Key.backspace	n/a
87.678	0.12	175356	keystroke_a	a	n/a
87.858	0.15	175716	keystroke_t	t	n/a
87.963	0.315	175926	keystroke_i	i	n/a
88.083	0.18	176166	keystroke_o	o	n/a
88.233	0.105	176466	keystroke_n	n	n/a
88.473	0.12	176946	keystroke_s	s	n/a
89.268	0.09	178536	keystroke_Key.enter	Key.enter	n/a
89.372	10.5405	178744	prompt	n/a	liverpool contribution already monetary\n
90.363	0.21	180726	keystroke_l	l	n/a
90.5285	0.1045	181057	keystroke_i	i	n/a
90.723	0.15	181446	keystroke_v	v	n/a
90.903	0.255	181806	keystroke_e	e	n/a
91.098	0.135	182196	keystroke_r	r	n/a
91.323	0.12	182646	keystroke_p	p	n/a
91.563	0.075	183126	keystroke_o	o	n/a
91.758	0.12	183516	keystroke_o	o	n/a
92.133	0.24	184266	keystroke_l	l	n/a
92.568	0.135	185136	keystroke_Key.space	Key.space	n/a
92.883	0.165	185766	keystroke_c	c	n/a
93.003	0.09	186006	keystroke_o	o	n/a
93.228	0.135	186456	keystroke_n	n	n/a
93.378	0.12	186756	keystroke_t	t	n/a
93.723	0.105	187446	keystroke_r	r	n/a
94.0235	0.105	188047	keystroke_i	i	n/a
94.323	0.0905	188646	keystroke_b	b	n/a
94.5185	0.1045	189037	keystroke_u	u	n/a
94.698	0.12	189396	keystroke_t	t	n/a
94.848	0.3	189696	keystroke_i	i	n/a
94.983	0.255	189966	keystroke_o	o	n/a
95.223	0.06	190446	keystroke_n	n	n/a
95.688	0.105	191376	keystroke_Key.space	Key.space	n/a
96.108	0.12	192216	keystroke_a	a	n/a
96.243	0.135	192486	keystroke_l	l	n/a
96.423	0.165	192846	keystroke_r	r	n/a
96.498	0.165	192996	keystroke_e	e	n/a
96.708	0.15	193416	keystroke_a	a	n/a
96.948	0.1655	193896	keystroke_d	d	n/a
97.1735	0.165	194347	keystroke_y	y	n/a
97.2925	0.1355	194585	keystroke_Key.space	Key.space	n/a
97.578	0.135	195156	keystroke_m	m	n/a
97.743	0.12	195486	keystroke_o	o	n/a
97.938	0.12	195876	keystroke_n	n	n/a
98.073	0.15	196146	keystroke_e	e	n/a
98.403	0.06	196806	keystroke_t	t	n/a
98.9135	0.135	197827	keystroke_a	a	n/a
99.3485	0.15	198697	keystroke_r	r	n/a
99.4835	0.105	198967	keystroke_y	y	n/a
99.7825	0.12	199565	keystroke_Key.enter	Key.enter	n/a
99.917	8.2605	199834	prompt	n/a	diabetes chrysler comes jeffrey\n
100.5175	0.1355	201035	keystroke_d	d	n/a
100.728	0.075	201456	keystroke_i	i	n/a
101.013	0.09	202026	keystroke_a	a	n/a
101.568	0.12	203136	keystroke_b	b	n/a
101.823	0.195	203646	keystroke_e	e	n/a
102.003	0.195	204006	keystroke_t	t	n/a
102.168	0.135	204336	keystroke_e	e	n/a
102.408	0.165	204816	keystroke_s	s	n/a
102.558	0.12	205116	keystroke_Key.space	Key.space	n/a
102.843	0.12	205686	keystroke_c	c	n/a
102.978	0.12	205956	keystroke_h	h	n/a
103.158	0.165	206316	keystroke_r	r	n/a
103.308	0.165	206616	keystroke_e	e	n/a
103.848	0.09	207696	keystroke_Key.backspace	Key.backspace	n/a
104.148	0.0605	208296	keystroke_y	y	n/a
104.2685	0.15	208537	keystroke_s	s	n/a
104.4935	0.134	208987	keystroke_l	l	n/a
104.6585	0.209	209317	keystroke_e	e	n/a
104.7935	0.149	209587	keystroke_r	r	n/a
105.0025	0.12	210005	keystroke_Key.space	Key.space	n/a
105.2875	0.181	210575	keystroke_c	c	n/a
105.3785	0.105	210757	keystroke_o	o	n/a
105.5725	0.105	211145	keystroke_m	m	n/a
105.6635	0.104	211327	keystroke_e	e	n/a
105.8885	0.119	211777	keystroke_s	s	n/a
106.0085	0.119	212017	keystroke_Key.space	Key.space	n/a
106.3825	0.135	212765	keystroke_j	j	n/a
106.5025	0.12	213005	keystroke_e	e	n/a
106.7275	0.09	213455	keystroke_f	f	n/a
106.8935	0.089	213787	keystroke_f	f	n/a
107.1175	0.135	214235	keystroke_r	r	n/a
107.1925	0.15	214385	keystroke_e	e	n/a
107.7925	0.09	215585	keystroke_y	y	n/a
108.0775	0.09	216155	keystroke_Key.enter	Key.enter	n/a
108.182	14.2305	216364	prompt	n/a	who'd've timely faqs boutique\n
108.933	0.09	217866	keystroke_w	w	n/a
109.083	0.18	218166	keystroke_h	h	n/a
109.218	0.135	218436	keystroke_o	o	n/a
109.548	0.09	219096	keystroke_'	'	n/a
109.908	0.105	219816	keystroke_d	d	n/a
110.163	0.075	220326	keystroke_Key.space	Key.space	n/a
110.763	0.09	221526	keystroke_Key.backspace	Key.backspace	n/a
111.423	0.21	222846	keystroke_v	v	n/a
111.648	0.135	223296	keystroke_e	e	n/a
111.993	0.105	223986	keystroke_Key.space	Key.space	n/a
113.868	0.135	227736	keystroke_Key.backspace	Key.backspace	n/a
114.108	0.15	228216	keystroke_Key.backspace	Key.backspace	n/a
114.393	0.09	228786	keystroke_Key.backspace	Key.backspace	n/a
115.128	0.135	230256	keystroke_'	'	n/a
115.548	0.27	231096	keystroke_v	v	n/a
115.713	0.195	231426	keystroke_e	e	n/a
116.343	0.135	232686	keystroke_Key.space	Key.space	n/a
116.763	0.12	233526	keystroke_t	t	n/a
116.883	0.105	233766	keystroke_i	i	n/a
117.243	0.09	234486	keystroke_m	m	n/a
117.393	0.135	234786	keystroke_e	e	n/a
117.558	0.15	235116	keystroke_l	l	n/a
117.8575	0.165	235715	keystroke_y	y	n/a
118.0075	0.12	236015	keystroke_Key.space	Key.space	n/a
118.2775	0.21	236555	keystroke_f	f	n/a
118.4425	0.135	236885	keystroke_a	a	n/a
118.7875	0.105	237575	keystroke_q	q	n/a
119.3725	0.15	238745	keystroke_s	s	n/a
119.5525	0.15	239105	keystroke_Key.space	Key.space	n/a
119.8225	0.09	239645	keystroke_b	b	n/a
119.973	0.164	239946	keystroke_o	o	n/a
120.0925	0.0745	240185	keystroke_u	u	n/a
120.5575	0.105	241115	keystroke_t	t	n/a
120.8725	0.12	241745	keystroke_i	i	n/a
121.3525	0.15	242705	keystroke_q	q	n/a
121.5175	0.18	243035	keystroke_u	u	n/a
121.9975	0.105	243995	keystroke_e	e	n/a
122.2975	0.105	244595	keystroke_Key.enter	Key.enter	n/a
122.417	10.675	244834	prompt	n/a	references scenario operator wednesday\n
123.032	0.195	246064	keystroke_r	r	n/a
123.153	0.1195	246306	keystroke_e	e	n/a
123.437	0.181	246874	keystroke_f	f	n/a
123.587	0.241	247174	keystroke_e	e	n/a
123.798	0.164	247596	keystroke_r	r	n/a
123.932	0.12	247864	keystroke_e	e	n/a
124.082	0.12	248164	keystroke_n	n	n/a
124.472	0.105	248944	keystroke_c	c	n/a
124.7275	0.09	249455	keystroke_e	e	n/a
124.9375	0.135	249875	keystroke_s	s	n/a
125.0575	0.135	250115	keystroke_Key.space	Key.space	n/a
125.2825	0.135	250565	keystroke_s	s	n/a
125.5675	0.09	251135	keystroke_c	c	n/a
125.7775	0.09	251555	keystroke_e	e	n/a
125.9275	0.12	251855	keystroke_n	n	n/a
126.0925	0.135	252185	keystroke_a	a	n/a
126.2725	0.12	252545	keystroke_r	r	n/a
126.4075	0.09	252815	keystroke_i	i	n/a
126.6475	0.105	253295	keystroke_o	o	n/a
126.8575	0.12	253715	keystroke_Key.space	Key.space	n/a
127.0525	0.165	254105	keystroke_o	o	n/a
127.4875	0.03	254975	keystroke_e	e	n/a
127.6825	0.12	255365	keystroke_p	p	n/a
128.0875	0.06	256175	keystroke_Key.backspace	Key.backspace	n/a
128.2525	0.075	256505	keystroke_Key.backspace	Key.backspace	n/a
128.4775	0.135	256955	keystroke_p	p	n/a
128.6575	0.1945	257315	keystroke_e	e	n/a
128.807	0.12	257614	keystroke_r	r	n/a
129.062	0.12	258124	keystroke_a	a	n/a
129.332	0.105	258664	keystroke_t	t	n/a
129.5875	0.0745	259175	keystroke_i	i	n/a
129.962	0.09	259924	keystroke_Key.backspace	Key.backspace	n/a
130.2325	0.135	260465	keystroke_o	o	n/a
130.2925	0.12	260585	keystroke_r	r	n/a
130.593	0.1195	261186	keystroke_Key.space	Key.space	n/a
130.8475	0.15	261695	keystroke_w	w	n/a
130.9675	0.105	261935	keystroke_e	e	n/a
131.2075	0.12	262415	keystroke_d	d	n/a
131.3875	0.12	262775	keystroke_n	n	n/a
131.5225	0.09	263045	keystroke_e	e	n/a
131.7325	0.105	263465	keystroke_s	s	n/a
131.9425	0.12	263885	keystroke_d	d	n/a
132.1375	0.12	264275	keystroke_a	a	n/a
132.2725	0.09	264545	keystroke_y	y	n/a
132.9925	0.09	265985	keystroke_Key.enter	Key.enter	n/a
133.097	7.3745	266194	prompt	n/a	bottom forest amounts book\n
133.7725	0.15	267545	keystroke_b	b	n/a
133.8775	0.105	267755	keystroke_o	o	n/a
134.0575	0.075	268115	keystroke_t	t	n/a
134.222	0.12	268444	keystroke_t	t	n/a
134.327	0.12	268654	keystroke_o	o	n/a
134.568	0.135	269136	keystroke_m	m	n/a
134.928	0.119	269856	keystroke_Key.space	Key.space	n/a
135.258	0.119	270516	keystroke_f	f	n/a
135.378	0.134	270756	keystroke_o	o	n/a
135.528	0.179	271056	keystroke_r	r	n/a
135.737	0.105	271474	keystroke_e	e	n/a
135.992	0.12	271984	keystroke_s	s	n/a
136.217	0.12	272434	keystroke_t	t	n/a
136.352	0.12	272704	keystroke_Key.space	Key.space	n/a
136.547	0.09	273094	keystroke_a	a	n/a
136.862	0.15	273724	keystroke_m	m	n/a
137.087	0.18	274174	keystroke_o	o	n/a
137.252	0.09	274504	keystroke_u	u	n/a
137.507	0.105	275014	keystroke_n	n	n/a
137.972	0.12	275944	keystroke_s	s	n/a
138.6475	0.09	277295	keystroke_Key.backspace	Key.backspace	n/a
138.7975	0.1195	277595	keystroke_t	t	n/a
138.977	0.1655	277954	keystroke_s	s	n/a
139.3675	0.12	278735	keystroke_Key.space	Key.space	n/a
139.5925	0.12	279185	keystroke_b	b	n/a
139.6975	0.09	279395	keystroke_o	o	n/a
139.8775	0.165	279755	keystroke_o	o	n/a
140.0575	0.165	280115	keystroke_k	k	n/a
140.3875	0.075	280775	keystroke_Key.enter	Key.enter	n/a
140.476	6.573	280952	prompt	n/a	pieces times written cassette\n
141.0775	0.0895	282155	keystroke_p	p	n/a
141.242	0.135	282484	keystroke_i	i	n/a
141.557	0.091	283114	keystroke_e	e	n/a
141.827	0.105	283654	keystroke_c	c	n/a
142.052	0.105	284104	keystroke_e	e	n/a
142.277	0.135	284554	keystroke_s	s	n/a
142.382	0.135	284764	keystroke_Key.space	Key.space	n/a
142.547	0.135	285094	keystroke_t	t	n/a
142.667	0.075	285334	keystroke_i	i	n/a
142.847	0.135	285694	keystroke_m	m	n/a
142.952	0.105	285904	keystroke_e	e	n/a
143.162	0.135	286324	keystroke_s	s	n/a
143.312	0.135	286624	keystroke_Key.space	Key.space	n/a
143.552	0.105	287104	keystroke_w	w	n/a
143.702	0.12	287404	keystroke_r	r	n/a
143.927	0.045	287854	keystroke_i	i	n/a
144.017	0.09	288034	keystroke_t	t	n/a
144.527	0.09	289054	keystroke_t	t	n/a
144.767	0.105	289534	keystroke_e	e	n/a
145.022	0.12	290044	keystroke_n	n	n/a
145.232	0.105	290464	keystroke_Key.space	Key.space	n/a
145.442	0.135	290884	keystroke_c	c	n/a
145.622	0.105	291244	keystroke_a	a	n/a
145.832	0.09	291664	keystroke_s	s	n/a
146.012	0.165	292024	keystroke_s	s	n/a
146.162	0.12	292324	keystroke_e	e	n/a
146.372	0.075	292744	keystroke_t	t	n/a
146.552	0.105	293104	keystroke_t	t	n/a
146.702	0.135	293404	keystroke_e	e	n/a
146.927	0.12	293854	keystroke_Key.enter	Key.enter	n/a
147.052	9.095	294104	prompt	n/a	protective kevin makers tanks\n
147.677	0.1205	295354	keystroke_p	p	n/a
147.812	0.135	295624	keystroke_r	r	n/a
147.932	0.12	295864	keystroke_o	o	n/a
148.187	0.09	296374	keystroke_t	t	n/a
148.3975	0.075	296795	keystroke_e	e	n/a
149.0875	0.135	298175	keystroke_c	c	n/a
149.4025	0.09	298805	keystroke_t	t	n/a
149.6125	0.0895	299225	keystroke_i	i	n/a
149.777	0.21	299554	keystroke_v	v	n/a
149.912	0.18	299824	keystroke_e	e	n/a
150.093	0.104	300186	keystroke_Key.space	Key.space	n/a
150.302	0.12	300604	keystroke_k	k	n/a
150.437	0.105	300874	keystroke_e	e	n/a
150.722	0.165	301444	keystroke_v	v	n/a
150.827	0.12	301654	keystroke_i	i	n/a
151.052	0.12	302104	keystroke_n	n	n/a
151.427	0.12	302854	keystroke_Key.space	Key.space	n/a
151.682	0.12	303364	keystroke_m	m	n/a
151.817	0.12	303634	keystroke_a	a	n/a
151.892	0.105	303784	keystroke_k	k	n/a
152.057	0.21	304114	keystroke_e	e	n/a
152.222	0.1205	304444	keystroke_r	r	n/a
152.4625	0.1345	304925	keystroke_s	s	n/a
152.582	0.12	305164	keystroke_Key.space	Key.space	n/a
152.912	0.03	305824	keystroke_g	g	n/a
152.927	0.165	305854	keystroke_t	t	n/a
153.077	0.15	306154	keystroke_a	a	n/a
153.182	0.165	306364	keystroke_n	n	n/a
153.632	0.105	307264	keystroke_Key.backspace	Key.backspace	n/a
153.812	0.12	307624	keystroke_Key.backspace	Key.backspace	n/a
154.0225	0.09	308045	keystroke_Key.backspace	Key.backspace	n/a
154.2175	0.105	308435	keystroke_Key.backspace	Key.backspace	n/a
154.4875	0.18	308975	keystroke_t	t	n/a
154.6375	0.165	309275	keystroke_a	a	n/a
154.7725	0.21	309545	keystroke_n	n	n/a
154.9375	0.12	309875	keystroke_k	k	n/a
155.7475	0.165	311495	keystroke_s	s	n/a
156.0025	0.135	312005	keystroke_Key.enter	Key.enter	n/a
156.1515	8.1255	312303	prompt	n/a	ipod qualified things to've\n
156.7375	0.105	313475	keystroke_i	i	n/a
156.9625	0.105	313925	keystroke_p	p	n/a
157.2025	0.12	314405	keystroke_o	o	n/a
157.7875	0.15	315575	keystroke_d	d	n/a
157.9525	0.12	315905	keystroke_Key.space	Key.space	n/a
158.2825	0.1195	316565	keystroke_q	q	n/a
158.4325	0.1495	316865	keystroke_u	u	n/a
158.642	0.15	317284	keystroke_a	a	n/a
159.122	0.18	318244	keystroke_l	l	n/a
159.317	0.105	318634	keystroke_i	i	n/a
159.542	0.165	319084	keystroke_f	f	n/a
159.632	0.105	319264	keystroke_i	i	n/a
159.782	0.135	319564	keystroke_e	e	n/a
160.052	0.15	320104	keystroke_d	d	n/a
160.337	0.12	320674	keystroke_Key.space	Key.space	n/a
160.607	0.165	321214	keystroke_t	t	n/a
160.682	0.15	321364	keystroke_h	h	n/a
160.802	0.135	321604	keystroke_i	i	n/a
160.982	0.135	321964	keystroke_n	n	n/a
161.132	0.15	322264	keystroke_g	g	n/a
161.312	0.12	322624	keystroke_s	s	n/a
161.8375	0.12	323675	keystroke_Key.space	Key.space	n/a
162.3475	0.165	324695	keystroke_t	t	n/a
162.5275	0.135	325055	keystroke_o	o	n/a
163.0975	0.135	326195	keystroke_'	'	n/a
163.6525	0.24	327305	keystroke_v	v	n/a
163.8025	0.15	327605	keystroke_e	e	n/a
164.1325	0.135	328265	keystroke_Key.enter	Key.enter	n/a
164.2815	6.8125	328563	prompt	n/a	mary thinks eminem latino\n
165.1675	0.15	330335	keystroke_m	m	n/a
165.3025	0.15	330605	keystroke_a	a	n/a
165.572	0.135	331144	keystroke_r	r	n/a
165.722	0.12	331444	keystroke_y	y	n/a
166.037	0.12	332074	keystroke_Key.space	Key.space	n/a
166.397	0.15	332794	keystroke_t	t	n/a
166.487	0.135	332974	keystroke_h	h	n/a
166.592	0.105	333184	keystroke_i	i	n/a
166.787	0.18	333574	keystroke_n	n	n/a
166.952	0.12	333904	keystroke_k	k	n/a
167.312	0.135	334624	keystroke_s	s	n/a
167.432	0.105	334864	keystroke_Key.space	Key.space	n/a
167.642	0.12	335284	keystroke_e	e	n/a
167.852	0.18	335704	keystroke_m	m	n/a
168.047	0.09	336094	keystroke_i	i	n/a
168.272	0.165	336544	keystroke_n	n	n/a
168.438	0.1045	336876	keystroke_i	i	n/a
168.8115	0.106	337623	keystroke_Key.backspace	Key.backspace	n/a
168.9025	0.135	337805	keystroke_e	e	n/a
169.1425	0.12	338285	keystroke_m	m	n/a
169.4125	0.135	338825	keystroke_Key.space	Key.space	n/a
169.6825	0.135	339365	keystroke_l	l	n/a
169.9225	0.119	339845	keystroke_a	a	n/a
170.0875	0.15	340175	keystroke_t	t	n/a
170.1925	0.09	340385	keystroke_i	i	n/a
170.5515	0.18	341103	keystroke_n	n	n/a
170.6875	0.119	341375	keystroke_o	o	n/a
171.017	0.075	342034	keystroke_Key.enter	Key.enter	n/a
171.1045	8.234	342209	prompt	n/a	corruption currency adjustment oman\n
171.797	0.165	343594	keystroke_c	c	n/a
171.977	0.12	343954	keystroke_o	o	n/a
172.187	0.075	344374	keystroke_r	r	n/a
172.352	0.12	344704	keystroke_r	r	n/a
172.502	0.12	345004	keystroke_u	u	n/a
172.697	0.12	345394	keystroke_p	p	n/a
172.967	0.135	345934	keystroke_t	t	n/a
173.117	0.18	346234	keystroke_i	i	n/a
173.282	0.2105	346564	keystroke_o	o	n/a
173.537	0.1945	347074	keystroke_n	n	n/a
173.6865	0.135	347373	keystroke_Key.space	Key.space	n/a
173.9715	0.15	347943	keystroke_c	c	n/a
174.1065	0.045	348213	keystroke_u	u	n/a
174.2865	0.075	348573	keystroke_r	r	n/a
174.4665	0.1505	348933	keystroke_r	r	n/a
174.572	0.15	349144	keystroke_e	e	n/a
174.752	0.105	349504	keystroke_n	n	n/a
175.007	0.105	350014	keystroke_c	c	n/a
175.292	0.105	350584	keystroke_e	e	n/a
175.697	0.09	351394	keystroke_Key.backspace	Key.backspace	n/a
176.042	0.09	352084	keystroke_y	y	n/a
176.207	0.105	352414	keystroke_Key.space	Key.space	n/a
176.432	0.09	352864	keystroke_a	a	n/a
176.597	0.135	353194	keystroke_d	d	n/a
176.762	0.12	353524	keystroke_j	j	n/a
176.957	0.12	353914	keystroke_u	u	n/a
177.257	0.18	354514	keystroke_s	s	n/a
177.452	0.105	354904	keystroke_t	t	n/a
177.662	0.105	355324	keystroke_m	m	n/a
177.752	0.165	355504	keystroke_e	e	n/a
177.872	0.12	355744	keystroke_n	n	n/a
178.037	0.09	356074	keystroke_t	t	n/a
178.397	0.135	356794	keystroke_Key.space	Key.space	n/a
178.562	0.135	357124	keystroke_o	o	n/a
178.757	0.12	357514	keystroke_m	m	n/a
178.877	0.135	357754	keystroke_a	a	n/a
178.997	0.09	357994	keystroke_n	n	n/a
179.207	0.12	358414	keystroke_Key.enter	Key.enter	n/a
179.3445	9.565	358689	prompt	n/a	investigation sense destroy philadelphia\n
179.9265	0.105	359853	keystroke_i	i	n/a
180.0915	0.12	360183	keystroke_n	n	n/a
180.2265	0.195	360453	keystroke_v	v	n/a
180.3765	0.105	360753	keystroke_e	e	n/a
180.5715	0.135	361143	keystroke_s	s	n/a
180.6915	0.12	361383	keystroke_t	t	n/a
180.7965	0.075	361593	keystroke_i	i	n/a
181.3065	0.12	362613	keystroke_g	g	n/a
181.5015	0.135	363003	keystroke_a	a	n/a
181.8165	0.09	363633	keystroke_t	t	n/a
181.9365	0.24	363873	keystroke_i	i	n/a
182.0565	0.225	364113	keystroke_o	o	n/a
182.2665	0.1505	364533	keystroke_n	n	n/a
182.597	0.09	365194	keystroke_Key.space	Key.space	n/a
182.732	0.21	365464	keystroke_s	s	n/a
182.882	0.12	365764	keystroke_e	e	n/a
183.017	0.12	366034	keystroke_n	n	n/a
183.302	0.1945	366604	keystroke_s	s	n/a
183.4815	0.105	366963	keystroke_e	e	n/a
183.8265	0.12	367653	keystroke_Key.space	Key.space	n/a
184.2315	0.1055	368463	keystroke_d	d	n/a
184.412	0.1355	368824	keystroke_e	e	n/a
184.6075	0.2095	369215	keystroke_s	s	n/a
184.7575	0.1045	369515	keystroke_t	t	n/a
184.982	0.12	369964	keystroke_r	r	n/a
185.522	0.135	371044	keystroke_o	o	n/a
185.762	0.12	371524	keystroke_y	y	n/a
185.927	0.135	371854	keystroke_Key.space	Key.space	n/a
186.167	0.135	372334	keystroke_p	p	n/a
186.347	0.15	372694	keystroke_h	h	n/a
186.512	0.105	373024	keystroke_i	i	n/a
186.737	0.12	373474	keystroke_l	l	n/a
186.902	0.105	373804	keystroke_a	a	n/a
187.112	0.105	374224	keystroke_d	d	n/a
187.322	0.135	374644	keystroke_e	e	n/a
187.442	0.1055	374884	keystroke_l	l	n/a
187.697	0.135	375394	keystroke_p	p	n/a
187.847	0.1955	375694	keystroke_h	h	n/a
188.0425	0.12	376085	keystroke_i	i	n/a
188.2365	0.12	376473	keystroke_a	a	n/a
188.792	0.105	377584	keystroke_Key.enter	Key.enter	n/a
188.9145	8.1375	377829	prompt	n/a	warrant horse generating pixel\n
189.647	0.195	379294	keystroke_w	w	n/a
189.767	0.15	379534	keystroke_a	a	n/a
189.932	0.09	379864	keystroke_r	r	n/a
190.112	0.225	380224	keystroke_r	r	n/a
190.292	0.135	380584	keystroke_a	a	n/a
190.442	0.12	380884	keystroke_n	n	n/a
190.622	0.135	381244	keystroke_t	t	n/a
190.922	0.12	381844	keystroke_Key.space	Key.space	n/a
191.342	0.105	382684	keystroke_h	h	n/a
191.402	0.135	382804	keystroke_o	o	n/a
191.597	0.135	383194	keystroke_r	r	n/a
191.912	0.285	383824	keystroke_s	s	n/a
192.212	0.12	384424	keystroke_e	e	n/a
192.542	0.105	385084	keystroke_Key.space	Key.space	n/a
193.352	0.135	386704	keystroke_g	g	n/a
193.532	0.15	387064	keystroke_e	e	n/a
193.742	0.15	387484	keystroke_n	n	n/a
193.862	0.255	387724	keystroke_e	e	n/a
194.027	0.2395	388054	keystroke_r	r	n/a
194.2515	0.165	388503	keystroke_a	a	n/a
194.3715	0.15	388743	keystroke_t	t	n/a
194.5365	0.15	389073	keystroke_i	i	n/a
194.8365	0.135	389673	keystroke_n	n	n/a
194.9865	0.135	389973	keystroke_g	g	n/a
195.4515	0.135	390903	keystroke_Key.space	Key.space	n/a
195.7515	0.105	391503	keystroke_p	p	n/a
195.9315	0.12	391863	keystroke_i	i	n/a
196.2165	0.12	392433	keystroke_x	x	n/a
196.4715	0.135	392943	keystroke_e	e	n/a
196.6515	0.135	393303	keystroke_l	l	n/a
196.9215	0.12	393843	keystroke_Key.enter	Key.enter	n/a
197.0565	9.13	394113	prompt	n/a	karma allow hardwood calcium\n
197.6715	0.12	395343	keystroke_k	k	n/a
197.8515	0.1505	395703	keystroke_a	a	n/a
198.002	0.1205	396004	keystroke_r	r	n/a
198.1515	0.151	396303	keystroke_m	m	n/a
198.2865	0.15	396573	keystroke_a	a	n/a
198.4215	0.1205	396843	keystroke_Key.space	Key.space	n/a
198.6765	0.105	397353	keystroke_a	a	n/a
198.7965	0.075	397593	keystroke_l	l	n/a
198.9915	0.045	397983	keystroke_l	l	n/a
199.1415	0.165	398283	keystroke_o	o	n/a
199.2765	0.105	398553	keystroke_w	w	n/a
199.3965	0.135	398793	keystroke_Key.space	Key.space	n/a
199.6515	0.12	399303	keystroke_h	h	n/a
199.7415	0.12	399483	keystroke_a	a	n/a
199.9665	0.135	399933	keystroke_d	d	n/a
200.5965	0.105	401193	keystroke_w	w	n/a
200.9415	0.06	401883	keystroke_Key.backspace	Key.backspace	n/a
201.0915	0.135	402183	keystroke_Key.backspace	Key.backspace	n/a
201.1965	0.105	402393	keystroke_r	r	n/a
201.452	0.12	402904	keystroke_d	d	n/a
201.812	0.12	403624	keystroke_w	w	n/a
202.037	0.12	404074	keystroke_o	o	n/a
202.232	0.1495	404464	keystroke_o	o	n/a
202.6815	0.06	405363	keystroke_d	d	n/a
202.7565	0.135	405513	keystroke_Key.space	Key.space	n/a
203.0115	0.135	406023	keystroke_c	c	n/a
203.4765	0.12	406953	keystroke_a	a	n/a
203.9565	0.135	407913	keystroke_l	l	n/a
204.3465	0.15	408693	keystroke_c	c	n/a
204.4665	0.06	408933	keystroke_u	u	n/a
204.8415	0.1055	409683	keystroke_Key.backspace	Key.backspace	n/a
205.097	0.1195	410194	keystroke_i	i	n/a
205.5615	0.12	411123	keystroke_u	u	n/a
205.8315	0.135	411663	keystroke_m	m	n/a
206.0415	0.135	412083	keystroke_Key.enter	Key.enter	n/a
206.197	9.5915	412394	prompt	n/a	hundreds surgeon corn juice\n
206.972	0.045	413944	keystroke_h	h	n/a
207.077	0.12	414154	keystroke_u	u	n/a
207.317	0.12	414634	keystroke_n	n	n/a
207.422	0.15	414844	keystroke_d	d	n/a
207.677	0.15	415354	keystroke_r	r	n/a
207.767	0.134	415534	keystroke_e	e	n/a
208.051	0.135	416102	keystroke_d	d	n/a
208.381	0.1655	416762	keystroke_s	s	n/a
208.6665	0.12	417333	keystroke_Key.space	Key.space	n/a
209.1165	0.18	418233	keystroke_s	s	n/a
209.2515	0.135	418503	keystroke_u	u	n/a
209.4165	0.105	418833	keystroke_r	r	n/a
209.657	0.12	419314	keystroke_g	g	n/a
209.807	0.194	419614	keystroke_e	e	n/a
209.986	0.195	419972	keystroke_o	o	n/a
210.901	0.091	421802	keystroke_n	n	n/a
211.156	0.0755	422312	keystroke_Key.space	Key.space	n/a
211.3215	0.15	422643	keystroke_c	c	n/a
211.4415	0.09	422883	keystroke_o	o	n/a
211.696	0.091	423392	keystroke_r	r	n/a
212.0415	0.12	424083	keystroke_n	n	n/a
212.2815	0.075	424563	keystroke_Key.space	Key.space	n/a
212.4165	0.135	424833	keystroke_j	j	n/a
212.9115	0.075	425823	keystroke_u	u	n/a
213.1515	0.09	426303	keystroke_i	i	n/a
213.3765	0.12	426753	keystroke_c	c	n/a
213.8265	0.12	427653	keystroke_e	e	n/a
214.4415	0.1205	428883	keystroke_Key.space	Key.space	n/a
215.222	0.09	430444	keystroke_Key.backspace	Key.backspace	n/a
215.657	0.12	431314	keystroke_Key.enter	Key.enter	n/a
215.795	6.862	431590	prompt	n/a	routine collins girl mats\n
216.5115	0.03	433023	keystroke_r	r	n/a
216.5715	0.15	433143	keystroke_o	o	n/a
216.6615	0.135	433323	keystroke_u	u	n/a
216.9015	0.1355	433803	keystroke_t	t	n/a
217.052	0.09	434104	keystroke_i	i	n/a
217.892	0.09	435784	keystroke_n	n	n/a
218.042	0.135	436084	keystroke_e	e	n/a
218.252	0.12	436504	keystroke_Key.space	Key.space	n/a
218.6115	0.1505	437223	keystroke_c	c	n/a
218.732	0.105	437464	keystroke_o	o	n/a
218.956	0.091	437912	keystroke_l	l	n/a
219.152	0.18	438304	keystroke_l	l	n/a
219.316	0.0905	438632	keystroke_i	i	n/a
219.4665	0.12	438933	keystroke_n	n	n/a
219.6465	0.135	439293	keystroke_s	s	n/a
220.066	0.135	440132	keystroke_Key.space	Key.space	n/a
220.336	0.135	440672	keystroke_g	g	n/a
220.457	0.104	440914	keystroke_i	i	n/a
220.621	0.135	441242	keystroke_r	r	n/a
220.996	0.09	441992	keystroke_l	l	n/a
221.236	0.105	442472	keystroke_Key.space	Key.space	n/a
221.492	0.135	442984	keystroke_m	m	n/a
221.642	0.225	443284	keystroke_a	a	n/a
221.822	0.135	443644	keystroke_t	t	n/a
222.182	0.105	444364	keystroke_s	s	n/a
222.572	0.075	445144	keystroke_Key.enter	Key.enter	n/a
222.661	9.8955	445322	prompt	n/a	moscow interference revision acquisition\n
223.637	0.135	447274	keystroke_m	m	n/a
223.727	0.12	447454	keystroke_o	o	n/a
223.952	0.15	447904	keystroke_s	s	n/a
224.252	0.135	448504	keystroke_c	c	n/a
224.372	0.105	448744	keystroke_o	o	n/a
224.552	0.135	449104	keystroke_w	w	n/a
224.702	0.105	449404	keystroke_Key.space	Key.space	n/a
224.852	0.134	449704	keystroke_i	i	n/a
224.971	0.135	449942	keystroke_n	n	n/a
225.121	0.105	450242	keystroke_t	t	n/a
225.286	0.195	450572	keystroke_e	e	n/a
225.421	0.105	450842	keystroke_r	r	n/a
225.751	0.18	451502	keystroke_f	f	n/a
225.886	0.225	451772	keystroke_e	e	n/a
226.082	0.18	452164	keystroke_r	r	n/a
226.231	0.12	452462	keystroke_e	e	n/a
226.381	0.09	452762	keystroke_n	n	n/a
226.531	0.105	453062	keystroke_c	c	n/a
226.786	0.09	453572	keystroke_e	e	n/a
226.891	0.12	453782	keystroke_Key.space	Key.space	n/a
227.086	0.06	454172	keystroke_t	t	n/a
227.431	0.075	454862	keystroke_Key.backspace	Key.backspace	n/a
227.521	0.195	455042	keystroke_r	r	n/a
227.656	0.12	455312	keystroke_e	e	n/a
227.956	0.105	455912	keystroke_v	v	n/a
228.076	0.105	456152	keystroke_i	i	n/a
228.286	0.135	456572	keystroke_s	s	n/a
228.376	0.3155	456752	keystroke_i	i	n/a
228.511	0.1955	457022	keystroke_o	o	n/a
228.6465	0.18	457293	keystroke_n	n	n/a
228.8415	0.105	457683	keystroke_Key.space	Key.space	n/a
229.0365	0.09	458073	keystroke_a	a	n/a
229.2465	0.135	458493	keystroke_c	c	n/a
229.5465	0.12	459093	keystroke_q	q	n/a
229.7115	0.195	459423	keystroke_u	u	n/a
229.8615	0.1495	459723	keystroke_i	i	n/a
230.101	0.135	460202	keystroke_s	s	n/a
230.221	0.1055	460442	keystroke_i	i	n/a
230.4465	0.09	460893	keystroke_t	t	n/a
230.7915	0.105	461583	keystroke_i	i	n/a
231.2415	0.045	462483	keystroke_i	i	n/a
231.6615	0.045	463323	keystroke_Key.backspace	Key.backspace	n/a
231.9315	0.135	463863	keystroke_o	o	n/a
232.1865	0.12	464373	keystroke_n	n	n/a
232.4415	0.105	464883	keystroke_Key.enter	Key.enter	n/a
232.5605	8.531	465121	prompt	n/a	wagner vessel cricket omega\n
233.2365	0.225	466473	keystroke_w	w	n/a
233.3715	0.165	466743	keystroke_a	a	n/a
233.7315	0.135	467463	keystroke_g	g	n/a
234.0165	0.15	468033	keystroke_n	n	n/a
234.1515	0.21	468303	keystroke_e	e	n/a
234.3015	0.15	468603	keystroke_r	r	n/a
234.4665	0.09	468933	keystroke_Key.space	Key.space	n/a
234.7215	0.15	469443	keystroke_v	v	n/a
234.9465	0.195	469893	keystroke_e	e	n/a
235.1565	0.12	470313	keystroke_r	r	n/a
235.5765	0.075	471153	keystroke_Key.backspace	Key.backspace	n/a
235.6815	0.12	471363	keystroke_s	s	n/a
235.8765	0.165	471753	keystroke_s	s	n/a
235.9815	0.165	471963	keystroke_e	e	n/a
236.1915	0.15	472383	keystroke_l	l	n/a
236.5065	0.09	473013	keystroke_Key.space	Key.space	n/a
236.7165	0.165	473433	keystroke_c	c	n/a
237.2115	0.105	474423	keystroke_r	r	n/a
237.3765	0.105	474753	keystroke_i	i	n/a
237.5865	0.12	475173	keystroke_c	c	n/a
237.7365	0.12	475473	keystroke_k	k	n/a
237.9915	0.105	475983	keystroke_e	e	n/a
239.192	0.105	478384	keystroke_t	t	n/a
239.7465	0.105	479493	keystroke_Key.space	Key.space	n/a
240.0765	0.135	480153	keystroke_o	o	n/a
240.2565	0.15	480513	keystroke_m	m	n/a
240.3765	0.15	480753	keystroke_e	e	n/a
240.6165	0.225	481233	keystroke_g	g	n/a
240.7665	0.15	481533	keystroke_a	a	n/a
240.9465	0.135	481893	keystroke_Key.enter	Key.enter	n/a
241.096	7.645	482192	prompt	n/a	goto forever shortcuts stress\n
241.7415	0.15	483483	keystroke_g	g	n/a
241.8765	0.12	483753	keystroke_o	o	n/a
242.0565	0.15	484113	keystroke_t	t	n/a
242.2215	0.165	484443	keystroke_o	o	n/a
242.926	0.15	485852	keystroke_Key.space	Key.space	n/a
243.391	0.135	486782	keystroke_f	f	n/a
243.511	0.15	487022	keystroke_o	o	n/a
243.706	0.12	487412	keystroke_r	r	n/a
243.991	0.105	487982	keystroke_e	e	n/a
244.246	0.1805	488492	keystroke_v	v	n/a
244.3965	0.285	488793	keystroke_e	e	n/a
244.5915	0.165	489183	keystroke_r	r	n/a
244.7715	0.15	489543	keystroke_Key.space	Key.space	n/a
244.9065	0.165	489813	keystroke_s	s	n/a
245.0565	0.165	490113	keystroke_h	h	n/a
245.1765	0.165	490353	keystroke_o	o	n/a
245.3565	0.105	490713	keystroke_r	r	n/a
245.5815	0.105	491163	keystroke_t	t	n/a
245.8815	0.15	491763	keystroke_c	c	n/a
246.0165	0.09	492033	keystroke_u	u	n/a
246.3615	0.105	492723	keystroke_t	t	n/a
246.6465	0.135	493293	keystroke_s	s	n/a
246.9465	0.09	493893	keystroke_Key.space	Key.space	n/a
247.3665	0.225	494733	keystroke_s	s	n/a
247.5465	0.105	495093	keystroke_t	t	n/a
247.7565	0.15	495513	keystroke_r	r	n/a
247.9065	0.135	495813	keystroke_e	e	n/a
248.1765	0.105	496353	keystroke_s	s	n/a
248.3865	0.1495	496773	keystroke_s	s	n/a
248.5965	0.135	497193	keystroke_Key.enter	Key.enter	n/a
248.746	6.6915	497492	prompt	n/a	arrest lisa domestic smile\n
249.4215	0.105	498843	keystroke_a	a	n/a
249.5415	0.105	499083	keystroke_r	r	n/a
249.7365	0.18	499473	keystroke_r	r	n/a
249.8565	0.135	499713	keystroke_e	e	n/a
250.141	0.18	500282	keystroke_s	s	n/a
250.336	0.15	500672	keystroke_t	t	n/a
250.561	0.151	501122	keystroke_Key.space	Key.space	n/a
250.847	0.194	501694	keystroke_l	l	n/a
250.996	0.121	501992	keystroke_i	i	n/a
251.146	0.15	502292	keystroke_s	s	n/a
251.657	0.119	503314	keystroke_a	a	n/a
251.8655	0.135	503731	keystroke_Key.space	Key.space	n/a
252.0605	0.121	504121	keystroke_d	d	n/a
252.1665	0.12	504333	keystroke_o	o	n/a
252.4205	0.136	504841	keystroke_m	m	n/a
252.5415	0.134	505083	keystroke_e	e	n/a
252.796	0.165	505592	keystroke_s	s	n/a
252.991	0.12	505982	keystroke_t	t	n/a
253.261	0.09	506522	keystroke_i	i	n/a
253.531	0.135	507062	keystroke_c	c	n/a
253.801	0.12	507602	keystroke_Key.space	Key.space	n/a
254.116	0.165	508232	keystroke_s	s	n/a
254.296	0.1505	508592	keystroke_m	m	n/a
254.6715	0.105	509343	keystroke_i	i	n/a
254.8965	0.1645	509793	keystroke_l	l	n/a
255.0015	0.1645	510003	keystroke_e	e	n/a
255.286	0.15	510572	keystroke_Key.enter	Key.enter	n/a
255.442	5.9505	510884	prompt	n/a	mill newbie organizer helmet\n
256.1865	0.165	512373	keystroke_m	m	n/a
256.2915	0.12	512583	keystroke_i	i	n/a
256.5315	0.0895	513063	keystroke_l	l	n/a
256.711	0.165	513422	keystroke_l	l	n/a
256.816	0.15	513632	keystroke_Key.space	Key.space	n/a
256.936	0.15	513872	keystroke_n	n	n/a
257.071	0.195	514142	keystroke_e	e	n/a
257.206	0.15	514412	keystroke_w	w	n/a
257.611	0.135	515222	keystroke_b	b	n/a
257.731	0.105	515462	keystroke_i	i	n/a
257.911	0.12	515822	keystroke_e	e	n/a
258.121	0.09	516242	keystroke_Key.space	Key.space	n/a
258.346	0.12	516692	keystroke_o	o	n/a
258.451	0.105	516902	keystroke_r	r	n/a
258.691	0.195	517382	keystroke_g	g	n/a
258.841	0.135	517682	keystroke_a	a	n/a
258.961	0.12	517922	keystroke_n	n	n/a
259.126	0.105	518252	keystroke_i	i	n/a
259.321	0.135	518642	keystroke_z	z	n/a
259.576	0.2555	519152	keystroke_e	e	n/a
259.7565	0.15	519513	keystroke_r	r	n/a
259.9955	0.135	519991	keystroke_Key.space	Key.space	n/a
260.2515	0.119	520503	keystroke_h	h	n/a
260.3565	0.165	520713	keystroke_e	e	n/a
260.5215	0.0895	521043	keystroke_l	l	n/a
260.746	0.12	521492	keystroke_m	m	n/a
260.881	0.165	521762	keystroke_e	e	n/a
261.076	0.165	522152	keystroke_t	t	n/a
261.271	0.12	522542	keystroke_Key.enter	Key.enter	n/a
261.3955	9.41	522791	prompt	n/a	pregnancy kept therefore hawk\n
262.081	0.105	524162	keystroke_p	p	n/a
262.216	0.195	524432	keystroke_r	r	n/a
262.336	0.135	524672	keystroke_e	e	n/a
262.5765	0.135	525153	keystroke_g	g	n/a
262.921	0.015	525842	keystroke_n	n	n/a
262.937	0.104	525874	keystroke_a	a	n/a
263.071	0.1355	526142	keystroke_n	n	n/a
263.2515	0.12	526503	keystroke_c	c	n/a
263.5065	0.119	527013	keystroke_e	e	n/a
263.6705	0.136	527341	keystroke_y	y	n/a
264.2865	0.09	528573	keystroke_Key.backspace	Key.backspace	n/a
264.4815	0.105	528963	keystroke_Key.backspace	Key.backspace	n/a
264.6765	0.09	529353	keystroke_Key.backspace	Key.backspace	n/a
265.891	0.1505	531782	keystroke_c	c	n/a
266.0565	0.1045	532113	keystroke_y	y	n/a
266.5355	0.0905	533071	keystroke_Key.space	Key.space	n/a
266.761	0.12	533522	keystroke_k	k	n/a
266.851	0.166	533702	keystroke_e	e	n/a
267.031	0.12	534062	keystroke_p	p	n/a
267.256	0.105	534512	keystroke_t	t	n/a
267.451	0.09	534902	keystroke_Key.space	Key.space	n/a
267.811	0.12	535622	keystroke_t	t	n/a
267.916	0.12	535832	keystroke_h	h	n/a
268.021	0.15	536042	keystroke_e	e	n/a
268.156	0.15	536312	keystroke_r	r	n/a
268.261	0.105	536522	keystroke_e	e	n/a
268.501	0.1355	537002	keystroke_f	f	n/a
268.5765	0.105	537153	keystroke_o	o	n/a
268.7715	0.1645	537543	keystroke_r	r	n/a
268.891	0.135	537782	keystroke_e	e	n/a
269.3715	0.12	538743	keystroke_Key.space	Key.space	n/a
269.7015	0.15	539403	keystroke_h	h	n/a
269.8365	0.105	539673	keystroke_a	a	n/a
270.0465	0.1345	540093	keystroke_w	w	n/a
270.421	0.09	540842	keystroke_k	k	n/a
270.706	0.09	541412	keystroke_Key.enter	Key.enter	n/a
270.81	9.1905	541620	prompt	n/a	simply coat blocking aerial\n
271.4265	0.195	542853	keystroke_s	s	n/a
271.5915	0.089	543183	keystroke_u	u	n/a
272.1465	0.075	544293	keystroke_Key.backspace	Key.backspace	n/a
272.3865	0.075	544773	keystroke_i	i	n/a
272.5665	0.135	545133	keystroke_m	m	n/a
272.7465	0.105	545493	keystroke_p	p	n/a
273.0305	0.075	546061	keystroke_l	l	n/a
273.3015	0.0895	546603	keystroke_y	y	n/a
273.6165	0.12	547233	keystroke_Key.space	Key.space	n/a
273.8865	0.18	547773	keystroke_c	c	n/a
274.0215	0.105	548043	keystroke_o	o	n/a
274.1865	0.15	548373	keystroke_a	a	n/a
274.5015	0.1195	549003	keystroke_t	t	n/a
274.711	0.105	549422	keystroke_Key.space	Key.space	n/a
275.266	0.135	550532	keystroke_b	b	n/a
275.431	0.12	550862	keystroke_l	l	n/a
275.716	0.105	551432	keystroke_o	o	n/a
276.361	0.075	552722	keystroke_c	c	n/a
276.526	0.0745	553052	keystroke_k	k	n/a
276.7205	0.12	553441	keystroke_i	i	n/a
276.8565	0.119	553713	keystroke_n	n	n/a
276.9905	0.151	553981	keystroke_g	g	n/a
277.1565	0.074	554313	keystroke_Key.space	Key.space	n/a
277.3505	0.136	554701	keystroke_a	a	n/a
277.8155	0.225	555631	keystroke_e	e	n/a
277.9665	0.134	555933	keystroke_r	r	n/a
278.1905	0.09	556381	keystroke_i	i	n/a
278.5215	0.089	557043	keystroke_l	l	n/a
279.1505	0.075	558301	keystroke_Key.backspace	Key.backspace	n/a
279.4215	0.12	558843	keystroke_a	a	n/a
279.5715	0.09	559143	keystroke_l	l	n/a
279.9015	0.09	559803	keystroke_Key.enter	Key.enter	n/a
280.0045	11.1415	560009	prompt	n/a	paragraphs wake function winning\n
280.7115	0.12	561423	keystroke_p	p	n/a
281.326	0.075	562652	keystroke_a	a	n/a
281.3715	0.1795	562743	keystroke_r	r	n/a
281.566	0.12	563132	keystroke_a	a	n/a
282.121	0.09	564242	keystroke_g	g	n/a
282.346	0.2105	564692	keystroke_r	r	n/a
282.511	0.1055	565022	keystroke_a	a	n/a
283.0655	0.136	566131	keystroke_p	p	n/a
283.2755	0.12	566551	keystroke_h	h	n/a
283.5905	0.166	567181	keystroke_s	s	n/a
283.9805	0.105	567961	keystroke_Key.space	Key.space	n/a
284.2365	0.209	568473	keystroke_w	w	n/a
285.391	0.1345	570782	keystroke_a	a	n/a
285.6305	0.135	571261	keystroke_k	k	n/a
285.7355	0.105	571471	keystroke_e	e	n/a
286.1705	0.09	572341	keystroke_Key.space	Key.space	n/a
286.636	0.165	573272	keystroke_f	f	n/a
286.786	0.105	573572	keystroke_u	u	n/a
287.011	0.12	574022	keystroke_n	n	n/a
287.431	0.135	574862	keystroke_t	t	n/a
287.956	0.105	575912	keystroke_Key.backspace	Key.backspace	n/a
288.046	0.165	576092	keystroke_c	c	n/a
288.3465	0.134	576693	keystroke_t	t	n/a
288.4505	0.3755	576901	keystroke_i	i	n/a
288.586	0.225	577172	keystroke_o	o	n/a
288.751	0.165	577502	keystroke_n	n	n/a
289.5765	0.074	579153	keystroke_Key.space	Key.space	n/a
289.9955	0.135	579991	keystroke_w	w	n/a
290.0855	0.12	580171	keystroke_i	i	n/a
290.3255	0.075	580651	keystroke_n	n	n/a
290.4755	0.15	580951	keystroke_n	n	n/a
290.5805	0.21	581161	keystroke_i	i	n/a
290.7155	0.15	581431	keystroke_n	n	n/a
290.8055	0.15	581611	keystroke_g	g	n/a
291.0155	0.12	582031	keystroke_Key.enter	Key.enter	n/a
291.1525	8.1375	582305	prompt	n/a	folk david knight water\n
291.7205	0.165	583441	keystroke_f	f	n/a
291.8555	0.12	583711	keystroke_o	o	n/a
292.0955	0.15	584191	keystroke_l	l	n/a
292.3655	0.18	584731	keystroke_d	d	n/a
293.026	0.075	586052	keystroke_Key.backspace	Key.backspace	n/a
293.341	0.15	586682	keystroke_l	l	n/a
293.8355	0.075	587671	keystroke_Key.backspace	Key.backspace	n/a
294.1505	0.0755	588301	keystroke_k	k	n/a
294.4205	0.09	588841	keystroke_Key.space	Key.space	n/a
294.6605	0.121	589321	keystroke_d	d	n/a
295.1255	0.1355	590251	keystroke_a	a	n/a
295.321	0.18	590642	keystroke_v	v	n/a
295.456	0.105	590912	keystroke_i	i	n/a
295.636	0.135	591272	keystroke_d	d	n/a
295.741	0.135	591482	keystroke_Key.space	Key.space	n/a
296.176	0.135	592352	keystroke_k	k	n/a
296.296	0.2245	592592	keystroke_n	n	n/a
296.6555	0.135	593311	keystroke_g	g	n/a
297.0605	0.06	594121	keystroke_Key.backspace	Key.backspace	n/a
297.2705	0.12	594541	keystroke_i	i	n/a
297.3755	0.135	594751	keystroke_g	g	n/a
297.4955	0.12	594991	keystroke_h	h	n/a
297.6305	0.12	595261	keystroke_t	t	n/a
298.0505	0.12	596101	keystroke_Key.space	Key.space	n/a
298.2605	0.165	596521	keystroke_w	w	n/a
298.3805	0.135	596761	keystroke_a	a	n/a
298.4855	0.181	596971	keystroke_t	t	n/a
298.651	0.21	597302	keystroke_e	e	n/a
298.8015	0.1345	597603	keystroke_r	r	n/a
299.146	0.135	598292	keystroke_Key.enter	Key.enter	n/a
299.296	9.9095	598592	prompt	n/a	witness colin reed papers\n
299.851	0.15	599702	keystroke_w	w	n/a
300.061	0.15	600122	keystroke_i	i	n/a
300.196	0.135	600392	keystroke_t	t	n/a
300.4955	0.12	600991	keystroke_n	n	n/a
300.6455	0.105	601291	keystroke_e	e	n/a
300.9605	0.12	601921	keystroke_s	s	n/a
301.1555	0.181	602311	keystroke_s	s	n/a
301.3205	0.135	602641	keystroke_Key.space	Key.space	n/a
301.5905	0.15	603181	keystroke_c	c	n/a
301.6965	0.119	603393	keystroke_o	o	n/a
303.0605	0.1955	606121	keystroke_l	l	n/a
303.211	0.1795	606422	keystroke_i	i	n/a
303.4055	0.105	606811	keystroke_n	n	n/a
304.246	0.135	608492	keystroke_Key.space	Key.space	n/a
304.471	0.18	608942	keystroke_r	r	n/a
304.576	0.15	609152	keystroke_e	e	n/a
304.891	0.09	609782	keystroke_d	d	n/a
305.221	0.12	610442	keystroke_Key.backspace	Key.backspace	n/a
305.296	0.105	610592	keystroke_e	e	n/a
305.536	0.12	611072	keystroke_d	d	n/a
306.016	0.105	612032	keystroke_Key.space	Key.space	n/a
306.376	0.1195	612752	keystroke_p	p	n/a
306.5555	0.045	613111	keystroke_f	f	n/a
306.5705	0.12	613141	keystroke_a	a	n/a
306.6305	0.12	613261	keystroke_p	p	n/a
306.9455	0.1355	613891	keystroke_e	e	n/a
307.276	0.09	614552	keystroke_Key.backspace	Key.backspace	n/a
307.471	0.09	614942	keystroke_Key.backspace	Key.backspace	n/a
307.651	0.105	615302	keystroke_Key.backspace	Key.backspace	n/a
307.831	0.105	615662	keystroke_Key.backspace	Key.backspace	n/a
307.951	0.12	615902	keystroke_a	a	n/a
308.086	0.165	616172	keystroke_p	p	n/a
308.206	0.225	616412	keystroke_e	e	n/a
308.356	0.135	616712	keystroke_r	r	n/a
308.866	0.12	617732	keystroke_s	s	n/a
309.076	0.12	618152	keystroke_Key.enter	Key.enter	n/a
309.2095	8.621	618419	prompt	n/a	green whilst rugby suggestions\n
309.826	0.105	619652	keystroke_g	g	n/a
310.0505	0.165	620101	keystroke_r	r	n/a
310.1555	0.135	620311	keystroke_e	e	n/a
310.3955	0.12	620791	keystroke_e	e	n/a
310.576	0.24	621152	keystroke_n	n	n/a
310.756	0.165	621512	keystroke_Key.space	Key.space	n/a
310.996	0.1645	621992	keystroke_w	w	n/a
311.1455	0.21	622291	keystroke_h	h	n/a
311.2505	0.135	622501	keystroke_i	i	n/a
311.5055	0.12	623011	keystroke_l	l	n/a
311.6855	0.105	623371	keystroke_d	d	n/a
312.1055	0.105	624211	keystroke_Key.backspace	Key.backspace	n/a
312.1505	0.315	624301	keystroke_s	s	n/a
312.4055	0.165	624811	keystroke_t	t	n/a
312.7055	0.135	625411	keystroke_Key.space	Key.space	n/a
312.961	0.15	625922	keystroke_r	r	n/a
313.1255	0.09	626251	keystroke_u	u	n/a
313.591	0.075	627182	keystroke_g	g	n/a
314.0855	0.1055	628171	keystroke_b	b	n/a
314.461	0.1795	628922	keystroke_y	y	n/a
314.5955	0.15	629191	keystroke_Key.space	Key.space	n/a
314.9705	0.135	629941	keystroke_s	s	n/a
315.0905	0.075	630181	keystroke_u	u	n/a
315.526	0.075	631052	keystroke_g	g	n/a
315.691	0.135	631382	keystroke_g	g	n/a
315.811	0.135	631622	keystroke_e	e	n/a
316.036	0.09	632072	keystroke_s	s	n/a
316.231	0.074	632462	keystroke_s	s	n/a
316.635	0.06	633270	keystroke_Key.backspace	Key.backspace	n/a
316.74	0.1355	633480	keystroke_t	t	n/a
316.8905	0.3	633781	keystroke_i	i	n/a
317.0255	0.18	634051	keystroke_o	o	n/a
317.1455	0.165	634291	keystroke_n	n	n/a
317.3405	0.135	634681	keystroke_s	s	n/a
317.7005	0.12	635401	keystroke_Key.enter	Key.enter	n/a
317.835	7.2025	635670	prompt	n/a	maine increased bridal disabled\n
318.466	0.1345	636932	keystroke_m	m	n/a
318.5705	0.165	637141	keystroke_a	a	n/a
318.6755	0.15	637351	keystroke_i	i	n/a
318.8105	0.15	637621	keystroke_n	n	n/a
318.9155	0.15	637831	keystroke_e	e	n/a
319.1105	0.12	638221	keystroke_Key.space	Key.space	n/a
319.3055	0.15	638611	keystroke_i	i	n/a
319.4565	0.149	638913	keystroke_n	n	n/a
319.6355	0.09	639271	keystroke_c	c	n/a
319.8905	0.15	639781	keystroke_r	r	n/a
319.9955	0.135	639991	keystroke_e	e	n/a
320.2205	0.1495	640441	keystroke_a	a	n/a
320.385	0.1805	640770	keystroke_s	s	n/a
320.5505	0.135	641101	keystroke_e	e	n/a
320.7605	0.165	641521	keystroke_d	d	n/a
320.9105	0.09	641821	keystroke_Key.space	Key.space	n/a
321.1055	0.09	642211	keystroke_b	b	n/a
321.5705	0.12	643141	keystroke_r	r	n/a
321.8555	0.15	643711	keystroke_i	i	n/a
322.0805	0.105	644161	keystroke_d	d	n/a
322.306	0.12	644612	keystroke_a	a	n/a
322.486	0.1945	644972	keystroke_l	l	n/a
322.6205	0.15	645241	keystroke_Key.space	Key.space	n/a
322.8605	0.12	645721	keystroke_d	d	n/a
322.9655	0.12	645931	keystroke_i	i	n/a
323.2055	0.075	646411	keystroke_a	a	n/a
323.6105	0.1055	647221	keystroke_Key.backspace	Key.backspace	n/a
323.701	0.21	647402	keystroke_s	s	n/a
323.881	0.135	647762	keystroke_a	a	n/a
324.181	0.135	648362	keystroke_b	b	n/a
324.271	0.12	648542	keystroke_l	l	n/a
324.481	0.0745	648962	keystroke_e	e	n/a
324.6905	0.135	649381	keystroke_d	d	n/a
324.8855	0.15	649771	keystroke_Key.enter	Key.enter	n/a
325.042	7.203	650084	prompt	n/a	damages abandoned guess final\n
325.6505	0.135	651301	keystroke_d	d	n/a
325.8305	0.12	651661	keystroke_a	a	n/a
325.9655	0.15	651931	keystroke_m	m	n/a
326.0855	0.105	652171	keystroke_a	a	n/a
326.2655	0.195	652531	keystroke_g	g	n/a
326.4005	0.12	652801	keystroke_e	e	n/a
326.625	0.135	653250	keystroke_s	s	n/a
326.73	0.12	653460	keystroke_Key.space	Key.space	n/a
326.91	0.105	653820	keystroke_a	a	n/a
327.135	0.18	654270	keystroke_b	b	n/a
327.27	0.15	654540	keystroke_a	a	n/a
327.436	0.104	654872	keystroke_n	n	n/a
327.87	0.18	655740	keystroke_d	d	n/a
328.035	0.1955	656070	keystroke_o	o	n/a
328.2155	0.165	656431	keystroke_n	n	n/a
328.6205	0.105	657241	keystroke_e	e	n/a
328.8755	0.15	657751	keystroke_d	d	n/a
329.1305	0.09	658261	keystroke_Key.space	Key.space	n/a
329.3855	0.12	658771	keystroke_g	g	n/a
329.626	0.12	659252	keystroke_u	u	n/a
329.851	0.135	659702	keystroke_e	e	n/a
330.091	0.135	660182	keystroke_s	s	n/a
330.765	0.15	661530	keystroke_s	s	n/a
331.05	0.105	662100	keystroke_Key.space	Key.space	n/a
331.29	0.165	662580	keystroke_f	f	n/a
331.38	0.18	662760	keystroke_i	i	n/a
331.545	0.18	663090	keystroke_n	n	n/a
331.68	0.135	663360	keystroke_a	a	n/a
331.831	0.1345	663662	keystroke_l	l	n/a
332.1005	0.135	664201	keystroke_Key.enter	Key.enter	n/a
332.249	9.011	664498	prompt	n/a	green bigger forwarding fortune\n
332.8955	0.09	665791	keystroke_g	g	n/a
333.1055	0.1795	666211	keystroke_r	r	n/a
333.196	0.15	666392	keystroke_e	e	n/a
333.45	0.151	666900	keystroke_e	e	n/a
333.571	0.255	667142	keystroke_n	n	n/a
333.735	0.18	667470	keystroke_Key.space	Key.space	n/a
334.2	0.1655	668400	keystroke_b	b	n/a
334.321	0.1495	668642	keystroke_i	i	n/a
334.5305	0.0905	669061	keystroke_g	g	n/a
334.711	0.12	669422	keystroke_g	g	n/a
334.846	0.2845	669692	keystroke_e	e	n/a
335.2055	0.0905	670411	keystroke_Key.space	Key.space	n/a
335.6555	0.105	671311	keystroke_Key.backspace	Key.backspace	n/a
335.7455	0.1505	671491	keystroke_r	r	n/a
335.9855	0.135	671971	keystroke_Key.space	Key.space	n/a
336.3905	0.135	672781	keystroke_f	f	n/a
336.5265	0.119	673053	keystroke_o	o	n/a
336.6605	0.12	673321	keystroke_r	r	n/a
336.9455	0.3455	673891	keystroke_w	w	n/a
337.2155	0.1795	674431	keystroke_r	r	n/a
338.0555	0.105	676111	keystroke_Key.backspace	Key.backspace	n/a
338.19	0.165	676380	keystroke_a	a	n/a
338.3255	0.1345	676651	keystroke_r	r	n/a
338.611	0.1195	677222	keystroke_d	d	n/a
338.8355	0.0905	677671	keystroke_i	i	n/a
339.226	0.12	678452	keystroke_n	n	n/a
339.406	0.12	678812	keystroke_g	g	n/a
339.69	0.12	679380	keystroke_Key.space	Key.space	n/a
339.885	0.151	679770	keystroke_f	f	n/a
340.021	0.135	680042	keystroke_o	o	n/a
340.186	0.105	680372	keystroke_r	r	n/a
340.426	0.135	680852	keystroke_t	t	n/a
340.576	0.105	681152	keystroke_u	u	n/a
340.816	0.15	681632	keystroke_n	n	n/a
340.921	0.165	681842	keystroke_e	e	n/a
341.101	0.15	682202	keystroke_Key.enter	Key.enter	n/a
341.2665	12.774	682533	prompt	n/a	paperback powerful wichita covering\n
341.8955	0.12	683791	keystroke_p	p	n/a
342.0605	0.135	684121	keystroke_a	a	n/a
342.1655	0.135	684331	keystroke_p	p	n/a
342.3455	0.225	684691	keystroke_e	e	n/a
342.4955	0.135	684991	keystroke_r	r	n/a
342.856	0.149	685712	keystroke_b	b	n/a
343.021	0.149	686042	keystroke_a	a	n/a
343.26	0.195	686520	keystroke_c	c	n/a
343.44	0.1955	686880	keystroke_k	k	n/a
343.5755	0.18	687151	keystroke_Key.space	Key.space	n/a
343.7855	0.27	687571	keystroke_p	p	n/a
344.7455	0.135	689491	keystroke_o	o	n/a
344.9105	0.27	689821	keystroke_w	w	n/a
345.1655	0.21	690331	keystroke_e	e	n/a
345.3455	0.165	690691	keystroke_r	r	n/a
345.6455	0.165	691291	keystroke_f	f	n/a
345.7805	0.0895	691561	keystroke_u	u	n/a
346.3655	0.135	692731	keystroke_l	l	n/a
346.7105	0.1355	693421	keystroke_Key.space	Key.space	n/a
347.206	0.135	694412	keystroke_w	w	n/a
347.686	0.09	695372	keystroke_i	i	n/a
347.971	0.165	695942	keystroke_c	c	n/a
348.091	0.18	696182	keystroke_h	h	n/a
348.211	0.135	696422	keystroke_i	i	n/a
348.451	0.1345	696902	keystroke_t	t	n/a
348.7505	0.135	697501	keystroke_a	a	n/a
349.0955	0.135	698191	keystroke_Key.space	Key.space	n/a
349.5305	0.12	699061	keystroke_c	c	n/a
349.6205	0.135	699241	keystroke_o	o	n/a
349.8605	0.15	699721	keystroke_v	v	n/a
349.9955	0.24	699991	keystroke_e	e	n/a
350.3105	0.105	700621	keystroke_i	i	n/a
350.5055	0.12	701011	keystroke_n	n	n/a
350.6555	0.135	701311	keystroke_g	g	n/a
351.03	0.075	702060	keystroke_Key.backspace	Key.backspace	n/a
351.21	0.09	702420	keystroke_Key.backspace	Key.backspace	n/a
351.39	0.12	702780	keystroke_Key.backspace	Key.backspace	n/a
351.69	0.105	703380	keystroke_r	r	n/a
351.81	0.105	703620	keystroke_i	i	n/a
351.96	0.12	703920	keystroke_g	g	n/a
352.095	0.03	704190	keystroke_h	h	n/a
352.515	0.06	705030	keystroke_Key.backspace	Key.backspace	n/a
352.68	0.09	705360	keystroke_Key.backspace	Key.backspace	n/a
352.935	0.09	705870	keystroke_n	n	n/a
353.04	0.135	706080	keystroke_g	g	n/a
353.91	0.12	707820	keystroke_Key.enter	Key.enter	n/a
354.045	10.96	708090	prompt	n/a	transcript sailing contracting organize\n
354.93	0.105	709860	keystroke_t	t	n/a
355.14	0.18	710280	keystroke_r	r	n/a
355.275	0.165	710550	keystroke_a	a	n/a
355.425	0.15	710850	keystroke_n	n	n/a
355.83	0.1355	711660	keystroke_s	s	n/a
356.1005	0.15	712201	keystroke_c	c	n/a
356.43	0.136	712860	keystroke_r	r	n/a
356.611	0.1345	713222	keystroke_i	i	n/a
356.8655	0.15	713731	keystroke_p	p	n/a
357.031	0.105	714062	keystroke_t	t	n/a
357.361	0.1045	714722	keystroke_Key.space	Key.space	n/a
357.5255	0.27	715051	keystroke_s	s	n/a
357.7055	0.15	715411	keystroke_a	a	n/a
357.9155	0.12	715831	keystroke_i	i	n/a
358.215	0.2255	716430	keystroke_l	l	n/a
358.365	0.195	716730	keystroke_i	i	n/a
358.545	0.1355	717090	keystroke_n	n	n/a
358.7105	0.1495	717421	keystroke_g	g	n/a
358.8905	0.105	717781	keystroke_Key.space	Key.space	n/a
359.206	0.15	718412	keystroke_c	c	n/a
359.296	0.105	718592	keystroke_o	o	n/a
359.446	0.1345	718892	keystroke_n	n	n/a
359.5655	0.03	719131	keystroke_g	g	n/a
359.6105	0.03	719221	keystroke_t	t	n/a
359.7755	0.105	719551	keystroke_r	r	n/a
360.3305	0.105	720661	keystroke_a	a	n/a
360.6005	0.09	721201	keystroke_Key.backspace	Key.backspace	n/a
360.7805	0.105	721561	keystroke_Key.backspace	Key.backspace	n/a
361.0205	0.06	722041	keystroke_Key.backspace	Key.backspace	n/a
361.1855	0.12	722371	keystroke_Key.backspace	Key.backspace	n/a
361.3355	0.09	722671	keystroke_t	t	n/a
361.5455	0.165	723091	keystroke_r	r	n/a
361.6805	0.135	723361	keystroke_a	a	n/a
362.0705	0.15	724141	keystroke_c	c	n/a
362.3405	0.135	724681	keystroke_t	t	n/a
362.4605	0.09	724921	keystroke_i	i	n/a
362.6855	0.135	725371	keystroke_n	n	n/a
362.8355	0.135	725671	keystroke_g	g	n/a
363.0905	0.075	726181	keystroke_Key.space	Key.space	n/a
363.255	0.151	726510	keystroke_o	o	n/a
363.39	0.09	726780	keystroke_r	r	n/a
363.615	0.196	727230	keystroke_g	g	n/a
363.781	0.1645	727562	keystroke_a	a	n/a
363.9605	0.195	727921	keystroke_n	n	n/a
364.1095	0.136	728219	keystroke_i	i	n/a
364.365	0.121	728730	keystroke_z	z	n/a
364.621	0.119	729242	keystroke_e	e	n/a
364.875	0.12	729750	keystroke_Key.enter	Key.enter	n/a
365.01	7.6745	730020	prompt	n/a	influenced foster issue tracked\n
365.611	0.135	731222	keystroke_i	i	n/a
365.746	0.134	731492	keystroke_n	n	n/a
365.9705	0.12	731941	keystroke_f	f	n/a
366.1055	0.12	732211	keystroke_l	l	n/a
366.3455	0.075	732691	keystroke_u	u	n/a
366.5255	0.075	733051	keystroke_e	e	n/a
366.6605	0.105	733321	keystroke_n	n	n/a
367.2905	0.135	734581	keystroke_c	c	n/a
367.5755	0.09	735151	keystroke_e	e	n/a
367.7855	0.165	735571	keystroke_d	d	n/a
367.9655	0.12	735931	keystroke_Key.space	Key.space	n/a
368.2355	0.15	736471	keystroke_f	f	n/a
368.3405	0.135	736681	keystroke_o	o	n/a
368.625	0.135	737250	keystroke_s	s	n/a
368.835	0.135	737670	keystroke_t	t	n/a
368.985	0.2395	737970	keystroke_e	e	n/a
369.165	0.1645	738330	keystroke_r	r	n/a
369.36	0.1505	738720	keystroke_Key.space	Key.space	n/a
369.465	0.1205	738930	keystroke_i	i	n/a
369.5855	0.104	739171	keystroke_s	s	n/a
369.795	0.135	739590	keystroke_s	s	n/a
369.9605	0.09	739921	keystroke_u	u	n/a
370.1855	0.105	740371	keystroke_e	e	n/a
370.7405	0.105	741481	keystroke_Key.space	Key.space	n/a
370.9955	0.1195	741991	keystroke_t	t	n/a
371.205	0.195	742410	keystroke_r	r	n/a
371.355	0.135	742710	keystroke_a	a	n/a
371.76	0.135	743520	keystroke_c	c	n/a
371.925	0.105	743850	keystroke_k	k	n/a
372.075	0.12	744150	keystroke_e	e	n/a
372.33	0.135	744660	keystroke_d	d	n/a
372.57	0.105	745140	keystroke_Key.enter	Key.enter	n/a
372.6915	7.538	745383	prompt	n/a	length maintenance allowed even\n
373.365	0.165	746730	keystroke_l	l	n/a
373.545	0.12	747090	keystroke_e	e	n/a
373.68	0.135	747360	keystroke_n	n	n/a
373.89	0.12	747780	keystroke_g	g	n/a
374.16	0.165	748320	keystroke_t	t	n/a
374.265	0.12	748530	keystroke_h	h	n/a
374.61	0.105	749220	keystroke_Key.space	Key.space	n/a
374.925	0.135	749850	keystroke_m	m	n/a
375.075	0.12	750150	keystroke_a	a	n/a
375.165	0.105	750330	keystroke_i	i	n/a
375.315	0.12	750630	keystroke_n	n	n/a
375.51	0.09	751020	keystroke_t	t	n/a
375.735	0.135	751470	keystroke_e	e	n/a
376.05	0.105	752100	keystroke_n	n	n/a
376.35	0.105	752700	keystroke_a	a	n/a
376.4855	0.12	752971	keystroke_n	n	n/a
376.7555	0.074	753511	keystroke_c	c	n/a
377.0255	0.105	754051	keystroke_e	e	n/a
377.4445	0.136	754889	keystroke_Key.space	Key.space	n/a
377.8055	0.12	755611	keystroke_a	a	n/a
377.9405	0.06	755881	keystroke_l	l	n/a
378.1055	0.075	756211	keystroke_l	l	n/a
378.2995	0.12	756599	keystroke_o	o	n/a
378.3755	0.135	756751	keystroke_w	w	n/a
378.5995	0.105	757199	keystroke_e	e	n/a
378.8545	0.12	757709	keystroke_d	d	n/a
379.1245	0.105	758249	keystroke_Key.space	Key.space	n/a
379.3795	0.121	758759	keystroke_e	e	n/a
379.5895	0.18	759179	keystroke_v	v	n/a
379.7095	0.166	759419	keystroke_e	e	n/a
379.8305	0.149	759661	keystroke_n	n	n/a
380.0995	0.12	760199	keystroke_Key.enter	Key.enter	n/a
380.234	9.386	760468	prompt	n/a	buy planner characterization oxide\n
381.0605	0.104	762121	keystroke_b	b	n/a
381.3445	0.06	762689	keystroke_u	u	n/a
381.7195	0.09	763439	keystroke_y	y	n/a
382.0195	0.105	764039	keystroke_Key.space	Key.space	n/a
382.2595	0.0905	764519	keystroke_p	p	n/a
382.485	0.15	764970	keystroke_l	l	n/a
382.62	0.105	765240	keystroke_a	a	n/a
382.755	0.09	765510	keystroke_n	n	n/a
382.965	0.09	765930	keystroke_n	n	n/a
383.025	0.255	766050	keystroke_e	e	n/a
383.175	0.165	766350	keystroke_r	r	n/a
383.325	0.075	766650	keystroke_Key.space	Key.space	n/a
383.52	0.18	767040	keystroke_c	c	n/a
383.64	0.15	767280	keystroke_h	h	n/a
383.805	0.165	767610	keystroke_a	a	n/a
383.971	0.164	767942	keystroke_r	r	n/a
384.15	0.135	768300	keystroke_a	a	n/a
384.39	0.165	768780	keystroke_c	c	n/a
384.675	0.12	769350	keystroke_t	t	n/a
384.93	0.195	769860	keystroke_e	e	n/a
385.095	0.15	770190	keystroke_r	r	n/a
385.365	0.09	770730	keystroke_i	i	n/a
385.53	0.12	771060	keystroke_a	a	n/a
385.8745	0.135	771749	keystroke_z	z	n/a
386.43	0.12	772860	keystroke_Key.backspace	Key.backspace	n/a
386.64	0.12	773280	keystroke_Key.backspace	Key.backspace	n/a
386.82	0.15	773640	keystroke_z	z	n/a
387.45	0.15	774900	keystroke_a	a	n/a
387.615	0.165	775230	keystroke_t	t	n/a
387.705	0.345	775410	keystroke_i	i	n/a
387.825	0.195	775650	keystroke_o	o	n/a
387.975	0.165	775950	keystroke_n	n	n/a
388.2	0.1345	776400	keystroke_Key.space	Key.space	n/a
388.3645	0.166	776729	keystroke_o	o	n/a
388.6205	0.135	777241	keystroke_x	x	n/a
388.8155	0.12	777631	keystroke_i	i	n/a
388.9955	0.12	777991	keystroke_d	d	n/a
389.2205	0.135	778441	keystroke_e	e	n/a
389.4905	0.119	778981	keystroke_Key.enter	Key.enter	n/a
389.624	9.536	779248	prompt	n/a	scientist much knows resistant\n
390.2695	0.12	780539	keystroke_s	s	n/a
390.5095	0.165	781019	keystroke_c	c	n/a
390.6895	0.12	781379	keystroke_i	i	n/a
390.8845	0.12	781769	keystroke_e	e	n/a
391.0495	0.1355	782099	keystroke_n	n	n/a
391.2	0.12	782400	keystroke_t	t	n/a
391.47	0.09	782940	keystroke_i	i	n/a
391.62	0.12	783240	keystroke_s	s	n/a
391.95	0.0755	783900	keystroke_t	t	n/a
392.2205	0.105	784441	keystroke_Key.space	Key.space	n/a
392.4605	0.15	784921	keystroke_m	m	n/a
392.7295	0.136	785459	keystroke_u	u	n/a
392.9555	0.15	785911	keystroke_c	c	n/a
393.0605	0.195	786121	keystroke_h	h	n/a
393.2095	0.135	786419	keystroke_Key.space	Key.space	n/a
393.5855	0.314	787171	keystroke_k	k	n/a
393.7355	0.149	787471	keystroke_n	n	n/a
393.8095	0.18	787619	keystroke_o	o	n/a
393.9605	0.104	787921	keystroke_w	w	n/a
394.2445	0.135	788489	keystroke_s	s	n/a
394.545	0.105	789090	keystroke_Key.space	Key.space	n/a
394.815	0.135	789630	keystroke_r	r	n/a
394.89	0.1195	789780	keystroke_e	e	n/a
395.13	0.1495	790260	keystroke_s	s	n/a
395.3095	0.075	790619	keystroke_u	u	n/a
395.3995	0.12	790799	keystroke_s	s	n/a
395.8495	0.06	791699	keystroke_Key.backspace	Key.backspace	n/a
396.015	0.1055	792030	keystroke_Key.backspace	Key.backspace	n/a
396.2855	0.105	792571	keystroke_i	i	n/a
396.4055	0.2545	792811	keystroke_s	s	n/a
396.6	0.165	793200	keystroke_t	t	n/a
396.87	0.135	793740	keystroke_e	e	n/a
397.68	0.135	795360	keystroke_Key.backspace	Key.backspace	n/a
397.83	0.15	795660	keystroke_a	a	n/a
398.01	0.12	796020	keystroke_n	n	n/a
398.715	0.135	797430	keystroke_t	t	n/a
399.015	0.135	798030	keystroke_Key.enter	Key.enter	n/a
399.165	6.8715	798330	prompt	n/a	changed make bureau raid\n
399.945	0.195	799890	keystroke_c	c	n/a
400.095	0.105	800190	keystroke_h	h	n/a
400.201	0.149	800402	keystroke_a	a	n/a
400.335	0.135	800670	keystroke_n	n	n/a
400.8	0.135	801600	keystroke_g	g	n/a
401.025	0.135	802050	keystroke_e	e	n/a
401.28	0.165	802560	keystroke_d	d	n/a
401.49	0.135	802980	keystroke_Key.space	Key.space	n/a
401.73	0.15	803460	keystroke_m	m	n/a
401.835	0.15	803670	keystroke_a	a	n/a
401.955	0.135	803910	keystroke_k	k	n/a
402.105	0.18	804210	keystroke_e	e	n/a
402.24	0.105	804480	keystroke_Key.space	Key.space	n/a
403.035	0.135	806070	keystroke_b	b	n/a
403.23	0.105	806460	keystroke_u	u	n/a
403.545	0.15	807090	keystroke_r	r	n/a
403.635	0.18	807270	keystroke_e	e	n/a
403.965	0.1495	807930	keystroke_a	a	n/a
404.3395	0.105	808679	keystroke_u	u	n/a
404.7595	0.135	809519	keystroke_Key.space	Key.space	n/a
405.1345	0.24	810269	keystroke_r	r	n/a
405.3145	0.15	810629	keystroke_a	a	n/a
405.4495	0.166	810899	keystroke_i	i	n/a
405.6595	0.165	811319	keystroke_d	d	n/a
405.8995	0.135	811799	keystroke_Key.enter	Key.enter	n/a
406.039	10.1305	812078	prompt	n/a	duration productive packed reflects\n
406.7095	0.12	813419	keystroke_d	d	n/a
406.8595	0.165	813719	keystroke_u	u	n/a
407.0545	0.21	814109	keystroke_r	r	n/a
407.2495	0.18	814499	keystroke_a	a	n/a
407.3695	0.21	814739	keystroke_t	t	n/a
407.4895	0.36	814979	keystroke_i	i	n/a
407.6095	0.225	815219	keystroke_o	o	n/a
407.7745	0.24	815549	keystroke_n	n	n/a
407.9695	0.195	815939	keystroke_Key.space	Key.space	n/a
408.2395	0.15	816479	keystroke_p	p	n/a
408.5245	0.105	817049	keystroke_r	r	n/a
409.0495	0.121	818099	keystroke_o	o	n/a
409.3945	0.1355	818789	keystroke_d	d	n/a
409.5895	0.105	819179	keystroke_u	u	n/a
409.7845	0.12	819569	keystroke_c	c	n/a
410.0395	0.09	820079	keystroke_t	t	n/a
410.1145	0.105	820229	keystroke_i	i	n/a
410.3695	0.24	820739	keystroke_v	v	n/a
410.5645	0.18	821129	keystroke_e	e	n/a
410.7295	0.12	821459	keystroke_Key.space	Key.space	n/a
410.9845	0.135	821969	keystroke_p	p	n/a
411.105	0.1045	822210	keystroke_a	a	n/a
411.4795	0.15	822959	keystroke_k	k	n/a
411.6595	0.105	823319	keystroke_e	e	n/a
412.1545	0.1055	824309	keystroke_Key.backspace	Key.backspace	n/a
412.365	0.105	824730	keystroke_Key.backspace	Key.backspace	n/a
412.485	0.1495	824970	keystroke_c	c	n/a
412.6645	0.09	825329	keystroke_k	k	n/a
412.8145	0.12	825629	keystroke_e	e	n/a
413.0545	0.165	826109	keystroke_d	d	n/a
413.25	0.15	826500	keystroke_Key.space	Key.space	n/a
413.625	0.135	827250	keystroke_r	r	n/a
413.715	0.12	827430	keystroke_e	e	n/a
414.045	0.165	828090	keystroke_f	f	n/a
414.195	0.15	828390	keystroke_l	l	n/a
414.33	0.135	828660	keystroke_e	e	n/a
414.69	0.015	829380	keystroke_c	c	n/a
415.11	0.12	830220	keystroke_t	t	n/a
415.395	0.15	830790	keystroke_s	s	n/a
416.025	0.135	832050	keystroke_Key.enter	Key.enter	n/a
416.174	5.462	832348	prompt	n/a	racial pull print deemed\n
416.88	0.239	833760	keystroke_r	r	n/a
417.104	0.1055	834208	keystroke_a	a	n/a
417.4205	0.15	834841	keystroke_c	c	n/a
417.5405	0.134	835081	keystroke_i	i	n/a
417.7345	0.135	835469	keystroke_a	a	n/a
417.8395	0.21	835679	keystroke_l	l	n/a
418.0045	0.15	836009	keystroke_Key.space	Key.space	n/a
418.2895	0.135	836579	keystroke_p	p	n/a
418.3805	0.149	836761	keystroke_u	u	n/a
418.74	0.105	837480	keystroke_l	l	n/a
418.965	0.18	837930	keystroke_l	l	n/a
419.085	0.165	838170	keystroke_Key.space	Key.space	n/a
419.3395	0.165	838679	keystroke_p	p	n/a
419.52	0.1495	839040	keystroke_r	r	n/a
419.6395	0.1205	839279	keystroke_i	i	n/a
419.88	0.135	839760	keystroke_n	n	n/a
419.985	0.135	839970	keystroke_t	t	n/a
420.135	0.12	840270	keystroke_Key.space	Key.space	n/a
420.39	0.105	840780	keystroke_d	d	n/a
420.6	0.075	841200	keystroke_e	e	n/a
420.779	0.106	841558	keystroke_e	e	n/a
420.839	0.15	841678	keystroke_m	m	n/a
421.005	0.09	842010	keystroke_e	e	n/a
421.2295	0.15	842459	keystroke_d	d	n/a
421.4845	0.15	842969	keystroke_Key.enter	Key.enter	n/a
421.641	9.678	843282	prompt	n/a	vehicle affects colonial certificates\n
422.3695	0.135	844739	keystroke_v	v	n/a
422.55	0.135	845100	keystroke_e	e	n/a
422.7	0.165	845400	keystroke_h	h	n/a
422.835	0.165	845670	keystroke_i	i	n/a
423.03	0.165	846060	keystroke_c	c	n/a
423.45	0.18	846900	keystroke_l	l	n/a
423.585	0.15	847170	keystroke_e	e	n/a
423.765	0.135	847530	keystroke_Key.space	Key.space	n/a
424.02	0.105	848040	keystroke_a	a	n/a
424.215	0.09	848430	keystroke_f	f	n/a
424.395	0.15	848790	keystroke_f	f	n/a
424.515	0.135	849030	keystroke_e	e	n/a
424.77	0.15	849540	keystroke_c	c	n/a
424.995	0.165	849990	keystroke_t	t	n/a
425.25	0.18	850500	keystroke_s	s	n/a
425.475	0.15	850950	keystroke_Key.space	Key.space	n/a
425.865	0.165	851730	keystroke_c	c	n/a
425.955	0.105	851910	keystroke_o	o	n/a
426.1795	0.12	852359	keystroke_l	l	n/a
426.3745	0.151	852749	keystroke_o	o	n/a
426.4945	0.225	852989	keystroke_n	n	n/a
426.6445	0.135	853289	keystroke_i	i	n/a
426.7945	0.15	853589	keystroke_a	a	n/a
426.96	0.1495	853920	keystroke_l	l	n/a
427.0495	0.165	854099	keystroke_Key.space	Key.space	n/a
427.3645	0.12	854729	keystroke_c	c	n/a
427.6195	0.24	855239	keystroke_e	e	n/a
427.7845	0.18	855569	keystroke_r	r	n/a
428.1445	0.135	856289	keystroke_t	t	n/a
428.3845	0.12	856769	keystroke_i	i	n/a
428.8645	0.135	857729	keystroke_f	f	n/a
428.9845	0.12	857969	keystroke_i	i	n/a
429.1645	0.135	858329	keystroke_c	c	n/a
429.4195	0.105	858839	keystroke_a	a	n/a
429.4795	0.225	858959	keystroke_t	t	n/a
430.0495	0.12	860099	keystroke_s	s	n/a
430.4095	0.09	860819	keystroke_Key.backspace	Key.backspace	n/a
430.5295	0.135	861059	keystroke_e	e	n/a
430.8295	0.15	861659	keystroke_s	s	n/a
431.205	0.105	862410	keystroke_Key.enter	Key.enter	n/a
431.325	13.4945	862650	prompt	n/a	disclaimer pharmaceutical linked civil\n
432.195	0.12	864390	keystroke_d	d	n/a
432.39	0.12	864780	keystroke_i	i	n/a
432.809	0.151	865618	keystroke_s	s	n/a
433.125	0.165	866250	keystroke_c	c	n/a
433.305	0.164	866610	keystroke_l	l	n/a
433.454	0.151	866908	keystroke_a	a	n/a
433.62	0.104	867240	keystroke_i	i	n/a
433.844	0.136	867688	keystroke_m	m	n/a
433.994	0.27	867988	keystroke_e	e	n/a
434.175	0.179	868350	keystroke_r	r	n/a
434.369	0.1355	868738	keystroke_Key.space	Key.space	n/a
435.3295	0.165	870659	keystroke_p	p	n/a
435.4645	0.195	870929	keystroke_h	h	n/a
435.6445	0.195	871289	keystroke_a	a	n/a
435.8095	0.165	871619	keystroke_r	r	n/a
436.0045	0.135	872009	keystroke_m	m	n/a
436.4995	0.12	872999	keystroke_a	a	n/a
436.9495	0.12	873899	keystroke_c	c	n/a
437.1895	0.12	874379	keystroke_e	e	n/a
437.3995	0.15	874799	keystroke_u	u	n/a
437.5945	0.165	875189	keystroke_t	t	n/a
437.7145	0.15	875429	keystroke_i	i	n/a
437.9845	0.15	875969	keystroke_c	c	n/a
438.2695	0.105	876539	keystroke_a	a	n/a
438.3895	0.195	876779	keystroke_l	l	n/a
438.8245	0.15	877649	keystroke_Key.space	Key.space	n/a
439.0795	0.24	878159	keystroke_l	l	n/a
439.2445	0.15	878489	keystroke_i	i	n/a
439.4395	0.15	878879	keystroke_n	n	n/a
439.6945	0.135	879389	keystroke_k	k	n/a
439.8895	0.12	879779	keystroke_e	e	n/a
440.1445	0.165	880289	keystroke_d	d	n/a
440.2795	0.15	880559	keystroke_Key.space	Key.space	n/a
440.8645	0.165	881729	keystroke_c	c	n/a
440.9845	0.09	881969	keystroke_i	i	n/a
441.4945	0.06	882989	keystroke_i	i	n/a
442.2295	0.12	884459	keystroke_Key.backspace	Key.backspace	n/a
442.4845	0.165	884969	keystroke_v	v	n/a
442.6045	0.105	885209	keystroke_i	i	n/a
442.8445	0.15	885689	keystroke_l	l	n/a
443.1745	0.075	886349	keystroke_\	\	n/a
443.9245	0.105	887849	keystroke_Key.backspace	Key.backspace	n/a
444.7045	0.105	889409	keystroke_Key.enter	Key.enter	n/a
444.8235	9.2805	889647	prompt	n/a	wants automated bargain jackets\n
445.8145	0.225	891629	keystroke_w	w	n/a
445.9345	0.1805	891869	keystroke_a	a	n/a
446.07	0.135	892140	keystroke_n	n	n/a
446.175	0.135	892350	keystroke_t	t	n/a
446.4445	0.165	892889	keystroke_s	s	n/a
446.6695	0.135	893339	keystroke_Key.space	Key.space	n/a
446.8495	0.15	893699	keystroke_a	a	n/a
447.0005	0.149	894001	keystroke_u	u	n/a
447.1345	0.135	894269	keystroke_t	t	n/a
447.2845	0.12	894569	keystroke_o	o	n/a
447.5245	0.135	895049	keystroke_m	m	n/a
447.6295	0.165	895259	keystroke_a	a	n/a
447.7795	0.18	895559	keystroke_t	t	n/a
448.3345	0.105	896669	keystroke_e	e	n/a
448.5895	0.135	897179	keystroke_d	d	n/a
448.8895	0.12	897779	keystroke_Key.space	Key.space	n/a
449.6545	0.15	899309	keystroke_b	b	n/a
449.8495	0.18	899699	keystroke_a	a	n/a
450.0745	0.135	900149	keystroke_r	r	n/a
450.3445	0.15	900689	keystroke_g	g	n/a
450.5095	0.15	901019	keystroke_a	a	n/a
450.6745	0.15	901349	keystroke_i	i	n/a
450.8845	0.225	901769	keystroke_n	n	n/a
451.0045	0.18	902009	keystroke_Key.space	Key.space	n/a
451.29	0.165	902580	keystroke_j	j	n/a
451.41	0.15	902820	keystroke_a	a	n/a
451.665	0.15	903330	keystroke_c	c	n/a
451.785	0.12	903570	keystroke_k	k	n/a
451.965	0.24	903930	keystroke_e	e	n/a
452.085	0.15	904170	keystroke_t	t	n/a
452.34	0.195	904680	keystroke_s	s	n/a
453.885	0.21	907770	keystroke_Key.enter	Key.enter	n/a
454.108	8.681	908216	prompt	n/a	uploaded dash framework lose\n
454.9345	0.15	909869	keystroke_u	u	n/a
455.1895	0.105	910379	keystroke_p	p	n/a
455.7745	0.12	911549	keystroke_l	l	n/a
456.1345	0.075	912269	keystroke_o	o	n/a
456.3445	0.15	912689	keystroke_a	a	n/a
457.1245	0.105	914249	keystroke_d	d	n/a
457.3345	0.0895	914669	keystroke_e	e	n/a
457.544	0.1355	915088	keystroke_d	d	n/a
457.8595	0.15	915719	keystroke_Key.space	Key.space	n/a
458.1445	0.135	916289	keystroke_d	d	n/a
458.3245	0.1195	916649	keystroke_a	a	n/a
458.4895	0.15	916979	keystroke_s	s	n/a
458.7745	0.12	917549	keystroke_h	h	n/a
459.2545	0.105	918509	keystroke_Key.space	Key.space	n/a
459.8095	0.09	919619	keystroke_f	f	n/a
460.005	0.21	920010	keystroke_r	r	n/a
460.155	0.135	920310	keystroke_a	a	n/a
460.305	0.15	920610	keystroke_m	m	n/a
460.44	0.12	920880	keystroke_e	e	n/a
460.739	0.15	921478	keystroke_w	w	n/a
460.83	0.164	921660	keystroke_o	o	n/a
460.949	0.18	921898	keystroke_r	r	n/a
461.144	0.09	922288	keystroke_k	k	n/a
461.864	0.105	923728	keystroke_Key.space	Key.space	n/a
462.029	0.135	924058	keystroke_l	l	n/a
462.239	0.165	924478	keystroke_o	o	n/a
462.344	0.195	924688	keystroke_s	s	n/a
462.449	0.18	924898	keystroke_e	e	n/a
462.644	0.135	925288	keystroke_Key.enter	Key.enter	n/a
462.7935	5.9725	925587	prompt	n/a	macro powell so maple\n
463.439	0.15	926878	keystroke_m	m	n/a
463.544	0.195	927088	keystroke_a	a	n/a
463.979	0.165	927958	keystroke_c	c	n/a
464.219	0.195	928438	keystroke_r	r	n/a
464.369	0.15	928738	keystroke_o	o	n/a
464.609	0.15	929218	keystroke_Key.space	Key.space	n/a
464.834	0.135	929668	keystroke_p	p	n/a
465.029	0.1805	930058	keystroke_o	o	n/a
465.194	0.135	930388	keystroke_w	w	n/a
465.479	0.135	930958	keystroke_e	e	n/a
465.599	0.1805	931198	keystroke_l	l	n/a
465.9295	0.165	931859	keystroke_l	l	n/a
466.1095	0.15	932219	keystroke_Key.space	Key.space	n/a
466.5745	0.255	933149	keystroke_s	s	n/a
466.6795	0.24	933359	keystroke_o	o	n/a
466.7995	0.135	933599	keystroke_Key.space	Key.space	n/a
467.0395	0.12	934079	keystroke_m	m	n/a
467.0995	0.165	934199	keystroke_a	a	n/a
467.4145	0.12	934829	keystroke_p	p	n/a
467.6545	0.135	935309	keystroke_l	l	n/a
467.7905	0.164	935581	keystroke_e	e	n/a
468.6745	0.09	937349	keystroke_Key.enter	Key.enter	n/a
468.769	10.266	937538	prompt	n/a	losing removing researchers illegal\n
469.6645	0.105	939329	keystroke_l	l	n/a
470.0395	0.105	940079	keystroke_Key.backspace	Key.backspace	n/a
470.3395	0.105	940679	keystroke_l	l	n/a
470.564	0.135	941128	keystroke_o	o	n/a
470.654	0.15	941308	keystroke_s	s	n/a
470.864	0.12	941728	keystroke_i	i	n/a
471.119	0.12	942238	keystroke_n	n	n/a
471.314	0.165	942628	keystroke_g	g	n/a
471.464	0.135	942928	keystroke_Key.space	Key.space	n/a
471.929	0.165	943858	keystroke_r	r	n/a
472.035	0.149	944070	keystroke_e	e	n/a
472.289	0.18	944578	keystroke_m	m	n/a
472.454	0.1505	944908	keystroke_o	o	n/a
472.6495	0.165	945299	keystroke_v	v	n/a
472.979	0.12	945958	keystroke_i	i	n/a
473.2045	0.1495	946409	keystroke_n	n	n/a
473.369	0.1205	946738	keystroke_g	g	n/a
473.624	0.1055	947248	keystroke_Key.space	Key.space	n/a
473.8795	0.135	947759	keystroke_r	r	n/a
473.9545	0.15	947909	keystroke_e	e	n/a
474.2245	0.165	948449	keystroke_a	a	n/a
474.615	0.105	949230	keystroke_Key.backspace	Key.backspace	n/a
474.675	0.209	949350	keystroke_s	s	n/a
474.84	0.15	949680	keystroke_e	e	n/a
475.064	0.166	950128	keystroke_a	a	n/a
475.2	0.15	950400	keystroke_r	r	n/a
475.919	0.195	951838	keystroke_c	c	n/a
476.115	0.104	952230	keystroke_h	h	n/a
476.324	0.165	952648	keystroke_e	e	n/a
476.534	0.135	953068	keystroke_r	r	n/a
476.804	0.165	953608	keystroke_s	s	n/a
476.954	0.135	953908	keystroke_Key.space	Key.space	n/a
477.119	0.105	954238	keystroke_i	i	n/a
477.344	0.09	954688	keystroke_l	l	n/a
477.524	0.135	955048	keystroke_l	l	n/a
477.629	0.12	955258	keystroke_e	e	n/a
477.854	0.165	955708	keystroke_g	g	n/a
478.064	0.165	956128	keystroke_a	a	n/a
478.169	0.135	956338	keystroke_l	l	n/a
478.874	0.15	957748	keystroke_Key.enter	Key.enter	n/a
479.04	6.2405	958080	prompt	n/a	arranged mobiles bush loops\n
479.925	0.239	959850	keystroke_a	a	n/a
480.345	0.105	960690	keystroke_r	r	n/a
480.539	0.165	961078	keystroke_r	r	n/a
480.63	0.195	961260	keystroke_a	a	n/a
480.779	0.18	961558	keystroke_n	n	n/a
480.93	0.119	961860	keystroke_g	g	n/a
481.125	0.134	962250	keystroke_e	e	n/a
481.364	0.15	962728	keystroke_d	d	n/a
481.454	0.135	962908	keystroke_Key.space	Key.space	n/a
481.784	0.15	963568	keystroke_m	m	n/a
481.874	0.136	963748	keystroke_o	o	n/a
482.234	0.135	964468	keystroke_b	b	n/a
482.325	0.074	964650	keystroke_i	i	n/a
482.549	0.15	965098	keystroke_l	l	n/a
482.669	0.12	965338	keystroke_e	e	n/a
482.924	0.135	965848	keystroke_s	s	n/a
483.029	0.09	966058	keystroke_Key.space	Key.space	n/a
483.254	0.165	966508	keystroke_b	b	n/a
483.389	0.12	966778	keystroke_u	u	n/a
483.524	0.15	967048	keystroke_s	s	n/a
483.734	0.165	967468	keystroke_h	h	n/a
483.854	0.135	967708	keystroke_Key.space	Key.space	n/a
484.094	0.12	968188	keystroke_l	l	n/a
484.319	0.075	968638	keystroke_o	o	n/a
484.484	0.1205	968968	keystroke_o	o	n/a
484.7095	0.15	969419	keystroke_p	p	n/a
484.8745	0.195	969749	keystroke_s	s	n/a
485.1445	0.135	970289	keystroke_Key.enter	Key.enter	n/a
485.2845	7.4015	970569	prompt	n/a	viral alaska preference back\n
485.9545	0.195	971909	keystroke_v	v	n/a
486.0745	0.15	972149	keystroke_i	i	n/a
486.4045	0.195	972809	keystroke_r	r	n/a
486.5845	0.165	973169	keystroke_a	a	n/a
486.7345	0.21	973469	keystroke_l	l	n/a
486.8545	0.135	973709	keystroke_Key.space	Key.space	n/a
487.0495	0.135	974099	keystroke_a	a	n/a
487.1695	0.15	974339	keystroke_l	l	n/a
487.3045	0.12	974609	keystroke_a	a	n/a
487.4995	0.18	974999	keystroke_s	s	n/a
487.7545	0.135	975509	keystroke_k	k	n/a
487.9045	0.135	975809	keystroke_a	a	n/a
488.0695	0.119	976139	keystroke_Key.space	Key.space	n/a
488.594	0.15	977188	keystroke_p	p	n/a
488.849	0.195	977698	keystroke_r	r	n/a
488.984	0.165	977968	keystroke_e	e	n/a
489.434	0.21	978868	keystroke_f	f	n/a
489.614	0.15	979228	keystroke_e	e	n/a
489.794	0.1345	979588	keystroke_n	n	n/a
490.2585	0.12	980517	keystroke_Key.backspace	Key.backspace	n/a
490.3635	0.196	980727	keystroke_r	r	n/a
490.4835	0.12	980967	keystroke_e	e	n/a
490.6335	0.106	981267	keystroke_n	n	n/a
490.7995	0.1195	981599	keystroke_c	c	n/a
491.084	0.12	982168	keystroke_e	e	n/a
491.564	0.075	983128	keystroke_Key.space	Key.space	n/a
491.759	0.15	983518	keystroke_b	b	n/a
491.924	0.135	983848	keystroke_a	a	n/a
492.149	0.195	984298	keystroke_c	c	n/a
492.254	0.12	984508	keystroke_k	k	n/a
492.509	0.1645	985018	keystroke_Key.enter	Key.enter	n/a
492.692	6.433	985384	prompt	n/a	justify shot instructors has\n
493.334	0.12	986668	keystroke_j	j	n/a
493.544	0.12	987088	keystroke_u	u	n/a
493.649	0.21	987298	keystroke_s	s	n/a
493.784	0.18	987568	keystroke_t	t	n/a
493.904	0.12	987808	keystroke_i	i	n/a
494.159	0.18	988318	keystroke_f	f	n/a
494.354	0.21	988708	keystroke_y	y	n/a
494.504	0.18	989008	keystroke_Key.space	Key.space	n/a
494.804	0.18	989608	keystroke_s	s	n/a
494.894	0.225	989788	keystroke_h	h	n/a
495.014	0.195	990028	keystroke_o	o	n/a
495.194	0.15	990388	keystroke_t	t	n/a
495.359	0.105	990718	keystroke_Key.space	Key.space	n/a
495.614	0.12	991228	keystroke_i	i	n/a
495.779	0.15	991558	keystroke_n	n	n/a
495.914	0.15	991828	keystroke_s	s	n/a
496.079	0.135	992158	keystroke_t	t	n/a
496.379	0.15	992758	keystroke_r	r	n/a
496.574	0.12	993148	keystroke_u	u	n/a
497.009	0.1345	994018	keystroke_c	c	n/a
497.2635	0.15	994527	keystroke_t	t	n/a
497.5485	0.135	995097	keystroke_o	o	n/a
497.6985	0.135	995397	keystroke_r	r	n/a
498.0435	0.165	996087	keystroke_s	s	n/a
498.2535	0.135	996507	keystroke_Key.space	Key.space	n/a
498.4485	0.18	996897	keystroke_h	h	n/a
498.5535	0.18	997107	keystroke_a	a	n/a
498.7185	0.165	997437	keystroke_s	s	n/a
498.9435	0.18	997887	keystroke_Key.enter	Key.enter	n/a
499.128	8.51	998256	prompt	n/a	view demanding attach pennsylvania\n
499.9185	0.09	999837	keystroke_v	v	n/a
500.0835	0.1355	1000167	keystroke_i	i	n/a
500.189	0.21	1000378	keystroke_e	e	n/a
500.309	0.15	1000618	keystroke_w	w	n/a
500.6085	0.15	1001217	keystroke_Key.space	Key.space	n/a
500.954	0.105	1001908	keystroke_d	d	n/a
501.134	0.165	1002268	keystroke_e	e	n/a
501.284	0.135	1002568	keystroke_m	m	n/a
501.434	0.135	1002868	keystroke_a	a	n/a
501.539	0.105	1003078	keystroke_n	n	n/a
501.704	0.135	1003408	keystroke_d	d	n/a
501.854	0.1195	1003708	keystroke_i	i	n/a
502.0185	0.18	1004037	keystroke_n	n	n/a
502.1995	0.149	1004399	keystroke_g	g	n/a
502.3335	0.105	1004667	keystroke_Key.space	Key.space	n/a
502.5435	0.12	1005087	keystroke_a	a	n/a
502.7535	0.075	1005507	keystroke_t	t	n/a
502.9185	0.15	1005837	keystroke_t	t	n/a
502.9935	0.15	1005987	keystroke_a	a	n/a
503.2485	0.15	1006497	keystroke_c	c	n/a
503.3835	0.12	1006767	keystroke_h	h	n/a
504.0285	0.09	1008057	keystroke_Key.space	Key.space	n/a
504.2985	0.18	1008597	keystroke_p	p	n/a
504.4635	0.1505	1008927	keystroke_e	e	n/a
504.628	0.121	1009256	keystroke_n	n	n/a
504.869	0.134	1009738	keystroke_n	n	n/a
505.108	0.1655	1010216	keystroke_s	s	n/a
505.3485	0.09	1010697	keystroke_y	y	n/a
505.5885	0.15	1011177	keystroke_l	l	n/a
506.0685	0.2405	1012137	keystroke_v	v	n/a
506.2035	0.15	1012407	keystroke_a	a	n/a
506.5785	0.2245	1013157	keystroke_n	n	n/a
506.743	0.135	1013486	keystroke_i	i	n/a
506.938	0.181	1013876	keystroke_a	a	n/a
507.463	0.165	1014926	keystroke_Key.enter	Key.enter	n/a
507.6425	6.671	1015285	prompt	n/a	prior cult simplified carried\n
508.4235	0.1495	1016847	keystroke_p	p	n/a
508.663	0.165	1017326	keystroke_r	r	n/a
508.813	0.135	1017626	keystroke_i	i	n/a
509.128	0.165	1018256	keystroke_o	o	n/a
509.323	0.165	1018646	keystroke_r	r	n/a
509.458	0.12	1018916	keystroke_Key.space	Key.space	n/a
509.908	0.165	1019816	keystroke_c	c	n/a
510.028	0.09	1020056	keystroke_u	u	n/a
510.238	0.165	1020476	keystroke_l	l	n/a
510.478	0.15	1020956	keystroke_t	t	n/a
510.613	0.105	1021226	keystroke_Key.space	Key.space	n/a
510.853	0.18	1021706	keystroke_s	s	n/a
510.943	0.12	1021886	keystroke_i	i	n/a
511.213	0.165	1022426	keystroke_m	m	n/a
511.348	0.12	1022696	keystroke_p	p	n/a
511.573	0.15	1023146	keystroke_l	l	n/a
511.693	0.1205	1023386	keystroke_i	i	n/a
512.0085	0.165	1024017	keystroke_f	f	n/a
512.129	0.1195	1024258	keystroke_i	i	n/a
512.3235	0.075	1024647	keystroke_e	e	n/a
512.5185	0.1505	1025037	keystroke_d	d	n/a
512.6235	0.135	1025247	keystroke_Key.space	Key.space	n/a
512.9385	0.165	1025877	keystroke_c	c	n/a
513.1635	0.135	1026327	keystroke_a	a	n/a
513.3135	0.105	1026627	keystroke_r	r	n/a
513.5985	0.045	1027197	keystroke_r	r	n/a
513.6135	0.15	1027227	keystroke_i	i	n/a
513.7185	0.12	1027437	keystroke_e	e	n/a
513.9285	0.1645	1027857	keystroke_d	d	n/a
514.153	0.15	1028306	keystroke_Key.enter	Key.enter	n/a
514.32	7.4695	1028640	prompt	n/a	postcard grain recovery lesser\n
514.949	0.1495	1029898	keystroke_p	p	n/a
515.1735	0.165	1030347	keystroke_o	o	n/a
515.2635	0.165	1030527	keystroke_s	s	n/a
515.4435	0.135	1030887	keystroke_t	t	n/a
515.863	0.15	1031726	keystroke_c	c	n/a
516.073	0.1505	1032146	keystroke_a	a	n/a
516.1935	0.15	1032387	keystroke_r	r	n/a
516.4635	0.1495	1032927	keystroke_d	d	n/a
516.703	0.12	1033406	keystroke_Key.space	Key.space	n/a
516.943	0.1505	1033886	keystroke_g	g	n/a
517.1985	0.225	1034397	keystroke_r	r	n/a
517.3335	0.15	1034667	keystroke_a	a	n/a
517.5285	0.195	1035057	keystroke_i	i	n/a
517.7085	0.24	1035417	keystroke_n	n	n/a
517.8735	0.135	1035747	keystroke_Key.space	Key.space	n/a
518.5335	0.1345	1037067	keystroke_r	r	n/a
518.608	0.121	1037216	keystroke_e	e	n/a
518.923	0.18	1037846	keystroke_c	c	n/a
519.164	0.149	1038328	keystroke_o	o	n/a
519.403	0.135	1038806	keystroke_v	v	n/a
519.553	0.24	1039106	keystroke_e	e	n/a
519.748	0.2105	1039496	keystroke_r	r	n/a
519.8985	0.18	1039797	keystroke_y	y	n/a
520.0335	0.135	1040067	keystroke_Key.space	Key.space	n/a
520.3635	0.12	1040727	keystroke_l	l	n/a
520.5735	0.1195	1041147	keystroke_e	e	n/a
520.8285	0.075	1041657	keystroke_s	s	n/a
521.0085	0.18	1042017	keystroke_s	s	n/a
521.1135	0.2395	1042227	keystroke_e	e	n/a
521.2935	0.1795	1042587	keystroke_r	r	n/a
521.653	0.135	1043306	keystroke_Key.enter	Key.enter	n/a
521.795	11.1925	1043590	prompt	n/a	how're dominican turkey considered\n
522.7485	0.09	1045497	keystroke_h	h	n/a
522.9585	0.1345	1045917	keystroke_o	o	n/a
523.438	0.1655	1046876	keystroke_w	w	n/a
523.8585	0.15	1047717	keystroke_'	'	n/a
524.5185	0.21	1049037	keystroke_r	r	n/a
524.6085	0.21	1049217	keystroke_e	e	n/a
524.8635	0.12	1049727	keystroke_Key.space	Key.space	n/a
525.0885	0.1495	1050177	keystroke_d	d	n/a
525.418	0.135	1050836	keystroke_o	o	n/a
525.688	0.2255	1051376	keystroke_m	m	n/a
525.8985	0.135	1051797	keystroke_i	i	n/a
526.0935	0.1805	1052187	keystroke_n	n	n/a
526.1985	0.1195	1052397	keystroke_i	i	n/a
526.378	0.1655	1052756	keystroke_c	c	n/a
527.038	0.1355	1054076	keystroke_a	a	n/a
527.4435	0.105	1054887	keystroke_n	n	n/a
527.7135	0.09	1055427	keystroke_Key.space	Key.space	n/a
527.9535	0.12	1055907	keystroke_t	t	n/a
528.1785	0.105	1056357	keystroke_i	i	n/a
528.5085	0.0905	1057017	keystroke_Key.backspace	Key.backspace	n/a
528.764	0.104	1057528	keystroke_u	u	n/a
528.823	0.12	1057646	keystroke_r	r	n/a
529.033	0.091	1058066	keystroke_k	k	n/a
529.154	0.15	1058308	keystroke_e	e	n/a
529.378	0.09	1058756	keystroke_y	y	n/a
529.738	0.091	1059476	keystroke_Key.space	Key.space	n/a
529.949	0.164	1059898	keystroke_c	c	n/a
530.009	0.105	1060018	keystroke_o	o	n/a
530.158	0.135	1060316	keystroke_n	n	n/a
530.443	0.15	1060886	keystroke_s	s	n/a
530.623	0.075	1061246	keystroke_i	i	n/a
531.043	0.105	1062086	keystroke_d	d	n/a
531.238	0.165	1062476	keystroke_e	e	n/a
531.343	0.225	1062686	keystroke_r	r	n/a
531.509	0.134	1063018	keystroke_e	e	n/a
531.748	0.09	1063496	keystroke_e	e	n/a
532.153	0.105	1064306	keystroke_Key.backspace	Key.backspace	n/a
532.243	0.135	1064486	keystroke_d	d	n/a
532.828	0.15	1065656	keystroke_Key.enter	Key.enter	n/a
532.9915	9.911	1065983	prompt	n/a	stolen problem establishing packard\n
533.683	0.18	1067366	keystroke_s	s	n/a
533.818	0.1195	1067636	keystroke_o	o	n/a
534.043	0.105	1068086	keystroke_t	t	n/a
534.268	0.06	1068536	keystroke_Key.backspace	Key.backspace	n/a
534.4325	0.106	1068865	keystroke_Key.backspace	Key.backspace	n/a
534.4775	0.166	1068955	keystroke_t	t	n/a
534.7035	0.075	1069407	keystroke_o	o	n/a
534.8985	0.15	1069797	keystroke_l	l	n/a
534.9885	0.15	1069977	keystroke_e	e	n/a
535.2285	0.225	1070457	keystroke_n	n	n/a
535.3635	0.165	1070727	keystroke_Key.space	Key.space	n/a
535.6335	0.105	1071267	keystroke_p	p	n/a
536.1435	0.1495	1072287	keystroke_r	r	n/a
536.3085	0.12	1072617	keystroke_o	o	n/a
536.6685	0.135	1073337	keystroke_b	b	n/a
536.7885	0.134	1073577	keystroke_l	l	n/a
536.9525	0.151	1073905	keystroke_e	e	n/a
537.0585	0.135	1074117	keystroke_m	m	n/a
537.3885	0.089	1074777	keystroke_Key.space	Key.space	n/a
537.6435	0.09	1075287	keystroke_e	e	n/a
538.2585	0.149	1076517	keystroke_s	s	n/a
538.4825	0.151	1076965	keystroke_t	t	n/a
538.7085	0.134	1077417	keystroke_a	a	n/a
539.0075	0.136	1078015	keystroke_b	b	n/a
539.2325	0.195	1078465	keystroke_l	l	n/a
539.3825	0.12	1078765	keystroke_i	i	n/a
539.6075	0.15	1079215	keystroke_s	s	n/a
539.7285	0.164	1079457	keystroke_h	h	n/a
539.8325	0.09	1079665	keystroke_i	i	n/a
540.0435	0.135	1080087	keystroke_n	n	n/a
540.1625	0.135	1080325	keystroke_g	g	n/a
540.4175	0.09	1080835	keystroke_Key.space	Key.space	n/a
540.6575	0.12	1081315	keystroke_p	p	n/a
540.7625	0.15	1081525	keystroke_a	a	n/a
541.1225	0.135	1082245	keystroke_c	c	n/a
541.4225	0.09	1082845	keystroke_l	l	n/a
541.768	0.09	1083536	keystroke_Key.backspace	Key.backspace	n/a
542.038	0.105	1084076	keystroke_k	k	n/a
542.158	0.18	1084316	keystroke_a	a	n/a
542.323	0.12	1084646	keystroke_r	r	n/a
542.578	0.12	1085156	keystroke_d	d	n/a
542.803	0.09	1085606	keystroke_Key.enter	Key.enter	n/a
542.907	6.0025	1085814	prompt	n/a	kate watts ethics dairy\n
543.628	0.12	1087256	keystroke_k	k	n/a
543.763	0.15	1087526	keystroke_a	a	n/a
543.898	0.225	1087796	keystroke_t	t	n/a
544.003	0.195	1088006	keystroke_e	e	n/a
544.183	0.12	1088366	keystroke_Key.space	Key.space	n/a
544.573	0.27	1089146	keystroke_w	w	n/a
544.738	0.225	1089476	keystroke_a	a	n/a
545.173	0.105	1090346	keystroke_t	t	n/a
545.368	0.135	1090736	keystroke_t	t	n/a
545.608	0.18	1091216	keystroke_s	s	n/a
545.773	0.135	1091546	keystroke_Key.space	Key.space	n/a
546.058	0.165	1092116	keystroke_e	e	n/a
546.388	0.165	1092776	keystroke_t	t	n/a
546.568	0.15	1093136	keystroke_h	h	n/a
546.808	0.15	1093616	keystroke_i	i	n/a
547.1535	0.15	1094307	keystroke_c	c	n/a
547.4235	0.165	1094847	keystroke_s	s	n/a
547.5435	0.09	1095087	keystroke_Key.space	Key.space	n/a
547.7535	0.135	1095507	keystroke_d	d	n/a
547.9485	0.12	1095897	keystroke_a	a	n/a
548.0835	0.12	1096167	keystroke_i	i	n/a
548.3535	0.18	1096707	keystroke_r	r	n/a
548.5035	0.12	1097007	keystroke_y	y	n/a
548.7885	0.12	1097577	keystroke_Key.enter	Key.enter	n/a
548.912	8.8705	1097824	prompt	n/a	teen museum proceed baseline\n
549.7485	0.15	1099497	keystroke_t	t	n/a
550.0035	0.119	1100007	keystroke_e	e	n/a
550.2135	0.164	1100427	keystroke_e	e	n/a
550.3035	0.2245	1100607	keystroke_n	n	n/a
550.4825	0.135	1100965	keystroke_Key.space	Key.space	n/a
550.7385	0.12	1101477	keystroke_m	m	n/a
550.993	0.135	1101986	keystroke_u	u	n/a
551.143	0.225	1102286	keystroke_s	s	n/a
551.3385	0.1495	1102677	keystroke_e	e	n/a
551.6685	0.105	1103337	keystroke_u	u	n/a
551.9835	0.21	1103967	keystroke_m	m	n/a
552.1185	0.165	1104237	keystroke_Key.space	Key.space	n/a
552.5085	0.135	1105017	keystroke_p	p	n/a
552.8835	0.075	1105767	keystroke_o	o	n/a
553.2135	0.12	1106427	keystroke_Key.backspace	Key.backspace	n/a
553.3185	0.18	1106637	keystroke_r	r	n/a
553.5135	0.15	1107027	keystroke_o	o	n/a
553.8585	0.12	1107717	keystroke_c	c	n/a
554.1135	0.075	1108227	keystroke_e	e	n/a
554.2935	0.12	1108587	keystroke_e	e	n/a
554.5325	0.1655	1109065	keystroke_d	d	n/a
554.998	0.15	1109996	keystroke_Key.space	Key.space	n/a
555.448	0.15	1110896	keystroke_b	b	n/a
555.628	0.165	1111256	keystroke_a	a	n/a
555.808	0.21	1111616	keystroke_s	s	n/a
556.243	0.15	1112486	keystroke_e	e	n/a
556.438	0.2095	1112876	keystroke_l	l	n/a
556.6025	0.181	1113205	keystroke_i	i	n/a
556.7985	0.195	1113597	keystroke_n	n	n/a
556.9185	0.195	1113837	keystroke_e	e	n/a
557.6535	0.12	1115307	keystroke_Key.enter	Key.enter	n/a
557.789	9.7755	1115578	prompt	n/a	perry alloy colony millennium\n
558.523	0.1505	1117046	keystroke_p	p	n/a
558.6575	0.165	1117315	keystroke_e	e	n/a
558.7785	0.12	1117557	keystroke_r	r	n/a
558.9885	0.225	1117977	keystroke_r	r	n/a
559.1235	0.165	1118247	keystroke_y	y	n/a
559.2425	0.135	1118485	keystroke_Key.space	Key.space	n/a
559.3485	0.194	1118697	keystroke_a	a	n/a
559.4975	0.12	1118995	keystroke_l	l	n/a
559.7075	0.06	1119415	keystroke_l	l	n/a
559.8725	0.165	1119745	keystroke_o	o	n/a
559.9775	0.12	1119955	keystroke_w	w	n/a
560.6375	0.18	1121275	keystroke_Key.backspace	Key.backspace	n/a
561.0135	0.15	1122027	keystroke_y	y	n/a
561.4185	0.15	1122837	keystroke_Key.space	Key.space	n/a
561.8535	0.225	1123707	keystroke_c	c	n/a
561.9425	0.106	1123885	keystroke_o	o	n/a
562.1835	0.105	1124367	keystroke_l	l	n/a
562.3635	0.2095	1124727	keystroke_o	o	n/a
562.528	0.165	1125056	keystroke_n	n	n/a
562.873	0.15	1125746	keystroke_y	y	n/a
563.113	0.12	1126226	keystroke_Key.space	Key.space	n/a
563.383	0.195	1126766	keystroke_m	m	n/a
563.518	0.12	1127036	keystroke_i	i	n/a
563.758	0.09	1127516	keystroke_l	l	n/a
563.938	0.12	1127876	keystroke_l	l	n/a
564.088	0.18	1128176	keystroke_e	e	n/a
564.223	0.12	1128446	keystroke_n	n	n/a
564.523	0.12	1129046	keystroke_n	n	n/a
564.793	0.105	1129586	keystroke_u	u	n/a
565.423	0.09	1130846	keystroke_Key.backspace	Key.backspace	n/a
565.963	0.06	1131926	keystroke_i	i	n/a
566.338	0.09	1132676	keystroke_u	u	n/a
566.6225	0.09	1133245	keystroke_m	m	n/a
567.4625	0.09	1134925	keystroke_Key.enter	Key.enter	n/a
567.5695	6.645	1135139	prompt	n/a	if volunteer long amend\n
568.1975	0.135	1136395	keystroke_i	i	n/a
568.3625	0.165	1136725	keystroke_f	f	n/a
568.4825	0.105	1136965	keystroke_Key.space	Key.space	n/a
568.7375	0.105	1137475	keystroke_c	c	n/a
569.0825	0.12	1138165	keystroke_Key.backspace	Key.backspace	n/a
569.3685	0.104	1138737	keystroke_o	o	n/a
569.6075	0.135	1139215	keystroke_l	l	n/a
569.9375	0.075	1139875	keystroke_Key.backspace	Key.backspace	n/a
570.1025	0.135	1140205	keystroke_Key.backspace	Key.backspace	n/a
570.3725	0.15	1140745	keystroke_v	v	n/a
570.6575	0.105	1141315	keystroke_o	o	n/a
570.9275	0.24	1141855	keystroke_l	l	n/a
571.1375	0.105	1142275	keystroke_u	u	n/a
571.3625	0.135	1142725	keystroke_n	n	n/a
571.4375	0.12	1142875	keystroke_t	t	n/a
571.6325	0.12	1143265	keystroke_e	e	n/a
571.8275	0.15	1143655	keystroke_e	e	n/a
572.1875	0.165	1144375	keystroke_r	r	n/a
572.3375	0.105	1144675	keystroke_Key.space	Key.space	n/a
572.6075	0.105	1145215	keystroke_l	l	n/a
572.8175	0.195	1145635	keystroke_o	o	n/a
572.9825	0.1205	1145965	keystroke_n	n	n/a
573.0725	0.12	1146145	keystroke_g	g	n/a
573.2375	0.09	1146475	keystroke_Key.space	Key.space	n/a
573.3875	0.135	1146775	keystroke_a	a	n/a
573.5225	0.135	1147045	keystroke_m	m	n/a
573.6585	0.104	1147317	keystroke_e	e	n/a
573.7775	0.12	1147555	keystroke_n	n	n/a
573.9425	0.15	1147885	keystroke_d	d	n/a
574.1075	0.105	1148215	keystroke_Key.enter	Key.enter	n/a
574.217	7.82	1148434	prompt	n/a	charge link review wife\n
575.0525	0.165	1150105	keystroke_c	c	n/a
575.2185	0.134	1150437	keystroke_h	h	n/a
575.3375	0.165	1150675	keystroke_a	a	n/a
575.4575	0.15	1150915	keystroke_r	r	n/a
575.6975	0.15	1151395	keystroke_g	g	n/a
575.8175	0.21	1151635	keystroke_e	e	n/a
576.0425	0.12	1152085	keystroke_Key.space	Key.space	n/a
576.3275	0.195	1152655	keystroke_l	l	n/a
576.4625	0.15	1152925	keystroke_i	i	n/a
576.7175	0.135	1153435	keystroke_n	n	n/a
576.9725	0.135	1153945	keystroke_k	k	n/a
577.1225	0.12	1154245	keystroke_Key.space	Key.space	n/a
577.3625	0.18	1154725	keystroke_r	r	n/a
577.4825	0.015	1154965	keystroke_e	e	n/a
578.2475	0.165	1156495	keystroke_v	v	n/a
578.4875	0.135	1156975	keystroke_i	i	n/a
578.6375	0.255	1157275	keystroke_e	e	n/a
578.8625	0.165	1157725	keystroke_w	w	n/a
579.1775	0.15	1158355	keystroke_Key.space	Key.space	n/a
579.5075	0.165	1159015	keystroke_w	w	n/a
579.7025	0.135	1159405	keystroke_i	i	n/a
580.0925	0.3	1160185	keystroke_f	f	n/a
580.2575	0.21	1160515	keystroke_e	e	n/a
581.8775	0.15	1163755	keystroke_Key.enter	Key.enter	n/a
582.046	10.3265	1164092	prompt	n/a	afghanistan donna connected proceeds\n
583.4075	0.18	1166815	keystroke_a	a	n/a
583.6325	0.135	1167265	keystroke_f	f	n/a
583.9625	0.15	1167925	keystroke_g	g	n/a
584.2025	0.15	1168405	keystroke_a	a	n/a
584.8475	0.1205	1169695	keystroke_Key.backspace	Key.backspace	n/a
585.1775	0.165	1170355	keystroke_h	h	n/a
585.8975	0.18	1171795	keystroke_a	a	n/a
586.2275	0.255	1172455	keystroke_n	n	n/a
586.3925	0.15	1172785	keystroke_i	i	n/a
586.5725	0.165	1173145	keystroke_s	s	n/a
586.7975	0.135	1173595	keystroke_t	t	n/a
586.9335	0.179	1173867	keystroke_a	a	n/a
587.0825	0.225	1174165	keystroke_n	n	n/a
587.2475	0.165	1174495	keystroke_Key.space	Key.space	n/a
587.5325	0.15	1175065	keystroke_d	d	n/a
587.6375	0.105	1175275	keystroke_o	o	n/a
587.8325	0.105	1175665	keystroke_n	n	n/a
588.0125	0.165	1176025	keystroke_n	n	n/a
588.1175	0.18	1176235	keystroke_a	a	n/a
588.2675	0.135	1176535	keystroke_Key.space	Key.space	n/a
588.8375	0.195	1177675	keystroke_c	c	n/a
588.9275	0.12	1177855	keystroke_o	o	n/a
589.1375	0.12	1178275	keystroke_n	n	n/a
589.3325	0.135	1178665	keystroke_n	n	n/a
589.4225	0.09	1178845	keystroke_e	e	n/a
589.6475	0.15	1179295	keystroke_c	c	n/a
589.8725	0.18	1179745	keystroke_t	t	n/a
590.0825	0.09	1180165	keystroke_e	e	n/a
590.2925	0.165	1180585	keystroke_d	d	n/a
590.4125	0.135	1180825	keystroke_Key.space	Key.space	n/a
590.6075	0.165	1181215	keystroke_p	p	n/a
590.7425	0.15	1181485	keystroke_r	r	n/a
590.8775	0.165	1181755	keystroke_o	o	n/a
591.0575	0.12	1182115	keystroke_c	c	n/a
591.2975	0.105	1182595	keystroke_e	e	n/a
591.4775	0.09	1182955	keystroke_e	e	n/a
591.6725	0.12	1183345	keystroke_d	d	n/a
591.8675	0.15	1183735	keystroke_s	s	n/a
592.2125	0.15	1184425	keystroke_Key.enter	Key.enter	n/a
592.3765	7.6155	1184753	prompt	n/a	sets investing kinase moms\n
593.0975	0.18	1186195	keystroke_s	s	n/a
593.2175	0.135	1186435	keystroke_e	e	n/a
593.4425	0.1355	1186885	keystroke_t	t	n/a
593.668	0.18	1187336	keystroke_s	s	n/a
593.833	0.12	1187666	keystroke_Key.space	Key.space	n/a
593.968	0.165	1187936	keystroke_i	i	n/a
594.088	0.15	1188176	keystroke_n	n	n/a
594.223	0.18	1188446	keystroke_v	v	n/a
594.388	0.165	1188776	keystroke_e	e	n/a
594.928	0.18	1189856	keystroke_s	s	n/a
595.108	0.165	1190216	keystroke_t	t	n/a
595.228	0.135	1190456	keystroke_i	i	n/a
595.423	0.15	1190846	keystroke_n	n	n/a
595.543	0.195	1191086	keystroke_g	g	n/a
595.678	0.12	1191356	keystroke_Key.space	Key.space	n/a
595.948	0.105	1191896	keystroke_k	k	n/a
596.158	0.12	1192316	keystroke_i	i	n/a
596.293	0.165	1192586	keystroke_n	n	n/a
596.473	0.135	1192946	keystroke_a	a	n/a
