onset	duration	sample	value	key	prompt_text
9.2835	9.7495	18567	prompt	n/a	the quick brown fox jumps over a lazy dog\n
10.976	0.029	21952	keystroke_t	t	n/a
11.035	0.09	22070	keystroke_h	h	n/a
11.155	0.135	22310	keystroke_e	e	n/a
11.275	0.09	22550	keystroke_Key.space	Key.space	n/a
11.47	0.12	22940	keystroke_q	q	n/a
11.65	0.09	23300	keystroke_u	u	n/a
11.8595	0.0905	23719	keystroke_i	i	n/a
12.0245	0.0905	24049	keystroke_c	c	n/a
12.1445	0.1055	24289	keystroke_k	k	n/a
12.2795	0.1055	24559	keystroke_Key.space	Key.space	n/a
12.49	0.075	24980	keystroke_b	b	n/a
12.625	0.09	25250	keystroke_r	r	n/a
12.745	0.075	25490	keystroke_o	o	n/a
12.895	0.12	25790	keystroke_w	w	n/a
13.03	0.09	26060	keystroke_n	n	n/a
13.12	0.09	26240	keystroke_Key.space	Key.space	n/a
13.6605	0.075	27321	keystroke_f	f	n/a
14.4405	0.074	28881	keystroke_o	o	n/a
14.6195	0.1055	29239	keystroke_x	x	n/a
14.815	0.0895	29630	keystroke_Key.space	Key.space	n/a
15.0845	0.09	30169	keystroke_j	j	n/a
15.2645	0.0755	30529	keystroke_u	u	n/a
15.5045	0.0605	31009	keystroke_m	m	n/a
16.255	0.12	32510	keystroke_p	p	n/a
16.4195	0.12	32839	keystroke_s	s	n/a
16.5245	0.1205	33049	keystroke_Key.space	Key.space	n/a
16.7205	0.1045	33441	keystroke_o	o	n/a
16.885	0.09	33770	keystroke_v	v	n/a
17.155	0.105	34310	keystroke_e	e	n/a
17.215	0.135	34430	keystroke_r	r	n/a
17.305	0.135	34610	keystroke_Key.space	Key.space	n/a
17.455	0.12	34910	keystroke_a	a	n/a
17.515	0.15	35030	keystroke_Key.space	Key.space	n/a
17.695	0.1055	35390	keystroke_l	l	n/a
17.83	0.1045	35660	keystroke_a	a	n/a
18.085	0.1055	36170	keystroke_z	z	n/a
18.2205	0.0895	36441	keystroke_y	y	n/a
18.355	0.15	36710	keystroke_Key.space	Key.space	n/a
18.52	0.09	37040	keystroke_d	d	n/a
18.64	0.075	37280	keystroke_o	o	n/a
18.775	0.09	37550	keystroke_g	g	n/a
18.955	0.075	37910	keystroke_Key.enter	Key.enter	n/a
19.0395	8.752	38079	prompt	n/a	challenge insured cayman infection\n
19.75	0.075	39500	keystroke_c	c	n/a
19.855	0.045	39710	keystroke_h	h	n/a
19.96	0.06	39920	keystroke_a	a	n/a
20.14	0.075	40280	keystroke_l	l	n/a
20.29	0.09	40580	keystroke_l	l	n/a
20.59	0.0895	41180	keystroke_e	e	n/a
20.6955	0.075	41391	keystroke_n	n	n/a
20.8445	0.105	41689	keystroke_g	g	n/a
20.9795	0.1205	41959	keystroke_e	e	n/a
21.0695	0.135	42139	keystroke_Key.space	Key.space	n/a
21.3105	0.0895	42621	keystroke_i	i	n/a
21.55	0.06	43100	keystroke_n	n	n/a
21.6855	0.1195	43371	keystroke_s	s	n/a
21.97	0.06	43940	keystroke_r	r	n/a
22.015	0.1045	44030	keystroke_u	u	n/a
22.3445	0.06	44689	keystroke_Key.backspace	Key.backspace	n/a
22.4645	0.075	44929	keystroke_Key.backspace	Key.backspace	n/a
23.079	0.106	46158	keystroke_u	u	n/a
23.214	0.135	46428	keystroke_r	r	n/a
23.334	0.121	46668	keystroke_e	e	n/a
23.5745	0.12	47149	keystroke_d	d	n/a
23.6795	0.0895	47359	keystroke_Key.space	Key.space	n/a
24.25	0.12	48500	keystroke_c	c	n/a
24.3855	0.1045	48771	keystroke_a	a	n/a
24.535	0.075	49070	keystroke_y	y	n/a
24.8205	0.0895	49641	keystroke_m	m	n/a
25.0305	0.119	50061	keystroke_a	a	n/a
25.1505	0.074	50301	keystroke_n	n	n/a
25.2695	0.105	50539	keystroke_Key.space	Key.space	n/a
25.5995	0.135	51199	keystroke_i	i	n/a
25.675	0.1045	51350	keystroke_n	n	n/a
25.7645	0.1205	51529	keystroke_f	f	n/a
25.975	0.1055	51950	keystroke_e	e	n/a
26.2145	0.091	52429	keystroke_c	c	n/a
26.5	0.0745	53000	keystroke_t	t	n/a
26.8895	0.105	53779	keystroke_i	i	n/a
27.1755	0.179	54351	keystroke_o	o	n/a
27.31	0.1045	54620	keystroke_n	n	n/a
27.7295	0.0595	55459	keystroke_Key.enter	Key.enter	n/a
27.795	6.852	55590	prompt	n/a	destroyed rankings goal employed\n
28.4205	0.089	56841	keystroke_d	d	n/a
28.6145	0.09	57229	keystroke_e	e	n/a
28.825	0.1195	57650	keystroke_s	s	n/a
29.065	0.12	58130	keystroke_t	t	n/a
29.1395	0.151	58279	keystroke_r	r	n/a
29.335	0.089	58670	keystroke_o	o	n/a
29.62	0.09	59240	keystroke_y	y	n/a
29.8155	0.059	59631	keystroke_e	e	n/a
29.995	0.1045	59990	keystroke_d	d	n/a
30.0845	0.1055	60169	keystroke_Key.space	Key.space	n/a
30.2805	0.1195	60561	keystroke_r	r	n/a
30.4	0.105	60800	keystroke_a	a	n/a
30.49	0.0905	60980	keystroke_n	n	n/a
30.6705	0.0905	61341	keystroke_k	k	n/a
30.9405	0.105	61881	keystroke_i	i	n/a
31	0.1355	62000	keystroke_n	n	n/a
31.105	0.1355	62210	keystroke_g	g	n/a
31.2105	0.12	62421	keystroke_s	s	n/a
31.2705	0.1185	62541	keystroke_Key.space	Key.space	n/a
31.5395	0.09	63079	keystroke_g	g	n/a
31.645	0.1045	63290	keystroke_o	o	n/a
31.7195	0.12	63439	keystroke_a	a	n/a
31.885	0.09	63770	keystroke_l	l	n/a
31.945	0.1045	63890	keystroke_Key.space	Key.space	n/a
32.1705	0.105	64341	keystroke_e	e	n/a
32.2595	0.09	64519	keystroke_m	m	n/a
33.4605	0.165	66921	keystroke_p	p	n/a
33.5805	0.0895	67161	keystroke_l	l	n/a
33.7905	0.075	67581	keystroke_o	o	n/a
34.09	0.09	68180	keystroke_y	y	n/a
34.195	0.06	68390	keystroke_e	e	n/a
34.39	0.0755	68780	keystroke_d	d	n/a
34.5545	0.0905	69109	keystroke_Key.enter	Key.enter	n/a
34.6525	10.81	69305	prompt	n/a	primarily punishment tripadvisor static\n
35.5905	0.0745	71181	keystroke_o	o	n/a
35.995	0.045	71990	keystroke_Key.backspace	Key.backspace	n/a
36.325	0.12	72650	keystroke_p	p	n/a
36.49	0.135	72980	keystroke_r	r	n/a
36.7005	0.1045	73401	keystroke_i	i	n/a
37.015	0.075	74030	keystroke_m	m	n/a
37.15	0.105	74300	keystroke_a	a	n/a
37.39	0.09	74780	keystroke_r	r	n/a
37.63	0.1195	75260	keystroke_i	i	n/a
37.8845	0.15	75769	keystroke_l	l	n/a
38.1695	0.0755	76339	keystroke_y	y	n/a
38.245	0.12	76490	keystroke_Key.space	Key.space	n/a
38.425	0.105	76850	keystroke_p	p	n/a
38.74	0.105	77480	keystroke_u	u	n/a
38.8005	0.1195	77601	keystroke_n	n	n/a
39.04	0.09	78080	keystroke_i	i	n/a
39.2055	0.089	78411	keystroke_s	s	n/a
39.3855	0.089	78771	keystroke_h	h	n/a
39.6555	0.0895	79311	keystroke_m	m	n/a
39.7755	0.1045	79551	keystroke_e	e	n/a
39.94	0.09	79880	keystroke_n	n	n/a
40.12	0.09	80240	keystroke_t	t	n/a
40.18	0.105	80360	keystroke_Key.space	Key.space	n/a
40.5545	0.136	81109	keystroke_t	t	n/a
40.6595	0.121	81319	keystroke_r	r	n/a
40.87	0.1205	81740	keystroke_i	i	n/a
41.17	0.105	82340	keystroke_p	p	n/a
41.726	0.044	83452	keystroke_a	a	n/a
42.4445	0.076	84889	keystroke_d	d	n/a
42.64	0.0895	85280	keystroke_v	v	n/a
42.7905	0.105	85581	keystroke_i	i	n/a
42.9395	0.105	85879	keystroke_s	s	n/a
43.0745	0.09	86149	keystroke_o	o	n/a
43.2555	0.089	86511	keystroke_r	r	n/a
43.3745	0.12	86749	keystroke_Key.space	Key.space	n/a
43.9905	0.104	87981	keystroke_s	s	n/a
44.2595	0.075	88519	keystroke_t	t	n/a
44.3795	0.1355	88759	keystroke_a	a	n/a
44.4845	0.09	88969	keystroke_t	t	n/a
44.86	0.09	89720	keystroke_i	i	n/a
45.0405	0.075	90081	keystroke_c	c	n/a
45.34	0.12	90680	keystroke_Key.enter	Key.enter	n/a
45.467	5.665	90934	prompt	n/a	construct editions payment to\n
46.5255	0.1495	93051	keystroke_c	c	n/a
46.69	0.0905	93380	keystroke_o	o	n/a
46.75	0.12	93500	keystroke_n	n	n/a
46.885	0.135	93770	keystroke_s	s	n/a
47.155	0.1355	94310	keystroke_t	t	n/a
47.275	0.12	94550	keystroke_r	r	n/a
47.515	0.09	95030	keystroke_u	u	n/a
47.6655	0.0895	95331	keystroke_c	c	n/a
47.92	0.1205	95840	keystroke_t	t	n/a
48.0105	0.12	96021	keystroke_Key.space	Key.space	n/a
48.2205	0.075	96441	keystroke_e	e	n/a
48.4155	0.09	96831	keystroke_d	d	n/a
48.58	0.1055	97160	keystroke_i	i	n/a
48.7445	0.076	97489	keystroke_t	t	n/a
48.88	0.0895	97760	keystroke_i	i	n/a
49.12	0.1195	98240	keystroke_o	o	n/a
49.2095	0.1205	98419	keystroke_n	n	n/a
49.315	0.12	98630	keystroke_s	s	n/a
49.39	0.12	98780	keystroke_Key.space	Key.space	n/a
49.5845	0.1055	99169	keystroke_p	p	n/a
49.7195	0.1065	99439	keystroke_a	a	n/a
49.931	0.074	99862	keystroke_y	y	n/a
50.185	0.0895	100370	keystroke_m	m	n/a
50.305	0.106	100610	keystroke_e	e	n/a
50.4255	0.074	100851	keystroke_n	n	n/a
50.53	0.0745	101060	keystroke_t	t	n/a
50.5895	0.1355	101179	keystroke_Key.space	Key.space	n/a
50.6945	0.09	101389	keystroke_t	t	n/a
50.8445	0.09	101689	keystroke_o	o	n/a
51.0395	0.09	102079	keystroke_Key.enter	Key.enter	n/a
51.137	10.196	102274	prompt	n/a	firmware provincial hurricane browsers\n
51.925	0.1055	103850	keystroke_f	f	n/a
52.0605	0.075	104121	keystroke_i	i	n/a
52.1655	0.075	104331	keystroke_r	r	n/a
52.36	0.076	104720	keystroke_m	m	n/a
52.5695	0.301	105139	keystroke_w	w	n/a
53.1855	0.075	106371	keystroke_a	a	n/a
53.41	0.135	106820	keystroke_r	r	n/a
53.5305	0.1195	107061	keystroke_e	e	n/a
53.62	0.105	107240	keystroke_Key.space	Key.space	n/a
53.95	0.09	107900	keystroke_p	p	n/a
54.0855	0.09	108171	keystroke_r	r	n/a
54.205	0.076	108410	keystroke_o	o	n/a
54.4755	0.1045	108951	keystroke_v	v	n/a
54.685	0.075	109370	keystroke_i	i	n/a
54.85	0.09	109700	keystroke_n	n	n/a
55.3155	0.0895	110631	keystroke_c	c	n/a
55.4205	0.09	110841	keystroke_i	i	n/a
55.6595	0.1055	111319	keystroke_a	a	n/a
55.8695	0.091	111739	keystroke_l	l	n/a
56.0655	0.089	112131	keystroke_Key.space	Key.space	n/a
56.6805	0.135	113361	keystroke_h	h	n/a
56.8905	0.0905	113781	keystroke_u	u	n/a
57.0105	0.045	114021	keystroke_r	r	n/a
57.1155	0.09	114231	keystroke_r	r	n/a
57.281	0.1045	114562	keystroke_i	i	n/a
57.5355	0.0895	115071	keystroke_c	c	n/a
57.6855	0.135	115371	keystroke_a	a	n/a
57.985	0.06	115970	keystroke_e	e	n/a
58.1055	0.0445	116211	keystroke_n	n	n/a
58.525	0.0755	117050	keystroke_Key.backspace	Key.backspace	n/a
58.66	0.09	117320	keystroke_Key.backspace	Key.backspace	n/a
58.9595	0.091	117919	keystroke_n	n	n/a
59.1095	0.105	118219	keystroke_e	e	n/a
59.1705	0.134	118341	keystroke_Key.space	Key.space	n/a
59.3805	0.09	118761	keystroke_b	b	n/a
59.515	0.1055	119030	keystroke_r	r	n/a
59.6655	0.12	119331	keystroke_o	o	n/a
59.845	0.0895	119690	keystroke_w	w	n/a
60.3705	0.0895	120741	keystroke_s	s	n/a
60.625	0.18	121250	keystroke_e	e	n/a
60.791	0.104	121582	keystroke_r	r	n/a
60.986	0.119	121972	keystroke_s	s	n/a
61.225	0.105	122450	keystroke_Key.enter	Key.enter	n/a
61.3375	8.5895	122675	prompt	n/a	simon strand sexuality bachelor\n
62.0655	0.09	124131	keystroke_s	s	n/a
62.2155	0.12	124431	keystroke_i	i	n/a
62.5005	0.1055	125001	keystroke_m	m	n/a
62.785	0.1205	125570	keystroke_o	o	n/a
62.8755	0.1045	125751	keystroke_n	n	n/a
62.995	0.135	125990	keystroke_Key.space	Key.space	n/a
63.145	0.105	126290	keystroke_s	s	n/a
63.3555	0.1345	126711	keystroke_t	t	n/a
63.475	0.12	126950	keystroke_r	r	n/a
63.79	0.135	127580	keystroke_a	a	n/a
63.9855	0.0895	127971	keystroke_n	n	n/a
64.09	0.1205	128180	keystroke_d	d	n/a
64.1805	0.1045	128361	keystroke_Key.space	Key.space	n/a
64.39	0.105	128780	keystroke_s	s	n/a
64.63	0.06	129260	keystroke_e	e	n/a
64.8555	0.1045	129711	keystroke_x	x	n/a
65.125	0.09	130250	keystroke_u	u	n/a
65.32	0.105	130640	keystroke_a	a	n/a
65.4855	0.1045	130971	keystroke_l	l	n/a
65.74	0.09	131480	keystroke_i	i	n/a
65.8595	0.06	131719	keystroke_t	t	n/a
66.0405	0.104	132081	keystroke_y	y	n/a
66.1295	0.09	132259	keystroke_Key.space	Key.space	n/a
66.4895	0.0905	132979	keystroke_c	c	n/a
66.865	0.09	133730	keystroke_Key.backspace	Key.backspace	n/a
67.15	0.075	134300	keystroke_b	b	n/a
67.4205	0.104	134841	keystroke_a	a	n/a
67.6605	0.104	135321	keystroke_c	c	n/a
67.8255	0.089	135651	keystroke_h	h	n/a
68.08	0.1205	136160	keystroke_e	e	n/a
68.4255	0.105	136851	keystroke_l	l	n/a
68.7105	0.06	137421	keystroke_o	o	n/a
68.9655	0.075	137931	keystroke_r	r	n/a
69.1445	0.105	138289	keystroke_Key.space	Key.space	n/a
69.5795	0.06	139159	keystroke_Key.backspace	Key.backspace	n/a
69.8355	0.09	139671	keystroke_Key.enter	Key.enter	n/a
69.9345	6.5325	139869	prompt	n/a	dentists troy container makeup\n
70.735	0.0905	141470	keystroke_d	d	n/a
70.915	0.1045	141830	keystroke_e	e	n/a
71.0345	0.09	142069	keystroke_n	n	n/a
71.1395	0.105	142279	keystroke_t	t	n/a
71.3205	0.105	142641	keystroke_i	i	n/a
71.4545	0.105	142909	keystroke_s	s	n/a
71.6205	0.135	143241	keystroke_t	t	n/a
71.8005	0.0745	143601	keystroke_s	s	n/a
71.8595	0.105	143719	keystroke_Key.space	Key.space	n/a
72.0995	0.121	144199	keystroke_t	t	n/a
72.235	0.1055	144470	keystroke_r	r	n/a
72.5505	0.089	145101	keystroke_o	o	n/a
72.8505	0.09	145701	keystroke_y	y	n/a
72.985	0.075	145970	keystroke_Key.space	Key.space	n/a
73.1805	0.089	146361	keystroke_c	c	n/a
73.2845	0.106	146569	keystroke_o	o	n/a
73.3755	0.075	146751	keystroke_n	n	n/a
73.5245	0.12	147049	keystroke_t	t	n/a
73.9005	0.09	147801	keystroke_a	a	n/a
74.0805	0.134	148161	keystroke_i	i	n/a
74.2005	0.09	148401	keystroke_n	n	n/a
74.3955	0.15	148791	keystroke_e	e	n/a
74.5155	0.135	149031	keystroke_r	r	n/a
74.6795	0.091	149359	keystroke_Key.space	Key.space	n/a
74.9205	0.075	149841	keystroke_m	m	n/a
75.235	0.1055	150470	keystroke_a	a	n/a
75.385	0.1355	150770	keystroke_k	k	n/a
75.5645	0.105	151129	keystroke_e	e	n/a
75.805	0.09	151610	keystroke_u	u	n/a
76.09	0.0905	152180	keystroke_p	p	n/a
76.3445	0.1205	152689	keystroke_Key.enter	Key.enter	n/a
76.472	9.1595	152944	prompt	n/a	encountered participation exceed appreciate\n
77.1705	0.09	154341	keystroke_e	e	n/a
77.2455	0.0895	154491	keystroke_n	n	n/a
77.485	0.1055	154970	keystroke_c	c	n/a
77.6055	0.075	155211	keystroke_o	o	n/a
77.8755	0.0895	155751	keystroke_u	u	n/a
77.95	0.105	155900	keystroke_n	n	n/a
78.07	0.075	156140	keystroke_t	t	n/a
78.205	0.135	156410	keystroke_e	e	n/a
78.31	0.1055	156620	keystroke_r	r	n/a
78.775	0.09	157550	keystroke_e	e	n/a
78.9845	0.1205	157969	keystroke_d	d	n/a
79.075	0.1045	158150	keystroke_Key.space	Key.space	n/a
79.27	0.105	158540	keystroke_p	p	n/a
79.39	0.105	158780	keystroke_a	a	n/a
79.5705	0.0745	159141	keystroke_r	r	n/a
79.75	0.09	159500	keystroke_t	t	n/a
80.005	0.075	160010	keystroke_i	i	n/a
80.275	0.09	160550	keystroke_c	c	n/a
80.38	0.105	160760	keystroke_i	i	n/a
80.6805	0.0745	161361	keystroke_p	p	n/a
81.1605	0.105	162321	keystroke_a	a	n/a
81.4305	0.074	162861	keystroke_t	t	n/a
81.5505	0.104	163101	keystroke_i	i	n/a
81.8505	0.164	163701	keystroke_o	o	n/a
82.0005	0.104	164001	keystroke_n	n	n/a
82.1195	0.105	164239	keystroke_Key.space	Key.space	n/a
82.3305	0.0895	164661	keystroke_e	e	n/a
82.6	0.075	165200	keystroke_x	x	n/a
82.9005	0.0895	165801	keystroke_c	c	n/a
83.2145	0.0605	166429	keystroke_e	e	n/a
83.35	0.09	166700	keystroke_e	e	n/a
83.5605	0.12	167121	keystroke_d	d	n/a
83.6495	0.12	167299	keystroke_Key.space	Key.space	n/a
83.8745	0.0905	167749	keystroke_a	a	n/a
83.9945	0.091	167989	keystroke_p	p	n/a
84.145	0.105	168290	keystroke_p	p	n/a
84.2645	0.106	168529	keystroke_r	r	n/a
84.3395	0.121	168679	keystroke_e	e	n/a
84.73	0.105	169460	keystroke_c	c	n/a
84.865	0.09	169730	keystroke_i	i	n/a
85.0305	0.09	170061	keystroke_a	a	n/a
85.2555	0.12	170511	keystroke_t	t	n/a
85.3605	0.12	170721	keystroke_e	e	n/a
85.5255	0.104	171051	keystroke_Key.enter	Key.enter	n/a
85.6365	7.1955	171273	prompt	n/a	feeling enemy cologne alias\n
86.275	0.075	172550	keystroke_f	f	n/a
86.62	0.1055	173240	keystroke_e	e	n/a
86.815	0.075	173630	keystroke_l	l	n/a
86.8455	0.105	173691	keystroke_e	e	n/a
87.2805	0.0595	174561	keystroke_Key.backspace	Key.backspace	n/a
87.415	0.045	174830	keystroke_Key.backspace	Key.backspace	n/a
87.5055	0.09	175011	keystroke_e	e	n/a
87.7	0.075	175400	keystroke_l	l	n/a
88.09	0.12	176180	keystroke_i	i	n/a
88.18	0.105	176360	keystroke_n	n	n/a
88.3005	0.105	176601	keystroke_g	g	n/a
88.3745	0.1205	176749	keystroke_Key.space	Key.space	n/a
88.5405	0.105	177081	keystroke_e	e	n/a
88.6755	0.075	177351	keystroke_n	n	n/a
88.7645	0.076	177529	keystroke_e	e	n/a
89.0505	0.074	178101	keystroke_m	m	n/a
89.2455	0.105	178491	keystroke_y	y	n/a
89.3345	0.1505	178669	keystroke_Key.space	Key.space	n/a
89.6955	0.075	179391	keystroke_c	c	n/a
89.8305	0.075	179661	keystroke_o	o	n/a
90.0105	0.0895	180021	keystroke_l	l	n/a
90.2055	0.059	180411	keystroke_o	o	n/a
90.31	0.0905	180620	keystroke_g	g	n/a
90.5205	0.09	181041	keystroke_n	n	n/a
90.6555	0.12	181311	keystroke_e	e	n/a
90.76	0.1045	181520	keystroke_Key.space	Key.space	n/a
91.27	0.09	182540	keystroke_a	a	n/a
91.345	0.075	182690	keystroke_l	l	n/a
91.5555	0.075	183111	keystroke_i	i	n/a
91.6455	0.119	183291	keystroke_e	e	n/a
91.7495	0.09	183499	keystroke_a	a	n/a
92.23	0.015	184460	keystroke_Key.backspace	Key.backspace	n/a
92.275	0.075	184550	keystroke_Key.backspace	Key.backspace	n/a
92.395	0.09	184790	keystroke_a	a	n/a
92.606	0.0895	185212	keystroke_s	s	n/a
92.7405	0.0895	185481	keystroke_Key.enter	Key.enter	n/a
92.837	4.66	185674	prompt	n/a	annie cloud bullet swing\n
93.4605	0.1045	186921	keystroke_a	a	n/a
93.5805	0.0445	187161	keystroke_n	n	n/a
93.6855	0.0745	187371	keystroke_n	n	n/a
93.865	0.1055	187730	keystroke_i	i	n/a
93.9705	0.105	187941	keystroke_e	e	n/a
94.0445	0.151	188089	keystroke_Key.space	Key.space	n/a
94.435	0.105	188870	keystroke_c	c	n/a
94.555	0.09	189110	keystroke_l	l	n/a
94.735	0.0755	189470	keystroke_o	o	n/a
94.945	0.075	189890	keystroke_u	u	n/a
95.035	0.1345	190070	keystroke_d	d	n/a
95.1395	0.1205	190279	keystroke_Key.space	Key.space	n/a
95.3055	0.0445	190611	keystroke_b	b	n/a
95.5605	0.1045	191121	keystroke_u	u	n/a
95.875	0.06	191750	keystroke_l	l	n/a
95.995	0.09	191990	keystroke_l	l	n/a
96.1	0.105	192200	keystroke_e	e	n/a
96.2805	0.1195	192561	keystroke_t	t	n/a
96.355	0.1195	192710	keystroke_Key.space	Key.space	n/a
96.4905	0.1045	192981	keystroke_s	s	n/a
96.7	0.1055	193400	keystroke_w	w	n/a
96.91	0.1655	193820	keystroke_i	i	n/a
97.06	0.0755	194120	keystroke_n	n	n/a
97.1655	0.09	194331	keystroke_g	g	n/a
97.3905	0.1045	194781	keystroke_Key.enter	Key.enter	n/a
97.5015	4.241	195003	prompt	n/a	bars flat daddy chad\n
98.1105	0.089	196221	keystroke_b	b	n/a
98.1705	0.105	196341	keystroke_a	a	n/a
98.3505	0.12	196701	keystroke_r	r	n/a
98.5305	0.12	197061	keystroke_s	s	n/a
98.6355	0.09	197271	keystroke_Key.space	Key.space	n/a
98.8	0.1055	197600	keystroke_f	f	n/a
98.9645	0.0905	197929	keystroke_l	l	n/a
99.0855	0.1195	198171	keystroke_a	a	n/a
99.3255	0.0895	198651	keystroke_t	t	n/a
99.4	0.09	198800	keystroke_Key.space	Key.space	n/a
99.7305	0.104	199461	keystroke_d	d	n/a
99.956	0.0895	199912	keystroke_a	a	n/a
100.09	0.0745	200180	keystroke_d	d	n/a
100.24	0.0895	200480	keystroke_d	d	n/a
100.4205	0.075	200841	keystroke_y	y	n/a
100.5095	0.1055	201019	keystroke_Key.space	Key.space	n/a
100.9605	0.09	201921	keystroke_c	c	n/a
101.0645	0.091	202129	keystroke_h	h	n/a
101.2	0.1045	202400	keystroke_a	a	n/a
101.41	0.0895	202820	keystroke_d	d	n/a
101.6495	0.09	203299	keystroke_Key.enter	Key.enter	n/a
101.746	4.421	203492	prompt	n/a	rack ensures each sigma\n
102.49	0.09	204980	keystroke_r	r	n/a
102.61	0.12	205220	keystroke_a	a	n/a
102.8505	0.0755	205701	keystroke_c	c	n/a
102.94	0.09	205880	keystroke_k	k	n/a
103.045	0.105	206090	keystroke_Key.space	Key.space	n/a
103.195	0.1055	206390	keystroke_e	e	n/a
103.301	0.074	206602	keystroke_n	n	n/a
103.405	0.105	206810	keystroke_s	s	n/a
103.5405	0.09	207081	keystroke_u	u	n/a
103.66	0.1355	207320	keystroke_r	r	n/a
103.7805	0.12	207561	keystroke_e	e	n/a
103.8855	0.12	207771	keystroke_s	s	n/a
103.9895	0.09	207979	keystroke_Key.space	Key.space	n/a
104.2155	0.075	208431	keystroke_e	e	n/a
104.3805	0.119	208761	keystroke_a	a	n/a
104.6055	0.09	209211	keystroke_c	c	n/a
104.7405	0.0895	209481	keystroke_h	h	n/a
104.86	0.135	209720	keystroke_Key.space	Key.space	n/a
104.9805	0.1345	209961	keystroke_s	s	n/a
105.145	0.1055	210290	keystroke_i	i	n/a
105.2805	0.1045	210561	keystroke_g	g	n/a
105.655	0.075	211310	keystroke_m	m	n/a
105.85	0.105	211700	keystroke_a	a	n/a
106.06	0.1055	212120	keystroke_Key.enter	Key.enter	n/a
106.172	8.95	212344	prompt	n/a	management slope edition elements\n
106.8545	0.091	213709	keystroke_m	m	n/a
106.9305	0.074	213861	keystroke_a	a	n/a
107.0495	0.075	214099	keystroke_n	n	n/a
107.0655	0.12	214131	keystroke_a	a	n/a
107.321	0.0595	214642	keystroke_g	g	n/a
107.5755	0.0595	215151	keystroke_m	m	n/a
107.6205	0.12	215241	keystroke_e	e	n/a
107.9645	0.0755	215929	keystroke_Key.backspace	Key.backspace	n/a
108.1145	0.06	216229	keystroke_Key.backspace	Key.backspace	n/a
108.2055	0.089	216411	keystroke_e	e	n/a
108.4305	0.059	216861	keystroke_m	m	n/a
108.5345	0.1055	217069	keystroke_e	e	n/a
108.7595	0.076	217519	keystroke_n	n	n/a
109.165	0.1055	218330	keystroke_t	t	n/a
109.2845	0.076	218569	keystroke_Key.space	Key.space	n/a
109.4805	0.105	218961	keystroke_s	s	n/a
109.6445	0.1055	219289	keystroke_l	l	n/a
110.215	0.105	220430	keystroke_o	o	n/a
110.4705	0.105	220941	keystroke_p	p	n/a
110.695	0.12	221390	keystroke_e	e	n/a
110.83	0.075	221660	keystroke_Key.space	Key.space	n/a
111.22	0.0905	222440	keystroke_e	e	n/a
111.445	0.09	222890	keystroke_d	d	n/a
111.595	0.105	223190	keystroke_i	i	n/a
111.82	0.0905	223640	keystroke_t	t	n/a
111.9555	0.074	223911	keystroke_i	i	n/a
112.2405	0.135	224481	keystroke_n	n	n/a
112.7045	0.09	225409	keystroke_Key.backspace	Key.backspace	n/a
113.0505	0.1495	226101	keystroke_o	o	n/a
113.17	0.1205	226340	keystroke_n	n	n/a
113.26	0.15	226520	keystroke_Key.space	Key.space	n/a
113.4555	0.105	226911	keystroke_e	e	n/a
113.6205	0.075	227241	keystroke_l	l	n/a
113.6655	0.09	227331	keystroke_e	e	n/a
114.19	0.075	228380	keystroke_m	m	n/a
114.37	0.105	228740	keystroke_e	e	n/a
114.505	0.0755	229010	keystroke_n	n	n/a
114.6855	0.1195	229371	keystroke_t	t	n/a
114.835	0.1355	229670	keystroke_s	s	n/a
115.03	0.09	230060	keystroke_Key.enter	Key.enter	n/a
115.126	5.726	230252	prompt	n/a	canvas death meta problems\n
115.75	0.075	231500	keystroke_c	c	n/a
115.99	0.121	231980	keystroke_a	a	n/a
116.17	0.09	232340	keystroke_n	n	n/a
116.635	0.075	233270	keystroke_v	v	n/a
116.815	0.105	233630	keystroke_a	a	n/a
117.161	0.0745	234322	keystroke_s	s	n/a
117.295	0.1045	234590	keystroke_Key.space	Key.space	n/a
117.6095	0.075	235219	keystroke_d	d	n/a
117.8345	0.09	235669	keystroke_e	e	n/a
117.9255	0.135	235851	keystroke_a	a	n/a
118.1205	0.089	236241	keystroke_t	t	n/a
118.2555	0.075	236511	keystroke_h	h	n/a
118.3455	0.089	236691	keystroke_Key.space	Key.space	n/a
118.5695	0.076	237139	keystroke_m	m	n/a
118.87	0.1355	237740	keystroke_e	e	n/a
119.1105	0.105	238221	keystroke_t	t	n/a
119.2455	0.119	238491	keystroke_a	a	n/a
119.3805	0.104	238761	keystroke_Key.space	Key.space	n/a
119.5445	0.09	239089	keystroke_p	p	n/a
119.7095	0.061	239419	keystroke_r	r	n/a
119.7995	0.091	239599	keystroke_o	o	n/a
120.0855	0.09	240171	keystroke_b	b	n/a
120.2205	0.09	240441	keystroke_l	l	n/a
120.3695	0.0755	240739	keystroke_e	e	n/a
120.49	0.075	240980	keystroke_m	m	n/a
120.595	0.105	241190	keystroke_s	s	n/a
120.76	0.09	241520	keystroke_Key.enter	Key.enter	n/a
120.8565	7.66	241713	prompt	n/a	divided wyoming benefits deaf\n
121.6005	0.045	243201	keystroke_d	d	n/a
121.66	0.0155	243320	keystroke_i	i	n/a
121.69	0.0905	243380	keystroke_v	v	n/a
121.84	0.0905	243680	keystroke_i	i	n/a
121.9905	0.105	243981	keystroke_d	d	n/a
122.3195	0.076	244639	keystroke_e	e	n/a
122.5755	0.12	245151	keystroke_d	d	n/a
122.8305	0.1045	245661	keystroke_Key.space	Key.space	n/a
123.5945	0.12	247189	keystroke_w	w	n/a
123.8205	0.074	247641	keystroke_y	y	n/a
124.4805	0.105	248961	keystroke_o	o	n/a
124.7345	0.106	249469	keystroke_m	m	n/a
125.05	0.1355	250100	keystroke_i	i	n/a
125.1545	0.121	250309	keystroke_n	n	n/a
125.3205	0.1345	250641	keystroke_g	g	n/a
125.4095	0.1055	250819	keystroke_Key.space	Key.space	n/a
125.965	0.09	251930	keystroke_b	b	n/a
126.085	0.091	252170	keystroke_e	e	n/a
126.2205	0.089	252441	keystroke_n	n	n/a
126.37	0.075	252740	keystroke_e	e	n/a
126.6855	0.105	253371	keystroke_f	f	n/a
126.8655	0.105	253731	keystroke_i	i	n/a
127.045	0.09	254090	keystroke_t	t	n/a
127.2105	0.135	254421	keystroke_s	s	n/a
127.3895	0.1205	254779	keystroke_Key.space	Key.space	n/a
127.705	0.1055	255410	keystroke_d	d	n/a
127.945	0.1345	255890	keystroke_e	e	n/a
128.0645	0.15	256129	keystroke_a	a	n/a
128.1995	0.105	256399	keystroke_f	f	n/a
128.41	0.105	256820	keystroke_Key.enter	Key.enter	n/a
128.52	13.347	257040	prompt	n/a	authorization generates country faith\n
129.22	0.0905	258440	keystroke_a	a	n/a
129.325	0.1055	258650	keystroke_u	u	n/a
129.505	0.105	259010	keystroke_t	t	n/a
129.595	0.075	259190	keystroke_h	h	n/a
129.8355	0.089	259671	keystroke_o	o	n/a
129.985	0.0755	259970	keystroke_r	r	n/a
130.1205	0.09	260241	keystroke_i	i	n/a
130.3605	0.09	260721	keystroke_z	z	n/a
130.5855	0.06	261171	keystroke_a	a	n/a
130.7955	0.09	261591	keystroke_t	t	n/a
130.9005	0.09	261801	keystroke_i	i	n/a
131.11	0.1205	262220	keystroke_o	o	n/a
131.2	0.1055	262400	keystroke_n	n	n/a
131.32	0.0905	262640	keystroke_Key.space	Key.space	n/a
131.695	0.09	263390	keystroke_g	g	n/a
131.86	0.09	263720	keystroke_e	e	n/a
131.9805	0.0895	263961	keystroke_n	n	n/a
132.0855	0.15	264171	keystroke_e	e	n/a
132.1905	0.1195	264381	keystroke_r	r	n/a
132.325	0.12	264650	keystroke_a	a	n/a
132.5655	0.09	265131	keystroke_t	t	n/a
132.6705	0.09	265341	keystroke_e	e	n/a
133.135	0.15	266270	keystroke_s	s	n/a
133.2855	0.0895	266571	keystroke_Key.space	Key.space	n/a
133.81	0.105	267620	keystroke_c	c	n/a
133.9	0.0755	267800	keystroke_o	o	n/a
134.125	0.09	268250	keystroke_u	u	n/a
134.155	0.12	268310	keystroke_n	n	n/a
134.245	0.105	268490	keystroke_t	t	n/a
134.485	0.06	268970	keystroke_y	y	n/a
134.5005	0.0745	269001	keystroke_Key.space	Key.space	n/a
135.4905	0.075	270981	keystroke_Key.backspace	Key.backspace	n/a
135.6245	0.091	271249	keystroke_Key.backspace	Key.backspace	n/a
136.1805	0.075	272361	keystroke_y	y	n/a
136.7195	0.015	273439	keystroke_=	=	n/a
136.9905	0.044	273981	keystroke_Key.backspace	Key.backspace	n/a
137.0945	0.076	274189	keystroke_Key.backspace	Key.backspace	n/a
137.8155	0.1045	275631	keystroke_r	r	n/a
137.935	0.075	275870	keystroke_y	y	n/a
138.115	0.1205	276230	keystroke_Key.space	Key.space	n/a
138.415	0.1355	276830	keystroke_f	f	n/a
138.58	0.12	277160	keystroke_a	a	n/a
138.85	0.06	277700	keystroke_t	t	n/a
139.105	0.09	278210	keystroke_h	h	n/a
139.465	0.06	278930	keystroke_Key.backspace	Key.backspace	n/a
139.585	0.06	279170	keystroke_Key.backspace	Key.backspace	n/a
139.856	0.089	279712	keystroke_u	u	n/a
140.0055	0.09	280011	keystroke_t	t	n/a
140.125	0.09	280250	keystroke_h	h	n/a
140.4845	0.076	280969	keystroke_Key.backspace	Key.backspace	n/a
140.635	0.075	281270	keystroke_Key.backspace	Key.backspace	n/a
140.77	0.075	281540	keystroke_Key.backspace	Key.backspace	n/a
141.3255	0.0595	282651	keystroke_i	i	n/a
141.43	0.1055	282860	keystroke_t	t	n/a
141.551	0.059	283102	keystroke_h	h	n/a
141.76	0.1055	283520	keystroke_Key.enter	Key.enter	n/a
141.873	8.3935	283746	prompt	n/a	aboriginal sampling harbor passive\n
142.7045	0.1055	285409	keystroke_a	a	n/a
142.8245	0.09	285649	keystroke_b	b	n/a
143.0805	0.089	286161	keystroke_o	o	n/a
143.2155	0.089	286431	keystroke_r	r	n/a
143.4105	0.044	286821	keystroke_i	i	n/a
143.8445	0.106	287689	keystroke_g	g	n/a
143.9955	0.12	287991	keystroke_i	i	n/a
144.085	0.0905	288170	keystroke_n	n	n/a
144.1755	0.119	288351	keystroke_a	a	n/a
144.3405	0.1045	288681	keystroke_l	l	n/a
144.46	0.1045	288920	keystroke_Key.space	Key.space	n/a
144.835	0.06	289670	keystroke_s	s	n/a
145	0.075	290000	keystroke_a	a	n/a
145.12	0.09	290240	keystroke_m	m	n/a
145.735	0.15	291470	keystroke_p	p	n/a
145.855	0.105	291710	keystroke_l	l	n/a
146.1995	0.121	292399	keystroke_i	i	n/a
146.29	0.1205	292580	keystroke_n	n	n/a
146.3955	0.1195	292791	keystroke_g	g	n/a
146.47	0.135	292940	keystroke_Key.space	Key.space	n/a
147.0405	0.09	294081	keystroke_h	h	n/a
147.1455	0.105	294291	keystroke_a	a	n/a
147.3695	0.09	294739	keystroke_r	r	n/a
147.8205	0.0895	295641	keystroke_b	b	n/a
148.12	0.105	296240	keystroke_o	o	n/a
148.3	0.135	296600	keystroke_r	r	n/a
148.42	0.1055	296840	keystroke_Key.space	Key.space	n/a
148.705	0.1055	297410	keystroke_p	p	n/a
148.7945	0.075	297589	keystroke_a	a	n/a
148.99	0.06	297980	keystroke_s	s	n/a
149.44	0.15	298880	keystroke_s	s	n/a
149.62	0.09	299240	keystroke_i	i	n/a
149.785	0.0905	299570	keystroke_v	v	n/a
149.98	0.1205	299960	keystroke_e	e	n/a
150.16	0.104	300320	keystroke_Key.enter	Key.enter	n/a
150.2705	7.8715	300541	prompt	n/a	intranet change bonds kernel\n
150.9405	0.09	301881	keystroke_i	i	n/a
151.0305	0.1045	302061	keystroke_n	n	n/a
151.1955	0.0895	302391	keystroke_t	t	n/a
151.4345	0.1355	302869	keystroke_r	r	n/a
151.585	0.12	303170	keystroke_a	a	n/a
151.885	0.09	303770	keystroke_n	n	n/a
152.335	0.12	304670	keystroke_e	e	n/a
152.515	0.12	305030	keystroke_t	t	n/a
152.62	0.12	305240	keystroke_Key.space	Key.space	n/a
152.9355	0.1045	305871	keystroke_c	c	n/a
153.055	0.1045	306110	keystroke_h	h	n/a
153.1895	0.1205	306379	keystroke_a	a	n/a
153.3545	0.135	306709	keystroke_n	n	n/a
153.5945	0.135	307189	keystroke_g	g	n/a
153.715	0.1195	307430	keystroke_e	e	n/a
153.8055	0.1195	307611	keystroke_Key.space	Key.space	n/a
154.045	0.0745	308090	keystroke_b	b	n/a
155.5455	0.165	311091	keystroke_o	o	n/a
155.6505	0.1045	311301	keystroke_n	n	n/a
155.74	0.1645	311480	keystroke_d	d	n/a
155.8745	0.1055	311749	keystroke_s	s	n/a
156.025	0.105	312050	keystroke_Key.space	Key.space	n/a
156.565	0.105	313130	keystroke_k	k	n/a
156.685	0.12	313370	keystroke_e	e	n/a
156.775	0.135	313550	keystroke_r	r	n/a
156.9555	0.105	313911	keystroke_n	n	n/a
157.1045	0.1205	314209	keystroke_a	a	n/a
157.5395	0.0605	315079	keystroke_Key.backspace	Key.backspace	n/a
157.6605	0.105	315321	keystroke_e	e	n/a
157.8095	0.0905	315619	keystroke_l	l	n/a
158.035	0.105	316070	keystroke_Key.enter	Key.enter	n/a
158.1475	8.739	316295	prompt	n/a	fisher alpha had occurred\n
158.89	0.135	317780	keystroke_f	f	n/a
158.9955	0.104	317991	keystroke_i	i	n/a
159.115	0.1205	318230	keystroke_s	s	n/a
159.2495	0.09	318499	keystroke_h	h	n/a
159.415	0.18	318830	keystroke_e	e	n/a
159.5645	0.15	319129	keystroke_r	r	n/a
159.6545	0.12	319309	keystroke_Key.space	Key.space	n/a
159.8795	0.105	319759	keystroke_a	a	n/a
160.3595	0.105	320719	keystroke_p	p	n/a
160.8545	0.1055	321709	keystroke_Key.backspace	Key.backspace	n/a
161.1545	0.091	322309	keystroke_l	l	n/a
161.815	0.0905	323630	keystroke_p	p	n/a
162.0545	0.0755	324109	keystroke_h	h	n/a
162.4895	0.0755	324979	keystroke_a	a	n/a
162.625	0.105	325250	keystroke_Key.space	Key.space	n/a
163	0.105	326000	keystroke_h	h	n/a
163.09	0.105	326180	keystroke_a	a	n/a
163.645	0.135	327290	keystroke_d	d	n/a
163.765	0.09	327530	keystroke_Key.space	Key.space	n/a
164.02	0.105	328040	keystroke_o	o	n/a
164.14	0.0745	328280	keystroke_c	c	n/a
164.2755	0.0895	328551	keystroke_c	c	n/a
164.4395	0.076	328879	keystroke_u	u	n/a
164.5445	0.151	329089	keystroke_r	r	n/a
165.25	0.105	330500	keystroke_r	r	n/a
166.195	0.0595	332390	keystroke_e	e	n/a
166.375	0.09	332750	keystroke_d	d	n/a
166.75	0.135	333500	keystroke_Key.enter	Key.enter	n/a
166.896	8.7055	333792	prompt	n/a	laughing thumbzilla interaction warranties\n
167.769	0.106	335538	keystroke_l	l	n/a
167.89	0.105	335780	keystroke_a	a	n/a
168.025	0.12	336050	keystroke_u	u	n/a
168.265	0.045	336530	keystroke_g	g	n/a
168.43	0.075	336860	keystroke_h	h	n/a
168.7745	0.18	337549	keystroke_i	i	n/a
168.91	0.09	337820	keystroke_n	n	n/a
169.015	0.1345	338030	keystroke_g	g	n/a
169.09	0.1195	338180	keystroke_Key.space	Key.space	n/a
169.45	0.0895	338900	keystroke_t	t	n/a
169.5105	0.09	339021	keystroke_h	h	n/a
169.7345	0.1055	339469	keystroke_u	u	n/a
169.9905	0.074	339981	keystroke_m	m	n/a
170.2005	0.06	340401	keystroke_b	b	n/a
170.695	0.105	341390	keystroke_z	z	n/a
170.935	0.0895	341870	keystroke_i	i	n/a
171.1745	0.076	342349	keystroke_l	l	n/a
171.3255	0.0895	342651	keystroke_l	l	n/a
171.505	0.105	343010	keystroke_a	a	n/a
171.565	0.12	343130	keystroke_Key.space	Key.space	n/a
171.8355	0.105	343671	keystroke_i	i	n/a
171.91	0.0755	343820	keystroke_n	n	n/a
172.0145	0.106	344029	keystroke_t	t	n/a
172.1495	0.166	344299	keystroke_e	e	n/a
172.2395	0.166	344479	keystroke_r	r	n/a
172.4505	0.12	344901	keystroke_a	a	n/a
172.719	0.0765	345438	keystroke_c	c	n/a
172.9755	0.0895	345951	keystroke_t	t	n/a
173.1105	0.0895	346221	keystroke_i	i	n/a
173.32	0.12	346640	keystroke_o	o	n/a
173.425	0.1055	346850	keystroke_n	n	n/a
173.515	0.105	347030	keystroke_Key.space	Key.space	n/a
173.695	0.1205	347390	keystroke_w	w	n/a
173.8295	0.1205	347659	keystroke_a	a	n/a
174.2195	0.09	348439	keystroke_r	r	n/a
174.3855	0.134	348771	keystroke_r	r	n/a
174.5655	0.149	349131	keystroke_a	a	n/a
174.745	0.105	349490	keystroke_n	n	n/a
174.94	0.09	349880	keystroke_t	t	n/a
175.1045	0.1055	350209	keystroke_i	i	n/a
175.195	0.195	350390	keystroke_e	e	n/a
175.345	0.12	350690	keystroke_s	s	n/a
175.48	0.119	350960	keystroke_Key.enter	Key.enter	n/a
175.606	6.5955	351212	prompt	n/a	merry pantyhose involves mentor\n
176.1845	0.09	352369	keystroke_m	m	n/a
176.2895	0.0455	352579	keystroke_e	e	n/a
176.5155	0.0745	353031	keystroke_r	r	n/a
176.65	0.0895	353300	keystroke_r	r	n/a
176.86	0.0745	353720	keystroke_y	y	n/a
176.9355	0.089	353871	keystroke_Key.space	Key.space	n/a
177.22	0.09	354440	keystroke_p	p	n/a
177.325	0.1055	354650	keystroke_a	a	n/a
177.4905	0.09	354981	keystroke_n	n	n/a
177.6405	0.075	355281	keystroke_t	t	n/a
177.835	0.075	355670	keystroke_y	y	n/a
178.345	0.075	356690	keystroke_h	h	n/a
178.555	0.12	357110	keystroke_o	o	n/a
178.69	0.104	357380	keystroke_s	s	n/a
178.855	0.105	357710	keystroke_e	e	n/a
178.93	0.12	357860	keystroke_Key.space	Key.space	n/a
179.155	0.104	358310	keystroke_i	i	n/a
179.245	0.075	358490	keystroke_n	n	n/a
179.364	0.091	358728	keystroke_v	v	n/a
179.515	0.0905	359030	keystroke_o	o	n/a
179.7105	0.075	359421	keystroke_l	l	n/a
179.8155	0.135	359631	keystroke_v	v	n/a
180.145	0.18	360290	keystroke_e	e	n/a
180.28	0.12	360560	keystroke_s	s	n/a
180.385	0.105	360770	keystroke_Key.space	Key.space	n/a
181.1955	0.1045	362391	keystroke_m	m	n/a
181.33	0.1205	362660	keystroke_e	e	n/a
181.5105	0.074	363021	keystroke_n	n	n/a
181.6745	0.106	363349	keystroke_t	t	n/a
181.8105	0.119	363621	keystroke_o	o	n/a
181.945	0.0905	363890	keystroke_r	r	n/a
182.08	0.1205	364160	keystroke_Key.enter	Key.enter	n/a
182.205	7.5275	364410	prompt	n/a	contests smith settle supporting\n
182.9655	0.0895	365931	keystroke_c	c	n/a
183.0845	0.12	366169	keystroke_o	o	n/a
183.1605	0.119	366321	keystroke_n	n	n/a
183.3255	0.119	366651	keystroke_t	t	n/a
183.4605	0.164	366921	keystroke_e	e	n/a
183.6395	0.1805	367279	keystroke_s	s	n/a
183.924	0.136	367848	keystroke_t	t	n/a
184.1945	0.12	368389	keystroke_s	s	n/a
184.3305	0.0895	368661	keystroke_Key.space	Key.space	n/a
184.6305	0.089	369261	keystroke_s	s	n/a
184.735	0.0905	369470	keystroke_m	m	n/a
184.9305	0.09	369861	keystroke_o	o	n/a
185.3055	0.0285	370611	keystroke_=	=	n/a
185.5745	0.075	371149	keystroke_Key.backspace	Key.backspace	n/a
185.6945	0.075	371389	keystroke_Key.backspace	Key.backspace	n/a
186.01	0.03	372020	keystroke_i	i	n/a
186.175	0.09	372350	keystroke_t	t	n/a
186.355	0.0755	372710	keystroke_h	h	n/a
186.46	0.105	372920	keystroke_Key.space	Key.space	n/a
186.6395	0.105	373279	keystroke_s	s	n/a
186.97	0.075	373940	keystroke_e	e	n/a
187.285	0.09	374570	keystroke_t	t	n/a
187.465	0.09	374930	keystroke_t	t	n/a
187.6455	0.119	375291	keystroke_l	l	n/a
187.7955	0.12	375591	keystroke_e	e	n/a
187.9005	0.12	375801	keystroke_Key.space	Key.space	n/a
188.0495	0.09	376099	keystroke_s	s	n/a
188.1995	0.0905	376399	keystroke_u	u	n/a
188.4855	0.0595	376971	keystroke_p	p	n/a
188.62	0.075	377240	keystroke_p	p	n/a
188.785	0.09	377570	keystroke_o	o	n/a
188.89	0.045	377780	keystroke_r	r	n/a
189.04	0.09	378080	keystroke_t	t	n/a
189.205	0.165	378410	keystroke_i	i	n/a
189.34	0.075	378680	keystroke_n	n	n/a
189.46	0.105	378920	keystroke_g	g	n/a
189.625	0.1045	379250	keystroke_Key.enter	Key.enter	n/a
189.735	9.0115	379470	prompt	n/a	muslims general granted fine\n
190.405	0.075	380810	keystroke_m	m	n/a
190.615	0.09	381230	keystroke_u	u	n/a
190.72	0.105	381440	keystroke_s	s	n/a
190.9455	0.0745	381891	keystroke_l	l	n/a
191.185	0.15	382370	keystroke_i	i	n/a
191.275	0.12	382550	keystroke_m	m	n/a
191.425	0.1355	382850	keystroke_s	s	n/a
191.545	0.12	383090	keystroke_Key.space	Key.space	n/a
191.92	0.0755	383840	keystroke_g	g	n/a
192.1005	0.0895	384201	keystroke_e	e	n/a
192.25	0.075	384500	keystroke_n	n	n/a
192.34	0.135	384680	keystroke_e	e	n/a
192.445	0.15	384890	keystroke_r	r	n/a
192.655	0.1355	385310	keystroke_a	a	n/a
192.85	0.0895	385700	keystroke_l	l	n/a
193.06	0.105	386120	keystroke_Key.space	Key.space	n/a
193.7045	0.061	387409	keystroke_g	g	n/a
193.915	0.1045	387830	keystroke_r	r	n/a
194.035	0.09	388070	keystroke_a	a	n/a
194.17	0.105	388340	keystroke_n	n	n/a
194.26	0.12	388520	keystroke_d	d	n/a
194.5455	0.0895	389091	keystroke_e	e	n/a
194.74	0.165	389480	keystroke_d	d	n/a
194.875	0.09	389750	keystroke_Key.space	Key.space	n/a
195.025	0.1045	390050	keystroke_f	f	n/a
195.265	0.1645	390530	keystroke_i	i	n/a
195.3695	0.1205	390739	keystroke_n	n	n/a
195.5495	0.0905	391099	keystroke_e	e	n/a
196.2405	0.0745	392481	keystroke_Key.backspace	Key.backspace	n/a
196.33	0.045	392660	keystroke_Key.backspace	Key.backspace	n/a
196.4345	0.075	392869	keystroke_Key.backspace	Key.backspace	n/a
196.5705	0.074	393141	keystroke_Key.backspace	Key.backspace	n/a
196.7195	0.06	393439	keystroke_Key.backspace	Key.backspace	n/a
196.8545	0.076	393709	keystroke_Key.backspace	Key.backspace	n/a
196.9895	0.076	393979	keystroke_Key.backspace	Key.backspace	n/a
197.14	0.0595	394280	keystroke_Key.backspace	Key.backspace	n/a
197.3205	0.104	394641	keystroke_t	t	n/a
197.4845	0.1055	394969	keystroke_e	e	n/a
197.7255	0.119	395451	keystroke_d	d	n/a
197.9045	0.1205	395809	keystroke_Key.space	Key.space	n/a
198.07	0.1055	396140	keystroke_f	f	n/a
198.2345	0.135	396469	keystroke_i	i	n/a
198.34	0.0905	396680	keystroke_n	n	n/a
198.4595	0.1055	396919	keystroke_e	e	n/a
198.6395	0.105	397279	keystroke_Key.enter	Key.enter	n/a
198.7505	6.341	397501	prompt	n/a	leslie hadn't sight sites\n
199.3445	0.105	398689	keystroke_l	l	n/a
199.4955	0.15	398991	keystroke_e	e	n/a
199.66	0.1195	399320	keystroke_s	s	n/a
199.8845	0.0905	399769	keystroke_l	l	n/a
200.1095	0.075	400219	keystroke_i	i	n/a
200.1995	0.105	400399	keystroke_e	e	n/a
200.2595	0.135	400519	keystroke_Key.space	Key.space	n/a
200.5305	0.045	401061	keystroke_h	h	n/a
200.5755	0.1045	401151	keystroke_a	a	n/a
200.8445	0.1205	401689	keystroke_d	d	n/a
201.235	0.1195	402470	keystroke_,	,	n/a
202.1355	0.09	404271	keystroke_Key.backspace	Key.backspace	n/a
202.4205	0.104	404841	keystroke_n	n	n/a
202.8995	0.1365	405799	keystroke_'	'	n/a
203.065	0.15	406130	keystroke_t	t	n/a
203.17	0.12	406340	keystroke_Key.space	Key.space	n/a
203.695	0.105	407390	keystroke_s	s	n/a
203.785	0.06	407570	keystroke_i	i	n/a
203.905	0.075	407810	keystroke_g	g	n/a
204.025	0.0755	408050	keystroke_h	h	n/a
204.115	0.105	408230	keystroke_t	t	n/a
204.175	0.135	408350	keystroke_Key.space	Key.space	n/a
204.3255	0.1195	408651	keystroke_s	s	n/a
204.475	0.06	408950	keystroke_i	i	n/a
204.565	0.165	409130	keystroke_t	t	n/a
204.67	0.195	409340	keystroke_e	e	n/a
204.8355	0.1345	409671	keystroke_s	s	n/a
205	0.09	410000	keystroke_Key.enter	Key.enter	n/a
205.097	9.2795	410194	prompt	n/a	synthesis pockets multiple riders\n
205.6605	0.119	411321	keystroke_s	s	n/a
206.2745	0.09	412549	keystroke_y	y	n/a
206.5595	0.09	413119	keystroke_n	n	n/a
206.8295	0.105	413659	keystroke_t	t	n/a
206.9655	0.1195	413931	keystroke_h	h	n/a
207.1295	0.09	414259	keystroke_e	e	n/a
207.2945	0.105	414589	keystroke_s	s	n/a
207.4895	0.0755	414979	keystroke_i	i	n/a
207.6695	0.09	415339	keystroke_s	s	n/a
208.015	0.105	416030	keystroke_Key.space	Key.space	n/a
208.6305	0.104	417261	keystroke_p	p	n/a
208.855	0.0905	417710	keystroke_o	o	n/a
209.1245	0.105	418249	keystroke_c	c	n/a
209.29	0.1045	418580	keystroke_k	k	n/a
209.605	0.1055	419210	keystroke_e	e	n/a
209.95	0.105	419900	keystroke_t	t	n/a
210.0995	0.12	420199	keystroke_s	s	n/a
210.175	0.1195	420350	keystroke_Key.space	Key.space	n/a
210.37	0.09	420740	keystroke_m	m	n/a
210.5645	0.091	421129	keystroke_i	i	n/a
210.8195	0.09	421639	keystroke_l	l	n/a
211.195	0.06	422390	keystroke_Key.backspace	Key.backspace	n/a
211.3145	0.0755	422629	keystroke_Key.backspace	Key.backspace	n/a
211.6305	0.0745	423261	keystroke_u	u	n/a
211.855	0.075	423710	keystroke_l	l	n/a
212.034	0.1065	424068	keystroke_t	t	n/a
212.215	0.09	424430	keystroke_i	i	n/a
212.74	0.1645	425480	keystroke_p	p	n/a
212.8755	0.105	425751	keystroke_l	l	n/a
212.9945	0.1505	425989	keystroke_e	e	n/a
213.0845	0.105	426169	keystroke_Key.space	Key.space	n/a
213.265	0.1045	426530	keystroke_r	r	n/a
213.4305	0.089	426861	keystroke_i	i	n/a
213.6245	0.0905	427249	keystroke_d	d	n/a
213.8345	0.2705	427669	keystroke_e	e	n/a
213.955	0.15	427910	keystroke_r	r	n/a
214.09	0.1345	428180	keystroke_s	s	n/a
214.2695	0.105	428539	keystroke_Key.enter	Key.enter	n/a
214.3805	8.831	428761	prompt	n/a	amanda scientific demand harry\n
215.0195	0.09	430039	keystroke_a	a	n/a
215.125	0.075	430250	keystroke_m	m	n/a
215.2145	0.1055	430429	keystroke_a	a	n/a
215.3345	0.0755	430669	keystroke_n	n	n/a
215.4395	0.09	430879	keystroke_d	d	n/a
215.7095	0.0905	431419	keystroke_a	a	n/a
215.86	0.12	431720	keystroke_Key.space	Key.space	n/a
217.0445	0.091	434089	keystroke_s	s	n/a
217.2855	0.104	434571	keystroke_c	c	n/a
217.5405	0.104	435081	keystroke_i	i	n/a
217.855	0.105	435710	keystroke_e	e	n/a
217.9755	0.1045	435951	keystroke_n	n	n/a
218.1845	0.06	436369	keystroke_t	t	n/a
218.3795	0.105	436759	keystroke_i	i	n/a
218.755	0.09	437510	keystroke_f	f	n/a
218.875	0.105	437750	keystroke_i	i	n/a
219.055	0.12	438110	keystroke_c	c	n/a
219.28	0.089	438560	keystroke_Key.space	Key.space	n/a
219.549	0.1065	439098	keystroke_d	d	n/a
220.03	0.09	440060	keystroke_e	e	n/a
220.435	0.09	440870	keystroke_m	m	n/a
220.7205	0.0895	441441	keystroke_a	a	n/a
220.915	0.075	441830	keystroke_n	n	n/a
221.365	0.119	442730	keystroke_d	d	n/a
221.4695	0.1195	442939	keystroke_Key.space	Key.space	n/a
221.755	0.09	443510	keystroke_h	h	n/a
221.89	0.12	443780	keystroke_a	a	n/a
222.145	0.225	444290	keystroke_r	r	n/a
222.475	0.045	444950	keystroke_r	r	n/a
222.82	0.089	445640	keystroke_y	y	n/a
223.105	0.105	446210	keystroke_Key.enter	Key.enter	n/a
223.216	6.9705	446432	prompt	n/a	spine spencer nightmare pierre\n
223.81	0.1045	447620	keystroke_s	s	n/a
223.945	0.105	447890	keystroke_p	p	n/a
224.275	0.135	448550	keystroke_i	i	n/a
224.365	0.105	448730	keystroke_n	n	n/a
224.455	0.1205	448910	keystroke_e	e	n/a
224.53	0.165	449060	keystroke_Key.space	Key.space	n/a
224.71	0.12	449420	keystroke_s	s	n/a
224.86	0.09	449720	keystroke_p	p	n/a
224.98	0.105	449960	keystroke_e	e	n/a
225.2655	0.074	450531	keystroke_c	c	n/a
225.7	0.0595	451400	keystroke_Key.backspace	Key.backspace	n/a
225.9705	0.0745	451941	keystroke_n	n	n/a
226.075	0.1045	452150	keystroke_c	c	n/a
226.3305	0.1495	452661	keystroke_e	e	n/a
226.45	0.135	452900	keystroke_r	r	n/a
226.569	0.106	453138	keystroke_Key.space	Key.space	n/a
226.8395	0.076	453679	keystroke_n	n	n/a
227.005	0.0895	454010	keystroke_i	i	n/a
227.1095	0.0755	454219	keystroke_g	g	n/a
227.2755	0.06	454551	keystroke_h	h	n/a
227.3495	0.091	454699	keystroke_t	t	n/a
227.5305	0.0895	455061	keystroke_m	m	n/a
227.6655	0.104	455331	keystroke_a	a	n/a
227.815	0.165	455630	keystroke_r	r	n/a
227.95	0.12	455900	keystroke_e	e	n/a
228.025	0.119	456050	keystroke_Key.space	Key.space	n/a
228.519	0.091	457038	keystroke_p	p	n/a
229.03	0.105	458060	keystroke_i	i	n/a
229.2695	0.105	458539	keystroke_e	e	n/a
229.51	0.0745	459020	keystroke_r	r	n/a
229.675	0.09	459350	keystroke_r	r	n/a
229.8395	0.1055	459679	keystroke_e	e	n/a
230.0795	0.1055	460159	keystroke_Key.enter	Key.enter	n/a
230.19	9.732	460380	prompt	n/a	ralph graphical liberia organisation\n
230.995	0.15	461990	keystroke_r	r	n/a
231.16	0.12	462320	keystroke_a	a	n/a
231.9695	0.0455	463939	keystroke_l	l	n/a
232.1045	0.091	464209	keystroke_p	p	n/a
232.4195	0.09	464839	keystroke_h	h	n/a
232.6295	0.09	465259	keystroke_Key.space	Key.space	n/a
233.3345	0.046	466669	keystroke_g	g	n/a
233.605	0.0145	467210	keystroke_r	r	n/a
233.68	0.1345	467360	keystroke_a	a	n/a
233.8595	0.09	467719	keystroke_p	p	n/a
234.1755	0.0745	468351	keystroke_h	h	n/a
234.3245	0.106	468649	keystroke_i	i	n/a
234.5345	0.0905	469069	keystroke_c	c	n/a
234.7	0.105	469400	keystroke_a	a	n/a
234.8205	0.09	469641	keystroke_l	l	n/a
234.925	0.09	469850	keystroke_Key.space	Key.space	n/a
235.135	0.105	470270	keystroke_l	l	n/a
235.39	0.09	470780	keystroke_i	i	n/a
235.63	0.075	471260	keystroke_b	b	n/a
235.765	0.12	471530	keystroke_e	e	n/a
235.855	0.135	471710	keystroke_r	r	n/a
236.095	0.09	472190	keystroke_i	i	n/a
236.2305	0.1345	472461	keystroke_a	a	n/a
236.335	0.12	472670	keystroke_Key.space	Key.space	n/a
236.7545	0.1205	473509	keystroke_o	o	n/a
236.98	0.1045	473960	keystroke_r	r	n/a
237.2795	0.1055	474559	keystroke_g	g	n/a
237.445	0.135	474890	keystroke_a	a	n/a
237.61	0.09	475220	keystroke_n	n	n/a
237.985	0.105	475970	keystroke_i	i	n/a
238.4795	0.0755	476959	keystroke_s	s	n/a
238.645	0.1045	477290	keystroke_a	a	n/a
238.9005	0.0745	477801	keystroke_t	t	n/a
239.005	0.0895	478010	keystroke_i	i	n/a
239.245	0.135	478490	keystroke_o	o	n/a
239.35	0.1045	478700	keystroke_n	n	n/a
239.8145	0.1055	479629	keystroke_Key.enter	Key.enter	n/a
239.9255	7.3345	479851	prompt	n/a	guide thoroughly citations minerals\n
240.625	0.0755	481250	keystroke_g	g	n/a
240.8355	0.0745	481671	keystroke_u	u	n/a
241.03	0.105	482060	keystroke_i	i	n/a
241.27	0.1205	482540	keystroke_d	d	n/a
241.5405	0.104	483081	keystroke_e	e	n/a
241.6295	0.12	483259	keystroke_Key.space	Key.space	n/a
241.78	0.135	483560	keystroke_t	t	n/a
242.0205	0.104	484041	keystroke_h	h	n/a
242.29	0.09	484580	keystroke_o	o	n/a
242.455	0.105	484910	keystroke_r	r	n/a
242.575	0.09	485150	keystroke_o	o	n/a
242.8445	0.0905	485689	keystroke_u	u	n/a
243.0095	0.09	486019	keystroke_g	g	n/a
243.1295	0.091	486259	keystroke_h	h	n/a
243.415	0.105	486830	keystroke_l	l	n/a
243.565	0.12	487130	keystroke_y	y	n/a
243.655	0.105	487310	keystroke_Key.space	Key.space	n/a
243.9705	0.09	487941	keystroke_c	c	n/a
244.1055	0.105	488211	keystroke_i	i	n/a
244.2705	0.0895	488541	keystroke_t	t	n/a
244.405	0.165	488810	keystroke_a	a	n/a
244.555	0.09	489110	keystroke_t	t	n/a
244.6605	0.1045	489321	keystroke_i	i	n/a
244.87	0.135	489740	keystroke_o	o	n/a
244.9905	0.0895	489981	keystroke_n	n	n/a
245.095	0.135	490190	keystroke_s	s	n/a
245.2	0.135	490400	keystroke_Key.space	Key.space	n/a
245.515	0.1045	491030	keystroke_m	m	n/a
245.7695	0.121	491539	keystroke_i	i	n/a
245.8745	0.0905	491749	keystroke_n	n	n/a
246.01	0.1955	492020	keystroke_e	e	n/a
246.19	0.135	492380	keystroke_r	r	n/a
246.355	0.12	492710	keystroke_a	a	n/a
246.52	0.105	493040	keystroke_l	l	n/a
246.61	0.12	493220	keystroke_s	s	n/a
247.2095	0.0445	494419	keystroke_Key.enter	Key.enter	n/a
247.2675	6.889	494535	prompt	n/a	backup recognition quote flex\n
247.9305	0.0745	495861	keystroke_b	b	n/a
247.99	0.0895	495980	keystroke_a	a	n/a
248.17	0.09	496340	keystroke_c	c	n/a
248.29	0.0745	496580	keystroke_k	k	n/a
248.53	0.075	497060	keystroke_u	u	n/a
248.77	0.09	497540	keystroke_p	p	n/a
248.845	0.135	497690	keystroke_Key.space	Key.space	n/a
249.04	0.1205	498080	keystroke_r	r	n/a
249.145	0.09	498290	keystroke_e	e	n/a
249.385	0.09	498770	keystroke_c	c	n/a
249.52	0.09	499040	keystroke_o	o	n/a
249.6395	0.09	499279	keystroke_g	g	n/a
249.7895	0.0605	499579	keystroke_n	n	n/a
249.955	0.0745	499910	keystroke_i	i	n/a
250.27	0.075	500540	keystroke_t	t	n/a
250.435	0.075	500870	keystroke_i	i	n/a
250.7205	0.0585	501441	keystroke_n	n	n/a
251.26	0.06	502520	keystroke_Key.backspace	Key.backspace	n/a
251.5605	0.1495	503121	keystroke_o	o	n/a
251.65	0.12	503300	keystroke_n	n	n/a
251.785	0.105	503570	keystroke_Key.space	Key.space	n/a
252.13	0.06	504260	keystroke_q	q	n/a
252.22	0.09	504440	keystroke_u	u	n/a
252.7605	0.015	505521	keystroke_o	o	n/a
252.7905	0.12	505581	keystroke_t	t	n/a
252.8955	0.164	505791	keystroke_e	e	n/a
253.0445	0.09	506089	keystroke_Key.space	Key.space	n/a
253.2105	0.1045	506421	keystroke_f	f	n/a
253.3895	0.106	506779	keystroke_l	l	n/a
253.5095	0.1055	507019	keystroke_e	e	n/a
253.8095	0.1205	507619	keystroke_x	x	n/a
254.0495	0.1055	508099	keystroke_Key.enter	Key.enter	n/a
254.161	8.5005	508322	prompt	n/a	kissing syntax pursuant interpreted\n
254.8155	0.1045	509631	keystroke_k	k	n/a
254.995	0.0905	509990	keystroke_i	i	n/a
255.055	0.06	510110	keystroke_s	s	n/a
255.1905	0.1045	510381	keystroke_s	s	n/a
255.34	0.1645	510680	keystroke_i	i	n/a
255.46	0.09	510920	keystroke_n	n	n/a
255.565	0.135	511130	keystroke_g	g	n/a
255.6245	0.1805	511249	keystroke_Key.space	Key.space	n/a
255.8195	0.12	511639	keystroke_s	s	n/a
256.0895	0.075	512179	keystroke_y	y	n/a
256.4195	0.091	512839	keystroke_n	n	n/a
256.705	0.1055	513410	keystroke_t	t	n/a
257.425	0.1195	514850	keystroke_a	a	n/a
257.7255	0.1195	515451	keystroke_x	x	n/a
257.995	0.09	515990	keystroke_Key.space	Key.space	n/a
258.28	0.1045	516560	keystroke_p	p	n/a
258.5345	0.106	517069	keystroke_u	u	n/a
258.6705	0.09	517341	keystroke_r	r	n/a
259.1505	0.134	518301	keystroke_s	s	n/a
259.39	0.1205	518780	keystroke_u	u	n/a
259.7955	0.104	519591	keystroke_a	a	n/a
259.96	0.09	519920	keystroke_n	n	n/a
260.2	0.1205	520400	keystroke_t	t	n/a
260.275	0.1205	520550	keystroke_Key.space	Key.space	n/a
260.755	0.12	521510	keystroke_i	i	n/a
260.8305	0.1195	521661	keystroke_n	n	n/a
260.965	0.105	521930	keystroke_t	t	n/a
261.16	0.165	522320	keystroke_e	e	n/a
261.31	0.09	522620	keystroke_r	r	n/a
261.565	0.12	523130	keystroke_p	p	n/a
261.67	0.1345	523340	keystroke_r	r	n/a
261.7895	0.0905	523579	keystroke_e	e	n/a
262	0.105	524000	keystroke_t	t	n/a
262.135	0.12	524270	keystroke_e	e	n/a
262.33	0.135	524660	keystroke_d	d	n/a
262.555	0.105	525110	keystroke_Key.enter	Key.enter	n/a
262.6665	7.301	525333	prompt	n/a	raise promises provided organization\n
263.3045	0.1205	526609	keystroke_r	r	n/a
263.4995	0.1205	526999	keystroke_a	a	n/a
263.665	0.1045	527330	keystroke_i	i	n/a
263.7845	0.1205	527569	keystroke_s	s	n/a
263.9495	0.1505	527899	keystroke_e	e	n/a
264.04	0.12	528080	keystroke_Key.space	Key.space	n/a
264.1905	0.1195	528381	keystroke_p	p	n/a
264.37	0.1055	528740	keystroke_r	r	n/a
264.4605	0.089	528921	keystroke_o	o	n/a
264.6705	0.089	529341	keystroke_m	m	n/a
264.9095	0.0905	529819	keystroke_i	i	n/a
265.0295	0.1055	530059	keystroke_s	s	n/a
265.2255	0.1495	530451	keystroke_e	e	n/a
265.3595	0.12	530719	keystroke_s	s	n/a
265.4495	0.1205	530899	keystroke_Key.space	Key.space	n/a
265.6295	0.09	531259	keystroke_p	p	n/a
265.75	0.105	531500	keystroke_r	r	n/a
265.8695	0.0755	531739	keystroke_o	o	n/a
266.08	0.105	532160	keystroke_v	v	n/a
266.245	0.09	532490	keystroke_i	i	n/a
266.35	0.09	532700	keystroke_d	d	n/a
266.59	0.075	533180	keystroke_e	e	n/a
266.785	0.12	533570	keystroke_d	d	n/a
266.89	0.105	533780	keystroke_Key.space	Key.space	n/a
267.13	0.09	534260	keystroke_o	o	n/a
267.25	0.075	534500	keystroke_r	r	n/a
267.4595	0.1055	534919	keystroke_g	g	n/a
267.699	0.076	535398	keystroke_n	n	n/a
268.015	0.09	536030	keystroke_Key.backspace	Key.backspace	n/a
268.15	0.105	536300	keystroke_a	a	n/a
268.315	0.0755	536630	keystroke_n	n	n/a
268.48	0.09	536960	keystroke_i	i	n/a
268.6745	0.076	537349	keystroke_z	z	n/a
268.9145	0.061	537829	keystroke_a	a	n/a
269.125	0.075	538250	keystroke_t	t	n/a
269.215	0.105	538430	keystroke_i	i	n/a
269.41	0.135	538820	keystroke_o	o	n/a
269.514	0.1215	539028	keystroke_n	n	n/a
269.875	0.0905	539750	keystroke_Key.enter	Key.enter	n/a
269.9725	6.97	539945	prompt	n/a	changed giant directories amenities\n
270.58	0.09	541160	keystroke_c	c	n/a
270.6995	0.075	541399	keystroke_h	h	n/a
270.7895	0.075	541579	keystroke_a	a	n/a
270.91	0.075	541820	keystroke_n	n	n/a
271.0295	0.12	542059	keystroke_g	g	n/a
271.21	0.1045	542420	keystroke_e	e	n/a
271.45	0.1045	542900	keystroke_d	d	n/a
271.5845	0.1055	543169	keystroke_Key.space	Key.space	n/a
271.96	0.09	543920	keystroke_g	g	n/a
272.155	0.105	544310	keystroke_i	i	n/a
272.32	0.12	544640	keystroke_a	a	n/a
272.53	0.075	545060	keystroke_n	n	n/a
272.65	0.12	545300	keystroke_t	t	n/a
272.74	0.09	545480	keystroke_Key.space	Key.space	n/a
273.01	0.09	546020	keystroke_d	d	n/a
273.16	0.09	546320	keystroke_i	i	n/a
273.265	0.12	546530	keystroke_r	r	n/a
273.355	0.12	546710	keystroke_e	e	n/a
273.97	0.135	547940	keystroke_c	c	n/a
274.285	0.0755	548570	keystroke_t	t	n/a
274.39	0.1045	548780	keystroke_o	o	n/a
274.54	0.09	549080	keystroke_r	r	n/a
274.675	0.0755	549350	keystroke_i	i	n/a
274.8255	0.149	549651	keystroke_e	e	n/a
274.945	0.1345	549890	keystroke_s	s	n/a
275.0645	0.105	550129	keystroke_Key.space	Key.space	n/a
275.2745	0.106	550549	keystroke_a	a	n/a
275.484	0.076	550968	keystroke_m	m	n/a
275.62	0.09	551240	keystroke_e	e	n/a
275.725	0.075	551450	keystroke_n	n	n/a
276.0395	0.0905	552079	keystroke_i	i	n/a
276.2345	0.0905	552469	keystroke_t	t	n/a
276.3845	0.075	552769	keystroke_i	i	n/a
276.505	0.15	553010	keystroke_e	e	n/a
276.625	0.12	553250	keystroke_s	s	n/a
276.835	0.1045	553670	keystroke_Key.enter	Key.enter	n/a
276.9505	7.056	553901	prompt	n/a	certainly respect frost personals\n
277.555	0.075	555110	keystroke_c	c	n/a
277.7945	0.0755	555589	keystroke_e	e	n/a
277.8395	0.105	555679	keystroke_r	r	n/a
278.035	0.105	556070	keystroke_t	t	n/a
278.185	0.105	556370	keystroke_a	a	n/a
278.319	0.1055	556638	keystroke_i	i	n/a
278.3945	0.1055	556789	keystroke_n	n	n/a
278.6045	0.1195	557209	keystroke_l	l	n/a
278.754	0.121	557508	keystroke_y	y	n/a
278.814	0.1355	557628	keystroke_Key.space	Key.space	n/a
279.07	0.12	558140	keystroke_r	r	n/a
279.145	0.149	558290	keystroke_e	e	n/a
279.25	0.12	558500	keystroke_s	s	n/a
279.4595	0.105	558919	keystroke_p	p	n/a
280.4045	0.105	560809	keystroke_e	e	n/a
280.7345	0.0905	561469	keystroke_c	c	n/a
281.035	0.075	562070	keystroke_t	t	n/a
281.079	0.1055	562158	keystroke_Key.space	Key.space	n/a
281.3205	0.075	562641	keystroke_f	f	n/a
281.5145	0.0755	563029	keystroke_r	r	n/a
281.785	0.1195	563570	keystroke_o	o	n/a
281.9495	0.09	563899	keystroke_s	s	n/a
282.1755	0.0745	564351	keystroke_t	t	n/a
282.2345	0.09	564469	keystroke_Key.space	Key.space	n/a
282.4	0.135	564800	keystroke_p	p	n/a
282.5205	0.1195	565041	keystroke_e	e	n/a
282.61	0.105	565220	keystroke_r	r	n/a
282.7895	0.1055	565579	keystroke_s	s	n/a
283.0295	0.1655	566059	keystroke_o	o	n/a
283.1645	0.09	566329	keystroke_n	n	n/a
283.3895	0.105	566779	keystroke_a	a	n/a
283.5395	0.0905	567079	keystroke_l	l	n/a
283.6605	0.104	567321	keystroke_s	s	n/a
283.899	0.1055	567798	keystroke_Key.enter	Key.enter	n/a
284.0115	6.4	568023	prompt	n/a	believes copies heart disclose\n
284.92	0.0595	569840	keystroke_b	b	n/a
284.9945	0.1055	569989	keystroke_e	e	n/a
285.115	0.105	570230	keystroke_l	l	n/a
285.325	0.0905	570650	keystroke_i	i	n/a
285.4005	0.09	570801	keystroke_e	e	n/a
285.64	0.105	571280	keystroke_v	v	n/a
285.865	0.135	571730	keystroke_e	e	n/a
285.9845	0.12	571969	keystroke_s	s	n/a
286.074	0.106	572148	keystroke_Key.space	Key.space	n/a
286.315	0.09	572630	keystroke_c	c	n/a
286.42	0.074	572840	keystroke_o	o	n/a
286.6	0.09	573200	keystroke_p	p	n/a
286.81	0.105	573620	keystroke_i	i	n/a
286.93	0.134	573860	keystroke_e	e	n/a
287.035	0.12	574070	keystroke_s	s	n/a
287.11	0.12	574220	keystroke_Key.space	Key.space	n/a
287.305	0.105	574610	keystroke_h	h	n/a
287.38	0.135	574760	keystroke_e	e	n/a
287.53	0.12	575060	keystroke_a	a	n/a
288.025	0.105	576050	keystroke_r	r	n/a
288.265	0.09	576530	keystroke_t	t	n/a
288.37	0.105	576740	keystroke_Key.space	Key.space	n/a
288.7	0.105	577400	keystroke_d	d	n/a
288.895	0.105	577790	keystroke_i	i	n/a
288.985	0.105	577970	keystroke_s	s	n/a
289.21	0.105	578420	keystroke_c	c	n/a
289.345	0.0895	578690	keystroke_l	l	n/a
289.525	0.09	579050	keystroke_o	o	n/a
289.8995	0.0905	579799	keystroke_s	s	n/a
290.0945	0.105	580189	keystroke_e	e	n/a
290.305	0.104	580610	keystroke_Key.enter	Key.enter	n/a
290.416	6.1155	580832	prompt	n/a	folding tips dawn curious\n
291.55	0.09	583100	keystroke_f	f	n/a
291.7005	0.0745	583401	keystroke_o	o	n/a
291.8495	0.105	583699	keystroke_l	l	n/a
291.9695	0.0905	583939	keystroke_d	d	n/a
292.18	0.1045	584360	keystroke_i	i	n/a
292.255	0.1195	584510	keystroke_n	n	n/a
292.36	0.12	584720	keystroke_g	g	n/a
292.4495	0.105	584899	keystroke_Key.space	Key.space	n/a
292.6445	0.09	585289	keystroke_t	t	n/a
292.78	0.12	585560	keystroke_i	i	n/a
293.155	0.03	586310	keystroke_p	p	n/a
293.545	0.09	587090	keystroke_s	s	n/a
293.62	0.135	587240	keystroke_Key.space	Key.space	n/a
293.98	0.105	587960	keystroke_d	d	n/a
294.2205	0.119	588441	keystroke_a	a	n/a
294.6695	0.135	589339	keystroke_w	w	n/a
294.82	0.0895	589640	keystroke_n	n	n/a
294.9695	0.09	589939	keystroke_Key.space	Key.space	n/a
295.3	0.1045	590600	keystroke_c	c	n/a
295.45	0.09	590900	keystroke_u	u	n/a
295.6	0.1045	591200	keystroke_r	r	n/a
295.765	0.059	591530	keystroke_i	i	n/a
295.929	0.076	591858	keystroke_o	o	n/a
296.14	0.075	592280	keystroke_u	u	n/a
296.26	0.09	592520	keystroke_s	s	n/a
296.4395	0.0905	592879	keystroke_Key.enter	Key.enter	n/a
296.5365	4.6005	593073	prompt	n/a	part health dolls stud\n
297.22	0.0905	594440	keystroke_p	p	n/a
297.295	0.09	594590	keystroke_a	a	n/a
297.475	0.075	594950	keystroke_r	r	n/a
297.64	0.12	595280	keystroke_t	t	n/a
297.745	0.0895	595490	keystroke_Key.space	Key.space	n/a
298	0.0605	596000	keystroke_h	h	n/a
298.1055	0.135	596211	keystroke_e	e	n/a
298.2405	0.119	596481	keystroke_a	a	n/a
298.4645	0.075	596929	keystroke_l	l	n/a
298.7945	0.106	597589	keystroke_t	t	n/a
298.975	0.075	597950	keystroke_h	h	n/a
299.095	0.104	598190	keystroke_Key.space	Key.space	n/a
299.395	0.135	598790	keystroke_d	d	n/a
299.545	0.105	599090	keystroke_o	o	n/a
299.755	0.06	599510	keystroke_l	l	n/a
299.875	0.1055	599750	keystroke_l	l	n/a
299.9645	0.0895	599929	keystroke_s	s	n/a
300.025	0.12	600050	keystroke_Key.space	Key.space	n/a
300.325	0.089	600650	keystroke_s	s	n/a
300.535	0.09	601070	keystroke_t	t	n/a
300.67	0.0905	601340	keystroke_u	u	n/a
300.82	0.12	601640	keystroke_d	d	n/a
301.015	0.12	602030	keystroke_Key.enter	Key.enter	n/a
301.141	8.0805	602282	prompt	n/a	excluding containers impact aerospace\n
301.8245	0.075	603649	keystroke_e	e	n/a
302.11	0.09	604220	keystroke_x	x	n/a
302.53	0.0905	605060	keystroke_c	c	n/a
302.665	0.105	605330	keystroke_l	l	n/a
302.92	0.075	605840	keystroke_u	u	n/a
303.04	0.105	606080	keystroke_d	d	n/a
303.325	0.12	606650	keystroke_i	i	n/a
303.46	0.075	606920	keystroke_n	n	n/a
303.625	0.135	607250	keystroke_g	g	n/a
303.775	0.12	607550	keystroke_Key.space	Key.space	n/a
304.1195	0.1055	608239	keystroke_c	c	n/a
304.27	0.135	608540	keystroke_o	o	n/a
304.3595	0.1205	608719	keystroke_n	n	n/a
304.51	0.1045	609020	keystroke_t	t	n/a
304.644	0.106	609288	keystroke_a	a	n/a
304.735	0.105	609470	keystroke_i	i	n/a
304.795	0.105	609590	keystroke_n	n	n/a
304.915	0.15	609830	keystroke_e	e	n/a
305.035	0.12	610070	keystroke_r	r	n/a
305.17	0.105	610340	keystroke_s	s	n/a
305.245	0.105	610490	keystroke_Key.space	Key.space	n/a
305.455	0.135	610910	keystroke_i	i	n/a
305.56	0.105	611120	keystroke_m	m	n/a
305.8	0.105	611600	keystroke_p	p	n/a
305.92	0.104	611840	keystroke_a	a	n/a
306.114	0.09	612228	keystroke_c	c	n/a
306.399	0.091	612798	keystroke_t	t	n/a
306.459	0.09	612918	keystroke_Key.space	Key.space	n/a
306.7005	0.0895	613401	keystroke_a	a	n/a
307.105	0.1195	614210	keystroke_e	e	n/a
307.2395	0.09	614479	keystroke_r	r	n/a
307.6595	0.0755	615319	keystroke_o	o	n/a
307.8545	0.1055	615709	keystroke_s	s	n/a
308.125	0.105	616250	keystroke_p	p	n/a
308.425	0.105	616850	keystroke_a	a	n/a
308.7395	0.0755	617479	keystroke_c	c	n/a
308.9945	0.09	617989	keystroke_e	e	n/a
309.0995	0.12	618199	keystroke_Key.enter	Key.enter	n/a
309.2255	11.261	618451	prompt	n/a	unified treasures pdas kazakhstan\n
309.925	0.12	619850	keystroke_u	u	n/a
310.015	0.135	620030	keystroke_n	n	n/a
310.255	0.075	620510	keystroke_i	i	n/a
310.63	0.0905	621260	keystroke_f	f	n/a
310.75	0.0895	621500	keystroke_i	i	n/a
310.8545	0.075	621709	keystroke_e	e	n/a
311.05	0.12	622100	keystroke_d	d	n/a
311.14	0.119	622280	keystroke_Key.space	Key.space	n/a
311.35	0.135	622700	keystroke_t	t	n/a
311.47	0.135	622940	keystroke_r	r	n/a
311.83	0.15	623660	keystroke_e	e	n/a
312.025	0.12	624050	keystroke_a	a	n/a
312.31	0.089	624620	keystroke_s	s	n/a
312.52	0.0895	625040	keystroke_u	u	n/a
312.7145	0.135	625429	keystroke_r	r	n/a
312.7895	0.1805	625579	keystroke_e	e	n/a
312.9545	0.151	625909	keystroke_s	s	n/a
313.0895	0.09	626179	keystroke_Key.space	Key.space	n/a
313.54	0.075	627080	keystroke_p	p	n/a
313.7945	0.1655	627589	keystroke_d	d	n/a
314.005	0.09	628010	keystroke_a	a	n/a
314.3205	0.1045	628641	keystroke_s	s	n/a
314.4995	0.0905	628999	keystroke_Key.space	Key.space	n/a
314.9495	0.0905	629899	keystroke_k	k	n/a
315.13	0.09	630260	keystroke_a	a	n/a
315.6545	0.1505	631309	keystroke_z	z	n/a
316.33	0.1645	632660	keystroke_a	a	n/a
317.11	0.0605	634220	keystroke_k	k	n/a
317.56	0.1205	635120	keystroke_j	j	n/a
318.2645	0.1045	636529	keystroke_Key.backspace	Key.backspace	n/a
318.61	0.09	637220	keystroke_h	h	n/a
319.135	0.1045	638270	keystroke_s	s	n/a
319.4645	0.1055	638929	keystroke_t	t	n/a
319.6005	0.1195	639201	keystroke_a	a	n/a
319.99	0.09	639980	keystroke_n	n	n/a
320.395	0.09	640790	keystroke_Key.enter	Key.enter	n/a
320.4945	11.752	640989	prompt	n/a	kijiji volume subjects awesome\n
321.07	0.12	642140	keystroke_s	s	n/a
321.25	0.104	642500	keystroke_k	k	n/a
321.834	0.09	643668	keystroke_Key.backspace	Key.backspace	n/a
322.33	0.09	644660	keystroke_Key.backspace	Key.backspace	n/a
322.645	0.105	645290	keystroke_k	k	n/a
322.855	0.105	645710	keystroke_i	i	n/a
323.2745	0.105	646549	keystroke_k	k	n/a
323.5445	0.09	647089	keystroke_i	i	n/a
323.7705	0.1045	647541	keystroke_k	k	n/a
323.995	0.09	647990	keystroke_i	i	n/a
324.43	0.09	648860	keystroke_Key.backspace	Key.backspace	n/a
324.58	0.06	649160	keystroke_Key.backspace	Key.backspace	n/a
324.715	0.0745	649430	keystroke_Key.backspace	Key.backspace	n/a
324.8795	0.075	649759	keystroke_Key.backspace	Key.backspace	n/a
325.7205	0.1645	651441	keystroke_j	j	n/a
325.9005	0.1045	651801	keystroke_i	i	n/a
326.2	0.18	652400	keystroke_j	j	n/a
326.47	0.105	652940	keystroke_i	i	n/a
326.9345	0.105	653869	keystroke_Key.space	Key.space	n/a
327.5345	0.106	655069	keystroke_v	v	n/a
327.6695	0.105	655339	keystroke_o	o	n/a
327.8795	0.09	655759	keystroke_l	l	n/a
328.1795	0.075	656359	keystroke_u	u	n/a
328.4045	0.09	656809	keystroke_m	m	n/a
328.525	0.1195	657050	keystroke_e	e	n/a
328.6145	0.12	657229	keystroke_Key.space	Key.space	n/a
328.78	0.1195	657560	keystroke_s	s	n/a
328.915	0.1195	657830	keystroke_u	u	n/a
329.005	0.0895	658010	keystroke_b	b	n/a
329.2595	0.1055	658519	keystroke_j	j	n/a
329.56	0.09	659120	keystroke_e	e	n/a
329.8595	0.12	659719	keystroke_c	c	n/a
330.2345	0.105	660469	keystroke_t	t	n/a
330.3545	0.1205	660709	keystroke_s	s	n/a
330.429	0.106	660858	keystroke_Key.space	Key.space	n/a
330.759	0.105	661518	keystroke_a	a	n/a
330.909	0.12	661818	keystroke_w	w	n/a
331.224	0.076	662448	keystroke_e	e	n/a
331.54	0.09	663080	keystroke_s	s	n/a
331.7495	0.12	663499	keystroke_o	o	n/a
331.8095	0.105	663619	keystroke_m	m	n/a
331.945	0.1195	663890	keystroke_e	e	n/a
332.1245	0.1205	664249	keystroke_Key.enter	Key.enter	n/a
332.251	8.6205	664502	prompt	n/a	webster christopher drops tune\n
332.92	0.105	665840	keystroke_w	w	n/a
333.01	0.074	666020	keystroke_e	e	n/a
333.13	0.074	666260	keystroke_b	b	n/a
333.31	0.09	666620	keystroke_s	s	n/a
333.5045	0.135	667009	keystroke_e	e	n/a
333.8495	0.075	667699	keystroke_t	t	n/a
334.194	0.075	668388	keystroke_Key.backspace	Key.backspace	n/a
334.329	0.075	668658	keystroke_Key.backspace	Key.backspace	n/a
334.3445	0.1045	668689	keystroke_t	t	n/a
334.464	0.18	668928	keystroke_e	e	n/a
334.585	0.1345	669170	keystroke_r	r	n/a
334.7045	0.105	669409	keystroke_Key.space	Key.space	n/a
334.96	0.0895	669920	keystroke_s	s	n/a
335.2895	0.0755	670579	keystroke_Key.backspace	Key.backspace	n/a
335.68	0.105	671360	keystroke_c	c	n/a
335.89	0.09	671780	keystroke_h	h	n/a
336.28	0.105	672560	keystroke_r	r	n/a
336.49	0.104	672980	keystroke_i	i	n/a
336.609	0.09	673218	keystroke_s	s	n/a
336.82	0.0905	673640	keystroke_t	t	n/a
336.955	0.0895	673910	keystroke_o	o	n/a
337.5095	0.0755	675019	keystroke_p	p	n/a
337.8545	0.0605	675709	keystroke_h	h	n/a
337.93	0.1495	675860	keystroke_e	e	n/a
338.05	0.1495	676100	keystroke_r	r	n/a
338.1545	0.1195	676309	keystroke_Key.space	Key.space	n/a
339.1905	0.0895	678381	keystroke_d	d	n/a
339.415	0.09	678830	keystroke_r	r	n/a
339.6095	0.0595	679219	keystroke_o	o	n/a
339.805	0.1195	679610	keystroke_p	p	n/a
339.8795	0.135	679759	keystroke_s	s	n/a
339.9545	0.135	679909	keystroke_Key.space	Key.space	n/a
340.225	0.1045	680450	keystroke_t	t	n/a
340.3895	0.1205	680779	keystroke_u	u	n/a
340.465	0.1045	680930	keystroke_n	n	n/a
340.5855	0.1045	681171	keystroke_e	e	n/a
340.7495	0.1205	681499	keystroke_Key.enter	Key.enter	n/a
340.8755	7.14	681751	prompt	n/a	cumulative macintosh pete graphs\n
341.5445	0.105	683089	keystroke_c	c	n/a
341.845	0.015	683690	keystroke_u	u	n/a
342.0095	0.075	684019	keystroke_m	m	n/a
342.3395	0.09	684679	keystroke_u	u	n/a
342.6845	0.0905	685369	keystroke_l	l	n/a
342.8645	0.1055	685729	keystroke_a	a	n/a
343.0895	0.075	686179	keystroke_t	t	n/a
343.195	0.0895	686390	keystroke_i	i	n/a
343.3295	0.09	686659	keystroke_v	v	n/a
343.525	0.1195	687050	keystroke_e	e	n/a
343.5995	0.12	687199	keystroke_Key.space	Key.space	n/a
343.825	0.09	687650	keystroke_m	m	n/a
343.9295	0.0905	687859	keystroke_a	a	n/a
344.139	0.1055	688278	keystroke_c	c	n/a
344.364	0.135	688728	keystroke_i	i	n/a
344.47	0.09	688940	keystroke_n	n	n/a
344.634	0.105	689268	keystroke_t	t	n/a
344.8	0.074	689600	keystroke_o	o	n/a
344.935	0.105	689870	keystroke_s	s	n/a
345.0995	0.0755	690199	keystroke_h	h	n/a
345.2345	0.09	690469	keystroke_Key.space	Key.space	n/a
345.61	0.105	691220	keystroke_p	p	n/a
345.73	0.1045	691460	keystroke_e	e	n/a
345.9245	0.1645	691849	keystroke_t	t	n/a
346.0745	0.1355	692149	keystroke_e	e	n/a
346.224	0.09	692448	keystroke_Key.space	Key.space	n/a
346.825	0.12	693650	keystroke_g	g	n/a
347.02	0.15	694040	keystroke_r	r	n/a
347.185	0.105	694370	keystroke_a	a	n/a
347.335	0.03	694670	keystroke_p	p	n/a
347.575	0.09	695150	keystroke_h	h	n/a
347.68	0.12	695360	keystroke_s	s	n/a
347.904	0.105	695808	keystroke_Key.enter	Key.enter	n/a
348.0155	11.981	696031	prompt	n/a	they yahoo universities complexity\n
348.67	0.074	697340	keystroke_t	t	n/a
348.759	0.076	697518	keystroke_h	h	n/a
348.85	0.105	697700	keystroke_e	e	n/a
348.9695	0.0745	697939	keystroke_y	y	n/a
349.014	0.105	698028	keystroke_Key.space	Key.space	n/a
349.42	0.03	698840	keystroke_y	y	n/a
349.54	0.105	699080	keystroke_a	a	n/a
349.84	0.105	699680	keystroke_h	h	n/a
350.125	0.075	700250	keystroke_o	o	n/a
350.275	0.119	700550	keystroke_o	o	n/a
350.41	0.089	700820	keystroke_Key.space	Key.space	n/a
350.6795	0.15	701359	keystroke_u	u	n/a
350.7845	0.09	701569	keystroke_n	n	n/a
350.98	0.09	701960	keystroke_i	i	n/a
351.2945	0.075	702589	keystroke_v	v	n/a
351.5045	0.1055	703009	keystroke_e	e	n/a
351.5795	0.09	703159	keystroke_r	r	n/a
352.2395	0.075	704479	keystroke_i	i	n/a
352.7645	0.09	705529	keystroke_t	t	n/a
352.975	0.1045	705950	keystroke_i	i	n/a
353.1395	0.1655	706279	keystroke_e	e	n/a
353.275	0.15	706550	keystroke_s	s	n/a
353.379	0.135	706758	keystroke_Key.space	Key.space	n/a
354.085	0.12	708170	keystroke_c	c	n/a
354.775	0.0745	709550	keystroke_Key.backspace	Key.backspace	n/a
354.9095	0.0755	709819	keystroke_Key.backspace	Key.backspace	n/a
355.0445	0.075	710089	keystroke_Key.backspace	Key.backspace	n/a
355.18	0.0745	710360	keystroke_Key.backspace	Key.backspace	n/a
355.3145	0.075	710629	keystroke_Key.backspace	Key.backspace	n/a
355.4795	0.06	710959	keystroke_Key.backspace	Key.backspace	n/a
355.6295	0.075	711259	keystroke_Key.backspace	Key.backspace	n/a
356.44	0.12	712880	keystroke_s	s	n/a
356.575	0.09	713150	keystroke_i	i	n/a
356.74	0.09	713480	keystroke_t	t	n/a
356.815	0.09	713630	keystroke_i	i	n/a
357.04	0.1795	714080	keystroke_e	e	n/a
357.175	0.1195	714350	keystroke_s	s	n/a
357.2795	0.105	714559	keystroke_Key.space	Key.space	n/a
357.655	0.0895	715310	keystroke_o	o	n/a
357.9845	0.075	715969	keystroke_Key.backspace	Key.backspace	n/a
358.075	0.0895	716150	keystroke_c	c	n/a
358.2845	0.1505	716569	keystroke_o	o	n/a
358.4045	0.075	716809	keystroke_m	m	n/a
358.615	0.165	717230	keystroke_p	p	n/a
358.749	0.106	717498	keystroke_l	l	n/a
358.87	0.0895	717740	keystroke_e	e	n/a
359.1395	0.0605	718279	keystroke_x	x	n/a
359.335	0.074	718670	keystroke_i	i	n/a
359.5305	0.0585	719061	keystroke_t	t	n/a
359.7285	0.071	719457	keystroke_y	y	n/a
359.905	0.0895	719810	keystroke_Key.enter	Key.enter	n/a
360.001	7.4805	720002	prompt	n/a	messaging bruce secret guess\n
361.045	0.06	722090	keystroke_e	e	n/a
361.09	0.0895	722180	keystroke_m	m	n/a
361.405	0.0745	722810	keystroke_Key.backspace	Key.backspace	n/a
361.5395	0.075	723079	keystroke_Key.backspace	Key.backspace	n/a
361.795	0.075	723590	keystroke_m	m	n/a
361.87	0.0895	723740	keystroke_e	e	n/a
362.05	0.074	724100	keystroke_s	s	n/a
362.184	0.0905	724368	keystroke_s	s	n/a
362.395	0.104	724790	keystroke_a	a	n/a
362.619	0.076	725238	keystroke_g	g	n/a
362.8	0.1345	725600	keystroke_i	i	n/a
362.9195	0.075	725839	keystroke_n	n	n/a
363.0095	0.135	726019	keystroke_g	g	n/a
363.1145	0.12	726229	keystroke_Key.space	Key.space	n/a
363.3395	0.075	726679	keystroke_b	b	n/a
363.4595	0.09	726919	keystroke_r	r	n/a
363.9845	0.0755	727969	keystroke_u	u	n/a
364.1645	0.0905	728329	keystroke_c	c	n/a
364.42	0.0895	728840	keystroke_e	e	n/a
364.4495	0.15	728899	keystroke_Key.space	Key.space	n/a
364.6595	0.1045	729319	keystroke_s	s	n/a
364.8995	0.0905	729799	keystroke_e	e	n/a
365.155	0.09	730310	keystroke_c	c	n/a
365.4545	0.12	730909	keystroke_r	r	n/a
365.56	0.1045	731120	keystroke_e	e	n/a
366.0845	0.1055	732169	keystroke_t	t	n/a
366.19	0.1045	732380	keystroke_Key.space	Key.space	n/a
366.6095	0.09	733219	keystroke_g	g	n/a
366.8205	0.059	733641	keystroke_u	u	n/a
366.9095	0.075	733819	keystroke_e	e	n/a
367.06	0.0595	734120	keystroke_s	s	n/a
367.2245	0.105	734449	keystroke_s	s	n/a
367.3595	0.12	734719	keystroke_Key.enter	Key.enter	n/a
367.4865	7.2545	734973	prompt	n/a	venue charging barcelona uganda\n
368.2295	0.06	736459	keystroke_v	v	n/a
368.4845	0.0305	736969	keystroke_e	e	n/a
368.4995	0.06	736999	keystroke_n	n	n/a
368.7395	0.105	737479	keystroke_u	u	n/a
368.9045	0.135	737809	keystroke_e	e	n/a
369.0095	0.105	738019	keystroke_Key.space	Key.space	n/a
369.2495	0.09	738499	keystroke_c	c	n/a
369.3695	0.0755	738739	keystroke_h	h	n/a
369.4145	0.09	738829	keystroke_a	a	n/a
369.594	0.0905	739188	keystroke_r	r	n/a
369.94	0.0895	739880	keystroke_g	g	n/a
370.2245	0.0755	740449	keystroke_n	n	n/a
370.6295	0.0755	741259	keystroke_Key.backspace	Key.backspace	n/a
370.914	0.136	741828	keystroke_i	i	n/a
371.004	0.091	742008	keystroke_n	n	n/a
371.065	0.1495	742130	keystroke_g	g	n/a
371.17	0.12	742340	keystroke_Key.space	Key.space	n/a
371.379	0.076	742758	keystroke_b	b	n/a
371.53	0.119	743060	keystroke_a	a	n/a
371.725	0.0595	743450	keystroke_r	r	n/a
371.95	0.09	743900	keystroke_c	c	n/a
372.175	0.075	744350	keystroke_e	e	n/a
372.2795	0.09	744559	keystroke_l	l	n/a
372.565	0.105	745130	keystroke_o	o	n/a
372.655	0.0895	745310	keystroke_n	n	n/a
373.0445	0.09	746089	keystroke_a	a	n/a
373.1645	0.1055	746329	keystroke_Key.space	Key.space	n/a
373.4945	0.0905	746989	keystroke_u	u	n/a
373.6445	0.09	747289	keystroke_g	g	n/a
373.8395	0.09	747679	keystroke_a	a	n/a
373.9595	0.12	747919	keystroke_n	n	n/a
374.26	0.1645	748520	keystroke_d	d	n/a
374.4095	0.09	748819	keystroke_a	a	n/a
374.6345	0.105	749269	keystroke_Key.enter	Key.enter	n/a
374.746	11.335	749492	prompt	n/a	dramatic gzip francis caring\n
375.5345	0.105	751069	keystroke_d	d	n/a
375.7745	0.135	751549	keystroke_r	r	n/a
375.94	0.1345	751880	keystroke_a	a	n/a
376.2395	0.09	752479	keystroke_m	m	n/a
376.4795	0.06	752959	keystroke_t	t	n/a
376.719	0.151	753438	keystroke_a	a	n/a
377.124	0.045	754248	keystroke_Key.backspace	Key.backspace	n/a
377.214	0.06	754428	keystroke_Key.backspace	Key.backspace	n/a
377.23	0.134	754460	keystroke_a	a	n/a
377.394	0.105	754788	keystroke_t	t	n/a
377.544	0.09	755088	keystroke_i	i	n/a
377.6945	0.1055	755389	keystroke_c	c	n/a
377.875	0.0895	755750	keystroke_Key.space	Key.space	n/a
378.895	0.09	757790	keystroke_g	g	n/a
379.495	0.12	758990	keystroke_z	z	n/a
379.705	0.12	759410	keystroke_i	i	n/a
379.9895	0.1055	759979	keystroke_p	p	n/a
380.1995	0.12	760399	keystroke_Key.space	Key.space	n/a
380.845	0.0745	761690	keystroke_g	g	n/a
381.0695	0.1055	762139	keystroke_r	r	n/a
381.1895	0.135	762379	keystroke_a	a	n/a
381.3695	0.09	762739	keystroke_n	n	n/a
381.58	0.12	763160	keystroke_c	c	n/a
381.76	0.074	763520	keystroke_i	i	n/a
382.1195	0.075	764239	keystroke_Key.backspace	Key.backspace	n/a
382.2545	0.06	764509	keystroke_Key.backspace	Key.backspace	n/a
382.3745	0.075	764749	keystroke_Key.backspace	Key.backspace	n/a
382.5395	0.03	765079	keystroke_Key.backspace	Key.backspace	n/a
382.6445	0.06	765289	keystroke_Key.backspace	Key.backspace	n/a
382.8695	0.075	765739	keystroke_Key.backspace	Key.backspace	n/a
383.275	0.075	766550	keystroke_f	f	n/a
383.454	0.1205	766908	keystroke_r	r	n/a
383.5895	0.12	767179	keystroke_a	a	n/a
383.7245	0.09	767449	keystroke_n	n	n/a
384.0245	0.09	768049	keystroke_c	c	n/a
384.1745	0.09	768349	keystroke_i	i	n/a
384.3695	0.105	768739	keystroke_s	s	n/a
384.4895	0.135	768979	keystroke_Key.space	Key.space	n/a
384.939	0.105	769878	keystroke_c	c	n/a
385.1045	0.09	770209	keystroke_a	a	n/a
385.314	0.0755	770628	keystroke_r	r	n/a
385.57	0.149	771140	keystroke_i	i	n/a
385.66	0.104	771320	keystroke_n	n	n/a
385.7945	0.09	771589	keystroke_g	g	n/a
385.9895	0.09	771979	keystroke_Key.enter	Key.enter	n/a
386.0855	5.456	772171	prompt	n/a	deaths bars carlos errors\n
386.6205	0.089	773241	keystroke_d	d	n/a
386.7995	0.18	773599	keystroke_e	e	n/a
386.9645	0.1355	773929	keystroke_a	a	n/a
387.264	0.061	774528	keystroke_t	t	n/a
387.505	0.105	775010	keystroke_h	h	n/a
387.67	0.1345	775340	keystroke_s	s	n/a
387.8495	0.1195	775699	keystroke_Key.space	Key.space	n/a
388.0295	0.09	776059	keystroke_b	b	n/a
388.12	0.119	776240	keystroke_a	a	n/a
388.299	0.151	776598	keystroke_r	r	n/a
388.479	0.1205	776958	keystroke_s	s	n/a
388.569	0.105	777138	keystroke_Key.space	Key.space	n/a
388.8545	0.09	777709	keystroke_c	c	n/a
389.0195	0.12	778039	keystroke_a	a	n/a
389.2295	0.06	778459	keystroke_r	r	n/a
389.6955	0.119	779391	keystroke_l	l	n/a
389.979	0.106	779958	keystroke_o	o	n/a
390.13	0.105	780260	keystroke_s	s	n/a
390.204	0.136	780408	keystroke_Key.space	Key.space	n/a
390.445	0.135	780890	keystroke_e	e	n/a
390.564	0.09	781128	keystroke_r	r	n/a
390.7145	0.0755	781429	keystroke_r	r	n/a
390.894	0.106	781788	keystroke_o	o	n/a
391.045	0.105	782090	keystroke_r	r	n/a
391.2845	0.135	782569	keystroke_s	s	n/a
391.4645	0.075	782929	keystroke_Key.enter	Key.enter	n/a
391.5465	5.32	783093	prompt	n/a	snake arms could negative\n
392.26	0.0745	784520	keystroke_s	s	n/a
392.365	0.09	784730	keystroke_n	n	n/a
392.499	0.0905	784998	keystroke_a	a	n/a
392.6195	0.1055	785239	keystroke_k	k	n/a
392.74	0.12	785480	keystroke_e	e	n/a
392.8295	0.12	785659	keystroke_Key.space	Key.space	n/a
392.979	0.09	785958	keystroke_s	s	n/a
393.399	0.06	786798	keystroke_Key.backspace	Key.backspace	n/a
393.474	0.105	786948	keystroke_a	a	n/a
393.7295	0.12	787459	keystroke_r	r	n/a
393.94	0.09	787880	keystroke_m	m	n/a
394.0895	0.1355	788179	keystroke_s	s	n/a
394.2095	0.09	788419	keystroke_Key.space	Key.space	n/a
394.4345	0.105	788869	keystroke_c	c	n/a
394.5545	0.075	789109	keystroke_o	o	n/a
394.7945	0.075	789589	keystroke_u	u	n/a
395.035	0.09	790070	keystroke_l	l	n/a
395.14	0.15	790280	keystroke_d	d	n/a
395.26	0.1345	790520	keystroke_Key.space	Key.space	n/a
395.53	0.0595	791060	keystroke_n	n	n/a
395.635	0.1045	791270	keystroke_e	e	n/a
395.815	0.135	791630	keystroke_g	g	n/a
395.9345	0.135	791869	keystroke_a	a	n/a
396.1445	0.09	792289	keystroke_t	t	n/a
396.2795	0.075	792559	keystroke_i	i	n/a
396.4	0.1045	792800	keystroke_v	v	n/a
396.6095	0.09	793219	keystroke_e	e	n/a
396.7595	0.105	793519	keystroke_Key.enter	Key.enter	n/a
396.871	6.4	793742	prompt	n/a	considers replies restrict bright\n
397.6295	0.015	795259	keystroke_c	c	n/a
397.7195	0.105	795439	keystroke_o	o	n/a
397.8095	0.09	795619	keystroke_n	n	n/a
397.9145	0.09	795829	keystroke_s	s	n/a
398.019	0.105	796038	keystroke_i	i	n/a
398.185	0.105	796370	keystroke_d	d	n/a
398.41	0.135	796820	keystroke_e	e	n/a
398.53	0.135	797060	keystroke_r	r	n/a
398.68	0.1195	797360	keystroke_s	s	n/a
398.7845	0.105	797569	keystroke_Key.space	Key.space	n/a
398.98	0.1495	797960	keystroke_r	r	n/a
399.099	0.1055	798198	keystroke_e	e	n/a
399.3095	0.15	798619	keystroke_p	p	n/a
399.4145	0.0905	798829	keystroke_l	l	n/a
399.64	0.089	799280	keystroke_i	i	n/a
399.7	0.164	799400	keystroke_e	e	n/a
399.8345	0.135	799669	keystroke_s	s	n/a
399.909	0.1355	799818	keystroke_Key.space	Key.space	n/a
400.195	0.1195	800390	keystroke_r	r	n/a
400.269	0.1355	800538	keystroke_e	e	n/a
400.464	0.1355	800928	keystroke_s	s	n/a
400.7795	0.15	801559	keystroke_t	t	n/a
400.914	0.1505	801828	keystroke_r	r	n/a
401.1845	0.0905	802369	keystroke_i	i	n/a
401.32	0.1045	802640	keystroke_c	c	n/a
401.5745	0.12	803149	keystroke_t	t	n/a
401.6645	0.12	803329	keystroke_Key.space	Key.space	n/a
401.8595	0.09	803719	keystroke_b	b	n/a
401.9945	0.075	803989	keystroke_r	r	n/a
402.1895	0.09	804379	keystroke_i	i	n/a
402.355	0.075	804710	keystroke_g	g	n/a
402.475	0.075	804950	keystroke_h	h	n/a
402.61	0.075	805220	keystroke_t	t	n/a
403.195	0.075	806390	keystroke_Key.enter	Key.enter	n/a
403.2785	9.2775	806557	prompt	n/a	treatment ceramic hopkins kill\n
403.8695	0.135	807739	keystroke_t	t	n/a
403.9745	0.1495	807949	keystroke_r	r	n/a
404.199	0.1055	808398	keystroke_a	a	n/a
404.409	0.03	808818	keystroke_e	e	n/a
404.724	0.0905	809448	keystroke_Key.backspace	Key.backspace	n/a
404.8745	0.06	809749	keystroke_Key.backspace	Key.backspace	n/a
404.905	0.1345	809810	keystroke_e	e	n/a
405.0245	0.105	810049	keystroke_a	a	n/a
405.2195	0.09	810439	keystroke_t	t	n/a
405.595	0.0895	811190	keystroke_e	e	n/a
405.745	0.0745	811490	keystroke_n	n	n/a
405.94	0.1345	811880	keystroke_t	t	n/a
406.0895	0.105	812179	keystroke_Key.space	Key.space	n/a
406.4345	0.09	812869	keystroke_Key.backspace	Key.backspace	n/a
406.57	0.0745	813140	keystroke_Key.backspace	Key.backspace	n/a
406.7045	0.075	813409	keystroke_Key.backspace	Key.backspace	n/a
406.8395	0.09	813679	keystroke_Key.backspace	Key.backspace	n/a
407.1095	0.09	814219	keystroke_m	m	n/a
407.1845	0.105	814369	keystroke_e	e	n/a
407.3345	0.09	814669	keystroke_n	n	n/a
407.4395	0.12	814879	keystroke_t	t	n/a
407.5145	0.09	815029	keystroke_Key.space	Key.space	n/a
407.7845	0.0905	815569	keystroke_c	c	n/a
408.0845	0.075	816169	keystroke_e	e	n/a
408.1145	0.12	816229	keystroke_r	r	n/a
408.3095	0.12	816619	keystroke_a	a	n/a
408.475	0.0745	816950	keystroke_m	m	n/a
408.6695	0.075	817339	keystroke_i	i	n/a
408.7595	0.1205	817519	keystroke_c	c	n/a
408.909	0.105	817818	keystroke_Key.space	Key.space	n/a
409.749	0.106	819498	keystroke_h	h	n/a
410.1995	0.0895	820399	keystroke_o	o	n/a
410.44	0.1045	820880	keystroke_p	p	n/a
410.829	0.09	821658	keystroke_k	k	n/a
411.159	0.0905	822318	keystroke_i	i	n/a
411.354	0.0905	822708	keystroke_n	n	n/a
411.445	0.1045	822890	keystroke_s	s	n/a
411.519	0.12	823038	keystroke_Key.space	Key.space	n/a
411.73	0.0745	823460	keystroke_k	k	n/a
411.909	0.0755	823818	keystroke_i	i	n/a
412.12	0.0745	824240	keystroke_l	l	n/a
412.254	0.0905	824508	keystroke_l	l	n/a
412.4495	0.1045	824899	keystroke_Key.enter	Key.enter	n/a
412.561	7.5105	825122	prompt	n/a	indeed green warnings competitions\n
413.185	0.1345	826370	keystroke_i	i	n/a
413.2895	0.1205	826579	keystroke_n	n	n/a
413.4545	0.09	826909	keystroke_d	d	n/a
413.6645	0.06	827329	keystroke_e	e	n/a
413.8295	0.06	827659	keystroke_e	e	n/a
414.0095	0.12	828019	keystroke_d	d	n/a
414.0395	0.0455	828079	keystroke_c	c	n/a
414.1145	0.135	828229	keystroke_Key.space	Key.space	n/a
414.3695	0.075	828739	keystroke_g	g	n/a
414.7295	0.0755	829459	keystroke_Key.backspace	Key.backspace	n/a
414.8645	0.06	829729	keystroke_Key.backspace	Key.backspace	n/a
414.984	0.0755	829968	keystroke_Key.backspace	Key.backspace	n/a
415.089	0.136	830178	keystroke_Key.space	Key.space	n/a
415.2105	0.1045	830421	keystroke_g	g	n/a
415.465	0.105	830930	keystroke_r	r	n/a
415.644	0.09	831288	keystroke_e	e	n/a
415.81	0.09	831620	keystroke_e	e	n/a
416.035	0.0895	832070	keystroke_n	n	n/a
416.11	0.12	832220	keystroke_Key.space	Key.space	n/a
416.305	0.105	832610	keystroke_w	w	n/a
416.5295	0.1205	833059	keystroke_a	a	n/a
416.7395	0.0905	833479	keystroke_r	r	n/a
416.8745	0.075	833749	keystroke_n	n	n/a
417.2045	0.135	834409	keystroke_n	n	n/a
417.5945	0.0895	835189	keystroke_Key.backspace	Key.backspace	n/a
417.88	0.135	835760	keystroke_i	i	n/a
417.9695	0.0605	835939	keystroke_n	n	n/a
417.9995	0.15	835999	keystroke_g	g	n/a
418.1345	0.105	836269	keystroke_s	s	n/a
418.1945	0.105	836389	keystroke_Key.space	Key.space	n/a
418.4195	0.075	836839	keystroke_c	c	n/a
418.4795	0.15	836959	keystroke_o	o	n/a
418.584	0.0905	837168	keystroke_m	m	n/a
418.8095	0.12	837619	keystroke_p	p	n/a
418.945	0.075	837890	keystroke_e	e	n/a
419.1245	0.076	838249	keystroke_t	t	n/a
419.2145	0.09	838429	keystroke_i	i	n/a
419.3345	0.09	838669	keystroke_t	t	n/a
419.4395	0.09	838879	keystroke_i	i	n/a
419.6345	0.12	839269	keystroke_o	o	n/a
419.695	0.1045	839390	keystroke_n	n	n/a
419.8295	0.1045	839659	keystroke_s	s	n/a
419.964	0.106	839928	keystroke_Key.enter	Key.enter	n/a
420.0765	8.0815	840153	prompt	n/a	keyword clouds serve instructors\n
420.6855	0.104	841371	keystroke_k	k	n/a
420.8195	0.105	841639	keystroke_e	e	n/a
420.9995	0.075	841999	keystroke_y	y	n/a
421.24	0.075	842480	keystroke_b	b	n/a
421.6295	0.09	843259	keystroke_Key.backspace	Key.backspace	n/a
421.735	0.1195	843470	keystroke_w	w	n/a
422.1095	0.0895	844219	keystroke_o	o	n/a
422.2595	0.09	844519	keystroke_r	r	n/a
422.485	0.1195	844970	keystroke_d	d	n/a
422.589	0.0905	845178	keystroke_Key.space	Key.space	n/a
422.8	0.0895	845600	keystroke_c	c	n/a
422.8895	0.09	845779	keystroke_l	l	n/a
423.085	0.0895	846170	keystroke_o	o	n/a
423.325	0.075	846650	keystroke_u	u	n/a
423.415	0.1645	846830	keystroke_d	d	n/a
423.6545	0.15	847309	keystroke_s	s	n/a
423.79	0.0895	847580	keystroke_Key.space	Key.space	n/a
424.0145	0.09	848029	keystroke_s	s	n/a
424.18	0.119	848360	keystroke_e	e	n/a
424.315	0.105	848630	keystroke_r	r	n/a
424.705	0.09	849410	keystroke_v	v	n/a
424.93	0.0895	849860	keystroke_i	i	n/a
425.514	0.09	851028	keystroke_Key.backspace	Key.backspace	n/a
425.649	0.136	851298	keystroke_e	e	n/a
425.77	0.105	851540	keystroke_Key.space	Key.space	n/a
426.0245	0.15	852049	keystroke_i	i	n/a
426.1445	0.06	852289	keystroke_n	n	n/a
426.5495	0.0905	853099	keystroke_s	s	n/a
426.745	0.12	853490	keystroke_t	t	n/a
426.85	0.12	853700	keystroke_r	r	n/a
427.0445	0.1055	854089	keystroke_u	u	n/a
427.1795	0.09	854359	keystroke_c	c	n/a
427.435	0.0745	854870	keystroke_t	t	n/a
427.5395	0.09	855079	keystroke_o	o	n/a
427.6445	0.1355	855289	keystroke_r	r	n/a
427.7945	0.1655	855589	keystroke_s	s	n/a
428.0045	0.1495	856009	keystroke_Key.enter	Key.enter	n/a
428.1625	8.319	856325	prompt	n/a	continental fishing decline bull\n
428.785	0.104	857570	keystroke_c	c	n/a
428.9345	0.0755	857869	keystroke_o	o	n/a
428.9795	0.0895	857959	keystroke_n	n	n/a
429.1445	0.09	858289	keystroke_t	t	n/a
429.2945	0.105	858589	keystroke_i	i	n/a
429.3545	0.105	858709	keystroke_n	n	n/a
429.5045	0.105	859009	keystroke_e	e	n/a
429.7145	0.105	859429	keystroke_n	n	n/a
429.8795	0.0755	859759	keystroke_t	t	n/a
430.0145	0.1355	860029	keystroke_a	a	n/a
430.15	0.1045	860300	keystroke_l	l	n/a
430.2695	0.105	860539	keystroke_Key.space	Key.space	n/a
430.6895	0.1205	861379	keystroke_d	d	n/a
430.825	0.075	861650	keystroke_i	i	n/a
430.9295	0.12	861859	keystroke_s	s	n/a
431.1395	0.0755	862279	keystroke_h	h	n/a
431.5145	0.06	863029	keystroke_Key.backspace	Key.backspace	n/a
431.6495	0.06	863299	keystroke_Key.backspace	Key.backspace	n/a
431.7695	0.27	863539	keystroke_Key.backspace	Key.backspace	n/a
432.2495	0.0755	864499	keystroke_Key.backspace	Key.backspace	n/a
432.37	0.105	864740	keystroke_f	f	n/a
432.55	0.074	865100	keystroke_i	i	n/a
432.655	0.075	865310	keystroke_s	s	n/a
432.909	0.076	865818	keystroke_h	h	n/a
433.15	0.135	866300	keystroke_i	i	n/a
433.239	0.1055	866478	keystroke_n	n	n/a
433.33	0.104	866660	keystroke_g	g	n/a
433.4045	0.1045	866809	keystroke_Key.space	Key.space	n/a
434.0045	0.09	868009	keystroke_d	d	n/a
434.2145	0.0745	868429	keystroke_e	e	n/a
434.424	0.09	868848	keystroke_c	c	n/a
434.559	0.09	869118	keystroke_l	l	n/a
434.8445	0.12	869689	keystroke_i	i	n/a
434.9345	0.075	869869	keystroke_n	n	n/a
434.9945	0.1205	869989	keystroke_e	e	n/a
435.099	0.1055	870198	keystroke_Key.space	Key.space	n/a
435.3545	0.075	870709	keystroke_b	b	n/a
435.5195	0.09	871039	keystroke_u	u	n/a
435.9545	0.0905	871909	keystroke_l	l	n/a
436.15	0.089	872300	keystroke_l	l	n/a
436.374	0.1055	872748	keystroke_Key.enter	Key.enter	n/a
436.4855	6.7005	872971	prompt	n/a	thongs kentucky concept rabbit\n
437.2295	0.0905	874459	keystroke_t	t	n/a
437.3345	0.06	874669	keystroke_h	h	n/a
437.5895	0.1355	875179	keystroke_o	o	n/a
437.695	0.0895	875390	keystroke_n	n	n/a
437.7545	0.1205	875509	keystroke_g	g	n/a
437.8445	0.134	875689	keystroke_s	s	n/a
437.9345	0.12	875869	keystroke_Key.space	Key.space	n/a
438.115	0.1045	876230	keystroke_k	k	n/a
438.2345	0.105	876469	keystroke_e	e	n/a
438.3695	0.09	876739	keystroke_n	n	n/a
438.5945	0.0755	877189	keystroke_t	t	n/a
438.8045	0.075	877609	keystroke_u	u	n/a
438.9695	0.09	877939	keystroke_c	c	n/a
439.0895	0.09	878179	keystroke_k	k	n/a
439.3595	0.12	878719	keystroke_y	y	n/a
439.4945	0.075	878989	keystroke_Key.space	Key.space	n/a
439.7345	0.105	879469	keystroke_c	c	n/a
439.8545	0.12	879709	keystroke_o	o	n/a
439.9895	0.09	879979	keystroke_n	n	n/a
440.3495	0.09	880699	keystroke_c	c	n/a
440.605	0.09	881210	keystroke_e	e	n/a
440.754	0.106	881508	keystroke_p	p	n/a
441.385	0.075	882770	keystroke_t	t	n/a
441.475	0.105	882950	keystroke_Key.space	Key.space	n/a
442.1945	0.135	884389	keystroke_r	r	n/a
442.3445	0.135	884689	keystroke_a	a	n/a
442.4645	0.06	884929	keystroke_b	b	n/a
442.5695	0.0905	885139	keystroke_b	b	n/a
442.765	0.09	885530	keystroke_i	i	n/a
442.8695	0.0905	885739	keystroke_t	t	n/a
443.0645	0.1195	886129	keystroke_Key.enter	Key.enter	n/a
443.1905	7.0455	886381	prompt	n/a	implementation percent pumps remedy\n
443.965	0.12	887930	keystroke_i	i	n/a
444.13	0.1195	888260	keystroke_m	m	n/a
444.4	0.1495	888800	keystroke_p	p	n/a
444.5045	0.105	889009	keystroke_l	l	n/a
444.6535	0.106	889307	keystroke_e	e	n/a
444.8495	0.0755	889699	keystroke_m	m	n/a
445.509	0.0905	891018	keystroke_e	e	n/a
445.6445	0.075	891289	keystroke_n	n	n/a
445.8545	0.075	891709	keystroke_t	t	n/a
445.9895	0.15	891979	keystroke_a	a	n/a
446.1245	0.12	892249	keystroke_t	t	n/a
446.2295	0.09	892459	keystroke_i	i	n/a
446.4245	0.1505	892849	keystroke_o	o	n/a
446.5295	0.105	893059	keystroke_n	n	n/a
446.6345	0.104	893269	keystroke_Key.space	Key.space	n/a
446.8895	0.1045	893779	keystroke_p	p	n/a
447.0245	0.0745	894049	keystroke_e	e	n/a
447.0845	0.1045	894169	keystroke_r	r	n/a
447.3695	0.105	894739	keystroke_c	c	n/a
447.5785	0.0905	895157	keystroke_e	e	n/a
447.684	0.075	895368	keystroke_n	n	n/a
447.775	0.1045	895550	keystroke_t	t	n/a
447.849	0.105	895698	keystroke_Key.space	Key.space	n/a
447.999	0.09	895998	keystroke_p	p	n/a
448.254	0.075	896508	keystroke_u	u	n/a
448.48	0.0895	896960	keystroke_m	m	n/a
448.644	0.12	897288	keystroke_p	p	n/a
448.765	0.09	897530	keystroke_s	s	n/a
448.794	0.15	897588	keystroke_Key.space	Key.space	n/a
449.109	0.1205	898218	keystroke_r	r	n/a
449.199	0.0905	898398	keystroke_e	e	n/a
449.3045	0.0905	898609	keystroke_m	m	n/a
449.425	0.089	898850	keystroke_e	e	n/a
449.739	0.09	899478	keystroke_d	d	n/a
449.889	0.0605	899778	keystroke_y	y	n/a
450.1445	0.0895	900289	keystroke_Key.enter	Key.enter	n/a
450.2385	7.9025	900477	prompt	n/a	unexpected definition dense rebound\n
450.9695	0.165	901939	keystroke_u	u	n/a
451.0895	0.15	902179	keystroke_n	n	n/a
451.2395	0.06	902479	keystroke_e	e	n/a
451.449	0.106	902898	keystroke_x	x	n/a
452.29	0.1645	904580	keystroke_p	p	n/a
452.4695	0.015	904939	keystroke_e	e	n/a
452.6185	0.106	905237	keystroke_c	c	n/a
452.9195	0.09	905839	keystroke_t	t	n/a
453.0395	0.135	906079	keystroke_e	e	n/a
453.2195	0.18	906439	keystroke_d	d	n/a
453.4145	0.12	906829	keystroke_Key.space	Key.space	n/a
454.1045	0.105	908209	keystroke_d	d	n/a
454.2845	0.09	908569	keystroke_e	e	n/a
454.4645	0.0905	908929	keystroke_f	f	n/a
454.5845	0.135	909169	keystroke_i	i	n/a
454.7045	0.0445	909409	keystroke_n	n	n/a
454.78	0.1195	909560	keystroke_i	i	n/a
454.929	0.076	909858	keystroke_t	t	n/a
455.019	0.0915	910038	keystroke_i	i	n/a
455.229	0.1205	910458	keystroke_o	o	n/a
455.334	0.1055	910668	keystroke_n	n	n/a
455.454	0.075	910908	keystroke_Key.space	Key.space	n/a
455.709	0.09	911418	keystroke_d	d	n/a
455.9345	0.075	911869	keystroke_e	e	n/a
456.0245	0.1055	912049	keystroke_n	n	n/a
456.3095	0.135	912619	keystroke_s	s	n/a
456.5045	0.135	913009	keystroke_e	e	n/a
456.5795	0.135	913159	keystroke_Key.space	Key.space	n/a
456.8495	0.105	913699	keystroke_r	r	n/a
456.9395	0.105	913879	keystroke_e	e	n/a
457.3595	0.045	914719	keystroke_b	b	n/a
457.4795	0.0755	914959	keystroke_o	o	n/a
457.6895	0.12	915379	keystroke_u	u	n/a
457.7645	0.105	915529	keystroke_n	n	n/a
457.8845	0.105	915769	keystroke_d	d	n/a
458.0345	0.105	916069	keystroke_Key.enter	Key.enter	n/a
458.146	7.0905	916292	prompt	n/a	nervous mainstream providers weed\n
458.784	0.0905	917568	keystroke_n	n	n/a
458.859	0.12	917718	keystroke_e	e	n/a
458.9645	0.0905	917929	keystroke_r	r	n/a
459.2635	0.1055	918527	keystroke_v	v	n/a
459.354	0.061	918708	keystroke_o	o	n/a
459.549	0.076	919098	keystroke_u	u	n/a
459.6095	0.1045	919219	keystroke_s	s	n/a
459.669	0.135	919338	keystroke_Key.space	Key.space	n/a
459.939	0.0905	919878	keystroke_a	a	n/a
460.194	0.0905	920388	keystroke_m	m	n/a
460.479	0.0755	920958	keystroke_Key.backspace	Key.backspace	n/a
460.6145	0.06	921229	keystroke_Key.backspace	Key.backspace	n/a
460.855	0.089	921710	keystroke_m	m	n/a
460.959	0.075	921918	keystroke_a	a	n/a
461.1545	0.12	922309	keystroke_i	i	n/a
461.2445	0.0895	922489	keystroke_n	n	n/a
461.3495	0.1055	922699	keystroke_s	s	n/a
461.5445	0.135	923089	keystroke_t	t	n/a
461.634	0.15	923268	keystroke_r	r	n/a
461.9345	0.12	923869	keystroke_e	e	n/a
462.069	0.106	924138	keystroke_a	a	n/a
462.219	0.076	924438	keystroke_m	m	n/a
462.3095	0.09	924619	keystroke_Key.space	Key.space	n/a
462.5195	0.0905	925039	keystroke_p	p	n/a
462.8495	0.09	925699	keystroke_r	r	n/a
462.955	0.1045	925910	keystroke_o	o	n/a
463.194	0.1055	926388	keystroke_v	v	n/a
463.345	0.0745	926690	keystroke_i	i	n/a
463.4645	0.0895	926929	keystroke_d	d	n/a
463.705	0.179	927410	keystroke_e	e	n/a
463.87	0.119	927740	keystroke_r	r	n/a
463.975	0.119	927950	keystroke_s	s	n/a
464.064	0.1055	928128	keystroke_Key.space	Key.space	n/a
464.259	0.12	928518	keystroke_w	w	n/a
464.394	0.075	928788	keystroke_e	e	n/a
464.544	0.0905	929088	keystroke_e	e	n/a
465.009	0.09	930018	keystroke_d	d	n/a
465.144	0.09	930288	keystroke_Key.enter	Key.enter	n/a
465.24	7.7685	930480	prompt	n/a	indexed opera arthritis evidence\n
465.8945	0.1055	931789	keystroke_i	i	n/a
465.97	0.105	931940	keystroke_n	n	n/a
466.21	0.1195	932420	keystroke_d	d	n/a
466.4195	0.0905	932839	keystroke_e	e	n/a
466.689	0.105	933378	keystroke_x	x	n/a
467.019	0.06	934038	keystroke_e	e	n/a
467.229	0.106	934458	keystroke_d	d	n/a
467.3495	0.105	934699	keystroke_Key.space	Key.space	n/a
467.649	0.0905	935298	keystroke_o	o	n/a
467.845	0.0895	935690	keystroke_p	p	n/a
467.9195	0.18	935839	keystroke_e	e	n/a
468.07	0.1495	936140	keystroke_r	r	n/a
468.31	0.1495	936620	keystroke_a	a	n/a
468.5185	0.121	937037	keystroke_Key.space	Key.space	n/a
469.0735	0.0905	938147	keystroke_a	a	n/a
469.479	0.091	938958	keystroke_r	r	n/a
469.69	0.1045	939380	keystroke_t	t	n/a
469.885	0.075	939770	keystroke_h	h	n/a
470.0795	0.0755	940159	keystroke_r	r	n/a
470.2595	0.09	940519	keystroke_i	i	n/a
470.514	0.0755	941028	keystroke_t	t	n/a
470.65	0.09	941300	keystroke_i	i	n/a
470.859	0.12	941718	keystroke_s	s	n/a
470.994	0.105	941988	keystroke_Key.space	Key.space	n/a
471.414	0.09	942828	keystroke_e	e	n/a
471.7145	0.09	943429	keystroke_v	v	n/a
471.9395	0.09	943879	keystroke_i	i	n/a
472.0895	0.075	944179	keystroke_d	d	n/a
472.2845	0.09	944569	keystroke_e	e	n/a
472.3895	0.075	944779	keystroke_n	n	n/a
472.5395	0.09	945079	keystroke_c	c	n/a
472.7645	0.09	945529	keystroke_e	e	n/a
472.8995	0.105	945799	keystroke_Key.enter	Key.enter	n/a
473.012	10.0595	946024	prompt	n/a	conferencing little sponsored reviewer\n
473.7095	0.12	947419	keystroke_c	c	n/a
473.8445	0.135	947689	keystroke_o	o	n/a
473.9345	0.1355	947869	keystroke_n	n	n/a
474.1295	0.12	948259	keystroke_f	f	n/a
474.3845	0.0745	948769	keystroke_e	e	n/a
474.474	0.136	948948	keystroke_r	r	n/a
474.6245	0.09	949249	keystroke_e	e	n/a
474.8045	0.0905	949609	keystroke_n	n	n/a
475.0145	0.0905	950029	keystroke_c	c	n/a
475.2095	0.12	950419	keystroke_i	i	n/a
475.3	0.0895	950600	keystroke_n	n	n/a
475.4045	0.1055	950809	keystroke_g	g	n/a
475.4945	0.12	950989	keystroke_Key.space	Key.space	n/a
475.6745	0.105	951349	keystroke_l	l	n/a
475.8695	0.0905	951739	keystroke_i	i	n/a
476.079	0.105	952158	keystroke_t	t	n/a
476.245	0.105	952490	keystroke_t	t	n/a
476.425	0.104	952850	keystroke_l	l	n/a
476.559	0.1205	953118	keystroke_e	e	n/a
476.6495	0.12	953299	keystroke_Key.space	Key.space	n/a
477.0545	0.1055	954109	keystroke_s	s	n/a
477.25	0.0895	954500	keystroke_p	p	n/a
477.519	0.136	955038	keystroke_o	o	n/a
477.624	0.1055	955248	keystroke_n	n	n/a
477.804	0.12	955608	keystroke_s	s	n/a
477.9845	0.09	955969	keystroke_o	o	n/a
478.1795	0.1055	956359	keystroke_r	r	n/a
478.345	0.0895	956690	keystroke_e	e	n/a
478.57	0.135	957140	keystroke_d	d	n/a
478.674	0.12	957348	keystroke_Key.space	Key.space	n/a
478.9	0.119	957800	keystroke_r	r	n/a
478.975	0.1195	957950	keystroke_e	e	n/a
479.2595	0.03	958519	keystroke_v	v	n/a
479.3945	0.1205	958789	keystroke_i	i	n/a
479.8	0.1495	959600	keystroke_e	e	n/a
480.129	0.09	960258	keystroke_r	r	n/a
480.7745	0.0595	961549	keystroke_Key.backspace	Key.backspace	n/a
480.864	0.09	961728	keystroke_w	w	n/a
481.254	0.12	962508	keystroke_r	r	n/a
481.7645	0.0745	963529	keystroke_Key.backspace	Key.backspace	n/a
481.825	0.1795	963650	keystroke_e	e	n/a
481.989	0.151	963978	keystroke_r	r	n/a
482.184	0.105	964368	keystroke_Key.space	Key.space	n/a
482.7545	0.09	965509	keystroke_Key.backspace	Key.backspace	n/a
482.98	0.089	965960	keystroke_Key.enter	Key.enter	n/a
483.078	5.3935	966156	prompt	n/a	forests profits hunger malta\n
483.805	0.12	967610	keystroke_f	f	n/a
484.0445	0.1045	968089	keystroke_o	o	n/a
484.195	0.15	968390	keystroke_r	r	n/a
484.3295	0.1345	968659	keystroke_e	e	n/a
484.449	0.106	968898	keystroke_s	s	n/a
484.7195	0.12	969439	keystroke_t	t	n/a
484.8995	0.1195	969799	keystroke_s	s	n/a
484.974	0.1205	969948	keystroke_Key.space	Key.space	n/a
485.185	0.104	970370	keystroke_p	p	n/a
485.3045	0.0895	970609	keystroke_r	r	n/a
485.439	0.0605	970878	keystroke_o	o	n/a
485.5595	0.0905	971119	keystroke_f	f	n/a
485.664	0.09	971328	keystroke_i	i	n/a
485.8595	0.105	971719	keystroke_t	t	n/a
485.979	0.12	971958	keystroke_s	s	n/a
486.054	0.1055	972108	keystroke_Key.space	Key.space	n/a
486.369	0.0605	972738	keystroke_h	h	n/a
486.564	0.1655	973128	keystroke_u	u	n/a
486.67	0.119	973340	keystroke_n	n	n/a
486.805	0.074	973610	keystroke_g	g	n/a
486.954	0.135	973908	keystroke_e	e	n/a
487.0595	0.1355	974119	keystroke_r	r	n/a
487.1495	0.12	974299	keystroke_Key.space	Key.space	n/a
487.5095	0.0745	975019	keystroke_m	m	n/a
487.6145	0.1195	975229	keystroke_a	a	n/a
487.9895	0.0755	975979	keystroke_l	l	n/a
488.0945	0.12	976189	keystroke_t	t	n/a
488.2295	0.135	976459	keystroke_a	a	n/a
488.3495	0.12	976699	keystroke_Key.enter	Key.enter	n/a
488.4755	5.1105	976951	prompt	n/a	inter nerve stone vacations\n
489.13	0.1195	978260	keystroke_i	i	n/a
489.22	0.09	978440	keystroke_n	n	n/a
489.3395	0.0755	978679	keystroke_t	t	n/a
489.5045	0.1205	979009	keystroke_e	e	n/a
489.564	0.136	979128	keystroke_r	r	n/a
489.654	0.1055	979308	keystroke_Key.space	Key.space	n/a
489.864	0.106	979728	keystroke_n	n	n/a
489.985	0.135	979970	keystroke_e	e	n/a
490.089	0.106	980178	keystroke_r	r	n/a
490.36	0.09	980720	keystroke_v	v	n/a
490.584	0.105	981168	keystroke_e	e	n/a
490.644	0.12	981288	keystroke_Key.space	Key.space	n/a
490.824	0.1205	981648	keystroke_s	s	n/a
491.0345	0.091	982069	keystroke_t	t	n/a
491.1995	0.1045	982399	keystroke_o	o	n/a
491.3195	0.09	982639	keystroke_n	n	n/a
491.3945	0.12	982789	keystroke_e	e	n/a
491.4845	0.105	982969	keystroke_Key.space	Key.space	n/a
491.71	0.1045	983420	keystroke_v	v	n/a
491.8445	0.15	983689	keystroke_a	a	n/a
492.43	0.075	984860	keystroke_c	c	n/a
492.61	0.09	985220	keystroke_a	a	n/a
492.8195	0.09	985639	keystroke_t	t	n/a
492.955	0.075	985910	keystroke_i	i	n/a
493.1495	0.12	986299	keystroke_o	o	n/a
493.24	0.0745	986480	keystroke_n	n	n/a
493.33	0.1045	986660	keystroke_s	s	n/a
493.4795	0.105	986959	keystroke_Key.enter	Key.enter	n/a
493.5885	7.243	987177	prompt	n/a	difference differently labor competitions\n
494.2445	0.1195	988489	keystroke_d	d	n/a
494.409	0.091	988818	keystroke_i	i	n/a
494.5	0.06	989000	keystroke_f	f	n/a
494.619	0.12	989238	keystroke_f	f	n/a
494.874	0.076	989748	keystroke_e	e	n/a
494.935	0.134	989870	keystroke_r	r	n/a
495.055	0.12	990110	keystroke_e	e	n/a
495.22	0.089	990440	keystroke_n	n	n/a
495.37	0.09	990740	keystroke_c	c	n/a
495.565	0.12	991130	keystroke_e	e	n/a
495.639	0.1355	991278	keystroke_Key.space	Key.space	n/a
495.835	0.1045	991670	keystroke_d	d	n/a
495.985	0.09	991970	keystroke_i	i	n/a
496.0895	0.0295	992179	keystroke_f	f	n/a
496.1795	0.09	992359	keystroke_f	f	n/a
496.3895	0.12	992779	keystroke_e	e	n/a
496.4945	0.1355	992989	keystroke_r	r	n/a
496.615	0.1045	993230	keystroke_e	e	n/a
496.7645	0.1205	993529	keystroke_n	n	n/a
496.9595	0.0755	993919	keystroke_t	t	n/a
497.1395	0.09	994279	keystroke_l	l	n/a
497.2745	0.105	994549	keystroke_y	y	n/a
497.3645	0.09	994729	keystroke_Key.space	Key.space	n/a
497.7095	0.105	995419	keystroke_l	l	n/a
497.8	0.0895	995600	keystroke_a	a	n/a
497.9795	0.075	995959	keystroke_b	b	n/a
498.1745	0.1045	996349	keystroke_o	o	n/a
498.28	0.0895	996560	keystroke_r	r	n/a
498.339	0.09	996678	keystroke_Key.space	Key.space	n/a
498.58	0.075	997160	keystroke_c	c	n/a
498.64	0.104	997280	keystroke_o	o	n/a
498.729	0.075	997458	keystroke_m	m	n/a
498.9095	0.0895	997819	keystroke_p	p	n/a
498.985	0.104	997970	keystroke_e	e	n/a
499.225	0.0745	998450	keystroke_t	t	n/a
499.4345	0.09	998869	keystroke_i	i	n/a
499.6	0.06	999200	keystroke_t	t	n/a
499.734	0.0755	999468	keystroke_i	i	n/a
499.9445	0.1195	999889	keystroke_o	o	n/a
500.2595	0.12	1000519	keystroke_n	n	n/a
500.394	0.1205	1000788	keystroke_s	s	n/a
500.7395	0.09	1001479	keystroke_Key.enter	Key.enter	n/a
500.836	6.8065	1001672	prompt	n/a	issued contractors coming jewel\n
501.4595	0.12	1002919	keystroke_i	i	n/a
501.5945	0.0755	1003189	keystroke_s	s	n/a
501.7595	0.09	1003519	keystroke_s	s	n/a
501.8795	0.075	1003759	keystroke_u	u	n/a
501.9845	0.09	1003969	keystroke_e	e	n/a
502.1945	0.12	1004389	keystroke_d	d	n/a
502.2845	0.105	1004569	keystroke_Key.space	Key.space	n/a
502.5845	0.09	1005169	keystroke_c	c	n/a
502.69	0.1195	1005380	keystroke_o	o	n/a
502.7645	0.1055	1005529	keystroke_n	n	n/a
502.8995	0.15	1005799	keystroke_t	t	n/a
503.0195	0.1505	1006039	keystroke_r	r	n/a
503.215	0.1195	1006430	keystroke_a	a	n/a
503.4545	0.105	1006909	keystroke_c	c	n/a
503.74	0.074	1007480	keystroke_t	t	n/a
503.8745	0.0895	1007749	keystroke_o	o	n/a
503.979	0.105	1007958	keystroke_r	r	n/a
504.144	0.105	1008288	keystroke_s	s	n/a
504.234	0.09	1008468	keystroke_Key.space	Key.space	n/a
504.445	0.105	1008890	keystroke_c	c	n/a
504.5345	0.0745	1009069	keystroke_o	o	n/a
504.699	0.076	1009398	keystroke_m	m	n/a
504.865	0.0745	1009730	keystroke_m	m	n/a
505.12	0.105	1010240	keystroke_i	i	n/a
505.555	0.0445	1011110	keystroke_Key.backspace	Key.backspace	n/a
505.7795	0.075	1011559	keystroke_Key.backspace	Key.backspace	n/a
506.094	0.1355	1012188	keystroke_i	i	n/a
506.184	0.091	1012368	keystroke_n	n	n/a
506.2595	0.1055	1012519	keystroke_g	g	n/a
506.349	0.105	1012698	keystroke_Key.space	Key.space	n/a
506.544	0.09	1013088	keystroke_j	j	n/a
506.649	0.105	1013298	keystroke_e	e	n/a
507.0095	0.1195	1014019	keystroke_w	w	n/a
507.189	0.061	1014378	keystroke_e	e	n/a
507.3395	0.0895	1014679	keystroke_l	l	n/a
507.5495	0.0895	1015099	keystroke_Key.enter	Key.enter	n/a
507.6465	7.345	1015293	prompt	n/a	perl qualifications congressional java\n
508.314	0.106	1016628	keystroke_p	p	n/a
508.449	0.18	1016898	keystroke_e	e	n/a
508.585	0.104	1017170	keystroke_r	r	n/a
508.7495	0.1055	1017499	keystroke_l	l	n/a
508.9445	0.105	1017889	keystroke_Key.space	Key.space	n/a
509.499	0.136	1018998	keystroke_q	q	n/a
509.65	0.059	1019300	keystroke_u	u	n/a
509.754	0.105	1019508	keystroke_a	a	n/a
509.8745	0.1055	1019749	keystroke_l	l	n/a
510.1	0.0595	1020200	keystroke_i	i	n/a
510.1745	0.0755	1020349	keystroke_f	f	n/a
510.2945	0.105	1020589	keystroke_i	i	n/a
