onset	duration	sample	value	key	prompt_text
3.8205	9.1585	7641	prompt	n/a	the quick brown fox jumps over a lazy dog\n
6.735	0.153	13470	keystroke_t	t	n/a
6.847	0.096	13694	keystroke_h	h	n/a
6.96	0.128	13920	keystroke_e	e	n/a
7.0395	0.16	14079	keystroke_Key.space	Key.space	n/a
7.335	0.137	14670	keystroke_q	q	n/a
7.423	0.113	14846	keystroke_u	u	n/a
7.5195	0.0965	15039	keystroke_i	i	n/a
7.7035	0.1285	15407	keystroke_c	c	n/a
7.8	0.1195	15600	keystroke_k	k	n/a
7.911	0.1685	15822	keystroke_Key.space	Key.space	n/a
8.1515	0.0795	16303	keystroke_b	b	n/a
8.256	0.1355	16512	keystroke_r	r	n/a
8.4085	0.079	16817	keystroke_o	o	n/a
8.4795	0.136	16959	keystroke_w	w	n/a
8.5915	0.1115	17183	keystroke_n	n	n/a
8.672	0.128	17344	keystroke_Key.space	Key.space	n/a
8.8315	0.0795	17663	keystroke_f	f	n/a
8.912	0.1035	17824	keystroke_o	o	n/a
9.0315	0.153	18063	keystroke_x	x	n/a
9.1755	0.1205	18351	keystroke_Key.space	Key.space	n/a
9.328	0.1035	18656	keystroke_j	j	n/a
9.471	0.0805	18942	keystroke_u	u	n/a
9.655	0.0805	19310	keystroke_m	m	n/a
9.8555	0.1045	19711	keystroke_p	p	n/a
9.9835	0.1045	19967	keystroke_s	s	n/a
10.056	0.1595	20112	keystroke_Key.space	Key.space	n/a
10.2395	0.12	20479	keystroke_o	o	n/a
10.3435	0.1125	20687	keystroke_v	v	n/a
10.6155	0.1205	21231	keystroke_e	e	n/a
10.672	0.1835	21344	keystroke_r	r	n/a
10.7835	0.128	21567	keystroke_Key.space	Key.space	n/a
10.976	0.088	21952	keystroke_a	a	n/a
11.032	0.168	22064	keystroke_Key.space	Key.space	n/a
11.56	0.096	23120	keystroke_l	l	n/a
11.672	0.0555	23344	keystroke_a	a	n/a
11.912	0.1275	23824	keystroke_z	z	n/a
11.9835	0.1285	23967	keystroke_y	y	n/a
12.1275	0.1845	24255	keystroke_Key.space	Key.space	n/a
12.384	0.08	24768	keystroke_d	d	n/a
12.456	0.128	24912	keystroke_o	o	n/a
12.6395	0.096	25279	keystroke_g	g	n/a
12.927	0.0485	25854	keystroke_Key.enter	Key.enter	n/a
12.9845	5.4095	25969	prompt	n/a	bull national patches smaller\n
13.6475	0.112	27295	keystroke_b	b	n/a
13.8085	0.0875	27617	keystroke_u	u	n/a
14.304	0.056	28608	keystroke_l	l	n/a
14.4555	0.104	28911	keystroke_l	l	n/a
14.656	0.16	29312	keystroke_Key.space	Key.space	n/a
14.8555	0.104	29711	keystroke_n	n	n/a
14.968	0.088	29936	keystroke_a	a	n/a
15.1365	0.1035	30273	keystroke_t	t	n/a
15.2475	0.1205	30495	keystroke_i	i	n/a
15.3035	0.1125	30607	keystroke_o	o	n/a
15.487	0.1125	30974	keystroke_n	n	n/a
15.6005	0.119	31201	keystroke_a	a	n/a
15.6955	0.1365	31391	keystroke_l	l	n/a
15.816	0.143	31632	keystroke_Key.space	Key.space	n/a
15.991	0.1045	31982	keystroke_p	p	n/a
16.0795	0.113	32159	keystroke_a	a	n/a
16.272	0.096	32544	keystroke_t	t	n/a
16.552	0.136	33104	keystroke_c	c	n/a
16.6235	0.0885	33247	keystroke_h	h	n/a
16.768	0.1285	33536	keystroke_e	e	n/a
16.8155	0.1765	33631	keystroke_s	s	n/a
17.072	0.1435	34144	keystroke_Key.space	Key.space	n/a
17.272	0.12	34544	keystroke_s	s	n/a
17.3755	0.0885	34751	keystroke_m	m	n/a
17.472	0.1045	34944	keystroke_a	a	n/a
17.5915	0.097	35183	keystroke_l	l	n/a
17.7765	0.071	35553	keystroke_l	l	n/a
17.8155	0.144	35631	keystroke_e	e	n/a
17.936	0.088	35872	keystroke_r	r	n/a
18.3275	0.064	36655	keystroke_Key.enter	Key.enter	n/a
18.3985	8.611	36797	prompt	n/a	variety wrestling frequencies austin\n
19.1755	0.0955	38351	keystroke_v	v	n/a
19.3755	0.16	38751	keystroke_a	a	n/a
19.4875	0.144	38975	keystroke_r	r	n/a
19.72	0.088	39440	keystroke_i	i	n/a
19.8795	0.1515	39759	keystroke_e	e	n/a
20.007	0.1125	40014	keystroke_t	t	n/a
20.1035	0.12	40207	keystroke_y	y	n/a
20.3035	0.176	40607	keystroke_Key.space	Key.space	n/a
20.656	0.0955	41312	keystroke_w	w	n/a
20.863	0.1445	41726	keystroke_r	r	n/a
20.9595	0.248	41919	keystroke_e	e	n/a
21.1275	0.2085	42255	keystroke_s	s	n/a
21.312	0.159	42624	keystroke_t	t	n/a
21.551	0.0405	43102	keystroke_l	l	n/a
21.6635	0.088	43327	keystroke_i	i	n/a
21.8725	0.1115	43745	keystroke_n	n	n/a
21.959	0.105	43918	keystroke_g	g	n/a
22.039	0.153	44078	keystroke_Key.space	Key.space	n/a
22.44	0.08	44880	keystroke_r	r	n/a
22.831	0.081	45662	keystroke_Key.backspace	Key.backspace	n/a
22.967	0.0965	45934	keystroke_f	f	n/a
23.2155	0.1285	46431	keystroke_r	r	n/a
23.2405	0.151	46481	keystroke_e	e	n/a
23.72	0.1115	47440	keystroke_q	q	n/a
23.8395	0.08	47679	keystroke_u	u	n/a
23.9285	0.159	47857	keystroke_e	e	n/a
24.08	0.1045	48160	keystroke_n	n	n/a
24.2085	0.168	48417	keystroke_c	c	n/a
24.2885	0.1435	48577	keystroke_e	e	n/a
25.1515	0.064	50303	keystroke_Key.backspace	Key.backspace	n/a
25.4635	0.081	50927	keystroke_i	i	n/a
25.616	0.136	51232	keystroke_e	e	n/a
25.6715	0.112	51343	keystroke_s	s	n/a
25.7915	0.16	51583	keystroke_Key.space	Key.space	n/a
25.9595	0.112	51919	keystroke_a	a	n/a
26.016	0.0955	52032	keystroke_u	u	n/a
26.207	0.097	52414	keystroke_s	s	n/a
26.368	0.12	52736	keystroke_t	t	n/a
26.4395	0.0885	52879	keystroke_i	i	n/a
26.608	0.0955	53216	keystroke_n	n	n/a
26.9435	0.0645	53887	keystroke_Key.enter	Key.enter	n/a
27.0145	5.365	54029	prompt	n/a	field moderator creature writings\n
27.6715	0.112	55343	keystroke_f	f	n/a
27.76	0.087	55520	keystroke_i	i	n/a
27.92	0.096	55840	keystroke_e	e	n/a
27.975	0.137	55950	keystroke_l	l	n/a
28.127	0.0885	56254	keystroke_d	d	n/a
28.1995	0.152	56399	keystroke_Key.space	Key.space	n/a
28.4075	0.12	56815	keystroke_m	m	n/a
28.5915	0.0965	57183	keystroke_o	o	n/a
28.671	0.112	57342	keystroke_d	d	n/a
28.768	0.1995	57536	keystroke_e	e	n/a
28.928	0.1595	57856	keystroke_r	r	n/a
29.1435	0.0965	58287	keystroke_a	a	n/a
29.2805	0.1275	58561	keystroke_t	t	n/a
29.463	0.105	58926	keystroke_o	o	n/a
29.5835	0.0965	59167	keystroke_r	r	n/a
29.687	0.144	59374	keystroke_Key.space	Key.space	n/a
29.928	0.104	59856	keystroke_c	c	n/a
30.176	0.216	60352	keystroke_r	r	n/a
30.296	0.192	60592	keystroke_e	e	n/a
30.504	0.144	61008	keystroke_a	a	n/a
30.623	0.121	61246	keystroke_t	t	n/a
30.72	0.1035	61440	keystroke_u	u	n/a
30.8795	0.104	61759	keystroke_r	r	n/a
30.9035	0.168	61807	keystroke_e	e	n/a
31.0235	0.192	62047	keystroke_Key.space	Key.space	n/a
31.2475	0.1365	62495	keystroke_w	w	n/a
31.3915	0.12	62783	keystroke_r	r	n/a
31.504	0.0875	63008	keystroke_i	i	n/a
31.6315	0.1115	63263	keystroke_t	t	n/a
31.695	0.08	63390	keystroke_i	i	n/a
31.8475	0.1045	63695	keystroke_n	n	n/a
31.959	0.1045	63918	keystroke_g	g	n/a
32.007	0.144	64014	keystroke_s	s	n/a
32.32	0.055	64640	keystroke_Key.enter	Key.enter	n/a
32.3835	5.5305	64767	prompt	n/a	harmony go features instruction\n
33.048	0.112	66096	keystroke_h	h	n/a
33.152	0.112	66304	keystroke_a	a	n/a
33.256	0.096	66512	keystroke_r	r	n/a
33.4	0.0965	66800	keystroke_m	m	n/a
33.528	0.1115	67056	keystroke_o	o	n/a
33.7115	0.088	67423	keystroke_n	n	n/a
33.8475	0.1125	67695	keystroke_y	y	n/a
33.9515	0.16	67903	keystroke_Key.space	Key.space	n/a
34.1355	0.104	68271	keystroke_g	g	n/a
34.1995	0.128	68399	keystroke_o	o	n/a
34.3195	0.184	68639	keystroke_Key.space	Key.space	n/a
34.7115	0.0885	69423	keystroke_f	f	n/a
34.831	0.1125	69662	keystroke_e	e	n/a
35.0315	0.04	70063	keystroke_a	a	n/a
35.0875	0.112	70175	keystroke_t	t	n/a
35.2875	0.0965	70575	keystroke_u	u	n/a
35.4235	0.064	70847	keystroke_r	r	n/a
35.448	0.152	70896	keystroke_e	e	n/a
35.5275	0.136	71055	keystroke_s	s	n/a
35.7275	0.152	71455	keystroke_Key.space	Key.space	n/a
36.1275	0.0965	72255	keystroke_i	i	n/a
36.328	0.1115	72656	keystroke_n	n	n/a
36.455	0.0885	72910	keystroke_s	s	n/a
36.519	0.121	73038	keystroke_t	t	n/a
36.7595	0.0885	73519	keystroke_r	r	n/a
36.8395	0.096	73679	keystroke_u	u	n/a
37.04	0.1115	74080	keystroke_c	c	n/a
37.295	0.1125	74590	keystroke_t	t	n/a
37.336	0.1275	74672	keystroke_i	i	n/a
37.4075	0.1365	74815	keystroke_o	o	n/a
37.5275	0.1195	75055	keystroke_n	n	n/a
37.815	0.0965	75630	keystroke_Key.enter	Key.enter	n/a
37.918	7.268	75836	prompt	n/a	facilities pole expressed computing\n
38.656	0.0715	77312	keystroke_f	f	n/a
38.8795	0.136	77759	keystroke_a	a	n/a
39.047	0.136	78094	keystroke_c	c	n/a
39.184	0.12	78368	keystroke_i	i	n/a
39.328	0.159	78656	keystroke_l	l	n/a
39.424	0.143	78848	keystroke_i	i	n/a
39.607	0.112	79214	keystroke_t	t	n/a
39.7915	0.0795	79583	keystroke_i	i	n/a
39.951	0.104	79902	keystroke_e	e	n/a
39.983	0.1765	79966	keystroke_s	s	n/a
40.479	0.121	80958	keystroke_Key.space	Key.space	n/a
40.688	0.08	81376	keystroke_p	p	n/a
40.935	0.0485	81870	keystroke_o	o	n/a
41.1915	0.0725	82383	keystroke_l	l	n/a
41.3035	0.1355	82607	keystroke_e	e	n/a
41.44	0.167	82880	keystroke_Key.space	Key.space	n/a
41.648	0.0795	83296	keystroke_e	e	n/a
41.9115	0.1115	83823	keystroke_x	x	n/a
41.9995	0.1355	83999	keystroke_p	p	n/a
42.2875	0.112	84575	keystroke_r	r	n/a
42.3195	0.192	84639	keystroke_e	e	n/a
42.4795	0.128	84959	keystroke_s	s	n/a
42.712	0.12	85424	keystroke_s	s	n/a
42.776	0.1995	85552	keystroke_e	e	n/a
42.951	0.1525	85902	keystroke_d	d	n/a
43.0875	0.128	86175	keystroke_Key.space	Key.space	n/a
43.4395	0.144	86879	keystroke_c	c	n/a
43.5355	0.12	87071	keystroke_o	o	n/a
43.9515	0.12	87903	keystroke_m	m	n/a
44.1355	0.1355	88271	keystroke_p	p	n/a
44.4315	0.0885	88863	keystroke_u	u	n/a
44.5595	0.1275	89119	keystroke_t	t	n/a
44.663	0.064	89326	keystroke_i	i	n/a
44.7835	0.104	89567	keystroke_n	n	n/a
44.8955	0.1195	89791	keystroke_g	g	n/a
45.1035	0.0795	90207	keystroke_Key.enter	Key.enter	n/a
45.194	9.039	90388	prompt	n/a	lite followed consultants upgrade\n
45.7915	0.088	91583	keystroke_i	i	n/a
46.167	0.064	92334	keystroke_Key.backspace	Key.backspace	n/a
46.5035	0.088	93007	keystroke_l	l	n/a
46.64	0.1035	93280	keystroke_i	i	n/a
46.792	0.1195	93584	keystroke_t	t	n/a
46.8955	0.12	93791	keystroke_e	e	n/a
47.0235	0.144	94047	keystroke_Key.space	Key.space	n/a
47.216	0.08	94432	keystroke_f	f	n/a
47.279	0.073	94558	keystroke_o	o	n/a
47.504	0.0555	95008	keystroke_l	l	n/a
47.6075	0.088	95215	keystroke_l	l	n/a
47.9835	0.08	95967	keystroke_o	o	n/a
48.0875	0.0955	96175	keystroke_w	w	n/a
48.3035	0.144	96607	keystroke_e	e	n/a
48.4395	0.088	96879	keystroke_d	d	n/a
48.4955	0.144	96991	keystroke_Key.space	Key.space	n/a
48.687	0.145	97374	keystroke_c	c	n/a
48.759	0.065	97518	keystroke_u	u	n/a
49.111	0.0805	98222	keystroke_Key.backspace	Key.backspace	n/a
49.3835	0.0875	98767	keystroke_o	o	n/a
49.5755	0.112	99151	keystroke_n	n	n/a
49.92	0.0555	99840	keystroke_s	s	n/a
49.9595	0.088	99919	keystroke_u	u	n/a
50.1835	0.1045	100367	keystroke_l	l	n/a
50.3835	0.16	100767	keystroke_t	t	n/a
50.5915	0.128	101183	keystroke_a	a	n/a
50.704	0.1035	101408	keystroke_n	n	n/a
50.8235	0.144	101647	keystroke_t	t	n/a
50.9595	0.128	101919	keystroke_s	s	n/a
51.0795	0.1835	102159	keystroke_Key.space	Key.space	n/a
51.248	0.096	102496	keystroke_u	u	n/a
51.496	0.08	102992	keystroke_p	p	n/a
51.767	0.0725	103534	keystroke_g	g	n/a
51.992	0.112	103984	keystroke_r	r	n/a
52.071	0.1365	104142	keystroke_a	a	n/a
52.4395	0.112	104879	keystroke_e	e	n/a
52.7835	0.064	105567	keystroke_Key.backspace	Key.backspace	n/a
52.9195	0.136	105839	keystroke_e	e	n/a
53.2715	0.08	106543	keystroke_d	d	n/a
53.3995	0.048	106799	keystroke_Key.backspace	Key.backspace	n/a
53.5675	0.048	107135	keystroke_Key.backspace	Key.backspace	n/a
53.6635	0.096	107327	keystroke_d	d	n/a
53.7275	0.12	107455	keystroke_e	e	n/a
54.2075	0.023	108415	keystroke_Key.enter	Key.enter	n/a
54.2365	6.4365	108473	prompt	n/a	limits five single renewal\n
55.2875	0.0875	110575	keystroke_l	l	n/a
55.447	0.088	110894	keystroke_i	i	n/a
55.639	0.1445	111278	keystroke_m	m	n/a
55.768	0.12	111536	keystroke_i	i	n/a
55.952	0.167	111904	keystroke_t	t	n/a
56.1915	0.128	112383	keystroke_s	s	n/a
56.2955	0.152	112591	keystroke_Key.space	Key.space	n/a
56.5515	0.0635	113103	keystroke_f	f	n/a
56.624	0.095	113248	keystroke_i	i	n/a
56.7835	0.1355	113567	keystroke_v	v	n/a
56.895	0.16	113790	keystroke_e	e	n/a
57.063	0.1445	114126	keystroke_Key.space	Key.space	n/a
57.3355	0.088	114671	keystroke_s	s	n/a
57.3915	0.088	114783	keystroke_i	i	n/a
57.5675	0.112	115135	keystroke_n	n	n/a
57.6555	0.12	115311	keystroke_g	g	n/a
57.7755	0.16	115551	keystroke_l	l	n/a
57.976	0.0955	115952	keystroke_e	e	n/a
58.207	0.16	116414	keystroke_Key.space	Key.space	n/a
58.503	0.088	117006	keystroke_r	r	n/a
58.567	0.1365	117134	keystroke_e	e	n/a
58.7595	0.112	117519	keystroke_n	n	n/a
58.943	0.152	117886	keystroke_e	e	n/a
59.103	0.0965	118206	keystroke_m	m	n/a
59.4795	0.112	118959	keystroke_w	w	n/a
59.7265	0.064	119453	keystroke_Key.backspace	Key.backspace	n/a
59.8795	0.056	119759	keystroke_Key.backspace	Key.backspace	n/a
59.9755	0.104	119951	keystroke_w	w	n/a
60.0555	0.1195	120111	keystroke_a	a	n/a
60.1755	0.112	120351	keystroke_l	l	n/a
60.5835	0.088	121167	keystroke_Key.enter	Key.enter	n/a
60.678	8.811	121356	prompt	n/a	questionnaire suspended importance brooks\n
61.6875	0.128	123375	keystroke_q	q	n/a
61.8235	0.088	123647	keystroke_u	u	n/a
61.9915	0.184	123983	keystroke_e	e	n/a
62.1035	0.159	124207	keystroke_s	s	n/a
62.2395	0.1605	124479	keystroke_t	t	n/a
62.32	0.143	124640	keystroke_i	i	n/a
62.423	0.088	124846	keystroke_o	o	n/a
62.567	0.1045	125134	keystroke_n	n	n/a
62.7675	0.096	125535	keystroke_n	n	n/a
62.9595	0.12	125919	keystroke_a	a	n/a
63.1195	0.1035	126239	keystroke_i	i	n/a
63.2475	0.0795	126495	keystroke_r	r	n/a
63.4555	0.1035	126911	keystroke_e	e	n/a
63.647	0.12	127294	keystroke_Key.space	Key.space	n/a
63.9995	0.1035	127999	keystroke_s	s	n/a
64.111	0.1045	128222	keystroke_u	u	n/a
64.223	0.1045	128446	keystroke_s	s	n/a
64.3755	0.104	128751	keystroke_p	p	n/a
64.5035	0.12	129007	keystroke_e	e	n/a
64.6705	0.129	129341	keystroke_n	n	n/a
64.8795	0.1125	129759	keystroke_e	e	n/a
65.2235	0.088	130447	keystroke_Key.backspace	Key.backspace	n/a
65.391	0.1045	130782	keystroke_d	d	n/a
65.4625	0.1525	130925	keystroke_e	e	n/a
65.5905	0.12	131181	keystroke_d	d	n/a
65.8305	0.136	131661	keystroke_Key.space	Key.space	n/a
66.031	0.088	132062	keystroke_i	i	n/a
66.2155	0.1115	132431	keystroke_m	m	n/a
66.4235	0.111	132847	keystroke_p	p	n/a
66.4705	0.169	132941	keystroke_o	o	n/a
66.6465	0.121	133293	keystroke_r	r	n/a
66.8635	0.1195	133727	keystroke_t	t	n/a
67.0385	0.16	134077	keystroke_a	a	n/a
67.1595	0.111	134319	keystroke_n	n	n/a
67.2465	0.104	134493	keystroke_t	t	n/a
67.623	0.0885	135246	keystroke_Key.backspace	Key.backspace	n/a
67.7355	0.144	135471	keystroke_c	c	n/a
67.8155	0.144	135631	keystroke_e	e	n/a
68.0155	0.183	136031	keystroke_Key.space	Key.space	n/a
68.3585	0.096	136717	keystroke_b	b	n/a
68.495	0.1275	136990	keystroke_r	r	n/a
68.6145	0.073	137229	keystroke_o	o	n/a
68.7835	0.096	137567	keystroke_o	o	n/a
68.8315	0.144	137663	keystroke_k	k	n/a
69.007	0.1685	138014	keystroke_s	s	n/a
69.399	0.088	138798	keystroke_Key.enter	Key.enter	n/a
69.4925	7.2195	138985	prompt	n/a	survive oriental linear affects\n
70.191	0.088	140382	keystroke_s	s	n/a
70.28	0.088	140560	keystroke_u	u	n/a
70.471	0.1205	140942	keystroke_r	r	n/a
70.631	0.105	141262	keystroke_i	i	n/a
70.791	0.1045	141582	keystroke_v	v	n/a
71.159	0.072	142318	keystroke_Key.backspace	Key.backspace	n/a
71.327	0.08	142654	keystroke_Key.backspace	Key.backspace	n/a
71.455	0.08	142910	keystroke_v	v	n/a
71.6555	0.08	143311	keystroke_i	i	n/a
71.775	0.104	143550	keystroke_v	v	n/a
71.935	0.152	143870	keystroke_e	e	n/a
72.103	0.152	144206	keystroke_Key.space	Key.space	n/a
72.319	0.0965	144638	keystroke_o	o	n/a
72.4395	0.1035	144879	keystroke_r	r	n/a
72.551	0.096	145102	keystroke_i	i	n/a
72.719	0.1205	145438	keystroke_e	e	n/a
72.847	0.096	145694	keystroke_n	n	n/a
72.983	0.128	145966	keystroke_t	t	n/a
73.3275	0.1035	146655	keystroke_l	l	n/a
73.6555	0.0715	147311	keystroke_Key.backspace	Key.backspace	n/a
73.8395	0.1115	147679	keystroke_a	a	n/a
73.959	0.145	147918	keystroke_l	l	n/a
74.104	0.167	148208	keystroke_Key.space	Key.space	n/a
74.279	0.088	148558	keystroke_l	l	n/a
74.407	0.096	148814	keystroke_i	i	n/a
74.615	0.112	149230	keystroke_n	n	n/a
74.6955	0.1355	149391	keystroke_e	e	n/a
74.8075	0.144	149615	keystroke_a	a	n/a
74.935	0.128	149870	keystroke_r	r	n/a
75.111	0.144	150222	keystroke_Key.space	Key.space	n/a
75.351	0.104	150702	keystroke_a	a	n/a
75.575	0.056	151150	keystroke_f	f	n/a
75.727	0.088	151454	keystroke_f	f	n/a
75.799	0.176	151598	keystroke_e	e	n/a
75.967	0.136	151934	keystroke_c	c	n/a
76.2795	0.1275	152559	keystroke_t	t	n/a
76.351	0.144	152702	keystroke_s	s	n/a
76.615	0.096	153230	keystroke_Key.enter	Key.enter	n/a
76.715	6.5255	153430	prompt	n/a	balanced marine materials furnished\n
77.399	0.096	154798	keystroke_b	b	n/a
77.519	0.1035	155038	keystroke_a	a	n/a
77.663	0.1035	155326	keystroke_l	l	n/a
77.7585	0.1205	155517	keystroke_a	a	n/a
77.9185	0.104	155837	keystroke_n	n	n/a
78.0785	0.1205	156157	keystroke_c	c	n/a
78.2555	0.1595	156511	keystroke_e	e	n/a
78.399	0.096	156798	keystroke_d	d	n/a
78.503	0.104	157006	keystroke_Key.space	Key.space	n/a
78.7435	0.0955	157487	keystroke_m	m	n/a
78.855	0.152	157710	keystroke_a	a	n/a
78.983	0.136	157966	keystroke_r	r	n/a
79.0635	0.1115	158127	keystroke_i	i	n/a
79.239	0.1285	158478	keystroke_n	n	n/a
79.359	0.096	158718	keystroke_e	e	n/a
79.446	0.161	158892	keystroke_Key.space	Key.space	n/a
79.599	0.168	159198	keystroke_m	m	n/a
79.783	0.136	159566	keystroke_a	a	n/a
79.9275	0.152	159855	keystroke_t	t	n/a
80.095	0.1435	160190	keystroke_e	e	n/a
80.2075	0.143	160415	keystroke_r	r	n/a
80.327	0.128	160654	keystroke_i	i	n/a
80.4795	0.0795	160959	keystroke_a	a	n/a
80.615	0.088	161230	keystroke_l	l	n/a
80.687	0.12	161374	keystroke_s	s	n/a
80.863	0.16	161726	keystroke_Key.space	Key.space	n/a
81.919	0.095	163838	keystroke_f	f	n/a
81.998	0.097	163996	keystroke_u	u	n/a
82.19	0.113	164380	keystroke_r	r	n/a
82.2625	0.1045	164525	keystroke_n	n	n/a
82.447	0.104	164894	keystroke_i	i	n/a
82.575	0.1525	165150	keystroke_s	s	n/a
82.6705	0.0965	165341	keystroke_h	h	n/a
82.7905	0.16	165581	keystroke_e	e	n/a
82.935	0.1115	165870	keystroke_d	d	n/a
83.135	0.104	166270	keystroke_Key.enter	Key.enter	n/a
83.2445	6.9005	166489	prompt	n/a	desert bars foto patricia\n
84.0225	0.152	168045	keystroke_d	d	n/a
84.1035	0.2795	168207	keystroke_e	e	n/a
84.359	0.192	168718	keystroke_s	s	n/a
84.5105	0.184	169021	keystroke_e	e	n/a
84.655	0.16	169310	keystroke_r	r	n/a
84.9265	0.144	169853	keystroke_t	t	n/a
85.055	0.16	170110	keystroke_Key.space	Key.space	n/a
85.367	0.1045	170734	keystroke_b	b	n/a
85.479	0.1445	170958	keystroke_a	a	n/a
85.703	0.128	171406	keystroke_r	r	n/a
85.911	0.136	171822	keystroke_s	s	n/a
86.095	0.144	172190	keystroke_Key.space	Key.space	n/a
86.295	0.136	172590	keystroke_f	f	n/a
86.399	0.088	172798	keystroke_o	o	n/a
86.6235	0.079	173247	keystroke_l	l	n/a
86.9505	0.0875	173901	keystroke_Key.backspace	Key.backspace	n/a
87.0955	0.127	174191	keystroke_t	t	n/a
87.239	0.1115	174478	keystroke_o	o	n/a
87.4145	0.1925	174829	keystroke_Key.space	Key.space	n/a
87.615	0.1355	175230	keystroke_p	p	n/a
87.727	0.144	175454	keystroke_a	a	n/a
87.831	0.152	175662	keystroke_r	r	n/a
88.3025	0.088	176605	keystroke_Key.backspace	Key.backspace	n/a
88.4225	0.128	176845	keystroke_t	t	n/a
88.8865	0.1125	177773	keystroke_r	r	n/a
89.0305	0.1125	178061	keystroke_i	i	n/a
89.2705	0.1685	178541	keystroke_c	c	n/a
89.455	0.08	178910	keystroke_i	i	n/a
89.6475	0.1435	179295	keystroke_a	a	n/a
90.055	0.088	180110	keystroke_Key.enter	Key.enter	n/a
90.15	6.0505	180300	prompt	n/a	stopping educators replace look\n
90.871	0.0875	181742	keystroke_s	s	n/a
91.0305	0.136	182061	keystroke_t	t	n/a
91.1265	0.112	182253	keystroke_o	o	n/a
91.3985	0.08	182797	keystroke_p	p	n/a
91.5745	0.08	183149	keystroke_p	p	n/a
91.7425	0.104	183485	keystroke_i	i	n/a
91.943	0.144	183886	keystroke_n	n	n/a
92.031	0.12	184062	keystroke_g	g	n/a
92.1025	0.1765	184205	keystroke_Key.space	Key.space	n/a
92.3185	0.12	184637	keystroke_e	e	n/a
92.5585	0.0965	185117	keystroke_d	d	n/a
92.647	0.104	185294	keystroke_u	u	n/a
92.8155	0.1275	185631	keystroke_c	c	n/a
92.983	0.136	185966	keystroke_a	a	n/a
93.143	0.136	186286	keystroke_t	t	n/a
93.351	0.088	186702	keystroke_o	o	n/a
93.479	0.0715	186958	keystroke_r	r	n/a
93.798	0.121	187596	keystroke_s	s	n/a
93.927	0.167	187854	keystroke_Key.space	Key.space	n/a
94.151	0.1355	188302	keystroke_r	r	n/a
94.2395	0.175	188479	keystroke_e	e	n/a
94.447	0.088	188894	keystroke_p	p	n/a
94.599	0.12	189198	keystroke_l	l	n/a
94.735	0.111	189470	keystroke_a	a	n/a
94.927	0.128	189854	keystroke_c	c	n/a
94.999	0.152	189998	keystroke_e	e	n/a
95.103	0.208	190206	keystroke_Key.space	Key.space	n/a
95.239	0.104	190478	keystroke_l	l	n/a
95.471	0.048	190942	keystroke_o	o	n/a
95.639	0.088	191278	keystroke_o	o	n/a
95.679	0.1435	191358	keystroke_k	k	n/a
96.111	0.088	192222	keystroke_Key.enter	Key.enter	n/a
96.205	8.683	192410	prompt	n/a	quantity excluding marketing guys\n
97.055	0.1285	194110	keystroke_q	q	n/a
97.143	0.032	194286	keystroke_u	u	n/a
97.407	0.088	194814	keystroke_a	a	n/a
97.4625	0.0965	194925	keystroke_n	n	n/a
97.6465	0.112	195293	keystroke_i	i	n/a
97.7665	0.152	195533	keystroke_t	t	n/a
98.182	0.088	196364	keystroke_i	i	n/a
98.615	0.08	197230	keystroke_Key.backspace	Key.backspace	n/a
98.799	0.096	197598	keystroke_Key.backspace	Key.backspace	n/a
98.982	0.081	197964	keystroke_Key.backspace	Key.backspace	n/a
99.143	0.16	198286	keystroke_t	t	n/a
99.287	0.096	198574	keystroke_i	i	n/a
99.518	0.112	199036	keystroke_t	t	n/a
99.6315	0.0945	199263	keystroke_y	y	n/a
100.038	0.136	200076	keystroke_Key.space	Key.space	n/a
100.239	0.08	200478	keystroke_e	e	n/a
100.511	0.1275	201022	keystroke_x	x	n/a
100.783	0.104	201566	keystroke_c	c	n/a
100.919	0.0635	201838	keystroke_l	l	n/a
101.119	0.08	202238	keystroke_u	u	n/a
101.231	0.12	202462	keystroke_d	d	n/a
101.342	0.073	202684	keystroke_i	i	n/a
101.503	0.112	203006	keystroke_n	n	n/a
101.59	0.1285	203180	keystroke_g	g	n/a
101.75	0.1605	203500	keystroke_Key.space	Key.space	n/a
102.2305	0.144	204461	keystroke_m	m	n/a
102.3825	0.1605	204765	keystroke_a	a	n/a
102.5905	0.08	205181	keystroke_r	r	n/a
102.687	0.0875	205374	keystroke_k	k	n/a
103.047	0.1515	206094	keystroke_e	e	n/a
103.1745	0.12	206349	keystroke_t	t	n/a
103.3505	0.112	206701	keystroke_i	i	n/a
103.6385	0.1045	207277	keystroke_n	n	n/a
103.6705	0.208	207341	keystroke_g	g	n/a
103.8385	0.136	207677	keystroke_Key.space	Key.space	n/a
104.175	0.112	208350	keystroke_g	g	n/a
104.263	0.088	208526	keystroke_u	u	n/a
104.4545	0.064	208909	keystroke_y	y	n/a
104.551	0.1115	209102	keystroke_s	s	n/a
104.7985	0.088	209597	keystroke_Key.enter	Key.enter	n/a
104.892	6.132	209784	prompt	n/a	balloon shannon keyboards dentists\n
105.518	0.089	211036	keystroke_b	b	n/a
105.6945	0.112	211389	keystroke_a	a	n/a
105.79	0.0805	211580	keystroke_l	l	n/a
105.9665	0.048	211933	keystroke_l	l	n/a
106.1185	0.08	212237	keystroke_o	o	n/a
106.2865	0.08	212573	keystroke_o	o	n/a
106.4625	0.128	212925	keystroke_n	n	n/a
106.5825	0.12	213165	keystroke_Key.space	Key.space	n/a
106.8625	0.12	213725	keystroke_s	s	n/a
106.9105	0.104	213821	keystroke_h	h	n/a
107.0705	0.072	214141	keystroke_a	a	n/a
107.183	0.072	214366	keystroke_n	n	n/a
107.3265	0.1125	214653	keystroke_n	n	n/a
107.5025	0.12	215005	keystroke_o	o	n/a
107.6385	0.112	215277	keystroke_n	n	n/a
107.8065	0.136	215613	keystroke_Key.space	Key.space	n/a
108.0705	0.12	216141	keystroke_k	k	n/a
108.2305	0.1285	216461	keystroke_e	e	n/a
108.343	0.088	216686	keystroke_y	y	n/a
108.519	0.096	217038	keystroke_b	b	n/a
108.7505	0.088	217501	keystroke_o	o	n/a
108.8545	0.1045	217709	keystroke_a	a	n/a
108.943	0.087	217886	keystroke_r	r	n/a
109.1585	0.1355	218317	keystroke_d	d	n/a
109.311	0.143	218622	keystroke_s	s	n/a
109.4785	0.1275	218957	keystroke_Key.space	Key.space	n/a
109.6945	0.1275	219389	keystroke_d	d	n/a
109.8305	0.1275	219661	keystroke_e	e	n/a
109.934	0.096	219868	keystroke_n	n	n/a
110.1265	0.16	220253	keystroke_t	t	n/a
110.2705	0.112	220541	keystroke_i	i	n/a
110.4465	0.1595	220893	keystroke_s	s	n/a
110.574	0.152	221148	keystroke_t	t	n/a
110.703	0.128	221406	keystroke_s	s	n/a
110.926	0.0965	221852	keystroke_Key.enter	Key.enter	n/a
111.0275	6.1005	222055	prompt	n/a	undo you bestsellers estimates\n
111.631	0.0875	223262	keystroke_u	u	n/a
111.7905	0.12	223581	keystroke_n	n	n/a
111.9185	0.1205	223837	keystroke_d	d	n/a
112.0145	0.144	224029	keystroke_o	o	n/a
112.1105	0.184	224221	keystroke_Key.space	Key.space	n/a
112.5105	0.088	225021	keystroke_y	y	n/a
112.758	0.1605	225516	keystroke_o	o	n/a
112.8785	0.088	225757	keystroke_u	u	n/a
112.9265	0.144	225853	keystroke_Key.space	Key.space	n/a
113.271	0.112	226542	keystroke_b	b	n/a
113.3585	0.1365	226717	keystroke_e	e	n/a
113.455	0.1355	226910	keystroke_s	s	n/a
113.598	0.1205	227196	keystroke_t	t	n/a
113.9985	0.1205	227997	keystroke_s	s	n/a
114.0705	0.12	228141	keystroke_e	e	n/a
114.2225	0.071	228445	keystroke_l	l	n/a
114.3975	0.089	228795	keystroke_l	l	n/a
114.543	0.1345	229086	keystroke_e	e	n/a
114.687	0.143	229374	keystroke_r	r	n/a
114.839	0.104	229678	keystroke_s	s	n/a
115.0145	0.152	230029	keystroke_Key.space	Key.space	n/a
115.183	0.1115	230366	keystroke_e	e	n/a
115.7425	0.128	231485	keystroke_s	s	n/a
115.942	0.121	231884	keystroke_t	t	n/a
116.0465	0.1195	232093	keystroke_i	i	n/a
116.1745	0.1285	232349	keystroke_m	m	n/a
116.351	0.08	232702	keystroke_a	a	n/a
116.487	0.135	232974	keystroke_t	t	n/a
116.559	0.208	233118	keystroke_e	e	n/a
116.686	0.128	233372	keystroke_s	s	n/a
117.022	0.104	234044	keystroke_Key.enter	Key.enter	n/a
117.1325	10.683	234265	prompt	n/a	harley cheaper gauge zope\n
117.8465	0.1195	235693	keystroke_h	h	n/a
117.974	0.1365	235948	keystroke_a	a	n/a
118.095	0.135	236190	keystroke_r	r	n/a
118.206	0.1125	236412	keystroke_l	l	n/a
118.359	0.0795	236718	keystroke_e	e	n/a
118.4785	0.128	236957	keystroke_y	y	n/a
118.6305	0.167	237261	keystroke_Key.space	Key.space	n/a
119.1665	0.136	238333	keystroke_c	c	n/a
119.3025	0.104	238605	keystroke_h	h	n/a
119.479	0.1435	238958	keystroke_e	e	n/a
119.6385	0.136	239277	keystroke_a	a	n/a
119.7425	0.088	239485	keystroke_p	p	n/a
119.847	0.1275	239694	keystroke_e	e	n/a
119.9265	0.16	239853	keystroke_r	r	n/a
120.406	0.1525	240812	keystroke_Key.space	Key.space	n/a
121.055	0.119	242110	keystroke_g	g	n/a
121.175	0.079	242350	keystroke_u	u	n/a
121.326	0.0645	242652	keystroke_a	a	n/a
121.51	0.12	243020	keystroke_g	g	n/a
121.6145	0.1355	243229	keystroke_e	e	n/a
121.7585	0.1595	243517	keystroke_Key.space	Key.space	n/a
122.3745	0.096	244749	keystroke_z	z	n/a
122.4945	0.1285	244989	keystroke_o	o	n/a
122.5895	0.1205	245179	keystroke_p	p	n/a
122.6625	0.16	245325	keystroke_e	e	n/a
123.6385	0.0475	247277	keystroke_Key.backspace	Key.backspace	n/a
123.8225	0.056	247645	keystroke_Key.backspace	Key.backspace	n/a
124.166	0.072	248332	keystroke_Key.backspace	Key.backspace	n/a
124.3345	0.08	248669	keystroke_Key.backspace	Key.backspace	n/a
124.5105	0.08	249021	keystroke_Key.backspace	Key.backspace	n/a
124.6865	0.08	249373	keystroke_Key.backspace	Key.backspace	n/a
124.8705	0.0635	249741	keystroke_Key.backspace	Key.backspace	n/a
125.0225	0.2715	250045	keystroke_Key.backspace	Key.backspace	n/a
125.574	0.088	251148	keystroke_Key.backspace	Key.backspace	n/a
125.8305	0.0795	251661	keystroke_a	a	n/a
126.006	0.097	252012	keystroke_u	u	n/a
126.166	0.1595	252332	keystroke_g	g	n/a
126.3015	0.161	252603	keystroke_e	e	n/a
126.7345	0.167	253469	keystroke_Key.space	Key.space	n/a
127.0305	0.1595	254061	keystroke_z	z	n/a
127.174	0.1365	254348	keystroke_o	o	n/a
127.2785	0.143	254557	keystroke_p	p	n/a
127.3665	0.136	254733	keystroke_e	e	n/a
127.7175	0.096	255435	keystroke_Key.enter	Key.enter	n/a
127.8225	7.5615	255645	prompt	n/a	marijuana positions spears ruling\n
128.558	0.08	257116	keystroke_m	m	n/a
128.758	0.08	257516	keystroke_a	a	n/a
128.8305	0.16	257661	keystroke_r	r	n/a
129.0385	0.104	258077	keystroke_i	i	n/a
129.43	0.104	258860	keystroke_j	j	n/a
129.5985	0.08	259197	keystroke_u	u	n/a
129.7825	0.127	259565	keystroke_n	n	n/a
129.9495	0.137	259899	keystroke_a	a	n/a
130.6055	0.0485	261211	keystroke_Key.backspace	Key.backspace	n/a
130.95	0.12	261900	keystroke_Key.backspace	Key.backspace	n/a
131.15	0.1045	262300	keystroke_a	a	n/a
131.335	0.1195	262670	keystroke_n	n	n/a
131.446	0.112	262892	keystroke_a	a	n/a
131.5585	0.2	263117	keystroke_Key.space	Key.space	n/a
131.7495	0.1365	263499	keystroke_p	p	n/a
131.8145	0.143	263629	keystroke_o	o	n/a
131.99	0.12	263980	keystroke_s	s	n/a
132.1575	0.104	264315	keystroke_i	i	n/a
132.254	0.168	264508	keystroke_t	t	n/a
132.374	0.136	264748	keystroke_i	i	n/a
132.478	0.1125	264956	keystroke_o	o	n/a
132.63	0.1205	265260	keystroke_n	n	n/a
132.7585	0.1115	265517	keystroke_s	s	n/a
132.8455	0.185	265691	keystroke_Key.space	Key.space	n/a
133.2615	0.0965	266523	keystroke_s	s	n/a
133.3415	0.128	266683	keystroke_p	p	n/a
133.55	0.1125	267100	keystroke_e	e	n/a
133.6295	0.137	267259	keystroke_a	a	n/a
133.8375	0.112	267675	keystroke_r	r	n/a
133.934	0.12	267868	keystroke_s	s	n/a
134.1185	0.167	268237	keystroke_Key.space	Key.space	n/a
134.3575	0.112	268715	keystroke_r	r	n/a
134.4385	0.1115	268877	keystroke_u	u	n/a
134.6855	0.0645	269371	keystroke_l	l	n/a
134.7985	0.0955	269597	keystroke_i	i	n/a
134.9665	0.1195	269933	keystroke_n	n	n/a
135.0455	0.152	270091	keystroke_g	g	n/a
135.286	0.0955	270572	keystroke_Key.enter	Key.enter	n/a
135.3885	4.8195	270777	prompt	n/a	disco dice carrying at\n
136.022	0.112	272044	keystroke_d	d	n/a
136.102	0.104	272204	keystroke_i	i	n/a
136.214	0.144	272428	keystroke_s	s	n/a
136.406	0.104	272812	keystroke_c	c	n/a
136.518	0.088	273036	keystroke_o	o	n/a
136.783	0.151	273566	keystroke_Key.space	Key.space	n/a
137.1015	0.096	274203	keystroke_d	d	n/a
137.1895	0.112	274379	keystroke_i	i	n/a
137.3575	0.137	274715	keystroke_c	c	n/a
137.4375	0.152	274875	keystroke_e	e	n/a
137.6695	0.153	275339	keystroke_Key.space	Key.space	n/a
138.3745	0.128	276749	keystroke_c	c	n/a
138.5745	0.12	277149	keystroke_a	a	n/a
138.6785	0.12	277357	keystroke_r	r	n/a
138.9185	0.072	277837	keystroke_r	r	n/a
139.0865	0.072	278173	keystroke_y	y	n/a
139.3025	0.072	278605	keystroke_i	i	n/a
139.4465	0.112	278893	keystroke_n	n	n/a
139.5185	0.12	279037	keystroke_g	g	n/a
139.6385	0.135	279277	keystroke_Key.space	Key.space	n/a
139.7665	0.104	279533	keystroke_a	a	n/a
139.8625	0.1595	279725	keystroke_t	t	n/a
140.1345	0.072	280269	keystroke_Key.enter	Key.enter	n/a
140.212	4.5955	280424	prompt	n/a	neck referred satin around\n
140.8775	0.088	281755	keystroke_n	n	n/a
140.9575	0.137	281915	keystroke_e	e	n/a
141.1735	0.1285	282347	keystroke_c	c	n/a
141.262	0.096	282524	keystroke_k	k	n/a
141.366	0.16	282732	keystroke_Key.space	Key.space	n/a
141.534	0.1205	283068	keystroke_r	r	n/a
141.598	0.168	283196	keystroke_e	e	n/a
141.822	0.0645	283644	keystroke_f	f	n/a
142.0615	0.1445	284123	keystroke_e	e	n/a
142.35	0.12	284700	keystroke_r	r	n/a
142.542	0.104	285084	keystroke_r	r	n/a
142.6465	0.208	285293	keystroke_e	e	n/a
142.8295	0.1125	285659	keystroke_d	d	n/a
142.9425	0.127	285885	keystroke_Key.space	Key.space	n/a
143.102	0.1355	286204	keystroke_s	s	n/a
143.334	0.1355	286668	keystroke_a	a	n/a
143.4225	0.152	286845	keystroke_t	t	n/a
143.5095	0.1045	287019	keystroke_i	i	n/a
143.6785	0.127	287357	keystroke_n	n	n/a
143.8135	0.112	287627	keystroke_Key.space	Key.space	n/a
143.8545	0.1675	287709	keystroke_a	a	n/a
143.9735	0.128	287947	keystroke_r	r	n/a
144.0695	0.12	288139	keystroke_o	o	n/a
144.2375	0.112	288475	keystroke_u	u	n/a
144.3665	0.112	288733	keystroke_n	n	n/a
144.47	0.104	288940	keystroke_d	d	n/a
144.7655	0.04	289531	keystroke_Key.enter	Key.enter	n/a
144.812	7.7635	289624	prompt	n/a	portugal sussex belts queue\n
145.438	0.0965	290876	keystroke_p	p	n/a
145.614	0.12	291228	keystroke_o	o	n/a
145.774	0.128	291548	keystroke_r	r	n/a
146.046	0.112	292092	keystroke_t	t	n/a
146.1745	0.08	292349	keystroke_u	u	n/a
146.39	0.112	292780	keystroke_a	a	n/a
146.902	0.0875	293804	keystroke_Key.backspace	Key.backspace	n/a
146.9985	0.12	293997	keystroke_g	g	n/a
147.1895	0.136	294379	keystroke_a	a	n/a
147.3095	0.145	294619	keystroke_l	l	n/a
147.4855	0.16	294971	keystroke_Key.space	Key.space	n/a
147.75	0.0875	295500	keystroke_s	s	n/a
147.8945	0.0885	295789	keystroke_u	u	n/a
148.47	0.048	296940	keystroke_s	s	n/a
148.758	0.088	297516	keystroke_e	e	n/a
149.11	0.072	298220	keystroke_Key.backspace	Key.backspace	n/a
149.206	0.144	298412	keystroke_s	s	n/a
149.326	0.104	298652	keystroke_e	e	n/a
149.614	0.088	299228	keystroke_x	x	n/a
149.71	0.144	299420	keystroke_Key.space	Key.space	n/a
149.95	0.096	299900	keystroke_b	b	n/a
150.07	0.136	300140	keystroke_e	e	n/a
150.2465	0.095	300493	keystroke_l	l	n/a
150.3495	0.161	300699	keystroke_t	t	n/a
150.5175	0.129	301035	keystroke_s	s	n/a
150.694	0.1275	301388	keystroke_Key.space	Key.space	n/a
151.2865	0.1675	302573	keystroke_q	q	n/a
151.4625	0.079	302925	keystroke_u	u	n/a
151.637	0.097	303274	keystroke_e	e	n/a
151.806	0.096	303612	keystroke_u	u	n/a
152.077	0.0975	304154	keystroke_e	e	n/a
152.509	0.065	305018	keystroke_Key.enter	Key.enter	n/a
152.5795	7.772	305159	prompt	n/a	achievements singer console strengthening\n
153.518	0.1045	307036	keystroke_a	a	n/a
153.726	0.104	307452	keystroke_c	c	n/a
153.838	0.088	307676	keystroke_h	h	n/a
153.918	0.12	307836	keystroke_i	i	n/a
154.054	0.128	308108	keystroke_e	e	n/a
154.2615	0.1125	308523	keystroke_v	v	n/a
154.3665	0.0955	308733	keystroke_e	e	n/a
154.558	0.104	309116	keystroke_m	m	n/a
154.646	0.12	309292	keystroke_e	e	n/a
154.7975	0.12	309595	keystroke_n	n	n/a
154.901	0.161	309802	keystroke_t	t	n/a
155.029	0.144	310058	keystroke_s	s	n/a
155.1495	0.2	310299	keystroke_Key.space	Key.space	n/a
155.3105	0.111	310621	keystroke_s	s	n/a
155.381	0.081	310762	keystroke_i	i	n/a
155.5655	0.104	311131	keystroke_n	n	n/a
155.6215	0.112	311243	keystroke_g	g	n/a
155.7655	0.1605	311531	keystroke_e	e	n/a
155.878	0.1435	311756	keystroke_r	r	n/a
156.0135	0.1365	312027	keystroke_Key.space	Key.space	n/a
156.2295	0.136	312459	keystroke_c	c	n/a
156.3025	0.087	312605	keystroke_o	o	n/a
156.47	0.112	312940	keystroke_n	n	n/a
156.6135	0.088	313227	keystroke_s	s	n/a
156.7105	0.0955	313421	keystroke_o	o	n/a
156.9255	0.096	313851	keystroke_l	l	n/a
157.014	0.136	314028	keystroke_e	e	n/a
157.1185	0.167	314237	keystroke_Key.space	Key.space	n/a
157.294	0.0795	314588	keystroke_s	s	n/a
157.4135	0.1285	314827	keystroke_t	t	n/a
157.6535	0.144	315307	keystroke_r	r	n/a
157.774	0.152	315548	keystroke_e	e	n/a
157.9015	0.1285	315803	keystroke_n	n	n/a
158.1575	0.1045	316315	keystroke_g	g	n/a
158.414	0.112	316828	keystroke_t	t	n/a
159.0055	0.104	318011	keystroke_h	h	n/a
159.1415	0.0965	318283	keystroke_e	e	n/a
159.3015	0.08	318603	keystroke_n	n	n/a
159.446	0.136	318892	keystroke_i	i	n/a
159.5825	0.111	319165	keystroke_n	n	n/a
159.6615	0.144	319323	keystroke_g	g	n/a
160.23	0.12	320460	keystroke_Key.enter	Key.enter	n/a
160.356	5.6995	320712	prompt	n/a	probably location mobiles fixes\n
161.038	0.168	322076	keystroke_p	p	n/a
161.238	0.0635	322476	keystroke_r	r	n/a
161.286	0.0955	322572	keystroke_o	o	n/a
161.5495	0.112	323099	keystroke_b	b	n/a
161.7255	0.104	323451	keystroke_a	a	n/a
161.7415	0.1125	323483	keystroke_b	b	n/a
161.9425	0.111	323885	keystroke_l	l	n/a
162.1895	0.0955	324379	keystroke_y	y	n/a
162.373	0.1365	324746	keystroke_Key.space	Key.space	n/a
162.613	0.104	325226	keystroke_l	l	n/a
162.8295	0.104	325659	keystroke_o	o	n/a
162.8865	0.119	325773	keystroke_c	c	n/a
162.9735	0.16	325947	keystroke_a	a	n/a
163.1655	0.136	326331	keystroke_t	t	n/a
163.2535	0.096	326507	keystroke_i	i	n/a
163.3095	0.112	326619	keystroke_o	o	n/a
163.486	0.1195	326972	keystroke_n	n	n/a
163.5575	0.176	327115	keystroke_Key.space	Key.space	n/a
163.9255	0.152	327851	keystroke_m	m	n/a
164.0695	0.1285	328139	keystroke_o	o	n/a
164.3175	0.0645	328635	keystroke_b	b	n/a
164.51	0.16	329020	keystroke_i	i	n/a
164.606	0.152	329212	keystroke_l	l	n/a
164.7175	0.12	329435	keystroke_e	e	n/a
164.7655	0.192	329531	keystroke_s	s	n/a
164.9095	0.184	329819	keystroke_Key.space	Key.space	n/a
165.1495	0.097	330299	keystroke_f	f	n/a
165.222	0.1195	330444	keystroke_i	i	n/a
165.39	0.1195	330780	keystroke_x	x	n/a
165.6295	0.16	331259	keystroke_e	e	n/a
165.7575	0.128	331515	keystroke_s	s	n/a
165.958	0.0955	331916	keystroke_Key.enter	Key.enter	n/a
166.0595	6.244	332119	prompt	n/a	nursing latina condition canberra\n
166.79	0.1115	333580	keystroke_n	n	n/a
166.8935	0.136	333787	keystroke_u	u	n/a
167.014	0.1515	334028	keystroke_r	r	n/a
167.198	0.1035	334396	keystroke_s	s	n/a
167.2945	0.1035	334589	keystroke_i	i	n/a
167.4775	0.128	334955	keystroke_n	n	n/a
167.566	0.1195	335132	keystroke_g	g	n/a
167.6295	0.184	335259	keystroke_Key.space	Key.space	n/a
167.7895	0.128	335579	keystroke_l	l	n/a
167.9095	0.1285	335819	keystroke_a	a	n/a
168.0935	0.16	336187	keystroke_t	t	n/a
168.1815	0.088	336363	keystroke_i	i	n/a
168.342	0.1195	336684	keystroke_n	n	n/a
168.454	0.079	336908	keystroke_a	a	n/a
168.55	0.144	337100	keystroke_Key.space	Key.space	n/a
168.798	0.1195	337596	keystroke_c	c	n/a
168.909	0.057	337818	keystroke_o	o	n/a
169.086	0.096	338172	keystroke_n	n	n/a
169.246	0.08	338492	keystroke_d	d	n/a
169.398	0.096	338796	keystroke_i	i	n/a
169.766	0.136	339532	keystroke_t	t	n/a
169.9575	0.16	339915	keystroke_i	i	n/a
170.0695	0.128	340139	keystroke_o	o	n/a
170.1815	0.12	340363	keystroke_n	n	n/a
170.429	0.144	340858	keystroke_Key.space	Key.space	n/a
170.621	0.0485	341242	keystroke_c	c	n/a
170.958	0.095	341916	keystroke_a	a	n/a
171.045	0.089	342090	keystroke_n	n	n/a
171.2695	0.112	342539	keystroke_b	b	n/a
171.3975	0.104	342795	keystroke_e	e	n/a
171.4935	0.136	342987	keystroke_r	r	n/a
171.7175	0.0805	343435	keystroke_r	r	n/a
171.806	0.1595	343612	keystroke_a	a	n/a
172.2055	0.0955	344411	keystroke_Key.enter	Key.enter	n/a
172.3075	6.9635	344615	prompt	n/a	basename absolute reynolds paintings\n
173.2055	0.112	346411	keystroke_b	b	n/a
173.3255	0.112	346651	keystroke_a	a	n/a
173.478	0.08	346956	keystroke_s	s	n/a
173.6935	0.064	347387	keystroke_e	e	n/a
173.766	0.1195	347532	keystroke_n	n	n/a
173.9255	0.0875	347851	keystroke_a	a	n/a
174.053	0.1045	348106	keystroke_m	m	n/a
174.166	0.0955	348332	keystroke_e	e	n/a
174.534	0.135	349068	keystroke_Key.space	Key.space	n/a
174.7895	0.1275	349579	keystroke_a	a	n/a
174.8775	0.1035	349755	keystroke_b	b	n/a
175.2055	0.088	350411	keystroke_s	s	n/a
175.2295	0.0965	350459	keystroke_o	o	n/a
175.446	0.0795	350892	keystroke_l	l	n/a
175.6375	0.1045	351275	keystroke_u	u	n/a
175.694	0.1595	351388	keystroke_t	t	n/a
175.79	0.1435	351580	keystroke_e	e	n/a
175.9255	0.152	351851	keystroke_Key.space	Key.space	n/a
176.301	0.137	352602	keystroke_r	r	n/a
176.397	0.128	352794	keystroke_e	e	n/a
176.566	0.08	353132	keystroke_y	y	n/a
177.021	0.08	354042	keystroke_n	n	n/a
177.213	0.08	354426	keystroke_o	o	n/a
177.438	0.095	354876	keystroke_l	l	n/a
177.557	0.097	355114	keystroke_d	d	n/a
177.622	0.1435	355244	keystroke_s	s	n/a
177.717	0.1685	355434	keystroke_Key.space	Key.space	n/a
177.902	0.1115	355804	keystroke_p	p	n/a
178.0055	0.1355	356011	keystroke_a	a	n/a
178.149	0.0965	356298	keystroke_i	i	n/a
178.3815	0.104	356763	keystroke_n	n	n/a
178.4935	0.128	356987	keystroke_t	t	n/a
178.6295	0.08	357259	keystroke_i	i	n/a
178.7495	0.112	357499	keystroke_n	n	n/a
178.877	0.104	357754	keystroke_g	g	n/a
178.966	0.095	357932	keystroke_s	s	n/a
179.1815	0.088	358363	keystroke_Key.enter	Key.enter	n/a
179.275	10.78	358550	prompt	n/a	phenomenon shape charms wrist\n
180.029	0.089	360058	keystroke_p	p	n/a
180.2855	0.064	360571	keystroke_h	h	n/a
180.5015	0.0965	361003	keystroke_e	e	n/a
181.142	0.08	362284	keystroke_n	n	n/a
181.31	0.0955	362620	keystroke_o	o	n/a
181.734	0.087	363468	keystroke_m	m	n/a
181.894	0.152	363788	keystroke_e	e	n/a
181.997	0.113	363994	keystroke_n	n	n/a
186.374	0.143	372748	keystroke_o	o	n/a
186.525	0.128	373050	keystroke_n	n	n/a
186.7175	0.1595	373435	keystroke_Key.space	Key.space	n/a
187.094	0.143	374188	keystroke_s	s	n/a
187.158	0.095	374316	keystroke_h	h	n/a
187.3815	0.0475	374763	keystroke_a	a	n/a
187.3965	0.1215	374793	keystroke_p	p	n/a
187.4925	0.1925	374985	keystroke_e	e	n/a
187.901	0.1285	375802	keystroke_Key.space	Key.space	n/a
188.189	0.1285	376378	keystroke_c	c	n/a
188.277	0.12	376554	keystroke_h	h	n/a
188.413	0.136	376826	keystroke_a	a	n/a
188.509	0.144	377018	keystroke_r	r	n/a
188.725	0.1285	377450	keystroke_m	m	n/a
188.861	0.1045	377722	keystroke_s	s	n/a
188.9815	0.184	377963	keystroke_Key.space	Key.space	n/a
189.2455	0.104	378491	keystroke_w	w	n/a
189.3575	0.096	378715	keystroke_r	r	n/a
189.4775	0.128	378955	keystroke_i	i	n/a
189.6535	0.136	379307	keystroke_s	s	n/a
189.7655	0.112	379531	keystroke_t	t	n/a
189.9175	0.1355	379835	keystroke_Key.enter	Key.enter	n/a
190.0585	7.2205	380117	prompt	n/a	arrangement receiving designer incentives\n
190.7335	0.1515	381467	keystroke_a	a	n/a
190.8455	0.128	381691	keystroke_r	r	n/a
191.0295	0.1045	382059	keystroke_r	r	n/a
191.1895	0.1035	382379	keystroke_a	a	n/a
191.3335	0.1115	382667	keystroke_n	n	n/a
191.4695	0.112	382939	keystroke_g	g	n/a
191.693	0.104	383386	keystroke_e	e	n/a
191.8135	0.112	383627	keystroke_m	m	n/a
191.9495	0.1035	383899	keystroke_e	e	n/a
192.077	0.1045	384154	keystroke_n	n	n/a
192.165	0.128	384330	keystroke_t	t	n/a
192.333	0.1435	384666	keystroke_Key.space	Key.space	n/a
192.637	0.1365	385274	keystroke_r	r	n/a
192.7255	0.16	385451	keystroke_e	e	n/a
192.9895	0.1195	385979	keystroke_c	c	n/a
193.109	0.1525	386218	keystroke_e	e	n/a
193.2855	0.096	386571	keystroke_i	i	n/a
193.4135	0.0795	386827	keystroke_v	v	n/a
193.565	0.08	387130	keystroke_i	i	n/a
193.741	0.1125	387482	keystroke_n	n	n/a
193.8135	0.1125	387627	keystroke_g	g	n/a
193.941	0.1525	387882	keystroke_Key.space	Key.space	n/a
194.205	0.088	388410	keystroke_d	d	n/a
194.269	0.176	388538	keystroke_e	e	n/a
194.389	0.1195	388778	keystroke_s	s	n/a
194.477	0.0885	388954	keystroke_i	i	n/a
194.653	0.1125	389306	keystroke_g	g	n/a
194.8925	0.097	389785	keystroke_n	n	n/a
195.0375	0.127	390075	keystroke_e	e	n/a
195.0935	0.151	390187	keystroke_r	r	n/a
195.4215	0.143	390843	keystroke_Key.space	Key.space	n/a
195.6125	0.0965	391225	keystroke_i	i	n/a
196.0125	0.096	392025	keystroke_n	n	n/a
196.1095	0.104	392219	keystroke_c	c	n/a
196.2375	0.1835	392475	keystroke_e	e	n/a
196.413	0.0885	392826	keystroke_n	n	n/a
196.5175	0.1115	393035	keystroke_t	t	n/a
196.6535	0.1035	393307	keystroke_i	i	n/a
196.829	0.1525	393658	keystroke_v	v	n/a
196.909	0.16	393818	keystroke_e	e	n/a
196.989	0.1365	393978	keystroke_s	s	n/a
197.173	0.104	394346	keystroke_Key.enter	Key.enter	n/a
197.2855	8.689	394571	prompt	n/a	prominent regime cylinder allergy\n
197.893	0.0965	395786	keystroke_p	p	n/a
198.0215	0.111	396043	keystroke_r	r	n/a
198.093	0.1045	396186	keystroke_o	o	n/a
198.3245	0.1205	396649	keystroke_m	m	n/a
198.4135	0.119	396827	keystroke_i	i	n/a
198.6445	0.112	397289	keystroke_n	n	n/a
198.917	0.1515	397834	keystroke_e	e	n/a
199.0365	0.12	398073	keystroke_n	n	n/a
199.1495	0.135	398299	keystroke_t	t	n/a
199.2605	0.1365	398521	keystroke_Key.space	Key.space	n/a
199.4615	0.1035	398923	keystroke_r	r	n/a
199.5335	0.1595	399067	keystroke_e	e	n/a
200.021	0.104	400042	keystroke_g	g	n/a
200.1095	0.088	400219	keystroke_i	i	n/a
200.2205	0.112	400441	keystroke_m	m	n/a
200.3165	0.104	400633	keystroke_e	e	n/a
200.4535	0.1675	400907	keystroke_Key.space	Key.space	n/a
201.4285	0.1285	402857	keystroke_c	c	n/a
201.8775	0.063	403755	keystroke_u	u	n/a
202.4455	0.096	404891	keystroke_Key.backspace	Key.backspace	n/a
202.7975	0.096	405595	keystroke_y	y	n/a
203.078	0.087	406156	keystroke_l	l	n/a
203.221	0.096	406442	keystroke_i	i	n/a
203.421	0.1355	406842	keystroke_n	n	n/a
203.533	0.128	407066	keystroke_d	d	n/a
203.797	0.1285	407594	keystroke_e	e	n/a
203.8925	0.128	407785	keystroke_r	r	n/a
204.0525	0.096	408105	keystroke_Key.space	Key.space	n/a
204.693	0.104	409386	keystroke_a	a	n/a
204.7975	0.0875	409595	keystroke_l	l	n/a
204.973	0.104	409946	keystroke_l	l	n/a
205.1175	0.08	410235	keystroke_e	e	n/a
205.1415	0.128	410283	keystroke_r	r	n/a
205.3895	0.1275	410779	keystroke_g	g	n/a
205.4285	0.1205	410857	keystroke_y	y	n/a
205.8845	0.0885	411769	keystroke_Key.enter	Key.enter	n/a
205.9785	5.645	411957	prompt	n/a	carried gaps secure syndication\n
206.613	0.112	413226	keystroke_c	c	n/a
206.781	0.1285	413562	keystroke_a	a	n/a
206.8925	0.113	413785	keystroke_r	r	n/a
207.0855	0.0875	414171	keystroke_r	r	n/a
207.1895	0.119	414379	keystroke_i	i	n/a
207.3245	0.136	414649	keystroke_e	e	n/a
207.453	0.0885	414906	keystroke_d	d	n/a
207.5565	0.16	415113	keystroke_Key.space	Key.space	n/a
207.7325	0.1125	415465	keystroke_g	g	n/a
207.9325	0.0725	415865	keystroke_a	a	n/a
208.0055	0.1035	416011	keystroke_p	p	n/a
208.141	0.1115	416282	keystroke_s	s	n/a
208.245	0.144	416490	keystroke_Key.space	Key.space	n/a
208.517	0.096	417034	keystroke_s	s	n/a
208.733	0.144	417466	keystroke_e	e	n/a
208.933	0.104	417866	keystroke_c	c	n/a
209.029	0.112	418058	keystroke_u	u	n/a
209.237	0.128	418474	keystroke_r	r	n/a
209.317	0.144	418634	keystroke_e	e	n/a
209.47	0.1265	418940	keystroke_Key.space	Key.space	n/a
209.6285	0.1285	419257	keystroke_s	s	n/a
209.957	0.1195	419914	keystroke_y	y	n/a
210.133	0.1435	420266	keystroke_n	n	n/a
210.4045	0.096	420809	keystroke_d	d	n/a
210.5085	0.112	421017	keystroke_i	i	n/a
210.6685	0.0965	421337	keystroke_c	c	n/a
210.8135	0.151	421627	keystroke_a	a	n/a
210.9885	0.136	421977	keystroke_t	t	n/a
211.0365	0.145	422073	keystroke_i	i	n/a
211.1165	0.145	422233	keystroke_o	o	n/a
211.2295	0.127	422459	keystroke_n	n	n/a
211.5485	0.072	423097	keystroke_Key.enter	Key.enter	n/a
211.6275	6.275	423255	prompt	n/a	sandwich testing backed montgomery\n
212.1415	0.12	424283	keystroke_s	s	n/a
212.3245	0.104	424649	keystroke_a	a	n/a
212.4935	0.0795	424987	keystroke_n	n	n/a
212.5885	0.129	425177	keystroke_d	d	n/a
212.7965	0.088	425593	keystroke_w	w	n/a
212.8855	0.095	425771	keystroke_i	i	n/a
213.0125	0.128	426025	keystroke_c	c	n/a
213.101	0.0875	426202	keystroke_h	h	n/a
213.1805	0.1835	426361	keystroke_Key.space	Key.space	n/a
213.341	0.168	426682	keystroke_t	t	n/a
213.452	0.2725	426904	keystroke_e	e	n/a
213.597	0.152	427194	keystroke_s	s	n/a
213.709	0.1515	427418	keystroke_t	t	n/a
213.829	0.0875	427658	keystroke_i	i	n/a
213.997	0.1275	427994	keystroke_n	n	n/a
214.101	0.1125	428202	keystroke_g	g	n/a
214.149	0.192	428298	keystroke_Key.space	Key.space	n/a
214.342	0.119	428684	keystroke_b	b	n/a
214.453	0.1205	428906	keystroke_a	a	n/a
214.661	0.1035	429322	keystroke_c	c	n/a
214.749	0.0875	429498	keystroke_k	k	n/a
215.077	0.1445	430154	keystroke_e	e	n/a
215.1975	0.111	430395	keystroke_d	d	n/a
215.2925	0.144	430585	keystroke_Key.space	Key.space	n/a
215.549	0.1355	431098	keystroke_m	m	n/a
215.701	0.1035	431402	keystroke_o	o	n/a
215.8855	0.1115	431771	keystroke_n	n	n/a
216.0845	0.129	432169	keystroke_t	t	n/a
216.493	0.1045	432986	keystroke_g	g	n/a
216.6045	0.08	433209	keystroke_o	o	n/a
216.9575	0.1675	433915	keystroke_m	m	n/a
217.197	0.1365	434394	keystroke_e	e	n/a
217.2605	0.161	434521	keystroke_r	r	n/a
217.4045	0.064	434809	keystroke_y	y	n/a
217.8045	0.0955	435609	keystroke_Key.enter	Key.enter	n/a
217.9075	6.123	435815	prompt	n/a	exceptional motivation that'll my\n
219.0535	0.1195	438107	keystroke_e	e	n/a
219.3085	0.1205	438617	keystroke_x	x	n/a
219.565	0.1035	439130	keystroke_c	c	n/a
219.7485	0.144	439497	keystroke_e	e	n/a
219.8605	0.104	439721	keystroke_p	p	n/a
220.0045	0.1525	440009	keystroke_t	t	n/a
220.141	0.144	440282	keystroke_i	i	n/a
220.229	0.1275	440458	keystroke_o	o	n/a
220.3885	0.128	440777	keystroke_n	n	n/a
220.4925	0.112	440985	keystroke_a	a	n/a
220.6055	0.127	441211	keystroke_l	l	n/a
220.7005	0.2085	441401	keystroke_Key.space	Key.space	n/a
220.901	0.1275	441802	keystroke_m	m	n/a
221.0445	0.136	442089	keystroke_o	o	n/a
221.1085	0.12	442217	keystroke_t	t	n/a
221.2925	0.0885	442585	keystroke_i	i	n/a
221.405	0.096	442810	keystroke_v	v	n/a
221.621	0.152	443242	keystroke_a	a	n/a
221.749	0.144	443498	keystroke_t	t	n/a
221.861	0.104	443722	keystroke_i	i	n/a
221.917	0.112	443834	keystroke_o	o	n/a
222.0615	0.1195	444123	keystroke_n	n	n/a
222.109	0.2235	444218	keystroke_Key.space	Key.space	n/a
222.245	0.152	444490	keystroke_t	t	n/a
222.3415	0.1195	444683	keystroke_h	h	n/a
222.453	0.1115	444906	keystroke_a	a	n/a
222.5245	0.136	445049	keystroke_t	t	n/a
222.6935	0.103	445387	keystroke_'	'	n/a
222.981	0.0875	445962	keystroke_l	l	n/a
223.157	0.0955	446314	keystroke_l	l	n/a
223.2445	0.1605	446489	keystroke_Key.space	Key.space	n/a
223.3885	0.12	446777	keystroke_m	m	n/a
223.6045	0.073	447209	keystroke_y	y	n/a
223.9645	0.064	447929	keystroke_Key.enter	Key.enter	n/a
224.0345	6.82	448069	prompt	n/a	conscious visual leaders martha\n
224.7815	0.1275	449563	keystroke_c	c	n/a
224.829	0.088	449658	keystroke_o	o	n/a
225.005	0.128	450010	keystroke_n	n	n/a
225.109	0.12	450218	keystroke_s	s	n/a
225.269	0.12	450538	keystroke_c	c	n/a
225.373	0.136	450746	keystroke_i	i	n/a
225.445	0.128	450890	keystroke_o	o	n/a
225.637	0.1115	451274	keystroke_u	u	n/a
225.757	0.104	451514	keystroke_s	s	n/a
225.908	0.16	451816	keystroke_Key.space	Key.space	n/a
226.221	0.096	452442	keystroke_v	v	n/a
226.3085	0.0885	452617	keystroke_i	i	n/a
226.453	0.0875	452906	keystroke_s	s	n/a
226.5725	0.096	453145	keystroke_u	u	n/a
226.7085	0.112	453417	keystroke_a	a	n/a
226.9085	0.0965	453817	keystroke_l	l	n/a
226.9725	0.1525	453945	keystroke_Key.space	Key.space	n/a
227.205	0.08	454410	keystroke_m	m	n/a
227.541	0.072	455082	keystroke_Key.backspace	Key.backspace	n/a
227.813	0.12	455626	keystroke_l	l	n/a
227.9335	0.0645	455867	keystroke_e	e	n/a
227.9895	0.12	455979	keystroke_a	a	n/a
228.317	0.12	456634	keystroke_e	e	n/a
228.8525	0.0965	457705	keystroke_Key.backspace	Key.backspace	n/a
228.9965	0.112	457993	keystroke_d	d	n/a
229.092	0.153	458184	keystroke_e	e	n/a
229.2365	0.128	458473	keystroke_r	r	n/a
229.357	0.1275	458714	keystroke_s	s	n/a
229.525	0.168	459050	keystroke_Key.space	Key.space	n/a
229.725	0.136	459450	keystroke_m	m	n/a
229.813	0.136	459626	keystroke_a	a	n/a
229.901	0.12	459802	keystroke_r	r	n/a
230.117	0.128	460234	keystroke_t	t	n/a
230.205	0.088	460410	keystroke_h	h	n/a
230.517	0.128	461034	keystroke_a	a	n/a
230.741	0.112	461482	keystroke_Key.enter	Key.enter	n/a
230.859	5.219	461718	prompt	n/a	rotation pacific chase consists\n
231.525	0.064	463050	keystroke_r	r	n/a
231.573	0.144	463146	keystroke_o	o	n/a
231.749	0.1365	463498	keystroke_t	t	n/a
231.886	0.143	463772	keystroke_a	a	n/a
232.021	0.112	464042	keystroke_t	t	n/a
232.117	0.1195	464234	keystroke_i	i	n/a
232.173	0.12	464346	keystroke_o	o	n/a
232.333	0.152	464666	keystroke_n	n	n/a
232.428	0.177	464856	keystroke_Key.space	Key.space	n/a
232.733	0.1355	465466	keystroke_p	p	n/a
232.877	0.104	465754	keystroke_a	a	n/a
233.0605	0.12	466121	keystroke_c	c	n/a
233.1805	0.112	466361	keystroke_i	i	n/a
233.3485	0.1045	466697	keystroke_f	f	n/a
233.429	0.1195	466858	keystroke_i	i	n/a
233.605	0.1035	467210	keystroke_c	c	n/a
233.7485	0.176	467497	keystroke_Key.space	Key.space	n/a
234.0685	0.128	468137	keystroke_c	c	n/a
234.1885	0.12	468377	keystroke_h	h	n/a
234.3005	0.1365	468601	keystroke_a	a	n/a
234.4045	0.088	468809	keystroke_s	s	n/a
234.5885	0.152	469177	keystroke_e	e	n/a
234.7325	0.112	469465	keystroke_Key.space	Key.space	n/a
234.8525	0.144	469705	keystroke_c	c	n/a
234.8925	0.12	469785	keystroke_o	o	n/a
235.0925	0.112	470185	keystroke_n	n	n/a
235.2055	0.095	470411	keystroke_s	s	n/a
235.324	0.129	470648	keystroke_i	i	n/a
235.437	0.096	470874	keystroke_s	s	n/a
235.535	0.149	471070	keystroke_t	t	n/a
235.6535	0.1025	471307	keystroke_s	s	n/a
235.9405	0.1355	471881	keystroke_Key.enter	Key.enter	n/a
236.081	5.0855	472162	prompt	n/a	responding courier name color\n
236.605	0.1995	473210	keystroke_r	r	n/a
236.732	0.1765	473464	keystroke_e	e	n/a
236.844	0.1285	473688	keystroke_s	s	n/a
236.9965	0.1275	473993	keystroke_p	p	n/a
237.068	0.1285	474136	keystroke_o	o	n/a
237.3405	0.12	474681	keystroke_n	n	n/a
237.4445	0.128	474889	keystroke_d	d	n/a
237.524	0.16	475048	keystroke_i	i	n/a
237.6685	0.136	475337	keystroke_n	n	n/a
237.7725	0.1035	475545	keystroke_g	g	n/a
237.8445	0.192	475689	keystroke_Key.space	Key.space	n/a
238.052	0.113	476104	keystroke_c	c	n/a
238.1565	0.088	476313	keystroke_o	o	n/a
238.3325	0.1125	476665	keystroke_u	u	n/a
238.5325	0.096	477065	keystroke_r	r	n/a
238.8765	0.12	477753	keystroke_i	i	n/a
239.1085	0.12	478217	keystroke_e	e	n/a
239.1725	0.136	478345	keystroke_r	r	n/a
239.3405	0.128	478681	keystroke_Key.space	Key.space	n/a
239.5485	0.104	479097	keystroke_n	n	n/a
239.669	0.1195	479338	keystroke_a	a	n/a
239.821	0.0875	479642	keystroke_m	m	n/a
239.9005	0.1045	479801	keystroke_e	e	n/a
239.9885	0.2	479977	keystroke_Key.space	Key.space	n/a
240.1805	0.128	480361	keystroke_c	c	n/a
240.2925	0.096	480585	keystroke_o	o	n/a
240.509	0.0795	481018	keystroke_l	l	n/a
240.6845	0.1365	481369	keystroke_o	o	n/a
240.749	0.184	481498	keystroke_r	r	n/a
241.0525	0.1115	482105	keystroke_Key.enter	Key.enter	n/a
241.171	6.4125	482342	prompt	n/a	pick compiled trustees northern\n
241.7325	0.112	483465	keystroke_p	p	n/a
241.9325	0.096	483865	keystroke_i	i	n/a
242.0365	0.1115	484073	keystroke_c	c	n/a
242.156	0.096	484312	keystroke_k	k	n/a
242.2845	0.1675	484569	keystroke_Key.space	Key.space	n/a
242.6605	0.128	485321	keystroke_c	c	n/a
242.7405	0.1205	485481	keystroke_o	o	n/a
242.9245	0.112	485849	keystroke_m	m	n/a
243.1405	0.104	486281	keystroke_p	p	n/a
243.4125	0.032	486825	keystroke_i	i	n/a
243.748	0.1125	487496	keystroke_l	l	n/a
243.8525	0.1355	487705	keystroke_e	e	n/a
243.948	0.1205	487896	keystroke_d	d	n/a
244.0285	0.16	488057	keystroke_Key.space	Key.space	n/a
244.2205	0.128	488441	keystroke_t	t	n/a
244.445	0.1355	488890	keystroke_r	r	n/a
244.557	0.1115	489114	keystroke_u	u	n/a
244.6605	0.1205	489321	keystroke_s	s	n/a
244.772	0.12	489544	keystroke_t	t	n/a
245.029	0.0635	490058	keystroke_e	e	n/a
245.205	0.1035	490410	keystroke_e	e	n/a
245.62	0.08	491240	keystroke_s	s	n/a
245.701	0.151	491402	keystroke_Key.space	Key.space	n/a
246.0205	0.0875	492041	keystroke_n	n	n/a
246.204	0.096	492408	keystroke_o	o	n/a
246.268	0.129	492536	keystroke_r	r	n/a
246.501	0.127	493002	keystroke_t	t	n/a
246.556	0.128	493112	keystroke_h	h	n/a
246.644	0.169	493288	keystroke_e	e	n/a
246.772	0.16	493544	keystroke_r	r	n/a
247.012	0.105	494024	keystroke_n	n	n/a
247.4685	0.1115	494937	keystroke_Key.enter	Key.enter	n/a
247.592	5.766	495184	prompt	n/a	auckland mats enforcement notify\n
248.285	0.1195	496570	keystroke_a	a	n/a
248.3965	0.104	496793	keystroke_u	u	n/a
248.5485	0.1445	497097	keystroke_c	c	n/a
248.6685	0.0805	497337	keystroke_k	k	n/a
248.8685	0.0635	497737	keystroke_l	l	n/a
249.012	0.1205	498024	keystroke_a	a	n/a
249.116	0.1205	498232	keystroke_n	n	n/a
249.213	0.111	498426	keystroke_d	d	n/a
249.268	0.16	498536	keystroke_Key.space	Key.space	n/a
249.421	0.143	498842	keystroke_m	m	n/a
249.612	0.1205	499224	keystroke_a	a	n/a
249.908	0.12	499816	keystroke_t	t	n/a
250.0445	0.1035	500089	keystroke_s	s	n/a
250.1565	0.128	500313	keystroke_Key.space	Key.space	n/a
250.3565	0.136	500713	keystroke_e	e	n/a
250.4765	0.096	500953	keystroke_n	n	n/a
250.6925	0.112	501385	keystroke_f	f	n/a
250.8285	0.104	501657	keystroke_o	o	n/a
250.9805	0.112	501961	keystroke_r	r	n/a
251.2845	0.104	502569	keystroke_c	c	n/a
251.3805	0.096	502761	keystroke_e	e	n/a
251.5485	0.104	503097	keystroke_m	m	n/a
251.725	0.1435	503450	keystroke_e	e	n/a
251.8445	0.1275	503689	keystroke_n	n	n/a
251.956	0.136	503912	keystroke_t	t	n/a
252.084	0.1845	504168	keystroke_Key.space	Key.space	n/a
252.2605	0.1045	504521	keystroke_n	n	n/a
252.4285	0.1285	504857	keystroke_o	o	n/a
252.5485	0.1195	505097	keystroke_t	t	n/a
252.6765	0.0875	505353	keystroke_i	i	n/a
252.828	0.096	505656	keystroke_f	f	n/a
252.9325	0.088	505865	keystroke_y	y	n/a
253.268	0.0885	506536	keystroke_Key.enter	Key.enter	n/a
253.3625	11.0995	506725	prompt	n/a	vancouver reproductive guaranteed execution\n
254.236	0.0965	508472	keystroke_v	v	n/a
254.396	0.152	508792	keystroke_a	a	n/a
254.4925	0.0635	508985	keystroke_n	n	n/a
254.628	0.128	509256	keystroke_c	c	n/a
254.716	0.08	509432	keystroke_o	o	n/a
254.861	0.127	509722	keystroke_u	u	n/a
255.044	0.1125	510088	keystroke_v	v	n/a
255.1805	0.184	510361	keystroke_e	e	n/a
255.3245	0.112	510649	keystroke_r	r	n/a
255.4605	0.136	510921	keystroke_Key.space	Key.space	n/a
255.6685	0.1435	511337	keystroke_r	r	n/a
255.748	0.201	511496	keystroke_e	e	n/a
255.9965	0.0795	511993	keystroke_p	p	n/a
256.3005	0.0875	512601	keystroke_r	r	n/a
256.3725	0.127	512745	keystroke_o	o	n/a
256.596	0.0805	513192	keystroke_d	d	n/a
256.8195	0.088	513639	keystroke_u	u	n/a
257.0685	0.1355	514137	keystroke_c	c	n/a
257.42	0.0795	514840	keystroke_t	t	n/a
257.4595	0.129	514919	keystroke_i	i	n/a
257.7085	0.0955	515417	keystroke_v	v	n/a
257.82	0.129	515640	keystroke_e	e	n/a
258.1005	0.1275	516201	keystroke_Key.space	Key.space	n/a
258.236	0.1285	516472	keystroke_g	g	n/a
258.3875	0.105	516775	keystroke_u	u	n/a
258.5405	0.128	517081	keystroke_a	a	n/a
258.6445	0.144	517289	keystroke_r	r	n/a
258.8205	0.104	517641	keystroke_a	a	n/a
258.9725	0.12	517945	keystroke_n	n	n/a
259.0845	0.1285	518169	keystroke_t	t	n/a
259.3805	0.104	518761	keystroke_e	e	n/a
259.5725	0.128	519145	keystroke_e	e	n/a
259.724	0.097	519448	keystroke_d	d	n/a
259.8915	0.177	519783	keystroke_Key.space	Key.space	n/a
260.0365	0.072	520073	keystroke_e	e	n/a
260.3245	0.096	520649	keystroke_x	x	n/a
260.556	0.1605	521112	keystroke_e	e	n/a
260.732	0.112	521464	keystroke_c	c	n/a
261.076	0.128	522152	keystroke_t	t	n/a
261.2605	0.192	522521	keystroke_i	i	n/a
261.365	0.152	522730	keystroke_o	o	n/a
261.972	0.0725	523944	keystroke_Key.backspace	Key.backspace	n/a
262.108	0.088	524216	keystroke_Key.backspace	Key.backspace	n/a
262.3005	0.039	524601	keystroke_Key.backspace	Key.backspace	n/a
262.8925	0.136	525785	keystroke_u	u	n/a
263.0285	0.072	526057	keystroke_o	o	n/a
263.4845	0.032	526969	keystroke_Key.backspace	Key.backspace	n/a
263.6285	0.128	527257	keystroke_t	t	n/a
263.7885	0.144	527577	keystroke_i	i	n/a
263.8445	0.16	527689	keystroke_o	o	n/a
264.0365	0.12	528073	keystroke_n	n	n/a
264.3965	0.063	528793	keystroke_Key.enter	Key.enter	n/a
264.469	10.5285	528938	prompt	n/a	reliable emerging rick pixels\n
265.1085	0.104	530217	keystroke_e	e	n/a
265.4685	0.0635	530937	keystroke_Key.backspace	Key.backspace	n/a
265.6125	0.1355	531225	keystroke_r	r	n/a
265.6845	0.144	531369	keystroke_e	e	n/a
265.8035	0.105	531607	keystroke_l	l	n/a
265.9965	0.104	531993	keystroke_i	i	n/a
266.2045	0.056	532409	keystroke_a	a	n/a
266.2765	0.104	532553	keystroke_b	b	n/a
266.5085	0.095	533017	keystroke_l	l	n/a
266.6045	0.104	533209	keystroke_e	e	n/a
266.7325	0.167	533465	keystroke_Key.space	Key.space	n/a
267.0835	0.1045	534167	keystroke_e	e	n/a
267.1965	0.104	534393	keystroke_m	m	n/a
267.316	0.136	534632	keystroke_e	e	n/a
267.396	0.136	534792	keystroke_r	r	n/a
267.692	0.104	535384	keystroke_g	g	n/a
267.8205	0.0795	535641	keystroke_y	y	n/a
268.037	0.071	536074	keystroke_i	i	n/a
268.164	0.144	536328	keystroke_n	n	n/a
268.244	0.136	536488	keystroke_g	g	n/a
268.324	0.2	536648	keystroke_Key.space	Key.space	n/a
268.5165	0.096	537033	keystroke_r	r	n/a
268.5565	0.128	537113	keystroke_i	i	n/a
268.7715	0.128	537543	keystroke_c	c	n/a
268.868	0.1195	537736	keystroke_k	k	n/a
269.0035	0.16	538007	keystroke_Key.space	Key.space	n/a
269.26	0.088	538520	keystroke_p	p	n/a
270.116	0.0885	540232	keystroke_Key.backspace	Key.backspace	n/a
270.316	0.0635	540632	keystroke_Key.backspace	Key.backspace	n/a
270.5075	0.056	541015	keystroke_Key.backspace	Key.backspace	n/a
270.6835	0.072	541367	keystroke_Key.backspace	Key.backspace	n/a
270.868	0.0725	541736	keystroke_Key.backspace	Key.backspace	n/a
271.06	0.08	542120	keystroke_Key.backspace	Key.backspace	n/a
271.252	0.072	542504	keystroke_Key.backspace	Key.backspace	n/a
271.436	0.072	542872	keystroke_Key.backspace	Key.backspace	n/a
271.62	0.064	543240	keystroke_Key.backspace	Key.backspace	n/a
271.788	0.0715	543576	keystroke_Key.backspace	Key.backspace	n/a
271.9725	0.0715	543945	keystroke_Key.backspace	Key.backspace	n/a
272.2365	0.087	544473	keystroke_i	i	n/a
272.4205	0.144	544841	keystroke_n	n	n/a
272.5085	0.103	545017	keystroke_g	g	n/a
272.5875	0.168	545175	keystroke_Key.space	Key.space	n/a
272.7645	0.079	545529	keystroke_r	r	n/a
272.8365	0.096	545673	keystroke_i	i	n/a
273.0125	0.112	546025	keystroke_c	c	n/a
273.0685	0.12	546137	keystroke_k	k	n/a
273.1885	0.151	546377	keystroke_Key.space	Key.space	n/a
273.3575	0.095	546715	keystroke_p	p	n/a
273.564	0.104	547128	keystroke_i	i	n/a
273.636	0.0885	547272	keystroke_e	e	n/a
274.116	0.064	548232	keystroke_Key.backspace	Key.backspace	n/a
274.188	0.1035	548376	keystroke_x	x	n/a
274.4365	0.1115	548873	keystroke_e	e	n/a
274.5235	0.129	549047	keystroke_l	l	n/a
274.66	0.104	549320	keystroke_s	s	n/a
274.932	0.064	549864	keystroke_Key.enter	Key.enter	n/a
275.002	8.676	550004	prompt	n/a	magnificent dies flickr there'll\n
275.6125	0.0875	551225	keystroke_m	m	n/a
275.701	0.08	551402	keystroke_a	a	n/a
275.908	0.112	551816	keystroke_g	g	n/a
276.132	0.08	552264	keystroke_n	n	n/a
276.3315	0.088	552663	keystroke_i	i	n/a
276.4755	0.113	552951	keystroke_f	f	n/a
276.8445	0.047	553689	keystroke_i	i	n/a
277.068	0.113	554136	keystroke_c	c	n/a
277.2525	0.192	554505	keystroke_a	a	n/a
277.9715	0.08	555943	keystroke_Key.backspace	Key.backspace	n/a
278.1485	0.136	556297	keystroke_e	e	n/a
278.2845	0.144	556569	keystroke_n	n	n/a
278.3885	0.112	556777	keystroke_t	t	n/a
278.4845	0.184	556969	keystroke_Key.space	Key.space	n/a
278.7005	0.079	557401	keystroke_d	d	n/a
278.7565	0.12	557513	keystroke_i	i	n/a
278.844	0.208	557688	keystroke_e	e	n/a
278.964	0.16	557928	keystroke_s	s	n/a
279.0995	0.1605	558199	keystroke_Key.space	Key.space	n/a
279.3075	0.104	558615	keystroke_f	f	n/a
279.436	0.064	558872	keystroke_l	l	n/a
279.58	0.0805	559160	keystroke_i	i	n/a
279.7405	0.104	559481	keystroke_c	c	n/a
279.8285	0.087	559657	keystroke_k	k	n/a
280.18	0.144	560360	keystroke_r	r	n/a
280.3075	0.136	560615	keystroke_Key.space	Key.space	n/a
280.5155	0.104	561031	keystroke_t	t	n/a
280.5795	0.088	561159	keystroke_h	h	n/a
280.7475	0.12	561495	keystroke_e	e	n/a
280.8525	0.136	561705	keystroke_r	r	n/a
280.956	0.1035	561912	keystroke_e	e	n/a
282.0685	0.096	564137	keystroke_'	'	n/a
282.372	0.064	564744	keystroke_l	l	n/a
282.5165	0.0795	565033	keystroke_l	l	n/a
282.667	0.153	565334	keystroke_Key.space	Key.space	n/a
283.3	0.08	566600	keystroke_Key.backspace	Key.backspace	n/a
283.588	0.088	567176	keystroke_Key.enter	Key.enter	n/a
283.6815	5.126	567363	prompt	n/a	burning jobs excel burton\n
284.436	0.112	568872	keystroke_b	b	n/a
284.604	0.1045	569208	keystroke_u	u	n/a
284.692	0.104	569384	keystroke_r	r	n/a
284.828	0.1205	569656	keystroke_n	n	n/a
284.996	0.1125	569992	keystroke_i	i	n/a
285.1245	0.1195	570249	keystroke_n	n	n/a
285.22	0.153	570440	keystroke_g	g	n/a
285.3	0.152	570600	keystroke_Key.space	Key.space	n/a
285.4205	0.1435	570841	keystroke_j	j	n/a
285.556	0.1205	571112	keystroke_o	o	n/a
285.8275	0.129	571655	keystroke_b	b	n/a
286.0835	0.0725	572167	keystroke_s	s	n/a
286.196	0.1595	572392	keystroke_Key.space	Key.space	n/a
286.4995	0.064	572999	keystroke_e	e	n/a
286.7795	0.089	573559	keystroke_x	x	n/a
286.9885	0.136	573977	keystroke_c	c	n/a
287.0835	0.1205	574167	keystroke_e	e	n/a
287.1955	0.096	574391	keystroke_l	l	n/a
287.2925	0.143	574585	keystroke_Key.space	Key.space	n/a
287.5075	0.096	575015	keystroke_b	b	n/a
287.74	0.1125	575480	keystroke_u	u	n/a
287.884	0.112	575768	keystroke_r	r	n/a
288.1	0.1285	576200	keystroke_t	t	n/a
288.252	0.088	576504	keystroke_o	o	n/a
288.396	0.104	576792	keystroke_n	n	n/a
288.756	0.047	577512	keystroke_Key.enter	Key.enter	n/a
288.8115	6.058	577623	prompt	n/a	entrance rogers acer promote\n
289.404	0.0635	578808	keystroke_e	e	n/a
289.62	0.1115	579240	keystroke_n	n	n/a
289.7395	0.1205	579479	keystroke_t	t	n/a
289.9555	0.113	579911	keystroke_r	r	n/a
290.0275	0.152	580055	keystroke_a	a	n/a
290.156	0.1195	580312	keystroke_n	n	n/a
290.3075	0.129	580615	keystroke_c	c	n/a
290.38	0.1605	580760	keystroke_e	e	n/a
290.5635	0.112	581127	keystroke_Key.space	Key.space	n/a
290.8915	0.1125	581783	keystroke_r	r	n/a
291.0275	0.1125	582055	keystroke_o	o	n/a
291.468	0.136	582936	keystroke_g	g	n/a
291.74	0.088	583480	keystroke_e	e	n/a
291.78	0.16	583560	keystroke_r	r	n/a
291.94	0.096	583880	keystroke_s	s	n/a
292.172	0.16	584344	keystroke_Key.space	Key.space	n/a
292.54	0.144	585080	keystroke_a	a	n/a
292.796	0.104	585592	keystroke_c	c	n/a
293.084	0.128	586168	keystroke_e	e	n/a
293.132	0.144	586264	keystroke_r	r	n/a
293.356	0.176	586712	keystroke_Key.space	Key.space	n/a
293.524	0.12	587048	keystroke_p	p	n/a
293.668	0.112	587336	keystroke_r	r	n/a
293.724	0.12	587448	keystroke_o	o	n/a
293.9555	0.145	587911	keystroke_m	m	n/a
294.276	0.104	588552	keystroke_o	o	n/a
294.42	0.136	588840	keystroke_t	t	n/a
294.516	0.152	589032	keystroke_e	e	n/a
294.788	0.08	589576	keystroke_Key.enter	Key.enter	n/a
294.8735	7.0685	589747	prompt	n/a	decision kyle treasures patrick\n
295.628	0.096	591256	keystroke_d	d	n/a
295.7	0.168	591400	keystroke_e	e	n/a
295.932	0.12	591864	keystroke_c	c	n/a
296.036	0.128	592072	keystroke_i	i	n/a
296.179	0.1205	592358	keystroke_s	s	n/a
296.2835	0.152	592567	keystroke_i	i	n/a
296.3875	0.104	592775	keystroke_o	o	n/a
296.604	0.0795	593208	keystroke_n	n	n/a
296.8515	0.16	593703	keystroke_Key.space	Key.space	n/a
297.0355	0.121	594071	keystroke_k	k	n/a
297.2995	0.0965	594599	keystroke_y	y	n/a
297.5795	0.0965	595159	keystroke_l	l	n/a
297.684	0.112	595368	keystroke_e	e	n/a
297.8035	0.168	595607	keystroke_Key.space	Key.space	n/a
298.212	0.144	596424	keystroke_t	t	n/a
298.444	0.2475	596888	keystroke_r	r	n/a
298.532	0.1675	597064	keystroke_e	e	n/a
298.812	0.112	597624	keystroke_a	a	n/a
299.3	0.0875	598600	keystroke_s	s	n/a
299.396	0.0875	598792	keystroke_u	u	n/a
299.5555	0.112	599111	keystroke_r	r	n/a
299.5805	0.2065	599161	keystroke_e	e	n/a
299.795	0.168	599590	keystroke_s	s	n/a
300.067	0.1365	600134	keystroke_Key.space	Key.space	n/a
300.2195	0.152	600439	keystroke_p	p	n/a
300.387	0.128	600774	keystroke_a	a	n/a
300.5315	0.1115	601063	keystroke_t	t	n/a
300.755	0.113	601510	keystroke_r	r	n/a
301.18	0.0635	602360	keystroke_i	i	n/a
301.2435	0.136	602487	keystroke_c	c	n/a
301.4515	0.1285	602903	keystroke_k	k	n/a
301.844	0.0955	603688	keystroke_Key.enter	Key.enter	n/a
301.946	7.755	603892	prompt	n/a	inserted trackback against phantom\n
302.732	0.104	605464	keystroke_i	i	n/a
303.019	0.112	606038	keystroke_n	n	n/a
303.299	0.2005	606598	keystroke_s	s	n/a
303.435	0.161	606870	keystroke_e	e	n/a
303.5395	0.168	607079	keystroke_r	r	n/a
303.9875	0.128	607975	keystroke_t	t	n/a
304.1715	0.144	608343	keystroke_e	e	n/a
304.4915	0.096	608983	keystroke_d	d	n/a
304.7875	0.16	609575	keystroke_Key.space	Key.space	n/a
304.924	0.167	609848	keystroke_t	t	n/a
305.2355	0.1365	610471	keystroke_r	r	n/a
305.6835	0.065	611367	keystroke_a	a	n/a
305.8675	0.128	611735	keystroke_c	c	n/a
306.0445	0.079	612089	keystroke_k	k	n/a
306.428	0.111	612856	keystroke_b	b	n/a
306.579	0.112	613158	keystroke_a	a	n/a
306.819	0.088	613638	keystroke_c	c	n/a
306.875	0.105	613750	keystroke_k	k	n/a
306.972	0.1435	613944	keystroke_Key.space	Key.space	n/a
307.196	0.112	614392	keystroke_a	a	n/a
307.404	0.12	614808	keystroke_g	g	n/a
307.652	0.104	615304	keystroke_a	a	n/a
307.7155	0.0885	615431	keystroke_i	i	n/a
307.8755	0.12	615751	keystroke_n	n	n/a
308.028	0.135	616056	keystroke_s	s	n/a
308.148	0.1595	616296	keystroke_t	t	n/a
308.3475	0.144	616695	keystroke_Key.space	Key.space	n/a
308.5715	0.072	617143	keystroke_p	p	n/a
308.804	0.08	617608	keystroke_h	h	n/a
308.8915	0.104	617783	keystroke_a	a	n/a
309.0195	0.112	618039	keystroke_n	n	n/a
309.1715	0.12	618343	keystroke_t	t	n/a
309.2435	0.128	618487	keystroke_o	o	n/a
309.348	0.104	618696	keystroke_m	m	n/a
309.6355	0.064	619271	keystroke_Key.enter	Key.enter	n/a
309.705	4.9805	619410	prompt	n/a	conflicts span hope were\n
310.3315	0.096	620663	keystroke_c	c	n/a
310.3955	0.072	620791	keystroke_o	o	n/a
310.5475	0.112	621095	keystroke_n	n	n/a
310.6675	0.104	621335	keystroke_f	f	n/a
310.7635	0.104	621527	keystroke_l	l	n/a
310.8755	0.12	621751	keystroke_i	i	n/a
311.0115	0.096	622023	keystroke_c	c	n/a
311.2595	0.1355	622519	keystroke_t	t	n/a
311.348	0.167	622696	keystroke_s	s	n/a
311.507	0.136	623014	keystroke_Key.space	Key.space	n/a
311.691	0.072	623382	keystroke_s	s	n/a
311.819	0.0965	623638	keystroke_p	p	n/a
311.891	0.121	623782	keystroke_a	a	n/a
312.051	0.136	624102	keystroke_n	n	n/a
312.2675	0.136	624535	keystroke_Key.space	Key.space	n/a
312.4275	0.1125	624855	keystroke_h	h	n/a
312.548	0.104	625096	keystroke_a	a	n/a
312.668	0.08	625336	keystroke_p	p	n/a
312.947	0.056	625894	keystroke_Key.backspace	Key.backspace	n/a
313.1235	0.08	626247	keystroke_Key.backspace	Key.backspace	n/a
313.4275	0.152	626855	keystroke_o	o	n/a
313.5395	0.136	627079	keystroke_p	p	n/a
313.6195	0.152	627239	keystroke_e	e	n/a
313.8355	0.16	627671	keystroke_Key.space	Key.space	n/a
314.0275	0.1045	628055	keystroke_w	w	n/a
314.236	0.119	628472	keystroke_e	e	n/a
314.3475	0.1355	628695	keystroke_r	r	n/a
314.4355	0.104	628871	keystroke_e	e	n/a
314.5875	0.096	629175	keystroke_Key.enter	Key.enter	n/a
314.6895	5.7155	629379	prompt	n/a	bases costs relatively mailed\n
315.3395	0.0965	630679	keystroke_b	b	n/a
315.4515	0.152	630903	keystroke_a	a	n/a
315.548	0.103	631096	keystroke_s	s	n/a
315.7795	0.1765	631559	keystroke_e	e	n/a
315.8755	0.136	631751	keystroke_s	s	n/a
316.0195	0.1515	632039	keystroke_Key.space	Key.space	n/a
316.22	0.144	632440	keystroke_c	c	n/a
316.307	0.088	632614	keystroke_o	o	n/a
316.523	0.153	633046	keystroke_s	s	n/a
316.692	0.151	633384	keystroke_t	t	n/a
316.788	0.136	633576	keystroke_s	s	n/a
316.9625	0.1765	633925	keystroke_Key.space	Key.space	n/a
317.1395	0.112	634279	keystroke_r	r	n/a
317.2355	0.16	634471	keystroke_e	e	n/a
317.396	0.1115	634792	keystroke_l	l	n/a
317.548	0.1195	635096	keystroke_a	a	n/a
317.6755	0.1125	635351	keystroke_t	t	n/a
317.788	0.1035	635576	keystroke_i	i	n/a
318.0595	0.112	636119	keystroke_v	v	n/a
318.1465	0.1365	636293	keystroke_e	e	n/a
318.275	0.073	636550	keystroke_l	l	n/a
318.5075	0.088	637015	keystroke_y	y	n/a
318.6195	0.136	637239	keystroke_Key.space	Key.space	n/a
318.9315	0.088	637863	keystroke_m	m	n/a
319.1875	0.136	638375	keystroke_i	i	n/a
319.5475	0.072	639095	keystroke_Key.backspace	Key.backspace	n/a
319.7235	0.088	639447	keystroke_a	a	n/a
319.8195	0.16	639639	keystroke_i	i	n/a
319.9395	0.144	639879	keystroke_l	l	n/a
320.0435	0.112	640087	keystroke_e	e	n/a
320.1315	0.104	640263	keystroke_d	d	n/a
320.3315	0.072	640663	keystroke_Key.enter	Key.enter	n/a
320.409	9.572	640818	prompt	n/a	queens imagine transactions bibliography\n
321.34	0.143	642680	keystroke_q	q	n/a
321.484	0.0875	642968	keystroke_u	u	n/a
321.636	0.087	643272	keystroke_e	e	n/a
321.804	0.103	643608	keystroke_e	e	n/a
321.94	0.144	643880	keystroke_n	n	n/a
322.108	0.1195	644216	keystroke_s	s	n/a
322.2355	0.168	644471	keystroke_Key.space	Key.space	n/a
322.4835	0.088	644967	keystroke_i	i	n/a
322.6835	0.095	645367	keystroke_m	m	n/a
322.7705	0.081	645541	keystroke_a	a	n/a
322.9875	0.128	645975	keystroke_g	g	n/a
323.0755	0.063	646151	keystroke_i	i	n/a
323.235	0.1125	646470	keystroke_n	n	n/a
323.3155	0.1205	646631	keystroke_e	e	n/a
323.387	0.1755	646774	keystroke_Key.space	Key.space	n/a
323.6515	0.12	647303	keystroke_t	t	n/a
323.8835	0.1195	647767	keystroke_r	r	n/a
324.0195	0.0965	648039	keystroke_a	a	n/a
324.131	0.097	648262	keystroke_n	n	n/a
324.267	0.0965	648534	keystroke_s	s	n/a
324.4435	0.0405	648887	keystroke_a	a	n/a
324.827	0.0645	649654	keystroke_Key.backspace	Key.backspace	n/a
325.2835	0.096	650567	keystroke_a	a	n/a
325.4435	0.104	650887	keystroke_c	c	n/a
325.7155	0.08	651431	keystroke_t	t	n/a
325.7475	0.12	651495	keystroke_i	i	n/a
325.8195	0.0885	651639	keystroke_o	o	n/a
325.9475	0.12	651895	keystroke_n	n	n/a
326.0595	0.079	652119	keystroke_s	s	n/a
326.0905	0.1925	652181	keystroke_Key.space	Key.space	n/a
326.267	0.112	652534	keystroke_b	b	n/a
326.747	0.072	653494	keystroke_i	i	n/a
327.163	0.104	654326	keystroke_b	b	n/a
327.5155	0.08	655031	keystroke_l	l	n/a
327.643	0.1045	655286	keystroke_i	i	n/a
327.7875	0.127	655575	keystroke_o	o	n/a
328.0275	0.12	656055	keystroke_g	g	n/a
328.2435	0.1605	656487	keystroke_r	r	n/a
328.3795	0.128	656759	keystroke_a	a	n/a
328.4355	0.0955	656871	keystroke_p	p	n/a
328.787	0.081	657574	keystroke_y	y	n/a
329.187	0.0805	658374	keystroke_Key.backspace	Key.backspace	n/a
329.4505	0.121	658901	keystroke_h	h	n/a
329.5795	0.096	659159	keystroke_y	y	n/a
329.907	0.072	659814	keystroke_Key.enter	Key.enter	n/a
329.9855	7.3155	659971	prompt	n/a	lodging spider occurred malaysia\n
330.5635	0.0635	661127	keystroke_l	l	n/a
330.747	0.088	661494	keystroke_o	o	n/a
330.8835	0.1115	661767	keystroke_d	d	n/a
331.179	0.1205	662358	keystroke_g	g	n/a
331.227	0.08	662454	keystroke_i	i	n/a
331.387	0.144	662774	keystroke_n	n	n/a
331.459	0.1285	662918	keystroke_g	g	n/a
331.5555	0.1675	663111	keystroke_Key.space	Key.space	n/a
331.963	0.0645	663926	keystroke_p	p	n/a
332.2515	0.0475	664503	keystroke_Key.backspace	Key.backspace	n/a
332.371	0.152	664742	keystroke_s	s	n/a
332.4995	0.1115	664999	keystroke_p	p	n/a
332.7145	0.105	665429	keystroke_i	i	n/a
332.803	0.097	665606	keystroke_d	d	n/a
332.8915	0.183	665783	keystroke_e	e	n/a
333.027	0.1365	666054	keystroke_r	r	n/a
333.1555	0.2475	666311	keystroke_Key.space	Key.space	n/a
333.363	0.1685	666726	keystroke_o	o	n/a
333.5155	0.12	667031	keystroke_c	c	n/a
333.7155	0.112	667431	keystroke_c	c	n/a
333.955	0.096	667910	keystroke_u	u	n/a
334.083	0.072	668166	keystroke_r	r	n/a
334.2435	0.1115	668487	keystroke_r	r	n/a
334.387	0.1765	668774	keystroke_e	e	n/a
334.547	0.0885	669094	keystroke_d	d	n/a
334.8035	0.144	669607	keystroke_Key.space	Key.space	n/a
334.963	0.16	669926	keystroke_m	m	n/a
335.131	0.096	670262	keystroke_a	a	n/a
335.2595	0.0955	670519	keystroke_l	l	n/a
335.403	0.0965	670806	keystroke_a	a	n/a
335.571	0.104	671142	keystroke_y	y	n/a
336.107	0.08	672214	keystroke_s	s	n/a
336.307	0.0405	672614	keystroke_a	a	n/a
336.5555	0.0635	673111	keystroke_Key.backspace	Key.backspace	n/a
336.8195	0.0795	673639	keystroke_i	i	n/a
336.923	0.088	673846	keystroke_a	a	n/a
337.2345	0.064	674469	keystroke_Key.enter	Key.enter	n/a
337.307	8.618	674614	prompt	n/a	housewares wine sequence mississippi\n
337.9875	0.135	675975	keystroke_h	h	n/a
338.131	0.0725	676262	keystroke_o	o	n/a
338.2515	0.152	676503	keystroke_u	u	n/a
338.4435	0.128	676887	keystroke_s	s	n/a
338.5635	0.088	677127	keystroke_e	e	n/a
338.899	0.1525	677798	keystroke_w	w	n/a
339.035	0.128	678070	keystroke_a	a	n/a
339.163	0.12	678326	keystroke_r	r	n/a
339.2595	0.215	678519	keystroke_e	e	n/a
339.4115	0.1675	678823	keystroke_s	s	n/a
339.6665	0.184	679333	keystroke_Key.space	Key.space	n/a
339.8505	0.1205	679701	keystroke_w	w	n/a
339.979	0.072	679958	keystroke_i	i	n/a
340.171	0.104	680342	keystroke_n	n	n/a
340.267	0.112	680534	keystroke_e	e	n/a
340.371	0.168	680742	keystroke_Key.space	Key.space	n/a
340.6195	0.0715	681239	keystroke_s	s	n/a
340.811	0.128	681622	keystroke_e	e	n/a
341.043	0.08	682086	keystroke_u	u	n/a
341.4115	0.0715	682823	keystroke_Key.backspace	Key.backspace	n/a
341.6425	0.064	683285	keystroke_q	q	n/a
341.8755	0.095	683751	keystroke_u	u	n/a
341.9635	0.1595	683927	keystroke_e	e	n/a
342.1545	0.0965	684309	keystroke_n	n	n/a
342.267	0.144	684534	keystroke_c	c	n/a
342.331	0.1845	684662	keystroke_e	e	n/a
342.563	0.1675	685126	keystroke_Key.space	Key.space	n/a
342.898	0.145	685796	keystroke_m	m	n/a
343.011	0.128	686022	keystroke_i	i	n/a
343.2035	0.0715	686407	keystroke_s	s	n/a
343.3705	0.0725	686741	keystroke_s	s	n/a
343.4745	0.1205	686949	keystroke_i	i	n/a
343.9715	0.0555	687943	keystroke_s	s	n/a
344.323	0.072	688646	keystroke_s	s	n/a
344.555	0.08	689110	keystroke_i	i	n/a
344.963	0.0875	689926	keystroke_p	p	n/a
345.123	0.096	690246	keystroke_p	p	n/a
345.3385	0.104	690677	keystroke_i	i	n/a
345.8345	0.088	691669	keystroke_Key.enter	Key.enter	n/a
345.9285	8.654	691857	prompt	n/a	bridal blackberry entrepreneur deviation\n
346.675	0.112	693350	keystroke_b	b	n/a
346.803	0.12	693606	keystroke_r	r	n/a
346.915	0.1035	693830	keystroke_i	i	n/a
347.075	0.136	694150	keystroke_d	d	n/a
347.203	0.1125	694406	keystroke_a	a	n/a
347.323	0.104	694646	keystroke_l	l	n/a
347.395	0.183	694790	keystroke_Key.space	Key.space	n/a
347.636	0.111	695272	keystroke_b	b	n/a
347.739	0.104	695478	keystroke_a	a	n/a
348.131	0.0715	696262	keystroke_Key.backspace	Key.backspace	n/a
348.4035	0.103	696807	keystroke_l	l	n/a
348.5225	0.1125	697045	keystroke_a	a	n/a
348.683	0.1275	697366	keystroke_c	c	n/a
348.7785	0.088	697557	keystroke_k	k	n/a
349.0275	0.112	698055	keystroke_b	b	n/a
349.2185	0.0965	698437	keystroke_e	e	n/a
349.275	0.1195	698550	keystroke_r	r	n/a
349.4585	0.104	698917	keystroke_r	r	n/a
349.5545	0.105	699109	keystroke_y	y	n/a
349.667	0.144	699334	keystroke_Key.space	Key.space	n/a
349.819	0.104	699638	keystroke_e	e	n/a
349.867	0.144	699734	keystroke_n	n	n/a
350.019	0.096	700038	keystroke_t	t	n/a
350.259	0.152	700518	keystroke_r	r	n/a
350.348	0.143	700696	keystroke_e	e	n/a
350.651	0.104	701302	keystroke_p	p	n/a
350.955	0.1045	701910	keystroke_r	r	n/a
351.019	0.16	702038	keystroke_e	e	n/a
351.314	0.0815	702628	keystroke_n	n	n/a
351.618	0.1445	703236	keystroke_e	e	n/a
351.723	0.104	703446	keystroke_r	r	n/a
352.531	0.08	705062	keystroke_Key.backspace	Key.backspace	n/a
352.819	0.0965	705638	keystroke_u	u	n/a
352.923	0.1115	705846	keystroke_r	r	n/a
353.019	0.1835	706038	keystroke_Key.space	Key.space	n/a
353.227	0.12	706454	keystroke_d	d	n/a
353.323	0.152	706646	keystroke_e	e	n/a
353.571	0.096	707142	keystroke_v	v	n/a
353.675	0.064	707350	keystroke_i	i	n/a
353.811	0.16	707622	keystroke_a	a	n/a
353.947	0.136	707894	keystroke_t	t	n/a
354.027	0.136	708054	keystroke_i	i	n/a
354.115	0.12	708230	keystroke_o	o	n/a
354.243	0.104	708486	keystroke_n	n	n/a
354.523	0.0555	709046	keystroke_Key.enter	Key.enter	n/a
354.5865	7.698	709173	prompt	n/a	executives trustees stock milwaukee\n
355.1945	0.0965	710389	keystroke_e	e	n/a
355.467	0.072	710934	keystroke_x	x	n/a
355.699	0.112	711398	keystroke_e	e	n/a
355.859	0.1035	711718	keystroke_c	c	n/a
356.011	0.112	712022	keystroke_u	u	n/a
356.2035	0.111	712407	keystroke_t	t	n/a
356.3065	0.1125	712613	keystroke_i	i	n/a
356.5225	0.1045	713045	keystroke_v	v	n/a
356.643	0.136	713286	keystroke_e	e	n/a
356.771	0.12	713542	keystroke_s	s	n/a
356.899	0.152	713798	keystroke_Key.space	Key.space	n/a
357.059	0.128	714118	keystroke_t	t	n/a
357.275	0.12	714550	keystroke_r	r	n/a
357.355	0.112	714710	keystroke_u	u	n/a
357.475	0.12	714950	keystroke_s	s	n/a
357.563	0.128	715126	keystroke_t	t	n/a
357.9865	0.072	715973	keystroke_e	e	n/a
358.1625	0.048	716325	keystroke_e	e	n/a
358.371	0.1045	716742	keystroke_s	s	n/a
358.5065	0.112	717013	keystroke_Key.space	Key.space	n/a
358.795	0.072	717590	keystroke_s	s	n/a
358.859	0.128	717718	keystroke_t	t	n/a
358.995	0.072	717990	keystroke_o	o	n/a
359.155	0.096	718310	keystroke_c	c	n/a
359.259	0.1195	718518	keystroke_k	k	n/a
359.363	0.176	718726	keystroke_Key.space	Key.space	n/a
359.675	0.136	719350	keystroke_m	m	n/a
359.795	0.12	719590	keystroke_i	i	n/a
360.043	0.096	720086	keystroke_l	l	n/a
360.283	0.1195	720566	keystroke_w	w	n/a
360.3945	0.12	720789	keystroke_a	a	n/a
360.5545	0.0885	721109	keystroke_k	k	n/a
360.867	0.072	721734	keystroke_Key.backspace	Key.backspace	n/a
361.491	0.0715	722982	keystroke_u	u	n/a
361.7305	0.112	723461	keystroke_k	k	n/a
361.8665	0.0885	723733	keystroke_e	e	n/a
362.0425	0.08	724085	keystroke_e	e	n/a
362.2185	0.064	724437	keystroke_Key.enter	Key.enter	n/a
362.2885	6.0115	724577	prompt	n/a	easier enclosed bicycle question\n
363.043	0.1435	726086	keystroke_e	e	n/a
363.3075	0.119	726615	keystroke_a	a	n/a
363.371	0.1035	726742	keystroke_s	s	n/a
363.4985	0.0965	726997	keystroke_i	i	n/a
363.595	0.12	727190	keystroke_e	e	n/a
363.6745	0.1525	727349	keystroke_r	r	n/a
363.8185	0.16	727637	keystroke_Key.space	Key.space	n/a
363.9795	0.103	727959	keystroke_e	e	n/a
364.0825	0.0805	728165	keystroke_n	n	n/a
364.211	0.1275	728422	keystroke_c	c	n/a
364.3385	0.056	728677	keystroke_l	l	n/a
364.539	0.08	729078	keystroke_o	o	n/a
364.611	0.1435	729222	keystroke_s	s	n/a
364.667	0.1515	729334	keystroke_e	e	n/a
364.803	0.144	729606	keystroke_d	d	n/a
364.9625	0.16	729925	keystroke_Key.space	Key.space	n/a
365.235	0.0795	730470	keystroke_b	b	n/a
365.4425	0.0885	730885	keystroke_i	i	n/a
365.627	0.136	731254	keystroke_c	c	n/a
365.7945	0.1045	731589	keystroke_y	y	n/a
365.9225	0.1125	731845	keystroke_c	c	n/a
366.1225	0.0885	732245	keystroke_l	l	n/a
366.219	0.136	732438	keystroke_e	e	n/a
366.379	0.16	732758	keystroke_Key.space	Key.space	n/a
366.8515	0.0715	733703	keystroke_q	q	n/a
366.9385	0.128	733877	keystroke_u	u	n/a
367.107	0.1675	734214	keystroke_e	e	n/a
367.2345	0.152	734469	keystroke_s	s	n/a
367.3555	0.1435	734711	keystroke_t	t	n/a
367.4585	0.1285	734917	keystroke_i	i	n/a
367.547	0.0885	735094	keystroke_o	o	n/a
367.651	0.112	735302	keystroke_n	n	n/a
368.202	0.0965	736404	keystroke_Key.enter	Key.enter	n/a
368.3035	7.797	736607	prompt	n/a	foreign thoughts inserted compressed\n
369.034	0.0725	738068	keystroke_f	f	n/a
369.2025	0.08	738405	keystroke_o	o	n/a
369.307	0.104	738614	keystroke_r	r	n/a
369.6905	0.1045	739381	keystroke_e	e	n/a
369.7705	0.104	739541	keystroke_i	i	n/a
369.9145	0.104	739829	keystroke_g	g	n/a
370.0265	0.112	740053	keystroke_n	n	n/a
370.1705	0.1685	740341	keystroke_Key.space	Key.space	n/a
370.3225	0.16	740645	keystroke_t	t	n/a
370.4345	0.112	740869	keystroke_h	h	n/a
370.5625	0.104	741125	keystroke_o	o	n/a
370.739	0.0955	741478	keystroke_u	u	n/a
370.8265	0.136	741653	keystroke_g	g	n/a
370.9225	0.136	741845	keystroke_h	h	n/a
371.1225	0.128	742245	keystroke_t	t	n/a
371.1705	0.168	742341	keystroke_s	s	n/a
371.3705	0.136	742741	keystroke_Key.space	Key.space	n/a
371.4985	0.112	742997	keystroke_i	i	n/a
371.7065	0.128	743413	keystroke_n	n	n/a
372.0185	0.12	744037	keystroke_e	e	n/a
372.4665	0.08	744933	keystroke_Key.backspace	Key.backspace	n/a
372.5305	0.176	745061	keystroke_s	s	n/a
372.6345	0.152	745269	keystroke_e	e	n/a
372.7145	0.16	745429	keystroke_r	r	n/a
372.979	0.1035	745958	keystroke_t	t	n/a
373.0745	0.2	746149	keystroke_e	e	n/a
373.2585	0.1045	746517	keystroke_d	d	n/a
373.402	0.1445	746804	keystroke_Key.space	Key.space	n/a
373.634	0.088	747268	keystroke_c	c	n/a
373.706	0.096	747412	keystroke_o	o	n/a
373.818	0.1285	747636	keystroke_m	m	n/a
374.0425	0.128	748085	keystroke_p	p	n/a
374.5705	0.1845	749141	keystroke_r	r	n/a
374.7145	0.232	749429	keystroke_e	e	n/a
374.9545	0.128	749909	keystroke_s	s	n/a
375.1705	0.128	750341	keystroke_s	s	n/a
375.4905	0.152	750981	keystroke_e	e	n/a
375.8105	0.088	751621	keystroke_d	d	n/a
376.026	0.072	752052	keystroke_Key.enter	Key.enter	n/a
376.1035	6.188	752207	prompt	n/a	longest cleveland sapphire mesh\n
376.955	0.079	753910	keystroke_l	l	n/a
377.138	0.088	754276	keystroke_o	o	n/a
377.299	0.1355	754598	keystroke_n	n	n/a
377.363	0.167	754726	keystroke_g	g	n/a
377.482	0.192	754964	keystroke_e	e	n/a
377.61	0.176	755220	keystroke_s	s	n/a
377.771	0.135	755542	keystroke_t	t	n/a
377.9145	0.1355	755829	keystroke_Key.space	Key.space	n/a
378.155	0.04	756310	keystroke_c	c	n/a
378.474	0.0805	756948	keystroke_l	l	n/a
378.867	0.152	757734	keystroke_e	e	n/a
379.098	0.12	758196	keystroke_v	v	n/a
379.2265	0.1125	758453	keystroke_e	e	n/a
379.6105	0.104	759221	keystroke_l	l	n/a
379.779	0.1035	759558	keystroke_a	a	n/a
379.8905	0.0885	759781	keystroke_n	n	n/a
379.979	0.1195	759958	keystroke_d	d	n/a
380.0505	0.152	760101	keystroke_Key.space	Key.space	n/a
380.2105	0.0885	760421	keystroke_s	s	n/a
380.426	0.08	760852	keystroke_a	a	n/a
380.538	0.073	761076	keystroke_p	p	n/a
380.699	0.1035	761398	keystroke_p	p	n/a
381.01	0.096	762020	keystroke_h	h	n/a
381.1545	0.152	762309	keystroke_i	i	n/a
381.243	0.1355	762486	keystroke_r	r	n/a
381.3145	0.1365	762629	keystroke_e	e	n/a
381.4185	0.184	762837	keystroke_Key.space	Key.space	n/a
381.5865	0.1285	763173	keystroke_m	m	n/a
381.6825	0.16	763365	keystroke_e	e	n/a
381.8025	0.152	763605	keystroke_s	s	n/a
381.9145	0.0965	763829	keystroke_h	h	n/a
382.2185	0.071	764437	keystroke_Key.enter	Key.enter	n/a
382.295	5.493	764590	prompt	n/a	they'd defects devel struggle\n
382.915	0.144	765830	keystroke_t	t	n/a
382.9785	0.096	765957	keystroke_h	h	n/a
383.0825	0.112	766165	keystroke_e	e	n/a
383.1625	0.112	766325	keystroke_y	y	n/a
383.474	0.096	766948	keystroke_'	'	n/a
383.5865	0.0955	767173	keystroke_d	d	n/a
383.683	0.1835	767366	keystroke_Key.space	Key.space	n/a
383.8825	0.1115	767765	keystroke_d	d	n/a
383.962	0.1605	767924	keystroke_e	e	n/a
384.1945	0.088	768389	keystroke_f	f	n/a
384.419	0.1435	768838	keystroke_e	e	n/a
384.5945	0.088	769189	keystroke_c	c	n/a
384.8585	0.136	769717	keystroke_t	t	n/a
384.9545	0.144	769909	keystroke_s	s	n/a
385.0905	0.1515	770181	keystroke_Key.space	Key.space	n/a
385.266	0.0805	770532	keystroke_d	d	n/a
385.306	0.1525	770612	keystroke_e	e	n/a
385.5625	0.0875	771125	keystroke_v	v	n/a
385.635	0.136	771270	keystroke_e	e	n/a
385.802	0.128	771604	keystroke_l	l	n/a
386.0105	0.1755	772021	keystroke_Key.space	Key.space	n/a
386.354	0.1125	772708	keystroke_s	s	n/a
386.4505	0.12	772901	keystroke_t	t	n/a
386.6825	0.104	773365	keystroke_r	r	n/a
386.7945	0.096	773589	keystroke_u	u	n/a
386.9705	0.072	773941	keystroke_g	g	n/a
387.1385	0.104	774277	keystroke_g	g	n/a
387.3305	0.152	774661	keystroke_l	l	n/a
387.4745	0.08	774949	keystroke_e	e	n/a
387.6985	0.088	775397	keystroke_Key.enter	Key.enter	n/a
387.7915	5.012	775583	prompt	n/a	sudden always airline exotic\n
388.243	0.1275	776486	keystroke_s	s	n/a
388.395	0.095	776790	keystroke_u	u	n/a
388.538	0.088	777076	keystroke_d	d	n/a
388.7385	0.0955	777477	keystroke_d	d	n/a
388.826	0.144	777652	keystroke_e	e	n/a
388.915	0.127	777830	keystroke_n	n	n/a
389.098	0.16	778196	keystroke_Key.space	Key.space	n/a
389.29	0.1365	778580	keystroke_a	a	n/a
389.3465	0.1285	778693	keystroke_l	l	n/a
389.5545	0.128	779109	keystroke_w	w	n/a
389.6505	0.1195	779301	keystroke_a	a	n/a
389.746	0.128	779492	keystroke_y	y	n/a
389.875	0.111	779750	keystroke_s	s	n/a
390.0185	0.1195	780037	keystroke_Key.space	Key.space	n/a
390.315	0.1435	780630	keystroke_a	a	n/a
390.4105	0.1035	780821	keystroke_i	i	n/a
390.5465	0.104	781093	keystroke_r	r	n/a
390.7225	0.048	781445	keystroke_l	l	n/a
390.8505	0.0795	781701	keystroke_i	i	n/a
391.0425	0.1275	782085	keystroke_n	n	n/a
391.122	0.112	782244	keystroke_e	e	n/a
391.218	0.1605	782436	keystroke_Key.space	Key.space	n/a
391.6265	0.096	783253	keystroke_e	e	n/a
391.8665	0.12	783733	keystroke_x	x	n/a
392.0105	0.0555	784021	keystroke_o	o	n/a
392.1785	0.096	784357	keystroke_t	t	n/a
392.2345	0.12	784469	keystroke_i	i	n/a
392.4345	0.112	784869	keystroke_c	c	n/a
392.7145	0.088	785429	keystroke_Key.enter	Key.enter	n/a
392.807	10.4925	785614	prompt	n/a	heritage frequent dictionary contacts\n
393.554	0.129	787108	keystroke_h	h	n/a
393.6905	0.168	787381	keystroke_e	e	n/a
393.8345	0.112	787669	keystroke_r	r	n/a
393.9785	0.104	787957	keystroke_i	i	n/a
394.1225	0.112	788245	keystroke_t	t	n/a
394.427	0.103	788854	keystroke_a	a	n/a
394.6505	0.12	789301	keystroke_g	g	n/a
394.7065	0.1595	789413	keystroke_e	e	n/a
394.8265	0.1595	789653	keystroke_Key.space	Key.space	n/a
395.01	0.0965	790020	keystroke_f	f	n/a
395.242	0.104	790484	keystroke_r	r	n/a
395.274	0.1445	790548	keystroke_e	e	n/a
395.586	0.136	791172	keystroke_q	q	n/a
395.714	0.104	791428	keystroke_u	u	n/a
395.874	0.1365	791748	keystroke_e	e	n/a
396.0025	0.112	792005	keystroke_n	n	n/a
396.1465	0.136	792293	keystroke_t	t	n/a
396.2745	0.151	792549	keystroke_Key.space	Key.space	n/a
396.5465	0.08	793093	keystroke_d	d	n/a
396.6345	0.088	793269	keystroke_i	i	n/a
396.7865	0.079	793573	keystroke_c	c	n/a
397.0255	0.12	794051	keystroke_t	t	n/a
397.074	0.1525	794148	keystroke_i	i	n/a
397.178	0.112	794356	keystroke_o	o	n/a
397.338	0.104	794676	keystroke_n	n	n/a
397.45	0.1045	794900	keystroke_a	a	n/a
397.539	0.1115	795078	keystroke_r	r	n/a
397.6105	0.128	795221	keystroke_y	y	n/a
397.9385	0.152	795877	keystroke_Key.space	Key.space	n/a
398.0825	0.0955	796165	keystroke_c	c	n/a
398.186	0.0885	796372	keystroke_o	o	n/a
398.3785	0.144	796757	keystroke_n	n	n/a
398.506	0.136	797012	keystroke_t	t	n/a
398.746	0.112	797492	keystroke_r	r	n/a
398.842	0.1285	797684	keystroke_a	a	n/a
399.0985	0.096	798197	keystroke_c	c	n/a
399.3865	0.112	798773	keystroke_t	t	n/a
399.4425	0.144	798885	keystroke_s	s	n/a
401.4825	0.071	802965	keystroke_Key.backspace	Key.backspace	n/a
401.682	0.0645	803364	keystroke_Key.backspace	Key.backspace	n/a
401.866	0.0725	803732	keystroke_Key.backspace	Key.backspace	n/a
402.0415	0.08	804083	keystroke_Key.backspace	Key.backspace	n/a
402.3785	0.1115	804757	keystroke_Key.backspace	Key.backspace	n/a
402.5145	0.0795	805029	keystroke_a	a	n/a
402.602	0.128	805204	keystroke_c	c	n/a
402.898	0.168	805796	keystroke_t	t	n/a
403.0265	0.1275	806053	keystroke_s	s	n/a
403.178	0.12	806356	keystroke_Key.enter	Key.enter	n/a
403.304	6.42	806608	prompt	n/a	trademarks depends held bands\n
404.0585	0.16	808117	keystroke_t	t	n/a
404.3545	0.119	808709	keystroke_r	r	n/a
404.4895	0.0965	808979	keystroke_a	a	n/a
404.7065	0.087	809413	keystroke_d	d	n/a
404.7775	0.1525	809555	keystroke_e	e	n/a
405.058	0.1275	810116	keystroke_m	m	n/a
405.2505	0.1195	810501	keystroke_a	a	n/a
405.3455	0.113	810691	keystroke_r	r	n/a
405.474	0.0805	810948	keystroke_k	k	n/a
405.6585	0.159	811317	keystroke_s	s	n/a
405.7945	0.1595	811589	keystroke_Key.space	Key.space	n/a
406.05	0.1515	812100	keystroke_d	d	n/a
406.178	0.128	812356	keystroke_e	e	n/a
406.2735	0.12	812547	keystroke_p	p	n/a
406.402	0.0725	812804	keystroke_e	e	n/a
406.6335	0.112	813267	keystroke_n	n	n/a
406.7225	0.135	813445	keystroke_d	d	n/a
406.8905	0.12	813781	keystroke_s	s	n/a
406.994	0.168	813988	keystroke_Key.space	Key.space	n/a
407.306	0.08	814612	keystroke_h	h	n/a
407.411	0.127	814822	keystroke_e	e	n/a
407.5225	0.1035	815045	keystroke_l	l	n/a
407.81	0.0885	815620	keystroke_d	d	n/a
407.8985	0.151	815797	keystroke_Key.space	Key.space	n/a
408.3145	0.1195	816629	keystroke_b	b	n/a
408.73	0.1525	817460	keystroke_a	a	n/a
408.8265	0.127	817653	keystroke_n	n	n/a
408.9545	0.1195	817909	keystroke_d	d	n/a
409.3625	0.0715	818725	keystroke_s	s	n/a
409.6585	0.064	819317	keystroke_Key.enter	Key.enter	n/a
409.7285	6.6195	819457	prompt	n/a	october span you're southwest\n
410.3705	0.08	820741	keystroke_o	o	n/a
410.6015	0.096	821203	keystroke_c	c	n/a
410.8575	0.128	821715	keystroke_t	t	n/a
410.9695	0.0645	821939	keystroke_o	o	n/a
411.1775	0.1045	822355	keystroke_b	b	n/a
411.2985	0.127	822597	keystroke_e	e	n/a
411.3695	0.145	822739	keystroke_r	r	n/a
411.5545	0.175	823109	keystroke_Key.space	Key.space	n/a
411.786	0.1045	823572	keystroke_s	s	n/a
411.8905	0.111	823781	keystroke_p	p	n/a
411.962	0.1205	823924	keystroke_a	a	n/a
412.1465	0.12	824293	keystroke_n	n	n/a
412.2585	0.1595	824517	keystroke_Key.space	Key.space	n/a
412.7055	0.0805	825411	keystroke_y	y	n/a
413.0015	0.121	826003	keystroke_o	o	n/a
413.09	0.1115	826180	keystroke_u	u	n/a
413.3945	0.12	826789	keystroke_'	'	n/a
413.57	0.08	827140	keystroke_r	r	n/a
413.626	0.1515	827252	keystroke_e	e	n/a
413.7695	0.1685	827539	keystroke_Key.space	Key.space	n/a
414.0575	0.153	828115	keystroke_s	s	n/a
414.65	0.168	829300	keystroke_o	o	n/a
414.906	0.112	829812	keystroke_u	u	n/a
414.986	0.152	829972	keystroke_t	t	n/a
415.114	0.1275	830228	keystroke_h	h	n/a
415.5225	0.071	831045	keystroke_w	w	n/a
415.7395	0.175	831479	keystroke_e	e	n/a
415.826	0.1525	831652	keystroke_s	s	n/a
415.9455	0.16	831891	keystroke_t	t	n/a
416.2495	0.0965	832499	keystroke_Key.enter	Key.enter	n/a
416.355	7.633	832710	prompt	n/a	finite sterling smaller cookbook\n
417.2095	0.1045	834419	keystroke_f	f	n/a
417.2825	0.0795	834565	keystroke_i	i	n/a
417.4665	0.111	834933	keystroke_n	n	n/a
417.6185	0.12	835237	keystroke_i	i	n/a
417.714	0.1515	835428	keystroke_t	t	n/a
417.8335	0.105	835667	keystroke_e	e	n/a
418.4415	0.136	836883	keystroke_Key.space	Key.space	n/a
418.554	0.1275	837108	keystroke_s	s	n/a
418.6975	0.1445	837395	keystroke_t	t	n/a
418.8585	0.1275	837717	keystroke_e	e	n/a
419.0585	0.12	838117	keystroke_r	r	n/a
419.282	0.0885	838564	keystroke_l	l	n/a
419.418	0.104	838836	keystroke_i	i	n/a
419.65	0.112	839300	keystroke_n	n	n/a
419.898	0.112	839796	keystroke_g	g	n/a
420.258	0.1515	840516	keystroke_Key.space	Key.space	n/a
420.642	0.104	841284	keystroke_s	s	n/a
420.85	0.112	841700	keystroke_m	m	n/a
420.97	0.104	841940	keystroke_a	a	n/a
421.298	0.08	842596	keystroke_l	l	n/a
421.474	0.08	842948	keystroke_l	l	n/a
421.57	0.12	843140	keystroke_e	e	n/a
421.674	0.088	843348	keystroke_r	r	n/a
421.9855	0.1285	843971	keystroke_Key.space	Key.space	n/a
422.298	0.112	844596	keystroke_c	c	n/a
422.402	0.072	844804	keystroke_o	o	n/a
422.57	0.08	845140	keystroke_o	o	n/a
422.722	0.128	845444	keystroke_k	k	n/a
423.098	0.096	846196	keystroke_b	b	n/a
423.298	0.08	846596	keystroke_o	o	n/a
423.4575	0.12	846915	keystroke_o	o	n/a
423.5055	0.16	847011	keystroke_k	k	n/a
423.8975	0.088	847795	keystroke_Key.enter	Key.enter	n/a
423.992	8.004	847984	prompt	n/a	southampton quiet longer large\n
424.7625	0.1115	849525	keystroke_s	s	n/a
424.986	0.056	849972	keystroke_o	o	n/a
425.121	0.097	850242	keystroke_u	u	n/a
425.378	0.056	850756	keystroke_h	h	n/a
425.402	0.16	850804	keystroke_t	t	n/a
425.738	0.079	851476	keystroke_Key.backspace	Key.backspace	n/a
425.882	0.08	851764	keystroke_Key.backspace	Key.backspace	n/a
426.042	0.175	852084	keystroke_t	t	n/a
426.193	0.097	852386	keystroke_h	h	n/a
426.4015	0.1765	852803	keystroke_a	a	n/a
426.5135	0.104	853027	keystroke_m	m	n/a
426.7055	0.1125	853411	keystroke_p	p	n/a
426.81	0.1355	853620	keystroke_t	t	n/a
426.9545	0.151	853909	keystroke_i	i	n/a
427.066	0.1275	854132	keystroke_o	o	n/a
427.394	0.0715	854788	keystroke_Key.backspace	Key.backspace	n/a
427.53	0.072	855060	keystroke_Key.backspace	Key.backspace	n/a
427.762	0.104	855524	keystroke_o	o	n/a
427.954	0.128	855908	keystroke_n	n	n/a
428.042	0.128	856084	keystroke_Key.space	Key.space	n/a
428.33	0.128	856660	keystroke_q	q	n/a
428.442	0.136	856884	keystroke_u	u	n/a
428.53	0.112	857060	keystroke_i	i	n/a
428.61	0.144	857220	keystroke_e	e	n/a
428.73	0.112	857460	keystroke_t	t	n/a
429.0895	0.144	858179	keystroke_Key.space	Key.space	n/a
429.6015	0.0725	859203	keystroke_l	l	n/a
429.778	0.104	859556	keystroke_o	o	n/a
429.9775	0.137	859955	keystroke_n	n	n/a
430.2415	0.1365	860483	keystroke_g	g	n/a
430.4655	0.128	860931	keystroke_e	e	n/a
430.5455	0.145	861091	keystroke_r	r	n/a
430.73	0.1355	861460	keystroke_Key.space	Key.space	n/a
430.873	0.136	861746	keystroke_l	l	n/a
431.0015	0.1525	862003	keystroke_a	a	n/a
431.1295	0.1115	862259	keystroke_r	r	n/a
431.402	0.112	862804	keystroke_g	g	n/a
431.4975	0.1285	862995	keystroke_e	e	n/a
431.9055	0.0885	863811	keystroke_Key.enter	Key.enter	n/a
432.0005	8.851	864001	prompt	n/a	hollywood extension merchant himself\n
432.8895	0.088	865779	keystroke_h	h	n/a
433.05	0.0795	866100	keystroke_o	o	n/a
433.4495	0.0645	866899	keystroke_l	l	n/a
433.5855	0.08	867171	keystroke_l	l	n/a
433.818	0.0875	867636	keystroke_y	y	n/a
434.066	0.1195	868132	keystroke_w	w	n/a
434.2175	0.072	868435	keystroke_o	o	n/a
434.378	0.0795	868756	keystroke_o	o	n/a
434.4655	0.1045	868931	keystroke_d	d	n/a
434.7855	0.1445	869571	keystroke_Key.space	Key.space	n/a
435.05	0.12	870100	keystroke_e	e	n/a
435.466	0.1355	870932	keystroke_x	x	n/a
435.81	0.12	871620	keystroke_t	t	n/a
436.082	0.072	872164	keystroke_e	e	n/a
436.2905	0.0955	872581	keystroke_n	n	n/a
436.4575	0.1115	872915	keystroke_s	s	n/a
436.5615	0.1045	873123	keystroke_i	i	n/a
436.5855	0.1595	873171	keystroke_o	o	n/a
436.7535	0.1285	873507	keystroke_n	n	n/a
436.841	0.1525	873682	keystroke_Key.space	Key.space	n/a
437.098	0.087	874196	keystroke_m	m	n/a
437.153	0.121	874306	keystroke_a	a	n/a
437.282	0.104	874564	keystroke_r	r	n/a
437.57	0.079	875140	keystroke_Key.backspace	Key.backspace	n/a
437.73	0.096	875460	keystroke_Key.backspace	Key.backspace	n/a
438.153	0.1525	876306	keystroke_e	e	n/a
438.2495	0.136	876499	keystroke_r	r	n/a
438.553	0.1445	877106	keystroke_c	c	n/a
438.618	0.1195	877236	keystroke_h	h	n/a
438.9375	0.1605	877875	keystroke_a	a	n/a
439.0425	0.1115	878085	keystroke_n	n	n/a
439.09	0.152	878180	keystroke_t	t	n/a
439.2655	0.1675	878531	keystroke_Key.space	Key.space	n/a
439.418	0.12	878836	keystroke_h	h	n/a
439.569	0.1125	879138	keystroke_i	i	n/a
439.7455	0.12	879491	keystroke_m	m	n/a
439.8575	0.144	879715	keystroke_s	s	n/a
439.922	0.1595	879844	keystroke_e	e	n/a
440.0255	0.145	880051	keystroke_l	l	n/a
440.154	0.1035	880308	keystroke_f	f	n/a
440.7455	0.104	881491	keystroke_Key.enter	Key.enter	n/a
440.856	6.499	881712	prompt	n/a	ahead notify carefully challenging\n
441.4735	0.128	882947	keystroke_a	a	n/a
441.6335	0.1275	883267	keystroke_h	h	n/a
441.753	0.1445	883506	keystroke_e	e	n/a
441.881	0.1525	883762	keystroke_a	a	n/a
442.0415	0.0955	884083	keystroke_d	d	n/a
442.129	0.113	884258	keystroke_Key.space	Key.space	n/a
442.274	0.096	884548	keystroke_n	n	n/a
442.434	0.112	884868	keystroke_o	o	n/a
442.514	0.127	885028	keystroke_t	t	n/a
442.649	0.0885	885298	keystroke_i	i	n/a
442.7695	0.096	885539	keystroke_f	f	n/a
442.913	0.104	885826	keystroke_y	y	n/a
443.0735	0.136	886147	keystroke_Key.space	Key.space	n/a
443.577	0.12	887154	keystroke_c	c	n/a
443.7455	0.136	887491	keystroke_a	a	n/a
443.8655	0.1045	887731	keystroke_r	r	n/a
443.953	0.192	887906	keystroke_e	e	n/a
444.21	0.1115	888420	keystroke_f	f	n/a
444.2975	0.088	888595	keystroke_u	u	n/a
444.6895	0.072	889379	keystroke_l	l	n/a
444.9055	0.096	889811	keystroke_l	l	n/a
445.146	0.1355	890292	keystroke_y	y	n/a
445.2975	0.152	890595	keystroke_Key.space	Key.space	n/a
445.4175	0.176	890835	keystroke_c	c	n/a
445.5455	0.112	891091	keystroke_h	h	n/a
445.6735	0.136	891347	keystroke_a	a	n/a
446.05	0.0955	892100	keystroke_l	l	n/a
446.226	0.08	892452	keystroke_l	l	n/a
446.3135	0.1675	892627	keystroke_e	e	n/a
446.4495	0.104	892899	keystroke_n	n	n/a
446.5775	0.1115	893155	keystroke_g	g	n/a
446.697	0.08	893394	keystroke_i	i	n/a
446.849	0.1365	893698	keystroke_n	n	n/a
446.945	0.129	893890	keystroke_g	g	n/a
447.273	0.08	894546	keystroke_Key.enter	Key.enter	n/a
447.359	5.924	894718	prompt	n/a	transcripts white singh trucks\n
448.018	0.127	896036	keystroke_t	t	n/a
448.25	0.112	896500	keystroke_r	r	n/a
448.3455	0.112	896691	keystroke_a	a	n/a
448.458	0.0955	896916	keystroke_n	n	n/a
448.5775	0.104	897155	keystroke_s	s	n/a
448.962	0.0875	897924	keystroke_c	c	n/a
449.2175	0.0875	898435	keystroke_r	r	n/a
449.2895	0.1125	898579	keystroke_i	i	n/a
449.369	0.137	898738	keystroke_p	p	n/a
449.449	0.1445	898898	keystroke_t	t	n/a
449.553	0.1525	899106	keystroke_s	s	n/a
449.761	0.16	899522	keystroke_Key.space	Key.space	n/a
450.065	0.081	900130	keystroke_w	w	n/a
450.153	0.088	900306	keystroke_h	h	n/a
450.289	0.1445	900578	keystroke_i	i	n/a
450.3935	0.1205	900787	keystroke_t	t	n/a
450.441	0.169	900882	keystroke_e	e	n/a
450.593	0.144	901186	keystroke_Key.space	Key.space	n/a
450.945	0.1525	901890	keystroke_s	s	n/a
451.033	0.089	902066	keystroke_i	i	n/a
451.217	0.104	902434	keystroke_n	n	n/a
451.297	0.128	902594	keystroke_g	g	n/a
451.4495	0.112	902899	keystroke_h	h	n/a
451.6015	0.184	903203	keystroke_Key.space	Key.space	n/a
451.7615	0.1125	903523	keystroke_t	t	n/a
451.9935	0.0805	903987	keystroke_r	r	n/a
452.082	0.127	904164	keystroke_u	u	n/a
452.25	0.128	904500	keystroke_c	c	n/a
452.7375	0.112	905475	keystroke_k	k	n/a
452.9135	0.08	905827	keystroke_s	s	n/a
453.1855	0.096	906371	keystroke_Key.enter	Key.enter	n/a
453.2875	7.4885	906575	prompt	n/a	crossword county strategic decided\n
453.921	0.0965	907842	keystroke_c	c	n/a
454.1605	0.129	908321	keystroke_r	r	n/a
454.2975	0.088	908595	keystroke_o	o	n/a
454.4255	0.08	908851	keystroke_s	s	n/a
454.602	0.0715	909204	keystroke_s	s	n/a
454.865	0.1365	909730	keystroke_w	w	n/a
454.9775	0.1035	909955	keystroke_o	o	n/a
455.074	0.103	910148	keystroke_r	r	n/a
455.321	0.0805	910642	keystroke_d	d	n/a
455.409	0.12	910818	keystroke_Key.space	Key.space	n/a
455.601	0.112	911202	keystroke_c	c	n/a
455.7215	0.088	911443	keystroke_o	o	n/a
455.873	0.089	911746	keystroke_u	u	n/a
456.0255	0.12	912051	keystroke_n	n	n/a
456.1295	0.0965	912259	keystroke_t	t	n/a
456.226	0.119	912452	keystroke_y	y	n/a
456.457	0.128	912914	keystroke_Key.space	Key.space	n/a
456.889	0.096	913778	keystroke_s	s	n/a
457.041	0.096	914082	keystroke_t	t	n/a
457.249	0.1285	914498	keystroke_r	r	n/a
457.354	0.1195	914708	keystroke_a	a	n/a
457.61	0.087	915220	keystroke_t	t	n/a
458.122	0.063	916244	keystroke_e	e	n/a
458.249	0.0805	916498	keystroke_g	g	n/a
458.338	0.0635	916676	keystroke_y	y	n/a
458.665	0.096	917330	keystroke_Key.backspace	Key.backspace	n/a
458.9375	0.104	917875	keystroke_i	i	n/a
459.0335	0.08	918067	keystroke_c	c	n/a
459.1055	0.192	918211	keystroke_Key.space	Key.space	n/a
459.6495	0.088	919299	keystroke_d	d	n/a
459.7055	0.168	919411	keystroke_e	e	n/a
459.922	0.0795	919844	keystroke_c	c	n/a
