onset	duration	sample	value	key	prompt_text
2.1425	27.6005	4285	prompt	n/a	the quick brown fox jumps over a lazy dog\n
13.45	0.12	26900	keystroke	d	n/a
13.645	0.09	27290	keystroke	d	n/a
14.4555	0.045	28911	keystroke	Key.backspace	n/a
14.5755	0.06	29151	keystroke	Key.backspace	n/a
15.13	0.3005	30260	keystroke	Key.shift	n/a
15.3255	0.1505	30651	keystroke	T	n/a
15.521	0.12	31042	keystroke	h	n/a
15.805	0.09	31610	keystroke	e	n/a
16.345	0.045	32690	keystroke	Key.backspace	n/a
16.48	0.045	32960	keystroke	Key.backspace	n/a
16.615	0.075	33230	keystroke	Key.backspace	n/a
16.871	0.104	33742	keystroke	t	n/a
16.96	0.09	33920	keystroke	h	n/a
17.065	0.075	34130	keystroke	e	n/a
17.125	0.09	34250	keystroke	Key.space	n/a
17.336	0.089	34672	keystroke	q	n/a
17.44	0.12	34880	keystroke	u	n/a
17.545	0.09	35090	keystroke	i	n/a
17.8	0.0905	35600	keystroke	k	n/a
18.1005	0.06	36201	keystroke	Key.backspace	n/a
18.2055	0.075	36411	keystroke	c	n/a
18.3105	0.12	36621	keystroke	k	n/a
18.4005	0.075	36801	keystroke	Key.space	n/a
18.7305	0.06	37461	keystroke	b	n/a
18.9405	0.075	37881	keystroke	r	n/a
19.421	0.075	38842	keystroke	o	n/a
19.841	0.075	39682	keystroke	w	n/a
19.946	0.12	39892	keystroke	n	n/a
20.051	0.075	40102	keystroke	Key.space	n/a
20.276	0.075	40552	keystroke	f	n/a
20.366	0.075	40732	keystroke	o	n/a
20.711	0.104	41422	keystroke	x	n/a
21.1	0.075	42200	keystroke	Key.space	n/a
21.641	0.059	43282	keystroke	j	n/a
21.88	0.061	43760	keystroke	u	n/a
22.046	0.075	44092	keystroke	m	n/a
22.196	0.06	44392	keystroke	p	n/a
22.331	0.09	44662	keystroke	s	n/a
22.496	0.089	44992	keystroke	Key.space	n/a
22.631	0.075	45262	keystroke	o	n/a
23.155	0.09	46310	keystroke	v	n/a
23.26	0.1505	46520	keystroke	e	n/a
23.3655	0.09	46731	keystroke	r	n/a
23.5155	0.09	47031	keystroke	Key.space	n/a
23.6355	0.09	47271	keystroke	t	n/a
23.7405	0.09	47481	keystroke	h	n/a
23.8455	0.075	47691	keystroke	e	n/a
23.8905	0.09	47781	keystroke	Key.space	n/a
24.0405	0.09	48081	keystroke	l	n/a
24.1155	0.151	48231	keystroke	a	n/a
24.4455	0.1055	48891	keystroke	z	n/a
24.566	0.074	49132	keystroke	y	n/a
24.595	0.1205	49190	keystroke	Key.space	n/a
25.0755	0.09	50151	keystroke	d	n/a
25.3605	0.09	50721	keystroke	o	n/a
25.721	0.075	51442	keystroke	Key.backspace	n/a
25.856	0.06	51712	keystroke	Key.backspace	n/a
26.006	0.0445	52012	keystroke	Key.backspace	n/a
26.1405	0.045	52281	keystroke	Key.backspace	n/a
26.2455	0.06	52491	keystroke	Key.backspace	n/a
26.3805	0.045	52761	keystroke	Key.backspace	n/a
26.5155	0.06	53031	keystroke	Key.backspace	n/a
26.6505	0.06	53301	keystroke	Key.backspace	n/a
26.8005	0.045	53601	keystroke	Key.backspace	n/a
26.9205	0.06	53841	keystroke	Key.backspace	n/a
27.0555	0.06	54111	keystroke	Key.backspace	n/a
27.3405	0.0905	54681	keystroke	a	n/a
27.476	0.075	54952	keystroke	Key.space	n/a
27.686	0.105	55372	keystroke	l	n/a
27.8205	0.0605	55641	keystroke	a	n/a
28.031	0.075	56062	keystroke	z	n/a
28.091	0.09	56182	keystroke	y	n/a
28.166	0.045	56332	keystroke	Key.space	n/a
28.331	0.075	56662	keystroke	g	n/a
28.421	0.1045	56842	keystroke	o	n/a
29.021	0.045	58042	keystroke	Key.backspace	n/a
29.156	0.06	58312	keystroke	Key.backspace	n/a
29.321	0.06	58642	keystroke	d	n/a
29.426	0.06	58852	keystroke	o	n/a
29.546	0.045	59092	keystroke	g	n/a
29.666	0.075	59332	keystroke	Key.enter	n/a
29.748	7.044	59496	prompt	n/a	overall accomplished melissa educated\n
30.685	0.136	61370	keystroke	o	n/a
31.016	0.075	62032	keystroke	e	n/a
31.4055	0.045	62811	keystroke	Key.backspace	n/a
31.6155	0.075	63231	keystroke	v	n/a
31.7055	0.135	63411	keystroke	e	n/a
31.7955	0.12	63591	keystroke	r	n/a
31.9305	0.12	63861	keystroke	a	n/a
32.0355	0.06	64071	keystroke	l	n/a
32.1705	0.12	64341	keystroke	l	n/a
32.2455	0.09	64491	keystroke	Key.space	n/a
32.3955	0.075	64791	keystroke	a	n/a
32.576	0.105	65152	keystroke	c	n/a
32.756	0.06	65512	keystroke	c	n/a
32.891	0.195	65782	keystroke	o	n/a
33.026	0.105	66052	keystroke	m	n/a
33.161	0.12	66322	keystroke	p	n/a
33.356	0.09	66712	keystroke	l	n/a
33.461	0.09	66922	keystroke	i	n/a
33.596	0.06	67192	keystroke	s	n/a
33.671	0.075	67342	keystroke	h	n/a
33.761	0.075	67522	keystroke	e	n/a
33.911	0.0745	67822	keystroke	d	n/a
34.0155	0.075	68031	keystroke	Key.space	n/a
34.2405	0.06	68481	keystroke	m	n/a
34.3305	0.06	68661	keystroke	e	n/a
34.4655	0.105	68931	keystroke	l	n/a
34.5855	0.105	69171	keystroke	i	n/a
34.7055	0.031	69411	keystroke	s	n/a
34.8105	0.09	69621	keystroke	s	n/a
34.9755	0.135	69951	keystroke	a	n/a
35.0955	0.075	70191	keystroke	Key.space	n/a
35.3055	0.076	70611	keystroke	e	n/a
35.4855	0.09	70971	keystroke	d	n/a
35.6355	0.061	71271	keystroke	u	n/a
35.7565	0.075	71513	keystroke	c	n/a
35.9055	0.136	71811	keystroke	a	n/a
36.0555	0.06	72111	keystroke	t	n/a
36.4155	0.06	72831	keystroke	e	n/a
36.5955	0.06	73191	keystroke	d	n/a
36.7305	0.06	73461	keystroke	Key.enter	n/a
36.7955	9.5225	73591	prompt	n/a	absent convertible understand memory\n
37.391	0.12	74782	keystroke	a	n/a
37.586	0.045	75172	keystroke	b	n/a
37.766	0.09	75532	keystroke	s	n/a
37.916	0.075	75832	keystroke	e	n/a
38.036	0.075	76072	keystroke	n	n/a
38.141	0.06	76282	keystroke	t	n/a
38.276	0.0745	76552	keystroke	Key.space	n/a
38.921	0.09	77842	keystroke	c	n/a
39.041	0.075	78082	keystroke	o	n/a
39.101	0.075	78202	keystroke	n	n/a
39.326	0.105	78652	keystroke	v	n/a
39.461	0.135	78922	keystroke	e	n/a
39.566	0.075	79132	keystroke	r	n/a
39.716	0.075	79432	keystroke	t	n/a
39.896	0.06	79792	keystroke	i	n/a
40.031	0.045	80062	keystroke	b	n/a
40.121	0.09	80242	keystroke	l	n/a
40.241	0.06	80482	keystroke	e	n/a
40.316	0.09	80632	keystroke	Key.space	n/a
40.541	0.06	81082	keystroke	u	n/a
40.706	0.06	81412	keystroke	n	n/a
40.781	0.075	81562	keystroke	d	n/a
40.961	0.12	81922	keystroke	r	n/a
41.156	0.12	82312	keystroke	s	n/a
41.246	0.105	82492	keystroke	t	n/a
41.396	0.12	82792	keystroke	a	n/a
41.517	0.059	83034	keystroke	n	n/a
41.621	0.06	83242	keystroke	d	n/a
41.696	0.09	83392	keystroke	Key.space	n/a
41.936	0.09	83872	keystroke	m	n/a
42.161	0.075	84322	keystroke	e	n/a
42.251	0.09	84502	keystroke	m	n/a
42.656	0.045	85312	keystroke	Key.backspace	n/a
42.776	0.06	85552	keystroke	Key.backspace	n/a
42.926	0.06	85852	keystroke	Key.backspace	n/a
43.076	0.045	86152	keystroke	Key.backspace	n/a
43.211	0.045	86422	keystroke	Key.backspace	n/a
43.346	0.045	86692	keystroke	Key.backspace	n/a
43.706	0.0595	87412	keystroke	Key.backspace	n/a
43.8405	0.06	87681	keystroke	Key.backspace	n/a
43.9755	0.06	87951	keystroke	Key.backspace	n/a
44.1255	0.045	88251	keystroke	Key.backspace	n/a
44.4405	0.135	88881	keystroke	e	n/a
44.5455	0.09	89091	keystroke	r	n/a
44.7555	0.075	89511	keystroke	s	n/a
44.9055	0.075	89811	keystroke	t	n/a
44.9955	0.1355	89991	keystroke	a	n/a
45.131	0.06	90262	keystroke	n	n/a
45.236	0.06	90472	keystroke	d	n/a
45.326	0.105	90652	keystroke	Key.space	n/a
45.4165	0.0895	90833	keystroke	m	n/a
45.521	0.075	91042	keystroke	e	n/a
45.611	0.075	91222	keystroke	m	n/a
45.776	0.075	91552	keystroke	o	n/a
45.881	0.075	91762	keystroke	r	n/a
46.061	0.06	92122	keystroke	y	n/a
46.2555	0.0605	92511	keystroke	Key.enter	n/a
46.3215	4.541	92643	prompt	n/a	remarks lime flooring exactly\n
46.931	0.15	93862	keystroke	r	n/a
47.051	0.105	94102	keystroke	e	n/a
47.171	0.09	94342	keystroke	m	n/a
47.291	0.105	94582	keystroke	a	n/a
47.366	0.12	94732	keystroke	r	n/a
47.546	0.075	95092	keystroke	k	n/a
47.696	0.075	95392	keystroke	s	n/a
47.786	0.075	95572	keystroke	Key.space	n/a
47.981	0.105	95962	keystroke	l	n/a
48.056	0.105	96112	keystroke	i	n/a
48.206	0.075	96412	keystroke	m	n/a
48.281	0.06	96562	keystroke	e	n/a
48.371	0.09	96742	keystroke	Key.space	n/a
48.506	0.075	97012	keystroke	f	n/a
48.626	0.0745	97252	keystroke	l	n/a
48.7605	0.06	97521	keystroke	o	n/a
48.8955	0.06	97791	keystroke	o	n/a
48.9705	0.09	97941	keystroke	r	n/a
49.0905	0.1055	98181	keystroke	i	n/a
49.1655	0.09	98331	keystroke	n	n/a
49.2705	0.06	98541	keystroke	g	n/a
49.3455	0.075	98691	keystroke	Key.space	n/a
49.4505	0.09	98901	keystroke	e	n/a
49.6605	0.09	99321	keystroke	x	n/a
49.8405	0.06	99681	keystroke	a	n/a
50.0655	0.0455	100131	keystroke	c	n/a
50.3205	0.0605	100641	keystroke	t	n/a
50.456	0.1195	100912	keystroke	l	n/a
50.591	0.06	101182	keystroke	y	n/a
50.801	0.06	101602	keystroke	Key.enter	n/a
50.866	5.832	101732	prompt	n/a	monitored annoying rider participants\n
51.4155	0.09	102831	keystroke	m	n/a
51.536	0.0745	103072	keystroke	o	n/a
52.016	0.06	104032	keystroke	n	n/a
52.166	0.045	104332	keystroke	i	n/a
52.286	0.075	104572	keystroke	t	n/a
52.481	0.0745	104962	keystroke	o	n/a
52.5855	0.09	105171	keystroke	r	n/a
52.7205	0.09	105441	keystroke	e	n/a
52.8855	0.076	105771	keystroke	d	n/a
52.9755	0.075	105951	keystroke	Key.space	n/a
53.0955	0.09	106191	keystroke	a	n/a
53.1705	0.06	106341	keystroke	n	n/a
53.2905	0.076	106581	keystroke	n	n/a
53.3955	0.0905	106791	keystroke	o	n/a
53.516	0.075	107032	keystroke	y	n/a
53.696	0.105	107392	keystroke	i	n/a
53.786	0.0595	107572	keystroke	n	n/a
53.9205	0.045	107841	keystroke	g	n/a
54.0105	0.075	108021	keystroke	Key.space	n/a
54.2055	0.075	108411	keystroke	r	n/a
54.3555	0.06	108711	keystroke	i	n/a
54.4605	0.0755	108921	keystroke	d	n/a
54.626	0.09	109252	keystroke	e	n/a
54.671	0.105	109342	keystroke	r	n/a
54.791	0.075	109582	keystroke	Key.space	n/a
54.9255	0.105	109851	keystroke	p	n/a
55.0455	0.135	110091	keystroke	a	n/a
55.166	0.075	110332	keystroke	r	n/a
55.346	0.045	110692	keystroke	t	n/a
55.4055	0.0755	110811	keystroke	i	n/a
55.571	0.09	111142	keystroke	c	n/a
55.736	0.0895	111472	keystroke	i	n/a
55.9305	0.075	111861	keystroke	p	n/a
56.051	0.12	112102	keystroke	a	n/a
56.201	0.075	112402	keystroke	n	n/a
56.336	0.06	112672	keystroke	t	n/a
56.486	0.105	112972	keystroke	s	n/a
56.621	0.075	113242	keystroke	Key.enter	n/a
56.7005	5.1575	113401	prompt	n/a	salt browse forums recover\n
57.4305	0.09	114861	keystroke	s	n/a
57.5655	0.075	115131	keystroke	a	n/a
57.7005	0.09	115401	keystroke	l	n/a
57.926	0.059	115852	keystroke	t	n/a
58.016	0.09	116032	keystroke	Key.space	n/a
58.256	0.044	116512	keystroke	b	n/a
58.481	0.0745	116962	keystroke	r	n/a
58.6305	0.075	117261	keystroke	o	n/a
58.751	0.09	117502	keystroke	w	n/a
59.006	0.075	118012	keystroke	s	n/a
59.201	0.045	118402	keystroke	e	n/a
59.291	0.09	118582	keystroke	Key.space	n/a
59.531	0.045	119062	keystroke	f	n/a
59.621	0.09	119242	keystroke	o	n/a
59.786	0.075	119572	keystroke	r	n/a
59.9505	0.0605	119901	keystroke	u	n/a
60.131	0.06	120262	keystroke	m	n/a
60.236	0.075	120472	keystroke	s	n/a
60.521	0.075	121042	keystroke	Key.space	n/a
60.9105	0.1055	121821	keystroke	r	n/a
60.956	0.09	121912	keystroke	e	n/a
61.196	0.09	122392	keystroke	c	n/a
61.286	0.105	122572	keystroke	o	n/a
61.4205	0.09	122841	keystroke	v	n/a
61.5255	0.12	123051	keystroke	e	n/a
61.6005	0.09	123201	keystroke	r	n/a
61.7805	0.075	123561	keystroke	Key.enter	n/a
61.8635	10.644	123727	prompt	n/a	sheriff plymouth programs palestinian\n
62.8005	0.1055	125601	keystroke	s	n/a
62.921	0.06	125842	keystroke	h	n/a
63.011	0.12	126022	keystroke	e	n/a
63.101	0.09	126202	keystroke	r	n/a
63.371	0.09	126742	keystroke	i	n/a
63.506	0.045	127012	keystroke	f	n/a
63.626	0.075	127252	keystroke	f	n/a
63.716	0.075	127432	keystroke	Key.space	n/a
63.9555	0.06	127911	keystroke	p	n/a
64.1655	0.09	128331	keystroke	l	n/a
64.3155	0.06	128631	keystroke	y	n/a
64.5105	0.075	129021	keystroke	Key.space	n/a
64.6455	0.105	129291	keystroke	o	n/a
64.7355	0.09	129471	keystroke	u	n/a
65.0505	0.06	130101	keystroke	Key.backspace	n/a
65.2005	0.045	130401	keystroke	Key.backspace	n/a
65.4255	0.06	130851	keystroke	=	n/a
65.666	0.045	131332	keystroke	m	n/a
65.905	0.031	131810	keystroke	Key.backspace	n/a
66.011	0.075	132022	keystroke	Key.backspace	n/a
66.146	0.075	132292	keystroke	Key.backspace	n/a
66.536	0.09	133072	keystroke	m	n/a
67.3755	0.1205	134751	keystroke	o	n/a
67.466	0.09	134932	keystroke	u	n/a
68.006	0.075	136012	keystroke	t	n/a
68.096	0.0895	136192	keystroke	h	n/a
68.276	0.12	136552	keystroke	Key.space	n/a
68.8605	0.09	137721	keystroke	p	n/a
69.0405	0.046	138081	keystroke	r	n/a
69.2805	0.075	138561	keystroke	o	n/a
69.656	0.06	139312	keystroke	g	n/a
69.821	0.09	139642	keystroke	r	n/a
69.986	0.135	139972	keystroke	a	n/a
70.136	0.09	140272	keystroke	m	n/a
70.271	0.075	140542	keystroke	s	n/a
70.5555	0.075	141111	keystroke	Key.space	n/a
70.7955	0.06	141591	keystroke	p	n/a
70.9005	0.105	141801	keystroke	a	n/a
71.0205	0.09	142041	keystroke	l	n/a
71.2755	0.075	142551	keystroke	e	n/a
71.3955	0.105	142791	keystroke	s	n/a
71.5455	0.09	143091	keystroke	t	n/a
71.6805	0.12	143361	keystroke	i	n/a
71.7855	0.09	143571	keystroke	n	n/a
71.8905	0.105	143781	keystroke	i	n/a
72.131	0.075	144262	keystroke	a	n/a
72.266	0.06	144532	keystroke	n	n/a
72.431	0.075	144862	keystroke	Key.enter	n/a
72.5135	6.489	145027	prompt	n/a	thong monica podcasts holocaust\n
73.121	0.075	146242	keystroke	t	n/a
73.166	0.105	146332	keystroke	h	n/a
73.241	0.12	146482	keystroke	o	n/a
73.376	0.09	146752	keystroke	n	n/a
73.451	0.0745	146902	keystroke	g	n/a
73.7805	0.06	147561	keystroke	Key.space	n/a
74.0365	0.074	148073	keystroke	m	n/a
74.1405	0.105	148281	keystroke	o	n/a
74.2165	0.075	148433	keystroke	n	n/a
74.3665	0.089	148733	keystroke	i	n/a
74.5005	0.09	149001	keystroke	c	n/a
74.6205	0.075	149241	keystroke	a	n/a
74.7255	0.09	149451	keystroke	Key.space	n/a
75.0405	0.18	150081	keystroke	p	n/a
75.1455	0.09	150291	keystroke	i	n/a
75.716	0.0445	151432	keystroke	Key.backspace	n/a
75.926	0.075	151852	keystroke	o	n/a
76.0455	0.0605	152091	keystroke	d	n/a
76.271	0.09	152542	keystroke	c	n/a
76.3905	0.1205	152781	keystroke	a	n/a
76.556	0.0745	153112	keystroke	s	n/a
76.7355	0.075	153471	keystroke	t	n/a
76.8705	0.1355	153741	keystroke	s	n/a
77.036	0.0745	154072	keystroke	Key.space	n/a
77.2455	0.12	154491	keystroke	h	n/a
77.3205	0.105	154641	keystroke	o	n/a
77.5005	0.09	155001	keystroke	l	n/a
77.7705	0.075	155541	keystroke	o	n/a
78.0105	0.09	156021	keystroke	c	n/a
78.1605	0.09	156321	keystroke	a	n/a
78.2655	0.06	156531	keystroke	u	n/a
78.536	0.12	157072	keystroke	s	n/a
78.686	0.105	157372	keystroke	t	n/a
78.956	0.045	157912	keystroke	Key.enter	n/a
79.006	5.8465	158012	prompt	n/a	geek paintball arrived indirect\n
79.6605	0.135	159321	keystroke	g	n/a
79.8105	0.09	159621	keystroke	e	n/a
79.9755	0.09	159951	keystroke	e	n/a
80.186	0.09	160372	keystroke	k	n/a
80.336	0.0895	160672	keystroke	Key.space	n/a
80.6955	0.105	161391	keystroke	p	n/a
80.7855	0.09	161571	keystroke	a	n/a
80.8905	0.105	161781	keystroke	i	n/a
81.0105	0.091	162021	keystroke	n	n/a
81.1455	0.09	162291	keystroke	t	n/a
81.431	0.075	162862	keystroke	b	n/a
81.536	0.105	163072	keystroke	a	n/a
81.626	0.075	163252	keystroke	l	n/a
81.761	0.105	163522	keystroke	l	n/a
81.836	0.105	163672	keystroke	Key.space	n/a
81.971	0.12	163942	keystroke	a	n/a
82.106	0.075	164212	keystroke	r	n/a
82.241	0.075	164482	keystroke	r	n/a
82.331	0.075	164662	keystroke	i	n/a
82.481	0.105	164962	keystroke	v	n/a
82.571	0.09	165142	keystroke	e	n/a
82.781	0.06	165562	keystroke	d	n/a
83.081	0.075	166162	keystroke	Key.space	n/a
83.741	0.105	167482	keystroke	i	n/a
83.831	0.075	167662	keystroke	n	n/a
83.951	0.075	167902	keystroke	d	n/a
84.071	0.075	168142	keystroke	i	n/a
84.206	0.12	168412	keystroke	r	n/a
84.296	0.09	168592	keystroke	e	n/a
84.5065	0.074	169013	keystroke	c	n/a
84.6555	0.075	169311	keystroke	t	n/a
84.7755	0.075	169551	keystroke	Key.enter	n/a
84.8555	7.212	169711	prompt	n/a	holes pike christina registration\n
85.4505	0.12	170901	keystroke	h	n/a
85.5105	0.12	171021	keystroke	o	n/a
85.6755	0.105	171351	keystroke	l	n/a
85.7205	0.12	171441	keystroke	e	n/a
85.8555	0.105	171711	keystroke	s	n/a
85.9755	0.075	171951	keystroke	Key.space	n/a
86.1555	0.105	172311	keystroke	p	n/a
86.2455	0.091	172491	keystroke	i	n/a
86.4115	0.104	172823	keystroke	k	n/a
86.5015	0.075	173003	keystroke	e	n/a
86.5905	0.075	173181	keystroke	Key.space	n/a
86.8305	0.076	173661	keystroke	c	n/a
86.9515	0.06	173903	keystroke	h	n/a
87.086	0.045	174172	keystroke	r	n/a
87.146	0.06	174292	keystroke	i	n/a
87.326	0.12	174652	keystroke	s	n/a
87.566	0.045	175132	keystroke	t	n/a
87.656	0.12	175312	keystroke	i	n/a
87.761	0.0755	175522	keystroke	n	n/a
87.8505	0.03	175701	keystroke	e	n/a
88.1355	0.06	176271	keystroke	Key.backspace	n/a
88.2855	0.06	176571	keystroke	a	n/a
88.3905	0.075	176781	keystroke	Key.space	n/a
89.7705	0.06	179541	keystroke	g	n/a
90.0855	0.0605	180171	keystroke	Key.backspace	n/a
90.2205	0.1505	180441	keystroke	r	n/a
90.431	0.09	180862	keystroke	e	n/a
90.626	0.075	181252	keystroke	g	n/a
90.761	0.075	181522	keystroke	i	n/a
90.866	0.135	181732	keystroke	s	n/a
90.971	0.075	181942	keystroke	t	n/a
91.226	0.075	182452	keystroke	r	n/a
91.376	0.1645	182752	keystroke	a	n/a
91.4955	0.06	182991	keystroke	t	n/a
91.6005	0.105	183201	keystroke	i	n/a
91.6605	0.135	183321	keystroke	o	n/a
91.7505	0.1055	183501	keystroke	n	n/a
91.976	0.09	183952	keystroke	Key.enter	n/a
92.0705	5.6975	184141	prompt	n/a	richard foto developer activity\n
92.6805	0.076	185361	keystroke	r	n/a
92.7565	0.075	185513	keystroke	i	n/a
92.9065	0.0895	185813	keystroke	c	n/a
93.026	0.075	186052	keystroke	h	n/a
93.176	0.075	186352	keystroke	a	n/a
93.251	0.09	186502	keystroke	r	n/a
93.491	0.03	186982	keystroke	d	n/a
93.5805	0.0905	187161	keystroke	Key.space	n/a
93.776	0.0745	187552	keystroke	f	n/a
94.2405	0.075	188481	keystroke	o	n/a
94.4205	0.045	188841	keystroke	t	n/a
94.5255	0.09	189051	keystroke	o	n/a
94.6455	0.075	189291	keystroke	Key.space	n/a
95.0355	0.06	190071	keystroke	d	n/a
95.1705	0.06	190341	keystroke	e	n/a
95.3505	0.12	190701	keystroke	v	n/a
95.4855	0.06	190971	keystroke	e	n/a
95.5905	0.09	191181	keystroke	l	n/a
95.7555	0.105	191511	keystroke	o	n/a
95.921	0.105	191842	keystroke	p	n/a
96.071	0.1345	192142	keystroke	e	n/a
96.161	0.1055	192322	keystroke	r	n/a
96.2805	0.075	192561	keystroke	Key.space	n/a
96.4455	0.0905	192891	keystroke	a	n/a
96.626	0.06	193252	keystroke	c	n/a
96.821	0.045	193642	keystroke	t	n/a
96.911	0.06	193822	keystroke	i	n/a
97.181	0.075	194362	keystroke	v	n/a
97.271	0.06	194542	keystroke	i	n/a
97.421	0.06	194842	keystroke	t	n/a
97.511	0.075	195022	keystroke	y	n/a
97.691	0.075	195382	keystroke	Key.enter	n/a
97.771	7.1815	195542	prompt	n/a	beverage competitions miles sapphire\n
98.4705	0.09	196941	keystroke	b	n/a
98.6655	0.09	197331	keystroke	e	n/a
99.0405	0.075	198081	keystroke	v	n/a
99.2205	0.15	198441	keystroke	e	n/a
99.3405	0.045	198681	keystroke	r	n/a
99.4905	0.15	198981	keystroke	a	n/a
99.6555	0.12	199311	keystroke	g	n/a
99.7605	0.09	199521	keystroke	e	n/a
99.8805	0.09	199761	keystroke	Key.space	n/a
100.1805	0.075	200361	keystroke	c	n/a
100.2715	0.134	200543	keystroke	o	n/a
100.3455	0.121	200691	keystroke	m	n/a
100.4955	0.075	200991	keystroke	p	n/a
100.6915	0.074	201383	keystroke	e	n/a
100.8705	0.046	201741	keystroke	t	n/a
101.0805	0.075	202161	keystroke	i	n/a
101.1855	0.045	202371	keystroke	t	n/a
101.3215	0.09	202643	keystroke	i	n/a
101.3965	0.134	202793	keystroke	o	n/a
101.4865	0.104	202973	keystroke	n	n/a
101.6355	0.075	203271	keystroke	s	n/a
101.7705	0.09	203541	keystroke	Key.space	n/a
101.9055	0.106	203811	keystroke	m	n/a
102.0255	0.1655	204051	keystroke	i	n/a
102.161	0.12	204322	keystroke	l	n/a
102.296	0.1045	204592	keystroke	e	n/a
102.4155	0.105	204831	keystroke	s	n/a
102.5355	0.075	205071	keystroke	Key.space	n/a
102.8505	0.09	205701	keystroke	s	n/a
103.016	0.045	206032	keystroke	p	n/a
103.33	0.0615	206660	keystroke	Key.backspace	n/a
103.4365	0.06	206873	keystroke	a	n/a
103.6015	0.0445	207203	keystroke	p	n/a
103.7215	0.104	207443	keystroke	p	n/a
103.9755	0.105	207951	keystroke	h	n/a
104.0505	0.121	208101	keystroke	i	n/a
104.4555	0.0455	208911	keystroke	r	n/a
104.4865	0.059	208973	keystroke	e	n/a
104.906	0.045	209812	keystroke	Key.enter	n/a
104.9555	5.667	209911	prompt	n/a	brass sheriff suggesting saturday\n
105.686	0.09	211372	keystroke	b	n/a
105.926	0.075	211852	keystroke	r	n/a
106.016	0.1195	212032	keystroke	a	n/a
106.1805	0.075	212361	keystroke	s	n/a
106.3305	0.075	212661	keystroke	s	n/a
106.3905	0.09	212781	keystroke	Key.space	n/a
106.6455	0.091	213291	keystroke	s	n/a
106.7515	0.06	213503	keystroke	h	n/a
106.8265	0.12	213653	keystroke	e	n/a
106.9315	0.089	213863	keystroke	r	n/a
107.0805	0.0905	214161	keystroke	i	n/a
107.261	0.045	214522	keystroke	f	n/a
107.381	0.075	214762	keystroke	f	n/a
107.486	0.09	214972	keystroke	Key.space	n/a
107.9055	0.09	215811	keystroke	s	n/a
108.0255	0.06	216051	keystroke	u	n/a
108.1605	0.06	216321	keystroke	g	n/a
108.2805	0.09	216561	keystroke	g	n/a
108.4015	0.1195	216803	keystroke	e	n/a
108.581	0.15	217162	keystroke	s	n/a
108.716	0.075	217432	keystroke	t	n/a
108.836	0.12	217672	keystroke	i	n/a
108.926	0.105	217852	keystroke	n	n/a
109.001	0.06	218002	keystroke	g	n/a
109.106	0.0755	218212	keystroke	Key.space	n/a
109.346	0.075	218692	keystroke	s	n/a
109.481	0.15	218962	keystroke	a	n/a
109.646	0.06	219292	keystroke	t	n/a
109.7815	0.0745	219563	keystroke	u	n/a
109.886	0.105	219772	keystroke	r	n/a
110.156	0.105	220312	keystroke	d	n/a
110.231	0.12	220462	keystroke	a	n/a
110.366	0.06	220732	keystroke	y	n/a
110.5305	0.09	221061	keystroke	Key.enter	n/a
110.6255	8.262	221251	prompt	n/a	coaching xbox jessica exterior\n
111.1165	0.06	222233	keystroke	b	n/a
111.3855	0.06	222771	keystroke	Key.backspace	n/a
111.5055	0.105	223011	keystroke	c	n/a
111.6415	0.105	223283	keystroke	o	n/a
111.7315	0.09	223463	keystroke	a	n/a
111.9705	0.076	223941	keystroke	c	n/a
112.0305	0.136	224061	keystroke	h	n/a
112.1205	0.1655	224241	keystroke	i	n/a
112.226	0.105	224452	keystroke	n	n/a
112.301	0.045	224602	keystroke	g	n/a
112.376	0.09	224752	keystroke	Key.space	n/a
112.586	0.09	225172	keystroke	x	n/a
112.811	0.06	225622	keystroke	p	n/a
113.7715	0.075	227543	keystroke	Key.backspace	n/a
114.0865	0.06	228173	keystroke	b	n/a
114.2515	0.06	228503	keystroke	o	n/a
114.5515	0.044	229103	keystroke	x	n/a
114.8955	0.075	229791	keystroke	Key.space	n/a
115.1955	0.091	230391	keystroke	j	n/a
115.2865	0.075	230573	keystroke	e	n/a
115.4805	0.031	230961	keystroke	s	n/a
115.6015	0.074	231203	keystroke	s	n/a
115.7205	0.06	231441	keystroke	i	n/a
115.8415	0.059	231683	keystroke	c	n/a
116.1555	0.075	232311	keystroke	a	n/a
116.3055	0.09	232611	keystroke	Key.space	n/a
116.696	0.075	233392	keystroke	e	n/a
116.996	0.105	233992	keystroke	x	n/a
117.176	0.045	234352	keystroke	o	n/a
117.476	0.045	234952	keystroke	Key.backspace	n/a
117.731	0.06	235462	keystroke	t	n/a
117.8955	0.091	235791	keystroke	e	n/a
118.1055	0.045	236211	keystroke	r	n/a
118.3305	0.1355	236661	keystroke	i	n/a
118.436	0.135	236872	keystroke	o	n/a
118.676	0.075	237352	keystroke	r	n/a
118.811	0.075	237622	keystroke	Key.enter	n/a
118.891	6.0865	237782	prompt	n/a	processor kits personally careful\n
119.5005	0.075	239001	keystroke	p	n/a
119.5905	0.105	239181	keystroke	r	n/a
119.6805	0.09	239361	keystroke	o	n/a
119.876	0.06	239752	keystroke	c	n/a
120.056	0.1195	240112	keystroke	e	n/a
120.1165	0.119	240233	keystroke	s	n/a
120.2965	0.09	240593	keystroke	s	n/a
120.3715	0.104	240743	keystroke	o	n/a
120.506	0.0745	241012	keystroke	r	n/a
120.5815	0.074	241163	keystroke	Key.space	n/a
120.7605	0.06	241521	keystroke	k	n/a
120.8805	0.06	241761	keystroke	i	n/a
121.0165	0.104	242033	keystroke	d	n/a
121.1355	0.105	242271	keystroke	s	n/a
121.2555	0.09	242511	keystroke	Key.space	n/a
121.3605	0.0905	242721	keystroke	p	n/a
121.466	0.105	242932	keystroke	e	n/a
121.601	0.105	243202	keystroke	r	n/a
121.781	0.0895	243562	keystroke	s	n/a
121.8715	0.105	243743	keystroke	o	n/a
121.9305	0.106	243861	keystroke	n	n/a
122.0665	0.09	244133	keystroke	a	n/a
122.1705	0.061	244341	keystroke	l	n/a
122.2915	0.09	244583	keystroke	l	n/a
122.4105	0.091	244821	keystroke	y	n/a
122.6815	0.105	245363	keystroke	Key.space	n/a
122.9215	0.06	245843	keystroke	c	n/a
123.131	0.06	246262	keystroke	a	n/a
123.176	0.135	246352	keystroke	r	n/a
123.746	0.06	247492	keystroke	e	n/a
124.031	0.06	248062	keystroke	f	n/a
124.2555	0.06	248511	keystroke	u	n/a
124.6455	0.075	249291	keystroke	l	n/a
124.946	0.03	249892	keystroke	Key.enter	n/a
124.9805	6.732	249961	prompt	n/a	accepting creating nirvana deposit\n
125.6065	0.075	251213	keystroke	a	n/a
125.7565	0.06	251513	keystroke	c	n/a
125.8765	0.0745	251753	keystroke	c	n/a
126.056	0.075	252112	keystroke	e	n/a
126.161	0.1045	252322	keystroke	p	n/a
126.3705	0.06	252741	keystroke	t	n/a
126.4605	0.105	252921	keystroke	i	n/a
126.5205	0.105	253041	keystroke	n	n/a
126.6105	0.075	253221	keystroke	g	n/a
126.7005	0.075	253401	keystroke	Key.space	n/a
126.911	0.06	253822	keystroke	c	n/a
127.121	0.105	254242	keystroke	r	n/a
127.181	0.15	254362	keystroke	e	n/a
127.301	0.165	254602	keystroke	a	n/a
127.421	0.075	254842	keystroke	t	n/a
127.511	0.12	255022	keystroke	i	n/a
127.586	0.105	255172	keystroke	n	n/a
127.692	0.059	255384	keystroke	g	n/a
127.781	0.075	255562	keystroke	Key.space	n/a
128.336	0.075	256672	keystroke	n	n/a
128.396	0.12	256792	keystroke	i	n/a
128.531	0.09	257062	keystroke	r	n/a
128.951	0.105	257902	keystroke	v	n/a
129.1305	0.09	258261	keystroke	a	n/a
129.2655	0.075	258531	keystroke	n	n/a
129.3705	0.09	258741	keystroke	a	n/a
129.4905	0.075	258981	keystroke	Key.space	n/a
129.6715	0.06	259343	keystroke	d	n/a
129.8355	0.03	259671	keystroke	e	n/a
129.9855	0.12	259971	keystroke	p	n/a
130.0755	0.105	260151	keystroke	o	n/a
130.4655	0.1055	260931	keystroke	s	n/a
130.646	0.075	261292	keystroke	i	n/a
131.0665	0.045	262133	keystroke	t	n/a
131.6355	0.075	263271	keystroke	Key.enter	n/a
131.718	4.915	263436	prompt	n/a	hands ignored induced watching\n
132.4605	0.075	264921	keystroke	h	n/a
132.5205	0.12	265041	keystroke	a	n/a
132.6265	0.089	265253	keystroke	n	n/a
132.7455	0.09	265491	keystroke	d	n/a
132.8505	0.135	265701	keystroke	s	n/a
132.9555	0.105	265911	keystroke	Key.space	n/a
133.1055	0.09	266211	keystroke	i	n/a
133.3755	0.06	266751	keystroke	g	n/a
133.4505	0.12	266901	keystroke	n	n/a
133.5555	0.09	267111	keystroke	o	n/a
133.6605	0.105	267321	keystroke	r	n/a
133.7355	0.106	267471	keystroke	e	n/a
133.9155	0.075	267831	keystroke	d	n/a
134.0055	0.075	268011	keystroke	Key.space	n/a
134.1105	0.12	268221	keystroke	i	n/a
134.2155	0.075	268431	keystroke	n	n/a
134.3505	0.09	268701	keystroke	d	n/a
134.4705	0.0755	268941	keystroke	u	n/a
134.861	0.09	269722	keystroke	c	n/a
135.086	0.0595	270172	keystroke	e	n/a
135.2505	0.06	270501	keystroke	d	n/a
135.4305	0.061	270861	keystroke	Key.space	n/a
135.6565	0.09	271313	keystroke	w	n/a
135.7765	0.135	271553	keystroke	a	n/a
135.8665	0.075	271733	keystroke	t	n/a
136.061	0.12	272122	keystroke	c	n/a
136.182	0.074	272364	keystroke	h	n/a
136.211	0.165	272422	keystroke	i	n/a
136.331	0.105	272662	keystroke	n	n/a
136.406	0.06	272812	keystroke	g	n/a
136.556	0.075	273112	keystroke	Key.enter	n/a
136.636	5.9215	273272	prompt	n/a	portugal returning mental managing\n
137.231	0.135	274462	keystroke	p	n/a
137.396	0.105	274792	keystroke	o	n/a
137.531	0.09	275062	keystroke	r	n/a
137.726	0.075	275452	keystroke	t	n/a
137.831	0.075	275662	keystroke	u	n/a
138.251	0.09	276502	keystroke	g	n/a
138.356	0.12	276712	keystroke	a	n/a
138.461	0.12	276922	keystroke	l	n/a
138.521	0.105	277042	keystroke	Key.space	n/a
138.731	0.105	277462	keystroke	r	n/a
138.821	0.12	277642	keystroke	e	n/a
138.986	0.075	277972	keystroke	t	n/a
139.106	0.075	278212	keystroke	u	n/a
139.241	0.06	278482	keystroke	r	n/a
139.346	0.105	278692	keystroke	n	n/a
139.436	0.135	278872	keystroke	i	n/a
139.556	0.09	279112	keystroke	n	n/a
139.661	0.045	279322	keystroke	g	n/a
139.751	0.075	279502	keystroke	Key.space	n/a
140.171	0.09	280342	keystroke	m	n/a
140.291	0.075	280582	keystroke	e	n/a
140.426	0.09	280852	keystroke	n	n/a
140.756	0.06	281512	keystroke	t	n/a
140.846	0.12	281692	keystroke	a	n/a
140.951	0.12	281902	keystroke	l	n/a
141.086	0.075	282172	keystroke	Key.space	n/a
141.236	0.09	282472	keystroke	m	n/a
141.341	0.12	282682	keystroke	a	n/a
141.446	0.075	282892	keystroke	n	n/a
141.566	0.165	283132	keystroke	a	n/a
141.746	0.075	283492	keystroke	g	n/a
141.986	0.045	283972	keystroke	i	n/a
142.001	0.105	284002	keystroke	n	n/a
142.271	0.045	284542	keystroke	g	n/a
142.4955	0.0605	284991	keystroke	Key.enter	n/a
142.5605	7.317	285121	prompt	n/a	stylish anchor admitted sentence\n
144.7185	0.057	289437	keystroke	s	n/a
144.8055	0.075	289611	keystroke	t	n/a
144.9705	0.061	289941	keystroke	y	n/a
145.2405	0.12	290481	keystroke	l	n/a
145.4055	0.09	290811	keystroke	i	n/a
145.5555	0.075	291111	keystroke	s	n/a
145.6455	0.105	291291	keystroke	h	n/a
145.7055	0.09	291411	keystroke	Key.space	n/a
145.9755	0.075	291951	keystroke	a	n/a
146.2005	0.09	292401	keystroke	n	n/a
146.3355	0.075	292671	keystroke	c	n/a
146.4555	0.105	292911	keystroke	h	n/a
146.531	0.1195	293062	keystroke	o	n/a
146.666	0.0595	293332	keystroke	r	n/a
146.816	0.0595	293632	keystroke	Key.space	n/a
147.1455	0.06	294291	keystroke	a	n/a
147.371	0.06	294742	keystroke	d	n/a
147.536	0.06	295072	keystroke	m	n/a
147.656	0.0895	295312	keystroke	i	n/a
147.8965	0.06	295793	keystroke	t	n/a
148.001	0.105	296002	keystroke	t	n/a
148.136	0.09	296272	keystroke	e	n/a
148.316	0.06	296632	keystroke	d	n/a
148.421	0.06	296842	keystroke	Key.space	n/a
148.541	0.1355	297082	keystroke	s	n/a
148.7665	0.0895	297533	keystroke	e	n/a
148.9165	0.0745	297833	keystroke	n	n/a
149.111	0.09	298222	keystroke	t	n/a
149.231	0.09	298462	keystroke	e	n/a
149.381	0.06	298762	keystroke	n	n/a
149.486	0.075	298972	keystroke	c	n/a
149.696	0.045	299392	keystroke	e	n/a
149.816	0.06	299632	keystroke	Key.enter	n/a
149.882	7.6005	299764	prompt	n/a	mounted agricultural negotiations handmade\n
150.7605	0.105	301521	keystroke	m	n/a
150.9105	0.09	301821	keystroke	o	n/a
150.9705	0.075	301941	keystroke	u	n/a
151.1505	0.075	302301	keystroke	n	n/a
151.2705	0.135	302541	keystroke	t	n/a
151.3755	0.075	302751	keystroke	e	n/a
151.5555	0.09	303111	keystroke	d	n/a
151.6305	0.075	303261	keystroke	Key.space	n/a
151.901	0.09	303802	keystroke	a	n/a
152.096	0.075	304192	keystroke	g	n/a
152.261	0.06	304522	keystroke	r	n/a
152.351	0.075	304702	keystroke	i	n/a
152.486	0.105	304972	keystroke	c	n/a
152.621	0.075	305242	keystroke	u	n/a
152.801	0.09	305602	keystroke	l	n/a
153.071	0.045	306142	keystroke	t	n/a
153.161	0.075	306322	keystroke	u	n/a
153.281	0.09	306562	keystroke	r	n/a
153.446	0.105	306892	keystroke	a	n/a
153.536	0.12	307072	keystroke	l	n/a
153.611	0.105	307222	keystroke	Key.space	n/a
153.836	0.06	307672	keystroke	n	n/a
153.941	0.075	307882	keystroke	e	n/a
154.136	0.045	308272	keystroke	g	n/a
154.226	0.09	308452	keystroke	o	n/a
154.376	0.075	308752	keystroke	t	n/a
154.481	0.075	308962	keystroke	i	n/a
154.601	0.15	309202	keystroke	a	n/a
154.721	0.075	309442	keystroke	t	n/a
154.826	0.135	309652	keystroke	i	n/a
154.931	0.135	309862	keystroke	o	n/a
155.006	0.105	310012	keystroke	n	n/a
155.141	0.09	310282	keystroke	s	n/a
155.546	0.0745	311092	keystroke	Key.space	n/a
155.756	0.0595	311512	keystroke	h	n/a
155.846	0.1045	311692	keystroke	a	n/a
156.0405	0.06	312081	keystroke	n	n/a
156.2355	0.045	312471	keystroke	d	n/a
156.4305	0.06	312861	keystroke	m	n/a
156.5515	0.09	313103	keystroke	a	n/a
156.6565	0.045	313313	keystroke	n	n/a
157.0455	0.06	314091	keystroke	Key.backspace	n/a
157.1665	0.059	314333	keystroke	d	n/a
157.3165	0.059	314633	keystroke	e	n/a
157.4055	0.075	314811	keystroke	Key.enter	n/a
157.486	6.1315	314972	prompt	n/a	washer wheels ranger threads\n
158.1555	0.1055	316311	keystroke	w	n/a
158.321	0.105	316642	keystroke	a	n/a
158.636	0.09	317272	keystroke	s	n/a
158.711	0.09	317422	keystroke	h	n/a
158.831	0.12	317662	keystroke	e	n/a
158.906	0.105	317812	keystroke	r	n/a
158.981	0.105	317962	keystroke	Key.space	n/a
159.221	0.105	318442	keystroke	s	n/a
159.356	0.105	318712	keystroke	h	n/a
159.866	0.06	319732	keystroke	Key.backspace	n/a
159.986	0.075	319972	keystroke	Key.backspace	n/a
160.091	0.06	320182	keystroke	w	n/a
160.241	0.045	320482	keystroke	h	n/a
160.451	0.06	320902	keystroke	e	n/a
160.586	0.075	321172	keystroke	e	n/a
160.676	0.09	321352	keystroke	l	n/a
160.811	0.06	321622	keystroke	s	n/a
160.916	0.075	321832	keystroke	Key.space	n/a
161.426	0.105	322852	keystroke	r	n/a
161.591	0.12	323182	keystroke	a	n/a
161.696	0.06	323392	keystroke	n	n/a
161.801	0.0895	323602	keystroke	g	n/a
161.8755	0.135	323751	keystroke	e	n/a
161.9955	0.09	323991	keystroke	r	n/a
162.1005	0.075	324201	keystroke	Key.space	n/a
162.401	0.06	324802	keystroke	t	n/a
162.446	0.0745	324892	keystroke	h	n/a
162.5805	0.135	325161	keystroke	r	n/a
162.6855	0.075	325371	keystroke	e	n/a
162.8655	0.12	325731	keystroke	a	n/a
163.0305	0.075	326061	keystroke	d	n/a
163.3305	0.075	326661	keystroke	s	n/a
163.541	0.075	327082	keystroke	Key.enter	n/a
163.6205	5.937	327241	prompt	n/a	portion duplicate apply rolls\n
164.2615	0.12	328523	keystroke	p	n/a
164.3665	0.12	328733	keystroke	o	n/a
164.5615	0.09	329123	keystroke	r	n/a
164.7705	0.061	329541	keystroke	t	n/a
164.8315	0.12	329663	keystroke	i	n/a
164.8915	0.15	329783	keystroke	o	n/a
164.9815	0.119	329963	keystroke	n	n/a
165.0855	0.09	330171	keystroke	Key.space	n/a
165.4015	0.06	330803	keystroke	d	n/a
165.4915	0.059	330983	keystroke	u	n/a
165.7755	0.031	331551	keystroke	b	n/a
166.2705	0.06	332541	keystroke	Key.backspace	n/a
166.4665	0.089	332933	keystroke	p	n/a
166.6465	0.105	333293	keystroke	l	n/a
166.7365	0.09	333473	keystroke	i	n/a
166.8565	0.089	333713	keystroke	c	n/a
166.9605	0.18	333921	keystroke	a	n/a
167.1105	0.121	334221	keystroke	t	n/a
167.1705	0.136	334341	keystroke	e	n/a
167.3655	0.09	334731	keystroke	Key.space	n/a
167.4705	0.106	334941	keystroke	a	n/a
167.5765	0.2695	335153	keystroke	p	n/a
168.146	0.075	336292	keystroke	p	n/a
168.341	0.075	336682	keystroke	l	n/a
168.521	0.09	337042	keystroke	y	n/a
168.596	0.075	337192	keystroke	Key.space	n/a
168.836	0.075	337672	keystroke	r	n/a
168.911	0.075	337822	keystroke	o	n/a
169.076	0.075	338152	keystroke	l	n/a
169.211	0.1045	338422	keystroke	l	n/a
169.346	0.06	338692	keystroke	s	n/a
169.4955	0.06	338991	keystroke	Key.enter	n/a
169.56	4.8725	339120	prompt	n/a	chess dealt educated overall\n
170.2765	0.09	340553	keystroke	c	n/a
170.3815	0.06	340763	keystroke	h	n/a
170.4715	0.045	340943	keystroke	e	n/a
170.5915	0.105	341183	keystroke	s	n/a
170.7715	0.075	341543	keystroke	s	n/a
170.8615	0.075	341723	keystroke	Key.space	n/a
171.0415	0.059	342083	keystroke	d	n/a
171.1905	0.075	342381	keystroke	e	n/a
171.4755	0.12	342951	keystroke	a	n/a
171.6255	0.106	343251	keystroke	l	n/a
171.8355	0.0455	343671	keystroke	t	n/a
171.9555	0.06	343911	keystroke	Key.space	n/a
172.1815	0.06	344363	keystroke	e	n/a
172.3905	0.075	344781	keystroke	d	n/a
172.5255	0.06	345051	keystroke	u	n/a
172.6455	0.105	345291	keystroke	c	n/a
172.7955	0.135	345591	keystroke	a	n/a
172.9005	0.09	345801	keystroke	t	n/a
173.0205	0.09	346041	keystroke	e	n/a
173.1855	0.075	346371	keystroke	d	n/a
173.2905	0.075	346581	keystroke	Key.space	n/a
173.4105	0.075	346821	keystroke	o	n/a
173.5455	0.105	347091	keystroke	v	n/a
173.6355	0.181	347271	keystroke	e	n/a
173.7855	0.105	347571	keystroke	r	n/a
173.8755	0.135	347751	keystroke	a	n/a
174.0415	0.074	348083	keystroke	l	n/a
174.1755	0.075	348351	keystroke	l	n/a
174.3705	0.06	348741	keystroke	Key.enter	n/a
174.4355	6.702	348871	prompt	n/a	witness invisible scottish stanley\n
175.2415	0.089	350483	keystroke	w	n/a
175.3915	0.059	350783	keystroke	i	n/a
175.6015	0.089	351203	keystroke	t	n/a
175.7365	0.06	351473	keystroke	n	n/a
175.8115	0.104	351623	keystroke	e	n/a
175.9315	0.0745	351863	keystroke	s	n/a
176.096	0.09	352192	keystroke	s	n/a
176.171	0.075	352342	keystroke	Key.space	n/a
176.456	0.1355	352912	keystroke	i	n/a
176.5615	0.105	353123	keystroke	n	n/a
176.7415	0.06	353483	keystroke	v	n/a
176.8315	0.06	353663	keystroke	i	n/a
176.9365	0.105	353873	keystroke	s	n/a
177.1165	0.074	354233	keystroke	i	n/a
177.3415	0.06	354683	keystroke	b	n/a
177.4615	0.09	354923	keystroke	l	n/a
177.5665	0.06	355133	keystroke	e	n/a
177.6715	0.075	355343	keystroke	Key.space	n/a
177.8065	0.105	355613	keystroke	s	n/a
178.0615	0.06	356123	keystroke	c	n/a
178.2265	0.075	356453	keystroke	o	n/a
178.4215	0.045	356843	keystroke	t	n/a
178.5565	0.06	357113	keystroke	t	n/a
178.6015	0.09	357203	keystroke	i	n/a
178.706	0.1055	357412	keystroke	s	n/a
178.8265	0.09	357653	keystroke	h	n/a
178.9915	0.105	357983	keystroke	Key.space	n/a
179.2765	0.09	358553	keystroke	s	n/a
179.5015	0.075	359003	keystroke	t	n/a
179.7415	0.12	359483	keystroke	a	n/a
180.041	0.06	360082	keystroke	n	n/a
180.266	0.105	360532	keystroke	l	n/a
180.5665	0.045	361133	keystroke	e	n/a
180.656	0.0605	361312	keystroke	y	n/a
181.091	0.045	362182	keystroke	Key.enter	n/a
181.1405	6.912	362281	prompt	n/a	occasion permission pizza missing\n
182.0055	0.075	364011	keystroke	o	n/a
182.1705	0.045	364341	keystroke	c	n/a
182.2905	0.075	364581	keystroke	c	n/a
182.576	0.1195	365152	keystroke	a	n/a
183.565	0.0755	367130	keystroke	s	n/a
183.7005	0.135	367401	keystroke	i	n/a
183.7905	0.12	367581	keystroke	o	n/a
183.8805	0.105	367761	keystroke	n	n/a
184.0005	0.06	368001	keystroke	Key.space	n/a
184.601	0.105	369202	keystroke	p	n/a
184.721	0.075	369442	keystroke	e	n/a
184.766	0.105	369532	keystroke	r	n/a
184.961	0.0745	369922	keystroke	m	n/a
185.1555	0.075	370311	keystroke	i	n/a
185.291	0.0595	370582	keystroke	s	n/a
185.4255	0.0755	370851	keystroke	s	n/a
185.501	0.12	371002	keystroke	i	n/a
185.576	0.12	371152	keystroke	o	n/a
185.636	0.135	371272	keystroke	n	n/a
185.756	0.12	371512	keystroke	Key.space	n/a
186.251	0.06	372502	keystroke	p	n/a
186.4905	0.06	372981	keystroke	i	n/a
186.6255	0.075	373251	keystroke	z	n/a
186.7755	0.06	373551	keystroke	z	n/a
186.9555	0.0605	373911	keystroke	a	n/a
187.0005	0.09	374001	keystroke	Key.space	n/a
187.1355	0.09	374271	keystroke	m	n/a
187.2405	0.09	374481	keystroke	i	n/a
187.5105	0.06	375021	keystroke	s	n/a
187.6455	0.09	375291	keystroke	s	n/a
187.7205	0.09	375441	keystroke	i	n/a
187.7805	0.075	375561	keystroke	n	n/a
187.8705	0.075	375741	keystroke	g	n/a
187.9755	0.075	375951	keystroke	Key.enter	n/a
188.0555	5.202	376111	prompt	n/a	judge growing extensive amendment\n
188.6215	0.059	377243	keystroke	j	n/a
188.7405	0.075	377481	keystroke	u	n/a
188.8605	0.061	377721	keystroke	d	n/a
189.1755	0.15	378351	keystroke	g	n/a
189.2805	0.09	378561	keystroke	e	n/a
189.3715	0.089	378743	keystroke	Key.space	n/a
189.6405	0.045	379281	keystroke	g	n/a
189.7905	0.0755	379581	keystroke	r	n/a
189.881	0.09	379762	keystroke	o	n/a
189.971	0.09	379942	keystroke	w	n/a
190.091	0.12	380182	keystroke	i	n/a
190.181	0.105	380362	keystroke	n	n/a
190.301	0.06	380602	keystroke	g	n/a
190.376	0.09	380752	keystroke	Key.space	n/a
190.5865	0.044	381173	keystroke	e	n/a
190.7955	0.061	381591	keystroke	x	n/a
190.9465	0.12	381893	keystroke	t	n/a
191.0515	0.09	382103	keystroke	e	n/a
191.1555	0.091	382311	keystroke	n	n/a
191.2905	0.075	382581	keystroke	s	n/a
191.4105	0.076	382821	keystroke	i	n/a
191.5765	0.135	383153	keystroke	v	n/a
191.6665	0.119	383333	keystroke	e	n/a
191.8005	0.09	383601	keystroke	Key.space	n/a
191.9505	0.09	383901	keystroke	a	n/a
192.1755	0.075	384351	keystroke	m	n/a
192.3265	0.059	384653	keystroke	e	n/a
192.4155	0.06	384831	keystroke	n	n/a
192.5205	0.09	385041	keystroke	d	n/a
192.6705	0.075	385341	keystroke	m	n/a
192.7905	0.06	385581	keystroke	e	n/a
192.8655	0.06	385731	keystroke	n	n/a
193.0155	0.06	386031	keystroke	t	n/a
193.1955	0.06	386391	keystroke	Key.enter	n/a
193.2605	6.822	386521	prompt	n/a	utils ways museum birmingham\n
193.9305	0.075	387861	keystroke	u	n/a
194.3655	0.06	388731	keystroke	t	n/a
194.4705	0.12	388941	keystroke	i	n/a
194.5605	0.12	389121	keystroke	l	n/a
194.6655	0.105	389331	keystroke	s	n/a
194.8005	0.075	389601	keystroke	Key.space	n/a
195.0105	0.09	390021	keystroke	w	n/a
195.1455	0.135	390291	keystroke	a	n/a
195.2355	0.075	390471	keystroke	y	n/a
195.3855	0.09	390771	keystroke	s	n/a
195.4905	0.075	390981	keystroke	Key.space	n/a
196.2705	0.1055	392541	keystroke	m	n/a
196.466	0.06	392932	keystroke	u	n/a
196.571	0.09	393142	keystroke	s	n/a
197.606	0.045	395212	keystroke	e	n/a
197.756	0.06	395512	keystroke	u	n/a
197.921	0.105	395842	keystroke	m	n/a
198.041	0.06	396082	keystroke	Key.space	n/a
198.416	0.075	396832	keystroke	b	n/a
198.581	0.075	397162	keystroke	i	n/a
198.746	0.06	397492	keystroke	r	n/a
198.881	0.0755	397762	keystroke	m	n/a
199.076	0.0895	398152	keystroke	i	n/a
199.1815	0.104	398363	keystroke	n	n/a
199.3155	0.0755	398631	keystroke	g	n/a
199.526	0.06	399052	keystroke	h	n/a
199.6905	0.105	399381	keystroke	a	n/a
199.8255	0.06	399651	keystroke	m	n/a
200.006	0.075	400012	keystroke	Key.enter	n/a
200.086	6.7315	400172	prompt	n/a	harry chrysler girls filename\n
200.666	0.06	401332	keystroke	h	n/a
200.741	0.105	401482	keystroke	a	n/a
200.9805	0.06	401961	keystroke	r	n/a
201.1005	0.075	402201	keystroke	r	n/a
201.1905	0.105	402381	keystroke	y	n/a
201.2805	0.06	402561	keystroke	Key.space	n/a
201.4755	0.075	402951	keystroke	c	n/a
201.5655	0.075	403131	keystroke	h	n/a
201.7305	0.06	403461	keystroke	r	n/a
201.8505	0.0455	403701	keystroke	i	n/a
202.1505	0.0605	404301	keystroke	Key.backspace	n/a
202.346	0.0595	404692	keystroke	y	n/a
202.721	0.12	405442	keystroke	s	n/a
203.171	0.09	406342	keystroke	l	n/a
203.306	0.12	406612	keystroke	e	n/a
203.396	0.075	406792	keystroke	r	n/a
203.726	0.06	407452	keystroke	Key.space	n/a
204.026	0.06	408052	keystroke	g	n/a
204.116	0.135	408232	keystroke	i	n/a
204.416	0.06	408832	keystroke	r	n/a
204.6405	0.0755	409281	keystroke	l	n/a
204.7905	0.06	409581	keystroke	s	n/a
204.896	0.06	409792	keystroke	Key.space	n/a
205.331	0.06	410662	keystroke	f	n/a
205.646	0.075	411292	keystroke	i	n/a
205.781	0.135	411562	keystroke	l	n/a
205.901	0.03	411802	keystroke	e	n/a
206.126	0.06	412252	keystroke	n	n/a
206.246	0.105	412492	keystroke	a	n/a
206.366	0.075	412732	keystroke	m	n/a
206.531	0.045	413062	keystroke	e	n/a
206.726	0.09	413452	keystroke	Key.enter	n/a
206.8215	5.846	413643	prompt	n/a	payable bonds headlines suggested\n
207.521	0.075	415042	keystroke	p	n/a
207.626	0.105	415252	keystroke	a	n/a
207.746	0.045	415492	keystroke	y	n/a
207.836	0.1355	415672	keystroke	a	n/a
208.1665	0.06	416333	keystroke	b	n/a
208.2715	0.1045	416543	keystroke	l	n/a
208.391	0.06	416782	keystroke	e	n/a
208.466	0.075	416932	keystroke	Key.space	n/a
208.676	0.03	417352	keystroke	p	n/a
208.991	0.06	417982	keystroke	Key.backspace	n/a
209.156	0.0445	418312	keystroke	b	n/a
209.2605	0.09	418521	keystroke	o	n/a
209.3655	0.12	418731	keystroke	n	n/a
209.5455	0.075	419091	keystroke	d	n/a
209.6655	0.12	419331	keystroke	s	n/a
209.801	0.0745	419602	keystroke	Key.space	n/a
210.1315	0.06	420263	keystroke	h	n/a
210.2215	0.059	420443	keystroke	e	n/a
210.3715	0.075	420743	keystroke	a	n/a
210.5055	0.075	421011	keystroke	d	n/a
210.6705	0.09	421341	keystroke	l	n/a
210.7455	0.1205	421491	keystroke	i	n/a
210.821	0.09	421642	keystroke	n	n/a
210.926	0.105	421852	keystroke	e	n/a
211.032	0.134	422064	keystroke	s	n/a
211.181	0.075	422362	keystroke	Key.space	n/a
211.466	0.075	422932	keystroke	s	n/a
211.571	0.06	423142	keystroke	u	n/a
211.676	0.06	423352	keystroke	g	n/a
211.796	0.1045	423592	keystroke	g	n/a
211.9155	0.1205	423831	keystroke	e	n/a
212.0055	0.15	424011	keystroke	s	n/a
212.126	0.135	424252	keystroke	t	n/a
212.231	0.12	424462	keystroke	e	n/a
212.411	0.09	424822	keystroke	d	n/a
212.576	0.09	425152	keystroke	Key.enter	n/a
212.671	5.0965	425342	prompt	n/a	page payments sometimes activities\n
213.296	0.09	426592	keystroke	p	n/a
213.386	0.12	426772	keystroke	a	n/a
213.476	0.105	426952	keystroke	g	n/a
213.536	0.12	427072	keystroke	e	n/a
213.671	0.09	427342	keystroke	Key.space	n/a
213.896	0.09	427792	keystroke	p	n/a
214.001	0.105	428002	keystroke	a	n/a
214.121	0.03	428242	keystroke	y	n/a
214.271	0.06	428542	keystroke	m	n/a
214.3615	0.074	428723	keystroke	e	n/a
214.4515	0.06	428903	keystroke	n	n/a
214.5265	0.075	429053	keystroke	t	n/a
214.6615	0.135	429323	keystroke	s	n/a
214.7815	0.089	429563	keystroke	Key.space	n/a
215.0815	0.075	430163	keystroke	s	n/a
215.1715	0.105	430343	keystroke	o	n/a
215.2315	0.105	430463	keystroke	m	n/a
215.3215	0.06	430643	keystroke	e	n/a
215.5005	0.06	431001	keystroke	t	n/a
215.5755	0.09	431151	keystroke	i	n/a
215.6355	0.106	431271	keystroke	m	n/a
215.7255	0.12	431451	keystroke	e	n/a
215.8005	0.1205	431601	keystroke	s	n/a
215.981	0.075	431962	keystroke	Key.space	n/a
216.206	0.075	432412	keystroke	a	n/a
216.386	0.075	432772	keystroke	c	n/a
216.5815	0.074	433163	keystroke	t	n/a
216.7015	0.074	433403	keystroke	i	n/a
216.8515	0.0745	433703	keystroke	v	n/a
216.941	0.075	433882	keystroke	i	n/a
217.136	0.09	434272	keystroke	t	n/a
217.271	0.06	434542	keystroke	i	n/a
217.376	0.12	434752	keystroke	e	n/a
217.481	0.105	434962	keystroke	s	n/a
217.706	0.06	435412	keystroke	Key.enter	n/a
217.7725	5.935	435545	prompt	n/a	incredible russia conduct biggest\n
218.336	0.135	436672	keystroke	i	n/a
218.576	0.075	437152	keystroke	n	n/a
218.741	0.06	437482	keystroke	c	n/a
218.966	0.09	437932	keystroke	r	n/a
219.026	0.09	438052	keystroke	e	n/a
219.2505	0.105	438501	keystroke	d	n/a
219.4155	0.075	438831	keystroke	i	n/a
219.5655	0.06	439131	keystroke	b	n/a
219.6855	0.09	439371	keystroke	l	n/a
219.7905	0.075	439581	keystroke	e	n/a
219.8955	0.075	439791	keystroke	Key.space	n/a
220.1055	0.09	440211	keystroke	r	n/a
220.2255	0.0605	440451	keystroke	u	n/a
220.3155	0.09	440631	keystroke	s	n/a
220.466	0.09	440932	keystroke	s	n/a
220.646	0.075	441292	keystroke	i	n/a
220.751	0.105	441502	keystroke	a	n/a
220.871	0.075	441742	keystroke	Key.space	n/a
221.1555	0.045	442311	keystroke	c	n/a
221.2305	0.105	442461	keystroke	o	n/a
221.3055	0.09	442611	keystroke	n	n/a
221.4705	0.075	442941	keystroke	d	n/a
221.5905	0.06	443181	keystroke	u	n/a
221.8305	0.076	443661	keystroke	c	n/a
222.0865	0.045	444173	keystroke	t	n/a
222.2365	0.06	444473	keystroke	Key.space	n/a
222.641	0.0755	445282	keystroke	b	n/a
222.7615	0.075	445523	keystroke	i	n/a
222.8815	0.0745	445763	keystroke	g	n/a
223.001	0.135	446002	keystroke	g	n/a
223.181	0.06	446362	keystroke	e	n/a
223.256	0.18	446512	keystroke	s	n/a
223.391	0.09	446782	keystroke	t	n/a
223.661	0.0445	447322	keystroke	Key.enter	n/a
223.7105	6.1615	447421	prompt	n/a	slide thin optional cluster\n
224.576	0.105	449152	keystroke	s	n/a
224.891	0.1345	449782	keystroke	l	n/a
224.9805	0.105	449961	keystroke	i	n/a
225.2055	0.09	450411	keystroke	k	n/a
225.4755	0.045	450951	keystroke	e	n/a
225.7155	0.045	451431	keystroke	Key.backspace	n/a
225.8505	0.045	451701	keystroke	Key.backspace	n/a
225.9405	0.06	451881	keystroke	d	n/a
226.0605	0.075	452121	keystroke	e	n/a
226.1505	0.075	452301	keystroke	Key.space	n/a
226.2555	0.09	452511	keystroke	t	n/a
226.3305	0.09	452661	keystroke	h	n/a
226.3755	0.136	452751	keystroke	i	n/a
226.4815	0.119	452963	keystroke	n	n/a
226.5855	0.105	453171	keystroke	Key.space	n/a
226.7805	0.105	453561	keystroke	o	n/a
226.9755	0.075	453951	keystroke	p	n/a
227.1255	0.075	454251	keystroke	t	n/a
227.1855	0.105	454371	keystroke	i	n/a
227.2455	0.105	454491	keystroke	o	n/a
227.3055	0.105	454611	keystroke	n	n/a
227.5755	0.075	455151	keystroke	s	n/a
227.7105	0.1205	455421	keystroke	a	n/a
228.085	0.046	456170	keystroke	Key.backspace	n/a
228.191	0.075	456382	keystroke	Key.backspace	n/a
228.356	0.075	456712	keystroke	a	n/a
228.491	0.075	456982	keystroke	l	n/a
228.536	0.105	457072	keystroke	Key.space	n/a
228.941	0.105	457882	keystroke	c	n/a
229.076	0.1345	458152	keystroke	l	n/a
229.1805	0.09	458361	keystroke	u	n/a
229.3305	0.151	458661	keystroke	s	n/a
229.4955	0.105	458991	keystroke	t	n/a
229.5855	0.12	459171	keystroke	e	n/a
229.6755	0.075	459351	keystroke	r	n/a
229.7955	0.075	459591	keystroke	Key.enter	n/a
229.8755	6.057	459751	prompt	n/a	matrix lines bangladesh hasn't\n
230.5005	0.09	461001	keystroke	m	n/a
230.6055	0.09	461211	keystroke	a	n/a
230.9655	0.09	461931	keystroke	t	n/a
231.1905	0.075	462381	keystroke	r	n/a
231.3405	0.06	462681	keystroke	i	n/a
231.4905	0.075	462981	keystroke	x	n/a
231.6105	0.075	463221	keystroke	Key.space	n/a
232.061	0.09	464122	keystroke	l	n/a
232.136	0.12	464272	keystroke	i	n/a
232.226	0.105	464452	keystroke	n	n/a
232.331	0.105	464662	keystroke	e	n/a
232.436	0.1195	464872	keystroke	s	n/a
232.5705	0.075	465141	keystroke	Key.space	n/a
232.7805	0.0905	465561	keystroke	b	n/a
233.036	0.105	466072	keystroke	a	n/a
233.186	0.0595	466372	keystroke	n	n/a
233.3805	0.075	466761	keystroke	g	n/a
233.5605	0.09	467121	keystroke	l	n/a
233.6805	0.105	467361	keystroke	a	n/a
233.9205	0.075	467841	keystroke	d	n/a
234.0555	0.105	468111	keystroke	e	n/a
234.2205	0.135	468441	keystroke	s	n/a
234.3705	0.105	468741	keystroke	h	n/a
234.4605	0.09	468921	keystroke	Key.space	n/a
234.7005	0.06	469401	keystroke	h	n/a
234.7755	0.105	469551	keystroke	a	n/a
234.9555	0.105	469911	keystroke	s	n/a
235.1355	0.06	470271	keystroke	n	n/a
235.3305	0.06	470661	keystroke	'	n/a
235.4505	0.045	470901	keystroke	t	n/a
235.8705	0.06	471741	keystroke	Key.enter	n/a
235.9375	5.11	471875	prompt	n/a	against work magical monetary\n
236.6205	0.09	473241	keystroke	a	n/a
236.786	0.075	473572	keystroke	g	n/a
236.876	0.135	473752	keystroke	a	n/a
237.026	0.105	474052	keystroke	i	n/a
237.086	0.09	474172	keystroke	n	n/a
237.236	0.09	474472	keystroke	s	n/a
237.446	0.06	474892	keystroke	t	n/a
237.536	0.105	475072	keystroke	Key.space	n/a
237.7455	0.1055	475491	keystroke	w	n/a
237.866	0.06	475732	keystroke	o	n/a
237.926	0.075	475852	keystroke	r	n/a
238.046	0.105	476092	keystroke	k	n/a
238.166	0.06	476332	keystroke	Key.space	n/a
238.271	0.09	476542	keystroke	m	n/a
238.376	0.15	476752	keystroke	a	n/a
238.7655	0.06	477531	keystroke	g	n/a
238.8855	0.09	477771	keystroke	i	n/a
239.1105	0.075	478221	keystroke	c	n/a
239.2905	0.12	478581	keystroke	a	n/a
239.3955	0.09	478791	keystroke	l	n/a
239.4405	0.105	478881	keystroke	Key.space	n/a
239.6205	0.09	479241	keystroke	m	n/a
239.6955	0.135	479391	keystroke	o	n/a
239.8155	0.0755	479631	keystroke	n	n/a
239.921	0.06	479842	keystroke	e	n/a
240.191	0.06	480382	keystroke	t	n/a
240.401	0.09	480802	keystroke	a	n/a
240.611	0.06	481222	keystroke	r	n/a
240.731	0.09	481462	keystroke	y	n/a
240.956	0.09	481912	keystroke	Key.enter	n/a
241.0515	5.156	482103	prompt	n/a	matter rack musical exemption\n
241.661	0.075	483322	keystroke	m	n/a
241.751	0.1345	483502	keystroke	a	n/a
241.8705	0.06	483741	keystroke	t	n/a
241.9905	0.105	483981	keystroke	t	n/a
242.1265	0.089	484253	keystroke	e	n/a
242.2005	0.091	484401	keystroke	r	n/a
242.2755	0.105	484551	keystroke	Key.space	n/a
242.4255	0.105	484851	keystroke	r	n/a
242.5615	0.105	485123	keystroke	a	n/a
242.7565	0.089	485513	keystroke	c	n/a
243.0105	0.09	486021	keystroke	k	n/a
243.1155	0.0605	486231	keystroke	Key.space	n/a
243.266	0.075	486532	keystroke	m	n/a
243.446	0.06	486892	keystroke	u	n/a
243.521	0.12	487042	keystroke	s	n/a
243.761	0.06	487522	keystroke	i	n/a
244.061	0.09	488122	keystroke	c	n/a
244.181	0.12	488362	keystroke	a	n/a
244.316	0.09	488632	keystroke	l	n/a
244.391	0.105	488782	keystroke	Key.space	n/a
244.751	0.06	489502	keystroke	e	n/a
244.931	0.105	489862	keystroke	x	n/a
245.156	0.06	490312	keystroke	e	n/a
245.351	0.075	490702	keystroke	m	n/a
245.516	0.09	491032	keystroke	p	n/a
245.636	0.075	491272	keystroke	t	n/a
245.741	0.12	491482	keystroke	i	n/a
245.816	0.1195	491632	keystroke	o	n/a
245.9055	0.09	491811	keystroke	n	n/a
246.1155	0.09	492231	keystroke	Key.enter	n/a
246.2105	6.4315	492421	prompt	n/a	replication struct competing loads\n
246.9705	0.211	493941	keystroke	r	n/a
247.2255	0.105	494451	keystroke	e	n/a
247.436	0.135	494872	keystroke	p	n/a
247.7055	0.135	495411	keystroke	l	n/a
247.7955	0.0755	495591	keystroke	i	n/a
247.901	0.06	495802	keystroke	c	n/a
248.096	0.09	496192	keystroke	a	n/a
248.171	0.119	496342	keystroke	t	n/a
248.3365	0.1195	496673	keystroke	i	n/a
248.4105	0.1355	496821	keystroke	o	n/a
248.471	0.12	496942	keystroke	n	n/a
248.606	0.105	497212	keystroke	Key.space	n/a
249.2515	0.1345	498503	keystroke	s	n/a
249.401	0.06	498802	keystroke	t	n/a
249.536	0.09	499072	keystroke	r	n/a
249.671	0.09	499342	keystroke	u	n/a
249.851	0.09	499702	keystroke	c	n/a
250.046	0.075	500092	keystroke	t	n/a
250.136	0.075	500272	keystroke	Key.space	n/a
250.406	0.075	500812	keystroke	c	n/a
250.481	0.135	500962	keystroke	o	n/a
250.571	0.105	501142	keystroke	m	n/a
250.721	0.15	501442	keystroke	p	n/a
250.916	0.0745	501832	keystroke	e	n/a
251.1405	0.06	502281	keystroke	t	n/a
251.2755	0.09	502551	keystroke	i	n/a
251.3205	0.105	502641	keystroke	n	n/a
251.4405	0.045	502881	keystroke	g	n/a
251.5305	0.09	503061	keystroke	Key.space	n/a
251.8605	0.06	503721	keystroke	l	n/a
252.0555	0.075	504111	keystroke	o	n/a
252.1605	0.105	504321	keystroke	a	n/a
252.2955	0.0755	504591	keystroke	d	n/a
252.461	0.0745	504922	keystroke	s	n/a
252.5655	0.075	505131	keystroke	Key.enter	n/a
252.6455	5.4125	505291	prompt	n/a	about texture latina latex\n
253.2415	0.089	506483	keystroke	a	n/a
253.4065	0.06	506813	keystroke	b	n/a
253.5115	0.075	507023	keystroke	o	n/a
253.5555	0.09	507111	keystroke	u	n/a
253.6305	0.075	507261	keystroke	t	n/a
253.7505	0.09	507501	keystroke	Key.space	n/a
253.9605	0.105	507921	keystroke	t	n/a
254.1415	0.089	508283	keystroke	e	n/a
254.3515	0.119	508703	keystroke	x	n/a
254.561	0.075	509122	keystroke	t	n/a
254.711	0.09	509422	keystroke	u	n/a
254.801	0.12	509602	keystroke	r	n/a
254.876	0.12	509752	keystroke	e	n/a
255.01	0.091	510020	keystroke	Key.space	n/a
255.281	0.105	510562	keystroke	a	n/a
255.7	0.031	511400	keystroke	Key.backspace	n/a
255.926	0.09	511852	keystroke	l	n/a
256.031	0.0605	512062	keystroke	a	n/a
256.211	0.0595	512422	keystroke	t	n/a
256.331	0.1045	512662	keystroke	i	n/a
256.406	0.135	512812	keystroke	n	n/a
256.661	0.105	513322	keystroke	a	n/a
256.751	0.105	513502	keystroke	Key.space	n/a
256.976	0.09	513952	keystroke	l	n/a
257.051	0.09	514102	keystroke	a	n/a
257.516	0.12	515032	keystroke	t	n/a
257.591	0.105	515182	keystroke	e	n/a
257.8155	0.0755	515631	keystroke	x	n/a
257.966	0.09	515932	keystroke	Key.enter	n/a
258.0615	4.901	516123	prompt	n/a	opinions helpful brain fellow\n
258.626	0.12	517252	keystroke	o	n/a
258.776	0.105	517552	keystroke	p	n/a
258.986	0.12	517972	keystroke	i	n/a
259.121	0.105	518242	keystroke	n	n/a
259.256	0.105	518512	keystroke	i	n/a
259.346	0.135	518692	keystroke	o	n/a
259.436	0.105	518872	keystroke	n	n/a
259.571	0.0895	519142	keystroke	s	n/a
259.6755	0.09	519351	keystroke	Key.space	n/a
259.9155	0.075	519831	keystroke	h	n/a
260.0205	0.09	520041	keystroke	e	n/a
260.1405	0.105	520281	keystroke	l	n/a
260.3055	0.09	520611	keystroke	p	n/a
260.5005	0.06	521001	keystroke	f	n/a
260.5905	0.06	521181	keystroke	u	n/a
260.6955	0.135	521391	keystroke	l	n/a
260.8005	0.09	521601	keystroke	Key.space	n/a
261.0555	0.045	522111	keystroke	b	n/a
261.2355	0.075	522471	keystroke	r	n/a
261.4305	0.09	522861	keystroke	a	n/a
261.5505	0.12	523101	keystroke	i	n/a
261.6405	0.09	523281	keystroke	n	n/a
261.7755	0.075	523551	keystroke	Key.space	n/a
262.1655	0.105	524331	keystroke	f	n/a
262.2555	0.09	524511	keystroke	e	n/a
262.3755	0.0755	524751	keystroke	l	n/a
262.511	0.06	525022	keystroke	l	n/a
262.661	0.075	525322	keystroke	o	n/a
262.751	0.09	525502	keystroke	w	n/a
262.886	0.075	525772	keystroke	Key.enter	n/a
262.966	7.2265	525932	prompt	n/a	reduces qualify following sophisticated\n
263.576	0.135	527152	keystroke	r	n/a
263.831	0.0595	527662	keystroke	e	n/a
264.0105	0.075	528021	keystroke	d	n/a
264.1605	0.0605	528321	keystroke	u	n/a
264.251	0.045	528502	keystroke	c	n/a
264.431	0.105	528862	keystroke	e	n/a
264.521	0.12	529042	keystroke	s	n/a
264.655	0.076	529310	keystroke	Key.space	n/a
265.0755	0.075	530151	keystroke	q	n/a
265.2705	0.06	530541	keystroke	u	n/a
265.4205	0.135	530841	keystroke	a	n/a
265.5405	0.121	531081	keystroke	l	n/a
265.6315	0.105	531263	keystroke	i	n/a
265.7655	0.076	531531	keystroke	f	n/a
265.9015	0.104	531803	keystroke	y	n/a
266.0205	0.045	532041	keystroke	Key.space	n/a
266.2615	0.0745	532523	keystroke	f	n/a
266.441	0.1045	532882	keystroke	o	n/a
266.6205	0.105	533241	keystroke	l	n/a
266.7555	0.09	533511	keystroke	l	n/a
266.9205	0.105	533841	keystroke	o	n/a
267.0405	0.0755	534081	keystroke	w	n/a
267.101	0.12	534202	keystroke	i	n/a
267.191	0.12	534382	keystroke	n	n/a
267.2955	0.0755	534591	keystroke	g	n/a
267.386	0.075	534772	keystroke	Key.space	n/a
267.536	0.09	535072	keystroke	s	n/a
267.656	0.12	535312	keystroke	o	n/a
267.8955	0.09	535791	keystroke	p	n/a
268.0155	0.105	536031	keystroke	h	n/a
268.1355	0.09	536271	keystroke	i	n/a
268.4055	0.091	536811	keystroke	s	n/a
268.6305	0.09	537261	keystroke	t	n/a
268.7655	0.075	537531	keystroke	i	n/a
268.9155	0.09	537831	keystroke	c	n/a
269.0355	0.15	538071	keystroke	a	n/a
269.2455	0.075	538491	keystroke	t	n/a
269.2905	0.105	538581	keystroke	e	n/a
269.4255	0.075	538851	keystroke	s	n/a
269.8005	0.0455	539601	keystroke	Key.backspace	n/a
270.011	0.014	540022	keystroke	d	n/a
270.131	0.06	540262	keystroke	Key.enter	n/a
270.1965	6.866	540393	prompt	n/a	focused stunning feeling asian\n
271.3155	0.06	542631	keystroke	f	n/a
271.4815	0.074	542963	keystroke	o	n/a
271.6605	0.075	543321	keystroke	c	n/a
271.7505	0.075	543501	keystroke	u	n/a
272.1255	0.135	544251	keystroke	s	n/a
272.2455	0.09	544491	keystroke	e	n/a
272.4115	0.09	544823	keystroke	d	n/a
272.4855	0.076	544971	keystroke	Key.space	n/a
272.6665	0.12	545333	keystroke	s	n/a
272.8005	0.091	545601	keystroke	t	n/a
272.9065	0.075	545813	keystroke	u	n/a
273.0255	0.061	546051	keystroke	f	n/a
273.1755	0.075	546351	keystroke	f	n/a
273.6555	0.06	547311	keystroke	Key.backspace	n/a
273.8055	0.045	547611	keystroke	Key.backspace	n/a
274.166	0.045	548332	keystroke	n	n/a
274.2855	0.075	548571	keystroke	n	n/a
274.4055	0.09	548811	keystroke	i	n/a
274.4655	0.09	548931	keystroke	n	n/a
274.5565	0.059	549113	keystroke	g	n/a
274.6305	0.09	549261	keystroke	Key.space	n/a
274.7955	0.1055	549591	keystroke	f	n/a
274.886	0.09	549772	keystroke	e	n/a
275.051	0.105	550102	keystroke	e	n/a
275.171	0.12	550342	keystroke	l	n/a
275.246	0.135	550492	keystroke	i	n/a
275.321	0.135	550642	keystroke	n	n/a
275.396	0.0745	550792	keystroke	g	n/a
275.501	0.09	551002	keystroke	Key.space	n/a
275.6805	0.12	551361	keystroke	a	n/a
275.7855	0.1205	551571	keystroke	s	n/a
275.9355	0.135	551871	keystroke	a	n/a
276.356	0.06	552712	keystroke	Key.backspace	n/a
276.596	0.075	553192	keystroke	i	n/a
276.686	0.105	553372	keystroke	a	n/a
276.821	0.045	553642	keystroke	n	n/a
277.001	0.06	554002	keystroke	Key.enter	n/a
277.0665	6.5365	554133	prompt	n/a	holocaust myspace incoming invitations\n
277.706	0.12	555412	keystroke	h	n/a
277.781	0.105	555562	keystroke	o	n/a
277.9605	0.091	555921	keystroke	l	n/a
278.1115	0.089	556223	keystroke	o	n/a
278.2465	0.09	556493	keystroke	c	n/a
278.3665	0.149	556733	keystroke	a	n/a
278.5305	0.06	557061	keystroke	u	n/a
278.6655	0.135	557331	keystroke	s	n/a
278.8155	0.075	557631	keystroke	t	n/a
278.9205	0.09	557841	keystroke	Key.space	n/a
279.1155	0.06	558231	keystroke	m	n/a
279.2965	0.059	558593	keystroke	y	n/a
279.4005	0.105	558801	keystroke	s	n/a
279.6105	0.075	559221	keystroke	p	n/a
279.7305	0.09	559461	keystroke	a	n/a
279.8955	0.06	559791	keystroke	c	n/a
280.0755	0.075	560151	keystroke	e	n/a
280.1655	0.135	560331	keystroke	Key.space	n/a
280.2855	0.105	560571	keystroke	i	n/a
280.3455	0.105	560691	keystroke	n	n/a
280.5115	0.089	561023	keystroke	c	n/a
280.6015	0.105	561203	keystroke	o	n/a
280.6905	0.09	561381	keystroke	m	n/a
280.8715	0.074	561743	keystroke	i	n/a
280.9155	0.105	561831	keystroke	n	n/a
281.0355	0.075	562071	keystroke	g	n/a
281.2755	0.09	562551	keystroke	Key.space	n/a
281.4255	0.12	562851	keystroke	i	n/a
281.5155	0.09	563031	keystroke	n	n/a
281.7855	0.09	563571	keystroke	v	n/a
281.8605	0.075	563721	keystroke	i	n/a
282.0705	0.075	564141	keystroke	t	n/a
282.2055	0.03	564411	keystroke	i	n/a
282.536	0.06	565072	keystroke	Key.backspace	n/a
282.716	0.105	565432	keystroke	a	n/a
282.776	0.105	565552	keystroke	t	n/a
283.136	0.12	566272	keystroke	i	n/a
283.166	0.12	566332	keystroke	o	n/a
283.271	0.075	566542	keystroke	n	n/a
283.376	0.075	566752	keystroke	s	n/a
283.526	0.075	567052	keystroke	Key.enter	n/a
283.61	5.048	567220	prompt	n/a	owns reviews readers grows\n
284.1715	0.09	568343	keystroke	o	n/a
284.2765	0.09	568553	keystroke	w	n/a
284.3815	0.074	568763	keystroke	n	n/a
284.4855	0.09	568971	keystroke	s	n/a
284.6055	0.075	569211	keystroke	Key.space	n/a
284.8905	0.105	569781	keystroke	r	n/a
285.0555	0.076	570111	keystroke	e	n/a
285.2505	0.075	570501	keystroke	v	n/a
285.3855	0.12	570771	keystroke	i	n/a
285.5655	0.06	571131	keystroke	e	n/a
285.5955	0.1355	571191	keystroke	w	n/a
285.851	0.075	571702	keystroke	s	n/a
285.971	0.075	571942	keystroke	Key.space	n/a
286.5855	0.121	573171	keystroke	r	n/a
286.6315	0.135	573263	keystroke	e	n/a
286.8265	0.1195	573653	keystroke	a	n/a
286.961	0.12	573922	keystroke	d	n/a
287.216	0.09	574432	keystroke	e	n/a
287.276	0.105	574552	keystroke	r	n/a
287.396	0.105	574792	keystroke	s	n/a
287.531	0.075	575062	keystroke	Key.space	n/a
287.7405	0.075	575481	keystroke	g	n/a
287.9205	0.075	575841	keystroke	r	n/a
288.0415	0.104	576083	keystroke	o	n/a
288.1305	0.06	576261	keystroke	w	n/a
288.3855	0.09	576771	keystroke	s	n/a
288.536	0.12	577072	keystroke	Key.enter	n/a
288.662	5.9505	577324	prompt	n/a	camps traditions patch cisco\n
289.3615	0.105	578723	keystroke	c	n/a
289.4815	0.12	578963	keystroke	a	n/a
289.5715	0.089	579143	keystroke	m	n/a
289.7215	0.089	579443	keystroke	p	n/a
289.8405	0.075	579681	keystroke	s	n/a
289.9905	0.09	579981	keystroke	Key.space	n/a
290.471	0.075	580942	keystroke	t	n/a
290.636	0.09	581272	keystroke	r	n/a
290.741	0.09	581482	keystroke	a	n/a
291.086	0.075	582172	keystroke	d	n/a
291.206	0.06	582412	keystroke	i	n/a
291.3865	0.0745	582773	keystroke	t	n/a
291.4765	0.135	582953	keystroke	i	n/a
291.5665	0.1195	583133	keystroke	o	n/a
291.656	0.105	583312	keystroke	n	n/a
291.791	0.075	583582	keystroke	s	n/a
291.971	0.09	583942	keystroke	Key.space	n/a
292.151	0.075	584302	keystroke	p	n/a
292.2715	0.105	584543	keystroke	a	n/a
292.4365	0.0745	584873	keystroke	t	n/a
292.6465	0.0895	585293	keystroke	c	n/a
292.781	0.105	585562	keystroke	h	n/a
292.856	0.105	585712	keystroke	Key.space	n/a
293.186	0.075	586372	keystroke	c	n/a
293.291	0.0755	586582	keystroke	i	n/a
293.411	0.045	586822	keystroke	c	n/a
293.7715	0.0595	587543	keystroke	Key.backspace	n/a
293.876	0.0905	587752	keystroke	s	n/a
294.146	0.09	588292	keystroke	c	n/a
294.311	0.075	588622	keystroke	o	n/a
294.5655	0.045	589131	keystroke	Key.enter	n/a
294.6155	7.977	589231	prompt	n/a	severe begun cord weapon\n
295.286	0.045	590572	keystroke	w	n/a
295.631	0.06	591262	keystroke	Key.backspace	n/a
295.766	0.075	591532	keystroke	s	n/a
296.006	0.0745	592012	keystroke	e	n/a
296.306	0.12	592612	keystroke	v	n/a
296.441	0.165	592882	keystroke	e	n/a
296.561	0.09	593122	keystroke	r	n/a
296.801	0.12	593602	keystroke	e	n/a
297.011	0.075	594022	keystroke	Key.space	n/a
297.176	0.06	594352	keystroke	b	n/a
297.326	0.045	594652	keystroke	e	n/a
297.536	0.09	595072	keystroke	g	n/a
297.686	0.06	595372	keystroke	y	n/a
297.881	0.075	595762	keystroke	b	n/a
298.016	0.105	596032	keystroke	Key.space	n/a
298.5715	0.059	597143	keystroke	Key.backspace	n/a
298.706	0.06	597412	keystroke	Key.backspace	n/a
298.841	0.06	597682	keystroke	Key.backspace	n/a
299.051	0.06	598102	keystroke	u	n/a
299.216	0.09	598432	keystroke	n	n/a
299.321	0.09	598642	keystroke	Key.space	n/a
299.6365	0.0595	599273	keystroke	c	n/a
299.741	0.1055	599482	keystroke	o	n/a
299.891	0.075	599782	keystroke	r	n/a
300.0705	0.091	600141	keystroke	d	n/a
300.1755	0.076	600351	keystroke	Key.space	n/a
300.3415	0.09	600683	keystroke	w	n/a
300.3865	0.1345	600773	keystroke	e	n/a
300.551	0.105	601102	keystroke	a	n/a
300.701	0.105	601402	keystroke	p	n/a
300.896	0.105	601792	keystroke	o	n/a
301.031	0.015	602062	keystroke	b	n/a
301.032	0.044	602064	keystroke	n	n/a
301.7665	0.03	603533	keystroke	Key.backspace	n/a
301.8705	0.075	603741	keystroke	Key.backspace	n/a
302.2905	0.045	604581	keystroke	n	n/a
302.531	0.06	605062	keystroke	Key.enter	n/a
302.5955	8.007	605191	prompt	n/a	combines environment origins wisconsin\n
303.1915	0.075	606383	keystroke	w	n/a
303.2365	0.045	606473	keystroke	e	n/a
303.5665	0.06	607133	keystroke	Key.backspace	n/a
303.7165	0.06	607433	keystroke	Key.backspace	n/a
303.8065	0.0895	607613	keystroke	c	n/a
303.956	0.105	607912	keystroke	o	n/a
304.001	0.1045	608002	keystroke	m	n/a
304.2865	0.06	608573	keystroke	b	n/a
304.3915	0.119	608783	keystroke	i	n/a
304.4815	0.12	608963	keystroke	n	n/a
304.6755	0.136	609351	keystroke	e	n/a
304.7955	0.06	609591	keystroke	s	n/a
304.9305	0.105	609861	keystroke	Key.space	n/a
305.0805	0.135	610161	keystroke	e	n/a
305.8315	0.09	611663	keystroke	n	n/a
306.071	0.045	612142	keystroke	v	n/a
306.431	0.075	612862	keystroke	i	n/a
306.551	0.075	613102	keystroke	r	n/a
306.746	0.1195	613492	keystroke	o	n/a
306.8815	0.074	613763	keystroke	n	n/a
307.1055	0.06	614211	keystroke	m	n/a
307.2705	0.09	614541	keystroke	e	n/a
307.4055	0.075	614811	keystroke	n	n/a
307.5255	0.06	615051	keystroke	t	n/a
307.6155	0.105	615231	keystroke	Key.space	n/a
307.8105	0.1055	615621	keystroke	o	n/a
308.021	0.06	616042	keystroke	r	n/a
308.141	0.06	616282	keystroke	i	n/a
308.2615	0.09	616523	keystroke	g	n/a
308.4115	0.09	616823	keystroke	i	n/a
308.5165	0.09	617033	keystroke	n	n/a
308.6365	0.105	617273	keystroke	s	n/a
308.7565	0.09	617513	keystroke	Key.space	n/a
309.1015	0.09	618203	keystroke	w	n/a
309.3415	0.06	618683	keystroke	i	n/a
309.4465	0.1195	618893	keystroke	s	n/a
309.746	0.09	619492	keystroke	c	n/a
309.851	0.09	619702	keystroke	o	n/a
309.896	0.09	619792	keystroke	n	n/a
310.091	0.075	620182	keystroke	s	n/a
310.181	0.075	620362	keystroke	i	n/a
310.271	0.105	620542	keystroke	n	n/a
310.5105	0.09	621021	keystroke	Key.enter	n/a
310.606	6.7315	621212	prompt	n/a	approve telecom subjective variation\n
311.381	0.105	622762	keystroke	a	n/a
311.531	0.075	623062	keystroke	p	n/a
311.651	0.12	623302	keystroke	p	n/a
311.786	0.09	623572	keystroke	r	n/a
311.861	0.09	623722	keystroke	o	n/a
312.026	0.105	624052	keystroke	v	n/a
312.101	0.12	624202	keystroke	e	n/a
312.206	0.09	624412	keystroke	Key.space	n/a
312.356	0.015	624712	keystroke	e	n/a
312.626	0.06	625252	keystroke	Key.backspace	n/a
312.731	0.105	625462	keystroke	t	n/a
312.791	0.105	625582	keystroke	e	n/a
312.926	0.09	625852	keystroke	l	n/a
313.046	0.075	626092	keystroke	e	n/a
313.301	0.105	626602	keystroke	c	n/a
313.391	0.105	626782	keystroke	o	n/a
313.451	0.105	626902	keystroke	m	n/a
313.661	0.09	627322	keystroke	Key.space	n/a
314.261	0.105	628522	keystroke	s	n/a
314.411	0.06	628822	keystroke	u	n/a
314.5155	0.075	629031	keystroke	b	n/a
314.7405	0.06	629481	keystroke	j	n/a
314.8305	0.09	629661	keystroke	e	n/a
315.041	0.09	630082	keystroke	c	n/a
315.221	0.075	630442	keystroke	t	n/a
315.326	0.09	630652	keystroke	i	n/a
315.491	0.105	630982	keystroke	v	n/a
315.566	0.105	631132	keystroke	e	n/a
315.701	0.105	631402	keystroke	Key.space	n/a
316.091	0.105	632182	keystroke	v	n/a
316.211	0.195	632422	keystroke	a	n/a
316.346	0.075	632692	keystroke	r	n/a
316.4965	0.089	632993	keystroke	i	n/a
316.6315	0.135	633263	keystroke	a	n/a
316.7515	0.06	633503	keystroke	t	n/a
316.8415	0.12	633683	keystroke	i	n/a
316.9315	0.135	633863	keystroke	o	n/a
317.0215	0.105	634043	keystroke	n	n/a
317.2615	0.075	634523	keystroke	Key.enter	n/a
317.3405	6.687	634681	prompt	n/a	levy wisdom social adelaide\n
317.966	0.09	635932	keystroke	l	n/a
318.011	0.09	636022	keystroke	e	n/a
318.206	0.09	636412	keystroke	v	n/a
318.311	0.06	636622	keystroke	y	n/a
318.401	0.075	636802	keystroke	Key.space	n/a
318.686	0.12	637372	keystroke	w	n/a
318.746	0.045	637492	keystroke	e	n/a
319.046	0.03	638092	keystroke	\	n/a
319.061	0.03	638122	keystroke	Key.backspace	n/a
319.256	0.045	638512	keystroke	i	n/a
319.511	0.045	639022	keystroke	Key.backspace	n/a
319.631	0.045	639262	keystroke	Key.backspace	n/a
319.841	0.045	639682	keystroke	i	n/a
319.931	0.075	639862	keystroke	s	n/a
320.111	0.045	640222	keystroke	t	n/a
320.366	0.045	640732	keystroke	Key.backspace	n/a
320.486	0.075	640972	keystroke	d	n/a
320.636	0.06	641272	keystroke	o	n/a
320.846	0.075	641692	keystroke	m	n/a
320.981	0.075	641962	keystroke	Key.space	n/a
321.491	0.09	642982	keystroke	s	n/a
321.596	0.0905	643192	keystroke	o	n/a
321.7315	0.105	643463	keystroke	c	n/a
321.8515	0.105	643703	keystroke	i	n/a
322.0165	0.09	644033	keystroke	a	n/a
322.1515	0.12	644303	keystroke	l	n/a
322.2865	0.075	644573	keystroke	Key.space	n/a
322.691	0.12	645382	keystroke	a	n/a
322.901	0.075	645802	keystroke	d	n/a
323.0505	0.075	646101	keystroke	e	n/a
323.1855	0.121	646371	keystroke	l	n/a
323.3515	0.105	646703	keystroke	a	n/a
323.4715	0.075	646943	keystroke	i	n/a
323.6665	0.075	647333	keystroke	d	n/a
323.8015	0.06	647603	keystroke	e	n/a
323.9365	0.09	647873	keystroke	Key.enter	n/a
324.0325	5.3955	648065	prompt	n/a	smooth perl gasoline ferry\n
324.5815	0.105	649163	keystroke	s	n/a
324.7165	0.075	649433	keystroke	m	n/a
324.9265	0.06	649853	keystroke	o	n/a
325.0615	0.075	650123	keystroke	o	n/a
325.2115	0.075	650423	keystroke	t	n/a
325.3015	0.075	650603	keystroke	h	n/a
325.3915	0.06	650783	keystroke	Key.space	n/a
325.5865	0.075	651173	keystroke	p	n/a
325.7215	0.135	651443	keystroke	e	n/a
325.8265	0.09	651653	keystroke	r	n/a
325.976	0.12	651952	keystroke	l	n/a
326.081	0.075	652162	keystroke	Key.space	n/a
326.5465	0.075	653093	keystroke	g	n/a
326.6815	0.12	653363	keystroke	a	n/a
327.1615	0.045	654323	keystroke	x	n/a
327.536	0.075	655072	keystroke	Key.backspace	n/a
327.656	0.06	655312	keystroke	s	n/a
327.791	0.075	655582	keystroke	o	n/a
327.941	0.075	655882	keystroke	l	n/a
328.031	0.105	656062	keystroke	i	n/a
328.212	0.089	656424	keystroke	n	n/a
328.316	0.09	656632	keystroke	e	n/a
328.421	0.075	656842	keystroke	Key.space	n/a
328.556	0.09	657112	keystroke	f	n/a
328.766	0.12	657532	keystroke	e	n/a
328.901	0.06	657802	keystroke	r	n/a
329.021	0.0755	658042	keystroke	r	n/a
329.1555	0.076	658311	keystroke	y	n/a
329.3505	0.0755	658701	keystroke	Key.enter	n/a
329.4305	6.027	658861	prompt	n/a	linda scope authority performing\n
330.071	0.09	660142	keystroke	l	n/a
330.146	0.09	660292	keystroke	i	n/a
330.266	0.09	660532	keystroke	n	n/a
330.461	0.105	660922	keystroke	d	n/a
330.551	0.12	661102	keystroke	a	n/a
330.686	0.075	661372	keystroke	Key.space	n/a
330.821	0.075	661642	keystroke	s	n/a
331.031	0.075	662062	keystroke	c	n/a
331.151	0.09	662302	keystroke	o	n/a
331.286	0.105	662572	keystroke	p	n/a
331.436	0.06	662872	keystroke	e	n/a
331.586	0.075	663172	keystroke	Key.space	n/a
331.781	0.03	663562	keystroke	s	n/a
332.171	0.045	664342	keystroke	Key.backspace	n/a
332.336	0.09	664672	keystroke	a	n/a
332.486	0.0605	664972	keystroke	u	n/a
332.7115	0.0595	665423	keystroke	t	n/a
332.906	0.09	665812	keystroke	h	n/a
333.041	0.1055	666082	keystroke	o	n/a
333.2065	0.075	666413	keystroke	r	n/a
333.3265	0.06	666653	keystroke	i	n/a
333.4915	0.075	666983	keystroke	t	n/a
333.6715	0.105	667343	keystroke	y	n/a
333.7615	0.105	667523	keystroke	Key.space	n/a
334.016	0.0905	668032	keystroke	p	n/a
334.1365	0.135	668273	keystroke	e	n/a
334.2565	0.09	668513	keystroke	r	n/a
334.4665	0.0745	668933	keystroke	f	n/a
334.571	0.105	669142	keystroke	o	n/a
334.721	0.09	669442	keystroke	r	n/a
334.856	0.09	669712	keystroke	m	n/a
335.021	0.12	670042	keystroke	i	n/a
335.096	0.135	670192	keystroke	n	n/a
335.261	0.045	670522	keystroke	g	n/a
335.381	0.075	670762	keystroke	Key.enter	n/a
335.4625	7.27	670925	prompt	n/a	inch moment coding qualified\n
336.041	0.09	672082	keystroke	i	n/a
336.161	0.105	672322	keystroke	n	n/a
336.326	0.09	672652	keystroke	c	n/a
336.461	0.0905	672922	keystroke	h	n/a
336.5365	0.105	673073	keystroke	Key.space	n/a
336.716	0.0605	673432	keystroke	m	n/a
336.7905	0.106	673581	keystroke	o	n/a
336.9265	0.105	673853	keystroke	m	n/a
337.0905	0.06	674181	keystroke	e	n/a
337.1965	0.075	674393	keystroke	n	n/a
337.3305	0.06	674661	keystroke	t	n/a
337.4055	0.09	674811	keystroke	Key.space	n/a
337.5865	0.104	675173	keystroke	c	n/a
337.6615	0.105	675323	keystroke	o	n/a
337.8105	0.091	675621	keystroke	d	n/a
337.9315	0.135	675863	keystroke	i	n/a
338.0365	0.105	676073	keystroke	n	n/a
338.201	0.06	676402	keystroke	g	n/a
338.276	0.06	676552	keystroke	Key.space	n/a
338.6365	0.03	677273	keystroke	1	n/a
338.726	0.09	677452	keystroke	u	n/a
338.921	0.12	677842	keystroke	a	n/a
339.2815	0.0445	678563	keystroke	Key.backspace	n/a
339.416	0.045	678832	keystroke	Key.backspace	n/a
339.536	0.0905	679072	keystroke	Key.backspace	n/a
339.6715	0.09	679343	keystroke	q	n/a
339.8215	0.06	679643	keystroke	u	n/a
339.986	0.1055	679972	keystroke	a	n/a
340.1215	0.105	680243	keystroke	l	n/a
340.1965	0.09	680393	keystroke	i	n/a
340.3465	0.0745	680693	keystroke	f	n/a
340.4815	0.075	680963	keystroke	i	n/a
340.7515	0.075	681503	keystroke	i	n/a
341.1115	0.059	682223	keystroke	Key.backspace	n/a
341.2915	0.059	682583	keystroke	e	n/a
341.4405	0.075	682881	keystroke	d	n/a
341.9355	0.0755	683871	keystroke	Key.space	n/a
342.656	0.075	685312	keystroke	Key.enter	n/a
342.7355	8.052	685471	prompt	n/a	piano spotlight canada sequence\n
343.3615	0.105	686723	keystroke	p	n/a
343.5115	0.105	687023	keystroke	i	n/a
343.7215	0.105	687443	keystroke	a	n/a
343.8565	0.075	687713	keystroke	n	n/a
344.0505	0.091	688101	keystroke	o	n/a
344.3055	0.075	688611	keystroke	Key.space	n/a
344.756	0.135	689512	keystroke	s	n/a
344.936	0.1055	689872	keystroke	p	n/a
345.1015	0.0895	690203	keystroke	o	n/a
345.3265	0.0745	690653	keystroke	t	n/a
345.6565	0.0895	691313	keystroke	l	n/a
345.731	0.09	691462	keystroke	i	n/a
345.851	0.0605	691702	keystroke	g	n/a
345.9415	0.075	691883	keystroke	h	n/a
346.0315	0.0595	692063	keystroke	t	n/a
346.1215	0.075	692243	keystroke	Key.space	n/a
346.4215	0.105	692843	keystroke	c	n/a
346.5565	0.12	693113	keystroke	a	n/a
346.6915	0.06	693383	keystroke	n	n/a
346.8415	0.12	693683	keystroke	a	n/a
347.0805	0.03	694161	keystroke	d	n/a
347.1865	0.134	694373	keystroke	a	n/a
347.3655	0.075	694731	keystroke	Key.space	n/a
348.356	0.09	696712	keystroke	s	n/a
348.551	0.075	697102	keystroke	q	n/a
348.701	0.09	697402	keystroke	u	n/a
349.256	0.06	698512	keystroke	Key.backspace	n/a
349.376	0.075	698752	keystroke	Key.backspace	n/a
349.466	0.09	698932	keystroke	e	n/a
349.7515	0.075	699503	keystroke	q	n/a
349.8415	0.06	699683	keystroke	u	n/a
349.9465	0.135	699893	keystroke	e	n/a
350.0965	0.075	700193	keystroke	n	n/a
350.3355	0.09	700671	keystroke	c	n/a
350.5605	0.045	701121	keystroke	e	n/a
350.7105	0.075	701421	keystroke	Key.enter	n/a
350.791	6.8965	701582	prompt	n/a	afterwards nursery poet combined\n
351.5665	0.149	703133	keystroke	a	n/a
351.9115	0.089	703823	keystroke	f	n/a
352.151	0.075	704302	keystroke	t	n/a
352.241	0.105	704482	keystroke	e	n/a
352.286	0.09	704572	keystroke	r	n/a
352.526	0.105	705052	keystroke	w	n/a
352.601	0.18	705202	keystroke	a	n/a
352.721	0.105	705442	keystroke	r	n/a
352.886	0.105	705772	keystroke	d	n/a
352.976	0.15	705952	keystroke	s	n/a
353.156	0.1045	706312	keystroke	Key.space	n/a
353.4555	0.06	706911	keystroke	n	n/a
353.5905	0.075	707181	keystroke	u	n/a
353.7255	0.06	707451	keystroke	e	n/a
354.0555	0.06	708111	keystroke	Key.backspace	n/a
354.2805	0.06	708561	keystroke	r	n/a
354.566	0.06	709132	keystroke	s	n/a
354.656	0.12	709312	keystroke	e	n/a
354.761	0.105	709522	keystroke	r	n/a
354.911	0.105	709822	keystroke	y	n/a
355.046	0.09	710092	keystroke	Key.space	n/a
355.361	0.105	710722	keystroke	p	n/a
355.406	0.15	710812	keystroke	o	n/a
355.541	0.105	711082	keystroke	e	n/a
355.9465	0.06	711893	keystroke	t	n/a
356.4415	0.074	712883	keystroke	Key.space	n/a
356.5765	0.09	713153	keystroke	c	n/a
356.6365	0.18	713273	keystroke	o	n/a
356.7415	0.12	713483	keystroke	m	n/a
356.9965	0.045	713993	keystroke	b	n/a
357.0715	0.105	714143	keystroke	i	n/a
357.1315	0.119	714263	keystroke	n	n/a
357.2815	0.104	714563	keystroke	e	n/a
357.4765	0.074	714953	keystroke	d	n/a
357.5955	0.09	715191	keystroke	Key.enter	n/a
357.693	6.5645	715386	prompt	n/a	swing hospitals nightlife scroll\n
358.271	0.06	716542	keystroke	w	n/a
358.346	0.09	716692	keystroke	w	n/a
358.586	0.0605	717172	keystroke	Key.backspace	n/a
358.9165	0.06	717833	keystroke	Key.backspace	n/a
359.0515	0.075	718103	keystroke	s	n/a
359.2315	0.105	718463	keystroke	w	n/a
359.3965	0.09	718793	keystroke	i	n/a
359.4565	0.105	718913	keystroke	n	n/a
359.5765	0.045	719153	keystroke	g	n/a
359.6665	0.06	719333	keystroke	Key.space	n/a
359.861	0.0895	719722	keystroke	h	n/a
359.8915	0.119	719783	keystroke	o	n/a
360.0405	0.075	720081	keystroke	s	n/a
360.446	0.1195	720892	keystroke	p	n/a
360.581	0.0745	721162	keystroke	i	n/a
360.776	0.1195	721552	keystroke	t	n/a
360.956	0.1045	721912	keystroke	a	n/a
361.0455	0.105	722091	keystroke	l	n/a
361.1955	0.09	722391	keystroke	s	n/a
361.3005	0.09	722601	keystroke	Key.space	n/a
361.5255	0.09	723051	keystroke	n	n/a
361.6005	0.105	723201	keystroke	i	n/a
361.7205	0.075	723441	keystroke	g	n/a
361.8105	0.0755	723621	keystroke	h	n/a
361.901	0.075	723802	keystroke	t	n/a
362.066	0.105	724132	keystroke	l	n/a
362.141	0.135	724282	keystroke	i	n/a
362.336	0.105	724672	keystroke	f	n/a
362.411	0.105	724822	keystroke	e	n/a
362.531	0.09	725062	keystroke	Key.space	n/a
362.726	0.09	725452	keystroke	s	n/a
362.921	0.075	725842	keystroke	c	n/a
363.221	0.06	726442	keystroke	r	n/a
363.686	0.06	727372	keystroke	o	n/a
363.851	0.045	727702	keystroke	l	n/a
363.971	0.0895	727942	keystroke	l	n/a
364.1955	0.06	728391	keystroke	Key.enter	n/a
364.261	7.3765	728522	prompt	n/a	must've orchestra albums prerequisite\n
365.0505	0.075	730101	keystroke	m	n/a
365.2305	0.0605	730461	keystroke	u	n/a
365.3805	0.1205	730761	keystroke	s	n/a
365.546	0.06	731092	keystroke	t	n/a
365.711	0.0755	731422	keystroke	'	n/a
365.9205	0.1355	731841	keystroke	v	n/a
366.026	0.09	732052	keystroke	e	n/a
366.131	0.09	732262	keystroke	Key.space	n/a
366.296	0.075	732592	keystroke	o	n/a
366.401	0.075	732802	keystroke	r	n/a
366.611	0.06	733222	keystroke	c	n/a
366.686	0.06	733372	keystroke	h	n/a
366.8065	0.105	733613	keystroke	e	n/a
366.8965	0.1795	733793	keystroke	s	n/a
367.0465	0.0895	734093	keystroke	t	n/a
367.196	0.135	734392	keystroke	r	n/a
367.301	0.12	734602	keystroke	a	n/a
367.451	0.105	734902	keystroke	Key.space	n/a
367.646	0.12	735292	keystroke	a	n/a
367.811	0.09	735622	keystroke	l	n/a
368.006	0.06	736012	keystroke	b	n/a
368.126	0.0755	736252	keystroke	u	n/a
368.3065	0.06	736613	keystroke	n	n/a
368.711	0.06	737422	keystroke	Key.backspace	n/a
368.9055	0.061	737811	keystroke	m	n/a
368.9965	0.09	737993	keystroke	s	n/a
369.1305	0.061	738261	keystroke	Key.space	n/a
369.7155	0.09	739431	keystroke	p	n/a
369.9105	0.135	739821	keystroke	r	n/a
370.0015	0.089	740003	keystroke	e	n/a
370.3155	0.121	740631	keystroke	r	n/a
370.3305	0.12	740661	keystroke	e	n/a
370.586	0.09	741172	keystroke	q	n/a
370.691	0.09	741382	keystroke	u	n/a
370.871	0.09	741742	keystroke	i	n/a
370.991	0.075	741982	keystroke	s	n/a
371.096	0.06	742192	keystroke	i	n/a
371.351	0.075	742702	keystroke	t	n/a
371.456	0.09	742912	keystroke	e	n/a
371.576	0.06	743152	keystroke	Key.enter	n/a
371.6405	6.462	743281	prompt	n/a	jewish wonderful dominant delay\n
372.341	0.075	744682	keystroke	j	n/a
372.581	0.135	745162	keystroke	e	n/a
372.686	0.1495	745372	keystroke	w	n/a
372.8655	0.12	745731	keystroke	i	n/a
373.0455	0.03	746091	keystroke	s	n/a
373.1205	0.045	746241	keystroke	h	n/a
373.1955	0.0755	746391	keystroke	Key.space	n/a
373.496	0.075	746992	keystroke	w	n/a
373.556	0.09	747112	keystroke	o	n/a
373.631	0.09	747262	keystroke	n	n/a
373.826	0.06	747652	keystroke	d	n/a
373.961	0.15	747922	keystroke	e	n/a
374.051	0.12	748102	keystroke	r	n/a
374.441	0.0895	748882	keystroke	f	n/a
374.7865	0.089	749573	keystroke	u	n/a
374.9665	0.104	749933	keystroke	l	n/a
375.0855	0.076	750171	keystroke	Key.space	n/a
375.2365	0.09	750473	keystroke	d	n/a
375.3565	0.164	750713	keystroke	o	n/a
375.4755	0.09	750951	keystroke	m	n/a
375.6405	0.105	751281	keystroke	i	n/a
375.7165	0.119	751433	keystroke	n	n/a
376.0305	0.105	752061	keystroke	a	n/a
376.2555	0.091	752511	keystroke	n	n/a
376.556	0.06	753112	keystroke	t	n/a
376.676	0.06	753352	keystroke	Key.space	n/a
377.2755	0.06	754551	keystroke	d	n/a
377.4255	0.105	754851	keystroke	e	n/a
377.5465	0.089	755093	keystroke	l	n/a
377.6955	0.106	755391	keystroke	a	n/a
377.8315	0.015	755663	keystroke	y	n/a
378.0415	0.06	756083	keystroke	Key.enter	n/a
378.1055	5.172	756211	prompt	n/a	state poems matters card\n
379.0005	0.0905	758001	keystroke	s	n/a
379.631	0.09	759262	keystroke	t	n/a
379.766	0.1505	759532	keystroke	a	n/a
379.886	0.1205	759772	keystroke	t	n/a
380.0215	0.09	760043	keystroke	e	n/a
380.1115	0.105	760223	keystroke	Key.space	n/a
380.4415	0.135	760883	keystroke	p	n/a
380.5465	0.15	761093	keystroke	o	n/a
380.6815	0.075	761363	keystroke	e	n/a
380.8615	0.075	761723	keystroke	m	n/a
381.1465	0.075	762293	keystroke	s	n/a
381.2365	0.075	762473	keystroke	Key.space	n/a
381.5815	0.09	763163	keystroke	m	n/a
381.6565	0.105	763313	keystroke	a	n/a
381.7465	0.06	763493	keystroke	t	n/a
381.866	0.12	763732	keystroke	t	n/a
381.971	0.12	763942	keystroke	e	n/a
382.031	0.12	764062	keystroke	r	n/a
382.226	0.105	764452	keystroke	s	n/a
382.376	0.105	764752	keystroke	Key.space	n/a
382.556	0.075	765112	keystroke	c	n/a
382.676	0.12	765352	keystroke	a	n/a
382.766	0.105	765532	keystroke	r	n/a
383.006	0.06	766012	keystroke	d	n/a
383.186	0.09	766372	keystroke	Key.enter	n/a
383.2805	5.472	766561	prompt	n/a	storm larger saint refused\n
383.801	0.12	767602	keystroke	s	n/a
383.951	0.075	767902	keystroke	t	n/a
384.041	0.12	768082	keystroke	o	n/a
384.146	0.075	768292	keystroke	r	n/a
384.296	0.105	768592	keystroke	m	n/a
384.431	0.075	768862	keystroke	Key.space	n/a
384.656	0.075	769312	keystroke	l	n/a
384.716	0.135	769432	keystroke	a	n/a
385.001	0.09	770002	keystroke	r	n/a
385.211	0.12	770422	keystroke	g	n/a
385.286	0.165	770572	keystroke	e	n/a
385.391	0.105	770782	keystroke	r	n/a
385.511	0.09	771022	keystroke	Key.space	n/a
385.646	0.1045	771292	keystroke	s	n/a
385.7955	0.105	771591	keystroke	a	n/a
385.9165	0.1045	771833	keystroke	i	n/a
385.9905	0.1355	771981	keystroke	n	n/a
386.186	0.06	772372	keystroke	t	n/a
386.276	0.0895	772552	keystroke	Key.space	n/a
386.4555	0.0755	772911	keystroke	f	n/a
386.921	0.075	773842	keystroke	Key.backspace	n/a
387.041	0.105	774082	keystroke	r	n/a
387.116	0.105	774232	keystroke	e	n/a
387.3255	0.06	774651	keystroke	f	n/a
387.4305	0.06	774861	keystroke	u	n/a
387.5805	0.165	775161	keystroke	e	n/a
387.7305	0.09	775461	keystroke	s	n/a
387.9265	0.0445	775853	keystroke	Key.backspace	n/a
388.046	0.0755	776092	keystroke	Key.backspace	n/a
388.1515	0.105	776303	keystroke	s	n/a
388.1955	0.105	776391	keystroke	e	n/a
388.511	0.045	777022	keystroke	d	n/a
388.691	0.06	777382	keystroke	Key.enter	n/a
388.756	4.7515	777512	prompt	n/a	sleeve heating currently rather\n
389.486	0.09	778972	keystroke	s	n/a
389.666	0.075	779332	keystroke	l	n/a
389.756	0.06	779512	keystroke	e	n/a
389.891	0.075	779782	keystroke	e	n/a
390.041	0.135	780082	keystroke	v	n/a
390.131	0.105	780262	keystroke	e	n/a
390.266	0.105	780532	keystroke	Key.space	n/a
390.401	0.09	780802	keystroke	h	n/a
390.506	0.1055	781012	keystroke	e	n/a
390.6865	0.15	781373	keystroke	a	n/a
390.8065	0.075	781613	keystroke	t	n/a
390.9115	0.105	781823	keystroke	i	n/a
390.9865	0.105	781973	keystroke	n	n/a
391.0765	0.06	782153	keystroke	g	n/a
391.1515	0.104	782303	keystroke	Key.space	n/a
391.3465	0.119	782693	keystroke	c	n/a
391.4665	0.059	782933	keystroke	u	n/a
391.5855	0.075	783171	keystroke	r	n/a
391.7505	0.09	783501	keystroke	r	n/a
391.8255	0.105	783651	keystroke	e	n/a
391.9605	0.0755	783921	keystroke	n	n/a
392.051	0.0595	784102	keystroke	t	n/a
392.1715	0.134	784343	keystroke	l	n/a
392.2765	0.12	784553	keystroke	y	n/a
392.3655	0.09	784731	keystroke	Key.space	n/a
392.6355	0.106	785271	keystroke	r	n/a
392.7865	0.165	785573	keystroke	a	n/a
392.8615	0.165	785723	keystroke	t	n/a
393.0565	0.075	786113	keystroke	h	n/a
393.1315	0.119	786263	keystroke	e	n/a
393.1915	0.089	786383	keystroke	r	n/a
393.4455	0.06	786891	keystroke	Key.enter	n/a
393.5105	8.2325	787021	prompt	n/a	glasgow range simultaneously clinic\n
394.2865	0.074	788573	keystroke	g	n/a
394.4355	0.1055	788871	keystroke	l	n/a
394.571	0.1355	789142	keystroke	a	n/a
394.7215	0.0895	789443	keystroke	s	n/a
395.246	0.0605	790492	keystroke	g	n/a
395.3515	0.09	790703	keystroke	o	n/a
395.4715	0.09	790943	keystroke	w	n/a
395.5915	0.09	791183	keystroke	Key.space	n/a
396.071	0.105	792142	keystroke	r	n/a
396.191	0.105	792382	keystroke	a	n/a
396.311	0.06	792622	keystroke	n	n/a
396.401	0.0905	792802	keystroke	g	n/a
396.476	0.12	792952	keystroke	e	n/a
396.821	0.075	793642	keystroke	Key.space	n/a
397.046	0.09	794092	keystroke	s	n/a
397.166	0.0905	794332	keystroke	i	n/a
397.7815	0.0745	795563	keystroke	m	n/a
397.976	0.075	795952	keystroke	u	n/a
398.126	0.105	796252	keystroke	l	n/a
398.336	0.075	796672	keystroke	t	n/a
398.5155	0.091	797031	keystroke	a	n/a
398.6355	0.075	797271	keystroke	n	n/a
398.7865	0.104	797573	keystroke	e	n/a
399.0565	0.149	798113	keystroke	o	n/a
399.1305	0.106	798261	keystroke	u	n/a
399.4915	0.06	798983	keystroke	s	n/a
399.6265	0.09	799253	keystroke	l	n/a
399.7765	0.075	799553	keystroke	y	n/a
399.9865	0.09	799973	keystroke	Key.space	n/a
400.1815	0.075	800363	keystroke	c	n/a
400.3315	0.075	800663	keystroke	l	n/a
400.766	0.12	801532	keystroke	i	n/a
400.871	0.075	801742	keystroke	n	n/a
400.976	0.12	801952	keystroke	i	n/a
401.126	0.06	802252	keystroke	s	n/a
401.411	0.045	802822	keystroke	Key.backspace	n/a
401.5165	0.0595	803033	keystroke	c	n/a
401.666	0.0755	803332	keystroke	Key.enter	n/a
401.7465	8.1415	803493	prompt	n/a	excellence baseline mass abandoned\n
402.4465	0.09	804893	keystroke	e	n/a
402.6715	0.09	805343	keystroke	x	n/a
402.8665	0.075	805733	keystroke	c	n/a
403.0615	0.06	806123	keystroke	e	n/a
403.1515	0.075	806303	keystroke	l	n/a
403.3015	0.06	806603	keystroke	l	n/a
403.3615	0.06	806723	keystroke	e	n/a
403.6165	0.075	807233	keystroke	n	n/a
404.9965	0.06	809993	keystroke	c	n/a
405.1765	0.09	810353	keystroke	e	n/a
405.2515	0.09	810503	keystroke	Key.space	n/a
405.5215	0.06	811043	keystroke	b	n/a
405.6415	0.105	811283	keystroke	a	n/a
405.8515	0.12	811703	keystroke	s	n/a
406.271	0.0755	812542	keystroke	e	n/a
406.526	0.09	813052	keystroke	l	n/a
406.586	0.135	813172	keystroke	i	n/a
406.706	0.075	813412	keystroke	n	n/a
406.766	0.075	813532	keystroke	e	n/a
406.9165	0.09	813833	keystroke	Key.space	n/a
407.2165	0.06	814433	keystroke	m	n/a
407.2915	0.12	814583	keystroke	a	n/a
407.4565	0.09	814913	keystroke	s	n/a
407.6065	0.075	815213	keystroke	s	n/a
407.6365	0.105	815273	keystroke	Key.space	n/a
407.9215	0.165	815843	keystroke	a	n/a
408.1315	0.075	816263	keystroke	b	n/a
408.2665	0.15	816533	keystroke	a	n/a
408.4465	0.075	816893	keystroke	n	n/a
408.6415	0.06	817283	keystroke	d	n/a
408.7015	0.165	817403	keystroke	o	n/a
408.9715	0.045	817943	keystroke	m	n/a
409.2705	0.06	818541	keystroke	Key.backspace	n/a
409.4505	0.075	818901	keystroke	n	n/a
409.5115	0.074	819023	keystroke	e	n/a
409.6615	0.074	819323	keystroke	d	n/a
409.8115	0.074	819623	keystroke	Key.enter	n/a
409.8925	3.91	819785	prompt	n/a	packets smart next living\n
410.6505	0.106	821301	keystroke	p	n/a
410.7405	0.076	821481	keystroke	a	n/a
410.8905	0.105	821781	keystroke	c	n/a
411.0105	0.06	822021	keystroke	k	n/a
411.0855	0.136	822171	keystroke	e	n/a
411.1905	0.121	822381	keystroke	t	n/a
411.3415	0.119	822683	keystroke	s	n/a
411.4455	0.09	822891	keystroke	Key.space	n/a
411.6105	0.121	823221	keystroke	s	n/a
411.791	0.09	823582	keystroke	m	n/a
411.896	0.135	823792	keystroke	a	n/a
412.076	0.09	824152	keystroke	r	n/a
412.256	0.0605	824512	keystroke	t	n/a
412.3765	0.09	824753	keystroke	Key.space	n/a
412.5715	0.075	825143	keystroke	n	n/a
412.7065	0.03	825413	keystroke	e	n/a
412.8415	0.15	825683	keystroke	x	n/a
412.9765	0.09	825953	keystroke	t	n/a
413.0665	0.075	826133	keystroke	Key.space	n/a
413.156	0.105	826312	keystroke	l	n/a
413.231	0.09	826462	keystroke	i	n/a
413.336	0.09	826672	keystroke	v	n/a
413.411	0.12	826822	keystroke	i	n/a
413.486	0.12	826972	keystroke	n	n/a
413.591	0.06	827182	keystroke	g	n/a
413.711	0.09	827422	keystroke	Key.enter	n/a
413.807	6.8205	827614	prompt	n/a	distinguished displayed forbes libs\n
414.401	0.09	828802	keystroke	d	n/a
414.5065	0.075	829013	keystroke	i	n/a
414.6265	0.09	829253	keystroke	s	n/a
414.8515	0.06	829703	keystroke	t	n/a
415.0015	0.12	830003	keystroke	i	n/a
415.1365	0.09	830273	keystroke	n	n/a
415.3765	0.075	830753	keystroke	g	n/a
415.4815	0.075	830963	keystroke	u	n/a
415.7965	0.0745	831593	keystroke	s	n/a
416.1555	0.06	832311	keystroke	Key.backspace	n/a
416.3815	0.075	832763	keystroke	i	n/a
416.4855	0.0755	832971	keystroke	s	n/a
416.681	0.06	833362	keystroke	h	n/a
416.831	0.075	833662	keystroke	e	n/a
417.011	0.06	834022	keystroke	d	n/a
417.101	0.09	834202	keystroke	Key.space	n/a
417.356	0.075	834712	keystroke	d	n/a
417.461	0.09	834922	keystroke	i	n/a
417.626	0.105	835252	keystroke	s	n/a
417.806	0.075	835612	keystroke	p	n/a
418.001	0.09	836002	keystroke	l	n/a
418.076	0.09	836152	keystroke	a	n/a
418.226	0.06	836452	keystroke	y	n/a
418.331	0.09	836662	keystroke	e	n/a
418.511	0.075	837022	keystroke	d	n/a
418.616	0.09	837232	keystroke	Key.space	n/a
418.766	0.075	837532	keystroke	f	n/a
418.871	0.09	837742	keystroke	o	n/a
418.946	0.075	837892	keystroke	r	n/a
419.216	0.075	838432	keystroke	b	n/a
419.336	0.075	838672	keystroke	e	n/a
419.456	0.12	838912	keystroke	s	n/a
419.636	0.09	839272	keystroke	Key.space	n/a
419.771	0.105	839542	keystroke	l	n/a
419.846	0.105	839692	keystroke	i	n/a
420.0865	0.045	840173	keystroke	b	n/a
420.2965	0.105	840593	keystroke	s	n/a
420.551	0.075	841102	keystroke	Key.enter	n/a
420.631	5.4865	841262	prompt	n/a	immune wizard tuner lived\n
421.196	0.075	842392	keystroke	i	n/a
421.361	0.075	842722	keystroke	m	n/a
421.541	0.075	843082	keystroke	m	n/a
421.736	0.0605	843472	keystroke	u	n/a
421.9015	0.075	843803	keystroke	n	n/a
422.0365	0.06	844073	keystroke	e	n/a
422.1715	0.1045	844343	keystroke	Key.space	n/a
422.4565	0.09	844913	keystroke	w	n/a
422.5615	0.075	845123	keystroke	o	n/a
422.9665	0.06	845933	keystroke	Key.backspace	n/a
423.1915	0.075	846383	keystroke	i	n/a
423.3115	0.03	846623	keystroke	z	n/a
423.4615	0.12	846923	keystroke	a	n/a
423.5965	0.09	847193	keystroke	r	n/a
423.8665	0.075	847733	keystroke	d	n/a
423.9715	0.104	847943	keystroke	Key.space	n/a
424.4215	0.075	848843	keystroke	t	n/a
424.571	0.06	849142	keystroke	u	n/a
424.721	0.09	849442	keystroke	n	n/a
424.946	0.21	849892	keystroke	e	n/a
425.111	0.105	850222	keystroke	r	n/a
425.246	0.105	850492	keystroke	Key.space	n/a
425.411	0.105	850822	keystroke	l	n/a
425.471	0.135	850942	keystroke	i	n/a
425.636	0.121	851272	keystroke	v	n/a
425.726	0.105	851452	keystroke	e	n/a
425.921	0.09	851842	keystroke	d	n/a
426.026	0.09	852052	keystroke	Key.enter	n/a
426.123	5.845	852246	prompt	n/a	jesse denver variation museums\n
426.791	0.09	853582	keystroke	j	n/a
426.866	0.06	853732	keystroke	e	n/a
426.986	0.03	853972	keystroke	n	n/a
427.3155	0.03	854631	keystroke	Key.backspace	n/a
427.3905	0.105	854781	keystroke	s	n/a
427.5865	0.09	855173	keystroke	s	n/a
427.7065	0.075	855413	keystroke	e	n/a
427.8405	0.075	855681	keystroke	Key.space	n/a
428.0505	0.0605	856101	keystroke	d	n/a
428.2005	0.0905	856401	keystroke	e	n/a
428.381	0.0745	856762	keystroke	n	n/a
428.516	0.135	857032	keystroke	v	n/a
428.636	0.18	857272	keystroke	e	n/a
428.757	0.104	857514	keystroke	r	n/a
428.891	0.09	857782	keystroke	Key.space	n/a
429.431	0.105	858862	keystroke	v	n/a
429.566	0.135	859132	keystroke	a	n/a
429.716	0.105	859432	keystroke	r	n/a
429.881	0.09	859762	keystroke	i	n/a
430.001	0.165	860002	keystroke	a	n/a
430.136	0.09	860272	keystroke	t	n/a
430.256	0.135	860512	keystroke	i	n/a
430.346	0.12	860692	keystroke	o	n/a
430.421	0.12	860842	keystroke	n	n/a
430.526	0.09	861052	keystroke	Key.space	n/a
430.676	0.075	861352	keystroke	m	n/a
430.856	0.0605	861712	keystroke	u	n/a
430.9315	0.12	861863	keystroke	s	n/a
431.1265	0.075	862253	keystroke	e	n/a
431.3065	0.0745	862613	keystroke	u	n/a
431.486	0.075	862972	keystroke	m	n/a
431.621	0.075	863242	keystroke	s	n/a
431.891	0.075	863782	keystroke	Key.enter	n/a
431.971	5.2765	863942	prompt	n/a	circuit hose continued pads\n
432.611	0.105	865222	keystroke	c	n/a
432.731	0.075	865462	keystroke	i	n/a
432.881	0.12	865762	keystroke	r	n/a
433.166	0.0895	866332	keystroke	c	n/a
433.3305	0.06	866661	keystroke	u	n/a
433.4805	0.076	866961	keystroke	i	n/a
433.616	0.075	867232	keystroke	t	n/a
433.721	0.105	867442	keystroke	Key.space	n/a
433.931	0.091	867862	keystroke	h	n/a
433.976	0.12	867952	keystroke	o	n/a
434.156	0.12	868312	keystroke	s	n/a
434.246	0.09	868492	keystroke	e	n/a
434.366	0.075	868732	keystroke	Key.space	n/a
434.816	0.075	869632	keystroke	c	n/a
434.906	0.105	869812	keystroke	o	n/a
434.996	0.075	869992	keystroke	n	n/a
435.146	0.075	870292	keystroke	t	n/a
435.311	0.09	870622	keystroke	i	n/a
435.476	0.09	870952	keystroke	n	n/a
435.686	0.06	871372	keystroke	u	n/a
435.776	0.135	871552	keystroke	e	n/a
436.031	0.075	872062	keystroke	d	n/a
436.121	0.12	872242	keystroke	Key.space	n/a
436.481	0.075	872962	keystroke	p	n/a
436.571	0.195	873142	keystroke	a	n/a
436.841	0.105	873682	keystroke	d	n/a
437.006	0.105	874012	keystroke	s	n/a
437.141	0.105	874282	keystroke	Key.enter	n/a
437.2515	6.1315	874503	prompt	n/a	apparatus writers sole kilometers\n
437.8315	0.105	875663	keystroke	a	n/a
437.9515	0.045	875903	keystroke	p	n/a
438.0715	0.09	876143	keystroke	p	n/a
438.1765	0.135	876353	keystroke	a	n/a
438.3715	0.09	876743	keystroke	r	n/a
438.521	0.165	877042	keystroke	a	n/a
438.671	0.06	877342	keystroke	t	n/a
438.791	0.075	877582	keystroke	u	n/a
438.986	0.0905	877972	keystroke	s	n/a
439.0905	0.0905	878181	keystroke	Key.space	n/a
439.301	0.075	878602	keystroke	w	n/a
439.466	0.06	878932	keystroke	r	n/a
439.601	0.075	879202	keystroke	i	n/a
439.736	0.12	879472	keystroke	t	n/a
439.841	0.165	879682	keystroke	e	n/a
439.976	0.12	879952	keystroke	r	n/a
440.171	0.105	880342	keystroke	s	n/a
440.291	0.09	880582	keystroke	Key.space	n/a
440.5165	0.075	881033	keystroke	s	n/a
440.5765	0.09	881153	keystroke	o	n/a
440.7415	0.105	881483	keystroke	l	n/a
440.8615	0.075	881723	keystroke	e	n/a
440.9815	0.09	881963	keystroke	Key.space	n/a
441.1615	0.0745	882323	keystroke	k	n/a
441.2965	0.09	882593	keystroke	i	n/a
441.4165	0.105	882833	keystroke	l	n/a
441.5965	0.135	883193	keystroke	o	n/a
441.7165	0.1195	883433	keystroke	m	n/a
441.881	0.12	883762	keystroke	e	n/a
442.031	0.105	884062	keystroke	t	n/a
442.151	0.12	884302	keystroke	e	n/a
442.241	0.12	884482	keystroke	r	n/a
442.346	0.105	884692	keystroke	e	n/a
442.976	0.045	885952	keystroke	Key.backspace	n/a
443.081	0.06	886162	keystroke	s	n/a
443.291	0.09	886582	keystroke	Key.enter	n/a
443.3875	4.33	886775	prompt	n/a	cure login finder hunter\n
444.071	0.075	888142	keystroke	c	n/a
444.131	0.075	888262	keystroke	u	n/a
444.281	0.105	888562	keystroke	r	n/a
444.326	0.12	888652	keystroke	e	n/a
444.506	0.06	889012	keystroke	Key.space	n/a
444.656	0.09	889312	keystroke	l	n/a
444.806	0.075	889612	keystroke	o	n/a
444.896	0.075	889792	keystroke	g	n/a
445.046	0.075	890092	keystroke	i	n/a
445.076	0.135	890152	keystroke	n	n/a
445.226	0.075	890452	keystroke	Key.space	n/a
445.451	0.075	890902	keystroke	f	n/a
445.556	0.09	891112	keystroke	i	n/a
445.616	0.105	891232	keystroke	n	n/a
445.736	0.06	891472	keystroke	d	n/a
445.871	0.15	891742	keystroke	e	n/a
445.976	0.075	891952	keystroke	r	n/a
446.066	0.0905	892132	keystroke	Key.space	n/a
446.1715	0.075	892343	keystroke	h	n/a
446.3065	0.06	892613	keystroke	u	n/a
446.4565	0.0745	892913	keystroke	n	n/a
446.561	0.105	893122	keystroke	g	n/a
446.651	0.15	893302	keystroke	e	n/a
446.786	0.03	893572	keystroke	r	n/a
446.921	0.06	893842	keystroke	Key.backspace	n/a
447.056	0.06	894112	keystroke	Key.backspace	n/a
447.176	0.0755	894352	keystroke	Key.backspace	n/a
447.2665	0.105	894533	keystroke	t	n/a
447.3415	0.12	894683	keystroke	e	n/a
447.4315	0.09	894863	keystroke	r	n/a
447.6715	0.045	895343	keystroke	Key.enter	n/a
447.7205	8.757	895441	prompt	n/a	absorption hence smilies excitement\n
448.3765	0.105	896753	keystroke	a	n/a
448.9315	0.06	897863	keystroke	b	n/a
449.1265	0.09	898253	keystroke	s	n/a
449.2765	0.105	898553	keystroke	o	n/a
449.3965	0.075	898793	keystroke	r	n/a
449.9215	0.09	899843	keystroke	p	n/a
450.1765	0.06	900353	keystroke	t	n/a
450.2515	0.12	900503	keystroke	i	n/a
450.3265	0.105	900653	keystroke	o	n/a
450.3865	0.105	900773	keystroke	n	n/a
450.521	0.075	901042	keystroke	Key.space	n/a
450.7315	0.06	901463	keystroke	h	n/a
450.8065	0.06	901613	keystroke	e	n/a
450.9415	0.075	901883	keystroke	n	n/a
451.0315	0.15	902063	keystroke	s	n/a
451.1065	0.105	902213	keystroke	e	n/a
451.2715	0.0745	902543	keystroke	Key.space	n/a
451.826	0.045	903652	keystroke	Key.backspace	n/a
451.946	0.075	903892	keystroke	Key.backspace	n/a
452.081	0.075	904162	keystroke	Key.backspace	n/a
452.186	0.06	904372	keystroke	c	n/a
452.351	0.06	904702	keystroke	e	n/a
452.426	0.1205	904852	keystroke	Key.space	n/a
452.6665	0.075	905333	keystroke	s	n/a
452.9665	0.06	905933	keystroke	i	n/a
453.416	0.045	906832	keystroke	Key.backspace	n/a
453.596	0.09	907192	keystroke	m	n/a
453.716	0.12	907432	keystroke	i	n/a
453.791	0.12	907582	keystroke	l	n/a
454.016	0.09	908032	keystroke	i	n/a
454.166	0.12	908332	keystroke	e	n/a
454.316	0.105	908632	keystroke	s	n/a
454.406	0.1055	908812	keystroke	Key.space	n/a
454.9165	0.09	909833	keystroke	e	n/a
455.1715	0.09	910343	keystroke	x	n/a
455.3515	0.075	910703	keystroke	c	n/a
455.4865	0.09	910973	keystroke	i	n/a
455.6365	0.135	911273	keystroke	t	n/a
455.7115	0.105	911423	keystroke	e	n/a
455.8615	0.09	911723	keystroke	m	n/a
455.9815	0.12	911963	keystroke	e	n/a
456.0865	0.06	912173	keystroke	n	n/a
456.1915	0.06	912383	keystroke	t	n/a
456.4015	0.075	912803	keystroke	Key.enter	n/a
456.481	5.112	912962	prompt	n/a	great guides karl sparc\n
457.1365	0.09	914273	keystroke	g	n/a
457.3015	0.12	914603	keystroke	r	n/a
457.3915	0.105	914783	keystroke	e	n/a
457.4665	0.165	914933	keystroke	a	n/a
457.5565	0.09	915113	keystroke	t	n/a
457.6615	0.09	915323	keystroke	Key.space	n/a
457.8265	0.075	915653	keystroke	g	n/a
457.9165	0.075	915833	keystroke	u	n/a
458.2165	0.075	916433	keystroke	i	n/a
458.4115	0.06	916823	keystroke	d	n/a
458.5315	0.135	917063	keystroke	e	n/a
458.6365	0.165	917273	keystroke	s	n/a
458.7865	0.075	917573	keystroke	Key.space	n/a
459.1015	0.06	918203	keystroke	k	n/a
459.2365	0.2695	918473	keystroke	a	n/a
459.4615	0.0745	918923	keystroke	r	n/a
459.851	0.105	919702	keystroke	l	n/a
459.986	0.09	919972	keystroke	Key.space	n/a
460.466	0.0745	920932	keystroke	s	n/a
460.5705	0.091	921141	keystroke	p	n/a
460.7055	0.091	921411	keystroke	a	n/a
461.0815	0.044	922163	keystroke	r	n/a
461.2915	0.059	922583	keystroke	c	n/a
461.5305	0.06	923061	keystroke	Key.enter	n/a
461.5965	5.141	923193	prompt	n/a	fairy lycos boxing floppy\n
462.2215	0.119	924443	keystroke	f	n/a
462.401	0.15	924802	keystroke	a	n/a
462.5815	0.0595	925163	keystroke	i	n/a
462.701	0.0605	925402	keystroke	r	n/a
462.851	0.105	925702	keystroke	y	n/a
462.941	0.0905	925882	keystroke	Key.space	n/a
463.4515	0.0745	926903	keystroke	l	n/a
463.6015	0.06	927203	keystroke	y	n/a
463.8265	0.06	927653	keystroke	c	n/a
463.9165	0.09	927833	keystroke	o	n/a
464.0515	0.075	928103	keystroke	s	n/a
464.1565	0.075	928313	keystroke	Key.space	n/a
464.3815	0.075	928763	keystroke	b	n/a
464.4715	0.0895	928943	keystroke	o	n/a
464.591	0.121	929182	keystroke	x	n/a
464.741	0.106	929482	keystroke	i	n/a
464.831	0.105	929662	keystroke	n	n/a
464.951	0.06	929902	keystroke	g	n/a
464.996	0.09	929992	keystroke	Key.space	n/a
465.206	0.09	930412	keystroke	f	n/a
465.311	0.09	930622	keystroke	l	n/a
465.461	0.075	930922	keystroke	o	n/a
465.656	0.045	931312	keystroke	p	n/a
465.776	0.09	931552	keystroke	p	n/a
465.911	0.045	931822	keystroke	y	n/a
466.661	0.075	933322	keystroke	Key.enter	n/a
466.741	4.272	933482	prompt	n/a	stanford annoying span shorts\n
467.336	0.105	934672	keystroke	s	n/a
467.486	0.0745	934972	keystroke	t	n/a
467.636	0.105	935272	keystroke	a	n/a
467.711	0.075	935422	keystroke	n	n/a
467.891	0.105	935782	keystroke	f	n/a
467.982	0.089	935964	keystroke	o	n/a
468.087	0.089	936174	keystroke	r	n/a
468.326	0.075	936652	keystroke	d	n/a
468.446	0.09	936892	keystroke	Key.space	n/a
468.566	0.091	937132	keystroke	a	n/a
468.671	0.045	937342	keystroke	n	n/a
468.791	0.061	937582	keystroke	n	n/a
468.896	0.136	937792	keystroke	o	n/a
469.001	0.12	938002	keystroke	y	n/a
469.136	0.12	938272	keystroke	i	n/a
469.211	0.12	938422	keystroke	n	n/a
469.316	0.075	938632	keystroke	g	n/a
469.376	0.12	938752	keystroke	Key.space	n/a
469.542	0.105	939084	keystroke	s	n/a
469.676	0.091	939352	keystroke	p	n/a
469.781	0.09	939562	keystroke	a	n/a
469.886	0.106	939772	keystroke	n	n/a
