onset	duration	sample	value	key	prompt_text
7.001	9.374	14002	prompt	n/a	the quick brown fox jumps over a lazy dog\n
8.5555	0.027	17111	keystroke_t	t	n/a
8.6135	0.074	17227	keystroke_h	h	n/a
8.7475	0.1055	17495	keystroke_e	e	n/a
8.928	0.105	17856	keystroke_Key.space	Key.space	n/a
9.063	0.105	18126	keystroke_q	q	n/a
9.198	0.105	18396	keystroke_u	u	n/a
9.528	0.105	19056	keystroke_i	i	n/a
9.694	0.105	19388	keystroke_c	c	n/a
9.829	0.09	19658	keystroke_k	k	n/a
10.0835	0.06	20167	keystroke_Key.space	Key.space	n/a
10.2035	0.075	20407	keystroke_b	b	n/a
10.3095	0.1195	20619	keystroke_r	r	n/a
10.444	0.09	20888	keystroke_o	o	n/a
10.564	0.09	21128	keystroke_w	w	n/a
10.639	0.105	21278	keystroke_n	n	n/a
10.849	0.09	21698	keystroke_Key.space	Key.space	n/a
11.029	0.075	22058	keystroke_f	f	n/a
11.224	0.06	22448	keystroke_o	o	n/a
12.049	0.105	24098	keystroke_x	x	n/a
12.2	0.075	24400	keystroke_Key.space	Key.space	n/a
12.425	0.06	24850	keystroke_j	j	n/a
12.56	0.075	25120	keystroke_u	u	n/a
12.8905	0.105	25781	keystroke_m	m	n/a
13.1155	0.09	26231	keystroke_p	p	n/a
13.2655	0.105	26531	keystroke_s	s	n/a
13.3855	0.135	26771	keystroke_Key.space	Key.space	n/a
13.5355	0.09	27071	keystroke_o	o	n/a
13.6855	0.045	27371	keystroke_v	v	n/a
13.8805	0.06	27761	keystroke_e	e	n/a
13.8955	0.105	27791	keystroke_r	r	n/a
14.0155	0.105	28031	keystroke_Key.space	Key.space	n/a
14.1215	0.0895	28243	keystroke_a	a	n/a
14.241	0.06	28482	keystroke_Key.space	Key.space	n/a
14.376	0.09	28752	keystroke_l	l	n/a
14.526	0.075	29052	keystroke_a	a	n/a
14.706	0.15	29412	keystroke_z	z	n/a
14.841	0.06	29682	keystroke_y	y	n/a
15.111	0.105	30222	keystroke_Key.space	Key.space	n/a
15.487	0.0895	30974	keystroke_d	d	n/a
15.7415	0.12	31483	keystroke_o	o	n/a
15.8765	0.075	31753	keystroke_g	g	n/a
16.251	0.121	32502	keystroke_Key.enter	Key.enter	n/a
16.3795	10.304	32759	prompt	n/a	korea methods ladder kind\n
17.4665	0.106	34933	keystroke_j	j	n/a
17.6325	0.105	35265	keystroke_o	o	n/a
17.9625	0.12	35925	keystroke_r	r	n/a
18.0225	0.105	36045	keystroke_e	e	n/a
18.2325	0.09	36465	keystroke_a	a	n/a
18.3375	0.1045	36675	keystroke_Key.space	Key.space	n/a
18.502	0.106	37004	keystroke_m	m	n/a
18.638	0.075	37276	keystroke_e	e	n/a
19.1175	0.09	38235	keystroke_Key.backspace	Key.backspace	n/a
19.3125	0.045	38625	keystroke_Key.backspace	Key.backspace	n/a
19.4925	0.06	38985	keystroke_Key.backspace	Key.backspace	n/a
19.673	0.075	39346	keystroke_Key.backspace	Key.backspace	n/a
19.854	0.06	39708	keystroke_Key.backspace	Key.backspace	n/a
20.004	0.075	40008	keystroke_Key.backspace	Key.backspace	n/a
20.184	0.075	40368	keystroke_Key.backspace	Key.backspace	n/a
20.364	0.0895	40728	keystroke_Key.backspace	Key.backspace	n/a
20.8435	0.075	41687	keystroke_k	k	n/a
21.2035	0.09	42407	keystroke_o	o	n/a
21.4445	0.1195	42889	keystroke_r	r	n/a
21.549	0.0455	43098	keystroke_e	e	n/a
21.729	0.091	43458	keystroke_a	a	n/a
21.82	0.119	43640	keystroke_Key.space	Key.space	n/a
22.105	0.0745	44210	keystroke_m	m	n/a
22.2545	0.105	44509	keystroke_e	e	n/a
22.4495	0.075	44899	keystroke_t	t	n/a
22.4945	0.09	44989	keystroke_h	h	n/a
22.6895	0.075	45379	keystroke_o	o	n/a
22.7795	0.12	45559	keystroke_d	d	n/a
23.3055	0.09	46611	keystroke_s	s	n/a
23.5755	0.12	47151	keystroke_Key.space	Key.space	n/a
24.1755	0.105	48351	keystroke_l	l	n/a
24.3705	0.1195	48741	keystroke_a	a	n/a
24.5505	0.09	49101	keystroke_d	d	n/a
24.745	0.075	49490	keystroke_d	d	n/a
24.91	0.091	49820	keystroke_e	e	n/a
24.9715	0.089	49943	keystroke_r	r	n/a
25.1055	0.135	50211	keystroke_Key.space	Key.space	n/a
25.6755	0.09	51351	keystroke_k	k	n/a
25.8705	0.135	51741	keystroke_i	i	n/a
25.9455	0.151	51891	keystroke_n	n	n/a
26.1115	0.105	52223	keystroke_d	d	n/a
26.576	0.105	53152	keystroke_Key.enter	Key.enter	n/a
26.691	7.676	53382	prompt	n/a	lean bookings decline their\n
28.1225	0.045	56245	keystroke_l	l	n/a
28.2725	0.105	56545	keystroke_e	e	n/a
28.3925	0.09	56785	keystroke_a	a	n/a
28.5425	0.09	57085	keystroke_n	n	n/a
28.7525	0.09	57505	keystroke_Key.space	Key.space	n/a
28.9775	0.075	57955	keystroke_b	b	n/a
29.2625	0.09	58525	keystroke_o	o	n/a
29.4575	0.06	58915	keystroke_o	o	n/a
29.8925	0.076	59785	keystroke_k	k	n/a
30.1035	0.12	60207	keystroke_i	i	n/a
30.1935	0.12	60387	keystroke_n	n	n/a
30.3585	0.075	60717	keystroke_g	g	n/a
30.7035	0.12	61407	keystroke_s	s	n/a
30.8835	0.09	61767	keystroke_Key.space	Key.space	n/a
31.6785	0.03	63357	keystroke_d	d	n/a
31.6935	0.075	63387	keystroke_e	e	n/a
31.9195	0.075	63839	keystroke_c	c	n/a
32.0245	0.09	64049	keystroke_l	l	n/a
32.4595	0.12	64919	keystroke_i	i	n/a
32.5495	0.135	65099	keystroke_n	n	n/a
32.6995	0.075	65399	keystroke_e	e	n/a
32.8195	0.075	65639	keystroke_Key.space	Key.space	n/a
32.9395	0.0895	65879	keystroke_t	t	n/a
33.014	0.0905	66028	keystroke_h	h	n/a
33.1345	0.09	66269	keystroke_e	e	n/a
33.4645	0.075	66929	keystroke_i	i	n/a
33.6145	0.075	67229	keystroke_r	r	n/a
34.29	0.0755	68580	keystroke_Key.enter	Key.enter	n/a
34.37	13.9825	68740	prompt	n/a	operational welfare aruba blind\n
35.475	0.12	70950	keystroke_o	o	n/a
35.64	0.12	71280	keystroke_p	p	n/a
35.775	0.076	71550	keystroke_e	e	n/a
35.836	0.105	71672	keystroke_r	r	n/a
36.601	0.12	73202	keystroke_a	a	n/a
36.736	0.09	73472	keystroke_t	t	n/a
37.006	0.09	74012	keystroke_i	i	n/a
37.216	0.1505	74432	keystroke_o	o	n/a
37.3215	0.135	74643	keystroke_n	n	n/a
37.4865	0.1045	74973	keystroke_a	a	n/a
37.6365	0.12	75273	keystroke_l	l	n/a
37.8615	0.09	75723	keystroke_Key.space	Key.space	n/a
38.1765	0.165	76353	keystroke_w	w	n/a
38.3425	0.074	76685	keystroke_e	e	n/a
38.4315	0.105	76863	keystroke_l	l	n/a
39.0625	0.09	78125	keystroke_f	f	n/a
39.1225	0.165	78245	keystroke_a	a	n/a
39.3175	0.12	78635	keystroke_r	r	n/a
39.5425	0.12	79085	keystroke_Key.space	Key.space	n/a
40.833	0.0755	81666	keystroke_a	a	n/a
41.118	0.075	82236	keystroke_r	r	n/a
41.5535	0.105	83107	keystroke_u	u	n/a
41.6735	0.12	83347	keystroke_b	b	n/a
42.513	0.12	85026	keystroke_a	a	n/a
43.2335	0.105	86467	keystroke_Key.backspace	Key.backspace	n/a
43.4135	0.0755	86827	keystroke_Key.backspace	Key.backspace	n/a
43.579	0.075	87158	keystroke_Key.backspace	Key.backspace	n/a
43.744	0.075	87488	keystroke_Key.backspace	Key.backspace	n/a
43.909	0.06	87818	keystroke_Key.backspace	Key.backspace	n/a
44.059	0.075	88118	keystroke_Key.backspace	Key.backspace	n/a
44.374	0.075	88748	keystroke_e	e	n/a
44.569	0.09	89138	keystroke_Key.space	Key.space	n/a
44.795	0.119	89590	keystroke_a	a	n/a
45.35	0.09	90700	keystroke_r	r	n/a
45.65	0.075	91300	keystroke_u	u	n/a
45.845	0.045	91690	keystroke_b	b	n/a
45.92	0.09	91840	keystroke_a	a	n/a
46.07	0.0905	92140	keystroke_Key.space	Key.space	n/a
46.986	0.104	93972	keystroke_b	b	n/a
47.271	0.06	94542	keystroke_l	l	n/a
47.541	0.1045	95082	keystroke_i	i	n/a
47.6605	0.1195	95321	keystroke_n	n	n/a
47.765	0.12	95530	keystroke_d	d	n/a
48.186	0.1645	96372	keystroke_Key.enter	Key.enter	n/a
48.3555	8.981	96711	prompt	n/a	entrance fighter shipped inform\n
49.2655	0.09	98531	keystroke_e	e	n/a
49.3405	0.105	98681	keystroke_n	n	n/a
49.4905	0.195	98981	keystroke_t	t	n/a
49.6105	0.105	99221	keystroke_r	r	n/a
49.8205	0.075	99641	keystroke_a	a	n/a
49.9105	0.0895	99821	keystroke_n	n	n/a
50.06	0.105	100120	keystroke_c	c	n/a
50.105	0.105	100210	keystroke_e	e	n/a
50.255	0.09	100510	keystroke_Key.space	Key.space	n/a
50.405	0.075	100810	keystroke_f	f	n/a
50.8705	0.06	101741	keystroke_i	i	n/a
51.11	0.0605	102220	keystroke_g	g	n/a
51.2005	0.0595	102401	keystroke_h	h	n/a
51.35	0.045	102700	keystroke_t	t	n/a
51.71	0.09	103420	keystroke_e	e	n/a
51.755	0.135	103510	keystroke_r	r	n/a
51.995	0.1495	103990	keystroke_Key.space	Key.space	n/a
52.595	0.105	105190	keystroke_s	s	n/a
52.73	0.105	105460	keystroke_h	h	n/a
53.0895	0.075	106179	keystroke_i	i	n/a
53.5555	0.045	107111	keystroke_p	p	n/a
53.765	0.12	107530	keystroke_e	e	n/a
54.365	0.09	108730	keystroke_Key.backspace	Key.backspace	n/a
54.7245	0.105	109449	keystroke_p	p	n/a
54.8895	0.105	109779	keystroke_e	e	n/a
55.2345	0.075	110469	keystroke_d	d	n/a
55.3545	0.1805	110709	keystroke_Key.space	Key.space	n/a
55.7595	0.12	111519	keystroke_i	i	n/a
55.8945	0.1195	111789	keystroke_n	n	n/a
56.4195	0.0755	112839	keystroke_f	f	n/a
56.57	0.0895	113140	keystroke_o	o	n/a
56.7345	0.09	113469	keystroke_r	r	n/a
56.9145	0.09	113829	keystroke_m	m	n/a
57.2295	0.105	114459	keystroke_Key.enter	Key.enter	n/a
57.34	12.1	114680	prompt	n/a	speeches noble i'd href\n
58.3095	0.09	116619	keystroke_s	s	n/a
58.654	0.075	117308	keystroke_p	p	n/a
58.804	0.03	117608	keystroke_e	e	n/a
58.924	0.075	117848	keystroke_e	e	n/a
59.1645	0.12	118329	keystroke_c	c	n/a
59.3295	0.09	118659	keystroke_e	e	n/a
60.139	0.06	120278	keystroke_]	]	n/a
60.754	0.09	121508	keystroke_\	\	n/a
61.1295	0.105	122259	keystroke_Key.backspace	Key.backspace	n/a
61.309	0.1055	122618	keystroke_Key.backspace	Key.backspace	n/a
61.8945	0.105	123789	keystroke_Key.backspace	Key.backspace	n/a
62.5685	0.076	125137	keystroke_h	h	n/a
62.704	0.165	125408	keystroke_e	e	n/a
62.899	0.135	125798	keystroke_s	s	n/a
63.019	0.165	126038	keystroke_Key.space	Key.space	n/a
64.144	0.09	128288	keystroke_n	n	n/a
64.489	0.06	128978	keystroke_o	o	n/a
64.8035	0.06	129607	keystroke_b	b	n/a
65.0585	0.105	130117	keystroke_l	l	n/a
65.2235	0.105	130447	keystroke_e	e	n/a
65.8535	0.105	131707	keystroke_Key.space	Key.space	n/a
66.2585	0.105	132517	keystroke_i	i	n/a
66.5585	0.105	133117	keystroke_'	'	n/a
66.7985	0.12	133597	keystroke_d	d	n/a
67.038	0.105	134076	keystroke_Key.space	Key.space	n/a
68.283	0.06	136566	keystroke_h	h	n/a
68.6125	0.1205	137225	keystroke_r	r	n/a
68.898	0.135	137796	keystroke_e	e	n/a
69.048	0.12	138096	keystroke_f	f	n/a
69.288	0.15	138576	keystroke_Key.enter	Key.enter	n/a
69.4435	17.4545	138887	prompt	n/a	editor officials sweden neighbors\n
70.188	0.0595	140376	keystroke_e	e	n/a
70.5175	0.12	141035	keystroke_d	d	n/a
70.9235	0.1345	141847	keystroke_i	i	n/a
71.178	0.09	142356	keystroke_o	o	n/a
71.358	0.075	142716	keystroke_t	t	n/a
71.6125	0.075	143225	keystroke_r	r	n/a
72.2125	0.09	144425	keystroke_Key.backspace	Key.backspace	n/a
72.3925	0.0595	144785	keystroke_Key.backspace	Key.backspace	n/a
72.5425	0.0905	145085	keystroke_Key.backspace	Key.backspace	n/a
72.7525	0.075	145505	keystroke_t	t	n/a
73.1575	0.09	146315	keystroke_p	p	n/a
73.3525	0.12	146705	keystroke_r	r	n/a
73.7275	0.075	147455	keystroke_Key.backspace	Key.backspace	n/a
73.877	0.06	147754	keystroke_Key.backspace	Key.backspace	n/a
74.028	0.089	148056	keystroke_o	o	n/a
74.133	0.119	148266	keystroke_r	r	n/a
74.5225	0.075	149045	keystroke_Key.space	Key.space	n/a
75.2275	0.075	150455	keystroke_o	o	n/a
75.767	0.06	151534	keystroke_f	f	n/a
75.932	0.09	151864	keystroke_f	f	n/a
76.112	0.105	152224	keystroke_i	i	n/a
76.3075	0.12	152615	keystroke_c	c	n/a
76.4725	0.105	152945	keystroke_a	a	n/a
76.6225	0.12	153245	keystroke_l	l	n/a
77.102	0.075	154204	keystroke_Key.backspace	Key.backspace	n/a
77.267	0.075	154534	keystroke_Key.backspace	Key.backspace	n/a
77.582	0.105	155164	keystroke_i	i	n/a
78.1225	0.12	156245	keystroke_c	c	n/a
78.8265	0.1205	157653	keystroke_Key.backspace	Key.backspace	n/a
79.352	0.075	158704	keystroke_a	a	n/a
79.442	0.12	158884	keystroke_l	l	n/a
79.922	0.075	159844	keystroke_s	s	n/a
80.042	0.09	160084	keystroke_Key.space	Key.space	n/a
80.282	0.075	160564	keystroke_w	w	n/a
80.9265	0.105	161853	keystroke_Key.backspace	Key.backspace	n/a
81.0615	0.0905	162123	keystroke_s	s	n/a
81.632	0.165	163264	keystroke_w	w	n/a
81.767	0.105	163534	keystroke_e	e	n/a
82.097	0.1805	164194	keystroke_d	d	n/a
82.262	0.1205	164524	keystroke_e	e	n/a
82.442	0.1195	164884	keystroke_n	n	n/a
82.7415	0.105	165483	keystroke_Key.space	Key.space	n/a
83.312	0.075	166624	keystroke_n	n	n/a
83.417	0.1345	166834	keystroke_e	e	n/a
83.8965	0.12	167793	keystroke_i	i	n/a
84.1215	0.09	168243	keystroke_g	g	n/a
84.2265	0.09	168453	keystroke_h	h	n/a
84.4365	0.0745	168873	keystroke_b	b	n/a
84.676	0.09	169352	keystroke_o	o	n/a
84.797	0.12	169594	keystroke_r	r	n/a
84.992	0.105	169984	keystroke_s	s	n/a
86.7305	0.165	173461	keystroke_Key.enter	Key.enter	n/a
86.9035	13.7185	173807	prompt	n/a	berlin compiled range family\n
87.9165	0.0445	175833	keystroke_b	b	n/a
88.081	0.075	176162	keystroke_e	e	n/a
88.126	0.105	176252	keystroke_r	r	n/a
88.306	0.09	176612	keystroke_l	l	n/a
88.591	0.135	177182	keystroke_i	i	n/a
88.711	0.1645	177422	keystroke_n	n	n/a
89.0855	0.12	178171	keystroke_Key.space	Key.space	n/a
89.4465	0.1345	178893	keystroke_c	c	n/a
89.6105	0.165	179221	keystroke_o	o	n/a
89.7905	0.09	179581	keystroke_m	m	n/a
90.541	0.12	181082	keystroke_l	l	n/a
91.0655	0.12	182131	keystroke_Key.backspace	Key.backspace	n/a
91.726	0.0895	183452	keystroke_p	p	n/a
91.9805	0.075	183961	keystroke_l	l	n/a
92.536	0.12	185072	keystroke_Key.backspace	Key.backspace	n/a
93.1955	0.075	186391	keystroke_i	i	n/a
93.4655	0.075	186931	keystroke_l	l	n/a
93.721	0.1195	187442	keystroke_e	e	n/a
93.9905	0.105	187981	keystroke_d	d	n/a
94.2755	0.075	188551	keystroke_Key.space	Key.space	n/a
94.4855	0.0905	188971	keystroke_r	r	n/a
94.591	0.12	189182	keystroke_a	a	n/a
94.741	0.09	189482	keystroke_n	n	n/a
94.861	0.1195	189722	keystroke_c	c	n/a
94.936	0.1045	189872	keystroke_e	e	n/a
95.1155	0.105	190231	keystroke_Key.space	Key.space	n/a
95.28	0.0905	190560	keystroke_g	g	n/a
95.7305	0.105	191461	keystroke_Key.backspace	Key.backspace	n/a
96.195	0.09	192390	keystroke_Key.backspace	Key.backspace	n/a
96.375	0.0605	192750	keystroke_Key.backspace	Key.backspace	n/a
96.5105	0.105	193021	keystroke_Key.backspace	Key.backspace	n/a
96.6605	0.09	193321	keystroke_g	g	n/a
96.9005	0.09	193801	keystroke_e	e	n/a
97.125	0.105	194250	keystroke_Key.space	Key.space	n/a
97.3205	0.12	194641	keystroke_d	d	n/a
97.3955	0.135	194791	keystroke_a	a	n/a
97.5155	0.105	195031	keystroke_m	m	n/a
97.6655	0.105	195331	keystroke_i	i	n/a
98.01	0.06	196020	keystroke_Key.backspace	Key.backspace	n/a
98.175	0.075	196350	keystroke_Key.backspace	Key.backspace	n/a
98.355	0.045	196710	keystroke_Key.backspace	Key.backspace	n/a
98.49	0.075	196980	keystroke_Key.backspace	Key.backspace	n/a
99.0895	0.091	198179	keystroke_f	f	n/a
99.1955	0.105	198391	keystroke_a	a	n/a
99.3005	0.09	198601	keystroke_m	m	n/a
99.4655	0.075	198931	keystroke_i	i	n/a
99.675	0.12	199350	keystroke_l	l	n/a
99.93	0.12	199860	keystroke_y	y	n/a
100.4695	0.15	200939	keystroke_Key.enter	Key.enter	n/a
100.625	8.0955	201250	prompt	n/a	yoga important closes feed\n
101.6245	0.075	203249	keystroke_y	y	n/a
101.7595	0.105	203519	keystroke_o	o	n/a
101.909	0.06	203818	keystroke_g	g	n/a
102.089	0.121	204178	keystroke_a	a	n/a
102.6445	0.045	205289	keystroke_Key.space	Key.space	n/a
103.2	0.0895	206400	keystroke_i	i	n/a
103.4095	0.09	206819	keystroke_m	m	n/a
103.6795	0.06	207359	keystroke_p	p	n/a
104.0395	0.09	208079	keystroke_o	o	n/a
104.309	0.105	208618	keystroke_r	r	n/a
104.94	0.03	209880	keystroke_t	t	n/a
105.0895	0.075	210179	keystroke_a	a	n/a
105.2245	0.1055	210449	keystroke_n	n	n/a
105.39	0.0595	210780	keystroke_t	t	n/a
105.4795	0.09	210959	keystroke_Key.space	Key.space	n/a
105.6595	0.12	211319	keystroke_c	c	n/a
105.7945	0.1055	211589	keystroke_l	l	n/a
106.0195	0.075	212039	keystroke_o	o	n/a
106.1245	0.12	212249	keystroke_s	s	n/a
106.2145	0.165	212429	keystroke_e	e	n/a
106.3645	0.105	212729	keystroke_s	s	n/a
106.5285	0.106	213057	keystroke_Key.space	Key.space	n/a
107.759	0.12	215518	keystroke_f	f	n/a
107.894	0.09	215788	keystroke_e	e	n/a
108.164	0.03	216328	keystroke_e	e	n/a
108.4035	0.09	216807	keystroke_d	d	n/a
108.5535	0.1655	217107	keystroke_Key.enter	Key.enter	n/a
108.724	16.78	217448	prompt	n/a	chubby physiology hills disease\n
109.4245	0.12	218849	keystroke_c	c	n/a
109.6045	0.09	219209	keystroke_h	h	n/a
110.009	0.09	220018	keystroke_u	u	n/a
110.189	0.075	220378	keystroke_b	b	n/a
110.369	0.12	220738	keystroke_b	b	n/a
110.579	0.105	221158	keystroke_y	y	n/a
110.789	0.1195	221578	keystroke_b	b	n/a
111.2535	0.075	222507	keystroke_p	p	n/a
111.509	0.075	223018	keystroke_h	h	n/a
112.154	0.06	224308	keystroke_y	y	n/a
112.6035	0.075	225207	keystroke_Key.backspace	Key.backspace	n/a
112.7835	0.06	225567	keystroke_Key.backspace	Key.backspace	n/a
112.9485	0.06	225897	keystroke_Key.backspace	Key.backspace	n/a
113.1135	0.09	226227	keystroke_Key.backspace	Key.backspace	n/a
113.594	0.1195	227188	keystroke_Key.space	Key.space	n/a
114.089	0.074	228178	keystroke_p	p	n/a
114.374	0.075	228748	keystroke_h	h	n/a
114.5685	0.075	229137	keystroke_y	y	n/a
114.7935	0.105	229587	keystroke_s	s	n/a
114.9585	0.09	229917	keystroke_i	i	n/a
115.2885	0.09	230577	keystroke_o	o	n/a
115.603	0.06	231206	keystroke_l	l	n/a
115.768	0.091	231536	keystroke_o	o	n/a
116.099	0.09	232198	keystroke_g	g	n/a
116.294	0.089	232588	keystroke_y	y	n/a
116.623	0.105	233246	keystroke_Key.space	Key.space	n/a
117.1185	0.09	234237	keystroke_h	h	n/a
117.3435	0.105	234687	keystroke_i	i	n/a
117.6135	0.0595	235227	keystroke_s	s	n/a
117.7785	0.09	235557	keystroke_s	s	n/a
118.828	0.105	237656	keystroke_Key.backspace	Key.backspace	n/a
119.023	0.105	238046	keystroke_Key.backspace	Key.backspace	n/a
119.2925	0.105	238585	keystroke_l	l	n/a
119.7435	0.12	239487	keystroke_l	l	n/a
119.983	0.09	239966	keystroke_s	s	n/a
120.223	0.075	240446	keystroke_Key.space	Key.space	n/a
121.078	0.135	242156	keystroke_d	d	n/a
121.183	0.09	242366	keystroke_e	e	n/a
121.288	0.09	242576	keystroke_i	i	n/a
122.1125	0.06	244225	keystroke_Key.backspace	Key.backspace	n/a
122.2625	0.0755	244525	keystroke_Key.backspace	Key.backspace	n/a
122.473	0.105	244946	keystroke_i	i	n/a
122.563	0.18	245126	keystroke_d	d	n/a
122.683	0.105	245366	keystroke_e	e	n/a
122.863	0.12	245726	keystroke_a	a	n/a
123.177	0.061	246354	keystroke_Key.backspace	Key.backspace	n/a
123.343	0.06	246686	keystroke_Key.backspace	Key.backspace	n/a
123.478	0.09	246956	keystroke_Key.backspace	Key.backspace	n/a
124.003	0.1945	248006	keystroke_s	s	n/a
124.1825	0.15	248365	keystroke_e	e	n/a
124.3475	0.18	248695	keystroke_a	a	n/a
124.5725	0.1955	249145	keystroke_s	s	n/a
124.752	0.1055	249504	keystroke_e	e	n/a
125.3825	0.12	250765	keystroke_Key.enter	Key.enter	n/a
125.507	11.741	251014	prompt	n/a	webcam concentrations calm employed\n
126.7775	0.105	253555	keystroke_w	w	n/a
126.807	0.1505	253614	keystroke_e	e	n/a
127.0325	0.09	254065	keystroke_b	b	n/a
127.257	0.1055	254514	keystroke_c	c	n/a
127.3625	0.075	254725	keystroke_a	a	n/a
127.4225	0.135	254845	keystroke_m	m	n/a
127.677	0.09	255354	keystroke_Key.space	Key.space	n/a
128.202	0.06	256404	keystroke_c	c	n/a
128.367	0.12	256734	keystroke_o	o	n/a
128.442	0.12	256884	keystroke_n	n	n/a
128.607	0.12	257214	keystroke_c	c	n/a
128.757	0.105	257514	keystroke_e	e	n/a
129.1325	0.0745	258265	keystroke_n	n	n/a
129.372	0.12	258744	keystroke_t	t	n/a
129.447	0.105	258894	keystroke_r	r	n/a
129.6565	0.075	259313	keystroke_a	a	n/a
129.8065	0.09	259613	keystroke_t	t	n/a
129.9115	0.12	259823	keystroke_i	i	n/a
130.212	0.105	260424	keystroke_o	o	n/a
130.647	0.12	261294	keystroke_n	n	n/a
130.842	0.15	261684	keystroke_s	s	n/a
131.112	0.09	262224	keystroke_Key.space	Key.space	n/a
131.3525	0.09	262705	keystroke_a	a	n/a
131.742	0.105	263484	keystroke_Key.backspace	Key.backspace	n/a
131.892	0.12	263784	keystroke_c	c	n/a
131.982	0.105	263964	keystroke_a	a	n/a
132.7315	0.105	265463	keystroke_l	l	n/a
132.8665	0.12	265733	keystroke_m	m	n/a
133.1365	0.076	266273	keystroke_Key.space	Key.space	n/a
133.272	0.09	266544	keystroke_e	e	n/a
133.332	0.12	266664	keystroke_m	m	n/a
133.512	0.1795	267024	keystroke_p	p	n/a
133.6765	0.075	267353	keystroke_k	k	n/a
134.187	0.105	268374	keystroke_Key.backspace	Key.backspace	n/a
134.532	0.045	269064	keystroke_o	o	n/a
134.9065	0.105	269813	keystroke_Key.backspace	Key.backspace	n/a
135.2365	0.075	270473	keystroke_l	l	n/a
135.447	0.0595	270894	keystroke_o	o	n/a
136.1515	0.075	272303	keystroke_y	y	n/a
136.676	0.06	273352	keystroke_e	e	n/a
136.842	0.12	273684	keystroke_d	d	n/a
137.097	0.149	274194	keystroke_Key.enter	Key.enter	n/a
137.253	11.124	274506	prompt	n/a	directed coding drugs revolutionary\n
138.281	0.03	276562	keystroke_d	d	n/a
138.326	0.12	276652	keystroke_i	i	n/a
138.476	0.106	276952	keystroke_r	r	n/a
138.521	0.1345	277042	keystroke_e	e	n/a
138.7455	0.09	277491	keystroke_c	c	n/a
138.9565	0.105	277913	keystroke_t	t	n/a
139.0465	0.12	278093	keystroke_e	e	n/a
139.2865	0.09	278573	keystroke_d	d	n/a
139.4365	0.1045	278873	keystroke_Key.space	Key.space	n/a
140.0215	0.06	280043	keystroke_c	c	n/a
140.1265	0.09	280253	keystroke_o	o	n/a
140.2315	0.1195	280463	keystroke_d	d	n/a
140.456	0.09	280912	keystroke_i	i	n/a
140.501	0.1345	281002	keystroke_n	n	n/a
140.6055	0.105	281211	keystroke_g	g	n/a
140.7855	0.105	281571	keystroke_Key.space	Key.space	n/a
140.9365	0.06	281873	keystroke_d	d	n/a
141.1015	0.09	282203	keystroke_r	r	n/a
141.2065	0.075	282413	keystroke_u	u	n/a
141.4315	0.0895	282863	keystroke_g	g	n/a
141.6105	0.09	283221	keystroke_s	s	n/a
141.7905	0.121	283581	keystroke_Key.space	Key.space	n/a
142.0315	0.1195	284063	keystroke_r	r	n/a
142.106	0.1195	284212	keystroke_e	e	n/a
142.646	0.12	285292	keystroke_v	v	n/a
143.0815	0.09	286163	keystroke_o	o	n/a
143.711	0.135	287422	keystroke_l	l	n/a
144.086	0.09	288172	keystroke_u	u	n/a
144.4005	0.105	288801	keystroke_t	t	n/a
144.5805	0.075	289161	keystroke_i	i	n/a
144.746	0.165	289492	keystroke_o	o	n/a
144.865	0.1355	289730	keystroke_j	j	n/a
145.0455	0.12	290091	keystroke_a	a	n/a
145.556	0.0595	291112	keystroke_Key.backspace	Key.backspace	n/a
145.7055	0.105	291411	keystroke_Key.backspace	Key.backspace	n/a
146.0805	0.12	292161	keystroke_n	n	n/a
146.65	0.015	293300	keystroke_a	a	n/a
146.801	0.105	293602	keystroke_r	r	n/a
146.981	0.09	293962	keystroke_y	y	n/a
148.2405	0.1345	296481	keystroke_Key.enter	Key.enter	n/a
148.38	5.6965	296760	prompt	n/a	cure pitch poland growth\n
149.125	0.09	298250	keystroke_c	c	n/a
149.26	0.09	298520	keystroke_u	u	n/a
149.365	0.12	298730	keystroke_r	r	n/a
149.47	0.105	298940	keystroke_e	e	n/a
149.56	0.12	299120	keystroke_Key.space	Key.space	n/a
149.7255	0.135	299451	keystroke_p	p	n/a
149.8905	0.105	299781	keystroke_i	i	n/a
150.0255	0.075	300051	keystroke_t	t	n/a
150.2355	0.1045	300471	keystroke_c	c	n/a
150.385	0.075	300770	keystroke_h	h	n/a
150.6255	0.12	301251	keystroke_Key.space	Key.space	n/a
151.316	0.194	302632	keystroke_p	p	n/a
151.5255	0.06	303051	keystroke_o	o	n/a
151.7205	0.09	303441	keystroke_l	l	n/a
151.8555	0.075	303711	keystroke_a	a	n/a
151.9755	0.105	303951	keystroke_n	n	n/a
152.1105	0.12	304221	keystroke_d	d	n/a
152.2755	0.1045	304551	keystroke_Key.space	Key.space	n/a
152.44	0.12	304880	keystroke_g	g	n/a
152.545	0.165	305090	keystroke_r	r	n/a
152.8	0.1195	305600	keystroke_o	o	n/a
152.9345	0.075	305869	keystroke_w	w	n/a
153.13	0.045	306260	keystroke_t	t	n/a
153.205	0.09	306410	keystroke_h	h	n/a
153.925	0.15	307850	keystroke_Key.enter	Key.enter	n/a
154.0795	18.071	308159	prompt	n/a	competition activation barbara penny\n
154.93	0.12	309860	keystroke_c	c	n/a
155.05	0.1795	310100	keystroke_o	o	n/a
155.185	0.1345	310370	keystroke_m	m	n/a
155.3945	0.106	310789	keystroke_p	p	n/a
155.56	0.09	311120	keystroke_e	e	n/a
155.755	0.1045	311510	keystroke_i	i	n/a
155.9045	0.105	311809	keystroke_t	t	n/a
156.07	0.1645	312140	keystroke_i	i	n/a
156.4295	0.09	312859	keystroke_o	o	n/a
156.7595	0.12	313519	keystroke_n	n	n/a
156.9995	0.0895	313999	keystroke_s	s	n/a
157.194	0.0755	314388	keystroke_Key.space	Key.space	n/a
157.54	0.045	315080	keystroke_a	a	n/a
157.9445	0.045	315889	keystroke_Key.backspace	Key.backspace	n/a
158.0345	0.09	316069	keystroke_Key.backspace	Key.backspace	n/a
158.53	0.045	317060	keystroke_Key.space	Key.space	n/a
158.71	0.045	317420	keystroke_Key.backspace	Key.backspace	n/a
158.845	0.09	317690	keystroke_Key.backspace	Key.backspace	n/a
159.0695	0.09	318139	keystroke_Key.space	Key.space	n/a
159.2195	0.105	318439	keystroke_a	a	n/a
159.565	0.1345	319130	keystroke_c	c	n/a
160.6745	0.105	321349	keystroke_Key.backspace	Key.backspace	n/a
160.9145	0.06	321829	keystroke_Key.backspace	Key.backspace	n/a
161.1395	0.06	322279	keystroke_Key.backspace	Key.backspace	n/a
161.365	0.12	322730	keystroke_Key.backspace	Key.backspace	n/a
161.605	0.0745	323210	keystroke_Key.backspace	Key.backspace	n/a
161.8145	0.075	323629	keystroke_Key.backspace	Key.backspace	n/a
162.0245	0.0895	324049	keystroke_Key.backspace	Key.backspace	n/a
162.444	0.135	324888	keystroke_Key.backspace	Key.backspace	n/a
162.849	0.1795	325698	keystroke_t	t	n/a
163.1335	0.091	326267	keystroke_i	i	n/a
163.4345	0.06	326869	keystroke_t	t	n/a
163.584	0.09	327168	keystroke_i	i	n/a
163.839	0.075	327678	keystroke_o	o	n/a
164.289	0.09	328578	keystroke_n	n	n/a
164.5145	0.09	329029	keystroke_Key.space	Key.space	n/a
164.6945	0.1045	329389	keystroke_a	a	n/a
164.919	0.075	329838	keystroke_c	c	n/a
165.129	0.06	330258	keystroke_t	t	n/a
165.219	0.075	330438	keystroke_i	i	n/a
165.5645	0.0895	331129	keystroke_v	v	n/a
165.924	0.105	331848	keystroke_c	c	n/a
166.104	0.06	332208	keystroke_a	a	n/a
166.4485	0.0605	332897	keystroke_Key.backspace	Key.backspace	n/a
166.584	0.0895	333168	keystroke_Key.backspace	Key.backspace	n/a
166.7935	0.075	333587	keystroke_a	a	n/a
166.9885	0.106	333977	keystroke_t	t	n/a
167.3945	0.1195	334789	keystroke_i	i	n/a
167.634	0.105	335268	keystroke_o	o	n/a
167.919	0.09	335838	keystroke_n	n	n/a
168.2195	0.045	336439	keystroke_Key.space	Key.space	n/a
169.014	0.0895	338028	keystroke_b	b	n/a
169.1185	0.105	338237	keystroke_a	a	n/a
169.2685	0.075	338537	keystroke_r	r	n/a
169.704	0.06	339408	keystroke_b	b	n/a
169.824	0.09	339648	keystroke_a	a	n/a
169.9285	0.135	339857	keystroke_r	r	n/a
170.0485	0.105	340097	keystroke_a	a	n/a
170.1835	0.105	340367	keystroke_Key.space	Key.space	n/a
170.919	0.0895	341838	keystroke_p	p	n/a
171.0835	0.105	342167	keystroke_e	e	n/a
171.2035	0.06	342407	keystroke_n	n	n/a
171.3385	0.09	342677	keystroke_n	n	n/a
171.5335	0.105	343067	keystroke_y	y	n/a
172.029	0.12	344058	keystroke_Key.enter	Key.enter	n/a
172.1535	10.631	344307	prompt	n/a	http voted jump connection\n
173.4235	0.06	346847	keystroke_h	h	n/a
173.573	0.06	347146	keystroke_t	t	n/a
173.739	0.059	347478	keystroke_t	t	n/a
173.858	0.121	347716	keystroke_p	p	n/a
174.084	0.1345	348168	keystroke_Key.space	Key.space	n/a
174.7885	0.09	349577	keystroke_v	v	n/a
174.9085	0.1345	349817	keystroke_o	o	n/a
175.073	0.135	350146	keystroke_t	t	n/a
175.223	0.075	350446	keystroke_e	e	n/a
175.418	0.09	350836	keystroke_d	d	n/a
175.613	0.09	351226	keystroke_Key.space	Key.space	n/a
176.0485	0.075	352097	keystroke_j	j	n/a
176.6035	0.135	353207	keystroke_u	u	n/a
176.858	0.105	353716	keystroke_m	m	n/a
177.0685	0.06	354137	keystroke_p	p	n/a
177.4135	0.089	354827	keystroke_Key.space	Key.space	n/a
177.6385	0.089	355277	keystroke_c	c	n/a
178.088	0.06	356176	keystroke_p	p	n/a
178.283	0.075	356566	keystroke_n	n	n/a
178.418	0.0905	356836	keystroke_n	n	n/a
178.5525	0.12	357105	keystroke_e	e	n/a
178.6885	0.105	357377	keystroke_c	c	n/a
178.9285	0.075	357857	keystroke_t	t	n/a
179.363	0.06	358726	keystroke_Key.backspace	Key.backspace	n/a
179.5125	0.0605	359025	keystroke_Key.backspace	Key.backspace	n/a
179.678	0.06	359356	keystroke_Key.backspace	Key.backspace	n/a
179.828	0.06	359656	keystroke_Key.backspace	Key.backspace	n/a
179.9935	0.0595	359987	keystroke_Key.backspace	Key.backspace	n/a
180.128	0.12	360256	keystroke_Key.backspace	Key.backspace	n/a
180.8185	0.1045	361637	keystroke_o	o	n/a
181.013	0.06	362026	keystroke_n	n	n/a
181.133	0.09	362266	keystroke_n	n	n/a
181.343	0.12	362686	keystroke_e	e	n/a
181.493	0.105	362986	keystroke_c	c	n/a
181.718	0.1045	363436	keystroke_t	t	n/a
181.8235	0.074	363647	keystroke_i	i	n/a
182.0175	0.105	364035	keystroke_o	o	n/a
182.1375	0.091	364275	keystroke_n	n	n/a
182.6185	0.1645	365237	keystroke_Key.enter	Key.enter	n/a
182.7885	11.02	365577	prompt	n/a	locate inputs advised enormous\n
183.548	0.0755	367096	keystroke_l	l	n/a
183.7285	0.09	367457	keystroke_o	o	n/a
183.8185	0.1195	367637	keystroke_c	c	n/a
183.923	0.09	367846	keystroke_a	a	n/a
184.118	0.09	368236	keystroke_t	t	n/a
184.223	0.075	368446	keystroke_e	e	n/a
184.433	0.0895	368866	keystroke_Key.space	Key.space	n/a
184.643	0.12	369286	keystroke_i	i	n/a
185.123	0.075	370246	keystroke_n	n	n/a
185.3775	0.165	370755	keystroke_p	p	n/a
186.128	0.0745	372256	keystroke_u	u	n/a
186.2775	0.09	372555	keystroke_t	t	n/a
186.4875	0.12	372975	keystroke_s	s	n/a
186.7125	0.09	373425	keystroke_Key.space	Key.space	n/a
186.9825	0.09	373965	keystroke_a	a	n/a
187.1935	0.104	374387	keystroke_d	d	n/a
187.4325	0.1195	374865	keystroke_v	v	n/a
187.583	0.105	375166	keystroke_i	i	n/a
187.973	0.135	375946	keystroke_s	s	n/a
188.123	0.09	376246	keystroke_e	e	n/a
188.3025	0.09	376605	keystroke_d	d	n/a
188.467	0.09	376934	keystroke_Key.space	Key.space	n/a
188.978	0.12	377956	keystroke_e	e	n/a
189.143	0.09	378286	keystroke_n	n	n/a
189.502	0.09	379004	keystroke_r	r	n/a
190.192	0.09	380384	keystroke_Key.backspace	Key.backspace	n/a
190.477	0.105	380954	keystroke_o	o	n/a
190.702	0.075	381404	keystroke_r	r	n/a
191.212	0.1355	382424	keystroke_o	o	n/a
191.2875	0.12	382575	keystroke_u	u	n/a
191.5125	0.075	383025	keystroke_s	s	n/a
191.8875	0.075	383775	keystroke_Key.backspace	Key.backspace	n/a
192.0525	0.0745	384105	keystroke_Key.backspace	Key.backspace	n/a
192.202	0.09	384404	keystroke_Key.backspace	Key.backspace	n/a
192.472	0.105	384944	keystroke_m	m	n/a
192.8925	0.104	385785	keystroke_o	o	n/a
192.9665	0.121	385933	keystroke_u	u	n/a
193.4625	0.09	386925	keystroke_s	s	n/a
193.6875	0.1195	387375	keystroke_Key.enter	Key.enter	n/a
193.812	6.8665	387624	prompt	n/a	addresses framing mall coat\n
194.3925	0.09	388785	keystroke_a	a	n/a
194.6025	0.06	389205	keystroke_d	d	n/a
194.7675	0.0895	389535	keystroke_d	d	n/a
194.947	0.135	389894	keystroke_r	r	n/a
195.802	0.09	391604	keystroke_e	e	n/a
196.1915	0.075	392383	keystroke_s	s	n/a
196.3725	0.09	392745	keystroke_s	s	n/a
196.552	0.105	393104	keystroke_e	e	n/a
196.627	0.1205	393254	keystroke_s	s	n/a
196.8375	0.12	393675	keystroke_Key.space	Key.space	n/a
197.197	0.075	394394	keystroke_f	f	n/a
197.392	0.1055	394784	keystroke_r	r	n/a
197.5275	0.12	395055	keystroke_a	a	n/a
197.977	0.12	395954	keystroke_m	m	n/a
198.217	0.1345	396434	keystroke_i	i	n/a
198.3065	0.121	396613	keystroke_n	n	n/a
198.517	0.045	397034	keystroke_g	g	n/a
198.622	0.09	397244	keystroke_Key.space	Key.space	n/a
198.757	0.12	397514	keystroke_m	m	n/a
198.892	0.09	397784	keystroke_a	a	n/a
199.027	0.1045	398054	keystroke_l	l	n/a
199.2065	0.09	398413	keystroke_l	l	n/a
199.4765	0.09	398953	keystroke_Key.space	Key.space	n/a
199.6865	0.09	399373	keystroke_c	c	n/a
199.7775	0.09	399555	keystroke_o	o	n/a
199.9115	0.105	399823	keystroke_a	a	n/a
200.1365	0.0755	400273	keystroke_t	t	n/a
200.557	0.12	401114	keystroke_Key.enter	Key.enter	n/a
200.6815	8.2465	401363	prompt	n/a	forward campbell scared personals\n
201.4415	0.0905	402883	keystroke_f	f	n/a
201.622	0.105	403244	keystroke_o	o	n/a
201.682	0.09	403364	keystroke_r	r	n/a
201.847	0.135	403694	keystroke_w	w	n/a
201.967	0.165	403934	keystroke_a	a	n/a
202.102	0.0895	404204	keystroke_r	r	n/a
202.2965	0.09	404593	keystroke_d	d	n/a
202.4465	0.105	404893	keystroke_Key.space	Key.space	n/a
202.5365	0.1505	405073	keystroke_c	c	n/a
202.672	0.075	405344	keystroke_a	a	n/a
202.717	0.1345	405434	keystroke_m	m	n/a
202.9415	0.1505	405883	keystroke_p	p	n/a
203.601	0.06	407202	keystroke_b	b	n/a
203.766	0.06	407532	keystroke_e	e	n/a
204.1565	0.075	408313	keystroke_l	l	n/a
204.3365	0.045	408673	keystroke_l	l	n/a
204.666	0.09	409332	keystroke_Key.space	Key.space	n/a
205.042	0.074	410084	keystroke_s	s	n/a
205.162	0.1195	410324	keystroke_c	c	n/a
205.2515	0.09	410503	keystroke_a	a	n/a
205.4015	0.105	410803	keystroke_r	r	n/a
205.4465	0.105	410893	keystroke_e	e	n/a
205.6415	0.105	411283	keystroke_d	d	n/a
205.7615	0.135	411523	keystroke_Key.space	Key.space	n/a
206.0915	0.06	412183	keystroke_[	[	n/a
206.361	0.075	412722	keystroke_e	e	n/a
206.796	0.075	413592	keystroke_Key.backspace	Key.backspace	n/a
206.931	0.105	413862	keystroke_Key.backspace	Key.backspace	n/a
207.126	0.105	414252	keystroke_p	p	n/a
207.306	0.0755	414612	keystroke_e	e	n/a
207.3655	0.076	414731	keystroke_r	r	n/a
207.561	0.1055	415122	keystroke_s	s	n/a
207.7565	0.12	415513	keystroke_o	o	n/a
207.8915	0.12	415783	keystroke_n	n	n/a
208.0715	0.1045	416143	keystroke_a	a	n/a
208.206	0.136	416412	keystroke_l	l	n/a
208.356	0.106	416712	keystroke_s	s	n/a
208.8215	0.105	417643	keystroke_Key.enter	Key.enter	n/a
208.933	9.4595	417866	prompt	n/a	legislature conclusions financing reasoning\n
209.7215	0.09	419443	keystroke_l	l	n/a
209.8265	0.09	419653	keystroke_e	e	n/a
210.0515	0.075	420103	keystroke_g	g	n/a
210.1415	0.1045	420283	keystroke_i	i	n/a
210.321	0.105	420642	keystroke_s	s	n/a
210.456	0.12	420912	keystroke_l	l	n/a
210.651	0.045	421302	keystroke_a	a	n/a
210.831	0.09	421662	keystroke_t	t	n/a
211.0405	0.09	422081	keystroke_u	u	n/a
211.1755	0.12	422351	keystroke_r	r	n/a
211.2505	0.106	422501	keystroke_e	e	n/a
211.5355	0.09	423071	keystroke_Key.space	Key.space	n/a
211.776	0.105	423552	keystroke_c	c	n/a
211.866	0.12	423732	keystroke_o	o	n/a
212.046	0.105	424092	keystroke_n	n	n/a
212.241	0.1345	424482	keystroke_c	c	n/a
212.5105	0.045	425021	keystroke_l	l	n/a
212.7365	0.1195	425473	keystroke_u	u	n/a
213.1255	0.06	426251	keystroke_s	s	n/a
213.2305	0.075	426461	keystroke_i	i	n/a
213.4715	0.135	426943	keystroke_o	o	n/a
213.8315	0.105	427663	keystroke_n	n	n/a
214.071	0.09	428142	keystroke_s	s	n/a
214.371	0.12	428742	keystroke_Key.space	Key.space	n/a
214.9705	0.105	429941	keystroke_f	f	n/a
215.0605	0.105	430121	keystroke_i	i	n/a
215.1805	0.091	430361	keystroke_n	n	n/a
215.3315	0.075	430663	keystroke_a	a	n/a
215.3915	0.09	430783	keystroke_n	n	n/a
215.5415	0.12	431083	keystroke_c	c	n/a
215.6465	0.0895	431293	keystroke_i	i	n/a
215.706	0.1055	431412	keystroke_n	n	n/a
215.8415	0.1045	431683	keystroke_g	g	n/a
216.156	0.12	432312	keystroke_Key.space	Key.space	n/a
216.6055	0.09	433211	keystroke_r	r	n/a
216.6805	0.06	433361	keystroke_e	e	n/a
216.8605	0.135	433721	keystroke_a	a	n/a
216.9805	0.12	433961	keystroke_s	s	n/a
217.1155	0.105	434231	keystroke_o	o	n/a
217.1915	0.149	434383	keystroke_n	n	n/a
217.5965	0.045	435193	keystroke_i	i	n/a
217.6115	0.105	435223	keystroke_n	n	n/a
217.9855	0.091	435971	keystroke_g	g	n/a
218.226	0.1645	436452	keystroke_Key.enter	Key.enter	n/a
218.397	19.8545	436794	prompt	n/a	saudi inside amplifier modelling\n
219.2605	0.12	438521	keystroke_s	s	n/a
219.3205	0.15	438641	keystroke_a	a	n/a
219.5005	0.0895	439001	keystroke_u	u	n/a
219.65	0.105	439300	keystroke_d	d	n/a
219.921	0.12	439842	keystroke_i	i	n/a
220.206	0.089	440412	keystroke_Key.space	Key.space	n/a
220.791	0.105	441582	keystroke_i	i	n/a
220.926	0.1045	441852	keystroke_n	n	n/a
221.0755	0.09	442151	keystroke_s	s	n/a
221.1665	0.074	442333	keystroke_i	i	n/a
221.3605	0.135	442721	keystroke_d	d	n/a
221.4505	0.105	442901	keystroke_e	e	n/a
221.6455	0.105	443291	keystroke_Key.space	Key.space	n/a
222.065	0.075	444130	keystroke_a	a	n/a
222.185	0.15	444370	keystroke_m	m	n/a
222.456	0.12	444912	keystroke_p	p	n/a
222.8755	0.09	445751	keystroke_l	l	n/a
223.43	0.12	446860	keystroke_o	o	n/a
223.941	0.0595	447882	keystroke_Key.backspace	Key.backspace	n/a
224.1205	0.09	448241	keystroke_i	i	n/a
224.54	0.09	449080	keystroke_f	f	n/a
224.705	0.076	449410	keystroke_i	i	n/a
225.021	0.12	450042	keystroke_e	e	n/a
225.066	0.12	450132	keystroke_r	r	n/a
225.3805	0.09	450761	keystroke_Key.space	Key.space	n/a
225.831	0.09	451662	keystroke_m	m	n/a
226.0105	0.075	452021	keystroke_o	o	n/a
226.1005	0.09	452201	keystroke_d	d	n/a
226.79	0.09	453580	keystroke_e	e	n/a
227.15	0.105	454300	keystroke_l	l	n/a
228.065	0.12	456130	keystroke_l	l	n/a
229.34	0.12	458680	keystroke_Key.backspace	Key.backspace	n/a
229.7145	0.106	459429	keystroke_i	i	n/a
230.1205	0.09	460241	keystroke_n	n	n/a
230.3	0.06	460600	keystroke_g	g	n/a
231.2905	0.09	462581	keystroke_Key.space	Key.space	n/a
233.0145	0.09	466029	keystroke_=	=	n/a
233.3605	0.075	466721	keystroke_Key.backspace	Key.backspace	n/a
233.525	0.06	467050	keystroke_Key.backspace	Key.backspace	n/a
233.6745	0.06	467349	keystroke_Key.backspace	Key.backspace	n/a
233.8395	0.06	467679	keystroke_Key.backspace	Key.backspace	n/a
234.0045	0.09	468009	keystroke_Key.backspace	Key.backspace	n/a
235.91	0.075	471820	keystroke_k	k	n/a
236.255	0.09	472510	keystroke_Key.backspace	Key.backspace	n/a
236.825	0.075	473650	keystroke_l	l	n/a
237.0945	0.12	474189	keystroke_i	i	n/a
237.1395	0.12	474279	keystroke_n	n	n/a
237.3195	0.075	474639	keystroke_g	g	n/a
238.145	0.105	476290	keystroke_Key.enter	Key.enter	n/a
238.254	12.3415	476508	prompt	n/a	combines incomplete actions ratios\n
239.1495	0.09	478299	keystroke_c	c	n/a
239.2095	0.12	478419	keystroke_o	o	n/a
239.3595	0.09	478719	keystroke_m	m	n/a
239.6295	0.075	479259	keystroke_b	b	n/a
239.824	0.06	479648	keystroke_i	i	n/a
239.839	0.105	479678	keystroke_n	n	n/a
239.975	0.075	479950	keystroke_e	e	n/a
240.17	0.06	480340	keystroke_s	s	n/a
240.275	0.12	480550	keystroke_Key.space	Key.space	n/a
240.65	0.105	481300	keystroke_c	c	n/a
240.77	0.1495	481540	keystroke_i	i	n/a
240.8895	0.075	481779	keystroke_m	m	n/a
241.2495	0.06	482499	keystroke_Key.backspace	Key.backspace	n/a
241.3995	0.06	482799	keystroke_Key.backspace	Key.backspace	n/a
241.565	0.0445	483130	keystroke_Key.backspace	Key.backspace	n/a
241.8195	0.105	483639	keystroke_i	i	n/a
241.8645	0.105	483729	keystroke_n	n	n/a
242.2095	0.135	484419	keystroke_c	c	n/a
242.4045	0.0895	484809	keystroke_m	m	n/a
242.704	0.091	485408	keystroke_o	o	n/a
243.0195	0.045	486039	keystroke_Key.backspace	Key.backspace	n/a
243.244	0.015	486488	keystroke_Key.backspace	Key.backspace	n/a
243.394	0.1205	486788	keystroke_o	o	n/a
243.4845	0.105	486969	keystroke_m	m	n/a
243.7545	0.075	487509	keystroke_p	p	n/a
243.7695	0.12	487539	keystroke_l	l	n/a
244.189	0.135	488378	keystroke_e	e	n/a
244.339	0.1355	488678	keystroke_t	t	n/a
244.4595	0.12	488919	keystroke_e	e	n/a
244.6095	0.105	489219	keystroke_Key.space	Key.space	n/a
244.8195	0.09	489639	keystroke_a	a	n/a
244.939	0.105	489878	keystroke_c	c	n/a
245.179	0.09	490358	keystroke_t	t	n/a
245.254	0.105	490508	keystroke_i	i	n/a
245.5095	0.105	491019	keystroke_o	o	n/a
245.959	0.1055	491918	keystroke_n	n	n/a
246.1395	0.12	492279	keystroke_s	s	n/a
246.6195	0.105	493239	keystroke_Key.space	Key.space	n/a
247.1295	0.105	494259	keystroke_r	r	n/a
247.2495	0.105	494499	keystroke_a	a	n/a
247.4145	0.105	494829	keystroke_t	t	n/a
247.5345	0.09	495069	keystroke_i	i	n/a
247.8045	0.0745	495609	keystroke_o	o	n/a
247.88	0.119	495760	keystroke_r	r	n/a
248.044	0.105	496088	keystroke_s	s	n/a
248.434	0.0755	496868	keystroke_Key.backspace	Key.backspace	n/a
248.5545	0.09	497109	keystroke_s	s	n/a
249.034	0.045	498068	keystroke_Key.backspace	Key.backspace	n/a
249.169	0.09	498338	keystroke_Key.backspace	Key.backspace	n/a
249.274	0.09	498548	keystroke_s	s	n/a
250.4435	0.15	500887	keystroke_Key.enter	Key.enter	n/a
250.6005	5.56	501201	prompt	n/a	constraint hook much caring\n
251.374	0.045	502748	keystroke_c	c	n/a
251.524	0.12	503048	keystroke_o	o	n/a
251.584	0.105	503168	keystroke_n	n	n/a
251.674	0.075	503348	keystroke_s	s	n/a
251.854	0.09	503708	keystroke_t	t	n/a
251.899	0.09	503798	keystroke_r	r	n/a
252.094	0.09	504188	keystroke_a	a	n/a
252.2885	0.075	504577	keystroke_i	i	n/a
252.5295	0.1195	505059	keystroke_n	n	n/a
252.694	0.12	505388	keystroke_t	t	n/a
253.024	0.1045	506048	keystroke_Key.space	Key.space	n/a
253.3535	0.075	506707	keystroke_h	h	n/a
253.5495	0.075	507099	keystroke_o	o	n/a
253.6995	0.075	507399	keystroke_o	o	n/a
253.8345	0.09	507669	keystroke_d	d	n/a
253.9395	0.1045	507879	keystroke_Key.space	Key.space	n/a
254.299	0.09	508598	keystroke_m	m	n/a
254.464	0.09	508928	keystroke_u	u	n/a
254.689	0.105	509378	keystroke_c	c	n/a
254.809	0.075	509618	keystroke_h	h	n/a
255.019	0.105	510038	keystroke_Key.space	Key.space	n/a
255.184	0.105	510368	keystroke_c	c	n/a
255.2895	0.0745	510579	keystroke_a	a	n/a
255.424	0.105	510848	keystroke_r	r	n/a
255.619	0.1045	511238	keystroke_i	i	n/a
255.6785	0.135	511357	keystroke_n	n	n/a
255.7985	0.075	511597	keystroke_g	g	n/a
256.0235	0.136	512047	keystroke_Key.enter	Key.enter	n/a
256.1635	8.337	512327	prompt	n/a	taylor banners national widespread\n
257.1045	0.075	514209	keystroke_t	t	n/a
257.2695	0.1045	514539	keystroke_a	a	n/a
257.779	0.1195	515558	keystroke_y	y	n/a
257.9435	0.0755	515887	keystroke_l	l	n/a
258.124	0.09	516248	keystroke_o	o	n/a
258.199	0.105	516398	keystroke_r	r	n/a
258.409	0.1045	516818	keystroke_Key.space	Key.space	n/a
258.5885	0.06	517177	keystroke_b	b	n/a
258.6785	0.105	517357	keystroke_a	a	n/a
258.7985	0.06	517597	keystroke_n	n	n/a
258.9485	0.076	517897	keystroke_n	n	n/a
259.0845	0.105	518169	keystroke_e	e	n/a
259.1145	0.1195	518229	keystroke_r	r	n/a
259.354	0.075	518708	keystroke_s	s	n/a
259.474	0.09	518948	keystroke_Key.space	Key.space	n/a
259.624	0.105	519248	keystroke_n	n	n/a
259.744	0.03	519488	keystroke_a	a	n/a
259.879	0.105	519758	keystroke_t	t	n/a
259.969	0.075	519938	keystroke_i	i	n/a
260.179	0.1345	520358	keystroke_o	o	n/a
260.9445	0.075	521889	keystroke_n	n	n/a
261.079	0.135	522158	keystroke_a	a	n/a
261.229	0.105	522458	keystroke_l	l	n/a
261.424	0.105	522848	keystroke_Key.space	Key.space	n/a
261.619	0.045	523238	keystroke_e	e	n/a
262.0385	0.0905	524077	keystroke_Key.backspace	Key.backspace	n/a
262.1735	0.105	524347	keystroke_w	w	n/a
262.2935	0.09	524587	keystroke_i	i	n/a
262.7135	0.135	525427	keystroke_d	d	n/a
262.9545	0.0895	525909	keystroke_e	e	n/a
263.179	0.06	526358	keystroke_s	s	n/a
263.284	0.105	526568	keystroke_p	p	n/a
263.434	0.1195	526868	keystroke_r	r	n/a
263.5385	0.075	527077	keystroke_e	e	n/a
263.7035	0.12	527407	keystroke_a	a	n/a
263.7635	0.135	527527	keystroke_d	d	n/a
264.349	0.15	528698	keystroke_Key.enter	Key.enter	n/a
264.503	6.5375	529006	prompt	n/a	don't besides exists lion\n
265.2935	0.105	530587	keystroke_d	d	n/a
265.4435	0.105	530887	keystroke_o	o	n/a
265.4885	0.12	530977	keystroke_n	n	n/a
265.7585	0.0745	531517	keystroke_'	'	n/a
265.863	0.105	531726	keystroke_t	t	n/a
266.058	0.121	532116	keystroke_Key.space	Key.space	n/a
266.5985	0.075	533197	keystroke_b	b	n/a
266.7485	0.1195	533497	keystroke_e	e	n/a
267.079	0.045	534158	keystroke_s	s	n/a
267.184	0.075	534368	keystroke_i	i	n/a
267.319	0.15	534638	keystroke_d	d	n/a
267.409	0.105	534818	keystroke_e	e	n/a
267.604	0.09	535208	keystroke_s	s	n/a
267.739	0.09	535478	keystroke_Key.space	Key.space	n/a
267.934	0.06	535868	keystroke_e	e	n/a
268.1585	0.105	536317	keystroke_x	x	n/a
268.5485	0.09	537097	keystroke_i	i	n/a
268.6685	0.105	537337	keystroke_s	s	n/a
268.8785	0.0745	537757	keystroke_t	t	n/a
269.088	0.1055	538176	keystroke_s	s	n/a
269.2685	0.12	538537	keystroke_Key.space	Key.space	n/a
269.5385	0.105	539077	keystroke_l	l	n/a
269.7785	0.075	539557	keystroke_i	i	n/a
270.093	0.136	540186	keystroke_o	o	n/a
270.318	0.12	540636	keystroke_n	n	n/a
270.8885	0.15	541777	keystroke_Key.enter	Key.enter	n/a
271.047	12.053	542094	prompt	n/a	versions disciplinary when's creativity\n
271.998	0.0155	543996	keystroke_v	v	n/a
272.103	0.06	544206	keystroke_e	e	n/a
272.148	0.075	544296	keystroke_r	r	n/a
272.3285	0.12	544657	keystroke_s	s	n/a
272.4635	0.075	544927	keystroke_i	i	n/a
272.7035	0.0895	545407	keystroke_o	o	n/a
272.823	0.09	545646	keystroke_n	n	n/a
273.0185	0.1045	546037	keystroke_s	s	n/a
273.4685	0.075	546937	keystroke_Key.space	Key.space	n/a
273.978	0.12	547956	keystroke_d	d	n/a
274.083	0.105	548166	keystroke_i	i	n/a
274.218	0.075	548436	keystroke_s	s	n/a
274.3985	0.105	548797	keystroke_c	c	n/a
274.4885	0.075	548977	keystroke_i	i	n/a
275.103	0.045	550206	keystroke_p	p	n/a
275.344	0.1045	550688	keystroke_l	l	n/a
275.5835	0.12	551167	keystroke_i	i	n/a
275.6885	0.0905	551377	keystroke_n	n	n/a
275.824	0.0745	551648	keystroke_a	a	n/a
275.9735	0.105	551947	keystroke_r	r	n/a
276.1385	0.0595	552277	keystroke_y	y	n/a
276.393	0.075	552786	keystroke_Key.space	Key.space	n/a
277.0985	0.075	554197	keystroke_w	w	n/a
277.1135	0.135	554227	keystroke_e	e	n/a
277.3985	0.1045	554797	keystroke_h	h	n/a
277.893	0.0605	555786	keystroke_Key.backspace	Key.backspace	n/a
278.0285	0.06	556057	keystroke_Key.backspace	Key.backspace	n/a
278.2835	0.0445	556567	keystroke_g	g	n/a
278.358	0.105	556716	keystroke_e	e	n/a
278.7935	0.045	557587	keystroke_Key.backspace	Key.backspace	n/a
278.9135	0.075	557827	keystroke_Key.backspace	Key.backspace	n/a
279.1535	0.075	558307	keystroke_h	h	n/a
279.2435	0.09	558487	keystroke_e	e	n/a
279.7535	0.105	559507	keystroke_n	n	n/a
280.0985	0.105	560197	keystroke_'	'	n/a
280.2935	0.09	560587	keystroke_s	s	n/a
280.5935	0.1045	561187	keystroke_Key.space	Key.space	n/a
280.953	0.09	561906	keystroke_c	c	n/a
281.1785	0.105	562357	keystroke_r	r	n/a
281.2235	0.105	562447	keystroke_e	e	n/a
281.3735	0.105	562747	keystroke_a	a	n/a
281.553	0.075	563106	keystroke_t	t	n/a
281.673	0.09	563346	keystroke_i	i	n/a
282.078	0.06	564156	keystroke_v	v	n/a
282.243	0.075	564486	keystroke_i	i	n/a
282.3775	0.1055	564755	keystroke_t	t	n/a
282.588	0.09	565176	keystroke_y	y	n/a
282.9175	0.1805	565835	keystroke_Key.enter	Key.enter	n/a
283.111	9.2135	566222	prompt	n/a	intent collectors repeat proposition\n
283.758	0.105	567516	keystroke_i	i	n/a
283.848	0.1195	567696	keystroke_n	n	n/a
283.9385	0.075	567877	keystroke_t	t	n/a
284.0735	0.09	568147	keystroke_e	e	n/a
284.1785	0.06	568357	keystroke_n	n	n/a
284.2835	0.09	568567	keystroke_t	t	n/a
284.3885	0.1045	568777	keystroke_Key.space	Key.space	n/a
284.568	0.075	569136	keystroke_c	c	n/a
284.6275	0.09	569255	keystroke_o	o	n/a
284.8225	0.075	569645	keystroke_l	l	n/a
284.9575	0.076	569915	keystroke_l	l	n/a
285.0625	0.091	570125	keystroke_e	e	n/a
285.1685	0.09	570337	keystroke_c	c	n/a
285.3785	0.075	570757	keystroke_t	t	n/a
285.738	0.045	571476	keystroke_r	r	n/a
285.828	0.09	571656	keystroke_p	p	n/a
286.158	0.075	572316	keystroke_Key.backspace	Key.backspace	n/a
286.2925	0.09	572585	keystroke_Key.backspace	Key.backspace	n/a
286.4575	0.105	572915	keystroke_o	o	n/a
286.5775	0.0905	573155	keystroke_r	r	n/a
286.758	0.09	573516	keystroke_s	s	n/a
286.908	0.09	573816	keystroke_Key.space	Key.space	n/a
287.043	0.105	574086	keystroke_r	r	n/a
287.103	0.12	574206	keystroke_e	e	n/a
287.268	0.1045	574536	keystroke_p	p	n/a
287.538	0.09	575076	keystroke_e	e	n/a
287.613	0.105	575226	keystroke_a	a	n/a
287.8975	0.09	575795	keystroke_r	r	n/a
288.5275	0.09	577055	keystroke_Key.backspace	Key.backspace	n/a
288.6325	0.075	577265	keystroke_t	t	n/a
288.7825	0.105	577565	keystroke_Key.space	Key.space	n/a
288.9475	0.09	577895	keystroke_p	p	n/a
289.0675	0.091	578135	keystroke_r	r	n/a
289.7725	0.165	579545	keystroke_o	o	n/a
289.9075	0.09	579815	keystroke_p	p	n/a
290.133	0.075	580266	keystroke_o	o	n/a
290.553	0.075	581106	keystroke_s	s	n/a
290.7325	0.06	581465	keystroke_i	i	n/a
290.9125	0.075	581825	keystroke_t	t	n/a
290.9725	0.075	581945	keystroke_i	i	n/a
291.333	0.105	582666	keystroke_o	o	n/a
291.573	0.15	583146	keystroke_n	n	n/a
292.2325	0.09	584465	keystroke_Key.enter	Key.enter	n/a
292.329	9.91	584658	prompt	n/a	bryan freeware magnitude royal\n
293.073	0.075	586146	keystroke_b	b	n/a
293.178	0.12	586356	keystroke_r	r	n/a
293.343	0.1045	586686	keystroke_y	y	n/a
293.5525	0.09	587105	keystroke_a	a	n/a
293.5825	0.12	587165	keystroke_n	n	n/a
293.868	0.0595	587736	keystroke_Key.space	Key.space	n/a
294.0775	0.12	588155	keystroke_r	r	n/a
294.4375	0.09	588875	keystroke_Key.backspace	Key.backspace	n/a
294.5725	0.09	589145	keystroke_f	f	n/a
294.7825	0.12	589565	keystroke_r	r	n/a
295.1125	0.075	590225	keystroke_e	e	n/a
295.2625	0.09	590525	keystroke_e	e	n/a
295.6225	0.1055	591245	keystroke_w	w	n/a
295.787	0.106	591574	keystroke_a	a	n/a
295.998	0.105	591996	keystroke_r	r	n/a
296.4625	0.091	592925	keystroke_e	e	n/a
296.747	0.076	593494	keystroke_Key.space	Key.space	n/a
296.957	0.136	593914	keystroke_m	m	n/a
297.048	0.09	594096	keystroke_a	a	n/a
297.8725	0.0755	595745	keystroke_g	g	n/a
298.0675	0.075	596135	keystroke_n	n	n/a
298.2475	0.075	596495	keystroke_i	i	n/a
298.4725	0.0895	596945	keystroke_t	t	n/a
299.853	0.105	599706	keystroke_u	u	n/a
300.123	0.195	600246	keystroke_d	d	n/a
300.273	0.12	600546	keystroke_e	e	n/a
300.618	0.09	601236	keystroke_Key.space	Key.space	n/a
300.8125	0.105	601625	keystroke_r	r	n/a
301.0225	0.105	602045	keystroke_o	o	n/a
301.1425	0.105	602285	keystroke_y	y	n/a
301.3825	0.12	602765	keystroke_a	a	n/a
301.5035	0.104	603007	keystroke_l	l	n/a
302.118	0.12	604236	keystroke_Key.enter	Key.enter	n/a
302.2425	6.7465	604485	prompt	n/a	claim he've golf bomb\n
302.9575	0.0455	605915	keystroke_c	c	n/a
303.018	0.1195	606036	keystroke_l	l	n/a
303.1525	0.0745	606305	keystroke_a	a	n/a
303.257	0.105	606514	keystroke_i	i	n/a
303.377	0.1355	606754	keystroke_m	m	n/a
303.9775	0.09	607955	keystroke_Key.space	Key.space	n/a
304.1875	0.0595	608375	keystroke_g	g	n/a
304.277	0.0905	608554	keystroke_e	e	n/a
304.6975	0.075	609395	keystroke_Key.backspace	Key.backspace	n/a
304.8475	0.075	609695	keystroke_Key.backspace	Key.backspace	n/a
305.0425	0.09	610085	keystroke_h	h	n/a
305.147	0.075	610294	keystroke_e	e	n/a
305.297	0.09	610594	keystroke_'	'	n/a
305.492	0.105	610984	keystroke_v	v	n/a
305.627	0.0755	611254	keystroke_e	e	n/a
305.8525	0.09	611705	keystroke_Key.space	Key.space	n/a
306.858	0.075	613716	keystroke_g	g	n/a
306.948	0.0745	613896	keystroke_o	o	n/a
307.143	0.1045	614286	keystroke_l	l	n/a
307.3975	0.1045	614795	keystroke_f	f	n/a
307.547	0.09	615094	keystroke_Key.space	Key.space	n/a
307.757	0.06	615514	keystroke_b	b	n/a
307.968	0.09	615936	keystroke_o	o	n/a
308.2525	0.06	616505	keystroke_m	m	n/a
308.4475	0.075	616895	keystroke_b	b	n/a
308.8825	0.1045	617765	keystroke_Key.enter	Key.enter	n/a
308.994	10.6595	617988	prompt	n/a	electron estimates same disappointed\n
309.797	0.075	619594	keystroke_e	e	n/a
310.0075	0.09	620015	keystroke_x	x	n/a
310.4275	0.09	620855	keystroke_l	l	n/a
310.9375	0.045	621875	keystroke_Key.backspace	Key.backspace	n/a
311.057	0.09	622114	keystroke_Key.backspace	Key.backspace	n/a
311.2365	0.106	622473	keystroke_l	l	n/a
311.3575	0.12	622715	keystroke_e	e	n/a
311.5825	0.105	623165	keystroke_c	c	n/a
311.8375	0.12	623675	keystroke_t	t	n/a
311.8975	0.105	623795	keystroke_r	r	n/a
312.452	0.1205	624904	keystroke_o	o	n/a
312.6175	0.09	625235	keystroke_n	n	n/a
313.4725	0.075	626945	keystroke_Key.space	Key.space	n/a
313.7275	0.075	627455	keystroke_e	e	n/a
313.9075	0.075	627815	keystroke_s	s	n/a
314.1175	0.105	628235	keystroke_t	t	n/a
314.237	0.12	628474	keystroke_i	i	n/a
314.477	0.075	628954	keystroke_m	m	n/a
314.553	0.104	629106	keystroke_a	a	n/a
314.762	0.105	629524	keystroke_t	t	n/a
314.822	0.105	629644	keystroke_e	e	n/a
315.047	0.091	630094	keystroke_s	s	n/a
315.152	0.09	630304	keystroke_Key.space	Key.space	n/a
315.362	0.1205	630724	keystroke_s	s	n/a
315.4675	0.12	630935	keystroke_a	a	n/a
315.6025	0.09	631205	keystroke_m	m	n/a
315.7075	0.105	631415	keystroke_e	e	n/a
315.8875	0.105	631775	keystroke_Key.space	Key.space	n/a
316.232	0.09	632464	keystroke_d	d	n/a
316.337	0.075	632674	keystroke_i	i	n/a
316.457	0.09	632914	keystroke_s	s	n/a
316.6225	0.09	633245	keystroke_s	s	n/a
316.7575	0.105	633515	keystroke_a	a	n/a
316.8775	0.135	633755	keystroke_p	p	n/a
317.7625	0.09	635525	keystroke_i	i	n/a
318.272	0.105	636544	keystroke_Key.backspace	Key.backspace	n/a
318.482	0.105	636964	keystroke_o	o	n/a
318.722	0.12	637444	keystroke_i	i	n/a
318.857	0.121	637714	keystroke_n	n	n/a
319.037	0.1055	638074	keystroke_t	t	n/a
319.1575	0.09	638315	keystroke_e	e	n/a
319.337	0.0905	638674	keystroke_d	d	n/a
319.5025	0.15	639005	keystroke_Key.enter	Key.enter	n/a
319.6565	8.172	639313	prompt	n/a	college mime boston information\n
320.357	0.03	640714	keystroke_e	e	n/a
320.6725	0.0745	641345	keystroke_Key.backspace	Key.backspace	n/a
320.792	0.0905	641584	keystroke_c	c	n/a
320.9275	0.075	641855	keystroke_o	o	n/a
321.1075	0.06	642215	keystroke_l	l	n/a
321.2575	0.06	642515	keystroke_l	l	n/a
321.4525	0.045	642905	keystroke_e	e	n/a
321.5275	0.15	643055	keystroke_g	g	n/a
321.6925	0.1045	643385	keystroke_e	e	n/a
321.857	0.075	643714	keystroke_Key.space	Key.space	n/a
322.0825	0.105	644165	keystroke_m	m	n/a
322.3225	0.06	644645	keystroke_m	m	n/a
322.742	0.045	645484	keystroke_Key.backspace	Key.backspace	n/a
322.9975	0.105	645995	keystroke_i	i	n/a
323.0575	0.09	646115	keystroke_m	m	n/a
323.2375	0.075	646475	keystroke_e	e	n/a
323.3725	0.119	646745	keystroke_Key.space	Key.space	n/a
323.7775	0.09	647555	keystroke_b	b	n/a
324.0175	0.09	648035	keystroke_o	o	n/a
324.1525	0.105	648305	keystroke_s	s	n/a
324.377	0.045	648754	keystroke_t	t	n/a
324.407	0.135	648814	keystroke_o	o	n/a
324.482	0.12	648964	keystroke_n	n	n/a
324.752	0.0745	649504	keystroke_Key.space	Key.space	n/a
324.8425	0.1645	649685	keystroke_i	i	n/a
324.977	0.12	649954	keystroke_n	n	n/a
325.217	0.105	650434	keystroke_f	f	n/a
325.307	0.0895	650614	keystroke_o	o	n/a
325.772	0.12	651544	keystroke_r	r	n/a
325.937	0.09	651874	keystroke_m	m	n/a
326.072	0.06	652144	keystroke_a	a	n/a
326.207	0.0895	652414	keystroke_t	t	n/a
326.6725	0.12	653345	keystroke_i	i	n/a
326.9725	0.03	653945	keystroke_o	o	n/a
327.272	0.075	654544	keystroke_n	n	n/a
327.707	0.12	655414	keystroke_Key.enter	Key.enter	n/a
327.835	6.9085	655670	prompt	n/a	fighting maple viewing danny\n
328.5615	0.091	657123	keystroke_f	f	n/a
328.6375	0.06	657275	keystroke_i	i	n/a
328.7875	0.0895	657575	keystroke_g	g	n/a
328.8475	0.0895	657695	keystroke_h	h	n/a
329.0265	0.075	658053	keystroke_t	t	n/a
329.0715	0.105	658143	keystroke_i	i	n/a
329.1165	0.135	658233	keystroke_n	n	n/a
329.2365	0.09	658473	keystroke_g	g	n/a
329.4015	0.12	658803	keystroke_Key.space	Key.space	n/a
329.5065	0.121	659013	keystroke_m	m	n/a
329.6125	0.075	659225	keystroke_a	a	n/a
329.7475	0.165	659495	keystroke_p	p	n/a
330.3015	0.09	660603	keystroke_k	k	n/a
330.4965	0.076	660993	keystroke_e	e	n/a
330.827	0.06	661654	keystroke_Key.backspace	Key.backspace	n/a
330.962	0.0595	661924	keystroke_Key.backspace	Key.backspace	n/a
331.2165	0.0905	662433	keystroke_l	l	n/a
331.412	0.0745	662824	keystroke_e	e	n/a
331.5765	0.12	663153	keystroke_Key.space	Key.space	n/a
332.237	0.075	664474	keystroke_v	v	n/a
332.313	0.104	664626	keystroke_i	i	n/a
332.552	0.075	665104	keystroke_e	e	n/a
332.582	0.105	665164	keystroke_w	w	n/a
332.732	0.105	665464	keystroke_i	i	n/a
332.807	0.12	665614	keystroke_n	n	n/a
332.942	0.09	665884	keystroke_g	g	n/a
333.107	0.1045	666214	keystroke_Key.space	Key.space	n/a
333.962	0.06	667924	keystroke_d	d	n/a
334.007	0.03	668014	keystroke_a	a	n/a
334.052	0.015	668104	keystroke_n	n	n/a
334.097	0.0745	668194	keystroke_n	n	n/a
334.322	0.06	668644	keystroke_y	y	n/a
334.622	0.12	669244	keystroke_Key.enter	Key.enter	n/a
334.747	11.1565	669494	prompt	n/a	chart philip complaint continue\n
335.627	0.09	671254	keystroke_c	c	n/a
335.702	0.075	671404	keystroke_h	h	n/a
335.792	0.0895	671584	keystroke_a	a	n/a
335.8675	0.105	671735	keystroke_r	r	n/a
336.077	0.09	672154	keystroke_t	t	n/a
336.212	0.09	672424	keystroke_Key.space	Key.space	n/a
336.602	0.105	673204	keystroke_p	p	n/a
336.917	0.075	673834	keystroke_h	h	n/a
337.6225	0.1045	675245	keystroke_i	i	n/a
337.997	0.105	675994	keystroke_l	l	n/a
338.297	0.0895	676594	keystroke_i	i	n/a
338.552	0.15	677104	keystroke_p	p	n/a
338.8665	0.09	677733	keystroke_Key.space	Key.space	n/a
339.0915	0.12	678183	keystroke_c	c	n/a
339.5875	0.1495	679175	keystroke_o	o	n/a
339.707	0.1345	679414	keystroke_m	m	n/a
339.9615	0.1955	679923	keystroke_p	p	n/a
340.472	0.105	680944	keystroke_l	l	n/a
340.6965	0.105	681393	keystroke_a	a	n/a
340.8465	0.105	681693	keystroke_i	i	n/a
340.9215	0.12	681843	keystroke_n	n	n/a
341.1465	0.105	682293	keystroke_t	t	n/a
341.4915	0.105	682983	keystroke_Key.space	Key.space	n/a
341.8365	0.15	683673	keystroke_o	o	n/a
342.287	0.09	684574	keystroke_Key.backspace	Key.backspace	n/a
342.362	0.135	684724	keystroke_c	c	n/a
342.617	0.135	685234	keystroke_o	o	n/a
342.677	0.12	685354	keystroke_n	n	n/a
343.142	0.075	686284	keystroke_t	t	n/a
343.3365	0.075	686673	keystroke_i	i	n/a
343.5615	0.105	687123	keystroke_n	n	n/a
343.7115	0.105	687423	keystroke_u	u	n/a
343.9215	0.105	687843	keystroke_t	t	n/a
344.1915	0.06	688383	keystroke_e	e	n/a
344.522	0.075	689044	keystroke_Key.backspace	Key.backspace	n/a
344.672	0.09	689344	keystroke_Key.backspace	Key.backspace	n/a
344.747	0.09	689494	keystroke_r	r	n/a
345.1215	0.09	690243	keystroke_Key.backspace	Key.backspace	n/a
345.1965	0.105	690393	keystroke_e	e	n/a
345.7365	0.1655	691473	keystroke_Key.enter	Key.enter	n/a
345.907	7.5415	691814	prompt	n/a	blue specialized rally ages\n
346.9065	0.06	693813	keystroke_b	b	n/a
347.3265	0.105	694653	keystroke_l	l	n/a
347.5365	0.09	695073	keystroke_u	u	n/a
347.6565	0.1045	695313	keystroke_e	e	n/a
347.837	0.12	695674	keystroke_Key.space	Key.space	n/a
348.137	0.12	696274	keystroke_s	s	n/a
348.272	0.09	696544	keystroke_p	p	n/a
348.392	0.075	696784	keystroke_e	e	n/a
348.677	0.1045	697354	keystroke_c	c	n/a
348.8715	0.075	697743	keystroke_i	i	n/a
349.0065	0.075	698013	keystroke_a	a	n/a
349.1265	0.135	698253	keystroke_l	l	n/a
349.367	0.09	698734	keystroke_i	i	n/a
349.9815	0.12	699963	keystroke_z	z	n/a
350.2665	0.105	700533	keystroke_e	e	n/a
350.4915	0.105	700983	keystroke_d	d	n/a
350.6865	0.075	701373	keystroke_Key.space	Key.space	n/a
350.8665	0.09	701733	keystroke_r	r	n/a
350.9715	0.1355	701943	keystroke_a	a	n/a
351.137	0.075	702274	keystroke_l	l	n/a
351.272	0.09	702544	keystroke_l	l	n/a
351.392	0.1195	702784	keystroke_y	y	n/a
351.6015	0.09	703203	keystroke_Key.space	Key.space	n/a
351.7065	0.105	703413	keystroke_a	a	n/a
351.976	0.03	703952	keystroke_h	h	n/a
352.4865	0.105	704973	keystroke_Key.backspace	Key.backspace	n/a
352.6065	0.105	705213	keystroke_g	g	n/a
352.8165	0.0595	705633	keystroke_e	e	n/a
352.996	0.121	705992	keystroke_s	s	n/a
353.252	0.195	706504	keystroke_Key.enter	Key.enter	n/a
353.4525	9.9405	706905	prompt	n/a	rounds lyrics accordingly johnston\n
354.137	0.12	708274	keystroke_s	s	n/a
354.287	0.1645	708574	keystroke_o	o	n/a
354.362	0.1045	708724	keystroke_u	u	n/a
354.6015	0.09	709203	keystroke_n	n	n/a
354.6765	0.1355	709353	keystroke_d	d	n/a
354.767	0.0895	709534	keystroke_s	s	n/a
354.8715	0.135	709743	keystroke_Key.space	Key.space	n/a
355.0215	0.12	710043	keystroke_l	l	n/a
355.2165	0.09	710433	keystroke_y	y	n/a
355.4115	0.075	710823	keystroke_r	r	n/a
355.5165	0.105	711033	keystroke_i	i	n/a
355.726	0.105	711452	keystroke_c	c	n/a
355.816	0.09	711632	keystroke_s	s	n/a
356.387	0.075	712774	keystroke_Key.space	Key.space	n/a
356.567	0.09	713134	keystroke_a	a	n/a
356.867	0.045	713734	keystroke_c	c	n/a
357.0165	0.075	714033	keystroke_c	c	n/a
357.1665	0.12	714333	keystroke_o	o	n/a
357.3315	0.075	714663	keystroke_r	r	n/a
357.5415	0.105	715083	keystroke_d	d	n/a
357.8115	0.1345	715623	keystroke_i	i	n/a
357.961	0.12	715922	keystroke_n	n	n/a
358.097	0.074	716194	keystroke_g	g	n/a
358.277	0.135	716554	keystroke_l	l	n/a
358.472	0.135	716944	keystroke_y	y	n/a
358.7715	0.1345	717543	keystroke_Key.space	Key.space	n/a
359.3865	0.105	718773	keystroke_h	h	n/a
359.5965	0.0895	719193	keystroke_o	o	n/a
360.482	0.075	720964	keystroke_Key.backspace	Key.backspace	n/a
360.6315	0.09	721263	keystroke_Key.backspace	Key.backspace	n/a
360.8865	0.12	721773	keystroke_j	j	n/a
361.201	0.03	722402	keystroke_o	o	n/a
361.772	0.0895	723544	keystroke_h	h	n/a
361.9365	0.09	723873	keystroke_n	n	n/a
362.0565	0.09	724113	keystroke_s	s	n/a
362.2665	0.06	724533	keystroke_t	t	n/a
362.3565	0.165	724713	keystroke_o	o	n/a
362.4615	0.12	724923	keystroke_n	n	n/a
363.242	0.1495	726484	keystroke_Key.enter	Key.enter	n/a
363.396	7.752	726792	prompt	n/a	prints inspector creations overall\n
364.1265	0.105	728253	keystroke_p	p	n/a
364.2765	0.075	728553	keystroke_r	r	n/a
364.4115	0.135	728823	keystroke_o	o	n/a
364.5615	0.135	729123	keystroke_n	n	n/a
364.981	0.06	729962	keystroke_Key.backspace	Key.backspace	n/a
365.116	0.075	730232	keystroke_Key.backspace	Key.backspace	n/a
365.372	0.06	730744	keystroke_i	i	n/a
365.387	0.12	730774	keystroke_n	n	n/a
365.492	0.089	730984	keystroke_t	t	n/a
365.717	0.1345	731434	keystroke_s	s	n/a
366.0165	0.105	732033	keystroke_Key.space	Key.space	n/a
366.4365	0.12	732873	keystroke_i	i	n/a
366.5115	0.1195	733023	keystroke_n	n	n/a
366.601	0.105	733202	keystroke_s	s	n/a
366.781	0.09	733562	keystroke_p	p	n/a
366.856	0.09	733712	keystroke_e	e	n/a
367.0665	0.06	734133	keystroke_c	c	n/a
367.2315	0.09	734463	keystroke_t	t	n/a
367.3365	0.0905	734673	keystroke_o	o	n/a
367.471	0.091	734942	keystroke_r	r	n/a
367.7715	0.15	735543	keystroke_Key.space	Key.space	n/a
368.176	0.12	736352	keystroke_c	c	n/a
368.4465	0.075	736893	keystroke_r	r	n/a
368.4765	0.105	736953	keystroke_e	e	n/a
368.6565	0.06	737313	keystroke_a	a	n/a
368.911	0.105	737822	keystroke_t	t	n/a
369.241	0.106	738482	keystroke_i	i	n/a
369.5115	0.105	739023	keystroke_o	o	n/a
369.6015	0.105	739203	keystroke_n	n	n/a
369.7215	0.1195	739443	keystroke_s	s	n/a
369.901	0.09	739802	keystroke_Key.space	Key.space	n/a
370.021	0.09	740042	keystroke_o	o	n/a
370.112	0.089	740224	keystroke_v	v	n/a
370.321	0.06	740642	keystroke_e	e	n/a
370.337	0.105	740674	keystroke_r	r	n/a
370.517	0.09	741034	keystroke_a	a	n/a
370.622	0.0895	741244	keystroke_l	l	n/a
370.7865	0.075	741573	keystroke_l	l	n/a
371.0415	0.1045	742083	keystroke_Key.enter	Key.enter	n/a
371.1515	11.1865	742303	prompt	n/a	veterinary cologne outlook cellular\n
372.241	0.075	744482	keystroke_v	v	n/a
372.406	0.1055	744812	keystroke_e	e	n/a
372.6315	0.0905	745263	keystroke_t	t	n/a
372.796	0.106	745592	keystroke_e	e	n/a
372.841	0.1055	745682	keystroke_r	r	n/a
372.9915	0.06	745983	keystroke_n	n	n/a
373.8315	0.09	747663	keystroke_Key.backspace	Key.backspace	n/a
374.131	0.0905	748262	keystroke_i	i	n/a
374.2065	0.135	748413	keystroke_n	n	n/a
374.5965	0.09	749193	keystroke_a	a	n/a
374.791	0.105	749582	keystroke_r	r	n/a
374.972	0.074	749944	keystroke_y	y	n/a
375.4665	0.06	750933	keystroke_Key.space	Key.space	n/a
375.6315	0.12	751263	keystroke_c	c	n/a
375.7215	0.105	751443	keystroke_o	o	n/a
375.9315	0.09	751863	keystroke_l	l	n/a
376.1265	0.0595	752253	keystroke_o	o	n/a
376.351	0.075	752702	keystroke_g	g	n/a
376.756	0.09	753512	keystroke_n	n	n/a
376.921	0.09	753842	keystroke_e	e	n/a
377.221	0.105	754442	keystroke_Key.space	Key.space	n/a
377.551	0.105	755102	keystroke_o	o	n/a
377.701	0.105	755402	keystroke_u	u	n/a
377.836	0.105	755672	keystroke_t	t	n/a
378.076	0.075	756152	keystroke_l	l	n/a
378.316	0.061	756632	keystroke_o	o	n/a
378.481	0.0895	756962	keystroke_o	o	n/a
378.8115	0.105	757623	keystroke_k	k	n/a
379.2465	0.105	758493	keystroke_Key.space	Key.space	n/a
379.516	0.135	759032	keystroke_c	c	n/a
379.666	0.075	759332	keystroke_e	e	n/a
379.771	0.21	759542	keystroke_l	l	n/a
380.131	0.12	760262	keystroke_l	l	n/a
381.0755	0.076	762151	keystroke_u	u	n/a
381.3615	0.0745	762723	keystroke_l	l	n/a
381.631	0.165	763262	keystroke_a	a	n/a
381.781	0.106	763562	keystroke_r	r	n/a
382.216	0.12	764432	keystroke_Key.enter	Key.enter	n/a
382.341	11.2915	764682	prompt	n/a	meyer switching classified infection\n
383.251	0.0595	766502	keystroke_m	m	n/a
383.521	0.105	767042	keystroke_e	e	n/a
383.686	0.09	767372	keystroke_y	y	n/a
383.836	0.15	767672	keystroke_e	e	n/a
384.3905	0.045	768781	keystroke_t	t	n/a
384.991	0.105	769982	keystroke_Key.backspace	Key.backspace	n/a
385.141	0.015	770282	keystroke_r	r	n/a
385.216	0.0895	770432	keystroke_Key.space	Key.space	n/a
385.3355	0.09	770671	keystroke_s	s	n/a
385.5305	0.075	771061	keystroke_w	w	n/a
385.6215	0.09	771243	keystroke_i	i	n/a
385.7565	0.09	771513	keystroke_t	t	n/a
385.9515	0.105	771903	keystroke_c	c	n/a
386.236	0.06	772472	keystroke_h	h	n/a
386.476	0.09	772952	keystroke_i	i	n/a
386.536	0.135	773072	keystroke_n	n	n/a
386.672	0.104	773344	keystroke_g	g	n/a
386.896	0.12	773792	keystroke_Key.space	Key.space	n/a
387.3305	0.075	774661	keystroke_c	c	n/a
387.796	0.09	775592	keystroke_l	l	n/a
387.931	0.1345	775862	keystroke_a	a	n/a
388.036	0.1055	776072	keystroke_s	s	n/a
388.231	0.09	776462	keystroke_s	s	n/a
388.381	0.09	776762	keystroke_i	i	n/a
388.486	0.105	776972	keystroke_f	f	n/a
388.606	0.09	777212	keystroke_i	i	n/a
389.8215	0.06	779643	keystroke_e	e	n/a
390.0015	0.09	780003	keystroke_d	d	n/a
390.1515	0.09	780303	keystroke_Key.space	Key.space	n/a
391.081	0.09	782162	keystroke_i	i	n/a
391.111	0.1655	782222	keystroke_n	n	n/a
391.3665	0.134	782733	keystroke_f	f	n/a
391.5155	0.0605	783031	keystroke_e	e	n/a
391.7265	0.0595	783453	keystroke_c	c	n/a
391.921	0.12	783842	keystroke_t	t	n/a
392.056	0.12	784112	keystroke_i	i	n/a
392.266	0.15	784532	keystroke_o	o	n/a
392.386	0.1205	784772	keystroke_j	j	n/a
392.896	0.06	785792	keystroke_Key.backspace	Key.backspace	n/a
393.1655	0.06	786331	keystroke_n	n	n/a
393.496	0.135	786992	keystroke_Key.enter	Key.enter	n/a
393.6355	8.862	787271	prompt	n/a	paperback motivated element spanking\n
394.696	0.12	789392	keystroke_p	p	n/a
394.861	0.105	789722	keystroke_a	a	n/a
394.951	0.105	789902	keystroke_p	p	n/a
395.131	0.09	790262	keystroke_e	e	n/a
395.161	0.1195	790322	keystroke_r	r	n/a
395.506	0.075	791012	keystroke_b	b	n/a
395.6255	0.075	791251	keystroke_a	a	n/a
395.7305	0.121	791461	keystroke_c	c	n/a
396.2115	0.09	792423	keystroke_k	k	n/a
396.556	0.105	793112	keystroke_Key.space	Key.space	n/a
396.721	0.12	793442	keystroke_m	m	n/a
396.886	0.105	793772	keystroke_o	o	n/a
397.066	0.06	794132	keystroke_t	t	n/a
397.141	0.105	794282	keystroke_i	i	n/a
397.3655	0.1055	794731	keystroke_v	v	n/a
397.501	0.105	795002	keystroke_a	a	n/a
397.666	0.105	795332	keystroke_t	t	n/a
397.756	0.09	795512	keystroke_e	e	n/a
397.966	0.09	795932	keystroke_d	d	n/a
398.1615	0.105	796323	keystroke_Key.space	Key.space	n/a
398.6855	0.091	797371	keystroke_e	e	n/a
398.8205	0.105	797641	keystroke_l	l	n/a
398.9555	0.106	797911	keystroke_e	e	n/a
399.0465	0.105	798093	keystroke_m	m	n/a
399.6005	0.075	799201	keystroke_e	e	n/a
399.706	0.105	799412	keystroke_n	n	n/a
399.826	0.1195	799652	keystroke_t	t	n/a
399.9605	0.105	799921	keystroke_Key.space	Key.space	n/a
400.1255	0.105	800251	keystroke_s	s	n/a
400.2155	0.091	800431	keystroke_p	p	n/a
400.6965	0.075	801393	keystroke_a	a	n/a
400.816	0.06	801632	keystroke_k	k	n/a
401.176	0.09	802352	keystroke_Key.backspace	Key.backspace	n/a
401.431	0.135	802862	keystroke_n	n	n/a
401.596	0.0605	803192	keystroke_k	k	n/a
401.866	0.12	803732	keystroke_i	i	n/a
401.896	0.15	803792	keystroke_n	n	n/a
402.061	0.075	804122	keystroke_g	g	n/a
402.376	0.12	804752	keystroke_Key.enter	Key.enter	n/a
402.5015	5.187	805003	prompt	n/a	wins minus becomes party\n
403.5315	0.09	807063	keystroke_w	w	n/a
403.5615	0.105	807123	keystroke_i	i	n/a
403.6365	0.09	807273	keystroke_n	n	n/a
403.8315	0.09	807663	keystroke_s	s	n/a
403.9665	0.1045	807933	keystroke_Key.space	Key.space	n/a
404.131	0.135	808262	keystroke_m	m	n/a
404.341	0.075	808682	keystroke_i	i	n/a
404.491	0.09	808982	keystroke_n	n	n/a
404.656	0.075	809312	keystroke_u	u	n/a
404.896	0.09	809792	keystroke_s	s	n/a
405.046	0.105	810092	keystroke_Key.space	Key.space	n/a
405.301	0.09	810602	keystroke_b	b	n/a
405.406	0.09	810812	keystroke_e	e	n/a
405.616	0.09	811232	keystroke_c	c	n/a
405.691	0.135	811382	keystroke_o	o	n/a
406.066	0.09	812132	keystroke_m	m	n/a
406.201	0.075	812402	keystroke_e	e	n/a
406.396	0.0595	812792	keystroke_s	s	n/a
406.4705	0.106	812941	keystroke_Key.space	Key.space	n/a
406.636	0.105	813272	keystroke_p	p	n/a
406.726	0.105	813452	keystroke_a	a	n/a
406.906	0.165	813812	keystroke_r	r	n/a
407.026	0.12	814052	keystroke_t	t	n/a
407.266	0.105	814532	keystroke_y	y	n/a
407.5355	0.15	815071	keystroke_Key.enter	Key.enter	n/a
407.6915	10.751	815383	prompt	n/a	margaret missed bios amenities\n
408.361	0.09	816722	keystroke_m	m	n/a
408.466	0.075	816932	keystroke_a	a	n/a
408.616	0.075	817232	keystroke_r	r	n/a
408.721	0.09	817442	keystroke_a	a	n/a
408.931	0.06	817862	keystroke_g	g	n/a
409.2005	0.12	818401	keystroke_r	r	n/a
409.3355	0.0905	818671	keystroke_e	e	n/a
409.561	0.09	819122	keystroke_t	t	n/a
409.801	0.06	819602	keystroke_Key.space	Key.space	n/a
410.5055	0.075	821011	keystroke_Key.backspace	Key.backspace	n/a
410.671	0.06	821342	keystroke_Key.backspace	Key.backspace	n/a
410.836	0.06	821672	keystroke_Key.backspace	Key.backspace	n/a
410.971	0.0745	821942	keystroke_Key.backspace	Key.backspace	n/a
411.1205	0.06	822241	keystroke_Key.backspace	Key.backspace	n/a
411.2555	0.075	822511	keystroke_Key.backspace	Key.backspace	n/a
412.0515	0.09	824103	keystroke_g	g	n/a
412.711	0.075	825422	keystroke_a	a	n/a
412.996	0.105	825992	keystroke_r	r	n/a
413.071	0.09	826142	keystroke_e	e	n/a
413.251	0.09	826502	keystroke_t	t	n/a
413.371	0.12	826742	keystroke_Key.space	Key.space	n/a
413.551	0.12	827102	keystroke_m	m	n/a
413.686	0.105	827372	keystroke_i	i	n/a
413.836	0.06	827672	keystroke_s	s	n/a
414.0005	0.135	828001	keystroke_s	s	n/a
414.1955	0.045	828391	keystroke_e	e	n/a
414.3605	0.106	828721	keystroke_d	d	n/a
414.4355	0.15	828871	keystroke_Key.space	Key.space	n/a
414.6005	0.09	829201	keystroke_b	b	n/a
414.886	0.015	829772	keystroke_i	i	n/a
415.216	0.105	830432	keystroke_o	o	n/a
415.426	0.06	830852	keystroke_s	s	n/a
415.9805	0.09	831961	keystroke_Key.space	Key.space	n/a
416.3105	0.09	832621	keystroke_a	a	n/a
416.4155	0.09	832831	keystroke_m	m	n/a
416.5965	0.0745	833193	keystroke_e	e	n/a
416.716	0.075	833432	keystroke_n	n	n/a
416.926	0.075	833852	keystroke_i	i	n/a
417.166	0.09	834332	keystroke_t	t	n/a
417.346	0.0745	834692	keystroke_i	i	n/a
417.691	0.075	835382	keystroke_e	e	n/a
417.931	0.09	835862	keystroke_s	s	n/a
418.2905	0.15	836581	keystroke_Key.enter	Key.enter	n/a
418.446	12.3715	836892	prompt	n/a	dangerous subscribe containing perth\n
421.2485	0.058	842497	keystroke_d	d	n/a
421.2495	0.117	842499	keystroke_a	a	n/a
421.3815	0.0745	842763	keystroke_n	n	n/a
421.621	0.105	843242	keystroke_g	g	n/a
421.741	0.105	843482	keystroke_e	e	n/a
421.861	0.225	843722	keystroke_o	o	n/a
421.951	0.12	843902	keystroke_u	u	n/a
422.221	0.09	844442	keystroke_s	s	n/a
422.5655	0.06	845131	keystroke_Key.backspace	Key.backspace	n/a
422.7305	0.045	845461	keystroke_Key.backspace	Key.backspace	n/a
422.851	0.075	845702	keystroke_Key.backspace	Key.backspace	n/a
422.971	0.075	845942	keystroke_r	r	n/a
423.2565	0.089	846513	keystroke_u	u	n/a
423.6605	0.06	847321	keystroke_Key.backspace	Key.backspace	n/a
423.9305	0.195	847861	keystroke_o	o	n/a
424.0355	0.105	848071	keystroke_u	u	n/a
424.351	0.06	848702	keystroke_s	s	n/a
424.6355	0.105	849271	keystroke_Key.space	Key.space	n/a
425.0405	0.12	850081	keystroke_s	s	n/a
425.5505	0.1505	851101	keystroke_u	u	n/a
425.641	0.165	851282	keystroke_b	b	n/a
425.821	0.105	851642	keystroke_s	s	n/a
426.061	0.0595	852122	keystroke_c	c	n/a
426.2405	0.105	852481	keystroke_r	r	n/a
426.3005	0.135	852601	keystroke_i	i	n/a
426.4805	0.105	852961	keystroke_b	b	n/a
426.6305	0.09	853261	keystroke_e	e	n/a
426.9005	0.0755	853801	keystroke_Key.space	Key.space	n/a
427.396	0.105	854792	keystroke_c	c	n/a
427.546	0.135	855092	keystroke_o	o	n/a
427.621	0.135	855242	keystroke_n	n	n/a
427.831	0.045	855662	keystroke_t	t	n/a
427.996	0.1195	855992	keystroke_a	a	n/a
428.1305	0.1205	856261	keystroke_i	i	n/a
428.191	0.2245	856382	keystroke_n	n	n/a
428.5505	0.105	857101	keystroke_n	n	n/a
429.136	0.045	858272	keystroke_Key.backspace	Key.backspace	n/a
429.361	0.1195	858722	keystroke_i	i	n/a
429.4355	0.105	858871	keystroke_n	n	n/a
429.5705	0.075	859141	keystroke_g	g	n/a
429.736	0.105	859472	keystroke_Key.space	Key.space	n/a
429.871	0.1195	859742	keystroke_p	p	n/a
429.9915	0.119	859983	keystroke_e	e	n/a
430.0805	0.105	860161	keystroke_r	r	n/a
430.2905	0.105	860581	keystroke_t	t	n/a
430.3655	0.105	860731	keystroke_h	h	n/a
430.6805	0.1355	861361	keystroke_Key.enter	Key.enter	n/a
430.8205	7.9465	861641	prompt	n/a	blah struct package majority\n
431.701	0.075	863402	keystroke_b	b	n/a
431.926	0.0895	863852	keystroke_l	l	n/a
432.0305	0.105	864061	keystroke_a	a	n/a
432.1805	0.045	864361	keystroke_h	h	n/a
432.3155	0.12	864631	keystroke_Key.space	Key.space	n/a
432.5105	0.06	865021	keystroke_s	s	n/a
432.6755	0.106	865351	keystroke_t	t	n/a
432.7205	0.121	865441	keystroke_r	r	n/a
432.8115	0.1345	865623	keystroke_u	u	n/a
433.456	0.09	866912	keystroke_c	c	n/a
433.681	0.075	867362	keystroke_t	t	n/a
433.906	0.12	867812	keystroke_Key.space	Key.space	n/a
434.4605	0.105	868921	keystroke_p	p	n/a
434.6105	0.09	869221	keystroke_a	a	n/a
434.8055	0.105	869611	keystroke_c	c	n/a
434.9405	0.121	869881	keystroke_k	k	n/a
435.0755	0.0755	870151	keystroke_a	a	n/a
435.2555	0.09	870511	keystroke_g	g	n/a
435.3755	0.105	870751	keystroke_e	e	n/a
435.5105	0.105	871021	keystroke_Key.space	Key.space	n/a
435.7355	0.105	871471	keystroke_m	m	n/a
435.9455	0.045	871891	keystroke_i	i	n/a
436.471	0.1195	872942	keystroke_Key.backspace	Key.backspace	n/a
436.6355	0.105	873271	keystroke_a	a	n/a
437.371	0.075	874742	keystroke_j	j	n/a
437.551	0.09	875102	keystroke_o	o	n/a
437.746	0.1045	875492	keystroke_r	r	n/a
437.8955	0.105	875791	keystroke_i	i	n/a
438.046	0.12	876092	keystroke_t	t	n/a
438.376	0.1045	876752	keystroke_y	y	n/a
438.6	0.166	877200	keystroke_Key.enter	Key.enter	n/a
438.77	9.042	877540	prompt	n/a	draw lonely agriculture pole\n
439.6065	0.1035	879213	keystroke_d	d	n/a
439.801	0.09	879602	keystroke_r	r	n/a
439.921	0.135	879842	keystroke_a	a	n/a
440.086	0.06	880172	keystroke_w	w	n/a
440.161	0.165	880322	keystroke_Key.space	Key.space	n/a
440.356	0.105	880712	keystroke_l	l	n/a
440.5655	0.105	881131	keystroke_o	o	n/a
440.6555	0.12	881311	keystroke_n	n	n/a
440.7905	0.12	881581	keystroke_e	e	n/a
440.9405	0.105	881881	keystroke_l	l	n/a
441.406	0.09	882812	keystroke_y	y	n/a
441.7805	0.135	883561	keystroke_Key.space	Key.space	n/a
442.0955	0.105	884191	keystroke_a	a	n/a
442.726	0.12	885452	keystroke_g	g	n/a
442.816	0.105	885632	keystroke_r	r	n/a
443.011	0.105	886022	keystroke_i	i	n/a
443.206	0.1195	886412	keystroke_c	c	n/a
443.4005	0.075	886801	keystroke_u	u	n/a
443.6405	0.03	887281	keystroke_l	l	n/a
444.1205	0.045	888241	keystroke_u	u	n/a
444.811	0.105	889622	keystroke_Key.backspace	Key.backspace	n/a
445.2305	0.12	890461	keystroke_t	t	n/a
445.4105	0.075	890821	keystroke_u	u	n/a
445.8905	0.135	891781	keystroke_r	r	n/a
446.0265	0.1035	892053	keystroke_e	e	n/a
446.31	0.105	892620	keystroke_Key.space	Key.space	n/a
446.686	0.105	893372	keystroke_p	p	n/a
446.956	0.1195	893912	keystroke_o	o	n/a
447.1955	0.105	894391	keystroke_l	l	n/a
447.3305	0.12	894661	keystroke_e	e	n/a
447.6605	0.15	895321	keystroke_Key.enter	Key.enter	n/a
447.8245	12.5125	895649	prompt	n/a	bridal designated my exploration\n
448.8305	0.075	897661	keystroke_b	b	n/a
448.9655	0.105	897931	keystroke_r	r	n/a
449.416	0.105	898832	keystroke_i	i	n/a
449.6705	0.165	899341	keystroke_d	d	n/a
449.8205	0.12	899641	keystroke_a	a	n/a
449.9255	0.12	899851	keystroke_l	l	n/a
450.1655	0.105	900331	keystroke_Key.space	Key.space	n/a
450.3605	0.18	900721	keystroke_d	d	n/a
450.4655	0.12	900931	keystroke_e	e	n/a
450.855	0.075	901710	keystroke_i	i	n/a
451.231	0.09	902462	keystroke_Key.backspace	Key.backspace	n/a
451.3805	0.075	902761	keystroke_s	s	n/a
451.516	0.06	903032	keystroke_u	u	n/a
452.0105	0.075	904021	keystroke_Key.backspace	Key.backspace	n/a
452.2805	0.12	904561	keystroke_i	i	n/a
452.625	0.09	905250	keystroke_g	g	n/a
453.0155	0.075	906031	keystroke_n	n	n/a
453.1655	0.0905	906331	keystroke_a	a	n/a
453.3755	0.06	906751	keystroke_t	t	n/a
453.4505	0.1045	906901	keystroke_e	e	n/a
453.75	0.031	907500	keystroke_d	d	n/a
453.765	0.105	907530	keystroke_Key.space	Key.space	n/a
453.946	0.105	907892	keystroke_m	m	n/a
454.186	0.105	908372	keystroke_u	u	n/a
454.7705	0.075	909541	keystroke_Key.backspace	Key.backspace	n/a
455.1155	0.075	910231	keystroke_y	y	n/a
455.2955	0.1055	910591	keystroke_Key.space	Key.space	n/a
455.491	0.075	910982	keystroke_e	e	n/a
455.701	0.12	911402	keystroke_x	x	n/a
456.001	0.1045	912002	keystroke_p	p	n/a
456.1205	0.105	912241	keystroke_l	l	n/a
456.3455	0.06	912691	keystroke_o	o	n/a
456.4955	0.075	912991	keystroke_a	a	n/a
456.6605	0.06	913321	keystroke_r	r	n/a
457.2	0.045	914400	keystroke_a	a	n/a
457.605	0.076	915210	keystroke_Key.backspace	Key.backspace	n/a
457.756	0.09	915512	keystroke_Key.backspace	Key.backspace	n/a
457.9055	0.09	915811	keystroke_Key.backspace	Key.backspace	n/a
458.701	0.119	917402	keystroke_r	r	n/a
458.925	0.075	917850	keystroke_a	a	n/a
459.12	0.075	918240	keystroke_t	t	n/a
459.225	0.106	918450	keystroke_i	i	n/a
459.511	0.105	919022	keystroke_o	o	n/a
459.7355	0.1045	919471	keystroke_n	n	n/a
460.215	0.12	920430	keystroke_Key.enter	Key.enter	n/a
460.3405	14.6215	920681	prompt	n/a	quest valentine satellite oakland\n
461.2355	0.09	922471	keystroke_w	w	n/a
461.3265	0.119	922653	keystroke_u	u	n/a
461.5355	0.12	923071	keystroke_e	e	n/a
461.6255	0.12	923251	keystroke_s	s	n/a
461.895	0.09	923790	keystroke_t	t	n/a
462.3755	0.075	924751	keystroke_Key.backspace	Key.backspace	n/a
462.5555	0.045	925111	keystroke_Key.backspace	Key.backspace	n/a
462.7055	0.0595	925411	keystroke_Key.backspace	Key.backspace	n/a
462.87	0.045	925740	keystroke_Key.backspace	Key.backspace	n/a
463.02	0.09	926040	keystroke_Key.backspace	Key.backspace	n/a
463.126	0.089	926252	keystroke_q	q	n/a
463.83	0.03	927660	keystroke_y	y	n/a
463.9955	0.075	927991	keystroke_u	u	n/a
464.295	0.075	928590	keystroke_Key.backspace	Key.backspace	n/a
464.7305	0.09	929461	keystroke_Key.backspace	Key.backspace	n/a
464.9555	0.12	929911	keystroke_u	u	n/a
465.0605	0.12	930121	keystroke_e	e	n/a
465.1205	0.12	930241	keystroke_s	s	n/a
465.3455	0.105	930691	keystroke_t	t	n/a
465.4355	0.105	930871	keystroke_Key.space	Key.space	n/a
466.02	0.09	932040	keystroke_v	v	n/a
466.14	0.09	932280	keystroke_a	a	n/a
466.231	0.105	932462	keystroke_l	l	n/a
466.425	0.0905	932850	keystroke_e	e	n/a
466.5305	0.075	933061	keystroke_n	n	n/a
466.6205	0.1045	933241	keystroke_t	t	n/a
466.98	0.09	933960	keystroke_n	n	n/a
467.4455	0.03	934891	keystroke_Key.backspace	Key.backspace	n/a
467.715	0.075	935430	keystroke_i	i	n/a
467.73	0.1055	935460	keystroke_n	n	n/a
467.8355	0.09	935671	keystroke_e	e	n/a
467.9705	0.105	935941	keystroke_Key.space	Key.space	n/a
468.2555	0.15	936511	keystroke_s	s	n/a
468.3455	0.135	936691	keystroke_a	a	n/a
468.795	0.0905	937590	keystroke_t	t	n/a
468.9455	0.105	937891	keystroke_e	e	n/a
469.1405	0.105	938281	keystroke_l	l	n/a
470.205	0.12	940410	keystroke_l	l	n/a
470.835	0.105	941670	keystroke_i	i	n/a
471.015	0.135	942030	keystroke_t	t	n/a
471.211	0.119	942422	keystroke_e	e	n/a
471.3605	0.105	942721	keystroke_Key.space	Key.space	n/a
472.486	0.0745	944972	keystroke_o	o	n/a
472.8605	0.105	945721	keystroke_a	a	n/a
473.835	0.105	947670	keystroke_k	k	n/a
474.106	0.06	948212	keystroke_l	l	n/a
474.2555	0.09	948511	keystroke_a	a	n/a
474.3605	0.075	948721	keystroke_n	n	n/a
474.5105	0.105	949021	keystroke_d	d	n/a
474.8405	0.12	949681	keystroke_Key.enter	Key.enter	n/a
474.9645	6.9275	949929	prompt	n/a	handed plot indirect bids\n
475.7555	0.075	951511	keystroke_h	h	n/a
475.8455	0.12	951691	keystroke_a	a	n/a
475.9805	0.09	951961	keystroke_n	n	n/a
476.1005	0.165	952201	keystroke_d	d	n/a
476.2505	0.135	952501	keystroke_e	e	n/a
476.4005	0.12	952801	keystroke_d	d	n/a
476.5355	0.09	953071	keystroke_Key.space	Key.space	n/a
476.7755	0.12	953551	keystroke_p	p	n/a
476.9705	0.105	953941	keystroke_l	l	n/a
477.225	0.075	954450	keystroke_o	o	n/a
477.33	0.135	954660	keystroke_t	t	n/a
477.7205	0.06	955441	keystroke_Key.space	Key.space	n/a
478.0055	0.1195	956011	keystroke_i	i	n/a
478.14	0.105	956280	keystroke_n	n	n/a
478.365	0.105	956730	keystroke_d	d	n/a
478.5	0.075	957000	keystroke_i	i	n/a
478.665	0.075	957330	keystroke_r	r	n/a
478.7105	0.1205	957421	keystroke_e	e	n/a
478.9655	0.075	957931	keystroke_c	c	n/a
479.1755	0.09	958351	keystroke_t	t	n/a
479.3105	0.0895	958621	keystroke_Key.space	Key.space	n/a
479.716	0.09	959432	keystroke_b	b	n/a
479.926	0.0895	959852	keystroke_i	i	n/a
480.0455	0.075	960091	keystroke_g	g	n/a
480.4655	0.075	960931	keystroke_Key.backspace	Key.backspace	n/a
480.5255	0.09	961051	keystroke_f	f	n/a
480.7355	0.1195	961471	keystroke_s	s	n/a
481.095	0.06	962190	keystroke_Key.backspace	Key.backspace	n/a
481.245	0.075	962490	keystroke_Key.backspace	Key.backspace	n/a
481.306	0.134	962612	keystroke_d	d	n/a
481.411	0.104	962822	keystroke_s	s	n/a
481.7705	0.12	963541	keystroke_Key.enter	Key.enter	n/a
481.895	7.692	963790	prompt	n/a	forced portugal escape force\n
482.91	0.06	965820	keystroke_f	f	n/a
482.985	0.075	965970	keystroke_o	o	n/a
483.075	0.09	966150	keystroke_r	r	n/a
483.3455	0.105	966691	keystroke_c	c	n/a
483.4355	0.09	966871	keystroke_e	e	n/a
483.6	0.12	967200	keystroke_d	d	n/a
483.705	0.075	967410	keystroke_Key.space	Key.space	n/a
483.855	0.1055	967710	keystroke_p	p	n/a
483.9455	0.12	967891	keystroke_o	o	n/a
484.0955	0.12	968191	keystroke_r	r	n/a
484.1705	0.105	968341	keystroke_t	t	n/a
484.3205	0.105	968641	keystroke_u	u	n/a
484.845	0.075	969690	keystroke_g	g	n/a
485.055	0.09	970110	keystroke_a	a	n/a
485.22	0.1205	970440	keystroke_l	l	n/a
485.611	0.03	971222	keystroke_Key.space	Key.space	n/a
486.1055	0.075	972211	keystroke_e	e	n/a
486.3005	0.09	972601	keystroke_s	s	n/a
486.5555	0.06	973111	keystroke_c	c	n/a
486.6155	0.12	973231	keystroke_a	a	n/a
486.7505	0.105	973501	keystroke_p	p	n/a
486.8705	0.1045	973741	keystroke_e	e	n/a
486.99	0.09	973980	keystroke_Key.space	Key.space	n/a
488.3555	0.09	976711	keystroke_f	f	n/a
488.4905	0.1045	976981	keystroke_o	o	n/a
488.58	0.09	977160	keystroke_r	r	n/a
488.925	0.135	977850	keystroke_c	c	n/a
489.03	0.09	978060	keystroke_e	e	n/a
489.451	0.1345	978902	keystroke_Key.enter	Key.enter	n/a
489.5985	8.8235	979197	prompt	n/a	identify loose missing setup\n
490.245	0.105	980490	keystroke_i	i	n/a
490.5905	0.06	981181	keystroke_n	n	n/a
490.9955	0.075	981991	keystroke_Key.backspace	Key.backspace	n/a
491.1455	0.12	982291	keystroke_d	d	n/a
491.325	0.0905	982650	keystroke_n	n	n/a
491.91	0.06	983820	keystroke_Key.backspace	Key.backspace	n/a
492.045	0.075	984090	keystroke_e	e	n/a
492.135	0.09	984270	keystroke_n	n	n/a
492.27	0.105	984540	keystroke_t	t	n/a
492.391	0.0895	984782	keystroke_i	i	n/a
492.5555	0.12	985111	keystroke_f	f	n/a
492.7505	0.09	985501	keystroke_y	y	n/a
493.2455	0.0745	986491	keystroke_Key.space	Key.space	n/a
493.7705	0.09	987541	keystroke_l	l	n/a
494.0255	0.03	988051	keystroke_o	o	n/a
494.1455	0.075	988291	keystroke_o	o	n/a
494.505	0.15	989010	keystroke_s	s	n/a
494.685	0.09	989370	keystroke_e	e	n/a
494.9405	0.1045	989881	keystroke_Key.space	Key.space	n/a
495.2555	0.105	990511	keystroke_m	m	n/a
495.4355	0.09	990871	keystroke_i	i	n/a
495.7505	0.045	991501	keystroke_d	d	n/a
496.0955	0.0895	992191	keystroke_Key.backspace	Key.backspace	n/a
496.32	0.075	992640	keystroke_s	s	n/a
496.4705	0.075	992941	keystroke_s	s	n/a
496.5605	0.135	993121	keystroke_i	i	n/a
496.6355	0.135	993271	keystroke_n	n	n/a
496.7555	0.105	993511	keystroke_g	g	n/a
496.9355	0.075	993871	keystroke_Key.space	Key.space	n/a
497.055	0.09	994110	keystroke_s	s	n/a
497.25	0.09	994500	keystroke_e	e	n/a
497.4305	0.105	994861	keystroke_t	t	n/a
497.5805	0.105	995161	keystroke_u	u	n/a
497.8205	0.12	995641	keystroke_p	p	n/a
498.285	0.135	996570	keystroke_Key.enter	Key.enter	n/a
498.4265	16.6305	996853	prompt	n/a	shopping physiology pioneer group\n
499.2905	0.0895	998581	keystroke_s	s	n/a
499.41	0.075	998820	keystroke_h	h	n/a
499.71	0.045	999420	keystroke_o	o	n/a
499.83	0.0905	999660	keystroke_o	o	n/a
500.3255	0.075	1000651	keystroke_Key.backspace	Key.backspace	n/a
500.4905	0.105	1000981	keystroke_p	p	n/a
500.6705	0.075	1001341	keystroke_p	p	n/a
500.97	0.105	1001940	keystroke_i	i	n/a
501.015	0.135	1002030	keystroke_n	n	n/a
501.165	0.09	1002330	keystroke_g	g	n/a
501.27	0.1205	1002540	keystroke_Key.space	Key.space	n/a
501.4655	0.105	1002931	keystroke_p	p	n/a
501.6905	0.105	1003381	keystroke_h	h	n/a
501.96	0.075	1003920	keystroke_u	u	n/a
502.38	0.09	1004760	keystroke_Key.backspace	Key.backspace	n/a
503.1455	0.09	1006291	keystroke_s	s	n/a
503.76	0.09	1007520	keystroke_i	i	n/a
504	0.075	1008000	keystroke_o	o	n/a
504.285	0.075	1008570	keystroke_l	l	n/a
504.465	0.075	1008930	keystroke_o	o	n/a
504.795	0.105	1009590	keystroke_g	g	n/a
504.96	0.09	1009920	keystroke_y	y	n/a
505.29	0.1045	1010580	keystroke_Key.space	Key.space	n/a
505.9055	0.12	1011811	keystroke_Key.backspace	Key.backspace	n/a
506.1155	0.075	1012231	keystroke_Key.backspace	Key.backspace	n/a
506.2955	0.0595	1012591	keystroke_Key.backspace	Key.backspace	n/a
506.475	0.045	1012950	keystroke_Key.backspace	Key.backspace	n/a
506.64	0.06	1013280	keystroke_Key.backspace	Key.backspace	n/a
506.8055	0.075	1013611	keystroke_Key.backspace	Key.backspace	n/a
506.9555	0.12	1013911	keystroke_Key.backspace	Key.backspace	n/a
507.5405	0.075	1015081	keystroke_Key.backspace	Key.backspace	n/a
508.26	0.09	1016520	keystroke_y	y	n/a
508.575	0.105	1017150	keystroke_s	s	n/a
508.7855	0.105	1017571	keystroke_i	i	n/a
509.22	0.1345	1018440	keystroke_o	o	n/a
509.5355	0.075	1019071	keystroke_l	l	n/a
509.7155	0.075	1019431	keystroke_o	o	n/a
509.8955	0.105	1019791	keystroke_g	g	n/a
510.0305	0.09	1020061	keystroke_y	y	n/a
510.525	0.12	1021050	keystroke_Key.space	Key.space	n/a
511.3955	0.015	1022791	keystroke_p	p	n/a
512.4605	0.045	1024921	keystroke_i	i	n/a
512.8355	0.045	1025671	keystroke_o	o	n/a
513.06	0.075	1026120	keystroke_n	n	n/a
513.315	0.0605	1026630	keystroke_e	e	n/a
513.4805	0.1045	1026961	keystroke_e	e	n/a
513.615	0.105	1027230	keystroke_r	r	n/a
513.735	0.12	1027470	keystroke_Key.space	Key.space	n/a
513.87	0.1655	1027740	keystroke_g	g	n/a
514.0205	0.1345	1028041	keystroke_r	r	n/a
514.14	0.135	1028280	keystroke_o	o	n/a
514.2	0.105	1028400	keystroke_u	u	n/a
514.5595	0.121	1029119	keystroke_p	p	n/a
514.9355	0.12	1029871	keystroke_Key.enter	Key.enter	n/a
515.061	8.8605	1030122	prompt	n/a	producers unexpected want terrible\n
515.955	0.105	1031910	keystroke_p	p	n/a
516.271	0.0735	1032542	keystroke_r	r	n/a
516.4055	0.105	1032811	keystroke_o	o	n/a
516.6145	0.091	1033229	keystroke_d	d	n/a
516.7655	0.09	1033531	keystroke_u	u	n/a
516.9605	0.135	1033921	keystroke_c	c	n/a
517.185	0.09	1034370	keystroke_e	e	n/a
517.215	0.1195	1034430	keystroke_r	r	n/a
517.4095	0.121	1034819	keystroke_s	s	n/a
517.5605	0.135	1035121	keystroke_Key.space	Key.space	n/a
517.8005	0.09	1035601	keystroke_e	e	n/a
518.16	0.06	1036320	keystroke_Key.backspace	Key.backspace	n/a
518.415	0.12	1036830	keystroke_u	u	n/a
518.49	0.12	1036980	keystroke_n	n	n/a
518.64	0.105	1037280	keystroke_e	e	n/a
518.88	0.105	1037760	keystroke_x	x	n/a
519.1795	0.12	1038359	keystroke_p	p	n/a
519.375	0.1205	1038750	keystroke_e	e	n/a
520.335	0.12	1040670	keystroke_c	c	n/a
520.575	0.12	1041150	keystroke_t	t	n/a
520.74	0.075	1041480	keystroke_e	e	n/a
520.9205	0.12	1041841	keystroke_d	d	n/a
521.0545	0.076	1042109	keystroke_Key.space	Key.space	n/a
521.2505	0.1195	1042501	keystroke_w	w	n/a
521.3405	0.1045	1042681	keystroke_a	a	n/a
521.535	0.03	1043070	keystroke_n	n	n/a
521.625	0.075	1043250	keystroke_t	t	n/a
521.865	0.075	1043730	keystroke_Key.space	Key.space	n/a
522.045	0.075	1044090	keystroke_t	t	n/a
522.165	0.09	1044330	keystroke_e	e	n/a
522.24	0.075	1044480	keystroke_r	r	n/a
522.375	0.09	1044750	keystroke_r	r	n/a
522.54	0.12	1045080	keystroke_i	i	n/a
522.8105	0.1345	1045621	keystroke_b	b	n/a
523.125	0.12	1046250	keystroke_l	l	n/a
523.2895	0.105	1046579	keystroke_e	e	n/a
523.89	0.03	1047780	keystroke_Key.enter	Key.enter	n/a
523.925	0.2215	1047850	prompt	n/a	described coordinates marker crew\n
524.055	0.09	1048110	keystroke_Key.enter	Key.enter	n/a
524.15	7.5715	1048300	prompt	n/a	highways domains prints bookings\n
525.5255	0.09	1051051	keystroke_h	h	n/a
525.5695	0.121	1051139	keystroke_i	i	n/a
525.6755	0.105	1051351	keystroke_g	g	n/a
525.7805	0.09	1051561	keystroke_h	h	n/a
525.9305	0.1345	1051861	keystroke_w	w	n/a
526.05	0.12	1052100	keystroke_a	a	n/a
526.215	0.075	1052430	keystroke_y	y	n/a
526.3645	0.1055	1052729	keystroke_s	s	n/a
526.5	0.12	1053000	keystroke_Key.space	Key.space	n/a
527.3255	0.1195	1054651	keystroke_d	d	n/a
527.415	0.105	1054830	keystroke_o	o	n/a
527.505	0.06	1055010	keystroke_m	m	n/a
527.55	0.09	1055100	keystroke_a	a	n/a
527.745	0.075	1055490	keystroke_i	i	n/a
527.805	0.105	1055610	keystroke_n	n	n/a
528.075	0.09	1056150	keystroke_s	s	n/a
528.5995	0.106	1057199	keystroke_Key.space	Key.space	n/a
528.8555	0.075	1057711	keystroke_p	p	n/a
528.9905	0.09	1057981	keystroke_r	r	n/a
529.2	0.12	1058400	keystroke_i	i	n/a
529.305	0.105	1058610	keystroke_n	n	n/a
529.44	0.0745	1058880	keystroke_t	t	n/a
529.6355	0.074	1059271	keystroke_s	s	n/a
529.7245	0.105	1059449	keystroke_Key.space	Key.space	n/a
529.9055	0.105	1059811	keystroke_b	b	n/a
530.1305	0.06	1060261	keystroke_o	o	n/a
530.2805	0.09	1060561	keystroke_o	o	n/a
530.4895	0.06	1060979	keystroke_k	k	n/a
530.7605	0.12	1061521	keystroke_i	i	n/a
530.8505	0.135	1061701	keystroke_n	n	n/a
530.9705	0.075	1061941	keystroke_g	g	n/a
531.1955	0.09	1062391	keystroke_s	s	n/a
531.645	0.075	1063290	keystroke_Key.enter	Key.enter	n/a
531.7245	6.8825	1063449	prompt	n/a	slip connectors offices navy\n
532.4395	0.12	1064879	keystroke_s	s	n/a
532.6495	0.1355	1065299	keystroke_l	l	n/a
532.875	0.105	1065750	keystroke_i	i	n/a
533.07	0.105	1066140	keystroke_p	p	n/a
533.22	0.0755	1066440	keystroke_s	s	n/a
533.79	0.09	1067580	keystroke_Key.backspace	Key.backspace	n/a
534.045	0.12	1068090	keystroke_Key.space	Key.space	n/a
534.21	0.075	1068420	keystroke_c	c	n/a
534.3	0.12	1068600	keystroke_o	o	n/a
534.45	0.09	1068900	keystroke_n	n	n/a
534.615	0.075	1069230	keystroke_n	n	n/a
534.72	0.1045	1069440	keystroke_e	e	n/a
534.8395	0.076	1069679	keystroke_c	c	n/a
535.0195	0.076	1070039	keystroke_t	t	n/a
535.1105	0.06	1070221	keystroke_o	o	n/a
535.4255	0.105	1070851	keystroke_r	r	n/a
535.6805	0.1045	1071361	keystroke_s	s	n/a
535.875	0.075	1071750	keystroke_Key.space	Key.space	n/a
536.0555	0.075	1072111	keystroke_o	o	n/a
536.2055	0.06	1072411	keystroke_f	f	n/a
536.4155	0.09	1072831	keystroke_f	f	n/a
536.5805	0.1195	1073161	keystroke_i	i	n/a
536.73	0.135	1073460	keystroke_c	c	n/a
536.85	0.075	1073700	keystroke_e	e	n/a
537.105	0.09	1074210	keystroke_s	s	n/a
537.24	0.1055	1074480	keystroke_Key.space	Key.space	n/a
537.3905	0.09	1074781	keystroke_n	n	n/a
537.4955	0.075	1074991	keystroke_a	a	n/a
537.855	0.12	1075710	keystroke_v	v	n/a
538.035	0.105	1076070	keystroke_y	y	n/a
538.4845	0.12	1076969	keystroke_Key.enter	Key.enter	n/a
538.6105	7.6465	1077221	prompt	n/a	jackets tables mercy industries\n
539.3705	0.0895	1078741	keystroke_j	j	n/a
539.49	0.105	1078980	keystroke_a	a	n/a
539.625	0.09	1079250	keystroke_c	c	n/a
539.76	0.105	1079520	keystroke_k	k	n/a
539.91	0.09	1079820	keystroke_e	e	n/a
540.015	0.0755	1080030	keystroke_t	t	n/a
540.2255	0.12	1080451	keystroke_s	s	n/a
540.39	0.12	1080780	keystroke_Key.space	Key.space	n/a
540.765	0.075	1081530	keystroke_t	t	n/a
540.9	0.105	1081800	keystroke_a	a	n/a
541.02	0.075	1082040	keystroke_b	b	n/a
541.245	0.0895	1082490	keystroke_l	l	n/a
541.3495	0.09	1082699	keystroke_e	e	n/a
541.5295	0.12	1083059	keystroke_s	s	n/a
541.6645	0.151	1083329	keystroke_Key.space	Key.space	n/a
542.1305	0.09	1084261	keystroke_m	m	n/a
542.535	0.165	1085070	keystroke_e	e	n/a
542.685	0.06	1085370	keystroke_r	r	n/a
542.91	0.12	1085820	keystroke_c	c	n/a
543.09	0.0895	1086180	keystroke_y	y	n/a
543.3145	0.135	1086629	keystroke_Key.space	Key.space	n/a
543.5245	0.136	1087049	keystroke_i	i	n/a
543.6305	0.135	1087261	keystroke_n	n	n/a
543.99	0.06	1087980	keystroke_d	d	n/a
544.4095	0.06	1088819	keystroke_u	u	n/a
544.5895	0.09	1089179	keystroke_s	s	n/a
544.8005	0.09	1089601	keystroke_t	t	n/a
544.8155	0.135	1089631	keystroke_r	r	n/a
545.1455	0.0595	1090291	keystroke_i	i	n/a
545.415	0.06	1090830	keystroke_e	e	n/a
545.7	0.12	1091400	keystroke_s	s	n/a
546.1345	0.12	1092269	keystroke_Key.enter	Key.enter	n/a
546.26	13.0315	1092520	prompt	n/a	bush watson situation concept\n
547.395	0.1195	1094790	keystroke_b	b	n/a
547.5445	0.075	1095089	keystroke_u	u	n/a
547.6205	0.089	1095241	keystroke_s	s	n/a
548.1305	0.12	1096261	keystroke_h	h	n/a
548.3855	0.105	1096771	keystroke_Key.space	Key.space	n/a
548.595	0.12	1097190	keystroke_w	w	n/a
548.685	0.12	1097370	keystroke_a	a	n/a
549.36	0.075	1098720	keystroke_t	t	n/a
549.9755	0.12	1099951	keystroke_s	s	n/a
550.2905	0.135	1100581	keystroke_o	o	n/a
550.3655	0.1795	1100731	keystroke_n	n	n/a
550.86	0.1355	1101720	keystroke_Key.space	Key.space	n/a
551.175	0.135	1102350	keystroke_s	s	n/a
551.3545	0.105	1102709	keystroke_i	i	n/a
551.5495	0.076	1103099	keystroke_t	t	n/a
551.6395	0.091	1103279	keystroke_u	u	n/a
551.8055	0.075	1103611	keystroke_a	a	n/a
551.9255	0.09	1103851	keystroke_t	t	n/a
552.4045	0.075	1104809	keystroke_i	i	n/a
552.6455	0.104	1105291	keystroke_o	o	n/a
552.8405	0.135	1105681	keystroke_n	n	n/a
553.38	0.1045	1106760	keystroke_Key.space	Key.space	n/a
553.6805	0.12	1107361	keystroke_c	c	n/a
553.8155	0.09	1107631	keystroke_o	o	n/a
553.8605	0.12	1107721	keystroke_n	n	n/a
554.2505	0.105	1108501	keystroke_e	e	n/a
555.84	0.135	1111680	keystroke_[	[	n/a
556.245	0.12	1112490	keystroke_Key.backspace	Key.backspace	n/a
556.4695	0.09	1112939	keystroke_Key.backspace	Key.backspace	n/a
556.7855	0.18	1113571	keystroke_c	c	n/a
556.9505	0.12	1113901	keystroke_e	e	n/a
557.5355	0.105	1115071	keystroke_o	o	n/a
557.6255	0.075	1115251	keystroke_t	t	n/a
558.135	0.075	1116270	keystroke_Key.backspace	Key.backspace	n/a
558.3	0.075	1116600	keystroke_Key.backspace	Key.backspace	n/a
558.48	0.12	1116960	keystroke_p	p	n/a
558.705	0.135	1117410	keystroke_t	t	n/a
559.14	0.1495	1118280	keystroke_Key.enter	Key.enter	n/a
559.294	12.1475	1118588	prompt	n/a	attempting regulation duck competitive\n
560.07	0.075	1120140	keystroke_a	a	n/a
560.25	0.045	1120500	keystroke_t	t	n/a
560.4	0.0905	1120800	keystroke_t	t	n/a
560.4905	0.105	1120981	keystroke_e	e	n/a
560.8205	0.09	1121641	keystroke_m	m	n/a
561.03	0.06	1122060	keystroke_p	p	n/a
561.24	0.09	1122480	keystroke_t	t	n/a
561.39	0.105	1122780	keystroke_i	i	n/a
561.435	0.15	1122870	keystroke_n	n	n/a
561.765	0.1045	1123530	keystroke_Key.space	Key.space	n/a
562.14	0.09	1124280	keystroke_Key.backspace	Key.backspace	n/a
562.26	0.105	1124520	keystroke_g	g	n/a
562.485	0.12	1124970	keystroke_Key.space	Key.space	n/a
562.725	0.105	1125450	keystroke_r	r	n/a
562.785	0.12	1125570	keystroke_e	e	n/a
563.0695	0.105	1126139	keystroke_g	g	n/a
563.2495	0.09	1126499	keystroke_u	u	n/a
563.5195	0.106	1127039	keystroke_l	l	n/a
563.6705	0.1195	1127341	keystroke_a	a	n/a
563.82	0.12	1127640	keystroke_r	r	n/a
564.1795	0.1055	1128359	keystroke_i	i	n/a
564.555	0.03	1129110	keystroke_Key.backspace	Key.backspace	n/a
564.675	0.0755	1129350	keystroke_Key.backspace	Key.backspace	n/a
564.8255	0.105	1129651	keystroke_t	t	n/a
565.17	0.09	1130340	keystroke_i	i	n/a
565.395	0.06	1130790	keystroke_o	o	n/a
566.2495	0.12	1132499	keystroke_n	n	n/a
566.61	0.135	1133220	keystroke_Key.space	Key.space	n/a
568.11	0.03	1136220	keystroke_d	d	n/a
568.1695	0.045	1136339	keystroke_u	u	n/a
568.5155	0.12	1137031	keystroke_c	c	n/a
568.6505	0.105	1137301	keystroke_k	k	n/a
569.16	0.12	1138320	keystroke_Key.space	Key.space	n/a
569.385	0.12	1138770	keystroke_c	c	n/a
569.52	0.2095	1139040	keystroke_o	o	n/a
569.6995	0.12	1139399	keystroke_m	m	n/a
570.015	0.075	1140030	keystroke_p	p	n/a
570.315	0.075	1140630	keystroke_e	e	n/a
570.435	0.135	1140870	keystroke_t	t	n/a
570.6	0.105	1141200	keystroke_i	i	n/a
570.7345	0.075	1141469	keystroke_t	t	n/a
570.8545	0.075	1141709	keystroke_i	i	n/a
571.0195	0.12	1142039	keystroke_v	v	n/a
571.1555	0.09	1142311	keystroke_e	e	n/a
571.35	0.09	1142700	keystroke_Key.enter	Key.enter	n/a
571.4455	31.256	1142891	prompt	n/a	loans accommodate funds edinburgh\n
572.2655	0.1045	1144531	keystroke_l	l	n/a
572.43	0.1055	1144860	keystroke_a	a	n/a
572.5505	0.06	1145101	keystroke_o	o	n/a
572.82	0.0295	1145640	keystroke_n	n	n/a
573.75	0.075	1147500	keystroke_Key.backspace	Key.backspace	n/a
573.915	0.09	1147830	keystroke_Key.backspace	Key.backspace	n/a
574.065	0.105	1148130	keystroke_Key.backspace	Key.backspace	n/a
574.29	0.06	1148580	keystroke_a	a	n/a
574.305	0.075	1148610	keystroke_o	o	n/a
574.89	0.075	1149780	keystroke_Key.backspace	Key.backspace	n/a
575.04	0.0895	1150080	keystroke_Key.backspace	Key.backspace	n/a
575.3855	0.075	1150771	keystroke_a	a	n/a
575.67	0.105	1151340	keystroke_Key.backspace	Key.backspace	n/a
575.94	0.09	1151880	keystroke_o	o	n/a
576.09	0.105	1152180	keystroke_a	a	n/a
576.36	0.09	1152720	keystroke_n	n	n/a
576.525	0.1195	1153050	keystroke_s	s	n/a
576.69	0.12	1153380	keystroke_Key.space	Key.space	n/a
576.855	0.105	1153710	keystroke_a	a	n/a
577.4105	0.075	1154821	keystroke_c	c	n/a
577.605	0.1045	1155210	keystroke_c	c	n/a
577.7695	0.105	1155539	keystroke_a	a	n/a
578.4155	0.075	1156831	keystroke_Key.backspace	Key.backspace	n/a
578.7005	0.06	1157401	keystroke_o	o	n/a
579.5405	0.135	1159081	keystroke_m	m	n/a
580.2445	0.135	1160489	keystroke_o	o	n/a
580.7405	0.1345	1161481	keystroke_d	d	n/a
580.845	0.12	1161690	keystroke_a	a	n/a
581.085	0.045	1162170	keystroke_t	t	n/a
581.145	0.105	1162290	keystroke_e	e	n/a
581.655	0.1495	1163310	keystroke_Key.space	Key.space	n/a
582.2395	0.136	1164479	keystroke_d	d	n/a
582.705	0.105	1165410	keystroke_Key.backspace	Key.backspace	n/a
582.945	0.0745	1165890	keystroke_f	f	n/a
583.0795	0.105	1166159	keystroke_u	u	n/a
583.1255	0.134	1166251	keystroke_n	n	n/a
583.665	0.1195	1167330	keystroke_d	d	n/a
583.7695	0.105	1167539	keystroke_s	s	n/a
583.9195	0.135	1167839	keystroke_Key.space	Key.space	n/a
588.932	0.058	1177864	keystroke_e	e	n/a
589.275	0.135	1178550	keystroke_d	d	n/a
589.6495	0.12	1179299	keystroke_i	i	n/a
589.9055	0.135	1179811	keystroke_n	n	n/a
590.52	0.105	1181040	keystroke_b	b	n/a
590.685	0.09	1181370	keystroke_u	u	n/a
590.79	0.09	1181580	keystroke_r	r	n/a
591.24	0.0745	1182480	keystroke_g	g	n/a
592.02	0.2545	1184040	keystroke_Key.backspace	Key.backspace	n/a
592.4545	0.06	1184909	keystroke_Key.backspace	Key.backspace	n/a
592.6195	0.061	1185239	keystroke_Key.backspace	Key.backspace	n/a
592.7855	0.075	1185571	keystroke_Key.backspace	Key.backspace	n/a
592.9655	0.075	1185931	keystroke_Key.backspace	Key.backspace	n/a
593.1595	0.06	1186319	keystroke_Key.backspace	Key.backspace	n/a
593.325	0.075	1186650	keystroke_Key.backspace	Key.backspace	n/a
593.505	0.06	1187010	keystroke_Key.backspace	Key.backspace	n/a
593.685	0.045	1187370	keystroke_Key.backspace	Key.backspace	n/a
593.85	0.06	1187700	keystroke_Key.backspace	Key.backspace	n/a
594.03	0.06	1188060	keystroke_Key.backspace	Key.backspace	n/a
594.21	0.06	1188420	keystroke_Key.backspace	Key.backspace	n/a
594.375	0.075	1188750	keystroke_Key.backspace	Key.backspace	n/a
594.54	0.075	1189080	keystroke_Key.backspace	Key.backspace	n/a
594.705	0.075	1189410	keystroke_Key.backspace	Key.backspace	n/a
594.855	0.0745	1189710	keystroke_Key.backspace	Key.backspace	n/a
595.0195	0.075	1190039	keystroke_Key.backspace	Key.backspace	n/a
595.1695	0.1055	1190339	keystroke_Key.backspace	Key.backspace	n/a
595.335	0.12	1190670	keystroke_Key.backspace	Key.backspace	n/a
595.755	0.12	1191510	keystroke_Key.backspace	Key.backspace	n/a
596.2645	0.105	1192529	keystroke_m	m	n/a
596.5355	0.09	1193071	keystroke_o	o	n/a
596.6855	0.1045	1193371	keystroke_d	d	n/a
596.775	0.09	1193550	keystroke_a	a	n/a
596.985	0.105	1193970	keystroke_t	t	n/a
597.105	0.075	1194210	keystroke_e	e	n/a
597.3145	0.136	1194629	keystroke_Key.space	Key.space	n/a
597.6005	0.0745	1195201	keystroke_e	e	n/a
598.125	0.045	1196250	keystroke_Key.backspace	Key.backspace	n/a
598.5895	0.075	1197179	keystroke_f	f	n/a
598.6945	0.075	1197389	keystroke_u	u	n/a
598.7545	0.09	1197509	keystroke_n	n	n/a
598.9195	0.12	1197839	keystroke_d	d	n/a
599.16	0.075	1198320	keystroke_s	s	n/a
599.4	0.1495	1198800	keystroke_Key.space	Key.space	n/a
600.45	0.06	1200900	keystroke_e	e	n/a
600.645	0.06	1201290	keystroke_d	d	n/a
600.75	0.09	1201500	keystroke_i	i	n/a
600.96	0.075	1201920	keystroke_n	n	n/a
601.335	0.0745	1202670	keystroke_b	b	n/a
601.4995	0.075	1202999	keystroke_u	u	n/a
601.6645	0.09	1203329	keystroke_r	r	n/a
601.8905	0.059	1203781	keystroke_g	g	n/a
602.0405	0.03	1204081	keystroke_h	h	n/a
602.52	0.1795	1205040	keystroke_Key.enter	Key.enter	n/a
602.705	12.8215	1205410	prompt	n/a	switching georgia howto parameters\n
603.4505	0.105	1206901	keystroke_s	s	n/a
604.1555	0.1195	1208311	keystroke_q	q	n/a
604.7995	0.105	1209599	keystroke_Key.backspace	Key.backspace	n/a
604.9495	0.105	1209899	keystroke_w	w	n/a
605.43	0.09	1210860	keystroke_i	i	n/a
605.565	0.0745	1211130	keystroke_t	t	n/a
605.7745	0.12	1211549	keystroke_c	c	n/a
605.9245	0.091	1211849	keystroke_h	h	n/a
606.0745	0.105	1212149	keystroke_i	i	n/a
606.1195	0.106	1212239	keystroke_n	n	n/a
606.2555	0.105	1212511	keystroke_g	g	n/a
606.3905	0.1045	1212781	keystroke_Key.space	Key.space	n/a
606.825	0.105	1213650	keystroke_g	g	n/a
