onset	duration	sample	value	key	prompt_text
6.0785	11.0405	12157	prompt	n/a	the quick brown fox jumps over a lazy dog\n
10.08	0.001	20160	keystroke_t	t	n/a
10.093	0.0455	20186	keystroke_h	h	n/a
10.1535	0.075	20307	keystroke_e	e	n/a
10.2585	0.089	20517	keystroke_Key.space	Key.space	n/a
10.4385	0.09	20877	keystroke_q	q	n/a
10.5585	0.0755	21117	keystroke_u	u	n/a
10.6185	0.0445	21237	keystroke_i	i	n/a
10.708	0.0755	21416	keystroke_c	c	n/a
10.768	0.091	21536	keystroke_k	k	n/a
10.9035	0.0895	21807	keystroke_Key.space	Key.space	n/a
11.0675	0.061	22135	keystroke_b	b	n/a
11.248	0.1805	22496	keystroke_o	o	n/a
11.263	0.0445	22526	keystroke_r	r	n/a
11.4585	0.105	22917	keystroke_w	w	n/a
11.8025	0.045	23605	keystroke_Key.backspace	Key.backspace	n/a
11.9235	0.0595	23847	keystroke_Key.backspace	Key.backspace	n/a
12.073	0.045	24146	keystroke_Key.backspace	Key.backspace	n/a
12.1475	0.045	24295	keystroke_r	r	n/a
12.268	0.0605	24536	keystroke_o	o	n/a
12.373	0.06	24746	keystroke_w	w	n/a
12.4935	0.0745	24987	keystroke_n	n	n/a
12.538	0.075	25076	keystroke_Key.space	Key.space	n/a
13.198	0.075	26396	keystroke_f	f	n/a
13.333	0.12	26666	keystroke_o	o	n/a
13.528	0.1055	27056	keystroke_x	x	n/a
13.663	0.0895	27326	keystroke_Key.space	Key.space	n/a
13.9035	0.044	27807	keystroke_j	j	n/a
14.0375	0.105	28075	keystroke_u	u	n/a
14.2475	0.12	28495	keystroke_m	m	n/a
14.3075	0.106	28615	keystroke_p	p	n/a
14.548	0.075	29096	keystroke_s	s	n/a
14.683	0.075	29366	keystroke_Key.space	Key.space	n/a
14.788	0.075	29576	keystroke_o	o	n/a
14.9235	0.1195	29847	keystroke_v	v	n/a
14.968	0.105	29936	keystroke_e	e	n/a
15.058	0.075	30116	keystroke_r	r	n/a
15.118	0.075	30236	keystroke_Key.space	Key.space	n/a
15.358	0.045	30716	keystroke_Key.space	Key.space	n/a
15.358	0.1205	30716	keystroke_a	a	n/a
15.8985	0.0595	31797	keystroke_l	l	n/a
16.0485	0.0745	32097	keystroke_a	a	n/a
16.258	0.075	32516	keystroke_z	z	n/a
16.348	0.075	32696	keystroke_y	y	n/a
16.4685	0.075	32937	keystroke_Key.space	Key.space	n/a
16.618	0.0905	33236	keystroke_d	d	n/a
16.7235	0.09	33447	keystroke_o	o	n/a
16.8285	0.06	33657	keystroke_g	g	n/a
17.038	0.0745	34076	keystroke_Key.enter	Key.enter	n/a
17.124	5.9605	34248	prompt	n/a	blame resource focusing ireland\n
17.818	0.045	35636	keystroke_b	b	n/a
17.9225	0.09	35845	keystroke_l	l	n/a
17.9985	0.1045	35997	keystroke_a	a	n/a
18.179	0.0295	36358	keystroke_m	m	n/a
18.2095	0.073	36419	keystroke_e	e	n/a
18.6735	0.074	37347	keystroke_Key.space	Key.space	n/a
18.824	0.074	37648	keystroke_r	r	n/a
18.869	0.119	37738	keystroke_e	e	n/a
18.958	0.1355	37916	keystroke_s	s	n/a
19.1535	0.105	38307	keystroke_o	o	n/a
19.199	0.075	38398	keystroke_u	u	n/a
19.3785	0.015	38757	keystroke_r	r	n/a
19.4985	0.149	38997	keystroke_c	c	n/a
19.5725	0.1055	39145	keystroke_e	e	n/a
20.3075	0.105	40615	keystroke_Key.space	Key.space	n/a
20.503	0.061	41006	keystroke_f	f	n/a
20.578	0.0905	41156	keystroke_o	o	n/a
20.713	0.075	41426	keystroke_c	c	n/a
20.833	0.045	41666	keystroke_u	u	n/a
20.908	0.075	41816	keystroke_s	s	n/a
21.043	0.075	42086	keystroke_i	i	n/a
21.0885	0.0595	42177	keystroke_n	n	n/a
21.194	0.045	42388	keystroke_g	g	n/a
21.2835	0.074	42567	keystroke_Key.space	Key.space	n/a
21.523	0.0595	43046	keystroke_i	i	n/a
21.613	0.0895	43226	keystroke_r	r	n/a
21.6875	0.075	43375	keystroke_e	e	n/a
21.8235	0.0595	43647	keystroke_f	f	n/a
21.973	0.06	43946	keystroke_l	l	n/a
22.258	0.045	44516	keystroke_Key.backspace	Key.backspace	n/a
22.393	0.06	44786	keystroke_Key.backspace	Key.backspace	n/a
22.558	0.0755	45116	keystroke_l	l	n/a
22.648	0.105	45296	keystroke_a	a	n/a
22.7675	0.061	45535	keystroke_n	n	n/a
22.8735	0.0595	45747	keystroke_d	d	n/a
23.023	0.0595	46046	keystroke_Key.enter	Key.enter	n/a
23.091	8.229	46182	prompt	n/a	americans entities implemented crossword\n
23.8485	0.029	47697	keystroke_a	a	n/a
23.893	0.0755	47786	keystroke_m	m	n/a
24.0875	0.075	48175	keystroke_e	e	n/a
24.133	0.09	48266	keystroke_r	r	n/a
24.208	0.045	48416	keystroke_i	i	n/a
24.3125	0.09	48625	keystroke_c	c	n/a
24.4035	0.06	48807	keystroke_a	a	n/a
24.5075	0.0755	49015	keystroke_n	n	n/a
24.643	0.09	49286	keystroke_s	s	n/a
24.838	0.06	49676	keystroke_Key.space	Key.space	n/a
25.153	0.0755	50306	keystroke_e	e	n/a
25.2885	0.0595	50577	keystroke_n	n	n/a
25.408	0.0755	50816	keystroke_t	t	n/a
25.5435	0.0595	51087	keystroke_i	i	n/a
25.648	0.0755	51296	keystroke_t	t	n/a
25.753	0.075	51506	keystroke_i	i	n/a
25.843	0.0755	51686	keystroke_e	e	n/a
26.053	0.165	52106	keystroke_s	s	n/a
26.323	0.059	52646	keystroke_Key.space	Key.space	n/a
26.668	0.0755	53336	keystroke_m	m	n/a
27.208	0.1505	54416	keystroke_Key.backspace	Key.backspace	n/a
27.4035	0.1205	54807	keystroke_i	i	n/a
27.493	0.135	54986	keystroke_m	m	n/a
27.598	0.135	55196	keystroke_p	p	n/a
27.8535	0.1045	55707	keystroke_l	l	n/a
28.033	0.089	56066	keystroke_e	e	n/a
28.228	0.015	56456	keystroke_m	m	n/a
28.364	0.075	56728	keystroke_e	e	n/a
28.393	0.09	56786	keystroke_n	n	n/a
28.5735	0.0595	57147	keystroke_t	t	n/a
28.708	0.12	57416	keystroke_e	e	n/a
28.769	0.134	57538	keystroke_d	d	n/a
28.933	0.06	57866	keystroke_Key.space	Key.space	n/a
29.353	0.06	58706	keystroke_c	c	n/a
29.563	0.075	59126	keystroke_r	r	n/a
29.668	0.06	59336	keystroke_o	o	n/a
30.253	0.06	60506	keystroke_s	s	n/a
30.403	0.09	60806	keystroke_s	s	n/a
30.583	0.075	61166	keystroke_w	w	n/a
30.673	0.1055	61346	keystroke_o	o	n/a
30.794	0.044	61588	keystroke_r	r	n/a
30.9135	0.0895	61827	keystroke_d	d	n/a
31.258	0.059	62516	keystroke_Key.enter	Key.enter	n/a
31.324	5.786	62648	prompt	n/a	respect plays slave shots\n
32.008	0.09	64016	keystroke_r	r	n/a
32.068	0.075	64136	keystroke_e	e	n/a
32.203	0.1345	64406	keystroke_s	s	n/a
32.3235	0.104	64647	keystroke_p	p	n/a
32.5485	0.15	65097	keystroke_e	e	n/a
32.6535	0.105	65307	keystroke_c	c	n/a
32.9685	0.06	65937	keystroke_t	t	n/a
33.133	0.045	66266	keystroke_Key.space	Key.space	n/a
33.268	0.1045	66536	keystroke_p	p	n/a
33.508	0.015	67016	keystroke_l	l	n/a
33.568	0.1195	67136	keystroke_a	a	n/a
33.763	0.0605	67526	keystroke_y	y	n/a
34.0025	0.0905	68005	keystroke_s	s	n/a
34.2875	0.075	68575	keystroke_Key.space	Key.space	n/a
34.468	0.09	68936	keystroke_s	s	n/a
34.664	0.044	69328	keystroke_h	h	n/a
34.963	0.03	69926	keystroke_Key.backspace	Key.backspace	n/a
35.128	0.06	70256	keystroke_l	l	n/a
35.233	0.1195	70466	keystroke_a	a	n/a
35.3225	0.105	70645	keystroke_v	v	n/a
35.368	0.105	70736	keystroke_e	e	n/a
35.5475	0.06	71095	keystroke_Key.space	Key.space	n/a
35.7285	0.074	71457	keystroke_s	s	n/a
35.8485	0.06	71697	keystroke_h	h	n/a
35.8925	0.076	71785	keystroke_o	o	n/a
35.9825	0.061	71965	keystroke_t	t	n/a
36.0875	0.106	72175	keystroke_s	s	n/a
36.2525	0.0755	72505	keystroke_Key.space	Key.space	n/a
36.838	0.045	73676	keystroke_Key.backspace	Key.backspace	n/a
37.0325	0.075	74065	keystroke_Key.enter	Key.enter	n/a
37.1205	5.5245	74241	prompt	n/a	reduces gathering brown suggestion\n
37.754	0.134	75508	keystroke_r	r	n/a
37.843	0.12	75686	keystroke_e	e	n/a
38.0685	0.0745	76137	keystroke_d	d	n/a
38.188	0.045	76376	keystroke_u	u	n/a
38.263	0.1045	76526	keystroke_c	c	n/a
38.353	0.09	76706	keystroke_e	e	n/a
38.5175	0.1055	77035	keystroke_s	s	n/a
38.6675	0.075	77335	keystroke_Key.space	Key.space	n/a
38.849	0.059	77698	keystroke_g	g	n/a
38.953	0.12	77906	keystroke_a	a	n/a
39.088	0.075	78176	keystroke_t	t	n/a
39.208	0.06	78416	keystroke_h	h	n/a
39.313	0.0905	78626	keystroke_e	e	n/a
39.358	0.09	78716	keystroke_r	r	n/a
39.464	0.0735	78928	keystroke_i	i	n/a
39.493	0.0595	78986	keystroke_n	n	n/a
39.7175	0.0605	79435	keystroke_Key.space	Key.space	n/a
40.0475	0.031	80095	keystroke_Key.backspace	Key.backspace	n/a
40.1085	0.06	80217	keystroke_g	g	n/a
40.2135	0.06	80427	keystroke_Key.space	Key.space	n/a
40.3775	0.031	80755	keystroke_b	b	n/a
40.5585	0.06	81117	keystroke_r	r	n/a
40.7385	0.0595	81477	keystroke_o	o	n/a
40.828	0.0755	81656	keystroke_w	w	n/a
41.0085	0.0595	82017	keystroke_n	n	n/a
41.0535	0.059	82107	keystroke_Key.space	Key.space	n/a
41.2185	0.105	82437	keystroke_s	s	n/a
41.3085	0.059	82617	keystroke_u	u	n/a
41.4425	0.046	82885	keystroke_g	g	n/a
41.5635	0.15	83127	keystroke_g	g	n/a
41.6835	0.12	83367	keystroke_e	e	n/a
41.8785	0.18	83757	keystroke_s	s	n/a
42.0125	0.091	84025	keystroke_t	t	n/a
42.1185	0.12	84237	keystroke_i	i	n/a
42.1485	0.135	84297	keystroke_o	o	n/a
42.1935	0.075	84387	keystroke_n	n	n/a
42.5835	0.06	85167	keystroke_Key.enter	Key.enter	n/a
42.65	5.8305	85300	prompt	n/a	bringing females showed such\n
43.3035	0.0595	86607	keystroke_b	b	n/a
43.393	0.09	86786	keystroke_i	i	n/a
43.453	0.0455	86906	keystroke_r	r	n/a
43.468	0.09	86936	keystroke_n	n	n/a
43.9035	0.0145	87807	keystroke_Key.backspace	Key.backspace	n/a
43.963	0.075	87926	keystroke_Key.backspace	Key.backspace	n/a
44.143	0.045	88286	keystroke_Key.backspace	Key.backspace	n/a
44.2785	0.0295	88557	keystroke_r	r	n/a
44.398	0.075	88796	keystroke_i	i	n/a
44.4435	0.0445	88887	keystroke_n	n	n/a
44.548	0.0455	89096	keystroke_g	g	n/a
44.6085	0.074	89217	keystroke_i	i	n/a
44.7285	0.045	89457	keystroke_n	n	n/a
45.058	0.031	90116	keystroke_g	g	n/a
45.4625	0.06	90925	keystroke_Key.space	Key.space	n/a
45.5385	0.06	91077	keystroke_f	f	n/a
45.688	0.0595	91376	keystroke_e	e	n/a
45.7775	0.076	91555	keystroke_m	m	n/a
45.959	0.0445	91918	keystroke_a	a	n/a
46.0485	0.089	92097	keystroke_l	l	n/a
46.1835	0.089	92367	keystroke_s	s	n/a
46.573	0.0455	93146	keystroke_Key.backspace	Key.backspace	n/a
46.649	0.075	93298	keystroke_e	e	n/a
46.813	0.075	93626	keystroke_s	s	n/a
46.933	0.06	93866	keystroke_Key.space	Key.space	n/a
47.008	0.105	94016	keystroke_s	s	n/a
47.143	0.06	94286	keystroke_h	h	n/a
47.173	0.0905	94346	keystroke_o	o	n/a
47.278	0.045	94556	keystroke_w	w	n/a
47.4285	0.1205	94857	keystroke_e	e	n/a
47.5185	0.075	95037	keystroke_d	d	n/a
47.7275	0.015	95455	keystroke_Key.space	Key.space	n/a
47.9085	0.0895	95817	keystroke_s	s	n/a
47.983	0.0295	95966	keystroke_u	u	n/a
48.1185	0.0595	96237	keystroke_c	c	n/a
48.208	0.0605	96416	keystroke_h	h	n/a
48.4175	0.0605	96835	keystroke_Key.enter	Key.enter	n/a
48.4855	5.694	96971	prompt	n/a	revenues logo luther museum\n
49.0485	0.0745	98097	keystroke_r	r	n/a
49.108	0.075	98216	keystroke_e	e	n/a
49.243	0.1205	98486	keystroke_v	v	n/a
49.3485	0.075	98697	keystroke_e	e	n/a
49.4535	0.06	98907	keystroke_n	n	n/a
49.6785	0.045	99357	keystroke_u	u	n/a
49.7985	0.074	99597	keystroke_e	e	n/a
49.979	0.0595	99958	keystroke_s	s	n/a
50.0975	0.03	100195	keystroke_Key.space	Key.space	n/a
50.2335	0.06	100467	keystroke_l	l	n/a
50.3825	0.0755	100765	keystroke_o	o	n/a
50.503	0.06	101006	keystroke_g	g	n/a
50.623	0.09	101246	keystroke_o	o	n/a
50.803	0.06	101606	keystroke_Key.space	Key.space	n/a
51.283	0.0745	102566	keystroke_l	l	n/a
51.4485	0.06	102897	keystroke_u	u	n/a
51.5975	0.0605	103195	keystroke_t	t	n/a
51.703	0.06	103406	keystroke_h	h	n/a
51.793	0.09	103586	keystroke_e	e	n/a
51.8385	0.0895	103677	keystroke_r	r	n/a
51.9435	0.0595	103887	keystroke_Key.space	Key.space	n/a
52.168	0.0605	104336	keystroke_m	m	n/a
52.3185	0.0595	104637	keystroke_e	e	n/a
53.0375	0.1055	106075	keystroke_Key.backspace	Key.backspace	n/a
53.2625	0.0455	106525	keystroke_u	u	n/a
53.353	0.0905	106706	keystroke_s	s	n/a
53.5185	0.0595	107037	keystroke_e	e	n/a
53.668	0.06	107336	keystroke_u	u	n/a
53.833	0.0755	107666	keystroke_m	m	n/a
54.103	0.075	108206	keystroke_Key.enter	Key.enter	n/a
54.187	5.4075	108374	prompt	n/a	derby involved animation intake\n
54.8085	0.1345	109617	keystroke_d	d	n/a
54.928	0.135	109856	keystroke_e	e	n/a
55.048	0.105	110096	keystroke_r	r	n/a
55.2435	0.0595	110487	keystroke_b	b	n/a
55.423	0.045	110846	keystroke_y	y	n/a
55.5135	0.0595	111027	keystroke_Key.space	Key.space	n/a
55.768	0.075	111536	keystroke_i	i	n/a
55.813	0.045	111626	keystroke_n	n	n/a
55.948	0.06	111896	keystroke_v	v	n/a
56.023	0.075	112046	keystroke_o	o	n/a
56.188	0.09	112376	keystroke_l	l	n/a
56.383	0.105	112766	keystroke_v	v	n/a
56.519	0.149	113038	keystroke_e	e	n/a
56.623	0.105	113246	keystroke_d	d	n/a
56.833	0.045	113666	keystroke_Key.space	Key.space	n/a
57.148	0.09	114296	keystroke_a	a	n/a
57.268	0.076	114536	keystroke_n	n	n/a
57.4025	0.075	114805	keystroke_i	i	n/a
57.523	0.12	115046	keystroke_m	m	n/a
57.7335	0.135	115467	keystroke_a	a	n/a
57.808	0.075	115616	keystroke_t	t	n/a
57.928	0.105	115856	keystroke_i	i	n/a
57.943	0.135	115886	keystroke_o	o	n/a
58.003	0.076	116006	keystroke_n	n	n/a
58.093	0.075	116186	keystroke_Key.space	Key.space	n/a
58.6925	0.076	117385	keystroke_i	i	n/a
58.7375	0.0755	117475	keystroke_n	n	n/a
58.858	0.06	117716	keystroke_t	t	n/a
59.0985	0.0745	118197	keystroke_a	a	n/a
59.248	0.075	118496	keystroke_k	k	n/a
59.308	0.076	118616	keystroke_e	e	n/a
59.518	0.075	119036	keystroke_Key.enter	Key.enter	n/a
59.598	5.5615	119196	prompt	n/a	gods recommendations missions viking\n
60.3435	0.0745	120687	keystroke_g	g	n/a
60.434	0.044	120868	keystroke_o	o	n/a
60.613	0.09	121226	keystroke_d	d	n/a
60.794	0.0895	121588	keystroke_s	s	n/a
60.958	0.075	121916	keystroke_Key.space	Key.space	n/a
61.093	0.075	122186	keystroke_r	r	n/a
61.1835	0.0445	122367	keystroke_e	e	n/a
61.288	0.075	122576	keystroke_c	c	n/a
61.393	0.075	122786	keystroke_o	o	n/a
61.438	0.09	122876	keystroke_m	m	n/a
61.5885	0.0755	123177	keystroke_m	m	n/a
61.768	0.06	123536	keystroke_e	e	n/a
61.9035	0.075	123807	keystroke_n	n	n/a
62.0385	0.09	124077	keystroke_d	d	n/a
62.278	0.0895	124556	keystroke_a	a	n/a
62.4135	0.06	124827	keystroke_t	t	n/a
62.5185	0.1045	125037	keystroke_i	i	n/a
62.5485	0.1495	125097	keystroke_o	o	n/a
62.593	0.0605	125186	keystroke_n	n	n/a
62.624	0.149	125248	keystroke_s	s	n/a
62.818	0.06	125636	keystroke_Key.space	Key.space	n/a
63.073	0.0605	126146	keystroke_m	m	n/a
63.178	0.1055	126356	keystroke_i	i	n/a
63.3285	0.06	126657	keystroke_s	s	n/a
63.4635	0.09	126927	keystroke_s	s	n/a
63.5685	0.089	127137	keystroke_i	i	n/a
63.584	0.1045	127168	keystroke_o	o	n/a
63.6135	0.0595	127227	keystroke_n	n	n/a
63.7325	0.091	127465	keystroke_s	s	n/a
63.9125	0.06	127825	keystroke_Key.space	Key.space	n/a
64.333	0.0455	128666	keystroke_v	v	n/a
64.4235	0.0445	128847	keystroke_i	i	n/a
64.573	0.075	129146	keystroke_k	k	n/a
64.783	0.075	129566	keystroke_i	i	n/a
64.813	0.061	129626	keystroke_n	n	n/a
64.903	0.045	129806	keystroke_g	g	n/a
65.0985	0.0585	130197	keystroke_Key.enter	Key.enter	n/a
65.164	8.32	130328	prompt	n/a	molecules aerial founder geography\n
65.8035	0.075	131607	keystroke_m	m	n/a
65.8925	0.076	131785	keystroke_o	o	n/a
66.0885	0.09	132177	keystroke_l	l	n/a
66.2535	0.06	132507	keystroke_e	e	n/a
66.4935	0.06	132987	keystroke_c	c	n/a
66.6585	0.0895	133317	keystroke_u	u	n/a
66.763	0.075	133526	keystroke_l	l	n/a
67.003	0.076	134006	keystroke_e	e	n/a
67.183	0.06	134366	keystroke_s	s	n/a
67.288	0.075	134576	keystroke_Key.space	Key.space	n/a
67.663	0.075	135326	keystroke_a	a	n/a
68.008	0.1055	136016	keystroke_e	e	n/a
68.0835	0.1045	136167	keystroke_r	r	n/a
68.3235	0.045	136647	keystroke_i	i	n/a
68.7875	0.045	137575	keystroke_Key.backspace	Key.backspace	n/a
68.8925	0.09	137785	keystroke_Key.backspace	Key.backspace	n/a
69.283	0.06	138566	keystroke_r	r	n/a
69.388	0.045	138776	keystroke_i	i	n/a
69.554	0.074	139108	keystroke_a	a	n/a
69.704	0.0595	139408	keystroke_l	l	n/a
69.778	0.09	139556	keystroke_Key.space	Key.space	n/a
69.959	0.059	139918	keystroke_f	f	n/a
70.063	0.09	140126	keystroke_o	o	n/a
70.093	0.075	140186	keystroke_u	u	n/a
70.243	0.09	140486	keystroke_n	n	n/a
70.348	0.06	140696	keystroke_d	d	n/a
70.454	0.089	140908	keystroke_e	e	n/a
70.4985	0.0755	140997	keystroke_r	r	n/a
70.633	0.06	141266	keystroke_Key.space	Key.space	n/a
70.8135	0.045	141627	keystroke_g	g	n/a
71.2325	0.0755	142465	keystroke_e	e	n/a
71.383	0.105	142766	keystroke_o	o	n/a
71.833	0.075	143666	keystroke_r	r	n/a
72.193	0.03	144386	keystroke_Key.backspace	Key.backspace	n/a
72.239	0.06	144478	keystroke_g	g	n/a
72.463	0.0155	144926	keystroke_r	r	n/a
72.628	0.0905	145256	keystroke_a	a	n/a
72.838	0.091	145676	keystroke_p	p	n/a
72.913	0.075	145826	keystroke_h	h	n/a
73.0645	0.074	146129	keystroke_y	y	n/a
73.423	0.06	146846	keystroke_Key.enter	Key.enter	n/a
73.4895	7.615	146979	prompt	n/a	remedy limitation elementary retreat\n
74.3235	0.06	148647	keystroke_r	r	n/a
74.368	0.0755	148736	keystroke_e	e	n/a
74.5185	0.045	149037	keystroke_m	m	n/a
74.5935	0.075	149187	keystroke_e	e	n/a
74.7735	0.044	149547	keystroke_d	d	n/a
75.013	0.0445	150026	keystroke_y	y	n/a
75.268	0.075	150536	keystroke_Key.space	Key.space	n/a
75.7335	0.09	151467	keystroke_l	l	n/a
75.793	0.135	151586	keystroke_i	i	n/a
75.943	0.09	151886	keystroke_m	m	n/a
76.093	0.12	152186	keystroke_i	i	n/a
76.3185	0.075	152637	keystroke_t	t	n/a
76.4685	0.09	152937	keystroke_a	a	n/a
76.5425	0.06	153085	keystroke_t	t	n/a
76.678	0.1055	153356	keystroke_i	i	n/a
76.6925	0.136	153385	keystroke_o	o	n/a
76.7375	0.076	153475	keystroke_n	n	n/a
76.9475	0.0605	153895	keystroke_Key.space	Key.space	n/a
77.2635	0.089	154527	keystroke_e	e	n/a
77.368	0.075	154736	keystroke_l	l	n/a
77.4725	0.0755	154945	keystroke_e	e	n/a
77.563	0.0745	155126	keystroke_m	m	n/a
77.6825	0.0455	155365	keystroke_e	e	n/a
77.818	0.045	155636	keystroke_t	t	n/a
78.343	0.0905	156686	keystroke_Key.backspace	Key.backspace	n/a
78.478	0.06	156956	keystroke_n	n	n/a
78.643	0.045	157286	keystroke_t	t	n/a
78.898	0.09	157796	keystroke_a	a	n/a
78.958	0.0615	157916	keystroke_r	r	n/a
79.093	0.06	158186	keystroke_y	y	n/a
79.168	0.074	158336	keystroke_Key.space	Key.space	n/a
79.4225	0.0755	158845	keystroke_r	r	n/a
79.4835	0.0745	158967	keystroke_e	e	n/a
79.6185	0.0895	159237	keystroke_t	t	n/a
79.798	0.12	159596	keystroke_r	r	n/a
79.8735	0.0895	159747	keystroke_e	e	n/a
80.038	0.075	160076	keystroke_t	t	n/a
80.6375	0.03	161275	keystroke_Key.backspace	Key.backspace	n/a
80.6985	0.074	161397	keystroke_a	a	n/a
80.7285	0.0595	161457	keystroke_t	t	n/a
81.028	0.0745	162056	keystroke_Key.enter	Key.enter	n/a
81.1165	8.2235	162233	prompt	n/a	manually sage forward inflation\n
81.7485	0.0595	163497	keystroke_m	m	n/a
81.943	0.06	163886	keystroke_a	a	n/a
82.033	0.045	164066	keystroke_n	n	n/a
82.288	0.045	164576	keystroke_u	u	n/a
82.6785	0.0455	165357	keystroke_l	l	n/a
83.068	0.045	166136	keystroke_Key.backspace	Key.backspace	n/a
83.143	0.1205	166286	keystroke_a	a	n/a
83.293	0.06	166586	keystroke_l	l	n/a
83.443	0.075	166886	keystroke_l	l	n/a
83.593	0.061	167186	keystroke_y	y	n/a
83.638	0.075	167276	keystroke_Key.space	Key.space	n/a
83.818	0.075	167636	keystroke_s	s	n/a
83.968	0.1355	167936	keystroke_a	a	n/a
84.088	0.09	168176	keystroke_g	g	n/a
84.193	0.045	168386	keystroke_e	e	n/a
84.403	0.06	168806	keystroke_Key.space	Key.space	n/a
84.583	0.06	169166	keystroke_f	f	n/a
84.643	0.0755	169286	keystroke_o	o	n/a
84.763	0.075	169526	keystroke_r	r	n/a
84.913	0.09	169826	keystroke_t	t	n/a
84.9885	0.135	169977	keystroke_w	w	n/a
85.048	0.105	170096	keystroke_a	a	n/a
85.393	0.045	170786	keystroke_Key.backspace	Key.backspace	n/a
85.529	0.029	171058	keystroke_Key.backspace	Key.backspace	n/a
85.633	0.06	171266	keystroke_Key.backspace	Key.backspace	n/a
85.783	0.15	171566	keystroke_w	w	n/a
85.798	0.09	171596	keystroke_r	r	n/a
86.353	0.03	172706	keystroke_Key.backspace	Key.backspace	n/a
86.564	0.074	173128	keystroke_a	a	n/a
86.819	0.0745	173638	keystroke_d	d	n/a
87.193	0.045	174386	keystroke_Key.backspace	Key.backspace	n/a
87.224	0.09	174448	keystroke_r	r	n/a
87.315	0.088	174630	keystroke_d	d	n/a
87.523	0.06	175046	keystroke_Key.space	Key.space	n/a
87.808	0.09	175616	keystroke_i	i	n/a
87.8385	0.1495	175677	keystroke_n	n	n/a
88.213	0.09	176426	keystroke_f	f	n/a
88.393	0.09	176786	keystroke_l	l	n/a
88.5875	0.105	177175	keystroke_a	a	n/a
88.648	0.0595	177296	keystroke_t	t	n/a
88.798	0.15	177596	keystroke_i	i	n/a
88.828	0.135	177656	keystroke_o	o	n/a
88.903	0.075	177806	keystroke_n	n	n/a
89.293	0.0445	178586	keystroke_Key.enter	Key.enter	n/a
89.3445	6.295	178689	prompt	n/a	schema projected shine thirty\n
90.088	0.135	180176	keystroke_s	s	n/a
90.178	0.09	180356	keystroke_c	c	n/a
90.298	0.06	180596	keystroke_h	h	n/a
90.3735	0.1055	180747	keystroke_e	e	n/a
90.4485	0.0745	180897	keystroke_d	d	n/a
90.868	0.06	181736	keystroke_Key.backspace	Key.backspace	n/a
91.0635	0.074	182127	keystroke_m	m	n/a
91.1675	0.135	182335	keystroke_a	a	n/a
91.348	0.045	182696	keystroke_Key.space	Key.space	n/a
91.513	0.075	183026	keystroke_p	p	n/a
91.678	0.045	183356	keystroke_r	r	n/a
91.738	0.15	183476	keystroke_o	o	n/a
91.843	0.06	183686	keystroke_j	j	n/a
91.904	0.164	183808	keystroke_e	e	n/a
92.023	0.0905	184046	keystroke_c	c	n/a
92.2335	0.045	184467	keystroke_t	t	n/a
92.353	0.165	184706	keystroke_e	e	n/a
92.473	0.106	184946	keystroke_d	d	n/a
92.623	0.06	185246	keystroke_Key.space	Key.space	n/a
92.833	0.0905	185666	keystroke_s	s	n/a
92.953	0.075	185906	keystroke_h	h	n/a
92.983	0.075	185966	keystroke_i	i	n/a
93.1175	0.076	186235	keystroke_n	n	n/a
93.1785	0.1195	186357	keystroke_e	e	n/a
93.373	0.06	186746	keystroke_Key.space	Key.space	n/a
93.507	0.061	187014	keystroke_t	t	n/a
93.628	0.0605	187256	keystroke_h	h	n/a
93.703	0.105	187406	keystroke_e	e	n/a
93.763	0.09	187526	keystroke_i	i	n/a
93.943	0.06	187886	keystroke_r	r	n/a
94.138	0.015	188276	keystroke_t	t	n/a
94.318	0.03	188636	keystroke_Key.backspace	Key.backspace	n/a
94.423	0.045	188846	keystroke_Key.backspace	Key.backspace	n/a
94.5425	0.075	189085	keystroke_Key.backspace	Key.backspace	n/a
94.6925	0.045	189385	keystroke_Key.backspace	Key.backspace	n/a
94.8725	0.061	189745	keystroke_i	i	n/a
94.9935	0.044	189987	keystroke_r	r	n/a
95.1125	0.075	190225	keystroke_t	t	n/a
95.2035	0.0585	190407	keystroke_y	y	n/a
95.6225	0.015	191245	keystroke_Key.enter	Key.enter	n/a
95.6445	9.505	191289	prompt	n/a	stanley diamond repository engineering\n
96.3275	0.106	192655	keystroke_s	s	n/a
96.988	0.09	193976	keystroke_t	t	n/a
97.1685	0.12	194337	keystroke_a	a	n/a
97.333	0.06	194666	keystroke_n	n	n/a
97.6475	0.12	195295	keystroke_l	l	n/a
97.8575	0.0455	195715	keystroke_e	e	n/a
98.0225	0.045	196045	keystroke_y	y	n/a
98.083	0.0745	196166	keystroke_Key.space	Key.space	n/a
98.2335	0.09	196467	keystroke_d	d	n/a
98.3685	0.12	196737	keystroke_i	i	n/a
98.5625	0.106	197125	keystroke_a	a	n/a
98.7875	0.045	197575	keystroke_m	m	n/a
98.9085	0.06	197817	keystroke_o	o	n/a
98.9825	0.076	197965	keystroke_n	n	n/a
99.1935	0.06	198387	keystroke_d	d	n/a
99.343	0.0605	198686	keystroke_Key.space	Key.space	n/a
99.4925	0.0605	198985	keystroke_r	r	n/a
99.598	0.09	199196	keystroke_i	i	n/a
99.6735	0.045	199347	keystroke_n	n	n/a
99.793	0.06	199586	keystroke_g	g	n/a
100.1825	0.06	200365	keystroke_Key.backspace	Key.backspace	n/a
100.318	0.0595	200636	keystroke_Key.backspace	Key.backspace	n/a
100.4375	0.09	200875	keystroke_Key.backspace	Key.backspace	n/a
100.6635	0.0895	201327	keystroke_r	r	n/a
100.7235	0.0745	201447	keystroke_e	e	n/a
101.1275	0.06	202255	keystroke_Key.backspace	Key.backspace	n/a
101.2475	0.06	202495	keystroke_Key.backspace	Key.backspace	n/a
101.3235	0.074	202647	keystroke_e	e	n/a
101.4875	0.106	202975	keystroke_p	p	n/a
101.563	0.12	203126	keystroke_o	o	n/a
101.6975	0.1205	203395	keystroke_s	s	n/a
101.9225	0.061	203845	keystroke_i	i	n/a
102.1025	0.0455	204205	keystroke_t	t	n/a
102.1925	0.075	204385	keystroke_o	o	n/a
102.3275	0.0605	204655	keystroke_r	r	n/a
102.4625	0.045	204925	keystroke_y	y	n/a
102.6875	0.045	205375	keystroke_Key.space	Key.space	n/a
102.868	0.0595	205736	keystroke_e	e	n/a
102.9575	0.09	205915	keystroke_n	n	n/a
103.0925	0.0605	206185	keystroke_g	g	n/a
103.198	0.06	206396	keystroke_i	i	n/a
103.6775	0.0745	207355	keystroke_n	n	n/a
104.0685	0.0895	208137	keystroke_e	e	n/a
104.2485	0.135	208497	keystroke_e	e	n/a
104.3685	0.105	208737	keystroke_r	r	n/a
104.4885	0.1045	208977	keystroke_i	i	n/a
104.518	0.0605	209036	keystroke_n	n	n/a
104.608	0.0605	209216	keystroke_g	g	n/a
105.0575	0.09	210115	keystroke_Key.enter	Key.enter	n/a
105.1605	6.441	210321	prompt	n/a	completing graphical action remove\n
105.763	0.075	211526	keystroke_c	c	n/a
105.853	0.15	211706	keystroke_o	o	n/a
105.913	0.12	211826	keystroke_m	m	n/a
106.048	0.1205	212096	keystroke_p	p	n/a
106.244	0.089	212488	keystroke_l	l	n/a
106.423	0.0745	212846	keystroke_e	e	n/a
106.543	0.075	213086	keystroke_t	t	n/a
106.6625	0.091	213325	keystroke_i	i	n/a
106.6925	0.076	213385	keystroke_n	n	n/a
106.813	0.0605	213626	keystroke_g	g	n/a
106.9325	0.075	213865	keystroke_Key.space	Key.space	n/a
107.548	0.015	215096	keystroke_g	g	n/a
107.6375	0.1055	215275	keystroke_r	r	n/a
107.728	0.1205	215456	keystroke_a	a	n/a
107.8935	0.045	215787	keystroke_p	p	n/a
107.9685	0.0745	215937	keystroke_h	h	n/a
108.1635	0.075	216327	keystroke_i	i	n/a
108.2835	0.1345	216567	keystroke_c	c	n/a
108.4035	0.059	216807	keystroke_a	a	n/a
108.5225	0.091	217045	keystroke_l	l	n/a
108.5975	0.075	217195	keystroke_Key.space	Key.space	n/a
109.0325	0.1355	218065	keystroke_a	a	n/a
109.138	0.0595	218276	keystroke_c	c	n/a
109.3335	0.045	218667	keystroke_t	t	n/a
109.4385	0.1345	218877	keystroke_i	i	n/a
109.468	0.106	218936	keystroke_o	o	n/a
109.528	0.09	219056	keystroke_n	n	n/a
109.633	0.045	219266	keystroke_Key.space	Key.space	n/a
109.9485	0.0895	219897	keystroke_r	r	n/a
110.023	0.06	220046	keystroke_e	e	n/a
110.203	0.09	220406	keystroke_o	o	n/a
110.3535	0.0745	220707	keystroke_v	v	n/a
110.7575	0.0445	221515	keystroke_Key.backspace	Key.backspace	n/a
110.878	0.0595	221756	keystroke_Key.backspace	Key.backspace	n/a
111.088	0.045	222176	keystroke_m	m	n/a
111.117	0.076	222234	keystroke_o	o	n/a
111.223	0.105	222446	keystroke_v	v	n/a
111.283	0.06	222566	keystroke_e	e	n/a
111.537	0.0605	223074	keystroke_Key.enter	Key.enter	n/a
111.6065	7.8075	223213	prompt	n/a	drug strengths athens ghost\n
112.1685	0.089	224337	keystroke_d	d	n/a
112.3485	0.045	224697	keystroke_u	u	n/a
112.3785	0.0595	224757	keystroke_r	r	n/a
112.7225	0.0455	225445	keystroke_Key.backspace	Key.backspace	n/a
112.842	0.061	225684	keystroke_Key.backspace	Key.backspace	n/a
112.918	0.06	225836	keystroke_r	r	n/a
113.038	0.0455	226076	keystroke_u	u	n/a
113.098	0.0595	226196	keystroke_g	g	n/a
113.2785	0.0595	226557	keystroke_Key.space	Key.space	n/a
113.4435	0.15	226887	keystroke_s	s	n/a
113.608	0.0445	227216	keystroke_t	t	n/a
114.3285	0.104	228657	keystroke_r	r	n/a
114.4175	0.076	228835	keystroke_e	e	n/a
114.733	0.0595	229466	keystroke_n	n	n/a
114.8685	0.045	229737	keystroke_t	t	n/a
115.378	0.06	230756	keystroke_Key.backspace	Key.backspace	n/a
115.468	0.0905	230936	keystroke_g	g	n/a
115.618	0.075	231236	keystroke_h	h	n/a
115.6635	0.0595	231327	keystroke_t	t	n/a
115.858	0.075	231716	keystroke_s	s	n/a
116.218	0.0445	232436	keystroke_Key.backspace	Key.backspace	n/a
116.338	0.0595	232676	keystroke_Key.backspace	Key.backspace	n/a
116.4575	0.075	232915	keystroke_Key.backspace	Key.backspace	n/a
116.5635	0.059	233127	keystroke_t	t	n/a
116.6685	0.089	233337	keystroke_h	h	n/a
116.7725	0.091	233545	keystroke_s	s	n/a
116.8935	0.059	233787	keystroke_Key.space	Key.space	n/a
117.298	0.105	234596	keystroke_a	a	n/a
117.568	0.06	235136	keystroke_t	t	n/a
117.6585	0.0745	235317	keystroke_h	h	n/a
117.7925	0.061	235585	keystroke_e	e	n/a
117.8835	0.06	235767	keystroke_n	n	n/a
118.1385	0.1345	236277	keystroke_s	s	n/a
118.3335	0.074	236667	keystroke_Key.space	Key.space	n/a
118.6335	0.06	237267	keystroke_g	g	n/a
118.7685	0.105	237537	keystroke_h	h	n/a
118.8575	0.09	237715	keystroke_o	o	n/a
119.0075	0.151	238015	keystroke_s	s	n/a
119.0975	0.0455	238195	keystroke_t	t	n/a
119.353	0.06	238706	keystroke_Key.enter	Key.enter	n/a
119.418	8.396	238836	prompt	n/a	confident sophisticated trips fisheries\n
120.073	0.09	240146	keystroke_c	c	n/a
120.253	0.09	240506	keystroke_o	o	n/a
120.313	0.09	240626	keystroke_n	n	n/a
120.463	0.075	240926	keystroke_f	f	n/a
120.598	0.06	241196	keystroke_i	i	n/a
120.703	0.1955	241406	keystroke_d	d	n/a
120.838	0.106	241676	keystroke_e	e	n/a
121.048	0.03	242096	keystroke_n	n	n/a
121.138	0.075	242276	keystroke_t	t	n/a
121.723	0.075	243446	keystroke_Key.space	Key.space	n/a
121.978	0.09	243956	keystroke_s	s	n/a
122.1735	0.0895	244347	keystroke_o	o	n/a
122.278	0.12	244556	keystroke_p	p	n/a
122.503	0.105	245006	keystroke_h	h	n/a
122.668	0.135	245336	keystroke_i	i	n/a
122.863	0.075	245726	keystroke_c	c	n/a
123.224	0.029	246448	keystroke_Key.backspace	Key.backspace	n/a
123.283	0.105	246566	keystroke_s	s	n/a
123.343	0.06	246686	keystroke_t	t	n/a
123.433	0.076	246866	keystroke_i	i	n/a
123.568	0.09	247136	keystroke_c	c	n/a
123.628	0.0745	247256	keystroke_i	i	n/a
123.7625	0.106	247525	keystroke_a	a	n/a
123.8835	0.0595	247767	keystroke_t	t	n/a
124.092	0.06	248184	keystroke_Key.backspace	Key.backspace	n/a
124.228	0.06	248456	keystroke_Key.backspace	Key.backspace	n/a
124.347	0.076	248694	keystroke_Key.backspace	Key.backspace	n/a
124.453	0.104	248906	keystroke_a	a	n/a
124.498	0.075	248996	keystroke_t	t	n/a
124.603	0.165	249206	keystroke_e	e	n/a
124.7385	0.0745	249477	keystroke_d	d	n/a
124.828	0.059	249656	keystroke_Key.space	Key.space	n/a
125.5325	0.061	251065	keystroke_t	t	n/a
125.6825	0.105	251365	keystroke_r	r	n/a
125.8185	0.09	251637	keystroke_i	i	n/a
125.9385	0.0745	251877	keystroke_p	p	n/a
126.0275	0.121	252055	keystroke_s	s	n/a
126.253	0.0745	252506	keystroke_Key.space	Key.space	n/a
126.5235	0.06	253047	keystroke_f	f	n/a
126.6125	0.061	253225	keystroke_i	i	n/a
126.8075	0.1055	253615	keystroke_s	s	n/a
126.943	0.06	253886	keystroke_h	h	n/a
127.048	0.105	254096	keystroke_e	e	n/a
127.122	0.106	254244	keystroke_r	r	n/a
127.273	0.075	254546	keystroke_i	i	n/a
127.393	0.105	254786	keystroke_e	e	n/a
127.5585	0.09	255117	keystroke_s	s	n/a
127.753	0.06	255506	keystroke_Key.enter	Key.enter	n/a
127.8185	7.361	255637	prompt	n/a	possession strong employees interactive\n
128.5025	0.045	257005	keystroke_p	p	n/a
128.6835	0.0595	257367	keystroke_o	o	n/a
129.2975	0.0605	258595	keystroke_s	s	n/a
129.4035	0.0595	258807	keystroke_s	s	n/a
129.5085	0.0745	259017	keystroke_s	s	n/a
129.883	0.045	259766	keystroke_Key.backspace	Key.backspace	n/a
130.153	0.075	260306	keystroke_e	e	n/a
130.3335	0.0745	260667	keystroke_s	s	n/a
130.483	0.09	260966	keystroke_s	s	n/a
130.6635	0.1045	261327	keystroke_i	i	n/a
130.678	0.105	261356	keystroke_o	o	n/a
130.708	0.09	261416	keystroke_n	n	n/a
130.903	0.044	261806	keystroke_Key.space	Key.space	n/a
131.458	0.1355	262916	keystroke_s	s	n/a
131.563	0.0745	263126	keystroke_t	t	n/a
131.7125	0.0755	263425	keystroke_r	r	n/a
131.8025	0.09	263605	keystroke_o	o	n/a
131.8485	0.09	263697	keystroke_n	n	n/a
131.9835	0.0595	263967	keystroke_g	g	n/a
132.0725	0.0755	264145	keystroke_Key.space	Key.space	n/a
132.1775	0.0755	264355	keystroke_e	e	n/a
132.3135	0.1045	264627	keystroke_m	m	n/a
132.403	0.2105	264806	keystroke_p	p	n/a
132.583	0.061	265166	keystroke_l	l	n/a
132.823	0.105	265646	keystroke_o	o	n/a
133.018	0.045	266036	keystroke_y	y	n/a
133.1675	0.045	266335	keystroke_e	e	n/a
133.2875	0.075	266575	keystroke_e	e	n/a
133.5425	0.015	267085	keystroke_s	s	n/a
133.6025	0.075	267205	keystroke_Key.space	Key.space	n/a
133.8725	0.0605	267745	keystroke_i	i	n/a
133.9175	0.076	267835	keystroke_n	n	n/a
134.0235	0.075	268047	keystroke_t	t	n/a
134.0835	0.119	268167	keystroke_e	e	n/a
134.1875	0.106	268375	keystroke_r	r	n/a
134.3385	0.179	268677	keystroke_a	a	n/a
134.4875	0.0755	268975	keystroke_c	c	n/a
134.6685	0.06	269337	keystroke_t	t	n/a
134.7735	0.06	269547	keystroke_i	i	n/a
134.8485	0.075	269697	keystroke_v	v	n/a
134.8785	0.0895	269757	keystroke_e	e	n/a
135.133	0.044	270266	keystroke_Key.enter	Key.enter	n/a
135.186	7.3435	270372	prompt	n/a	sometimes paid diameter removing\n
135.8085	0.0595	271617	keystroke_s	s	n/a
136.0485	0.0595	272097	keystroke_o	o	n/a
136.0925	0.0755	272185	keystroke_m	m	n/a
136.198	0.105	272396	keystroke_e	e	n/a
136.288	0.06	272576	keystroke_t	t	n/a
136.393	0.075	272786	keystroke_i	i	n/a
136.4535	0.045	272907	keystroke_m	m	n/a
136.558	0.105	273116	keystroke_e	e	n/a
136.768	0.0605	273536	keystroke_s	s	n/a
136.888	0.045	273776	keystroke_Key.space	Key.space	n/a
137.008	0.09	274016	keystroke_p	p	n/a
137.143	0.09	274286	keystroke_a	a	n/a
137.278	0.09	274556	keystroke_i	i	n/a
137.383	0.0905	274766	keystroke_d	d	n/a
137.443	0.045	274886	keystroke_Key.space	Key.space	n/a
137.743	0.09	275486	keystroke_d	d	n/a
137.908	0.076	275816	keystroke_i	i	n/a
138.133	0.09	276266	keystroke_a	a	n/a
138.298	0.045	276596	keystroke_m	m	n/a
138.583	0.075	277166	keystroke_t	t	n/a
138.7335	0.0595	277467	keystroke_e	e	n/a
139.032	0.046	278064	keystroke_Key.backspace	Key.backspace	n/a
139.153	0.044	278306	keystroke_Key.backspace	Key.backspace	n/a
139.213	0.0905	278426	keystroke_e	e	n/a
139.273	0.06	278546	keystroke_t	t	n/a
139.378	0.09	278756	keystroke_e	e	n/a
139.438	0.0755	278876	keystroke_r	r	n/a
139.603	0.0445	279206	keystroke_Key.space	Key.space	n/a
139.9185	0.09	279837	keystroke_e	e	n/a
140.398	0.135	280796	keystroke_r	r	n/a
140.488	0.0605	280976	keystroke_e	e	n/a
140.758	0.06	281516	keystroke_Key.backspace	Key.backspace	n/a
140.908	0.045	281816	keystroke_Key.backspace	Key.backspace	n/a
141.013	0.06	282026	keystroke_Key.backspace	Key.backspace	n/a
141.118	0.0755	282236	keystroke_r	r	n/a
141.1785	0.06	282357	keystroke_e	e	n/a
141.447	0.0465	282894	keystroke_m	m	n/a
141.4635	0.0745	282927	keystroke_o	o	n/a
141.6875	0.0605	283375	keystroke_v	v	n/a
141.943	0.0905	283886	keystroke_i	i	n/a
142.003	0.06	284006	keystroke_n	n	n/a
142.123	0.06	284246	keystroke_g	g	n/a
142.468	0.06	284936	keystroke_Key.enter	Key.enter	n/a
142.534	4.997	285068	prompt	n/a	lite tile painted counter\n
143.4285	0.075	286857	keystroke_l	l	n/a
143.4435	0.09	286887	keystroke_i	i	n/a
143.6235	0.044	287247	keystroke_t	t	n/a
143.758	0.075	287516	keystroke_e	e	n/a
143.9085	0.09	287817	keystroke_l	l	n/a
144.613	0.06	289226	keystroke_Key.backspace	Key.backspace	n/a
144.793	0.06	289586	keystroke_Key.space	Key.space	n/a
144.929	0.074	289858	keystroke_t	t	n/a
145.0485	0.1045	290097	keystroke_i	i	n/a
145.123	0.1205	290246	keystroke_l	l	n/a
145.2585	0.075	290517	keystroke_e	e	n/a
145.423	0.0745	290846	keystroke_Key.space	Key.space	n/a
145.4535	0.12	290907	keystroke_p	p	n/a
145.693	0.044	291386	keystroke_a	a	n/a
145.813	0.1195	291626	keystroke_i	i	n/a
145.888	0.0895	291776	keystroke_n	n	n/a
146.0235	0.1195	292047	keystroke_t	t	n/a
146.128	0.2095	292256	keystroke_e	e	n/a
146.2925	0.1205	292585	keystroke_d	d	n/a
146.4425	0.0755	292885	keystroke_Key.space	Key.space	n/a
146.6085	0.075	293217	keystroke_c	c	n/a
146.6985	0.075	293397	keystroke_o	o	n/a
146.7435	0.075	293487	keystroke_u	u	n/a
146.893	0.0755	293786	keystroke_n	n	n/a
147.0285	0.105	294057	keystroke_t	t	n/a
147.119	0.134	294238	keystroke_e	e	n/a
147.1935	0.089	294387	keystroke_r	r	n/a
147.4775	0.045	294955	keystroke_Key.enter	Key.enter	n/a
147.5375	7.4885	295075	prompt	n/a	nicaragua custody material feature\n
148.2285	0.075	296457	keystroke_n	n	n/a
148.3785	0.075	296757	keystroke_i	i	n/a
148.603	0.06	297206	keystroke_c	c	n/a
149.3685	0.09	298737	keystroke_a	a	n/a
149.4285	0.089	298857	keystroke_r	r	n/a
149.8035	0.15	299607	keystroke_a	a	n/a
150.1175	0.075	300235	keystroke_g	g	n/a
150.2825	0.0605	300565	keystroke_u	u	n/a
150.493	0.075	300986	keystroke_e	e	n/a
150.898	0.045	301796	keystroke_Key.backspace	Key.backspace	n/a
150.958	0.12	301916	keystroke_a	a	n/a
151.123	0.0745	302246	keystroke_Key.space	Key.space	n/a
151.3185	0.09	302637	keystroke_c	c	n/a
151.438	0.06	302876	keystroke_o	o	n/a
151.738	0.045	303476	keystroke_Key.backspace	Key.backspace	n/a
151.9635	0.0295	303927	keystroke_u	u	n/a
152.067	0.1205	304134	keystroke_s	s	n/a
152.1575	0.06	304315	keystroke_t	t	n/a
152.3685	0.075	304737	keystroke_o	o	n/a
152.4885	0.06	304977	keystroke_d	d	n/a
152.6385	0.015	305277	keystroke_y	y	n/a
152.803	0.0755	305606	keystroke_Key.space	Key.space	n/a
153.1925	0.045	306385	keystroke_m	m	n/a
153.2835	0.1195	306567	keystroke_a	a	n/a
153.358	0.075	306716	keystroke_t	t	n/a
153.478	0.0905	306956	keystroke_e	e	n/a
153.5085	0.0905	307017	keystroke_r	r	n/a
153.659	0.059	307318	keystroke_i	i	n/a
153.778	0.105	307556	keystroke_a	a	n/a
153.884	0.0895	307768	keystroke_l	l	n/a
154.0325	0.0905	308065	keystroke_Key.space	Key.space	n/a
154.228	0.0605	308456	keystroke_f	f	n/a
154.3035	0.179	308607	keystroke_e	e	n/a
154.4225	0.12	308845	keystroke_a	a	n/a
154.4835	0.0895	308967	keystroke_t	t	n/a
154.5875	0.06	309175	keystroke_u	u	n/a
154.693	0.09	309386	keystroke_r	r	n/a
154.7535	0.075	309507	keystroke_e	e	n/a
154.9625	0.0605	309925	keystroke_Key.enter	Key.enter	n/a
155.03	6.0845	310060	prompt	n/a	wordpress classified shots siemens\n
155.7285	0.105	311457	keystroke_w	w	n/a
155.7885	0.075	311577	keystroke_o	o	n/a
155.9225	0.061	311845	keystroke_r	r	n/a
156.0585	0.104	312117	keystroke_d	d	n/a
156.2375	0.076	312475	keystroke_p	p	n/a
156.388	0.0905	312776	keystroke_r	r	n/a
156.4635	0.045	312927	keystroke_e	e	n/a
156.5825	0.1205	313165	keystroke_s	s	n/a
156.779	0.074	313558	keystroke_s	s	n/a
156.958	0.06	313916	keystroke_Key.space	Key.space	n/a
157.123	0.075	314246	keystroke_c	c	n/a
157.258	0.09	314516	keystroke_l	l	n/a
157.393	0.105	314786	keystroke_a	a	n/a
157.5575	0.0905	315115	keystroke_s	s	n/a
157.7225	0.121	315445	keystroke_s	s	n/a
157.8875	0.0305	315775	keystroke_i	i	n/a
157.9025	0.1205	315805	keystroke_f	f	n/a
158.083	0.0895	316166	keystroke_i	i	n/a
158.203	0.12	316406	keystroke_e	e	n/a
158.293	0.0895	316586	keystroke_d	d	n/a
158.7575	0.06	317515	keystroke_Key.space	Key.space	n/a
158.9535	0.105	317907	keystroke_s	s	n/a
159.073	0.0755	318146	keystroke_h	h	n/a
159.1335	0.09	318267	keystroke_o	o	n/a
159.2385	0.06	318477	keystroke_t	t	n/a
159.3435	0.1195	318687	keystroke_s	s	n/a
159.508	0.059	319016	keystroke_Key.space	Key.space	n/a
159.703	0.075	319406	keystroke_s	s	n/a
159.838	0.075	319676	keystroke_i	i	n/a
160.0035	0.06	320007	keystroke_e	e	n/a
160.1835	0.0295	320367	keystroke_m	m	n/a
160.513	0.075	321026	keystroke_e	e	n/a
160.678	0.0595	321356	keystroke_n	n	n/a
160.798	0.1055	321596	keystroke_s	s	n/a
161.038	0.0745	322076	keystroke_Key.enter	Key.enter	n/a
161.119	8.545	322238	prompt	n/a	societies ntsc famous devel\n
161.803	0.105	323606	keystroke_s	s	n/a
161.953	0.075	323906	keystroke_o	o	n/a
162.1635	0.0595	324327	keystroke_c	c	n/a
162.283	0.0605	324566	keystroke_i	i	n/a
162.4485	0.089	324897	keystroke_a	a	n/a
162.673	0.0305	325346	keystroke_t	t	n/a
163.003	0.0745	326006	keystroke_Key.backspace	Key.backspace	n/a
163.093	0.105	326186	keystroke_Key.backspace	Key.backspace	n/a
163.499	0.0745	326998	keystroke_e	e	n/a
163.528	0.1045	327056	keystroke_t	t	n/a
163.7525	0.045	327505	keystroke_i	i	n/a
163.8725	0.091	327745	keystroke_e	e	n/a
164.0525	0.105	328105	keystroke_s	s	n/a
164.2175	0.075	328435	keystroke_Key.space	Key.space	n/a
165.1785	0.045	330357	keystroke_c	c	n/a
165.553	0.075	331106	keystroke_Key.backspace	Key.backspace	n/a
165.793	0.045	331586	keystroke_n	n	n/a
165.883	0.044	331766	keystroke_t	t	n/a
166.273	0.135	332546	keystroke_s	s	n/a
166.408	0.06	332816	keystroke_c	c	n/a
166.903	0.075	333806	keystroke_Key.space	Key.space	n/a
167.038	0.075	334076	keystroke_f	f	n/a
167.143	0.075	334286	keystroke_a	a	n/a
167.263	0.0745	334526	keystroke_m	m	n/a
167.3685	0.1195	334737	keystroke_o	o	n/a
167.4735	0.059	334947	keystroke_u	u	n/a
167.6685	0.104	335337	keystroke_s	s	n/a
168.4335	0.0595	336867	keystroke_Key.space	Key.space	n/a
168.628	0.105	337256	keystroke_d	d	n/a
168.718	0.12	337436	keystroke_e	e	n/a
168.853	0.074	337706	keystroke_v	v	n/a
169.063	0.06	338126	keystroke_e	e	n/a
169.333	0.0595	338666	keystroke_l	l	n/a
169.6025	0.06	339205	keystroke_Key.enter	Key.enter	n/a
169.667	5.7275	339334	prompt	n/a	bones evidence measurement reviews\n
170.443	0.06	340886	keystroke_b	b	n/a
170.593	0.075	341186	keystroke_o	o	n/a
170.6385	0.0595	341277	keystroke_n	n	n/a
170.743	0.0905	341486	keystroke_e	e	n/a
170.938	0.0755	341876	keystroke_s	s	n/a
171.0575	0.0605	342115	keystroke_Key.space	Key.space	n/a
171.4175	0.151	342835	keystroke_e	e	n/a
171.5685	0.074	343137	keystroke_v	v	n/a
171.6575	0.076	343315	keystroke_i	i	n/a
171.7935	0.1645	343587	keystroke_d	d	n/a
171.8835	0.119	343767	keystroke_e	e	n/a
172.0925	0.06	344185	keystroke_n	n	n/a
172.1985	0.0745	344397	keystroke_c	c	n/a
172.2435	0.0895	344487	keystroke_e	e	n/a
172.738	0.0595	345476	keystroke_Key.space	Key.space	n/a
172.963	0.0605	345926	keystroke_m	m	n/a
173.0535	0.1645	346107	keystroke_e	e	n/a
173.1735	0.18	346347	keystroke_a	a	n/a
173.3085	0.135	346617	keystroke_s	s	n/a
173.4875	0.046	346975	keystroke_u	u	n/a
173.6235	0.105	347247	keystroke_r	r	n/a
173.6975	0.076	347395	keystroke_e	e	n/a
173.8635	0.045	347727	keystroke_m	m	n/a
173.9385	0.075	347877	keystroke_e	e	n/a
174.0575	0.076	348115	keystroke_n	n	n/a
174.1625	0.091	348325	keystroke_t	t	n/a
174.2975	0.06	348595	keystroke_Key.space	Key.space	n/a
174.418	0.0905	348836	keystroke_r	r	n/a
174.493	0.075	348986	keystroke_e	e	n/a
174.659	0.1035	349318	keystroke_v	v	n/a
174.7335	0.0595	349467	keystroke_i	i	n/a
174.8225	0.121	349645	keystroke_e	e	n/a
175.0035	0.089	350007	keystroke_w	w	n/a
175.1835	0.09	350367	keystroke_s	s	n/a
175.333	0.06	350666	keystroke_Key.enter	Key.enter	n/a
175.4035	6.246	350807	prompt	n/a	binary soft loves characterization\n
176.023	0.045	352046	keystroke_b	b	n/a
176.098	0.0905	352196	keystroke_i	i	n/a
176.158	0.046	352316	keystroke_n	n	n/a
176.263	0.135	352526	keystroke_a	a	n/a
176.399	0.0885	352798	keystroke_r	r	n/a
176.593	0.045	353186	keystroke_y	y	n/a
176.668	0.075	353336	keystroke_Key.space	Key.space	n/a
176.847	0.091	353694	keystroke_s	s	n/a
176.952	0.075	353904	keystroke_o	o	n/a
177.088	0.075	354176	keystroke_f	f	n/a
177.2085	0.105	354417	keystroke_t	t	n/a
177.463	0.075	354926	keystroke_Key.space	Key.space	n/a
177.598	0.075	355196	keystroke_l	l	n/a
177.748	0.075	355496	keystroke_o	o	n/a
177.793	0.12	355586	keystroke_v	v	n/a
177.868	0.105	355736	keystroke_e	e	n/a
178.033	0.105	356066	keystroke_s	s	n/a
178.153	0.06	356306	keystroke_Key.space	Key.space	n/a
178.258	0.106	356516	keystroke_c	c	n/a
178.408	0.0595	356816	keystroke_h	h	n/a
178.4985	0.119	356997	keystroke_a	a	n/a
178.5585	0.0745	357117	keystroke_r	r	n/a
178.678	0.15	357356	keystroke_a	a	n/a
178.873	0.0305	357746	keystroke_t	t	n/a
179.3675	0.015	358735	keystroke_Key.backspace	Key.backspace	n/a
179.3845	0.088	358769	keystroke_c	c	n/a
179.5775	0.0605	359155	keystroke_t	t	n/a
179.7275	0.09	359455	keystroke_e	e	n/a
179.7875	0.09	359575	keystroke_r	r	n/a
179.953	0.075	359906	keystroke_i	i	n/a
180.118	0.1355	360236	keystroke_z	z	n/a
180.2375	0.0905	360475	keystroke_e	e	n/a
180.4485	0.0895	360897	keystroke_a	a	n/a
180.792	0.045	361584	keystroke_Key.backspace	Key.backspace	n/a
180.913	0.0595	361826	keystroke_Key.backspace	Key.backspace	n/a
181.003	0.1055	362006	keystroke_a	a	n/a
181.0485	0.0745	362097	keystroke_t	t	n/a
181.168	0.1205	362336	keystroke_i	i	n/a
181.1835	0.1195	362367	keystroke_o	o	n/a
181.258	0.06	362516	keystroke_n	n	n/a
181.588	0.0595	363176	keystroke_Key.enter	Key.enter	n/a
181.654	5.0805	363308	prompt	n/a	directors named licensed quick\n
182.2185	0.06	364437	keystroke_d	d	n/a
182.3085	0.06	364617	keystroke_i	i	n/a
182.4425	0.0905	364885	keystroke_r	r	n/a
182.5625	0.076	365125	keystroke_e	e	n/a
182.7435	0.104	365487	keystroke_s	s	n/a
183.238	0.0455	366476	keystroke_Key.backspace	Key.backspace	n/a
183.2985	0.0295	366597	keystroke_c	c	n/a
183.4325	0.061	366865	keystroke_t	t	n/a
183.5835	0.06	367167	keystroke_o	o	n/a
183.6445	0.119	367289	keystroke_r	r	n/a
183.7485	0.074	367497	keystroke_s	s	n/a
183.8825	0.0755	367765	keystroke_Key.space	Key.space	n/a
184.4985	0.045	368997	keystroke_n	n	n/a
184.573	0.09	369146	keystroke_a	a	n/a
184.678	0.0745	369356	keystroke_m	m	n/a
184.768	0.1355	369536	keystroke_e	e	n/a
184.858	0.0755	369716	keystroke_d	d	n/a
184.948	0.06	369896	keystroke_Key.space	Key.space	n/a
185.0985	0.089	370197	keystroke_l	l	n/a
185.1585	0.074	370317	keystroke_i	i	n/a
185.248	0.075	370496	keystroke_c	c	n/a
185.3535	0.09	370707	keystroke_e	e	n/a
185.548	0.06	371096	keystroke_n	n	n/a
185.6385	0.0895	371277	keystroke_s	s	n/a
185.7885	0.075	371577	keystroke_e	e	n/a
185.9375	0.076	371875	keystroke_Key.space	Key.space	n/a
186.163	0.045	372326	keystroke_q	q	n/a
186.268	0.03	372536	keystroke_u	u	n/a
186.283	0.06	372566	keystroke_i	i	n/a
186.358	0.06	372716	keystroke_c	c	n/a
186.448	0.075	372896	keystroke_k	k	n/a
186.673	0.06	373346	keystroke_Key.enter	Key.enter	n/a
186.7435	12.711	373487	prompt	n/a	influences jill flow heritage\n
188.338	0.0295	376676	keystroke_i	i	n/a
188.3525	0.0305	376705	keystroke_n	n	n/a
188.428	0.0595	376856	keystroke_c	c	n/a
188.6535	0.06	377307	keystroke_l	l	n/a
188.9375	0.0455	377875	keystroke_Key.backspace	Key.backspace	n/a
189.058	0.0605	378116	keystroke_Key.backspace	Key.backspace	n/a
189.178	0.045	378356	keystroke_f	f	n/a
189.238	0.0905	378476	keystroke_l	l	n/a
189.3435	0.045	378687	keystroke_u	u	n/a
189.4185	0.075	378837	keystroke_e	e	n/a
189.6285	0.09	379257	keystroke_c	c	n/a
190.0775	0.03	380155	keystroke_Key.backspace	Key.backspace	n/a
190.3035	0.06	380607	keystroke_n	n	n/a
190.408	0.0905	380816	keystroke_c	c	n/a
190.468	0.0605	380936	keystroke_e	e	n/a
190.6335	0.0745	381267	keystroke_s	s	n/a
190.7525	0.0605	381505	keystroke_Key.space	Key.space	n/a
191.1875	0.061	382375	keystroke_f	f	n/a
191.533	0.03	383066	keystroke_Key.backspace	Key.backspace	n/a
191.773	0.06	383546	keystroke_f	f	n/a
191.818	0.061	383636	keystroke_i	i	n/a
192.0435	0.0595	384087	keystroke_l	l	n/a
192.163	0.0905	384326	keystroke_l	l	n/a
192.4025	0.015	384805	keystroke_Key.space	Key.space	n/a
192.4935	0.06	384987	keystroke_f	f	n/a
192.6125	0.06	385225	keystroke_l	l	n/a
192.7625	0.045	385525	keystroke_o	o	n/a
193.003	0.0145	386006	keystroke_Key.backspace	Key.backspace	n/a
193.093	0.0595	386186	keystroke_Key.backspace	Key.backspace	n/a
193.213	0.1045	386426	keystroke_Key.backspace	Key.backspace	n/a
193.3775	0.0905	386755	keystroke_Key.backspace	Key.backspace	n/a
193.543	0.0455	387086	keystroke_Key.backspace	Key.backspace	n/a
193.663	0.1195	387326	keystroke_Key.backspace	Key.backspace	n/a
193.843	0.105	387686	keystroke_Key.backspace	Key.backspace	n/a
194.368	0.045	388736	keystroke_Key.backspace	Key.backspace	n/a
194.6375	0.045	389275	keystroke_h	h	n/a
194.653	0.0595	389306	keystroke_j	j	n/a
194.743	0.15	389486	keystroke_i	i	n/a
194.818	0.1655	389636	keystroke_l	l	n/a
195.253	0.03	390506	keystroke_Key.backspace	Key.backspace	n/a
195.3575	0.165	390715	keystroke_Key.backspace	Key.backspace	n/a
195.583	0.0745	391166	keystroke_Key.backspace	Key.backspace	n/a
195.718	0.09	391436	keystroke_Key.backspace	Key.backspace	n/a
196.6335	0.1195	393267	keystroke_j	j	n/a
196.768	0.105	393536	keystroke_i	i	n/a
196.828	0.09	393656	keystroke_l	l	n/a
196.978	0.09	393956	keystroke_l	l	n/a
197.143	0.075	394286	keystroke_Key.space	Key.space	n/a
197.278	0.075	394556	keystroke_f	f	n/a
197.398	0.045	394796	keystroke_l	l	n/a
197.503	0.0905	395006	keystroke_o	o	n/a
197.5475	0.091	395095	keystroke_w	w	n/a
197.7725	0.06	395545	keystroke_Key.space	Key.space	n/a
198.0885	0.06	396177	keystroke_h	h	n/a
198.1635	0.089	396327	keystroke_e	e	n/a
198.2235	0.135	396447	keystroke_r	r	n/a
198.388	0.06	396776	keystroke_i	i	n/a
198.523	0.045	397046	keystroke_t	t	n/a
198.613	0.046	397226	keystroke_a	a	n/a
198.913	0.075	397826	keystroke_g	g	n/a
199.0925	0.06	398185	keystroke_e	e	n/a
199.3925	0.0605	398785	keystroke_Key.enter	Key.enter	n/a
199.459	8.7705	398918	prompt	n/a	photographers referred distributor expert\n
200.128	0.12	400256	keystroke_p	p	n/a
200.323	0.09	400646	keystroke_h	h	n/a
200.413	0.09	400826	keystroke_o	o	n/a
200.593	0.06	401186	keystroke_t	t	n/a
200.818	0.06	401636	keystroke_o	o	n/a
201.059	0.074	402118	keystroke_g	g	n/a
201.208	0.09	402416	keystroke_r	r	n/a
201.268	0.075	402536	keystroke_a	a	n/a
201.388	0.0895	402776	keystroke_p	p	n/a
201.4785	0.074	402957	keystroke_h	h	n/a
201.702	0.0305	403404	keystroke_e	e	n/a
201.718	0.135	403436	keystroke_r	r	n/a
201.838	0.09	403676	keystroke_s	s	n/a
201.988	0.06	403976	keystroke_Key.space	Key.space	n/a
202.258	0.075	404516	keystroke_r	r	n/a
202.303	0.09	404606	keystroke_e	e	n/a
202.438	0.135	404876	keystroke_f	f	n/a
202.529	0.1045	405058	keystroke_e	e	n/a
202.603	0.165	405206	keystroke_r	r	n/a
202.918	0.12	405836	keystroke_r	r	n/a
203.068	0.15	406136	keystroke_e	e	n/a
203.203	0.06	406406	keystroke_d	d	n/a
203.878	0.1045	407756	keystroke_Key.space	Key.space	n/a
204.0285	0.075	408057	keystroke_d	d	n/a
204.1625	0.076	408325	keystroke_i	i	n/a
204.2535	0.1345	408507	keystroke_s	s	n/a
204.343	0.06	408686	keystroke_t	t	n/a
204.5085	0.06	409017	keystroke_r	r	n/a
204.6285	0.091	409257	keystroke_i	i	n/a
204.7485	0.06	409497	keystroke_b	b	n/a
204.8835	0.045	409767	keystroke_u	u	n/a
204.943	0.075	409886	keystroke_t	t	n/a
205.033	0.075	410066	keystroke_e	e	n/a
205.213	0.029	410426	keystroke_Key.space	Key.space	n/a
205.393	0.075	410786	keystroke_o	o	n/a
205.693	0.045	411386	keystroke_Key.backspace	Key.backspace	n/a
205.813	0.06	411626	keystroke_Key.backspace	Key.backspace	n/a
205.9635	0.0595	411927	keystroke_Key.backspace	Key.backspace	n/a
206.203	0.0745	412406	keystroke_o	o	n/a
206.3085	0.045	412617	keystroke_r	r	n/a
206.443	0.045	412886	keystroke_Key.space	Key.space	n/a
206.5625	0.0755	413125	keystroke_e	e	n/a
206.7585	0.1045	413517	keystroke_x	x	n/a
206.8775	0.0455	413755	keystroke_p	p	n/a
206.9675	0.091	413935	keystroke_e	e	n/a
206.9975	0.12	413995	keystroke_r	r	n/a
207.1775	0.076	414355	keystroke_t	t	n/a
208.168	0.0595	416336	keystroke_Key.enter	Key.enter	n/a
208.234	9.1005	416468	prompt	n/a	discussion modifications referred supporting\n
208.7675	0.075	417535	keystroke_d	d	n/a
208.8885	0.059	417777	keystroke_i	i	n/a
208.9325	0.151	417865	keystroke_s	s	n/a
209.0225	0.09	418045	keystroke_c	c	n/a
209.1425	0.045	418285	keystroke_u	u	n/a
209.249	0.059	418498	keystroke_s	s	n/a
209.338	0.0755	418676	keystroke_s	s	n/a
209.473	0.0595	418946	keystroke_i	i	n/a
209.4875	0.076	418975	keystroke_s	s	n/a
209.9675	0.045	419935	keystroke_Key.backspace	Key.backspace	n/a
210.3285	0.089	420657	keystroke_o	o	n/a
210.403	0.0605	420806	keystroke_n	n	n/a
210.5675	0.045	421135	keystroke_Key.space	Key.space	n/a
210.7935	0.0895	421587	keystroke_m	m	n/a
210.8685	0.059	421737	keystroke_o	o	n/a
210.9575	0.121	421915	keystroke_v	v	n/a
211.1375	0.0755	422275	keystroke_i	i	n/a
211.228	0.06	422456	keystroke_d	d	n/a
211.4685	0.045	422937	keystroke_Key.backspace	Key.backspace	n/a
211.5725	0.075	423145	keystroke_Key.backspace	Key.backspace	n/a
211.7075	0.061	423415	keystroke_Key.backspace	Key.backspace	n/a
211.7535	0.18	423507	keystroke_d	d	n/a
212.0385	0.045	424077	keystroke_i	i	n/a
212.3685	0.059	424737	keystroke_f	f	n/a
212.5925	0.046	425185	keystroke_i	i	n/a
212.7435	0.0895	425487	keystroke_c	c	n/a
212.9985	0.12	425997	keystroke_a	a	n/a
213.1035	0.06	426207	keystroke_t	t	n/a
213.2085	0.1045	426417	keystroke_i	i	n/a
213.2385	0.0755	426477	keystroke_o	o	n/a
213.2685	0.0595	426537	keystroke_n	n	n/a
213.3735	0.0745	426747	keystroke_s	s	n/a
214.018	0.075	428036	keystroke_Key.space	Key.space	n/a
214.378	0.0895	428756	keystroke_r	r	n/a
214.4375	0.075	428875	keystroke_e	e	n/a
214.5585	0.12	429117	keystroke_f	f	n/a
214.6475	0.091	429295	keystroke_e	e	n/a
214.7235	0.0745	429447	keystroke_r	r	n/a
214.918	0.0905	429836	keystroke_r	r	n/a
215.083	0.165	430166	keystroke_e	e	n/a
215.5485	0.09	431097	keystroke_d	d	n/a
215.773	0.06	431546	keystroke_Key.space	Key.space	n/a
215.908	0.09	431816	keystroke_s	s	n/a
216.043	0.06	432086	keystroke_u	u	n/a
216.178	0.09	432356	keystroke_p	p	n/a
216.373	0.09	432746	keystroke_p	p	n/a
216.448	0.105	432896	keystroke_o	o	n/a
216.613	0.0595	433226	keystroke_r	r	n/a
216.763	0.075	433526	keystroke_t	t	n/a
216.853	0.0745	433706	keystroke_i	i	n/a
216.8675	0.075	433735	keystroke_n	n	n/a
216.9875	0.061	433975	keystroke_g	g	n/a
217.288	0.0445	434576	keystroke_Key.enter	Key.enter	n/a
217.3415	6.128	434683	prompt	n/a	pipes nurse pope crossword\n
218.0675	0.0755	436135	keystroke_p	p	n/a
218.2185	0.075	436437	keystroke_i	i	n/a
218.3225	0.105	436645	keystroke_p	p	n/a
218.4875	0.075	436975	keystroke_e	e	n/a
218.6675	0.075	437335	keystroke_s	s	n/a
218.818	0.0595	437636	keystroke_Key.space	Key.space	n/a
219.0125	0.061	438025	keystroke_n	n	n/a
219.193	0.0605	438386	keystroke_u	u	n/a
219.3735	0.045	438747	keystroke_r	r	n/a
219.5375	0.076	439075	keystroke_s	s	n/a
219.6735	0.075	439347	keystroke_e	e	n/a
219.837	0.076	439674	keystroke_Key.space	Key.space	n/a
220.5275	0.046	441055	keystroke_p	p	n/a
220.6175	0.061	441235	keystroke_o	o	n/a
220.8285	0.0895	441657	keystroke_e	e	n/a
221.3825	0.045	442765	keystroke_Key.backspace	Key.backspace	n/a
221.743	0.03	443486	keystroke_p	p	n/a
221.8175	0.076	443635	keystroke_e	e	n/a
221.9975	0.045	443995	keystroke_Key.space	Key.space	n/a
222.103	0.045	444206	keystroke_c	c	n/a
222.298	0.0455	444596	keystroke_r	r	n/a
222.403	0.045	444806	keystroke_o	o	n/a
222.508	0.075	445016	keystroke_s	s	n/a
222.643	0.06	445286	keystroke_s	s	n/a
222.8385	0.0595	445677	keystroke_w	w	n/a
222.913	0.135	445826	keystroke_o	o	n/a
223.078	0.03	446156	keystroke_r	r	n/a
223.212	0.061	446424	keystroke_d	d	n/a
223.408	0.0595	446816	keystroke_Key.enter	Key.enter	n/a
223.473	8.5915	446946	prompt	n/a	administrator only holidays game\n
224.158	0.12	448316	keystroke_a	a	n/a
224.263	0.075	448526	keystroke_d	d	n/a
224.4135	0.075	448827	keystroke_s	s	n/a
224.577	0.091	449154	keystroke_m	m	n/a
224.683	0.045	449366	keystroke_i	i	n/a
224.938	0.045	449876	keystroke_Key.backspace	Key.backspace	n/a
225.058	0.0605	450116	keystroke_Key.backspace	Key.backspace	n/a
225.208	0.075	450416	keystroke_Key.backspace	Key.backspace	n/a
225.463	0.105	450926	keystroke_m	m	n/a
225.553	0.045	451106	keystroke_i	i	n/a
225.628	0.105	451256	keystroke_n	n	n/a
225.703	0.09	451406	keystroke_i	i	n/a
225.823	0.105	451646	keystroke_s	s	n/a
225.913	0.075	451826	keystroke_t	t	n/a
226.048	0.105	452096	keystroke_r	r	n/a
226.138	0.12	452276	keystroke_a	a	n/a
226.228	0.075	452456	keystroke_t	t	n/a
226.3325	0.09	452665	keystroke_i	i	n/a
226.3625	0.0755	452725	keystroke_o	o	n/a
226.798	0.0445	453596	keystroke_Key.backspace	Key.backspace	n/a
226.903	0.0445	453806	keystroke_Key.backspace	Key.backspace	n/a
227.1575	0.046	454315	keystroke_r	r	n/a
227.9225	0.06	455845	keystroke_Key.backspace	Key.backspace	n/a
228.1325	0.045	456265	keystroke_o	o	n/a
228.208	0.06	456416	keystroke_r	r	n/a
228.3425	0.06	456685	keystroke_Key.space	Key.space	n/a
228.853	0.0745	457706	keystroke_o	o	n/a
228.958	0.0745	457916	keystroke_n	n	n/a
229.0775	0.06	458155	keystroke_l	l	n/a
229.1825	0.045	458365	keystroke_y	y	n/a
229.558	0.045	459116	keystroke_Key.space	Key.space	n/a
229.693	0.06	459386	keystroke_h	h	n/a
229.738	0.0895	459476	keystroke_o	o	n/a
229.9025	0.0905	459805	keystroke_l	l	n/a
230.053	0.0755	460106	keystroke_i	i	n/a
230.2025	0.06	460405	keystroke_d	d	n/a
230.368	0.06	460736	keystroke_a	a	n/a
230.608	0.046	461216	keystroke_y	y	n/a
230.743	0.06	461486	keystroke_s	s	n/a
231.118	0.045	462236	keystroke_Key.space	Key.space	n/a
231.253	0.0745	462506	keystroke_g	g	n/a
231.268	0.0745	462536	keystroke_a	a	n/a
231.4625	0.076	462925	keystroke_m	m	n/a
231.793	0.0595	463586	keystroke_e	e	n/a
232.0025	0.06	464005	keystroke_Key.enter	Key.enter	n/a
232.074	7.445	464148	prompt	n/a	configuration carb wind smoke\n
232.9185	0.015	465837	keystroke_c	c	n/a
232.9345	0.029	465869	keystroke_o	o	n/a
232.9485	0.06	465897	keystroke_n	n	n/a
233.143	0.06	466286	keystroke_i	i	n/a
233.3535	0.03	466707	keystroke_g	g	n/a
233.4885	0.029	466977	keystroke_u	u	n/a
233.7125	0.045	467425	keystroke_Key.backspace	Key.backspace	n/a
233.8175	0.09	467635	keystroke_Key.backspace	Key.backspace	n/a
234.1775	0.045	468355	keystroke_Key.backspace	Key.backspace	n/a
234.3875	0.06	468775	keystroke_f	f	n/a
234.4785	0.059	468957	keystroke_i	i	n/a
234.5985	0.06	469197	keystroke_g	g	n/a
234.6875	0.045	469375	keystroke_u	u	n/a
234.7025	0.0155	469405	keystroke_y	y	n/a
234.7625	0.12	469525	keystroke_r	r	n/a
234.8225	0.09	469645	keystroke_e	e	n/a
235.273	0.0595	470546	keystroke_Key.backspace	Key.backspace	n/a
235.3775	0.0605	470755	keystroke_Key.backspace	Key.backspace	n/a
235.528	0.0745	471056	keystroke_Key.backspace	Key.backspace	n/a
235.648	0.0745	471296	keystroke_r	r	n/a
235.7375	0.1205	471475	keystroke_a	a	n/a
235.8425	0.092	471685	keystroke_t	t	n/a
235.9475	0.09	471895	keystroke_i	i	n/a
235.9775	0.0755	471955	keystroke_o	o	n/a
236.023	0.045	472046	keystroke_n	n	n/a
236.7125	0.075	473425	keystroke_Key.space	Key.space	n/a
236.938	0.12	473876	keystroke_c	c	n/a
237.1025	0.0455	474205	keystroke_a	a	n/a
237.1325	0.0605	474265	keystroke_r	r	n/a
237.2975	0.0455	474595	keystroke_g	g	n/a
237.748	0.0595	475496	keystroke_Key.backspace	Key.backspace	n/a
237.793	0.0745	475586	keystroke_b	b	n/a
237.9875	0.0605	475975	keystroke_Key.space	Key.space	n/a
238.1835	0.12	476367	keystroke_w	w	n/a
238.3185	0.089	476637	keystroke_i	i	n/a
238.3635	0.06	476727	keystroke_n	n	n/a
238.5275	0.0755	477055	keystroke_d	d	n/a
238.6625	0.1055	477325	keystroke_Key.space	Key.space	n/a
238.8425	0.0905	477685	keystroke_s	s	n/a
238.9775	0.0905	477955	keystroke_m	m	n/a
239.083	0.0895	478166	keystroke_o	o	n/a
239.1875	0.0915	478375	keystroke_k	k	n/a
239.293	0.06	478586	keystroke_e	e	n/a
239.458	0.059	478916	keystroke_Key.enter	Key.enter	n/a
239.524	4.945	479048	prompt	n/a	extract gerald cargo nation\n
240.118	0.076	480236	keystroke_e	e	n/a
240.298	0.105	480596	keystroke_x	x	n/a
240.388	0.06	480776	keystroke_t	t	n/a
240.553	0.105	481106	keystroke_r	r	n/a
240.613	0.0605	481226	keystroke_a	a	n/a
240.778	0.075	481556	keystroke_c	c	n/a
240.987	0.0615	481974	keystroke_t	t	n/a
241.198	0.075	482396	keystroke_Key.space	Key.space	n/a
241.5435	0.104	483087	keystroke_g	g	n/a
241.6485	0.119	483297	keystroke_e	e	n/a
241.7225	0.105	483445	keystroke_r	r	n/a
241.8885	0.09	483777	keystroke_a	a	n/a
242.0685	0.075	484137	keystroke_l	l	n/a
242.2935	0.12	484587	keystroke_d	d	n/a
242.923	0.255	485846	keystroke_Key.space	Key.space	n/a
243.193	0.0145	486386	keystroke_c	c	n/a
243.2235	0.014	486447	keystroke_a	a	n/a
243.2525	0.015	486505	keystroke_r	r	n/a
243.4175	0.045	486835	keystroke_g	g	n/a
243.5085	0.074	487017	keystroke_o	o	n/a
243.6575	0.075	487315	keystroke_Key.space	Key.space	n/a
243.838	0.059	487676	keystroke_n	n	n/a
243.943	0.1205	487886	keystroke_a	a	n/a
243.988	0.0605	487976	keystroke_t	t	n/a
244.1225	0.06	488245	keystroke_i	i	n/a
244.1375	0.0605	488275	keystroke_o	o	n/a
244.1675	0.045	488335	keystroke_n	n	n/a
244.3925	0.075	488785	keystroke_Key.enter	Key.enter	n/a
244.4765	4.8825	488953	prompt	n/a	mono mysterious helps brooklyn\n
245.1285	0.015	490257	keystroke_m	m	n/a
245.1885	0.075	490377	keystroke_o	o	n/a
245.278	0.075	490556	keystroke_n	n	n/a
245.368	0.09	490736	keystroke_o	o	n/a
245.592	0.06	491184	keystroke_Key.space	Key.space	n/a
245.818	0.0595	491636	keystroke_m	m	n/a
246.1025	0.046	492205	keystroke_y	y	n/a
246.2525	0.12	492505	keystroke_s	s	n/a
246.3285	0.0595	492657	keystroke_t	t	n/a
246.4325	0.09	492865	keystroke_e	e	n/a
246.5075	0.076	493015	keystroke_r	r	n/a
246.5845	0.118	493169	keystroke_i	i	n/a
246.6135	0.12	493227	keystroke_o	o	n/a
246.658	0.06	493316	keystroke_u	u	n/a
246.7785	0.075	493557	keystroke_s	s	n/a
247.318	0.059	494636	keystroke_Key.space	Key.space	n/a
247.483	0.0595	494966	keystroke_h	h	n/a
247.5435	0.075	495087	keystroke_e	e	n/a
247.7085	0.104	495417	keystroke_l	l	n/a
247.7685	0.1195	495537	keystroke_p	p	n/a
247.9185	0.089	495837	keystroke_s	s	n/a
248.0525	0.06	496105	keystroke_Key.space	Key.space	n/a
248.1735	0.0595	496347	keystroke_b	b	n/a
248.338	0.06	496676	keystroke_r	r	n/a
248.443	0.0605	496886	keystroke_o	o	n/a
248.578	0.12	497156	keystroke_o	o	n/a
248.623	0.105	497246	keystroke_k	k	n/a
248.803	0.074	497606	keystroke_l	l	n/a
248.998	0.03	497996	keystroke_y	y	n/a
249.1335	0.0745	498267	keystroke_n	n	n/a
249.283	0.075	498566	keystroke_Key.enter	Key.enter	n/a
249.365	5.1845	498730	prompt	n/a	cases distant marriott installed\n
250.0175	0.105	500035	keystroke_c	c	n/a
250.1075	0.12	500215	keystroke_a	a	n/a
250.2125	0.105	500425	keystroke_s	s	n/a
250.4075	0.046	500815	keystroke_e	e	n/a
250.543	0.075	501086	keystroke_s	s	n/a
250.678	0.06	501356	keystroke_Key.space	Key.space	n/a
250.783	0.0905	501566	keystroke_d	d	n/a
250.8885	0.0755	501777	keystroke_i	i	n/a
250.9645	0.1785	501929	keystroke_s	s	n/a
251.1285	0.0745	502257	keystroke_t	t	n/a
251.248	0.105	502496	keystroke_a	a	n/a
251.428	0.044	502856	keystroke_n	n	n/a
251.533	0.06	503066	keystroke_t	t	n/a
251.653	0.06	503306	keystroke_Key.space	Key.space	n/a
251.773	0.09	503546	keystroke_m	m	n/a
251.908	0.06	503816	keystroke_a	a	n/a
251.953	0.06	503906	keystroke_r	r	n/a
252.073	0.0905	504146	keystroke_r	r	n/a
252.1935	0.074	504387	keystroke_i	i	n/a
252.388	0.105	504776	keystroke_o	o	n/a
252.5825	0.0455	505165	keystroke_t	t	n/a
252.7025	0.0745	505405	keystroke_t	t	n/a
252.927	0.076	505854	keystroke_Key.space	Key.space	n/a
253.0625	0.09	506125	keystroke_i	i	n/a
253.138	0.03	506276	keystroke_n	n	n/a
253.1975	0.0905	506395	keystroke_s	s	n/a
253.2575	0.0755	506515	keystroke_t	t	n/a
253.438	0.075	506876	keystroke_a	a	n/a
253.663	0.06	507326	keystroke_l	l	n/a
253.798	0.075	507596	keystroke_l	l	n/a
253.918	0.075	507836	keystroke_e	e	n/a
253.9475	0.076	507895	keystroke_d	d	n/a
254.488	0.06	508976	keystroke_Key.enter	Key.enter	n/a
254.5535	6.821	509107	prompt	n/a	realm depot drugs veterans\n
255.238	0.105	510476	keystroke_r	r	n/a
255.2825	0.1355	510565	keystroke_e	e	n/a
255.433	0.1205	510866	keystroke_a	a	n/a
255.568	0.105	511136	keystroke_l	l	n/a
255.778	0.06	511556	keystroke_m	m	n/a
255.988	0.075	511976	keystroke_Key.space	Key.space	n/a
256.153	0.06	512306	keystroke_d	d	n/a
256.228	0.045	512456	keystroke_o	o	n/a
256.558	0.059	513116	keystroke_Key.backspace	Key.backspace	n/a
256.648	0.075	513296	keystroke_e	e	n/a
256.8435	0.0895	513687	keystroke_p	p	n/a
257.098	0.06	514196	keystroke_u	u	n/a
257.248	0.045	514496	keystroke_t	t	n/a
258.193	0.045	516386	keystroke_Key.backspace	Key.backspace	n/a
258.298	0.075	516596	keystroke_Key.backspace	Key.backspace	n/a
258.508	0.06	517016	keystroke_o	o	n/a
258.628	0.0605	517256	keystroke_t	t	n/a
258.7775	0.0605	517555	keystroke_Key.space	Key.space	n/a
259.0325	0.0755	518065	keystroke_d	d	n/a
259.2725	0.0455	518545	keystroke_r	r	n/a
259.3935	0.0435	518787	keystroke_u	u	n/a
259.483	0.075	518966	keystroke_g	g	n/a
259.603	0.075	519206	keystroke_s	s	n/a
259.768	0.03	519536	keystroke_Key.space	Key.space	n/a
260.022	0.121	520044	keystroke_v	v	n/a
260.098	0.1205	520196	keystroke_e	e	n/a
260.353	0.0595	520706	keystroke_t	t	n/a
260.4285	0.164	520857	keystroke_e	e	n/a
260.5325	0.181	521065	keystroke_r	r	n/a
260.6675	0.1805	521335	keystroke_a	a	n/a
260.893	0.045	521786	keystroke_n	n	n/a
261.013	0.105	522026	keystroke_s	s	n/a
261.283	0.089	522566	keystroke_Key.enter	Key.enter	n/a
261.3785	6.071	522757	prompt	n/a	piano weekly separate morris\n
262.093	0.09	524186	keystroke_p	p	n/a
262.288	0.045	524576	keystroke_i	i	n/a
262.483	0.105	524966	keystroke_a	a	n/a
262.6775	0.075	525355	keystroke_n	n	n/a
262.7835	0.0895	525567	keystroke_o	o	n/a
262.9625	0.0755	525925	keystroke_Key.space	Key.space	n/a
263.158	0.076	526316	keystroke_w	w	n/a
263.3075	0.0605	526615	keystroke_k	k	n/a
263.413	0.0745	526826	keystroke_e	e	n/a
263.7275	0.045	527455	keystroke_Key.backspace	Key.backspace	n/a
264.0125	0.045	528025	keystroke_Key.backspace	Key.backspace	n/a
264.253	0.105	528506	keystroke_e	e	n/a
264.403	0.12	528806	keystroke_e	e	n/a
264.583	0.105	529166	keystroke_k	k	n/a
264.658	0.15	529316	keystroke_l	l	n/a
264.823	0.075	529646	keystroke_y	y	n/a
265.017	0.06	530034	keystroke_Key.space	Key.space	n/a
265.123	0.075	530246	keystroke_s	s	n/a
265.288	0.075	530576	keystroke_e	e	n/a
265.4835	0.06	530967	keystroke_p	p	n/a
265.6025	0.12	531205	keystroke_a	a	n/a
265.6785	0.075	531357	keystroke_r	r	n/a
265.7975	0.0905	531595	keystroke_a	a	n/a
265.8725	0.1355	531745	keystroke_t	t	n/a
265.9625	0.09	531925	keystroke_e	e	n/a
266.173	0.0295	532346	keystroke_Key.space	Key.space	n/a
266.3825	0.061	532765	keystroke_m	m	n/a
266.4585	0.06	532917	keystroke_o	o	n/a
266.6085	0.059	533217	keystroke_r	r	n/a
266.8025	0.106	533605	keystroke_r	r	n/a
266.9835	0.06	533967	keystroke_i	i	n/a
267.163	0.0455	534326	keystroke_s	s	n/a
267.3725	0.075	534745	keystroke_Key.enter	Key.enter	n/a
267.4535	4.916	534907	prompt	n/a	claim treo average guess\n
268.0485	0.0895	536097	keystroke_c	c	n/a
268.1525	0.076	536305	keystroke_l	l	n/a
268.2735	0.089	536547	keystroke_a	a	n/a
268.4385	0.059	536877	keystroke_i	i	n/a
268.4835	0.0295	536967	keystroke_m	m	n/a
268.618	0.089	537236	keystroke_Key.space	Key.space	n/a
268.9185	0.134	537837	keystroke_s	s	n/a
269.008	0.0605	538016	keystroke_t	t	n/a
269.2625	0.0455	538525	keystroke_Key.backspace	Key.backspace	n/a
269.368	0.075	538736	keystroke_Key.backspace	Key.backspace	n/a
269.488	0.075	538976	keystroke_t	t	n/a
269.637	0.121	539274	keystroke_r	r	n/a
269.743	0.091	539486	keystroke_e	e	n/a
269.893	0.06	539786	keystroke_o	o	n/a
270.238	0.06	540476	keystroke_Key.space	Key.space	n/a
270.463	0.15	540926	keystroke_a	a	n/a
270.643	0.119	541286	keystroke_v	v	n/a
270.7475	0.1055	541495	keystroke_e	e	n/a
270.793	0.165	541586	keystroke_r	r	n/a
270.942	0.196	541884	keystroke_a	a	n/a
271.062	0.106	542124	keystroke_g	g	n/a
271.153	0.0755	542306	keystroke_e	e	n/a
271.3175	0.06	542635	keystroke_Key.space	Key.space	n/a
271.558	0.06	543116	keystroke_g	g	n/a
271.738	0.06	543476	keystroke_u	u	n/a
271.8425	0.06	543685	keystroke_e	e	n/a
272.008	0.0745	544016	keystroke_s	s	n/a
272.1425	0.1055	544285	keystroke_s	s	n/a
272.2625	0.105	544525	keystroke_Key.enter	Key.enter	n/a
272.373	3.776	544746	prompt	n/a	sure focus dealing wind\n
273.2235	0.0895	546447	keystroke_s	s	n/a
273.328	0.06	546656	keystroke_u	u	n/a
273.4325	0.105	546865	keystroke_r	r	n/a
273.5075	0.0755	547015	keystroke_e	e	n/a
273.673	0.074	547346	keystroke_Key.space	Key.space	n/a
273.793	0.0905	547586	keystroke_f	f	n/a
273.884	0.059	547768	keystroke_o	o	n/a
273.972	0.091	547944	keystroke_c	c	n/a
274.078	0.0605	548156	keystroke_u	u	n/a
274.1685	0.09	548337	keystroke_s	s	n/a
274.662	0.075	549324	keystroke_Key.space	Key.space	n/a
274.828	0.165	549656	keystroke_d	d	n/a
274.902	0.1655	549804	keystroke_e	e	n/a
275.023	0.105	550046	keystroke_a	a	n/a
275.1125	0.105	550225	keystroke_l	l	n/a
275.172	0.121	550344	keystroke_i	i	n/a
275.2475	0.0605	550495	keystroke_n	n	n/a
275.353	0.0595	550706	keystroke_g	g	n/a
275.4575	0.06	550915	keystroke_Key.space	Key.space	n/a
275.578	0.0595	551156	keystroke_w	w	n/a
275.6675	0.0905	551335	keystroke_i	i	n/a
275.803	0.075	551606	keystroke_n	n	n/a
275.893	0.0745	551786	keystroke_d	d	n/a
276.087	0.06	552174	keystroke_Key.enter	Key.enter	n/a
276.157	9.247	552314	prompt	n/a	metropolitan ellis context rush\n
276.7775	0.06	553555	keystroke_m	m	n/a
276.9125	0.18	553825	keystroke_e	e	n/a
277.0475	0.075	554095	keystroke_t	t	n/a
277.273	0.0905	554546	keystroke_r	r	n/a
277.438	0.06	554876	keystroke_o	o	n/a
277.888	0.12	555776	keystroke_p	p	n/a
278.022	0.136	556044	keystroke_o	o	n/a
278.278	0.1055	556556	keystroke_l	l	n/a
278.3385	0.09	556677	keystroke_i	i	n/a
278.6685	0.06	557337	keystroke_t	t	n/a
278.9985	0.075	557997	keystroke_n	n	n/a
279.357	0.06	558714	keystroke_Key.backspace	Key.backspace	n/a
279.433	0.089	558866	keystroke_a	a	n/a
279.5675	0.0755	559135	keystroke_n	n	n/a
279.702	0.09	559404	keystroke_Key.space	Key.space	n/a
279.868	0.075	559736	keystroke_e	e	n/a
280.033	0.09	560066	keystroke_l	l	n/a
280.168	0.135	560336	keystroke_l	l	n/a
280.258	0.105	560516	keystroke_i	i	n/a
280.378	0.06	560756	keystroke_s	s	n/a
280.543	0.0445	561086	keystroke_Key.space	Key.space	n/a
280.7525	0.015	561505	keystroke_c	c	n/a
280.783	0.075	561566	keystroke_o	o	n/a
280.827	0.061	561654	keystroke_n	n	n/a
281.172	0.0455	562344	keystroke_Key.backspace	Key.backspace	n/a
281.293	0.0895	562586	keystroke_Key.backspace	Key.backspace	n/a
281.442	0.0455	562884	keystroke_Key.backspace	Key.backspace	n/a
281.908	0.075	563816	keystroke_c	c	n/a
282.132	0.076	564264	keystroke_n	n	n/a
282.5225	0.045	565045	keystroke_Key.backspace	Key.backspace	n/a
282.6875	0.0605	565375	keystroke_o	o	n/a
282.7325	0.06	565465	keystroke_n	n	n/a
282.8075	0.0905	565615	keystroke_t	t	n/a
282.8825	0.0755	565765	keystroke_e	e	n/a
283.1075	0.1205	566215	keystroke_s	s	n/a
283.663	0.045	567326	keystroke_Key.backspace	Key.backspace	n/a
283.768	0.1045	567536	keystroke_t	t	n/a
283.857	0.0455	567714	keystroke_x	x	n/a
284.202	0.075	568404	keystroke_Key.backspace	Key.backspace	n/a
284.3675	0.0305	568735	keystroke_Key.backspace	Key.backspace	n/a
284.4425	0.165	568885	keystroke_x	x	n/a
284.472	0.09	568944	keystroke_t	t	n/a
284.652	0.0755	569304	keystroke_Key.space	Key.space	n/a
284.8325	0.075	569665	keystroke_r	r	n/a
284.9535	0.06	569907	keystroke_u	u	n/a
285.043	0.1345	570086	keystroke_s	s	n/a
285.1475	0.045	570295	keystroke_h	h	n/a
285.328	0.0745	570656	keystroke_Key.enter	Key.enter	n/a
285.4125	5.977	570825	prompt	n/a	mpeg welsh sync former\n
286.1525	0.075	572305	keystroke_m	m	n/a
286.273	0.045	572546	keystroke_e	e	n/a
286.348	0.09	572696	keystroke_p	p	n/a
286.858	0.045	573716	keystroke_Key.backspace	Key.backspace	n/a
286.9785	0.0295	573957	keystroke_Key.backspace	Key.backspace	n/a
287.157	0.031	574314	keystroke_p	p	n/a
287.278	0.0895	574556	keystroke_e	e	n/a
287.4725	0.06	574945	keystroke_g	g	n/a
287.578	0.0595	575156	keystroke_Key.space	Key.space	n/a
288.073	0.0445	576146	keystroke_w	w	n/a
288.178	0.1345	576356	keystroke_l	l	n/a
288.2975	0.0755	576595	keystroke_e	e	n/a
288.552	0.045	577104	keystroke_Key.backspace	Key.backspace	n/a
288.658	0.075	577316	keystroke_Key.backspace	Key.backspace	n/a
288.7485	0.0745	577497	keystroke_e	e	n/a
288.868	0.06	577736	keystroke_l	l	n/a
289.0185	0.074	578037	keystroke_s	s	n/a
289.1375	0.0455	578275	keystroke_h	h	n/a
289.227	0.091	578454	keystroke_Key.space	Key.space	n/a
289.528	0.09	579056	keystroke_s	s	n/a
289.693	0.03	579386	keystroke_y	y	n/a
290.1585	0.074	580317	keystroke_n	n	n/a
290.3535	0.0895	580707	keystroke_c	c	n/a
290.5775	0.0755	581155	keystroke_Key.space	Key.space	n/a
290.7575	0.06	581515	keystroke_f	f	n/a
290.7875	0.09	581575	keystroke_o	o	n/a
290.9235	0.059	581847	keystroke_r	r	n/a
290.998	0.0745	581996	keystroke_m	m	n/a
291.1025	0.076	582205	keystroke_e	e	n/a
291.1485	0.075	582297	keystroke_r	r	n/a
291.3275	0.06	582655	keystroke_Key.enter	Key.enter	n/a
291.3935	4.751	582787	prompt	n/a	stats rely reprints muze\n
291.988	0.165	583976	keystroke_s	s	n/a
292.123	0.06	584246	keystroke_t	t	n/a
292.213	0.12	584426	keystroke_a	a	n/a
292.288	0.09	584576	keystroke_t	t	n/a
292.512	0.106	585024	keystroke_s	s	n/a
292.7525	0.06	585505	keystroke_Key.space	Key.space	n/a
292.978	0.075	585956	keystroke_r	r	n/a
293.023	0.075	586046	keystroke_e	e	n/a
293.218	0.0895	586436	keystroke_l	l	n/a
293.4435	0.045	586887	keystroke_y	y	n/a
293.5175	0.06	587035	keystroke_Key.space	Key.space	n/a
293.7735	0.09	587547	keystroke_r	r	n/a
293.8185	0.089	587637	keystroke_e	e	n/a
293.9535	0.074	587907	keystroke_p	p	n/a
294.298	0.0745	588596	keystroke_r	r	n/a
294.5375	0.075	589075	keystroke_i	i	n/a
294.5675	0.0755	589135	keystroke_n	n	n/a
294.6575	0.121	589315	keystroke_t	t	n/a
294.7795	0.103	589559	keystroke_s	s	n/a
295.3625	0.075	590725	keystroke_Key.space	Key.space	n/a
295.5575	0.045	591115	keystroke_m	m	n/a
295.723	0.03	591446	keystroke_u	u	n/a
295.768	0.1805	591536	keystroke_z	z	n/a
295.8875	0.12	591775	keystroke_e	e	n/a
296.0675	0.0755	592135	keystroke_Key.enter	Key.enter	n/a
296.158	5.431	592316	prompt	n/a	bookings prove valuation finished\n
296.9085	0.0745	593817	keystroke_b	b	n/a
296.998	0.075	593996	keystroke_o	o	n/a
297.133	0.09	594266	keystroke_o	o	n/a
297.1925	0.09	594385	keystroke_k	k	n/a
297.403	0.0605	594806	keystroke_i	i	n/a
297.4335	0.075	594867	keystroke_n	n	n/a
297.5225	0.09	595045	keystroke_g	g	n/a
297.5975	0.0905	595195	keystroke_s	s	n/a
297.7025	0.075	595405	keystroke_Key.space	Key.space	n/a
297.898	0.0895	595796	keystroke_p	p	n/a
298.048	0.0595	596096	keystroke_r	r	n/a
298.122	0.076	596244	keystroke_o	o	n/a
298.227	0.106	596454	keystroke_v	v	n/a
298.828	0.06	597656	keystroke_e	e	n/a
298.978	0.074	597956	keystroke_Key.space	Key.space	n/a
299.338	0.134	598676	keystroke_v	v	n/a
299.4575	0.0755	598915	keystroke_a	a	n/a
299.5785	0.075	599157	keystroke_l	l	n/a
299.6835	0.0595	599367	keystroke_u	u	n/a
299.818	0.1345	599636	keystroke_a	a	n/a
299.923	0.0595	599846	keystroke_t	t	n/a
299.9975	0.121	599995	keystroke_i	i	n/a
300.0275	0.091	600055	keystroke_o	o	n/a
300.0725	0.061	600145	keystroke_n	n	n/a
300.2225	0.075	600445	keystroke_Key.space	Key.space	n/a
300.688	0.0595	601376	keystroke_f	f	n/a
300.778	0.0905	601556	keystroke_i	i	n/a
300.853	0.0455	601706	keystroke_n	n	n/a
300.9275	0.106	601855	keystroke_i	i	n/a
301.0635	0.0745	602127	keystroke_s	s	n/a
301.1975	0.06	602395	keystroke_h	h	n/a
301.2585	0.105	602517	keystroke_e	e	n/a
301.333	0.09	602666	keystroke_d	d	n/a
301.543	0.044	603086	keystroke_Key.enter	Key.enter	n/a
301.5955	10.314	603191	prompt	n/a	modifications exceed tours stranger\n
302.233	0.06	604466	keystroke_m	m	n/a
302.338	0.09	604676	keystroke_o	o	n/a
302.443	0.1055	604886	keystroke_d	d	n/a
302.878	0.06	605756	keystroke_o	o	n/a
303.2075	0.045	606415	keystroke_Key.backspace	Key.backspace	n/a
303.403	0.059	606806	keystroke_i	i	n/a
303.553	0.075	607106	keystroke_f	f	n/a
303.673	0.074	607346	keystroke_i	i	n/a
303.823	0.075	607646	keystroke_c	c	n/a
303.913	0.1195	607826	keystroke_a	a	n/a
304.0175	0.0755	608035	keystroke_t	t	n/a
304.138	0.0895	608276	keystroke_i	i	n/a
304.1525	0.0595	608305	keystroke_o	o	n/a
304.183	0.06	608366	keystroke_n	n	n/a
304.2875	0.0895	608575	keystroke_s	s	n/a
304.888	0.0595	609776	keystroke_Key.space	Key.space	n/a
305.1575	0.0755	610315	keystroke_e	e	n/a
305.338	0.1795	610676	keystroke_x	x	n/a
305.488	0.1045	610976	keystroke_f	f	n/a
306.118	0.0595	612236	keystroke_Key.backspace	Key.backspace	n/a
306.1935	0.089	612387	keystroke_c	c	n/a
306.2235	0.12	612447	keystroke_e	e	n/a
306.5675	0.075	613135	keystroke_e	e	n/a
306.853	0.075	613706	keystroke_d	d	n/a
307.018	0.075	614036	keystroke_Key.space	Key.space	n/a
307.2285	0.0595	614457	keystroke_t	t	n/a
307.348	0.075	614696	keystroke_o	o	n/a
307.4075	0.046	614815	keystroke_u	u	n/a
307.4835	0.044	614967	keystroke_r	r	n/a
307.843	0.1045	615686	keystroke_s	s	n/a
308.1125	0.0905	616225	keystroke_Key.space	Key.space	n/a
308.263	0.1495	616526	keystroke_s	s	n/a
308.5025	0.0455	617005	keystroke_t	t	n/a
308.518	0.015	617036	keystroke_r	r	n/a
308.638	0.0745	617276	keystroke_r	r	n/a
308.6975	0.0905	617395	keystroke_a	a	n/a
309.133	0.045	618266	keystroke_n	n	n/a
309.4325	0.045	618865	keystroke_Key.backspace	Key.backspace	n/a
309.553	0.0595	619106	keystroke_Key.backspace	Key.backspace	n/a
309.673	0.06	619346	keystroke_Key.backspace	Key.backspace	n/a
309.8685	0.044	619737	keystroke_a	a	n/a
309.9725	0.03	619945	keystroke_a	a	n/a
310.0035	0.045	620007	keystroke_n	n	n/a
310.5275	0.06	621055	keystroke_Key.backspace	Key.backspace	n/a
310.6625	0.045	621325	keystroke_Key.backspace	Key.backspace	n/a
311.1275	0.046	622255	keystroke_n	n	n/a
311.352	0.121	622704	keystroke_g	g	n/a
311.413	0.12	622826	keystroke_e	e	n/a
311.548	0.075	623096	keystroke_r	r	n/a
311.848	0.0595	623696	keystroke_Key.enter	Key.enter	n/a
311.916	5.753	623832	prompt	n/a	weed garlic awards merely\n
312.538	0.075	625076	keystroke_w	w	n/a
312.703	0.075	625406	keystroke_e	e	n/a
312.854	0.119	625708	keystroke_e	e	n/a
313.018	0.0745	626036	keystroke_d	d	n/a
313.2425	0.03	626485	keystroke_Key.space	Key.space	n/a
313.3775	0.0755	626755	keystroke_g	g	n/a
313.5135	0.1195	627027	keystroke_a	a	n/a
313.6185	0.089	627237	keystroke_r	r	n/a
313.768	0.059	627536	keystroke_l	l	n/a
314.007	0.015	628014	keystroke_i	i	n/a
314.098	0.059	628196	keystroke_c	c	n/a
314.217	0.0455	628434	keystroke_Key.space	Key.space	n/a
314.623	0.0895	629246	keystroke_a	a	n/a
314.8025	0.15	629605	keystroke_w	w	n/a
314.9375	0.1055	629875	keystroke_a	a	n/a
315.043	0.09	630086	keystroke_r	r	n/a
315.163	0.1345	630326	keystroke_d	d	n/a
315.2835	0.0895	630567	keystroke_s	s	n/a
315.853	0.09	631706	keystroke_Key.space	Key.space	n/a
316.003	0.119	632006	keystroke_e	e	n/a
316.108	0.0595	632216	keystroke_m	m	n/a
316.4375	0.0295	632875	keystroke_Key.backspace	Key.backspace	n/a
316.5575	0.03	633115	keystroke_Key.backspace	Key.backspace	n/a
316.708	0.045	633416	keystroke_m	m	n/a
316.8275	0.1055	633655	keystroke_e	e	n/a
316.903	0.12	633806	keystroke_r	r	n/a
317.008	0.105	634016	keystroke_e	e	n/a
317.203	0.06	634406	keystroke_l	l	n/a
317.413	0.045	634826	keystroke_y	y	n/a
317.6075	0.0605	635215	keystroke_Key.enter	Key.enter	n/a
317.679	6.7405	635358	prompt	n/a	chronicle titans manga exist\n
318.313	0.09	636626	keystroke_c	c	n/a
318.448	0.03	636896	keystroke_h	h	n/a
318.568	0.03	637136	keystroke_r	r	n/a
318.658	0.075	637316	keystroke_o	o	n/a
318.778	0.09	637556	keystroke_n	n	n/a
318.854	0.089	637708	keystroke_i	i	n/a
319.3775	0.075	638755	keystroke_c	c	n/a
319.513	0.0755	639026	keystroke_l	l	n/a
319.6485	0.0745	639297	keystroke_e	e	n/a
319.783	0.075	639566	keystroke_Key.space	Key.space	n/a
320.3835	0.089	640767	keystroke_t	t	n/a
320.5025	0.06	641005	keystroke_i	i	n/a
320.623	0.0895	641246	keystroke_t	t	n/a
320.7285	0.089	641457	keystroke_a	a	n/a
320.8785	0.076	641757	keystroke_n	n	n/a
320.9975	0.0905	641995	keystroke_s	s	n/a
321.103	0.089	642206	keystroke_Key.space	Key.space	n/a
321.403	0.045	642806	keystroke_m	m	n/a
321.508	0.09	643016	keystroke_a	a	n/a
321.628	0.075	643256	keystroke_n	n	n/a
321.778	0.09	643556	keystroke_g	g	n/a
321.913	0.06	643826	keystroke_e	e	n/a
322.288	0.06	644576	keystroke_Key.backspace	Key.backspace	n/a
322.378	0.09	644756	keystroke_a	a	n/a
322.543	0.045	645086	keystroke_Key.space	Key.space	n/a
322.7385	0.0745	645477	keystroke_e	e	n/a
323.308	0.03	646616	keystroke_i	i	n/a
323.593	0.045	647186	keystroke_Key.backspace	Key.backspace	n/a
323.7425	0.09	647485	keystroke_x	x	n/a
323.9225	0.0605	647845	keystroke_i	i	n/a
323.998	0.165	647996	keystroke_s	s	n/a
324.1335	0.0445	648267	keystroke_t	t	n/a
324.358	0.059	648716	keystroke_Key.enter	Key.enter	n/a
324.4265	9.068	648853	prompt	n/a	electricity lexington fabrics wordpress\n
325.4075	0.0755	650815	keystroke_e	e	n/a
325.603	0.075	651206	keystroke_l	l	n/a
325.8285	0.1495	651657	keystroke_e	e	n/a
325.948	0.135	651896	keystroke_c	c	n/a
326.203	0.0745	652406	keystroke_t	t	n/a
326.3535	0.075	652707	keystroke_r	r	n/a
326.5035	0.074	653007	keystroke_i	i	n/a
326.5925	0.09	653185	keystroke_c	c	n/a
326.6975	0.0605	653395	keystroke_i	i	n/a
326.9235	0.045	653847	keystroke_t	t	n/a
327.028	0.0455	654056	keystroke_y	y	n/a
327.238	0.0295	654476	keystroke_Key.space	Key.space	n/a
327.792	0.061	655584	keystroke_l	l	n/a
327.943	0.09	655886	keystroke_e	e	n/a
328.152	0.136	656304	keystroke_x	x	n/a
328.393	0.075	656786	keystroke_i	i	n/a
328.498	0.075	656996	keystroke_n	n	n/a
328.708	0.0595	657416	keystroke_g	g	n/a
328.8725	0.06	657745	keystroke_t	t	n/a
328.948	0.1055	657896	keystroke_o	o	n/a
329.0235	0.074	658047	keystroke_n	n	n/a
329.7725	0.075	659545	keystroke_Key.space	Key.space	n/a
329.968	0.0905	659936	keystroke_f	f	n/a
330.088	0.09	660176	keystroke_a	a	n/a
330.237	0.091	660474	keystroke_b	b	n/a
330.478	0.06	660956	keystroke_r	r	n/a
330.598	0.09	661196	keystroke_i	i	n/a
330.7035	0.1045	661407	keystroke_c	c	n/a
330.9135	0.0895	661827	keystroke_s	s	n/a
331.063	0.06	662126	keystroke_Key.space	Key.space	n/a
331.198	0.06	662396	keystroke_w	w	n/a
331.288	0.09	662576	keystroke_o	o	n/a
331.3925	0.075	662785	keystroke_r	r	n/a
331.5285	0.075	663057	keystroke_d	d	n/a
331.6485	0.089	663297	keystroke_s	s	n/a
331.7985	0.075	663597	keystroke_p	p	n/a
332.113	0.06	664226	keystroke_Key.backspace	Key.backspace	n/a
332.2175	0.06	664435	keystroke_Key.backspace	Key.backspace	n/a
332.413	0.06	664826	keystroke_p	p	n/a
332.503	0.0745	665006	keystroke_r	r	n/a
332.563	0.0595	665126	keystroke_e	e	n/a
332.743	0.135	665486	keystroke_s	s	n/a
332.9075	0.1055	665815	keystroke_s	s	n/a
333.4325	0.0595	666865	keystroke_Key.enter	Key.enter	n/a
333.498	5.201	666996	prompt	n/a	prince fishing playback pull\n
334.1835	0.0595	668367	keystroke_p	p	n/a
334.303	0.0605	668606	keystroke_r	r	n/a
334.408	0.089	668816	keystroke_i	i	n/a
334.4535	0.105	668907	keystroke_n	n	n/a
334.588	0.1205	669176	keystroke_c	c	n/a
334.6925	0.1055	669385	keystroke_e	e	n/a
334.8875	0.0595	669775	keystroke_Key.space	Key.space	n/a
335.083	0.06	670166	keystroke_f	f	n/a
335.173	0.105	670346	keystroke_i	i	n/a
335.518	0.0905	671036	keystroke_s	s	n/a
335.654	0.0885	671308	keystroke_h	h	n/a
335.7575	0.06	671515	keystroke_i	i	n/a
335.8175	0.076	671635	keystroke_n	n	n/a
335.968	0.0595	671936	keystroke_g	g	n/a
336.1025	0.0455	672205	keystroke_Key.space	Key.space	n/a
336.3125	0.045	672625	keystroke_p	p	n/a
336.4925	0.0755	672985	keystroke_l	l	n/a
336.6285	0.105	673257	keystroke_a	a	n/a
336.7635	0.0445	673527	keystroke_y	y	n/a
337.0025	0.06	674005	keystroke_b	b	n/a
337.4225	0.15	674845	keystroke_a	a	n/a
337.513	0.0745	675026	keystroke_c	c	n/a
337.633	0.0745	675266	keystroke_k	k	n/a
337.8275	0.06	675655	keystroke_Key.space	Key.space	n/a
338.0235	0.09	676047	keystroke_p	p	n/a
338.1425	0.045	676285	keystroke_u	u	n/a
338.3375	0.031	676675	keystroke_l	l	n/a
338.473	0.0445	676946	keystroke_l	l	n/a
338.6375	0.06	677275	keystroke_Key.enter	Key.enter	n/a
338.7035	6.1945	677407	prompt	n/a	outsourcing pike striking edwards\n
339.328	0.075	678656	keystroke_o	o	n/a
339.388	0.0595	678776	keystroke_u	u	n/a
339.493	0.0595	678986	keystroke_t	t	n/a
339.6735	0.1195	679347	keystroke_s	s	n/a
339.9425	0.0755	679885	keystroke_o	o	n/a
340.1525	0.045	680305	keystroke_u	u	n/a
340.3325	0.0755	680665	keystroke_r	r	n/a
340.5435	0.09	681087	keystroke_c	c	n/a
340.693	0.075	681386	keystroke_i	i	n/a
340.723	0.0595	681446	keystroke_n	n	n/a
340.8875	0.06	681775	keystroke_g	g	n/a
341.4575	0.045	682915	keystroke_Key.space	Key.space	n/a
341.6075	0.075	683215	keystroke_p	p	n/a
341.7875	0.09	683575	keystroke_i	i	n/a
341.9525	0.076	683905	keystroke_k	k	n/a
342.073	0.059	684146	keystroke_e	e	n/a
342.1925	0.06	684385	keystroke_Key.space	Key.space	n/a
342.268	0.15	684536	keystroke_s	s	n/a
342.3575	0.0615	684715	keystroke_t	t	n/a
342.523	0.0605	685046	keystroke_r	r	n/a
342.613	0.06	685226	keystroke_i	i	n/a
342.763	0.075	685526	keystroke_k	k	n/a
342.9435	0.1045	685887	keystroke_i	i	n/a
343.0025	0.061	686005	keystroke_n	n	n/a
343.1225	0.0455	686245	keystroke_g	g	n/a
343.1975	0.075	686395	keystroke_Key.space	Key.space	n/a
343.3035	0.089	686607	keystroke_e	e	n/a
343.5275	0.195	687055	keystroke_d	d	n/a
343.633	0.135	687266	keystroke_e	e	n/a
344.0825	0.06	688165	keystroke_Key.backspace	Key.backspace	n/a
344.1585	0.15	688317	keystroke_w	w	n/a
344.2325	0.121	688465	keystroke_a	a	n/a
344.2785	0.09	688557	keystroke_r	r	n/a
344.4425	0.09	688885	keystroke_d	d	n/a
344.5475	0.09	689095	keystroke_s	s	n/a
344.8325	0.0605	689665	keystroke_Key.enter	Key.enter	n/a
344.906	6.0645	689812	prompt	n/a	parameter restoration improve coated\n
345.5085	0.045	691017	keystroke_p	p	n/a
345.5675	0.106	691135	keystroke_a	a	n/a
345.6575	0.076	691315	keystroke_r	r	n/a
345.7625	0.075	691525	keystroke_a	a	n/a
345.8975	0.0455	691795	keystroke_m	m	n/a
345.9875	0.12	691975	keystroke_e	e	n/a
346.0925	0.0605	692185	keystroke_t	t	n/a
346.1675	0.1205	692335	keystroke_e	e	n/a
346.258	0.075	692516	keystroke_r	r	n/a
346.393	0.075	692786	keystroke_Key.space	Key.space	n/a
346.828	0.0595	693656	keystroke_r	r	n/a
346.888	0.075	693776	keystroke_e	e	n/a
347.098	0.15	694196	keystroke_s	s	n/a
347.2025	0.09	694405	keystroke_t	t	n/a
347.338	0.0595	694676	keystroke_o	o	n/a
347.5025	0.0905	695005	keystroke_r	r	n/a
347.653	0.1055	695306	keystroke_a	a	n/a
347.9085	0.045	695817	keystroke_t	t	n/a
348.1785	0.12	696357	keystroke_i	i	n/a
348.2085	0.0745	696417	keystroke_o	o	n/a
348.2385	0.075	696477	keystroke_n	n	n/a
348.3425	0.105	696685	keystroke_Key.space	Key.space	n/a
348.5685	0.089	697137	keystroke_i	i	n/a
348.6435	0.074	697287	keystroke_m	m	n/a
348.7185	0.075	697437	keystroke_p	p	n/a
348.8835	0.045	697767	keystroke_r	r	n/a
348.988	0.06	697976	keystroke_o	o	n/a
349.063	0.1195	698126	keystroke_v	v	n/a
349.1675	0.091	698335	keystroke_e	e	n/a
349.317	0.075	698634	keystroke_Key.space	Key.space	n/a
349.513	0.0755	699026	keystroke_c	c	n/a
349.618	0.075	699236	keystroke_o	o	n/a
349.723	0.12	699446	keystroke_a	a	n/a
349.827	0.0755	699654	keystroke_t	t	n/a
349.948	0.1355	699896	keystroke_e	e	n/a
350.038	0.015	700076	keystroke_r	r	n/a
350.068	0.09	700136	keystroke_d	d	n/a
350.608	0.0445	701216	keystroke_Key.backspace	Key.backspace	n/a
350.6975	0.0595	701395	keystroke_Key.backspace	Key.backspace	n/a
350.803	0.044	701606	keystroke_d	d	n/a
350.923	0.044	701846	keystroke_Key.enter	Key.enter	n/a
350.9745	6.73	701949	prompt	n/a	visa newton called upgrade\n
351.7635	0.0885	703527	keystroke_v	v	n/a
351.868	0.0605	703736	keystroke_i	i	n/a
351.988	0.03	703976	keystroke_s	s	n/a
352.108	0.045	704216	keystroke_s	s	n/a
352.5425	0.0455	705085	keystroke_Key.backspace	Key.backspace	n/a
352.6325	0.045	705265	keystroke_a	a	n/a
352.693	0.0745	705386	keystroke_Key.space	Key.space	n/a
352.902	0.0455	705804	keystroke_m	m	n/a
353.218	0.045	706436	keystroke_Key.backspace	Key.backspace	n/a
353.369	0.059	706738	keystroke_n	n	n/a
353.443	0.135	706886	keystroke_e	e	n/a
353.623	0.045	707246	keystroke_e	e	n/a
353.743	0.045	707486	keystroke_t	t	n/a
354.178	0.015	708356	keystroke_Key.backspace	Key.backspace	n/a
354.208	0.06	708416	keystroke_Key.backspace	Key.backspace	n/a
354.328	0.0905	708656	keystroke_w	w	n/a
354.523	0.0605	709046	keystroke_e	e	n/a
355.0175	0.0305	710035	keystroke_Key.backspace	Key.backspace	n/a
355.123	0.0605	710246	keystroke_t	t	n/a
355.1985	0.074	710397	keystroke_o	o	n/a
355.2435	0.059	710487	keystroke_n	n	n/a
355.4375	0.0605	710875	keystroke_Key.space	Key.space	n/a
355.6775	0.12	711355	keystroke_c	c	n/a
355.768	0.0895	711536	keystroke_a	a	n/a
355.918	0.0745	711836	keystroke_l	l	n/a
356.0525	0.09	712105	keystroke_l	l	n/a
356.1275	0.09	712255	keystroke_e	e	n/a
356.2025	0.06	712405	keystroke_d	d	n/a
356.2775	0.06	712555	keystroke_Key.space	Key.space	n/a
356.4575	0.045	712915	keystroke_u	u	n/a
356.5185	0.0895	713037	keystroke_p	p	n/a
356.668	0.0895	713336	keystroke_g	g	n/a
356.7875	0.105	713575	keystroke_r	r	n/a
356.8625	0.105	713725	keystroke_a	a	n/a
357.043	0.165	714086	keystroke_d	d	n/a
357.238	0.06	714476	keystroke_e	e	n/a
357.6575	0.0445	715315	keystroke_Key.enter	Key.enter	n/a
357.708	7.211	715416	prompt	n/a	august ethernet kitty defense\n
358.378	0.0155	716756	keystroke_a	a	n/a
358.438	0.06	716876	keystroke_u	u	n/a
358.543	0.075	717086	keystroke_g	g	n/a
358.633	0.06	717266	keystroke_u	u	n/a
358.7375	0.1495	717475	keystroke_s	s	n/a
358.842	0.06	717684	keystroke_t	t	n/a
358.962	0.045	717924	keystroke_Key.space	Key.space	n/a
359.5625	0.015	719125	keystroke_e	e	n/a
359.6975	0.045	719395	keystroke_h	h	n/a
359.7725	0.0905	719545	keystroke_t	t	n/a
359.8175	0.1205	719635	keystroke_e	e	n/a
359.923	0.06	719846	keystroke_r	r	n/a
360.163	0.0595	720326	keystroke_n	n	n/a
360.5375	0.06	721075	keystroke_Key.backspace	Key.backspace	n/a
360.6725	0.06	721345	keystroke_Key.backspace	Key.backspace	n/a
360.7925	0.06	721585	keystroke_Key.backspace	Key.backspace	n/a
360.9125	0.075	721825	keystroke_Key.backspace	Key.backspace	n/a
361.048	0.045	722096	keystroke_t	t	n/a
361.1675	0.0305	722335	keystroke_h	h	n/a
361.452	0.0455	722904	keystroke_Key.backspace	Key.backspace	n/a
361.558	0.0595	723116	keystroke_Key.backspace	Key.backspace	n/a
361.678	0.0595	723356	keystroke_Key.backspace	Key.backspace	n/a
361.768	0.0445	723536	keystroke_t	t	n/a
361.8725	0.0445	723745	keystroke_h	h	n/a
361.9625	0.0905	723925	keystroke_e	e	n/a
362.038	0.044	724076	keystroke_r	r	n/a
362.113	0.045	724226	keystroke_n	n	n/a
362.368	0.06	724736	keystroke_e	e	n/a
362.4425	0.0755	724885	keystroke_t	t	n/a
362.833	0.074	725666	keystroke_Key.space	Key.space	n/a
362.953	0.075	725906	keystroke_k	k	n/a
363.103	0.06	726206	keystroke_i	i	n/a
363.223	0.045	726446	keystroke_t	t	n/a
363.3275	0.075	726655	keystroke_t	t	n/a
363.4925	0.045	726985	keystroke_y	y	n/a
363.5525	0.045	727105	keystroke_Key.space	Key.space	n/a
363.6425	0.12	727285	keystroke_d	d	n/a
363.7175	0.1055	727435	keystroke_e	e	n/a
364.0925	0.089	728185	keystroke_f	f	n/a
364.198	0.0595	728396	keystroke_e	e	n/a
364.4375	0.03	728875	keystroke_n	n	n/a
364.5575	0.075	729115	keystroke_s	s	n/a
364.6925	0.075	729385	keystroke_e	e	n/a
364.857	0.06	729714	keystroke_Key.enter	Key.enter	n/a
364.9235	4.2255	729847	prompt	n/a	user backing fatty stood\n
365.7125	0.044	731425	keystroke_u	u	n/a
365.772	0.106	731544	keystroke_s	s	n/a
365.9225	0.105	731845	keystroke_e	e	n/a
365.9975	0.074	731995	keystroke_r	r	n/a
366.0865	0.061	732173	keystroke_Key.space	Key.space	n/a
366.207	0.0595	732414	keystroke_b	b	n/a
366.2815	0.166	732563	keystroke_a	a	n/a
366.403	0.0885	732806	keystroke_c	c	n/a
366.5215	0.045	733043	keystroke_k	k	n/a
366.6715	0.0755	733343	keystroke_i	i	n/a
366.702	0.0755	733404	keystroke_n	n	n/a
366.853	0.044	733706	keystroke_g	g	n/a
366.927	0.09	733854	keystroke_Key.space	Key.space	n/a
367.063	0.0745	734126	keystroke_f	f	n/a
367.138	0.104	734276	keystroke_a	a	n/a
367.273	0.059	734546	keystroke_t	t	n/a
367.872	0.076	735744	keystroke_t	t	n/a
368.037	0.061	736074	keystroke_y	y	n/a
368.1275	0.045	736255	keystroke_Key.space	Key.space	n/a
368.308	0.089	736616	keystroke_s	s	n/a
368.367	0.076	736734	keystroke_t	t	n/a
368.518	0.045	737036	keystroke_o	o	n/a
368.653	0.089	737306	keystroke_o	o	n/a
368.848	0.045	737696	keystroke_d	d	n/a
369.102	0.045	738204	keystroke_Key.enter	Key.enter	n/a
369.154	5.2445	738308	prompt	n/a	filters fake marsh montana\n
369.8975	0.045	739795	keystroke_f	f	n/a
370.0175	0.0745	740035	keystroke_i	i	n/a
370.198	0.075	740396	keystroke_l	l	n/a
370.302	0.15	740604	keystroke_t	t	n/a
370.362	0.165	740724	keystroke_e	e	n/a
370.482	0.12	740964	keystroke_r	r	n/a
370.6775	0.0745	741355	keystroke_s	s	n/a
370.887	0.075	741774	keystroke_Key.space	Key.space	n/a
371.142	0.106	742284	keystroke_t	t	n/a
371.232	0.075	742464	keystroke_a	a	n/a
371.532	0.045	743064	keystroke_Key.backspace	Key.backspace	n/a
371.651	0.031	743302	keystroke_Key.backspace	Key.backspace	n/a
371.743	0.0745	743486	keystroke_f	f	n/a
371.8185	0.0585	743637	keystroke_a	a	n/a
372.013	0.059	744026	keystroke_k	k	n/a
372.132	0.06	744264	keystroke_e	e	n/a
372.267	0.0605	744534	keystroke_Key.space	Key.space	n/a
372.462	0.0605	744924	keystroke_m	m	n/a
372.582	0.075	745164	keystroke_a	a	n/a
372.642	0.0455	745284	keystroke_r	r	n/a
372.777	0.0755	745554	keystroke_s	s	n/a
372.912	0.0605	745824	keystroke_h	h	n/a
372.9875	0.0445	745975	keystroke_Key.space	Key.space	n/a
373.2125	0.045	746425	keystroke_m	m	n/a
373.3465	0.076	746693	keystroke_o	o	n/a
373.4075	0.06	746815	keystroke_n	n	n/a
373.527	0.076	747054	keystroke_t	t	n/a
373.6475	0.12	747295	keystroke_a	a	n/a
373.993	0.0445	747986	keystroke_n	n	n/a
374.1125	0.09	748225	keystroke_a	a	n/a
374.3375	0.0595	748675	keystroke_Key.enter	Key.enter	n/a
374.403	5.7705	748806	prompt	n/a	sells grant amanda forget\n
375.2225	0.09	750445	keystroke_s	s	n/a
375.4175	0.105	750835	keystroke_e	e	n/a
375.6275	0.075	751255	keystroke_l	l	n/a
375.7475	0.09	751495	keystroke_l	l	n/a
375.9285	0.089	751857	keystroke_s	s	n/a
376.0915	0.076	752183	keystroke_Key.space	Key.space	n/a
376.1965	0.0905	752393	keystroke_g	g	n/a
376.347	0.105	752694	keystroke_r	r	n/a
376.422	0.075	752844	keystroke_a	a	n/a
376.5575	0.0745	753115	keystroke_n	n	n/a
376.722	0.045	753444	keystroke_t	t	n/a
376.812	0.06	753624	keystroke_Key.space	Key.space	n/a
377.1125	0.09	754225	keystroke_a	a	n/a
377.353	0.0595	754706	keystroke_m	m	n/a
377.5325	0.0895	755065	keystroke_a	a	n/a
377.652	0.045	755304	keystroke_n	n	n/a
377.787	0.09	755574	keystroke_d	d	n/a
377.8925	0.0595	755785	keystroke_a	a	n/a
378.072	0.06	756144	keystroke_Key.space	Key.space	n/a
378.2675	0.0445	756535	keystroke_f	f	n/a
378.4025	0.075	756805	keystroke_o	o	n/a
378.552	0.046	757104	keystroke_r	r	n/a
378.733	0.0445	757466	keystroke_g	g	n/a
378.792	0.09	757584	keystroke_g	g	n/a
378.8225	0.0895	757645	keystroke_e	e	n/a
379.407	0.105	758814	keystroke_Key.backspace	Key.backspace	n/a
379.527	0.015	759054	keystroke_Key.backspace	Key.backspace	n/a
379.6175	0.105	759235	keystroke_e	e	n/a
379.677	0.046	759354	keystroke_t	t	n/a
380.097	0.0745	760194	keystroke_Key.enter	Key.enter	n/a
380.177	6.4465	760354	prompt	n/a	antiques clients faculty considered\n
380.892	0.1055	761784	keystroke_a	a	n/a
381.057	0.06	762114	keystroke_n	n	n/a
381.252	0.0605	762504	keystroke_t	t	n/a
381.3725	0.075	762745	keystroke_i	i	n/a
381.777	0.0455	763554	keystroke_q	q	n/a
381.8675	0.0445	763735	keystroke_u	u	n/a
382.047	0.045	764094	keystroke_e	e	n/a
382.197	0.061	764394	keystroke_s	s	n/a
382.302	0.075	764604	keystroke_Key.space	Key.space	n/a
382.812	0.12	765624	keystroke_c	c	n/a
382.917	0.105	765834	keystroke_l	l	n/a
383.0375	0.104	766075	keystroke_i	i	n/a
383.1875	0.09	766375	keystroke_e	e	n/a
383.3375	0.0595	766675	keystroke_n	n	n/a
383.412	0.09	766824	keystroke_t	t	n/a
383.487	0.075	766974	keystroke_s	s	n/a
383.652	0.06	767304	keystroke_Key.space	Key.space	n/a
383.832	0.075	767664	keystroke_f	f	n/a
383.922	0.1655	767844	keystroke_a	a	n/a
384.117	0.09	768234	keystroke_c	c	n/a
384.327	0.045	768654	keystroke_u	u	n/a
384.417	0.09	768834	keystroke_l	l	n/a
384.5815	0.06	769163	keystroke_t	t	n/a
384.6865	0.031	769373	keystroke_y	y	n/a
384.747	0.06	769494	keystroke_Key.space	Key.space	n/a
385.3775	0.074	770755	keystroke_c	c	n/a
385.4375	0.074	770875	keystroke_o	o	n/a
385.4975	0.075	770995	keystroke_n	n	n/a
385.6015	0.091	771203	keystroke_s	s	n/a
385.6765	0.076	771353	keystroke_i	i	n/a
385.8265	0.0905	771653	keystroke_d	d	n/a
385.902	0.12	771804	keystroke_e	e	n/a
385.992	0.12	771984	keystroke_r	r	n/a
386.112	0.106	772224	keystroke_e	e	n/a
386.202	0.1355	772404	keystroke_d	d	n/a
386.562	0.06	773124	keystroke_Key.enter	Key.enter	n/a
386.6275	6.041	773255	prompt	n/a	replacing else description keen\n
387.2515	0.106	774503	keystroke_r	r	n/a
387.3275	0.061	774655	keystroke_e	e	n/a
387.4175	0.075	774835	keystroke_p	p	n/a
387.5975	0.075	775195	keystroke_l	l	n/a
387.6575	0.134	775315	keystroke_a	a	n/a
387.7475	0.105	775495	keystroke_c	c	n/a
387.9125	0.075	775825	keystroke_i	i	n/a
387.9575	0.06	775915	keystroke_n	n	n/a
388.0775	0.06	776155	keystroke_g	g	n/a
388.6765	0.076	777353	keystroke_Key.space	Key.space	n/a
388.7975	0.076	777595	keystroke_e	e	n/a
388.9325	0.0745	777865	keystroke_l	l	n/a
389.023	0.089	778046	keystroke_s	s	n/a
389.172	0.076	778344	keystroke_e	e	n/a
389.3825	0.075	778765	keystroke_Key.space	Key.space	n/a
389.8165	0.12	779633	keystroke_d	d	n/a
389.9075	0.0745	779815	keystroke_e	e	n/a
390.0875	0.1505	780175	keystroke_s	s	n/a
390.222	0.0605	780444	keystroke_c	c	n/a
390.402	0.06	780804	keystroke_r	r	n/a
390.642	0.075	781284	keystroke_i	i	n/a
390.7475	0.0595	781495	keystroke_b	b	n/a
390.792	0.0905	781584	keystroke_p	p	n/a
391.152	0.06	782304	keystroke_Key.backspace	Key.backspace	n/a
391.257	0.0605	782514	keystroke_Key.backspace	Key.backspace	n/a
391.4825	0.045	782965	keystroke_p	p	n/a
391.6165	0.031	783233	keystroke_t	t	n/a
391.6925	0.09	783385	keystroke_i	i	n/a
391.708	0.1035	783416	keystroke_o	o	n/a
391.768	0.0745	783536	keystroke_n	n	n/a
391.8575	0.0595	783715	keystroke_Key.space	Key.space	n/a
392.0365	0.06	784073	keystroke_k	k	n/a
392.157	0.0605	784314	keystroke_e	e	n/a
392.293	0.059	784586	keystroke_e	e	n/a
392.367	0.06	784734	keystroke_n	n	n/a
392.5925	0.074	785185	keystroke_Key.enter	Key.enter	n/a
392.674	8.92	785348	prompt	n/a	decimal otherwise composed monsters\n
393.252	0.1205	786504	keystroke_d	d	n/a
393.3575	0.06	786715	keystroke_e	e	n/a
393.628	0.0895	787256	keystroke_c	c	n/a
393.762	0.136	787524	keystroke_i	i	n/a
393.852	0.0905	787704	keystroke_m	m	n/a
394.2415	0.045	788483	keystroke_a	a	n/a
394.3325	0.074	788665	keystroke_l	l	n/a
394.437	0.0895	788874	keystroke_Key.space	Key.space	n/a
394.6465	0.09	789293	keystroke_o	o	n/a
394.7815	0.076	789563	keystroke_t	t	n/a
394.8715	0.106	789743	keystroke_e	e	n/a
394.8725	0.0745	789745	keystroke_h	h	n/a
394.9325	0.12	789865	keystroke_r	r	n/a
395.2775	0.03	790555	keystroke_s	s	n/a
395.787	0.015	791574	keystroke_Key.backspace	Key.backspace	n/a
395.832	0.075	791664	keystroke_w	w	n/a
395.982	0.06	791964	keystroke_i	i	n/a
396.103	0.105	792206	keystroke_s	s	n/a
396.3865	0.0455	792773	keystroke_Key.backspace	Key.backspace	n/a
396.5225	0.0745	793045	keystroke_Key.backspace	Key.backspace	n/a
396.882	0.045	793764	keystroke_Key.backspace	Key.backspace	n/a
397.047	0.105	794094	keystroke_Key.backspace	Key.backspace	n/a
397.212	0.075	794424	keystroke_Key.backspace	Key.backspace	n/a
397.3315	0.09	794663	keystroke_Key.backspace	Key.backspace	n/a
397.5875	0.045	795175	keystroke_h	h	n/a
397.6775	0.119	795355	keystroke_e	e	n/a
397.7815	0.136	795563	keystroke_r	r	n/a
397.8875	0.0895	795775	keystroke_w	w	n/a
398.142	0.03	796284	keystroke_i	i	n/a
398.262	0.075	796524	keystroke_s	s	n/a
398.4125	0.06	796825	keystroke_e	e	n/a
398.562	0.06	797124	keystroke_Key.space	Key.space	n/a
398.6975	0.09	797395	keystroke_c	c	n/a
398.802	0.09	797604	keystroke_o	o	n/a
398.862	0.045	797724	keystroke_u	u	n/a
399.4475	0.09	798895	keystroke_Key.backspace	Key.backspace	n/a
399.7475	0.135	799495	keystroke_m	m	n/a
399.9125	0.18	799825	keystroke_p	p	n/a
400.0765	0.1205	800153	keystroke_o	o	n/a
400.242	0.0755	800484	keystroke_s	s	n/a
400.362	0.12	800724	keystroke_e	e	n/a
400.452	0.105	800904	keystroke_d	d	n/a
400.572	0.03	801144	keystroke_Key.space	Key.space	n/a
400.692	0.0905	801384	keystroke_m	m	n/a
400.7965	0.09	801593	keystroke_o	o	n/a
400.8715	0.075	801743	keystroke_n	n	n/a
400.9615	0.121	801923	keystroke_s	s	n/a
401.037	0.0755	802074	keystroke_t	t	n/a
401.1415	0.1205	802283	keystroke_e	e	n/a
401.2315	0.1655	802463	keystroke_r	r	n/a
401.3675	0.1495	802735	keystroke_s	s	n/a
401.532	0.06	803064	keystroke_Key.enter	Key.enter	n/a
401.5985	7.196	803197	prompt	n/a	functionality peers matrix blah\n
402.2665	0.061	804533	keystroke_f	f	n/a
402.2815	0.061	804563	keystroke_u	u	n/a
402.4775	0.075	804955	keystroke_n	n	n/a
402.6125	0.105	805225	keystroke_c	c	n/a
403.002	0.151	806004	keystroke_t	t	n/a
403.243	0.0895	806486	keystroke_i	i	n/a
403.3025	0.1355	806605	keystroke_o	o	n/a
403.887	0.0455	807774	keystroke_n	n	n/a
404.0225	0.075	808045	keystroke_a	a	n/a
404.1575	0.1045	808315	keystroke_l	l	n/a
404.247	0.075	808494	keystroke_i	i	n/a
404.397	0.045	808794	keystroke_t	t	n/a
404.502	0.045	809004	keystroke_y	y	n/a
404.562	0.06	809124	keystroke_Key.space	Key.space	n/a
405.282	0.045	810564	keystroke_Key.backspace	Key.backspace	n/a
405.477	0.045	810954	keystroke_p	p	n/a
405.822	0.03	811644	keystroke_Key.backspace	Key.backspace	n/a
405.8975	0.074	811795	keystroke_Key.space	Key.space	n/a
406.0625	0.0905	812125	keystroke_p	p	n/a
406.198	0.0745	812396	keystroke_e	e	n/a
406.3475	0.12	812695	keystroke_e	e	n/a
406.4225	0.2245	812845	keystroke_r	r	n/a
406.5575	0.149	813115	keystroke_s	s	n/a
406.7225	0.059	813445	keystroke_Key.space	Key.space	n/a
406.903	0.06	813806	keystroke_m	m	n/a
406.9775	0.135	813955	keystroke_a	a	n/a
407.083	0.0595	814166	keystroke_t	t	n/a
407.2165	0.061	814433	keystroke_r	r	n/a
407.337	0.046	814674	keystroke_i	i	n/a
407.5925	0.06	815185	keystroke_x	x	n/a
407.8625	0.045	815725	keystroke_Key.space	Key.space	n/a
408.2675	0.015	816535	keystroke_b	b	n/a
408.298	0.0145	816596	keystroke_l	l	n/a
408.3275	0.0455	816655	keystroke_a	a	n/a
408.4325	0.044	816865	keystroke_h	h	n/a
408.7325	0.06	817465	keystroke_Key.enter	Key.enter	n/a
408.798	6.0855	817596	prompt	n/a	realty maritime salt primary\n
409.452	0.0905	818904	keystroke_r	r	n/a
409.5125	0.075	819025	keystroke_e	e	n/a
409.6325	0.105	819265	keystroke_a	a	n/a
409.768	0.0745	819536	keystroke_l	l	n/a
409.9025	0.045	819805	keystroke_t	t	n/a
410.0225	0.045	820045	keystroke_y	y	n/a
410.0975	0.09	820195	keystroke_Key.space	Key.space	n/a
410.3525	0.0595	820705	keystroke_m	m	n/a
410.4575	0.1045	820915	keystroke_a	a	n/a
410.547	0.03	821094	keystroke_r	r	n/a
410.637	0.06	821274	keystroke_i	i	n/a
410.742	0.045	821484	keystroke_t	t	n/a
410.7875	0.0745	821575	keystroke_i	i	n/a
410.938	0.075	821876	keystroke_m	m	n/a
411.162	0.0605	822324	keystroke_e	e	n/a
411.402	0.0595	822804	keystroke_Key.space	Key.space	n/a
411.5365	0.136	823073	keystroke_s	s	n/a
411.7015	0.12	823403	keystroke_a	a	n/a
411.7165	0.03	823433	keystroke_s	s	n/a
411.882	0.0745	823764	keystroke_l	l	n/a
412.0465	0.061	824093	keystroke_t	t	n/a
412.1815	0.06	824363	keystroke_Key.space	Key.space	n/a
412.497	0.045	824994	keystroke_Key.backspace	Key.backspace	n/a
412.6015	0.046	825203	keystroke_Key.backspace	Key.backspace	n/a
