onset	duration	sample	value	key	prompt_text
4.3905	15.953	8781	prompt	n/a	the quick brown fox jumps over a lazy dog\n
8.7785	0.043	17557	keystroke_t	t	n/a
8.8065	0.104	17613	keystroke_h	h	n/a
8.8815	0.119	17763	keystroke_e	e	n/a
8.9405	0.15	17881	keystroke_Key.space	Key.space	n/a
9.1065	0.119	18213	keystroke_q	q	n/a
9.1805	0.09	18361	keystroke_u	u	n/a
9.3765	0.075	18753	keystroke_i	i	n/a
9.4665	0.135	18933	keystroke_c	c	n/a
9.5865	0.09	19173	keystroke_k	k	n/a
9.7065	0.15	19413	keystroke_Key.space	Key.space	n/a
9.976	0.1055	19952	keystroke_b	b	n/a
10.1115	0.1045	20223	keystroke_r	r	n/a
10.231	0.09	20462	keystroke_o	o	n/a
10.336	0.075	20672	keystroke_w	w	n/a
10.426	0.09	20852	keystroke_n	n	n/a
10.501	0.12	21002	keystroke_Key.space	Key.space	n/a
10.6805	0.1205	21361	keystroke_f	f	n/a
10.756	0.0905	21512	keystroke_o	o	n/a
10.9515	0.104	21903	keystroke_x	x	n/a
11.0405	0.105	22081	keystroke_Key.space	Key.space	n/a
11.1605	0.09	22321	keystroke_j	j	n/a
11.3405	0.075	22681	keystroke_u	u	n/a
11.5505	0.03	23101	keystroke_m	m	n/a
11.6855	0.06	23371	keystroke_p	p	n/a
11.821	0.1645	23642	keystroke_s	s	n/a
12.2865	0.195	24573	keystroke_Key.space	Key.space	n/a
12.5565	0.12	25113	keystroke_o	o	n/a
12.6615	0.105	25323	keystroke_v	v	n/a
12.8415	0.135	25683	keystroke_e	e	n/a
12.9315	0.12	25863	keystroke_r	r	n/a
12.9915	0.09	25983	keystroke_Key.space	Key.space	n/a
13.8765	0.15	27753	keystroke_a	a	n/a
14.0105	0.121	28021	keystroke_Key.space	Key.space	n/a
14.1465	0.12	28293	keystroke_a	a	n/a
14.2815	0.105	28563	keystroke_l	l	n/a
14.3865	0.09	28773	keystroke_a	a	n/a
14.746	0.075	29492	keystroke_Key.backspace	Key.backspace	n/a
14.971	0.105	29942	keystroke_Key.backspace	Key.backspace	n/a
15.706	0.0755	31412	keystroke_Key.backspace	Key.backspace	n/a
15.9615	0.075	31923	keystroke_l	l	n/a
16.0965	0.105	32193	keystroke_a	a	n/a
16.322	0.075	32644	keystroke_z	z	n/a
16.756	0.121	33512	keystroke_y	y	n/a
16.966	0.1055	33932	keystroke_Key.space	Key.space	n/a
17.1915	0.12	34383	keystroke_d	d	n/a
17.3265	0.12	34653	keystroke_o	o	n/a
17.4615	0.075	34923	keystroke_g	g	n/a
20.329	0.012	40658	keystroke_Key.enter	Key.enter	n/a
20.3475	4.3755	40695	prompt	n/a	notices beth pieces case\n
21.032	0.059	42064	keystroke_n	n	n/a
21.211	0.03	42422	keystroke_o	o	n/a
21.226	0.06	42452	keystroke_t	t	n/a
21.346	0.105	42692	keystroke_i	i	n/a
21.436	0.195	42872	keystroke_c	c	n/a
21.571	0.15	43142	keystroke_e	e	n/a
21.646	0.135	43292	keystroke_s	s	n/a
21.691	0.21	43382	keystroke_Key.space	Key.space	n/a
21.9315	0.135	43863	keystroke_b	b	n/a
22.1715	0.105	44343	keystroke_e	e	n/a
22.3515	0.12	44703	keystroke_t	t	n/a
22.4565	0.12	44913	keystroke_h	h	n/a
22.5765	0.09	45153	keystroke_Key.space	Key.space	n/a
22.8915	0.075	45783	keystroke_p	p	n/a
23.1015	0.075	46203	keystroke_i	i	n/a
23.3265	0.105	46653	keystroke_e	e	n/a
23.5815	0.1195	47163	keystroke_c	c	n/a
23.8065	0.18	47613	keystroke_e	e	n/a
23.8965	0.135	47793	keystroke_s	s	n/a
23.9715	0.1345	47943	keystroke_Key.space	Key.space	n/a
24.136	0.1055	48272	keystroke_c	c	n/a
24.2265	0.195	48453	keystroke_a	a	n/a
24.3765	0.135	48753	keystroke_s	s	n/a
24.4665	0.12	48933	keystroke_e	e	n/a
24.6315	0.09	49263	keystroke_Key.enter	Key.enter	n/a
24.727	5.576	49454	prompt	n/a	count achieve floating restaurants\n
25.382	0.104	50764	keystroke_c	c	n/a
25.441	0.106	50882	keystroke_o	o	n/a
25.502	0.059	51004	keystroke_u	u	n/a
25.666	0.135	51332	keystroke_n	n	n/a
25.726	0.12	51452	keystroke_t	t	n/a
25.8165	0.0895	51633	keystroke_Key.space	Key.space	n/a
25.937	0.135	51874	keystroke_a	a	n/a
26.011	0.136	52022	keystroke_c	c	n/a
26.132	0.104	52264	keystroke_h	h	n/a
26.237	0.089	52474	keystroke_i	i	n/a
26.311	0.075	52622	keystroke_e	e	n/a
26.491	0.075	52982	keystroke_v	v	n/a
26.611	0.135	53222	keystroke_e	e	n/a
26.716	0.15	53432	keystroke_Key.space	Key.space	n/a
26.836	0.12	53672	keystroke_f	f	n/a
26.941	0.03	53882	keystroke_l	l	n/a
27.091	0.06	54182	keystroke_o	o	n/a
27.6915	0.135	55383	keystroke_a	a	n/a
27.7815	0.105	55563	keystroke_t	t	n/a
27.8865	0.105	55773	keystroke_i	i	n/a
27.931	0.1505	55862	keystroke_n	n	n/a
28.0065	0.12	56013	keystroke_g	g	n/a
28.0965	0.0895	56193	keystroke_Key.space	Key.space	n/a
28.2765	0.135	56553	keystroke_r	r	n/a
28.3365	0.12	56673	keystroke_e	e	n/a
28.681	0.12	57362	keystroke_s	s	n/a
28.891	0.1055	57782	keystroke_t	t	n/a
29.0715	0.165	58143	keystroke_a	a	n/a
29.2215	0.105	58443	keystroke_u	u	n/a
29.3115	0.105	58623	keystroke_r	r	n/a
29.4915	0.15	58983	keystroke_a	a	n/a
29.6265	0.105	59253	keystroke_n	n	n/a
29.7765	0.12	59553	keystroke_t	t	n/a
29.8665	0.135	59733	keystroke_s	s	n/a
30.1965	0.105	60393	keystroke_Key.enter	Key.enter	n/a
30.3065	7.572	60613	prompt	n/a	nail small suffering shine\n
30.8565	0.045	61713	keystroke_c	c	n/a
31.0665	0.0895	62133	keystroke_n	n	n/a
31.3665	0.045	62733	keystroke_Key.backspace	Key.backspace	n/a
31.4865	0.09	62973	keystroke_Key.backspace	Key.backspace	n/a
31.7565	0.06	63513	keystroke_n	n	n/a
31.9065	0.105	63813	keystroke_a	a	n/a
31.9665	0.195	63933	keystroke_i	i	n/a
32.0415	0.135	64083	keystroke_l	l	n/a
32.1915	0.12	64383	keystroke_Key.space	Key.space	n/a
32.2815	0.135	64563	keystroke_s	s	n/a
32.4015	0.105	64803	keystroke_m	m	n/a
32.5215	0.105	65043	keystroke_a	a	n/a
32.6115	0.045	65223	keystroke_l	l	n/a
32.7615	0.1045	65523	keystroke_l	l	n/a
32.881	0.09	65762	keystroke_Key.space	Key.space	n/a
33.151	0.12	66302	keystroke_s	s	n/a
33.241	0.105	66482	keystroke_u	u	n/a
33.361	0.06	66722	keystroke_f	f	n/a
33.481	0.09	66962	keystroke_f	f	n/a
33.661	0.075	67322	keystroke_e	e	n/a
33.706	0.15	67412	keystroke_r	r	n/a
33.811	0.12	67622	keystroke_e	e	n/a
33.946	0.09	67892	keystroke_i	i	n/a
33.991	0.135	67982	keystroke_n	n	n/a
34.0665	0.1195	68133	keystroke_g	g	n/a
34.2465	0.0895	68493	keystroke_Key.space	Key.space	n/a
34.4715	0.12	68943	keystroke_s	s	n/a
34.5465	0.12	69093	keystroke_h	h	n/a
34.6365	0.18	69273	keystroke_i	i	n/a
34.7715	0.105	69543	keystroke_n	n	n/a
35.0715	0.03	70143	keystroke_Key.backspace	Key.backspace	n/a
35.1915	0.06	70383	keystroke_Key.backspace	Key.backspace	n/a
35.3415	0.045	70683	keystroke_Key.backspace	Key.backspace	n/a
35.4915	0.03	70983	keystroke_Key.backspace	Key.backspace	n/a
35.626	0.045	71252	keystroke_Key.backspace	Key.backspace	n/a
35.761	0.06	71522	keystroke_Key.backspace	Key.backspace	n/a
35.851	0.12	71702	keystroke_Key.backspace	Key.backspace	n/a
36.046	0.0755	72092	keystroke_Key.backspace	Key.backspace	n/a
36.226	0.105	72452	keystroke_Key.backspace	Key.backspace	n/a
37.006	0.135	74012	keystroke_i	i	n/a
37.051	0.12	74102	keystroke_n	n	n/a
37.096	0.135	74192	keystroke_g	g	n/a
37.186	0.135	74372	keystroke_Key.space	Key.space	n/a
37.306	0.12	74612	keystroke_s	s	n/a
37.351	0.105	74702	keystroke_h	h	n/a
37.426	0.18	74852	keystroke_i	i	n/a
37.546	0.12	75092	keystroke_n	n	n/a
37.591	0.09	75182	keystroke_e	e	n/a
37.786	0.09	75572	keystroke_Key.enter	Key.enter	n/a
37.882	4.7665	75764	prompt	n/a	arms stats earrings organizations\n
38.5065	0.15	77013	keystroke_a	a	n/a
38.6565	0.09	77313	keystroke_r	r	n/a
38.7465	0.12	77493	keystroke_m	m	n/a
38.8365	0.135	77673	keystroke_s	s	n/a
38.9265	0.15	77853	keystroke_Key.space	Key.space	n/a
39.1065	0.165	78213	keystroke_s	s	n/a
39.2865	0.09	78573	keystroke_t	t	n/a
39.3915	0.12	78783	keystroke_a	a	n/a
39.4665	0.15	78933	keystroke_t	t	n/a
39.6315	0.165	79263	keystroke_s	s	n/a
39.7365	0.15	79473	keystroke_Key.space	Key.space	n/a
39.9165	0.165	79833	keystroke_e	e	n/a
39.9615	0.165	79923	keystroke_a	a	n/a
40.187	0.074	80374	keystroke_r	r	n/a
40.322	0.12	80644	keystroke_r	r	n/a
40.502	0.134	81004	keystroke_i	i	n/a
40.562	0.15	81124	keystroke_n	n	n/a
40.622	0.15	81244	keystroke_g	g	n/a
40.742	0.165	81484	keystroke_s	s	n/a
40.846	0.15	81692	keystroke_Key.space	Key.space	n/a
41.0115	0.09	82023	keystroke_o	o	n/a
41.0715	0.09	82143	keystroke_r	r	n/a
41.251	0.075	82502	keystroke_g	g	n/a
41.386	0.105	82772	keystroke_a	a	n/a
41.536	0.045	83072	keystroke_n	n	n/a
41.611	0.12	83222	keystroke_i	i	n/a
41.716	0.09	83432	keystroke_z	z	n/a
41.881	0.09	83762	keystroke_a	a	n/a
42.046	0.105	84092	keystroke_t	t	n/a
42.121	0.225	84242	keystroke_i	i	n/a
42.196	0.12	84392	keystroke_o	o	n/a
42.256	0.1355	84512	keystroke_n	n	n/a
42.4365	0.09	84873	keystroke_s	s	n/a
42.5115	0.135	85023	keystroke_Key.enter	Key.enter	n/a
42.652	6.2665	85304	prompt	n/a	cats eminem restrict coleman\n
43.382	0.105	86764	keystroke_c	c	n/a
43.457	0.12	86914	keystroke_a	a	n/a
43.652	0.12	87304	keystroke_t	t	n/a
43.757	0.135	87514	keystroke_s	s	n/a
43.831	0.166	87662	keystroke_Key.space	Key.space	n/a
43.982	0.12	87964	keystroke_e	e	n/a
44.087	0.075	88174	keystroke_m	m	n/a
44.207	0.104	88414	keystroke_i	i	n/a
44.281	0.12	88562	keystroke_n	n	n/a
44.9265	0.075	89853	keystroke_e	e	n/a
45.0615	0.1195	90123	keystroke_m	m	n/a
45.241	0.09	90482	keystroke_Key.space	Key.space	n/a
45.5865	0.15	91173	keystroke_r	r	n/a
45.6615	0.135	91323	keystroke_e	e	n/a
45.7515	0.105	91503	keystroke_s	s	n/a
45.871	0.1205	91742	keystroke_t	t	n/a
45.946	0.1205	91892	keystroke_r	r	n/a
46.0515	0.15	92103	keystroke_i	i	n/a
46.1565	0.105	92313	keystroke_c	c	n/a
46.4115	0.1055	92823	keystroke_t	t	n/a
46.487	0.09	92974	keystroke_Key.space	Key.space	n/a
46.667	0.09	93334	keystroke_c	c	n/a
46.772	0.06	93544	keystroke_l	l	n/a
46.9365	0.1045	93873	keystroke_o	o	n/a
47.042	0.074	94084	keystroke_e	e	n/a
47.431	0.045	94862	keystroke_Key.backspace	Key.backspace	n/a
47.566	0.06	95132	keystroke_Key.backspace	Key.backspace	n/a
47.716	0.075	95432	keystroke_Key.backspace	Key.backspace	n/a
47.956	0.0755	95912	keystroke_o	o	n/a
48.1215	0.09	96243	keystroke_l	l	n/a
48.2565	0.06	96513	keystroke_e	e	n/a
48.376	0.09	96752	keystroke_m	m	n/a
48.511	0.075	97022	keystroke_a	a	n/a
48.571	0.0905	97142	keystroke_n	n	n/a
48.886	0.03	97772	keystroke_Key.enter	Key.enter	n/a
48.9225	5.666	97845	prompt	n/a	held cookies polymer determine\n
49.562	0.104	99124	keystroke_h	h	n/a
49.651	0.091	99302	keystroke_e	e	n/a
49.891	0.121	99782	keystroke_l	l	n/a
50.042	0.134	100084	keystroke_d	d	n/a
50.191	0.09	100382	keystroke_Key.space	Key.space	n/a
50.342	0.089	100684	keystroke_c	c	n/a
50.416	0.0605	100832	keystroke_o	o	n/a
50.5815	0.09	101163	keystroke_o	o	n/a
50.7315	0.105	101463	keystroke_k	k	n/a
50.9265	0.12	101853	keystroke_i	i	n/a
51.0915	0.18	102183	keystroke_e	e	n/a
51.1815	0.135	102363	keystroke_s	s	n/a
51.2565	0.18	102513	keystroke_Key.space	Key.space	n/a
51.4215	0.075	102843	keystroke_p	p	n/a
51.6015	0.06	103203	keystroke_o	o	n/a
51.7065	0.105	103413	keystroke_l	l	n/a
51.8415	0.105	103683	keystroke_y	y	n/a
51.9915	0.12	103983	keystroke_m	m	n/a
52.0965	0.12	104193	keystroke_e	e	n/a
52.1565	0.12	104313	keystroke_r	r	n/a
52.2465	0.09	104493	keystroke_Key.space	Key.space	n/a
52.3965	0.06	104793	keystroke_d	d	n/a
52.5915	0.105	105183	keystroke_t	t	n/a
52.9665	0.06	105933	keystroke_Key.backspace	Key.backspace	n/a
53.0715	0.105	106143	keystroke_e	e	n/a
53.2365	0.09	106473	keystroke_t	t	n/a
53.3415	0.1045	106683	keystroke_e	e	n/a
53.417	0.134	106834	keystroke_r	r	n/a
53.791	0.075	107582	keystroke_m	m	n/a
53.956	0.105	107912	keystroke_i	i	n/a
54.001	0.091	108002	keystroke_n	n	n/a
54.047	0.09	108094	keystroke_e	e	n/a
54.496	0.09	108992	keystroke_Key.enter	Key.enter	n/a
54.594	4.944	109188	prompt	n/a	tyler nikon personal answered\n
55.546	0.105	111092	keystroke_t	t	n/a
55.726	0.09	111452	keystroke_y	y	n/a
55.876	0.106	111752	keystroke_l	l	n/a
55.966	0.135	111932	keystroke_e	e	n/a
56.012	0.149	112024	keystroke_r	r	n/a
56.086	0.105	112172	keystroke_Key.space	Key.space	n/a
56.2965	0.09	112593	keystroke_n	n	n/a
56.4015	0.1205	112803	keystroke_i	i	n/a
56.5965	0.1055	113193	keystroke_k	k	n/a
56.7765	0.09	113553	keystroke_o	o	n/a
56.9115	0.12	113823	keystroke_n	n	n/a
57.1365	0.135	114273	keystroke_Key.space	Key.space	n/a
57.3015	0.1205	114603	keystroke_p	p	n/a
57.4065	0.1055	114813	keystroke_e	e	n/a
57.467	0.135	114934	keystroke_r	r	n/a
57.587	0.135	115174	keystroke_s	s	n/a
57.677	0.075	115354	keystroke_o	o	n/a
57.782	0.135	115564	keystroke_n	n	n/a
57.902	0.09	115804	keystroke_a	a	n/a
57.977	0.12	115954	keystroke_l	l	n/a
58.112	0.12	116224	keystroke_Key.space	Key.space	n/a
58.247	0.15	116494	keystroke_a	a	n/a
58.352	0.12	116704	keystroke_n	n	n/a
58.442	0.135	116884	keystroke_s	s	n/a
58.622	0.105	117244	keystroke_w	w	n/a
58.802	0.105	117604	keystroke_e	e	n/a
58.877	0.165	117754	keystroke_r	r	n/a
58.982	0.135	117964	keystroke_e	e	n/a
59.327	0.09	118654	keystroke_d	d	n/a
59.432	0.105	118864	keystroke_Key.enter	Key.enter	n/a
59.5415	6.7175	119083	prompt	n/a	scheduled charlotte sailing survivor\n
60.422	0.195	120844	keystroke_s	s	n/a
60.542	0.165	121084	keystroke_c	c	n/a
60.677	0.15	121354	keystroke_h	h	n/a
60.782	0.075	121564	keystroke_e	e	n/a
60.962	0.1195	121924	keystroke_d	d	n/a
61.0515	0.075	122103	keystroke_u	u	n/a
61.2165	0.075	122433	keystroke_l	l	n/a
61.2615	0.075	122523	keystroke_e	e	n/a
61.4265	0.135	122853	keystroke_d	d	n/a
61.5165	0.135	123033	keystroke_Key.space	Key.space	n/a
61.6965	0.12	123393	keystroke_c	c	n/a
61.7865	0.135	123573	keystroke_h	h	n/a
61.8765	0.165	123753	keystroke_a	a	n/a
62.0115	0.1195	124023	keystroke_r	r	n/a
62.132	0.0745	124264	keystroke_l	l	n/a
62.3265	0.1055	124653	keystroke_o	o	n/a
62.446	0.06	124892	keystroke_t	t	n/a
62.566	0.105	125132	keystroke_t	t	n/a
62.716	0.1355	125432	keystroke_e	e	n/a
62.806	0.1805	125612	keystroke_Key.space	Key.space	n/a
62.9565	0.12	125913	keystroke_s	s	n/a
63.1215	0.135	126243	keystroke_a	a	n/a
63.1515	0.18	126303	keystroke_i	i	n/a
63.2415	0.091	126483	keystroke_l	l	n/a
63.4365	0.105	126873	keystroke_i	i	n/a
63.5115	0.1045	127023	keystroke_n	n	n/a
63.6015	0.1045	127203	keystroke_g	g	n/a
63.662	0.134	127324	keystroke_Key.space	Key.space	n/a
63.812	0.135	127624	keystroke_s	s	n/a
63.916	0.121	127832	keystroke_u	u	n/a
64.022	0.075	128044	keystroke_r	r	n/a
64.247	0.089	128494	keystroke_v	v	n/a
64.366	0.105	128732	keystroke_i	i	n/a
65.0115	0.09	130023	keystroke_v	v	n/a
65.3415	0.075	130683	keystroke_o	o	n/a
65.4465	0.06	130893	keystroke_r	r	n/a
66.181	0.075	132362	keystroke_Key.enter	Key.enter	n/a
66.262	8.2315	132524	prompt	n/a	parcel proof drug combines\n
66.946	0.076	133892	keystroke_p	p	n/a
66.962	0.029	133924	keystroke_o	o	n/a
67.006	0.195	134012	keystroke_a	a	n/a
67.081	0.105	134162	keystroke_r	r	n/a
67.9965	0.075	135993	keystroke_Key.backspace	Key.backspace	n/a
68.1615	0.0605	136323	keystroke_Key.backspace	Key.backspace	n/a
68.3265	0.105	136653	keystroke_Key.backspace	Key.backspace	n/a
68.8815	0.2245	137763	keystroke_a	a	n/a
69.0315	0.0755	138063	keystroke_r	r	n/a
69.226	0.15	138452	keystroke_c	c	n/a
69.331	0.12	138662	keystroke_e	e	n/a
69.466	0.0905	138932	keystroke_l	l	n/a
69.6015	0.105	139203	keystroke_Key.space	Key.space	n/a
69.9315	0.075	139863	keystroke_r	r	n/a
70.577	0.075	141154	keystroke_Key.backspace	Key.backspace	n/a
70.892	0.09	141784	keystroke_p	p	n/a
71.207	0.12	142414	keystroke_r	r	n/a
71.5215	0.12	143043	keystroke_o	o	n/a
71.8215	0.12	143643	keystroke_o	o	n/a
72.0015	0.1505	144003	keystroke_f	f	n/a
72.227	0.135	144454	keystroke_Key.space	Key.space	n/a
72.437	0.105	144874	keystroke_d	d	n/a
72.572	0.0895	145144	keystroke_r	r	n/a
72.6915	0.12	145383	keystroke_u	u	n/a
72.7965	0.12	145593	keystroke_g	g	n/a
72.8865	0.12	145773	keystroke_Key.space	Key.space	n/a
73.2015	0.105	146403	keystroke_c	c	n/a
73.2765	0.15	146553	keystroke_o	o	n/a
73.3515	0.105	146703	keystroke_m	m	n/a
73.591	0.091	147182	keystroke_b	b	n/a
73.727	0.12	147454	keystroke_i	i	n/a
73.786	0.121	147572	keystroke_n	n	n/a
73.861	0.136	147722	keystroke_e	e	n/a
73.936	0.15	147872	keystroke_s	s	n/a
74.3715	0.12	148743	keystroke_Key.enter	Key.enter	n/a
74.497	6.2815	148994	prompt	n/a	comp tries discovery additionally\n
75.557	0.135	151114	keystroke_c	c	n/a
75.632	0.135	151264	keystroke_o	o	n/a
75.722	0.105	151444	keystroke_m	m	n/a
75.8865	0.105	151773	keystroke_p	p	n/a
76.1115	0.1055	152223	keystroke_Key.space	Key.space	n/a
76.307	0.1345	152614	keystroke_t	t	n/a
76.3965	0.0905	152793	keystroke_r	r	n/a
76.5165	0.105	153033	keystroke_i	i	n/a
76.5915	0.18	153183	keystroke_e	e	n/a
76.682	0.1645	153364	keystroke_s	s	n/a
76.7565	0.195	153513	keystroke_Key.space	Key.space	n/a
76.9815	0.12	153963	keystroke_d	d	n/a
77.1025	0.149	154205	keystroke_i	i	n/a
77.2365	0.135	154473	keystroke_s	s	n/a
77.3265	0.165	154653	keystroke_c	c	n/a
77.4915	0.12	154983	keystroke_o	o	n/a
77.717	0.1045	155434	keystroke_v	v	n/a
77.8965	0.135	155793	keystroke_e	e	n/a
77.9715	0.105	155943	keystroke_r	r	n/a
78.2265	0.105	156453	keystroke_y	y	n/a
78.3015	0.135	156603	keystroke_Key.space	Key.space	n/a
78.4515	0.135	156903	keystroke_a	a	n/a
78.6915	0.105	157383	keystroke_d	d	n/a
78.8415	0.135	157683	keystroke_d	d	n/a
78.9915	0.075	157983	keystroke_i	i	n/a
79.1115	0.075	158223	keystroke_t	t	n/a
79.2015	0.18	158403	keystroke_i	i	n/a
79.2615	0.09	158523	keystroke_o	o	n/a
79.2915	0.15	158583	keystroke_n	n	n/a
79.4265	0.105	158853	keystroke_a	a	n/a
79.5465	0.09	159093	keystroke_l	l	n/a
79.7865	0.105	159573	keystroke_l	l	n/a
79.9815	0.09	159963	keystroke_y	y	n/a
80.1015	0.09	160203	keystroke_Key.space	Key.space	n/a
80.4915	0.0605	160983	keystroke_Key.backspace	Key.backspace	n/a
80.717	0.06	161434	keystroke_Key.enter	Key.enter	n/a
80.7815	6.3115	161563	prompt	n/a	conducting lions stack theorem\n
81.347	0.1195	162694	keystroke_c	c	n/a
81.407	0.0745	162814	keystroke_o	o	n/a
81.5415	0.12	163083	keystroke_n	n	n/a
81.6765	0.09	163353	keystroke_d	d	n/a
81.7665	0.1055	163533	keystroke_u	u	n/a
81.857	0.0895	163714	keystroke_c	c	n/a
82.0965	0.06	164193	keystroke_t	t	n/a
82.1415	0.1355	164283	keystroke_i	i	n/a
82.2015	0.1505	164403	keystroke_n	n	n/a
82.292	0.09	164584	keystroke_g	g	n/a
82.352	0.12	164704	keystroke_Key.space	Key.space	n/a
82.517	0.075	165034	keystroke_l	l	n/a
82.682	0.045	165364	keystroke_o	o	n/a
83.5965	0.0895	167193	keystroke_Key.backspace	Key.backspace	n/a
83.9115	0.255	167823	keystroke_i	i	n/a
84.0015	0.135	168003	keystroke_o	o	n/a
84.1215	0.1655	168243	keystroke_n	n	n/a
84.302	0.165	168604	keystroke_s	s	n/a
84.452	0.165	168904	keystroke_Key.space	Key.space	n/a
84.707	0.21	169414	keystroke_s	s	n/a
84.902	0.075	169804	keystroke_t	t	n/a
85.007	0.1795	170014	keystroke_a	a	n/a
85.1265	0.12	170253	keystroke_c	c	n/a
85.2165	0.1355	170433	keystroke_k	k	n/a
85.337	0.134	170674	keystroke_Key.space	Key.space	n/a
85.532	0.105	171064	keystroke_t	t	n/a
85.607	0.135	171214	keystroke_h	h	n/a
85.727	0.24	171454	keystroke_e	e	n/a
86.087	0.1345	172174	keystroke_o	o	n/a
86.5515	0.09	173103	keystroke_r	r	n/a
86.717	0.075	173434	keystroke_e	e	n/a
86.807	0.075	173614	keystroke_m	m	n/a
87.017	0.075	174034	keystroke_Key.enter	Key.enter	n/a
87.0965	6.826	174193	prompt	n/a	colleagues burning discussing behalf\n
87.7515	0.12	175503	keystroke_c	c	n/a
87.857	0.06	175714	keystroke_o	o	n/a
88.0065	0.0605	176013	keystroke_l	l	n/a
88.1415	0.105	176283	keystroke_l	l	n/a
88.2165	0.15	176433	keystroke_e	e	n/a
88.2915	0.135	176583	keystroke_a	a	n/a
88.5315	0.06	177063	keystroke_g	g	n/a
88.6215	0.105	177243	keystroke_u	u	n/a
88.6965	0.165	177393	keystroke_e	e	n/a
88.7715	0.15	177543	keystroke_s	s	n/a
88.8465	0.135	177693	keystroke_Key.space	Key.space	n/a
89.0265	0.075	178053	keystroke_b	b	n/a
89.1165	0.105	178233	keystroke_u	u	n/a
89.5965	0.105	179193	keystroke_r	r	n/a
89.7315	0.09	179463	keystroke_n	n	n/a
89.8815	0.105	179763	keystroke_i	i	n/a
89.9415	0.12	179883	keystroke_n	n	n/a
90.0465	0.12	180093	keystroke_g	g	n/a
90.1065	0.135	180213	keystroke_Key.space	Key.space	n/a
90.3465	0.12	180693	keystroke_d	d	n/a
90.5715	0.135	181143	keystroke_i	i	n/a
90.7065	0.135	181413	keystroke_s	s	n/a
90.9315	0.06	181863	keystroke_c	c	n/a
91.0815	0.135	182163	keystroke_u	u	n/a
91.2315	0.06	182463	keystroke_s	s	n/a
91.3515	0.12	182703	keystroke_s	s	n/a
91.4415	0.2105	182883	keystroke_i	i	n/a
91.5615	0.1655	183123	keystroke_n	n	n/a
91.697	0.12	183394	keystroke_g	g	n/a
91.862	0.12	183724	keystroke_Key.space	Key.space	n/a
92.387	0.135	184774	keystroke_b	b	n/a
92.507	0.075	185014	keystroke_e	e	n/a
92.612	0.135	185224	keystroke_h	h	n/a
92.732	0.105	185464	keystroke_a	a	n/a
92.852	0.12	185704	keystroke_l	l	n/a
93.452	0.135	186904	keystroke_f	f	n/a
93.812	0.105	187624	keystroke_Key.enter	Key.enter	n/a
93.9225	7.8855	187845	prompt	n/a	implementing graphical appreciated robbie\n
94.547	0.135	189094	keystroke_i	i	n/a
94.637	0.105	189274	keystroke_m	m	n/a
94.802	0.135	189604	keystroke_p	p	n/a
94.862	0.12	189724	keystroke_l	l	n/a
95.012	0.075	190024	keystroke_e	e	n/a
95.102	0.06	190204	keystroke_n	n	n/a
95.9715	0.09	191943	keystroke_Key.backspace	Key.backspace	n/a
96.437	0.15	192874	keystroke_m	m	n/a
96.632	0.09	193264	keystroke_e	e	n/a
96.722	0.105	193444	keystroke_n	n	n/a
96.857	0.075	193714	keystroke_t	t	n/a
96.947	0.09	193894	keystroke_i	i	n/a
96.977	0.1345	193954	keystroke_n	n	n/a
97.067	0.1045	194134	keystroke_g	g	n/a
97.1415	0.135	194283	keystroke_Key.space	Key.space	n/a
97.742	0.06	195484	keystroke_g	g	n/a
97.892	0.105	195784	keystroke_r	r	n/a
98.012	0.1195	196024	keystroke_a	a	n/a
98.1165	0.09	196233	keystroke_p	p	n/a
98.3265	0.09	196653	keystroke_h	h	n/a
98.4015	0.135	196803	keystroke_i	i	n/a
98.5365	0.105	197073	keystroke_c	c	n/a
98.5965	0.15	197193	keystroke_a	a	n/a
98.7015	0.105	197403	keystroke_l	l	n/a
98.8365	0.09	197673	keystroke_Key.space	Key.space	n/a
99.1965	0.1205	198393	keystroke_a	a	n/a
99.391	0.046	198782	keystroke_p	p	n/a
99.511	0.136	199022	keystroke_p	p	n/a
99.632	0.12	199264	keystroke_r	r	n/a
99.707	0.105	199414	keystroke_e	e	n/a
99.887	0.09	199774	keystroke_c	c	n/a
99.992	0.12	199984	keystroke_i	i	n/a
100.067	0.105	200134	keystroke_a	a	n/a
100.2465	0.105	200493	keystroke_t	t	n/a
100.3065	0.09	200613	keystroke_e	e	n/a
100.5165	0.12	201033	keystroke_d	d	n/a
100.6065	0.15	201213	keystroke_Key.space	Key.space	n/a
100.7715	0.09	201543	keystroke_r	r	n/a
100.8765	0.105	201753	keystroke_o	o	n/a
101.132	0.045	202264	keystroke_b	b	n/a
101.252	0.075	202504	keystroke_b	b	n/a
101.432	0.135	202864	keystroke_i	i	n/a
101.507	0.075	203014	keystroke_e	e	n/a
101.717	0.09	203434	keystroke_Key.enter	Key.enter	n/a
101.8115	6.327	203623	prompt	n/a	protest foul cancel autos\n
102.497	0.09	204994	keystroke_p	p	n/a
102.632	0.105	205264	keystroke_r	r	n/a
102.737	0.105	205474	keystroke_o	o	n/a
102.886	0.136	205772	keystroke_t	t	n/a
103.036	0.106	206072	keystroke_e	e	n/a
103.187	0.195	206374	keystroke_s	s	n/a
103.321	0.151	206642	keystroke_t	t	n/a
103.426	0.15	206852	keystroke_Key.space	Key.space	n/a
103.591	0.1655	207182	keystroke_f	f	n/a
103.6365	0.135	207273	keystroke_o	o	n/a
103.7415	0.09	207483	keystroke_u	u	n/a
103.8765	0.151	207753	keystroke_l	l	n/a
103.9665	0.135	207933	keystroke_d	d	n/a
104.0715	0.12	208143	keystroke_Key.space	Key.space	n/a
104.1765	0.091	208353	keystroke_c	c	n/a
104.2515	0.1205	208503	keystroke_a	a	n/a
104.297	0.135	208594	keystroke_n	n	n/a
104.417	0.135	208834	keystroke_c	c	n/a
105.002	0.045	210004	keystroke_Key.backspace	Key.backspace	n/a
105.137	0.045	210274	keystroke_Key.backspace	Key.backspace	n/a
105.272	0.06	210544	keystroke_Key.backspace	Key.backspace	n/a
105.407	0.09	210814	keystroke_Key.backspace	Key.backspace	n/a
105.557	0.09	211114	keystroke_Key.backspace	Key.backspace	n/a
105.737	0.06	211474	keystroke_Key.backspace	Key.backspace	n/a
105.887	0.12	211774	keystroke_Key.space	Key.space	n/a
106.097	0.12	212194	keystroke_c	c	n/a
106.172	0.165	212344	keystroke_a	a	n/a
106.232	0.12	212464	keystroke_n	n	n/a
106.397	0.135	212794	keystroke_c	c	n/a
106.667	0.06	213334	keystroke_e	e	n/a
106.772	0.09	213544	keystroke_l	l	n/a
106.907	0.12	213814	keystroke_Key.space	Key.space	n/a
107.132	0.12	214264	keystroke_a	a	n/a
107.297	0.12	214594	keystroke_u	u	n/a
107.462	0.09	214924	keystroke_t	t	n/a
107.582	0.075	215164	keystroke_o	o	n/a
107.702	0.105	215404	keystroke_s	s	n/a
108.062	0.075	216124	keystroke_Key.enter	Key.enter	n/a
108.1425	5.2155	216285	prompt	n/a	cylinder debut tries finland\n
108.977	0.15	217954	keystroke_c	c	n/a
109.052	0.075	218104	keystroke_y	y	n/a
109.232	0.06	218464	keystroke_l	l	n/a
109.427	0.12	218854	keystroke_i	i	n/a
109.487	0.135	218974	keystroke_n	n	n/a
109.637	0.09	219274	keystroke_d	d	n/a
109.802	0.135	219604	keystroke_e	e	n/a
109.862	0.135	219724	keystroke_r	r	n/a
109.952	0.105	219904	keystroke_Key.space	Key.space	n/a
110.102	0.075	220204	keystroke_d	d	n/a
110.237	0.135	220474	keystroke_e	e	n/a
110.357	0.075	220714	keystroke_b	b	n/a
110.492	0.135	220984	keystroke_u	u	n/a
110.612	0.12	221224	keystroke_t	t	n/a
110.702	0.135	221404	keystroke_Key.space	Key.space	n/a
110.882	0.135	221764	keystroke_t	t	n/a
110.957	0.105	221914	keystroke_r	r	n/a
111.077	0.105	222154	keystroke_i	i	n/a
111.167	0.18	222334	keystroke_e	e	n/a
111.257	0.165	222514	keystroke_s	s	n/a
111.362	0.135	222724	keystroke_Key.space	Key.space	n/a
111.527	0.15	223054	keystroke_f	f	n/a
111.617	0.12	223234	keystroke_i	i	n/a
111.677	0.195	223354	keystroke_n	n	n/a
112.367	0.12	224734	keystroke_l	l	n/a
112.442	0.135	224884	keystroke_a	a	n/a
112.562	0.09	225124	keystroke_n	n	n/a
112.667	0.075	225334	keystroke_d	d	n/a
113.252	0.105	226504	keystroke_Key.enter	Key.enter	n/a
113.3625	8.336	226725	prompt	n/a	substance accepts republican profile\n
114.047	0.105	228094	keystroke_s	s	n/a
114.152	0.105	228304	keystroke_u	u	n/a
114.287	0.105	228574	keystroke_b	b	n/a
114.407	0.15	228814	keystroke_s	s	n/a
114.542	0.09	229084	keystroke_t	t	n/a
114.662	0.15	229324	keystroke_a	a	n/a
114.767	0.09	229534	keystroke_n	n	n/a
114.827	0.165	229654	keystroke_c	c	n/a
114.902	0.135	229804	keystroke_e	e	n/a
115.007	0.15	230014	keystroke_Key.space	Key.space	n/a
115.112	0.105	230224	keystroke_a	a	n/a
115.337	0.045	230674	keystroke_c	c	n/a
115.442	0.105	230884	keystroke_c	c	n/a
115.652	0.09	231304	keystroke_e	e	n/a
115.787	0.105	231574	keystroke_p	p	n/a
115.907	0.12	231814	keystroke_t	t	n/a
116.012	0.195	232024	keystroke_s	s	n/a
116.147	0.18	232294	keystroke_Key.space	Key.space	n/a
116.297	0.135	232594	keystroke_r	r	n/a
116.357	0.135	232714	keystroke_e	e	n/a
116.852	0.075	233704	keystroke_p	p	n/a
117.1815	0.03	234363	keystroke_u	u	n/a
117.527	0.06	235054	keystroke_b	b	n/a
117.707	0.06	235414	keystroke_l	l	n/a
117.902	0.06	235804	keystroke_i	i	n/a
117.947	0.135	235894	keystroke_c	c	n/a
118.037	0.1495	236074	keystroke_a	a	n/a
118.172	0.06	236344	keystroke_l	l	n/a
118.292	0.1495	236584	keystroke_Key.space	Key.space	n/a
118.6365	0.06	237273	keystroke_p	p	n/a
119.027	0.03	238054	keystroke_Key.backspace	Key.backspace	n/a
119.192	0.045	238384	keystroke_Key.backspace	Key.backspace	n/a
119.372	0.075	238744	keystroke_Key.backspace	Key.backspace	n/a
120.152	0.105	240304	keystroke_n	n	n/a
120.302	0.12	240604	keystroke_Key.space	Key.space	n/a
120.617	0.09	241234	keystroke_p	p	n/a
120.707	0.075	241414	keystroke_r	r	n/a
120.797	0.09	241594	keystroke_o	o	n/a
120.902	0.105	241804	keystroke_f	f	n/a
121.157	0.21	242314	keystroke_i	i	n/a
121.262	0.135	242524	keystroke_l	l	n/a
121.367	0.075	242734	keystroke_e	e	n/a
121.6515	0.045	243303	keystroke_Key.enter	Key.enter	n/a
121.7015	4.6315	243403	prompt	n/a	brick queen reviewed track\n
122.492	0.09	244984	keystroke_b	b	n/a
122.582	0.075	245164	keystroke_r	r	n/a
122.642	0.0895	245284	keystroke_i	i	n/a
122.7765	0.0605	245553	keystroke_c	c	n/a
122.852	0.09	245704	keystroke_k	k	n/a
122.957	0.135	245914	keystroke_Key.space	Key.space	n/a
123.182	0.105	246364	keystroke_q	q	n/a
123.332	0.15	246664	keystroke_u	u	n/a
123.632	0.075	247264	keystroke_e	e	n/a
123.767	0.1055	247534	keystroke_e	e	n/a
123.8875	0.105	247775	keystroke_n	n	n/a
124.0225	0.12	248045	keystroke_Key.space	Key.space	n/a
124.2625	0.12	248525	keystroke_r	r	n/a
124.3375	0.105	248675	keystroke_e	e	n/a
124.5325	0.075	249065	keystroke_v	v	n/a
124.6225	0.134	249245	keystroke_i	i	n/a
124.7275	0.12	249455	keystroke_e	e	n/a
124.7875	0.105	249575	keystroke_w	w	n/a
125.0115	0.075	250023	keystroke_e	e	n/a
125.2065	0.105	250413	keystroke_d	d	n/a
125.3415	0.15	250683	keystroke_Key.space	Key.space	n/a
125.5525	0.119	251105	keystroke_t	t	n/a
125.6115	0.105	251223	keystroke_r	r	n/a
125.8065	0.18	251613	keystroke_a	a	n/a
125.9115	0.15	251823	keystroke_c	c	n/a
126.0165	0.105	252033	keystroke_k	k	n/a
126.272	0.06	252544	keystroke_Key.enter	Key.enter	n/a
126.3385	7.03	252677	prompt	n/a	expertise partly aged posts\n
126.947	0.06	253894	keystroke_e	e	n/a
127.142	0.075	254284	keystroke_x	x	n/a
127.247	0.1355	254494	keystroke_p	p	n/a
127.367	0.1505	254734	keystroke_e	e	n/a
127.4265	0.121	254853	keystroke_r	r	n/a
127.6525	0.075	255305	keystroke_t	t	n/a
127.7575	0.135	255515	keystroke_i	i	n/a
127.8775	0.15	255755	keystroke_s	s	n/a
128.0125	0.1795	256025	keystroke_e	e	n/a
128.252	0.105	256504	keystroke_Key.space	Key.space	n/a
128.402	0.105	256804	keystroke_p	p	n/a
128.492	0.165	256984	keystroke_a	a	n/a
128.567	0.105	257134	keystroke_r	r	n/a
128.762	0.075	257524	keystroke_t	t	n/a
128.912	0.09	257824	keystroke_l	l	n/a
128.987	0.09	257974	keystroke_y	y	n/a
129.122	0.09	258244	keystroke_Key.space	Key.space	n/a
129.587	0.0755	259174	keystroke_a	a	n/a
129.7675	0.089	259535	keystroke_g	g	n/a
129.9175	0.09	259835	keystroke_e	e	n/a
130.112	0.135	260224	keystroke_d	d	n/a
130.202	0.105	260404	keystroke_Key.space	Key.space	n/a
130.352	0.06	260704	keystroke_p	p	n/a
130.4565	0.105	260913	keystroke_s	s	n/a
130.5165	0.12	261033	keystroke_o	o	n/a
130.6665	0.165	261333	keystroke_s	s	n/a
130.7715	0.135	261543	keystroke_t	t	n/a
131.087	0.03	262174	keystroke_Key.backspace	Key.backspace	n/a
131.207	0.075	262414	keystroke_Key.backspace	Key.backspace	n/a
131.372	0.0455	262744	keystroke_Key.backspace	Key.backspace	n/a
131.4925	0.059	262985	keystroke_Key.backspace	Key.backspace	n/a
132.1515	0.136	264303	keystroke_o	o	n/a
132.2725	0.135	264545	keystroke_s	s	n/a
132.4075	0.104	264815	keystroke_t	t	n/a
132.4815	0.15	264963	keystroke_s	s	n/a
133.247	0.12	266494	keystroke_Key.enter	Key.enter	n/a
133.3735	6.0105	266747	prompt	n/a	fate graduate prisoners script\n
134.4015	0.15	268803	keystroke_f	f	n/a
134.5365	0.165	269073	keystroke_a	a	n/a
134.657	0.1795	269314	keystroke_t	t	n/a
134.7925	0.104	269585	keystroke_e	e	n/a
134.8515	0.121	269703	keystroke_Key.space	Key.space	n/a
135.3315	0.091	270663	keystroke_g	g	n/a
135.4965	0.121	270993	keystroke_r	r	n/a
135.6025	0.165	271205	keystroke_a	a	n/a
135.7065	0.106	271413	keystroke_d	d	n/a
135.8275	0.119	271655	keystroke_u	u	n/a
135.8875	0.09	271775	keystroke_a	a	n/a
136.0675	0.12	272135	keystroke_t	t	n/a
136.1275	0.12	272255	keystroke_e	e	n/a
136.2165	0.135	272433	keystroke_Key.space	Key.space	n/a
137.2075	0.075	274415	keystroke_p	p	n/a
137.2975	0.09	274595	keystroke_r	r	n/a
137.4025	0.075	274805	keystroke_i	i	n/a
137.4925	0.075	274985	keystroke_s	s	n/a
137.5825	0.06	275165	keystroke_o	o	n/a
137.6875	0.12	275375	keystroke_n	n	n/a
137.8225	0.135	275645	keystroke_e	e	n/a
137.8975	0.165	275795	keystroke_r	r	n/a
138.0325	0.135	276065	keystroke_s	s	n/a
138.1225	0.1495	276245	keystroke_Key.space	Key.space	n/a
138.287	0.15	276574	keystroke_s	s	n/a
138.362	0.12	276724	keystroke_c	c	n/a
138.587	0.075	277174	keystroke_r	r	n/a
138.677	0.075	277354	keystroke_i	i	n/a
138.902	0.09	277804	keystroke_p	p	n/a
139.007	0.09	278014	keystroke_t	t	n/a
139.277	0.105	278554	keystroke_Key.enter	Key.enter	n/a
139.388	9.3705	278776	prompt	n/a	promo explicit chan longest\n
140.0265	0.0755	280053	keystroke_p	p	n/a
140.132	0.09	280264	keystroke_r	r	n/a
140.207	0.105	280414	keystroke_o	o	n/a
140.267	0.09	280534	keystroke_m	m	n/a
140.417	0.09	280834	keystroke_o	o	n/a
140.522	0.06	281044	keystroke_r	r	n/a
140.897	0.06	281794	keystroke_Key.backspace	Key.backspace	n/a
141.227	0.105	282454	keystroke_Key.space	Key.space	n/a
141.452	0.075	282904	keystroke_e	e	n/a
141.662	0.09	283324	keystroke_x	x	n/a
141.737	0.105	283474	keystroke_p	p	n/a
141.797	0.135	283594	keystroke_l	l	n/a
141.872	0.15	283744	keystroke_e	e	n/a
141.977	0.15	283954	keystroke_c	c	n/a
142.142	0.0595	284284	keystroke_i	i	n/a
142.3075	0.1645	284615	keystroke_t	t	n/a
142.637	0.075	285274	keystroke_y	y	n/a
143.042	0.045	286084	keystroke_Key.backspace	Key.backspace	n/a
143.237	0.09	286474	keystroke_Key.space	Key.space	n/a
143.4475	0.075	286895	keystroke_c	c	n/a
143.5075	0.09	287015	keystroke_h	h	n/a
143.5815	0.12	287163	keystroke_a	a	n/a
143.7165	0.045	287433	keystroke_n	n	n/a
143.957	0.03	287914	keystroke_Key.backspace	Key.backspace	n/a
144.107	0.045	288214	keystroke_Key.backspace	Key.backspace	n/a
144.257	0.045	288514	keystroke_Key.backspace	Key.backspace	n/a
144.392	0.06	288784	keystroke_Key.backspace	Key.backspace	n/a
144.542	0.045	289084	keystroke_Key.backspace	Key.backspace	n/a
144.692	0.045	289384	keystroke_Key.backspace	Key.backspace	n/a
144.827	0.09	289654	keystroke_Key.backspace	Key.backspace	n/a
145.0815	0.105	290163	keystroke_Key.backspace	Key.backspace	n/a
145.607	0.075	291214	keystroke_Key.backspace	Key.backspace	n/a
146.372	0.06	292744	keystroke_i	i	n/a
146.477	0.105	292954	keystroke_c	c	n/a
146.567	0.09	293134	keystroke_i	i	n/a
146.7625	0.074	293525	keystroke_t	t	n/a
147.0475	0.074	294095	keystroke_Key.space	Key.space	n/a
147.2575	0.06	294515	keystroke_c	c	n/a
147.3015	0.076	294603	keystroke_h	h	n/a
147.3915	0.121	294783	keystroke_a	a	n/a
147.4815	0.121	294963	keystroke_n	n	n/a
147.6615	0.075	295323	keystroke_Key.space	Key.space	n/a
147.7225	0.06	295445	keystroke_l	l	n/a
147.8725	0.045	295745	keystroke_o	o	n/a
147.9915	0.1205	295983	keystroke_n	n	n/a
148.082	0.075	296164	keystroke_g	g	n/a
148.217	0.24	296434	keystroke_e	e	n/a
148.337	0.18	296674	keystroke_s	s	n/a
148.397	0.15	296794	keystroke_t	t	n/a
148.697	0.06	297394	keystroke_Key.enter	Key.enter	n/a
148.7625	3.806	297525	prompt	n/a	bearing performed warning she\n
149.4175	0.105	298835	keystroke_b	b	n/a
149.5075	0.135	299015	keystroke_e	e	n/a
149.5525	0.18	299105	keystroke_a	a	n/a
149.6875	0.15	299375	keystroke_r	r	n/a
149.8525	0.105	299705	keystroke_i	i	n/a
149.8975	0.135	299795	keystroke_n	n	n/a
150.0175	0.12	300035	keystroke_g	g	n/a
150.1075	0.12	300215	keystroke_Key.space	Key.space	n/a
150.3025	0.09	300605	keystroke_p	p	n/a
150.3475	0.12	300695	keystroke_e	e	n/a
150.4075	0.075	300815	keystroke_r	r	n/a
150.632	0.03	301264	keystroke_f	f	n/a
150.647	0.075	301294	keystroke_o	o	n/a
150.752	0.105	301504	keystroke_r	r	n/a
150.857	0.105	301714	keystroke_m	m	n/a
150.947	0.075	301894	keystroke_e	e	n/a
151.112	0.135	302224	keystroke_d	d	n/a
151.232	0.12	302464	keystroke_Key.space	Key.space	n/a
151.367	0.15	302734	keystroke_w	w	n/a
151.457	0.165	302914	keystroke_a	a	n/a
151.592	0.12	303184	keystroke_r	r	n/a
151.727	0.075	303454	keystroke_n	n	n/a
151.847	0.105	303694	keystroke_i	i	n/a
151.922	0.105	303844	keystroke_n	n	n/a
151.967	0.105	303934	keystroke_g	g	n/a
152.042	0.105	304084	keystroke_Key.space	Key.space	n/a
152.162	0.12	304324	keystroke_s	s	n/a
152.252	0.105	304504	keystroke_h	h	n/a
152.357	0.06	304714	keystroke_e	e	n/a
152.492	0.075	304984	keystroke_Key.enter	Key.enter	n/a
152.572	3.943	305144	prompt	n/a	gore sold magnitude hopes\n
153.2425	0.075	306485	keystroke_g	g	n/a
153.3325	0.09	306665	keystroke_o	o	n/a
153.4375	0.12	306875	keystroke_r	r	n/a
153.4975	0.135	306995	keystroke_e	e	n/a
153.6475	0.165	307295	keystroke_Key.space	Key.space	n/a
153.8575	0.135	307715	keystroke_s	s	n/a
153.9625	0.06	307925	keystroke_o	o	n/a
154.1125	0.105	308225	keystroke_l	l	n/a
154.2025	0.15	308405	keystroke_d	d	n/a
154.3075	0.104	308615	keystroke_Key.space	Key.space	n/a
154.4275	0.12	308855	keystroke_m	m	n/a
154.5025	0.089	309005	keystroke_a	a	n/a
154.6815	0.105	309363	keystroke_g	g	n/a
154.7565	0.121	309513	keystroke_n	n	n/a
154.8925	0.074	309785	keystroke_i	i	n/a
154.9515	0.105	309903	keystroke_t	t	n/a
155.1915	0.105	310383	keystroke_u	u	n/a
155.3415	0.076	310683	keystroke_d	d	n/a
155.5075	0.1045	311015	keystroke_e	e	n/a
155.597	0.105	311194	keystroke_Key.space	Key.space	n/a
155.897	0.06	311794	keystroke_h	h	n/a
156.032	0.1805	312064	keystroke_o	o	n/a
156.107	0.0905	312214	keystroke_p	p	n/a
156.182	0.1805	312364	keystroke_e	e	n/a
156.2725	0.135	312545	keystroke_s	s	n/a
156.4675	0.045	312935	keystroke_Key.enter	Key.enter	n/a
156.541	6.933	313082	prompt	n/a	paste graphs hospitals consists\n
157.187	0.1055	314374	keystroke_p	p	n/a
157.2625	0.195	314525	keystroke_a	a	n/a
157.3225	0.12	314645	keystroke_s	s	n/a
157.5475	0.135	315095	keystroke_t	t	n/a
157.6225	0.12	315245	keystroke_e	e	n/a
157.7125	0.135	315425	keystroke_Key.space	Key.space	n/a
158.0875	0.075	316175	keystroke_g	g	n/a
158.2825	0.075	316565	keystroke_r	r	n/a
158.402	0.135	316804	keystroke_a	a	n/a
158.552	0.09	317104	keystroke_p	p	n/a
158.762	0.105	317524	keystroke_h	h	n/a
158.912	0.1505	317824	keystroke_s	s	n/a
159.0325	0.135	318065	keystroke_Key.space	Key.space	n/a
159.2575	0.075	318515	keystroke_h	h	n/a
159.4075	0.105	318815	keystroke_o	o	n/a
159.5275	0.1345	319055	keystroke_s	s	n/a
159.677	0.06	319354	keystroke_p	p	n/a
159.872	0.06	319744	keystroke_i	i	n/a
160.097	0.075	320194	keystroke_a	a	n/a
160.5025	0.045	321005	keystroke_Key.backspace	Key.backspace	n/a
160.6375	0.12	321275	keystroke_t	t	n/a
160.7125	0.12	321425	keystroke_a	a	n/a
160.8175	0.09	321635	keystroke_l	l	n/a
160.9525	0.165	321905	keystroke_s	s	n/a
161.1025	0.09	322205	keystroke_Key.space	Key.space	n/a
161.3125	0.075	322625	keystroke_o	o	n/a
161.7925	0.06	323585	keystroke_Key.backspace	Key.backspace	n/a
162.0475	0.12	324095	keystroke_c	c	n/a
162.1375	0.075	324275	keystroke_o	o	n/a
162.2725	0.105	324545	keystroke_n	n	n/a
162.3925	0.09	324785	keystroke_s	s	n/a
162.4975	0.09	324995	keystroke_i	i	n/a
162.5725	0.105	325145	keystroke_s	s	n/a
162.767	0.105	325534	keystroke_t	t	n/a
162.857	0.105	325714	keystroke_s	s	n/a
163.352	0.12	326704	keystroke_Key.enter	Key.enter	n/a
163.4785	12.1605	326957	prompt	n/a	doll literary television tender\n
165.048	0.134	330096	keystroke_d	d	n/a
165.137	0.075	330274	keystroke_o	o	n/a
165.287	0.075	330574	keystroke_l	l	n/a
165.437	0.075	330874	keystroke_l	l	n/a
167.477	0.045	334954	keystroke_l	l	n/a
167.627	0.135	335254	keystroke_i	i	n/a
167.717	0.09	335434	keystroke_t	t	n/a
167.837	0.12	335674	keystroke_e	e	n/a
167.897	0.12	335794	keystroke_r	r	n/a
168.092	0.225	336184	keystroke_a	a	n/a
168.242	0.105	336484	keystroke_r	r	n/a
168.467	0.105	336934	keystroke_y	y	n/a
168.542	0.09	337084	keystroke_Key.space	Key.space	n/a
168.737	0.12	337474	keystroke_t	t	n/a
168.872	0.09	337744	keystroke_e	e	n/a
168.977	0.075	337954	keystroke_l	l	n/a
169.397	0.105	338794	keystroke_Key.backspace	Key.backspace	n/a
169.607	0.03	339214	keystroke_Key.backspace	Key.backspace	n/a
169.742	0.045	339484	keystroke_Key.backspace	Key.backspace	n/a
169.907	0.03	339814	keystroke_Key.backspace	Key.backspace	n/a
170.042	0.045	340084	keystroke_Key.backspace	Key.backspace	n/a
170.192	0.045	340384	keystroke_Key.backspace	Key.backspace	n/a
170.357	0.03	340714	keystroke_Key.backspace	Key.backspace	n/a
170.522	0.045	341044	keystroke_Key.backspace	Key.backspace	n/a
170.702	0.0455	341404	keystroke_Key.backspace	Key.backspace	n/a
170.867	0.06	341734	keystroke_Key.backspace	Key.backspace	n/a
171.258	0.0595	342516	keystroke_Key.backspace	Key.backspace	n/a
171.707	0.045	343414	keystroke_Key.backspace	Key.backspace	n/a
172.052	0.12	344104	keystroke_Key.space	Key.space	n/a
172.3225	0.045	344645	keystroke_l	l	n/a
172.4725	0.135	344945	keystroke_i	i	n/a
172.5775	0.09	345155	keystroke_t	t	n/a
172.7275	0.12	345455	keystroke_e	e	n/a
172.7875	0.12	345575	keystroke_r	r	n/a
172.9375	0.195	345875	keystroke_a	a	n/a
173.0575	0.105	346115	keystroke_r	r	n/a
173.2975	0.09	346595	keystroke_y	y	n/a
173.3425	0.105	346685	keystroke_Key.space	Key.space	n/a
173.5525	0.105	347105	keystroke_t	t	n/a
173.6725	0.105	347345	keystroke_e	e	n/a
173.8075	0.09	347615	keystroke_l	l	n/a
173.8675	0.105	347735	keystroke_e	e	n/a
174.0925	0.12	348185	keystroke_v	v	n/a
174.2575	0.075	348515	keystroke_i	i	n/a
174.3475	0.105	348695	keystroke_s	s	n/a
174.4225	0.18	348845	keystroke_i	i	n/a
174.4675	0.09	348935	keystroke_o	o	n/a
174.5425	0.135	349085	keystroke_n	n	n/a
174.6625	0.09	349325	keystroke_Key.space	Key.space	n/a
174.8725	0.105	349745	keystroke_t	t	n/a
174.9625	0.075	349925	keystroke_e	e	n/a
175.067	0.1205	350134	keystroke_n	n	n/a
175.1725	0.0595	350345	keystroke_d	d	n/a
175.307	0.12	350614	keystroke_e	e	n/a
175.3675	0.135	350735	keystroke_r	r	n/a
175.5475	0.09	351095	keystroke_Key.enter	Key.enter	n/a
175.6445	5.9045	351289	prompt	n/a	conference bald directive corresponding\n
176.283	0.105	352566	keystroke_c	c	n/a
176.313	0.09	352626	keystroke_o	o	n/a
176.463	0.15	352926	keystroke_n	n	n/a
176.8525	0.12	353705	keystroke_f	f	n/a
177.0175	0.1355	354035	keystroke_e	e	n/a
177.107	0.1505	354214	keystroke_r	r	n/a
177.2275	0.1345	354455	keystroke_e	e	n/a
177.422	0.12	354844	keystroke_n	n	n/a
177.497	0.1505	354994	keystroke_c	c	n/a
177.5725	0.15	355145	keystroke_e	e	n/a
177.7375	0.15	355475	keystroke_Key.space	Key.space	n/a
177.9325	0.105	355865	keystroke_b	b	n/a
178.0075	0.1195	356015	keystroke_a	a	n/a
178.112	0.105	356224	keystroke_l	l	n/a
178.232	0.12	356464	keystroke_d	d	n/a
178.322	0.135	356644	keystroke_Key.space	Key.space	n/a
178.472	0.135	356944	keystroke_d	d	n/a
178.577	0.15	357154	keystroke_i	i	n/a
178.697	0.12	357394	keystroke_r	r	n/a
178.802	0.105	357604	keystroke_e	e	n/a
178.937	0.09	357874	keystroke_c	c	n/a
179.1475	0.09	358295	keystroke_t	t	n/a
179.2825	0.135	358565	keystroke_i	i	n/a
179.3875	0.105	358775	keystroke_v	v	n/a
179.5075	0.12	359015	keystroke_e	e	n/a
179.5975	0.135	359195	keystroke_Key.space	Key.space	n/a
179.9425	0.12	359885	keystroke_c	c	n/a
180.0775	0.09	360155	keystroke_o	o	n/a
180.2125	0.044	360425	keystroke_r	r	n/a
180.3325	0.1195	360665	keystroke_r	r	n/a
180.467	0.12	360934	keystroke_e	e	n/a
180.557	0.135	361114	keystroke_s	s	n/a
180.677	0.076	361354	keystroke_p	p	n/a
180.827	0.091	361654	keystroke_o	o	n/a
180.978	0.1045	361956	keystroke_n	n	n/a
181.0975	0.09	362195	keystroke_d	d	n/a
181.2025	0.105	362405	keystroke_i	i	n/a
181.2475	0.105	362495	keystroke_n	n	n/a
181.3225	0.075	362645	keystroke_g	g	n/a
181.4575	0.09	362915	keystroke_Key.enter	Key.enter	n/a
181.552	5.4415	363104	prompt	n/a	gotta inline subject blvd\n
182.192	0.105	364384	keystroke_g	g	n/a
182.282	0.09	364564	keystroke_o	o	n/a
182.387	0.045	364774	keystroke_t	t	n/a
182.492	0.09	364984	keystroke_t	t	n/a
182.672	0.12	365344	keystroke_a	a	n/a
182.747	0.12	365494	keystroke_Key.space	Key.space	n/a
182.882	0.12	365764	keystroke_i	i	n/a
182.957	0.075	365914	keystroke_n	n	n/a
183.092	0.075	366184	keystroke_l	l	n/a
183.272	0.15	366544	keystroke_i	i	n/a
183.362	0.105	366724	keystroke_n	n	n/a
183.482	0.135	366964	keystroke_e	e	n/a
183.587	0.12	367174	keystroke_Key.space	Key.space	n/a
184.577	0.15	369154	keystroke_s	s	n/a
184.682	0.105	369364	keystroke_u	u	n/a
184.892	0.075	369784	keystroke_b	b	n/a
185.102	0.105	370204	keystroke_j	j	n/a
185.237	0.15	370474	keystroke_e	e	n/a
185.327	0.105	370654	keystroke_c	c	n/a
185.552	0.105	371104	keystroke_t	t	n/a
185.612	0.105	371224	keystroke_Key.space	Key.space	n/a
185.777	0.105	371554	keystroke_b	b	n/a
185.912	0.105	371824	keystroke_l	l	n/a
186.152	0.105	372304	keystroke_v	v	n/a
186.407	0.105	372814	keystroke_d	d	n/a
186.887	0.105	373774	keystroke_Key.enter	Key.enter	n/a
186.9975	7.287	373995	prompt	n/a	containing girlfriend clip oughtn't\n
187.6975	0.135	375395	keystroke_c	c	n/a
187.8025	0.105	375605	keystroke_o	o	n/a
187.8925	0.165	375785	keystroke_n	n	n/a
188.252	0.09	376504	keystroke_t	t	n/a
188.447	0.075	376894	keystroke_a	a	n/a
188.523	0.104	377046	keystroke_i	i	n/a
188.582	0.09	377164	keystroke_n	n	n/a
188.747	0.09	377494	keystroke_i	i	n/a
188.792	0.12	377584	keystroke_n	n	n/a
188.897	0.12	377794	keystroke_g	g	n/a
188.957	0.135	377914	keystroke_Key.space	Key.space	n/a
189.557	0.09	379114	keystroke_g	g	n/a
189.648	0.089	379296	keystroke_i	i	n/a
189.722	0.09	379444	keystroke_r	r	n/a
189.842	0.135	379684	keystroke_l	l	n/a
189.947	0.1195	379894	keystroke_f	f	n/a
190.832	0.045	381664	keystroke_r	r	n/a
190.892	0.061	381784	keystroke_i	i	n/a
190.967	0.06	381934	keystroke_e	e	n/a
191.042	0.12	382084	keystroke_n	n	n/a
191.178	0.089	382356	keystroke_d	d	n/a
191.402	0.075	382804	keystroke_Key.space	Key.space	n/a
191.972	0.105	383944	keystroke_c	c	n/a
192.062	0.06	384124	keystroke_l	l	n/a
192.197	0.075	384394	keystroke_i	i	n/a
192.407	0.075	384814	keystroke_p	p	n/a
192.587	0.15	385174	keystroke_Key.space	Key.space	n/a
192.722	0.195	385444	keystroke_o	o	n/a
192.827	0.12	385654	keystroke_u	u	n/a
193.022	0.105	386044	keystroke_g	g	n/a
193.082	0.12	386164	keystroke_h	h	n/a
193.217	0.0905	386434	keystroke_t	t	n/a
193.4875	0.135	386975	keystroke_n	n	n/a
193.8775	0.12	387755	keystroke_'	'	n/a
194.0125	0.09	388025	keystroke_t	t	n/a
194.1925	0.09	388385	keystroke_Key.enter	Key.enter	n/a
194.287	3.597	388574	prompt	n/a	allows strip material that\n
194.852	0.135	389704	keystroke_a	a	n/a
194.972	0.045	389944	keystroke_l	l	n/a
195.093	0.089	390186	keystroke_l	l	n/a
195.257	0.105	390514	keystroke_o	o	n/a
195.317	0.06	390634	keystroke_w	w	n/a
195.482	0.12	390964	keystroke_s	s	n/a
195.587	0.135	391174	keystroke_Key.space	Key.space	n/a
195.782	0.12	391564	keystroke_s	s	n/a
195.947	0.135	391894	keystroke_t	t	n/a
196.022	0.106	392044	keystroke_r	r	n/a
196.097	0.0905	392194	keystroke_i	i	n/a
196.3075	0.09	392615	keystroke_p	p	n/a
196.4275	0.1045	392855	keystroke_Key.space	Key.space	n/a
196.562	0.135	393124	keystroke_m	m	n/a
196.622	0.09	393244	keystroke_a	a	n/a
196.772	0.075	393544	keystroke_t	t	n/a
196.892	0.105	393784	keystroke_e	e	n/a
196.952	0.0905	393904	keystroke_r	r	n/a
197.0725	0.09	394145	keystroke_i	i	n/a
197.1775	0.105	394355	keystroke_a	a	n/a
197.2675	0.1195	394535	keystroke_l	l	n/a
197.372	0.075	394744	keystroke_Key.space	Key.space	n/a
197.462	0.076	394924	keystroke_t	t	n/a
197.523	0.105	395046	keystroke_h	h	n/a
197.612	0.12	395224	keystroke_a	a	n/a
197.672	0.12	395344	keystroke_t	t	n/a
197.822	0.06	395644	keystroke_Key.enter	Key.enter	n/a
197.8895	8.9495	395779	prompt	n/a	coming humanitarian desert highland\n
198.512	0.105	397024	keystroke_c	c	n/a
198.602	0.09	397204	keystroke_o	o	n/a
198.677	0.061	397354	keystroke_m	m	n/a
198.812	0.105	397624	keystroke_i	i	n/a
198.872	0.105	397744	keystroke_n	n	n/a
198.932	0.105	397864	keystroke_g	g	n/a
199.007	0.105	398014	keystroke_Key.space	Key.space	n/a
199.127	0.105	398254	keystroke_h	h	n/a
199.262	0.09	398524	keystroke_u	u	n/a
199.457	0.075	398914	keystroke_m	m	n/a
199.562	0.105	399124	keystroke_a	a	n/a
199.637	0.045	399274	keystroke_n	n	n/a
199.757	0.12	399514	keystroke_i	i	n/a
199.862	0.09	399724	keystroke_t	t	n/a
200.027	0.1655	400054	keystroke_a	a	n/a
200.1325	0.09	400265	keystroke_t	t	n/a
200.3575	0.09	400715	keystroke_r	r	n/a
200.5825	0.09	401165	keystroke_i	i	n/a
200.7175	0.105	401435	keystroke_a	a	n/a
200.8375	0.09	401675	keystroke_n	n	n/a
200.9575	0.12	401915	keystroke_Key.space	Key.space	n/a
201.602	0.09	403204	keystroke_Key.backspace	Key.backspace	n/a
202.277	0.075	404554	keystroke_Key.backspace	Key.backspace	n/a
202.457	0.06	404914	keystroke_Key.backspace	Key.backspace	n/a
202.622	0.045	405244	keystroke_Key.backspace	Key.backspace	n/a
202.982	0.105	405964	keystroke_Key.backspace	Key.backspace	n/a
203.4775	0.075	406955	keystroke_Key.backspace	Key.backspace	n/a
203.987	0.075	407974	keystroke_r	r	n/a
204.122	0.075	408244	keystroke_i	i	n/a
204.227	0.105	408454	keystroke_a	a	n/a
204.347	0.105	408694	keystroke_n	n	n/a
204.602	0.09	409204	keystroke_Key.space	Key.space	n/a
205.007	0.0605	410014	keystroke_d	d	n/a
205.187	0.1055	410374	keystroke_e	e	n/a
205.2475	0.1495	410495	keystroke_s	s	n/a
205.427	0.15	410854	keystroke_e	e	n/a
205.517	0.1205	411034	keystroke_r	r	n/a
205.712	0.12	411424	keystroke_t	t	n/a
205.802	0.105	411604	keystroke_Key.space	Key.space	n/a
205.967	0.12	411934	keystroke_h	h	n/a
206.042	0.09	412084	keystroke_i	i	n/a
206.1475	0.12	412295	keystroke_g	g	n/a
206.207	0.121	412414	keystroke_h	h	n/a
206.372	0.09	412744	keystroke_l	l	n/a
206.477	0.105	412954	keystroke_a	a	n/a
206.568	0.0745	413136	keystroke_n	n	n/a
206.6875	0.0595	413375	keystroke_d	d	n/a
206.762	0.075	413524	keystroke_Key.enter	Key.enter	n/a
206.844	4.78	413688	prompt	n/a	trades affecting cars albany\n
207.512	0.135	415024	keystroke_t	t	n/a
207.602	0.105	415204	keystroke_r	r	n/a
207.7975	0.1945	415595	keystroke_a	a	n/a
207.977	0.135	415954	keystroke_d	d	n/a
208.2475	0.165	416495	keystroke_e	e	n/a
208.3225	0.165	416645	keystroke_s	s	n/a
208.4575	0.135	416915	keystroke_Key.space	Key.space	n/a
208.6075	0.105	417215	keystroke_a	a	n/a
208.7875	0.075	417575	keystroke_f	f	n/a
208.9225	0.135	417845	keystroke_f	f	n/a
209.0425	0.18	418085	keystroke_e	e	n/a
209.1475	0.09	418295	keystroke_c	c	n/a
209.3875	0.06	418775	keystroke_t	t	n/a
209.4775	0.105	418955	keystroke_i	i	n/a
209.5375	0.15	419075	keystroke_n	n	n/a
209.5975	0.105	419195	keystroke_g	g	n/a
209.6725	0.12	419345	keystroke_Key.space	Key.space	n/a
209.8375	0.1195	419675	keystroke_c	c	n/a
209.927	0.135	419854	keystroke_a	a	n/a
210.107	0.15	420214	keystroke_r	r	n/a
210.227	0.135	420454	keystroke_s	s	n/a
210.347	0.135	420694	keystroke_Key.space	Key.space	n/a
210.497	0.12	420994	keystroke_a	a	n/a
210.587	0.0755	421174	keystroke_l	l	n/a
210.7675	0.09	421535	keystroke_b	b	n/a
210.8725	0.165	421745	keystroke_a	a	n/a
210.9775	0.105	421955	keystroke_n	n	n/a
211.382	0.12	422764	keystroke_y	y	n/a
211.577	0.045	423154	keystroke_Key.enter	Key.enter	n/a
211.628	6.011	423256	prompt	n/a	monthly stranger experts cologne\n
212.9875	0.09	425975	keystroke_m	m	n/a
213.1525	0.045	426305	keystroke_o	o	n/a
213.2425	0.12	426485	keystroke_n	n	n/a
213.392	0.121	426784	keystroke_t	t	n/a
213.692	0.105	427384	keystroke_h	h	n/a
213.917	0.09	427834	keystroke_l	l	n/a
214.037	0.12	428074	keystroke_y	y	n/a
214.172	0.15	428344	keystroke_Key.space	Key.space	n/a
214.382	0.12	428764	keystroke_s	s	n/a
214.517	0.165	429034	keystroke_t	t	n/a
214.592	0.15	429184	keystroke_r	r	n/a
214.727	0.15	429454	keystroke_a	a	n/a
214.907	0.135	429814	keystroke_n	n	n/a
214.997	0.075	429994	keystroke_g	g	n/a
215.162	0.105	430324	keystroke_e	e	n/a
215.207	0.12	430414	keystroke_r	r	n/a
215.252	0.135	430504	keystroke_Key.space	Key.space	n/a
215.417	0.09	430834	keystroke_e	e	n/a
215.642	0.09	431284	keystroke_x	x	n/a
215.777	0.105	431554	keystroke_p	p	n/a
215.957	0.15	431914	keystroke_e	e	n/a
216.017	0.121	432034	keystroke_r	r	n/a
216.242	0.09	432484	keystroke_t	t	n/a
216.407	0.12	432814	keystroke_s	s	n/a
216.482	0.135	432964	keystroke_Key.space	Key.space	n/a
216.677	0.15	433354	keystroke_c	c	n/a
216.797	0.045	433594	keystroke_o	o	n/a
216.9175	0.06	433835	keystroke_l	l	n/a
217.0675	0.105	434135	keystroke_o	o	n/a
217.1875	0.075	434375	keystroke_g	g	n/a
217.3225	0.105	434645	keystroke_n	n	n/a
217.4425	0.06	434885	keystroke_e	e	n/a
217.5475	0.09	435095	keystroke_Key.enter	Key.enter	n/a
217.6425	5.547	435285	prompt	n/a	laundry willing regulations indicator\n
218.2375	0.075	436475	keystroke_l	l	n/a
218.3125	0.15	436625	keystroke_a	a	n/a
218.4475	0.105	436895	keystroke_u	u	n/a
218.5525	0.135	437105	keystroke_n	n	n/a
218.6575	0.09	437315	keystroke_d	d	n/a
218.8375	0.105	437675	keystroke_r	r	n/a
219.0625	0.09	438125	keystroke_y	y	n/a
219.1225	0.12	438245	keystroke_Key.space	Key.space	n/a
219.3025	0.09	438605	keystroke_w	w	n/a
219.3475	0.09	438695	keystroke_i	i	n/a
219.5275	0.0595	439055	keystroke_l	l	n/a
219.647	0.105	439294	keystroke_l	l	n/a
219.842	0.105	439684	keystroke_i	i	n/a
219.887	0.135	439774	keystroke_n	n	n/a
219.962	0.12	439924	keystroke_g	g	n/a
220.037	0.135	440074	keystroke_Key.space	Key.space	n/a
220.307	0.12	440614	keystroke_r	r	n/a
220.382	0.09	440764	keystroke_e	e	n/a
220.547	0.12	441094	keystroke_g	g	n/a
220.652	0.06	441304	keystroke_u	u	n/a
220.832	0.075	441664	keystroke_l	l	n/a
220.877	0.136	441754	keystroke_a	a	n/a
220.953	0.135	441906	keystroke_t	t	n/a
221.043	0.195	442086	keystroke_i	i	n/a
221.117	0.106	442234	keystroke_o	o	n/a
221.163	0.15	442326	keystroke_n	n	n/a
221.238	0.15	442476	keystroke_s	s	n/a
221.328	0.1495	442656	keystroke_Key.space	Key.space	n/a
221.4785	0.104	442957	keystroke_i	i	n/a
221.522	0.1205	443044	keystroke_n	n	n/a
221.6125	0.1205	443225	keystroke_d	d	n/a
221.718	0.12	443436	keystroke_i	i	n/a
221.807	0.121	443614	keystroke_c	c	n/a
221.883	0.12	443766	keystroke_a	a	n/a
222.077	0.09	444154	keystroke_t	t	n/a
222.123	0.149	444246	keystroke_i	i	n/a
222.6175	0.045	445235	keystroke_Key.backspace	Key.backspace	n/a
222.8725	0.105	445745	keystroke_o	o	n/a
222.9925	0.06	445985	keystroke_r	r	n/a
223.1575	0.03	446315	keystroke_Key.enter	Key.enter	n/a
223.1925	7.406	446385	prompt	n/a	francis bench minerals hebrew\n
223.817	0.105	447634	keystroke_f	f	n/a
223.997	0.09	447994	keystroke_r	r	n/a
224.1025	0.12	448205	keystroke_a	a	n/a
224.2075	0.12	448415	keystroke_n	n	n/a
224.2975	0.105	448595	keystroke_c	c	n/a
224.4625	0.1345	448925	keystroke_i	i	n/a
224.597	0.12	449194	keystroke_s	s	n/a
224.852	0.12	449704	keystroke_Key.space	Key.space	n/a
225.153	0.03	450306	keystroke_b	b	n/a
225.168	0.075	450336	keystroke_e	e	n/a
225.273	0.089	450546	keystroke_n	n	n/a
225.378	0.09	450756	keystroke_c	c	n/a
225.483	0.09	450966	keystroke_h	h	n/a
225.693	0.089	451386	keystroke_Key.space	Key.space	n/a
226.563	0.06	453126	keystroke_m	m	n/a
226.698	0.105	453396	keystroke_i	i	n/a
226.757	0.166	453514	keystroke_n	n	n/a
226.848	0.135	453696	keystroke_e	e	n/a
226.938	0.135	453876	keystroke_r	r	n/a
227.043	0.12	454086	keystroke_a	a	n/a
227.148	0.135	454296	keystroke_l	l	n/a
227.253	0.165	454506	keystroke_s	s	n/a
227.342	0.195	454684	keystroke_Key.space	Key.space	n/a
228.093	0.089	456186	keystroke_h	h	n/a
228.168	0.105	456336	keystroke_e	e	n/a
228.288	0.1495	456576	keystroke_b	b	n/a
228.378	0.1645	456756	keystroke_r	r	n/a
228.4825	0.075	456965	keystroke_e	e	n/a
228.6175	0.1805	457235	keystroke_e	e	n/a
228.768	0.12	457536	keystroke_w	w	n/a
229.037	0.045	458074	keystroke_Key.backspace	Key.backspace	n/a
229.232	0.06	458464	keystroke_Key.backspace	Key.backspace	n/a
229.397	0.075	458794	keystroke_Key.backspace	Key.backspace	n/a
230.117	0.0905	460234	keystroke_e	e	n/a
230.162	0.0905	460324	keystroke_w	w	n/a
230.4925	0.105	460985	keystroke_Key.enter	Key.enter	n/a
230.602	5.5325	461204	prompt	n/a	chairs binding priorities paradise\n
231.2275	0.12	462455	keystroke_c	c	n/a
231.3025	0.09	462605	keystroke_h	h	n/a
231.3775	0.105	462755	keystroke_a	a	n/a
231.4525	0.135	462905	keystroke_i	i	n/a
231.5575	0.135	463115	keystroke_r	r	n/a
231.6325	0.15	463265	keystroke_s	s	n/a
231.7075	0.15	463415	keystroke_Key.space	Key.space	n/a
231.9025	0.09	463805	keystroke_b	b	n/a
232.0375	0.105	464075	keystroke_i	i	n/a
232.0975	0.0895	464195	keystroke_n	n	n/a
232.172	0.105	464344	keystroke_d	d	n/a
232.262	0.09	464524	keystroke_i	i	n/a
232.307	0.12	464614	keystroke_n	n	n/a
232.367	0.12	464734	keystroke_g	g	n/a
232.457	0.12	464914	keystroke_Key.space	Key.space	n/a
232.652	0.09	465304	keystroke_p	p	n/a
233.102	0.09	466204	keystroke_r	r	n/a
233.582	0.045	467164	keystroke_i	i	n/a
233.747	0.09	467494	keystroke_o	o	n/a
233.868	0.089	467736	keystroke_r	r	n/a
233.988	0.059	467976	keystroke_i	i	n/a
234.078	0.075	468156	keystroke_t	t	n/a
234.168	0.1495	468336	keystroke_i	i	n/a
234.273	0.1495	468546	keystroke_e	e	n/a
234.3325	0.1945	468665	keystroke_s	s	n/a
234.482	0.1355	468964	keystroke_Key.space	Key.space	n/a
234.7825	0.0895	469565	keystroke_p	p	n/a
234.8575	0.135	469715	keystroke_a	a	n/a
234.9475	0.135	469895	keystroke_r	r	n/a
235.0675	0.15	470135	keystroke_a	a	n/a
235.4725	0.105	470945	keystroke_d	d	n/a
235.5925	0.12	471185	keystroke_i	i	n/a
235.6975	0.18	471395	keystroke_s	s	n/a
235.8025	0.09	471605	keystroke_e	e	n/a
236.0575	0.075	472115	keystroke_Key.enter	Key.enter	n/a
236.1375	7.6315	472275	prompt	n/a	ground despite microphone consultation\n
236.9575	0.075	473915	keystroke_g	g	n/a
237.1075	0.12	474215	keystroke_r	r	n/a
237.1225	0.15	474245	keystroke_o	o	n/a
237.2125	0.075	474425	keystroke_u	u	n/a
237.3775	0.1345	474755	keystroke_n	n	n/a
237.452	0.15	474904	keystroke_d	d	n/a
237.587	0.105	475174	keystroke_Key.space	Key.space	n/a
237.707	0.105	475414	keystroke_d	d	n/a
237.902	0.135	475804	keystroke_e	e	n/a
237.977	0.135	475954	keystroke_s	s	n/a
238.262	0.075	476524	keystroke_p	p	n/a
238.4725	0.06	476945	keystroke_i	i	n/a
238.683	0.134	477366	keystroke_t	t	n/a
238.833	0.09	477666	keystroke_e	e	n/a
238.863	0.15	477726	keystroke_Key.space	Key.space	n/a
239.193	0.09	478386	keystroke_m	m	n/a
239.313	0.105	478626	keystroke_i	i	n/a
239.418	0.105	478836	keystroke_c	c	n/a
239.6575	0.075	479315	keystroke_r	r	n/a
240.1675	0.12	480335	keystroke_o	o	n/a
240.5425	0.06	481085	keystroke_p	p	n/a
240.7075	0.075	481415	keystroke_h	h	n/a
240.8425	0.06	481685	keystroke_o	o	n/a
240.9775	0.075	481955	keystroke_n	n	n/a
241.0975	0.12	482195	keystroke_e	e	n/a
241.1875	0.105	482375	keystroke_Key.space	Key.space	n/a
241.3975	0.09	482795	keystroke_c	c	n/a
241.4725	0.06	482945	keystroke_o	o	n/a
241.5925	0.105	483185	keystroke_n	n	n/a
241.8625	0.075	483725	keystroke_s	s	n/a
241.9225	0.075	483845	keystroke_u	u	n/a
242.1025	0.0905	484205	keystroke_l	l	n/a
242.207	0.091	484414	keystroke_t	t	n/a
242.328	0.1045	484656	keystroke_a	a	n/a
242.403	0.1045	484806	keystroke_t	t	n/a
242.4625	0.21	484925	keystroke_i	i	n/a
242.5225	0.135	485045	keystroke_o	o	n/a
242.5825	0.135	485165	keystroke_n	n	n/a
243.047	0.075	486094	keystroke_Key.space	Key.space	n/a
243.377	0.106	486754	keystroke_Key.backspace	Key.backspace	n/a
243.692	0.076	487384	keystroke_Key.enter	Key.enter	n/a
243.7725	3.9115	487545	prompt	n/a	bent light rating kills\n
244.5475	0.105	489095	keystroke_b	b	n/a
244.6825	0.09	489365	keystroke_e	e	n/a
244.8325	0.09	489665	keystroke_n	n	n/a
244.9375	0.1045	489875	keystroke_t	t	n/a
245.0125	0.0895	490025	keystroke_Key.space	Key.space	n/a
245.133	0.06	490266	keystroke_l	l	n/a
245.283	0.059	490566	keystroke_i	i	n/a
245.357	0.09	490714	keystroke_g	g	n/a
245.448	0.104	490896	keystroke_h	h	n/a
245.537	0.09	491074	keystroke_t	t	n/a
245.582	0.105	491164	keystroke_Key.space	Key.space	n/a
245.717	0.165	491434	keystroke_r	r	n/a
245.867	0.105	491734	keystroke_a	a	n/a
246.047	0.091	492094	keystroke_t	t	n/a
246.212	0.121	492424	keystroke_i	i	n/a
246.272	0.15	492544	keystroke_n	n	n/a
246.347	0.105	492694	keystroke_g	g	n/a
246.437	0.105	492874	keystroke_Key.space	Key.space	n/a
246.602	0.075	493204	keystroke_k	k	n/a
246.767	0.075	493534	keystroke_i	i	n/a
246.9325	0.075	493865	keystroke_l	l	n/a
247.0375	0.105	494075	keystroke_l	l	n/a
247.4275	0.105	494855	keystroke_s	s	n/a
247.5775	0.105	495155	keystroke_Key.enter	Key.enter	n/a
247.6875	5.8315	495375	prompt	n/a	twiki freely meaningful traveler\n
248.5075	0.09	497015	keystroke_t	t	n/a
248.703	0.044	497406	keystroke_w	w	n/a
248.837	0.045	497674	keystroke_i	i	n/a
249.0925	0.09	498185	keystroke_k	k	n/a
249.2575	0.105	498515	keystroke_i	i	n/a
249.3775	0.135	498755	keystroke_Key.space	Key.space	n/a
249.632	0.075	499264	keystroke_f	f	n/a
249.782	0.09	499564	keystroke_r	r	n/a
249.992	0.045	499984	keystroke_e	e	n/a
250.112	0.091	500224	keystroke_e	e	n/a
250.2175	0.1055	500435	keystroke_l	l	n/a
250.368	0.104	500736	keystroke_y	y	n/a
250.547	0.075	501094	keystroke_Key.space	Key.space	n/a
250.712	0.0905	501424	keystroke_m	m	n/a
250.787	0.1055	501574	keystroke_e	e	n/a
250.8475	0.135	501695	keystroke_a	a	n/a
250.9225	0.075	501845	keystroke_n	n	n/a
251.0275	0.106	502055	keystroke_i	i	n/a
251.1025	0.135	502205	keystroke_n	n	n/a
251.1925	0.105	502385	keystroke_g	g	n/a
251.5975	0.12	503195	keystroke_f	f	n/a
251.7025	0.06	503405	keystroke_u	u	n/a
251.8525	0.0745	503705	keystroke_l	l	n/a
251.972	0.18	503944	keystroke_Key.space	Key.space	n/a
252.093	0.1195	504186	keystroke_t	t	n/a
252.167	0.0905	504334	keystroke_r	r	n/a
252.3025	0.1195	504605	keystroke_a	a	n/a
252.467	0.075	504934	keystroke_v	v	n/a
252.572	0.075	505144	keystroke_e	e	n/a
252.662	0.075	505324	keystroke_l	l	n/a
252.752	0.12	505504	keystroke_e	e	n/a
252.917	0.09	505834	keystroke_r	r	n/a
253.442	0.075	506884	keystroke_Key.enter	Key.enter	n/a
253.522	5.502	507044	prompt	n/a	poly journalist munich pearl\n
254.222	0.0605	508444	keystroke_p	p	n/a
254.3875	0.075	508775	keystroke_o	o	n/a
254.507	0.12	509014	keystroke_l	l	n/a
254.613	0.1195	509226	keystroke_y	y	n/a
254.7025	0.09	509405	keystroke_Key.space	Key.space	n/a
255.1375	0.075	510275	keystroke_j	j	n/a
255.2575	0.135	510515	keystroke_o	o	n/a
255.3325	0.105	510665	keystroke_u	u	n/a
255.4685	0.104	510937	keystroke_r	r	n/a
255.5575	0.09	511115	keystroke_n	n	n/a
255.6925	0.075	511385	keystroke_a	a	n/a
255.7525	0.075	511505	keystroke_l	l	n/a
255.9325	0.1045	511865	keystroke_i	i	n/a
255.9625	0.2095	511925	keystroke_s	s	n/a
256.097	0.12	512194	keystroke_t	t	n/a
256.173	0.119	512346	keystroke_Key.space	Key.space	n/a
256.337	0.105	512674	keystroke_m	m	n/a
256.517	0.09	513034	keystroke_u	u	n/a
256.6675	0.075	513335	keystroke_n	n	n/a
257.0275	0.1195	514055	keystroke_i	i	n/a
257.207	0.12	514414	keystroke_c	c	n/a
257.297	0.105	514594	keystroke_h	h	n/a
257.447	0.09	514894	keystroke_Key.space	Key.space	n/a
257.627	0.075	515254	keystroke_p	p	n/a
257.718	0.105	515436	keystroke_e	e	n/a
257.777	0.106	515554	keystroke_r	r	n/a
258.213	0.075	516426	keystroke_Key.backspace	Key.backspace	n/a
258.408	0.12	516816	keystroke_a	a	n/a
258.558	0.12	517116	keystroke_r	r	n/a
258.693	0.075	517386	keystroke_l	l	n/a
258.9775	0.045	517955	keystroke_Key.enter	Key.enter	n/a
259.0295	5.3195	518059	prompt	n/a	homepage celebrate sizes separate\n
259.668	0.06	519336	keystroke_h	h	n/a
259.787	0.1205	519574	keystroke_o	o	n/a
259.8775	0.09	519755	keystroke_m	m	n/a
259.9525	0.075	519905	keystroke_e	e	n/a
260.0575	0.09	520115	keystroke_p	p	n/a
260.1325	0.09	520265	keystroke_a	a	n/a
260.2975	0.105	520595	keystroke_g	g	n/a
260.4175	0.09	520835	keystroke_e	e	n/a
260.4625	0.165	520925	keystroke_Key.space	Key.space	n/a
260.792	0.12	521584	keystroke_c	c	n/a
260.882	0.105	521764	keystroke_e	e	n/a
261.002	0.09	522004	keystroke_l	l	n/a
261.093	0.089	522186	keystroke_e	e	n/a
261.377	0.12	522754	keystroke_b	b	n/a
261.527	0.15	523054	keystroke_r	r	n/a
261.662	0.075	523324	keystroke_a	a	n/a
261.842	0.09	523684	keystroke_t	t	n/a
261.8875	0.1195	523775	keystroke_e	e	n/a
261.977	0.1205	523954	keystroke_Key.space	Key.space	n/a
262.1275	0.105	524255	keystroke_s	s	n/a
262.2175	0.135	524435	keystroke_i	i	n/a
262.3675	0.12	524735	keystroke_z	z	n/a
262.5025	0.15	525005	keystroke_e	e	n/a
262.6675	0.2105	525335	keystroke_s	s	n/a
262.833	0.18	525666	keystroke_Key.space	Key.space	n/a
262.9975	0.225	525995	keystroke_s	s	n/a
263.118	0.1795	526236	keystroke_e	e	n/a
263.3575	0.12	526715	keystroke_p	p	n/a
263.5675	0.15	527135	keystroke_a	a	n/a
263.7025	0.135	527405	keystroke_r	r	n/a
263.8225	0.12	527645	keystroke_a	a	n/a
264.1375	0.03	528275	keystroke_t	t	n/a
264.1525	0.075	528305	keystroke_e	e	n/a
264.2725	0.075	528545	keystroke_Key.enter	Key.enter	n/a
264.3515	7.9175	528703	prompt	n/a	subsidiaries gossip shareholders temporary\n
265.083	0.105	530166	keystroke_s	s	n/a
265.128	0.12	530256	keystroke_u	u	n/a
265.203	0.12	530406	keystroke_b	b	n/a
265.353	0.1195	530706	keystroke_s	s	n/a
265.4875	0.075	530975	keystroke_i	i	n/a
265.5775	0.09	531155	keystroke_d	d	n/a
265.6825	0.12	531365	keystroke_i	i	n/a
265.8175	0.135	531635	keystroke_a	a	n/a
266.0875	0.1195	532175	keystroke_r	r	n/a
266.597	0.09	533194	keystroke_i	i	n/a
266.657	0.166	533314	keystroke_e	e	n/a
266.717	0.166	533434	keystroke_s	s	n/a
266.807	0.135	533614	keystroke_Key.space	Key.space	n/a
267.137	0.09	534274	keystroke_g	g	n/a
267.242	0.075	534484	keystroke_o	o	n/a
267.362	0.075	534724	keystroke_s	s	n/a
267.497	0.135	534994	keystroke_s	s	n/a
267.587	0.09	535174	keystroke_i	i	n/a
267.797	0.075	535594	keystroke_p	p	n/a
267.977	0.135	535954	keystroke_Key.space	Key.space	n/a
268.067	0.1655	536134	keystroke_s	s	n/a
268.1875	0.135	536375	keystroke_h	h	n/a
268.4575	0.18	536915	keystroke_a	a	n/a
268.6525	0.1355	537305	keystroke_r	r	n/a
268.713	0.1345	537426	keystroke_e	e	n/a
268.9975	0.06	537995	keystroke_h	h	n/a
269.1325	0.075	538265	keystroke_o	o	n/a
269.2675	0.12	538535	keystroke_l	l	n/a
269.3725	0.075	538745	keystroke_d	d	n/a
269.5375	0.105	539075	keystroke_e	e	n/a
269.5975	0.12	539195	keystroke_r	r	n/a
270.3475	0.09	540695	keystroke_s	s	n/a
270.4975	0.105	540995	keystroke_Key.space	Key.space	n/a
270.7525	0.0745	541505	keystroke_t	t	n/a
270.902	0.09	541804	keystroke_e	e	n/a
271.037	0.0605	542074	keystroke_m	m	n/a
271.2025	0.045	542405	keystroke_p	p	n/a
271.3375	0.0905	542675	keystroke_o	o	n/a
271.4125	0.1055	542825	keystroke_r	r	n/a
271.608	0.135	543216	keystroke_a	a	n/a
271.683	0.105	543366	keystroke_r	r	n/a
271.9375	0.075	543875	keystroke_y	y	n/a
272.1325	0.1355	544265	keystroke_Key.enter	Key.enter	n/a
272.272	4.377	544544	prompt	n/a	gallery membrane perl third\n
273.1075	0.09	546215	keystroke_g	g	n/a
273.2725	0.09	546545	keystroke_a	a	n/a
273.4075	0.045	546815	keystroke_l	l	n/a
273.5575	0.105	547115	keystroke_l	l	n/a
273.6025	0.15	547205	keystroke_e	e	n/a
273.6475	0.12	547295	keystroke_r	r	n/a
273.8875	0.1045	547775	keystroke_y	y	n/a
273.9475	0.1045	547895	keystroke_Key.space	Key.space	n/a
274.112	0.0605	548224	keystroke_m	m	n/a
274.188	0.1045	548376	keystroke_e	e	n/a
274.2475	0.0905	548495	keystroke_m	m	n/a
274.4575	0.09	548915	keystroke_b	b	n/a
274.5625	0.12	549125	keystroke_r	r	n/a
274.6975	0.09	549395	keystroke_a	a	n/a
274.8025	0.09	549605	keystroke_n	n	n/a
274.9075	0.12	549815	keystroke_e	e	n/a
275.0125	0.12	550025	keystroke_Key.space	Key.space	n/a
275.2375	0.075	550475	keystroke_p	p	n/a
275.2825	0.12	550565	keystroke_e	e	n/a
275.3575	0.105	550715	keystroke_r	r	n/a
275.4925	0.105	550985	keystroke_l	l	n/a
275.7475	0.09	551495	keystroke_Key.space	Key.space	n/a
275.8825	0.12	551765	keystroke_t	t	n/a
275.9575	0.09	551915	keystroke_h	h	n/a
276.0325	0.1045	552065	keystroke_i	i	n/a
276.122	0.106	552244	keystroke_r	r	n/a
276.422	0.076	552844	keystroke_d	d	n/a
276.542	0.105	553084	keystroke_Key.enter	Key.enter	n/a
276.652	6.687	553304	prompt	n/a	birds cigarettes johns sunny\n
277.2775	0.075	554555	keystroke_b	b	n/a
277.5925	0.135	555185	keystroke_i	i	n/a
277.8175	0.075	555635	keystroke_r	r	n/a
277.9825	0.15	555965	keystroke_d	d	n/a
278.0575	0.165	556115	keystroke_s	s	n/a
278.1925	0.15	556385	keystroke_Key.space	Key.space	n/a
278.5975	0.06	557195	keystroke_c	c	n/a
279.002	0.135	558004	keystroke_i	i	n/a
279.092	0.105	558184	keystroke_g	g	n/a
279.273	0.104	558546	keystroke_a	a	n/a
279.423	0.06	558846	keystroke_r	r	n/a
279.617	0.105	559234	keystroke_e	e	n/a
279.827	0.06	559654	keystroke_t	t	n/a
279.947	0.12	559894	keystroke_t	t	n/a
280.083	0.1645	560166	keystroke_e	e	n/a
280.157	0.1355	560314	keystroke_s	s	n/a
280.2625	0.135	560525	keystroke_Key.space	Key.space	n/a
281.1025	0.075	562205	keystroke_j	j	n/a
281.2225	0.12	562445	keystroke_o	o	n/a
281.5825	0.105	563165	keystroke_h	h	n/a
281.8075	0.105	563615	keystroke_n	n	n/a
281.9275	0.135	563855	keystroke_s	s	n/a
282.0475	0.12	564095	keystroke_Key.space	Key.space	n/a
282.183	0.12	564366	keystroke_s	s	n/a
282.228	0.12	564456	keystroke_u	u	n/a
282.318	0.045	564636	keystroke_n	n	n/a
282.453	0.075	564906	keystroke_n	n	n/a
282.603	0.045	565206	keystroke_n	n	n/a
282.978	0.045	565956	keystroke_Key.backspace	Key.backspace	n/a
283.158	0.075	566316	keystroke_y	y	n/a
283.263	0.074	566526	keystroke_Key.enter	Key.enter	n/a
283.3425	7.767	566685	prompt	n/a	partial operate violations incentives\n
284.0875	0.1055	568175	keystroke_p	p	n/a
284.1625	0.1645	568325	keystroke_a	a	n/a
284.238	0.104	568476	keystroke_r	r	n/a
284.403	0.09	568806	keystroke_t	t	n/a
284.418	0.15	568836	keystroke_i	i	n/a
285.3775	0.09	570755	keystroke_a	a	n/a
285.4375	0.105	570875	keystroke_l	l	n/a
285.5875	0.12	571175	keystroke_Key.space	Key.space	n/a
285.7825	0.1795	571565	keystroke_o	o	n/a
285.873	0.105	571746	keystroke_p	p	n/a
286.277	0.015	572554	keystroke_Key.backspace	Key.backspace	n/a
287.013	0.089	574026	keystroke_p	p	n/a
287.103	0.119	574206	keystroke_e	e	n/a
287.177	0.105	574354	keystroke_r	r	n/a
287.312	0.165	574624	keystroke_a	a	n/a
287.432	0.135	574864	keystroke_t	t	n/a
287.672	0.135	575344	keystroke_e	e	n/a
288.002	0.0905	576004	keystroke_Key.space	Key.space	n/a
288.5425	0.105	577085	keystroke_v	v	n/a
288.6175	0.135	577235	keystroke_i	i	n/a
288.6925	0.075	577385	keystroke_o	o	n/a
288.8725	0.09	577745	keystroke_l	l	n/a
288.9475	0.075	577895	keystroke_a	a	n/a
289.1125	0.09	578225	keystroke_t	t	n/a
289.1875	0.18	578375	keystroke_i	i	n/a
289.2475	0.105	578495	keystroke_o	o	n/a
289.3225	0.135	578645	keystroke_n	n	n/a
289.4125	0.15	578825	keystroke_s	s	n/a
289.5025	0.15	579005	keystroke_Key.space	Key.space	n/a
289.8625	0.12	579725	keystroke_i	i	n/a
289.9225	0.15	579845	keystroke_n	n	n/a
290.0575	0.09	580115	keystroke_c	c	n/a
290.2075	0.12	580415	keystroke_e	e	n/a
290.3125	0.105	580625	keystroke_n	n	n/a
290.4325	0.0455	580865	keystroke_t	t	n/a
290.508	0.135	581016	keystroke_i	i	n/a
290.613	0.1045	581226	keystroke_v	v	n/a
290.7475	0.1645	581495	keystroke_e	e	n/a
290.8525	0.1355	581705	keystroke_s	s	n/a
291.002	0.105	582004	keystroke_Key.enter	Key.enter	n/a
291.1125	4.3465	582225	prompt	n/a	remained spice took adelaide\n
291.932	0.121	583864	keystroke_r	r	n/a
292.007	0.105	584014	keystroke_e	e	n/a
292.127	0.075	584254	keystroke_m	m	n/a
292.262	0.105	584524	keystroke_a	a	n/a
292.352	0.12	584704	keystroke_i	i	n/a
292.397	0.15	584794	keystroke_n	n	n/a
292.518	0.074	585036	keystroke_e	e	n/a
292.698	0.12	585396	keystroke_d	d	n/a
292.787	0.12	585574	keystroke_Key.space	Key.space	n/a
292.967	0.1055	585934	keystroke_s	s	n/a
293.028	0.0745	586056	keystroke_p	p	n/a
293.2075	0.12	586415	keystroke_i	i	n/a
293.2525	0.165	586505	keystroke_c	c	n/a
293.3585	0.134	586717	keystroke_e	e	n/a
293.4625	0.12	586925	keystroke_Key.space	Key.space	n/a
293.6875	0.075	587375	keystroke_t	t	n/a
293.7775	0.06	587555	keystroke_o	o	n/a
293.9285	0.119	587857	keystroke_o	o	n/a
293.9875	0.135	587975	keystroke_k	k	n/a
294.0625	0.135	588125	keystroke_Key.space	Key.space	n/a
294.1825	0.18	588365	keystroke_a	a	n/a
294.3175	0.12	588635	keystroke_d	d	n/a
294.4525	0.135	588905	keystroke_e	e	n/a
294.6175	0.105	589235	keystroke_l	l	n/a
294.7675	0.12	589535	keystroke_a	a	n/a
294.9475	0.1495	589895	keystroke_i	i	n/a
295.082	0.076	590164	keystroke_d	d	n/a
295.233	0.09	590466	keystroke_e	e	n/a
295.382	0.075	590764	keystroke_Key.enter	Key.enter	n/a
295.462	7.5875	590924	prompt	n/a	require equilibrium archives floral\n
296.043	0.1345	592086	keystroke_r	r	n/a
296.103	0.1045	592206	keystroke_e	e	n/a
296.2675	0.105	592535	keystroke_q	q	n/a
296.3575	0.075	592715	keystroke_u	u	n/a
296.5075	0.121	593015	keystroke_i	i	n/a
296.5375	0.15	593075	keystroke_r	r	n/a
296.6125	0.12	593225	keystroke_e	e	n/a
296.7175	0.135	593435	keystroke_Key.space	Key.space	n/a
296.9125	0.18	593825	keystroke_e	e	n/a
297.0025	0.15	594005	keystroke_q	q	n/a
297.1825	0.12	594365	keystroke_u	u	n/a
297.3775	0.105	594755	keystroke_i	i	n/a
297.6475	0.03	595295	keystroke_l	l	n/a
298.0525	0.12	596105	keystroke_i	i	n/a
298.3225	0.105	596645	keystroke_b	b	n/a
299.0575	0.06	598115	keystroke_r	r	n/a
299.3575	0.06	598715	keystroke_i	i	n/a
299.5225	0.075	599045	keystroke_u	u	n/a
299.7325	0.06	599465	keystroke_m	m	n/a
299.8975	0.1205	599795	keystroke_Key.space	Key.space	n/a
300.033	0.15	600066	keystroke_a	a	n/a
300.123	0.12	600246	keystroke_c	c	n/a
300.198	0.105	600396	keystroke_h	h	n/a
300.588	0.045	601176	keystroke_Key.backspace	Key.backspace	n/a
300.723	0.075	601446	keystroke_Key.backspace	Key.backspace	n/a
300.903	0.06	601806	keystroke_r	r	n/a
301.158	0.075	602316	keystroke_c	c	n/a
301.218	0.075	602436	keystroke_h	h	n/a
301.338	0.09	602676	keystroke_i	i	n/a
301.458	0.06	602916	keystroke_v	v	n/a
301.608	0.165	603216	keystroke_e	e	n/a
301.713	0.15	603426	keystroke_s	s	n/a
301.788	0.135	603576	keystroke_Key.space	Key.space	n/a
302.178	0.12	604356	keystroke_f	f	n/a
302.283	0.06	604566	keystroke_l	l	n/a
302.433	0.12	604866	keystroke_o	o	n/a
302.583	0.0745	605166	keystroke_r	r	n/a
302.6875	0.0755	605375	keystroke_a	a	n/a
302.808	0.06	605616	keystroke_l	l	n/a
303.003	0.045	606006	keystroke_Key.enter	Key.enter	n/a
303.0525	5.277	606105	prompt	n/a	marked scheduled emotional century\n
303.738	0.12	607476	keystroke_m	m	n/a
303.813	0.15	607626	keystroke_a	a	n/a
303.903	0.105	607806	keystroke_r	r	n/a
303.978	0.075	607956	keystroke_k	k	n/a
304.068	0.09	608136	keystroke_e	e	n/a
304.248	0.105	608496	keystroke_d	d	n/a
304.338	0.1195	608676	keystroke_Key.space	Key.space	n/a
304.4425	0.15	608885	keystroke_s	s	n/a
304.5325	0.105	609065	keystroke_c	c	n/a
304.6075	0.12	609215	keystroke_h	h	n/a
304.7125	0.06	609425	keystroke_e	e	n/a
304.8775	0.09	609755	keystroke_d	d	n/a
304.9825	0.06	609965	keystroke_u	u	n/a
305.1475	0.09	610295	keystroke_l	l	n/a
305.2225	0.0455	610445	keystroke_e	e	n/a
305.373	0.1195	610746	keystroke_d	d	n/a
305.4775	0.12	610955	keystroke_Key.space	Key.space	n/a
305.6125	0.105	611225	keystroke_e	e	n/a
305.7325	0.06	611465	keystroke_m	m	n/a
305.8375	0.0905	611675	keystroke_o	o	n/a
305.943	0.12	611886	keystroke_t	t	n/a
306.048	0.21	612096	keystroke_i	i	n/a
306.123	0.105	612246	keystroke_o	o	n/a
306.198	0.105	612396	keystroke_n	n	n/a
306.288	0.075	612576	keystroke_a	a	n/a
306.408	0.06	612816	keystroke_l	l	n/a
306.513	0.105	613026	keystroke_Key.space	Key.space	n/a
306.783	0.0895	613566	keystroke_c	c	n/a
306.9035	0.12	613807	keystroke_e	e	n/a
307.0085	0.09	614017	keystroke_n	n	n/a
307.1135	0.075	614227	keystroke_t	t	n/a
307.2025	0.106	614405	keystroke_u	u	n/a
307.2635	0.12	614527	keystroke_r	r	n/a
307.3235	0.104	614647	keystroke_e	e	n/a
307.6835	0.044	615367	keystroke_Key.backspace	Key.backspace	n/a
307.8935	0.09	615787	keystroke_y	y	n/a
308.2675	0.06	616535	keystroke_Key.enter	Key.enter	n/a
308.3325	5.397	616665	prompt	n/a	spin receivers yoga submission\n
309.078	0.135	618156	keystroke_s	s	n/a
309.138	0.06	618276	keystroke_p	p	n/a
309.318	0.135	618636	keystroke_i	i	n/a
309.393	0.135	618786	keystroke_n	n	n/a
309.513	0.1945	619026	keystroke_Key.space	Key.space	n/a
309.6775	0.105	619355	keystroke_r	r	n/a
309.7525	0.09	619505	keystroke_e	e	n/a
309.9175	0.105	619835	keystroke_c	c	n/a
310.593	0.06	621186	keystroke_e	e	n/a
310.668	0.105	621336	keystroke_i	i	n/a
310.758	0.075	621516	keystroke_v	v	n/a
310.923	0.105	621846	keystroke_e	e	n/a
310.998	0.15	621996	keystroke_r	r	n/a
311.118	0.165	622236	keystroke_s	s	n/a
311.238	0.165	622476	keystroke_Key.space	Key.space	n/a
311.478	0.105	622956	keystroke_y	y	n/a
311.598	0.0895	623196	keystroke_o	o	n/a
311.8525	0.075	623705	keystroke_g	g	n/a
312.063	0.1495	624126	keystroke_a	a	n/a
312.1975	0.1055	624395	keystroke_Key.space	Key.space	n/a
312.378	0.165	624756	keystroke_s	s	n/a
312.483	0.165	624966	keystroke_u	u	n/a
312.573	0.105	625146	keystroke_b	b	n/a
312.813	0.045	625626	keystroke_m	m	n/a
312.948	0.075	625896	keystroke_i	i	n/a
313.038	0.06	626076	keystroke_s	s	n/a
313.173	0.09	626346	keystroke_s	s	n/a
313.248	0.21	626496	keystroke_i	i	n/a
313.278	0.12	626556	keystroke_o	o	n/a
313.368	0.135	626736	keystroke_n	n	n/a
313.683	0.045	627366	keystroke_Key.enter	Key.enter	n/a
313.735	3.9095	627470	prompt	n/a	safely shorts gods andrea\n
314.283	0.12	628566	keystroke_s	s	n/a
314.463	0.12	628926	keystroke_a	a	n/a
314.628	0.12	629256	keystroke_f	f	n/a
314.763	0.105	629526	keystroke_e	e	n/a
314.898	0.09	629796	keystroke_l	l	n/a
315.0175	0.105	630035	keystroke_y	y	n/a
315.1075	0.105	630215	keystroke_Key.space	Key.space	n/a
315.243	0.12	630486	keystroke_s	s	n/a
315.288	0.09	630576	keystroke_h	h	n/a
315.423	0.105	630846	keystroke_o	o	n/a
315.483	0.075	630966	keystroke_r	r	n/a
315.618	0.135	631236	keystroke_t	t	n/a
315.738	0.135	631476	keystroke_s	s	n/a
315.813	0.18	631626	keystroke_Key.space	Key.space	n/a
316.188	0.09	632376	keystroke_g	g	n/a
316.293	0.0905	632586	keystroke_o	o	n/a
316.3985	0.18	632797	keystroke_d	d	n/a
316.4885	0.18	632977	keystroke_s	s	n/a
316.6535	0.1195	633307	keystroke_Key.space	Key.space	n/a
316.803	0.165	633606	keystroke_a	a	n/a
316.9085	0.1495	633817	keystroke_n	n	n/a
316.998	0.12	633996	keystroke_d	d	n/a
317.2085	0.15	634417	keystroke_r	r	n/a
317.283	0.15	634566	keystroke_e	e	n/a
317.3735	0.135	634747	keystroke_a	a	n/a
317.5535	0.09	635107	keystroke_Key.enter	Key.enter	n/a
317.6495	4.54	635299	prompt	n/a	caught leisure device affairs\n
318.4535	0.119	636907	keystroke_c	c	n/a
318.5425	0.135	637085	keystroke_a	a	n/a
318.6325	0.091	637265	keystroke_u	u	n/a
318.7375	0.106	637475	keystroke_g	g	n/a
318.8285	0.15	637657	keystroke_h	h	n/a
318.9625	0.091	637925	keystroke_t	t	n/a
319.0375	0.0905	638075	keystroke_Key.space	Key.space	n/a
319.173	0.12	638346	keystroke_l	l	n/a
319.323	0.135	638646	keystroke_e	e	n/a
319.488	0.12	638976	keystroke_i	i	n/a
319.623	0.135	639246	keystroke_s	s	n/a
319.803	0.135	639606	keystroke_u	u	n/a
319.923	0.15	639846	keystroke_r	r	n/a
319.998	0.135	639996	keystroke_e	e	n/a
320.073	0.1205	640146	keystroke_Key.space	Key.space	n/a
320.478	0.06	640956	keystroke_d	d	n/a
320.613	0.075	641226	keystroke_e	e	n/a
320.763	0.075	641526	keystroke_v	v	n/a
320.868	0.1345	641736	keystroke_i	i	n/a
320.928	0.1645	641856	keystroke_c	c	n/a
321.0175	0.135	642035	keystroke_e	e	n/a
321.1375	0.15	642275	keystroke_Key.space	Key.space	n/a
321.2725	0.105	642545	keystroke_a	a	n/a
321.4685	0.044	642937	keystroke_f	f	n/a
321.5885	0.104	643177	keystroke_f	f	n/a
321.7235	0.0895	643447	keystroke_a	a	n/a
321.828	0.09	643656	keystroke_i	i	n/a
321.888	0.12	643776	keystroke_r	r	n/a
321.963	0.12	643926	keystroke_s	s	n/a
322.128	0.06	644256	keystroke_Key.enter	Key.enter	n/a
322.193	5.6365	644386	prompt	n/a	looking lucas attract verde\n
322.728	0.06	645456	keystroke_l	l	n/a
322.908	0.045	645816	keystroke_o	o	n/a
323.043	0.12	646086	keystroke_o	o	n/a
323.118	0.09	646236	keystroke_k	k	n/a
323.283	0.105	646566	keystroke_i	i	n/a
323.343	0.135	646686	keystroke_n	n	n/a
323.403	0.12	646806	keystroke_g	g	n/a
323.508	0.105	647016	keystroke_Key.space	Key.space	n/a
323.7025	0.045	647405	keystroke_l	l	n/a
323.8675	0.12	647735	keystroke_u	u	n/a
323.9425	0.12	647885	keystroke_c	c	n/a
324.0325	0.21	648065	keystroke_a	a	n/a
324.1825	0.165	648365	keystroke_s	s	n/a
324.3625	0.105	648725	keystroke_Key.space	Key.space	n/a
324.4975	0.12	648995	keystroke_a	a	n/a
324.7075	0.12	649415	keystroke_t	t	n/a
324.8425	0.105	649685	keystroke_r	r	n/a
325.2485	0.059	650497	keystroke_Key.backspace	Key.backspace	n/a
325.4435	0.105	650887	keystroke_t	t	n/a
325.6535	0.135	651307	keystroke_r	r	n/a
325.8035	0.194	651607	keystroke_a	a	n/a
325.9675	0.105	651935	keystroke_c	c	n/a
326.2075	0.075	652415	keystroke_t	t	n/a
326.2535	0.104	652507	keystroke_Key.space	Key.space	n/a
326.4775	0.09	652955	keystroke_v	v	n/a
326.6575	0.121	653315	keystroke_e	e	n/a
326.7175	0.105	653435	keystroke_r	r	n/a
326.928	0.09	653856	keystroke_d	d	n/a
327.108	0.075	654216	keystroke_e	e	n/a
327.708	0.1205	655416	keystroke_Key.enter	Key.enter	n/a
327.8325	5.937	655665	prompt	n/a	birds head humidity fitted\n
329.148	0.0605	658296	keystroke_b	b	n/a
329.2685	0.12	658537	keystroke_i	i	n/a
329.3285	0.105	658657	keystroke_r	r	n/a
329.5085	0.18	659017	keystroke_d	d	n/a
329.5985	0.135	659197	keystroke_s	s	n/a
329.6735	0.165	659347	keystroke_Key.space	Key.space	n/a
329.9435	0.135	659887	keystroke_h	h	n/a
330.1985	0.119	660397	keystroke_e	e	n/a
330.3025	0.181	660605	keystroke_a	a	n/a
330.4385	0.104	660877	keystroke_d	d	n/a
330.5125	0.135	661025	keystroke_Key.space	Key.space	n/a
330.7535	0.15	661507	keystroke_h	h	n/a
330.8885	0.0895	661777	keystroke_u	u	n/a
331.083	0.075	662166	keystroke_m	m	n/a
331.6375	0.105	663275	keystroke_i	i	n/a
331.7575	0.121	663515	keystroke_d	d	n/a
331.8625	0.12	663725	keystroke_i	i	n/a
332.0125	0.105	664025	keystroke_t	t	n/a
332.2075	0.06	664415	keystroke_y	y	n/a
332.4325	0.135	664865	keystroke_Key.space	Key.space	n/a
332.6725	0.1805	665345	keystroke_f	f	n/a
332.883	0.12	665766	keystroke_i	i	n/a
333.033	0.06	666066	keystroke_t	t	n/a
333.153	0.12	666306	keystroke_t	t	n/a
333.288	0.09	666576	keystroke_e	e	n/a
333.468	0.105	666936	keystroke_d	d	n/a
333.678	0.09	667356	keystroke_Key.enter	Key.enter	n/a
333.7725	4.977	667545	prompt	n/a	chemicals drugs plastic greeting\n
334.563	0.09	669126	keystroke_c	c	n/a
334.653	0.075	669306	keystroke_h	h	n/a
334.713	0.09	669426	keystroke_e	e	n/a
334.833	0.075	669666	keystroke_m	m	n/a
334.938	0.105	669876	keystroke_i	i	n/a
335.013	0.12	670026	keystroke_c	c	n/a
335.088	0.105	670176	keystroke_a	a	n/a
335.208	0.105	670416	keystroke_l	l	n/a
335.298	0.15	670596	keystroke_s	s	n/a
335.4025	0.1055	670805	keystroke_Key.space	Key.space	n/a
335.673	0.12	671346	keystroke_d	d	n/a
335.8085	0.075	671617	keystroke_r	r	n/a
335.8985	0.105	671797	keystroke_u	u	n/a
335.9885	0.075	671977	keystroke_g	g	n/a
336.1085	0.1495	672217	keystroke_s	s	n/a
336.198	0.1645	672396	keystroke_Key.space	Key.space	n/a
336.3775	0.135	672755	keystroke_p	p	n/a
336.4535	0.164	672907	keystroke_l	l	n/a
336.4975	0.18	672995	keystroke_a	a	n/a
336.6485	0.089	673297	keystroke_s	s	n/a
336.843	0.075	673686	keystroke_t	t	n/a
336.933	0.0905	673866	keystroke_i	i	n/a
337.0385	0.105	674077	keystroke_c	c	n/a
337.1135	0.12	674227	keystroke_Key.space	Key.space	n/a
337.2935	0.075	674587	keystroke_g	g	n/a
337.4585	0.12	674917	keystroke_r	r	n/a
337.5485	0.12	675097	keystroke_e	e	n/a
337.9085	0.105	675817	keystroke_e	e	n/a
338.0885	0.075	676177	keystroke_t	t	n/a
338.2085	0.105	676417	keystroke_i	i	n/a
338.2685	0.12	676537	keystroke_n	n	n/a
338.3285	0.075	676657	keystroke_g	g	n/a
338.6285	0.119	677257	keystroke_Key.enter	Key.enter	n/a
338.7525	5.652	677505	prompt	n/a	wanna tolerance sandra starter\n
339.7385	0.15	679477	keystroke_w	w	n/a
339.8285	0.135	679657	keystroke_a	a	n/a
339.9935	0.06	679987	keystroke_n	n	n/a
340.1285	0.0895	680257	keystroke_n	n	n/a
340.203	0.15	680406	keystroke_a	a	n/a
340.308	0.105	680616	keystroke_Key.space	Key.space	n/a
340.428	0.105	680856	keystroke_t	t	n/a
340.488	0.075	680976	keystroke_o	o	n/a
340.623	0.105	681246	keystroke_l	l	n/a
340.683	0.105	681366	keystroke_e	e	n/a
340.743	0.135	681486	keystroke_r	r	n/a
340.863	0.1195	681726	keystroke_a	a	n/a
340.9535	0.104	681907	keystroke_n	n	n/a
341.0275	0.12	682055	keystroke_c	c	n/a
341.1025	0.12	682205	keystroke_e	e	n/a
341.1925	0.15	682385	keystroke_Key.space	Key.space	n/a
341.3725	0.135	682745	keystroke_a	a	n/a
341.7325	0.03	683465	keystroke_Key.backspace	Key.backspace	n/a
341.8375	0.135	683675	keystroke_s	s	n/a
341.9125	0.136	683825	keystroke_a	a	n/a
342.0175	0.15	684035	keystroke_n	n	n/a
342.1835	0.119	684367	keystroke_d	d	n/a
342.3775	0.12	684755	keystroke_r	r	n/a
342.483	0.1645	684966	keystroke_a	a	n/a
342.6485	0.134	685297	keystroke_Key.space	Key.space	n/a
342.843	0.135	685686	keystroke_s	s	n/a
342.9925	0.12	685985	keystroke_t	t	n/a
343.1425	0.18	686285	keystroke_a	a	n/a
343.2475	0.105	686495	keystroke_r	r	n/a
343.428	0.105	686856	keystroke_t	t	n/a
343.548	0.0895	687096	keystroke_e	e	n/a
344.0575	0.105	688115	keystroke_r	r	n/a
344.3285	0.075	688657	keystroke_Key.enter	Key.enter	n/a
344.4075	4.9475	688815	prompt	n/a	extensive chrome contained specially\n
345.0925	0.075	690185	keystroke_e	e	n/a
345.2875	0.091	690575	keystroke_x	x	n/a
345.4975	0.091	690995	keystroke_t	t	n/a
345.5735	0.104	691147	keystroke_e	e	n/a
345.6935	0.074	691387	keystroke_n	n	n/a
345.7825	0.121	691565	keystroke_s	s	n/a
345.9185	0.119	691837	keystroke_i	i	n/a
346.0075	0.106	692015	keystroke_v	v	n/a
346.1135	0.1195	692227	keystroke_e	e	n/a
346.188	0.135	692376	keystroke_Key.space	Key.space	n/a
346.3835	0.09	692767	keystroke_c	c	n/a
346.4585	0.09	692917	keystroke_h	h	n/a
346.5785	0.09	693157	keystroke_r	r	n/a
346.6535	0.12	693307	keystroke_o	o	n/a
346.7135	0.135	693427	keystroke_m	m	n/a
346.8185	0.12	693637	keystroke_e	e	n/a
346.9075	0.106	693815	keystroke_Key.space	Key.space	n/a
347.1635	0.12	694327	keystroke_c	c	n/a
347.2385	0.06	694477	keystroke_o	o	n/a
347.3585	0.135	694717	keystroke_n	n	n/a
347.4935	0.075	694987	keystroke_t	t	n/a
347.6135	0.09	695227	keystroke_a	a	n/a
347.6735	0.1045	695347	keystroke_i	i	n/a
347.733	0.12	695466	keystroke_n	n	n/a
347.823	0.06	695646	keystroke_e	e	n/a
347.988	0.105	695976	keystroke_d	d	n/a
348.108	0.0895	696216	keystroke_Key.space	Key.space	n/a
348.2125	0.12	696425	keystroke_s	s	n/a
348.3335	0.164	696667	keystroke_p	p	n/a
348.4675	0.105	696935	keystroke_e	e	n/a
348.6025	0.105	697205	keystroke_c	c	n/a
348.7375	0.06	697475	keystroke_i	i	n/a
348.7825	0.135	697565	keystroke_a	a	n/a
348.9475	0.06	697895	keystroke_l	l	n/a
349.0825	0.09	698165	keystroke_l	l	n/a
349.1575	0.075	698315	keystroke_y	y	n/a
349.293	0.06	698586	keystroke_Key.enter	Key.enter	n/a
349.359	4.0005	698718	prompt	n/a	followed time belize concord\n
350.0425	0.12	700085	keystroke_f	f	n/a
350.1785	0.06	700357	keystroke_o	o	n/a
350.3135	0.075	700627	keystroke_l	l	n/a
350.4335	0.075	700867	keystroke_l	l	n/a
350.5985	0.105	701197	keystroke_o	o	n/a
350.6585	0.09	701317	keystroke_w	w	n/a
350.8535	0.06	701707	keystroke_e	e	n/a
351.0185	0.12	702037	keystroke_d	d	n/a
351.1085	0.15	702217	keystroke_Key.space	Key.space	n/a
351.2135	0.105	702427	keystroke_t	t	n/a
351.2735	0.12	702547	keystroke_i	i	n/a
351.3335	0.15	702667	keystroke_m	m	n/a
351.4085	0.105	702817	keystroke_e	e	n/a
351.4685	0.135	702937	keystroke_Key.space	Key.space	n/a
351.6335	0.09	703267	keystroke_b	b	n/a
351.7535	0.1045	703507	keystroke_e	e	n/a
351.843	0.06	703686	keystroke_l	l	n/a
351.978	0.12	703956	keystroke_i	i	n/a
352.083	0.135	704166	keystroke_z	z	n/a
352.158	0.15	704316	keystroke_e	e	n/a
352.278	0.105	704556	keystroke_Key.space	Key.space	n/a
352.458	0.105	704916	keystroke_c	c	n/a
352.518	0.075	705036	keystroke_o	o	n/a
352.638	0.105	705276	keystroke_n	n	n/a
352.713	0.105	705426	keystroke_c	c	n/a
352.848	0.09	705696	keystroke_o	o	n/a
352.968	0.075	705936	keystroke_r	r	n/a
353.133	0.0745	706266	keystroke_d	d	n/a
353.2675	0.09	706535	keystroke_Key.enter	Key.enter	n/a
353.363	6.2215	706726	prompt	n/a	pharmaceutical honduras cleaning hash\n
354.2425	0.045	708485	keystroke_p	p	n/a
354.3935	0.135	708787	keystroke_h	h	n/a
354.5135	0.1495	709027	keystroke_a	a	n/a
354.633	0.105	709266	keystroke_r	r	n/a
354.753	0.0905	709506	keystroke_m	m	n/a
354.8285	0.15	709657	keystroke_a	a	n/a
355.083	0.075	710166	keystroke_c	c	n/a
355.263	0.075	710526	keystroke_e	e	n/a
355.458	0.075	710916	keystroke_u	u	n/a
355.6985	0.0745	711397	keystroke_t	t	n/a
355.818	0.075	711636	keystroke_i	i	n/a
355.923	0.105	711846	keystroke_c	c	n/a
355.998	0.1205	711996	keystroke_a	a	n/a
356.103	0.0905	712206	keystroke_l	l	n/a
356.1785	0.12	712357	keystroke_Key.space	Key.space	n/a
356.3435	0.09	712687	keystroke_h	h	n/a
356.4935	0.0745	712987	keystroke_o	o	n/a
356.6435	0.0895	713287	keystroke_n	n	n/a
356.718	0.12	713436	keystroke_d	d	n/a
356.853	0.12	713706	keystroke_u	u	n/a
356.988	0.1055	713976	keystroke_r	r	n/a
357.1685	0.1795	714337	keystroke_a	a	n/a
357.303	0.18	714606	keystroke_s	s	n/a
357.453	0.105	714906	keystroke_Key.space	Key.space	n/a
357.618	0.12	715236	keystroke_c	c	n/a
357.708	0.12	715416	keystroke_l	l	n/a
357.813	0.1205	715626	keystroke_e	e	n/a
357.8735	0.135	715747	keystroke_a	a	n/a
357.9635	0.075	715927	keystroke_n	n	n/a
358.0985	0.1045	716197	keystroke_i	i	n/a
358.173	0.105	716346	keystroke_n	n	n/a
358.248	0.12	716496	keystroke_g	g	n/a
358.323	0.165	716646	keystroke_Key.space	Key.space	n/a
359.0435	0.12	718087	keystroke_h	h	n/a
359.0735	0.165	718147	keystroke_a	a	n/a
359.1935	0.12	718387	keystroke_s	s	n/a
359.3285	0.09	718657	keystroke_h	h	n/a
359.5085	0.075	719017	keystroke_Key.enter	Key.enter	n/a
359.5875	4.782	719175	prompt	n/a	randy threat competing tracker\n
360.213	0.105	720426	keystroke_r	r	n/a
360.303	0.15	720606	keystroke_a	a	n/a
360.423	0.091	720846	keystroke_n	n	n/a
360.498	0.105	720996	keystroke_d	d	n/a
360.843	0.09	721686	keystroke_y	y	n/a
361.008	0.1205	722016	keystroke_Key.space	Key.space	n/a
361.2935	0.0745	722587	keystroke_t	t	n/a
361.369	0.119	722738	keystroke_h	h	n/a
361.428	0.15	722856	keystroke_r	r	n/a
361.533	0.165	723066	keystroke_e	e	n/a
361.623	0.15	723246	keystroke_a	a	n/a
361.833	0.105	723666	keystroke_t	t	n/a
361.893	0.12	723786	keystroke_Key.space	Key.space	n/a
362.283	0.09	724566	keystroke_c	c	n/a
362.358	0.105	724716	keystroke_o	o	n/a
362.403	0.105	724806	keystroke_m	m	n/a
362.583	0.105	725166	keystroke_p	p	n/a
362.7335	0.105	725467	keystroke_e	e	n/a
362.8835	0.06	725767	keystroke_t	t	n/a
362.9585	0.105	725917	keystroke_i	i	n/a
362.9885	0.135	725977	keystroke_n	n	n/a
363.0785	0.105	726157	keystroke_g	g	n/a
363.1535	0.12	726307	keystroke_Key.space	Key.space	n/a
363.3635	0.105	726727	keystroke_t	t	n/a
363.4385	0.075	726877	keystroke_r	r	n/a
363.5735	0.149	727147	keystroke_a	a	n/a
363.6785	0.09	727357	keystroke_c	c	n/a
363.7535	0.0895	727507	keystroke_k	k	n/a
363.903	0.09	727806	keystroke_e	e	n/a
363.948	0.105	727896	keystroke_r	r	n/a
364.278	0.09	728556	keystroke_Key.enter	Key.enter	n/a
364.3725	6.4175	728745	prompt	n/a	administrator surgeons privacy naked\n
365.043	0.135	730086	keystroke_a	a	n/a
365.118	0.135	730236	keystroke_d	d	n/a
365.253	0.075	730506	keystroke_m	m	n/a
365.358	0.0895	730716	keystroke_i	i	n/a
365.433	0.0595	730866	keystroke_n	n	n/a
365.5375	0.105	731075	keystroke_i	i	n/a
365.613	0.0895	731226	keystroke_s	s	n/a
365.7175	0.135	731435	keystroke_t	t	n/a
365.7775	0.12	731555	keystroke_r	r	n/a
365.943	0.1505	731886	keystroke_a	a	n/a
366.0485	0.105	732097	keystroke_t	t	n/a
366.198	0.09	732396	keystroke_o	o	n/a
366.303	0.105	732606	keystroke_r	r	n/a
366.378	0.105	732756	keystroke_Key.space	Key.space	n/a
366.573	0.15	733146	keystroke_s	s	n/a
366.678	0.12	733356	keystroke_u	u	n/a
366.783	0.075	733566	keystroke_r	r	n/a
366.948	0.0605	733896	keystroke_g	g	n/a
367.0985	0.105	734197	keystroke_e	e	n/a
367.2335	0.06	734467	keystroke_o	o	n/a
367.3685	0.09	734737	keystroke_n	n	n/a
367.4735	0.15	734947	keystroke_s	s	n/a
367.5935	0.105	735187	keystroke_Key.space	Key.space	n/a
367.7135	0.09	735427	keystroke_p	p	n/a
367.8335	0.075	735667	keystroke_r	r	n/a
367.9385	0.12	735877	keystroke_i	i	n/a
368.0435	0.09	736087	keystroke_v	v	n/a
368.328	0.105	736656	keystroke_c	c	n/a
368.418	0.15	736836	keystroke_a	a	n/a
369.258	0.075	738516	keystroke_Key.backspace	Key.backspace	n/a
369.408	0.075	738816	keystroke_Key.backspace	Key.backspace	n/a
369.498	0.1205	738996	keystroke_a	a	n/a
369.5585	0.12	739117	keystroke_c	c	n/a
369.8585	0.09	739717	keystroke_y	y	n/a
370.0085	0.105	740017	keystroke_Key.space	Key.space	n/a
370.1435	0.12	740287	keystroke_n	n	n/a
370.2485	0.12	740497	keystroke_a	a	n/a
370.3535	0.105	740707	keystroke_k	k	n/a
370.4435	0.06	740887	keystroke_e	e	n/a
370.5935	0.105	741187	keystroke_d	d	n/a
370.7135	0.075	741427	keystroke_Key.enter	Key.enter	n/a
370.7925	8.412	741585	prompt	n/a	consistency interior lebanon term\n
372.153	0.1055	744306	keystroke_l	l	n/a
373.428	0.06	746856	keystroke_Key.backspace	Key.backspace	n/a
374.493	0.135	748986	keystroke_c	c	n/a
374.629	0.044	749258	keystroke_o	o	n/a
374.748	0.12	749496	keystroke_n	n	n/a
374.898	0.1355	749796	keystroke_s	s	n/a
375.0785	0.12	750157	keystroke_i	i	n/a
375.1385	0.15	750277	keystroke_s	s	n/a
375.3035	0.09	750607	keystroke_t	t	n/a
375.4385	0.105	750877	keystroke_e	e	n/a
375.5585	0.09	751117	keystroke_n	n	n/a
375.6635	0.06	751327	keystroke_c	c	n/a
375.8885	0.09	751777	keystroke_y	y	n/a
375.9485	0.09	751897	keystroke_Key.space	Key.space	n/a
376.1135	0.1045	752227	keystroke_i	i	n/a
376.1735	0.1345	752347	keystroke_n	n	n/a
376.233	0.09	752466	keystroke_t	t	n/a
376.368	0.09	752736	keystroke_e	e	n/a
376.428	0.09	752856	keystroke_r	r	n/a
376.533	0.195	753066	keystroke_i	i	n/a
376.608	0.105	753216	keystroke_o	o	n/a
376.758	0.06	753516	keystroke_r	r	n/a
376.9385	0.0895	753877	keystroke_Key.space	Key.space	n/a
377.388	0.12	754776	keystroke_l	l	n/a
377.493	0.105	754986	keystroke_e	e	n/a
377.613	0.075	755226	keystroke_b	b	n/a
377.7185	0.12	755437	keystroke_a	a	n/a
377.8085	0.075	755617	keystroke_n	n	n/a
378.033	0.06	756066	keystroke_o	o	n/a
378.168	0.0905	756336	keystroke_n	n	n/a
378.3185	0.105	756637	keystroke_Key.space	Key.space	n/a
378.4685	0.075	756937	keystroke_t	t	n/a
378.6035	0.105	757207	keystroke_e	e	n/a
378.6635	0.105	757327	keystroke_r	r	n/a
378.7535	0.09	757507	keystroke_m	m	n/a
379.1135	0.0895	758227	keystroke_Key.enter	Key.enter	n/a
379.211	6.2035	758422	prompt	n/a	dancing weights flights changelog\n
379.878	0.0745	759756	keystroke_d	d	n/a
379.9825	0.136	759965	keystroke_a	a	n/a
380.0735	0.104	760147	keystroke_n	n	n/a
380.1625	0.09	760325	keystroke_c	c	n/a
380.2675	0.09	760535	keystroke_i	i	n/a
380.2985	0.119	760597	keystroke_n	n	n/a
380.3875	0.0905	760775	keystroke_g	g	n/a
380.448	0.105	760896	keystroke_Key.space	Key.space	n/a
380.628	0.15	761256	keystroke_w	w	n/a
380.733	0.12	761466	keystroke_e	e	n/a
380.868	0.09	761736	keystroke_i	i	n/a
380.988	0.09	761976	keystroke_g	g	n/a
381.063	0.12	762126	keystroke_h	h	n/a
381.168	0.12	762336	keystroke_t	t	n/a
381.303	0.135	762606	keystroke_s	s	n/a
381.393	0.135	762786	keystroke_Key.space	Key.space	n/a
381.573	0.09	763146	keystroke_l	l	n/a
381.633	0.06	763266	keystroke_f	f	n/a
382.278	0.0455	764556	keystroke_Key.backspace	Key.backspace	n/a
382.3985	0.075	764797	keystroke_Key.backspace	Key.backspace	n/a
383.2985	0.09	766597	keystroke_f	f	n/a
383.3585	0.06	766717	keystroke_l	l	n/a
383.4935	0.09	766987	keystroke_i	i	n/a
383.5985	0.06	767197	keystroke_g	g	n/a
383.6735	0.12	767347	keystroke_h	h	n/a
383.7335	0.135	767467	keystroke_t	t	n/a
383.8535	0.1645	767707	keystroke_s	s	n/a
383.973	0.15	767946	keystroke_Key.space	Key.space	n/a
384.2885	0.105	768577	keystroke_c	c	n/a
384.3785	0.075	768757	keystroke_h	h	n/a
384.4385	0.1045	768877	keystroke_a	a	n/a
384.544	0.104	769088	keystroke_n	n	n/a
384.633	0.075	769266	keystroke_g	g	n/a
384.693	0.09	769386	keystroke_e	e	n/a
384.798	0.06	769596	keystroke_l	l	n/a
384.978	0.09	769956	keystroke_o	o	n/a
385.098	0.075	770196	keystroke_g	g	n/a
385.368	0.045	770736	keystroke_Key.enter	Key.enter	n/a
385.418	4.692	770836	prompt	n/a	climate differential paso brands\n
385.983	0.1205	771966	keystroke_d	d	n/a
386.3135	0.045	772627	keystroke_Key.backspace	Key.backspace	n/a
386.4935	0.105	772987	keystroke_c	c	n/a
386.5835	0.06	773167	keystroke_l	l	n/a
386.7185	0.135	773437	keystroke_i	i	n/a
386.8085	0.165	773617	keystroke_m	m	n/a
386.9585	0.09	773917	keystroke_a	a	n/a
387.2135	0.045	774427	keystroke_t	t	n/a
387.2285	0.09	774457	keystroke_e	e	n/a
387.3035	0.12	774607	keystroke_Key.space	Key.space	n/a
387.4535	0.09	774907	keystroke_d	d	n/a
387.5285	0.075	775057	keystroke_i	i	n/a
387.6185	0.06	775237	keystroke_f	f	n/a
387.7385	0.105	775477	keystroke_f	f	n/a
387.8585	0.12	775717	keystroke_e	e	n/a
387.9485	0.135	775897	keystroke_r	r	n/a
388.0235	0.12	776047	keystroke_e	e	n/a
388.1585	0.105	776317	keystroke_n	n	n/a
388.2485	0.09	776497	keystroke_t	t	n/a
388.3535	0.12	776707	keystroke_i	i	n/a
388.4585	0.09	776917	keystroke_a	a	n/a
388.5635	0.074	777127	keystroke_l	l	n/a
388.668	0.12	777336	keystroke_Key.space	Key.space	n/a
388.8625	0.075	777725	keystroke_p	p	n/a
388.9385	0.1345	777877	keystroke_a	a	n/a
389.028	0.1045	778056	keystroke_s	s	n/a
389.1185	0.09	778237	keystroke_o	o	n/a
389.2375	0.12	778475	keystroke_Key.space	Key.space	n/a
389.3585	0.105	778717	keystroke_b	b	n/a
389.4775	0.105	778955	keystroke_r	r	n/a
389.5675	0.136	779135	keystroke_a	a	n/a
389.6735	0.105	779347	keystroke_n	n	n/a
389.7485	0.18	779497	keystroke_d	d	n/a
389.8535	0.12	779707	keystroke_s	s	n/a
390.033	0.075	780066	keystroke_Key.enter	Key.enter	n/a
390.1145	5.6355	780229	prompt	n/a	government develop hunger bend\n
391.023	0.0905	782046	keystroke_g	g	n/a
391.0985	0.12	782197	keystroke_o	o	n/a
391.1885	0.06	782377	keystroke_v	v	n/a
391.2925	0.12	782585	keystroke_e	e	n/a
391.3685	0.12	782737	keystroke_r	r	n/a
391.4435	0.104	782887	keystroke_n	n	n/a
391.7135	0.045	783427	keystroke_m	m	n/a
391.8185	0.059	783637	keystroke_e	e	n/a
391.8635	0.089	783727	keystroke_n	n	n/a
391.9685	0.1195	783937	keystroke_t	t	n/a
392.073	0.12	784146	keystroke_Key.space	Key.space	n/a
392.883	0.075	785766	keystroke_d	d	n/a
393.0635	0.06	786127	keystroke_e	e	n/a
393.2135	0.045	786427	keystroke_v	v	n/a
393.3185	0.075	786637	keystroke_e	e	n/a
393.4535	0.075	786907	keystroke_l	l	n/a
393.6935	0.18	787387	keystroke_o	o	n/a
393.7835	0.105	787567	keystroke_p	p	n/a
394.158	0.105	788316	keystroke_Key.space	Key.space	n/a
394.443	0.12	788886	keystroke_h	h	n/a
394.548	0.09	789096	keystroke_u	u	n/a
394.698	0.12	789396	keystroke_n	n	n/a
394.803	0.06	789606	keystroke_g	g	n/a
394.953	0.105	789906	keystroke_e	e	n/a
394.998	0.135	789996	keystroke_r	r	n/a
395.073	0.135	790146	keystroke_Key.space	Key.space	n/a
395.268	0.075	790536	keystroke_b	b	n/a
395.344	0.074	790688	keystroke_e	e	n/a
395.448	0.09	790896	keystroke_n	n	n/a
395.553	0.045	791106	keystroke_d	d	n/a
395.643	0.1055	791286	keystroke_Key.enter	Key.enter	n/a
395.753	5.427	791506	prompt	n/a	selling jokes bracelets weddings\n
396.3335	0.15	792667	keystroke_s	s	n/a
396.4535	0.15	792907	keystroke_e	e	n/a
396.6335	0.045	793267	keystroke_l	l	n/a
396.7535	0.075	793507	keystroke_l	l	n/a
396.9485	0.135	793897	keystroke_i	i	n/a
397.0085	0.15	794017	keystroke_n	n	n/a
397.0685	0.12	794137	keystroke_g	g	n/a
397.1435	0.105	794287	keystroke_Key.space	Key.space	n/a
397.2635	0.09	794527	keystroke_j	j	n/a
397.4135	0.135	794827	keystroke_o	o	n/a
397.5185	0.12	795037	keystroke_k	k	n/a
397.6535	0.18	795307	keystroke_e	e	n/a
397.7285	0.15	795457	keystroke_s	s	n/a
397.8185	0.15	795637	keystroke_Key.space	Key.space	n/a
397.9535	0.12	795907	keystroke_b	b	n/a
398.0585	0.075	796117	keystroke_r	r	n/a
398.1185	0.1645	796237	keystroke_a	a	n/a
398.268	0.135	796536	keystroke_c	c	n/a
398.388	0.105	796776	keystroke_e	e	n/a
398.538	0.09	797076	keystroke_l	l	n/a
398.643	0.12	797286	keystroke_e	e	n/a
398.823	0.12	797646	keystroke_t	t	n/a
398.988	0.1655	797976	keystroke_s	s	n/a
399.1685	0.15	798337	keystroke_Key.space	Key.space	n/a
399.4685	0.045	798937	keystroke_m	m	n/a
399.7375	0.076	799475	keystroke_Key.backspace	Key.backspace	n/a
399.8585	0.09	799717	keystroke_w	w	n/a
400.0535	0.045	800107	keystroke_e	e	n/a
400.233	0.0755	800466	keystroke_d	d	n/a
400.3535	0.1195	800707	keystroke_d	d	n/a
400.6685	0.1195	801337	keystroke_i	i	n/a
400.713	0.1505	801426	keystroke_n	n	n/a
400.803	0.135	801606	keystroke_g	g	n/a
400.893	0.12	801786	keystroke_s	s	n/a
401.088	0.09	802176	keystroke_Key.enter	Key.enter	n/a
401.1825	6.3425	802365	prompt	n/a	alleged disabled occasions citations\n
401.748	0.121	803496	keystroke_a	a	n/a
401.884	0.059	803768	keystroke_l	l	n/a
402.003	0.15	804006	keystroke_l	l	n/a
402.093	0.091	804186	keystroke_e	e	n/a
402.2435	0.09	804487	keystroke_g	g	n/a
402.3635	0.09	804727	keystroke_e	e	n/a
402.5435	0.12	805087	keystroke_d	d	n/a
402.6485	0.105	805297	keystroke_Key.space	Key.space	n/a
402.7685	0.15	805537	keystroke_d	d	n/a
402.8585	0.15	805717	keystroke_s	s	n/a
402.9785	0.12	805957	keystroke_i	i	n/a
403.8335	0.03	807667	keystroke_Key.backspace	Key.backspace	n/a
403.938	0.105	807876	keystroke_Key.backspace	Key.backspace	n/a
404.193	0.06	808386	keystroke_i	i	n/a
404.283	0.09	808566	keystroke_s	s	n/a
404.448	0.12	808896	keystroke_a	a	n/a
404.553	0.075	809106	keystroke_b	b	n/a
404.688	0.09	809376	keystroke_l	l	n/a
404.793	0.061	809586	keystroke_e	e	n/a
404.959	0.104	809918	keystroke_d	d	n/a
405.048	0.1205	810096	keystroke_Key.space	Key.space	n/a
405.1985	0.09	810397	keystroke_o	o	n/a
405.3935	0.03	810787	keystroke_c	c	n/a
405.4985	0.09	810997	keystroke_c	c	n/a
405.6335	0.135	811267	keystroke_a	a	n/a
405.7235	0.135	811447	keystroke_s	s	n/a
405.8135	0.18	811627	keystroke_i	i	n/a
405.8885	0.09	811777	keystroke_o	o	n/a
405.9485	0.135	811897	keystroke_n	n	n/a
406.0535	0.1345	812107	keystroke_s	s	n/a
406.248	0.1055	812496	keystroke_Key.space	Key.space	n/a
406.4435	0.12	812887	keystroke_c	c	n/a
406.5935	0.1345	813187	keystroke_i	i	n/a
406.759	0.104	813518	keystroke_t	t	n/a
406.908	0.12	813816	keystroke_a	a	n/a
406.998	0.105	813996	keystroke_t	t	n/a
407.058	0.21	814116	keystroke_i	i	n/a
407.118	0.12	814236	keystroke_o	o	n/a
407.178	0.135	814356	keystroke_n	n	n/a
407.298	0.09	814596	keystroke_s	s	n/a
407.433	0.09	814866	keystroke_Key.enter	Key.enter	n/a
407.5275	7.1675	815055	prompt	n/a	nutritional specifics something's rally\n
408.1535	0.105	816307	keystroke_n	n	n/a
408.2585	0.12	816517	keystroke_u	u	n/a
408.3635	0.165	816727	keystroke_t	t	n/a
408.4535	0.105	816907	keystroke_r	r	n/a
408.6335	0.12	817267	keystroke_i	i	n/a
409.5335	0.0905	819067	keystroke_t	t	n/a
409.699	0.195	819398	keystroke_i	i	n/a
409.759	0.104	819518	keystroke_o	o	n/a
409.833	0.136	819666	keystroke_n	n	n/a
409.939	0.09	819878	keystroke_a	a	n/a
410.029	0.1195	820058	keystroke_l	l	n/a
