onset	duration	sample	value	key	prompt_text
2.4475	14.9185	4895	prompt	n/a	the quick brown fox jumps over a lazy dog\n
6.5355	0.117	13071	keystroke_t	t	n/a
6.6075	0.225	13215	keystroke_h	h	n/a
6.7725	0.3	13545	keystroke_e	e	n/a
7.0125	0.24	14025	keystroke_Key.space	Key.space	n/a
7.5375	0.194	15075	keystroke_q	q	n/a
7.7165	0.255	15433	keystroke_u	u	n/a
7.8815	0.18	15763	keystroke_i	i	n/a
8.1215	0.225	16243	keystroke_c	c	n/a
8.2865	0.27	16573	keystroke_k	k	n/a
8.5715	0.18	17143	keystroke_Key.space	Key.space	n/a
8.9465	0.24	17893	keystroke_b	b	n/a
9.1565	0.2095	18313	keystroke_r	r	n/a
9.306	0.255	18612	keystroke_o	o	n/a
9.531	0.151	19062	keystroke_w	w	n/a
9.712	0.225	19424	keystroke_n	n	n/a
9.952	0.195	19904	keystroke_Key.space	Key.space	n/a
10.207	0.165	20414	keystroke_f	f	n/a
10.387	0.24	20774	keystroke_o	o	n/a
10.567	0.21	21134	keystroke_x	x	n/a
10.792	0.18	21584	keystroke_Key.space	Key.space	n/a
11.122	0.195	22244	keystroke_j	j	n/a
11.4975	0.18	22995	keystroke_u	u	n/a
11.9325	0.27	23865	keystroke_m	m	n/a
12.1875	0.27	24375	keystroke_p	p	n/a
12.4425	0.15	24885	keystroke_s	s	n/a
12.7875	0.21	25575	keystroke_Key.space	Key.space	n/a
13.3425	0.2855	26685	keystroke_o	o	n/a
13.658	0.165	27316	keystroke_v	v	n/a
13.867	0.24	27734	keystroke_e	e	n/a
14.018	0.21	28036	keystroke_r	r	n/a
14.123	0.2235	28246	keystroke_Key.space	Key.space	n/a
14.453	0.209	28906	keystroke_a	a	n/a
14.647	0.2405	29294	keystroke_Key.space	Key.space	n/a
15.0675	0.225	30135	keystroke_l	l	n/a
15.2475	0.165	30495	keystroke_a	a	n/a
15.5775	0.195	31155	keystroke_z	z	n/a
15.6975	0.21	31395	keystroke_y	y	n/a
15.9975	0.225	31995	keystroke_Key.space	Key.space	n/a
16.4925	0.18	32985	keystroke_d	d	n/a
16.6425	0.27	33285	keystroke_o	o	n/a
16.8975	0.15	33795	keystroke_g	g	n/a
17.1675	0.195	34335	keystroke_Key.enter	Key.enter	n/a
17.3755	7.714	34751	prompt	n/a	realtors fault yacht reload\n
18.172	0.21	36344	keystroke_r	r	n/a
18.292	0.18	36584	keystroke_e	e	n/a
18.427	0.225	36854	keystroke_a	a	n/a
18.607	0.24	37214	keystroke_l	l	n/a
18.997	0.195	37994	keystroke_t	t	n/a
19.177	0.225	38354	keystroke_o	o	n/a
19.372	0.285	38744	keystroke_r	r	n/a
19.582	0.165	39164	keystroke_s	s	n/a
19.777	0.225	39554	keystroke_Key.space	Key.space	n/a
20.017	0.225	40034	keystroke_f	f	n/a
20.152	0.24	40304	keystroke_a	a	n/a
20.377	0.24	40754	keystroke_u	u	n/a
20.542	0.225	41084	keystroke_l	l	n/a
20.7225	0.1795	41445	keystroke_t	t	n/a
21.1275	0.21	42255	keystroke_Key.space	Key.space	n/a
21.6525	0.165	43305	keystroke_y	y	n/a
21.8325	0.21	43665	keystroke_a	a	n/a
22.1925	0.195	44385	keystroke_c	c	n/a
22.3725	0.24	44745	keystroke_h	h	n/a
22.6725	0.195	45345	keystroke_t	t	n/a
23.0625	0.27	46125	keystroke_Key.space	Key.space	n/a
23.4525	0.195	46905	keystroke_r	r	n/a
23.5875	0.165	47175	keystroke_e	e	n/a
23.7825	0.165	47565	keystroke_l	l	n/a
24.0975	0.24	48195	keystroke_o	o	n/a
24.2925	0.181	48585	keystroke_a	a	n/a
24.5925	0.151	49185	keystroke_d	d	n/a
24.8625	0.225	49725	keystroke_Key.enter	Key.enter	n/a
25.096	27.655	50192	prompt	n/a	jonathan champion collaborative complement\n
26.3935	0.194	52787	keystroke_n	n	n/a
26.6325	0.285	53265	keystroke_o	o	n/a
26.8575	0.121	53715	keystroke_n	n	n/a
27.1875	0.12	54375	keystroke_Key.backspace	Key.backspace	n/a
27.3975	0.105	54795	keystroke_Key.backspace	Key.backspace	n/a
27.5925	0.12	55185	keystroke_Key.backspace	Key.backspace	n/a
28.2675	0.18	56535	keystroke_n	n	n/a
29.1375	0.21	58275	keystroke_Key.backspace	Key.backspace	n/a
30.3985	0.194	60797	keystroke_j	j	n/a
30.6075	0.285	61215	keystroke_o	o	n/a
31.0125	0.27	62025	keystroke_n	n	n/a
31.2975	0.18	62595	keystroke_a	a	n/a
32.1235	0.179	64247	keystroke_t	t	n/a
32.3775	0.166	64755	keystroke_h	h	n/a
32.4825	0.211	64965	keystroke_a	a	n/a
32.7235	0.209	65447	keystroke_n	n	n/a
32.9925	0.24	65985	keystroke_Key.space	Key.space	n/a
33.3825	0.226	66765	keystroke_c	c	n/a
33.5925	0.121	67185	keystroke_a	a	n/a
34.2525	0.165	68505	keystroke_Key.backspace	Key.backspace	n/a
34.8085	0.195	69617	keystroke_h	h	n/a
35.1235	0.209	70247	keystroke_a	a	n/a
35.4825	0.166	70965	keystroke_m	m	n/a
35.8285	0.284	71657	keystroke_p	p	n/a
36.2035	0.15	72407	keystroke_s	s	n/a
36.3985	0.329	72797	keystroke_i	i	n/a
36.6975	0.09	73395	keystroke_o	o	n/a
36.9825	0.12	73965	keystroke_Key.backspace	Key.backspace	n/a
37.1775	0.105	74355	keystroke_Key.backspace	Key.backspace	n/a
37.3725	0.105	74745	keystroke_Key.backspace	Key.backspace	n/a
37.9435	0.255	75887	keystroke_i	i	n/a
38.1835	0.345	76367	keystroke_o	o	n/a
38.4075	0.211	76815	keystroke_n	n	n/a
38.8885	0.254	77777	keystroke_Key.space	Key.space	n/a
39.5185	0.165	79037	keystroke_c	c	n/a
39.6835	0.179	79367	keystroke_o	o	n/a
39.9675	0.166	79935	keystroke_l	l	n/a
40.2085	0.315	80417	keystroke_l	l	n/a
40.3735	0.24	80747	keystroke_a	a	n/a
40.6735	0.195	81347	keystroke_r	r	n/a
41.3635	0.165	82727	keystroke_Key.backspace	Key.backspace	n/a
41.9175	0.241	83835	keystroke_b	b	n/a
42.2935	0.18	84587	keystroke_a	a	n/a
43.3875	0.165	86775	keystroke_Key.backspace	Key.backspace	n/a
46.9165	0.162	93833	keystroke_o	o	n/a
47.0635	0.24	94127	keystroke_r	r	n/a
47.2885	0.179	94577	keystroke_a	a	n/a
47.4825	0.181	94965	keystroke_t	t	n/a
47.7085	0.21	95417	keystroke_i	i	n/a
47.9035	0.21	95807	keystroke_v	v	n/a
48.0685	0.21	96137	keystroke_e	e	n/a
48.3075	0.225	96615	keystroke_Key.space	Key.space	n/a
48.7435	0.18	97487	keystroke_c	c	n/a
48.8485	0.344	97697	keystroke_o	o	n/a
49.0285	0.195	98057	keystroke_m	m	n/a
49.9885	0.225	99977	keystroke_p	p	n/a
50.5285	0.27	101057	keystroke_l	l	n/a
50.9185	0.18	101837	keystroke_e	e	n/a
51.4135	0.165	102827	keystroke_m	m	n/a
51.5635	0.21	103127	keystroke_e	e	n/a
51.8485	0.21	103697	keystroke_n	n	n/a
52.0425	0.166	104085	keystroke_t	t	n/a
52.5535	0.195	105107	keystroke_Key.enter	Key.enter	n/a
52.7575	20.948	105515	prompt	n/a	elderly follows certified cialis\n
53.7085	0.15	107417	keystroke_e	e	n/a
53.9185	0.255	107837	keystroke_l	l	n/a
54.1885	0.15	108377	keystroke_d	d	n/a
54.2185	0.06	108437	keystroke_l	l	n/a
54.5635	0.21	109127	keystroke_e	e	n/a
54.7285	0.18	109457	keystroke_r	r	n/a
55.3885	0.135	110777	keystroke_y	y	n/a
55.9425	0.181	111885	keystroke_Key.backspace	Key.backspace	n/a
57.3085	0.18	114617	keystroke_l	l	n/a
57.7735	0.195	115547	keystroke_y	y	n/a
58.1635	0.225	116327	keystroke_Key.space	Key.space	n/a
58.5385	0.21	117077	keystroke_f	f	n/a
58.7335	0.165	117467	keystroke_o	o	n/a
59.0635	0.18	118127	keystroke_l	l	n/a
59.4235	0.165	118847	keystroke_l	l	n/a
60.2335	0.135	120467	keystroke_Key.backspace	Key.backspace	n/a
60.5185	0.045	121037	keystroke_Key.backspace	Key.backspace	n/a
60.6835	0.09	121367	keystroke_Key.backspace	Key.backspace	n/a
60.9235	0.315	121847	keystroke_Key.backspace	Key.backspace	n/a
61.3585	0.09	122717	keystroke_Key.backspace	Key.backspace	n/a
61.6285	0.105	123257	keystroke_Key.backspace	Key.backspace	n/a
61.8835	0.18	123767	keystroke_Key.backspace	Key.backspace	n/a
62.2285	0.135	124457	keystroke_Key.backspace	Key.backspace	n/a
62.4085	0.165	124817	keystroke_Key.backspace	Key.backspace	n/a
62.9635	0.165	125927	keystroke_Key.backspace	Key.backspace	n/a
63.4885	0.24	126977	keystroke_e	e	n/a
63.6535	0.195	127307	keystroke_r	r	n/a
64.4335	0.225	128867	keystroke_l	l	n/a
64.8385	0.21	129677	keystroke_y	y	n/a
65.0935	0.21	130187	keystroke_Key.space	Key.space	n/a
65.3185	0.165	130637	keystroke_f	f	n/a
65.5885	0.21	131177	keystroke_o	o	n/a
66.2035	0.18	132407	keystroke_l	l	n/a
66.5185	0.18	133037	keystroke_l	l	n/a
66.9085	0.345	133817	keystroke_o	o	n/a
67.1035	0.18	134207	keystroke_w	w	n/a
67.4935	0.15	134987	keystroke_s	s	n/a
67.8535	0.24	135707	keystroke_Key.space	Key.space	n/a
68.5585	0.21	137117	keystroke_c	c	n/a
68.7835	0.24	137567	keystroke_e	e	n/a
68.9935	0.18	137987	keystroke_r	r	n/a
69.3985	0.15	138797	keystroke_t	t	n/a
69.7435	0.18	139487	keystroke_i	i	n/a
70.0735	0.15	140147	keystroke_f	f	n/a
70.3585	0.225	140717	keystroke_i	i	n/a
70.5985	0.18	141197	keystroke_e	e	n/a
70.9435	0.21	141887	keystroke_d	d	n/a
71.1535	0.195	142307	keystroke_Key.space	Key.space	n/a
71.5885	0.195	143177	keystroke_c	c	n/a
71.7685	0.255	143537	keystroke_i	i	n/a
72.1585	0.195	144317	keystroke_a	a	n/a
72.4885	0.285	144977	keystroke_l	l	n/a
72.7135	0.225	145427	keystroke_i	i	n/a
72.9535	0.195	145907	keystroke_s	s	n/a
73.4935	0.21	146987	keystroke_Key.enter	Key.enter	n/a
73.712	11.079	147424	prompt	n/a	click halifax tribes arbor\n
74.4985	0.18	148997	keystroke_c	c	n/a
74.5435	0.21	149087	keystroke_l	l	n/a
74.6935	0.255	149387	keystroke_i	i	n/a
75.4285	0.18	150857	keystroke_c	c	n/a
75.6235	0.21	151247	keystroke_k	k	n/a
76.1335	0.18	152267	keystroke_Key.space	Key.space	n/a
76.5835	0.21	153167	keystroke_h	h	n/a
76.7785	0.18	153557	keystroke_a	a	n/a
76.9135	0.36	153827	keystroke_l	l	n/a
77.1235	0.255	154247	keystroke_i	i	n/a
77.4535	0.21	154907	keystroke_f	f	n/a
77.7685	0.12	155537	keystroke_a	a	n/a
78.0835	0.195	156167	keystroke_x	x	n/a
78.5185	0.24	157037	keystroke_Key.space	Key.space	n/a
78.9385	0.18	157877	keystroke_t	t	n/a
79.2985	0.15	158597	keystroke_r	r	n/a
79.4635	0.315	158927	keystroke_i	i	n/a
79.7335	0.03	159467	keystroke_n	n	n/a
79.7485	0.225	159497	keystroke_b	b	n/a
79.9885	0.24	159977	keystroke_e	e	n/a
80.1835	0.135	160367	keystroke_s	s	n/a
80.5585	0.105	161117	keystroke_Key.backspace	Key.backspace	n/a
80.7685	0.09	161537	keystroke_Key.backspace	Key.backspace	n/a
80.9635	0.12	161927	keystroke_Key.backspace	Key.backspace	n/a
81.5935	0.15	163187	keystroke_Key.backspace	Key.backspace	n/a
82.1185	0.21	164237	keystroke_b	b	n/a
82.2985	0.195	164597	keystroke_e	e	n/a
82.4635	0.135	164927	keystroke_s	s	n/a
82.7635	0.225	165527	keystroke_Key.space	Key.space	n/a
83.2435	0.255	166487	keystroke_a	a	n/a
83.4995	0.179	166999	keystroke_r	r	n/a
83.8435	0.2255	167687	keystroke_b	b	n/a
84.084	0.195	168168	keystroke_o	o	n/a
84.204	0.135	168408	keystroke_r	r	n/a
84.609	0.179	169218	keystroke_Key.enter	Key.enter	n/a
84.7975	10.974	169595	prompt	n/a	registry iran program ages\n
85.599	0.27	171198	keystroke_r	r	n/a
85.839	0.164	171678	keystroke_e	e	n/a
86.754	0.195	173508	keystroke_g	g	n/a
87.129	0.224	174258	keystroke_i	i	n/a
87.459	0.075	174918	keystroke_s	s	n/a
88.224	0.15	176448	keystroke_t	t	n/a
88.524	0.15	177048	keystroke_r	r	n/a
88.764	0.195	177528	keystroke_y	y	n/a
89.184	0.195	178368	keystroke_Key.space	Key.space	n/a
89.589	0.225	179178	keystroke_i	i	n/a
89.724	0.195	179448	keystroke_r	r	n/a
89.994	0.195	179988	keystroke_a	a	n/a
90.219	0.18	180438	keystroke_n	n	n/a
90.564	0.165	181128	keystroke_Key.space	Key.space	n/a
91.074	0.195	182148	keystroke_p	p	n/a
91.614	0.195	183228	keystroke_o	o	n/a
92.079	0.135	184158	keystroke_Key.backspace	Key.backspace	n/a
92.289	0.21	184578	keystroke_r	r	n/a
92.589	0.315	185178	keystroke_o	o	n/a
92.994	0.195	185988	keystroke_g	g	n/a
93.339	0.225	186678	keystroke_r	r	n/a
93.519	0.18	187038	keystroke_a	a	n/a
93.684	0.195	187368	keystroke_m	m	n/a
94.344	0.195	188688	keystroke_Key.space	Key.space	n/a
94.599	0.24	189198	keystroke_a	a	n/a
94.869	0.24	189738	keystroke_g	g	n/a
95.064	0.21	190128	keystroke_e	e	n/a
95.229	0.135	190458	keystroke_s	s	n/a
95.574	0.195	191148	keystroke_Key.enter	Key.enter	n/a
95.777	12.0535	191554	prompt	n/a	tail suggested specials tucson\n
96.909	0.225	193818	keystroke_t	t	n/a
97.104	0.21	194208	keystroke_a	a	n/a
97.299	0.24	194598	keystroke_i	i	n/a
97.449	0.195	194898	keystroke_l	l	n/a
97.959	0.195	195918	keystroke_Key.space	Key.space	n/a
98.229	0.18	196458	keystroke_s	s	n/a
98.529	0.195	197058	keystroke_u	u	n/a
98.964	0.105	197928	keystroke_g	g	n/a
99.219	0.255	198438	keystroke_g	g	n/a
99.414	0.225	198828	keystroke_e	e	n/a
99.579	0.165	199158	keystroke_s	s	n/a
99.804	0.195	199608	keystroke_t	t	n/a
99.969	0.165	199938	keystroke_e	e	n/a
100.359	0.18	200718	keystroke_d	d	n/a
100.749	0.21	201498	keystroke_Key.space	Key.space	n/a
100.944	0.165	201888	keystroke_s	s	n/a
101.289	0.24	202578	keystroke_p	p	n/a
101.514	0.195	203028	keystroke_e	e	n/a
102.4735	0.15	204947	keystroke_c	c	n/a
102.5635	0.225	205127	keystroke_i	i	n/a
103.3435	0.15	206687	keystroke_a	a	n/a
103.4485	0.165	206897	keystroke_l	l	n/a
103.6885	0.18	207377	keystroke_s	s	n/a
103.9135	0.195	207827	keystroke_Key.space	Key.space	n/a
104.5585	0.18	209117	keystroke_t	t	n/a
104.7085	0.18	209417	keystroke_u	u	n/a
104.9185	0.18	209837	keystroke_s	s	n/a
105.5935	0.15	211187	keystroke_c	c	n/a
106.7185	0.375	213437	keystroke_o	o	n/a
107.0185	0.18	214037	keystroke_n	n	n/a
107.6485	0.18	215297	keystroke_Key.enter	Key.enter	n/a
107.838	14.1675	215676	prompt	n/a	appliance followed bone kitchen\n
108.7735	0.18	217547	keystroke_a	a	n/a
109.0135	0.15	218027	keystroke_p	p	n/a
109.2685	0.21	218537	keystroke_p	p	n/a
109.7335	0.285	219467	keystroke_l	l	n/a
109.9435	0.195	219887	keystroke_i	i	n/a
110.2585	0.18	220517	keystroke_c	c	n/a
110.7685	0.12	221537	keystroke_a	a	n/a
111.0685	0.12	222137	keystroke_Key.backspace	Key.backspace	n/a
111.2935	0.105	222587	keystroke_Key.backspace	Key.backspace	n/a
111.564	0.195	223128	keystroke_a	a	n/a
111.849	0.225	223698	keystroke_n	n	n/a
112.283	0.211	224566	keystroke_c	c	n/a
112.434	0.225	224868	keystroke_e	e	n/a
113.274	0.195	226548	keystroke_Key.space	Key.space	n/a
113.484	0.195	226968	keystroke_f	f	n/a
113.664	0.21	227328	keystroke_o	o	n/a
114.009	0.135	228018	keystroke_l	l	n/a
114.249	0.18	228498	keystroke_l	l	n/a
114.624	0.195	229248	keystroke_o	o	n/a
114.999	0.135	229998	keystroke_r	r	n/a
115.539	0.18	231078	keystroke_Key.backspace	Key.backspace	n/a
115.734	0.225	231468	keystroke_w	w	n/a
115.884	0.165	231768	keystroke_e	e	n/a
116.259	0.21	232518	keystroke_d	d	n/a
116.979	0.15	233958	keystroke_Key.space	Key.space	n/a
117.504	0.195	235008	keystroke_b	b	n/a
117.864	0.345	235728	keystroke_o	o	n/a
118.074	0.165	236148	keystroke_n	n	n/a
118.239	0.21	236478	keystroke_e	e	n/a
118.704	0.225	237408	keystroke_Key.space	Key.space	n/a
119.169	0.18	238338	keystroke_k	k	n/a
119.604	0.225	239208	keystroke_i	i	n/a
119.844	0.165	239688	keystroke_t	t	n/a
120.339	0.15	240678	keystroke_c	c	n/a
120.699	0.165	241398	keystroke_h	h	n/a
120.879	0.195	241758	keystroke_e	e	n/a
121.179	0.21	242358	keystroke_n	n	n/a
121.839	0.165	243678	keystroke_Key.enter	Key.enter	n/a
122.0115	13.7045	244023	prompt	n/a	annoying minute operator element\n
122.979	0.21	245958	keystroke_a	a	n/a
123.129	0.12	246258	keystroke_n	n	n/a
123.369	0.165	246738	keystroke_n	n	n/a
123.594	0.27	247188	keystroke_o	o	n/a
123.894	0.045	247788	keystroke_o	o	n/a
123.984	0.195	247968	keystroke_y	y	n/a
124.329	0.315	248658	keystroke_i	i	n/a
124.569	0.18	249138	keystroke_n	n	n/a
125.109	0.12	250218	keystroke_Key.backspace	Key.backspace	n/a
125.334	0.09	250668	keystroke_Key.backspace	Key.backspace	n/a
125.529	0.12	251058	keystroke_Key.backspace	Key.backspace	n/a
125.724	0.15	251448	keystroke_Key.backspace	Key.backspace	n/a
126.489	0.165	252978	keystroke_y	y	n/a
126.984	0.375	253968	keystroke_i	i	n/a
127.194	0.15	254388	keystroke_n	n	n/a
127.434	0.18	254868	keystroke_g	g	n/a
127.629	0.21	255258	keystroke_Key.space	Key.space	n/a
128.109	0.195	256218	keystroke_m	m	n/a
128.319	0.315	256638	keystroke_i	i	n/a
128.514	0.135	257028	keystroke_n	n	n/a
128.889	0.21	257778	keystroke_u	u	n/a
129.084	0.18	258168	keystroke_t	t	n/a
129.219	0.195	258438	keystroke_e	e	n/a
129.534	0.195	259068	keystroke_Key.space	Key.space	n/a
129.864	0.24	259728	keystroke_o	o	n/a
130.119	0.345	260238	keystroke_p	p	n/a
130.284	0.165	260568	keystroke_e	e	n/a
130.389	0.225	260778	keystroke_r	r	n/a
130.719	0.21	261438	keystroke_a	a	n/a
130.974	0.165	261948	keystroke_t	t	n/a
131.229	0.27	262458	keystroke_o	o	n/a
131.514	0.21	263028	keystroke_r	r	n/a
132.909	0.18	265818	keystroke_Key.space	Key.space	n/a
133.104	0.165	266208	keystroke_e	e	n/a
133.374	0.24	266748	keystroke_l	l	n/a
133.465	0.164	266930	keystroke_e	e	n/a
134.124	0.18	268248	keystroke_m	m	n/a
134.379	0.21	268758	keystroke_e	e	n/a
134.724	0.225	269448	keystroke_n	n	n/a
135.084	0.15	270168	keystroke_t	t	n/a
135.474	0.24	270948	keystroke_Key.enter	Key.enter	n/a
135.721	12.5345	271442	prompt	n/a	interviews juvenile hopes airlines\n
136.569	0.315	273138	keystroke_i	i	n/a
136.764	0.15	273528	keystroke_n	n	n/a
136.899	0.165	273798	keystroke_t	t	n/a
137.049	0.21	274098	keystroke_e	e	n/a
137.184	0.165	274368	keystroke_r	r	n/a
137.619	0.21	275238	keystroke_v	v	n/a
137.874	0.21	275748	keystroke_i	i	n/a
137.994	0.21	275988	keystroke_e	e	n/a
138.159	0.18	276318	keystroke_w	w	n/a
138.519	0.225	277038	keystroke_s	s	n/a
139.149	0.195	278298	keystroke_Key.space	Key.space	n/a
139.479	0.195	278958	keystroke_j	j	n/a
139.839	0.15	279678	keystroke_u	u	n/a
139.944	0.195	279888	keystroke_v	v	n/a
140.124	0.18	280248	keystroke_e	e	n/a
140.424	0.18	280848	keystroke_n	n	n/a
140.769	0.21	281538	keystroke_i	i	n/a
140.934	0.255	281868	keystroke_l	l	n/a
141.174	0.12	282348	keystroke_e	e	n/a
141.249	0.03	282498	keystroke_l	l	n/a
141.609	0.165	283218	keystroke_Key.space	Key.space	n/a
141.939	0.18	283878	keystroke_h	h	n/a
142.029	0.36	284058	keystroke_o	o	n/a
142.344	0.21	284688	keystroke_p	p	n/a
142.599	0.225	285198	keystroke_e	e	n/a
143.184	0.195	286368	keystroke_s	s	n/a
144.339	0.18	288678	keystroke_Key.space	Key.space	n/a
144.8185	0.225	289637	keystroke_a	a	n/a
145.0285	0.225	290057	keystroke_i	i	n/a
145.2235	0.195	290447	keystroke_r	r	n/a
145.4785	0.255	290957	keystroke_l	l	n/a
145.6585	0.135	291317	keystroke_a	a	n/a
145.8385	0.181	291677	keystroke_i	i	n/a
146.1835	0.15	292367	keystroke_Key.backspace	Key.backspace	n/a
146.4085	0.12	292817	keystroke_Key.backspace	Key.backspace	n/a
146.9495	0.329	293899	keystroke_i	i	n/a
147.2485	0.225	294497	keystroke_n	n	n/a
147.5485	0.241	295097	keystroke_e	e	n/a
147.7585	0.135	295517	keystroke_s	s	n/a
148.0585	0.195	296117	keystroke_Key.enter	Key.enter	n/a
148.2595	15.8215	296519	prompt	n/a	humor integrate livecam soldiers\n
149.3495	0.164	298699	keystroke_h	h	n/a
149.6485	0.195	299297	keystroke_u	u	n/a
150.0685	0.3	300137	keystroke_m	m	n/a
150.3535	0.255	300707	keystroke_o	o	n/a
150.6095	0.164	301219	keystroke_r	r	n/a
150.9085	0.27	301817	keystroke_Key.space	Key.space	n/a
151.4035	0.3	302807	keystroke_i	i	n/a
151.5535	0.165	303107	keystroke_n	n	n/a
151.8845	0.194	303769	keystroke_t	t	n/a
152.1235	0.225	304247	keystroke_e	e	n/a
152.5435	0.136	305087	keystroke_r	r	n/a
153.2485	0.15	306497	keystroke_Key.backspace	Key.backspace	n/a
153.5335	0.15	307067	keystroke_g	g	n/a
153.9095	0.209	307819	keystroke_r	r	n/a
154.1035	0.21	308207	keystroke_a	a	n/a
154.4035	0.195	308807	keystroke_t	t	n/a
154.5535	0.18	309107	keystroke_e	e	n/a
155.4385	0.225	310877	keystroke_Key.space	Key.space	n/a
155.7835	0.361	311567	keystroke_l	l	n/a
155.9635	0.225	311927	keystroke_i	i	n/a
156.0695	0.225	312139	keystroke_v	v	n/a
156.2635	0.18	312527	keystroke_e	e	n/a
156.6695	0.179	313339	keystroke_c	c	n/a
156.8185	0.226	313637	keystroke_a	a	n/a
157.2685	0.18	314537	keystroke_m	m	n/a
158.5895	0.209	317179	keystroke_Key.space	Key.space	n/a
158.8745	0.18	317749	keystroke_s	s	n/a
159.1145	0.195	318229	keystroke_o	o	n/a
159.4745	0.374	318949	keystroke_l	l	n/a
159.7145	0.209	319429	keystroke_i	i	n/a
160.0135	0.136	320027	keystroke_d	d	n/a
160.2845	0.24	320569	keystroke_e	e	n/a
160.4645	0.195	320929	keystroke_r	r	n/a
161.0935	0.12	322187	keystroke_Key.backspace	Key.backspace	n/a
161.3335	0.091	322667	keystroke_Key.backspace	Key.backspace	n/a
161.5135	0.09	323027	keystroke_Key.backspace	Key.backspace	n/a
161.6935	0.135	323387	keystroke_Key.backspace	Key.backspace	n/a
162.4745	0.149	324949	keystroke_d	d	n/a
162.9095	0.239	325819	keystroke_i	i	n/a
163.1045	0.284	326209	keystroke_e	e	n/a
163.3285	0.271	326657	keystroke_r	r	n/a
163.5245	0.18	327049	keystroke_s	s	n/a
163.8995	0.179	327799	keystroke_Key.enter	Key.enter	n/a
164.085	11.966	328170	prompt	n/a	highlighted understood live watching\n
164.9485	0.211	329897	keystroke_h	h	n/a
165.0985	0.241	330197	keystroke_i	i	n/a
165.3245	0.165	330649	keystroke_g	g	n/a
165.4595	0.24	330919	keystroke_h	h	n/a
165.6685	0.286	331337	keystroke_l	l	n/a
165.8645	0.225	331729	keystroke_i	i	n/a
166.7945	0.12	333589	keystroke_g	g	n/a
167.0485	0.211	334097	keystroke_h	h	n/a
167.2895	0.225	334579	keystroke_t	t	n/a
167.4695	0.195	334939	keystroke_e	e	n/a
167.8295	0.195	335659	keystroke_d	d	n/a
168.2645	0.225	336529	keystroke_Key.space	Key.space	n/a
168.9095	0.15	337819	keystroke_u	u	n/a
169.2545	0.21	338509	keystroke_n	n	n/a
169.5095	0.179	339019	keystroke_d	d	n/a
169.8235	0.211	339647	keystroke_e	e	n/a
169.9895	0.18	339979	keystroke_r	r	n/a
170.4235	0.226	340847	keystroke_s	s	n/a
170.6645	0.12	341329	keystroke_t	t	n/a
170.7995	0.165	341599	keystroke_o	o	n/a
171.0695	0.165	342139	keystroke_o	o	n/a
171.2945	0.21	342589	keystroke_d	d	n/a
171.4895	0.24	342979	keystroke_Key.space	Key.space	n/a
171.7745	0.285	343549	keystroke_l	l	n/a
171.9845	0.3	343969	keystroke_i	i	n/a
172.2995	0.225	344599	keystroke_v	v	n/a
172.5095	0.195	345019	keystroke_e	e	n/a
172.6745	0.225	345349	keystroke_Key.space	Key.space	n/a
172.9295	0.3	345859	keystroke_w	w	n/a
173.1545	0.225	346309	keystroke_a	a	n/a
173.3945	0.195	346789	keystroke_t	t	n/a
173.9945	0.21	347989	keystroke_c	c	n/a
174.2195	0.24	348439	keystroke_h	h	n/a
174.5045	0.42	349009	keystroke_i	i	n/a
174.7145	0.255	349429	keystroke_n	n	n/a
175.3445	0.165	350689	keystroke_g	g	n/a
175.8695	0.18	351739	keystroke_Key.enter	Key.enter	n/a
176.0565	11.6505	352113	prompt	n/a	eclipse assure bone viking\n
177.2495	0.24	354499	keystroke_e	e	n/a
177.5495	0.21	355099	keystroke_s	s	n/a
179.1245	0.15	358249	keystroke_Key.backspace	Key.backspace	n/a
179.2895	0.195	358579	keystroke_c	c	n/a
179.5895	0.27	359179	keystroke_l	l	n/a
179.8445	0.27	359689	keystroke_i	i	n/a
180.3095	0.24	360619	keystroke_p	p	n/a
180.9245	0.21	361849	keystroke_l	l	n/a
181.1795	0.195	362359	keystroke_e	e	n/a
181.9145	0.21	363829	keystroke_Key.space	Key.space	n/a
182.4095	0.255	364819	keystroke_a	a	n/a
182.6495	0.12	365299	keystroke_s	s	n/a
182.8895	0.18	365779	keystroke_s	s	n/a
183.4295	0.21	366859	keystroke_u	u	n/a
183.6545	0.225	367309	keystroke_r	r	n/a
183.8195	0.165	367639	keystroke_e	e	n/a
183.9245	0.195	367849	keystroke_Key.space	Key.space	n/a
184.3745	0.24	368749	keystroke_b	b	n/a
184.7045	0.45	369409	keystroke_o	o	n/a
184.8995	0.21	369799	keystroke_n	n	n/a
185.1245	0.225	370249	keystroke_e	e	n/a
185.4695	0.24	370939	keystroke_Key.space	Key.space	n/a
185.7695	0.24	371539	keystroke_v	v	n/a
185.9195	0.18	371839	keystroke_i	i	n/a
186.3095	0.195	372619	keystroke_k	k	n/a
186.6395	0.345	373279	keystroke_i	i	n/a
186.8495	0.21	373699	keystroke_n	n	n/a
187.0745	0.195	374149	keystroke_g	g	n/a
187.5545	0.15	375109	keystroke_Key.enter	Key.enter	n/a
187.713	20.74	375426	prompt	n/a	infected dies works invasion\n
197.0075	0.267	394015	keystroke_i	i	n/a
197.1095	0.166	394219	keystroke_n	n	n/a
197.3795	0.18	394759	keystroke_f	f	n/a
197.6945	0.18	395389	keystroke_e	e	n/a
197.9645	0.18	395929	keystroke_c	c	n/a
198.3845	0.225	396769	keystroke_t	t	n/a
198.5495	0.165	397099	keystroke_e	e	n/a
198.8795	0.15	397759	keystroke_d	d	n/a
199.1045	0.225	398209	keystroke_Key.space	Key.space	n/a
200.7245	0.165	401449	keystroke_d	d	n/a
200.8595	0.271	401719	keystroke_i	i	n/a
201.1445	0.225	402289	keystroke_e	e	n/a
201.3105	0.149	402621	keystroke_s	s	n/a
201.7145	0.18	403429	keystroke_Key.space	Key.space	n/a
202.0895	0.166	404179	keystroke_w	w	n/a
202.2395	0.21	404479	keystroke_o	o	n/a
202.4655	0.179	404931	keystroke_r	r	n/a
202.7645	0.18	405529	keystroke_k	k	n/a
203.0045	0.136	406009	keystroke_s	s	n/a
203.3355	0.179	406671	keystroke_Key.space	Key.space	n/a
203.6195	0.315	407239	keystroke_i	i	n/a
203.7995	0.165	407599	keystroke_n	n	n/a
204.0395	0.255	408079	keystroke_v	v	n/a
204.3695	0.315	408739	keystroke_a	a	n/a
207.2985	0.071	414597	keystroke_s	s	n/a
207.3855	0.255	414771	keystroke_i	i	n/a
207.5805	0.285	415161	keystroke_o	o	n/a
207.7455	0.179	415491	keystroke_n	n	n/a
208.2545	0.195	416509	keystroke_Key.enter	Key.enter	n/a
208.4585	14.125	416917	prompt	n/a	recommendations bands thanksgiving daily\n
209.4255	0.18	418851	keystroke_r	r	n/a
209.5455	0.165	419091	keystroke_e	e	n/a
209.9795	0.181	419959	keystroke_c	c	n/a
210.0695	0.286	420139	keystroke_o	o	n/a
210.3705	0.15	420741	keystroke_m	m	n/a
210.6255	0.15	421251	keystroke_m	m	n/a
211.1355	0.21	422271	keystroke_e	e	n/a
211.48	0.195	422960	keystroke_n	n	n/a
211.72	0.21	423440	keystroke_d	d	n/a
211.975	0.24	423950	keystroke_a	a	n/a
212.23	0.165	424460	keystroke_t	t	n/a
212.41	0.345	424820	keystroke_i	i	n/a
212.695	0.36	425390	keystroke_o	o	n/a
212.86	0.196	425720	keystroke_n	n	n/a
213.115	0.165	426230	keystroke_s	s	n/a
214.345	0.225	428690	keystroke_Key.space	Key.space	n/a
215.665	0.165	431330	keystroke_b	b	n/a
215.845	0.18	431690	keystroke_a	a	n/a
216.13	0.195	432260	keystroke_n	n	n/a
216.28	0.18	432560	keystroke_d	d	n/a
216.43	0.15	432860	keystroke_s	s	n/a
216.79	0.15	433580	keystroke_Key.space	Key.space	n/a
217.045	0.225	434090	keystroke_t	t	n/a
217.435	0.21	434870	keystroke_h	h	n/a
217.69	0.21	435380	keystroke_a	a	n/a
217.99	0.3	435980	keystroke_n	n	n/a
218.291	0.209	436582	keystroke_k	k	n/a
218.575	0.225	437150	keystroke_s	s	n/a
219.055	0.211	438110	keystroke_g	g	n/a
219.25	0.195	438500	keystroke_i	i	n/a
219.52	0.1795	439040	keystroke_v	v	n/a
219.655	0.3145	439310	keystroke_i	i	n/a
219.82	0.1795	439640	keystroke_n	n	n/a
220.015	0.195	440030	keystroke_g	g	n/a
220.255	0.225	440510	keystroke_Key.space	Key.space	n/a
220.495	0.2095	440990	keystroke_d	d	n/a
220.8845	0.21	441769	keystroke_a	a	n/a
221.0945	0.27	442189	keystroke_i	i	n/a
221.3495	0.225	442699	keystroke_l	l	n/a
221.9795	0.105	443959	keystroke_y	y	n/a
222.4145	0.165	444829	keystroke_Key.enter	Key.enter	n/a
222.5895	10.102	445179	prompt	n/a	editions lime problem dialog\n
223.4495	0.15	446899	keystroke_e	e	n/a
223.8245	0.195	447649	keystroke_d	d	n/a
224.0645	0.195	448129	keystroke_i	i	n/a
224.4395	0.15	448879	keystroke_t	t	n/a
224.5595	0.285	449119	keystroke_i	i	n/a
224.8295	0.33	449659	keystroke_o	o	n/a
225.0245	0.18	450049	keystroke_n	n	n/a
225.2345	0.24	450469	keystroke_s	s	n/a
225.7145	0.225	451429	keystroke_Key.space	Key.space	n/a
226.2995	0.24	452599	keystroke_l	l	n/a
226.7495	0.345	453499	keystroke_i	i	n/a
226.9605	0.179	453921	keystroke_m	m	n/a
227.1845	0.21	454369	keystroke_e	e	n/a
227.6795	0.21	455359	keystroke_Key.space	Key.space	n/a
228.2045	0.225	456409	keystroke_p	p	n/a
228.4145	0.18	456829	keystroke_r	r	n/a
228.5795	0.24	457159	keystroke_o	o	n/a
229.0745	0.195	458149	keystroke_b	b	n/a
229.4945	0.27	458989	keystroke_l	l	n/a
229.7045	0.165	459409	keystroke_e	e	n/a
230.0495	0.165	460099	keystroke_m	m	n/a
230.2895	0.195	460579	keystroke_Key.space	Key.space	n/a
230.4995	0.195	460999	keystroke_d	d	n/a
230.8005	0.285	461601	keystroke_i	i	n/a
231.0545	0.226	462109	keystroke_a	a	n/a
231.5195	0.165	463039	keystroke_l	l	n/a
231.8495	0.225	463699	keystroke_o	o	n/a
232.0895	0.18	464179	keystroke_g	g	n/a
232.5245	0.165	465049	keystroke_Key.enter	Key.enter	n/a
232.698	12.324	465396	prompt	n/a	lists masters adrian venue\n
233.6505	0.239	467301	keystroke_l	l	n/a
233.8295	0.165	467659	keystroke_i	i	n/a
233.9505	0.24	467901	keystroke_s	s	n/a
234.2205	0.314	468441	keystroke_t	t	n/a
234.4155	0.18	468831	keystroke_s	s	n/a
234.7445	0.225	469489	keystroke_Key.space	Key.space	n/a
235.1205	0.164	470241	keystroke_l	l	n/a
235.3605	0.135	470721	keystroke_m	m	n/a
235.7055	0.165	471411	keystroke_Key.backspace	Key.backspace	n/a
235.9595	0.105	471919	keystroke_Key.backspace	Key.backspace	n/a
236.3805	0.179	472761	keystroke_m	m	n/a
236.6805	0.284	473361	keystroke_a	a	n/a
236.9495	0.226	473899	keystroke_s	s	n/a
237.2355	0.255	474471	keystroke_t	t	n/a
237.5205	0.195	475041	keystroke_e	e	n/a
237.6555	0.24	475311	keystroke_r	r	n/a
237.8205	0.224	475641	keystroke_s	s	n/a
238.644	0.2405	477288	keystroke_Key.space	Key.space	n/a
238.9155	0.18	477831	keystroke_a	a	n/a
239.1555	0.195	478311	keystroke_d	d	n/a
239.4845	0.196	478969	keystroke_r	r	n/a
239.7705	0.285	479541	keystroke_i	i	n/a
240.1305	0.21	480261	keystroke_a	a	n/a
240.3555	0.18	480711	keystroke_n	n	n/a
240.8355	0.209	481671	keystroke_Key.space	Key.space	n/a
241.0905	0.21	482181	keystroke_v	v	n/a
241.3155	0.21	482631	keystroke_e	e	n/a
241.4655	0.21	482931	keystroke_n	n	n/a
242.0205	0.21	484041	keystroke_u	u	n/a
242.2605	0.21	484521	keystroke_e	e	n/a
242.5145	0.255	485029	keystroke_Key.shift_r	Key.shift_r	n/a
244.8585	0.162	489717	keystroke_Key.enter	Key.enter	n/a
245.027	8.9215	490054	prompt	n/a	supplier char service muscle\n
245.9505	0.15	491901	keystroke_s	s	n/a
246.2955	0.225	492591	keystroke_u	u	n/a
246.8655	0.18	493731	keystroke_p	p	n/a
247.1205	0.255	494241	keystroke_p	p	n/a
247.6905	0.255	495381	keystroke_l	l	n/a
247.8705	0.3	495741	keystroke_i	i	n/a
248.1405	0.165	496281	keystroke_e	e	n/a
248.2605	0.18	496521	keystroke_r	r	n/a
248.5305	0.225	497061	keystroke_Key.space	Key.space	n/a
248.8005	0.285	497601	keystroke_c	c	n/a
249.1005	0.21	498201	keystroke_h	h	n/a
249.2505	0.24	498501	keystroke_a	a	n/a
249.4455	0.165	498891	keystroke_r	r	n/a
249.6555	0.225	499311	keystroke_Key.space	Key.space	n/a
249.8355	0.21	499671	keystroke_s	s	n/a
249.9855	0.165	499971	keystroke_e	e	n/a
250.1055	0.165	500211	keystroke_r	r	n/a
250.4805	0.195	500961	keystroke_v	v	n/a
250.9155	0.375	501831	keystroke_i	i	n/a
251.1255	0.195	502251	keystroke_c	c	n/a
251.2905	0.18	502581	keystroke_e	e	n/a
251.5155	0.21	503031	keystroke_Key.space	Key.space	n/a
251.8755	0.195	503751	keystroke_m	m	n/a
252.2655	0.18	504531	keystroke_u	u	n/a
252.4155	0.195	504831	keystroke_s	s	n/a
252.8205	0.225	505641	keystroke_c	c	n/a
253.1055	0.27	506211	keystroke_l	l	n/a
253.3605	0.18	506721	keystroke_e	e	n/a
253.6905	0.255	507381	keystroke_Key.enter	Key.enter	n/a
253.955	19.118	507910	prompt	n/a	gang these figure broader\n
255.2805	0.165	510561	keystroke_l	l	n/a
255.8655	0.18	511731	keystroke_Key.backspace	Key.backspace	n/a
256.3005	0.2695	512601	keystroke_g	g	n/a
256.54	0.225	513080	keystroke_a	a	n/a
256.945	0.255	513890	keystroke_n	n	n/a
257.2155	0.1795	514431	keystroke_g	g	n/a
258.16	0.21	516320	keystroke_Key.space	Key.space	n/a
258.445	0.21	516890	keystroke_t	t	n/a
258.7	0.255	517400	keystroke_h	h	n/a
258.85	0.315	517700	keystroke_e	e	n/a
259.12	0.24	518240	keystroke_s	s	n/a
259.27	0.1955	518540	keystroke_e	e	n/a
259.45	0.24	518900	keystroke_Key.space	Key.space	n/a
259.84	0.225	519680	keystroke_d	d	n/a
260.0355	0.2545	520071	keystroke_i	i	n/a
260.485	0.18	520970	keystroke_f	f	n/a
260.5	0.045	521000	keystroke_g	g	n/a
262.075	0.12	524150	keystroke_Key.backspace	Key.backspace	n/a
262.3	0.12	524600	keystroke_Key.backspace	Key.backspace	n/a
262.585	0.165	525170	keystroke_Key.backspace	Key.backspace	n/a
263.44	0.195	526880	keystroke_Key.backspace	Key.backspace	n/a
264.19	0.15	528380	keystroke_f	f	n/a
265.585	0.225	531170	keystroke_i	i	n/a
266.02	0.165	532040	keystroke_g	g	n/a
266.29	0.21	532580	keystroke_u	u	n/a
266.575	0.255	533150	keystroke_r	r	n/a
266.755	0.18	533510	keystroke_e	e	n/a
267.43	0.15	534860	keystroke_Key.space	Key.space	n/a
268.735	0.195	537470	keystroke_b	b	n/a
268.975	0.21	537950	keystroke_r	r	n/a
269.305	0.225	538610	keystroke_o	o	n/a
269.515	0.21	539030	keystroke_a	a	n/a
269.92	0.165	539840	keystroke_d	d	n/a
270.25	0.225	540500	keystroke_e	e	n/a
270.43	0.165	540860	keystroke_r	r	n/a
271	0.21	542000	keystroke_'	'	n/a
272.365	0.105	544730	keystroke_Key.backspace	Key.backspace	n/a
272.965	0.105	545930	keystroke_Key.enter	Key.enter	n/a
273.079	17.0775	546158	prompt	n/a	offerings careers town subscriber\n
274.8395	0.24	549679	keystroke_o	o	n/a
275.0195	0.165	550039	keystroke_f	f	n/a
275.3495	0.195	550699	keystroke_f	f	n/a
275.5145	0.255	551029	keystroke_e	e	n/a
275.7545	0.165	551509	keystroke_r	r	n/a
276.1295	0.33	552259	keystroke_i	i	n/a
276.3245	0.18	552649	keystroke_n	n	n/a
276.5645	0.24	553129	keystroke_g	g	n/a
276.7595	0.165	553519	keystroke_s	s	n/a
277.1795	0.18	554359	keystroke_Key.space	Key.space	n/a
277.4945	0.27	554989	keystroke_c	c	n/a
277.8245	0.255	555649	keystroke_a	a	n/a
278.1395	0.12	556279	keystroke_r	r	n/a
278.4245	0.225	556849	keystroke_r	r	n/a
278.6345	0.24	557269	keystroke_e	e	n/a
279.4295	0.15	558859	keystroke_Key.backspace	Key.backspace	n/a
279.7745	0.135	559549	keystroke_Key.backspace	Key.backspace	n/a
280.0305	0.179	560061	keystroke_e	e	n/a
280.4045	0.165	560809	keystroke_e	e	n/a
280.7195	0.316	561439	keystroke_r	r	n/a
280.9745	0.18	561949	keystroke_s	s	n/a
281.7395	0.27	563479	keystroke_Key.space	Key.space	n/a
282.2655	0.194	564531	keystroke_t	t	n/a
282.3995	0.21	564799	keystroke_o	o	n/a
282.6695	0.181	565339	keystroke_w	w	n/a
282.9845	0.151	565969	keystroke_b	b	n/a
284.0195	0.15	568039	keystroke_Key.backspace	Key.backspace	n/a
285.5345	0.135	571069	keystroke_n	n	n/a
285.9695	0.225	571939	keystroke_Key.space	Key.space	n/a
286.4045	0.18	572809	keystroke_s	s	n/a
286.7195	0.18	573439	keystroke_u	u	n/a
287.1395	0.181	574279	keystroke_b	b	n/a
287.4405	0.164	574881	keystroke_s	s	n/a
287.9355	0.149	575871	keystroke_c	c	n/a
288.4755	0.194	576951	keystroke_r	r	n/a
288.7745	0.196	577549	keystroke_i	i	n/a
289.2545	0.21	578509	keystroke_b	b	n/a
289.4495	0.226	578899	keystroke_e	e	n/a
289.6445	0.15	579289	keystroke_r	r	n/a
289.9895	0.165	579979	keystroke_Key.enter	Key.enter	n/a
290.1625	12.925	580325	prompt	n/a	vernon wallace universities nissan\n
291.3855	0.18	582771	keystroke_v	v	n/a
291.6095	0.211	583219	keystroke_e	e	n/a
291.7905	0.149	583581	keystroke_r	r	n/a
291.9105	0.194	583821	keystroke_n	n	n/a
292.1645	0.301	584329	keystroke_o	o	n/a
292.3755	0.18	584751	keystroke_n	n	n/a
292.7205	0.179	585441	keystroke_Key.space	Key.space	n/a
292.9295	0.241	585859	keystroke_w	w	n/a
293.1405	0.195	586281	keystroke_a	a	n/a
293.2905	0.134	586581	keystroke_l	l	n/a
293.5445	0.226	587089	keystroke_l	l	n/a
293.8005	0.18	587601	keystroke_a	a	n/a
294.1445	0.256	588289	keystroke_c	c	n/a
294.3855	0.195	588771	keystroke_e	e	n/a
294.5345	0.211	589069	keystroke_Key.space	Key.space	n/a
295.0605	0.164	590121	keystroke_u	u	n/a
295.4955	0.27	590991	keystroke_n	n	n/a
295.7495	0.21	591499	keystroke_i	i	n/a
296.2905	0.209	592581	keystroke_v	v	n/a
296.5455	0.195	593091	keystroke_e	e	n/a
296.6805	0.21	593361	keystroke_r	r	n/a
297.2205	0.119	594441	keystroke_i	i	n/a
298.2545	0.135	596509	keystroke_Key.backspace	Key.backspace	n/a
299.0205	0.18	598041	keystroke_s	s	n/a
299.7405	0.15	599481	keystroke_i	i	n/a
300.0405	0.18	600081	keystroke_t	t	n/a
300.1755	0.195	600351	keystroke_i	i	n/a
300.4005	0.21	600801	keystroke_e	e	n/a
300.5655	0.18	601131	keystroke_s	s	n/a
300.8805	0.165	601761	keystroke_Key.space	Key.space	n/a
301.2555	0.24	602511	keystroke_n	n	n/a
301.4355	0.195	602871	keystroke_i	i	n/a
301.5855	0.12	603171	keystroke_s	s	n/a
301.8105	0.165	603621	keystroke_s	s	n/a
302.0505	0.195	604101	keystroke_a	a	n/a
302.3955	0.18	604791	keystroke_n	n	n/a
302.9055	0.18	605811	keystroke_Key.enter	Key.enter	n/a
303.0915	19.601	606183	prompt	n/a	skip reserves specializing gather\n
304.1055	0.18	608211	keystroke_s	s	n/a
304.2705	0.15	608541	keystroke_k	k	n/a
304.5405	0.345	609081	keystroke_i	i	n/a
304.9305	0.195	609861	keystroke_p	p	n/a
305.6805	0.18	611361	keystroke_Key.space	Key.space	n/a
306.3555	0.24	612711	keystroke_e	e	n/a
306.5805	0.15	613161	keystroke_r	r	n/a
307.2855	0.165	614571	keystroke_Key.backspace	Key.backspace	n/a
307.5705	0.12	615141	keystroke_Key.backspace	Key.backspace	n/a
308.5305	0.225	617061	keystroke_r	r	n/a
308.6805	0.18	617361	keystroke_e	e	n/a
309.1755	0.21	618351	keystroke_s	s	n/a
309.3405	0.18	618681	keystroke_e	e	n/a
309.4755	0.12	618951	keystroke_r	r	n/a
309.8355	0.225	619671	keystroke_v	v	n/a
310.1055	0.27	620211	keystroke_e	e	n/a
310.2855	0.21	620571	keystroke_s	s	n/a
310.9155	0.21	621831	keystroke_Key.space	Key.space	n/a
311.185	0.1805	622370	keystroke_s	s	n/a
311.5755	0.195	623151	keystroke_p	p	n/a
312.2205	0.075	624441	keystroke_a	a	n/a
312.7605	0.165	625521	keystroke_Key.backspace	Key.backspace	n/a
313.0905	0.165	626181	keystroke_e	e	n/a
313.4955	0.165	626991	keystroke_c	c	n/a
316.1385	0.162	632277	keystroke_i	i	n/a
316.6005	0.21	633201	keystroke_a	a	n/a
316.7955	0.3145	633591	keystroke_l	l	n/a
317.6205	0.165	635241	keystroke_i	i	n/a
317.9655	0.225	635931	keystroke_z	z	n/a
318.4005	0.39	636801	keystroke_i	i	n/a
318.6555	0.165	637311	keystroke_n	n	n/a
318.8955	0.195	637791	keystroke_g	g	n/a
319.3905	0.225	638781	keystroke_Key.space	Key.space	n/a
320.5605	0.225	641121	keystroke_g	g	n/a
321.1005	0.255	642201	keystroke_a	a	n/a
321.4005	0.15	642801	keystroke_t	t	n/a
321.6705	0.225	643341	keystroke_h	h	n/a
321.8965	0.209	643793	keystroke_e	e	n/a
322.0605	0.18	644121	keystroke_r	r	n/a
322.4955	0.195	644991	keystroke_Key.enter	Key.enter	n/a
322.698	12.9545	645396	prompt	n/a	impossible assumes going comedy\n
324.7	0.285	649400	keystroke_i	i	n/a
324.925	0.18	649850	keystroke_m	m	n/a
325.39	0.42	650780	keystroke_p	p	n/a
326.575	0.195	653150	keystroke_o	o	n/a
326.89	0.165	653780	keystroke_s	s	n/a
327.16	0.1655	654320	keystroke_s	s	n/a
327.28	0.21	654560	keystroke_i	i	n/a
327.61	0.2555	655220	keystroke_b	b	n/a
327.8505	0.225	655701	keystroke_l	l	n/a
327.9855	0.2095	655971	keystroke_e	e	n/a
328.33	0.1955	656660	keystroke_Key.space	Key.space	n/a
329.065	0.24	658130	keystroke_a	a	n/a
329.32	0.15	658640	keystroke_s	s	n/a
329.575	0.195	659150	keystroke_s	s	n/a
329.83	0.18	659660	keystroke_u	u	n/a
330.31	0.2855	660620	keystroke_m	m	n/a
330.475	0.21	660950	keystroke_e	e	n/a
330.625	0.15	661250	keystroke_s	s	n/a
331.105	0.015	662210	keystroke_Key.space	Key.space	n/a
331.255	0.18	662510	keystroke_g	g	n/a
331.375	0.315	662750	keystroke_o	o	n/a
331.525	0.24	663050	keystroke_i	i	n/a
331.645	0.21	663290	keystroke_n	n	n/a
331.78	0.045	663560	keystroke_s	s	n/a
331.795	0.18	663590	keystroke_g	g	n/a
331.945	0.225	663890	keystroke_Key.space	Key.space	n/a
332.455	0.135	664910	keystroke_Key.backspace	Key.backspace	n/a
332.695	0.09	665390	keystroke_Key.backspace	Key.backspace	n/a
332.905	0.09	665810	keystroke_Key.backspace	Key.backspace	n/a
333.146	0.164	666292	keystroke_g	g	n/a
333.64	0.21	667280	keystroke_Key.space	Key.space	n/a
333.925	0.195	667850	keystroke_c	c	n/a
334.105	0.345	668210	keystroke_o	o	n/a
334.285	0.18	668570	keystroke_m	m	n/a
334.375	0.15	668750	keystroke_e	e	n/a
334.69	0.18	669380	keystroke_d	d	n/a
334.9	0.18	669800	keystroke_y	y	n/a
335.47	0.18	670940	keystroke_Key.enter	Key.enter	n/a
335.6585	16.7945	671317	prompt	n/a	bedroom lawrence islands investigations\n
336.91	0.195	673820	keystroke_b	b	n/a
337.06	0.21	674120	keystroke_e	e	n/a
337.225	0.18	674450	keystroke_w	w	n/a
337.975	0.195	675950	keystroke_Key.backspace	Key.backspace	n/a
338.365	0.15	676730	keystroke_d	d	n/a
338.995	0.165	677990	keystroke_r	r	n/a
340.51	0.165	681020	keystroke_o	o	n/a
341.006	0.344	682012	keystroke_o	o	n/a
341.53	0.21	683060	keystroke_m	m	n/a
342.265	0.195	684530	keystroke_Key.space	Key.space	n/a
342.595	0.4215	685190	keystroke_l	l	n/a
342.76	0.211	685520	keystroke_a	a	n/a
342.955	0.241	685910	keystroke_w	w	n/a
343.6605	0.24	687321	keystroke_r	r	n/a
343.8405	0.195	687681	keystroke_e	e	n/a
344.1555	0.225	688311	keystroke_n	n	n/a
344.3955	0.18	688791	keystroke_c	c	n/a
344.5005	0.195	689001	keystroke_e	e	n/a
344.9055	0.225	689811	keystroke_Key.space	Key.space	n/a
345.3405	0.24	690681	keystroke_i	i	n/a
345.4755	0.195	690951	keystroke_s	s	n/a
345.8205	0.315	691641	keystroke_l	l	n/a
346.0605	0.255	692121	keystroke_a	a	n/a
346.4055	0.24	692811	keystroke_n	n	n/a
346.6005	0.195	693201	keystroke_d	d	n/a
346.7355	0.225	693471	keystroke_s	s	n/a
347.3505	0.225	694701	keystroke_Key.space	Key.space	n/a
347.9355	0.33	695871	keystroke_i	i	n/a
348.1005	0.21	696201	keystroke_n	n	n/a
348.3705	0.27	696741	keystroke_v	v	n/a
348.7605	0.315	697521	keystroke_e	e	n/a
349.0305	0.21	698061	keystroke_s	s	n/a
349.3605	0.195	698721	keystroke_t	t	n/a
349.7055	0.255	699411	keystroke_i	i	n/a
349.9455	0.255	699891	keystroke_g	g	n/a
350.2155	0.27	700431	keystroke_a	a	n/a
350.4855	0.21	700971	keystroke_t	t	n/a
350.7555	0.285	701511	keystroke_i	i	n/a
350.9205	0.315	701841	keystroke_o	o	n/a
351.1005	0.24	702201	keystroke_n	n	n/a
351.2805	0.195	702561	keystroke_s	s	n/a
352.2255	0.225	704451	keystroke_Key.enter	Key.enter	n/a
352.4595	23.6635	704919	prompt	n/a	connect preceding courage james\n
353.6355	0.165	707271	keystroke_c	c	n/a
353.8305	0.285	707661	keystroke_o	o	n/a
354.0105	0.15	708021	keystroke_n	n	n/a
354.2505	0.24	708501	keystroke_n	n	n/a
354.4005	0.195	708801	keystroke_e	e	n/a
354.6855	0.18	709371	keystroke_c	c	n/a
355.1205	0.15	710241	keystroke_t	t	n/a
356.8305	0.255	713661	keystroke_Key.space	Key.space	n/a
358.9455	0.195	717891	keystroke_[	[	n/a
360.5505	0.12	721101	keystroke_Key.backspace	Key.backspace	n/a
364.3035	0.147	728607	keystroke_p	p	n/a
364.7815	0.194	729563	keystroke_r	r	n/a
364.9165	0.209	729833	keystroke_e	e	n/a
365.3655	0.271	730731	keystroke_c	c	n/a
365.5915	0.224	731183	keystroke_e	e	n/a
365.9665	0.224	731933	keystroke_d	d	n/a
366.2955	0.315	732591	keystroke_i	i	n/a
366.4765	0.18	732953	keystroke_n	n	n/a
366.5955	0.285	733191	keystroke_g	g	n/a
366.8065	0.194	733613	keystroke_s	s	n/a
367.1205	0.24	734241	keystroke_Key.space	Key.space	n/a
367.3755	0.21	734751	keystroke_c	c	n/a
367.6465	0.329	735293	keystroke_o	o	n/a
367.8105	0.21	735621	keystroke_u	u	n/a
367.9915	0.209	735983	keystroke_r	r	n/a
368.5605	0.165	737121	keystroke_Key.backspace	Key.backspace	n/a
368.8155	0.09	737631	keystroke_Key.backspace	Key.backspace	n/a
369.0105	0.105	738021	keystroke_Key.backspace	Key.backspace	n/a
369.1605	0.15	738321	keystroke_Key.backspace	Key.backspace	n/a
369.4605	0.18	738921	keystroke_Key.backspace	Key.backspace	n/a
370.3765	0.179	740753	keystroke_Key.backspace	Key.backspace	n/a
371.7255	0.195	743451	keystroke_Key.space	Key.space	n/a
372.1315	0.2245	744263	keystroke_c	c	n/a
372.371	0.285	744742	keystroke_o	o	n/a
372.536	0.18	745072	keystroke_u	u	n/a
372.641	0.3	745282	keystroke_r	r	n/a
372.986	0.24	745972	keystroke_a	a	n/a
373.211	0.24	746422	keystroke_g	g	n/a
373.406	0.195	746812	keystroke_e	e	n/a
373.721	0.18	747442	keystroke_Key.space	Key.space	n/a
374.261	0.165	748522	keystroke_j	j	n/a
374.441	0.195	748882	keystroke_a	a	n/a
374.741	0.225	749482	keystroke_m	m	n/a
374.891	0.255	749782	keystroke_e	e	n/a
375.116	0.165	750232	keystroke_s	s	n/a
375.971	0.15	751942	keystroke_Key.enter	Key.enter	n/a
376.127	15.3265	752254	prompt	n/a	express else households jennifer\n
377.081	0.15	754162	keystroke_e	e	n/a
378.131	0.345	756262	keystroke_x	x	n/a
379.856	0.09	759712	keystroke_j	j	n/a
380.501	0.15	761002	keystroke_Key.backspace	Key.backspace	n/a
381.716	0.135	763432	keystroke_p	p	n/a
382.061	0.195	764122	keystroke_r	r	n/a
382.211	0.225	764422	keystroke_e	e	n/a
382.391	0.135	764782	keystroke_s	s	n/a
382.661	0.165	765322	keystroke_s	s	n/a
383.381	0.135	766762	keystroke_Key.space	Key.space	n/a
383.666	0.21	767332	keystroke_e	e	n/a
383.966	0.21	767932	keystroke_l	l	n/a
384.131	0.24	768262	keystroke_s	s	n/a
384.296	0.1945	768592	keystroke_e	e	n/a
384.536	0.21	769072	keystroke_Key.space	Key.space	n/a
384.9255	0.18	769851	keystroke_h	h	n/a
385.1205	0.21	770241	keystroke_o	o	n/a
385.2705	0.18	770541	keystroke_u	u	n/a
385.4655	0.195	770931	keystroke_s	s	n/a
385.6155	0.165	771231	keystroke_e	e	n/a
386.3205	0.195	772641	keystroke_h	h	n/a
386.4555	0.15	772911	keystroke_o	o	n/a
386.7555	0.285	773511	keystroke_l	l	n/a
386.9505	0.136	773901	keystroke_d	d	n/a
387.0705	0.225	774141	keystroke_s	s	n/a
388.0605	0.195	776121	keystroke_Key.space	Key.space	n/a
388.4805	0.21	776961	keystroke_j	j	n/a
388.8255	0.225	777651	keystroke_e	e	n/a
389.1555	0.15	778311	keystroke_n	n	n/a
389.8605	0.165	779721	keystroke_n	n	n/a
390.1755	0.211	780351	keystroke_i	i	n/a
390.4305	0.256	780861	keystroke_f	f	n/a
390.6705	0.225	781341	keystroke_e	e	n/a
390.8505	0.165	781701	keystroke_r	r	n/a
391.3755	0.075	782751	keystroke_Key.enter	Key.enter	n/a
391.4605	0.2325	782921	prompt	n/a	charged character corn verzeichnis\n
391.5105	0.18	783021	keystroke_Key.enter	Key.enter	n/a
391.698	18.445	783396	prompt	n/a	sensor investigation nursing pressed\n
392.8155	0.33	785631	keystroke_s	s	n/a
393.0855	0.21	786171	keystroke_e	e	n/a
393.5655	0.21	787131	keystroke_n	n	n/a
394.0455	0.3	788091	keystroke_s	s	n/a
394.3605	0.24	788721	keystroke_o	o	n/a
394.6455	0.196	789291	keystroke_r	r	n/a
395.3055	0.225	790611	keystroke_Key.space	Key.space	n/a
395.6965	0.374	791393	keystroke_i	i	n/a
395.9365	0.164	791873	keystroke_n	n	n/a
396.1305	0.211	792261	keystroke_v	v	n/a
396.5205	0.346	793041	keystroke_e	e	n/a
396.8205	0.21	793641	keystroke_s	s	n/a
397.0455	0.195	794091	keystroke_t	t	n/a
398.1415	0.179	796283	keystroke_i	i	n/a
398.6055	0.211	797211	keystroke_g	g	n/a
398.7865	0.255	797573	keystroke_a	a	n/a
399.0565	0.15	798113	keystroke_t	t	n/a
399.2215	0.255	798443	keystroke_i	i	n/a
399.4005	0.3	798801	keystroke_o	o	n/a
399.5805	0.165	799161	keystroke_n	n	n/a
399.8505	0.15	799701	keystroke_Key.space	Key.space	n/a
400.2565	0.194	800513	keystroke_n	n	n/a
400.8865	0.209	801773	keystroke_u	u	n/a
401.3205	0.21	802641	keystroke_r	r	n/a
402.2065	0.329	804413	keystroke_i	i	n/a
402.4015	0.104	804803	keystroke_n	n	n/a
402.8205	0.15	805641	keystroke_Key.backspace	Key.backspace	n/a
403.0755	0.136	806151	keystroke_Key.backspace	Key.backspace	n/a
403.2865	0.225	806573	keystroke_s	s	n/a
403.8265	0.21	807653	keystroke_i	i	n/a
405.2065	0.195	810413	keystroke_n	n	n/a
405.5505	0.196	811101	keystroke_g	g	n/a
406.1055	0.195	812211	keystroke_Key.space	Key.space	n/a
408.1455	0.211	816291	keystroke_p	p	n/a
408.4455	0.256	816891	keystroke_r	r	n/a
408.6265	0.21	817253	keystroke_e	e	n/a
408.7755	0.181	817551	keystroke_s	s	n/a
409.0605	0.211	818121	keystroke_s	s	n/a
409.2105	0.211	818421	keystroke_e	e	n/a
409.6465	0.21	819293	keystroke_d	d	n/a
409.9915	0.15	819983	keystroke_Key.enter	Key.enter	n/a
410.1515	29.4365	820303	prompt	n/a	developer modem shortly antarctica\n
414.0445	0.147	828089	keystroke_d	d	n/a
414.3715	0.195	828743	keystroke_e	e	n/a
415.2565	0.255	830513	keystroke_c	c	n/a
415.4515	0.15	830903	keystroke_e	e	n/a
416.0515	0.165	832103	keystroke_Key.backspace	Key.backspace	n/a
416.3365	0.105	832673	keystroke_Key.backspace	Key.backspace	n/a
416.5615	0.06	833123	keystroke_Key.backspace	Key.backspace	n/a
417.1765	0.21	834353	keystroke_e	e	n/a
417.8965	0.195	835793	keystroke_v	v	n/a
418.0765	0.24	836153	keystroke_e	e	n/a
418.4665	0.18	836933	keystroke_l	l	n/a
418.9315	0.315	837863	keystroke_o	o	n/a
419.4415	0.105	838883	keystroke_p	p	n/a
419.6815	0.225	839363	keystroke_w	w	n/a
419.8765	0.135	839753	keystroke_e	e	n/a
420.5065	0.15	841013	keystroke_=	=	n/a
421.0915	0.21	842183	keystroke_Key.backspace	Key.backspace	n/a
421.4515	0.15	842903	keystroke_Key.backspace	Key.backspace	n/a
421.7065	0.15	843413	keystroke_Key.backspace	Key.backspace	n/a
424.2595	0	848519	keystroke_h	h	n/a
425.5465	0.12	851093	keystroke_Key.backspace	Key.backspace	n/a
425.9215	0.255	851843	keystroke_e	e	n/a
426.1165	0.18	852233	keystroke_r	r	n/a
426.9865	0.18	853973	keystroke_Key.space	Key.space	n/a
427.3915	0.225	854783	keystroke_m	m	n/a
427.5865	0.255	855173	keystroke_o	o	n/a
427.7065	0.21	855413	keystroke_d	d	n/a
429.2065	0.225	858413	keystroke_e	e	n/a
429.6115	0.09	859223	keystroke_m	m	n/a
430.4065	0.225	860813	keystroke_Key.space	Key.space	n/a
431.3365	0.135	862673	keystroke_s	s	n/a
431.5015	0.24	863003	keystroke_h	h	n/a
431.6515	0.375	863303	keystroke_o	o	n/a
431.8765	0.18	863753	keystroke_r	r	n/a
432.3865	0.1495	864773	keystroke_t	t	n/a
432.627	0.24	865254	keystroke_l	l	n/a
432.987	0.225	865974	keystroke_y	y	n/a
433.257	0.3	866514	keystroke_Key.space	Key.space	n/a
433.916	0.24	867832	keystroke_a	a	n/a
434.112	0.165	868224	keystroke_n	n	n/a
434.847	0.195	869694	keystroke_t	t	n/a
435.732	0.27	871464	keystroke_a	a	n/a
435.972	0.18	871944	keystroke_r	r	n/a
437.561	0.226	875122	keystroke_c	c	n/a
438.402	0.12	876804	keystroke_t	t	n/a
438.567	0.33	877134	keystroke_i	i	n/a
438.792	0.27	877584	keystroke_c	c	n/a
439.047	0.18	878094	keystroke_a	a	n/a
439.391	0.195	878782	keystroke_Key.enter	Key.enter	n/a
439.593	18.5055	879186	prompt	n/a	caught often establishing latex\n
440.427	0.21	880854	keystroke_c	c	n/a
440.577	0.255	881154	keystroke_a	a	n/a
440.817	0.195	881634	keystroke_u	u	n/a
441.147	0.135	882294	keystroke_g	g	n/a
441.327	0.225	882654	keystroke_h	h	n/a
441.7765	0.21	883553	keystroke_t	t	n/a
441.9715	0.255	883943	keystroke_Key.space	Key.space	n/a
442.4215	0.27	884843	keystroke_o	o	n/a
442.677	0.1945	885354	keystroke_f	f	n/a
442.8415	0.21	885683	keystroke_e	e	n/a
443.3815	0.15	886763	keystroke_t	t	n/a
443.7565	0.18	887513	keystroke_Key.backspace	Key.backspace	n/a
444.0265	0.15	888053	keystroke_Key.backspace	Key.backspace	n/a
444.3115	0.255	888623	keystroke_t	t	n/a
444.4915	0.195	888983	keystroke_e	e	n/a
444.6715	0.225	889343	keystroke_n	n	n/a
445.0915	0.255	890183	keystroke_Key.space	Key.space	n/a
445.7815	0.195	891563	keystroke_e	e	n/a
445.9165	0.18	891833	keystroke_s	s	n/a
447.3265	0.195	894653	keystroke_t	t	n/a
447.5365	0.21	895073	keystroke_a	a	n/a
447.9265	0.195	895853	keystroke_b	b	n/a
448.1365	0.375	896273	keystroke_l	l	n/a
448.3465	0.21	896693	keystroke_i	i	n/a
448.5265	0.06	897053	keystroke_l	l	n/a
448.5865	0.18	897173	keystroke_s	s	n/a
448.8115	0.27	897623	keystroke_h	h	n/a
449.0665	0.375	898133	keystroke_i	i	n/a
449.2915	0.21	898583	keystroke_n	n	n/a
449.6965	0.195	899393	keystroke_g	g	n/a
450.0115	0.18	900023	keystroke_Key.space	Key.space	n/a
451.2565	0.15	902513	keystroke_Key.backspace	Key.backspace	n/a
451.5115	0.105	903023	keystroke_Key.backspace	Key.backspace	n/a
451.6915	0.075	903383	keystroke_Key.backspace	Key.backspace	n/a
451.8565	0.345	903713	keystroke_Key.backspace	Key.backspace	n/a
452.2765	0.135	904553	keystroke_Key.backspace	Key.backspace	n/a
452.5315	0.24	905063	keystroke_Key.backspace	Key.backspace	n/a
452.9065	0.195	905813	keystroke_Key.backspace	Key.backspace	n/a
453.2065	0.15	906413	keystroke_Key.backspace	Key.backspace	n/a
454.4815	0.27	908963	keystroke_i	i	n/a
454.7815	0.21	909563	keystroke_s	s	n/a
455.1265	0.15	910253	keystroke_h	h	n/a
455.426	0.465	910852	keystroke_i	i	n/a
455.606	0.255	911212	keystroke_n	n	n/a
455.786	0.21	911572	keystroke_g	g	n/a
456.146	0.21	912292	keystroke_Key.space	Key.space	n/a
456.507	0.435	913014	keystroke_l	l	n/a
456.777	0.254	913554	keystroke_a	a	n/a
457.046	0.181	914092	keystroke_t	t	n/a
457.181	0.165	914362	keystroke_e	e	n/a
457.617	0.209	915234	keystroke_x	x	n/a
457.902	0.194	915804	keystroke_Key.enter	Key.enter	n/a
458.1025	20.7255	916205	prompt	n/a	calcium mobile keyboards mods\n
460.32	0.177	920640	keystroke_c	c	n/a
460.436	0.226	920872	keystroke_a	a	n/a
460.646	0.286	921292	keystroke_l	l	n/a
461.307	0.24	922614	keystroke_c	c	n/a
461.517	0.24	923034	keystroke_i	i	n/a
462.057	0.165	924114	keystroke_u	u	n/a
462.567	0.21	925134	keystroke_m	m	n/a
463.467	0.119	926934	keystroke_Key.space	Key.space	n/a
465.072	0.195	930144	keystroke_m	m	n/a
465.477	0.24	930954	keystroke_o	o	n/a
465.897	0.21	931794	keystroke_b	b	n/a
466.152	0.195	932304	keystroke_i	i	n/a
466.287	0.36	932574	keystroke_l	l	n/a
466.482	0.21	932964	keystroke_e	e	n/a
466.796	0.196	933592	keystroke_Key.space	Key.space	n/a
467.427	0.225	934854	keystroke_k	k	n/a
467.772	0.195	935544	keystroke_e	e	n/a
468.207	0.134	936414	keystroke_y	y	n/a
468.702	0.239	937404	keystroke_b	b	n/a
468.867	0.27	937734	keystroke_o	o	n/a
469.122	0.255	938244	keystroke_a	a	n/a
469.347	0.195	938694	keystroke_r	r	n/a
471.177	0.225	942354	keystroke_d	d	n/a
471.372	0.165	942744	keystroke_s	s	n/a
472.332	0.165	944664	keystroke_Key.space	Key.space	n/a
473.142	0.195	946284	keystroke_m	m	n/a
473.487	0.255	946974	keystroke_o	o	n/a
473.742	0.165	947484	keystroke_x	x	n/a
474.747	0.0445	949494	keystroke_\	\	n/a
474.9265	0.03	949853	keystroke_\	\	n/a
476.4265	0.12	952853	keystroke_Key.backspace	Key.backspace	n/a
476.7265	0.135	953453	keystroke_Key.backspace	Key.backspace	n/a
477.1465	0.15	954293	keystroke_Key.backspace	Key.backspace	n/a
477.5365	0.21	955073	keystroke_d	d	n/a
477.7015	0.15	955403	keystroke_s	s	n/a
478.7365	0.09	957473	keystroke_Key.enter	Key.enter	n/a
478.8325	19.556	957665	prompt	n/a	thru discretion ballet black\n
483.7195	0.177	967439	keystroke_t	t	n/a
483.9565	0.21	967913	keystroke_h	h	n/a
484.2415	0.225	968483	keystroke_r	r	n/a
484.5415	0.195	969083	keystroke_u	u	n/a
485.1565	0.165	970313	keystroke_Key.space	Key.space	n/a
485.4865	0.21	970973	keystroke_d	d	n/a
485.7415	0.24	971483	keystroke_i	i	n/a
485.9965	0.225	971993	keystroke_s	s	n/a
487.0165	0.18	974033	keystroke_c	c	n/a
487.4815	0.27	974963	keystroke_r	r	n/a
487.6615	0.315	975323	keystroke_e	e	n/a
488.2765	0.195	976553	keystroke_t	t	n/a
488.5165	0.21	977033	keystroke_i	i	n/a
488.6365	0.27	977273	keystroke_o	o	n/a
488.7865	0.255	977573	keystroke_n	n	n/a
489.0265	0.18	978053	keystroke_Key.space	Key.space	n/a
489.4615	0.225	978923	keystroke_b	b	n/a
489.6715	0.21	979343	keystroke_a	a	n/a
489.8825	0.119	979765	keystroke_l	l	n/a
490.1365	0.15	980273	keystroke_l	l	n/a
490.4365	0.195	980873	keystroke_e	e	n/a
490.8115	0.165	981623	keystroke_y	y	n/a
491.5765	0.045	983153	keystroke_Key.space	Key.space	n/a
491.6665	0.135	983333	keystroke_Key.space	Key.space	n/a
492.3715	0.225	984743	keystroke_Key.backspace	Key.backspace	n/a
492.7465	0.24	985493	keystroke_Key.backspace	Key.backspace	n/a
493.4215	0.165	986843	keystroke_Key.backspace	Key.backspace	n/a
493.6465	0.21	987293	keystroke_t	t	n/a
494.4115	0.195	988823	keystroke_Key.space	Key.space	n/a
496.5865	0.21	993173	keystroke_b	b	n/a
496.7525	0.209	993505	keystroke_l	l	n/a
497.0965	0.226	994193	keystroke_a	a	n/a
497.3665	0.195	994733	keystroke_c	c	n/a
497.5465	0.21	995093	keystroke_k	k	n/a
498.1915	0.195	996383	keystroke_Key.enter	Key.enter	n/a
498.3935	20.4255	996787	prompt	n/a	website controlled looksmart scoop\n
499.5425	0.194	999085	keystroke_w	w	n/a
499.6915	0.195	999383	keystroke_e	e	n/a
500.0375	0.194	1000075	keystroke_b	b	n/a
500.2765	0.18	1000553	keystroke_s	s	n/a
500.7565	0.255	1001513	keystroke_i	i	n/a
500.9515	0.225	1001903	keystroke_t	t	n/a
501.1315	0.18	1002263	keystroke_e	e	n/a
501.4615	0.195	1002923	keystroke_Key.space	Key.space	n/a
501.5525	0.18	1003105	keystroke_c	c	n/a
502.1365	0.225	1004273	keystroke_t	t	n/a
502.6315	0.24	1005263	keystroke_r	r	n/a
503.1415	0.105	1006283	keystroke_Key.backspace	Key.backspace	n/a
503.3515	0.09	1006703	keystroke_Key.backspace	Key.backspace	n/a
504.1325	0.345	1008265	keystroke_o	o	n/a
504.3715	0.166	1008743	keystroke_n	n	n/a
504.8215	0.165	1009643	keystroke_t	t	n/a
505.0775	0.06	1010155	keystroke_o	o	n/a
505.1525	0.165	1010305	keystroke_r	r	n/a
505.8865	0.12	1011773	keystroke_Key.backspace	Key.backspace	n/a
506.1275	0.135	1012255	keystroke_Key.backspace	Key.backspace	n/a
506.5025	0.209	1013005	keystroke_r	r	n/a
506.9525	0.134	1013905	keystroke_o	o	n/a
507.5515	0.136	1015103	keystroke_l	l	n/a
507.8065	0.195	1015613	keystroke_l	l	n/a
508.0475	0.21	1016095	keystroke_e	e	n/a
508.5725	0.21	1017145	keystroke_d	d	n/a
512.7605	0.101	1025521	keystroke_Key.space	Key.space	n/a
513.2825	0.18	1026565	keystroke_l	l	n/a
513.6425	0.135	1027285	keystroke_o	o	n/a
513.8815	0.361	1027763	keystroke_o	o	n/a
514.1225	0.179	1028245	keystroke_k	k	n/a
514.4225	0.195	1028845	keystroke_s	s	n/a
514.7065	0.241	1029413	keystroke_m	m	n/a
514.9925	0.255	1029985	keystroke_a	a	n/a
515.2315	0.1955	1030463	keystroke_r	r	n/a
515.622	0.195	1031244	keystroke_t	t	n/a
516.402	0.18	1032804	keystroke_Key.space	Key.space	n/a
516.837	0.18	1033674	keystroke_s	s	n/a
517.137	0.18	1034274	keystroke_c	c	n/a
517.392	0.165	1034784	keystroke_o	o	n/a
517.692	0.195	1035384	keystroke_o	o	n/a
518.142	0.18	1036284	keystroke_p	p	n/a
518.637	0.18	1037274	keystroke_Key.enter	Key.enter	n/a
518.8265	30.1285	1037653	prompt	n/a	detail fotos they ashley\n
522.075	0.102	1044150	keystroke_d	d	n/a
522.282	0.24	1044564	keystroke_e	e	n/a
522.627	0.27	1045254	keystroke_t	t	n/a
522.837	0.21	1045674	keystroke_a	a	n/a
523.062	0.195	1046124	keystroke_i	i	n/a
523.227	0.24	1046454	keystroke_l	l	n/a
523.557	0.21	1047114	keystroke_Key.space	Key.space	n/a
523.827	0.195	1047654	keystroke_f	f	n/a
524.037	0.195	1048074	keystroke_o	o	n/a
524.382	0.165	1048764	keystroke_t	t	n/a
524.787	0.135	1049574	keystroke_o	o	n/a
525.267	0.195	1050534	keystroke_s	s	n/a
525.762	0.21	1051524	keystroke_Key.space	Key.space	n/a
527.2315	0.18	1054463	keystroke_t	t	n/a
527.457	0.2395	1054914	keystroke_h	h	n/a
527.7265	0.21	1055453	keystroke_e	e	n/a
528.0265	0.21	1056053	keystroke_y	y	n/a
528.6565	0.15	1057313	keystroke_Key.space	Key.space	n/a
529.1065	0.24	1058213	keystroke_a	a	n/a
529.3165	0.21	1058633	keystroke_s	s	n/a
530.3815	0.18	1060763	keystroke_g	g	n/a
530.7415	0.165	1061483	keystroke_k	k	n/a
531.3415	0.105	1062683	keystroke_=	=	n/a
531.6865	0.121	1063373	keystroke_Key.f11	Key.f11	n/a
531.9275	0.1045	1063855	keystroke_Key.f11	Key.f11	n/a
536.985	0.102	1073970	keystroke_Key.backspace	Key.backspace	n/a
537.282	0.135	1074564	keystroke_Key.backspace	Key.backspace	n/a
537.537	0.15	1075074	keystroke_Key.backspace	Key.backspace	n/a
537.822	0.09	1075644	keystroke_Key.backspace	Key.backspace	n/a
539.412	0.15	1078824	keystroke_s	s	n/a
539.772	0.18	1079544	keystroke_h	h	n/a
540.267	0.1055	1080534	keystroke_k	k	n/a
540.3125	0.045	1080625	keystroke_l	l	n/a
541.5125	0.135	1083025	keystroke_Key.backspace	Key.backspace	n/a
542.1725	0.18	1084345	keystroke_l	l	n/a
542.3975	0.165	1084795	keystroke_e	e	n/a
542.7275	0.165	1085455	keystroke_y	y	n/a
544.3925	0.12	1088785	keystroke_Key.backspace	Key.backspace	n/a
544.6325	0.135	1089265	keystroke_Key.backspace	Key.backspace	n/a
544.8875	0.15	1089775	keystroke_Key.backspace	Key.backspace	n/a
545.2025	0.15	1090405	keystroke_Key.backspace	Key.backspace	n/a
546.7475	0.165	1093495	keystroke_l	l	n/a
547.1675	0.12	1094335	keystroke_e	e	n/a
547.4075	0.09	1094815	keystroke_y	y	n/a
548.7725	0.18	1097545	keystroke_Key.enter	Key.enter	n/a
548.96	21.7145	1097920	prompt	n/a	consulting moon performing fetish\n
553.8615	0.132	1107723	keystroke_c	c	n/a
554.0225	0.36	1108045	keystroke_o	o	n/a
554.2775	0.226	1108555	keystroke_n	n	n/a
554.5925	0.18	1109185	keystroke_s	s	n/a
554.9525	0.091	1109905	keystroke_t	t	n/a
555.3285	0.015	1110657	keystroke_w	w	n/a
555.5075	0.15	1111015	keystroke_Key.backspace	Key.backspace	n/a
555.7925	0.12	1111585	keystroke_Key.backspace	Key.backspace	n/a
556.8885	0.225	1113777	keystroke_u	u	n/a
557.2185	0.225	1114437	keystroke_l	l	n/a
557.773	0.15	1115546	keystroke_t	t	n/a
558.043	0.42	1116086	keystroke_i	i	n/a
558.283	0.21	1116566	keystroke_n	n	n/a
558.508	0.18	1117016	keystroke_g	g	n/a
558.778	0.18	1117556	keystroke_Key.space	Key.space	n/a
559.213	0.195	1118426	keystroke_m	m	n/a
559.513	0.15	1119026	keystroke_o	o	n/a
559.753	0.255	1119506	keystroke_o	o	n/a
560.203	0.21	1120406	keystroke_n	n	n/a
560.803	0.27	1121606	keystroke_Key.space	Key.space	n/a
561.388	0.27	1122776	keystroke_p	p	n/a
561.613	0.21	1123226	keystroke_e	e	n/a
561.778	0.165	1123556	keystroke_r	r	n/a
562.258	0.18	1124516	keystroke_f	f	n/a
562.528	0.33	1125056	keystroke_o	o	n/a
562.723	0.18	1125446	keystroke_r	r	n/a
563.263	0.24	1126526	keystroke_m	m	n/a
563.908	0.48	1127816	keystroke_i	i	n/a
564.193	0.255	1128386	keystroke_n	n	n/a
564.463	0.195	1128926	keystroke_g	g	n/a
564.853	0.255	1129706	keystroke_Key.space	Key.space	n/a
565.153	0.225	1130306	keystroke_f	f	n/a
565.333	0.225	1130666	keystroke_e	e	n/a
565.7975	0.2255	1131595	keystroke_t	t	n/a
566.263	0.4345	1132526	keystroke_i	i	n/a
566.578	0.105	1133156	keystroke_d	d	n/a
566.6675	0.15	1133335	keystroke_s	s	n/a
567.3875	0.18	1134775	keystroke_Key.backspace	Key.backspace	n/a
567.6725	0.12	1135345	keystroke_Key.backspace	Key.backspace	n/a
569.5025	0.195	1139005	keystroke_s	s	n/a
569.8175	0.24	1139635	keystroke_h	h	n/a
570.4175	0.255	1140835	keystroke_Key.enter	Key.enter	n/a
570.6795	25.1965	1141359	prompt	n/a	promoted haven continental play\n
571.9625	0.225	1143925	keystroke_p	p	n/a
572.2475	0.195	1144495	keystroke_r	r	n/a
572.3825	0.345	1144765	keystroke_o	o	n/a
572.6675	0.27	1145335	keystroke_m	m	n/a
572.8775	0.33	1145755	keystroke_o	o	n/a
573.1175	0.225	1146235	keystroke_t	t	n/a
573.2975	0.165	1146595	keystroke_e	e	n/a
573.6125	0.225	1147225	keystroke_d	d	n/a
573.7925	0.21	1147585	keystroke_Key.space	Key.space	n/a
574.2425	0.255	1148485	keystroke_h	h	n/a
574.4225	0.165	1148845	keystroke_s	s	n/a
575.5025	0.165	1151005	keystroke_\	\	n/a
577.1525	0.165	1154305	keystroke_Key.backspace	Key.backspace	n/a
577.5275	0.18	1155055	keystroke_Key.backspace	Key.backspace	n/a
578.4125	0.255	1156825	keystroke_a	a	n/a
578.8925	0.03	1157785	keystroke_Key.space	Key.space	n/a
579.3725	0.165	1158745	keystroke_v	v	n/a
580.5275	0.12	1161055	keystroke_Key.backspace	Key.backspace	n/a
580.7525	0.165	1161505	keystroke_Key.backspace	Key.backspace	n/a
586.4875	0.161	1172975	keystroke_v	v	n/a
586.6185	0.224	1173237	keystroke_e	e	n/a
586.7985	0.21	1173597	keystroke_n	n	n/a
587.1275	0.195	1174255	keystroke_Key.space	Key.space	n/a
588.1185	0.18	1176237	keystroke_c	c	n/a
588.2375	0.331	1176475	keystroke_o	o	n/a
588.4485	0.18	1176897	keystroke_n	n	n/a
588.8985	0.21	1177797	keystroke_t	t	n/a
589.1685	0.3	1178337	keystroke_i	i	n/a
589.3335	0.195	1178667	keystroke_n	n	n/a
589.6035	0.195	1179207	keystroke_e	e	n/a
589.7985	0.195	1179597	keystroke_n	n	n/a
590.0385	0.24	1180077	keystroke_t	t	n/a
590.2335	0.209	1180467	keystroke_a	a	n/a
590.4585	0.195	1180917	keystroke_l	l	n/a
590.7885	0.194	1181577	keystroke_Key.space	Key.space	n/a
591.8685	0.21	1183737	keystroke_p	p	n/a
592.6185	0.12	1185237	keystroke_l	l	n/a
593.3085	0.195	1186617	keystroke_a	a	n/a
594.6885	0.075	1189377	keystroke_y	y	n/a
595.7535	0.12	1191507	keystroke_Key.enter	Key.enter	n/a
595.8825	16.103	1191765	prompt	n/a	tucson grace teachers bubble\n
602.2815	0.132	1204563	keystroke_t	t	n/a
602.5485	0.195	1205097	keystroke_u	u	n/a
603.2385	0.195	1206477	keystroke_c	c	n/a
603.9135	0.181	1207827	keystroke_s	s	n/a
604.5285	0.3	1209057	keystroke_o	o	n/a
604.7385	0.165	1209477	keystroke_n	n	n/a
605.0685	0.195	1210137	keystroke_Key.space	Key.space	n/a
605.5485	0.165	1211097	keystroke_g	g	n/a
605.8485	0.21	1211697	keystroke_r	r	n/a
606.0285	0.21	1212057	keystroke_a	a	n/a
606.3285	0.21	1212657	keystroke_c	c	n/a
606.4935	0.18	1212987	keystroke_e	e	n/a
606.6885	0.195	1213377	keystroke_Key.space	Key.space	n/a
607.1235	0.195	1214247	keystroke_t	t	n/a
607.2435	0.225	1214487	keystroke_e	e	n/a
607.4235	0.195	1214847	keystroke_a	a	n/a
607.6785	0.195	1215357	keystroke_c	c	n/a
607.9335	0.21	1215867	keystroke_h	h	n/a
608.1735	0.195	1216347	keystroke_e	e	n/a
608.3085	0.24	1216617	keystroke_r	r	n/a
608.4585	0.21	1216917	keystroke_s	s	n/a
608.728	0.195	1217456	keystroke_Key.space	Key.space	n/a
609.478	0.165	1218956	keystroke_b	b	n/a
609.988	0.15	1219976	keystroke_u	u	n/a
610.543	0.1505	1221086	keystroke_b	b	n/a
610.888	0.195	1221776	keystroke_b	b	n/a
611.1885	0.1945	1222377	keystroke_l	l	n/a
611.384	0.1945	1222768	keystroke_e	e	n/a
611.773	0.21	1223546	keystroke_Key.enter	Key.enter	n/a
611.9905	12.25	1223981	prompt	n/a	harbor nvidia expo apparent\n
613.138	0.165	1226276	keystroke_h	h	n/a
613.318	0.225	1226636	keystroke_a	a	n/a
613.963	0.165	1227926	keystroke_r	r	n/a
614.263	0.21	1228526	keystroke_b	b	n/a
614.833	0.15	1229666	keystroke_o	o	n/a
614.968	0.195	1229936	keystroke_r	r	n/a
615.5385	0.165	1231077	keystroke_Key.space	Key.space	n/a
616.078	0.195	1232156	keystroke_n	n	n/a
616.648	0.225	1233296	keystroke_v	v	n/a
616.993	0.165	1233986	keystroke_i	i	n/a
617.143	0.225	1234286	keystroke_d	d	n/a
617.353	0.256	1234706	keystroke_i	i	n/a
617.894	0.21	1235788	keystroke_a	a	n/a
618.389	0.225	1236778	keystroke_Key.space	Key.space	n/a
618.644	0.135	1237288	keystroke_e	e	n/a
619.139	0.21	1238278	keystroke_x	x	n/a
619.859	0.255	1239718	keystroke_p	p	n/a
620.129	0.195	1240258	keystroke_o	o	n/a
620.6535	0.2105	1241307	keystroke_Key.space	Key.space	n/a
621.704	0.18	1243408	keystroke_a	a	n/a
622.1385	0.18	1244277	keystroke_p	p	n/a
622.4085	0.195	1244817	keystroke_p	p	n/a
622.6185	0.255	1245237	keystroke_a	a	n/a
622.9035	0.255	1245807	keystroke_r	r	n/a
623.0985	0.18	1246197	keystroke_e	e	n/a
623.3235	0.195	1246647	keystroke_n	n	n/a
623.5635	0.195	1247127	keystroke_t	t	n/a
624.0435	0.195	1248087	keystroke_Key.enter	Key.enter	n/a
624.248	22.3575	1248496	prompt	n/a	baby renaissance uncertainty recommends\n
625.9785	0.195	1251957	keystroke_b	b	n/a
626.2635	0.21	1252527	keystroke_a	a	n/a
626.5335	0.21	1253067	keystroke_b	b	n/a
627.2985	0.165	1254597	keystroke_y	y	n/a
628.1085	0.21	1256217	keystroke_Key.space	Key.space	n/a
628.5435	0.225	1257087	keystroke_r	r	n/a
628.7085	0.18	1257417	keystroke_e	e	n/a
630.1335	0.18	1260267	keystroke_n	n	n/a
630.6285	0.255	1261257	keystroke_a	a	n/a
631.3785	0.21	1262757	keystroke_i	i	n/a
631.6785	0.165	1263357	keystroke_s	s	n/a
632.2485	0.195	1264497	keystroke_c	c	n/a
632.9685	0.15	1265937	keystroke_Key.backspace	Key.backspace	n/a
633.2835	0.2105	1266567	keystroke_s	s	n/a
634.034	0.255	1268068	keystroke_a	a	n/a
634.784	0.194	1269568	keystroke_n	n	n/a
635.339	0.239	1270678	keystroke_c	c	n/a
635.593	0.24	1271186	keystroke_e	e	n/a
637.109	0.179	1274218	keystroke_Key.space	Key.space	n/a
637.634	0.21	1275268	keystroke_u	u	n/a
638.264	0.15	1276528	keystroke_n	n	n/a
639.179	0.194	1278358	keystroke_c	c	n/a
639.389	0.24	1278778	keystroke_e	e	n/a
639.569	0.165	1279138	keystroke_r	r	n/a
640.034	0.225	1280068	keystroke_t	t	n/a
640.304	0.225	1280608	keystroke_a	a	n/a
640.559	0.345	1281118	keystroke_i	i	n/a
640.769	0.165	1281538	keystroke_n	n	n/a
641.204	0.165	1282408	keystroke_t	t	n/a
641.519	0.195	1283038	keystroke_y	y	n/a
642.148	0.181	1284296	keystroke_Key.space	Key.space	n/a
642.539	0.24	1285078	keystroke_r	r	n/a
642.704	0.165	1285408	keystroke_e	e	n/a
643.784	0.165	1287568	keystroke_c	c	n/a
644.009	0.315	1288018	keystroke_o	o	n/a
644.234	0.12	1288468	keystroke_m	m	n/a
644.489	0.135	1288978	keystroke_m	m	n/a
645.134	0.21	1290268	keystroke_e	e	n/a
645.464	0.24	1290928	keystroke_n	n	n/a
645.749	0.24	1291498	keystroke_d	d	n/a
645.944	0.165	1291888	keystroke_s	s	n/a
646.424	0.18	1292848	keystroke_Key.enter	Key.enter	n/a
646.611	18.1605	1293222	prompt	n/a	disease superb lang toner\n
653.702	0.117	1307404	keystroke_d	d	n/a
654.014	0.21	1308028	keystroke_i	i	n/a
654.389	0.225	1308778	keystroke_s	s	n/a
654.584	0.255	1309168	keystroke_e	e	n/a
654.854	0.225	1309708	keystroke_a	a	n/a
655.094	0.255	1310188	keystroke_s	s	n/a
655.304	0.225	1310608	keystroke_e	e	n/a
655.544	0.105	1311088	keystroke_s	s	n/a
656.234	0.135	1312468	keystroke_Key.backspace	Key.backspace	n/a
657.074	0.255	1314148	keystroke_Key.space	Key.space	n/a
658.6335	0.18	1317267	keystroke_s	s	n/a
658.9485	0.2555	1317897	keystroke_u	u	n/a
659.384	0.2095	1318768	keystroke_p	p	n/a
659.5945	0.224	1319189	keystroke_e	e	n/a
659.7735	0.15	1319547	keystroke_r	r	n/a
659.9985	0.1955	1319997	keystroke_b	b	n/a
660.7635	0.21	1321527	keystroke_Key.space	Key.space	n/a
661.7535	0.315	1323507	keystroke_l	l	n/a
662.0085	0.24	1324017	keystroke_a	a	n/a
662.2785	0.225	1324557	keystroke_n	n	n/a
662.5485	0.195	1325097	keystroke_g	g	n/a
662.9385	0.225	1325877	keystroke_Key.space	Key.space	n/a
663.2235	0.18	1326447	keystroke_t	t	n/a
663.3885	0.33	1326777	keystroke_o	o	n/a
663.5985	0.195	1327197	keystroke_n	n	n/a
664.1385	0.195	1328277	keystroke_e	e	n/a
664.3185	0.135	1328637	keystroke_r	r	n/a
664.5885	0.18	1329177	keystroke_Key.enter	Key.enter	n/a
664.7765	12.34	1329553	prompt	n/a	eric evaluated rome mariah\n
665.5935	0.21	1331187	keystroke_e	e	n/a
665.9385	0.165	1331877	keystroke_r	r	n/a
666.1335	0.255	1332267	keystroke_i	i	n/a
666.5235	0.165	1333047	keystroke_c	c	n/a
666.8985	0.195	1333797	keystroke_Key.space	Key.space	n/a
667.3785	0.18	1334757	keystroke_e	e	n/a
667.7385	0.285	1335477	keystroke_v	v	n/a
668.6085	0.135	1337217	keystroke_u	u	n/a
669.0585	0.18	1338117	keystroke_Key.backspace	Key.backspace	n/a
669.2835	0.195	1338567	keystroke_a	a	n/a
669.5385	0.225	1339077	keystroke_l	l	n/a
669.9435	0.24	1339887	keystroke_u	u	n/a
670.1985	0.18	1340397	keystroke_a	a	n/a
670.4385	0.21	1340877	keystroke_t	t	n/a
670.6035	0.21	1341207	keystroke_e	e	n/a
670.9935	0.18	1341987	keystroke_d	d	n/a
671.5785	0.21	1343157	keystroke_Key.space	Key.space	n/a
671.9685	0.165	1343937	keystroke_r	r	n/a
672.0585	0.36	1344117	keystroke_o	o	n/a
672.2835	0.165	1344567	keystroke_m	m	n/a
672.3735	0.195	1344747	keystroke_e	e	n/a
672.6135	0.18	1345227	keystroke_Key.space	Key.space	n/a
672.9735	0.181	1345947	keystroke_m	m	n/a
673.3185	0.15	1346637	keystroke_r	r	n/a
673.5585	0.21	1347117	keystroke_i	i	n/a
674.0235	0.12	1348047	keystroke_Key.backspace	Key.backspace	n/a
674.2335	0.12	1348467	keystroke_Key.backspace	Key.backspace	n/a
674.4585	0.27	1348917	keystroke_a	a	n/a
674.7585	0.18	1349517	keystroke_r	r	n/a
675.1335	0.165	1350267	keystroke_i	i	n/a
675.8685	0.18	1351737	keystroke_a	a	n/a
676.3935	0.18	1352787	keystroke_h	h	n/a
676.9485	0.165	1353897	keystroke_Key.enter	Key.enter	n/a
677.1215	12.2945	1354243	prompt	n/a	producing zshops nomination sherman\n
678.2235	0.21	1356447	keystroke_p	p	n/a
678.4485	0.151	1356897	keystroke_r	r	n/a
678.6135	0.225	1357227	keystroke_o	o	n/a
678.8835	0.195	1357767	keystroke_d	d	n/a
679.1235	0.195	1358247	keystroke_u	u	n/a
679.3635	0.18	1358727	keystroke_c	c	n/a
679.6035	0.361	1359207	keystroke_i	i	n/a
679.8295	0.15	1359659	keystroke_n	n	n/a
679.9935	0.165	1359987	keystroke_g	g	n/a
680.2035	0.195	1360407	keystroke_Key.space	Key.space	n/a
680.5035	0.195	1361007	keystroke_z	z	n/a
680.7295	0.179	1361459	keystroke_h	h	n/a
681.0435	0.135	1362087	keystroke_s	s	n/a
681.2835	0.195	1362567	keystroke_h	h	n/a
681.4795	0.3	1362959	keystroke_o	o	n/a
681.7795	0.224	1363559	keystroke_p	p	n/a
682.0495	0.18	1364099	keystroke_s	s	n/a
682.3035	0.195	1364607	keystroke_Key.space	Key.space	n/a
682.6185	0.24	1365237	keystroke_n	n	n/a
682.8295	0.284	1365659	keystroke_o	o	n/a
683.0685	0.151	1366137	keystroke_n	n	n/a
683.0695	0.21	1366139	keystroke_m	m	n/a
684.0885	0.15	1368177	keystroke_Key.backspace	Key.backspace	n/a
684.3285	0.105	1368657	keystroke_Key.backspace	Key.backspace	n/a
684.7945	0.194	1369589	keystroke_m	m	n/a
685.1535	0.315	1370307	keystroke_i	i	n/a
685.3485	0.196	1370697	keystroke_n	n	n/a
685.5595	0.164	1371119	keystroke_a	a	n/a
685.7545	0.15	1371509	keystroke_t	t	n/a
685.8295	0.195	1371659	keystroke_i	i	n/a
685.9345	0.254	1371869	keystroke_o	o	n/a
686.0685	0.165	1372137	keystroke_n	n	n/a
686.8795	0.209	1373759	keystroke_Key.space	Key.space	n/a
687.2245	0.179	1374449	keystroke_s	s	n/a
687.5245	0.225	1375049	keystroke_h	h	n/a
687.6895	0.18	1375379	keystroke_e	e	n/a
687.8385	0.151	1375677	keystroke_r	r	n/a
688.1845	0.21	1376369	keystroke_m	m	n/a
688.4235	0.196	1376847	keystroke_a	a	n/a
688.6345	0.195	1377269	keystroke_n	n	n/a
689.2335	0.18	1378467	keystroke_Key.enter	Key.enter	n/a
689.4215	10.54	1378843	prompt	n/a	cemetery ballot junk greatest\n
690.4795	0.225	1380959	keystroke_c	c	n/a
690.6895	0.165	1381379	keystroke_e	e	n/a
691.2285	0.196	1382457	keystroke_m	m	n/a
691.4395	0.224	1382879	keystroke_e	e	n/a
691.9045	0.225	1383809	keystroke_t	t	n/a
692.1745	0.21	1384349	keystroke_a	a	n/a
692.3545	0.15	1384709	keystroke_r	r	n/a
692.5785	0.181	1385157	keystroke_y	y	n/a
692.8645	0.149	1385729	keystroke_Key.space	Key.space	n/a
693.3145	0.18	1386629	keystroke_b	b	n/a
693.5845	0.18	1387169	keystroke_a	a	n/a
693.8245	0.375	1387649	keystroke_l	l	n/a
694.4845	0.21	1388969	keystroke_l	l	n/a
694.8885	0.286	1389777	keystroke_o	o	n/a
695.0695	0.18	1390139	keystroke_t	t	n/a
695.4745	0.225	1390949	keystroke_Key.space	Key.space	n/a
695.7745	0.195	1391549	keystroke_j	j	n/a
696.1195	0.195	1392239	keystroke_u	u	n/a
696.5695	0.315	1393139	keystroke_n	n	n/a
696.8545	0.225	1393709	keystroke_k	k	n/a
697.1995	0.225	1394399	keystroke_Key.space	Key.space	n/a
697.4395	0.15	1394879	keystroke_g	g	n/a
697.7395	0.255	1395479	keystroke_r	r	n/a
697.9045	0.3	1395809	keystroke_e	e	n/a
698.4745	0.255	1396949	keystroke_a	a	n/a
698.7445	0.285	1397489	keystroke_t	t	n/a
699.0145	0.225	1398029	keystroke_e	e	n/a
699.1945	0.195	1398389	keystroke_s	s	n/a
699.4045	0.15	1398809	keystroke_t	t	n/a
699.7195	0.24	1399439	keystroke_Key.enter	Key.enter	n/a
699.966	8.3055	1399932	prompt	n/a	go early complaints artificial\n
700.9345	0.18	1401869	keystroke_g	g	n/a
701.0845	0.27	1402169	keystroke_o	o	n/a
701.3395	0.225	1402679	keystroke_Key.space	Key.space	n/a
701.8495	0.21	1403699	keystroke_e	e	n/a
702.0295	0.21	1404059	keystroke_a	a	n/a
702.2095	0.18	1404419	keystroke_r	r	n/a
702.2695	0.225	1404539	keystroke_l	l	n/a
702.6595	0.18	1405319	keystroke_y	y	n/a
702.8995	0.21	1405799	keystroke_Key.space	Key.space	n/a
703.0795	0.18	1406159	keystroke_c	c	n/a
703.2445	0.39	1406489	keystroke_o	o	n/a
703.4245	0.225	1406849	keystroke_m	m	n/a
703.7095	0.255	1407419	keystroke_p	p	n/a
704.1595	0.345	1408319	keystroke_l	l	n/a
704.3695	0.225	1408739	keystroke_a	a	n/a
704.6095	0.33	1409219	keystroke_i	i	n/a
704.7895	0.21	1409579	keystroke_n	n	n/a
704.9695	0.24	1409939	keystroke_t	t	n/a
705.1345	0.225	1410269	keystroke_s	s	n/a
705.5245	0.195	1411049	keystroke_Key.space	Key.space	n/a
705.7345	0.225	1411469	keystroke_a	a	n/a
705.8995	0.165	1411799	keystroke_r	r	n/a
706.1845	0.18	1412369	keystroke_t	t	n/a
706.3495	0.21	1412699	keystroke_i	i	n/a
706.5895	0.21	1413179	keystroke_f	f	n/a
706.8895	0.225	1413779	keystroke_i	i	n/a
707.1595	0.225	1414319	keystroke_c	c	n/a
707.3545	0.225	1414709	keystroke_i	i	n/a
707.5495	0.21	1415099	keystroke_a	a	n/a
707.7295	0.195	1415459	keystroke_l	l	n/a
708.0745	0.195	1416149	keystroke_Key.enter	Key.enter	n/a
708.276	28.1505	1416552	prompt	n/a	sydney encounter fears safely\n
709.0195	0.195	1418039	keystroke_s	s	n/a
709.5445	0.165	1419089	keystroke_y	y	n/a
710.7445	0.195	1421489	keystroke_d	d	n/a
713.7925	0.132	1427585	keystroke_n	n	n/a
714.1645	0.18	1428329	keystroke_e	e	n/a
714.4345	0.195	1428869	keystroke_y	y	n/a
714.7345	0.195	1429469	keystroke_Key.space	Key.space	n/a
715.3495	0.195	1430699	keystroke_e	e	n/a
715.5595	0.21	1431119	keystroke_n	n	n/a
716.2345	0.24	1432469	keystroke_c	c	n/a
716.6695	0.225	1433339	keystroke_e	e	n/a
717.0295	0.09	1434059	keystroke_n	n	n/a
717.6295	0.105	1435259	keystroke_Key.backspace	Key.backspace	n/a
717.8545	0.09	1435709	keystroke_Key.backspace	Key.backspace	n/a
718.2295	0.345	1436459	keystroke_p	p	n/a
718.4695	0.18	1436939	keystroke_i	i	n/a
718.7995	0.195	1437599	keystroke_m	m	n/a
719.2495	0.165	1438499	keystroke_Key.backspace	Key.backspace	n/a
719.5195	0.165	1439039	keystroke_Key.backspace	Key.backspace	n/a
720.1045	0.315	1440209	keystroke_p	p	n/a
720.3295	0.15	1440659	keystroke_i	i	n/a
721.0495	0.21	1442099	keystroke_Key.backspace	Key.backspace	n/a
721.3045	0.165	1442609	keystroke_Key.backspace	Key.backspace	n/a
721.7245	0.15	1443449	keystroke_Key.backspace	Key.backspace	n/a
721.7395	0.165	1443479	keystroke_w	w	n/a
722.3995	0.09	1444799	keystroke_Key.backspace	Key.backspace	n/a
725.9845	0.12	1451969	keystroke_j	j	n/a
726.4945	0.195	1452989	keystroke_\	\	n/a
727.6645	0.135	1455329	keystroke_Key.backspace	Key.backspace	n/a
727.9045	0.15	1455809	keystroke_Key.backspace	Key.backspace	n/a
729.134	0.075	1458268	keystroke_o	o	n/a
729.5845	0.12	1459169	keystroke_u	u	n/a
730.004	0.1655	1460008	keystroke_n	n	n/a
730.1395	0.2095	1460279	keystroke_t	t	n/a
730.334	0.225	1460668	keystroke_e	e	n/a
730.484	0.18	1460968	keystroke_r	r	n/a
730.964	0.15	1461928	keystroke_Key.space	Key.space	n/a
731.849	0.21	1463698	keystroke_f	f	n/a
732.014	0.255	1464028	keystroke_e	e	n/a
732.194	0.225	1464388	keystroke_a	a	n/a
732.359	0.27	1464718	keystroke_r	r	n/a
732.599	0.06	1465198	keystroke_s	s	n/a
732.689	0.195	1465378	keystroke_e	e	n/a
733.199	0.135	1466398	keystroke_Key.backspace	Key.backspace	n/a
733.439	0.09	1466878	keystroke_Key.backspace	Key.backspace	n/a
733.589	0.18	1467178	keystroke_s	s	n/a
734.129	0.195	1468258	keystroke_Key.space	Key.space	n/a
734.564	0.15	1469128	keystroke_s	s	n/a
734.729	0.225	1469458	keystroke_a	a	n/a
734.969	0.255	1469938	keystroke_f	f	n/a
735.134	0.21	1470268	keystroke_e	e	n/a
735.479	0.225	1470958	keystroke_l	l	n/a
735.884	0.18	1471768	keystroke_y	y	n/a
736.259	0.165	1472518	keystroke_Key.enter	Key.enter	n/a
736.433	6.834	1472866	prompt	n/a	easier turbo searched best\n
737.009	0.211	1474018	keystroke_e	e	n/a
737.189	0.225	1474378	keystroke_a	a	n/a
737.369	0.255	1474738	keystroke_s	s	n/a
737.639	0.195	1475278	keystroke_i	i	n/a
737.774	0.255	1475548	keystroke_e	e	n/a
737.969	0.21	1475938	keystroke_r	r	n/a
738.224	0.21	1476448	keystroke_Key.space	Key.space	n/a
738.449	0.21	1476898	keystroke_t	t	n/a
738.809	0.18	1477618	keystroke_u	u	n/a
738.974	0.195	1477948	keystroke_r	r	n/a
739.215	0.269	1478430	keystroke_b	b	n/a
739.5	0.269	1479000	keystroke_o	o	n/a
739.889	0.195	1479778	keystroke_Key.space	Key.space	n/a
740.039	0.45	1480078	keystroke_s	s	n/a
740.295	0.164	1480590	keystroke_e	e	n/a
740.444	0.24	1480888	keystroke_a	a	n/a
740.64	0.134	1481280	keystroke_r	r	n/a
740.984	0.181	1481968	keystroke_c	c	n/a
741.195	0.209	1482390	keystroke_h	h	n/a
741.344	0.18	1482688	keystroke_e	e	n/a
741.704	0.225	1483408	keystroke_d	d	n/a
741.959	0.165	1483918	keystroke_Key.space	Key.space	n/a
742.349	0.195	1484698	keystroke_b	b	n/a
742.499	0.21	1484998	keystroke_e	e	n/a
742.649	0.226	1485298	keystroke_s	s	n/a
742.875	0.12	1485750	keystroke_t	t	n/a
743.204	0.061	1486408	keystroke_Key.enter	Key.enter	n/a
743.272	0.129	1486544	prompt	n/a	justify items attacks mary\n
743.309	0.09	1486618	keystroke_Key.enter	Key.enter	n/a
743.406	12.641	1486812	prompt	n/a	loan remember marks order\n
745.049	0.166	1490098	keystroke_l	l	n/a
745.424	0.196	1490848	keystroke_o	o	n/a
745.71	0.24	1491420	keystroke_a	a	n/a
745.95	0.179	1491900	keystroke_n	n	n/a
746.399	0.225	1492798	keystroke_Key.space	Key.space	n/a
746.699	0.241	1493398	keystroke_r	r	n/a
746.865	0.179	1493730	keystroke_e	e	n/a
747.42	0.165	1494840	keystroke_m	m	n/a
747.614	0.195	1495228	keystroke_e	e	n/a
748.034	0.151	1496068	keystroke_Key.space	Key.space	n/a
749.384	0.135	1498768	keystroke_Key.backspace	Key.backspace	n/a
750.195	0.15	1500390	keystroke_m	m	n/a
750.809	0.181	1501618	keystroke_b	b	n/a
751.005	0.225	1502010	keystroke_e	e	n/a
751.2	0.165	1502400	keystroke_r	r	n/a
752.67	0.18	1505340	keystroke_Key.space	Key.space	n/a
753.12	0.195	1506240	keystroke_m	m	n/a
753.24	0.225	1506480	keystroke_a	a	n/a
753.45	0.165	1506900	keystroke_r	r	n/a
753.66	0.24	1507320	keystroke_k	k	n/a
753.795	0.21	1507590	keystroke_s	s	n/a
754.109	0.181	1508218	keystroke_Key.space	Key.space	n/a
754.785	0.225	1509570	keystroke_o	o	n/a
754.905	0.135	1509810	keystroke_r	r	n/a
755.235	0.12	1510470	keystroke_d	d	n/a
755.505	0.21	1511010	keystroke_e	e	n/a
755.655	0.135	1511310	keystroke_r	r	n/a
755.865	0.18	1511730	keystroke_Key.enter	Key.enter	n/a
756.0555	19.6125	1512111	prompt	n/a	pulling evans luke supply\n
757.515	0.255	1515030	keystroke_p	p	n/a
757.965	0.225	1515930	keystroke_u	u	n/a
758.37	0.135	1516740	keystroke_l	l	n/a
758.625	0.21	1517250	keystroke_l	l	n/a
758.805	0.315	1517610	keystroke_i	i	n/a
759	0.18	1518000	keystroke_n	n	n/a
759.195	0.1945	1518390	keystroke_g	g	n/a
759.4495	0.18	1518899	keystroke_Key.space	Key.space	n/a
759.5845	0.18	1519169	keystroke_e	e	n/a
759.8395	0.315	1519679	keystroke_v	v	n/a
760.1695	0.21	1520339	keystroke_a	a	n/a
760.4995	0.18	1520999	keystroke_b	b	n/a
760.7845	0.195	1521569	keystroke_s	s	n/a
761.0545	0.195	1522109	keystroke_Key.space	Key.space	n/a
761.4145	0.255	1522829	keystroke_k	k	n/a
761.6395	0.165	1523279	keystroke_y	y	n/a
762.3605	0.089	1524721	keystroke_=	=	n/a
762.5995	0.21	1525199	keystroke_Key.backspace	Key.backspace	n/a
762.9745	0.12	1525949	keystroke_Key.backspace	Key.backspace	n/a
763.2145	0.09	1526429	keystroke_Key.backspace	Key.backspace	n/a
763.4695	0.12	1526939	keystroke_Key.backspace	Key.backspace	n/a
763.7095	0.135	1527419	keystroke_Key.backspace	Key.backspace	n/a
763.9045	0.165	1527809	keystroke_s	s	n/a
764.3995	0.15	1528799	keystroke_Key.backspace	Key.backspace	n/a
764.6695	0.12	1529339	keystroke_Key.backspace	Key.backspace	n/a
765.9295	0.15	1531859	keystroke_n	n	n/a
766.0945	0.18	1532189	keystroke_s	s	n/a
766.5595	0.225	1533119	keystroke_Key.space	Key.space	n/a
769.5935	0.131	1539187	keystroke_l	l	n/a
769.8755	0.165	1539751	keystroke_u	u	n/a
770.3855	0.164	1540771	keystroke_i	i	n/a
771.0145	0.195	1542029	keystroke_Key.backspace	Key.backspace	n/a
772.1105	0.165	1544221	keystroke_k	k	n/a
772.4545	0.181	1544909	keystroke_e	e	n/a
773.0395	0.225	1546079	keystroke_Key.space	Key.space	n/a
773.3255	0.135	1546651	keystroke_s	s	n/a
773.7605	0.179	1547521	keystroke_u	u	n/a
773.9995	0.135	1547999	keystroke_p	p	n/a
774.2995	0.075	1548599	keystroke_p	p	n/a
774.6445	0.165	1549289	keystroke_l	l	n/a
775.0955	0.135	1550191	keystroke_y	y	n/a
775.4845	0.18	1550969	keystroke_Key.enter	Key.enter	n/a
775.673	20.904	1551346	prompt	n/a	wake nashville observation shipped\n
776.4905	0.209	1552981	keystroke_w	w	n/a
776.6695	0.18	1553339	keystroke_a	a	n/a
777.1805	0.21	1554361	keystroke_k	k	n/a
777.3455	0.165	1554691	keystroke_e	e	n/a
777.8995	0.166	1555799	keystroke_Key.space	Key.space	n/a
778.3195	0.196	1556639	keystroke_n	n	n/a
778.4995	0.196	1556999	keystroke_a	a	n/a
778.7105	0.165	1557421	keystroke_s	s	n/a
779.8955	0.074	1559791	keystroke_g	g	n/a
780.5845	0.181	1561169	keystroke_Key.backspace	Key.backspace	n/a
781.2905	0.165	1562581	keystroke_h	h	n/a
781.8305	0.18	1563661	keystroke_v	v	n/a
782.2055	0.09	1564411	keystroke_8	8	n/a
783.5995	0.121	1567199	keystroke_Key.backspace	Key.backspace	n/a
784.2605	0.165	1568521	keystroke_i	i	n/a
784.4705	0.135	1568941	keystroke_l	l	n/a
784.7255	0.165	1569451	keystroke_l	l	n/a
784.9655	0.18	1569931	keystroke_e	e	n/a
785.4005	0.165	1570801	keystroke_Key.space	Key.space	n/a
786.9005	0.18	1573801	keystroke_o	o	n/a
787.2155	0.195	1574431	keystroke_b	b	n/a
787.9655	0.21	1575931	keystroke_s	s	n/a
788.1155	0.21	1576231	keystroke_e	e	n/a
788.2655	0.15	1576531	keystroke_r	r	n/a
788.6105	0.21	1577221	keystroke_v	v	n/a
788.8355	0.36	1577671	keystroke_a	a	n/a
789.4955	0.18	1578991	keystroke_t	t	n/a
790.2455	0.15	1580491	keystroke_u	u	n/a
791.49	0.105	1582980	keystroke_Key.backspace	Key.backspace	n/a
792.06	0.18	1584120	keystroke_i	i	n/a
792.21	0.27	1584420	keystroke_o	o	n/a
792.465	0.21	1584930	keystroke_n	n	n/a
793.26	0.2255	1586520	keystroke_Key.space	Key.space	n/a
793.6955	0.195	1587391	keystroke_s	s	n/a
794.5805	0.2245	1589161	keystroke_h	h	n/a
794.985	0.195	1589970	keystroke_i	i	n/a
795.405	0.15	1590810	keystroke_p	p	n/a
795.69	0.18	1591380	keystroke_p	p	n/a
795.855	0.166	1591710	keystroke_e	e	n/a
796.186	0.179	1592372	keystroke_d	d	n/a
796.395	0.18	1592790	keystroke_Key.enter	Key.enter	n/a
796.5825	15.925	1593165	prompt	n/a	newcastle assisted limousines received\n
797.611	0.149	1595222	keystroke_n	n	n/a
797.745	0.15	1595490	keystroke_e	e	n/a
797.835	0.165	1595670	keystroke_w	w	n/a
798.3	0.225	1596600	keystroke_c	c	n/a
798.54	0.225	1597080	keystroke_a	a	n/a
798.75	0.18	1597500	keystroke_s	s	n/a
799.02	0.18	1598040	keystroke_t	t	n/a
799.245	0.225	1598490	keystroke_l	l	n/a
799.605	0.225	1599210	keystroke_e	e	n/a
800.25	0.195	1600500	keystroke_Key.space	Key.space	n/a
800.7	0.255	1601400	keystroke_a	a	n/a
800.956	0.165	1601912	keystroke_s	s	n/a
801.24	0.181	1602480	keystroke_s	s	n/a
801.495	0.195	1602990	keystroke_i	i	n/a
801.6745	0.225	1603349	keystroke_s	s	n/a
802.036	0.224	1604072	keystroke_t	t	n/a
802.215	0.18	1604430	keystroke_e	e	n/a
802.575	0.2405	1605150	keystroke_d	d	n/a
803.0245	0.1955	1606049	keystroke_Key.space	Key.space	n/a
803.7145	0.225	1607429	keystroke_l	l	n/a
803.8945	0.225	1607789	keystroke_i	i	n/a
804.1045	0.211	1608209	keystroke_m	m	n/a
805.1555	0.18	1610311	keystroke_o	o	n/a
805.9345	0.165	1611869	keystroke_u	u	n/a
806.5205	0.15	1613041	keystroke_s	s	n/a
806.6855	0.36	1613371	keystroke_i	i	n/a
806.8955	0.194	1613791	keystroke_n	n	n/a
807.0755	0.21	1614151	keystroke_e	e	n/a
807.2255	0.15	1614451	keystroke_s	s	n/a
807.5105	0.209	1615021	keystroke_Key.space	Key.space	n/a
808.0805	0.225	1616161	keystroke_r	r	n/a
808.2305	0.195	1616461	keystroke_e	e	n/a
810.0005	0.255	1620001	keystroke_c	c	n/a
810.9455	0.18	1621891	keystroke_e	e	n/a
811.2305	0.225	1622461	keystroke_i	i	n/a
811.5305	0.225	1623061	keystroke_v	v	n/a
811.6955	0.18	1623391	keystroke_e	e	n/a
811.9955	0.21	1623991	keystroke_d	d	n/a
812.2805	0.225	1624561	keystroke_Key.enter	Key.enter	n/a
812.5115	11.111	1625023	prompt	n/a	muscle zope modes enzyme\n
813.4955	0.21	1626991	keystroke_m	m	n/a
813.9155	0.195	1627831	keystroke_u	u	n/a
814.1555	0.195	1628311	keystroke_s	s	n/a
814.6055	0.165	1629211	keystroke_c	c	n/a
814.6955	0.24	1629391	keystroke_l	l	n/a
814.9655	0.21	1629931	keystroke_e	e	n/a
815.2205	0.255	1630441	keystroke_Key.space	Key.space	n/a
815.7005	0.24	1631401	keystroke_z	z	n/a
815.9105	0.33	1631821	keystroke_o	o	n/a
816.2255	0.255	1632451	keystroke_p	p	n/a
816.5705	0.195	1633141	keystroke_e	e	n/a
816.9445	0.226	1633889	keystroke_Key.space	Key.space	n/a
817.9505	0.27	1635901	keystroke_m	m	n/a
818.1755	0.33	1636351	keystroke_o	o	n/a
818.4005	0.18	1636801	keystroke_d	d	n/a
818.7305	0.255	1637461	keystroke_e	e	n/a
818.9105	0.165	1637821	keystroke_s	s	n/a
819.1805	0.21	1638361	keystroke_Key.space	Key.space	n/a
819.6605	0.165	1639321	keystroke_e	e	n/a
819.8705	0.21	1639741	keystroke_n	n	n/a
821.1605	0.195	1642321	keystroke_z	z	n/a
821.4455	0.18	1642891	keystroke_y	y	n/a
822.1055	0.255	1644211	keystroke_m	m	n/a
822.3455	0.21	1644691	keystroke_e	e	n/a
823.3805	0.24	1646761	keystroke_Key.enter	Key.enter	n/a
823.6285	23.6345	1647257	prompt	n/a	angry joint subscription corrected\n
825.2405	0.255	1650481	keystroke_a	a	n/a
825.4205	0.225	1650841	keystroke_n	n	n/a
825.7955	0.18	1651591	keystroke_g	g	n/a
826.1855	0.18	1652371	keystroke_r	r	n/a
826.4255	0.18	1652851	keystroke_y	y	n/a
826.9355	0.195	1653871	keystroke_Key.space	Key.space	n/a
827.4005	0.225	1654801	keystroke_j	j	n/a
827.6405	0.435	1655281	keystroke_o	o	n/a
827.7905	0.315	1655581	keystroke_i	i	n/a
827.9405	0.18	1655881	keystroke_n	n	n/a
828.3755	0.195	1656751	keystroke_g	g	n/a
828.6755	0.195	1657351	keystroke_Key.space	Key.space	n/a
829.2005	0.165	1658401	keystroke_Key.backspace	Key.backspace	n/a
829.4705	0.12	1658941	keystroke_Key.backspace	Key.backspace	n/a
829.6955	0.18	1659391	keystroke_t	t	n/a
830.1455	0.195	1660291	keystroke_Key.space	Key.space	n/a
830.5805	0.15	1661161	keystroke_s	s	n/a
830.8505	0.21	1661701	keystroke_u	u	n/a
831.0455	0.15	1662091	keystroke_s	s	n/a
831.8855	0.135	1663771	keystroke_Key.backspace	Key.backspace	n/a
832.4705	0.195	1664941	keystroke_n	n	n/a
833.4005	0.18	1666801	keystroke_Key.backspace	Key.backspace	n/a
834.0005	0.165	1668001	keystroke_b	b	n/a
834.6605	0.195	1669321	keystroke_s	s	n/a
835.4405	0.18	1670881	keystroke_c	c	n/a
835.7855	0.195	1671571	keystroke_r	r	n/a
835.9955	0.255	1671991	keystroke_i	i	n/a
836.3555	0.09	1672711	keystroke_;	;	n/a
836.5955	0.15	1673191	keystroke_p	p	n/a
837.3905	0.195	1674781	keystroke_\	\	n/a
838.1405	0.1795	1676281	keystroke_Key.backspace	Key.backspace	n/a
838.515	0.18	1677030	keystroke_Key.backspace	Key.backspace	n/a
838.755	0.24	1677510	keystroke_Key.backspace	Key.backspace	n/a
840.256	0.194	1680512	keystroke_p	p	n/a
840.556	0.179	1681112	keystroke_t	t	n/a
840.84	0.225	1681680	keystroke_i	i	n/a
841.021	0.269	1682042	keystroke_o	o	n/a
841.156	0.225	1682312	keystroke_n	n	n/a
841.575	0.196	1683150	keystroke_Key.space	Key.space	n/a
841.875	0.181	1683750	keystroke_c	c	n/a
842.146	0.255	1684292	keystroke_o	o	n/a
842.356	0.15	1684712	keystroke_r	r	n/a
842.611	0.195	1685222	keystroke_r	r	n/a
842.746	0.21	1685492	keystroke_e	e	n/a
843.106	0.24	1686212	keystroke_d	d	n/a
843.616	0.255	1687232	keystroke_t	t	n/a
843.856	0.165	1687712	keystroke_e	e	n/a
844.426	0.15	1688852	keystroke_Key.backspace	Key.backspace	n/a
844.711	0.104	1689422	keystroke_Key.backspace	Key.backspace	n/a
844.936	0.135	1689872	keystroke_Key.backspace	Key.backspace	n/a
845.476	0.165	1690952	keystroke_c	c	n/a
845.911	0.225	1691822	keystroke_t	t	n/a
846.106	0.195	1692212	keystroke_e	e	n/a
846.496	0.165	1692992	keystroke_d	d	n/a
847.066	0.195	1694132	keystroke_Key.enter	Key.enter	n/a
847.27	7.5225	1694540	prompt	n/a	salmon tire rose cingular\n
848.281	0.24	1696562	keystroke_s	s	n/a
848.491	0.24	1696982	keystroke_a	a	n/a
848.701	0.3	1697402	keystroke_l	l	n/a
848.956	0.24	1697912	keystroke_m	m	n/a
849.751	0.2995	1699502	keystroke_o	o	n/a
849.9605	0.21	1699921	keystroke_n	n	n/a
850.3055	0.21	1700611	keystroke_Key.space	Key.space	n/a
850.636	0.1495	1701272	keystroke_t	t	n/a
850.7705	0.2405	1701541	keystroke_i	i	n/a
850.9955	0.1805	1701991	keystroke_r	r	n/a
851.116	0.15	1702232	keystroke_e	e	n/a
851.2205	0.2105	1702441	keystroke_Key.space	Key.space	n/a
851.4755	0.18	1702951	keystroke_r	r	n/a
851.6255	0.3	1703251	keystroke_o	o	n/a
851.8355	0.255	1703671	keystroke_s	s	n/a
852.4205	0.225	1704841	keystroke_e	e	n/a
852.736	0.2395	1705472	keystroke_Key.space	Key.space	n/a
853.0205	0.225	1706041	keystroke_c	c	n/a
853.1855	0.315	1706371	keystroke_i	i	n/a
853.3655	0.21	1706731	keystroke_n	n	n/a
853.5605	0.21	1707121	keystroke_g	g	n/a
853.8305	0.255	1707661	keystroke_u	u	n/a
854.026	0.1945	1708052	keystroke_l	l	n/a
854.1305	0.24	1708261	keystroke_a	a	n/a
854.3855	0.15	1708771	keystroke_r	r	n/a
854.5955	0.195	1709191	keystroke_Key.enter	Key.enter	n/a
854.798	11.4095	1709596	prompt	n/a	thickness reference tours alto\n
855.6305	0.165	1711261	keystroke_t	t	n/a
855.9155	0.21	1711831	keystroke_h	h	n/a
856.1855	0.21	1712371	keystroke_c	c	n/a
856.4255	0.24	1712851	keystroke_n	n	n/a
857.0555	0.15	1714111	keystroke_Key.backspace	Key.backspace	n/a
857.3255	0.12	1714651	keystroke_Key.backspace	Key.backspace	n/a
857.9105	0.21	1715821	keystroke_i	i	n/a
858.3755	0.15	1716751	keystroke_c	c	n/a
858.7805	0.21	1717561	keystroke_k	k	n/a
859.3055	0.195	1718611	keystroke_n	n	n/a
859.4705	0.225	1718941	keystroke_e	e	n/a
859.6505	0.135	1719301	keystroke_s	s	n/a
859.8905	0.165	1719781	keystroke_s	s	n/a
860.3105	0.18	1720621	keystroke_Key.space	Key.space	n/a
860.6555	0.225	1721311	keystroke_r	r	n/a
860.8205	0.195	1721641	keystroke_e	e	n/a
861.0755	0.225	1722151	keystroke_f	f	n/a
861.2555	0.18	1722511	keystroke_e	e	n/a
861.4505	0.24	1722901	keystroke_r	r	n/a
861.6305	0.18	1723261	keystroke_e	e	n/a
862.1255	0.21	1724251	keystroke_n	n	n/a
862.3505	0.225	1724701	keystroke_c	c	n/a
862.5005	0.195	1725001	keystroke_e	e	n/a
863.1755	0.21	1726351	keystroke_Key.space	Key.space	n/a
863.5955	0.165	1727191	keystroke_t	t	n/a
863.8505	0.27	1727701	keystroke_o	o	n/a
864.0305	0.21	1728061	keystroke_u	u	n/a
864.1655	0.21	1728331	keystroke_r	r	n/a
864.3005	0.165	1728601	keystroke_s	s	n/a
864.6155	0.195	1729231	keystroke_Key.space	Key.space	n/a
864.8255	0.24	1729651	keystroke_a	a	n/a
865.1255	0.18	1730251	keystroke_l	l	n/a
865.3505	0.165	1730701	keystroke_t	t	n/a
865.5605	0.195	1731121	keystroke_o	o	n/a
866.0105	0.195	1732021	keystroke_Key.enter	Key.enter	n/a
866.2125	11.74	1732425	prompt	n/a	victims aviation sealed equally\n
867.0155	0.18	1734031	keystroke_v	v	n/a
867.1655	0.195	1734331	keystroke_i	i	n/a
867.4805	0.21	1734961	keystroke_c	c	n/a
868.0355	0.21	1736071	keystroke_t	t	n/a
868.2005	0.285	1736401	keystroke_i	i	n/a
868.4105	0.225	1736821	keystroke_m	m	n/a
868.6805	0.195	1737361	keystroke_s	s	n/a
869.0255	0.21	1738051	keystroke_Key.space	Key.space	n/a
869.2505	0.225	1738501	keystroke_a	a	n/a
869.5355	0.18	1739071	keystroke_v	v	n/a
869.8505	0.21	1739701	keystroke_i	i	n/a
870.0455	0.24	1740091	keystroke_a	a	n/a
870.4955	0.18	1740991	keystroke_t	t	n/a
870.6605	0.18	1741321	keystroke_i	i	n/a
870.8105	0.27	1741621	keystroke_o	o	n/a
871.0055	0.21	1742011	keystroke_n	n	n/a
871.3955	0.12	1742791	keystroke_Key.space	Key.space	n/a
871.5165	0.209	1743033	keystroke_s	s	n/a
871.6805	0.285	1743361	keystroke_e	e	n/a
871.9505	0.225	1743901	keystroke_a	a	n/a
872.1605	0.21	1744321	keystroke_l	l	n/a
872.4315	0.089	1744863	keystroke_s	s	n/a
872.8655	0.135	1745731	keystroke_Key.backspace	Key.backspace	n/a
873.0755	0.195	1746151	keystroke_e	e	n/a
873.4955	0.195	1746991	keystroke_d	d	n/a
873.7655	0.15	1747531	keystroke_Key.space	Key.space	n/a
874.2305	0.195	1748461	keystroke_q	q	n/a
874.5605	0.255	1749121	keystroke_u	u	n/a
874.9205	0.285	1749841	keystroke_a	a	n/a
875.3105	0.33	1750621	keystroke_l	l	n/a
875.5055	0.195	1751011	keystroke_i	i	n/a
875.8205	0.045	1751641	keystroke_s	s	n/a
876.4055	0.165	1752811	keystroke_Key.backspace	Key.backspace	n/a
876.8255	0.18	1753651	keystroke_t	t	n/a
877.1555	0.135	1754311	keystroke_y	y	n/a
877.8305	0.12	1755661	keystroke_Key.enter	Key.enter	n/a
877.957	16.8255	1755914	prompt	n/a	calculation moderators forever deficit\n
881.8845	0.176	1763769	keystroke_c	c	n/a
882.0765	0.284	1764153	keystroke_a	a	n/a
882.6155	0.18	1765231	keystroke_l	l	n/a
883.0505	0.196	1766101	keystroke_c	c	n/a
883.3205	0.241	1766641	keystroke_u	u	n/a
883.5015	0.194	1767003	keystroke_l	l	n/a
883.9065	0.239	1767813	keystroke_a	a	n/a
884.1605	0.165	1768321	keystroke_t	t	n/a
884.3405	0.166	1768681	keystroke_i	i	n/a
884.4905	0.255	1768981	keystroke_o	o	n/a
884.6555	0.18	1769311	keystroke_n	n	n/a
885.0905	0.136	1770181	keystroke_Key.space	Key.space	n/a
885.4205	0.195	1770841	keystroke_m	m	n/a
885.5705	0.195	1771141	keystroke_o	o	n/a
885.7365	0.164	1771473	keystroke_d	d	n/a
885.9755	0.21	1771951	keystroke_e	e	n/a
886.1265	0.225	1772253	keystroke_r	r	n/a
886.3655	0.241	1772731	keystroke_a	a	n/a
886.6205	0.196	1773241	keystroke_t	t	n/a
886.8605	0.21	1773721	keystroke_o	o	n/a
887.0715	0.255	1774143	keystroke_r	r	n/a
887.2505	0.15	1774501	keystroke_s	s	n/a
887.5055	0.225	1775011	keystroke_Key.space	Key.space	n/a
887.7165	0.18	1775433	keystroke_f	f	n/a
887.9555	0.211	1775911	keystroke_o	o	n/a
888.1965	0.21	1776393	keystroke_r	r	n/a
888.3615	0.18	1776723	keystroke_e	e	n/a
888.6605	0.225	1777321	keystroke_v	v	n/a
888.9015	0.225	1777803	keystroke_e	e	n/a
889.0805	0.181	1778161	keystroke_r	r	n/a
889.3355	0.21	1778671	keystroke_Key.space	Key.space	n/a
890.1755	0.09	1780351	keystroke_x	x	n/a
891.1055	0.15	1782211	keystroke_Key.backspace	Key.backspace	n/a
891.976	0.015	1783952	keystroke_d	d	n/a
892.096	0.255	1784192	keystroke_e	e	n/a
892.531	0.225	1785062	keystroke_f	f	n/a
893.236	0.15	1786472	keystroke_i	i	n/a
893.431	0.21	1786862	keystroke_c	c	n/a
893.596	0.225	1787192	keystroke_i	i	n/a
894.061	0.15	1788122	keystroke_t	t	n/a
894.571	0.21	1789142	keystroke_Key.enter	Key.enter	n/a
894.7885	18.744	1789577	prompt	n/a	academy awarded objective rising\n
895.666	0.21	1791332	keystroke_a	a	n/a
895.921	0.225	1791842	keystroke_c	c	n/a
896.161	0.21	1792322	keystroke_e	e	n/a
896.896	0.15	1793792	keystroke_Key.backspace	Key.backspace	n/a
897.091	0.211	1794182	keystroke_a	a	n/a
897.811	0.15	1795622	keystroke_d	d	n/a
898.096	0.195	1796192	keystroke_e	e	n/a
898.231	0.195	1796462	keystroke_m	m	n/a
898.681	0.18	1797362	keystroke_y	y	n/a
899.191	0.21	1798382	keystroke_Key.space	Key.space	n/a
899.746	0.285	1799492	keystroke_a	a	n/a
900.001	0.285	1800002	keystroke_w	w	n/a
900.271	0.21	1800542	keystroke_a	a	n/a
900.511	0.285	1801022	keystroke_r	r	n/a
900.736	0.225	1801472	keystroke_e	e	n/a
901.261	0.195	1802522	keystroke_d	d	n/a
901.531	0.195	1803062	keystroke_Key.space	Key.space	n/a
902.566	0.135	1805132	keystroke_Key.backspace	Key.backspace	n/a
902.821	0.09	1805642	keystroke_Key.backspace	Key.backspace	n/a
903.031	0.105	1806062	keystroke_Key.backspace	Key.backspace	n/a
903.286	0.09	1806572	keystroke_Key.backspace	Key.backspace	n/a
904.816	0.18	1809632	keystroke_d	d	n/a
905.251	0.1345	1810502	keystroke_e	e	n/a
905.5355	0.1655	1811071	keystroke_d	d	n/a
906.001	0.12	1812002	keystroke_Key.backspace	Key.backspace	n/a
906.226	0.09	1812452	keystroke_Key.backspace	Key.backspace	n/a
906.436	0.12	1812872	keystroke_Key.backspace	Key.backspace	n/a
906.557	0.224	1813114	keystroke_r	r	n/a
906.766	0.1795	1813532	keystroke_e	e	n/a
907.066	0.2095	1814132	keystroke_d	d	n/a
907.4405	0.225	1814881	keystroke_Key.space	Key.space	n/a
909.2255	0.2255	1818451	keystroke_o	o	n/a
909.3915	0.18	1818783	keystroke_b	b	n/a
909.976	0.195	1819952	keystroke_j	j	n/a
910.1555	0.195	1820311	keystroke_e	e	n/a
910.4405	0.195	1820881	keystroke_c	c	n/a
910.8155	0.165	1821631	keystroke_t	t	n/a
910.9965	0.299	1821993	keystroke_i	i	n/a
911.2355	0.24	1822471	keystroke_v	v	n/a
911.4455	0.196	1822891	keystroke_e	e	n/a
911.6415	0.224	1823283	keystroke_Key.space	Key.space	n/a
911.8805	0.165	1823761	keystroke_r	r	n/a
912.0755	0.225	1824151	keystroke_i	i	n/a
912.2855	0.241	1824571	keystroke_s	s	n/a
912.6155	0.315	1825231	keystroke_i	i	n/a
912.8105	0.195	1825621	keystroke_n	n	n/a
913.0655	0.12	1826131	keystroke_g	g	n/a
913.3355	0.195	1826671	keystroke_Key.enter	Key.enter	n/a
913.5395	14.8435	1827079	prompt	n/a	elizabeth surveillance artists balance\n
914.5365	0.18	1829073	keystroke_e	e	n/a
914.7015	0.254	1829403	keystroke_l	l	n/a
914.8355	0.211	1829671	keystroke_i	i	n/a
915.0755	0.181	1830151	keystroke_z	z	n/a
915.6155	0.211	1831231	keystroke_a	a	n/a
916.1715	0.21	1832343	keystroke_b	b	n/a
916.3215	0.18	1832643	keystroke_e	e	n/a
916.5605	0.181	1833121	keystroke_t	t	n/a
916.7715	0.225	1833543	keystroke_h	h	n/a
917.0555	0.195	1834111	keystroke_Key.space	Key.space	n/a
917.2805	0.211	1834561	keystroke_s	s	n/a
917.6115	0.21	1835223	keystroke_u	u	n/a
917.9565	0.209	1835913	keystroke_r	r	n/a
918.4655	0.211	1836931	keystroke_v	v	n/a
918.6615	0.195	1837323	keystroke_e	e	n/a
918.9165	0.224	1837833	keystroke_i	i	n/a
919.1555	0.181	1838311	keystroke_l	l	n/a
919.4415	0.21	1838883	keystroke_l	l	n/a
919.7565	0.195	1839513	keystroke_a	a	n/a
919.9965	0.24	1839993	keystroke_n	n	n/a
920.3405	0.271	1840681	keystroke_c	c	n/a
920.5815	0.225	1841163	keystroke_e	e	n/a
920.9855	0.211	1841971	keystroke_Key.space	Key.space	n/a
921.4215	0.255	1842843	keystroke_a	a	n/a
921.6915	0.165	1843383	keystroke_r	r	n/a
922.1265	0.165	1844253	keystroke_t	t	n/a
922.3665	0.24	1844733	keystroke_i	i	n/a
922.6965	0.24	1845393	keystroke_s	s	n/a
922.9065	0.195	1845813	keystroke_t	t	n/a
923.7165	0.195	1847433	keystroke_s	s	n/a
924.2415	0.224	1848483	keystroke_Key.space	Key.space	n/a
924.9915	0.225	1849983	keystroke_b	b	n/a
926.2515	0.225	1852503	keystroke_a	a	n/a
926.6715	0.225	1853343	keystroke_l	l	n/a
926.8815	0.225	1853763	keystroke_a	a	n/a
927.1215	0.225	1854243	keystroke_n	n	n/a
927.4215	0.21	1854843	keystroke_c	c	n/a
927.5865	0.165	1855173	keystroke_e	e	n/a
928.1865	0.195	1856373	keystroke_Key.enter	Key.enter	n/a
928.388	10.585	1856776	prompt	n/a	scanning protein assault blogging\n
929.1165	0.18	1858233	keystroke_s	s	n/a
929.5365	0.21	1859073	keystroke_c	c	n/a
929.7165	0.21	1859433	keystroke_a	a	n/a
929.9865	0.135	1859973	keystroke_n	n	n/a
930.2115	0.18	1860423	keystroke_n	n	n/a
930.5265	0.33	1861053	keystroke_i	i	n/a
930.7215	0.165	1861443	keystroke_n	n	n/a
930.9615	0.165	1861923	keystroke_g	g	n/a
931.2015	0.195	1862403	keystroke_Key.space	Key.space	n/a
931.5765	0.255	1863153	keystroke_p	p	n/a
931.8325	0.179	1863665	keystroke_r	r	n/a
931.9965	0.24	1863993	keystroke_o	o	n/a
932.4015	0.225	1864803	keystroke_t	t	n/a
932.5815	0.18	1865163	keystroke_e	e	n/a
932.7765	0.375	1865553	keystroke_i	i	n/a
932.9715	0.24	1865943	keystroke_n	n	n/a
933.2265	0.18	1866453	keystroke_Key.space	Key.space	n/a
933.4515	0.255	1866903	keystroke_a	a	n/a
933.7065	0.15	1867413	keystroke_s	s	n/a
934.0065	0.15	1868013	keystroke_s	s	n/a
934.3065	0.24	1868613	keystroke_u	u	n/a
934.5015	0.21	1869003	keystroke_l	l	n/a
934.6965	0.195	1869393	keystroke_t	t	n/a
934.9965	0.15	1869993	keystroke_Key.space	Key.space	n/a
935.3415	0.225	1870683	keystroke_b	b	n/a
935.4765	0.21	1870953	keystroke_l	l	n/a
935.8815	0.21	1871763	keystroke_o	o	n/a
936.1965	0.18	1872393	keystroke_o	o	n/a
937.0515	0.135	1874103	keystroke_Key.backspace	Key.backspace	n/a
937.2315	0.165	1874463	keystroke_g	g	n/a
937.6965	0.165	1875393	keystroke_g	g	n/a
937.8765	0.405	1875753	keystroke_i	i	n/a
938.1315	0.21	1876263	keystroke_n	n	n/a
938.3115	0.135	1876623	keystroke_g	g	n/a
938.7615	0.21	1877523	keystroke_Key.enter	Key.enter	n/a
938.9785	11.89	1877957	prompt	n/a	collections demands batteries composite\n
940.2315	0.195	1880463	keystroke_c	c	n/a
940.3965	0.165	1880793	keystroke_o	o	n/a
940.6965	0.105	1881393	keystroke_l	l	n/a
940.8915	0.33	1881783	keystroke_l	l	n/a
941.0265	0.18	1882053	keystroke_e	e	n/a
941.3415	0.15	1882683	keystroke_c	c	n/a
941.7165	0.15	1883433	keystroke_t	t	n/a
941.8365	0.27	1883673	keystroke_i	i	n/a
941.9715	0.285	1883943	keystroke_o	o	n/a
942.1515	0.21	1884303	keystroke_n	n	n/a
942.3315	0.225	1884663	keystroke_s	s	n/a
942.5865	0.225	1885173	keystroke_Key.space	Key.space	n/a
