onset	duration	sample	value	key	prompt_text
0.751	9.2985	1502	prompt	n/a	the quick brown fox jumps over a lazy dog\n
2.107	0.028	4214	keystroke_t	t	n/a
2.15	0.0755	4300	keystroke_h	h	n/a
2.2545	0.091	4509	keystroke_e	e	n/a
2.3455	0.119	4691	keystroke_Key.space	Key.space	n/a
2.7645	0.06	5529	keystroke_q	q	n/a
3.0045	0.06	6009	keystroke_u	u	n/a
3.17	0.0755	6340	keystroke_i	i	n/a
3.29	0.0905	6580	keystroke_c	c	n/a
3.3645	0.0905	6729	keystroke_k	k	n/a
3.5	0.0895	7000	keystroke_Key.space	Key.space	n/a
4.235	0.0755	8470	keystroke_b	b	n/a
4.411	0.096	8822	keystroke_r	r	n/a
4.493	0.0545	8986	keystroke_o	o	n/a
4.6155	0.0745	9231	keystroke_w	w	n/a
4.7495	0.1265	9499	keystroke_n	n	n/a
4.826	0.1335	9652	keystroke_Key.space	Key.space	n/a
5.6445	0.059	11289	keystroke_f	f	n/a
5.7195	0.0745	11439	keystroke_o	o	n/a
5.899	0.0755	11798	keystroke_x	x	n/a
5.959	0.09	11918	keystroke_Key.space	Key.space	n/a
6.35	0.0595	12700	keystroke_j	j	n/a
6.5895	0.015	13179	keystroke_u	u	n/a
6.649	0.105	13298	keystroke_m	m	n/a
6.8445	0.0605	13689	keystroke_p	p	n/a
6.95	0.105	13900	keystroke_s	s	n/a
7.0395	0.0895	14079	keystroke_Key.space	Key.space	n/a
7.474	0.03	14948	keystroke_o	o	n/a
8.225	0.059	16450	keystroke_v	v	n/a
8.314	0.061	16628	keystroke_e	e	n/a
8.4495	0.09	16899	keystroke_r	r	n/a
8.5545	0.075	17109	keystroke_Key.space	Key.space	n/a
8.6745	0.1045	17349	keystroke_a	a	n/a
8.7645	0.0365	17529	keystroke_Key.space	Key.space	n/a
8.892	0.089	17784	keystroke_l	l	n/a
8.966	0.0755	17932	keystroke_a	a	n/a
9.1615	0.0905	18323	keystroke_z	z	n/a
9.267	0.09	18534	keystroke_y	y	n/a
9.447	0.06	18894	keystroke_Key.space	Key.space	n/a
9.462	0.1045	18924	keystroke_d	d	n/a
9.6565	0.0895	19313	keystroke_o	o	n/a
9.762	0.0605	19524	keystroke_g	g	n/a
9.972	0.0745	19944	keystroke_Key.enter	Key.enter	n/a
10.0565	5.1675	20113	prompt	n/a	advised cost cage inquiries\n
10.9475	0.0895	21895	keystroke_a	a	n/a
11.1865	0.061	22373	keystroke_d	d	n/a
11.233	0.1045	22466	keystroke_v	v	n/a
11.4575	0.0595	22915	keystroke_i	i	n/a
11.547	0.09	23094	keystroke_s	s	n/a
11.7425	0.075	23485	keystroke_e	e	n/a
11.922	0.06	23844	keystroke_d	d	n/a
11.9675	0.0745	23935	keystroke_Key.space	Key.space	n/a
12.117	0.061	24234	keystroke_c	c	n/a
12.193	0.044	24386	keystroke_o	o	n/a
12.312	0.076	24624	keystroke_s	s	n/a
12.522	0.046	25044	keystroke_t	t	n/a
12.598	0.089	25196	keystroke_Key.space	Key.space	n/a
12.8225	0.0755	25645	keystroke_c	c	n/a
13.032	0.0755	26064	keystroke_a	a	n/a
13.122	0.0755	26244	keystroke_g	g	n/a
13.272	0.0445	26544	keystroke_e	e	n/a
13.3475	0.105	26695	keystroke_Key.space	Key.space	n/a
13.8575	0.134	27715	keystroke_i	i	n/a
13.917	0.12	27834	keystroke_n	n	n/a
14.0065	0.09	28013	keystroke_q	q	n/a
14.157	0.075	28314	keystroke_u	u	n/a
14.307	0.09	28614	keystroke_i	i	n/a
14.4125	0.074	28825	keystroke_r	r	n/a
14.6675	0.075	29335	keystroke_i	i	n/a
14.787	0.075	29574	keystroke_e	e	n/a
14.982	0.09	29964	keystroke_s	s	n/a
15.162	0.06	30324	keystroke_Key.enter	Key.enter	n/a
15.2295	18.023	30459	prompt	n/a	european accessibility municipal width\n
16.1375	0.0745	32275	keystroke_u	u	n/a
16.767	0.09	33534	keystroke_Key.backspace	Key.backspace	n/a
16.993	0.0745	33986	keystroke_e	e	n/a
17.2175	0.0605	34435	keystroke_=	=	n/a
17.5325	0.09	35065	keystroke_Key.backspace	Key.backspace	n/a
17.8175	0.0745	35635	keystroke_Key.backspace	Key.backspace	n/a
17.9525	0.12	35905	keystroke_Key.backspace	Key.backspace	n/a
18.162	0.0615	36324	keystroke_e	e	n/a
18.313	0.045	36626	keystroke_u	u	n/a
18.448	0.045	36896	keystroke_r	r	n/a
18.5375	0.0905	37075	keystroke_o	o	n/a
18.718	0.0755	37436	keystroke_p	p	n/a
18.8975	0.06	37795	keystroke_e	e	n/a
19.107	0.105	38214	keystroke_a	a	n/a
19.197	0.1505	38394	keystroke_n	n	n/a
19.257	0.136	38514	keystroke_Key.space	Key.space	n/a
19.573	0.0885	39146	keystroke_a	a	n/a
19.857	0.0605	39714	keystroke_c	c	n/a
19.993	0.105	39986	keystroke_c	c	n/a
20.233	0.06	40466	keystroke_e	e	n/a
20.698	0.074	41396	keystroke_s	s	n/a
20.982	0.046	41964	keystroke_b	b	n/a
21.088	0.06	42176	keystroke_i	i	n/a
21.253	0.09	42506	keystroke_l	l	n/a
21.418	0.074	42836	keystroke_i	i	n/a
21.537	0.06	43074	keystroke_t	t	n/a
21.643	0.09	43286	keystroke_y	y	n/a
21.777	0.12	43554	keystroke_Key.space	Key.space	n/a
26.0405	0	52081	keystroke_Key.backspace	Key.backspace	n/a
26.1425	0.0455	52285	keystroke_Key.backspace	Key.backspace	n/a
26.2475	0.0755	52495	keystroke_Key.backspace	Key.backspace	n/a
26.383	0.1045	52766	keystroke_Key.backspace	Key.backspace	n/a
26.5175	0.09	53035	keystroke_Key.backspace	Key.backspace	n/a
26.697	0.06	53394	keystroke_Key.backspace	Key.backspace	n/a
26.938	0.029	53876	keystroke_Key.backspace	Key.backspace	n/a
27.8375	0.06	55675	keystroke_s	s	n/a
28.394	0.059	56788	keystroke_i	i	n/a
28.633	0.076	57266	keystroke_b	b	n/a
28.7235	0.059	57447	keystroke_i	i	n/a
28.874	0.075	57748	keystroke_l	l	n/a
29.0385	0.06	58077	keystroke_i	i	n/a
29.1435	0.075	58287	keystroke_t	t	n/a
29.233	0.0905	58466	keystroke_y	y	n/a
29.3535	0.134	58707	keystroke_Key.space	Key.space	n/a
30.268	0.06	60536	keystroke_m	m	n/a
30.396	0.04	60792	keystroke_u	u	n/a
30.4595	0.0855	60919	keystroke_n	n	n/a
30.515	0.097	61030	keystroke_i	i	n/a
30.687	0.1055	61374	keystroke_c	c	n/a
31.558	0.0755	63116	keystroke_i	i	n/a
31.9815	0.034	63963	keystroke_p	p	n/a
32.063	0.0755	64126	keystroke_a	a	n/a
32.154	0.022	64308	keystroke_l	l	n/a
32.224	0.021	64448	keystroke_Key.space	Key.space	n/a
32.387	0.049	64774	keystroke_w	w	n/a
32.481	0.026	64962	keystroke_i	i	n/a
32.549	0.057	65098	keystroke_d	d	n/a
32.7415	0.0745	65483	keystroke_t	t	n/a
32.801	0.09	65602	keystroke_h	h	n/a
33.1915	0.06	66383	keystroke_Key.enter	Key.enter	n/a
33.259	7.6115	66518	prompt	n/a	podcasts travels sustainable checks\n
34.069	0.0745	68138	keystroke_p	p	n/a
34.234	0.06	68468	keystroke_o	o	n/a
34.414	0.075	68828	keystroke_d	d	n/a
34.594	0.042	69188	keystroke_c	c	n/a
34.7475	0.045	69495	keystroke_a	a	n/a
34.8735	0.0695	69747	keystroke_s	s	n/a
34.973	0.031	69946	keystroke_t	t	n/a
35.079	0.075	70158	keystroke_s	s	n/a
35.199	0.0895	70398	keystroke_Key.space	Key.space	n/a
35.4955	0.0735	70991	keystroke_t	t	n/a
35.6605	0.074	71321	keystroke_r	r	n/a
35.8845	0.0905	71769	keystroke_a	a	n/a
35.96	0.09	71920	keystroke_v	v	n/a
36.1105	0.0595	72221	keystroke_e	e	n/a
36.2155	0.0895	72431	keystroke_l	l	n/a
36.3505	0.0745	72701	keystroke_s	s	n/a
36.485	0.09	72970	keystroke_Key.space	Key.space	n/a
36.716	0.0095	73432	keystroke_s	s	n/a
36.81	0.042	73620	keystroke_u	u	n/a
36.896	0.073	73792	keystroke_s	s	n/a
37.1745	0.045	74349	keystroke_t	t	n/a
37.4155	0.044	74831	keystroke_a	a	n/a
38.311	0.0615	76622	keystroke_i	i	n/a
38.3615	0.0955	76723	keystroke_n	n	n/a
38.6355	0.0245	77271	keystroke_a	a	n/a
38.7025	0.047	77405	keystroke_b	b	n/a
38.883	0.06	77766	keystroke_l	l	n/a
38.956	0.075	77912	keystroke_e	e	n/a
39.105	0.061	78210	keystroke_Key.space	Key.space	n/a
39.4015	0.075	78803	keystroke_c	c	n/a
39.642	0.045	79284	keystroke_e	e	n/a
40.1185	0.015	80237	keystroke_Key.backspace	Key.backspace	n/a
40.279	0.005	80558	keystroke_h	h	n/a
40.3015	0.0665	80603	keystroke_e	e	n/a
40.457	0.09	80914	keystroke_c	c	n/a
40.588	0.075	81176	keystroke_k	k	n/a
40.689	0.0745	81378	keystroke_s	s	n/a
40.7935	0.0755	81587	keystroke_Key.enter	Key.enter	n/a
40.8745	8.1405	81749	prompt	n/a	ma'am green rescue accessibility\n
41.6155	0.03	83231	keystroke_m	m	n/a
41.7495	0.0605	83499	keystroke_a	a	n/a
42.185	0.045	84370	keystroke_'	'	n/a
42.452	0.028	84904	keystroke_a	a	n/a
42.5035	0.077	85007	keystroke_m	m	n/a
42.577	0.047	85154	keystroke_Key.space	Key.space	n/a
43.0725	0.075	86145	keystroke_g	g	n/a
43.2375	0.09	86475	keystroke_r	r	n/a
43.418	0.06	86836	keystroke_e	e	n/a
43.5825	0.075	87165	keystroke_e	e	n/a
43.6875	0.1205	87375	keystroke_n	n	n/a
43.748	0.135	87496	keystroke_Key.space	Key.space	n/a
44.108	0.06	88216	keystroke_r	r	n/a
44.273	0.0895	88546	keystroke_e	e	n/a
44.4675	0.0755	88935	keystroke_s	s	n/a
44.693	0.075	89386	keystroke_c	c	n/a
44.8125	0.0755	89625	keystroke_u	u	n/a
44.9185	0.074	89837	keystroke_e	e	n/a
45.0525	0.12	90105	keystroke_Key.space	Key.space	n/a
45.638	0.0745	91276	keystroke_a	a	n/a
45.893	0.0595	91786	keystroke_c	c	n/a
46.012	0.09	92024	keystroke_c	c	n/a
46.3885	0.105	92777	keystroke_e	e	n/a
46.7175	0.045	93435	keystroke_s	s	n/a
46.8675	0.076	93735	keystroke_s	s	n/a
47.7525	0.061	95505	keystroke_i	i	n/a
47.9775	0.076	95955	keystroke_b	b	n/a
48.0825	0.075	96165	keystroke_i	i	n/a
48.263	0.075	96526	keystroke_l	l	n/a
48.4125	0.0605	96825	keystroke_i	i	n/a
48.5325	0.075	97065	keystroke_t	t	n/a
48.6225	0.0915	97245	keystroke_y	y	n/a
48.9525	0.0605	97905	keystroke_Key.enter	Key.enter	n/a
49.019	19.0545	98038	prompt	n/a	frontpage was magnitude hydrocodone\n
49.8225	0.075	99645	keystroke_f	f	n/a
49.969	0.0905	99938	keystroke_r	r	n/a
50.028	0.1505	100056	keystroke_o	o	n/a
50.074	0.1505	100148	keystroke_n	n	n/a
50.1935	0.076	100387	keystroke_t	t	n/a
50.464	0.0905	100928	keystroke_p	p	n/a
50.854	0.074	101708	keystroke_a	a	n/a
50.9735	0.039	101947	keystroke_g	g	n/a
51.0765	0.039	102153	keystroke_e	e	n/a
51.1175	0.1045	102235	keystroke_Key.space	Key.space	n/a
51.248	0.048	102496	keystroke_w	w	n/a
51.3745	0.071	102749	keystroke_a	a	n/a
51.5445	0.015	103089	keystroke_s	s	n/a
51.57	0.0895	103140	keystroke_Key.space	Key.space	n/a
51.7025	0.0545	103405	keystroke_m	m	n/a
51.772	0.0665	103544	keystroke_a	a	n/a
52.01	0.0605	104020	keystroke_g	g	n/a
52.1005	0.1195	104201	keystroke_i	i	n/a
52.266	0.15	104532	keystroke_n	n	n/a
52.371	0.104	104742	keystroke_u	u	n/a
54.4555	0.0455	108911	keystroke_Key.backspace	Key.backspace	n/a
54.5915	0.074	109183	keystroke_t	t	n/a
54.7555	0.06	109511	keystroke_u	u	n/a
55.1915	0.0745	110383	keystroke_d	d	n/a
55.357	0.089	110714	keystroke_e	e	n/a
55.461	0.09	110922	keystroke_Key.space	Key.space	n/a
56.9005	0.045	113801	keystroke_Key.backspace	Key.backspace	n/a
57.0505	0.045	114101	keystroke_Key.backspace	Key.backspace	n/a
57.292	0.0355	114584	keystroke_Key.backspace	Key.backspace	n/a
57.328	0.021	114656	keystroke_Key.backspace	Key.backspace	n/a
57.36	0.0305	114720	keystroke_Key.backspace	Key.backspace	n/a
57.4385	0.0135	114877	keystroke_Key.backspace	Key.backspace	n/a
57.5	0.0435	115000	keystroke_Key.backspace	Key.backspace	n/a
57.941	0.09	115882	keystroke_n	n	n/a
58.076	0.075	116152	keystroke_i	i	n/a
58.091	0.015	116182	keystroke_n	n	n/a
58.3165	0.06	116633	keystroke_t	t	n/a
58.4515	0.075	116903	keystroke_u	u	n/a
58.557	0.0755	117114	keystroke_d	d	n/a
58.722	0.06	117444	keystroke_e	e	n/a
58.812	0.075	117624	keystroke_Key.space	Key.space	n/a
59.9825	0.045	119965	keystroke_Key.backspace	Key.backspace	n/a
60.102	0.045	120204	keystroke_Key.backspace	Key.backspace	n/a
60.207	0.022	120414	keystroke_Key.backspace	Key.backspace	n/a
60.289	0.0455	120578	keystroke_Key.backspace	Key.backspace	n/a
60.3945	0.045	120789	keystroke_Key.backspace	Key.backspace	n/a
60.4845	0.045	120969	keystroke_Key.backspace	Key.backspace	n/a
61.161	0.074	122322	keystroke_t	t	n/a
61.25	0.075	122500	keystroke_u	u	n/a
61.4	0.0895	122800	keystroke_d	d	n/a
61.564	0.075	123128	keystroke_e	e	n/a
61.654	0.0905	123308	keystroke_Key.space	Key.space	n/a
62.2245	0.075	124449	keystroke_h	h	n/a
62.389	0.06	124778	keystroke_y	y	n/a
62.464	0.0915	124928	keystroke_d	d	n/a
62.66	0.0745	125320	keystroke_r	r	n/a
62.7795	0.075	125559	keystroke_o	o	n/a
62.8845	0.09	125769	keystroke_c	c	n/a
62.99	0.1355	125980	keystroke_o	o	n/a
63.0805	0.1345	126161	keystroke_n	n	n/a
63.2155	0.089	126431	keystroke_e	e	n/a
65.797	0.001	131594	keystroke_Key.backspace	Key.backspace	n/a
65.885	0.0605	131770	keystroke_Key.backspace	Key.backspace	n/a
66.26	0.0455	132520	keystroke_Key.backspace	Key.backspace	n/a
67.2505	0.09	134501	keystroke_o	o	n/a
67.431	0.0745	134862	keystroke_d	d	n/a
67.5205	0.1355	135041	keystroke_o	o	n/a
67.5805	0.1055	135161	keystroke_n	n	n/a
67.671	0.06	135342	keystroke_e	e	n/a
67.9855	0.0745	135971	keystroke_Key.enter	Key.enter	n/a
68.079	6.0735	136158	prompt	n/a	exploring recipe huge expires\n
68.885	0.075	137770	keystroke_e	e	n/a
69.081	0.075	138162	keystroke_x	x	n/a
69.171	0.149	138342	keystroke_p	p	n/a
69.246	0.1045	138492	keystroke_l	l	n/a
69.4405	0.0905	138881	keystroke_o	o	n/a
69.5465	0.089	139093	keystroke_r	r	n/a
69.68	0.18	139360	keystroke_i	i	n/a
69.7855	0.1505	139571	keystroke_n	n	n/a
69.876	0.09	139752	keystroke_g	g	n/a
70.025	0.121	140050	keystroke_Key.space	Key.space	n/a
70.49	0.0755	140980	keystroke_r	r	n/a
70.6565	0.0735	141313	keystroke_e	e	n/a
70.8505	0.0755	141701	keystroke_c	c	n/a
70.94	0.091	141880	keystroke_i	i	n/a
71.166	0.1045	142332	keystroke_p	p	n/a
71.2855	0.0745	142571	keystroke_e	e	n/a
71.39	0.105	142780	keystroke_Key.space	Key.space	n/a
71.721	0.06	143442	keystroke_h	h	n/a
71.886	0.0445	143772	keystroke_u	u	n/a
72.0515	0.1045	144103	keystroke_g	g	n/a
72.141	0.09	144282	keystroke_e	e	n/a
72.276	0.12	144552	keystroke_Key.space	Key.space	n/a
72.501	0.06	145002	keystroke_e	e	n/a
72.726	0.075	145452	keystroke_x	x	n/a
72.891	0.015	145782	keystroke_p	p	n/a
73.416	0.075	146832	keystroke_i	i	n/a
73.506	0.075	147012	keystroke_r	r	n/a
73.7165	0.0595	147433	keystroke_e	e	n/a
73.9265	0.089	147853	keystroke_s	s	n/a
74.0605	0.0905	148121	keystroke_Key.enter	Key.enter	n/a
74.159	21.6325	148318	prompt	n/a	across goods beastality oecd\n
74.7805	0.076	149561	keystroke_a	a	n/a
75.006	0.075	150012	keystroke_c	c	n/a
75.172	0.074	150344	keystroke_r	r	n/a
75.336	0.0755	150672	keystroke_o	o	n/a
75.426	0.06	150852	keystroke_s	s	n/a
75.576	0.075	151152	keystroke_s	s	n/a
75.756	0.045	151512	keystroke_s	s	n/a
76.206	0.06	152412	keystroke_Key.backspace	Key.backspace	n/a
76.476	0.0895	152952	keystroke_Key.space	Key.space	n/a
77.121	0.06	154242	keystroke_g	g	n/a
77.316	0.075	154632	keystroke_o	o	n/a
77.4515	0.1045	154903	keystroke_o	o	n/a
77.586	0.075	155172	keystroke_d	d	n/a
77.781	0.0605	155562	keystroke_s	s	n/a
77.842	0.104	155684	keystroke_Key.space	Key.space	n/a
78.4715	0.09	156943	keystroke_b	b	n/a
78.5915	0.09	157183	keystroke_e	e	n/a
78.8165	0.09	157633	keystroke_a	a	n/a
79.2065	0.045	158413	keystroke_Key.backspace	Key.backspace	n/a
79.3265	0.06	158653	keystroke_Key.backspace	Key.backspace	n/a
80.091	0.0905	160182	keystroke_e	e	n/a
80.3015	0.0605	160603	keystroke_a	a	n/a
80.497	0.0435	160994	keystroke_s	s	n/a
80.707	0.0605	161414	keystroke_t	t	n/a
82.747	0.06	165494	keystroke_a	a	n/a
82.9725	0.0595	165945	keystroke_l	l	n/a
83.181	0.03	166362	keystroke_i	i	n/a
83.2565	0.0755	166513	keystroke_t	t	n/a
83.377	0.09	166754	keystroke_y	y	n/a
83.5715	0.12	167143	keystroke_Key.space	Key.space	n/a
84.637	0.0445	169274	keystroke_Key.backspace	Key.backspace	n/a
84.7715	0.045	169543	keystroke_Key.backspace	Key.backspace	n/a
92.746	0.058	185492	keystroke_s	s	n/a
93.284	0.12	186568	keystroke_Key.backspace	Key.backspace	n/a
94.006	0.074	188012	keystroke_y	y	n/a
94.125	0.09	188250	keystroke_Key.space	Key.space	n/a
95.0855	0.074	190171	keystroke_o	o	n/a
95.235	0.0905	190470	keystroke_e	e	n/a
95.43	0.0745	190860	keystroke_c	c	n/a
95.596	0.06	191192	keystroke_d	d	n/a
95.7155	0.0745	191431	keystroke_Key.enter	Key.enter	n/a
95.796	14.848	191592	prompt	n/a	cognitive travelling ability democrats\n
96.9155	0.0905	193831	keystroke_c	c	n/a
97.021	0.074	194042	keystroke_o	o	n/a
97.17	0.061	194340	keystroke_g	g	n/a
97.291	0.089	194582	keystroke_i	i	n/a
97.395	0.2255	194790	keystroke_n	n	n/a
97.5605	0.135	195121	keystroke_i	i	n/a
97.9045	0.046	195809	keystroke_Key.backspace	Key.backspace	n/a
98.0405	0.074	196081	keystroke_Key.backspace	Key.backspace	n/a
98.43	0.075	196860	keystroke_Key.backspace	Key.backspace	n/a
98.76	0.121	197520	keystroke_n	n	n/a
98.865	0.1355	197730	keystroke_i	i	n/a
99.2405	0.06	198481	keystroke_v	v	n/a
99.3305	0.09	198661	keystroke_i	i	n/a
99.9005	0.0895	199801	keystroke_Key.backspace	Key.backspace	n/a
100.096	0.104	200192	keystroke_Key.backspace	Key.backspace	n/a
102.4385	0.001	204877	keystroke_t	t	n/a
102.4665	0.044	204933	keystroke_i	i	n/a
102.6615	0.059	205323	keystroke_v	v	n/a
102.766	0.0745	205532	keystroke_e	e	n/a
102.8705	0.105	205741	keystroke_Key.space	Key.space	n/a
103.44	0.075	206880	keystroke_t	t	n/a
103.605	0.06	207210	keystroke_r	r	n/a
103.876	0.075	207752	keystroke_v	v	n/a
104.1905	0.076	208381	keystroke_a	a	n/a
104.6855	0.075	209371	keystroke_Key.backspace	Key.backspace	n/a
105.166	0.075	210332	keystroke_Key.backspace	Key.backspace	n/a
105.69	0.1055	211380	keystroke_a	a	n/a
105.841	0.09	211682	keystroke_v	v	n/a
105.975	0.0465	211950	keystroke_e	e	n/a
106.261	0.0605	212522	keystroke_l	l	n/a
106.3955	0.106	212791	keystroke_l	l	n/a
106.6355	0.1215	213271	keystroke_i	i	n/a
106.696	0.105	213392	keystroke_n	n	n/a
106.771	0.075	213542	keystroke_g	g	n/a
106.891	0.105	213782	keystroke_Key.space	Key.space	n/a
107.236	0.075	214472	keystroke_a	a	n/a
107.371	0.09	214742	keystroke_b	b	n/a
107.581	0.06	215162	keystroke_i	i	n/a
107.746	0.09	215492	keystroke_l	l	n/a
107.9265	0.0595	215853	keystroke_i	i	n/a
108.092	0.059	216184	keystroke_t	t	n/a
108.181	0.0895	216362	keystroke_y	y	n/a
108.3615	0.1195	216723	keystroke_Key.space	Key.space	n/a
108.811	0.075	217622	keystroke_d	d	n/a
108.9915	0.0605	217983	keystroke_e	e	n/a
109.0815	0.165	218163	keystroke_m	m	n/a
109.171	0.1205	218342	keystroke_o	o	n/a
109.3065	0.075	218613	keystroke_c	c	n/a
109.4865	0.075	218973	keystroke_r	r	n/a
109.7115	0.09	219423	keystroke_a	a	n/a
109.8155	0.076	219631	keystroke_t	t	n/a
110.4465	0.06	220893	keystroke_s	s	n/a
110.5665	0.075	221133	keystroke_Key.enter	Key.enter	n/a
110.649	11.484	221298	prompt	n/a	seal stages metadata practitioners\n
111.3315	0.046	222663	keystroke_s	s	n/a
111.5115	0.0305	223023	keystroke_e	e	n/a
111.7065	0.075	223413	keystroke_a	a	n/a
111.856	0.0755	223712	keystroke_l	l	n/a
112.921	0.09	225842	keystroke_Key.space	Key.space	n/a
113.056	0.09	226112	keystroke_s	s	n/a
113.206	0.0905	226412	keystroke_t	t	n/a
113.311	0.076	226622	keystroke_a	a	n/a
113.402	0.0905	226804	keystroke_g	g	n/a
113.507	0.074	227014	keystroke_e	e	n/a
113.6575	0.1045	227315	keystroke_s	s	n/a
113.7915	0.06	227583	keystroke_Key.space	Key.space	n/a
114.3015	0.0745	228603	keystroke_m	m	n/a
114.3915	0.0745	228783	keystroke_e	e	n/a
114.707	0.09	229414	keystroke_t	t	n/a
114.902	0.075	229804	keystroke_a	a	n/a
115.742	0.0745	231484	keystroke_d	d	n/a
115.9515	0.06	231903	keystroke_a	a	n/a
116.1015	0.03	232203	keystroke_t	t	n/a
116.807	0.06	233614	keystroke_a	a	n/a
116.927	0.0895	233854	keystroke_Key.space	Key.space	n/a
117.3615	0.045	234723	keystroke_p	p	n/a
117.4965	0.075	234993	keystroke_r	r	n/a
117.692	0.075	235384	keystroke_a	a	n/a
117.917	0.0755	235834	keystroke_c	c	n/a
118.126	0.0605	236252	keystroke_t	t	n/a
119.357	0.06	238714	keystroke_i	i	n/a
119.627	0.045	239254	keystroke_c	c	n/a
120.122	0.045	240244	keystroke_Key.backspace	Key.backspace	n/a
120.242	0.075	240484	keystroke_Key.backspace	Key.backspace	n/a
121.0375	0.075	242075	keystroke_i	i	n/a
121.1415	0.075	242283	keystroke_t	t	n/a
121.2615	0.0905	242523	keystroke_i	i	n/a
121.4115	0.15	242823	keystroke_o	o	n/a
121.5015	0.105	243003	keystroke_n	n	n/a
121.5765	0.0905	243153	keystroke_e	e	n/a
121.757	0.09	243514	keystroke_r	r	n/a
121.966	0.0915	243932	keystroke_s	s	n/a
122.0575	0.0735	244115	keystroke_Key.enter	Key.enter	n/a
122.1385	4.706	244277	prompt	n/a	wasn't role chubby endless\n
122.7325	0.09	245465	keystroke_w	w	n/a
122.8975	0.1045	245795	keystroke_a	a	n/a
123.0775	0.075	246155	keystroke_s	s	n/a
123.1815	0.076	246363	keystroke_n	n	n/a
123.5125	0.06	247025	keystroke_'	'	n/a
123.633	0.0745	247266	keystroke_t	t	n/a
123.812	0.0895	247624	keystroke_Key.space	Key.space	n/a
124.067	0.0445	248134	keystroke_r	r	n/a
124.142	0.075	248284	keystroke_o	o	n/a
124.292	0.09	248584	keystroke_l	l	n/a
124.382	0.09	248764	keystroke_e	e	n/a
124.502	0.0895	249004	keystroke_Key.space	Key.space	n/a
124.6215	0.09	249243	keystroke_c	c	n/a
124.7715	0.061	249543	keystroke_h	h	n/a
124.9375	0.059	249875	keystroke_u	u	n/a
125.1025	0.059	250205	keystroke_b	b	n/a
125.2215	0.1055	250443	keystroke_b	b	n/a
125.3725	0.0445	250745	keystroke_y	y	n/a
125.492	0.1045	250984	keystroke_Key.space	Key.space	n/a
125.792	0.06	251584	keystroke_e	e	n/a
125.897	0.0905	251794	keystroke_n	n	n/a
126.0025	0.074	252005	keystroke_d	d	n/a
126.167	0.06	252334	keystroke_l	l	n/a
126.272	0.075	252544	keystroke_e	e	n/a
126.4515	0.061	252903	keystroke_s	s	n/a
126.587	0.12	253174	keystroke_s	s	n/a
126.767	0.0745	253534	keystroke_Key.enter	Key.enter	n/a
126.849	9.185	253698	prompt	n/a	antigua childhood orleans copper\n
127.547	0.075	255094	keystroke_e	e	n/a
127.652	0.09	255304	keystroke_n	n	n/a
127.8175	0.0595	255635	keystroke_t	t	n/a
127.907	0.06	255814	keystroke_i	i	n/a
128.1175	0.075	256235	keystroke_g	g	n/a
128.3125	0.015	256625	keystroke_u	u	n/a
128.3725	0.09	256745	keystroke_a	a	n/a
128.5215	0.136	257043	keystroke_Key.space	Key.space	n/a
128.9425	0.0295	257885	keystroke_Key.backspace	Key.backspace	n/a
129.077	0.0455	258154	keystroke_Key.backspace	Key.backspace	n/a
129.197	0.09	258394	keystroke_Key.backspace	Key.backspace	n/a
129.362	0.0595	258724	keystroke_Key.backspace	Key.backspace	n/a
129.4965	0.0605	258993	keystroke_Key.backspace	Key.backspace	n/a
129.617	0.06	259234	keystroke_Key.backspace	Key.backspace	n/a
129.722	0.045	259444	keystroke_Key.backspace	Key.backspace	n/a
129.8275	0.0595	259655	keystroke_Key.backspace	Key.backspace	n/a
129.947	0.09	259894	keystroke_Key.backspace	Key.backspace	n/a
130.157	0.091	260314	keystroke_a	a	n/a
130.2775	0.075	260555	keystroke_n	n	n/a
130.5175	0.075	261035	keystroke_t	t	n/a
130.6525	0.06	261305	keystroke_i	i	n/a
130.7425	0.075	261485	keystroke_g	g	n/a
130.8475	0.075	261695	keystroke_u	u	n/a
130.9675	0.121	261935	keystroke_a	a	n/a
131.0725	0.09	262145	keystroke_Key.space	Key.space	n/a
131.4625	0.075	262925	keystroke_c	c	n/a
131.6125	0.09	263225	keystroke_h	h	n/a
131.7925	0.0895	263585	keystroke_i	i	n/a
131.9575	0.09	263915	keystroke_l	l	n/a
132.0625	0.0605	264125	keystroke_d	d	n/a
132.2275	0.075	264455	keystroke_h	h	n/a
132.4225	0.06	264845	keystroke_o	o	n/a
132.5575	0.09	265115	keystroke_o	o	n/a
132.6775	0.075	265355	keystroke_d	d	n/a
132.7675	0.105	265535	keystroke_Key.space	Key.space	n/a
133.1725	0.075	266345	keystroke_o	o	n/a
133.2625	0.075	266525	keystroke_r	r	n/a
133.3825	0.045	266765	keystroke_l	l	n/a
133.4875	0.06	266975	keystroke_e	e	n/a
133.683	0.059	267366	keystroke_a	a	n/a
133.7715	0.076	267543	keystroke_n	n	n/a
133.877	0.0755	267754	keystroke_s	s	n/a
134.0125	0.0695	268025	keystroke_Key.space	Key.space	n/a
134.4425	0.09	268885	keystroke_c	c	n/a
134.5925	0.075	269185	keystroke_o	o	n/a
134.7725	0.06	269545	keystroke_p	p	n/a
134.8925	0.075	269785	keystroke_p	p	n/a
134.9835	0.074	269967	keystroke_e	e	n/a
135.1325	0.09	270265	keystroke_r	r	n/a
135.9875	0.0445	271975	keystroke_Key.enter	Key.enter	n/a
136.0385	10.946	272077	prompt	n/a	minimum hydrogen comparisons promoted\n
136.873	0.075	273746	keystroke_m	m	n/a
137.0975	0.03	274195	keystroke_i	i	n/a
138.0275	0.1195	276055	keystroke_n	n	n/a
138.3275	0.0905	276655	keystroke_i	i	n/a
138.687	0.105	277374	keystroke_m	m	n/a
138.988	0.03	277976	keystroke_u	u	n/a
139.3025	0.0895	278605	keystroke_m	m	n/a
139.6775	0.0905	279355	keystroke_Key.space	Key.space	n/a
140.0675	0.06	280135	keystroke_h	h	n/a
140.2035	0.074	280407	keystroke_y	y	n/a
140.323	0.09	280646	keystroke_d	d	n/a
140.518	0.0745	281036	keystroke_r	r	n/a
140.608	0.0595	281216	keystroke_o	o	n/a
140.7275	0.075	281455	keystroke_g	g	n/a
140.9525	0.045	281905	keystroke_e	e	n/a
141.0725	0.12	282145	keystroke_n	n	n/a
141.1475	0.12	282295	keystroke_Key.space	Key.space	n/a
141.5525	0.0755	283105	keystroke_c	c	n/a
142.122	0.075	284244	keystroke_Key.backspace	Key.backspace	n/a
143.023	0.075	286046	keystroke_c	c	n/a
143.142	0.1355	286284	keystroke_o	o	n/a
143.218	0.195	286436	keystroke_m	m	n/a
143.383	0.09	286766	keystroke_p	p	n/a
143.487	0.0605	286974	keystroke_a	a	n/a
143.6975	0.0605	287395	keystroke_r	r	n/a
143.833	0.089	287666	keystroke_i	i	n/a
143.907	0.09	287814	keystroke_s	s	n/a
144.163	0.1645	288326	keystroke_o	o	n/a
144.297	0.1205	288594	keystroke_n	n	n/a
145.273	0.0595	290546	keystroke_s	s	n/a
145.4075	0.075	290815	keystroke_Key.space	Key.space	n/a
145.843	0.075	291686	keystroke_p	p	n/a
145.9475	0.076	291895	keystroke_r	r	n/a
146.0675	0.165	292135	keystroke_o	o	n/a
146.1575	0.2105	292315	keystroke_m	m	n/a
146.3075	0.1505	292615	keystroke_o	o	n/a
146.4275	0.09	292855	keystroke_t	t	n/a
146.6375	0.0745	293275	keystroke_e	e	n/a
146.818	0.074	293636	keystroke_d	d	n/a
146.907	0.076	293814	keystroke_Key.enter	Key.enter	n/a
146.9885	8.291	293977	prompt	n/a	reveal projects gore mono\n
147.8375	0.06	295675	keystroke_r	r	n/a
148.0025	0.06	296005	keystroke_e	e	n/a
148.0785	0.074	296157	keystroke_v	v	n/a
148.1975	0.06	296395	keystroke_e	e	n/a
148.3775	0.0905	296755	keystroke_a	a	n/a
148.4375	0.1055	296875	keystroke_l	l	n/a
148.617	0.076	297234	keystroke_Key.space	Key.space	n/a
148.812	0.106	297624	keystroke_p	p	n/a
148.8725	0.0755	297745	keystroke_r	r	n/a
149.1275	0.0455	298255	keystroke_i	i	n/a
149.5625	0.0905	299125	keystroke_Key.backspace	Key.backspace	n/a
150.283	0.075	300566	keystroke_o	o	n/a
150.673	0.0455	301346	keystroke_j	j	n/a
150.838	0.06	301676	keystroke_e	e	n/a
151.0785	0.045	302157	keystroke_c	c	n/a
151.1685	0.075	302337	keystroke_t	t	n/a
151.3035	0.075	302607	keystroke_s	s	n/a
151.4375	0.09	302875	keystroke_Key.space	Key.space	n/a
152.278	0.075	304556	keystroke_g	g	n/a
152.368	0.09	304736	keystroke_o	o	n/a
152.517	0.061	305034	keystroke_r	r	n/a
152.683	0.075	305366	keystroke_e	e	n/a
152.803	0.0595	305606	keystroke_Key.space	Key.space	n/a
153.028	0.03	306056	keystroke_o	o	n/a
154.1225	0.075	308245	keystroke_Key.backspace	Key.backspace	n/a
154.4375	0.091	308875	keystroke_m	m	n/a
154.633	0.0905	309266	keystroke_o	o	n/a
154.828	0.135	309656	keystroke_n	n	n/a
154.947	0.091	309894	keystroke_o	o	n/a
155.202	0.0755	310404	keystroke_Key.enter	Key.enter	n/a
155.284	5.4285	310568	prompt	n/a	logs in portsmouth display\n
156.133	0.045	312266	keystroke_l	l	n/a
156.268	0.075	312536	keystroke_o	o	n/a
156.373	0.075	312746	keystroke_g	g	n/a
156.5835	0.0895	313167	keystroke_s	s	n/a
156.703	0.0895	313406	keystroke_Key.space	Key.space	n/a
157.0935	0.135	314187	keystroke_i	i	n/a
157.1685	0.104	314337	keystroke_n	n	n/a
157.3325	0.105	314665	keystroke_Key.space	Key.space	n/a
157.5425	0.0605	315085	keystroke_p	p	n/a
157.723	0.0905	315446	keystroke_o	o	n/a
157.8735	0.0895	315747	keystroke_r	r	n/a
158.053	0.075	316106	keystroke_t	t	n/a
158.2625	0.09	316525	keystroke_s	s	n/a
158.338	0.0905	316676	keystroke_m	m	n/a
158.4885	0.089	316977	keystroke_o	o	n/a
158.6985	0.059	317397	keystroke_u	u	n/a
158.8325	0.091	317665	keystroke_t	t	n/a
158.908	0.135	317816	keystroke_h	h	n/a
159.013	0.1655	318026	keystroke_Key.space	Key.space	n/a
159.4335	0.0745	318867	keystroke_d	d	n/a
159.569	0.074	319138	keystroke_i	i	n/a
159.703	0.0755	319406	keystroke_s	s	n/a
159.943	0.1205	319886	keystroke_p	p	n/a
159.9725	0.136	319945	keystroke_l	l	n/a
160.213	0.0895	320426	keystroke_a	a	n/a
160.394	0.0895	320788	keystroke_y	y	n/a
160.6475	0.06	321295	keystroke_Key.enter	Key.enter	n/a
160.7165	5.5885	321433	prompt	n/a	dominant jewel stand shopper\n
161.473	0.075	322946	keystroke_d	d	n/a
161.6235	0.075	323247	keystroke_o	o	n/a
161.8035	0.09	323607	keystroke_m	m	n/a
162.014	0.134	324028	keystroke_i	i	n/a
162.1035	0.105	324207	keystroke_n	n	n/a
162.2685	0.075	324537	keystroke_a	a	n/a
162.3435	0.09	324687	keystroke_n	n	n/a
162.523	0.075	325046	keystroke_t	t	n/a
162.614	0.0745	325228	keystroke_Key.space	Key.space	n/a
162.7925	0.0755	325585	keystroke_j	j	n/a
163.0485	0.105	326097	keystroke_e	e	n/a
163.2585	0.075	326517	keystroke_w	w	n/a
163.4535	0.075	326907	keystroke_e	e	n/a
163.5735	0.09	327147	keystroke_l	l	n/a
163.7225	0.121	327445	keystroke_Key.space	Key.space	n/a
164.2335	0.09	328467	keystroke_s	s	n/a
164.414	0.075	328828	keystroke_t	t	n/a
164.504	0.075	329008	keystroke_a	a	n/a
164.653	0.0755	329306	keystroke_n	n	n/a
164.743	0.046	329486	keystroke_d	d	n/a
164.833	0.0905	329666	keystroke_Key.space	Key.space	n/a
164.938	0.091	329876	keystroke_s	s	n/a
165.089	0.089	330178	keystroke_h	h	n/a
165.5235	0.045	331047	keystroke_o	o	n/a
165.7335	0.0605	331467	keystroke_p	p	n/a
165.854	0.0895	331708	keystroke_p	p	n/a
165.9885	0.09	331977	keystroke_e	e	n/a
166.1385	0.104	332277	keystroke_r	r	n/a
166.2285	0.074	332457	keystroke_Key.enter	Key.enter	n/a
166.3155	6.004	332631	prompt	n/a	radar confused textiles eggs\n
166.934	0.075	333868	keystroke_r	r	n/a
167.1425	0.076	334285	keystroke_a	a	n/a
167.3535	0.06	334707	keystroke_d	d	n/a
167.5185	0.074	335037	keystroke_a	a	n/a
167.7435	0.045	335487	keystroke_r	r	n/a
167.8635	0.09	335727	keystroke_Key.space	Key.space	n/a
167.9985	0.09	335997	keystroke_c	c	n/a
168.1035	0.135	336207	keystroke_o	o	n/a
168.1785	0.105	336357	keystroke_n	n	n/a
168.2535	0.06	336507	keystroke_f	f	n/a
168.388	0.091	336776	keystroke_u	u	n/a
168.463	0.075	336926	keystroke_s	s	n/a
168.643	0.0605	337286	keystroke_e	e	n/a
168.7935	0.1045	337587	keystroke_d	d	n/a
168.913	0.0895	337826	keystroke_Key.space	Key.space	n/a
169.1835	0.0745	338367	keystroke_t	t	n/a
169.3785	0.06	338757	keystroke_e	e	n/a
169.5585	0.089	339117	keystroke_x	x	n/a
169.7985	0.06	339597	keystroke_t	t	n/a
169.9635	0.0595	339927	keystroke_f	f	n/a
170.338	0.045	340676	keystroke_Key.backspace	Key.backspace	n/a
170.6235	0.0745	341247	keystroke_i	i	n/a
170.8335	0.06	341667	keystroke_l	l	n/a
170.9535	0.075	341907	keystroke_e	e	n/a
171.1185	0.1045	342237	keystroke_s	s	n/a
171.238	0.075	342476	keystroke_Key.space	Key.space	n/a
171.5985	0.074	343197	keystroke_e	e	n/a
171.7935	0.06	343587	keystroke_g	g	n/a
171.9435	0.09	343887	keystroke_g	g	n/a
172.0935	0.075	344187	keystroke_s	s	n/a
172.2435	0.074	344487	keystroke_Key.enter	Key.enter	n/a
172.324	7.9005	344648	prompt	n/a	austin could've sample vanilla\n
172.9335	0.12	345867	keystroke_a	a	n/a
173.1275	0.09	346255	keystroke_u	u	n/a
173.233	0.09	346466	keystroke_s	s	n/a
173.473	0.0745	346946	keystroke_t	t	n/a
173.5625	0.121	347125	keystroke_i	i	n/a
173.6375	0.09	347275	keystroke_n	n	n/a
173.8175	0.106	347635	keystroke_Key.space	Key.space	n/a
174.0575	0.075	348115	keystroke_c	c	n/a
174.1485	0.0745	348297	keystroke_o	o	n/a
174.3425	0.075	348685	keystroke_u	u	n/a
174.5535	0.074	349107	keystroke_l	l	n/a
174.6725	0.0455	349345	keystroke_d	d	n/a
176.9715	0.001	353943	keystroke_'	'	n/a
177.283	0.0605	354566	keystroke_v	v	n/a
177.403	0.0455	354806	keystroke_e	e	n/a
177.538	0.09	355076	keystroke_Key.space	Key.space	n/a
178.1985	0.09	356397	keystroke_s	s	n/a
178.3785	0.0595	356757	keystroke_a	a	n/a
178.453	0.0455	356906	keystroke_m	m	n/a
178.6635	0.1195	357327	keystroke_p	p	n/a
178.7535	0.1195	357507	keystroke_l	l	n/a
178.8435	0.06	357687	keystroke_e	e	n/a
179.0235	0.1055	358047	keystroke_Key.space	Key.space	n/a
179.2485	0.0745	358497	keystroke_v	v	n/a
179.353	0.0905	358706	keystroke_a	a	n/a
179.4585	0.1495	358917	keystroke_n	n	n/a
179.5935	0.09	359187	keystroke_i	i	n/a
179.803	0.0605	359606	keystroke_l	l	n/a
179.9535	0.06	359907	keystroke_l	l	n/a
180.0735	0.075	360147	keystroke_a	a	n/a
180.1785	0.045	360357	keystroke_Key.enter	Key.enter	n/a
180.231	6.6835	360462	prompt	n/a	applicant contamination camp nearly\n
180.8535	0.06	361707	keystroke_a	a	n/a
180.9735	0.0745	361947	keystroke_p	p	n/a
181.138	0.0905	362276	keystroke_p	p	n/a
181.3035	0.0895	362607	keystroke_l	l	n/a
181.498	0.061	362996	keystroke_i	i	n/a
181.573	0.075	363146	keystroke_c	c	n/a
181.798	0.0605	363596	keystroke_a	a	n/a
181.9035	0.09	363807	keystroke_n	n	n/a
182.038	0.075	364076	keystroke_t	t	n/a
182.1585	0.09	364317	keystroke_Key.space	Key.space	n/a
182.6985	0.075	365397	keystroke_c	c	n/a
182.8185	0.135	365637	keystroke_o	o	n/a
182.8925	0.136	365785	keystroke_n	n	n/a
183.1035	0.06	366207	keystroke_t	t	n/a
183.388	0.075	366776	keystroke_a	a	n/a
183.6285	0.0895	367257	keystroke_m	m	n/a
183.8385	0.12	367677	keystroke_i	i	n/a
183.9135	0.12	367827	keystroke_n	n	n/a
184.0035	0.105	368007	keystroke_a	a	n/a
184.2735	0.0595	368547	keystroke_t	t	n/a
184.3485	0.0745	368697	keystroke_i	i	n/a
184.4985	0.15	368997	keystroke_o	o	n/a
184.5885	0.09	369177	keystroke_n	n	n/a
184.7535	0.1195	369507	keystroke_Key.space	Key.space	n/a
184.978	0.075	369956	keystroke_c	c	n/a
185.204	0.074	370408	keystroke_a	a	n/a
185.263	0.151	370526	keystroke_m	m	n/a
185.3535	0.1055	370707	keystroke_p	p	n/a
185.533	0.135	371066	keystroke_Key.space	Key.space	n/a
185.653	0.076	371306	keystroke_n	n	n/a
185.7585	0.105	371517	keystroke_e	e	n/a
185.9685	0.075	371937	keystroke_a	a	n/a
186.1935	0.0605	372387	keystroke_r	r	n/a
186.463	0.091	372926	keystroke_l	l	n/a
186.613	0.061	373226	keystroke_y	y	n/a
186.853	0.06	373706	keystroke_Key.enter	Key.enter	n/a
186.918	6.897	373836	prompt	n/a	performed killed shots happening\n
187.739	0.0595	375478	keystroke_p	p	n/a
187.8435	0.09	375687	keystroke_e	e	n/a
188.0235	0.09	376047	keystroke_r	r	n/a
188.2335	0.09	376467	keystroke_f	f	n/a
188.3835	0.0755	376767	keystroke_o	o	n/a
188.5635	0.045	377127	keystroke_r	r	n/a
189.028	0.0615	378056	keystroke_m	m	n/a
189.104	0.059	378208	keystroke_e	e	n/a
189.2845	0.089	378569	keystroke_d	d	n/a
189.388	0.0755	378776	keystroke_Key.space	Key.space	n/a
189.538	0.106	379076	keystroke_k	k	n/a
189.734	0.06	379468	keystroke_i	i	n/a
189.9285	0.06	379857	keystroke_l	l	n/a
190.0635	0.091	380127	keystroke_l	l	n/a
190.1685	0.06	380337	keystroke_e	e	n/a
190.3335	0.0605	380667	keystroke_d	d	n/a
190.3785	0.09	380757	keystroke_Key.space	Key.space	n/a
190.574	0.045	381148	keystroke_s	s	n/a
190.589	0.074	381178	keystroke_h	h	n/a
190.7835	0.0595	381567	keystroke_o	o	n/a
190.889	0.074	381778	keystroke_t	t	n/a
191.098	0.06	382196	keystroke_s	s	n/a
191.173	0.0905	382346	keystroke_Key.space	Key.space	n/a
191.4435	0.0895	382887	keystroke_h	h	n/a
191.8935	0.1045	383787	keystroke_Key.backspace	Key.backspace	n/a
192.434	0.074	384868	keystroke_h	h	n/a
192.568	0.09	385136	keystroke_a	a	n/a
192.7185	0.0605	385437	keystroke_p	p	n/a
192.869	0.059	385738	keystroke_p	p	n/a
192.989	0.089	385978	keystroke_e	e	n/a
193.094	0.074	386188	keystroke_n	n	n/a
193.2445	0.1485	386489	keystroke_i	i	n/a
193.3335	0.1195	386667	keystroke_n	n	n/a
193.438	0.075	386876	keystroke_g	g	n/a
193.783	0.03	387566	keystroke_Key.enter	Key.enter	n/a
193.819	7.421	387638	prompt	n/a	nervous races rear manitoba\n
194.5035	0.075	389007	keystroke_n	n	n/a
194.6385	0.0745	389277	keystroke_e	e	n/a
194.803	0.075	389606	keystroke_r	r	n/a
194.9085	0.0905	389817	keystroke_v	v	n/a
195.148	0.075	390296	keystroke_o	o	n/a
195.328	0.0755	390656	keystroke_u	u	n/a
195.569	0.0595	391138	keystroke_s	s	n/a
195.7335	0.06	391467	keystroke_Key.space	Key.space	n/a
196.4535	0.0905	392907	keystroke_r	r	n/a
196.558	0.105	393116	keystroke_a	a	n/a
196.678	0.0755	393356	keystroke_c	c	n/a
196.784	0.09	393568	keystroke_e	e	n/a
196.9635	0.105	393927	keystroke_s	s	n/a
197.0385	0.09	394077	keystroke_Key.space	Key.space	n/a
197.7745	0.074	395549	keystroke_r	r	n/a
197.9835	0.09	395967	keystroke_e	e	n/a
198.1935	0.075	396387	keystroke_a	a	n/a
198.418	0.061	396836	keystroke_r	r	n/a
198.554	0.105	397108	keystroke_Key.space	Key.space	n/a
198.809	0.105	397618	keystroke_m	m	n/a
199.259	0.075	398518	keystroke_n	n	n/a
199.873	0.0905	399746	keystroke_Key.backspace	Key.backspace	n/a
200.069	0.0445	400138	keystroke_a	a	n/a
200.1885	0.135	400377	keystroke_n	n	n/a
200.2935	0.0455	400587	keystroke_s	s	n/a
200.3085	0.09	400617	keystroke_i	i	n/a
200.4735	0.0605	400947	keystroke_t	t	n/a
200.5635	0.075	401127	keystroke_o	o	n/a
200.7885	0.105	401577	keystroke_b	b	n/a
200.9845	0.089	401969	keystroke_a	a	n/a
201.1785	0.06	402357	keystroke_Key.enter	Key.enter	n/a
201.244	8.096	402488	prompt	n/a	properties operate condo grenada\n
202.2135	0.0905	404427	keystroke_p	p	n/a
202.3485	0.075	404697	keystroke_r	r	n/a
202.469	0.0445	404938	keystroke_o	o	n/a
202.589	0.0895	405178	keystroke_p	p	n/a
202.7085	0.09	405417	keystroke_e	e	n/a
202.8895	0.0895	405779	keystroke_r	r	n/a
203.2335	0.0295	406467	keystroke_i	i	n/a
203.8185	0.15	407637	keystroke_e	e	n/a
204.1935	0.045	408387	keystroke_Key.backspace	Key.backspace	n/a
204.3135	0.075	408627	keystroke_Key.backspace	Key.backspace	n/a
204.539	0.0745	409078	keystroke_t	t	n/a
204.6585	0.0755	409317	keystroke_i	i	n/a
204.794	0.0745	409588	keystroke_e	e	n/a
204.9895	0.1045	409979	keystroke_s	s	n/a
205.124	0.09	410248	keystroke_Key.space	Key.space	n/a
205.6035	0.075	411207	keystroke_o	o	n/a
205.754	0.0895	411508	keystroke_p	p	n/a
205.859	0.0445	411718	keystroke_e	e	n/a
206.0245	0.044	412049	keystroke_r	r	n/a
206.2035	0.091	412407	keystroke_a	a	n/a
206.3235	0.0595	412647	keystroke_t	t	n/a
206.444	0.0595	412888	keystroke_e	e	n/a
206.548	0.0895	413096	keystroke_Key.space	Key.space	n/a
207.0435	0.09	414087	keystroke_c	c	n/a
207.1635	0.15	414327	keystroke_o	o	n/a
207.2385	0.1055	414477	keystroke_n	n	n/a
207.3285	0.0605	414657	keystroke_d	d	n/a
207.4035	0.12	414807	keystroke_o	o	n/a
207.5835	0.105	415167	keystroke_Key.space	Key.space	n/a
208.3485	0.0155	416697	keystroke_g	g	n/a
208.379	0.0595	416758	keystroke_r	r	n/a
208.529	0.0745	417058	keystroke_e	e	n/a
208.6335	0.075	417267	keystroke_n	n	n/a
208.7535	0.0605	417507	keystroke_a	a	n/a
208.95	0.0585	417900	keystroke_d	d	n/a
209.1435	0.105	418287	keystroke_a	a	n/a
209.2785	0.0595	418557	keystroke_Key.enter	Key.enter	n/a
209.344	11.8165	418688	prompt	n/a	beast vinyl dependence stating\n
210.0745	0.0895	420149	keystroke_b	b	n/a
210.1485	0.075	420297	keystroke_e	e	n/a
210.3285	0.09	420657	keystroke_a	a	n/a
210.4785	0.09	420957	keystroke_t	t	n/a
211.0035	0.0595	422007	keystroke_Key.backspace	Key.backspace	n/a
211.109	0.075	422218	keystroke_s	s	n/a
211.348	0.0605	422696	keystroke_t	t	n/a
211.514	0.0445	423028	keystroke_Key.space	Key.space	n/a
212.084	0.074	424168	keystroke_v	v	n/a
212.203	0.06	424406	keystroke_u	u	n/a
212.354	0.105	424708	keystroke_n	n	n/a
212.563	0.0455	425126	keystroke_y	y	n/a
212.803	0.0455	425606	keystroke_Key.backspace	Key.backspace	n/a
212.998	0.015	425996	keystroke_Key.backspace	Key.backspace	n/a
213.313	0.105	426626	keystroke_Key.backspace	Key.backspace	n/a
213.8535	0.09	427707	keystroke_i	i	n/a
213.8985	0.1055	427797	keystroke_n	n	n/a
214.048	0.075	428096	keystroke_y	y	n/a
214.124	0.119	428248	keystroke_l	l	n/a
214.273	0.1205	428546	keystroke_Key.space	Key.space	n/a
215.114	0.075	430228	keystroke_d	d	n/a
215.294	0.075	430588	keystroke_e	e	n/a
215.413	0.061	430826	keystroke_p	p	n/a
215.579	0.06	431158	keystroke_e	e	n/a
215.699	0.09	431398	keystroke_n	n	n/a
215.8485	0.075	431697	keystroke_d	d	n/a
216.0435	0.045	432087	keystroke_e	e	n/a
218.371	0.0135	436742	keystroke_n	n	n/a
218.414	0.089	436828	keystroke_c	c	n/a
218.639	0.044	437278	keystroke_e	e	n/a
218.7285	0.0905	437457	keystroke_Key.space	Key.space	n/a
219.088	0.09	438176	keystroke_s	s	n/a
219.343	0.075	438686	keystroke_t	t	n/a
219.434	0.0745	438868	keystroke_a	a	n/a
219.7195	0.0585	439439	keystroke_t	t	n/a
219.884	0.045	439768	keystroke_i	i	n/a
220.093	0.076	440186	keystroke_n	n	n/a
220.514	0.0595	441028	keystroke_g	g	n/a
221.099	0.0595	442198	keystroke_Key.enter	Key.enter	n/a
221.175	11.6815	442350	prompt	n/a	regional structure pdas friendship\n
221.894	0.074	443788	keystroke_r	r	n/a
222.0435	0.0755	444087	keystroke_e	e	n/a
222.254	0.074	444508	keystroke_g	g	n/a
222.388	0.0755	444776	keystroke_i	i	n/a
222.554	0.12	445108	keystroke_o	o	n/a
222.644	0.105	445288	keystroke_n	n	n/a
222.7345	0.0295	445469	keystroke_a	a	n/a
222.809	0.105	445618	keystroke_l	l	n/a
222.974	0.1045	445948	keystroke_Key.space	Key.space	n/a
223.108	0.106	446216	keystroke_s	s	n/a
223.348	0.076	446696	keystroke_t	t	n/a
223.528	0.03	447056	keystroke_r	r	n/a
223.574	0.089	447148	keystroke_u	u	n/a
223.7085	0.0895	447417	keystroke_c	c	n/a
224.458	0.076	448916	keystroke_t	t	n/a
224.623	0.075	449246	keystroke_u	u	n/a
224.714	0.105	449428	keystroke_r	r	n/a
224.939	0.06	449878	keystroke_e	e	n/a
225.043	0.09	450086	keystroke_Key.space	Key.space	n/a
225.869	0.059	451738	keystroke_p	p	n/a
226.049	0.075	452098	keystroke_d	d	n/a
226.258	0.0755	452516	keystroke_a	a	n/a
226.424	0.075	452848	keystroke_s	s	n/a
226.513	0.09	453026	keystroke_Key.space	Key.space	n/a
227.0235	0.09	454047	keystroke_f	f	n/a
227.1885	0.075	454377	keystroke_r	r	n/a
227.384	0.075	454768	keystroke_e	e	n/a
228.2835	0.0595	456567	keystroke_Key.backspace	Key.backspace	n/a
228.4035	0.106	456807	keystroke_Key.backspace	Key.backspace	n/a
230.7155	0.001	461431	keystroke_r	r	n/a
230.7735	0.06	461547	keystroke_i	i	n/a
230.879	0.06	461758	keystroke_e	e	n/a
231.028	0.0905	462056	keystroke_n	n	n/a
231.1335	0.0605	462267	keystroke_d	d	n/a
231.343	0.0455	462686	keystroke_s	s	n/a
231.494	0.0595	462988	keystroke_h	h	n/a
231.6885	0.075	463377	keystroke_i	i	n/a
231.914	0.075	463828	keystroke_p	p	n/a
232.0935	0.0855	464187	keystroke_Key.space	Key.space	n/a
232.5095	0.075	465019	keystroke_Key.backspace	Key.backspace	n/a
232.794	0.06	465588	keystroke_Key.enter	Key.enter	n/a
232.8705	7.5445	465741	prompt	n/a	tension tripadvisor guru education\n
233.604	0.075	467208	keystroke_t	t	n/a
233.799	0.0445	467598	keystroke_e	e	n/a
233.9045	0.1045	467809	keystroke_n	n	n/a
234.0235	0.0755	468047	keystroke_s	s	n/a
234.174	0.0745	468348	keystroke_i	i	n/a
234.354	0.151	468708	keystroke_o	o	n/a
234.429	0.105	468858	keystroke_n	n	n/a
234.639	0.09	469278	keystroke_Key.space	Key.space	n/a
235.014	0.0905	470028	keystroke_t	t	n/a
235.179	0.09	470358	keystroke_r	r	n/a
235.3595	0.075	470719	keystroke_i	i	n/a
235.5385	0.075	471077	keystroke_p	p	n/a
235.674	0.0745	471348	keystroke_a	a	n/a
235.883	0.061	471766	keystroke_d	d	n/a
235.9735	0.0905	471947	keystroke_v	v	n/a
236.199	0.09	472398	keystroke_i	i	n/a
236.304	0.12	472608	keystroke_s	s	n/a
236.439	0.0905	472878	keystroke_o	o	n/a
236.589	0.075	473178	keystroke_r	r	n/a
236.694	0.09	473388	keystroke_Key.space	Key.space	n/a
237.4285	0.09	474857	keystroke_g	g	n/a
237.5485	0.075	475097	keystroke_u	u	n/a
237.6385	0.09	475277	keystroke_r	r	n/a
237.7435	0.09	475487	keystroke_u	u	n/a
237.8935	0.12	475787	keystroke_Key.space	Key.space	n/a
239.0035	0.06	478007	keystroke_e	e	n/a
239.1695	0.0745	478339	keystroke_d	d	n/a
239.274	0.074	478548	keystroke_u	u	n/a
239.393	0.061	478786	keystroke_c	c	n/a
239.589	0.09	479178	keystroke_a	a	n/a
239.859	0.06	479718	keystroke_t	t	n/a
239.904	0.075	479808	keystroke_i	i	n/a
240.054	0.15	480108	keystroke_o	o	n/a
240.129	0.1195	480258	keystroke_n	n	n/a
240.339	0.0745	480678	keystroke_Key.enter	Key.enter	n/a
240.4195	8.4865	480839	prompt	n/a	amended facilities algeria translator\n
241.1335	0.1055	482267	keystroke_a	a	n/a
241.2395	0.074	482479	keystroke_m	m	n/a
241.434	0.0595	482868	keystroke_e	e	n/a
241.554	0.0755	483108	keystroke_n	n	n/a
241.6445	0.06	483289	keystroke_d	d	n/a
241.8085	0.06	483617	keystroke_e	e	n/a
241.959	0.0745	483918	keystroke_d	d	n/a
242.049	0.075	484098	keystroke_Key.space	Key.space	n/a
242.274	0.045	484548	keystroke_f	f	n/a
242.484	0.06	484968	keystroke_a	a	n/a
242.6795	0.0745	485359	keystroke_c	c	n/a
242.784	0.075	485568	keystroke_i	i	n/a
242.949	0.0755	485898	keystroke_l	l	n/a
243.1145	0.059	486229	keystroke_i	i	n/a
243.1885	0.06	486377	keystroke_t	t	n/a
243.2795	0.075	486559	keystroke_i	i	n/a
243.3845	0.075	486769	keystroke_e	e	n/a
243.549	0.075	487098	keystroke_s	s	n/a
243.6535	0.0905	487307	keystroke_Key.space	Key.space	n/a
244.0285	0.0455	488057	keystroke_a	a	n/a
244.104	0.075	488208	keystroke_l	l	n/a
244.3745	0.074	488749	keystroke_g	g	n/a
244.479	0.09	488958	keystroke_e	e	n/a
244.6735	0.0605	489347	keystroke_r	r	n/a
244.8095	0.089	489619	keystroke_i	i	n/a
244.9285	0.03	489857	keystroke_a	a	n/a
245.0485	0.105	490097	keystroke_Key.space	Key.space	n/a
247.149	0.0745	494298	keystroke_t	t	n/a
247.3435	0.075	494687	keystroke_r	r	n/a
247.584	0.075	495168	keystroke_a	a	n/a
247.719	0.0745	495438	keystroke_n	n	n/a
247.854	0.0755	495708	keystroke_s	s	n/a
248.004	0.06	496008	keystroke_l	l	n/a
248.079	0.075	496158	keystroke_a	a	n/a
248.349	0.075	496698	keystroke_t	t	n/a
248.469	0.09	496938	keystroke_o	o	n/a
248.574	0.075	497148	keystroke_r	r	n/a
248.844	0.06	497688	keystroke_Key.enter	Key.enter	n/a
248.9205	5.535	497841	prompt	n/a	doug tuesday after toner\n
249.684	0.075	499368	keystroke_d	d	n/a
249.774	0.09	499548	keystroke_o	o	n/a
249.969	0.075	499938	keystroke_u	u	n/a
250.104	0.06	500208	keystroke_g	g	n/a
250.1935	0.12	500387	keystroke_h	h	n/a
250.299	0.1205	500598	keystroke_Key.space	Key.space	n/a
250.7485	0.0755	501497	keystroke_t	t	n/a
250.8685	0.0755	501737	keystroke_u	u	n/a
250.974	0.09	501948	keystroke_e	e	n/a
251.1535	0.0605	502307	keystroke_s	s	n/a
251.334	0.0605	502668	keystroke_d	d	n/a
251.514	0.0905	503028	keystroke_a	a	n/a
251.5895	0.0895	503179	keystroke_y	y	n/a
251.7695	0.1045	503539	keystroke_Key.space	Key.space	n/a
252.009	0.075	504018	keystroke_a	a	n/a
252.159	0.076	504318	keystroke_f	f	n/a
252.309	0.09	504618	keystroke_t	t	n/a
252.384	0.075	504768	keystroke_e	e	n/a
252.564	0.0895	505128	keystroke_r	r	n/a
252.7435	0.0905	505487	keystroke_Key.space	Key.space	n/a
252.8635	0.0755	505727	keystroke_t	t	n/a
253.0295	0.1195	506059	keystroke_o	o	n/a
253.059	0.1345	506118	keystroke_n	n	n/a
253.4635	0.075	506927	keystroke_e	e	n/a
253.6585	0.06	507317	keystroke_r	r	n/a
254.394	0.06	508788	keystroke_Key.enter	Key.enter	n/a
254.466	10.4145	508932	prompt	n/a	fans killing subsidiary deeply\n
255.174	0.06	510348	keystroke_f	f	n/a
255.384	0.075	510768	keystroke_a	a	n/a
255.4735	0.0755	510947	keystroke_n	n	n/a
255.6235	0.076	511247	keystroke_s	s	n/a
255.7585	0.0905	511517	keystroke_Key.space	Key.space	n/a
256.419	0.06	512838	keystroke_k	k	n/a
256.5695	0.0595	513139	keystroke_i	i	n/a
256.734	0.076	513468	keystroke_l	l	n/a
256.8685	0.075	513737	keystroke_l	l	n/a
257.064	0.1345	514128	keystroke_i	i	n/a
257.124	0.105	514248	keystroke_n	n	n/a
257.169	0.06	514338	keystroke_g	g	n/a
257.334	0.09	514668	keystroke_Key.space	Key.space	n/a
257.484	0.0895	514968	keystroke_s	s	n/a
257.7545	0.164	515509	keystroke_u	u	n/a
257.8895	0.09	515779	keystroke_b	b	n/a
259.208	0.015	518416	keystroke_s	s	n/a
259.239	0.044	518478	keystroke_i	i	n/a
262.0315	0.012	524063	keystroke_d	d	n/a
262.0735	0.075	524147	keystroke_i	i	n/a
262.2085	0.075	524417	keystroke_a	a	n/a
262.4335	0.0605	524867	keystroke_r	r	n/a
262.5085	0.0755	525017	keystroke_y	y	n/a
262.658	0.106	525316	keystroke_Key.space	Key.space	n/a
263.094	0.0595	526188	keystroke_d	d	n/a
263.274	0.06	526548	keystroke_e	e	n/a
263.439	0.0445	526878	keystroke_e	e	n/a
263.575	0.119	527150	keystroke_p	p	n/a
263.635	0.119	527270	keystroke_l	l	n/a
264.6995	0.0595	529399	keystroke_y	y	n/a
264.8335	0.045	529667	keystroke_Key.enter	Key.enter	n/a
264.897	5.503	529794	prompt	n/a	weird listen nuclear coordinate\n
265.644	0.0895	531288	keystroke_w	w	n/a
265.854	0.09	531708	keystroke_e	e	n/a
266.0335	0.0595	532067	keystroke_i	i	n/a
266.123	0.076	532246	keystroke_r	r	n/a
266.274	0.075	532548	keystroke_d	d	n/a
266.409	0.074	532818	keystroke_Key.space	Key.space	n/a
266.604	0.0745	533208	keystroke_l	l	n/a
266.7835	0.06	533567	keystroke_i	i	n/a
266.8285	0.09	533657	keystroke_s	s	n/a
267.0835	0.0445	534167	keystroke_t	t	n/a
267.249	0.06	534498	keystroke_e	e	n/a
267.324	0.12	534648	keystroke_n	n	n/a
267.398	0.12	534796	keystroke_Key.space	Key.space	n/a
267.639	0.0895	535278	keystroke_n	n	n/a
267.743	0.12	535486	keystroke_u	u	n/a
267.878	0.075	535756	keystroke_c	c	n/a
268.013	0.0755	536026	keystroke_l	l	n/a
268.1185	0.09	536237	keystroke_e	e	n/a
268.3285	0.09	536657	keystroke_a	a	n/a
268.5385	0.06	537077	keystroke_r	r	n/a
268.6585	0.09	537317	keystroke_Key.space	Key.space	n/a
268.7635	0.105	537527	keystroke_c	c	n/a
268.9135	0.0745	537827	keystroke_o	o	n/a
269.078	0.076	538156	keystroke_o	o	n/a
269.2445	0.0585	538489	keystroke_r	r	n/a
269.4235	0.0755	538847	keystroke_d	d	n/a
269.529	0.105	539058	keystroke_i	i	n/a
269.589	0.1045	539178	keystroke_n	n	n/a
269.7085	0.06	539417	keystroke_a	a	n/a
269.934	0.089	539868	keystroke_t	t	n/a
270.084	0.075	540168	keystroke_e	e	n/a
270.3385	0.0595	540677	keystroke_Key.enter	Key.enter	n/a
270.404	5.6965	540808	prompt	n/a	chapters rule cadillac motor\n
271.045	0.074	542090	keystroke_c	c	n/a
271.163	0.091	542326	keystroke_h	h	n/a
271.329	0.075	542658	keystroke_a	a	n/a
271.4325	0.076	542865	keystroke_p	p	n/a
271.704	0.045	543408	keystroke_t	t	n/a
271.793	0.0755	543586	keystroke_e	e	n/a
271.9585	0.061	543917	keystroke_r	r	n/a
272.124	0.089	544248	keystroke_s	s	n/a
272.1985	0.0895	544397	keystroke_Key.space	Key.space	n/a
272.363	0.06	544726	keystroke_r	r	n/a
272.454	0.0745	544908	keystroke_u	u	n/a
272.6485	0.0755	545297	keystroke_l	l	n/a
272.753	0.091	545506	keystroke_e	e	n/a
272.888	0.09	545776	keystroke_Key.space	Key.space	n/a
273.3085	0.0745	546617	keystroke_c	c	n/a
273.534	0.0595	547068	keystroke_a	a	n/a
273.728	0.06	547456	keystroke_d	d	n/a
273.8635	0.075	547727	keystroke_i	i	n/a
274.044	0.0445	548088	keystroke_l	l	n/a
274.149	0.06	548298	keystroke_l	l	n/a
274.254	0.06	548508	keystroke_a	a	n/a
274.448	0.09	548896	keystroke_c	c	n/a
274.553	0.0755	549106	keystroke_Key.space	Key.space	n/a
274.7785	0.09	549557	keystroke_m	m	n/a
274.9735	0.075	549947	keystroke_o	o	n/a
275.1085	0.1205	550217	keystroke_t	t	n/a
275.5735	0.075	551147	keystroke_o	o	n/a
275.7235	0.075	551447	keystroke_r	r	n/a
276.0385	0.0595	552077	keystroke_Key.enter	Key.enter	n/a
276.105	6.9995	552210	prompt	n/a	bryant irrigation soviet posts\n
276.894	0.075	553788	keystroke_b	b	n/a
276.999	0.0745	553998	keystroke_r	r	n/a
277.104	0.06	554208	keystroke_y	y	n/a
277.224	0.074	554448	keystroke_a	a	n/a
277.3435	0.06	554687	keystroke_n	n	n/a
277.493	0.061	554986	keystroke_t	t	n/a
277.613	0.0905	555226	keystroke_Key.space	Key.space	n/a
277.9585	0.0755	555917	keystroke_i	i	n/a
278.0485	0.075	556097	keystroke_r	r	n/a
278.2285	0.0755	556457	keystroke_r	r	n/a
278.3635	0.06	556727	keystroke_i	i	n/a
278.6485	0.075	557297	keystroke_g	g	n/a
278.904	0.0745	557808	keystroke_a	a	n/a
279.188	0.06	558376	keystroke_t	t	n/a
279.279	0.0745	558558	keystroke_i	i	n/a
279.4435	0.1205	558887	keystroke_o	o	n/a
279.5185	0.0905	559037	keystroke_n	n	n/a
279.6835	0.0895	559367	keystroke_Key.space	Key.space	n/a
280.853	0.1055	561706	keystroke_s	s	n/a
280.9885	0.075	561977	keystroke_o	o	n/a
281.1985	0.0755	562397	keystroke_v	v	n/a
281.3185	0.06	562637	keystroke_i	i	n/a
281.454	0.059	562908	keystroke_e	e	n/a
281.6485	0.06	563297	keystroke_t	t	n/a
281.7685	0.075	563537	keystroke_Key.space	Key.space	n/a
282.2185	0.0745	564437	keystroke_p	p	n/a
282.413	0.045	564826	keystroke_o	o	n/a
282.504	0.09	565008	keystroke_s	s	n/a
282.684	0.059	565368	keystroke_t	t	n/a
282.818	0.0765	565636	keystroke_s	s	n/a
283.0435	0.0595	566087	keystroke_Key.enter	Key.enter	n/a
283.108	6.4465	566216	prompt	n/a	radiation medicine previously check\n
283.9745	0.0445	567949	keystroke_r	r	n/a
284.228	0.0605	568456	keystroke_a	a	n/a
284.5135	0.06	569027	keystroke_d	d	n/a
284.7085	0.06	569417	keystroke_i	i	n/a
284.7825	0.076	569565	keystroke_a	a	n/a
285.4285	0.0755	570857	keystroke_t	t	n/a
285.5785	0.0895	571157	keystroke_i	i	n/a
285.7585	0.12	571517	keystroke_o	o	n/a
285.8175	0.106	571635	keystroke_n	n	n/a
286.0135	0.105	572027	keystroke_Key.space	Key.space	n/a
286.1195	0.104	572239	keystroke_m	m	n/a
286.2085	0.06	572417	keystroke_e	e	n/a
286.3735	0.09	572747	keystroke_d	d	n/a
286.4935	0.075	572987	keystroke_i	i	n/a
286.6135	0.09	573227	keystroke_c	c	n/a
286.7185	0.105	573437	keystroke_i	i	n/a
286.7935	0.09	573587	keystroke_n	n	n/a
286.8395	0.104	573679	keystroke_e	e	n/a
286.988	0.09	573976	keystroke_Key.space	Key.space	n/a
287.1835	0.09	574367	keystroke_p	p	n/a
287.2885	0.0605	574577	keystroke_r	r	n/a
287.4535	0.0605	574907	keystroke_e	e	n/a
287.679	0.09	575358	keystroke_v	v	n/a
287.784	0.0755	575568	keystroke_i	i	n/a
287.9485	0.0595	575897	keystroke_o	o	n/a
288.113	0.091	576226	keystroke_u	u	n/a
288.1885	0.0745	576377	keystroke_s	s	n/a
288.3395	0.0745	576679	keystroke_l	l	n/a
288.4585	0.075	576917	keystroke_y	y	n/a
288.5785	0.075	577157	keystroke_Key.space	Key.space	n/a
288.6985	0.075	577397	keystroke_c	c	n/a
288.8335	0.09	577667	keystroke_h	h	n/a
288.9535	0.0605	577907	keystroke_e	e	n/a
289.1485	0.09	578297	keystroke_c	c	n/a
289.2685	0.09	578537	keystroke_l	l	n/a
289.5085	0.045	579017	keystroke_Key.enter	Key.enter	n/a
289.568	7.8465	579136	prompt	n/a	jane livestock changed paragraph\n
290.768	0.076	581536	keystroke_j	j	n/a
290.874	0.09	581748	keystroke_a	a	n/a
291.024	0.0745	582048	keystroke_n	n	n/a
291.1135	0.075	582227	keystroke_e	e	n/a
291.2325	0.061	582465	keystroke_Key.space	Key.space	n/a
291.3685	0.105	582737	keystroke_l	l	n/a
291.5485	0.06	583097	keystroke_i	i	n/a
291.774	0.09	583548	keystroke_v	v	n/a
291.849	0.104	583698	keystroke_e	e	n/a
292.0435	0.075	584087	keystroke_s	s	n/a
292.2535	0.06	584507	keystroke_t	t	n/a
292.3585	0.0755	584717	keystroke_o	o	n/a
292.493	0.105	584986	keystroke_c	c	n/a
292.584	0.089	585168	keystroke_k	k	n/a
292.688	0.121	585376	keystroke_Key.space	Key.space	n/a
293.1535	0.0895	586307	keystroke_c	c	n/a
293.258	0.075	586516	keystroke_h	h	n/a
293.4085	0.0745	586817	keystroke_a	a	n/a
293.4685	0.0745	586937	keystroke_n	n	n/a
293.648	0.0755	587296	keystroke_g	g	n/a
293.709	0.089	587418	keystroke_e	e	n/a
293.903	0.09	587806	keystroke_d	d	n/a
293.978	0.09	587956	keystroke_Key.space	Key.space	n/a
294.474	0.059	588948	keystroke_p	p	n/a
294.608	0.09	589216	keystroke_a	a	n/a
294.833	0.06	589666	keystroke_r	r	n/a
295.3425	0.106	590685	keystroke_a	a	n/a
295.748	0.075	591496	keystroke_g	g	n/a
295.913	0.0605	591826	keystroke_r	r	n/a
296.138	0.075	592276	keystroke_a	a	n/a
296.243	0.06	592486	keystroke_p	p	n/a
297.0535	0.12	594107	keystroke_h	h	n/a
297.338	0.075	594676	keystroke_Key.enter	Key.enter	n/a
297.426	6.0635	594852	prompt	n/a	correction you'll latino shut\n
298.149	0.09	596298	keystroke_c	c	n/a
298.269	0.06	596538	keystroke_o	o	n/a
298.388	0.06	596776	keystroke_r	r	n/a
298.523	0.105	597046	keystroke_r	r	n/a
298.718	0.091	597436	keystroke_e	e	n/a
298.898	0.12	597796	keystroke_c	c	n/a
299.1235	0.074	598247	keystroke_t	t	n/a
299.2125	0.1205	598425	keystroke_i	i	n/a
299.4085	0.1205	598817	keystroke_o	o	n/a
299.4835	0.074	598967	keystroke_n	n	n/a
299.6325	0.1205	599265	keystroke_Key.space	Key.space	n/a
300.0385	0.074	600077	keystroke_y	y	n/a
300.1425	0.076	600285	keystroke_o	o	n/a
300.3375	0.076	600675	keystroke_u	u	n/a
300.7435	0.059	601487	keystroke_'	'	n/a
301.073	0.045	602146	keystroke_l	l	n/a
301.2235	0.1045	602447	keystroke_l	l	n/a
301.373	0.09	602746	keystroke_Key.space	Key.space	n/a
301.553	0.09	603106	keystroke_l	l	n/a
301.763	0.1205	603526	keystroke_a	a	n/a
302.063	0.06	604126	keystroke_t	t	n/a
302.183	0.136	604366	keystroke_i	i	n/a
302.2735	0.225	604547	keystroke_n	n	n/a
302.423	0.12	604846	keystroke_o	o	n/a
302.618	0.06	605236	keystroke_Key.space	Key.space	n/a
302.708	0.0905	605416	keystroke_s	s	n/a
302.8135	0.09	605627	keystroke_h	h	n/a
303.009	0.074	606018	keystroke_u	u	n/a
303.128	0.076	606256	keystroke_t	t	n/a
303.4435	0.044	606887	keystroke_Key.enter	Key.enter	n/a
303.4965	5.6035	606993	prompt	n/a	monroe ment direct lookup\n
304.583	0.0755	609166	keystroke_m	m	n/a
304.808	0.0905	609616	keystroke_o	o	n/a
304.868	0.1355	609736	keystroke_n	n	n/a
305.033	0.06	610066	keystroke_r	r	n/a
305.1235	0.0745	610247	keystroke_o	o	n/a
305.2435	0.0895	610487	keystroke_e	e	n/a
305.349	0.104	610698	keystroke_Key.space	Key.space	n/a
306.189	0.06	612378	keystroke_m	m	n/a
306.278	0.076	612556	keystroke_e	e	n/a
306.398	0.09	612796	keystroke_n	n	n/a
306.5185	0.0595	613037	keystroke_t	t	n/a
306.653	0.12	613306	keystroke_Key.space	Key.space	n/a
306.969	0.074	613938	keystroke_d	d	n/a
307.058	0.075	614116	keystroke_i	i	n/a
307.193	0.075	614386	keystroke_r	r	n/a
307.3585	0.0745	614717	keystroke_e	e	n/a
307.5535	0.0895	615107	keystroke_c	c	n/a
307.763	0.045	615526	keystroke_t	t	n/a
307.8525	0.076	615705	keystroke_Key.space	Key.space	n/a
308.0325	0.0605	616065	keystroke_l	l	n/a
308.1985	0.0595	616397	keystroke_o	o	n/a
308.3335	0.09	616667	keystroke_o	o	n/a
308.4835	0.15	616967	keystroke_k	k	n/a
308.7085	0.0755	617417	keystroke_u	u	n/a
308.7985	0.105	617597	keystroke_p	p	n/a
309.0225	0.075	618045	keystroke_Key.enter	Key.enter	n/a
309.1035	7.121	618207	prompt	n/a	involving replica other greater\n
309.8185	0.165	619637	keystroke_i	i	n/a
309.893	0.1355	619786	keystroke_n	n	n/a
310.148	0.06	620296	keystroke_v	v	n/a
310.2225	0.076	620445	keystroke_o	o	n/a
310.3725	0.091	620745	keystroke_l	l	n/a
310.4645	0.118	620929	keystroke_v	v	n/a
310.6125	0.151	621225	keystroke_i	i	n/a
310.6725	0.121	621345	keystroke_n	n	n/a
310.7785	0.059	621557	keystroke_g	g	n/a
310.9125	0.0905	621825	keystroke_Key.space	Key.space	n/a
311.409	0.0745	622818	keystroke_r	r	n/a
311.5885	0.0595	623177	keystroke_e	e	n/a
311.663	0.03	623326	keystroke_p	p	n/a
311.678	0.045	623356	keystroke_o	o	n/a
311.708	0.09	623416	keystroke_l	l	n/a
312.503	0.06	625006	keystroke_Key.backspace	Key.backspace	n/a
312.623	0.105	625246	keystroke_Key.backspace	Key.backspace	n/a
313.2985	0.075	626597	keystroke_l	l	n/a
313.4935	0.06	626987	keystroke_i	i	n/a
313.6285	0.09	627257	keystroke_c	c	n/a
313.8685	0.0745	627737	keystroke_a	a	n/a
313.973	0.105	627946	keystroke_Key.space	Key.space	n/a
314.438	0.105	628876	keystroke_o	o	n/a
314.619	0.09	629238	keystroke_t	t	n/a
314.739	0.059	629478	keystroke_h	h	n/a
314.813	0.075	629626	keystroke_e	e	n/a
314.978	0.09	629956	keystroke_r	r	n/a
315.008	0.09	630016	keystroke_Key.space	Key.space	n/a
315.188	0.075	630376	keystroke_g	g	n/a
315.3085	0.0895	630617	keystroke_r	r	n/a
315.489	0.075	630978	keystroke_e	e	n/a
315.6685	0.09	631337	keystroke_a	a	n/a
315.7435	0.105	631487	keystroke_t	t	n/a
315.8785	0.09	631757	keystroke_e	e	n/a
316.0725	0.0905	632145	keystroke_r	r	n/a
316.1925	0.03	632385	keystroke_Key.enter	Key.enter	n/a
316.2285	7.0615	632457	prompt	n/a	core achieved violent antibody\n
316.988	0.09	633976	keystroke_c	c	n/a
317.108	0.0455	634216	keystroke_o	o	n/a
317.228	0.06	634456	keystroke_r	r	n/a
317.393	0.0755	634786	keystroke_e	e	n/a
317.483	0.075	634966	keystroke_Key.space	Key.space	n/a
317.708	0.075	635416	keystroke_a	a	n/a
318.893	0.015	637786	keystroke_c	c	n/a
318.954	0.014	637908	keystroke_h	h	n/a
319.028	0.0905	638056	keystroke_i	i	n/a
319.163	0.0745	638326	keystroke_e	e	n/a
319.2975	0.0605	638595	keystroke_v	v	n/a
319.403	0.06	638806	keystroke_e	e	n/a
319.568	0.09	639136	keystroke_d	d	n/a
319.658	0.09	639316	keystroke_Key.space	Key.space	n/a
320.153	0.075	640306	keystroke_v	v	n/a
320.348	0.0755	640696	keystroke_i	i	n/a
320.498	0.09	640996	keystroke_o	o	n/a
320.6625	0.0755	641325	keystroke_l	l	n/a
320.783	0.089	641566	keystroke_e	e	n/a
320.903	0.0745	641806	keystroke_n	n	n/a
321.008	0.0905	642016	keystroke_t	t	n/a
321.1285	0.0895	642257	keystroke_Key.space	Key.space	n/a
321.578	0.1045	643156	keystroke_a	a	n/a
321.9975	0.0455	643995	keystroke_n	n	n/a
322.163	0.06	644326	keystroke_t	t	n/a
322.298	0.075	644596	keystroke_i	i	n/a
322.5375	0.075	645075	keystroke_b	b	n/a
322.7025	0.075	645405	keystroke_o	o	n/a
322.808	0.0895	645616	keystroke_d	d	n/a
322.943	0.105	645886	keystroke_y	y	n/a
323.213	0.075	646426	keystroke_Key.enter	Key.enter	n/a
323.2945	4.84	646589	prompt	n/a	memory feelings croatia designers\n
323.948	0.075	647896	keystroke_m	m	n/a
324.0525	0.135	648105	keystroke_e	e	n/a
324.203	0.03	648406	keystroke_m	m	n/a
324.278	0.09	648556	keystroke_o	o	n/a
324.3835	0.0745	648767	keystroke_r	r	n/a
324.5635	0.074	649127	keystroke_y	y	n/a
324.7735	0.06	649547	keystroke_Key.space	Key.space	n/a
324.998	0.075	649996	keystroke_c	c	n/a
325.1785	0.0895	650357	keystroke_r	r	n/a
325.283	0.045	650566	keystroke_o	o	n/a
325.448	0.0755	650896	keystroke_a	a	n/a
325.703	0.06	651406	keystroke_t	t	n/a
325.853	0.046	651706	keystroke_i	i	n/a
326.018	0.09	652036	keystroke_a	a	n/a
326.153	0.09	652306	keystroke_Key.space	Key.space	n/a
326.768	0.09	653536	keystroke_d	d	n/a
326.9485	0.074	653897	keystroke_e	e	n/a
327.1275	0.075	654255	keystroke_s	s	n/a
327.263	0.0605	654526	keystroke_i	i	n/a
327.3835	0.075	654767	keystroke_g	g	n/a
327.4735	0.09	654947	keystroke_n	n	n/a
327.5935	0.06	655187	keystroke_e	e	n/a
327.7435	0.0895	655487	keystroke_r	r	n/a
327.923	0.09	655846	keystroke_s	s	n/a
328.058	0.075	656116	keystroke_Key.enter	Key.enter	n/a
328.1405	6.5035	656281	prompt	n/a	standard revealed light cabinet\n
328.9435	0.06	657887	keystroke_s	s	n/a
329.0775	0.061	658155	keystroke_t	t	n/a
329.2125	0.0605	658425	keystroke_a	a	n/a
329.318	0.09	658636	keystroke_n	n	n/a
329.423	0.075	658846	keystroke_d	d	n/a
329.603	0.09	659206	keystroke_a	a	n/a
329.828	0.0605	659656	keystroke_r	r	n/a
329.993	0.06	659986	keystroke_d	d	n/a
330.068	0.0745	660136	keystroke_Key.space	Key.space	n/a
330.2925	0.075	660585	keystroke_r	r	n/a
330.458	0.075	660916	keystroke_e	e	n/a
330.578	0.075	661156	keystroke_v	v	n/a
330.682	0.0755	661364	keystroke_e	e	n/a
330.923	0.0595	661846	keystroke_a	a	n/a
331.0435	0.0595	662087	keystroke_l	l	n/a
331.1485	0.075	662297	keystroke_e	e	n/a
331.2985	0.0895	662597	keystroke_d	d	n/a
331.4175	0.0455	662835	keystroke_Key.space	Key.space	n/a
331.5685	0.0895	663137	keystroke_l	l	n/a
331.763	0.0605	663526	keystroke_i	i	n/a
331.838	0.075	663676	keystroke_g	g	n/a
332.003	0.09	664006	keystroke_h	h	n/a
332.018	0.06	664036	keystroke_t	t	n/a
332.153	0.105	664306	keystroke_Key.space	Key.space	n/a
332.378	0.089	664756	keystroke_v	v	n/a
332.498	0.0295	664996	keystroke_a	a	n/a
332.767	0.046	665534	keystroke_Key.backspace	Key.backspace	n/a
332.903	0.0595	665806	keystroke_Key.backspace	Key.backspace	n/a
333.0075	0.09	666015	keystroke_c	c	n/a
333.2475	0.0755	666495	keystroke_a	a	n/a
333.938	0.09	667876	keystroke_b	b	n/a
334.103	0.1205	668206	keystroke_i	i	n/a
334.193	0.104	668386	keystroke_n	n	n/a
334.267	0.076	668534	keystroke_e	e	n/a
334.477	0.076	668954	keystroke_t	t	n/a
334.598	0.045	669196	keystroke_Key.enter	Key.enter	n/a
334.6485	13.7515	669297	prompt	n/a	myrtle mall panic gzip\n
335.378	0.089	670756	keystroke_m	m	n/a
335.633	0.075	671266	keystroke_y	y	n/a
335.7685	0.0745	671537	keystroke_r	r	n/a
335.9475	0.061	671895	keystroke_t	t	n/a
336.0385	0.074	672077	keystroke_l	l	n/a
336.158	0.0755	672316	keystroke_e	e	n/a
336.263	0.075	672526	keystroke_Key.space	Key.space	n/a
336.428	0.0905	672856	keystroke_m	m	n/a
336.578	0.075	673156	keystroke_a	a	n/a
336.9835	0.0595	673967	keystroke_l	l	n/a
337.117	0.091	674234	keystroke_l	l	n/a
337.283	0.09	674566	keystroke_Key.space	Key.space	n/a
337.5075	0.0305	675015	keystroke_p	p	n/a
337.6275	0.09	675255	keystroke_a	a	n/a
337.7925	0.091	675585	keystroke_n	n	n/a
338.2425	0.045	676485	keystroke_Key.backspace	Key.backspace	n/a
338.408	0.0755	676816	keystroke_c	c	n/a
338.5435	0.1495	677087	keystroke_n	n	n/a
338.6785	0.089	677357	keystroke_i	i	n/a
338.812	0.0765	677624	keystroke_c	c	n/a
338.948	0.119	677896	keystroke_Key.space	Key.space	n/a
339.6835	0.0745	679367	keystroke_g	g	n/a
339.8175	0.0905	679635	keystroke_z	z	n/a
340.118	0.0605	680236	keystroke_i	i	n/a
340.297	0.062	680594	keystroke_p	p	n/a
341.7075	0.0455	683415	keystroke_Key.backspace	Key.backspace	n/a
341.843	0.045	683686	keystroke_Key.backspace	Key.backspace	n/a
341.978	0.015	683956	keystroke_Key.backspace	Key.backspace	n/a
342.0675	0.0455	684135	keystroke_Key.backspace	Key.backspace	n/a
342.187	0.045	684374	keystroke_Key.backspace	Key.backspace	n/a
342.398	0.0445	684796	keystroke_Key.backspace	Key.backspace	n/a
342.562	0.06	685124	keystroke_Key.backspace	Key.backspace	n/a
342.7125	0.0595	685425	keystroke_Key.backspace	Key.backspace	n/a
342.938	0.015	685876	keystroke_Key.backspace	Key.backspace	n/a
343.567	0.1355	687134	keystroke_n	n	n/a
343.6725	0.0905	687345	keystroke_i	i	n/a
343.8075	0.075	687615	keystroke_z	z	n/a
343.928	0.1195	687856	keystroke_Key.space	Key.space	n/a
344.6625	0.09	689325	keystroke_g	g	n/a
345.308	0.0755	690616	keystroke_z	z	n/a
345.4585	0.075	690917	keystroke_i	i	n/a
345.697	0.061	691394	keystroke_p	p	n/a
346.328	0.044	692656	keystroke_Key.backspace	Key.backspace	n/a
346.448	0.059	692896	keystroke_Key.backspace	Key.backspace	n/a
346.568	0.044	693136	keystroke_Key.backspace	Key.backspace	n/a
346.688	0.03	693376	keystroke_Key.backspace	Key.backspace	n/a
346.778	0.045	693556	keystroke_Key.backspace	Key.backspace	n/a
346.898	0.0445	693796	keystroke_Key.backspace	Key.backspace	n/a
347.048	0.075	694096	keystroke_c	c	n/a
347.273	0.105	694546	keystroke_Key.space	Key.space	n/a
347.498	0.09	694996	keystroke_g	g	n/a
347.648	0.075	695296	keystroke_z	z	n/a
347.873	0.0755	695746	keystroke_i	i	n/a
348.0675	0.0605	696135	keystroke_p	p	n/a
348.3525	0.045	696705	keystroke_Key.enter	Key.enter	n/a
348.415	7.755	696830	prompt	n/a	christina virginia merry clarke\n
349.177	0.076	698354	keystroke_c	c	n/a
349.297	0.076	698594	keystroke_h	h	n/a
349.388	0.06	698776	keystroke_r	r	n/a
349.493	0.075	698986	keystroke_i	i	n/a
349.568	0.075	699136	keystroke_s	s	n/a
349.7925	0.06	699585	keystroke_t	t	n/a
349.9125	0.09	699825	keystroke_i	i	n/a
349.9425	0.09	699885	keystroke_n	n	n/a
350.0475	0.106	700095	keystroke_a	a	n/a
350.123	0.1045	700246	keystroke_Key.space	Key.space	n/a
350.363	0.074	700726	keystroke_g	g	n/a
350.513	0.03	701026	keystroke_i	i	n/a
350.7675	0.075	701535	keystroke_Key.backspace	Key.backspace	n/a
351.457	0.061	702914	keystroke_Key.backspace	Key.backspace	n/a
351.653	0.075	703306	keystroke_v	v	n/a
351.758	0.0745	703516	keystroke_i	i	n/a
351.893	0.0595	703786	keystroke_r	r	n/a
352.1475	0.075	704295	keystroke_g	g	n/a
352.3275	0.0755	704655	keystroke_i	i	n/a
352.4775	0.09	704955	keystroke_n	n	n/a
352.6275	0.105	705255	keystroke_i	i	n/a
353.663	0.089	707326	keystroke_a	a	n/a
353.7825	0.075	707565	keystroke_Key.space	Key.space	n/a
354.0525	0.015	708105	keystroke_m	m	n/a
354.0975	0.075	708195	keystroke_e	e	n/a
354.3075	0.045	708615	keystroke_r	r	n/a
354.4575	0.075	708915	keystroke_r	r	n/a
354.5925	0.0595	709185	keystroke_y	y	n/a
354.727	0.1205	709454	keystroke_Key.space	Key.space	n/a
355.192	0.0755	710384	keystroke_c	c	n/a
355.3125	0.0745	710625	keystroke_l	l	n/a
355.4475	0.09	710895	keystroke_a	a	n/a
355.687	0.06	711374	keystroke_r	r	n/a
355.8225	0.105	711645	keystroke_k	k	n/a
355.9425	0.075	711885	keystroke_e	e	n/a
356.0925	0.075	712185	keystroke_Key.enter	Key.enter	n/a
356.174	6.8045	712348	prompt	n/a	africa predicted mold windsor\n
356.858	0.06	713716	keystroke_a	a	n/a
357.1875	0.075	714375	keystroke_f	f	n/a
357.3525	0.075	714705	keystroke_r	r	n/a
357.4575	0.0745	714915	keystroke_i	i	n/a
357.5775	0.075	715155	keystroke_c	c	n/a
357.802	0.0605	715604	keystroke_a	a	n/a
357.8925	0.0895	715785	keystroke_Key.space	Key.space	n/a
358.087	0.061	716174	keystroke_p	p	n/a
358.192	0.075	716384	keystroke_r	r	n/a
358.327	0.09	716654	keystroke_e	e	n/a
358.508	0.075	717016	keystroke_d	d	n/a
358.598	0.075	717196	keystroke_i	i	n/a
358.733	0.089	717466	keystroke_c	c	n/a
358.913	0.074	717826	keystroke_t	t	n/a
359.032	0.075	718064	keystroke_e	e	n/a
359.197	0.0905	718394	keystroke_d	d	n/a
359.3325	0.0745	718665	keystroke_Key.space	Key.space	n/a
360.1875	0.06	720375	keystroke_m	m	n/a
360.3375	0.06	720675	keystroke_o	o	n/a
360.4875	0.075	720975	keystroke_l	l	n/a
360.638	0.0445	721276	keystroke_d	d	n/a
360.6975	0.09	721395	keystroke_Key.space	Key.space	n/a
361.0575	0.0895	722115	keystroke_w	w	n/a
361.2075	0.1195	722415	keystroke_i	i	n/a
361.282	0.12	722564	keystroke_n	n	n/a
361.387	0.0905	722774	keystroke_d	d	n/a
362.4075	0.0755	724815	keystroke_s	s	n/a
362.512	0.06	725024	keystroke_o	o	n/a
362.677	0.075	725354	keystroke_r	r	n/a
362.9475	0.03	725895	keystroke_Key.enter	Key.enter	n/a
362.983	7.961	725966	prompt	n/a	death voyeurweb permit submitted\n
363.757	0.09	727514	keystroke_d	d	n/a
363.9525	0.0745	727905	keystroke_e	e	n/a
364.132	0.075	728264	keystroke_a	a	n/a
364.222	0.075	728444	keystroke_t	t	n/a
364.402	0.0905	728804	keystroke_h	h	n/a
364.537	0.1055	729074	keystroke_Key.space	Key.space	n/a
365.453	0.059	730906	keystroke_v	v	n/a
365.6625	0.06	731325	keystroke_o	o	n/a
366.5775	0.0445	733155	keystroke_y	y	n/a
366.713	0.074	733426	keystroke_e	e	n/a
367.0425	0.045	734085	keystroke_u	u	n/a
367.147	0.075	734294	keystroke_r	r	n/a
367.342	0.091	734684	keystroke_w	w	n/a
367.538	0.06	735076	keystroke_e	e	n/a
367.612	0.075	735224	keystroke_b	b	n/a
367.8215	0.0905	735643	keystroke_Key.space	Key.space	n/a
368.617	0.075	737234	keystroke_p	p	n/a
368.722	0.0905	737444	keystroke_e	e	n/a
368.903	0.0745	737806	keystroke_r	r	n/a
369.0075	0.0895	738015	keystroke_m	m	n/a
369.112	0.09	738224	keystroke_i	i	n/a
369.232	0.06	738464	keystroke_t	t	n/a
369.337	0.12	738674	keystroke_Key.space	Key.space	n/a
369.517	0.091	739034	keystroke_s	s	n/a
369.7575	0.121	739515	keystroke_u	u	n/a
369.8165	0.106	739633	keystroke_b	b	n/a
370.0425	0.12	740085	keystroke_m	m	n/a
370.1765	0.091	740353	keystroke_i	i	n/a
370.253	0.0745	740506	keystroke_t	t	n/a
370.403	0.1045	740806	keystroke_t	t	n/a
370.6275	0.075	741255	keystroke_e	e	n/a
370.7925	0.075	741585	keystroke_d	d	n/a
370.8825	0.059	741765	keystroke_Key.enter	Key.enter	n/a
370.948	10.597	741896	prompt	n/a	uganda tonight legacy findlaw\n
371.768	0.074	743536	keystroke_u	u	n/a
371.9775	0.0745	743955	keystroke_g	g	n/a
372.112	0.061	744224	keystroke_a	a	n/a
372.2175	0.075	744435	keystroke_n	n	n/a
372.518	0.075	745036	keystroke_d	d	n/a
372.728	0.075	745456	keystroke_a	a	n/a
372.818	0.104	745636	keystroke_Key.space	Key.space	n/a
373.0275	0.06	746055	keystroke_t	t	n/a
373.1175	0.0905	746235	keystroke_o	o	n/a
373.2525	0.15	746505	keystroke_n	n	n/a
373.373	0.0745	746746	keystroke_i	i	n/a
373.478	0.0745	746956	keystroke_g	g	n/a
373.5825	0.0755	747165	keystroke_h	h	n/a
373.6725	0.06	747345	keystroke_t	t	n/a
373.7625	0.1045	747525	keystroke_Key.space	Key.space	n/a
374.1075	0.059	748215	keystroke_l	l	n/a
374.2425	0.0755	748485	keystroke_e	e	n/a
374.4375	0.0745	748875	keystroke_g	g	n/a
374.573	0.0895	749146	keystroke_a	a	n/a
374.8725	0.06	749745	keystroke_z	z	n/a
375.3225	0.06	750645	keystroke_Key.backspace	Key.backspace	n/a
375.4575	0.06	750915	keystroke_c	c	n/a
375.907	0.0755	751814	keystroke_Key.space	Key.space	n/a
376.582	0.075	753164	keystroke_Key.backspace	Key.backspace	n/a
376.732	0.045	753464	keystroke_Key.backspace	Key.backspace	n/a
377.587	0.075	755174	keystroke_c	c	n/a
377.677	0.075	755354	keystroke_y	y	n/a
377.827	0.09	755654	keystroke_Key.space	Key.space	n/a
377.902	0.091	755804	keystroke_w	w	n/a
378.053	0.1045	756106	keystroke_i	i	n/a
378.1125	0.12	756225	keystroke_n	n	n/a
378.5175	0.074	757035	keystroke_d	d	n/a
378.7275	0.09	757455	keystroke_f	f	n/a
379.1775	0.06	758355	keystroke_Key.backspace	Key.backspace	n/a
379.3265	0.09	758653	keystroke_Key.backspace	Key.backspace	n/a
379.5225	0.045	759045	keystroke_Key.backspace	Key.backspace	n/a
379.672	0.015	759344	keystroke_Key.backspace	Key.backspace	n/a
379.747	0.046	759494	keystroke_Key.backspace	Key.backspace	n/a
379.8525	0.0595	759705	keystroke_Key.backspace	Key.backspace	n/a
380.5425	0.0895	761085	keystroke_Key.space	Key.space	n/a
380.707	0.09	761414	keystroke_f	f	n/a
380.8275	0.1195	761655	keystroke_i	i	n/a
380.8875	0.12	761775	keystroke_n	n	n/a
380.9615	0.061	761923	keystroke_d	d	n/a
381.097	0.09	762194	keystroke_l	l	n/a
381.202	0.075	762404	keystroke_a	a	n/a
381.363	0.075	762726	keystroke_w	w	n/a
381.483	0.06	762966	keystroke_Key.enter	Key.enter	n/a
381.5605	8.549	763121	prompt	n/a	cosmetics children jefferson omaha\n
382.323	0.06	764646	keystroke_c	c	n/a
382.4735	0.0605	764947	keystroke_o	o	n/a
382.7885	0.075	765577	keystroke_s	s	n/a
382.8925	0.0755	765785	keystroke_m	m	n/a
383.013	0.0745	766026	keystroke_e	e	n/a
383.4175	0.031	766835	keystroke_t	t	n/a
383.5085	0.089	767017	keystroke_i	i	n/a
383.6425	0.076	767285	keystroke_c	c	n/a
383.8235	0.0745	767647	keystroke_s	s	n/a
383.943	0.06	767886	keystroke_Key.space	Key.space	n/a
384.2285	0.09	768457	keystroke_c	c	n/a
384.363	0.075	768726	keystroke_h	h	n/a
384.543	0.075	769086	keystroke_i	i	n/a
384.723	0.075	769446	keystroke_l	l	n/a
384.813	0.0755	769626	keystroke_d	d	n/a
384.9785	0.075	769957	keystroke_r	r	n/a
385.248	0.105	770496	keystroke_n	n	n/a
385.278	0.1355	770556	keystroke_Key.space	Key.space	n/a
385.668	0.075	771336	keystroke_Key.backspace	Key.backspace	n/a
385.8185	0.0895	771637	keystroke_e	e	n/a
386.163	0.06	772326	keystroke_Key.backspace	Key.backspace	n/a
386.313	0.06	772626	keystroke_Key.backspace	Key.backspace	n/a
386.4185	0.0755	772837	keystroke_e	e	n/a
386.598	0.12	773196	keystroke_n	n	n/a
386.673	0.135	773346	keystroke_Key.space	Key.space	n/a
387.078	0.0605	774156	keystroke_j	j	n/a
387.213	0.0755	774426	keystroke_e	e	n/a
387.408	0.0755	774816	keystroke_f	f	n/a
387.558	0.075	775116	keystroke_f	f	n/a
387.693	0.09	775386	keystroke_e	e	n/a
387.874	0.0885	775748	keystroke_r	r	n/a
388.1135	0.059	776227	keystroke_s	s	n/a
388.1425	0.151	776285	keystroke_o	o	n/a
388.2325	0.09	776465	keystroke_n	n	n/a
388.413	0.1045	776826	keystroke_Key.space	Key.space	n/a
388.8025	0.135	777605	keystroke_o	o	n/a
388.878	0.1345	777756	keystroke_m	m	n/a
389.0425	0.075	778085	keystroke_a	a	n/a
389.193	0.075	778386	keystroke_h	h	n/a
389.283	0.09	778566	keystroke_a	a	n/a
390.063	0.045	780126	keystroke_Key.enter	Key.enter	n/a
390.1135	4.826	780227	prompt	n/a	debate yale pike drag\n
390.9035	0.06	781807	keystroke_d	d	n/a
391.068	0.0455	782136	keystroke_e	e	n/a
391.1435	0.06	782287	keystroke_b	b	n/a
391.2785	0.0745	782557	keystroke_a	a	n/a
391.3675	0.0755	782735	keystroke_t	t	n/a
391.5025	0.06	783005	keystroke_e	e	n/a
391.578	0.1195	783156	keystroke_Key.space	Key.space	n/a
391.9385	0.089	783877	keystroke_y	y	n/a
392.1325	0.076	784265	keystroke_a	a	n/a
392.268	0.0745	784536	keystroke_l	l	n/a
392.418	0.045	784836	keystroke_e	e	n/a
392.523	0.06	785046	keystroke_Key.space	Key.space	n/a
392.8985	0.1045	785797	keystroke_p	p	n/a
393.1235	0.075	786247	keystroke_i	i	n/a
393.273	0.0905	786546	keystroke_k	k	n/a
393.3645	0.073	786729	keystroke_e	e	n/a
393.4525	0.0905	786905	keystroke_Key.space	Key.space	n/a
393.784	0.045	787568	keystroke_d	d	n/a
393.9335	0.075	787867	keystroke_r	r	n/a
394.1885	0.074	788377	keystroke_a	a	n/a
394.2775	0.091	788555	keystroke_g	g	n/a
394.8625	0.0745	789725	keystroke_Key.enter	Key.enter	n/a
394.943	4.872	789886	prompt	n/a	cheers clicking rail strip\n
395.613	0.075	791226	keystroke_c	c	n/a
395.6885	0.074	791377	keystroke_h	h	n/a
395.823	0.045	791646	keystroke_e	e	n/a
395.9725	0.0905	791945	keystroke_e	e	n/a
396.153	0.045	792306	keystroke_r	r	n/a
396.243	0.075	792486	keystroke_s	s	n/a
396.363	0.105	792726	keystroke_Key.space	Key.space	n/a
396.6485	0.0745	793297	keystroke_c	c	n/a
396.738	0.075	793476	keystroke_l	l	n/a
396.903	0.075	793806	keystroke_i	i	n/a
397.008	0.0905	794016	keystroke_c	c	n/a
397.083	0.0905	794166	keystroke_k	k	n/a
397.278	0.1045	794556	keystroke_i	i	n/a
397.338	0.1045	794676	keystroke_n	n	n/a
397.3975	0.105	794795	keystroke_g	g	n/a
397.5475	0.121	795095	keystroke_Key.space	Key.space	n/a
397.908	0.06	795816	keystroke_r	r	n/a
398.1335	0.089	796267	keystroke_a	a	n/a
398.2385	0.0745	796477	keystroke_i	i	n/a
398.4325	0.09	796865	keystroke_l	l	n/a
398.5675	0.1205	797135	keystroke_Key.space	Key.space	n/a
398.8235	0.09	797647	keystroke_s	s	n/a
399.0485	0.06	798097	keystroke_t	t	n/a
399.212	0.0905	798424	keystroke_r	r	n/a
399.318	0.0745	798636	keystroke_i	i	n/a
399.5125	0.09	799025	keystroke_p	p	n/a
399.7525	0.06	799505	keystroke_Key.enter	Key.enter	n/a
399.819	7.345	799638	prompt	n/a	raymond organisms hero clusters\n
400.5635	0.075	801127	keystroke_r	r	n/a
400.7885	0.06	801577	keystroke_a	a	n/a
400.8935	0.06	801787	keystroke_y	y	n/a
401.1335	0.09	802267	keystroke_m	m	n/a
401.388	0.1505	802776	keystroke_o	o	n/a
401.4485	0.1345	802897	keystroke_n	n	n/a
401.5685	0.0595	803137	keystroke_d	d	n/a
401.688	0.09	803376	keystroke_Key.space	Key.space	n/a
402.183	0.0605	804366	keystroke_o	o	n/a
402.3025	0.09	804605	keystroke_r	r	n/a
402.4375	0.076	804875	keystroke_g	g	n/a
402.5885	0.089	805177	keystroke_a	a	n/a
402.7085	0.089	805417	keystroke_n	n	n/a
402.8285	0.074	805657	keystroke_i	i	n/a
403.0085	0.075	806017	keystroke_s	s	n/a
403.2635	0.119	806527	keystroke_m	m	n/a
404.8085	0.0445	809617	keystroke_s	s	n/a
404.913	0.09	809826	keystroke_Key.space	Key.space	n/a
405.1835	0.0745	810367	keystroke_h	h	n/a
405.333	0.09	810666	keystroke_e	e	n/a
405.528	0.0755	811056	keystroke_r	r	n/a
405.6185	0.059	811237	keystroke_o	o	n/a
405.7835	0.074	811567	keystroke_Key.space	Key.space	n/a
405.828	0.075	811656	keystroke_c	c	n/a
405.963	0.0605	811926	keystroke_l	l	n/a
406.1885	0.0595	812377	keystroke_u	u	n/a
406.308	0.09	812616	keystroke_s	s	n/a
406.443	0.075	812886	keystroke_t	t	n/a
406.548	0.075	813096	keystroke_e	e	n/a
406.713	0.09	813426	keystroke_r	r	n/a
406.923	0.09	813846	keystroke_s	s	n/a
407.088	0.075	814176	keystroke_Key.enter	Key.enter	n/a
407.1685	5.4405	814337	prompt	n/a	services tulsa suggestions lectures\n
407.8225	0.09	815645	keystroke_s	s	n/a
408.0035	0.075	816007	keystroke_e	e	n/a
408.168	0.09	816336	keystroke_r	r	n/a
408.273	0.0755	816546	keystroke_v	v	n/a
408.4685	0.075	816937	keystroke_i	i	n/a
408.5585	0.089	817117	keystroke_c	c	n/a
408.7685	0.075	817537	keystroke_e	e	n/a
408.9325	0.076	817865	keystroke_s	s	n/a
409.0535	0.1045	818107	keystroke_Key.space	Key.space	n/a
409.143	0.0745	818286	keystroke_s	s	n/a
409.3535	0.0745	818707	keystroke_u	u	n/a
409.5635	0.059	819127	keystroke_g	g	n/a
409.6835	0.075	819367	keystroke_g	g	n/a
409.788	0.0605	819576	keystroke_e	e	n/a
409.953	0.076	819906	keystroke_s	s	n/a
410.193	0.06	820386	keystroke_t	t	n/a
410.283	0.06	820566	keystroke_i	i	n/a
410.448	0.1505	820896	keystroke_o	o	n/a
410.538	0.105	821076	keystroke_n	n	n/a
410.628	0.06	821256	keystroke_s	s	n/a
410.748	0.1055	821496	keystroke_Key.space	Key.space	n/a
411.1235	0.075	822247	keystroke_l	l	n/a
411.3335	0.0745	822667	keystroke_e	e	n/a
411.5435	0.075	823087	keystroke_c	c	n/a
411.799	0.059	823598	keystroke_t	t	n/a
411.9335	0.075	823867	keystroke_u	u	n/a
412.053	0.0455	824106	keystroke_r	r	n/a
412.203	0.0905	824406	keystroke_e	e	n/a
412.383	0.105	824766	keystroke_s	s	n/a
412.518	0.0895	825036	keystroke_Key.enter	Key.enter	n/a
412.613	6.026	825226	prompt	n/a	release crown funeral lance\n
413.643	0.0745	827286	keystroke_r	r	n/a
413.8235	0.074	827647	keystroke_e	e	n/a
413.913	0.09	827826	keystroke_l	l	n/a
414.018	0.075	828036	keystroke_e	e	n/a
414.198	0.09	828396	keystroke_a	a	n/a
414.378	0.1045	828756	keystroke_s	s	n/a
414.5725	0.09	829145	keystroke_e	e	n/a
414.678	0.0895	829356	keystroke_Key.space	Key.space	n/a
414.903	0.075	829806	keystroke_c	c	n/a
415.158	0.09	830316	keystroke_r	r	n/a
415.323	0.0455	830646	keystroke_o	o	n/a
415.458	0.03	830916	keystroke_w	w	n/a
415.713	0.1345	831426	keystroke_n	n	n/a
415.803	0.1045	831606	keystroke_Key.space	Key.space	n/a
416.388	0.0605	832776	keystroke_g	g	n/a
416.748	0.044	833496	keystroke_Key.backspace	Key.backspace	n/a
416.9135	0.0605	833827	keystroke_f	f	n/a
417.048	0.135	834096	keystroke_u	u	n/a
417.1385	0.1045	834277	keystroke_n	n	n/a
417.228	0.061	834456	keystroke_e	e	n/a
417.423	0.03	834846	keystroke_r	r	n/a
417.5875	0.0765	835175	keystroke_a	a	n/a
417.649	0.074	835298	keystroke_l	l	n/a
417.768	0.075	835536	keystroke_Key.space	Key.space	n/a
417.933	0.075	835866	keystroke_l	l	n/a
418.023	0.075	836046	keystroke_a	a	n/a
418.143	0.09	836286	keystroke_n	n	n/a
418.2775	0.0755	836555	keystroke_c	c	n/a
418.473	0.075	836946	keystroke_e	e	n/a
418.578	0.06	837156	keystroke_Key.enter	Key.enter	n/a
418.6465	4.6275	837293	prompt	n/a	stops scenes can probe\n
419.2525	0.09	838505	keystroke_s	s	n/a
419.4625	0.0755	838925	keystroke_t	t	n/a
419.583	0.0905	839166	keystroke_o	o	n/a
419.763	0.06	839526	keystroke_p	p	n/a
419.8535	0.0745	839707	keystroke_s	s	n/a
419.943	0.0895	839886	keystroke_Key.space	Key.space	n/a
420.2575	0.076	840515	keystroke_s	s	n/a
420.4685	0.074	840937	keystroke_c	c	n/a
420.6325	0.0755	841265	keystroke_e	e	n/a
420.753	0.0745	841506	keystroke_n	n	n/a
420.843	0.0745	841686	keystroke_e	e	n/a
421.023	0.075	842046	keystroke_s	s	n/a
421.128	0.1055	842256	keystroke_Key.space	Key.space	n/a
421.5335	0.06	843067	keystroke_c	c	n/a
421.7585	0.074	843517	keystroke_a	a	n/a
421.8775	0.136	843755	keystroke_n	n	n/a
421.9675	0.09	843935	keystroke_Key.space	Key.space	n/a
422.3425	0.075	844685	keystroke_p	p	n/a
422.4475	0.075	844895	keystroke_r	r	n/a
422.5825	0.09	845165	keystroke_o	o	n/a
422.8235	0.0745	845647	keystroke_b	b	n/a
423.0635	0.059	846127	keystroke_e	e	n/a
423.2125	0.0605	846425	keystroke_Key.enter	Key.enter	n/a
423.2785	6.9855	846557	prompt	n/a	towers divided starts pathology\n
424.068	0.0605	848136	keystroke_t	t	n/a
424.1585	0.0745	848317	keystroke_o	o	n/a
424.307	0.0905	848614	keystroke_w	w	n/a
424.5025	0.105	849005	keystroke_e	e	n/a
424.7275	0.091	849455	keystroke_r	r	n/a
424.953	0.0745	849906	keystroke_s	s	n/a
425.087	0.1055	850174	keystroke_Key.space	Key.space	n/a
425.208	0.0755	850416	keystroke_d	d	n/a
425.3735	0.09	850747	keystroke_i	i	n/a
425.5235	0.0745	851047	keystroke_v	v	n/a
426.3925	0.075	852785	keystroke_i	i	n/a
426.5435	0.104	853087	keystroke_d	d	n/a
426.753	0.075	853506	keystroke_e	e	n/a
426.9485	0.075	853897	keystroke_d	d	n/a
427.0525	0.09	854105	keystroke_Key.space	Key.space	n/a
427.1725	0.09	854345	keystroke_s	s	n/a
427.3225	0.09	854645	keystroke_t	t	n/a
427.4275	0.076	854855	keystroke_a	a	n/a
427.5325	0.0755	855065	keystroke_r	r	n/a
427.669	0.074	855338	keystroke_t	t	n/a
427.788	0.074	855576	keystroke_s	s	n/a
427.892	0.09	855784	keystroke_Key.space	Key.space	n/a
428.403	0.09	856806	keystroke_p	p	n/a
428.507	0.091	857014	keystroke_a	a	n/a
428.7625	0.0755	857525	keystroke_t	t	n/a
428.8525	0.0755	857705	keystroke_h	h	n/a
429.062	0.061	858124	keystroke_o	o	n/a
429.198	0.09	858396	keystroke_l	l	n/a
429.363	0.059	858726	keystroke_o	o	n/a
429.453	0.074	858906	keystroke_g	g	n/a
429.587	0.091	859174	keystroke_y	y	n/a
430.2025	0.06	860405	keystroke_Key.enter	Key.enter	n/a
430.267	6.148	860534	prompt	n/a	real acceptance surface who\n
430.998	0.059	861996	keystroke_r	r	n/a
431.1635	0.06	862327	keystroke_e	e	n/a
431.3735	0.06	862747	keystroke_a	a	n/a
431.4925	0.09	862985	keystroke_l	l	n/a
431.6425	0.0905	863285	keystroke_Key.space	Key.space	n/a
431.808	0.0605	863616	keystroke_a	a	n/a
432.047	0.061	864094	keystroke_c	c	n/a
432.212	0.1055	864424	keystroke_c	c	n/a
432.4975	0.076	864995	keystroke_e	e	n/a
432.6775	0.0605	865355	keystroke_p	p	n/a
432.828	0.045	865656	keystroke_t	t	n/a
433.0675	0.06	866135	keystroke_a	a	n/a
433.1875	0.075	866375	keystroke_n	n	n/a
433.308	0.0745	866616	keystroke_c	c	n/a
433.5025	0.061	867005	keystroke_e	e	n/a
433.6525	0.061	867305	keystroke_Key.space	Key.space	n/a
433.7585	0.1195	867517	keystroke_s	s	n/a
433.9385	0.075	867877	keystroke_u	u	n/a
434.0725	0.076	868145	keystroke_r	r	n/a
434.223	0.089	868446	keystroke_f	f	n/a
434.343	0.075	868686	keystroke_a	a	n/a
434.4335	0.1045	868867	keystroke_c	c	n/a
434.568	0.075	869136	keystroke_e	e	n/a
434.733	0.06	869466	keystroke_s	s	n/a
434.823	0.1045	869646	keystroke_Key.space	Key.space	n/a
435.138	0.075	870276	keystroke_w	w	n/a
435.243	0.06	870486	keystroke_h	h	n/a
435.498	0.045	870996	keystroke_o	o	n/a
435.513	0.0155	871026	keystroke_p	p	n/a
436.083	0.06	872166	keystroke_Key.backspace	Key.backspace	n/a
436.368	0.045	872736	keystroke_Key.enter	Key.enter	n/a
436.419	7.4505	872838	prompt	n/a	contest analyst site filling\n
437.103	0.06	874206	keystroke_c	c	n/a
437.193	0.12	874386	keystroke_o	o	n/a
437.253	0.09	874506	keystroke_n	n	n/a
437.5085	0.0595	875017	keystroke_t	t	n/a
437.613	0.09	875226	keystroke_e	e	n/a
437.778	0.09	875556	keystroke_s	s	n/a
437.853	0.075	875706	keystroke_t	t	n/a
438.003	0.1045	876006	keystroke_Key.space	Key.space	n/a
438.3335	0.06	876667	keystroke_a	a	n/a
438.4535	0.06	876907	keystroke_n	n	n/a
438.5425	0.0755	877085	keystroke_a	a	n/a
438.7235	0.045	877447	keystroke_l	l	n/a
438.9485	0.059	877897	keystroke_y	y	n/a
439.0235	0.089	878047	keystroke_s	s	n/a
439.263	0.045	878526	keystroke_t	t	n/a
439.3375	0.09	878675	keystroke_Key.space	Key.space	n/a
439.5035	0.0595	879007	keystroke_a	a	n/a
439.743	0.105	879486	keystroke_s	s	n/a
439.863	0.075	879726	keystroke_i	i	n/a
440.028	0.0595	880056	keystroke_t	t	n/a
440.2525	0.0755	880505	keystroke_Key.space	Key.space	n/a
440.658	0.0445	881316	keystroke_Key.backspace	Key.backspace	n/a
440.8075	0.045	881615	keystroke_Key.backspace	Key.backspace	n/a
440.9425	0.0605	881885	keystroke_Key.backspace	Key.backspace	n/a
441.048	0.09	882096	keystroke_Key.backspace	Key.backspace	n/a
441.212	0.091	882424	keystroke_Key.backspace	Key.backspace	n/a
441.5885	0.0895	883177	keystroke_s	s	n/a
441.783	0.0455	883566	keystroke_i	i	n/a
441.9175	0.075	883835	keystroke_t	t	n/a
442.0975	0.075	884195	keystroke_e	e	n/a
442.2025	0.09	884405	keystroke_Key.space	Key.space	n/a
442.728	0.075	885456	keystroke_f	f	n/a
442.848	0.0605	885696	keystroke_i	i	n/a
443.014	0.0745	886028	keystroke_l	l	n/a
443.133	0.105	886266	keystroke_l	l	n/a
443.403	0.135	886806	keystroke_i	i	n/a
443.479	0.1195	886958	keystroke_n	n	n/a
443.613	0.075	887226	keystroke_g	g	n/a
443.793	0.075	887586	keystroke_Key.enter	Key.enter	n/a
443.8775	6.247	887755	prompt	n/a	results programming calling liver\n
444.634	0.0745	889268	keystroke_r	r	n/a
444.7835	0.09	889567	keystroke_e	e	n/a
444.963	0.0895	889926	keystroke_s	s	n/a
445.0685	0.074	890137	keystroke_u	u	n/a
445.263	0.075	890526	keystroke_l	l	n/a
445.3525	0.0755	890705	keystroke_t	t	n/a
445.5635	0.107	891127	keystroke_s	s	n/a
445.638	0.075	891276	keystroke_Key.space	Key.space	n/a
445.818	0.0755	891636	keystroke_p	p	n/a
445.9235	0.0595	891847	keystroke_r	r	n/a
446.102	0.0755	892204	keystroke_o	o	n/a
446.373	0.06	892746	keystroke_g	g	n/a
446.4635	0.075	892927	keystroke_r	r	n/a
446.6875	0.075	893375	keystroke_a	a	n/a
446.7775	0.03	893555	keystroke_m	m	n/a
446.883	0.0905	893766	keystroke_m	m	n/a
447.1085	0.134	894217	keystroke_i	i	n/a
447.1985	0.1195	894397	keystroke_n	n	n/a
447.2285	0.104	894457	keystroke_g	g	n/a
447.393	0.105	894786	keystroke_Key.space	Key.space	n/a
447.588	0.0745	895176	keystroke_c	c	n/a
448.1585	0.074	896317	keystroke_a	a	n/a
448.3075	0.076	896615	keystroke_l	l	n/a
448.473	0.0745	896946	keystroke_l	l	n/a
448.6675	0.166	897335	keystroke_i	i	n/a
448.7575	0.105	897515	keystroke_n	n	n/a
448.8035	0.075	897607	keystroke_g	g	n/a
448.9525	0.09	897905	keystroke_Key.space	Key.space	n/a
449.1025	0.091	898205	keystroke_l	l	n/a
449.2985	0.0895	898597	keystroke_i	i	n/a
449.4035	0.075	898807	keystroke_v	v	n/a
449.6425	0.09	899285	keystroke_e	e	n/a
449.838	0.075	899676	keystroke_r	r	n/a
450.063	0.06	900126	keystroke_Key.enter	Key.enter	n/a
450.1285	8.441	900257	prompt	n/a	davidson katrina intensive clips\n
450.903	0.0595	901806	keystroke_d	d	n/a
451.0975	0.075	902195	keystroke_a	a	n/a
451.2025	0.0755	902405	keystroke_v	v	n/a
451.4135	0.09	902827	keystroke_i	i	n/a
451.5185	0.059	903037	keystroke_d	d	n/a
451.6975	0.09	903395	keystroke_s	s	n/a
451.803	0.12	903606	keystroke_o	o	n/a
451.8635	0.089	903727	keystroke_n	n	n/a
452.028	0.09	904056	keystroke_Key.space	Key.space	n/a
452.193	0.09	904386	keystroke_k	k	n/a
452.298	0.075	904596	keystroke_a	a	n/a
452.538	0.06	905076	keystroke_t	t	n/a
452.688	0.09	905376	keystroke_r	r	n/a
452.823	0.15	905646	keystroke_i	i	n/a
452.928	0.105	905856	keystroke_n	n	n/a
453.003	0.075	906006	keystroke_a	a	n/a
453.123	0.105	906246	keystroke_Key.space	Key.space	n/a
453.3775	0.105	906755	keystroke_i	i	n/a
453.4385	0.1345	906877	keystroke_n	n	n/a
455.7645	0.0735	911529	keystroke_t	t	n/a
455.898	0.075	911796	keystroke_e	e	n/a
456.033	0.0905	912066	keystroke_n	n	n/a
456.138	0.075	912276	keystroke_s	s	n/a
456.273	0.06	912546	keystroke_i	i	n/a
456.498	0.075	912996	keystroke_v	v	n/a
456.588	0.0755	913176	keystroke_e	e	n/a
456.693	0.09	913386	keystroke_Key.space	Key.space	n/a
457.713	0.09	915426	keystroke_c	c	n/a
457.8325	0.075	915665	keystroke_l	l	n/a
458.0285	0.059	916057	keystroke_i	i	n/a
458.2085	0.0595	916417	keystroke_p	p	n/a
458.328	0.0905	916656	keystroke_s	s	n/a
458.478	0.0895	916956	keystroke_Key.enter	Key.enter	n/a
458.5725	7.4075	917145	prompt	n/a	apnic instructions pope greatest\n
459.138	0.075	918276	keystroke_a	a	n/a
459.3785	0.0895	918757	keystroke_p	p	n/a
459.648	0.135	919296	keystroke_n	n	n/a
459.753	0.0895	919506	keystroke_i	i	n/a
459.8735	0.074	919747	keystroke_c	c	n/a
459.9325	0.105	919865	keystroke_Key.space	Key.space	n/a
460.4575	0.09	920915	keystroke_i	i	n/a
460.533	0.1195	921066	keystroke_n	n	n/a
461.734	0.0895	923468	keystroke_s	s	n/a
462.0025	0.061	924005	keystroke_t	t	n/a
462.1535	0.074	924307	keystroke_r	r	n/a
462.2725	0.076	924545	keystroke_u	u	n/a
462.3775	0.075	924755	keystroke_c	c	n/a
462.5885	0.059	925177	keystroke_t	t	n/a
462.6785	0.075	925357	keystroke_i	i	n/a
462.873	0.1505	925746	keystroke_o	o	n/a
462.9635	0.135	925927	keystroke_n	n	n/a
463.1135	0.09	926227	keystroke_s	s	n/a
463.2325	0.091	926465	keystroke_Key.space	Key.space	n/a
463.4575	0.091	926915	keystroke_p	p	n/a
463.6685	0.06	927337	keystroke_o	o	n/a
463.8035	0.1045	927607	keystroke_p	p	n/a
464.059	0.074	928118	keystroke_e	e	n/a
464.193	0.0755	928386	keystroke_Key.space	Key.space	n/a
464.538	0.03	929076	keystroke_g	g	n/a
464.628	0.0755	929256	keystroke_r	r	n/a
464.8085	0.0745	929617	keystroke_e	e	n/a
465.033	0.0755	930066	keystroke_a	a	n/a
465.258	0.046	930516	keystroke_t	t	n/a
465.408	0.09	930816	keystroke_e	e	n/a
465.5885	0.105	931177	keystroke_s	s	n/a
465.6175	0.09	931235	keystroke_t	t	n/a
465.9185	0.059	931837	keystroke_Key.enter	Key.enter	n/a
465.984	3.7905	931968	prompt	n/a	dame this that units\n
466.7435	0.0595	933487	keystroke_d	d	n/a
466.9385	0.105	933877	keystroke_a	a	n/a
467.0585	0.075	934117	keystroke_m	m	n/a
467.2235	0.0905	934447	keystroke_e	e	n/a
467.3885	0.105	934777	keystroke_Key.space	Key.space	n/a
467.6585	0.075	935317	keystroke_t	t	n/a
467.7635	0.0895	935527	keystroke_h	h	n/a
467.958	0.06	935916	keystroke_i	i	n/a
468.078	0.0895	936156	keystroke_s	s	n/a
468.2275	0.0755	936455	keystroke_Key.space	Key.space	n/a
468.333	0.06	936666	keystroke_t	t	n/a
468.438	0.0755	936876	keystroke_h	h	n/a
468.573	0.076	937146	keystroke_a	a	n/a
468.633	0.0755	937266	keystroke_t	t	n/a
468.783	0.1195	937566	keystroke_Key.space	Key.space	n/a
469.0225	0.1505	938045	keystroke_u	u	n/a
469.098	0.24	938196	keystroke_n	n	n/a
469.263	0.1505	938526	keystroke_i	i	n/a
469.3985	0.0745	938797	keystroke_t	t	n/a
469.608	0.1045	939216	keystroke_s	s	n/a
469.6985	0.074	939397	keystroke_Key.enter	Key.enter	n/a
469.786	8.2395	939572	prompt	n/a	mention answers visible former\n
470.4935	0.0905	940987	keystroke_m	m	n/a
470.5985	0.104	941197	keystroke_e	e	n/a
470.7185	0.0895	941437	keystroke_n	n	n/a
470.853	0.0605	941706	keystroke_t	t	n/a
470.9735	0.0895	941947	keystroke_i	i	n/a
471.1535	0.1345	942307	keystroke_o	o	n/a
471.2585	0.059	942517	keystroke_n	n	n/a
471.3935	0.09	942787	keystroke_Key.space	Key.space	n/a
471.5885	0.075	943177	keystroke_a	a	n/a
471.6485	0.075	943297	keystroke_n	n	n/a
471.8135	0.0895	943627	keystroke_s	s	n/a
471.993	0.09	943986	keystroke_w	w	n/a
472.1735	0.09	944347	keystroke_e	e	n/a
472.3685	0.075	944737	keystroke_r	r	n/a
472.593	0.075	945186	keystroke_s	s	n/a
472.773	0.09	945546	keystroke_Key.space	Key.space	n/a
473.2085	0.0745	946417	keystroke_v	v	n/a
473.358	0.0755	946716	keystroke_i	i	n/a
473.4485	0.075	946897	keystroke_s	s	n/a
473.6435	0.075	947287	keystroke_i	i	n/a
473.808	0.03	947616	keystroke_b	b	n/a
474.2135	0.03	948427	keystroke_b	b	n/a
475.1425	0.0605	950285	keystroke_Key.backspace	Key.backspace	n/a
475.3375	0.0605	950675	keystroke_b	b	n/a
475.443	0.0295	950886	keystroke_l	l	n/a
475.9085	0.044	951817	keystroke_Key.backspace	Key.backspace	n/a
476.058	0.045	952116	keystroke_Key.backspace	Key.backspace	n/a
476.2525	0.06	952505	keystroke_l	l	n/a
476.3585	0.059	952717	keystroke_e	e	n/a
476.4775	0.0755	952955	keystroke_Key.space	Key.space	n/a
477.2435	0.0745	954487	keystroke_f	f	n/a
477.348	0.06	954696	keystroke_o	o	n/a
477.438	0.0755	954876	keystroke_r	r	n/a
477.5435	0.075	955087	keystroke_m	m	n/a
477.6185	0.0745	955237	keystroke_e	e	n/a
477.783	0.075	955566	keystroke_r	r	n/a
477.9775	0.045	955955	keystroke_Key.enter	Key.enter	n/a
478.0415	20.984	956083	prompt	n/a	vulnerable cathedral resolution definition\n
479.013	0.075	958026	keystroke_v	v	n/a
479.148	0.0595	958296	keystroke_u	u	n/a
479.3435	0.075	958687	keystroke_l	l	n/a
479.5985	0.075	959197	keystroke_b	b	n/a
479.9725	0.06	959945	keystroke_Key.backspace	Key.backspace	n/a
480.1085	0.074	960217	keystroke_Key.backspace	Key.backspace	n/a
480.844	0.074	961688	keystroke_n	n	n/a
480.933	0.0755	961866	keystroke_e	e	n/a
481.1285	0.06	962257	keystroke_r	r	n/a
481.3235	0.074	962647	keystroke_a	a	n/a
481.368	0.0905	962736	keystroke_b	b	n/a
481.594	0.06	963188	keystroke_l	l	n/a
481.683	0.075	963366	keystroke_e	e	n/a
481.818	0.0755	963636	keystroke_Key.space	Key.space	n/a
482.0285	0.06	964057	keystroke_c	c	n/a
482.2535	0.0745	964507	keystroke_a	a	n/a
482.358	0.075	964716	keystroke_t	t	n/a
482.523	0.0595	965046	keystroke_h	h	n/a
482.5975	0.0755	965195	keystroke_e	e	n/a
482.7785	0.0755	965557	keystroke_d	d	n/a
482.9435	0.06	965887	keystroke_r	r	n/a
483.1385	0.0895	966277	keystroke_a	a	n/a
483.213	0.09	966426	keystroke_l	l	n/a
483.348	0.105	966696	keystroke_Key.space	Key.space	n/a
487.115	0.013	974230	keystroke_Key.backspace	Key.backspace	n/a
487.1735	0.06	974347	keystroke_Key.backspace	Key.backspace	n/a
487.278	0.045	974556	keystroke_Key.backspace	Key.backspace	n/a
487.383	0.06	974766	keystroke_Key.backspace	Key.backspace	n/a
487.503	0.03	975006	keystroke_Key.backspace	Key.backspace	n/a
487.593	0.045	975186	keystroke_Key.backspace	Key.backspace	n/a
487.698	0.045	975396	keystroke_Key.backspace	Key.backspace	n/a
487.803	0.045	975606	keystroke_Key.backspace	Key.backspace	n/a
487.893	0.0605	975786	keystroke_Key.backspace	Key.backspace	n/a
487.9985	0.06	975997	keystroke_Key.backspace	Key.backspace	n/a
488.1035	0.045	976207	keystroke_Key.backspace	Key.backspace	n/a
488.1935	0.075	976387	keystroke_Key.backspace	Key.backspace	n/a
488.2985	0.0445	976597	keystroke_Key.backspace	Key.backspace	n/a
488.4035	0.045	976807	keystroke_Key.backspace	Key.backspace	n/a
488.493	0.06	976986	keystroke_Key.backspace	Key.backspace	n/a
488.7335	0.1045	977467	keystroke_Key.backspace	Key.backspace	n/a
488.988	0.045	977976	keystroke_Key.backspace	Key.backspace	n/a
489.1385	0.0295	978277	keystroke_Key.backspace	Key.backspace	n/a
489.258	0.045	978516	keystroke_Key.backspace	Key.backspace	n/a
490.023	0.0605	980046	keystroke_i	i	n/a
490.3825	0.09	980765	keystroke_Key.backspace	Key.backspace	n/a
490.699	0.059	981398	keystroke_u	u	n/a
490.804	0.044	981608	keystroke_l	l	n/a
491.178	0.09	982356	keystroke_n	n	n/a
491.313	0.091	982626	keystroke_e	e	n/a
491.539	0.074	983078	keystroke_r	r	n/a
491.748	0.0745	983496	keystroke_a	a	n/a
491.7785	0.089	983557	keystroke_b	b	n/a
492.018	0.06	984036	keystroke_l	l	n/a
492.123	0.075	984246	keystroke_e	e	n/a
492.213	0.105	984426	keystroke_Key.space	Key.space	n/a
492.8875	0.061	985775	keystroke_c	c	n/a
493.098	0.0605	986196	keystroke_a	a	n/a
493.188	0.075	986376	keystroke_t	t	n/a
493.353	0.0605	986706	keystroke_h	h	n/a
493.428	0.1055	986856	keystroke_e	e	n/a
493.8485	0.06	987697	keystroke_d	d	n/a
494.013	0.06	988026	keystroke_r	r	n/a
494.2225	0.091	988445	keystroke_a	a	n/a
494.298	0.1055	988596	keystroke_l	l	n/a
494.4935	0.09	988987	keystroke_Key.space	Key.space	n/a
495.033	0.0755	990066	keystroke_r	r	n/a
495.2135	0.06	990427	keystroke_e	e	n/a
495.408	0.0605	990816	keystroke_s	s	n/a
495.5585	0.0595	991117	keystroke_o	o	n/a
495.738	0.1055	991476	keystroke_l	l	n/a
495.9485	0.075	991897	keystroke_u	u	n/a
496.0675	0.075	992135	keystroke_t	t	n/a
496.1575	0.075	992315	keystroke_i	i	n/a
496.3225	0.136	992645	keystroke_o	o	n/a
496.399	0.12	992798	keystroke_n	n	n/a
496.6085	0.09	993217	keystroke_Key.space	Key.space	n/a
497.028	0.06	994056	keystroke_d	d	n/a
497.193	0.0755	994386	keystroke_e	e	n/a
497.418	0.06	994836	keystroke_f	f	n/a
497.583	0.09	995166	keystroke_i	i	n/a
497.763	0.09	995526	keystroke_n	n	n/a
497.928	0.121	995856	keystroke_i	i	n/a
498.063	0.06	996126	keystroke_t	t	n/a
498.1685	0.089	996337	keystroke_i	i	n/a
498.3485	0.1645	996697	keystroke_o	o	n/a
498.423	0.12	996846	keystroke_n	n	n/a
498.963	0.06	997926	keystroke_Key.enter	Key.enter	n/a
499.0375	6.257	998075	prompt	n/a	get cardiac locally represent\n
499.803	0.0905	999606	keystroke_g	g	n/a
499.8785	0.089	999757	keystroke_e	e	n/a
500.0585	0.06	1000117	keystroke_t	t	n/a
500.1925	0.0755	1000385	keystroke_Key.space	Key.space	n/a
500.3735	0.104	1000747	keystroke_c	c	n/a
500.4625	0.0765	1000925	keystroke_a	a	n/a
500.6885	0.06	1001377	keystroke_r	r	n/a
500.853	0.0905	1001706	keystroke_d	d	n/a
501.0025	0.0915	1002005	keystroke_i	i	n/a
501.2275	0.091	1002455	keystroke_a	a	n/a
501.483	0.0755	1002966	keystroke_c	c	n/a
501.6185	0.059	1003237	keystroke_Key.space	Key.space	n/a
501.814	0.0745	1003628	keystroke_l	l	n/a
501.9785	0.0745	1003957	keystroke_o	o	n/a
502.0835	0.0595	1004167	keystroke_c	c	n/a
502.293	0.0605	1004586	keystroke_a	a	n/a
502.4285	0.045	1004857	keystroke_l	l	n/a
502.5775	0.076	1005155	keystroke_l	l	n/a
502.6835	0.06	1005367	keystroke_y	y	n/a
502.8475	0.0605	1005695	keystroke_Key.space	Key.space	n/a
503.7335	0.06	1007467	keystroke_r	r	n/a
503.8835	0.09	1007767	keystroke_e	e	n/a
504.0035	0.0745	1008007	keystroke_p	p	n/a
504.124	0.075	1008248	keystroke_r	r	n/a
504.274	0.089	1008548	keystroke_e	e	n/a
504.468	0.0905	1008936	keystroke_s	s	n/a
504.618	0.106	1009236	keystroke_e	e	n/a
504.739	0.0895	1009478	keystroke_n	n	n/a
504.888	0.075	1009776	keystroke_t	t	n/a
505.218	0.0755	1010436	keystroke_Key.enter	Key.enter	n/a
505.299	4.7805	1010598	prompt	n/a	concerned sleeping badly seek\n
505.9835	0.075	1011967	keystroke_c	c	n/a
506.0875	0.1215	1012175	keystroke_o	o	n/a
506.1635	0.105	1012327	keystroke_n	n	n/a
506.2835	0.09	1012567	keystroke_c	c	n/a
506.4785	0.06	1012957	keystroke_e	e	n/a
506.6425	0.076	1013285	keystroke_r	r	n/a
506.7325	0.076	1013465	keystroke_n	n	n/a
506.8525	0.076	1013705	keystroke_e	e	n/a
507.003	0.0905	1014006	keystroke_d	d	n/a
507.1085	0.089	1014217	keystroke_Key.space	Key.space	n/a
507.2285	0.0905	1014457	keystroke_s	s	n/a
507.3335	0.09	1014667	keystroke_l	l	n/a
507.4535	0.06	1014907	keystroke_e	e	n/a
507.6175	0.0765	1015235	keystroke_e	e	n/a
507.7235	0.075	1015447	keystroke_p	p	n/a
507.933	0.135	1015866	keystroke_i	i	n/a
507.994	0.1195	1015988	keystroke_n	n	n/a
508.053	0.075	1016106	keystroke_g	g	n/a
508.188	0.1205	1016376	keystroke_Key.space	Key.space	n/a
508.4885	0.09	1016977	keystroke_b	b	n/a
508.593	0.075	1017186	keystroke_a	a	n/a
508.788	0.0905	1017576	keystroke_d	d	n/a
508.9235	0.0745	1017847	keystroke_l	l	n/a
509.059	0.059	1018118	keystroke_y	y	n/a
509.148	0.0755	1018296	keystroke_Key.space	Key.space	n/a
509.283	0.12	1018566	keystroke_s	s	n/a
509.508	0.045	1019016	keystroke_e	e	n/a
509.688	0.075	1019376	keystroke_e	e	n/a
509.778	0.0895	1019556	keystroke_k	k	n/a
510.0325	0.0455	1020065	keystroke_Key.enter	Key.enter	n/a
510.083	13.7075	1020166	prompt	n/a	carries messages acdbentity phantom\n
510.8135	0.089	1021627	keystroke_c	c	n/a
511.068	0.0755	1022136	keystroke_a	a	n/a
511.3085	0.045	1022617	keystroke_r	r	n/a
511.4885	0.06	1022977	keystroke_r	r	n/a
511.6385	0.09	1023277	keystroke_i	i	n/a
511.6985	0.045	1023397	keystroke_e	e	n/a
512.568	0.075	1025136	keystroke_s	s	n/a
512.718	0.09	1025436	keystroke_Key.space	Key.space	n/a
512.8835	0.1045	1025767	keystroke_m	m	n/a
513.273	0.0755	1026546	keystroke_e	e	n/a
513.4685	0.06	1026937	keystroke_s	s	n/a
513.6335	0.0745	1027267	keystroke_s	s	n/a
513.8135	0.0755	1027627	keystroke_a	a	n/a
513.903	0.076	1027806	keystroke_g	g	n/a
514.0385	0.074	1028077	keystroke_e	e	n/a
514.1885	0.105	1028377	keystroke_s	s	n/a
514.308	0.0895	1028616	keystroke_Key.space	Key.space	n/a
514.6085	0.075	1029217	keystroke_a	a	n/a
517.3705	0.027	1034741	keystroke_c	c	n/a
518.4035	0.0595	1036807	keystroke_d	d	n/a
519.273	0.075	1038546	keystroke_b	b	n/a
519.393	0.09	1038786	keystroke_e	e	n/a
519.528	0.075	1039056	keystroke_n	n	n/a
520.893	0.045	1041786	keystroke_t	t	n/a
520.968	0.0755	1041936	keystroke_i	i	n/a
521.0735	0.075	1042147	keystroke_t	t	n/a
521.2375	0.09	1042475	keystroke_y	y	n/a
521.4325	0.1055	1042865	keystroke_Key.space	Key.space	n/a
522.8285	0.09	1045657	keystroke_p	p	n/a
522.9335	0.06	1045867	keystroke_l	l	n/a
522.9785	0.075	1045957	keystroke_a	a	n/a
523.159	0.0895	1046318	keystroke_n	n	n/a
523.309	0.0445	1046618	keystroke_t	t	n/a
523.4285	0.15	1046857	keystroke_o	o	n/a
523.5035	0.119	1047007	keystroke_m	m	n/a
523.6975	0.091	1047395	keystroke_Key.enter	Key.enter	n/a
