onset	duration	sample	value	key	prompt_text
2.9155	25.952	5831	prompt	n/a	the quick brown fox jumps over a lazy dog\n
9.1565	0.057	18313	keystroke_t	t	n/a
9.2445	0.149	18489	keystroke_h	h	n/a
9.3485	0.15	18697	keystroke_e	e	n/a
10.939	0.21	21878	keystroke_Key.space	Key.space	n/a
11.119	0.1655	22238	keystroke_q	q	n/a
11.2995	0.165	22599	keystroke_u	u	n/a
11.5695	0.1645	23139	keystroke_c	c	n/a
11.779	0.12	23558	keystroke_i	i	n/a
12.124	0.105	24248	keystroke_k	k	n/a
13.443	0.016	26886	keystroke_Key.backspace	Key.backspace	n/a
13.638	0.045	27276	keystroke_Key.backspace	Key.backspace	n/a
13.8035	0.06	27607	keystroke_Key.backspace	Key.backspace	n/a
20.4505	0.043	40901	keystroke_i	i	n/a
20.5235	0.165	41047	keystroke_c	c	n/a
20.7185	0.1955	41437	keystroke_k	k	n/a
20.989	0.135	41978	keystroke_Key.space	Key.space	n/a
21.3635	0.12	42727	keystroke_b	b	n/a
21.634	0.105	43268	keystroke_r	r	n/a
21.709	0.1795	43418	keystroke_o	o	n/a
21.9035	0.15	43807	keystroke_w	w	n/a
22.0685	0.1355	44137	keystroke_n	n	n/a
22.2795	0.135	44559	keystroke_Key.space	Key.space	n/a
22.534	0.105	45068	keystroke_f	f	n/a
22.699	0.1505	45398	keystroke_o	o	n/a
23.4345	0.045	46869	keystroke_x	x	n/a
23.6595	0.18	47319	keystroke_Key.space	Key.space	n/a
24.0195	0.12	48039	keystroke_j	j	n/a
24.229	0.105	48458	keystroke_u	u	n/a
24.484	0.1645	48968	keystroke_m	m	n/a
24.7085	0.1655	49417	keystroke_p	p	n/a
24.829	0.15	49658	keystroke_s	s	n/a
25.054	0.15	50108	keystroke_Key.space	Key.space	n/a
25.339	0.15	50678	keystroke_o	o	n/a
25.474	0.12	50948	keystroke_v	v	n/a
25.684	0.15	51368	keystroke_e	e	n/a
25.864	0.1355	51728	keystroke_r	r	n/a
26.029	0.15	52058	keystroke_Key.space	Key.space	n/a
26.2095	0.1645	52419	keystroke_a	a	n/a
26.374	0.09	52748	keystroke_Key.space	Key.space	n/a
26.5995	0.12	53199	keystroke_l	l	n/a
26.6895	0.135	53379	keystroke_a	a	n/a
27.1845	0.135	54369	keystroke_z	z	n/a
27.3945	0.15	54789	keystroke_y	y	n/a
27.5895	0.135	55179	keystroke_Key.space	Key.space	n/a
27.7695	0.18	55539	keystroke_d	d	n/a
27.8895	0.15	55779	keystroke_o	o	n/a
28.0545	0.105	56109	keystroke_g	g	n/a
28.6995	0.1645	57399	keystroke_Key.enter	Key.enter	n/a
28.872	9.564	57744	prompt	n/a	removed mounting chemistry china\n
29.5095	0.1045	59019	keystroke_r	r	n/a
29.659	0.15	59318	keystroke_e	e	n/a
29.824	0.18	59648	keystroke_m	m	n/a
30.004	0.165	60008	keystroke_o	o	n/a
30.109	0.12	60218	keystroke_v	v	n/a
30.304	0.12	60608	keystroke_e	e	n/a
31.1145	0.06	62229	keystroke_f	f	n/a
31.5795	0.105	63159	keystroke_=	=	n/a
31.6395	0.135	63279	keystroke_d	d	n/a
32.119	0.075	64238	keystroke_Key.backspace	Key.backspace	n/a
32.269	0.075	64538	keystroke_Key.backspace	Key.backspace	n/a
32.404	0.06	64808	keystroke_Key.backspace	Key.backspace	n/a
32.8095	0.12	65619	keystroke_d	d	n/a
33.0485	0.136	66097	keystroke_Key.space	Key.space	n/a
33.409	0.12	66818	keystroke_m	m	n/a
33.544	0.135	67088	keystroke_o	o	n/a
33.7685	0.0905	67537	keystroke_u	u	n/a
33.994	0.15	67988	keystroke_n	n	n/a
34.159	0.09	68318	keystroke_t	t	n/a
34.309	0.18	68618	keystroke_i	i	n/a
34.459	0.195	68918	keystroke_n	n	n/a
34.609	0.105	69218	keystroke_g	g	n/a
34.729	0.12	69458	keystroke_Key.space	Key.space	n/a
35.074	0.105	70148	keystroke_c	c	n/a
35.164	0.135	70328	keystroke_h	h	n/a
35.374	0.105	70748	keystroke_e	e	n/a
35.659	0.135	71318	keystroke_m	m	n/a
35.914	0.105	71828	keystroke_i	i	n/a
35.974	0.135	71948	keystroke_s	s	n/a
36.3035	0.075	72607	keystroke_t	t	n/a
36.5135	0.09	73027	keystroke_r	r	n/a
36.7835	0.12	73567	keystroke_y	y	n/a
36.9935	0.12	73987	keystroke_Key.space	Key.space	n/a
37.234	0.135	74468	keystroke_c	c	n/a
37.384	0.09	74768	keystroke_h	h	n/a
37.5645	0.15	75129	keystroke_i	i	n/a
37.7745	0.165	75549	keystroke_n	n	n/a
37.9995	0.15	75999	keystroke_a	a	n/a
38.3145	0.1195	76629	keystroke_Key.enter	Key.enter	n/a
38.439	6.552	76878	prompt	n/a	bennett fund rear atomic\n
39.034	0.075	78068	keystroke_b	b	n/a
39.259	0.075	78518	keystroke_e	e	n/a
39.499	0.06	78998	keystroke_n	n	n/a
39.679	0.06	79358	keystroke_n	n	n/a
39.799	0.12	79598	keystroke_e	e	n/a
40.054	0.105	80108	keystroke_t	t	n/a
40.219	0.12	80438	keystroke_Key.space	Key.space	n/a
40.414	0.105	80828	keystroke_f	f	n/a
40.534	0.09	81068	keystroke_u	u	n/a
40.759	0.135	81518	keystroke_n	n	n/a
40.849	0.12	81698	keystroke_d	d	n/a
41.269	0.105	82538	keystroke_Key.space	Key.space	n/a
41.584	0.105	83168	keystroke_r	r	n/a
42.379	0.015	84758	keystroke_e	e	n/a
42.544	0.135	85088	keystroke_a	a	n/a
42.784	0.075	85568	keystroke_r	r	n/a
42.964	0.105	85928	keystroke_Key.space	Key.space	n/a
43.099	0.135	86198	keystroke_a	a	n/a
43.369	0.075	86738	keystroke_t	t	n/a
43.459	0.12	86918	keystroke_o	o	n/a
43.624	0.1055	87248	keystroke_m	m	n/a
44.389	0.075	88778	keystroke_i	i	n/a
44.509	0.135	89018	keystroke_c	c	n/a
44.899	0.0905	89798	keystroke_Key.enter	Key.enter	n/a
44.995	10.586	89990	prompt	n/a	daily monitoring stewart mixture\n
45.604	0.1205	91208	keystroke_d	d	n/a
45.7995	0.165	91599	keystroke_a	a	n/a
45.9945	0.09	91989	keystroke_i	i	n/a
46.2495	0.12	92499	keystroke_l	l	n/a
46.5795	0.09	93159	keystroke_y	y	n/a
46.7445	0.09	93489	keystroke_Key.space	Key.space	n/a
47.1195	0.06	94239	keystroke_m	m	n/a
47.2245	0.225	94449	keystroke_o	o	n/a
47.824	0.09	95648	keystroke_n	n	n/a
48.259	0.075	96518	keystroke_i	i	n/a
48.364	0.105	96728	keystroke_i	i	n/a
49.2345	0.12	98469	keystroke_Key.backspace	Key.backspace	n/a
49.4295	0.12	98859	keystroke_t	t	n/a
49.6395	0.15	99279	keystroke_o	o	n/a
50.0895	0.1045	100179	keystroke_r	r	n/a
50.224	0.165	100448	keystroke_i	i	n/a
50.479	0.135	100958	keystroke_n	n	n/a
50.599	0.105	101198	keystroke_g	g	n/a
50.764	0.135	101528	keystroke_Key.space	Key.space	n/a
51.334	0.105	102668	keystroke_s	s	n/a
51.619	0.135	103238	keystroke_t	t	n/a
51.829	0.18	103658	keystroke_e	e	n/a
52.1135	0.121	104227	keystroke_w	w	n/a
52.3535	0.181	104707	keystroke_a	a	n/a
52.6095	0.074	105219	keystroke_r	r	n/a
52.8345	0.1045	105669	keystroke_t	t	n/a
53.014	0.105	106028	keystroke_Key.space	Key.space	n/a
53.179	0.135	106358	keystroke_m	m	n/a
53.4485	0.135	106897	keystroke_i	i	n/a
53.5985	0.165	107197	keystroke_x	x	n/a
54.784	0.12	109568	keystroke_t	t	n/a
54.934	0.135	109868	keystroke_u	u	n/a
55.054	0.12	110108	keystroke_r	r	n/a
55.2195	0.15	110439	keystroke_e	e	n/a
55.4895	0.09	110979	keystroke_Key.enter	Key.enter	n/a
55.584	13.2865	111168	prompt	n/a	janet albania drugs exploration\n
56.2545	0.15	112509	keystroke_j	j	n/a
56.3895	0.165	112779	keystroke_a	a	n/a
56.5995	0.165	113199	keystroke_n	n	n/a
57.3945	0.075	114789	keystroke_e	e	n/a
58.339	0.09	116678	keystroke_t	t	n/a
58.579	0.105	117158	keystroke_Key.space	Key.space	n/a
58.729	0.165	117458	keystroke_a	a	n/a
58.894	0.12	117788	keystroke_l	l	n/a
59.149	0.06	118298	keystroke_b	b	n/a
59.314	0.12	118628	keystroke_a	a	n/a
59.494	0.075	118988	keystroke_n	n	n/a
59.779	0.105	119558	keystroke_i	i	n/a
59.869	0.135	119738	keystroke_a	a	n/a
60.124	0.15	120248	keystroke_Key.space	Key.space	n/a
60.319	0.135	120638	keystroke_d	d	n/a
60.634	0.105	121268	keystroke_r	r	n/a
60.874	0.09	121748	keystroke_u	u	n/a
64.521	0.013	129042	keystroke_g	g	n/a
64.654	0.06	129308	keystroke_w	w	n/a
65.554	0.1055	131108	keystroke_Key.backspace	Key.backspace	n/a
65.719	0.12	131438	keystroke_s	s	n/a
65.899	0.12	131798	keystroke_Key.space	Key.space	n/a
66.349	0.09	132698	keystroke_e	e	n/a
66.694	0.1195	133388	keystroke_x	x	n/a
66.8885	0.12	133777	keystroke_p	p	n/a
67.1435	0.0905	134287	keystroke_l	l	n/a
67.339	0.12	134678	keystroke_o	o	n/a
67.504	0.09	135008	keystroke_r	r	n/a
67.699	0.15	135398	keystroke_a	a	n/a
67.999	0.045	135998	keystroke_t	t	n/a
68.059	0.15	136118	keystroke_i	i	n/a
68.164	0.24	136328	keystroke_o	o	n/a
68.389	0.1355	136778	keystroke_n	n	n/a
68.7635	0.105	137527	keystroke_Key.enter	Key.enter	n/a
68.875	9.056	137750	prompt	n/a	bracket coordinated scientist seal\n
69.4685	0.09	138937	keystroke_b	b	n/a
69.7085	0.075	139417	keystroke_r	r	n/a
69.9335	0.06	139867	keystroke_a	a	n/a
70.1735	0.0905	140347	keystroke_c	c	n/a
70.294	0.15	140588	keystroke_k	k	n/a
70.534	0.105	141068	keystroke_e	e	n/a
70.789	0.0895	141578	keystroke_t	t	n/a
70.9835	0.12	141967	keystroke_Key.space	Key.space	n/a
71.2395	0.105	142479	keystroke_c	c	n/a
71.3885	0.09	142777	keystroke_o	o	n/a
71.6135	0.105	143227	keystroke_o	o	n/a
71.8085	0.105	143617	keystroke_r	r	n/a
72.0785	0.15	144157	keystroke_d	d	n/a
72.2135	0.12	144427	keystroke_i	i	n/a
72.3935	0.1205	144787	keystroke_n	n	n/a
72.484	0.135	144968	keystroke_a	a	n/a
72.769	0.09	145538	keystroke_t	t	n/a
72.979	0.12	145958	keystroke_e	e	n/a
73.234	0.105	146468	keystroke_d	d	n/a
73.7735	0.045	147547	keystroke_Key.space	Key.space	n/a
73.8335	0.075	147667	keystroke_s	s	n/a
74.374	0.09	148748	keystroke_c	c	n/a
74.524	0.12	149048	keystroke_i	i	n/a
74.704	0.09	149408	keystroke_e	e	n/a
74.9135	0.135	149827	keystroke_n	n	n/a
75.0635	0.0905	150127	keystroke_t	t	n/a
75.589	0.045	151178	keystroke_i	i	n/a
76.144	0.105	152288	keystroke_s	s	n/a
76.414	0.075	152828	keystroke_t	t	n/a
76.639	0.12	153278	keystroke_Key.space	Key.space	n/a
76.849	0.075	153698	keystroke_s	s	n/a
77.104	0.075	154208	keystroke_e	e	n/a
77.329	0.12	154658	keystroke_a	a	n/a
77.479	0.12	154958	keystroke_l	l	n/a
77.839	0.09	155678	keystroke_Key.enter	Key.enter	n/a
77.934	12.117	155868	prompt	n/a	major holdem vulnerable recruiting\n
78.799	0.075	157598	keystroke_m	m	n/a
79.054	0.135	158108	keystroke_a	a	n/a
80.329	0.12	160658	keystroke_j	j	n/a
80.614	0.135	161228	keystroke_o	o	n/a
81.004	0.0905	162008	keystroke_r	r	n/a
81.514	0.105	163028	keystroke_Key.space	Key.space	n/a
81.769	0.15	163538	keystroke_h	h	n/a
81.979	0.105	163958	keystroke_o	o	n/a
82.264	0.135	164528	keystroke_l	l	n/a
82.384	0.0895	164768	keystroke_d	d	n/a
82.6235	0.09	165247	keystroke_e	e	n/a
82.774	0.1055	165548	keystroke_m	m	n/a
82.9545	0.12	165909	keystroke_Key.space	Key.space	n/a
83.2245	0.105	166449	keystroke_v	v	n/a
83.3445	0.105	166689	keystroke_u	u	n/a
84.3335	0.136	168667	keystroke_l	l	n/a
85.3685	0.075	170737	keystroke_n	n	n/a
85.5035	0.105	171007	keystroke_e	e	n/a
85.7135	0.075	171427	keystroke_r	r	n/a
85.9385	0.105	171877	keystroke_a	a	n/a
86.1485	0.09	172297	keystroke_b	b	n/a
86.3135	0.105	172627	keystroke_l	l	n/a
86.4635	0.1055	172927	keystroke_e	e	n/a
86.659	0.09	173318	keystroke_Key.space	Key.space	n/a
87.0935	0.09	174187	keystroke_r	r	n/a
87.2585	0.105	174517	keystroke_e	e	n/a
87.5585	0.09	175117	keystroke_c	c	n/a
87.9035	0.105	175807	keystroke_r	r	n/a
88.1285	0.105	176257	keystroke_u	u	n/a
88.3535	0.135	176707	keystroke_i	i	n/a
88.5035	0.105	177007	keystroke_t	t	n/a
88.6385	0.1795	177277	keystroke_i	i	n/a
88.864	0.135	177728	keystroke_n	n	n/a
88.939	0.105	177878	keystroke_g	g	n/a
89.9285	0.12	179857	keystroke_Key.enter	Key.enter	n/a
90.056	14.319	180112	prompt	n/a	including commented airport referral\n
90.9485	0.135	181897	keystroke_i	i	n/a
91.1135	0.15	182227	keystroke_n	n	n/a
91.2485	0.1355	182497	keystroke_c	c	n/a
91.429	0.15	182858	keystroke_l	l	n/a
91.639	0.165	183278	keystroke_d	d	n/a
91.819	0.12	183638	keystroke_u	u	n/a
92.7485	0.06	185497	keystroke_Key.backspace	Key.backspace	n/a
92.9435	0.03	185887	keystroke_Key.backspace	Key.backspace	n/a
93.0785	0.09	186157	keystroke_Key.backspace	Key.backspace	n/a
93.7385	0.106	187477	keystroke_l	l	n/a
94.0535	0.105	188107	keystroke_u	u	n/a
94.1885	0.09	188377	keystroke_d	d	n/a
94.3985	0.15	188797	keystroke_i	i	n/a
94.5935	0.135	189187	keystroke_n	n	n/a
94.7135	0.105	189427	keystroke_g	g	n/a
94.8335	0.105	189667	keystroke_Key.space	Key.space	n/a
95.0735	0.12	190147	keystroke_c	c	n/a
95.1635	0.12	190327	keystroke_o	o	n/a
95.3135	0.1045	190627	keystroke_m	m	n/a
95.493	0.09	190986	keystroke_m	m	n/a
95.6885	0.1045	191377	keystroke_e	e	n/a
95.8085	0.1205	191617	keystroke_n	n	n/a
95.9585	0.105	191917	keystroke_t	t	n/a
96.1685	0.105	192337	keystroke_e	e	n/a
96.408	0.1505	192816	keystroke_d	d	n/a
96.6185	0.09	193237	keystroke_Key.space	Key.space	n/a
96.828	0.165	193656	keystroke_a	a	n/a
97.128	0.075	194256	keystroke_r	r	n/a
97.353	0.105	194706	keystroke_i	i	n/a
98.208	0.09	196416	keystroke_Key.backspace	Key.backspace	n/a
98.3735	0.06	196747	keystroke_Key.backspace	Key.backspace	n/a
99.0045	0.104	198009	keystroke_i	i	n/a
99.3485	0.075	198697	keystroke_r	r	n/a
99.6635	0.076	199327	keystroke_p	p	n/a
99.844	0.135	199688	keystroke_o	o	n/a
99.949	0.09	199898	keystroke_r	r	n/a
100.189	0.0595	200378	keystroke_t	t	n/a
100.3235	0.135	200647	keystroke_Key.space	Key.space	n/a
100.6685	0.09	201337	keystroke_r	r	n/a
100.8935	0.12	201787	keystroke_e	e	n/a
101.5535	0.09	203107	keystroke_f	f	n/a
101.8685	0.105	203737	keystroke_e	e	n/a
102.1085	0.06	204217	keystroke_r	r	n/a
102.2285	0.075	204457	keystroke_r	r	n/a
102.4085	0.105	204817	keystroke_e	e	n/a
102.889	0.074	205778	keystroke_a	a	n/a
103.368	0.09	206736	keystroke_Key.backspace	Key.backspace	n/a
103.533	0.06	207066	keystroke_Key.backspace	Key.backspace	n/a
103.623	0.135	207246	keystroke_a	a	n/a
103.863	0.12	207726	keystroke_l	l	n/a
104.253	0.1205	208506	keystroke_Key.enter	Key.enter	n/a
104.379	10.076	208758	prompt	n/a	military concept transcripts district\n
104.9585	0.135	209917	keystroke_m	m	n/a
105.1835	0.09	210367	keystroke_i	i	n/a
105.3635	0.135	210727	keystroke_l	l	n/a
105.5735	0.1055	211147	keystroke_i	i	n/a
105.724	0.075	211448	keystroke_t	t	n/a
105.934	0.12	211868	keystroke_a	a	n/a
106.129	0.105	212258	keystroke_r	r	n/a
106.339	0.15	212678	keystroke_y	y	n/a
106.504	0.135	213008	keystroke_Key.space	Key.space	n/a
106.699	0.1045	213398	keystroke_c	c	n/a
106.8185	0.15	213637	keystroke_o	o	n/a
106.9695	0.1495	213939	keystroke_n	n	n/a
107.209	0.105	214418	keystroke_c	c	n/a
107.479	0.075	214958	keystroke_e	e	n/a
107.733	0.1505	215466	keystroke_p	p	n/a
108.0035	0.09	216007	keystroke_t	t	n/a
108.2885	0.1205	216577	keystroke_Key.space	Key.space	n/a
109.114	0.09	218228	keystroke_t	t	n/a
109.354	0.12	218708	keystroke_r	r	n/a
109.669	0.1345	219338	keystroke_a	a	n/a
109.8485	0.12	219697	keystroke_n	n	n/a
110.0135	0.09	220027	keystroke_s	s	n/a
110.2835	0.09	220567	keystroke_c	c	n/a
110.5385	0.075	221077	keystroke_r	r	n/a
110.6585	0.12	221317	keystroke_i	i	n/a
110.869	0.165	221738	keystroke_p	p	n/a
111.004	0.06	222008	keystroke_t	t	n/a
111.289	0.09	222578	keystroke_s	s	n/a
111.394	0.0895	222788	keystroke_Key.space	Key.space	n/a
111.6185	0.105	223237	keystroke_d	d	n/a
111.7535	0.12	223507	keystroke_i	i	n/a
112.474	0.135	224948	keystroke_s	s	n/a
113.179	0.105	226358	keystroke_t	t	n/a
113.389	0.09	226778	keystroke_r	r	n/a
113.5235	0.12	227047	keystroke_i	i	n/a
113.7035	0.105	227407	keystroke_c	c	n/a
114.0485	0.0595	228097	keystroke_t	t	n/a
114.348	0.105	228696	keystroke_Key.enter	Key.enter	n/a
114.4585	9.1765	228917	prompt	n/a	breath suspected skilled collect\n
115.0085	0.09	230017	keystroke_b	b	n/a
115.2485	0.1055	230497	keystroke_r	r	n/a
115.414	0.09	230828	keystroke_e	e	n/a
115.639	0.12	231278	keystroke_a	a	n/a
115.879	0.075	231758	keystroke_t	t	n/a
115.999	0.135	231998	keystroke_h	h	n/a
116.179	0.0895	232358	keystroke_Key.space	Key.space	n/a
116.2835	0.09	232567	keystroke_s	s	n/a
116.419	0.0895	232838	keystroke_u	u	n/a
116.629	0.09	233258	keystroke_s	s	n/a
117.168	0.1055	234336	keystroke_p	p	n/a
117.4235	0.075	234847	keystroke_e	e	n/a
117.7535	0.06	235507	keystroke_c	c	n/a
118.068	0.075	236136	keystroke_t	t	n/a
118.623	0.075	237246	keystroke_e	e	n/a
119.1485	0.075	238297	keystroke_d	d	n/a
119.689	0.09	239378	keystroke_Key.space	Key.space	n/a
120.079	0.12	240158	keystroke_s	s	n/a
120.229	0.12	240458	keystroke_k	k	n/a
120.4835	0.0905	240967	keystroke_i	i	n/a
120.709	0.075	241418	keystroke_l	l	n/a
120.844	0.105	241688	keystroke_l	l	n/a
121.009	0.09	242018	keystroke_e	e	n/a
121.294	0.09	242588	keystroke_d	d	n/a
121.444	0.12	242888	keystroke_Key.space	Key.space	n/a
121.7285	0.1055	243457	keystroke_c	c	n/a
121.8185	0.0755	243637	keystroke_o	o	n/a
122.059	0.105	244118	keystroke_l	l	n/a
122.4035	0.09	244807	keystroke_l	l	n/a
122.6435	0.075	245287	keystroke_e	e	n/a
122.929	0.09	245858	keystroke_c	c	n/a
123.244	0.075	246488	keystroke_t	t	n/a
123.499	0.135	246998	keystroke_Key.enter	Key.enter	n/a
123.638	10.422	247276	prompt	n/a	detection june juvenile distant\n
124.833	0.061	249666	keystroke_d	d	n/a
125.013	0.075	250026	keystroke_e	e	n/a
125.209	0.104	250418	keystroke_t	t	n/a
125.388	0.106	250776	keystroke_e	e	n/a
125.689	0.089	251378	keystroke_c	c	n/a
125.928	0.105	251856	keystroke_t	t	n/a
126.184	0.18	252368	keystroke_o	o	n/a
126.9335	0.105	253867	keystroke_Key.backspace	Key.backspace	n/a
127.2635	0.09	254527	keystroke_i	i	n/a
127.4435	0.18	254887	keystroke_o	o	n/a
127.6085	0.12	255217	keystroke_n	n	n/a
127.7885	0.12	255577	keystroke_Key.space	Key.space	n/a
128.0585	0.12	256117	keystroke_j	j	n/a
128.3135	0.06	256627	keystroke_u	u	n/a
128.5385	0.1195	257077	keystroke_n	n	n/a
128.688	0.1355	257376	keystroke_e	e	n/a
128.8535	0.105	257707	keystroke_Key.space	Key.space	n/a
129.0935	0.09	258187	keystroke_j	j	n/a
129.3035	0.12	258607	keystroke_u	u	n/a
129.5435	0.105	259087	keystroke_v	v	n/a
130.2185	0.12	260437	keystroke_e	e	n/a
131.4485	0.06	262897	keystroke_n	n	n/a
131.628	0.09	263256	keystroke_i	i	n/a
131.8385	0.12	263677	keystroke_l	l	n/a
132.0185	0.09	264037	keystroke_e	e	n/a
132.1535	0.135	264307	keystroke_Key.space	Key.space	n/a
132.3785	0.105	264757	keystroke_d	d	n/a
132.5285	0.0895	265057	keystroke_i	i	n/a
132.678	0.06	265356	keystroke_s	s	n/a
132.918	0.06	265836	keystroke_t	t	n/a
133.158	0.135	266316	keystroke_a	a	n/a
133.308	0.105	266616	keystroke_n	n	n/a
133.473	0.075	266946	keystroke_t	t	n/a
133.953	0.105	267906	keystroke_Key.enter	Key.enter	n/a
134.063	10.5565	268126	prompt	n/a	because correlation moms assignment\n
134.7185	0.0895	269437	keystroke_b	b	n/a
134.943	0.075	269886	keystroke_e	e	n/a
135.243	0.105	270486	keystroke_c	c	n/a
135.483	0.09	270966	keystroke_a	a	n/a
135.693	0.12	271386	keystroke_u	u	n/a
135.828	0.09	271656	keystroke_s	s	n/a
136.053	0.075	272106	keystroke_e	e	n/a
136.218	0.12	272436	keystroke_Key.space	Key.space	n/a
136.503	0.09	273006	keystroke_c	c	n/a
136.698	0.15	273396	keystroke_o	o	n/a
136.923	0.0755	273846	keystroke_r	r	n/a
137.1335	0.045	274267	keystroke_r	r	n/a
137.3735	0.105	274747	keystroke_e	e	n/a
138.1835	0.105	276367	keystroke_l	l	n/a
138.3335	0.105	276667	keystroke_a	a	n/a
138.6035	0.075	277207	keystroke_t	t	n/a
138.7235	0.105	277447	keystroke_i	i	n/a
138.8735	0.135	277747	keystroke_o	o	n/a
139.0385	0.135	278077	keystroke_n	n	n/a
139.2635	0.12	278527	keystroke_Key.space	Key.space	n/a
139.5185	0.105	279037	keystroke_m	m	n/a
139.6985	0.1045	279397	keystroke_o	o	n/a
139.998	0.015	279996	keystroke_n	n	n/a
140.193	0.09	280386	keystroke_m	m	n/a
140.358	0.09	280716	keystroke_s	s	n/a
141.0635	0.0745	282127	keystroke_Key.backspace	Key.backspace	n/a
141.2885	0.045	282577	keystroke_Key.backspace	Key.backspace	n/a
141.4685	0.06	282937	keystroke_Key.backspace	Key.backspace	n/a
141.9785	0.105	283957	keystroke_m	m	n/a
142.1735	0.105	284347	keystroke_s	s	n/a
142.3085	0.105	284617	keystroke_Key.space	Key.space	n/a
142.5035	0.105	285007	keystroke_a	a	n/a
142.7285	0.06	285457	keystroke_s	s	n/a
142.8935	0.09	285787	keystroke_s	s	n/a
143.0135	0.12	286027	keystroke_i	i	n/a
143.2685	0.06	286537	keystroke_g	g	n/a
143.5535	0.105	287107	keystroke_n	n	n/a
143.8235	0.12	287647	keystroke_m	m	n/a
143.9285	0.12	287857	keystroke_e	e	n/a
144.0635	0.105	288127	keystroke_n	n	n/a
144.2135	0.105	288427	keystroke_t	t	n/a
144.5585	0.06	289117	keystroke_Key.enter	Key.enter	n/a
144.6235	13.151	289247	prompt	n/a	stanford davis cannon violation\n
145.1735	0.12	290347	keystroke_s	s	n/a
145.4585	0.075	290917	keystroke_t	t	n/a
145.698	0.105	291396	keystroke_a	a	n/a
145.788	0.105	291576	keystroke_n	n	n/a
146.508	0.075	293016	keystroke_f	f	n/a
146.823	0.105	293646	keystroke_o	o	n/a
147.003	0.105	294006	keystroke_r	r	n/a
147.333	0.09	294666	keystroke_d	d	n/a
147.543	0.12	295086	keystroke_Key.space	Key.space	n/a
147.753	0.09	295506	keystroke_d	d	n/a
147.963	0.09	295926	keystroke_a	a	n/a
148.173	0.09	296346	keystroke_v	v	n/a
148.578	0.06	297156	keystroke_e	e	n/a
149.3285	0.06	298657	keystroke_Key.backspace	Key.backspace	n/a
149.613	0.09	299226	keystroke_i	i	n/a
149.763	0.075	299526	keystroke_s	s	n/a
149.913	0.12	299826	keystroke_Key.space	Key.space	n/a
150.528	0.06	301056	keystroke_d	d	n/a
151.008	0.06	302016	keystroke_a	a	n/a
151.158	0.075	302316	keystroke_n	n	n/a
151.308	0.12	302616	keystroke_n	n	n/a
151.638	0.06	303276	keystroke_Key.backspace	Key.backspace	n/a
151.803	0.06	303606	keystroke_Key.backspace	Key.backspace	n/a
151.938	0.045	303876	keystroke_Key.backspace	Key.backspace	n/a
152.268	0.075	304536	keystroke_c	c	n/a
152.508	0.09	305016	keystroke_Key.backspace	Key.backspace	n/a
152.688	0.045	305376	keystroke_Key.backspace	Key.backspace	n/a
152.778	0.075	305556	keystroke_c	c	n/a
153.0785	0.03	306157	keystroke_a	a	n/a
153.1535	0.075	306307	keystroke_n	n	n/a
153.5585	0.06	307117	keystroke_n	n	n/a
153.7685	0.134	307537	keystroke_o	o	n/a
153.9785	0.134	307957	keystroke_n	n	n/a
154.1885	0.119	308377	keystroke_Key.space	Key.space	n/a
154.3835	0.105	308767	keystroke_v	v	n/a
154.5185	0.089	309037	keystroke_i	i	n/a
154.8035	0.09	309607	keystroke_o	o	n/a
155.208	0.135	310416	keystroke_a	a	n/a
156.048	0.0755	312096	keystroke_Key.backspace	Key.backspace	n/a
156.3635	0.15	312727	keystroke_l	l	n/a
156.5735	0.135	313147	keystroke_a	a	n/a
156.903	0.075	313806	keystroke_t	t	n/a
157.023	0.12	314046	keystroke_i	i	n/a
157.1435	0.2395	314287	keystroke_o	o	n/a
157.308	0.1505	314616	keystroke_n	n	n/a
157.6835	0.09	315367	keystroke_Key.enter	Key.enter	n/a
157.778	12.162	315556	prompt	n/a	closest platform adventure processes\n
158.4485	0.1045	316897	keystroke_c	c	n/a
158.583	0.105	317166	keystroke_h	h	n/a
158.8385	0.135	317677	keystroke_l	l	n/a
159.1685	0.075	318337	keystroke_o	o	n/a
159.5435	0.105	319087	keystroke_Key.backspace	Key.backspace	n/a
159.7385	0.075	319477	keystroke_Key.backspace	Key.backspace	n/a
159.8585	0.075	319717	keystroke_Key.backspace	Key.backspace	n/a
160.2335	0.135	320467	keystroke_l	l	n/a
160.938	0.12	321876	keystroke_o	o	n/a
161.1485	0.105	322297	keystroke_s	s	n/a
161.718	0.075	323436	keystroke_e	e	n/a
162.318	0.09	324636	keystroke_s	s	n/a
162.648	0.09	325296	keystroke_t	t	n/a
163.113	0.12	326226	keystroke_Key.space	Key.space	n/a
163.353	0.09	326706	keystroke_p	p	n/a
163.563	0.135	327126	keystroke_l	l	n/a
163.743	0.12	327486	keystroke_a	a	n/a
164.073	0.075	328146	keystroke_t	t	n/a
165.2885	0.105	330577	keystroke_f	f	n/a
165.4835	0.165	330967	keystroke_o	o	n/a
165.6335	0.12	331267	keystroke_r	r	n/a
165.7685	0.135	331537	keystroke_m	m	n/a
165.9485	0.135	331897	keystroke_Key.space	Key.space	n/a
166.1135	0.12	332227	keystroke_a	a	n/a
166.3235	0.135	332647	keystroke_d	d	n/a
166.7885	0.105	333577	keystroke_v	v	n/a
167.0135	0.09	334027	keystroke_e	e	n/a
167.1185	0.135	334237	keystroke_n	n	n/a
167.2685	0.09	334537	keystroke_t	t	n/a
167.8985	0.09	335797	keystroke_u	u	n/a
168.0335	0.105	336067	keystroke_r	r	n/a
168.3335	0.1045	336667	keystroke_e	e	n/a
169.848	0.09	339696	keystroke_Key.enter	Key.enter	n/a
169.9435	9.911	339887	prompt	n/a	improving monthly caring blessed\n
170.9275	0.105	341855	keystroke_i	i	n/a
171.3175	0.105	342635	keystroke_m	m	n/a
171.5425	0.165	343085	keystroke_p	p	n/a
171.7375	0.1055	343475	keystroke_r	r	n/a
171.858	0.12	343716	keystroke_o	o	n/a
172.068	0.105	344136	keystroke_v	v	n/a
172.233	0.12	344466	keystroke_i	i	n/a
172.458	0.1505	344916	keystroke_n	n	n/a
172.593	0.12	345186	keystroke_g	g	n/a
172.728	0.1055	345456	keystroke_Key.space	Key.space	n/a
172.938	0.12	345876	keystroke_m	m	n/a
173.088	0.135	346176	keystroke_o	o	n/a
173.208	0.165	346416	keystroke_n	n	n/a
173.358	0.1205	346716	keystroke_t	t	n/a
173.553	0.15	347106	keystroke_h	h	n/a
173.898	0.105	347796	keystroke_y	y	n/a
174.153	0.12	348306	keystroke_l	l	n/a
175.158	0.105	350316	keystroke_Key.backspace	Key.backspace	n/a
175.518	0.015	351036	keystroke_Key.backspace	Key.backspace	n/a
175.923	0.105	351846	keystroke_l	l	n/a
176.208	0.09	352416	keystroke_y	y	n/a
176.388	0.12	352776	keystroke_Key.space	Key.space	n/a
176.583	0.105	353166	keystroke_c	c	n/a
176.733	0.1205	353466	keystroke_a	a	n/a
176.9585	0.075	353917	keystroke_r	r	n/a
177.0635	0.15	354127	keystroke_i	i	n/a
177.1985	0.15	354397	keystroke_n	n	n/a
177.3335	0.075	354667	keystroke_g	g	n/a
177.4235	0.105	354847	keystroke_Key.space	Key.space	n/a
177.6785	0.075	355357	keystroke_b	b	n/a
177.8135	0.1345	355627	keystroke_l	l	n/a
178.068	0.015	356136	keystroke_e	e	n/a
178.773	0.075	357546	keystroke_s	s	n/a
178.968	0.075	357936	keystroke_s	s	n/a
179.178	0.06	358356	keystroke_e	e	n/a
179.418	0.09	358836	keystroke_d	d	n/a
179.763	0.0905	359526	keystroke_Key.enter	Key.enter	n/a
179.858	13.3015	359716	prompt	n/a	book selected attractions swiss\n
180.453	0.09	360906	keystroke_b	b	n/a
180.6485	0.045	361297	keystroke_o	o	n/a
180.7985	0.075	361597	keystroke_o	o	n/a
181.0085	0.119	362017	keystroke_k	k	n/a
181.2025	0.12	362405	keystroke_Key.space	Key.space	n/a
181.3825	0.106	362765	keystroke_s	s	n/a
181.6525	0.076	363305	keystroke_e	e	n/a
181.8035	0.105	363607	keystroke_l	l	n/a
181.9385	0.0745	363877	keystroke_e	e	n/a
182.238	0.075	364476	keystroke_c	c	n/a
182.568	0.09	365136	keystroke_t	t	n/a
185.75	0.001	371500	keystroke_e	e	n/a
185.9285	0.0445	371857	keystroke_d	d	n/a
186.6775	0.105	373355	keystroke_Key.space	Key.space	n/a
186.8435	0.1195	373687	keystroke_a	a	n/a
187.128	0.06	374256	keystroke_t	t	n/a
187.293	0.09	374586	keystroke_t	t	n/a
187.743	0.12	375486	keystroke_a	a	n/a
188.658	0.105	377316	keystroke_Key.backspace	Key.backspace	n/a
188.883	0.105	377766	keystroke_r	r	n/a
189.258	0.15	378516	keystroke_a	a	n/a
189.588	0.06	379176	keystroke_t	t	n/a
190.0985	0.105	380197	keystroke_Key.backspace	Key.backspace	n/a
190.1885	0.09	380377	keystroke_c	c	n/a
190.5335	0.06	381067	keystroke_t	t	n/a
190.6535	0.09	381307	keystroke_i	i	n/a
190.788	0.195	381576	keystroke_o	o	n/a
190.908	0.12	381816	keystroke_n	n	n/a
191.118	0.09	382236	keystroke_s	s	n/a
191.283	0.12	382566	keystroke_Key.space	Key.space	n/a
191.643	0.075	383286	keystroke_s	s	n/a
191.868	0.105	383736	keystroke_w	w	n/a
191.988	0.075	383976	keystroke_i	i	n/a
192.588	0.075	385176	keystroke_s	s	n/a
192.738	0.12	385476	keystroke_s	s	n/a
193.053	0.105	386106	keystroke_Key.enter	Key.enter	n/a
193.1625	6.267	386325	prompt	n/a	fear music picture arrive\n
193.803	0.075	387606	keystroke_f	f	n/a
193.968	0.12	387936	keystroke_e	e	n/a
194.253	0.075	388506	keystroke_a	a	n/a
194.493	0.075	388986	keystroke_r	r	n/a
194.643	0.165	389286	keystroke_Key.space	Key.space	n/a
194.868	0.12	389736	keystroke_m	m	n/a
195.123	0.12	390246	keystroke_u	u	n/a
195.228	0.105	390456	keystroke_s	s	n/a
195.393	0.135	390786	keystroke_i	i	n/a
195.588	0.12	391176	keystroke_c	c	n/a
195.783	0.135	391566	keystroke_Key.space	Key.space	n/a
196.128	0.105	392256	keystroke_p	p	n/a
196.6685	0.105	393337	keystroke_i	i	n/a
196.8785	0.1045	393757	keystroke_c	c	n/a
197.193	0.09	394386	keystroke_t	t	n/a
197.343	0.165	394686	keystroke_u	u	n/a
197.478	0.105	394956	keystroke_r	r	n/a
197.688	0.12	395376	keystroke_e	e	n/a
197.868	0.15	395736	keystroke_Key.space	Key.space	n/a
198.063	0.12	396126	keystroke_a	a	n/a
198.3335	0.06	396667	keystroke_r	r	n/a
198.4835	0.075	396967	keystroke_r	r	n/a
198.6935	0.105	397387	keystroke_i	i	n/a
198.843	0.091	397686	keystroke_v	v	n/a
199.083	0.075	398166	keystroke_e	e	n/a
199.338	0.09	398676	keystroke_Key.enter	Key.enter	n/a
199.44	12.3795	398880	prompt	n/a	automated hockey cooler pointer\n
200.043	0.135	400086	keystroke_a	a	n/a
200.238	0.12	400476	keystroke_u	u	n/a
200.448	0.105	400896	keystroke_t	t	n/a
200.568	0.105	401136	keystroke_o	o	n/a
200.793	0.105	401586	keystroke_m	m	n/a
200.913	0.105	401826	keystroke_a	a	n/a
201.213	0.075	402426	keystroke_t	t	n/a
201.4085	0.09	402817	keystroke_e	e	n/a
201.6935	0.09	403387	keystroke_d	d	n/a
202.2185	0.105	404437	keystroke_Key.space	Key.space	n/a
202.4585	0.135	404917	keystroke_h	h	n/a
202.6085	0.12	405217	keystroke_o	o	n/a
202.7735	0.09	405547	keystroke_c	c	n/a
202.923	0.15	405846	keystroke_k	k	n/a
203.103	0.1055	406206	keystroke_e	e	n/a
203.2685	0.15	406537	keystroke_y	y	n/a
203.4185	0.135	406837	keystroke_Key.space	Key.space	n/a
203.5985	0.105	407197	keystroke_c	c	n/a
203.7485	0.09	407497	keystroke_o	o	n/a
203.9435	0.06	407887	keystroke_o	o	n/a
204.198	0.195	408396	keystroke_l	l	n/a
204.378	0.09	408756	keystroke_e	e	n/a
204.408	0.045	408816	keystroke_3	3	n/a
204.603	0.06	409206	keystroke_r	r	n/a
204.738	0.12	409476	keystroke_Key.space	Key.space	n/a
205.008	0.105	410016	keystroke_p	p	n/a
205.3535	0.06	410707	keystroke_o	o	n/a
205.5785	0.135	411157	keystroke_i	i	n/a
205.7585	0.12	411517	keystroke_n	n	n/a
205.9385	0.09	411877	keystroke_t	t	n/a
206.1485	0.105	412297	keystroke_e	e	n/a
206.3585	0.06	412717	keystroke_r	r	n/a
207.708	0.045	415416	keystroke_Key.left	Key.left	n/a
207.9025	0.045	415805	keystroke_Key.left	Key.left	n/a
208.0525	0.06	416105	keystroke_Key.left	Key.left	n/a
208.2325	0.06	416465	keystroke_Key.left	Key.left	n/a
208.3975	0.06	416795	keystroke_Key.left	Key.left	n/a
208.5625	0.06	417125	keystroke_Key.left	Key.left	n/a
208.7275	0.061	417455	keystroke_Key.left	Key.left	n/a
209.118	0.03	418236	keystroke_Key.left	Key.left	n/a
210.1385	0.075	420277	keystroke_Key.backspace	Key.backspace	n/a
210.4835	0.06	420967	keystroke_Key.backspace	Key.backspace	n/a
211.4135	0.09	422827	keystroke_r	r	n/a
211.7425	0.075	423485	keystroke_Key.enter	Key.enter	n/a
211.8245	11.38	423649	prompt	n/a	quebec shan't movie understand\n
212.6435	0.045	425287	keystroke_q	q	n/a
212.808	0.15	425616	keystroke_u	u	n/a
212.988	0.12	425976	keystroke_e	e	n/a
213.288	0.09	426576	keystroke_b	b	n/a
213.558	0.09	427116	keystroke_e	e	n/a
213.888	0.06	427776	keystroke_c	c	n/a
214.038	0.135	428076	keystroke_Key.space	Key.space	n/a
214.233	0.12	428466	keystroke_s	s	n/a
214.398	0.12	428796	keystroke_h	h	n/a
214.578	0.105	429156	keystroke_a	a	n/a
215.598	0.075	431196	keystroke_n	n	n/a
216.513	0.15	433026	keystroke_'	'	n/a
216.768	0.075	433536	keystroke_t	t	n/a
217.113	0.15	434226	keystroke_Key.space	Key.space	n/a
217.5325	0.15	435065	keystroke_m	m	n/a
217.7275	0.105	435455	keystroke_o	o	n/a
217.8335	0.104	435667	keystroke_v	v	n/a
217.9825	0.105	435965	keystroke_i	i	n/a
218.1775	0.105	436355	keystroke_e	e	n/a
218.3275	0.12	436655	keystroke_Key.space	Key.space	n/a
218.8375	0.045	437675	keystroke_u	u	n/a
219.048	0.1205	438096	keystroke_n	n	n/a
219.228	0.105	438456	keystroke_d	d	n/a
219.483	0.09	438966	keystroke_e	e	n/a
219.663	0.075	439326	keystroke_r	r	n/a
219.978	0.105	439956	keystroke_s	s	n/a
220.2785	0.075	440557	keystroke_t	t	n/a
220.4885	0.06	440977	keystroke_q	q	n/a
220.5935	0.135	441187	keystroke_n	n	n/a
221.2535	0.104	442507	keystroke_Key.backspace	Key.backspace	n/a
221.733	0.105	443466	keystroke_Key.backspace	Key.backspace	n/a
221.868	0.135	443736	keystroke_a	a	n/a
222.078	0.135	444156	keystroke_n	n	n/a
222.228	0.105	444456	keystroke_d	d	n/a
223.1135	0.09	446227	keystroke_Key.enter	Key.enter	n/a
223.208	9.2515	446416	prompt	n/a	profile talented effectively historic\n
223.9685	0.18	447937	keystroke_p	p	n/a
224.1335	0.09	448267	keystroke_r	r	n/a
224.298	0.135	448596	keystroke_o	o	n/a
224.418	0.09	448836	keystroke_f	f	n/a
224.538	0.12	449076	keystroke_i	i	n/a
224.8675	0.181	449735	keystroke_l	l	n/a
225.0325	0.09	450065	keystroke_e	e	n/a
225.2725	0.165	450545	keystroke_Key.space	Key.space	n/a
225.7525	0.076	451505	keystroke_t	t	n/a
225.9935	0.134	451987	keystroke_a	a	n/a
226.1435	0.134	452287	keystroke_l	l	n/a
226.2925	0.106	452585	keystroke_e	e	n/a
226.4725	0.165	452945	keystroke_n	n	n/a
226.6525	0.091	453305	keystroke_t	t	n/a
226.8635	0.089	453727	keystroke_e	e	n/a
227.1475	0.091	454295	keystroke_d	d	n/a
227.3125	0.135	454625	keystroke_Key.space	Key.space	n/a
227.5975	0.1055	455195	keystroke_e	e	n/a
227.898	0.075	455796	keystroke_f	f	n/a
228.048	0.09	456096	keystroke_f	f	n/a
228.198	0.09	456396	keystroke_e	e	n/a
228.513	0.09	457026	keystroke_c	c	n/a
228.813	0.0745	457626	keystroke_t	t	n/a
229.023	0.105	458046	keystroke_i	i	n/a
229.143	0.09	458286	keystroke_v	v	n/a
229.353	0.075	458706	keystroke_e	e	n/a
229.533	0.18	459066	keystroke_l	l	n/a
229.923	0.15	459846	keystroke_y	y	n/a
230.208	0.165	460416	keystroke_Key.space	Key.space	n/a
230.403	0.135	460806	keystroke_h	h	n/a
230.613	0.12	461226	keystroke_i	i	n/a
230.718	0.105	461436	keystroke_s	s	n/a
230.958	0.09	461916	keystroke_t	t	n/a
231.078	0.105	462156	keystroke_o	o	n/a
231.228	0.09	462456	keystroke_r	r	n/a
231.378	0.12	462756	keystroke_i	i	n/a
232.143	0.06	464286	keystroke_c	c	n/a
232.383	0.0755	464766	keystroke_Key.enter	Key.enter	n/a
232.463	13.2415	464926	prompt	n/a	newport promo wesley floyd\n
233.2535	0.075	466507	keystroke_r	r	n/a
233.7335	0.1045	467467	keystroke_Key.backspace	Key.backspace	n/a
234.753	0.0605	469506	keystroke_n	n	n/a
234.9635	0.12	469927	keystroke_e	e	n/a
235.1585	0.105	470317	keystroke_w	w	n/a
235.5335	0.105	471067	keystroke_p	p	n/a
235.8635	0.135	471727	keystroke_o	o	n/a
235.9825	0.091	471965	keystroke_r	r	n/a
236.2085	0.075	472417	keystroke_t	t	n/a
236.3125	0.15	472625	keystroke_Key.space	Key.space	n/a
236.5535	0.164	473107	keystroke_p	p	n/a
236.7635	0.075	473527	keystroke_r	r	n/a
236.8835	0.1195	473767	keystroke_o	o	n/a
237.948	0.135	475896	keystroke_m	m	n/a
238.158	0.105	476316	keystroke_o	o	n/a
238.368	0.135	476736	keystroke_Key.space	Key.space	n/a
238.623	0.135	477246	keystroke_w	w	n/a
238.878	0.105	477756	keystroke_e	e	n/a
239.043	0.121	478086	keystroke_l	l	n/a
239.254	0.09	478508	keystroke_s	s	n/a
239.539	0.09	479078	keystroke_e	e	n/a
239.779	0.134	479558	keystroke_y	y	n/a
240.093	0.09	480186	keystroke_Key.space	Key.space	n/a
240.888	0.105	481776	keystroke_Key.backspace	Key.backspace	n/a
241.143	0.165	482286	keystroke_Key.backspace	Key.backspace	n/a
241.368	0.12	482736	keystroke_Key.backspace	Key.backspace	n/a
241.548	0.15	483096	keystroke_Key.backspace	Key.backspace	n/a
242.1785	0.135	484357	keystroke_Key.backspace	Key.backspace	n/a
242.3285	0.165	484657	keystroke_s	s	n/a
242.5685	0.18	485137	keystroke_l	l	n/a
242.7785	0.1045	485557	keystroke_e	e	n/a
243.0785	0.135	486157	keystroke_y	y	n/a
243.258	0.15	486516	keystroke_Key.space	Key.space	n/a
243.438	0.15	486876	keystroke_f	f	n/a
243.618	0.12	487236	keystroke_l	l	n/a
243.858	0.09	487716	keystroke_o	o	n/a
244.653	0.09	489306	keystroke_y	y	n/a
245.343	0.06	490686	keystroke_d	d	n/a
245.598	0.105	491196	keystroke_Key.enter	Key.enter	n/a
245.7085	10.8415	491417	prompt	n/a	namespace rebates engage featuring\n
246.7975	0.105	493595	keystroke_n	n	n/a
246.933	0.1045	493866	keystroke_a	a	n/a
247.0825	0.12	494165	keystroke_m	m	n/a
247.2475	0.075	494495	keystroke_e	e	n/a
247.4875	0.1055	494975	keystroke_s	s	n/a
247.6825	0.15	495365	keystroke_p	p	n/a
247.788	0.12	495576	keystroke_a	a	n/a
248.0425	0.121	496085	keystroke_c	c	n/a
248.343	0.105	496686	keystroke_e	e	n/a
248.523	0.15	497046	keystroke_Key.space	Key.space	n/a
248.838	0.075	497676	keystroke_r	r	n/a
249.033	0.0905	498066	keystroke_e	e	n/a
249.3485	0.075	498697	keystroke_b	b	n/a
249.6185	0.06	499237	keystroke_a	a	n/a
249.8735	0.075	499747	keystroke_t	t	n/a
250.0835	0.09	500167	keystroke_e	e	n/a
250.4135	0.09	500827	keystroke_s	s	n/a
250.6985	0.1195	501397	keystroke_Key.space	Key.space	n/a
250.938	0.12	501876	keystroke_e	e	n/a
251.103	0.075	502206	keystroke_n	n	n/a
251.343	0.075	502686	keystroke_g	g	n/a
251.643	0.06	503286	keystroke_a	a	n/a
251.868	0.075	503736	keystroke_g	g	n/a
252.063	0.075	504126	keystroke_e	e	n/a
252.348	0.015	504696	keystroke_Key.space	Key.space	n/a
252.453	0.105	504906	keystroke_f	f	n/a
252.738	0.12	505476	keystroke_e	e	n/a
253.2335	0.0895	506467	keystroke_a	a	n/a
253.503	0.09	507006	keystroke_t	t	n/a
253.668	0.075	507336	keystroke_u	u	n/a
253.878	0.135	507756	keystroke_i	i	n/a
254.073	0.135	508146	keystroke_n	n	n/a
254.178	0.09	508356	keystroke_g	g	n/a
254.793	0.105	509586	keystroke_Key.backspace	Key.backspace	n/a
254.958	0.09	509916	keystroke_Key.backspace	Key.backspace	n/a
255.408	0.15	510816	keystroke_Key.backspace	Key.backspace	n/a
255.6785	0.09	511357	keystroke_r	r	n/a
255.8135	0.135	511627	keystroke_i	i	n/a
255.9785	0.135	511957	keystroke_n	n	n/a
256.0985	0.0895	512197	keystroke_g	g	n/a
256.428	0.12	512856	keystroke_Key.enter	Key.enter	n/a
256.5525	21.7775	513105	prompt	n/a	casio inherited showers collections\n
257.2235	0.0905	514447	keystroke_c	c	n/a
257.374	0.12	514748	keystroke_a	a	n/a
257.614	0.09	515228	keystroke_s	s	n/a
257.764	0.105	515528	keystroke_i	i	n/a
257.989	0.105	515978	keystroke_o	o	n/a
258.213	0.106	516426	keystroke_Key.space	Key.space	n/a
258.439	0.12	516878	keystroke_i	i	n/a
258.589	0.149	517178	keystroke_n	n	n/a
259.7435	0.135	519487	keystroke_h	h	n/a
259.9085	0.105	519817	keystroke_e	e	n/a
260.1035	0.09	520207	keystroke_r	r	n/a
260.4185	0.18	520837	keystroke_i	i	n/a
260.6135	0.075	521227	keystroke_t	t	n/a
260.9285	0.135	521857	keystroke_e	e	n/a
261.3335	0.09	522667	keystroke_d	d	n/a
261.8885	0.12	523777	keystroke_Key.space	Key.space	n/a
262.0835	0.12	524167	keystroke_s	s	n/a
262.2185	0.12	524437	keystroke_h	h	n/a
262.3685	0.15	524737	keystroke_o	o	n/a
262.8185	0.03	525637	keystroke_3	3	n/a
263.359	0.1195	526718	keystroke_Key.backspace	Key.backspace	n/a
266.856	0.057	533712	keystroke_w	w	n/a
267.333	0.15	534666	keystroke_e	e	n/a
267.528	0.075	535056	keystroke_r	r	n/a
267.7835	0.0905	535567	keystroke_s	s	n/a
267.919	0.15	535838	keystroke_Key.space	Key.space	n/a
268.129	0.09	536258	keystroke_c	c	n/a
268.249	0.105	536498	keystroke_i	i	n/a
268.519	0.075	537038	keystroke_k	k	n/a
268.654	0.105	537308	keystroke_k	k	n/a
268.804	0.12	537608	keystroke_e	e	n/a
270.3335	0.06	540667	keystroke_Key.backspace	Key.backspace	n/a
270.5285	0.06	541057	keystroke_Key.backspace	Key.backspace	n/a
270.7085	0.045	541417	keystroke_Key.backspace	Key.backspace	n/a
271.0385	0.06	542077	keystroke_Key.backspace	Key.backspace	n/a
272.553	0.105	545106	keystroke_o	o	n/a
272.7935	0.165	545587	keystroke_l	l	n/a
272.988	0.09	545976	keystroke_e	e	n/a
273.1535	0.1045	546307	keystroke_e	e	n/a
273.9185	0.015	547837	keystroke_Key.backspace	Key.backspace	n/a
273.9785	0.06	547957	keystroke_Key.backspace	Key.backspace	n/a
274.5785	0.15	549157	keystroke_l	l	n/a
274.7885	0.0745	549577	keystroke_e	e	n/a
275.058	0.09	550116	keystroke_c	c	n/a
275.463	0.15	550926	keystroke_i	i	n/a
276.483	0.12	552966	keystroke_Key.backspace	Key.backspace	n/a
276.783	0.075	553566	keystroke_t	t	n/a
277.113	0.135	554226	keystroke_i	i	n/a
277.548	0.2255	555096	keystroke_o	o	n/a
277.7585	0.12	555517	keystroke_n	n	n/a
277.8625	0.076	555725	keystroke_s	s	n/a
278.2225	0.105	556445	keystroke_Key.enter	Key.enter	n/a
278.333	31.5575	556666	prompt	n/a	wilson systems translate abilities\n
278.9735	0.119	557947	keystroke_w	w	n/a
279.1075	0.0755	558215	keystroke_i	i	n/a
279.3035	0.164	558607	keystroke_l	l	n/a
279.498	0.1205	558996	keystroke_s	s	n/a
279.6185	0.15	559237	keystroke_o	o	n/a
279.7525	0.1355	559505	keystroke_n	n	n/a
279.933	0.165	559866	keystroke_Key.space	Key.space	n/a
280.083	0.12	560166	keystroke_s	s	n/a
280.263	0.135	560526	keystroke_y	y	n/a
280.383	0.12	560766	keystroke_s	s	n/a
282.756	0.001	565512	keystroke_t	t	n/a
293.961	0.088	587922	keystroke_e	e	n/a
294.124	0.135	588248	keystroke_m	m	n/a
294.334	0.135	588668	keystroke_Key.space	Key.space	n/a
295.1885	0.135	590377	keystroke_r	r	n/a
295.7885	0.165	591577	keystroke_a	a	n/a
295.9985	0.09	591997	keystroke_n	n	n/a
296.3735	0.09	592747	keystroke_Key.backspace	Key.backspace	n/a
296.5685	0.0905	593137	keystroke_Key.backspace	Key.backspace	n/a
296.689	0.09	593378	keystroke_Key.backspace	Key.backspace	n/a
297.049	0.09	594098	keystroke_t	t	n/a
297.244	0.135	594488	keystroke_r	r	n/a
297.529	0.135	595058	keystroke_a	a	n/a
297.754	0.1195	595508	keystroke_n	n	n/a
297.8585	0.135	595717	keystroke_s	s	n/a
298.1435	0.121	596287	keystroke_l	l	n/a
298.3085	0.12	596617	keystroke_a	a	n/a
298.5785	0.09	597157	keystroke_t	t	n/a
298.8335	0.09	597667	keystroke_e	e	n/a
299.209	0.105	598418	keystroke_Key.space	Key.space	n/a
299.539	0.09	599078	keystroke_a	a	n/a
299.749	0.15	599498	keystroke_b	b	n/a
300.0935	0.09	600187	keystroke_i	i	n/a
300.334	0.1345	600668	keystroke_l	l	n/a
300.5585	0.09	601117	keystroke_i	i	n/a
300.769	0.15	601538	keystroke_l	l	n/a
300.934	0.105	601868	keystroke_i	i	n/a
301.024	0.105	602048	keystroke_t	t	n/a
301.414	0.09	602828	keystroke_e	e	n/a
302.1635	0.075	604327	keystroke_Key.backspace	Key.backspace	n/a
302.3135	0.075	604627	keystroke_Key.backspace	Key.backspace	n/a
303.1985	0.12	606397	keystroke_Key.backspace	Key.backspace	n/a
303.3785	0.075	606757	keystroke_Key.backspace	Key.backspace	n/a
305.871	0.043	611742	keystroke_e	e	n/a
306.064	0.105	612128	keystroke_s	s	n/a
306.739	0.075	613478	keystroke_Key.backspace	Key.backspace	n/a
306.888	0.09	613776	keystroke_Key.backspace	Key.backspace	n/a
307.038	0.076	614076	keystroke_Key.backspace	Key.backspace	n/a
308.3585	0.12	616717	keystroke_i	i	n/a
309.0195	0.105	618039	keystroke_t	t	n/a
309.1845	0.12	618369	keystroke_i	i	n/a
309.3195	0.12	618639	keystroke_e	e	n/a
309.6035	0.12	619207	keystroke_s	s	n/a
309.7835	0.105	619567	keystroke_Key.enter	Key.enter	n/a
309.894	12.4615	619788	prompt	n/a	contribute fragrance careers hundreds\n
310.774	0.24	621548	keystroke_c	c	n/a
310.969	0.135	621938	keystroke_o	o	n/a
311.2235	0.15	622447	keystroke_n	n	n/a
311.3585	0.105	622717	keystroke_t	t	n/a
311.5685	0.105	623137	keystroke_r	r	n/a
311.7335	0.135	623467	keystroke_i	i	n/a
311.8835	0.165	623767	keystroke_b	b	n/a
312.1235	0.135	624247	keystroke_u	u	n/a
312.4535	0.12	624907	keystroke_t	t	n/a
312.874	0.12	625748	keystroke_e	e	n/a
313.249	0.15	626498	keystroke_Key.space	Key.space	n/a
313.519	0.09	627038	keystroke_f	f	n/a
313.744	0.075	627488	keystroke_r	r	n/a
313.939	0.15	627878	keystroke_a	a	n/a
314.224	0.105	628448	keystroke_g	g	n/a
314.4495	0.089	628899	keystroke_r	r	n/a
314.6885	0.1205	629377	keystroke_a	a	n/a
314.809	0.075	629618	keystroke_n	n	n/a
315.169	0.105	630338	keystroke_c	c	n/a
315.424	0.135	630848	keystroke_e	e	n/a
315.589	0.15	631178	keystroke_Key.space	Key.space	n/a
315.934	0.09	631868	keystroke_c	c	n/a
316.099	0.15	632198	keystroke_a	a	n/a
316.369	0.105	632738	keystroke_r	r	n/a
316.639	0.09	633278	keystroke_e	e	n/a
316.849	0.09	633698	keystroke_e	e	n/a
317.0285	0.09	634057	keystroke_r	r	n/a
317.9285	0.12	635857	keystroke_s	s	n/a
318.334	0.12	636668	keystroke_Key.space	Key.space	n/a
318.589	0.12	637178	keystroke_h	h	n/a
318.844	0.09	637688	keystroke_u	u	n/a
319.114	0.135	638228	keystroke_n	n	n/a
319.219	0.15	638438	keystroke_d	d	n/a
319.534	0.12	639068	keystroke_r	r	n/a
319.699	0.165	639398	keystroke_e	e	n/a
320.029	0.12	640058	keystroke_d	d	n/a
320.3885	0.15	640777	keystroke_s	s	n/a
322.159	0.195	644318	keystroke_Key.enter	Key.enter	n/a
322.358	7.3325	644716	prompt	n/a	cams soundtrack dave movie\n
322.954	0.135	645908	keystroke_c	c	n/a
323.164	0.12	646328	keystroke_a	a	n/a
323.539	0.135	647078	keystroke_m	m	n/a
323.764	0.1655	647528	keystroke_s	s	n/a
324.0045	0.119	648009	keystroke_Key.space	Key.space	n/a
324.2285	0.121	648457	keystroke_s	s	n/a
324.3635	0.06	648727	keystroke_o	o	n/a
324.5735	0.03	649147	keystroke_u	u	n/a
324.7685	0.1355	649537	keystroke_n	n	n/a
324.934	0.15	649868	keystroke_d	d	n/a
325.3985	0.091	650797	keystroke_t	t	n/a
325.5785	0.12	651157	keystroke_r	r	n/a
325.8635	0.135	651727	keystroke_a	a	n/a
326.1785	0.195	652357	keystroke_c	c	n/a
326.4035	0.1655	652807	keystroke_k	k	n/a
326.659	0.135	653318	keystroke_Key.space	Key.space	n/a
326.884	0.15	653768	keystroke_d	d	n/a
327.184	0.21	654368	keystroke_a	a	n/a
327.409	0.165	654818	keystroke_v	v	n/a
327.679	0.12	655358	keystroke_e	e	n/a
327.8285	0.165	655657	keystroke_Key.space	Key.space	n/a
328.0835	0.165	656167	keystroke_m	m	n/a
328.2635	0.165	656527	keystroke_o	o	n/a
328.4895	0.134	656979	keystroke_v	v	n/a
329.1185	0.0905	658237	keystroke_i	i	n/a
329.284	0.18	658568	keystroke_e	e	n/a
329.614	0.075	659228	keystroke_Key.enter	Key.enter	n/a
329.6935	12.432	659387	prompt	n/a	discount diagnosis spain compromise\n
330.2885	0.12	660577	keystroke_d	d	n/a
330.4685	0.12	660937	keystroke_i	i	n/a
330.5735	0.12	661147	keystroke_s	s	n/a
330.829	0.225	661658	keystroke_c	c	n/a
330.949	0.12	661898	keystroke_o	o	n/a
331.144	0.105	662288	keystroke_u	u	n/a
331.414	0.135	662828	keystroke_n	n	n/a
331.579	0.15	663158	keystroke_t	t	n/a
331.774	0.165	663548	keystroke_Key.space	Key.space	n/a
332.029	0.135	664058	keystroke_d	d	n/a
332.149	0.12	664298	keystroke_i	i	n/a
332.404	0.21	664808	keystroke_a	a	n/a
332.734	0.1195	665468	keystroke_g	g	n/a
333.1385	0.15	666277	keystroke_n	n	n/a
333.3785	0.12	666757	keystroke_o	o	n/a
333.6635	0.135	667327	keystroke_s	s	n/a
334.624	0.09	669248	keystroke_i	i	n/a
334.804	0.18	669608	keystroke_s	s	n/a
335.119	0.165	670238	keystroke_Key.space	Key.space	n/a
335.299	0.15	670598	keystroke_s	s	n/a
335.434	0.225	670868	keystroke_p	p	n/a
335.614	0.225	671228	keystroke_a	a	n/a
335.899	0.1495	671798	keystroke_i	i	n/a
336.0635	0.15	672127	keystroke_n	n	n/a
336.2895	0.15	672579	keystroke_Key.space	Key.space	n/a
336.7245	0.2095	673449	keystroke_c	c	n/a
337.159	0.105	674318	keystroke_m	m	n/a
337.8345	0.135	675669	keystroke_Key.backspace	Key.backspace	n/a
338.3295	0.1345	676659	keystroke_o	o	n/a
338.494	0.135	676988	keystroke_m	m	n/a
338.719	0.1945	677438	keystroke_p	p	n/a
338.9735	0.12	677947	keystroke_r	r	n/a
340.0385	0.15	680077	keystroke_o	o	n/a
340.504	0.09	681008	keystroke_m	m	n/a
341.1185	0.09	682237	keystroke_i	i	n/a
341.2235	0.12	682447	keystroke_s	s	n/a
341.4485	0.1205	682897	keystroke_e	e	n/a
341.989	0.135	683978	keystroke_Key.enter	Key.enter	n/a
342.1285	10.0325	684257	prompt	n/a	somewhat optimal nitrogen avon\n
342.724	0.1655	685448	keystroke_s	s	n/a
342.9195	0.105	685839	keystroke_o	o	n/a
343.2195	0.12	686439	keystroke_m	m	n/a
343.7445	0.21	687489	keystroke_w	w	n/a
343.9995	0.27	687999	keystroke_e	e	n/a
344.7785	0.1955	689557	keystroke_Key.backspace	Key.backspace	n/a
345.094	0.135	690188	keystroke_Key.backspace	Key.backspace	n/a
345.274	0.18	690548	keystroke_e	e	n/a
345.664	0.135	691328	keystroke_w	w	n/a
345.829	0.135	691658	keystroke_h	h	n/a
345.994	0.195	691988	keystroke_a	a	n/a
346.339	0.06	692678	keystroke_t	t	n/a
346.504	0.15	693008	keystroke_Key.space	Key.space	n/a
346.759	0.105	693518	keystroke_o	o	n/a
347.029	0.225	694058	keystroke_p	p	n/a
347.194	0.105	694388	keystroke_t	t	n/a
347.404	0.0595	694808	keystroke_i	i	n/a
347.6435	0.135	695287	keystroke_m	m	n/a
347.7635	0.2255	695527	keystroke_a	a	n/a
347.9445	0.135	695889	keystroke_l	l	n/a
348.124	0.15	696248	keystroke_Key.space	Key.space	n/a
348.439	0.12	696878	keystroke_n	n	n/a
348.619	0.135	697238	keystroke_i	i	n/a
348.739	0.165	697478	keystroke_t	t	n/a
349.114	0.135	698228	keystroke_r	r	n/a
349.474	0.135	698948	keystroke_o	o	n/a
349.6535	0.135	699307	keystroke_g	g	n/a
349.9085	0.15	699817	keystroke_e	e	n/a
350.0735	0.12	700147	keystroke_n	n	n/a
350.2835	0.12	700567	keystroke_Key.space	Key.space	n/a
350.4335	0.12	700867	keystroke_a	a	n/a
350.6735	0.1205	701347	keystroke_v	v	n/a
351.0485	0.135	702097	keystroke_o	o	n/a
351.574	0.105	703148	keystroke_n	n	n/a
352.024	0.135	704048	keystroke_Key.enter	Key.enter	n/a
352.1665	7.374	704333	prompt	n/a	beds president backing ranger\n
352.789	0.1355	705578	keystroke_b	b	n/a
353.0595	0.105	706119	keystroke_e	e	n/a
353.3895	0.15	706779	keystroke_s	s	n/a
354.004	0.09	708008	keystroke_Key.backspace	Key.backspace	n/a
354.079	0.105	708158	keystroke_d	d	n/a
354.274	0.135	708548	keystroke_s	s	n/a
354.424	0.195	708848	keystroke_Key.space	Key.space	n/a
354.829	0.18	709658	keystroke_p	p	n/a
354.979	0.1205	709958	keystroke_r	r	n/a
355.1145	0.12	710229	keystroke_e	e	n/a
355.3695	0.105	710739	keystroke_s	s	n/a
355.5045	0.135	711009	keystroke_i	i	n/a
355.6095	0.105	711219	keystroke_d	d	n/a
355.8195	0.15	711639	keystroke_e	e	n/a
355.8945	0.18	711789	keystroke_n	n	n/a
356.1345	0.15	712269	keystroke_t	t	n/a
356.599	0.12	713198	keystroke_Key.space	Key.space	n/a
356.839	0.105	713678	keystroke_b	b	n/a
357.019	0.1345	714038	keystroke_a	a	n/a
357.2585	0.195	714517	keystroke_c	c	n/a
357.4085	0.09	714817	keystroke_k	k	n/a
357.6185	0.165	715237	keystroke_i	i	n/a
357.7685	0.165	715537	keystroke_n	n	n/a
357.9035	0.105	715807	keystroke_g	g	n/a
357.9635	0.135	715927	keystroke_Key.space	Key.space	n/a
358.2935	0.12	716587	keystroke_r	r	n/a
358.5785	0.12	717157	keystroke_a	a	n/a
358.6685	0.12	717337	keystroke_n	n	n/a
358.8045	0.119	717609	keystroke_g	g	n/a
359.0135	0.15	718027	keystroke_e	e	n/a
359.194	0.0755	718388	keystroke_r	r	n/a
359.419	0.12	718838	keystroke_Key.enter	Key.enter	n/a
359.544	9.2215	719088	prompt	n/a	signs additions james teaches\n
360.229	0.15	720458	keystroke_s	s	n/a
360.3195	0.1645	720639	keystroke_i	i	n/a
360.754	0.12	721508	keystroke_g	g	n/a
360.904	0.12	721808	keystroke_n	n	n/a
361.204	0.1345	722408	keystroke_s	s	n/a
361.3835	0.15	722767	keystroke_Key.space	Key.space	n/a
361.7135	0.12	723427	keystroke_a	a	n/a
362.074	0.0895	724148	keystroke_d	d	n/a
362.9595	0.135	725919	keystroke_d	d	n/a
363.1995	0.1195	726399	keystroke_i	i	n/a
363.469	0.105	726938	keystroke_t	t	n/a
363.604	0.15	727208	keystroke_i	i	n/a
363.784	0.21	727568	keystroke_o	o	n/a
363.934	0.135	727868	keystroke_n	n	n/a
364.084	0.15	728168	keystroke_s	s	n/a
364.864	0.135	729728	keystroke_Key.space	Key.space	n/a
365.149	0.12	730298	keystroke_j	j	n/a
365.314	0.195	730628	keystroke_a	a	n/a
365.524	0.165	731048	keystroke_m	m	n/a
365.674	0.105	731348	keystroke_e	e	n/a
365.944	0.165	731888	keystroke_s	s	n/a
366.124	0.15	732248	keystroke_Key.space	Key.space	n/a
366.4985	0.015	732997	keystroke_t	t	n/a
366.5435	0.15	733087	keystroke_e	e	n/a
367.459	0.21	734918	keystroke_a	a	n/a
367.849	0.135	735698	keystroke_c	c	n/a
367.999	0.135	735998	keystroke_h	h	n/a
368.149	0.135	736298	keystroke_e	e	n/a
368.389	0.165	736778	keystroke_s	s	n/a
368.644	0.12	737288	keystroke_Key.enter	Key.enter	n/a
368.769	12.8065	737538	prompt	n/a	somewhat operations practical arcade\n
369.349	0.15	738698	keystroke_s	s	n/a
369.754	0.075	739508	keystroke_o	o	n/a
371.149	0.135	742298	keystroke_m	m	n/a
371.734	0.12	743468	keystroke_e	e	n/a
372.094	0.09	744188	keystroke_w	w	n/a
372.259	0.105	744518	keystroke_h	h	n/a
372.349	0.18	744698	keystroke_a	a	n/a
372.649	0.105	745298	keystroke_t	t	n/a
372.799	0.15	745598	keystroke_Key.space	Key.space	n/a
373.054	0.1205	746108	keystroke_o	o	n/a
373.3095	0.21	746619	keystroke_p	p	n/a
373.4295	0.135	746859	keystroke_e	e	n/a
373.6845	0.06	747369	keystroke_r	r	n/a
373.9845	0.135	747969	keystroke_a	a	n/a
374.2545	0.135	748509	keystroke_t	t	n/a
374.3745	0.12	748749	keystroke_i	i	n/a
374.4645	0.225	748929	keystroke_o	o	n/a
374.6145	0.105	749229	keystroke_n	n	n/a
374.7645	0.15	749529	keystroke_s	s	n/a
374.9745	0.1195	749949	keystroke_Key.space	Key.space	n/a
375.244	0.165	750488	keystroke_p	p	n/a
375.364	0.105	750728	keystroke_r	r	n/a
375.784	0.18	751568	keystroke_a	a	n/a
378.321	0.088	756642	keystroke_c	c	n/a
378.649	0.09	757298	keystroke_t	t	n/a
378.829	0.105	757658	keystroke_i	i	n/a
378.994	0.12	757988	keystroke_c	c	n/a
379.189	0.135	758378	keystroke_a	a	n/a
379.294	0.15	758588	keystroke_l	l	n/a
379.489	0.105	758978	keystroke_Key.space	Key.space	n/a
379.6835	0.1205	759367	keystroke_a	a	n/a
379.9385	0.075	759877	keystroke_r	r	n/a
380.3435	0.15	760687	keystroke_c	c	n/a
380.6135	0.135	761227	keystroke_a	a	n/a
380.899	0.1205	761798	keystroke_d	d	n/a
381.1395	0.105	762279	keystroke_e	e	n/a
381.4545	0.119	762909	keystroke_Key.enter	Key.enter	n/a
381.5785	11.577	763157	prompt	n/a	warren restaurant legislature photographer\n
382.1285	0.09	764257	keystroke_w	w	n/a
382.3235	0.135	764647	keystroke_a	a	n/a
382.5785	0.015	765157	keystroke_r	r	n/a
382.7135	0.06	765427	keystroke_r	r	n/a
382.8485	0.15	765697	keystroke_e	e	n/a
383.0135	0.135	766027	keystroke_n	n	n/a
383.1935	0.135	766387	keystroke_Key.space	Key.space	n/a
383.3885	0.12	766777	keystroke_r	r	n/a
383.5535	0.15	767107	keystroke_e	e	n/a
383.8835	0.06	767767	keystroke_s	s	n/a
384.2285	0.105	768457	keystroke_t	t	n/a
384.4535	0.105	768907	keystroke_u	u	n/a
384.6335	0.15	769267	keystroke_a	a	n/a
385.638	0.12	771276	keystroke_Key.backspace	Key.backspace	n/a
385.804	0.1345	771608	keystroke_Key.backspace	Key.backspace	n/a
385.9385	0.165	771877	keystroke_a	a	n/a
386.0735	0.12	772147	keystroke_u	u	n/a
386.749	0.12	773498	keystroke_r	r	n/a
387.004	0.1795	774008	keystroke_a	a	n/a
387.1395	0.149	774279	keystroke_n	n	n/a
387.3185	0.106	774637	keystroke_t	t	n/a
387.4245	0.164	774849	keystroke_Key.space	Key.space	n/a
387.6635	0.1655	775327	keystroke_l	l	n/a
387.7835	0.1505	775567	keystroke_e	e	n/a
388.129	0.105	776258	keystroke_g	g	n/a
388.309	0.12	776618	keystroke_i	i	n/a
388.504	0.135	777008	keystroke_s	s	n/a
388.669	0.135	777338	keystroke_l	l	n/a
388.819	0.18	777638	keystroke_a	a	n/a
389.134	0.15	778268	keystroke_t	t	n/a
389.299	0.1345	778598	keystroke_u	u	n/a
389.4495	0.12	778899	keystroke_r	r	n/a
389.6135	0.166	779227	keystroke_e	e	n/a
389.8385	0.18	779677	keystroke_Key.space	Key.space	n/a
390.1095	0.179	780219	keystroke_p	p	n/a
390.3045	0.149	780609	keystroke_h	h	n/a
390.4845	0.15	780969	keystroke_o	o	n/a
390.844	0.105	781688	keystroke_t	t	n/a
390.979	0.165	781958	keystroke_o	o	n/a
391.234	0.105	782468	keystroke_g	g	n/a
391.4735	0.105	782947	keystroke_r	r	n/a
391.7285	0.165	783457	keystroke_a	a	n/a
391.9235	0.18	783847	keystroke_p	p	n/a
392.1485	0.15	784297	keystroke_h	h	n/a
392.3585	0.15	784717	keystroke_e	e	n/a
392.569	0.075	785138	keystroke_r	r	n/a
393.034	0.12	786068	keystroke_Key.enter	Key.enter	n/a
393.159	8.0065	786318	prompt	n/a	starting sixth honey affiliated\n
393.8435	0.135	787687	keystroke_s	s	n/a
394.0985	0.09	788197	keystroke_t	t	n/a
394.2935	0.165	788587	keystroke_a	a	n/a
394.5035	0.105	789007	keystroke_r	r	n/a
394.714	0.09	789428	keystroke_t	t	n/a
394.819	0.195	789638	keystroke_i	i	n/a
394.999	0.15	789998	keystroke_n	n	n/a
395.104	0.12	790208	keystroke_g	g	n/a
395.239	0.105	790478	keystroke_Key.space	Key.space	n/a
395.494	0.15	790988	keystroke_s	s	n/a
395.629	0.12	791258	keystroke_i	i	n/a
395.869	0.1955	791738	keystroke_x	x	n/a
396.2445	0.135	792489	keystroke_t	t	n/a
396.3945	0.135	792789	keystroke_h	h	n/a
396.6935	0.135	793387	keystroke_Key.space	Key.space	n/a
396.9785	0.135	793957	keystroke_h	h	n/a
397.2335	0.106	794467	keystroke_o	o	n/a
397.4745	0.18	794949	keystroke_n	n	n/a
397.8185	0.15	795637	keystroke_e	e	n/a
398.4495	0.15	796899	keystroke_y	y	n/a
398.6885	0.12	797377	keystroke_Key.space	Key.space	n/a
398.8385	0.135	797677	keystroke_a	a	n/a
398.9885	0.046	797977	keystroke_f	f	n/a
399.1085	0.105	798217	keystroke_f	f	n/a
399.3635	0.1055	798727	keystroke_i	i	n/a
399.679	0.12	799358	keystroke_l	l	n/a
399.904	0.105	799808	keystroke_i	i	n/a
400.039	0.1195	800078	keystroke_a	a	n/a
400.2785	0.09	800557	keystroke_t	t	n/a
400.4435	0.135	800887	keystroke_e	e	n/a
400.7285	0.12	801457	keystroke_d	d	n/a
401.0585	0.105	802117	keystroke_Key.enter	Key.enter	n/a
401.1685	9.087	802337	prompt	n/a	clouds queen scottish durham\n
401.8385	0.15	803677	keystroke_c	c	n/a
402.0035	0.15	804007	keystroke_l	l	n/a
402.409	0.09	804818	keystroke_o	o	n/a
402.604	0.135	805208	keystroke_u	u	n/a
402.784	0.12	805568	keystroke_d	d	n/a
403.0245	0.1345	806049	keystroke_s	s	n/a
403.234	0.165	806468	keystroke_Key.space	Key.space	n/a
403.894	0.045	807788	keystroke_q	q	n/a
404.179	0.12	808358	keystroke_u	u	n/a
404.329	0.12	808658	keystroke_e	e	n/a
404.539	0.12	809078	keystroke_e	e	n/a
404.914	0.09	809828	keystroke_n	n	n/a
405.169	0.18	810338	keystroke_Key.space	Key.space	n/a
405.454	0.105	810908	keystroke_s	s	n/a
405.724	0.165	811448	keystroke_c	c	n/a
405.904	0.105	811808	keystroke_o	o	n/a
406.174	0.06	812348	keystroke_t	t	n/a
406.339	0.075	812678	keystroke_t	t	n/a
406.8195	0.1195	813639	keystroke_i	i	n/a
406.969	0.165	813938	keystroke_s	s	n/a
407.149	0.135	814298	keystroke_h	h	n/a
407.404	0.195	814808	keystroke_Key.space	Key.space	n/a
408.094	0.12	816188	keystroke_d	d	n/a
408.3195	0.12	816639	keystroke_u	u	n/a
408.5445	0.105	817089	keystroke_r	r	n/a
409.2335	0.15	818467	keystroke_h	h	n/a
409.6085	0.165	819217	keystroke_a	a	n/a
409.7445	0.09	819489	keystroke_m	m	n/a
410.1345	0.119	820269	keystroke_Key.enter	Key.enter	n/a
410.258	8.3375	820516	prompt	n/a	upgrade yellow ferry webpage\n
410.9445	0.1345	821889	keystroke_u	u	n/a
411.184	0.2245	822368	keystroke_p	p	n/a
411.394	0.1055	822788	keystroke_g	g	n/a
411.6345	0.104	823269	keystroke_r	r	n/a
411.844	0.135	823688	keystroke_a	a	n/a
412.054	0.105	824108	keystroke_d	d	n/a
412.729	0.09	825458	keystroke_e	e	n/a
412.939	0.06	825878	keystroke_Key.space	Key.space	n/a
413.329	0.12	826658	keystroke_y	y	n/a
413.524	0.135	827048	keystroke_e	e	n/a
413.764	0.075	827528	keystroke_l	l	n/a
413.899	0.12	827798	keystroke_l	l	n/a
414.124	0.135	828248	keystroke_o	o	n/a
414.244	0.135	828488	keystroke_w	w	n/a
414.364	0.12	828728	keystroke_Key.space	Key.space	n/a
414.544	0.105	829088	keystroke_f	f	n/a
415.114	0.15	830228	keystroke_e	e	n/a
415.339	0.06	830678	keystroke_r	r	n/a
415.489	0.075	830978	keystroke_r	r	n/a
415.714	0.135	831428	keystroke_y	y	n/a
415.864	0.135	831728	keystroke_Key.space	Key.space	n/a
416.014	0.165	832028	keystroke_w	w	n/a
416.224	0.165	832448	keystroke_e	e	n/a
416.689	0.15	833378	keystroke_b	b	n/a
417.409	0.21	834818	keystroke_p	p	n/a
417.544	0.195	835088	keystroke_a	a	n/a
417.769	0.1195	835538	keystroke_g	g	n/a
417.9785	0.135	835957	keystroke_e	e	n/a
418.4885	0.105	836977	keystroke_Key.enter	Key.enter	n/a
418.598	10.1525	837196	prompt	n/a	crawford specially railroad printing\n
419.3735	0.1505	838747	keystroke_c	c	n/a
419.659	0.135	839318	keystroke_r	r	n/a
420.139	0.105	840278	keystroke_a	a	n/a
420.499	0.1355	840998	keystroke_w	w	n/a
421.159	0.165	842318	keystroke_f	f	n/a
421.369	0.12	842738	keystroke_o	o	n/a
421.8785	0.1055	843757	keystroke_r	r	n/a
422.194	0.165	844388	keystroke_d	d	n/a
422.434	0.105	844868	keystroke_Key.space	Key.space	n/a
422.674	0.1345	845348	keystroke_s	s	n/a
422.8235	0.21	845647	keystroke_p	p	n/a
423.0035	0.135	846007	keystroke_e	e	n/a
423.5285	0.135	847057	keystroke_c	c	n/a
423.7235	0.105	847447	keystroke_i	i	n/a
424.0685	0.135	848137	keystroke_a	a	n/a
424.2185	0.0905	848437	keystroke_l	l	n/a
424.384	0.105	848768	keystroke_l	l	n/a
424.744	0.15	849488	keystroke_y	y	n/a
424.954	0.135	849908	keystroke_Key.space	Key.space	n/a
425.389	0.105	850778	keystroke_r	r	n/a
425.6295	0.1945	851259	keystroke_a	a	n/a
425.839	0.09	851678	keystroke_i	i	n/a
426.0495	0.1345	852099	keystroke_l	l	n/a
426.244	0.135	852488	keystroke_r	r	n/a
426.424	0.0895	852848	keystroke_o	o	n/a
426.664	0.15	853328	keystroke_a	a	n/a
426.859	0.15	853718	keystroke_d	d	n/a
427.024	0.15	854048	keystroke_Key.space	Key.space	n/a
427.264	0.21	854528	keystroke_p	p	n/a
427.414	0.135	854828	keystroke_r	r	n/a
427.564	0.135	855128	keystroke_i	i	n/a
427.714	0.18	855428	keystroke_n	n	n/a
427.864	0.105	855728	keystroke_t	t	n/a
427.999	0.165	855998	keystroke_i	i	n/a
428.179	0.15	856358	keystroke_n	n	n/a
428.314	0.165	856628	keystroke_g	g	n/a
428.644	0.105	857288	keystroke_Key.enter	Key.enter	n/a
428.754	9.3865	857508	prompt	n/a	thinking chester raises exciting\n
429.319	0.135	858638	keystroke_t	t	n/a
429.439	0.12	858878	keystroke_h	h	n/a
429.604	0.135	859208	keystroke_i	i	n/a
429.754	0.18	859508	keystroke_n	n	n/a
430.144	0.15	860288	keystroke_k	k	n/a
430.414	0.165	860828	keystroke_i	i	n/a
430.609	0.165	861218	keystroke_n	n	n/a
430.744	0.15	861488	keystroke_g	g	n/a
430.924	0.135	861848	keystroke_Key.space	Key.space	n/a
431.254	0.165	862508	keystroke_c	c	n/a
431.404	0.135	862808	keystroke_h	h	n/a
431.5545	0.12	863109	keystroke_e	e	n/a
432.4695	0.12	864939	keystroke_s	s	n/a
432.7545	0.119	865509	keystroke_t	t	n/a
432.9335	0.151	865867	keystroke_e	e	n/a
433.0995	0.119	866199	keystroke_r	r	n/a
433.2635	0.135	866527	keystroke_Key.space	Key.space	n/a
433.5035	0.09	867007	keystroke_r	r	n/a
433.8795	0.119	867759	keystroke_a	a	n/a
434.0595	0.164	868119	keystroke_i	i	n/a
434.2695	0.119	868539	keystroke_s	s	n/a
434.5085	0.105	869017	keystroke_e	e	n/a
434.7795	0.1195	869559	keystroke_s	s	n/a
434.914	0.15	869828	keystroke_Key.space	Key.space	n/a
435.1695	0.104	870339	keystroke_e	e	n/a
435.5285	0.225	871057	keystroke_x	x	n/a
436.4285	0.1955	872857	keystroke_c	c	n/a
436.729	0.09	873458	keystroke_i	i	n/a
436.984	0.12	873968	keystroke_t	t	n/a
437.179	0.135	874358	keystroke_i	i	n/a
437.494	0.12	874988	keystroke_n	n	n/a
437.629	0.1195	875258	keystroke_g	g	n/a
438.049	0.09	876098	keystroke_Key.enter	Key.enter	n/a
438.1435	13.422	876287	prompt	n/a	switches kate metals copyrighted\n
438.739	0.1055	877478	keystroke_s	s	n/a
438.9795	0.1645	877959	keystroke_w	w	n/a
439.174	0.18	878348	keystroke_i	i	n/a
439.369	0.09	878738	keystroke_t	t	n/a
439.534	0.1505	879068	keystroke_h	h	n/a
439.6995	0.135	879399	keystroke_c	c	n/a
439.8495	0.165	879699	keystroke_h	h	n/a
440.419	0.225	880838	keystroke_Key.backspace	Key.backspace	n/a
440.719	0.165	881438	keystroke_Key.backspace	Key.backspace	n/a
441.004	0.12	882008	keystroke_Key.backspace	Key.backspace	n/a
441.199	0.09	882398	keystroke_Key.backspace	Key.backspace	n/a
442.639	0.075	885278	keystroke_t	t	n/a
442.9545	0.165	885909	keystroke_c	c	n/a
443.1345	0.12	886269	keystroke_h	h	n/a
443.4495	0.105	886899	keystroke_e	e	n/a
443.7195	0.12	887439	keystroke_s	s	n/a
443.9295	0.15	887859	keystroke_Key.space	Key.space	n/a
444.4095	0.18	888819	keystroke_k	k	n/a
444.6045	0.105	889209	keystroke_a	a	n/a
444.8745	0.105	889749	keystroke_t	t	n/a
445.144	0.12	890288	keystroke_e	e	n/a
446.1945	0.119	892389	keystroke_Key.space	Key.space	n/a
446.4495	0.1195	892899	keystroke_m	m	n/a
446.524	0.15	893048	keystroke_e	e	n/a
446.734	0.105	893468	keystroke_t	t	n/a
446.959	0.165	893918	keystroke_a	a	n/a
447.094	0.135	894188	keystroke_l	l	n/a
447.274	0.135	894548	keystroke_s	s	n/a
447.424	0.09	894848	keystroke_Key.space	Key.space	n/a
447.679	0.165	895358	keystroke_c	c	n/a
447.799	0.105	895598	keystroke_o	o	n/a
447.994	0.15	895988	keystroke_p	p	n/a
448.414	0.09	896828	keystroke_y	y	n/a
448.714	0.105	897428	keystroke_r	r	n/a
448.879	0.12	897758	keystroke_i	i	n/a
449.029	0.09	898058	keystroke_g	g	n/a
449.1935	0.135	898387	keystroke_h	h	n/a
449.3135	0.105	898627	keystroke_t	t	n/a
449.6135	0.135	899227	keystroke_e	e	n/a
449.974	0.165	899948	keystroke_d	d	n/a
451.459	0.105	902918	keystroke_Key.enter	Key.enter	n/a
451.57	6.1155	903140	prompt	n/a	bible tony irrigation dose\n
452.2095	0.15	904419	keystroke_b	b	n/a
452.3895	0.105	904779	keystroke_i	i	n/a
452.5245	0.135	905049	keystroke_b	b	n/a
452.6745	0.135	905349	keystroke_l	l	n/a
452.8395	0.135	905679	keystroke_e	e	n/a
453.3345	0.105	906669	keystroke_Key.space	Key.space	n/a
453.9345	0.105	907869	keystroke_t	t	n/a
454.0545	0.105	908109	keystroke_o	o	n/a
454.2795	0.075	908559	keystroke_n	n	n/a
454.5045	0.12	909009	keystroke_y	y	n/a
454.6545	0.135	909309	keystroke_Key.space	Key.space	n/a
454.924	0.105	909848	keystroke_i	i	n/a
455.149	0.06	910298	keystroke_r	r	n/a
455.299	0.105	910598	keystroke_r	r	n/a
455.464	0.15	910928	keystroke_i	i	n/a
455.614	0.09	911228	keystroke_g	g	n/a
455.809	0.15	911618	keystroke_a	a	n/a
456.0795	0.09	912159	keystroke_t	t	n/a
456.2145	0.15	912429	keystroke_i	i	n/a
456.3795	0.135	912759	keystroke_o	o	n/a
456.4845	0.165	912969	keystroke_n	n	n/a
456.6645	0.15	913329	keystroke_Key.space	Key.space	n/a
456.7845	0.165	913569	keystroke_d	d	n/a
456.9645	0.15	913929	keystroke_o	o	n/a
457.0845	0.12	914169	keystroke_s	s	n/a
457.2795	0.1045	914559	keystroke_e	e	n/a
457.564	0.12	915128	keystroke_Key.enter	Key.enter	n/a
457.6885	19.332	915377	prompt	n/a	guests facilities entire upgrade\n
458.239	0.15	916478	keystroke_b	b	n/a
458.464	0.12	916928	keystroke_u	u	n/a
458.599	0.135	917198	keystroke_e	e	n/a
458.9735	0.12	917947	keystroke_s	s	n/a
459.2435	0.045	918487	keystroke_t	t	n/a
459.4995	0.12	918999	keystroke_s	s	n/a
459.6485	0.135	919297	keystroke_Key.space	Key.space	n/a
459.8445	0.089	919689	keystroke_f	f	n/a
460.054	0.105	920108	keystroke_a	a	n/a
460.279	0.18	920558	keystroke_c	c	n/a
460.429	0.12	920858	keystroke_i	i	n/a
460.669	0.12	921338	keystroke_l	l	n/a
460.834	0.1495	921668	keystroke_i	i	n/a
461.0135	0.09	922027	keystroke_t	t	n/a
461.1785	0.0905	922357	keystroke_i	i	n/a
461.3135	0.12	922627	keystroke_e	e	n/a
461.5835	0.075	923167	keystroke_s	s	n/a
463.5795	0.06	927159	keystroke_Key.left	Key.left	n/a
463.8045	0.06	927609	keystroke_Key.left	Key.left	n/a
464.0145	0.075	928029	keystroke_Key.left	Key.left	n/a
464.239	0.06	928478	keystroke_Key.left	Key.left	n/a
464.464	0.045	928928	keystroke_Key.left	Key.left	n/a
464.689	0.045	929378	keystroke_Key.left	Key.left	n/a
464.8835	0.091	929767	keystroke_Key.left	Key.left	n/a
465.109	0.075	930218	keystroke_Key.left	Key.left	n/a
465.349	0.06	930698	keystroke_Key.left	Key.left	n/a
465.574	0.075	931148	keystroke_Key.left	Key.left	n/a
465.799	0.06	931598	keystroke_Key.left	Key.left	n/a
466.024	0.075	932048	keystroke_Key.left	Key.left	n/a
466.234	0.09	932468	keystroke_Key.left	Key.left	n/a
466.444	0.075	932888	keystroke_Key.left	Key.left	n/a
466.639	0.075	933278	keystroke_Key.left	Key.left	n/a
466.849	0.075	933698	keystroke_Key.left	Key.left	n/a
467.6885	0.09	935377	keystroke_Key.backspace	Key.backspace	n/a
467.9435	0.105	935887	keystroke_g	g	n/a
468.7085	0.06	937417	keystroke_Key.right	Key.right	n/a
468.904	0.06	937808	keystroke_Key.right	Key.right	n/a
469.084	0.075	938168	keystroke_Key.right	Key.right	n/a
469.309	0.06	938618	keystroke_Key.right	Key.right	n/a
469.564	0.075	939128	keystroke_Key.right	Key.right	n/a
469.789	0.075	939578	keystroke_Key.right	Key.right	n/a
469.984	0.09	939968	keystroke_Key.right	Key.right	n/a
470.179	0.075	940358	keystroke_Key.right	Key.right	n/a
470.374	0.075	940748	keystroke_Key.right	Key.right	n/a
470.569	0.06	941138	keystroke_Key.right	Key.right	n/a
470.749	0.06	941498	keystroke_Key.right	Key.right	n/a
470.914	0.12	941828	keystroke_Key.right	Key.right	n/a
471.139	0.075	942278	keystroke_Key.right	Key.right	n/a
471.334	0.075	942668	keystroke_Key.right	Key.right	n/a
471.529	0.075	943058	keystroke_Key.right	Key.right	n/a
471.724	0.075	943448	keystroke_Key.right	Key.right	n/a
472.9835	0.106	945967	keystroke_Key.space	Key.space	n/a
473.734	0.1945	947468	keystroke_e	e	n/a
474.334	0.1195	948668	keystroke_n	n	n/a
474.4385	0.12	948877	keystroke_t	t	n/a
474.5735	0.1205	949147	keystroke_i	i	n/a
474.649	0.135	949298	keystroke_r	r	n/a
474.8435	0.1655	949687	keystroke_e	e	n/a
474.979	0.1345	949958	keystroke_Key.space	Key.space	n/a
475.2635	0.1355	950527	keystroke_u	u	n/a
475.4735	0.1955	950947	keystroke_p	p	n/a
475.759	0.0895	951518	keystroke_g	g	n/a
475.9985	0.1055	951997	keystroke_r	r	n/a
476.2385	0.181	952477	keystroke_a	a	n/a
476.4795	0.105	952959	keystroke_d	d	n/a
476.7045	0.105	953409	keystroke_e	e	n/a
476.9295	0.09	953859	keystroke_Key.enter	Key.enter	n/a
477.024	7.2565	954048	prompt	n/a	roads beads storage mainland\n
477.574	0.105	955148	keystroke_f	f	n/a
478.0545	0.149	956109	keystroke_Key.backspace	Key.backspace	n/a
478.3245	0.105	956649	keystroke_r	r	n/a
478.4735	0.106	956947	keystroke_o	o	n/a
478.6845	0.18	957369	keystroke_a	a	n/a
478.9235	0.105	957847	keystroke_d	d	n/a
479.149	0.135	958298	keystroke_s	s	n/a
479.299	0.09	958598	keystroke_Key.space	Key.space	n/a
479.539	0.105	959078	keystroke_b	b	n/a
479.764	0.135	959528	keystroke_e	e	n/a
480.019	0.135	960038	keystroke_a	a	n/a
480.514	0.105	961028	keystroke_d	d	n/a
480.724	0.135	961448	keystroke_s	s	n/a
481.069	0.12	962138	keystroke_Key.space	Key.space	n/a
481.219	0.12	962438	keystroke_s	s	n/a
481.474	0.075	962948	keystroke_t	t	n/a
481.564	0.135	963128	keystroke_o	o	n/a
481.669	0.105	963338	keystroke_r	r	n/a
481.924	0.12	963848	keystroke_a	a	n/a
482.119	0.09	964238	keystroke_g	g	n/a
482.284	0.12	964568	keystroke_e	e	n/a
482.449	0.12	964898	keystroke_Key.space	Key.space	n/a
482.689	0.1045	965378	keystroke_m	m	n/a
482.779	0.1795	965558	keystroke_a	a	n/a
482.9885	0.15	965977	keystroke_i	i	n/a
483.1535	0.1355	966307	keystroke_n	n	n/a
483.424	0.135	966848	keystroke_l	l	n/a
483.529	0.165	967058	keystroke_a	a	n/a
483.679	0.12	967358	keystroke_n	n	n/a
483.844	0.165	967688	keystroke_d	d	n/a
484.189	0.09	968378	keystroke_Key.enter	Key.enter	n/a
484.2835	8.997	968567	prompt	n/a	nursing puerto gonna unexpected\n
484.9835	0.075	969967	keystroke_n	n	n/a
485.1935	0.12	970387	keystroke_u	u	n/a
485.3585	0.105	970717	keystroke_r	r	n/a
485.6285	0.135	971257	keystroke_s	s	n/a
485.8085	0.15	971617	keystroke_i	i	n/a
485.9745	0.119	971949	keystroke_n	n	n/a
486.1245	0.134	972249	keystroke_g	g	n/a
486.2735	0.12	972547	keystroke_Key.space	Key.space	n/a
486.5885	0.105	973177	keystroke_p	p	n/a
486.7985	0.1355	973597	keystroke_u	u	n/a
486.994	0.135	973988	keystroke_e	e	n/a
487.234	0.105	974468	keystroke_r	r	n/a
487.459	0.09	974918	keystroke_t	t	n/a
487.594	0.1195	975188	keystroke_o	o	n/a
487.8035	0.09	975607	keystroke_Key.space	Key.space	n/a
487.9385	0.09	975877	keystroke_g	g	n/a
488.0735	0.105	976147	keystroke_o	o	n/a
488.3135	0.075	976627	keystroke_n	n	n/a
488.4935	0.075	976987	keystroke_n	n	n/a
489.274	0.165	978548	keystroke_a	a	n/a
489.469	0.105	978938	keystroke_Key.space	Key.space	n/a
489.709	0.105	979418	keystroke_u	u	n/a
489.964	0.09	979928	keystroke_n	n	n/a
490.294	0.12	980588	keystroke_e	e	n/a
490.684	0.195	981368	keystroke_x	x	n/a
490.894	0.15	981788	keystroke_p	p	n/a
491.119	0.12	982238	keystroke_e	e	n/a
491.944	0.15	983888	keystroke_c	c	n/a
492.3195	0.119	984639	keystroke_t	t	n/a
492.5285	0.136	985057	keystroke_e	e	n/a
492.829	0.165	985658	keystroke_d	d	n/a
493.174	0.105	986348	keystroke_Key.enter	Key.enter	n/a
493.283	7.9475	986566	prompt	n/a	resulting rising cars immigration\n
493.924	0.12	987848	keystroke_r	r	n/a
494.059	0.12	988118	keystroke_e	e	n/a
494.344	0.165	988688	keystroke_s	s	n/a
494.524	0.135	989048	keystroke_u	u	n/a
494.824	0.165	989648	keystroke_l	l	n/a
494.974	0.12	989948	keystroke_t	t	n/a
495.109	0.15	990218	keystroke_i	i	n/a
495.244	0.15	990488	keystroke_n	n	n/a
495.364	0.15	990728	keystroke_g	g	n/a
495.484	0.165	990968	keystroke_Key.space	Key.space	n/a
495.769	0.15	991538	keystroke_r	r	n/a
495.904	0.15	991808	keystroke_i	i	n/a
496.114	0.15	992228	keystroke_s	s	n/a
496.279	0.165	992558	keystroke_i	i	n/a
496.429	0.15	992858	keystroke_n	n	n/a
496.549	0.135	993098	keystroke_g	g	n/a
496.669	0.135	993338	keystroke_Key.space	Key.space	n/a
496.924	0.12	993848	keystroke_c	c	n/a
497.104	0.18	994208	keystroke_a	a	n/a
497.494	0.015	994988	keystroke_r	r	n/a
497.8535	0.18	995707	keystroke_s	s	n/a
498.0635	0.1655	996127	keystroke_Key.space	Key.space	n/a
498.664	0.135	997328	keystroke_i	i	n/a
498.949	0.09	997898	keystroke_m	m	n/a
499.174	0.075	998348	keystroke_m	m	n/a
499.399	0.135	998798	keystroke_i	i	n/a
499.564	0.1055	999128	keystroke_g	g	n/a
499.7895	0.105	999579	keystroke_r	r	n/a
500.0145	0.12	1000029	keystroke_a	a	n/a
500.2545	0.12	1000509	keystroke_t	t	n/a
500.4045	0.18	1000809	keystroke_i	i	n/a
500.5545	0.165	1001109	keystroke_o	o	n/a
500.7495	0.135	1001499	keystroke_n	n	n/a
501.1535	0.075	1002307	keystroke_Key.enter	Key.enter	n/a
501.233	7.9775	1002466	prompt	n/a	delhi weekends hotmail the\n
501.8445	0.09	1003689	keystroke_d	d	n/a
502.0685	0.106	1004137	keystroke_e	e	n/a
502.2185	0.135	1004437	keystroke_l	l	n/a
502.5635	0.105	1005127	keystroke_h	h	n/a
502.7285	0.135	1005457	keystroke_i	i	n/a
502.9385	0.165	1005877	keystroke_Key.space	Key.space	n/a
503.1335	0.12	1006267	keystroke_w	w	n/a
503.3435	0.0905	1006687	keystroke_e	e	n/a
503.509	0.105	1007018	keystroke_e	e	n/a
503.644	0.1645	1007288	keystroke_k	k	n/a
503.7485	0.135	1007497	keystroke_e	e	n/a
503.9135	0.135	1007827	keystroke_n	n	n/a
504.1685	0.12	1008337	keystroke_d	d	n/a
505.3095	0.104	1010619	keystroke_s	s	n/a
505.4585	0.135	1010917	keystroke_Key.space	Key.space	n/a
505.6835	0.15	1011367	keystroke_h	h	n/a
505.8185	0.135	1011637	keystroke_o	o	n/a
505.9685	0.135	1011937	keystroke_t	t	n/a
506.1185	0.18	1012237	keystroke_m	m	n/a
506.4635	0.225	1012927	keystroke_a	a	n/a
506.6895	0.1195	1013379	keystroke_i	i	n/a
507.019	0.105	1014038	keystroke_l	l	n/a
507.424	0.165	1014848	keystroke_c	c	n/a
507.934	0.105	1015868	keystroke_Key.backspace	Key.backspace	n/a
508.159	0.15	1016318	keystroke_Key.space	Key.space	n/a
508.474	0.135	1016948	keystroke_t	t	n/a
508.624	0.135	1017248	keystroke_h	h	n/a
508.714	0.1495	1017428	keystroke_e	e	n/a
509.0885	0.1205	1018177	keystroke_Key.enter	Key.enter	n/a
509.2135	31.827	1018427	prompt	n/a	prescribed refinance acrylic load\n
509.914	0.225	1019828	keystroke_p	p	n/a
510.034	0.165	1020068	keystroke_r	r	n/a
510.229	0.21	1020458	keystroke_e	e	n/a
511.324	0.12	1022648	keystroke_s	s	n/a
511.579	0.195	1023158	keystroke_c	c	n/a
511.789	0.1645	1023578	keystroke_i	i	n/a
512.179	0.105	1024358	keystroke_b	b	n/a
512.4345	0.1495	1024869	keystroke_e	e	n/a
512.869	0.15	1025738	keystroke_d	d	n/a
513.199	0.1505	1026398	keystroke_Key.space	Key.space	n/a
513.4685	0.12	1026937	keystroke_r	r	n/a
513.6195	0.18	1027239	keystroke_e	e	n/a
517.446	0.043	1034892	keystroke_Key.left	Key.left	n/a
517.654	0.075	1035308	keystroke_Key.left	Key.left	n/a
517.939	0.06	1035878	keystroke_Key.left	Key.left	n/a
518.179	0.075	1036358	keystroke_Key.left	Key.left	n/a
518.464	0.075	1036928	keystroke_Key.left	Key.left	n/a
518.689	0.09	1037378	keystroke_Key.left	Key.left	n/a
518.8845	0.09	1037769	keystroke_Key.left	Key.left	n/a
519.2895	0.075	1038579	keystroke_Key.left	Key.left	n/a
520.3535	0.15	1040707	keystroke_Key.right	Key.right	n/a
520.6235	0.076	1041247	keystroke_r	r	n/a
521.614	0.09	1043228	keystroke_Key.right	Key.right	n/a
521.914	0.075	1043828	keystroke_Key.right	Key.right	n/a
522.184	0.075	1044368	keystroke_Key.right	Key.right	n/a
522.394	0.12	1044788	keystroke_Key.right	Key.right	n/a
522.634	0.105	1045268	keystroke_Key.right	Key.right	n/a
522.859	0.105	1045718	keystroke_Key.right	Key.right	n/a
523.129	0.105	1046258	keystroke_Key.right	Key.right	n/a
524.794	0.105	1049588	keystroke_i	i	n/a
524.944	0.135	1049888	keystroke_n	n	n/a
525.079	0.15	1050158	keystroke_a	a	n/a
525.319	0.12	1050638	keystroke_n	n	n/a
525.499	0.12	1050998	keystroke_c	c	n/a
525.784	0.105	1051568	keystroke_e	e	n/a
525.964	0.135	1051928	keystroke_Key.space	Key.space	n/a
526.159	0.15	1052318	keystroke_a	a	n/a
526.399	0.165	1052798	keystroke_c	c	n/a
526.714	0.105	1053428	keystroke_r	r	n/a
527.044	0.09	1054088	keystroke_y	y	n/a
527.5245	0.12	1055049	keystroke_l	l	n/a
527.7495	0.105	1055499	keystroke_i	i	n/a
528.0945	0.12	1056189	keystroke_c	c	n/a
529.9845	0.06	1059969	keystroke_Key.left	Key.left	n/a
530.2395	0.06	1060479	keystroke_Key.left	Key.left	n/a
530.4945	0.075	1060989	keystroke_Key.left	Key.left	n/a
530.7345	0.075	1061469	keystroke_Key.left	Key.left	n/a
530.9445	0.0745	1061889	keystroke_Key.left	Key.left	n/a
531.154	0.09	1062308	keystroke_Key.left	Key.left	n/a
531.349	0.06	1062698	keystroke_Key.left	Key.left	n/a
531.619	0.075	1063238	keystroke_Key.left	Key.left	n/a
531.859	0.075	1063718	keystroke_Key.left	Key.left	n/a
532.099	0.105	1064198	keystroke_Key.left	Key.left	n/a
532.3245	0.075	1064649	keystroke_Key.left	Key.left	n/a
532.5035	0.09	1065007	keystroke_Key.left	Key.left	n/a
532.7145	0.0895	1065429	keystroke_Key.left	Key.left	n/a
533.374	0.12	1066748	keystroke_Key.left	Key.left	n/a
533.674	0.09	1067348	keystroke_f	f	n/a
534.739	0.0905	1069478	keystroke_Key.right	Key.right	n/a
535.0095	0.06	1070019	keystroke_Key.right	Key.right	n/a
535.2645	0.059	1070529	keystroke_Key.right	Key.right	n/a
535.4895	0.045	1070979	keystroke_Key.right	Key.right	n/a
535.9995	0.09	1071999	keystroke_Key.right	Key.right	n/a
536.2235	0.121	1072447	keystroke_Key.right	Key.right	n/a
536.404	0.105	1072808	keystroke_Key.right	Key.right	n/a
536.584	0.09	1073168	keystroke_Key.right	Key.right	n/a
536.749	0.105	1073498	keystroke_Key.right	Key.right	n/a
536.929	0.12	1073858	keystroke_Key.right	Key.right	n/a
537.124	0.1205	1074248	keystroke_Key.right	Key.right	n/a
537.544	0.12	1075088	keystroke_Key.right	Key.right	n/a
537.8735	0.121	1075747	keystroke_Key.right	Key.right	n/a
538.2495	0.134	1076499	keystroke_Key.right	Key.right	n/a
538.7885	0.121	1077577	keystroke_Key.space	Key.space	n/a
539.584	0.06	1079168	keystroke_l	l	n/a
539.749	0.09	1079498	keystroke_o	o	n/a
539.884	0.135	1079768	keystroke_a	a	n/a
540.094	0.135	1080188	keystroke_d	d	n/a
540.9495	0.09	1081899	keystroke_Key.enter	Key.enter	n/a
541.044	8.907	1082088	prompt	n/a	balance valid education proposed\n
541.864	0.105	1083728	keystroke_b	b	n/a
542.044	0.1805	1084088	keystroke_a	a	n/a
542.164	0.1505	1084328	keystroke_l	l	n/a
542.3445	0.15	1084689	keystroke_a	a	n/a
542.4345	0.135	1084869	keystroke_n	n	n/a
542.6445	0.135	1085289	keystroke_c	c	n/a
542.9145	0.12	1085829	keystroke_e	e	n/a
543.0485	0.12	1086097	keystroke_Key.space	Key.space	n/a
543.229	0.12	1086458	keystroke_v	v	n/a
543.409	0.18	1086818	keystroke_a	a	n/a
543.5595	0.134	1087119	keystroke_l	l	n/a
543.784	0.12	1087568	keystroke_i	i	n/a
543.9485	0.1355	1087897	keystroke_d	d	n/a
544.1285	0.105	1088257	keystroke_Key.space	Key.space	n/a
544.3235	0.1055	1088647	keystroke_e	e	n/a
545.029	0.165	1090058	keystroke_d	d	n/a
545.329	0.105	1090658	keystroke_u	u	n/a
545.524	0.12	1091048	keystroke_c	c	n/a
545.734	0.12	1091468	keystroke_a	a	n/a
546.0045	0.15	1092009	keystroke_t	t	n/a
546.1695	0.12	1092339	keystroke_i	i	n/a
546.2745	0.225	1092549	keystroke_o	o	n/a
546.4695	0.15	1092939	keystroke_n	n	n/a
546.6345	0.105	1093269	keystroke_Key.space	Key.space	n/a
546.8445	0.165	1093689	keystroke_p	p	n/a
547.0395	0.135	1094079	keystroke_r	r	n/a
547.1895	0.12	1094379	keystroke_o	o	n/a
547.4595	0.285	1094919	keystroke_p	p	n/a
547.7895	0.195	1095579	keystroke_e	e	n/a
548.5095	0.12	1097019	keystroke_Key.backspace	Key.backspace	n/a
548.8545	0.105	1097709	keystroke_o	o	n/a
548.9745	0.135	1097949	keystroke_s	s	n/a
549.2895	0.12	1098579	keystroke_e	e	n/a
549.5145	0.165	1099029	keystroke_d	d	n/a
549.8745	0.075	1099749	keystroke_Key.enter	Key.enter	n/a
549.954	8.4715	1099908	prompt	n/a	people mostly ping carried\n
550.594	0.18	1101188	keystroke_p	p	n/a
550.744	0.135	1101488	keystroke_e	e	n/a
550.924	0.105	1101848	keystroke_o	o	n/a
551.089	0.15	1102178	keystroke_p	p	n/a
551.359	0.1955	1102718	keystroke_l	l	n/a
551.4645	0.12	1102929	keystroke_e	e	n/a
551.6135	0.15	1103227	keystroke_Key.space	Key.space	n/a
552.484	0.135	1104968	keystroke_m	m	n/a
552.649	0.1505	1105298	keystroke_o	o	n/a
552.784	0.1655	1105568	keystroke_s	s	n/a
553.1295	0.09	1106259	keystroke_t	t	n/a
553.5795	0.12	1107159	keystroke_l	l	n/a
553.8645	0.165	1107729	keystroke_y	y	n/a
554.0435	0.1505	1108087	keystroke_Key.space	Key.space	n/a
554.359	0.165	1108718	keystroke_p	p	n/a
554.584	0.1345	1109168	keystroke_i	i	n/a
554.7635	0.165	1109527	keystroke_n	n	n/a
554.944	0.1345	1109888	keystroke_g	g	n/a
555.0485	0.1355	1110097	keystroke_Key.space	Key.space	n/a
555.289	0.1495	1110578	keystroke_c	c	n/a
555.4845	0.135	1110969	keystroke_a	a	n/a
555.739	0.075	1111478	keystroke_r	r	n/a
555.9195	0.06	1111839	keystroke_r	r	n/a
556.0395	0.105	1112079	keystroke_r	r	n/a
557.0445	0.12	1114089	keystroke_Key.backspace	Key.backspace	n/a
557.539	0.105	1115078	keystroke_i	i	n/a
557.659	0.15	1115318	keystroke_e	e	n/a
557.974	0.165	1115948	keystroke_d	d	n/a
558.334	0.09	1116668	keystroke_Key.enter	Key.enter	n/a
558.428	7.8275	1116856	prompt	n/a	highly messaging dome highways\n
559.1145	0.135	1118229	keystroke_h	h	n/a
559.3395	0.135	1118679	keystroke_i	i	n/a
559.5495	0.119	1119099	keystroke_g	g	n/a
559.6835	0.15	1119367	keystroke_h	h	n/a
560.4935	0.12	1120987	keystroke_l	l	n/a
560.9135	0.151	1121827	keystroke_y	y	n/a
561.0785	0.15	1122157	keystroke_Key.space	Key.space	n/a
561.3485	0.166	1122697	keystroke_m	m	n/a
561.4985	0.121	1122997	keystroke_e	e	n/a
561.8735	0.075	1123747	keystroke_s	s	n/a
562.0535	0.075	1124107	keystroke_s	s	n/a
562.2045	0.15	1124409	keystroke_a	a	n/a
562.414	0.12	1124828	keystroke_g	g	n/a
562.579	0.18	1125158	keystroke_i	i	n/a
562.714	0.1655	1125428	keystroke_n	n	n/a
562.8495	0.12	1125699	keystroke_g	g	n/a
562.9545	0.12	1125909	keystroke_Key.space	Key.space	n/a
563.1945	0.165	1126389	keystroke_d	d	n/a
563.2995	0.105	1126599	keystroke_o	o	n/a
563.5245	0.1645	1127049	keystroke_m	m	n/a
563.659	0.15	1127318	keystroke_e	e	n/a
563.824	0.105	1127648	keystroke_Key.space	Key.space	n/a
564.064	0.15	1128128	keystroke_h	h	n/a
564.304	0.135	1128608	keystroke_i	i	n/a
564.529	0.135	1129058	keystroke_g	g	n/a
564.694	0.1655	1129388	keystroke_h	h	n/a
564.9645	0.1045	1129929	keystroke_w	w	n/a
565.264	0.18	1130528	keystroke_a	a	n/a
565.519	0.165	1131038	keystroke_y	y	n/a
565.699	0.15	1131398	keystroke_s	s	n/a
566.164	0.09	1132328	keystroke_Key.enter	Key.enter	n/a
566.2605	13.615	1132521	prompt	n/a	nonprofit composite apache astrology\n
566.9145	0.135	1133829	keystroke_n	n	n/a
567.0945	0.12	1134189	keystroke_o	o	n/a
567.649	0.1045	1135298	keystroke_n	n	n/a
568.0085	0.196	1136017	keystroke_p	p	n/a
568.1735	0.1205	1136347	keystroke_r	r	n/a
568.324	0.135	1136648	keystroke_o	o	n/a
568.474	0.12	1136948	keystroke_f	f	n/a
568.609	0.165	1137218	keystroke_i	i	n/a
568.8185	0.135	1137637	keystroke_t	t	n/a
569.0735	0.195	1138147	keystroke_Key.space	Key.space	n/a
569.3285	0.166	1138657	keystroke_c	c	n/a
569.4345	0.2095	1138869	keystroke_o	o	n/a
569.6295	0.1945	1139259	keystroke_m	m	n/a
569.8545	0.1345	1139709	keystroke_p	p	n/a
570.334	0.1355	1140668	keystroke_o	o	n/a
570.5745	0.135	1141149	keystroke_s	s	n/a
571.069	0.15	1142138	keystroke_t	t	n/a
571.924	0.075	1143848	keystroke_Key.backspace	Key.backspace	n/a
572.209	0.105	1144418	keystroke_i	i	n/a
572.329	0.105	1144658	keystroke_t	t	n/a
572.599	0.165	1145198	keystroke_e	e	n/a
572.779	0.1355	1145558	keystroke_Key.space	Key.space	n/a
573.0195	0.165	1146039	keystroke_a	a	n/a
573.1545	0.1645	1146309	keystroke_p	p	n/a
573.739	0.165	1147478	keystroke_c	c	n/a
573.889	0.15	1147778	keystroke_h	h	n/a
574.174	0.135	1148348	keystroke_e	e	n/a
574.969	0.0745	1149938	keystroke_Key.backspace	Key.backspace	n/a
575.149	0.075	1150298	keystroke_Key.backspace	Key.backspace	n/a
575.344	0.1045	1150688	keystroke_Key.backspace	Key.backspace	n/a
575.659	0.1795	1151318	keystroke_a	a	n/a
575.989	0.15	1151978	keystroke_c	c	n/a
576.094	0.165	1152188	keystroke_h	h	n/a
576.304	0.15	1152608	keystroke_e	e	n/a
576.8445	0.165	1153689	keystroke_Key.space	Key.space	n/a
576.9945	0.165	1153989	keystroke_a	a	n/a
577.7595	0.15	1155519	keystroke_s	s	n/a
578.089	0.09	1156178	keystroke_t	t	n/a
578.284	0.105	1156568	keystroke_r	r	n/a
578.479	0.03	1156958	keystroke_o	o	n/a
578.8245	0.075	1157649	keystroke_l	l	n/a
579.0495	0.104	1158099	keystroke_o	o	n/a
579.1695	0.134	1158339	keystroke_g	g	n/a
579.3635	0.135	1158727	keystroke_y	y	n/a
579.7535	0.12	1159507	keystroke_Key.enter	Key.enter	n/a
579.8785	9.612	1159757	prompt	n/a	ensures polo thongs beginners\n
580.4585	0.135	1160917	keystroke_e	e	n/a
580.6085	0.12	1161217	keystroke_n	n	n/a
580.7885	0.135	1161577	keystroke_s	s	n/a
580.9385	0.12	1161877	keystroke_u	u	n/a
581.0735	0.105	1162147	keystroke_r	r	n/a
581.2085	0.12	1162417	keystroke_e	e	n/a
581.449	0.15	1162898	keystroke_s	s	n/a
581.569	0.135	1163138	keystroke_Key.space	Key.space	n/a
581.8385	0.105	1163677	keystroke_p	p	n/a
582.0635	0.12	1164127	keystroke_o	o	n/a
582.3185	0.135	1164637	keystroke_l	l	n/a
582.5435	0.105	1165087	keystroke_o	o	n/a
582.7235	0.165	1165447	keystroke_Key.space	Key.space	n/a
582.9485	0.12	1165897	keystroke_t	t	n/a
583.0695	0.149	1166139	keystroke_h	h	n/a
583.3835	0.165	1166767	keystroke_o	o	n/a
583.5635	0.12	1167127	keystroke_g	g	n/a
583.8335	0.12	1167667	keystroke_n	n	n/a
584.0135	0.1655	1168027	keystroke_s	s	n/a
584.569	0.09	1169138	keystroke_Key.backspace	Key.backspace	n/a
584.7345	0.21	1169469	keystroke_Key.backspace	Key.backspace	n/a
585.2295	0.12	1170459	keystroke_Key.backspace	Key.backspace	n/a
585.8145	0.105	1171629	keystroke_n	n	n/a
586.0095	0.105	1172019	keystroke_g	g	n/a
586.2945	0.135	1172589	keystroke_s	s	n/a
586.4895	0.09	1172979	keystroke_Key.space	Key.space	n/a
586.6845	0.12	1173369	keystroke_b	b	n/a
586.924	0.105	1173848	keystroke_e	e	n/a
587.134	0.09	1174268	keystroke_g	g	n/a
587.284	0.33	1174568	keystroke_i	i	n/a
588.109	0.06	1176218	keystroke_n	n	n/a
588.274	0.09	1176548	keystroke_n	n	n/a
588.469	0.15	1176938	keystroke_e	e	n/a
588.649	0.105	1177298	keystroke_r	r	n/a
588.9795	0.105	1177959	keystroke_s	s	n/a
589.3845	0.104	1178769	keystroke_Key.enter	Key.enter	n/a
589.4935	10.2575	1178987	prompt	n/a	birds transferred defined fleet\n
590.1495	0.105	1180299	keystroke_b	b	n/a
590.3895	0.12	1180779	keystroke_i	i	n/a
590.5545	0.12	1181109	keystroke_r	r	n/a
590.929	0.105	1181858	keystroke_d	d	n/a
591.169	0.12	1182338	keystroke_s	s	n/a
591.334	0.12	1182668	keystroke_Key.space	Key.space	n/a
591.619	0.09	1183238	keystroke_t	t	n/a
591.829	0.1045	1183658	keystroke_r	r	n/a
592.2035	0.255	1184407	keystroke_a	a	n/a
593.044	0.06	1186088	keystroke_n	n	n/a
593.314	0.21	1186628	keystroke_s	s	n/a
594.079	0.1205	1188158	keystroke_f	f	n/a
594.3345	0.12	1188669	keystroke_e	e	n/a
594.5895	0.09	1189179	keystroke_r	r	n/a
594.7545	0.105	1189509	keystroke_r	r	n/a
594.9195	0.135	1189839	keystroke_e	e	n/a
595.5645	0.15	1191129	keystroke_d	d	n/a
595.9545	0.15	1191909	keystroke_Key.space	Key.space	n/a
596.1345	0.075	1192269	keystroke_d	d	n/a
596.3145	0.12	1192629	keystroke_e	e	n/a
596.4645	0.1495	1192929	keystroke_i	i	n/a
597.154	0.105	1194308	keystroke_Key.backspace	Key.backspace	n/a
597.259	0.1345	1194518	keystroke_f	f	n/a
597.4535	0.15	1194907	keystroke_i	i	n/a
597.6185	0.135	1195237	keystroke_n	n	n/a
597.7085	0.135	1195417	keystroke_e	e	n/a
597.9635	0.18	1195927	keystroke_d	d	n/a
598.1435	0.12	1196287	keystroke_Key.space	Key.space	n/a
598.384	0.1195	1196768	keystroke_f	f	n/a
598.5635	0.135	1197127	keystroke_l	l	n/a
598.7735	0.09	1197547	keystroke_e	e	n/a
598.9235	0.12	1197847	keystroke_e	e	n/a
599.3295	0.105	1198659	keystroke_t	t	n/a
599.6295	0.12	1199259	keystroke_Key.enter	Key.enter	n/a
599.7545	7.976	1199509	prompt	n/a	norm daily terminals crawford\n
600.3945	0.135	1200789	keystroke_n	n	n/a
600.5445	0.135	1201089	keystroke_o	o	n/a
600.7095	0.15	1201419	keystroke_r	r	n/a
600.8745	0.1045	1201749	keystroke_m	m	n/a
601.129	0.105	1202258	keystroke_Key.space	Key.space	n/a
601.264	0.09	1202528	keystroke_d	d	n/a
601.474	0.15	1202948	keystroke_a	a	n/a
601.639	0.09	1203278	keystroke_i	i	n/a
601.8495	0.149	1203699	keystroke_l	l	n/a
602.1485	0.1955	1204297	keystroke_y	y	n/a
602.314	0.135	1204628	keystroke_Key.space	Key.space	n/a
602.569	0.135	1205138	keystroke_t	t	n/a
602.764	0.15	1205528	keystroke_e	e	n/a
602.9285	0.12	1205857	keystroke_r	r	n/a
603.1385	0.09	1206277	keystroke_m	m	n/a
603.4235	0.09	1206847	keystroke_i	i	n/a
603.5585	0.121	1207117	keystroke_n	n	n/a
603.7535	0.18	1207507	keystroke_a	a	n/a
603.9185	0.121	1207837	keystroke_l	l	n/a
604.4585	0.12	1208917	keystroke_s	s	n/a
604.609	0.135	1209218	keystroke_Key.space	Key.space	n/a
604.969	0.15	1209938	keystroke_c	c	n/a
605.254	0.105	1210508	keystroke_r	r	n/a
605.704	0.135	1211408	keystroke_a	a	n/a
606.004	0.135	1212008	keystroke_w	w	n/a
606.379	0.135	1212758	keystroke_f	f	n/a
606.634	0.09	1213268	keystroke_o	o	n/a
606.859	0.12	1213718	keystroke_r	r	n/a
607.264	0.15	1214528	keystroke_d	d	n/a
607.624	0.105	1215248	keystroke_Key.enter	Key.enter	n/a
607.733	21.178	1215466	prompt	n/a	distribution october envelope threats\n
608.2985	0.136	1216597	keystroke_d	d	n/a
608.4635	0.09	1216927	keystroke_i	i	n/a
608.5835	0.12	1217167	keystroke_s	s	n/a
608.8085	0.075	1217617	keystroke_t	t	n/a
608.9735	0.12	1217947	keystroke_r	r	n/a
609.2735	0.105	1218547	keystroke_u	u	n/a
609.4085	0.105	1218817	keystroke_b	b	n/a
609.9335	0.075	1219867	keystroke_t	t	n/a
610.7585	0.09	1221517	keystroke_Key.backspace	Key.backspace	n/a
611.0135	0.075	1222027	keystroke_Key.backspace	Key.backspace	n/a
611.2535	0.075	1222507	keystroke_Key.backspace	Key.backspace	n/a
611.989	0.09	1223978	keystroke_i	i	n/a
612.289	0.06	1224578	keystroke_t	t	n/a
612.634	0.12	1225268	keystroke_b	b	n/a
612.769	0.09	1225538	keystroke_u	u	n/a
613.0085	0.12	1226017	keystroke_t	t	n/a
613.1735	0.105	1226347	keystroke_i	i	n/a
613.3385	0.2255	1226677	keystroke_o	o	n/a
613.4885	0.1655	1226977	keystroke_n	n	n/a
615.2885	0.09	1230577	keystroke_Key.backspace	Key.backspace	n/a
615.5745	0.045	1231149	keystroke_Key.backspace	Key.backspace	n/a
615.8145	0.045	1231629	keystroke_Key.backspace	Key.backspace	n/a
616.0395	0.03	1232079	keystroke_Key.backspace	Key.backspace	n/a
616.2345	0.09	1232469	keystroke_Key.backspace	Key.backspace	n/a
616.4745	0.06	1232949	keystroke_Key.backspace	Key.backspace	n/a
616.6995	0.06	1233399	keystroke_Key.backspace	Key.backspace	n/a
616.9235	0.181	1233847	keystroke_Key.backspace	Key.backspace	n/a
617.7635	0.09	1235527	keystroke_Key.backspace	Key.backspace	n/a
618.394	0.12	1236788	keystroke_Key.backspace	Key.backspace	n/a
619.4285	0.12	1238857	keystroke_t	t	n/a
619.6835	0.12	1239367	keystroke_r	r	n/a
619.8935	0.12	1239787	keystroke_i	i	n/a
620.0285	0.135	1240057	keystroke_b	b	n/a
620.1785	0.15	1240357	keystroke_u	u	n/a
620.3435	0.12	1240687	keystroke_t	t	n/a
620.4935	0.105	1240987	keystroke_i	i	n/a
620.6285	0.18	1241257	keystroke_o	o	n/a
620.7785	0.12	1241557	keystroke_n	n	n/a
620.929	0.15	1241858	keystroke_Key.space	Key.space	n/a
621.169	0.105	1242338	keystroke_o	o	n/a
621.244	0.165	1242488	keystroke_c	c	n/a
621.529	0.105	1243058	keystroke_t	t	n/a
621.649	0.12	1243298	keystroke_o	o	n/a
621.814	0.09	1243628	keystroke_b	b	n/a
622.024	0.15	1244048	keystroke_e	e	n/a
622.219	0.12	1244438	keystroke_r	r	n/a
622.354	0.12	1244708	keystroke_Key.space	Key.space	n/a
622.519	0.12	1245038	keystroke_e	e	n/a
622.699	0.1505	1245398	keystroke_n	n	n/a
622.8645	0.12	1245729	keystroke_v	v	n/a
625.146	0.103	1250292	keystroke_e	e	n/a
625.384	0.105	1250768	keystroke_l	l	n/a
625.609	0.09	1251218	keystroke_o	o	n/a
625.834	0.18	1251668	keystroke_p	p	n/a
626.029	0.12	1252058	keystroke_e	e	n/a
626.209	0.165	1252418	keystroke_Key.space	Key.space	n/a
626.719	0.12	1253438	keystroke_t	t	n/a
626.869	0.135	1253738	keystroke_h	h	n/a
627.079	0.135	1254158	keystroke_r	r	n/a
627.349	0.12	1254698	keystroke_e	e	n/a
627.829	0.18	1255658	keystroke_a	a	n/a
628.174	0.105	1256348	keystroke_t	t	n/a
628.579	0.12	1257158	keystroke_s	s	n/a
628.819	0.09	1257638	keystroke_Key.enter	Key.enter	n/a
628.915	7.8405	1257830	prompt	n/a	beef hewlett evil limits\n
629.674	0.105	1259348	keystroke_b	b	n/a
629.914	0.0755	1259828	keystroke_e	e	n/a
630.0945	0.09	1260189	keystroke_e	e	n/a
630.3195	0.12	1260639	keystroke_f	f	n/a
630.5295	0.135	1261059	keystroke_Key.space	Key.space	n/a
630.7695	0.1645	1261539	keystroke_h	h	n/a
630.874	0.15	1261748	keystroke_e	e	n/a
631.234	0.15	1262468	keystroke_w	w	n/a
631.489	0.135	1262978	keystroke_l	l	n/a
631.669	0.165	1263338	keystroke_e	e	n/a
631.984	0.06	1263968	keystroke_t	t	n/a
632.134	0.09	1264268	keystroke_t	t	n/a
632.299	0.165	1264598	keystroke_Key.space	Key.space	n/a
632.464	0.15	1264928	keystroke_e	e	n/a
632.779	0.09	1265558	keystroke_v	v	n/a
634.054	0.105	1268108	keystroke_i	i	n/a
634.309	0.135	1268618	keystroke_l	l	n/a
634.5495	0.18	1269099	keystroke_Key.space	Key.space	n/a
634.864	0.09	1269728	keystroke_l	l	n/a
635.149	0.165	1270298	keystroke_i	i	n/a
635.539	0.135	1271078	keystroke_m	m	n/a
635.839	0.105	1271678	keystroke_i	i	n/a
636.079	0.105	1272158	keystroke_t	t	n/a
636.394	0.09	1272788	keystroke_s	s	n/a
636.649	0.105	1273298	keystroke_Key.enter	Key.enter	n/a
636.759	14.2465	1273518	prompt	n/a	demanding readings relay cayman\n
637.339	0.12	1274678	keystroke_d	d	n/a
637.579	0.12	1275158	keystroke_e	e	n/a
637.714	0.15	1275428	keystroke_m	m	n/a
637.879	0.165	1275758	keystroke_a	a	n/a
638.074	0.135	1276148	keystroke_n	n	n/a
638.269	0.165	1276538	keystroke_d	d	n/a
638.449	0.135	1276898	keystroke_i	i	n/a
638.554	0.195	1277108	keystroke_n	n	n/a
638.734	0.135	1277468	keystroke_g	g	n/a
638.8395	0.1795	1277679	keystroke_Key.space	Key.space	n/a
639.109	0.12	1278218	keystroke_r	r	n/a
639.514	0.135	1279028	keystroke_a	a	n/a
639.754	0.1645	1279508	keystroke_d	d	n/a
639.904	0.1505	1279808	keystroke_i	i	n/a
640.0395	0.165	1280079	keystroke_n	n	n/a
640.3095	0.135	1280619	keystroke_s	s	n/a
641.1195	0.045	1282239	keystroke_Key.backspace	Key.backspace	n/a
641.2995	0.045	1282599	keystroke_Key.backspace	Key.backspace	n/a
641.5395	0.09	1283079	keystroke_Key.backspace	Key.backspace	n/a
641.7945	0.075	1283589	keystroke_Key.backspace	Key.backspace	n/a
642.0195	0.075	1284039	keystroke_Key.backspace	Key.backspace	n/a
642.364	0.105	1284728	keystroke_e	e	n/a
642.709	0.1355	1285418	keystroke_a	a	n/a
642.9195	0.195	1285839	keystroke_d	d	n/a
643.0995	0.165	1286199	keystroke_i	i	n/a
643.2495	0.12	1286499	keystroke_n	n	n/a
643.3995	0.135	1286799	keystroke_g	g	n/a
643.7295	0.135	1287459	keystroke_s	s	n/a
643.8795	0.12	1287759	keystroke_Key.space	Key.space	n/a
644.1645	0.135	1288329	keystroke_r	r	n/a
644.3895	0.12	1288779	keystroke_e	e	n/a
644.6145	0.18	1289229	keystroke_l	l	n/a
645.049	0.24	1290098	keystroke_a	a	n/a
645.274	0.15	1290548	keystroke_y	y	n/a
645.4845	0.135	1290969	keystroke_Key.space	Key.space	n/a
645.7545	0.135	1291509	keystroke_c	c	n/a
645.9345	0.165	1291869	keystroke_a	a	n/a
646.1145	0.12	1292229	keystroke_y	y	n/a
646.4295	0.18	1292859	keystroke_m	m	n/a
646.7445	0.09	1293489	keystroke_n	n	n/a
646.8795	0.195	1293759	keystroke_e	e	n/a
647.6285	0.09	1295257	keystroke_Key.backspace	Key.backspace	n/a
648.3335	0.1055	1296667	keystroke_Key.backspace	Key.backspace	n/a
648.664	0.1505	1297328	keystroke_a	a	n/a
650.4945	0.195	1300989	keystroke_n	n	n/a
650.8845	0.12	1301769	keystroke_Key.enter	Key.enter	n/a
651.0085	15.4925	1302017	prompt	n/a	jerry primarily halloween drives\n
651.7095	0.1195	1303419	keystroke_j	j	n/a
651.844	0.135	1303688	keystroke_e	e	n/a
652.069	0.06	1304138	keystroke_r	r	n/a
652.219	0.09	1304438	keystroke_r	r	n/a
652.5345	0.18	1305069	keystroke_y	y	n/a
652.7445	0.135	1305489	keystroke_Key.space	Key.space	n/a
653.0895	0.165	1306179	keystroke_p	p	n/a
653.2095	0.105	1306419	keystroke_r	r	n/a
653.3595	0.12	1306719	keystroke_i	i	n/a
653.5845	0.165	1307169	keystroke_m	m	n/a
653.7645	0.135	1307529	keystroke_a	a	n/a
654.0045	0.134	1308009	keystroke_r	r	n/a
654.3795	0.15	1308759	keystroke_k	k	n/a
654.6795	0.15	1309359	keystroke_l	l	n/a
655.009	0.18	1310018	keystroke_y	y	n/a
655.144	0.18	1310288	keystroke_Key.space	Key.space	n/a
655.4445	0.165	1310889	keystroke_h	h	n/a
656.2095	0.135	1312419	keystroke_Key.backspace	Key.backspace	n/a
656.434	0.3	1312868	keystroke_Key.backspace	Key.backspace	n/a
656.8095	0.105	1313619	keystroke_Key.backspace	Key.backspace	n/a
657.0195	0.135	1314039	keystroke_Key.backspace	Key.backspace	n/a
657.4245	0.12	1314849	keystroke_Key.backspace	Key.backspace	n/a
659.029	0.0895	1318058	keystroke_i	i	n/a
659.2545	0.135	1318509	keystroke_l	l	n/a
659.539	0.12	1319078	keystroke_y	y	n/a
659.764	0.105	1319528	keystroke_Key.space	Key.space	n/a
660.124	0.135	1320248	keystroke_h	h	n/a
660.514	0.2245	1321028	keystroke_a	a	n/a
660.7545	0.089	1321509	keystroke_l	l	n/a
660.9335	0.105	1321867	keystroke_l	l	n/a
661.1735	0.136	1322347	keystroke_o	o	n/a
661.3235	0.12	1322647	keystroke_w	w	n/a
661.4885	0.15	1322977	keystroke_e	e	n/a
661.6985	0.075	1323397	keystroke_n	n	n/a
661.9695	0.03	1323939	keystroke_n	n	n/a
662.5245	0.09	1325049	keystroke_Key.backspace	Key.backspace	n/a
662.6895	0.1045	1325379	keystroke_Key.backspace	Key.backspace	n/a
662.944	0.15	1325888	keystroke_e	e	n/a
663.139	0.1055	1326278	keystroke_n	n	n/a
663.3645	0.12	1326729	keystroke_Key.space	Key.space	n/a
663.9945	0.165	1327989	keystroke_d	d	n/a
664.8345	0.12	1329669	keystroke_r	r	n/a
665.1045	0.09	1330209	keystroke_i	i	n/a
665.3295	0.15	1330659	keystroke_v	v	n/a
665.6895	0.135	1331379	keystroke_e	e	n/a
666.124	0.1355	1332248	keystroke_s	s	n/a
666.3795	0.12	1332759	keystroke_Key.enter	Key.enter	n/a
666.504	7.5865	1333008	prompt	n/a	we filme villa technician\n
667.219	0.105	1334438	keystroke_w	w	n/a
667.399	0.165	1334798	keystroke_e	e	n/a
667.549	0.135	1335098	keystroke_Key.space	Key.space	n/a
667.744	0.15	1335488	keystroke_f	f	n/a
667.894	0.105	1335788	keystroke_i	i	n/a
668.134	0.135	1336268	keystroke_l	l	n/a
668.479	0.15	1336958	keystroke_m	m	n/a
668.764	0.1505	1337528	keystroke_e	e	n/a
669.0645	0.12	1338129	keystroke_Key.space	Key.space	n/a
669.8895	0.1195	1339779	keystroke_v	v	n/a
670.024	0.09	1340048	keystroke_i	i	n/a
670.249	0.09	1340498	keystroke_l	l	n/a
670.444	0.105	1340888	keystroke_l	l	n/a
671.0745	0.18	1342149	keystroke_a	a	n/a
671.2685	0.135	1342537	keystroke_Key.space	Key.space	n/a
671.5095	0.12	1343019	keystroke_t	t	n/a
671.7195	0.135	1343439	keystroke_e	e	n/a
672.0645	0.165	1344129	keystroke_c	c	n/a
672.4835	0.121	1344967	keystroke_h	h	n/a
672.7695	0.12	1345539	keystroke_n	n	n/a
672.964	0.1505	1345928	keystroke_i	i	n/a
673.1745	0.195	1346349	keystroke_c	c	n/a
673.384	0.1055	1346768	keystroke_i	i	n/a
673.5345	0.1495	1347069	keystroke_a	a	n/a
673.654	0.135	1347308	keystroke_n	n	n/a
673.999	0.0905	1347998	keystroke_Key.enter	Key.enter	n/a
674.0935	8.787	1348187	prompt	n/a	layers eagles highlighted closes\n
674.809	0.1655	1349618	keystroke_l	l	n/a
674.9895	0.18	1349979	keystroke_a	a	n/a
675.1845	0.165	1350369	keystroke_y	y	n/a
675.3945	0.1795	1350789	keystroke_e	e	n/a
675.589	0.12	1351178	keystroke_r	r	n/a
675.859	0.15	1351718	keystroke_s	s	n/a
676.039	0.135	1352078	keystroke_Key.space	Key.space	n/a
676.234	0.12	1352468	keystroke_e	e	n/a
676.474	0.135	1352948	keystroke_a	a	n/a
676.759	0.0605	1353518	keystroke_g	g	n/a
677.3895	0.1195	1354779	keystroke_l	l	n/a
677.599	0.105	1355198	keystroke_e	e	n/a
677.839	0.165	1355678	keystroke_s	s	n/a
677.989	0.135	1355978	keystroke_Key.space	Key.space	n/a
678.2745	0.12	1356549	keystroke_h	h	n/a
678.4845	0.12	1356969	keystroke_i	i	n/a
678.6345	0.15	1357269	keystroke_g	g	n/a
678.7995	0.12	1357599	keystroke_h	h	n/a
679.0695	0.135	1358139	keystroke_l	l	n/a
679.2795	0.165	1358559	keystroke_i	i	n/a
679.4295	0.135	1358859	keystroke_g	g	n/a
679.5495	0.195	1359099	keystroke_h	h	n/a
679.7295	0.105	1359459	keystroke_t	t	n/a
680.1345	0.165	1360269	keystroke_e	e	n/a
680.4945	0.135	1360989	keystroke_d	d	n/a
681.0495	0.1795	1362099	keystroke_Key.space	Key.space	n/a
681.304	0.165	1362608	keystroke_c	c	n/a
681.484	0.105	1362968	keystroke_l	l	n/a
681.709	0.165	1363418	keystroke_o	o	n/a
681.859	0.12	1363718	keystroke_s	s	n/a
682.129	0.12	1364258	keystroke_e	e	n/a
682.414	0.135	1364828	keystroke_s	s	n/a
682.729	0.15	1365458	keystroke_Key.enter	Key.enter	n/a
682.885	10.7505	1365770	prompt	n/a	plots morning would've loads\n
683.539	0.2255	1367078	keystroke_p	p	n/a
683.9295	0.12	1367859	keystroke_l	l	n/a
684.1695	0.15	1368339	keystroke_o	o	n/a
684.3195	0.12	1368639	keystroke_t	t	n/a
684.6645	0.105	1369329	keystroke_s	s	n/a
684.8885	0.1355	1369777	keystroke_Key.space	Key.space	n/a
685.219	0.12	1370438	keystroke_m	m	n/a
685.414	0.165	1370828	keystroke_o	o	n/a
685.849	0.165	1371698	keystroke_r	r	n/a
686.494	0.12	1372988	keystroke_n	n	n/a
686.734	0.165	1373468	keystroke_i	i	n/a
686.869	0.18	1373738	keystroke_n	n	n/a
687.004	0.165	1374008	keystroke_g	g	n/a
687.274	0.15	1374548	keystroke_Key.space	Key.space	n/a
687.679	0.1795	1375358	keystroke_w	w	n/a
687.8735	0.136	1375747	keystroke_o	o	n/a
688.0985	0.135	1376197	keystroke_u	u	n/a
689.359	0.1055	1378718	keystroke_l	l	n/a
689.959	0.135	1379918	keystroke_d	d	n/a
691.039	0.1345	1382078	keystroke_'	'	n/a
691.2935	0.09	1382587	keystroke_v	v	n/a
691.6085	0.105	1383217	keystroke_e	e	n/a
692.2245	0.12	1384449	keystroke_Key.space	Key.space	n/a
692.4945	0.09	1384989	keystroke_l	l	n/a
692.7045	0.09	1385409	keystroke_o	o	n/a
692.8395	0.135	1385679	keystroke_a	a	n/a
693.0345	0.105	1386069	keystroke_d	d	n/a
693.2745	0.135	1386549	keystroke_s	s	n/a
693.5145	0.12	1387029	keystroke_Key.enter	Key.enter	n/a
693.638	9.3275	1387276	prompt	n/a	convertible indirect associated strain\n
694.2495	0.165	1388499	keystroke_c	c	n/a
694.3995	0.1495	1388799	keystroke_o	o	n/a
694.564	0.135	1389128	keystroke_n	n	n/a
694.714	0.165	1389428	keystroke_v	v	n/a
694.999	0.165	1389998	keystroke_e	e	n/a
695.194	0.1055	1390388	keystroke_r	r	n/a
695.4195	0.09	1390839	keystroke_t	t	n/a
695.5245	0.105	1391049	keystroke_i	i	n/a
695.7345	0.09	1391469	keystroke_b	b	n/a
695.8095	0.1645	1391619	keystroke_l	l	n/a
696.019	0.135	1392038	keystroke_e	e	n/a
696.7235	0.12	1393447	keystroke_Key.space	Key.space	n/a
696.9635	0.075	1393927	keystroke_i	i	n/a
697.0685	0.15	1394137	keystroke_n	n	n/a
697.1735	0.15	1394347	keystroke_d	d	n/a
697.5045	0.09	1395009	keystroke_i	i	n/a
697.6545	0.12	1395309	keystroke_r	r	n/a
697.8195	0.1345	1395639	keystroke_e	e	n/a
