onset	duration	sample	value	key	prompt_text
7.8305	8.3385	15661	prompt	n/a	the quick brown fox jumps over a lazy dog\n
10.6165	0.013	21233	keystroke	t	n/a
10.6445	0.15	21289	keystroke	h	n/a
10.7045	0.105	21409	keystroke	e	n/a
10.8245	0.135	21649	keystroke	Key.space	n/a
10.8845	0.12	21769	keystroke	q	n/a
10.9895	0.135	21979	keystroke	u	n/a
11.0795	0.075	22159	keystroke	i	n/a
11.1995	0.12	22399	keystroke	c	n/a
11.2745	0.135	22549	keystroke	k	n/a
11.3645	0.15	22729	keystroke	Key.space	n/a
11.4845	0.06	22969	keystroke	b	n/a
11.6645	0.09	23329	keystroke	r	n/a
11.6945	0.075	23389	keystroke	o	n/a
11.8445	0.105	23689	keystroke	w	n/a
11.9195	0.15	23839	keystroke	n	n/a
12.0095	0.12	24019	keystroke	Key.space	n/a
12.1145	0.075	24229	keystroke	f	n/a
12.2045	0.061	24409	keystroke	o	n/a
12.3705	0.075	24741	keystroke	x	n/a
12.4905	0.135	24981	keystroke	Key.space	n/a
12.7305	0.105	25461	keystroke	j	n/a
12.9255	0.075	25851	keystroke	u	n/a
13.1505	0.12	26301	keystroke	m	n/a
13.2255	0.135	26451	keystroke	p	n/a
13.3155	0.105	26631	keystroke	s	n/a
13.3905	0.165	26781	keystroke	Key.space	n/a
13.5405	0.105	27081	keystroke	o	n/a
13.5855	0.105	27171	keystroke	v	n/a
13.7505	0.15	27501	keystroke	e	n/a
13.8255	0.105	27651	keystroke	r	n/a
13.9155	0.09	27831	keystroke	Key.space	n/a
14.0655	0.12	28131	keystroke	a	n/a
14.1105	0.12	28221	keystroke	Key.space	n/a
14.2005	0.105	28401	keystroke	l	n/a
14.3955	0.09	28791	keystroke	a	n/a
14.9055	0.105	29811	keystroke	z	n/a
15.1005	0.165	30201	keystroke	y	n/a
15.2055	0.135	30411	keystroke	Key.space	n/a
15.3255	0.09	30651	keystroke	d	n/a
15.4305	0.075	30861	keystroke	o	n/a
15.5505	0.075	31101	keystroke	g	n/a
16.0605	0.105	32121	keystroke	Key.enter	n/a
16.175	6.337	32350	prompt	n/a	alleged resource ebook radio\n
16.8555	0.105	33711	keystroke	a	n/a
16.9455	0.09	33891	keystroke	l	n/a
17.1105	0.09	34221	keystroke	l	n/a
17.6355	0.09	35271	keystroke	e	n/a
17.8605	0.105	35721	keystroke	g	n/a
17.9655	0.075	35931	keystroke	e	n/a
18.1755	0.075	36351	keystroke	d	n/a
18.2655	0.135	36531	keystroke	Key.space	n/a
18.5805	0.09	37161	keystroke	r	n/a
18.7305	0.105	37461	keystroke	e	n/a
19.0755	0.105	38151	keystroke	s	n/a
19.2855	0.15	38571	keystroke	o	n/a
19.4055	0.135	38811	keystroke	u	n/a
19.5555	0.045	39111	keystroke	r	n/a
19.7805	0.075	39561	keystroke	c	n/a
20.0055	0.06	40011	keystroke	e	n/a
20.1255	0.12	40251	keystroke	Key.space	n/a
20.6205	0.075	41241	keystroke	e	n/a
20.8455	0.09	41691	keystroke	b	n/a
20.9955	0.045	41991	keystroke	o	n/a
21.1455	0.165	42291	keystroke	o	n/a
21.2355	0.12	42471	keystroke	k	n/a
21.3255	0.15	42651	keystroke	Key.space	n/a
21.4605	0.135	42921	keystroke	r	n/a
21.5805	0.09	43161	keystroke	a	n/a
21.6855	0.12	43371	keystroke	d	n/a
21.8205	0.12	43641	keystroke	i	n/a
21.8955	0.105	43791	keystroke	o	n/a
22.3905	0.12	44781	keystroke	Key.enter	n/a
22.517	6.895	45034	prompt	n/a	quebec sponsor babies wasn't\n
23.5455	0.105	47091	keystroke	q	n/a
23.6655	0.105	47331	keystroke	u	n/a
24.0855	0.075	48171	keystroke	e	n/a
24.4755	0.105	48951	keystroke	b	n/a
24.7005	0.06	49401	keystroke	e	n/a
24.9255	0.09	49851	keystroke	c	n/a
25.0905	0.12	50181	keystroke	Key.space	n/a
25.6755	0.075	51351	keystroke	s	n/a
25.7805	0.09	51561	keystroke	p	n/a
25.9455	0.165	51891	keystroke	o	n/a
26.0655	0.135	52131	keystroke	n	n/a
26.1855	0.09	52371	keystroke	s	n/a
26.2905	0.09	52581	keystroke	o	n/a
26.4405	0.09	52881	keystroke	r	n/a
26.6655	0.105	53331	keystroke	Key.space	n/a
27.0705	0.075	54141	keystroke	b	n/a
27.2055	0.105	54411	keystroke	a	n/a
27.3555	0.12	54711	keystroke	b	n/a
27.4905	0.09	54981	keystroke	i	n/a
27.5955	0.165	55191	keystroke	e	n/a
27.7005	0.12	55401	keystroke	s	n/a
27.8055	0.135	55611	keystroke	Key.space	n/a
27.9855	0.105	55971	keystroke	w	n/a
28.1655	0.12	56331	keystroke	a	n/a
28.1955	0.135	56391	keystroke	s	n/a
28.3005	0.195	56601	keystroke	n	n/a
28.4055	0.165	56811	keystroke	'	n/a
28.5405	0.075	57081	keystroke	t	n/a
29.3055	0.105	58611	keystroke	Key.enter	n/a
29.4165	5.441	58833	prompt	n/a	campus permitted sorry guitar\n
30.0405	0.06	60081	keystroke	c	n/a
30.1305	0.12	60261	keystroke	a	n/a
30.2205	0.105	60441	keystroke	m	n/a
30.2815	0.134	60563	keystroke	p	n/a
30.4755	0.105	60951	keystroke	u	n/a
30.5655	0.09	61131	keystroke	s	n/a
30.6705	0.135	61341	keystroke	Key.space	n/a
30.8205	0.12	61641	keystroke	p	n/a
30.9705	0.105	61941	keystroke	e	n/a
31.0455	0.09	62091	keystroke	r	n/a
31.0905	0.18	62181	keystroke	m	n/a
31.2105	0.105	62421	keystroke	i	n/a
31.3305	0.075	62661	keystroke	t	n/a
31.4805	0.105	62961	keystroke	t	n/a
31.5705	0.075	63141	keystroke	e	n/a
31.7505	0.09	63501	keystroke	d	n/a
31.8405	0.12	63681	keystroke	Key.space	n/a
32.3355	0.06	64671	keystroke	s	n/a
32.4105	0.105	64821	keystroke	o	n/a
32.5305	0.06	65061	keystroke	r	n/a
32.6655	0.12	65331	keystroke	r	n/a
32.8005	0.12	65601	keystroke	y	n/a
32.8605	0.135	65721	keystroke	Key.space	n/a
33.0555	0.075	66111	keystroke	g	n/a
33.1155	0.135	66231	keystroke	u	n/a
33.2205	0.105	66441	keystroke	i	n/a
33.5955	0.09	67191	keystroke	t	n/a
33.7755	0.15	67551	keystroke	a	n/a
33.9105	0.09	67821	keystroke	r	n/a
34.7355	0.12	69471	keystroke	Key.enter	n/a
34.8615	7.991	69723	prompt	n/a	galleries titanium visited fathers\n
35.6355	0.075	71271	keystroke	g	n/a
35.7405	0.105	71481	keystroke	a	n/a
35.8305	0.075	71661	keystroke	l	n/a
35.9805	0.135	71961	keystroke	l	n/a
36.1005	0.105	72201	keystroke	e	n/a
36.1755	0.105	72351	keystroke	r	n/a
36.2955	0.09	72591	keystroke	i	n/a
36.4005	0.12	72801	keystroke	e	n/a
36.4755	0.135	72951	keystroke	s	n/a
36.5805	0.12	73161	keystroke	Key.space	n/a
37.1805	0.075	74361	keystroke	t	n/a
37.3455	0.105	74691	keystroke	i	n/a
37.5705	0.09	75141	keystroke	t	n/a
37.7655	0.105	75531	keystroke	a	n/a
38.0055	0.105	76011	keystroke	n	n/a
38.2755	0.09	76551	keystroke	i	n/a
38.5155	0.105	77031	keystroke	u	n/a
38.7855	0.15	77571	keystroke	m	n/a
38.9055	0.12	77811	keystroke	Key.space	n/a
39.6855	0.015	79371	keystroke	v	n/a
39.7155	0.06	79431	keystroke	i	n/a
39.8355	0.09	79671	keystroke	s	n/a
39.9405	0.105	79881	keystroke	i	n/a
40.1955	0.135	80391	keystroke	t	n/a
40.3005	0.09	80601	keystroke	e	n/a
40.5255	0.075	81051	keystroke	d	n/a
40.6305	0.12	81261	keystroke	Key.space	n/a
41.1705	0.09	82341	keystroke	f	n/a
41.3505	0.12	82701	keystroke	a	n/a
41.4855	0.09	82971	keystroke	t	n/a
41.5905	0.12	83181	keystroke	h	n/a
41.6805	0.135	83361	keystroke	e	n/a
41.7555	0.18	83511	keystroke	r	n/a
41.8755	0.105	83751	keystroke	s	n/a
42.7155	0.135	85431	keystroke	Key.enter	n/a
42.8575	9.315	85715	prompt	n/a	poker beneficial semiconductor preventing\n
43.6455	0.075	87291	keystroke	p	n/a
43.7955	0.09	87591	keystroke	o	n/a
43.9905	0.105	87981	keystroke	k	n/a
44.1555	0.135	88311	keystroke	e	n/a
44.2605	0.105	88521	keystroke	r	n/a
44.3505	0.12	88701	keystroke	Key.space	n/a
44.6505	0.075	89301	keystroke	b	n/a
44.8755	0.075	89751	keystroke	e	n/a
44.9805	0.135	89961	keystroke	n	n/a
45.0855	0.075	90171	keystroke	e	n/a
45.2805	0.075	90561	keystroke	f	n/a
45.3705	0.06	90741	keystroke	i	n/a
45.5205	0.09	91041	keystroke	c	n/a
45.6255	0.075	91251	keystroke	i	n/a
45.7755	0.075	91551	keystroke	a	n/a
45.8805	0.15	91761	keystroke	l	n/a
46.0005	0.15	92001	keystroke	Key.space	n/a
47.1405	0.09	94281	keystroke	s	n/a
47.3955	0.045	94791	keystroke	e	n/a
47.5755	0.105	95151	keystroke	m	n/a
47.8155	0.09	95631	keystroke	i	n/a
48.1605	0.075	96321	keystroke	c	n/a
48.2805	0.12	96561	keystroke	o	n/a
48.3705	0.135	96741	keystroke	n	n/a
48.5205	0.075	97041	keystroke	d	n/a
48.7005	0.105	97401	keystroke	u	n/a
48.8505	0.045	97701	keystroke	c	n/a
49.0605	0.045	98121	keystroke	t	n/a
49.1355	0.09	98271	keystroke	o	n/a
49.2555	0.075	98511	keystroke	r	n/a
49.9005	0.135	99801	keystroke	Key.space	n/a
50.2755	0.105	100551	keystroke	p	n/a
50.3955	0.075	100791	keystroke	r	n/a
50.4555	0.09	100911	keystroke	e	n/a
50.6505	0.12	101301	keystroke	v	n/a
50.7555	0.09	101511	keystroke	e	n/a
50.8905	0.135	101781	keystroke	n	n/a
50.9955	0.075	101991	keystroke	t	n/a
51.1155	0.15	102231	keystroke	i	n/a
51.1905	0.165	102381	keystroke	n	n/a
51.3105	0.075	102621	keystroke	g	n/a
52.0455	0.12	104091	keystroke	Key.enter	n/a
52.1775	8.26	104355	prompt	n/a	blues footage committees brings\n
52.8855	0.12	105771	keystroke	b	n/a
52.9755	0.18	105951	keystroke	l	n/a
53.0805	0.15	106161	keystroke	u	n/a
53.1855	0.165	106371	keystroke	e	n/a
53.3055	0.12	106611	keystroke	s	n/a
53.4405	0.075	106881	keystroke	Key.space	n/a
53.5455	0.09	107091	keystroke	f	n/a
53.6955	0.06	107391	keystroke	o	n/a
53.8315	0.119	107663	keystroke	o	n/a
53.9805	0.06	107961	keystroke	t	n/a
54.1155	0.135	108231	keystroke	a	n/a
54.2355	0.12	108471	keystroke	g	n/a
54.3255	0.09	108651	keystroke	e	n/a
55.4805	0.105	110961	keystroke	Key.space	n/a
55.6155	0.09	111231	keystroke	c	n/a
55.7355	0.075	111471	keystroke	o	n/a
56.0355	0.06	112071	keystroke	m	n/a
56.1705	0.135	112341	keystroke	m	n/a
56.4855	0.105	112971	keystroke	i	n/a
57.1005	0.06	114201	keystroke	t	n/a
57.2505	0.06	114501	keystroke	t	n/a
57.8505	0.06	115701	keystroke	e	n/a
57.9855	0.09	115971	keystroke	e	n/a
58.1805	0.09	116361	keystroke	s	n/a
58.3155	0.12	116631	keystroke	Key.space	n/a
58.9305	0.075	117861	keystroke	b	n/a
59.1555	0.105	118311	keystroke	r	n/a
59.2905	0.135	118581	keystroke	i	n/a
59.3655	0.165	118731	keystroke	n	n/a
59.4705	0.12	118941	keystroke	g	n/a
59.5605	0.105	119121	keystroke	s	n/a
60.3105	0.12	120621	keystroke	Key.enter	n/a
60.445	8.8075	120890	prompt	n/a	spiritual resident bright disposal\n
61.3755	0.105	122751	keystroke	s	n/a
61.4505	0.105	122901	keystroke	p	n/a
61.6305	0.09	123261	keystroke	i	n/a
61.7355	0.09	123471	keystroke	r	n/a
61.8555	0.105	123711	keystroke	i	n/a
62.0355	0.061	124071	keystroke	t	n/a
62.1255	0.12	124251	keystroke	u	n/a
62.2755	0.09	124551	keystroke	a	n/a
62.3805	0.135	124761	keystroke	l	n/a
62.4855	0.135	124971	keystroke	Key.space	n/a
62.8455	0.105	125691	keystroke	r	n/a
62.9355	0.075	125871	keystroke	e	n/a
63.0855	0.09	126171	keystroke	s	n/a
63.2055	0.12	126411	keystroke	i	n/a
63.2805	0.06	126561	keystroke	d	n/a
63.4455	0.075	126891	keystroke	e	n/a
63.5505	0.165	127101	keystroke	n	n/a
63.6405	0.06	127281	keystroke	t	n/a
63.7605	0.15	127521	keystroke	Key.space	n/a
63.9855	0.09	127971	keystroke	b	n/a
64.1955	0.076	128391	keystroke	r	n/a
64.2855	0.09	128571	keystroke	i	n/a
64.3905	0.06	128781	keystroke	g	n/a
64.4955	0.151	128991	keystroke	h	n/a
64.5705	0.076	129141	keystroke	t	n/a
64.6605	0.105	129321	keystroke	Key.space	n/a
64.8855	0.06	129771	keystroke	i	n/a
64.8865	0.104	129773	keystroke	d	n/a
66.1755	0.045	132351	keystroke	Key.backspace	n/a
66.2955	0.075	132591	keystroke	Key.backspace	n/a
66.4465	0.089	132893	keystroke	d	n/a
66.5655	0.106	133131	keystroke	i	n/a
66.7305	0.075	133461	keystroke	s	n/a
66.8655	0.09	133731	keystroke	p	n/a
67.0605	0.105	134121	keystroke	o	n/a
67.1355	0.105	134271	keystroke	s	n/a
67.3455	0.12	134691	keystroke	a	n/a
67.4365	0.089	134873	keystroke	l	n/a
69.1455	0.105	138291	keystroke	Key.enter	n/a
69.2565	7.826	138513	prompt	n/a	called regularly parties simpsons\n
69.9565	0.073	139913	keystroke	c	n/a
70.1195	0.09	140239	keystroke	a	n/a
70.1945	0.076	140389	keystroke	l	n/a
70.3445	0.121	140689	keystroke	l	n/a
70.4505	0.044	140901	keystroke	e	n/a
70.6295	0.075	141259	keystroke	d	n/a
70.7495	0.09	141499	keystroke	Key.space	n/a
70.9595	0.09	141919	keystroke	r	n/a
71.0205	0.089	142041	keystroke	e	n/a
71.2145	0.09	142429	keystroke	g	n/a
71.3205	0.149	142641	keystroke	u	n/a
71.4245	0.12	142849	keystroke	l	n/a
71.5455	0.164	143091	keystroke	a	n/a
71.6195	0.135	143239	keystroke	r	n/a
71.7695	0.226	143539	keystroke	l	n/a
71.9045	0.151	143809	keystroke	y	n/a
71.9795	0.15	143959	keystroke	Key.space	n/a
72.7295	0.105	145459	keystroke	p	n/a
72.8195	0.121	145639	keystroke	a	n/a
72.8945	0.09	145789	keystroke	r	n/a
73.0745	0.076	146149	keystroke	t	n/a
73.1655	0.09	146331	keystroke	i	n/a
73.2405	0.135	146481	keystroke	e	n/a
73.3155	0.119	146631	keystroke	s	n/a
74.2145	0.135	148429	keystroke	Key.space	n/a
74.5155	0.104	149031	keystroke	s	n/a
74.6495	0.226	149299	keystroke	i	n/a
74.7705	0.195	149541	keystroke	m	n/a
74.8905	0.134	149781	keystroke	p	n/a
75.1005	0.105	150201	keystroke	s	n/a
75.2655	0.18	150531	keystroke	o	n/a
75.3845	0.166	150769	keystroke	n	n/a
75.5055	0.105	151011	keystroke	s	n/a
76.9595	0.121	153919	keystroke	Key.enter	n/a
77.089	6.9835	154178	prompt	n/a	expected pulse chevy very\n
78.1155	0.06	156231	keystroke	e	n/a
78.2805	0.09	156561	keystroke	x	n/a
78.3845	0.106	156769	keystroke	p	n/a
78.5055	0.06	157011	keystroke	e	n/a
78.7005	0.105	157401	keystroke	c	n/a
78.9105	0.12	157821	keystroke	t	n/a
79.0005	0.09	158001	keystroke	e	n/a
79.1955	0.09	158391	keystroke	d	n/a
79.3145	0.12	158629	keystroke	Key.space	n/a
79.8105	0.105	159621	keystroke	p	n/a
79.9305	0.09	159861	keystroke	u	n/a
80.1255	0.105	160251	keystroke	l	n/a
80.4555	0.075	160911	keystroke	s	n/a
80.6355	0.075	161271	keystroke	e	n/a
81.2645	0.15	162529	keystroke	Key.space	n/a
81.5355	0.09	163071	keystroke	c	n/a
81.6705	0.12	163341	keystroke	h	n/a
81.7305	0.075	163461	keystroke	e	n/a
81.9555	0.09	163911	keystroke	v	n/a
82.1055	0.12	164211	keystroke	y	n/a
82.1955	0.134	164391	keystroke	Key.space	n/a
82.7205	0.075	165441	keystroke	v	n/a
82.8705	0.15	165741	keystroke	e	n/a
82.9755	0.135	165951	keystroke	r	n/a
83.0805	0.12	166161	keystroke	y	n/a
83.9955	0.075	167991	keystroke	Key.enter	n/a
84.0775	8.08	168155	prompt	n/a	restrictions discount predictions smaller\n
85.0755	0.075	170151	keystroke	r	n/a
85.3755	0.12	170751	keystroke	e	n/a
85.6305	0.165	171261	keystroke	s	n/a
85.7505	0.075	171501	keystroke	t	n/a
85.9305	0.105	171861	keystroke	r	n/a
86.2005	0.075	172401	keystroke	i	n/a
86.3955	0.06	172791	keystroke	c	n/a
86.5755	0.09	173151	keystroke	t	n/a
86.6955	0.075	173391	keystroke	i	n/a
86.7405	0.21	173481	keystroke	o	n/a
86.8905	0.165	173781	keystroke	n	n/a
87.0105	0.09	174021	keystroke	s	n/a
87.2355	0.135	174471	keystroke	Key.space	n/a
87.4905	0.075	174981	keystroke	d	n/a
87.5805	0.105	175161	keystroke	i	n/a
87.6705	0.06	175341	keystroke	s	n/a
87.8655	0.075	175731	keystroke	c	n/a
87.9705	0.135	175941	keystroke	o	n/a
88.0605	0.105	176121	keystroke	u	n/a
88.2705	0.165	176541	keystroke	n	n/a
88.4055	0.075	176811	keystroke	t	n/a
88.4955	0.15	176991	keystroke	Key.space	n/a
89.0055	0.135	178011	keystroke	p	n/a
89.1255	0.09	178251	keystroke	r	n/a
89.1855	0.075	178371	keystroke	e	n/a
89.3655	0.075	178731	keystroke	d	n/a
89.5005	0.075	179001	keystroke	i	n/a
89.5605	0.075	179121	keystroke	c	n/a
89.7255	0.09	179451	keystroke	t	n/a
89.8005	0.135	179601	keystroke	i	n/a
89.8905	0.18	179781	keystroke	o	n/a
89.9955	0.18	179991	keystroke	n	n/a
90.0855	0.105	180171	keystroke	s	n/a
90.2205	0.15	180441	keystroke	Key.space	n/a
90.9555	0.09	181911	keystroke	s	n/a
91.0305	0.09	182061	keystroke	m	n/a
91.1655	0.105	182331	keystroke	a	n/a
91.2405	0.075	182481	keystroke	l	n/a
91.3905	0.12	182781	keystroke	l	n/a
91.4805	0.165	182961	keystroke	e	n/a
91.5705	0.105	183141	keystroke	r	n/a
92.0355	0.12	184071	keystroke	Key.enter	n/a
92.1625	10.285	184325	prompt	n/a	biotechnology mailing newbie affiliates\n
93.2355	0.09	186471	keystroke	b	n/a
93.3105	0.09	186621	keystroke	i	n/a
93.9255	0.075	187851	keystroke	o	n/a
94.2405	0.09	188481	keystroke	t	n/a
94.4955	0.075	188991	keystroke	e	n/a
94.7805	0.09	189561	keystroke	c	n/a
94.9455	0.09	189891	keystroke	h	n/a
95.2455	0.135	190491	keystroke	n	n/a
95.4405	0.06	190881	keystroke	o	n/a
95.6205	0.06	191241	keystroke	l	n/a
95.8005	0.075	191601	keystroke	o	n/a
95.9055	0.075	191811	keystroke	g	n/a
96.0255	0.09	192051	keystroke	y	n/a
96.3555	0.135	192711	keystroke	Key.space	n/a
97.1355	0.12	194271	keystroke	m	n/a
97.2555	0.105	194511	keystroke	a	n/a
97.4205	0.105	194841	keystroke	i	n/a
97.7655	0.06	195531	keystroke	l	n/a
97.9605	0.12	195921	keystroke	i	n/a
98.0355	0.18	196071	keystroke	n	n/a
98.1105	0.09	196221	keystroke	g	n/a
98.2455	0.15	196491	keystroke	Key.space	n/a
98.7705	0.12	197541	keystroke	n	n/a
98.8455	0.105	197691	keystroke	e	n/a
99.0105	0.105	198021	keystroke	w	n/a
99.2805	0.105	198561	keystroke	b	n/a
99.4005	0.09	198801	keystroke	i	n/a
99.5505	0.09	199101	keystroke	e	n/a
99.7305	0.105	199461	keystroke	Key.space	n/a
100.0305	0.105	200061	keystroke	a	n/a
100.2705	0.075	200541	keystroke	f	n/a
100.4355	0.09	200871	keystroke	f	n/a
100.6305	0.06	201261	keystroke	i	n/a
100.8555	0.075	201711	keystroke	l	n/a
101.0355	0.09	202071	keystroke	i	n/a
101.1555	0.12	202311	keystroke	a	n/a
101.2305	0.15	202461	keystroke	t	n/a
101.3355	0.18	202671	keystroke	e	n/a
101.4705	0.135	202941	keystroke	s	n/a
102.3255	0.12	204651	keystroke	Key.enter	n/a
102.452	7.57	204904	prompt	n/a	yarn discretion pioneer worldwide\n
103.1655	0.105	206331	keystroke	y	n/a
103.2255	0.15	206451	keystroke	a	n/a
103.2855	0.135	206571	keystroke	r	n/a
103.4355	0.135	206871	keystroke	n	n/a
103.5255	0.12	207051	keystroke	Key.space	n/a
103.6755	0.09	207351	keystroke	d	n/a
103.7505	0.09	207501	keystroke	i	n/a
103.8855	0.09	207771	keystroke	s	n/a
104.0805	0.075	208161	keystroke	c	n/a
104.3055	0.09	208611	keystroke	r	n/a
104.7405	0.075	209481	keystroke	e	n/a
104.9505	0.075	209901	keystroke	t	n/a
105.0405	0.135	210081	keystroke	i	n/a
105.1605	0.165	210321	keystroke	o	n/a
105.2655	0.21	210531	keystroke	n	n/a
105.4005	0.15	210801	keystroke	Key.space	n/a
106.1655	0.09	212331	keystroke	p	n/a
106.3605	0.09	212721	keystroke	i	n/a
106.7055	0.09	213411	keystroke	o	n/a
107.0205	0.105	214041	keystroke	n	n/a
107.2755	0.075	214551	keystroke	e	n/a
107.4255	0.09	214851	keystroke	e	n/a
107.6655	0.06	215331	keystroke	r	n/a
107.8305	0.105	215661	keystroke	Key.space	n/a
108.1905	0.09	216381	keystroke	w	n/a
108.2955	0.075	216591	keystroke	o	n/a
108.4005	0.075	216801	keystroke	r	n/a
108.4905	0.09	216981	keystroke	l	n/a
108.6255	0.075	217251	keystroke	d	n/a
108.8655	0.09	217731	keystroke	w	n/a
109.0455	0.105	218091	keystroke	i	n/a
109.1355	0.075	218271	keystroke	d	n/a
109.3155	0.075	218631	keystroke	e	n/a
109.9155	0.105	219831	keystroke	Key.enter	n/a
110.027	9.2655	220054	prompt	n/a	justin complaints thoroughly sierra\n
110.8755	0.06	221751	keystroke	j	n/a
111.0405	0.105	222081	keystroke	u	n/a
111.1305	0.12	222261	keystroke	s	n/a
111.2055	0.105	222411	keystroke	t	n/a
111.2955	0.15	222591	keystroke	i	n/a
111.3555	0.165	222711	keystroke	n	n/a
111.4755	0.12	222951	keystroke	Key.space	n/a
111.7905	0.09	223581	keystroke	c	n/a
112.0455	0.225	224091	keystroke	o	n/a
112.2555	0.225	224511	keystroke	m	n/a
112.4055	0.15	224811	keystroke	p	n/a
112.4955	0.135	224991	keystroke	l	n/a
112.7055	0.09	225411	keystroke	a	n/a
112.8555	0.18	225711	keystroke	i	n/a
112.9605	0.15	225921	keystroke	n	n/a
113.1255	0.135	226251	keystroke	t	n/a
113.2005	0.12	226401	keystroke	s	n/a
113.8305	0.135	227661	keystroke	Key.space	n/a
114.1605	0.09	228321	keystroke	t	n/a
114.2505	0.12	228501	keystroke	h	n/a
114.5955	0.09	229191	keystroke	o	n/a
114.8055	0.075	229611	keystroke	r	n/a
115.1505	0.135	230301	keystroke	o	n/a
115.3155	0.105	230631	keystroke	u	n/a
115.5555	0.06	231111	keystroke	g	n/a
115.6455	0.105	231291	keystroke	h	n/a
115.9455	0.21	231891	keystroke	l	n/a
116.1255	0.09	232251	keystroke	y	n/a
116.59	0.12	233180	keystroke	Key.space	n/a
116.9805	0.09	233961	keystroke	s	n/a
117.0855	0.1195	234171	keystroke	i	n/a
117.2955	0.135	234591	keystroke	e	n/a
117.4755	0.06	234951	keystroke	r	n/a
117.625	0.105	235250	keystroke	r	n/a
117.835	0.09	235670	keystroke	a	n/a
119.1855	0.1045	238371	keystroke	Key.enter	n/a
119.2975	9.2795	238595	prompt	n/a	afterwards attending divide diego\n
120.07	0.105	240140	keystroke	a	n/a
120.265	0.045	240530	keystroke	f	n/a
120.745	0.075	241490	keystroke	t	n/a
121.165	0.24	242330	keystroke	e	n/a
121.33	0.12	242660	keystroke	r	n/a
121.585	0.12	243170	keystroke	w	n/a
121.945	0.165	243890	keystroke	a	n/a
122.155	0.21	244310	keystroke	r	n/a
122.29	0.15	244580	keystroke	d	n/a
122.366	0.089	244732	keystroke	s	n/a
123.13	0.12	246260	keystroke	Key.space	n/a
123.295	0.12	246590	keystroke	a	n/a
123.52	0.06	247040	keystroke	t	n/a
123.76	0.165	247520	keystroke	t	n/a
124.03	0.075	248060	keystroke	e	n/a
124.21	0.105	248420	keystroke	n	n/a
124.27	0.09	248540	keystroke	d	n/a
124.42	0.15	248840	keystroke	i	n/a
124.525	0.225	249050	keystroke	n	n/a
124.615	0.06	249230	keystroke	g	n/a
124.72	0.12	249440	keystroke	Key.space	n/a
125.26	0.09	250520	keystroke	d	n/a
125.365	0.105	250730	keystroke	i	n/a
125.485	0.09	250970	keystroke	v	n/a
125.98	0.105	251960	keystroke	i	n/a
126.25	0.09	252500	keystroke	d	n/a
126.73	0.09	253460	keystroke	e	n/a
126.925	0.09	253850	keystroke	Key.space	n/a
127.195	0.09	254390	keystroke	d	n/a
127.286	0.119	254572	keystroke	i	n/a
127.42	0.075	254840	keystroke	e	n/a
127.705	0.075	255410	keystroke	g	n/a
127.795	0.075	255590	keystroke	o	n/a
128.425	0.15	256850	keystroke	Key.enter	n/a
128.5825	6.639	257165	prompt	n/a	worn examined method proposal\n
129.445	0.06	258890	keystroke	w	n/a
129.52	0.075	259040	keystroke	o	n/a
129.61	0.09	259220	keystroke	r	n/a
129.73	0.15	259460	keystroke	n	n/a
129.82	0.15	259640	keystroke	Key.space	n/a
130.285	0.06	260570	keystroke	e	n/a
130.496	0.089	260992	keystroke	x	n/a
130.705	0.105	261410	keystroke	a	n/a
130.795	0.105	261590	keystroke	m	n/a
130.945	0.135	261890	keystroke	i	n/a
131.02	0.165	262040	keystroke	n	n/a
131.11	0.06	262220	keystroke	e	n/a
131.29	0.09	262580	keystroke	d	n/a
131.365	0.12	262730	keystroke	Key.space	n/a
131.95	0.135	263900	keystroke	m	n/a
132.04	0.09	264080	keystroke	e	n/a
132.19	0.09	264380	keystroke	t	n/a
132.235	0.15	264470	keystroke	h	n/a
132.4	0.12	264800	keystroke	o	n/a
132.505	0.09	265010	keystroke	d	n/a
132.655	0.15	265310	keystroke	Key.space	n/a
133	0.105	266000	keystroke	p	n/a
133.12	0.075	266240	keystroke	r	n/a
133.285	0.09	266570	keystroke	o	n/a
133.51	0.09	267020	keystroke	p	n/a
133.645	0.105	267290	keystroke	o	n/a
133.765	0.09	267530	keystroke	s	n/a
133.975	0.09	267950	keystroke	a	n/a
134.035	0.105	268070	keystroke	l	n/a
135.0995	0.12	270199	keystroke	Key.enter	n/a
135.2265	5.6805	270453	prompt	n/a	commissions bell matt rocky\n
136.0595	0.105	272119	keystroke	c	n/a
136.1945	0.075	272389	keystroke	o	n/a
136.4495	0.03	272899	keystroke	m	n/a
136.5995	0.09	273199	keystroke	m	n/a
136.8395	0.06	273679	keystroke	i	n/a
137.0045	0.09	274009	keystroke	s	n/a
137.1695	0.12	274339	keystroke	s	n/a
137.2445	0.15	274489	keystroke	i	n/a
137.3495	0.18	274699	keystroke	o	n/a
137.4545	0.21	274909	keystroke	n	n/a
137.5595	0.075	275119	keystroke	s	n/a
137.6495	0.15	275299	keystroke	Key.space	n/a
137.8145	0.09	275629	keystroke	b	n/a
138.0395	0.06	276079	keystroke	e	n/a
138.1295	0.075	276259	keystroke	l	n/a
138.2795	0.15	276559	keystroke	l	n/a
138.6695	0.12	277339	keystroke	Key.space	n/a
138.8195	0.15	277639	keystroke	m	n/a
138.9395	0.105	277879	keystroke	a	n/a
139.1795	0.06	278359	keystroke	t	n/a
139.3295	0.09	278659	keystroke	t	n/a
139.5245	0.105	279049	keystroke	Key.space	n/a
139.6745	0.09	279349	keystroke	r	n/a
139.7795	0.06	279559	keystroke	o	n/a
139.8995	0.091	279799	keystroke	c	n/a
139.9595	0.105	279919	keystroke	k	n/a
140.1995	0.09	280399	keystroke	y	n/a
140.7845	0.12	281569	keystroke	Key.enter	n/a
140.913	8.3785	281826	prompt	n/a	johnston hours result cached\n
141.6695	0.15	283339	keystroke	j	n/a
141.9695	0.105	283939	keystroke	o	n/a
142.1495	0.075	284299	keystroke	h	n/a
142.3595	0.09	284719	keystroke	n	n/a
142.5245	0.105	285049	keystroke	s	n/a
142.8395	0.06	285679	keystroke	t	n/a
142.9445	0.12	285889	keystroke	o	n/a
143.0195	0.195	286039	keystroke	n	n/a
143.1395	0.165	286279	keystroke	Key.space	n/a
145.2695	0.075	290539	keystroke	h	n/a
145.4045	0.135	290809	keystroke	o	n/a
145.4945	0.135	290989	keystroke	u	n/a
145.6145	0.135	291229	keystroke	r	n/a
145.7195	0.105	291439	keystroke	s	n/a
145.8395	0.105	291679	keystroke	Key.space	n/a
146.4395	0.12	292879	keystroke	r	n/a
146.6045	0.105	293209	keystroke	e	n/a
146.6495	0.135	293299	keystroke	s	n/a
146.7695	0.135	293539	keystroke	u	n/a
146.8745	0.12	293749	keystroke	l	n/a
146.9795	0.09	293959	keystroke	t	n/a
147.0995	0.135	294199	keystroke	Key.space	n/a
147.3845	0.045	294769	keystroke	c	n/a
147.8195	0.12	295639	keystroke	a	n/a
148.0895	0.09	296179	keystroke	c	n/a
148.1945	0.135	296389	keystroke	h	n/a
148.3445	0.06	296689	keystroke	e	n/a
148.5545	0.045	297109	keystroke	d	n/a
149.1695	0.12	298339	keystroke	Key.enter	n/a
149.2955	6.161	298591	prompt	n/a	contributing bear absent poet\n
150.0245	0.09	300049	keystroke	c	n/a
150.1595	0.105	300319	keystroke	o	n/a
150.2195	0.165	300439	keystroke	n	n/a
150.3545	0.06	300709	keystroke	t	n/a
150.5195	0.09	301039	keystroke	r	n/a
150.5945	0.105	301189	keystroke	i	n/a
150.8045	0.105	301609	keystroke	b	n/a
150.8795	0.12	301759	keystroke	u	n/a
151.0895	0.045	302179	keystroke	t	n/a
151.1805	0.134	302361	keystroke	i	n/a
151.2395	0.225	302479	keystroke	n	n/a
151.2995	0.105	302599	keystroke	g	n/a
151.4195	0.135	302839	keystroke	Key.space	n/a
152.0345	0.09	304069	keystroke	b	n/a
152.2305	0.134	304461	keystroke	e	n/a
152.3795	0.135	304759	keystroke	a	n/a
152.4395	0.15	304879	keystroke	r	n/a
152.5745	0.135	305149	keystroke	Key.space	n/a
152.7245	0.12	305449	keystroke	a	n/a
152.9195	0.09	305839	keystroke	b	n/a
153.1445	0.075	306289	keystroke	s	n/a
153.3245	0.06	306649	keystroke	e	n/a
153.4305	0.119	306861	keystroke	n	n/a
153.5205	0.074	307041	keystroke	t	n/a
154.0145	0.12	308029	keystroke	Key.space	n/a
154.1945	0.09	308389	keystroke	p	n/a
154.3595	0.105	308719	keystroke	o	n/a
154.4345	0.165	308869	keystroke	e	n/a
154.5695	0.121	309139	keystroke	t	n/a
155.3345	0.12	310669	keystroke	Key.enter	n/a
155.4645	9.892	310929	prompt	n/a	bachelor appears irrigation continuously\n
156.2205	0.074	312441	keystroke	b	n/a
156.7305	0.089	313461	keystroke	a	n/a
156.9705	0.075	313941	keystroke	c	n/a
157.0895	0.105	314179	keystroke	h	n/a
157.1805	0.06	314361	keystroke	e	n/a
157.3605	0.089	314721	keystroke	l	n/a
157.5695	0.09	315139	keystroke	o	n/a
157.6605	0.059	315321	keystroke	r	n/a
157.7345	0.135	315469	keystroke	Key.space	n/a
158.3055	0.09	316611	keystroke	a	n/a
158.5005	0.074	317001	keystroke	p	n/a
158.6355	0.149	317271	keystroke	p	n/a
158.7695	0.18	317539	keystroke	e	n/a
158.9355	0.15	317871	keystroke	a	n/a
158.9955	0.225	317991	keystroke	r	n/a
159.1155	0.12	318231	keystroke	s	n/a
159.2045	0.135	318409	keystroke	Key.space	n/a
160.0305	0.089	320061	keystroke	i	n/a
160.1355	0.075	320271	keystroke	r	n/a
160.2855	0.104	320571	keystroke	r	n/a
160.5245	0.075	321049	keystroke	g	n/a
160.9295	0.075	321859	keystroke	Key.backspace	n/a
161.2455	0.075	322491	keystroke	i	n/a
161.3355	0.09	322671	keystroke	g	n/a
161.5005	0.149	323001	keystroke	a	n/a
161.5605	0.12	323121	keystroke	t	n/a
161.6355	0.134	323271	keystroke	i	n/a
161.7255	0.195	323451	keystroke	o	n/a
161.8445	0.18	323689	keystroke	n	n/a
161.9345	0.15	323869	keystroke	Key.space	n/a
162.8205	0.09	325641	keystroke	c	n/a
162.8955	0.12	325791	keystroke	o	n/a
162.9855	0.12	325971	keystroke	n	n/a
163.0905	0.075	326181	keystroke	t	n/a
163.2255	0.12	326451	keystroke	i	n/a
163.4355	0.165	326871	keystroke	n	n/a
163.7655	0.09	327531	keystroke	u	n/a
164.0205	0.1645	328041	keystroke	o	n/a
164.125	0.12	328250	keystroke	u	n/a
164.26	0.0755	328520	keystroke	s	n/a
164.395	0.195	328790	keystroke	l	n/a
164.5	0.135	329000	keystroke	y	n/a
165.235	0.119	330470	keystroke	Key.enter	n/a
165.3615	8.17	330723	prompt	n/a	announcement module estimates begins\n
166.255	0.105	332510	keystroke	a	n/a
166.345	0.06	332690	keystroke	n	n/a
166.495	0.12	332990	keystroke	n	n/a
166.645	0.134	333290	keystroke	o	n/a
166.75	0.075	333500	keystroke	u	n/a
166.945	0.135	333890	keystroke	n	n/a
167.035	0.09	334070	keystroke	c	n/a
167.275	0.06	334550	keystroke	e	n/a
167.35	0.135	334700	keystroke	m	n/a
167.44	0.09	334880	keystroke	e	n/a
167.56	0.18	335120	keystroke	n	n/a
167.65	0.09	335300	keystroke	t	n/a
167.754	0.151	335508	keystroke	Key.space	n/a
168.565	0.135	337130	keystroke	m	n/a
168.685	0.105	337370	keystroke	o	n/a
168.775	0.09	337550	keystroke	d	n/a
168.925	0.165	337850	keystroke	u	n/a
169.045	0.12	338090	keystroke	l	n/a
169.09	0.075	338180	keystroke	e	n/a
169.254	0.136	338508	keystroke	Key.space	n/a
170.17	0.075	340340	keystroke	e	n/a
170.38	0.135	340760	keystroke	s	n/a
170.485	0.105	340970	keystroke	t	n/a
170.605	0.15	341210	keystroke	i	n/a
170.68	0.15	341360	keystroke	m	n/a
170.725	0.12	341450	keystroke	a	n/a
170.785	0.195	341570	keystroke	t	n/a
170.86	0.18	341720	keystroke	e	n/a
170.965	0.12	341930	keystroke	s	n/a
171.7	0.165	343400	keystroke	Key.space	n/a
171.895	0.075	343790	keystroke	b	n/a
172.075	0.06	344150	keystroke	e	n/a
172.24	0.075	344480	keystroke	g	n/a
172.33	0.135	344660	keystroke	i	n/a
172.39	0.15	344780	keystroke	n	n/a
172.48	0.09	344960	keystroke	s	n/a
173.41	0.12	346820	keystroke	Key.enter	n/a
173.536	6.5055	347072	prompt	n/a	cingular winter minds ripe\n
174.19	0.105	348380	keystroke	c	n/a
174.385	0.075	348770	keystroke	i	n/a
174.685	0.12	349370	keystroke	n	n/a
175.525	0.075	351050	keystroke	g	n/a
175.66	0.15	351320	keystroke	u	n/a
175.825	0.12	351650	keystroke	l	n/a
175.99	0.21	351980	keystroke	a	n/a
176.125	0.135	352250	keystroke	r	n/a
176.29	0.15	352580	keystroke	Key.space	n/a
176.965	0.09	353930	keystroke	w	n/a
177.07	0.075	354140	keystroke	i	n/a
177.205	0.15	354410	keystroke	n	n/a
177.34	0.075	354680	keystroke	t	n/a
177.52	0.15	355040	keystroke	e	n/a
177.61	0.12	355220	keystroke	r	n/a
177.715	0.135	355430	keystroke	Key.space	n/a
178.06	0.105	356120	keystroke	m	n/a
178.225	0.15	356450	keystroke	i	n/a
178.315	0.135	356630	keystroke	n	n/a
178.39	0.15	356780	keystroke	d	n/a
178.465	0.135	356930	keystroke	s	n/a
178.615	0.15	357230	keystroke	Key.space	n/a
179.05	0.09	358100	keystroke	r	n/a
179.17	0.12	358340	keystroke	i	n/a
179.29	0.12	358580	keystroke	p	n/a
179.425	0.075	358850	keystroke	e	n/a
179.92	0.12	359840	keystroke	Key.enter	n/a
180.046	7.136	360092	prompt	n/a	friends poster colonial settlement\n
180.835	0.06	361670	keystroke	f	n/a
181.015	0.09	362030	keystroke	r	n/a
181.09	0.12	362180	keystroke	i	n/a
181.165	0.09	362330	keystroke	e	n/a
181.285	0.12	362570	keystroke	n	n/a
181.375	0.12	362750	keystroke	d	n/a
181.42	0.105	362840	keystroke	s	n/a
181.54	0.12	363080	keystroke	Key.space	n/a
181.645	0.075	363290	keystroke	p	n/a
181.825	0.09	363650	keystroke	o	n/a
181.945	0.135	363890	keystroke	s	n/a
182.035	0.105	364070	keystroke	t	n/a
182.185	0.165	364370	keystroke	e	n/a
182.29	0.105	364580	keystroke	r	n/a
182.365	0.15	364730	keystroke	Key.space	n/a
183.04	0.105	366080	keystroke	c	n/a
183.13	0.045	366260	keystroke	o	n/a
183.28	0.075	366560	keystroke	l	n/a
183.46	0.12	366920	keystroke	o	n/a
183.565	0.135	367130	keystroke	n	n/a
183.685	0.105	367370	keystroke	i	n/a
183.805	0.12	367610	keystroke	a	n/a
183.94	0.12	367880	keystroke	l	n/a
184.045	0.135	368090	keystroke	Key.space	n/a
184.39	0.135	368780	keystroke	s	n/a
184.885	0.075	369770	keystroke	e	n/a
185.095	0.06	370190	keystroke	t	n/a
185.26	0.075	370520	keystroke	t	n/a
185.365	0.09	370730	keystroke	l	n/a
185.485	0.09	370970	keystroke	e	n/a
185.605	0.15	371210	keystroke	m	n/a
185.695	0.105	371390	keystroke	e	n/a
185.89	0.135	371780	keystroke	n	n/a
186.01	0.075	372020	keystroke	t	n/a
187.045	0.135	374090	keystroke	Key.enter	n/a
187.187	6.6395	374374	prompt	n/a	ralph container basics tagged\n
187.9	0.09	375800	keystroke	r	n/a
188.095	0.12	376190	keystroke	a	n/a
188.2	0.105	376400	keystroke	l	n/a
188.455	0.06	376910	keystroke	p	n/a
188.665	0.15	377330	keystroke	h	n/a
188.755	0.15	377510	keystroke	Key.space	n/a
188.95	0.105	377900	keystroke	c	n/a
189.085	0.135	378170	keystroke	o	n/a
189.175	0.15	378350	keystroke	n	n/a
189.265	0.105	378530	keystroke	t	n/a
189.355	0.12	378710	keystroke	a	n/a
189.46	0.135	378920	keystroke	i	n/a
189.535	0.18	379070	keystroke	n	n/a
189.655	0.15	379310	keystroke	e	n/a
189.745	0.105	379490	keystroke	r	n/a
189.865	0.135	379730	keystroke	Key.space	n/a
190.345	0.075	380690	keystroke	b	n/a
190.45	0.195	380900	keystroke	a	n/a
190.585	0.135	381170	keystroke	s	n/a
190.765	0.15	381530	keystroke	i	n/a
190.9	0.06	381800	keystroke	c	n/a
191.095	0.09	382190	keystroke	s	n/a
191.605	0.165	383210	keystroke	Key.space	n/a
192.01	0.09	384020	keystroke	t	n/a
192.145	0.105	384290	keystroke	a	n/a
192.355	0.06	384710	keystroke	g	n/a
192.505	0.09	385010	keystroke	g	n/a
192.655	0.09	385310	keystroke	e	n/a
192.85	0.075	385700	keystroke	d	n/a
193.705	0.12	387410	keystroke	Key.enter	n/a
193.8305	6.4005	387661	prompt	n/a	drain lodging breaking colin\n
194.62	0.09	389240	keystroke	d	n/a
194.77	0.15	389540	keystroke	r	n/a
194.875	0.12	389750	keystroke	a	n/a
194.95	0.15	389900	keystroke	i	n/a
195.025	0.195	390050	keystroke	n	n/a
195.145	0.165	390290	keystroke	Key.space	n/a
195.295	0.075	390590	keystroke	l	n/a
195.49	0.075	390980	keystroke	o	n/a
195.565	0.075	391130	keystroke	d	n/a
195.79	0.075	391580	keystroke	g	n/a
195.925	0.15	391850	keystroke	i	n/a
196.015	0.225	392030	keystroke	n	n/a
196.105	0.075	392210	keystroke	g	n/a
196.195	0.15	392390	keystroke	Key.space	n/a
196.78	0.09	393560	keystroke	b	n/a
197.035	0.3	394070	keystroke	r	n/a
197.095	0.165	394190	keystroke	e	n/a
197.185	0.12	394370	keystroke	a	n/a
197.245	0.12	394490	keystroke	k	n/a
197.5	0.1345	395000	keystroke	i	n/a
197.5745	0.225	395149	keystroke	n	n/a
197.6645	0.075	395329	keystroke	g	n/a
197.7245	0.165	395449	keystroke	Key.space	n/a
198.6395	0.075	397279	keystroke	c	n/a
198.8495	0.075	397699	keystroke	o	n/a
199.1045	0.18	398209	keystroke	l	n/a
199.2245	0.15	398449	keystroke	i	n/a
199.2995	0.15	398599	keystroke	n	n/a
200.0945	0.135	400189	keystroke	Key.enter	n/a
200.2355	9.2055	400471	prompt	n/a	wonderful movie were compromise\n
201.1295	0.09	402259	keystroke	w	n/a
201.2345	0.135	402469	keystroke	o	n/a
201.3245	0.165	402649	keystroke	n	n/a
201.4145	0.045	402829	keystroke	d	n/a
201.5945	0.09	403189	keystroke	e	n/a
201.6545	0.075	403309	keystroke	r	n/a
201.8645	0.09	403729	keystroke	f	n/a
202.0745	0.135	404149	keystroke	l	n/a
203.0345	0.075	406069	keystroke	Key.backspace	n/a
203.3645	0.09	406729	keystroke	u	n/a
203.5445	0.12	407089	keystroke	l	n/a
203.6795	0.09	407359	keystroke	Key.space	n/a
204.0845	0.15	408169	keystroke	m	n/a
204.3695	0.12	408739	keystroke	o	n/a
204.8345	0.075	409669	keystroke	v	n/a
204.9245	0.105	409849	keystroke	i	n/a
205.0445	0.075	410089	keystroke	e	n/a
205.2245	0.12	410449	keystroke	Key.space	n/a
205.5395	0.15	411079	keystroke	w	n/a
205.5845	0.165	411169	keystroke	e	n/a
205.7195	0.15	411439	keystroke	r	n/a
205.8545	0.09	411709	keystroke	e	n/a
205.9295	0.12	411859	keystroke	Key.space	n/a
206.1995	0.105	412399	keystroke	c	n/a
206.3195	0.12	412639	keystroke	o	n/a
206.4095	0.195	412819	keystroke	m	n/a
206.5445	0.12	413089	keystroke	p	n/a
206.7695	0.105	413539	keystroke	r	n/a
207.1595	0.105	414319	keystroke	o	n/a
207.6095	0.21	415219	keystroke	m	n/a
207.7745	0.105	415549	keystroke	i	n/a
207.8945	0.075	415789	keystroke	s	n/a
208.0595	0.075	416119	keystroke	e	n/a
209.3045	0.135	418609	keystroke	Key.enter	n/a
209.4455	7.076	418891	prompt	n/a	newark indicates situations annie\n
210.4595	0.15	420919	keystroke	n	n/a
210.5645	0.105	421129	keystroke	e	n/a
210.7745	0.12	421549	keystroke	w	n/a
210.9845	0.12	421969	keystroke	a	n/a
211.0595	0.12	422119	keystroke	r	n/a
211.2095	0.135	422419	keystroke	k	n/a
211.3145	0.15	422629	keystroke	Key.space	n/a
212.0805	0.134	424161	keystroke	i	n/a
212.1545	0.135	424309	keystroke	n	n/a
212.3045	0.06	424609	keystroke	d	n/a
212.3795	0.135	424759	keystroke	i	n/a
212.5295	0.075	425059	keystroke	c	n/a
212.7095	0.15	425419	keystroke	a	n/a
212.8145	0.15	425629	keystroke	t	n/a
212.8895	0.136	425779	keystroke	e	n/a
213.0855	0.119	426171	keystroke	s	n/a
213.2495	0.15	426499	keystroke	Key.space	n/a
213.8945	0.09	427789	keystroke	s	n/a
214.0155	0.09	428031	keystroke	i	n/a
214.0905	0.104	428181	keystroke	t	n/a
214.2545	0.12	428509	keystroke	u	n/a
214.4345	0.165	428869	keystroke	a	n/a
214.5245	0.135	429049	keystroke	t	n/a
214.5845	0.15	429169	keystroke	i	n/a
214.6895	0.18	429379	keystroke	o	n/a
214.8245	0.166	429649	keystroke	n	n/a
214.9595	0.091	429919	keystroke	s	n/a
215.1545	0.105	430309	keystroke	Key.space	n/a
215.3795	0.105	430759	keystroke	a	n/a
215.5595	0.09	431119	keystroke	n	n/a
215.7395	0.165	431479	keystroke	n	n/a
215.8445	0.15	431689	keystroke	i	n/a
215.9345	0.09	431869	keystroke	e	n/a
216.3845	0.135	432769	keystroke	Key.enter	n/a
216.526	6.9555	433052	prompt	n/a	fort skin bunny measurement\n
217.3895	0.06	434779	keystroke	f	n/a
217.5095	0.09	435019	keystroke	o	n/a
217.6295	0.09	435259	keystroke	r	n/a
217.8695	0.075	435739	keystroke	t	n/a
217.9595	0.105	435919	keystroke	Key.space	n/a
218.0795	0.09	436159	keystroke	s	n/a
218.1845	0.06	436369	keystroke	k	n/a
218.3495	0.165	436699	keystroke	i	n/a
218.4395	0.135	436879	keystroke	n	n/a
218.9645	0.135	437929	keystroke	Key.space	n/a
219.1295	0.105	438259	keystroke	b	n/a
219.2795	0.075	438559	keystroke	u	n/a
219.5195	0.045	439039	keystroke	n	n/a
219.6545	0.105	439309	keystroke	n	n/a
219.9245	0.135	439849	keystroke	y	n/a
219.9995	0.135	439999	keystroke	Key.space	n/a
220.2545	0.12	440509	keystroke	m	n/a
220.3595	0.09	440719	keystroke	e	n/a
220.5395	0.105	441079	keystroke	a	n/a
221.2145	0.075	442429	keystroke	s	n/a
221.4995	0.15	442999	keystroke	u	n/a
221.6645	0.105	443329	keystroke	r	n/a
221.9045	0.075	443809	keystroke	e	n/a
222.1445	0.12	444289	keystroke	m	n/a
222.2495	0.09	444499	keystroke	e	n/a
222.3545	0.15	444709	keystroke	n	n/a
222.4745	0.075	444949	keystroke	t	n/a
223.3595	0.12	446719	keystroke	Key.enter	n/a
223.487	7.044	446974	prompt	n/a	feof colors rotary relates\n
224.3045	0.09	448609	keystroke	f	n/a
224.4845	0.075	448969	keystroke	e	n/a
224.6495	0.105	449299	keystroke	o	n/a
224.9795	0.105	449959	keystroke	f	n/a
225.0695	0.165	450139	keystroke	Key.space	n/a
225.564	0.09	451128	keystroke	c	n/a
225.639	0.06	451278	keystroke	o	n/a
225.8045	0.075	451609	keystroke	l	n/a
225.999	0.09	451998	keystroke	o	n/a
226.059	0.166	452118	keystroke	r	n/a
226.1645	0.1195	452329	keystroke	s	n/a
226.269	0.12	452538	keystroke	Key.space	n/a
226.659	0.045	453318	keystroke	t	n/a
227.124	0.09	454248	keystroke	Key.backspace	n/a
227.289	0.06	454578	keystroke	r	n/a
227.409	0.09	454818	keystroke	o	n/a
227.529	0.106	455058	keystroke	t	n/a
227.754	0.135	455508	keystroke	a	n/a
227.799	0.15	455598	keystroke	r	n/a
227.964	0.15	455928	keystroke	y	n/a
228.054	0.135	456108	keystroke	Key.space	n/a
228.819	0.181	457638	keystroke	r	n/a
228.984	0.135	457968	keystroke	e	n/a
229.089	0.105	458178	keystroke	l	n/a
229.134	0.135	458268	keystroke	a	n/a
229.224	0.15	458448	keystroke	t	n/a
229.284	0.18	458568	keystroke	e	n/a
229.434	0.12	458868	keystroke	s	n/a
230.394	0.135	460788	keystroke	Key.enter	n/a
230.535	8.171	461070	prompt	n/a	quick notebooks pathology computing\n
231.474	0.12	462948	keystroke	q	n/a
231.55	0.164	463100	keystroke	u	n/a
231.669	0.105	463338	keystroke	i	n/a
231.789	0.135	463578	keystroke	c	n/a
231.909	0.151	463818	keystroke	k	n/a
232.014	0.135	464028	keystroke	Key.space	n/a
232.254	0.135	464508	keystroke	n	n/a
232.374	0.09	464748	keystroke	o	n/a
232.704	0.105	465408	keystroke	t	n/a
233.019	0.09	466038	keystroke	e	n/a
233.319	0.105	466638	keystroke	b	n/a
233.499	0.06	466998	keystroke	o	n/a
233.649	0.18	467298	keystroke	o	n/a
233.739	0.165	467478	keystroke	k	n/a
233.874	0.09	467748	keystroke	s	n/a
234.489	0.105	468978	keystroke	Key.space	n/a
234.714	0.135	469428	keystroke	p	n/a
234.909	0.12	469818	keystroke	a	n/a
234.939	0.12	469878	keystroke	t	n/a
235.404	0.15	470808	keystroke	h	n/a
235.629	0.091	471258	keystroke	o	n/a
235.839	0.06	471678	keystroke	l	n/a
236.019	0.075	472038	keystroke	o	n/a
236.124	0.075	472248	keystroke	g	n/a
236.229	0.135	472458	keystroke	y	n/a
236.379	0.135	472758	keystroke	Key.space	n/a
237.025	0.089	474050	keystroke	c	n/a
237.13	0.104	474260	keystroke	o	n/a
237.205	0.134	474410	keystroke	m	n/a
237.324	0.15	474648	keystroke	p	n/a
237.504	0.12	475008	keystroke	u	n/a
237.64	0.06	475280	keystroke	t	n/a
237.729	0.135	475458	keystroke	i	n/a
237.804	0.165	475608	keystroke	n	n/a
237.894	0.09	475788	keystroke	g	n/a
238.584	0.12	477168	keystroke	Key.enter	n/a
238.711	10.99	477422	prompt	n/a	women shift zambia briefing\n
239.32	0.089	478640	keystroke	s	n/a
239.394	0.166	478788	keystroke	o	n/a
239.484	0.12	478968	keystroke	m	n/a
239.544	0.09	479088	keystroke	e	n/a
239.709	0.195	479418	keystroke	n	n/a
239.844	0.135	479688	keystroke	Key.space	n/a
239.994	0.105	479988	keystroke	s	n/a
240.1	0.134	480200	keystroke	h	n/a
240.174	0.12	480348	keystroke	i	n/a
241.359	0.06	482718	keystroke	Key.backspace	n/a
241.554	0.045	483108	keystroke	Key.backspace	n/a
241.749	0.03	483498	keystroke	Key.backspace	n/a
241.914	0.045	483828	keystroke	Key.backspace	n/a
242.079	0.06	484158	keystroke	Key.backspace	n/a
242.244	0.06	484488	keystroke	Key.backspace	n/a
242.409	0.06	484818	keystroke	Key.backspace	n/a
242.574	0.075	485148	keystroke	Key.backspace	n/a
242.754	0.06	485508	keystroke	Key.backspace	n/a
243.19	0.075	486380	keystroke	w	n/a
243.28	0.135	486560	keystroke	o	n/a
243.385	0.105	486770	keystroke	m	n/a
243.43	0.089	486860	keystroke	e	n/a
243.61	0.18	487220	keystroke	n	n/a
243.729	0.135	487458	keystroke	Key.space	n/a
244.015	0.09	488030	keystroke	s	n/a
244.12	0.135	488240	keystroke	h	n/a
244.195	0.135	488390	keystroke	i	n/a
244.284	0.076	488568	keystroke	f	n/a
244.51	0.06	489020	keystroke	t	n/a
245.214	0.165	490428	keystroke	Key.space	n/a
245.514	0.12	491028	keystroke	z	n/a
245.83	0.105	491660	keystroke	a	n/a
246.025	0.134	492050	keystroke	m	n/a
246.28	0.105	492560	keystroke	b	n/a
246.43	0.09	492860	keystroke	i	n/a
246.61	0.105	493220	keystroke	a	n/a
247.134	0.105	494268	keystroke	Key.space	n/a
247.555	0.09	495110	keystroke	b	n/a
247.839	0.046	495678	keystroke	r	n/a
247.9	0.09	495800	keystroke	i	n/a
248.11	0.105	496220	keystroke	e	n/a
248.395	0.12	496790	keystroke	f	n/a
248.695	0.18	497390	keystroke	i	n/a
248.8	0.165	497600	keystroke	n	n/a
248.92	0.075	497840	keystroke	g	n/a
249.594	0.105	499188	keystroke	Key.enter	n/a
249.71	7.116	499420	prompt	n/a	soil attorneys south secrets\n
250.555	0.09	501110	keystroke	s	n/a
250.719	0.076	501438	keystroke	o	n/a
250.93	0.045	501860	keystroke	i	n/a
251.14	0.105	502280	keystroke	l	n/a
251.245	0.149	502490	keystroke	Key.space	n/a
251.38	0.09	502760	keystroke	a	n/a
251.59	0.075	503180	keystroke	t	n/a
251.8	0.075	503600	keystroke	t	n/a
252.085	0.075	504170	keystroke	o	n/a
252.34	0.03	504680	keystroke	r	n/a
252.67	0.15	505340	keystroke	n	n/a
252.835	0.09	505670	keystroke	e	n/a
253.12	0.105	506240	keystroke	y	n/a
253.42	0.09	506840	keystroke	s	n/a
253.884	0.135	507768	keystroke	Key.space	n/a
254.065	0.09	508130	keystroke	s	n/a
254.185	0.12	508370	keystroke	o	n/a
254.305	0.075	508610	keystroke	u	n/a
254.395	0.075	508790	keystroke	t	n/a
254.5	0.135	509000	keystroke	h	n/a
254.589	0.12	509178	keystroke	Key.space	n/a
254.71	0.09	509420	keystroke	s	n/a
254.92	0.045	509840	keystroke	e	n/a
255.175	0.045	510350	keystroke	c	n/a
255.37	0.12	510740	keystroke	r	n/a
255.505	0.12	511010	keystroke	e	n/a
255.685	0.105	511370	keystroke	t	n/a
255.88	0.09	511760	keystroke	s	n/a
256.705	0.12	513410	keystroke	Key.enter	n/a
256.8305	6.7155	513661	prompt	n/a	knew news threatened join\n
257.53	0.12	515060	keystroke	k	n/a
257.755	0.15	515510	keystroke	n	n/a
257.815	0.165	515630	keystroke	e	n/a
257.95	0.12	515900	keystroke	w	n/a
258.145	0.149	516290	keystroke	Key.space	n/a
258.8345	0.165	517669	keystroke	n	n/a
258.9395	0.165	517879	keystroke	e	n/a
259.0445	0.105	518089	keystroke	w	n/a
259.2695	0.09	518539	keystroke	s	n/a
259.3745	0.12	518749	keystroke	Key.space	n/a
259.6595	0.075	519319	keystroke	t	n/a
259.7645	0.105	519529	keystroke	h	n/a
259.8545	0.12	519709	keystroke	r	n/a
259.9145	0.12	519829	keystroke	e	n/a
260.0345	0.105	520069	keystroke	a	n/a
260.1245	0.09	520249	keystroke	t	n/a
260.1995	0.105	520399	keystroke	e	n/a
260.3495	0.15	520699	keystroke	n	n/a
260.4245	0.06	520849	keystroke	e	n/a
260.6195	0.09	521239	keystroke	d	n/a
261.0245	0.135	522049	keystroke	Key.space	n/a
261.4745	0.12	522949	keystroke	j	n/a
261.6845	0.225	523369	keystroke	o	n/a
261.8045	0.135	523609	keystroke	i	n/a
261.8945	0.15	523789	keystroke	n	n/a
263.4245	0.12	526849	keystroke	Key.enter	n/a
263.55	8.156	527100	prompt	n/a	vessel petition authors savings\n
264.3245	0.075	528649	keystroke	v	n/a
264.4895	0.075	528979	keystroke	e	n/a
264.6845	0.075	529369	keystroke	s	n/a
264.8345	0.09	529669	keystroke	s	n/a
265.0145	0.075	530029	keystroke	e	n/a
265.2245	0.135	530449	keystroke	l	n/a
265.3445	0.12	530689	keystroke	Key.space	n/a
265.7945	0.105	531589	keystroke	p	n/a
266.0495	0.075	532099	keystroke	e	n/a
266.2445	0.09	532489	keystroke	t	n/a
266.3795	0.09	532759	keystroke	i	n/a
266.4845	0.06	532969	keystroke	t	n/a
266.6045	0.135	533209	keystroke	i	n/a
266.7095	0.18	533419	keystroke	o	n/a
266.8445	0.165	533689	keystroke	n	n/a
266.9795	0.105	533959	keystroke	s	n/a
267.6395	0.09	535279	keystroke	Key.backspace	n/a
268.1495	0.15	536299	keystroke	Key.space	n/a
268.2845	0.105	536569	keystroke	a	n/a
268.4195	0.09	536839	keystroke	u	n/a
268.5395	0.075	537079	keystroke	t	n/a
268.6295	0.135	537259	keystroke	h	n/a
268.7195	0.105	537439	keystroke	o	n/a
268.8695	0.06	537739	keystroke	r	n/a
269.1245	0.075	538249	keystroke	s	n/a
269.2595	0.135	538519	keystroke	Key.space	n/a
269.6795	0.09	539359	keystroke	s	n/a
269.8895	0.09	539779	keystroke	a	n/a
270.0395	0.105	540079	keystroke	v	n/a
270.2045	0.195	540409	keystroke	i	n/a
270.3245	0.15	540649	keystroke	n	n/a
270.4445	0.12	540889	keystroke	g	n/a
270.5345	0.105	541069	keystroke	s	n/a
271.5545	0.15	543109	keystroke	Key.enter	n/a
271.7105	7.4805	543421	prompt	n/a	viral peripheral matthew charlie\n
272.5595	0.075	545119	keystroke	v	n/a
272.6645	0.105	545329	keystroke	i	n/a
272.7545	0.165	545509	keystroke	r	n/a
272.8895	0.135	545779	keystroke	a	n/a
272.9945	0.105	545989	keystroke	l	n/a
273.1145	0.105	546229	keystroke	Key.space	n/a
273.2795	0.105	546559	keystroke	p	n/a
273.4145	0.12	546829	keystroke	e	n/a
273.4895	0.09	546979	keystroke	r	n/a
273.6245	0.09	547249	keystroke	i	n/a
273.8645	0.105	547729	keystroke	p	n/a
274.0445	0.15	548089	keystroke	h	n/a
274.1495	0.225	548299	keystroke	e	n/a
274.2245	0.21	548449	keystroke	r	n/a
274.3595	0.135	548719	keystroke	a	n/a
274.4645	0.135	548929	keystroke	l	n/a
274.5845	0.165	549169	keystroke	Key.space	n/a
275.514	0.12	551028	keystroke	m	n/a
275.619	0.15	551238	keystroke	a	n/a
275.739	0.045	551478	keystroke	t	n/a
275.889	0.09	551778	keystroke	t	n/a
276.129	0.135	552258	keystroke	h	n/a
276.339	0.135	552678	keystroke	e	n/a
276.594	0.09	553188	keystroke	w	n/a
276.759	0.105	553518	keystroke	Key.space	n/a
277.044	0.12	554088	keystroke	h	n/a
277.089	0.09	554178	keystroke	c	n/a
277.524	0.06	555048	keystroke	Key.backspace	n/a
277.674	0.09	555348	keystroke	Key.backspace	n/a
277.749	0.12	555498	keystroke	c	n/a
277.929	0.105	555858	keystroke	h	n/a
278.035	0.134	556070	keystroke	a	n/a
278.109	0.105	556218	keystroke	r	n/a
278.229	0.21	556458	keystroke	l	n/a
278.334	0.135	556668	keystroke	i	n/a
278.394	0.09	556788	keystroke	e	n/a
279.099	0.09	558198	keystroke	Key.enter	n/a
279.196	8.7705	558392	prompt	n/a	coordinates count acknowledge labor\n
279.894	0.09	559788	keystroke	c	n/a
280.044	0.075	560088	keystroke	o	n/a
280.224	0.105	560448	keystroke	o	n/a
280.569	0.075	561138	keystroke	r	n/a
280.749	0.105	561498	keystroke	d	n/a
280.884	0.15	561768	keystroke	i	n/a
280.989	0.15	561978	keystroke	n	n/a
281.094	0.135	562188	keystroke	a	n/a
281.154	0.225	562308	keystroke	t	n/a
281.259	0.195	562518	keystroke	e	n/a
281.394	0.105	562788	keystroke	s	n/a
282.054	0.135	564108	keystroke	Key.space	n/a
282.219	0.09	564438	keystroke	c	n/a
282.324	0.15	564648	keystroke	o	n/a
282.429	0.075	564858	keystroke	u	n/a
282.639	0.15	565278	keystroke	n	n/a
282.729	0.075	565458	keystroke	t	n/a
282.849	0.12	565698	keystroke	Key.space	n/a
282.984	0.105	565968	keystroke	a	n/a
283.299	0.09	566598	keystroke	c	n/a
283.749	0.09	567498	keystroke	k	n/a
284.079	0.105	568158	keystroke	n	n/a
284.334	0.09	568668	keystroke	o	n/a
285.399	0.09	570798	keystroke	w	n/a
285.594	0.09	571188	keystroke	l	n/a
285.774	0.015	571548	keystroke	e	n/a
285.909	0.09	571818	keystroke	d	n/a
286.074	0.12	572148	keystroke	g	n/a
286.134	0.12	572268	keystroke	e	n/a
286.644	0.165	573288	keystroke	Key.space	n/a
286.779	0.105	573558	keystroke	l	n/a
286.899	0.09	573798	keystroke	a	n/a
287.064	0.105	574128	keystroke	b	n/a
287.184	0.09	574368	keystroke	o	n/a
287.364	0.06	574728	keystroke	r	n/a
287.844	0.12	575688	keystroke	Key.enter	n/a
287.971	8.021	575942	prompt	n/a	transit interactive casa so're\n
288.894	0.075	577788	keystroke	t	n/a
289.074	0.15	578148	keystroke	r	n/a
289.179	0.12	578358	keystroke	a	n/a
289.254	0.12	578508	keystroke	n	n/a
289.419	0.09	578838	keystroke	s	n/a
289.554	0.105	579108	keystroke	i	n/a
289.674	0.075	579348	keystroke	t	n/a
289.794	0.135	579588	keystroke	Key.space	n/a
290.574	0.135	581148	keystroke	i	n/a
290.649	0.165	581298	keystroke	n	n/a
290.769	0.105	581538	keystroke	t	n/a
290.904	0.135	581808	keystroke	e	n/a
291.009	0.12	582018	keystroke	r	n/a
291.189	0.09	582378	keystroke	a	n/a
291.339	0.075	582678	keystroke	c	n/a
291.534	0.075	583068	keystroke	t	n/a
291.639	0.105	583278	keystroke	i	n/a
291.759	0.135	583518	keystroke	v	n/a
291.879	0.045	583758	keystroke	e	n/a
291.954	0.15	583908	keystroke	Key.space	n/a
292.824	0.06	585648	keystroke	c	n/a
293.004	0.15	586008	keystroke	a	n/a
293.109	0.135	586218	keystroke	s	n/a
293.409	0.12	586818	keystroke	a	n/a
293.649	0.105	587298	keystroke	Key.space	n/a
293.994	0.075	587988	keystroke	s	n/a
294.204	0.09	588408	keystroke	o	n/a
294.504	0.12	589008	keystroke	'	n/a
294.654	0.15	589308	keystroke	r	n/a
294.744	0.105	589488	keystroke	e	n/a
295.869	0.12	591738	keystroke	Key.enter	n/a
295.996	10.1045	591992	prompt	n/a	norfolk specifics utils ivory\n
297.054	0.105	594108	keystroke	n	n/a
297.309	0.075	594618	keystroke	o	n/a
297.909	0.09	595818	keystroke	r	n/a
298.194	0.105	596388	keystroke	f	n/a
298.314	0.075	596628	keystroke	o	n/a
298.524	0.18	597048	keystroke	l	n/a
298.674	0.135	597348	keystroke	k	n/a
299.229	0.12	598458	keystroke	Key.space	n/a
299.409	0.09	598818	keystroke	s	n/a
299.514	0.105	599028	keystroke	p	n/a
299.604	0.06	599208	keystroke	e	n/a
299.799	0.075	599598	keystroke	c	n/a
300.354	0.075	600708	keystroke	i	n/a
300.519	0.06	601038	keystroke	f	n/a
300.624	0.09	601248	keystroke	i	n/a
300.759	0.09	601518	keystroke	c	n/a
300.984	0.06	601968	keystroke	s	n/a
301.644	0.15	603288	keystroke	Key.space	n/a
302.274	0.105	604548	keystroke	u	n/a
302.649	0.105	605298	keystroke	t	n/a
302.769	0.15	605538	keystroke	i	n/a
302.904	0.135	605808	keystroke	l	n/a
303.069	0.075	606138	keystroke	s	n/a
303.519	0.105	607038	keystroke	Key.space	n/a
303.849	0.135	607698	keystroke	i	n/a
304.104	0.09	608208	keystroke	v	n/a
304.209	0.105	608418	keystroke	o	n/a
304.404	0.075	608808	keystroke	r	n/a
304.524	0.15	609048	keystroke	y	n/a
305.979	0.12	611958	keystroke	Key.enter	n/a
306.105	9.9405	612210	prompt	n/a	emperor prospective sitemap photoshop\n
306.909	0.09	613818	keystroke	e	n/a
307.029	0.195	614058	keystroke	m	n/a
307.194	0.135	614388	keystroke	p	n/a
307.284	0.15	614568	keystroke	e	n/a
307.374	0.09	614748	keystroke	r	n/a
307.509	0.12	615018	keystroke	o	n/a
307.674	0.09	615348	keystroke	r	n/a
307.809	0.135	615618	keystroke	Key.space	n/a
308.469	0.105	616938	keystroke	p	n/a
308.724	0.09	617448	keystroke	r	n/a
308.859	0.075	617718	keystroke	o	n/a
309.474	0.105	618948	keystroke	s	n/a
309.564	0.105	619128	keystroke	p	n/a
309.699	0.075	619398	keystroke	e	n/a
309.954	0.06	619908	keystroke	c	n/a
310.149	0.075	620298	keystroke	t	n/a
310.269	0.105	620538	keystroke	i	n/a
310.375	0.134	620750	keystroke	v	n/a
310.464	0.105	620928	keystroke	e	n/a
310.614	0.105	621228	keystroke	Key.space	n/a
311.334	0.105	622668	keystroke	s	n/a
311.469	0.09	622938	keystroke	i	n/a
311.724	0.105	623448	keystroke	t	n/a
311.964	0.075	623928	keystroke	e	n/a
312.249	0.12	624498	keystroke	m	n/a
312.474	0.09	624948	keystroke	a	n/a
312.609	0.09	625218	keystroke	p	n/a
313.314	0.1195	626628	keystroke	Key.space	n/a
313.5685	0.105	627137	keystroke	p	n/a
313.7185	0.165	627437	keystroke	h	n/a
313.8385	0.135	627677	keystroke	o	n/a
314.0335	0.09	628067	keystroke	t	n/a
314.1985	0.12	628397	keystroke	o	n/a
314.6785	0.075	629357	keystroke	s	n/a
314.8585	0.15	629717	keystroke	h	n/a
314.9785	0.09	629957	keystroke	o	n/a
315.2035	0.105	630407	keystroke	p	n/a
315.9535	0.09	631907	keystroke	Key.enter	n/a
316.05	6.641	632100	prompt	n/a	picture behavioral praise beth\n
316.8085	0.09	633617	keystroke	p	n/a
316.9135	0.12	633827	keystroke	i	n/a
316.9585	0.12	633917	keystroke	c	n/a
317.1985	0.06	634397	keystroke	t	n/a
317.3185	0.12	634637	keystroke	u	n/a
317.3935	0.12	634787	keystroke	r	n/a
317.4835	0.075	634967	keystroke	e	n/a
317.5885	0.135	635177	keystroke	Key.space	n/a
317.8885	0.09	635777	keystroke	b	n/a
318.1135	0.061	636227	keystroke	e	n/a
318.2935	0.12	636587	keystroke	h	n/a
318.3535	0.105	636707	keystroke	a	n/a
318.4885	0.12	636977	keystroke	v	n/a
318.6235	0.195	637247	keystroke	i	n/a
318.7585	0.165	637517	keystroke	o	n/a
319.0735	0.165	638147	keystroke	r	n/a
319.2085	0.135	638417	keystroke	a	n/a
319.3285	0.135	638657	keystroke	l	n/a
319.8985	0.15	639797	keystroke	Key.space	n/a
320.1835	0.105	640367	keystroke	p	n/a
320.2735	0.12	640547	keystroke	r	n/a
320.3785	0.09	640757	keystroke	a	n/a
320.4695	0.104	640939	keystroke	i	n/a
320.5885	0.135	641177	keystroke	s	n/a
320.7085	0.09	641417	keystroke	e	n/a
320.8435	0.135	641687	keystroke	Key.space	n/a
321.2185	0.06	642437	keystroke	b	n/a
321.3985	0.09	642797	keystroke	e	n/a
321.5635	0.105	643127	keystroke	t	n/a
321.6385	0.12	643277	keystroke	h	n/a
322.5385	0.15	645077	keystroke	Key.enter	n/a
322.695	12.926	645390	prompt	n/a	previously championship apparatus volvo\n
326.9675	0.056	653935	keystroke	p	n/a
326.9785	0.12	653957	keystroke	r	n/a
327.0835	0.06	654167	keystroke	e	n/a
327.2945	0.074	654589	keystroke	v	n/a
327.3535	0.315	654707	keystroke	i	n/a
327.4435	0.24	654887	keystroke	o	n/a
327.6395	0.074	655279	keystroke	s	n/a
328.2085	0.075	656417	keystroke	Key.backspace	n/a
328.4485	0.121	656897	keystroke	u	n/a
328.5235	0.105	657047	keystroke	s	n/a
328.6885	0.226	657377	keystroke	l	n/a
328.8235	0.166	657647	keystroke	y	n/a
328.9285	0.135	657857	keystroke	Key.space	n/a
329.4235	0.061	658847	keystroke	c	n/a
329.4985	0.09	658997	keystroke	h	n/a
329.6035	0.09	659207	keystroke	a	n/a
329.7695	0.164	659539	keystroke	m	n/a
329.8895	0.119	659779	keystroke	p	n/a
330.1145	0.105	660229	keystroke	i	n/a
330.2335	0.135	660467	keystroke	o	n/a
330.3235	0.121	660647	keystroke	n	n/a
330.4895	0.09	660979	keystroke	s	n/a
330.6385	0.106	661277	keystroke	h	n/a
330.6535	0.18	661307	keystroke	i	n/a
330.9535	0.136	661907	keystroke	p	n/a
331.5985	0.105	663197	keystroke	Key.space	n/a
331.7495	0.119	663499	keystroke	a	n/a
331.8835	0.061	663767	keystroke	p	n/a
332.0195	0.105	664039	keystroke	p	n/a
332.1395	0.12	664279	keystroke	a	n/a
332.2295	0.09	664459	keystroke	r	n/a
332.9945	0.09	665989	keystroke	a	n/a
333.1745	0.105	666349	keystroke	t	n/a
333.3095	0.12	666619	keystroke	u	n/a
333.4445	0.09	666889	keystroke	s	n/a
334.0285	0.12	668057	keystroke	Key.space	n/a
334.2695	0.089	668539	keystroke	v	n/a
334.3595	0.075	668719	keystroke	o	n/a
334.5695	0.09	669139	keystroke	l	n/a
334.6895	0.089	669379	keystroke	v	n/a
334.8235	0.106	669647	keystroke	o	n/a
335.4985	0.121	670997	keystroke	Key.enter	n/a
335.6255	7.465	671251	prompt	n/a	restored importantly monica fighter\n
336.624	0.1205	673248	keystroke	r	n/a
336.729	0.1205	673458	keystroke	e	n/a
336.9245	0.09	673849	keystroke	s	n/a
336.9545	0.09	673909	keystroke	t	n/a
337.119	0.09	674238	keystroke	o	n/a
337.194	0.12	674388	keystroke	r	n/a
337.404	0.09	674808	keystroke	e	n/a
337.614	0.105	675228	keystroke	d	n/a
337.748	0.09	675496	keystroke	Key.space	n/a
338.229	0.255	676458	keystroke	i	n/a
338.3645	0.2395	676729	keystroke	m	n/a
338.544	0.15	677088	keystroke	p	n/a
338.679	0.12	677358	keystroke	o	n/a
338.784	0.045	677568	keystroke	r	n/a
338.994	0.075	677988	keystroke	t	n/a
339.084	0.09	678168	keystroke	a	n/a
339.219	0.105	678438	keystroke	n	n/a
339.294	0.12	678588	keystroke	t	n/a
339.459	0.21	678918	keystroke	l	n/a
339.594	0.135	679188	keystroke	y	n/a
339.683	0.15	679366	keystroke	Key.space	n/a
340.224	0.105	680448	keystroke	m	n/a
340.464	0.105	680928	keystroke	o	n/a
340.539	0.18	681078	keystroke	n	n/a
340.689	0.12	681378	keystroke	i	n/a
340.749	0.09	681498	keystroke	c	n/a
340.989	0.09	681978	keystroke	a	n/a
341.139	0.134	682278	keystroke	Key.space	n/a
341.439	0.06	682878	keystroke	f	n/a
341.529	0.12	683058	keystroke	i	n/a
341.664	0.06	683328	keystroke	g	n/a
341.814	0.135	683628	keystroke	h	n/a
341.889	0.075	683778	keystroke	t	n/a
342.039	0.15	684078	keystroke	e	n/a
342.144	0.105	684288	keystroke	r	n/a
342.939	0.149	685878	keystroke	Key.enter	n/a
343.098	13.7325	686196	prompt	n/a	membrane jewellery columns meal\n
343.929	0.075	687858	keystroke	m	n/a
344.034	0.105	688068	keystroke	e	n/a
344.124	0.135	688248	keystroke	m	n/a
344.304	0.075	688608	keystroke	b	n/a
344.529	0.15	689058	keystroke	r	n/a
344.634	0.075	689268	keystroke	a	n/a
344.724	0.135	689448	keystroke	n	n/a
344.844	0.075	689688	keystroke	e	n/a
344.979	0.165	689958	keystroke	Key.space	n/a
345.699	0.135	691398	keystroke	j	n/a
345.894	0.105	691788	keystroke	e	n/a
346.479	0.12	692958	keystroke	w	n/a
346.719	0.105	693438	keystroke	e	n/a
347.139	0.075	694278	keystroke	l	n/a
347.304	0.105	694608	keystroke	l	n/a
347.769	0.105	695538	keystroke	r	n/a
347.904	0.105	695808	keystroke	y	n/a
349.989	0.06	699978	keystroke	Key.backspace	n/a
350.139	0.075	700278	keystroke	Key.backspace	n/a
351.279	0.105	702558	keystroke	e	n/a
351.489	0.075	702978	keystroke	r	n/a
351.609	0.12	703218	keystroke	y	n/a
352.089	0.15	704178	keystroke	Key.space	n/a
352.374	0.12	704748	keystroke	c	n/a
352.509	0.06	705018	keystroke	o	n/a
352.719	0.12	705438	keystroke	l	n/a
352.884	0.105	705768	keystroke	u	n/a
353.109	0.075	706218	keystroke	m	n/a
353.319	0.105	706638	keystroke	n	n/a
353.649	0.075	707298	keystroke	s	n/a
354.129	0.135	708258	keystroke	Key.space	n/a
354.339	0.135	708678	keystroke	m	n/a
354.624	0.105	709248	keystroke	e	n/a
354.789	0.12	709578	keystroke	a	n/a
354.879	0.105	709758	keystroke	l	n/a
356.694	0.135	713388	keystroke	Key.enter	n/a
356.8345	8.531	713669	prompt	n/a	pregnant modes watched campaign\n
357.564	0.105	715128	keystroke	p	n/a
357.654	0.12	715308	keystroke	r	n/a
357.774	0.075	715548	keystroke	e	n/a
357.969	0.075	715938	keystroke	g	n/a
358.089	0.12	716178	keystroke	n	n/a
358.224	0.09	716448	keystroke	a	n/a
358.299	0.12	716598	keystroke	n	n/a
358.449	0.075	716898	keystroke	t	n/a
358.599	0.12	717198	keystroke	Key.space	n/a
358.824	0.15	717648	keystroke	m	n/a
358.944	0.09	717888	keystroke	o	n/a
359.049	0.06	718098	keystroke	d	n/a
359.229	0.15	718458	keystroke	e	n/a
359.319	0.135	718638	keystroke	s	n/a
360.069	0.135	720138	keystroke	Key.space	n/a
360.294	0.09	720588	keystroke	w	n/a
360.489	0.135	720978	keystroke	a	n/a
360.549	0.09	721098	keystroke	t	n/a
360.759	0.09	721518	keystroke	c	n/a
360.879	0.135	721758	keystroke	h	n/a
360.999	0.075	721998	keystroke	e	n/a
362.409	0.075	724818	keystroke	d	n/a
362.499	0.135	724998	keystroke	Key.space	n/a
363.024	0.06	726048	keystroke	c	n/a
363.234	0.075	726468	keystroke	a	n/a
363.354	0.21	726708	keystroke	m	n/a
363.549	0.12	727098	keystroke	p	n/a
363.714	0.105	727428	keystroke	a	n/a
363.939	0.075	727878	keystroke	i	n/a
364.239	0.06	728478	keystroke	g	n/a
364.299	0.135	728598	keystroke	n	n/a
365.259	0.105	730518	keystroke	Key.enter	n/a
365.37	7.5105	730740	prompt	n/a	canadian asin sources loops\n
366.114	0.06	732228	keystroke	c	n/a
366.264	0.075	732528	keystroke	a	n/a
366.354	0.135	732708	keystroke	n	n/a
366.474	0.09	732948	keystroke	a	n/a
366.669	0.075	733338	keystroke	d	n/a
366.759	0.09	733518	keystroke	i	n/a
366.894	0.09	733788	keystroke	a	n/a
366.999	0.18	733998	keystroke	n	n/a
367.134	0.135	734268	keystroke	Key.space	n/a
367.629	0.105	735258	keystroke	a	n/a
368.004	0.06	736008	keystroke	s	n/a
368.139	0.075	736278	keystroke	i	n/a
368.379	0.195	736758	keystroke	n	n/a
368.829	0.105	737658	keystroke	Key.space	n/a
369.129	0.09	738258	keystroke	s	n/a
369.204	0.09	738408	keystroke	o	n/a
369.384	0.12	738768	keystroke	u	n/a
369.444	0.075	738888	keystroke	r	n/a
369.669	0.09	739338	keystroke	c	n/a
369.879	0.12	739758	keystroke	e	n/a
369.954	0.12	739908	keystroke	s	n/a
370.044	0.12	740088	keystroke	Key.space	n/a
370.224	0.09	740448	keystroke	l	n/a
370.509	0.045	741018	keystroke	o	n/a
370.659	0.06	741318	keystroke	o	n/a
370.824	0.09	741648	keystroke	p	n/a
370.929	0.09	741858	keystroke	s	n/a
372.744	0.135	745488	keystroke	Key.enter	n/a
372.8855	12.7755	745771	prompt	n/a	backup occasional promoted medline\n
373.6585	0.075	747317	keystroke	b	n/a
373.8385	0.075	747677	keystroke	a	n/a
373.9735	0.105	747947	keystroke	c	n/a
374.0185	0.1355	748037	keystroke	k	n/a
374.2285	0.165	748457	keystroke	u	n/a
374.3335	0.135	748667	keystroke	p	n/a
374.4835	0.12	748967	keystroke	Key.space	n/a
374.6335	0.09	749267	keystroke	o	n/a
374.8285	0.09	749657	keystroke	c	n/a
374.9935	0.09	749987	keystroke	c	n/a
375.2185	0.105	750437	keystroke	a	n/a
375.264	0.1495	750528	keystroke	s	n/a
375.4585	0.1355	750917	keystroke	i	n/a
375.5635	0.15	751127	keystroke	o	n/a
375.6535	0.15	751307	keystroke	n	n/a
375.7735	0.09	751547	keystroke	a	n/a
375.8785	0.135	751757	keystroke	l	n/a
376.0585	0.15	752117	keystroke	Key.space	n/a
376.7185	0.075	753437	keystroke	p	n/a
376.8085	0.105	753617	keystroke	r	n/a
376.9135	0.09	753827	keystroke	o	n/a
376.9885	0.15	753977	keystroke	m	n/a
377.0935	0.12	754187	keystroke	o	n/a
377.1985	0.135	754397	keystroke	t	n/a
377.3185	0.06	754637	keystroke	e	n/a
377.4835	0.09	754967	keystroke	d	n/a
377.5435	0.12	755087	keystroke	Key.space	n/a
377.6335	0.15	755267	keystroke	m	n/a
377.7385	0.09	755477	keystroke	e	n/a
377.9185	0.075	755837	keystroke	d	n/a
378.0085	0.075	756017	keystroke	i	n/a
378.1135	0.105	756227	keystroke	c	n/a
378.2035	0.135	756407	keystroke	i	n/a
378.2935	0.15	756587	keystroke	n	n/a
378.3685	0.09	756737	keystroke	e	n/a
380.3785	0.075	760757	keystroke	Key.backspace	n/a
380.5435	0.075	761087	keystroke	Key.backspace	n/a
380.9935	0.105	761987	keystroke	Key.backspace	n/a
381.2335	0.105	762467	keystroke	Key.backspace	n/a
381.5935	0.105	763187	keystroke	Key.backspace	n/a
382.7935	0.105	765587	keystroke	l	n/a
383.0185	0.09	766037	keystroke	i	n/a
383.3035	0.105	766607	keystroke	n	n/a
383.3785	0.075	766757	keystroke	e	n/a
385.5705	0.088	771141	keystroke	Key.enter	n/a
385.666	6.0545	771332	prompt	n/a	corporation benz ghana cycles\n
386.3785	0.12	772757	keystroke	c	n/a
386.5435	0.105	773087	keystroke	o	n/a
386.8135	0.075	773627	keystroke	r	n/a
386.9335	0.09	773867	keystroke	p	n/a
387.1135	0.09	774227	keystroke	o	n/a
387.2185	0.105	774437	keystroke	r	n/a
387.3835	0.15	774767	keystroke	a	n/a
387.4585	0.105	774917	keystroke	t	n/a
387.5485	0.135	775097	keystroke	i	n/a
387.6385	0.195	775277	keystroke	o	n/a
387.7885	0.195	775577	keystroke	n	n/a
387.9085	0.15	775817	keystroke	Key.space	n/a
388.1485	0.09	776297	keystroke	b	n/a
388.3885	0.09	776777	keystroke	e	n/a
388.4635	0.15	776927	keystroke	n	n/a
388.7185	0.09	777437	keystroke	z	n/a
389.0485	0.135	778097	keystroke	Key.space	n/a
389.3485	0.075	778697	keystroke	g	n/a
389.4835	0.09	778967	keystroke	h	n/a
389.5885	0.09	779177	keystroke	a	n/a
389.7235	0.135	779447	keystroke	n	n/a
389.8135	0.105	779627	keystroke	a	n/a
389.9935	0.135	779987	keystroke	Key.space	n/a
390.3835	0.06	780767	keystroke	c	n/a
390.5185	0.105	781037	keystroke	y	n/a
390.6385	0.075	781277	keystroke	c	n/a
390.7435	0.09	781487	keystroke	l	n/a
390.8485	0.165	781697	keystroke	e	n/a
390.9685	0.12	781937	keystroke	s	n/a
391.5685	0.15	783137	keystroke	Key.enter	n/a
391.725	7.495	783450	prompt	n/a	immigration strips nasty indicate\n
392.5285	0.09	785057	keystroke	i	n/a
392.7685	0.075	785537	keystroke	m	n/a
392.9335	0.15	785867	keystroke	m	n/a
393.0685	0.135	786137	keystroke	i	n/a
393.2335	0.075	786467	keystroke	g	n/a
393.4435	0.15	786887	keystroke	r	n/a
393.5785	0.18	787157	keystroke	a	n/a
393.6835	0.105	787367	keystroke	t	n/a
393.7735	0.135	787547	keystroke	i	n/a
393.8785	0.195	787757	keystroke	o	n/a
394.0285	0.18	788057	keystroke	n	n/a
394.4635	0.135	788927	keystroke	Key.space	n/a
394.9585	0.12	789917	keystroke	s	n/a
395.1235	0.06	790247	keystroke	t	n/a
395.2885	0.105	790577	keystroke	r	n/a
395.3635	0.225	790727	keystroke	i	n/a
395.8735	0.09	791747	keystroke	p	n/a
396.1735	0.09	792347	keystroke	s	n/a
396.2785	0.105	792557	keystroke	Key.space	n/a
396.7285	0.12	793457	keystroke	n	n/a
396.9085	0.21	793817	keystroke	a	n/a
397.028	0.165	794056	keystroke	s	n/a
397.133	0.1505	794266	keystroke	t	n/a
397.2685	0.09	794537	keystroke	y	n/a
397.3435	0.12	794687	keystroke	Key.space	n/a
397.4785	0.165	794957	keystroke	i	n/a
397.5985	0.12	795197	keystroke	n	n/a
397.6735	0.075	795347	keystroke	d	n/a
397.7635	0.12	795527	keystroke	i	n/a
397.8845	0.0885	795769	keystroke	c	n/a
398.048	0.135	796096	keystroke	a	n/a
398.123	0.165	796246	keystroke	t	n/a
398.228	0.12	796456	keystroke	e	n/a
399.113	0.105	798226	keystroke	Key.enter	n/a
399.2245	8.2315	798449	prompt	n/a	tsunami outdoor attitudes tony\n
400.223	0.09	800446	keystroke	t	n/a
400.523	0.09	801046	keystroke	s	n/a
400.793	0.105	801586	keystroke	u	n/a
401.064	0.089	802128	keystroke	n	n/a
401.243	0.09	802486	keystroke	a	n/a
401.648	0.12	803296	keystroke	m	n/a
401.933	0.105	803866	keystroke	i	n/a
402.323	0.12	804646	keystroke	Key.space	n/a
402.608	0.165	805216	keystroke	o	n/a
402.743	0.12	805486	keystroke	u	n/a
403.163	0.075	806326	keystroke	t	n/a
403.358	0.105	806716	keystroke	d	n/a
403.478	0.075	806956	keystroke	o	n/a
403.628	0.121	807256	keystroke	o	n/a
403.763	0.09	807526	keystroke	r	n/a
404.003	0.105	808006	keystroke	Key.space	n/a
404.438	0.105	808876	keystroke	a	n/a
404.634	0.074	809268	keystroke	t	n/a
404.784	0.104	809568	keystroke	t	n/a
404.918	0.12	809836	keystroke	i	n/a
405.053	0.075	810106	keystroke	t	n/a
405.188	0.135	810376	keystroke	u	n/a
405.278	0.06	810556	keystroke	d	n/a
405.443	0.12	810886	keystroke	e	n/a
405.503	0.12	811006	keystroke	s	n/a
406.043	0.105	812086	keystroke	Key.space	n/a
406.193	0.09	812386	keystroke	t	n/a
406.298	0.105	812596	keystroke	o	n/a
406.388	0.12	812776	keystroke	n	n/a
406.689	0.089	813378	keystroke	y	n/a
407.348	0.105	814696	keystroke	Key.enter	n/a
407.4725	10.9025	814945	prompt	n/a	who'd've why're reviewer beverage\n
408.518	0.09	817036	keystroke	w	n/a
408.609	0.134	817218	keystroke	h	n/a
408.728	0.09	817456	keystroke	o	n/a
409.253	0.105	818506	keystroke	'	n/a
409.359	0.06	818718	keystroke	d	n/a
410.018	0.12	820036	keystroke	'	n/a
410.273	0.105	820546	keystroke	v	n/a
410.423	0.09	820846	keystroke	e	n/a
410.708	0.105	821416	keystroke	Key.space	n/a
411.218	0.075	822436	keystroke	w	n/a
411.324	0.104	822648	keystroke	h	n/a
411.593	0.06	823186	keystroke	y	n/a
411.668	0.15	823336	keystroke	'	n/a
411.758	0.12	823516	keystroke	r	n/a
411.863	0.075	823726	keystroke	e	n/a
412.344	0.149	824688	keystroke	Key.space	n/a
412.673	0.09	825346	keystroke	r	n/a
412.809	0.075	825618	keystroke	e	n/a
413.243	0.105	826486	keystroke	v	n/a
413.363	0.135	826726	keystroke	i	n/a
413.633	0.12	827266	keystroke	e	n/a
414.309	0.134	828618	keystroke	w	n/a
414.563	0.15	829126	keystroke	e	n/a
414.818	0.075	829636	keystroke	r	n/a
415.508	0.12	831016	keystroke	Key.space	n/a
416.079	0.089	832158	keystroke	b	n/a
416.273	0.09	832546	keystroke	e	n/a
416.453	0.09	832906	keystroke	v	n/a
416.648	0.211	833296	keystroke	e	n/a
416.813	0.121	833626	keystroke	r	n/a
417.068	0.135	834136	keystroke	a	n/a
417.188	0.12	834376	keystroke	g	n/a
417.278	0.09	834556	keystroke	e	n/a
418.238	0.135	836476	keystroke	Key.enter	n/a
418.38	6.9705	836760	prompt	n/a	signal persian alaska why's\n
419.169	0.09	838338	keystroke	s	n/a
419.273	0.105	838546	keystroke	i	n/a
419.364	0.089	838728	keystroke	g	n/a
419.469	0.105	838938	keystroke	n	n/a
419.603	0.106	839206	keystroke	a	n/a
419.693	0.121	839386	keystroke	l	n/a
419.828	0.09	839656	keystroke	Key.space	n/a
420.264	0.089	840528	keystroke	p	n/a
420.339	0.15	840678	keystroke	e	n/a
420.443	0.105	840886	keystroke	r	n/a
420.609	0.105	841218	keystroke	s	n/a
420.743	0.076	841486	keystroke	i	n/a
420.834	0.09	841668	keystroke	a	n/a
420.953	0.181	841906	keystroke	n	n/a
421.073	0.105	842146	keystroke	Key.space	n/a
421.479	0.105	842958	keystroke	a	n/a
421.598	0.105	843196	keystroke	l	n/a
421.689	0.06	843378	keystroke	a	n/a
421.868	0.091	843736	keystroke	s	n/a
422.109	0.105	844218	keystroke	k	n/a
422.319	0.075	844638	keystroke	a	n/a
422.423	0.15	844846	keystroke	Key.space	n/a
422.934	0.089	845868	keystroke	w	n/a
423.039	0.09	846078	keystroke	h	n/a
423.249	0.105	846498	keystroke	y	n/a
423.609	0.105	847218	keystroke	'	n/a
423.699	0.075	847398	keystroke	s	n/a
425.213	0.135	850426	keystroke	Key.enter	n/a
425.3545	8.2155	850709	prompt	n/a	plymouth hearings toolkit optimum\n
426.159	0.075	852318	keystroke	p	n/a
426.339	0.12	852678	keystroke	l	n/a
426.609	0.105	853218	keystroke	y	n/a
426.894	0.09	853788	keystroke	m	n/a
427.044	0.135	854088	keystroke	o	n/a
427.149	0.105	854298	keystroke	u	n/a
427.284	0.09	854568	keystroke	t	n/a
427.404	0.09	854808	keystroke	h	n/a
427.839	0.134	855678	keystroke	Key.space	n/a
428.259	0.15	856518	keystroke	h	n/a
428.349	0.21	856698	keystroke	e	n/a
428.484	0.135	856968	keystroke	a	n/a
428.544	0.12	857088	keystroke	r	n/a
428.649	0.12	857298	keystroke	i	n/a
428.709	0.15	857418	keystroke	n	n/a
428.784	0.15	857568	keystroke	g	n/a
428.874	0.12	857748	keystroke	s	n/a
429.009	0.135	858018	keystroke	Key.space	n/a
429.564	0.09	859128	keystroke	t	n/a
429.744	0.06	859488	keystroke	o	n/a
429.909	0.09	859818	keystroke	o	n/a
430.164	0.075	860328	keystroke	l	n/a
430.374	0.075	860748	keystroke	k	n/a
430.584	0.09	861168	keystroke	i	n/a
430.659	0.06	861318	keystroke	t	n/a
431.079	0.135	862158	keystroke	Key.space	n/a
431.319	0.06	862638	keystroke	o	n/a
431.514	0.09	863028	keystroke	p	n/a
431.724	0.06	863448	keystroke	t	n/a
431.829	0.105	863658	keystroke	i	n/a
432.069	0.12	864138	keystroke	m	n/a
432.324	0.105	864648	keystroke	u	n/a
432.549	0.105	865098	keystroke	m	n/a
433.464	0.105	866928	keystroke	Key.enter	n/a
433.5745	7.661	867149	prompt	n/a	auto extent marathon dimension\n
434.409	0.105	868818	keystroke	a	n/a
434.499	0.12	868998	keystroke	u	n/a
434.649	0.075	869298	keystroke	t	n/a
434.739	0.105	869478	keystroke	o	n/a
434.859	0.12	869718	keystroke	Key.space	n/a
435.114	0.045	870228	keystroke	e	n/a
435.339	0.06	870678	keystroke	x	n/a
435.504	0.075	871008	keystroke	t	n/a
435.669	0.09	871338	keystroke	e	n/a
435.759	0.12	871518	keystroke	n	n/a
435.894	0.12	871788	keystroke	t	n/a
436.029	0.1495	872058	keystroke	Key.space	n/a
436.7785	0.135	873557	keystroke	m	n/a
436.8535	0.135	873707	keystroke	a	n/a
436.9885	0.135	873977	keystroke	r	n/a
437.1235	0.135	874247	keystroke	a	n/a
437.4235	0.075	874847	keystroke	t	n/a
437.5435	0.075	875087	keystroke	h	n/a
437.6935	0.135	875387	keystroke	o	n/a
437.7985	0.18	875597	keystroke	n	n/a
438.2785	0.075	876557	keystroke	Key.space	n/a
438.9385	0.105	877877	keystroke	d	n/a
439.0285	0.09	878057	keystroke	i	n/a
439.2535	0.09	878507	keystroke	m	n/a
439.3885	0.09	878777	keystroke	e	n/a
439.4935	0.12	878987	keystroke	n	n/a
439.6585	0.09	879317	keystroke	s	n/a
439.7335	0.18	879467	keystroke	i	n/a
439.8685	0.15	879737	keystroke	o	n/a
439.9735	0.135	879947	keystroke	n	n/a
441.1735	0.06	882347	keystroke	Key.enter	n/a
441.2425	11.5725	882485	prompt	n/a	problems prix accessibility shouldn't\n
441.9235	0.09	883847	keystroke	p	n/a
442.0285	0.09	884057	keystroke	r	n/a
442.1335	0.12	884267	keystroke	o	n/a
442.3735	0.105	884747	keystroke	b	n/a
442.4635	0.105	884927	keystroke	l	n/a
442.6135	0.09	885227	keystroke	e	n/a
442.7335	0.105	885467	keystroke	m	n/a
442.8235	0.105	885647	keystroke	s	n/a
442.9435	0.135	885887	keystroke	Key.space	n/a
443.6485	0.075	887297	keystroke	p	n/a
443.7385	0.075	887477	keystroke	r	n/a
443.8285	0.09	887657	keystroke	i	n/a
443.9935	0.105	887987	keystroke	x	n/a
444.1435	0.135	888287	keystroke	Key.space	n/a
444.6385	0.09	889277	keystroke	a	n/a
444.8935	0.075	889787	keystroke	c	n/a
445.0735	0.09	890147	keystroke	c	n/a
445.3585	0.09	890717	keystroke	e	n/a
445.6435	0.075	891287	keystroke	s	n/a
445.7935	0.105	891587	keystroke	s	n/a
446.6785	0.045	893357	keystroke	i	n/a
446.8885	0.06	893777	keystroke	b	n/a
447.0535	0.09	894107	keystroke	i	n/a
447.3235	0.105	894647	keystroke	l	n/a
447.5485	0.09	895097	keystroke	i	n/a
447.8035	0.075	895607	keystroke	t	n/a
448.2535	0.135	896507	keystroke	y	n/a
448.8985	0.135	897797	keystroke	Key.space	n/a
449.0935	0.09	898187	keystroke	s	n/a
449.1685	0.09	898337	keystroke	h	n/a
449.2735	0.09	898547	keystroke	o	n/a
449.3785	0.135	898757	keystroke	u	n/a
449.4535	0.135	898907	keystroke	l	n/a
449.5735	0.09	899147	keystroke	d	n/a
450.1585	0.12	900317	keystroke	n	n/a
450.5935	0.12	901187	keystroke	'	n/a
450.6985	0.075	901397	keystroke	t	n/a
452.6635	0.15	905327	keystroke	Key.enter	n/a
452.82	9.865	905640	prompt	n/a	capable engagement side deutschland\n
453.7135	0.075	907427	keystroke	c	n/a
453.9085	0.105	907817	keystroke	a	n/a
454.0735	0.12	908147	keystroke	p	n/a
454.1935	0.075	908387	keystroke	a	n/a
454.4035	0.075	908807	keystroke	b	n/a
454.4935	0.09	908987	keystroke	l	n/a
454.5985	0.09	909197	keystroke	e	n/a
454.7035	0.15	909407	keystroke	Key.space	n/a
455.2585	0.09	910517	keystroke	e	n/a
455.3635	0.12	910727	keystroke	n	n/a
455.4985	0.09	910997	keystroke	g	n/a
455.6485	0.12	911297	keystroke	a	n/a
455.7385	0.09	911477	keystroke	g	n/a
455.9335	0.09	911867	keystroke	e	n/a
456.0535	0.105	912107	keystroke	m	n/a
456.1435	0.09	912287	keystroke	e	n/a
456.2485	0.135	912497	keystroke	n	n/a
456.3535	0.075	912707	keystroke	t	n/a
456.4585	0.15	912917	keystroke	Key.space	n/a
457.2835	0.075	914567	keystroke	s	n/a
457.3885	0.105	914777	keystroke	i	n/a
457.4785	0.06	914957	keystroke	d	n/a
457.6585	0.075	915317	keystroke	e	n/a
457.7485	0.12	915497	keystroke	Key.space	n/a
458.4835	0.06	916967	keystroke	d	n/a
458.6935	0.0745	917387	keystroke	e	n/a
459.128	0.12	918256	keystroke	u	n/a
459.653	0.105	919306	keystroke	t	n/a
460.013	0.09	920026	keystroke	s	n/a
461.018	0.105	922036	keystroke	c	n/a
461.153	0.09	922306	keystroke	h	n/a
461.528	0.105	923056	keystroke	l	n/a
461.648	0.075	923296	keystroke	a	n/a
461.738	0.12	923476	keystroke	n	n/a
461.828	0.09	923656	keystroke	d	n/a
462.578	0.105	925156	keystroke	Key.enter	n/a
462.689	9.7005	925378	prompt	n/a	olympic surface trace enemy\n
463.718	0.06	927436	keystroke	o	n/a
463.913	0.135	927826	keystroke	l	n/a
464.078	0.03	928156	keystroke	l	n/a
464.093	0.06	928186	keystroke	y	n/a
464.333	0.135	928666	keystroke	m	n/a
464.408	0.135	928816	keystroke	p	n/a
464.888	0.09	929776	keystroke	Key.backspace	n/a
465.128	0.06	930256	keystroke	Key.backspace	n/a
465.308	0.06	930616	keystroke	Key.backspace	n/a
465.488	0.075	930976	keystroke	Key.backspace	n/a
466.193	0.09	932386	keystroke	y	n/a
466.448	0.165	932896	keystroke	m	n/a
466.538	0.105	933076	keystroke	p	n/a
466.688	0.075	933376	keystroke	i	n/a
466.748	0.105	933496	keystroke	c	n/a
467.258	0.135	934516	keystroke	Key.space	n/a
467.558	0.12	935116	keystroke	s	n/a
467.768	0.135	935536	keystroke	u	n/a
468.128	0.075	936256	keystroke	r	n/a
468.368	0.12	936736	keystroke	f	n/a
468.548	0.09	937096	keystroke	a	n/a
468.743	0.045	937486	keystroke	c	n/a
468.938	0.06	937876	keystroke	e	n/a
469.103	0.15	938206	keystroke	Key.space	n/a
469.733	0.075	939466	keystroke	t	n/a
469.913	0.12	939826	keystroke	r	n/a
469.988	0.105	939976	keystroke	a	n/a
470.153	0.075	940306	keystroke	c	n/a
470.348	0.09	940696	keystroke	e	n/a
470.453	0.105	940906	keystroke	Key.space	n/a
470.543	0.09	941086	keystroke	e	n/a
470.648	0.12	941296	keystroke	n	n/a
470.783	0.075	941566	keystroke	e	n/a
470.903	0.09	941806	keystroke	m	n/a
471.203	0.105	942406	keystroke	y	n/a
472.268	0.12	944536	keystroke	Key.enter	n/a
472.3945	5.95	944789	prompt	n/a	are let's durable browsers\n
473.198	0.12	946396	keystroke	a	n/a
473.303	0.12	946606	keystroke	r	n/a
473.363	0.105	946726	keystroke	e	n/a
473.438	0.15	946876	keystroke	Key.space	n/a
473.543	0.12	947086	keystroke	l	n/a
473.648	0.135	947296	keystroke	e	n/a
473.723	0.105	947446	keystroke	t	n/a
473.858	0.135	947716	keystroke	'	n/a
473.978	0.09	947956	keystroke	s	n/a
474.083	0.135	948166	keystroke	Key.space	n/a
474.518	0.09	949036	keystroke	d	n/a
474.653	0.15	949306	keystroke	u	n/a
474.743	0.105	949486	keystroke	r	n/a
474.863	0.105	949726	keystroke	a	n/a
475.013	0.105	950026	keystroke	b	n/a
475.133	0.105	950266	keystroke	l	n/a
475.253	0.09	950506	keystroke	e	n/a
475.373	0.135	950746	keystroke	Key.space	n/a
475.703	0.09	951406	keystroke	b	n/a
475.943	0.09	951886	keystroke	r	n/a
476.063	0.105	952126	keystroke	o	n/a
476.228	0.06	952456	keystroke	w	n/a
476.5275	0.09	953055	keystroke	s	n/a
476.7675	0.165	953535	keystroke	e	n/a
476.8425	0.1655	953685	keystroke	r	n/a
477.2625	0.135	954525	keystroke	s	n/a
478.2225	0.12	956445	keystroke	Key.enter	n/a
478.349	5.5005	956698	prompt	n/a	justice shortly madonna soul\n
478.9725	0.075	957945	keystroke	j	n/a
479.1825	0.135	958365	keystroke	u	n/a
479.3025	0.135	958605	keystroke	s	n/a
479.3775	0.09	958755	keystroke	t	n/a
479.4825	0.09	958965	keystroke	i	n/a
479.6025	0.09	959205	keystroke	c	n/a
479.8275	0.09	959655	keystroke	e	n/a
479.9475	0.12	959895	keystroke	Key.space	n/a
480.0825	0.105	960165	keystroke	s	n/a
480.1725	0.135	960345	keystroke	h	n/a
480.2775	0.12	960555	keystroke	o	n/a
480.3675	0.075	960735	keystroke	r	n/a
480.5475	0.075	961095	keystroke	t	n/a
480.6375	0.21	961275	keystroke	l	n/a
480.7875	0.12	961575	keystroke	y	n/a
480.8625	0.12	961725	keystroke	Key.space	n/a
481.3425	0.12	962685	keystroke	m	n/a
481.4325	0.06	962865	keystroke	a	n/a
481.5825	0.09	963165	keystroke	d	n/a
481.6875	0.075	963375	keystroke	o	n/a
481.8825	0.075	963765	keystroke	n	n/a
482.0325	0.12	964065	keystroke	n	n/a
482.1825	0.105	964365	keystroke	a	n/a
482.3325	0.15	964665	keystroke	Key.space	n/a
482.5275	0.06	965055	keystroke	s	n/a
482.6175	0.12	965235	keystroke	o	n/a
482.7225	0.105	965445	keystroke	u	n/a
482.8725	0.105	965745	keystroke	l	n/a
483.7275	0.12	967455	keystroke	Key.enter	n/a
483.854	10.2555	967708	prompt	n/a	sons could've papua memorabilia\n
484.5835	0.074	969167	keystroke	s	n/a
484.6875	0.135	969375	keystroke	o	n/a
484.7775	0.15	969555	keystroke	n	n/a
484.8825	0.105	969765	keystroke	s	n/a
485.0325	0.135	970065	keystroke	Key.space	n/a
485.1825	0.09	970365	keystroke	c	n/a
485.2735	0.074	970547	keystroke	o	n/a
485.3625	0.12	970725	keystroke	u	n/a
485.4375	0.135	970875	keystroke	l	n/a
485.5575	0.06	971115	keystroke	d	n/a
485.6775	0.12	971355	keystroke	'	n/a
485.7675	0.12	971535	keystroke	v	n/a
485.8275	0.09	971655	keystroke	e	n/a
485.9325	0.135	971865	keystroke	Key.space	n/a
486.9525	0.105	973905	keystroke	p	n/a
487.1175	0.105	974235	keystroke	a	n/a
487.2975	0.105	974595	keystroke	p	n/a
487.5375	0.105	975075	keystroke	u	n/a
487.6875	0.09	975375	keystroke	a	n/a
488.3475	0.1195	976695	keystroke	Key.space	n/a
488.542	0.105	977084	keystroke	m	n/a
488.6625	0.0595	977325	keystroke	e	n/a
488.767	0.12	977534	keystroke	m	n/a
489.247	0.09	978494	keystroke	o	n/a
489.682	0.105	979364	keystroke	r	n/a
490.208	0.149	980416	keystroke	a	n/a
490.508	0.104	981016	keystroke	b	n/a
490.852	0.09	981704	keystroke	i	n/a
491.107	0.09	982214	keystroke	l	n/a
491.302	0.105	982604	keystroke	i	n/a
491.437	0.09	982874	keystroke	a	n/a
494.066	0.041	988132	keystroke	Key.enter	n/a
494.126	6.568	988252	prompt	n/a	sent julie my toyota\n
495.143	0.074	990286	keystroke	s	n/a
495.307	0.09	990614	keystroke	e	n/a
495.352	0.18	990704	keystroke	n	n/a
495.487	0.105	990974	keystroke	t	n/a
495.593	0.119	991186	keystroke	Key.space	n/a
495.863	0.089	991726	keystroke	j	n/a
496.058	0.104	992116	keystroke	u	n/a
496.267	0.15	992534	keystroke	l	n/a
496.372	0.105	992744	keystroke	i	n/a
496.463	0.089	992926	keystroke	e	n/a
496.912	0.12	993824	keystroke	Key.space	n/a
497.092	0.105	994184	keystroke	m	n/a
497.377	0.09	994754	keystroke	y	n/a
497.422	0.135	994844	keystroke	Key.space	n/a
497.602	0.075	995204	keystroke	t	n/a
497.902	0.09	995804	keystroke	o	n/a
498.202	0.06	996404	keystroke	y	n/a
498.353	0.089	996706	keystroke	o	n/a
498.532	0.09	997064	keystroke	t	n/a
498.653	0.134	997306	keystroke	a	n/a
500.587	0.105	1001174	keystroke	Key.enter	n/a
500.6985	5.516	1001397	prompt	n/a	shown floating rely directly\n
501.382	0.135	1002764	keystroke	s	n/a
501.622	0.135	1003244	keystroke	h	n/a
501.742	0.091	1003484	keystroke	o	n/a
501.847	0.09	1003694	keystroke	w	n/a
501.983	0.12	1003966	keystroke	n	n/a
502.072	0.135	1004144	keystroke	Key.space	n/a
502.117	0.105	1004234	keystroke	f	n/a
502.223	0.059	1004446	keystroke	l	n/a
502.403	0.074	1004806	keystroke	o	n/a
502.462	0.166	1004924	keystroke	a	n/a
502.582	0.105	1005164	keystroke	t	n/a
502.702	0.15	1005404	keystroke	i	n/a
502.778	0.239	1005556	keystroke	n	n/a
502.883	0.104	1005766	keystroke	g	n/a
503.002	0.136	1006004	keystroke	Key.space	n/a
503.738	0.12	1007476	keystroke	r	n/a
503.842	0.105	1007684	keystroke	e	n/a
503.993	0.194	1007986	keystroke	l	n/a
504.127	0.136	1008254	keystroke	y	n/a
504.217	0.105	1008434	keystroke	Key.space	n/a
504.487	0.105	1008974	keystroke	d	n/a
504.608	0.105	1009216	keystroke	i	n/a
504.697	0.121	1009394	keystroke	r	n/a
504.788	0.119	1009576	keystroke	e	n/a
505.208	0.075	1010416	keystroke	c	n/a
505.403	0.09	1010806	keystroke	t	n/a
505.493	0.224	1010986	keystroke	l	n/a
505.628	0.105	1011256	keystroke	y	n/a
506.092	0.12	1012184	keystroke	Key.enter	n/a
506.219	5.1555	1012438	prompt	n/a	younger goods died gossip\n
506.873	0.09	1013746	keystroke	y	n/a
506.993	0.12	1013986	keystroke	o	n/a
507.083	0.09	1014166	keystroke	u	n/a
507.293	0.135	1014586	keystroke	n	n/a
507.383	0.075	1014766	keystroke	g	n/a
507.578	0.105	1015156	keystroke	e	n/a
507.623	0.12	1015246	keystroke	r	n/a
507.757	0.15	1015514	keystroke	Key.space	n/a
507.923	0.09	1015846	keystroke	g	n/a
508.073	0.06	1016146	keystroke	o	n/a
508.223	0.105	1016446	keystroke	o	n/a
508.343	0.075	1016686	keystroke	d	n/a
508.568	0.09	1017136	keystroke	s	n/a
508.642	0.15	1017284	keystroke	Key.space	n/a
509.107	0.061	1018214	keystroke	d	n/a
509.183	0.12	1018366	keystroke	i	n/a
509.288	0.06	1018576	keystroke	e	n/a
509.4665	0.076	1018933	keystroke	d	n/a
509.512	0.1345	1019024	keystroke	Key.space	n/a
509.6775	0.09	1019355	keystroke	g	n/a
509.7825	0.09	1019565	keystroke	o	n/a
509.9475	0.0755	1019895	keystroke	s	n/a
510.0525	0.135	1020105	keystroke	s	n/a
510.4725	0.105	1020945	keystroke	i	n/a
510.6675	0.105	1021335	keystroke	p	n/a
511.2675	0.105	1022535	keystroke	Key.enter	n/a
511.38	6.8335	1022760	prompt	n/a	expired confidential grows hand\n
512.1825	0.075	1024365	keystroke	e	n/a
512.3925	0.09	1024785	keystroke	x	n/a
512.468	0.0895	1024936	keystroke	p	n/a
512.6025	0.12	1025205	keystroke	i	n/a
512.6925	0.12	1025385	keystroke	r	n/a
512.7825	0.09	1025565	keystroke	e	n/a
512.9775	0.09	1025955	keystroke	d	n/a
513.0525	0.104	1026105	keystroke	Key.space	n/a
513.1875	0.09	1026375	keystroke	c	n/a
513.2625	0.105	1026525	keystroke	o	n/a
513.3375	0.12	1026675	keystroke	n	n/a
513.4725	0.09	1026945	keystroke	f	n/a
513.6225	0.135	1027245	keystroke	i	n/a
513.8025	0.045	1027605	keystroke	d	n/a
513.9675	0.09	1027935	keystroke	e	n/a
514.0725	0.09	1028145	keystroke	n	n/a
514.1775	0.06	1028355	keystroke	t	n/a
514.3875	0.12	1028775	keystroke	i	n/a
514.6275	0.12	1029255	keystroke	a	n/a
514.7325	0.12	1029465	keystroke	l	n/a
515.1225	0.105	1030245	keystroke	Key.space	n/a
515.2725	0.045	1030545	keystroke	g	n/a
515.4375	0.12	1030875	keystroke	r	n/a
515.5425	0.09	1031085	keystroke	o	n/a
515.6175	0.075	1031235	keystroke	w	n/a
515.7975	0.105	1031595	keystroke	s	n/a
515.8865	0.106	1031773	keystroke	Key.space	n/a
516.1425	0.06	1032285	keystroke	h	n/a
516.2175	0.06	1032435	keystroke	a	n/a
516.3375	0.105	1032675	keystroke	n	n/a
516.3975	0.075	1032795	keystroke	d	n/a
518.0775	0.135	1036155	keystroke	Key.enter	n/a
518.218	9.416	1036436	prompt	n/a	tournaments mobility flat ourselves\n
518.9475	0.06	1037895	keystroke	t	n/a
519.0375	0.12	1038075	keystroke	o	n/a
519.1275	0.09	1038255	keystroke	u	n/a
519.5025	0.06	1039005	keystroke	r	n/a
519.9375	0.105	1039875	keystroke	n	n/a
520.3425	0.12	1040685	keystroke	a	n/a
520.9575	0.105	1041915	keystroke	m	n/a
521.0925	0.09	1042185	keystroke	e	n/a
521.1675	0.135	1042335	keystroke	n	n/a
521.2875	0.135	1042575	keystroke	t	n/a
521.3925	0.12	1042785	keystroke	s	n/a
521.5275	0.15	1043055	keystroke	Key.space	n/a
522.3825	0.09	1044765	keystroke	m	n/a
522.5175	0.09	1045035	keystroke	o	n/a
522.7125	0.09	1045425	keystroke	b	n/a
522.8175	0.075	1045635	keystroke	i	n/a
523.2075	0.075	1046415	keystroke	l	n/a
523.3875	0.09	1046775	keystroke	i	n/a
523.5075	0.09	1047015	keystroke	t	n/a
523.6575	0.12	1047315	keystroke	y	n/a
524.3025	0.105	1048605	keystroke	Key.space	n/a
524.4675	0.09	1048935	keystroke	f	n/a
524.5875	0.105	1049175	keystroke	l	n/a
524.6325	0.105	1049265	keystroke	a	n/a
524.8875	0.075	1049775	keystroke	t	n/a
524.9775	0.12	1049955	keystroke	Key.space	n/a
525.1425	0.15	1050285	keystroke	o	n/a
525.2475	0.135	1050495	keystroke	u	n/a
525.3675	0.06	1050735	keystroke	r	n/a
525.4875	0.075	1050975	keystroke	s	n/a
525.6075	0.09	1051215	keystroke	e	n/a
525.7425	0.09	1051485	keystroke	l	n/a
525.8475	0.195	1051695	keystroke	v	n/a
525.9825	0.135	1051965	keystroke	e	n/a
526.0575	0.12	1052115	keystroke	s	n/a
527.4825	0.15	1054965	keystroke	Key.enter	n/a
527.6405	7.569	1055281	prompt	n/a	camp discussions publicly floors\n
528.3825	0.075	1056765	keystroke	c	n/a
528.5175	0.135	1057035	keystroke	a	n/a
528.6075	0.135	1057215	keystroke	m	n/a
528.7275	0.12	1057455	keystroke	p	n/a
528.8625	0.105	1057725	keystroke	Key.space	n/a
528.9825	0.075	1057965	keystroke	d	n/a
529.0725	0.09	1058145	keystroke	i	n/a
529.1475	0.06	1058295	keystroke	s	n/a
529.3125	0.09	1058625	keystroke	c	n/a
529.4175	0.09	1058835	keystroke	u	n/a
529.5375	0.06	1059075	keystroke	s	n/a
529.6725	0.12	1059345	keystroke	s	n/a
529.7625	0.12	1059525	keystroke	i	n/a
529.8675	0.18	1059735	keystroke	o	n/a
530.0025	0.15	1060005	keystroke	n	n/a
530.1375	0.09	1060275	keystroke	s	n/a
530.7675	0.12	1061535	keystroke	Key.space	n/a
531.0075	0.06	1062015	keystroke	p	n/a
531.0375	0.135	1062075	keystroke	u	n/a
531.2025	0.06	1062405	keystroke	b	n/a
531.3375	0.135	1062675	keystroke	l	n/a
531.4275	0.105	1062855	keystroke	i	n/a
531.9225	0.09	1063845	keystroke	c	n/a
532.6125	0.12	1065225	keystroke	l	n/a
532.8975	0.135	1065795	keystroke	y	n/a
532.9875	0.135	1065975	keystroke	Key.space	n/a
533.0925	0.075	1066185	keystroke	f	n/a
533.2275	0.06	1066455	keystroke	l	n/a
533.4075	0.06	1066815	keystroke	o	n/a
533.5425	0.105	1067085	keystroke	o	n/a
533.6175	0.135	1067235	keystroke	r	n/a
533.7825	0.105	1067565	keystroke	s	n/a
535.1325	0.075	1070265	keystroke	Key.enter	n/a
535.2165	8.542	1070433	prompt	n/a	want violin cruise register\n
536.0325	0.075	1072065	keystroke	w	n/a
536.1975	0.105	1072395	keystroke	a	n/a
536.2875	0.18	1072575	keystroke	n	n/a
536.4075	0.105	1072815	keystroke	t	n/a
536.5275	0.105	1073055	keystroke	Key.space	n/a
536.7075	0.075	1073415	keystroke	v	n/a
536.9025	0.105	1073805	keystroke	i	n/a
537.2025	0.09	1074405	keystroke	o	n/a
537.4425	0.09	1074885	keystroke	l	n/a
537.6375	0.135	1075275	keystroke	i	n/a
537.7125	0.165	1075425	keystroke	n	n/a
538.5675	0.015	1077135	keystroke	Key.space	n/a
539.1975	0.075	1078395	keystroke	c	n/a
539.3775	0.09	1078755	keystroke	r	n/a
539.4975	0.18	1078995	keystroke	u	n/a
539.6325	0.12	1079265	keystroke	i	n/a
539.7675	0.09	1079535	keystroke	s	n/a
539.8875	0.105	1079775	keystroke	e	n/a
540.0975	0.105	1080195	keystroke	Key.space	n/a
540.5475	0.135	1081095	keystroke	r	n/a
540.7275	0.075	1081455	keystroke	e	n/a
540.9525	0.09	1081905	keystroke	g	n/a
541.1025	0.135	1082205	keystroke	i	n/a
541.2075	0.15	1082415	keystroke	s	n/a
541.327	0.075	1082654	keystroke	t	n/a
541.447	0.15	1082894	keystroke	e	n/a
541.567	0.105	1083134	keystroke	r	n/a
543.637	0.12	1087274	keystroke	Key.enter	n/a
543.763	7.916	1087526	prompt	n/a	composite sure computing command\n
544.627	0.09	1089254	keystroke	c	n/a
544.702	0.1655	1089404	keystroke	o	n/a
544.8975	0.135	1089795	keystroke	m	n/a
545.0025	0.105	1090005	keystroke	p	n/a
545.527	0.105	1091054	keystroke	o	n/a
545.737	0.09	1091474	keystroke	s	n/a
545.842	0.075	1091684	keystroke	i	n/a
546.037	0.09	1092074	keystroke	t	n/a
546.202	0.075	1092404	keystroke	e	n/a
546.337	0.15	1092674	keystroke	Key.space	n/a
547.057	0.105	1094114	keystroke	s	n/a
547.192	0.135	1094384	keystroke	u	n/a
547.297	0.105	1094594	keystroke	r	n/a
547.357	0.105	1094714	keystroke	e	n/a
547.477	0.12	1094954	keystroke	Key.space	n/a
547.612	0.12	1095224	keystroke	c	n/a
547.702	0.135	1095404	keystroke	o	n/a
547.852	0.06	1095704	keystroke	m	n/a
547.897	0.15	1095794	keystroke	p	n/a
548.227	0.12	1096454	keystroke	u	n/a
548.377	0.075	1096754	keystroke	t	n/a
548.497	0.135	1096994	keystroke	i	n/a
548.572	0.21	1097144	keystroke	n	n/a
548.677	0.075	1097354	keystroke	g	n/a
548.797	0.15	1097594	keystroke	Key.space	n/a
549.307	0.09	1098614	keystroke	c	n/a
549.412	0.06	1098824	keystroke	o	n/a
549.577	0.105	1099154	keystroke	m	n/a
549.757	0.105	1099514	keystroke	m	n/a
549.922	0.09	1099844	keystroke	a	n/a
550.027	0.105	1100054	keystroke	n	n/a
550.387	0.09	1100774	keystroke	d	n/a
551.572	0.105	1103144	keystroke	Key.enter	n/a
551.684	7.105	1103368	prompt	n/a	stomach drunk across crossing\n
552.532	0.15	1105064	keystroke	s	n/a
552.652	0.12	1105304	keystroke	t	n/a
552.727	0.195	1105454	keystroke	o	n/a
552.847	0.135	1105694	keystroke	m	n/a
552.907	0.09	1105814	keystroke	a	n/a
553.117	0.105	1106234	keystroke	c	n/a
553.207	0.15	1106414	keystroke	h	n/a
553.282	0.135	1106564	keystroke	Key.space	n/a
553.552	0.09	1107104	keystroke	d	n/a
553.717	0.09	1107434	keystroke	r	n/a
553.822	0.075	1107644	keystroke	u	n/a
554.032	0.225	1108064	keystroke	n	n/a
554.137	0.15	1108274	keystroke	k	n/a
554.242	0.15	1108484	keystroke	Key.space	n/a
554.332	0.09	1108664	keystroke	a	n/a
554.482	0.135	1108964	keystroke	c	n/a
554.887	0.105	1109774	keystroke	o	n/a
555.457	0.09	1110914	keystroke	Key.backspace	n/a
555.772	0.09	1111544	keystroke	r	n/a
555.877	0.09	1111754	keystroke	o	n/a
556.027	0.075	1112054	keystroke	s	n/a
556.192	0.105	1112384	keystroke	s	n/a
556.312	0.105	1112624	keystroke	Key.space	n/a
556.837	0.075	1113674	keystroke	c	n/a
557.137	0.09	1114274	keystroke	r	n/a
557.302	0.09	1114604	keystroke	o	n/a
557.407	0.075	1114814	keystroke	s	n/a
557.557	0.105	1115114	keystroke	s	n/a
557.647	0.18	1115294	keystroke	i	n/a
557.752	0.15	1115504	keystroke	n	n/a
557.872	0.09	1115744	keystroke	g	n/a
558.682	0.105	1117364	keystroke	Key.enter	n/a
558.7935	6.4755	1117587	prompt	n/a	administered moving smoking quiz\n
559.657	0.105	1119314	keystroke	a	n/a
559.867	0.09	1119734	keystroke	d	n/a
560.032	0.135	1120064	keystroke	m	n/a
560.287	0.09	1120574	keystroke	i	n/a
560.362	0.195	1120724	keystroke	n	n/a
560.497	0.135	1120994	keystroke	i	n/a
560.662	0.21	1121324	keystroke	s	n/a
560.857	0.135	1121714	keystroke	t	n/a
561.007	0.12	1122014	keystroke	e	n/a
561.142	0.135	1122284	keystroke	r	n/a
561.217	0.075	1122434	keystroke	e	n/a
561.397	0.105	1122794	keystroke	d	n/a
561.502	0.12	1123004	keystroke	Key.space	n/a
562.237	0.135	1124474	keystroke	m	n/a
562.357	0.075	1124714	keystroke	o	n/a
562.447	0.075	1124894	keystroke	v	n/a
562.537	0.18	1125074	keystroke	i	n/a
562.627	0.165	1125254	keystroke	n	n/a
562.702	0.075	1125404	keystroke	g	n/a
562.807	0.12	1125614	keystroke	Key.space	n/a
562.897	0.105	1125794	keystroke	s	n/a
562.942	0.135	1125884	keystroke	m	n/a
563.047	0.135	1126094	keystroke	o	n/a
563.197	0.105	1126394	keystroke	k	n/a
563.407	0.105	1126814	keystroke	i	n/a
563.467	0.24	1126934	keystroke	n	n/a
563.527	0.09	1127054	keystroke	g	n/a
563.632	0.15	1127264	keystroke	Key.space	n/a
563.857	0.105	1127714	keystroke	q	n/a
563.932	0.165	1127864	keystroke	u	n/a
564.037	0.135	1128074	keystroke	i	n/a
564.232	0.12	1128464	keystroke	z	n/a
565.147	0.12	1130294	keystroke	Key.enter	n/a
565.2735	5.7705	1130547	prompt	n/a	generated elephant long locate\n
566.092	0.045	1132184	keystroke	g	n/a
566.227	0.075	1132454	keystroke	e	n/a
566.362	0.36	1132724	keystroke	n	n/a
566.467	0.09	1132934	keystroke	e	n/a
566.527	0.135	1133054	keystroke	r	n/a
566.647	0.15	1133294	keystroke	a	n/a
566.752	0.09	1133504	keystroke	t	n/a
566.782	0.09	1133564	keystroke	e	n/a
566.993	0.074	1133986	keystroke	d	n/a
567.082	0.12	1134164	keystroke	Key.space	n/a
567.532	0.075	1135064	keystroke	e	n/a
567.682	0.105	1135364	keystroke	l	n/a
567.727	0.09	1135454	keystroke	e	n/a
567.967	0.105	1135934	keystroke	p	n/a
568.102	0.105	1136204	keystroke	h	n/a
568.222	0.06	1136444	keystroke	a	n/a
568.343	0.119	1136686	keystroke	n	n/a
568.447	0.09	1136894	keystroke	t	n/a
568.567	0.165	1137134	keystroke	Key.space	n/a
569.047	0.075	1138094	keystroke	l	n/a
569.242	0.12	1138484	keystroke	o	n/a
569.302	0.195	1138604	keystroke	n	n/a
569.392	0.09	1138784	keystroke	g	n/a
569.467	0.15	1138934	keystroke	Key.space	n/a
569.557	0.075	1139114	keystroke	l	n/a
569.737	0.105	1139474	keystroke	o	n/a
569.767	0.105	1139534	keystroke	c	n/a
569.932	0.18	1139864	keystroke	a	n/a
570.067	0.135	1140134	keystroke	t	n/a
570.127	0.135	1140254	keystroke	e	n/a
570.922	0.12	1141844	keystroke	Key.enter	n/a
571.0485	18.8955	1142097	prompt	n/a	reference mixing hdtv aluminium\n
571.942	0.12	1143884	keystroke	r	n/a
572.047	0.105	1144094	keystroke	e	n/a
572.227	0.075	1144454	keystroke	f	n/a
572.317	0.09	1144634	keystroke	e	n/a
572.422	0.135	1144844	keystroke	r	n/a
572.527	0.075	1145054	keystroke	e	n/a
572.647	0.1495	1145294	keystroke	n	n/a
572.7365	0.09	1145473	keystroke	c	n/a
572.9625	0.089	1145925	keystroke	e	n/a
573.0965	0.09	1146193	keystroke	Key.space	n/a
573.3215	0.105	1146643	keystroke	m	n/a
573.5765	0.075	1147153	keystroke	i	n/a
573.6815	0.09	1147363	keystroke	x	n/a
573.8315	0.151	1147663	keystroke	i	n/a
573.9065	0.24	1147813	keystroke	n	n/a
574.0265	0.075	1148053	keystroke	g	n/a
574.1165	0.165	1148233	keystroke	Key.space	n/a
574.8815	0.165	1149763	keystroke	h	n/a
575.1515	0.12	1150303	keystroke	d	n/a
575.4365	0.075	1150873	keystroke	t	n/a
575.6765	0.09	1151353	keystroke	v	n/a
576.5165	0.15	1153033	keystroke	Key.space	n/a
576.6815	0.12	1153363	keystroke	a	n/a
576.8165	0.135	1153633	keystroke	l	n/a
577.1315	0.09	1154263	keystroke	u	n/a
577.4015	0.12	1154803	keystroke	m	n/a
577.6565	0.091	1155313	keystroke	i	n/a
577.8665	0.106	1155733	keystroke	n	n/a
578.1365	0.12	1156273	keystroke	u	n/a
578.4065	0.12	1156813	keystroke	m	n/a
583.0445	0.012	1166089	keystroke	Key.backspace	n/a
583.2515	0.06	1166503	keystroke	Key.backspace	n/a
586.2405	0.026	1172481	keystroke	i	n/a
586.4315	0.09	1172863	keystroke	u	n/a
586.6865	0.09	1173373	keystroke	m	n/a
589.8555	0.086	1179711	keystroke	Key.enter	n/a
589.9495	6.8195	1179899	prompt	n/a	home political repository closer\n
590.8875	0.105	1181775	keystroke	h	n/a
591.0375	0.15	1182075	keystroke	o	n/a
591.1275	0.21	1182255	keystroke	m	n/a
591.2025	0.074	1182405	keystroke	e	n/a
591.2915	0.12	1182583	keystroke	Key.space	n/a
591.4565	0.12	1182913	keystroke	p	n/a
591.6375	0.105	1183275	keystroke	o	n/a
591.8775	0.165	1183755	keystroke	l	n/a
591.9825	0.12	1183965	keystroke	i	n/a
592.0575	0.075	1184115	keystroke	t	n/a
592.2225	0.105	1184445	keystroke	i	n/a
592.2825	0.105	1184565	keystroke	c	n/a
592.4175	0.12	1184835	keystroke	a	n/a
592.5075	0.135	1185015	keystroke	l	n/a
592.6265	0.135	1185253	keystroke	Key.space	n/a
593.1825	0.09	1186365	keystroke	r	n/a
593.3775	0.075	1186755	keystroke	e	n/a
593.6475	0.075	1187295	keystroke	p	n/a
593.8275	0.09	1187655	keystroke	o	n/a
594.0075	0.09	1188015	keystroke	s	n/a
594.0825	0.09	1188165	keystroke	i	n/a
594.2325	0.075	1188465	keystroke	t	n/a
594.3225	0.105	1188645	keystroke	o	n/a
594.4565	0.076	1188913	keystroke	r	n/a
594.5775	0.15	1189155	keystroke	y	n/a
594.6965	0.135	1189393	keystroke	Key.space	n/a
595.0725	0.09	1190145	keystroke	c	n/a
595.1625	0.075	1190325	keystroke	l	n/a
595.3575	0.09	1190715	keystroke	o	n/a
595.4325	0.06	1190865	keystroke	s	n/a
595.6125	0.12	1191225	keystroke	e	n/a
595.7475	0.06	1191495	keystroke	r	n/a
596.6315	0.135	1193263	keystroke	Key.enter	n/a
596.7735	10.135	1193547	prompt	n/a	reason alexandria devon evanescence\n
597.7575	0.195	1195515	keystroke	r	n/a
598.0425	0.135	1196085	keystroke	e	n/a
598.3425	0.135	1196685	keystroke	a	n/a
598.4175	0.135	1196835	keystroke	s	n/a
598.5525	0.165	1197105	keystroke	o	n/a
598.6725	0.195	1197345	keystroke	n	n/a
598.8515	0.135	1197703	keystroke	Key.space	n/a
599.4375	0.12	1198875	keystroke	a	n/a
599.5275	0.135	1199055	keystroke	l	n/a
599.6775	0.075	1199355	keystroke	e	n/a
599.9325	0.06	1199865	keystroke	x	n/a
600.1275	0.075	1200255	keystroke	a	n/a
600.2175	0.15	1200435	keystroke	n	n/a
600.3525	0.09	1200705	keystroke	d	n/a
600.5475	0.075	1201095	keystroke	r	n/a
600.6375	0.075	1201275	keystroke	i	n/a
600.7575	0.105	1201515	keystroke	a	n/a
601.4025	0.12	1202805	keystroke	Key.space	n/a
601.5525	0.075	1203105	keystroke	d	n/a
601.7325	0.075	1203465	keystroke	e	n/a
601.8975	0.12	1203795	keystroke	v	n/a
602.0025	0.15	1204005	keystroke	o	n/a
602.1075	0.165	1204215	keystroke	n	n/a
602.2125	0.134	1204425	keystroke	Key.space	n/a
602.527	0.09	1205054	keystroke	e	n/a
602.857	0.105	1205714	keystroke	v	n/a
603.337	0.105	1206674	keystroke	a	n/a
604.417	0.12	1208834	keystroke	n	n/a
605.077	0.09	1210154	keystroke	e	n/a
605.272	0.09	1210544	keystroke	s	n/a
605.482	0.0905	1210964	keystroke	c	n/a
605.6925	0.075	1211385	keystroke	e	n/a
605.7825	0.15	1211565	keystroke	n	n/a
605.9175	0.1045	1211835	keystroke	c	n/a
606.157	0.075	1212314	keystroke	e	n/a
606.8175	0.0895	1213635	keystroke	Key.enter	n/a
606.9135	6.2505	1213827	prompt	n/a	confident element courts father\n
607.7925	0.075	1215585	keystroke	c	n/a
607.8675	0.12	1215735	keystroke	o	n/a
607.9575	0.105	1215915	keystroke	n	n/a
608.0175	0.075	1216035	keystroke	f	n/a
608.1525	0.09	1216305	keystroke	i	n/a
608.2125	0.045	1216425	keystroke	d	n/a
608.3925	0.075	1216785	keystroke	e	n/a
608.4525	0.12	1216905	keystroke	n	n/a
608.5575	0.105	1217115	keystroke	t	n/a
608.6925	0.12	1217385	keystroke	Key.space	n/a
609.1725	0.09	1218345	keystroke	e	n/a
609.2775	0.09	1218555	keystroke	l	n/a
609.3525	0.075	1218705	keystroke	e	n/a
609.4725	0.135	1218945	keystroke	m	n/a
609.5625	0.075	1219125	keystroke	e	n/a
609.7275	0.1345	1219455	keystroke	n	n/a
609.8475	0.0895	1219695	keystroke	t	n/a
609.997	0.135	1219994	keystroke	Key.space	n/a
610.537	0.09	1221074	keystroke	c	n/a
610.642	0.165	1221284	keystroke	o	n/a
610.762	0.12	1221524	keystroke	u	n/a
610.867	0.06	1221734	keystroke	r	n/a
611.047	0.105	1222094	keystroke	t	n/a
611.122	0.105	1222244	keystroke	s	n/a
611.212	0.15	1222424	keystroke	Key.space	n/a
611.347	0.105	1222694	keystroke	f	n/a
611.512	0.135	1223024	keystroke	a	n/a
611.6025	0.0895	1223205	keystroke	t	n/a
611.737	0.135	1223474	keystroke	h	n/a
611.767	0.135	1223534	keystroke	e	n/a
611.857	0.09	1223714	keystroke	r	n/a
613.027	0.135	1226054	keystroke	Key.enter	n/a
613.168	11.9805	1226336	prompt	n/a	olive itself expenses jurisdiction\n
617.68	0	1235360	keystroke	o	n/a
617.782	0.165	1235564	keystroke	l	n/a
617.902	0.12	1235804	keystroke	i	n/a
617.977	0.135	1235954	keystroke	v	n/a
618.067	0.09	1236134	keystroke	e	n/a
618.337	0.12	1236674	keystroke	Key.space	n/a
618.577	0.135	1237154	keystroke	i	n/a
618.727	0.06	1237454	keystroke	t	n/a
618.877	0.06	1237754	keystroke	s	n/a
619.027	0.06	1238054	keystroke	e	n/a
619.117	0.09	1238234	keystroke	l	n/a
619.222	0.075	1238444	keystroke	f	n/a
619.357	0.15	1238714	keystroke	Key.space	n/a
620.107	0.06	1240214	keystroke	e	n/a
620.302	0.09	1240604	keystroke	x	n/a
620.437	0.09	1240874	keystroke	p	n/a
620.542	0.06	1241084	keystroke	e	n/a
620.647	0.135	1241294	keystroke	n	n/a
620.752	0.09	1241504	keystroke	s	n/a
620.932	0.12	1241864	keystroke	e	n/a
621.022	0.105	1242044	keystroke	s	n/a
621.217	0.135	1242434	keystroke	Key.space	n/a
621.562	0.075	1243124	keystroke	j	n/a
621.757	0.105	1243514	keystroke	u	n/a
622.117	0.075	1244234	keystroke	r	n/a
622.342	0.075	1244684	keystroke	i	n/a
622.552	0.12	1245104	keystroke	s	n/a
622.897	0.075	1245794	keystroke	d	n/a
623.032	0.075	1246064	keystroke	i	n/a
623.167	0.06	1246334	keystroke	c	n/a
623.377	0.045	1246754	keystroke	t	n/a
623.437	0.18	1246874	keystroke	i	n/a
623.662	0.165	1247324	keystroke	o	n/a
623.782	0.15	1247564	keystroke	n	n/a
625.042	0.105	1250084	keystroke	Key.enter	n/a
625.153	7.0305	1250306	prompt	n/a	because soil comment parameters\n
625.822	0.075	1251644	keystroke	b	n/a
