onset	duration	sample	value	key	prompt_text
1.7775	15.4765	3555	prompt	n/a	the quick brown fox jumps over a lazy dog\n
3.0795	0.073	6159	keystroke_t	t	n/a
3.212	0.0605	6424	keystroke_e	e	n/a
3.9325	0.075	7865	keystroke_Key.backspace	Key.backspace	n/a
4.6075	0.075	9215	keystroke_h	h	n/a
4.8775	0.1345	9755	keystroke_e	e	n/a
5.042	0.18	10084	keystroke_Key.space	Key.space	n/a
5.477	0.135	10954	keystroke_q	q	n/a
5.788	0.09	11576	keystroke_u	u	n/a
5.924	0.105	11848	keystroke_i	i	n/a
6.074	0.135	12148	keystroke_c	c	n/a
6.224	0.0605	12448	keystroke_k	k	n/a
6.3445	0.105	12689	keystroke_Key.space	Key.space	n/a
6.5095	0.105	13019	keystroke_b	b	n/a
6.7495	0.135	13499	keystroke_r	r	n/a
6.8705	0.105	13741	keystroke_o	o	n/a
7.0045	0.1055	14009	keystroke_w	w	n/a
7.125	0.0595	14250	keystroke_n	n	n/a
7.2295	0.0905	14459	keystroke_Key.space	Key.space	n/a
7.35	0.1495	14700	keystroke_f	f	n/a
7.485	0.0745	14970	keystroke_o	o	n/a
7.7555	0.1045	15511	keystroke_x	x	n/a
7.905	0.105	15810	keystroke_Key.space	Key.space	n/a
8.115	0.075	16230	keystroke_j	j	n/a
8.31	0.045	16620	keystroke_u	u	n/a
8.49	0.105	16980	keystroke_m	m	n/a
8.67	0.105	17340	keystroke_p	p	n/a
8.82	0.135	17640	keystroke_a	a	n/a
8.97	0.105	17940	keystroke_s	s	n/a
9.12	0.09	18240	keystroke_Key.space	Key.space	n/a
9.285	0.09	18570	keystroke_o	o	n/a
9.4345	0.06	18869	keystroke_v	v	n/a
9.7645	0.045	19529	keystroke_Key.backspace	Key.backspace	n/a
10.0945	0.06	20189	keystroke_Key.backspace	Key.backspace	n/a
10.3495	0.075	20699	keystroke_Key.backspace	Key.backspace	n/a
10.6345	0.091	21269	keystroke_Key.backspace	Key.backspace	n/a
10.9955	0.06	21991	keystroke_Key.backspace	Key.backspace	n/a
11.1455	0.09	22291	keystroke_s	s	n/a
11.2655	0.12	22531	keystroke_Key.space	Key.space	n/a
11.5655	0.12	23131	keystroke_o	o	n/a
11.6705	0.105	23341	keystroke_v	v	n/a
11.8805	0.105	23761	keystroke_e	e	n/a
11.9555	0.105	23911	keystroke_r	r	n/a
13.32	0.12	26640	keystroke_Key.space	Key.space	n/a
14.145	0.12	28290	keystroke_a	a	n/a
14.28	0.075	28560	keystroke_Key.space	Key.space	n/a
14.475	0.09	28950	keystroke_l	l	n/a
14.58	0.09	29160	keystroke_a	a	n/a
14.82	0.06	29640	keystroke_z	z	n/a
15.045	0.06	30090	keystroke_y	y	n/a
15.8695	0.135	31739	keystroke_Key.space	Key.space	n/a
16.725	0.06	33450	keystroke_d	d	n/a
16.83	0.12	33660	keystroke_o	o	n/a
16.995	0.075	33990	keystroke_g	g	n/a
17.175	0.075	34350	keystroke_Key.enter	Key.enter	n/a
17.261	10.596	34522	prompt	n/a	luxembourg changing contract adjustments\n
19.065	0.09	38130	keystroke_l	l	n/a
19.4405	0.06	38881	keystroke_u	u	n/a
19.7555	0.09	39511	keystroke_x	x	n/a
20.2805	0.09	40561	keystroke_e	e	n/a
20.4305	0.105	40861	keystroke_m	m	n/a
20.6405	0.105	41281	keystroke_b	b	n/a
20.8655	0.15	41731	keystroke_o	o	n/a
21.0455	0.045	42091	keystroke_u	u	n/a
21.1955	0.0895	42391	keystroke_r	r	n/a
21.465	0.06	42930	keystroke_g	g	n/a
21.795	0.09	43590	keystroke_Key.space	Key.space	n/a
22.245	0.15	44490	keystroke_c	c	n/a
22.35	0.075	44700	keystroke_h	h	n/a
22.95	0.09	45900	keystroke_a	a	n/a
23.355	0.06	46710	keystroke_n	n	n/a
23.55	0.09	47100	keystroke_g	g	n/a
23.655	0.09	47310	keystroke_i	i	n/a
23.85	0.075	47700	keystroke_n	n	n/a
23.895	0.075	47790	keystroke_g	g	n/a
23.955	0.135	47910	keystroke_Key.space	Key.space	n/a
24.21	0.135	48420	keystroke_c	c	n/a
24.3	0.135	48600	keystroke_o	o	n/a
24.48	0.09	48960	keystroke_n	n	n/a
24.645	0.105	49290	keystroke_t	t	n/a
24.855	0.12	49710	keystroke_a	a	n/a
25.005	0.135	50010	keystroke_c	c	n/a
25.305	0.12	50610	keystroke_t	t	n/a
25.47	0.15	50940	keystroke_Key.space	Key.space	n/a
25.71	0.12	51420	keystroke_a	a	n/a
25.89	0.09	51780	keystroke_d	d	n/a
26.325	0.075	52650	keystroke_j	j	n/a
26.49	0.06	52980	keystroke_u	u	n/a
26.595	0.1205	53190	keystroke_s	s	n/a
26.7455	0.1195	53491	keystroke_t	t	n/a
27.0605	0.075	54121	keystroke_m	m	n/a
27.1655	0.12	54331	keystroke_e	e	n/a
27.2705	0.075	54541	keystroke_n	n	n/a
27.3605	0.075	54721	keystroke_t	t	n/a
27.5255	0.105	55051	keystroke_s	s	n/a
27.7805	0.075	55561	keystroke_Key.enter	Key.enter	n/a
27.864	7.4485	55728	prompt	n/a	citizens julia electro ignore\n
28.77	0.12	57540	keystroke_c	c	n/a
28.92	0.075	57840	keystroke_i	i	n/a
29.07	0.135	58140	keystroke_t	t	n/a
29.175	0.075	58350	keystroke_i	i	n/a
29.355	0.15	58710	keystroke_z	z	n/a
29.535	0.12	59070	keystroke_e	e	n/a
29.7	0.06	59400	keystroke_n	n	n/a
29.805	0.105	59610	keystroke_Key.space	Key.space	n/a
30.09	0.06	60180	keystroke_j	j	n/a
30.315	0.045	60630	keystroke_u	u	n/a
30.465	0.12	60930	keystroke_l	l	n/a
30.645	0.075	61290	keystroke_i	i	n/a
30.8095	0.135	61619	keystroke_a	a	n/a
30.9745	0.105	61949	keystroke_Key.space	Key.space	n/a
31.41	0.075	62820	keystroke_e	e	n/a
31.56	0.12	63120	keystroke_l	l	n/a
31.635	0.135	63270	keystroke_e	e	n/a
31.89	0.1045	63780	keystroke_c	c	n/a
32.1445	0.076	64289	keystroke_t	t	n/a
32.3545	0.06	64709	keystroke_r	r	n/a
32.4745	0.09	64949	keystroke_o	o	n/a
32.6545	0.12	65309	keystroke_Key.space	Key.space	n/a
33.2555	0.0595	66511	keystroke_i	i	n/a
33.4805	0.075	66961	keystroke_n	n	n/a
34.2155	0.045	68431	keystroke_Key.backspace	Key.backspace	n/a
34.3805	0.075	68761	keystroke_g	g	n/a
34.5005	0.09	69001	keystroke_n	n	n/a
34.7555	0.12	69511	keystroke_o	o	n/a
34.9055	0.18	69811	keystroke_r	r	n/a
35.0705	0.105	70141	keystroke_e	e	n/a
35.2355	0.075	70471	keystroke_Key.enter	Key.enter	n/a
35.3185	8.8435	70637	prompt	n/a	offered patients anywhere being\n
36.0005	0.075	72001	keystroke_o	o	n/a
36.1205	0.075	72241	keystroke_f	f	n/a
36.2705	0.09	72541	keystroke_f	f	n/a
36.4055	0.12	72811	keystroke_e	e	n/a
36.5105	0.15	73021	keystroke_r	r	n/a
36.6155	0.1045	73231	keystroke_e	e	n/a
36.855	0.09	73710	keystroke_d	d	n/a
36.96	0.105	73920	keystroke_Key.space	Key.space	n/a
37.275	0.12	74550	keystroke_a	a	n/a
37.7695	0.061	75539	keystroke_Key.backspace	Key.backspace	n/a
38.2355	0.105	76471	keystroke_p	p	n/a
38.3105	0.165	76621	keystroke_a	a	n/a
38.4905	0.105	76981	keystroke_t	t	n/a
38.6105	0.06	77221	keystroke_i	i	n/a
38.7005	0.15	77401	keystroke_e	e	n/a
38.8805	0.06	77761	keystroke_n	n	n/a
38.9555	0.09	77911	keystroke_t	t	n/a
39.1655	0.12	78331	keystroke_s	s	n/a
39.3005	0.105	78601	keystroke_Key.space	Key.space	n/a
39.5555	0.134	79111	keystroke_a	a	n/a
39.6755	0.075	79351	keystroke_n	n	n/a
39.9005	0.06	79801	keystroke_y	y	n/a
40.1555	0.089	80311	keystroke_w	w	n/a
40.2895	0.076	80579	keystroke_h	h	n/a
40.3805	0.165	80761	keystroke_r	r	n/a
40.5005	0.18	81001	keystroke_e	e	n/a
41.13	0.09	82260	keystroke_Key.space	Key.space	n/a
41.61	0.09	83220	keystroke_Key.backspace	Key.backspace	n/a
41.8505	0.074	83701	keystroke_Key.backspace	Key.backspace	n/a
42.3145	0.0605	84629	keystroke_Key.backspace	Key.backspace	n/a
42.4955	0.12	84991	keystroke_e	e	n/a
42.5855	0.1495	85171	keystroke_r	r	n/a
42.705	0.09	85410	keystroke_e	e	n/a
43.14	0.075	86280	keystroke_Key.space	Key.space	n/a
43.305	0.075	86610	keystroke_b	b	n/a
43.5	0.105	87000	keystroke_e	e	n/a
43.665	0.09	87330	keystroke_i	i	n/a
43.86	0.06	87720	keystroke_n	n	n/a
43.935	0.075	87870	keystroke_g	g	n/a
44.13	0.03	88260	keystroke_Key.enter	Key.enter	n/a
44.168	13.689	88336	prompt	n/a	firefox jacksonville promote perspective\n
44.8805	0.09	89761	keystroke_f	f	n/a
45.0155	0.105	90031	keystroke_i	i	n/a
45.1055	0.135	90211	keystroke_r	r	n/a
45.2105	0.09	90421	keystroke_e	e	n/a
45.4955	0.075	90991	keystroke_g	g	n/a
45.5855	0.075	91171	keystroke_o	o	n/a
45.7655	0.1045	91531	keystroke_x	x	n/a
45.885	0.09	91770	keystroke_Key.space	Key.space	n/a
46.065	0.075	92130	keystroke_j	j	n/a
46.155	0.1195	92310	keystroke_a	a	n/a
47.085	0.075	94170	keystroke_Key.backspace	Key.backspace	n/a
47.445	0.045	94890	keystroke_Key.backspace	Key.backspace	n/a
47.85	0.045	95700	keystroke_Key.backspace	Key.backspace	n/a
48.18	0.045	96360	keystroke_Key.backspace	Key.backspace	n/a
48.5405	0.015	97081	keystroke_Key.backspace	Key.backspace	n/a
48.7655	0.03	97531	keystroke_Key.backspace	Key.backspace	n/a
49.3055	0.09	98611	keystroke_f	f	n/a
49.4405	0.105	98881	keystroke_o	o	n/a
49.5905	0.12	99181	keystroke_x	x	n/a
49.7555	0.135	99511	keystroke_Key.space	Key.space	n/a
51.06	0.12	102120	keystroke_j	j	n/a
51.6005	0.134	103201	keystroke_a	a	n/a
51.8095	0.151	103619	keystroke_c	c	n/a
52.0205	0.075	104041	keystroke_k	k	n/a
52.2895	0.121	104579	keystroke_s	s	n/a
52.6055	0.15	105211	keystroke_o	o	n/a
52.8455	0.06	105691	keystroke_n	n	n/a
53.1445	0.135	106289	keystroke_v	v	n/a
53.295	0.075	106590	keystroke_i	i	n/a
53.475	0.09	106950	keystroke_l	l	n/a
53.64	0.075	107280	keystroke_l	l	n/a
53.7	0.135	107400	keystroke_e	e	n/a
53.82	0.105	107640	keystroke_Key.space	Key.space	n/a
54	0.1195	108000	keystroke_p	p	n/a
54.1645	0.121	108329	keystroke_r	r	n/a
54.2695	0.09	108539	keystroke_o	o	n/a
54.4955	0.0745	108991	keystroke_m	m	n/a
54.6605	0.135	109321	keystroke_o	o	n/a
54.8255	0.15	109651	keystroke_t	t	n/a
54.9905	0.12	109981	keystroke_e	e	n/a
55.3645	0.061	110729	keystroke_Key.space	Key.space	n/a
55.5905	0.09	111181	keystroke_p	p	n/a
55.6955	0.15	111391	keystroke_e	e	n/a
55.7705	0.105	111541	keystroke_r	r	n/a
56.3255	0.075	112651	keystroke_s	s	n/a
56.4745	0.106	112949	keystroke_p	p	n/a
56.5955	0.135	113191	keystroke_e	e	n/a
56.7895	0.121	113579	keystroke_c	c	n/a
57.0455	0.0895	114091	keystroke_t	t	n/a
57.15	0.075	114300	keystroke_i	i	n/a
57.3	0.105	114600	keystroke_v	v	n/a
57.48	0.075	114960	keystroke_e	e	n/a
57.795	0.06	115590	keystroke_Key.enter	Key.enter	n/a
57.86	8.9375	115720	prompt	n/a	adidas democrat personality gonna\n
58.485	0.09	116970	keystroke_a	a	n/a
58.8	0.09	117600	keystroke_d	d	n/a
58.95	0.075	117900	keystroke_i	i	n/a
59.2805	0.09	118561	keystroke_d	d	n/a
59.46	0.105	118920	keystroke_a	a	n/a
59.626	0.104	119252	keystroke_s	s	n/a
59.775	0.12	119550	keystroke_Key.space	Key.space	n/a
60.181	0.074	120362	keystroke_d	d	n/a
60.361	0.059	120722	keystroke_e	e	n/a
60.585	0.15	121170	keystroke_c	c	n/a
61.155	0.045	122310	keystroke_Key.backspace	Key.backspace	n/a
61.485	0.12	122970	keystroke_m	m	n/a
61.695	0.075	123390	keystroke_o	o	n/a
62.5345	0.12	125069	keystroke_c	c	n/a
62.8195	0.121	125639	keystroke_r	r	n/a
62.9705	0.1645	125941	keystroke_a	a	n/a
63.165	0.09	126330	keystroke_t	t	n/a
63.435	0.0905	126870	keystroke_Key.space	Key.space	n/a
63.7505	0.06	127501	keystroke_p	p	n/a
63.8705	0.135	127741	keystroke_e	e	n/a
63.9605	0.09	127921	keystroke_r	r	n/a
64.1855	0.09	128371	keystroke_s	s	n/a
64.2155	0.12	128431	keystroke_o	o	n/a
64.3805	0.075	128761	keystroke_n	n	n/a
64.4855	0.135	128971	keystroke_a	a	n/a
64.5905	0.089	129181	keystroke_l	l	n/a
64.7845	0.061	129569	keystroke_i	i	n/a
64.935	0.075	129870	keystroke_t	t	n/a
65.07	0.06	130140	keystroke_y	y	n/a
65.25	0.09	130500	keystroke_Key.space	Key.space	n/a
65.46	0.09	130920	keystroke_g	g	n/a
65.535	0.075	131070	keystroke_o	o	n/a
65.775	0.045	131550	keystroke_n	n	n/a
66.255	0.06	132510	keystroke_n	n	n/a
66.39	0.0905	132780	keystroke_a	a	n/a
66.7205	0.075	133441	keystroke_Key.enter	Key.enter	n/a
66.8035	7.6435	133607	prompt	n/a	trademarks piano tells injuries\n
67.44	0.09	134880	keystroke_t	t	n/a
67.6655	0.164	135331	keystroke_r	r	n/a
67.875	0.1345	135750	keystroke_a	a	n/a
68.0995	0.0755	136199	keystroke_d	d	n/a
68.2795	0.045	136559	keystroke_e	e	n/a
68.4445	0.06	136889	keystroke_m	m	n/a
69.315	0.1345	138630	keystroke_a	a	n/a
69.4795	0.105	138959	keystroke_r	r	n/a
69.6445	0.09	139289	keystroke_k	k	n/a
69.7645	0.12	139529	keystroke_s	s	n/a
69.8995	0.135	139799	keystroke_Key.space	Key.space	n/a
70.23	0.075	140460	keystroke_p	p	n/a
70.395	0.075	140790	keystroke_i	i	n/a
70.65	0.12	141300	keystroke_a	a	n/a
70.771	0.074	141542	keystroke_n	n	n/a
70.92	0.09	141840	keystroke_o	o	n/a
71.115	0.09	142230	keystroke_Key.space	Key.space	n/a
71.49	0.09	142980	keystroke_t	t	n/a
71.61	0.15	143220	keystroke_e	e	n/a
71.745	0.075	143490	keystroke_l	l	n/a
71.91	0.09	143820	keystroke_l	l	n/a
72.015	0.09	144030	keystroke_s	s	n/a
72.075	0.15	144150	keystroke_Key.space	Key.space	n/a
72.39	0.075	144780	keystroke_j	j	n/a
72.81	0.015	145620	keystroke_Key.backspace	Key.backspace	n/a
73.02	0.075	146040	keystroke_i	i	n/a
73.2	0.075	146400	keystroke_n	n	n/a
73.38	0.06	146760	keystroke_j	j	n/a
73.56	0.06	147120	keystroke_u	u	n/a
73.77	0.09	147540	keystroke_r	r	n/a
73.95	0.075	147900	keystroke_i	i	n/a
74.01	0.18	148020	keystroke_e	e	n/a
74.145	0.135	148290	keystroke_s	s	n/a
74.385	0.0605	148770	keystroke_Key.enter	Key.enter	n/a
74.452	6.37	148904	prompt	n/a	picture habits previous assistant\n
75.0755	0.06	150151	keystroke_p	p	n/a
75.2255	0.0745	150451	keystroke_i	i	n/a
75.345	0.12	150690	keystroke_c	c	n/a
75.585	0.12	151170	keystroke_t	t	n/a
75.72	0.0905	151440	keystroke_u	u	n/a
75.8555	0.12	151711	keystroke_r	r	n/a
75.9605	0.12	151921	keystroke_e	e	n/a
76.0955	0.135	152191	keystroke_Key.space	Key.space	n/a
76.2455	0.075	152491	keystroke_h	h	n/a
76.665	0.105	153330	keystroke_a	a	n/a
76.83	0.135	153660	keystroke_b	b	n/a
77.01	0.09	154020	keystroke_i	i	n/a
77.16	0.0905	154320	keystroke_t	t	n/a
77.3555	0.1195	154711	keystroke_s	s	n/a
77.476	0.134	154952	keystroke_Key.space	Key.space	n/a
77.7	0.105	155400	keystroke_p	p	n/a
77.835	0.15	155670	keystroke_r	r	n/a
77.97	0.06	155940	keystroke_e	e	n/a
78.195	0.135	156390	keystroke_v	v	n/a
78.331	0.179	156662	keystroke_i	i	n/a
78.465	0.1645	156930	keystroke_o	o	n/a
78.6145	0.09	157229	keystroke_u	u	n/a
78.7345	0.105	157469	keystroke_s	s	n/a
78.825	0.1345	157650	keystroke_Key.space	Key.space	n/a
79.095	0.105	158190	keystroke_a	a	n/a
79.245	0.106	158490	keystroke_s	s	n/a
79.44	0.09	158880	keystroke_s	s	n/a
79.576	0.074	159152	keystroke_i	i	n/a
79.86	0.015	159720	keystroke_s	s	n/a
79.9505	0.12	159901	keystroke_t	t	n/a
80.0855	0.12	160171	keystroke_a	a	n/a
80.2355	0.075	160471	keystroke_n	n	n/a
80.2955	0.12	160591	keystroke_t	t	n/a
80.7455	0.075	161491	keystroke_Key.enter	Key.enter	n/a
80.8245	12.402	161649	prompt	n/a	swimming dealtime winning scores\n
81.435	0.0745	162870	keystroke_s	s	n/a
81.63	0.105	163260	keystroke_w	w	n/a
81.825	0.076	163650	keystroke_i	i	n/a
82.035	0.06	164070	keystroke_m	m	n/a
82.156	0.075	164312	keystroke_m	m	n/a
82.35	0.06	164700	keystroke_i	i	n/a
82.501	0.089	165002	keystroke_n	n	n/a
82.545	0.1355	165090	keystroke_g	g	n/a
82.6805	0.12	165361	keystroke_Key.space	Key.space	n/a
82.9205	0.075	165841	keystroke_d	d	n/a
83.386	0.014	166772	keystroke_e	e	n/a
83.506	0.134	167012	keystroke_a	a	n/a
83.67	0.09	167340	keystroke_l	l	n/a
84.5395	0.091	169079	keystroke_t	t	n/a
84.6755	0.075	169351	keystroke_i	i	n/a
84.8855	0.075	169771	keystroke_m	m	n/a
84.9745	0.0905	169949	keystroke_e	e	n/a
85.4405	0.105	170881	keystroke_Key.space	Key.space	n/a
85.7555	0.105	171511	keystroke_w	w	n/a
86.3705	0.075	172741	keystroke_Key.backspace	Key.backspace	n/a
90.4075	0.058	180815	keystroke_w	w	n/a
90.81	0.075	181620	keystroke_i	i	n/a
91.0505	0.06	182101	keystroke_n	n	n/a
91.4855	0.03	182971	keystroke_n	n	n/a
91.7705	0.075	183541	keystroke_i	i	n/a
91.9655	0.09	183931	keystroke_n	n	n/a
92.0105	0.09	184021	keystroke_g	g	n/a
92.0855	0.135	184171	keystroke_Key.space	Key.space	n/a
92.2955	0.105	184591	keystroke_s	s	n/a
92.4605	0.12	184921	keystroke_c	c	n/a
92.5955	0.09	185191	keystroke_o	o	n/a
92.6855	0.165	185371	keystroke_r	r	n/a
92.7905	0.195	185581	keystroke_e	e	n/a
92.9405	0.1195	185881	keystroke_s	s	n/a
93.165	0.06	186330	keystroke_Key.enter	Key.enter	n/a
93.23	15.372	186460	prompt	n/a	pins wellness outlined stranger\n
93.826	0.1045	187652	keystroke_p	p	n/a
93.99	0.045	187980	keystroke_i	i	n/a
94.155	0.06	188310	keystroke_n	n	n/a
94.275	0.12	188550	keystroke_s	s	n/a
94.41	0.135	188820	keystroke_Key.space	Key.space	n/a
94.785	0.1055	189570	keystroke_w	w	n/a
95.3255	0.075	190651	keystroke_e	e	n/a
95.5055	0.09	191011	keystroke_l	l	n/a
95.6855	0.06	191371	keystroke_l	l	n/a
95.85	0.06	191700	keystroke_n	n	n/a
95.94	0.18	191880	keystroke_e	e	n/a
96.09	0.15	192180	keystroke_s	s	n/a
96.2855	0.195	192571	keystroke_s	s	n/a
96.7055	0.12	193411	keystroke_Key.space	Key.space	n/a
96.8855	0.15	193771	keystroke_c	c	n/a
97.0055	0.12	194011	keystroke_o	o	n/a
97.1105	0.09	194221	keystroke_u	u	n/a
97.2905	0.0905	194581	keystroke_t	t	n/a
97.366	0.105	194732	keystroke_l	l	n/a
97.546	0.06	195092	keystroke_i	i	n/a
97.7255	0.09	195451	keystroke_n	n	n/a
97.8005	0.075	195601	keystroke_e	e	n/a
97.9955	0.12	195991	keystroke_d	d	n/a
98.1455	0.12	196291	keystroke_Key.space	Key.space	n/a
98.97	0.0745	197940	keystroke_Key.backspace	Key.backspace	n/a
99.4505	0.075	198901	keystroke_Key.backspace	Key.backspace	n/a
99.8555	0.075	199711	keystroke_Key.backspace	Key.backspace	n/a
100.2305	0.075	200461	keystroke_Key.backspace	Key.backspace	n/a
100.59	0.075	201180	keystroke_Key.backspace	Key.backspace	n/a
100.935	0.075	201870	keystroke_Key.backspace	Key.backspace	n/a
101.2955	0.0745	202591	keystroke_Key.backspace	Key.backspace	n/a
101.67	0.0605	203340	keystroke_Key.backspace	Key.backspace	n/a
102.0005	0.06	204001	keystroke_Key.backspace	Key.backspace	n/a
102.3605	0.06	204721	keystroke_Key.backspace	Key.backspace	n/a
102.5555	0.12	205111	keystroke_c	c	n/a
102.6905	0.15	205381	keystroke_o	o	n/a
102.8255	0.105	205651	keystroke_u	u	n/a
103.3805	0.045	206761	keystroke_Key.backspace	Key.backspace	n/a
103.6655	0.075	207331	keystroke_Key.backspace	Key.backspace	n/a
104.0255	0.06	208051	keystroke_Key.backspace	Key.backspace	n/a
104.7005	0.165	209401	keystroke_o	o	n/a
105.0305	0.09	210061	keystroke_u	u	n/a
105.3005	0.105	210601	keystroke_t	t	n/a
106.1405	0.105	212281	keystroke_l	l	n/a
106.3205	0.06	212641	keystroke_i	i	n/a
106.4855	0.06	212971	keystroke_n	n	n/a
106.8305	0.075	213661	keystroke_e	e	n/a
107.0255	0.0895	214051	keystroke_d	d	n/a
107.1305	0.105	214261	keystroke_Key.space	Key.space	n/a
107.3555	0.09	214711	keystroke_s	s	n/a
107.52	0.0905	215040	keystroke_t	t	n/a
107.7455	0.105	215491	keystroke_r	r	n/a
107.8355	0.165	215671	keystroke_a	a	n/a
108.0155	0.06	216031	keystroke_n	n	n/a
108.0905	0.075	216181	keystroke_g	g	n/a
108.2555	0.12	216511	keystroke_e	e	n/a
108.3305	0.12	216661	keystroke_r	r	n/a
108.555	0.045	217110	keystroke_Key.enter	Key.enter	n/a
108.6045	7.6775	217209	prompt	n/a	israeli agenda const observe\n
109.4405	0.06	218881	keystroke_i	i	n/a
109.576	0.089	219152	keystroke_s	s	n/a
109.9205	0.105	219841	keystroke_r	r	n/a
110.3105	0.105	220621	keystroke_a	a	n/a
110.5955	0.075	221191	keystroke_e	e	n/a
110.7905	0.105	221581	keystroke_l	l	n/a
111.0305	0.0145	222061	keystroke_i	i	n/a
111.12	0.09	222240	keystroke_Key.space	Key.space	n/a
111.45	0.105	222900	keystroke_a	a	n/a
111.675	0.075	223350	keystroke_g	g	n/a
111.915	0.12	223830	keystroke_e	e	n/a
112.125	0.0755	224250	keystroke_n	n	n/a
112.5	0.1055	225000	keystroke_d	d	n/a
112.606	0.1345	225212	keystroke_a	a	n/a
112.77	0.1055	225540	keystroke_Key.space	Key.space	n/a
113.0405	0.135	226081	keystroke_c	c	n/a
113.1905	0.12	226381	keystroke_o	o	n/a
113.3405	0.09	226681	keystroke_n	n	n/a
113.4455	0.12	226891	keystroke_s	s	n/a
113.6405	0.12	227281	keystroke_t	t	n/a
113.8055	0.15	227611	keystroke_Key.space	Key.space	n/a
114.226	0.09	228452	keystroke_o	o	n/a
114.946	0.1045	229892	keystroke_b	b	n/a
115.2305	0.1045	230461	keystroke_s	s	n/a
115.44	0.135	230880	keystroke_e	e	n/a
115.605	0.09	231210	keystroke_r	r	n/a
115.86	0.105	231720	keystroke_v	v	n/a
116.04	0.075	232080	keystroke_e	e	n/a
116.22	0.0605	232440	keystroke_Key.enter	Key.enter	n/a
116.2855	6.8215	232571	prompt	n/a	equipment reno awarded advertise\n
117.1055	0.105	234211	keystroke_e	e	n/a
117.3755	0.105	234751	keystroke_q	q	n/a
117.5705	0.09	235141	keystroke_u	u	n/a
117.7205	0.09	235441	keystroke_i	i	n/a
117.9455	0.075	235891	keystroke_p	p	n/a
118.336	0.0895	236672	keystroke_m	m	n/a
118.4705	0.135	236941	keystroke_e	e	n/a
118.6205	0.075	237241	keystroke_n	n	n/a
118.7105	0.12	237421	keystroke_t	t	n/a
118.8455	0.15	237691	keystroke_Key.space	Key.space	n/a
119.0705	0.105	238141	keystroke_r	r	n/a
119.1605	0.12	238321	keystroke_e	e	n/a
119.2955	0.075	238591	keystroke_n	n	n/a
119.4605	0.075	238921	keystroke_o	o	n/a
119.88	0.15	239760	keystroke_Key.space	Key.space	n/a
120.09	0.105	240180	keystroke_a	a	n/a
120.3	0.075	240600	keystroke_w	w	n/a
120.39	0.195	240780	keystroke_a	a	n/a
120.615	0.15	241230	keystroke_r	r	n/a
120.901	0.0895	241802	keystroke_d	d	n/a
121.0805	0.09	242161	keystroke_e	e	n/a
121.2905	0.12	242581	keystroke_d	d	n/a
121.3655	0.135	242731	keystroke_Key.space	Key.space	n/a
121.6055	0.1195	243211	keystroke_a	a	n/a
121.785	0.09	243570	keystroke_d	d	n/a
122.025	0.105	244050	keystroke_v	v	n/a
122.2505	0.105	244501	keystroke_e	e	n/a
122.3105	0.105	244621	keystroke_r	r	n/a
122.5205	0.09	245041	keystroke_t	t	n/a
122.5805	0.09	245161	keystroke_i	i	n/a
122.7455	0.135	245491	keystroke_s	s	n/a
122.8355	0.12	245671	keystroke_e	e	n/a
123.046	0.06	246092	keystroke_Key.enter	Key.enter	n/a
123.1095	7.4075	246219	prompt	n/a	donations trustees wearing personnel\n
123.7505	0.09	247501	keystroke_d	d	n/a
123.9305	0.12	247861	keystroke_o	o	n/a
124.0955	0.09	248191	keystroke_n	n	n/a
124.1555	0.15	248311	keystroke_a	a	n/a
124.3205	0.12	248641	keystroke_t	t	n/a
124.4105	0.195	248821	keystroke_i	i	n/a
124.5455	0.18	249091	keystroke_o	o	n/a
124.6955	0.12	249391	keystroke_n	n	n/a
124.876	0.105	249752	keystroke_s	s	n/a
124.965	0.151	249930	keystroke_Key.space	Key.space	n/a
125.266	0.09	250532	keystroke_t	t	n/a
125.476	0.09	250952	keystroke_r	r	n/a
125.641	0.06	251282	keystroke_u	u	n/a
125.761	0.165	251522	keystroke_s	s	n/a
125.971	0.12	251942	keystroke_t	t	n/a
126.676	0.089	253352	keystroke_e	e	n/a
126.84	0.091	253680	keystroke_e	e	n/a
127.035	0.136	254070	keystroke_s	s	n/a
127.186	0.135	254372	keystroke_Key.space	Key.space	n/a
127.546	0.135	255092	keystroke_w	w	n/a
127.696	0.27	255392	keystroke_e	e	n/a
127.831	0.135	255662	keystroke_a	a	n/a
127.936	0.165	255872	keystroke_r	r	n/a
128.116	0.12	256232	keystroke_i	i	n/a
128.326	0.09	256652	keystroke_n	n	n/a
128.385	0.091	256770	keystroke_g	g	n/a
128.446	0.15	256892	keystroke_Key.space	Key.space	n/a
128.701	0.105	257402	keystroke_p	p	n/a
128.791	0.165	257582	keystroke_e	e	n/a
128.911	0.089	257822	keystroke_r	r	n/a
129.135	0.105	258270	keystroke_s	s	n/a
129.225	0.165	258450	keystroke_o	o	n/a
129.375	0.106	258750	keystroke_n	n	n/a
129.9605	0.075	259921	keystroke_n	n	n/a
130.0955	0.075	260191	keystroke_e	e	n/a
130.2155	0.09	260431	keystroke_l	l	n/a
130.44	0.075	260880	keystroke_Key.enter	Key.enter	n/a
130.52	10.512	261040	prompt	n/a	convinced focuses supervision coming\n
131.2055	0.165	262411	keystroke_c	c	n/a
131.3555	0.165	262711	keystroke_o	o	n/a
131.5505	0.0745	263101	keystroke_n	n	n/a
131.715	0.12	263430	keystroke_v	v	n/a
131.82	0.09	263640	keystroke_i	i	n/a
132	0.09	264000	keystroke_n	n	n/a
132.06	0.181	264120	keystroke_c	c	n/a
132.225	0.106	264450	keystroke_e	e	n/a
132.436	0.12	264872	keystroke_d	d	n/a
132.601	0.0745	265202	keystroke_Key.space	Key.space	n/a
132.8555	0.135	265711	keystroke_f	f	n/a
133.0055	0.1205	266011	keystroke_o	o	n/a
133.711	0.135	267422	keystroke_c	c	n/a
133.861	0.03	267722	keystroke_u	u	n/a
134.011	0.09	268022	keystroke_s	s	n/a
135.0455	0.075	270091	keystroke_e	e	n/a
135.1955	0.18	270391	keystroke_s	s	n/a
135.3305	0.135	270661	keystroke_e	e	n/a
135.6305	0.12	271261	keystroke_Key.space	Key.space	n/a
136.4705	0.09	272941	keystroke_Key.backspace	Key.backspace	n/a
136.9355	0.0755	273871	keystroke_Key.backspace	Key.backspace	n/a
137.31	0.105	274620	keystroke_Key.space	Key.space	n/a
138.226	0.089	276452	keystroke_s	s	n/a
138.375	0.091	276750	keystroke_u	u	n/a
138.5555	0.09	277111	keystroke_p	p	n/a
138.6905	0.12	277381	keystroke_e	e	n/a
138.7655	0.09	277531	keystroke_r	r	n/a
139.0205	0.0895	278041	keystroke_v	v	n/a
139.125	0.0905	278250	keystroke_i	i	n/a
139.26	0.12	278520	keystroke_s	s	n/a
139.365	0.21	278730	keystroke_i	i	n/a
139.5155	0.195	279031	keystroke_o	o	n/a
139.725	0.09	279450	keystroke_n	n	n/a
139.8305	0.12	279661	keystroke_Key.space	Key.space	n/a
140.1605	0.12	280321	keystroke_c	c	n/a
140.2205	0.105	280441	keystroke_o	o	n/a
140.3855	0.09	280771	keystroke_m	m	n/a
140.5355	0.09	281071	keystroke_i	i	n/a
140.7005	0.09	281401	keystroke_n	n	n/a
140.8205	0.105	281641	keystroke_g	g	n/a
140.9555	0.075	281911	keystroke_Key.enter	Key.enter	n/a
141.036	12.8365	282072	prompt	n/a	disagree expand lawsuit butler\n
141.706	0.105	283412	keystroke_d	d	n/a
141.916	0.075	283832	keystroke_i	i	n/a
142.006	0.105	284012	keystroke_s	s	n/a
142.231	0.09	284462	keystroke_a	a	n/a
142.396	0.075	284792	keystroke_g	g	n/a
142.7555	0.15	285511	keystroke_r	r	n/a
142.8905	0.12	285781	keystroke_e	e	n/a
143.1005	0.09	286201	keystroke_e	e	n/a
143.2805	0.105	286561	keystroke_Key.space	Key.space	n/a
143.5355	0.075	287071	keystroke_e	e	n/a
143.7005	0.12	287401	keystroke_x	x	n/a
143.8655	0.0905	287731	keystroke_p	p	n/a
143.971	0.105	287942	keystroke_a	a	n/a
144.136	0.06	288272	keystroke_n	n	n/a
144.166	0.135	288332	keystroke_d	d	n/a
144.301	0.12	288602	keystroke_Key.space	Key.space	n/a
144.496	0.18	288992	keystroke_l	l	n/a
144.631	0.135	289262	keystroke_a	a	n/a
144.916	0.12	289832	keystroke_w	w	n/a
145.2005	0.09	290401	keystroke_s	s	n/a
145.4705	0.09	290941	keystroke_u	u	n/a
145.7705	0.135	291541	keystroke_i	i	n/a
145.8605	0.135	291721	keystroke_t	t	n/a
146.0105	0.12	292021	keystroke_e	e	n/a
146.1755	0.165	292351	keystroke_Key.space	Key.space	n/a
146.4755	0.075	292951	keystroke_b	b	n/a
146.9105	0.075	293821	keystroke_Key.backspace	Key.backspace	n/a
147.36	0.075	294720	keystroke_Key.backspace	Key.backspace	n/a
148.816	0.045	297632	keystroke_Key.backspace	Key.backspace	n/a
148.981	0.1195	297962	keystroke_Key.space	Key.space	n/a
149.476	0.12	298952	keystroke_b	b	n/a
150.046	0.09	300092	keystroke_t	t	n/a
150.286	0.09	300572	keystroke_l	l	n/a
150.391	0.135	300782	keystroke_e	e	n/a
150.511	0.135	301022	keystroke_r	r	n/a
150.9305	0.06	301861	keystroke_Key.backspace	Key.backspace	n/a
151.321	0.06	302642	keystroke_Key.backspace	Key.backspace	n/a
151.726	0.06	303452	keystroke_Key.backspace	Key.backspace	n/a
152.295	0.0455	304590	keystroke_Key.backspace	Key.backspace	n/a
152.8055	0.135	305611	keystroke_u	u	n/a
152.9855	0.12	305971	keystroke_t	t	n/a
153.406	0.0745	306812	keystroke_l	l	n/a
153.541	0.105	307082	keystroke_e	e	n/a
153.616	0.12	307232	keystroke_r	r	n/a
153.811	0.06	307622	keystroke_Key.enter	Key.enter	n/a
153.8755	10.1365	307751	prompt	n/a	sustained switches correspondence complexity\n
154.651	0.105	309302	keystroke_s	s	n/a
154.8755	0.075	309751	keystroke_u	u	n/a
155.0105	0.135	310021	keystroke_s	s	n/a
155.1905	0.09	310381	keystroke_t	t	n/a
155.7605	0.105	311521	keystroke_a	a	n/a
155.8805	0.075	311761	keystroke_i	i	n/a
156.0905	0.06	312181	keystroke_n	n	n/a
156.2105	0.09	312421	keystroke_e	e	n/a
156.4205	0.12	312841	keystroke_d	d	n/a
156.5255	0.12	313051	keystroke_Key.space	Key.space	n/a
156.7205	0.09	313441	keystroke_s	s	n/a
156.9455	0.1055	313891	keystroke_w	w	n/a
157.1255	0.09	314251	keystroke_i	i	n/a
157.5755	0.075	315151	keystroke_t	t	n/a
157.8305	0.12	315661	keystroke_c	c	n/a
158.0105	0.075	316021	keystroke_h	h	n/a
158.1155	0.18	316231	keystroke_e	e	n/a
158.2805	0.15	316561	keystroke_s	s	n/a
158.4455	0.135	316891	keystroke_Key.space	Key.space	n/a
158.731	0.15	317462	keystroke_c	c	n/a
158.896	0.105	317792	keystroke_o	o	n/a
159.061	0.09	318122	keystroke_r	r	n/a
159.5405	0.015	319081	keystroke_r	r	n/a
160.1105	0.09	320221	keystroke_e	e	n/a
160.3055	0.09	320611	keystroke_s	s	n/a
160.5155	0.06	321031	keystroke_p	p	n/a
160.7255	0.105	321451	keystroke_o	o	n/a
160.9655	0.075	321931	keystroke_n	n	n/a
161.132	0.0735	322264	keystroke_d	d	n/a
161.2955	0.105	322591	keystroke_e	e	n/a
161.4155	0.075	322831	keystroke_n	n	n/a
161.5655	0.165	323131	keystroke_c	c	n/a
161.6855	0.15	323371	keystroke_e	e	n/a
161.8055	0.135	323611	keystroke_Key.space	Key.space	n/a
162.0455	0.135	324091	keystroke_c	c	n/a
162.1655	0.135	324331	keystroke_o	o	n/a
162.4205	0.105	324841	keystroke_m	m	n/a
162.586	0.105	325172	keystroke_p	p	n/a
162.766	0.12	325532	keystroke_l	l	n/a
163.006	0.09	326012	keystroke_e	e	n/a
163.231	0.12	326462	keystroke_x	x	n/a
163.411	0.09	326822	keystroke_i	i	n/a
163.576	0.09	327152	keystroke_t	t	n/a
163.711	0.06	327422	keystroke_y	y	n/a
163.951	0.06	327902	keystroke_Key.enter	Key.enter	n/a
164.016	7.616	328032	prompt	n/a	canadian runs wired workplace\n
164.8505	0.165	329701	keystroke_c	c	n/a
165.0005	0.15	330001	keystroke_a	a	n/a
165.1655	0.06	330331	keystroke_n	n	n/a
165.736	0.105	331472	keystroke_a	a	n/a
165.976	0.105	331952	keystroke_d	d	n/a
166.5905	0.075	333181	keystroke_i	i	n/a
166.7405	0.105	333481	keystroke_a	a	n/a
166.9205	0.105	333841	keystroke_n	n	n/a
166.9805	0.15	333961	keystroke_Key.space	Key.space	n/a
167.2655	0.045	334531	keystroke_u	u	n/a
167.641	0.06	335282	keystroke_Key.backspace	Key.backspace	n/a
167.821	0.105	335642	keystroke_r	r	n/a
167.956	0.06	335912	keystroke_u	u	n/a
168.196	0.075	336392	keystroke_n	n	n/a
168.316	0.1495	336632	keystroke_s	s	n/a
168.4505	0.165	336901	keystroke_Key.space	Key.space	n/a
168.6455	0.12	337291	keystroke_w	w	n/a
168.7955	0.09	337591	keystroke_i	i	n/a
169.216	0.135	338432	keystroke_r	r	n/a
169.336	0.12	338672	keystroke_e	e	n/a
169.666	0.105	339332	keystroke_d	d	n/a
169.831	0.1495	339662	keystroke_Key.space	Key.space	n/a
170.1455	0.12	340291	keystroke_w	w	n/a
170.3405	0.075	340681	keystroke_o	o	n/a
170.4455	0.105	340891	keystroke_r	r	n/a
170.5655	0.075	341131	keystroke_k	k	n/a
170.7755	0.09	341551	keystroke_p	p	n/a
170.9405	0.12	341881	keystroke_l	l	n/a
171.0305	0.12	342061	keystroke_a	a	n/a
171.2105	0.21	342421	keystroke_c	c	n/a
171.3905	0.105	342781	keystroke_e	e	n/a
171.5855	0.045	343171	keystroke_Key.enter	Key.enter	n/a
171.636	13.9315	343272	prompt	n/a	ruby survey gras fioricet\n
172.2755	0.1055	344551	keystroke_r	r	n/a
172.486	0.075	344972	keystroke_u	u	n/a
172.726	0.105	345452	keystroke_b	b	n/a
172.891	0.045	345782	keystroke_y	y	n/a
173.086	0.15	346172	keystroke_Key.space	Key.space	n/a
173.641	0.12	347282	keystroke_s	s	n/a
173.9405	0.09	347881	keystroke_u	u	n/a
174.0605	0.1055	348121	keystroke_r	r	n/a
174.331	0.105	348662	keystroke_v	v	n/a
174.541	0.09	349082	keystroke_e	e	n/a
174.601	0.135	349202	keystroke_r	r	n/a
174.75	0.0465	349500	keystroke_y	y	n/a
175.0205	0.135	350041	keystroke_Key.space	Key.space	n/a
175.6205	0.105	351241	keystroke_g	g	n/a
175.8755	0.12	351751	keystroke_r	r	n/a
176.0105	0.165	352021	keystroke_a	a	n/a
176.1905	0.12	352381	keystroke_s	s	n/a
176.3555	0.105	352711	keystroke_Key.space	Key.space	n/a
176.896	0.0895	353792	keystroke_Key.backspace	Key.backspace	n/a
177.331	0.075	354662	keystroke_Key.backspace	Key.backspace	n/a
177.7505	0.075	355501	keystroke_Key.backspace	Key.backspace	n/a
178.1705	0.06	356341	keystroke_Key.backspace	Key.backspace	n/a
178.5455	0.075	357091	keystroke_Key.backspace	Key.backspace	n/a
178.9805	0.0755	357961	keystroke_Key.backspace	Key.backspace	n/a
179.416	0.075	358832	keystroke_Key.backspace	Key.backspace	n/a
179.836	0.045	359672	keystroke_Key.backspace	Key.backspace	n/a
180.391	0.06	360782	keystroke_y	y	n/a
180.511	0.12	361022	keystroke_Key.space	Key.space	n/a
180.706	0.1195	361412	keystroke_g	g	n/a
180.9305	0.1055	361861	keystroke_r	r	n/a
181.051	0.1645	362102	keystroke_a	a	n/a
181.2305	0.1355	362461	keystroke_s	s	n/a
181.381	0.1495	362762	keystroke_Key.space	Key.space	n/a
181.771	0.1195	363542	keystroke_f	f	n/a
184.0375	0.028	368075	keystroke_i	i	n/a
184.2305	0.09	368461	keystroke_o	o	n/a
184.4255	0.105	368851	keystroke_r	r	n/a
184.6955	0.075	369391	keystroke_i	i	n/a
185.011	0.1495	370022	keystroke_c	c	n/a
185.1615	0.1195	370323	keystroke_e	e	n/a
185.3105	0.135	370621	keystroke_t	t	n/a
185.5055	0.06	371011	keystroke_Key.enter	Key.enter	n/a
185.5725	11.9495	371145	prompt	n/a	springer opening hello setup\n
186.1955	0.0905	372391	keystroke_s	s	n/a
186.346	0.06	372692	keystroke_i	i	n/a
186.541	0.075	373082	keystroke_n	n	n/a
186.631	0.105	373262	keystroke_g	g	n/a
186.841	0.165	373682	keystroke_e	e	n/a
186.976	0.0895	373952	keystroke_r	r	n/a
187.4405	0.105	374881	keystroke_Key.backspace	Key.backspace	n/a
187.8005	0.075	375601	keystroke_Key.backspace	Key.backspace	n/a
188.1005	0.045	376201	keystroke_Key.backspace	Key.backspace	n/a
188.4155	0.075	376831	keystroke_Key.backspace	Key.backspace	n/a
188.776	0.06	377552	keystroke_Key.backspace	Key.backspace	n/a
189.181	0.105	378362	keystroke_p	p	n/a
189.541	0.105	379082	keystroke_r	r	n/a
189.631	0.0745	379262	keystroke_i	i	n/a
189.8255	0.09	379651	keystroke_n	n	n/a
189.8865	0.119	379773	keystroke_g	g	n/a
190.1405	0.15	380281	keystroke_e	e	n/a
190.2455	0.1355	380491	keystroke_r	r	n/a
190.456	0.135	380912	keystroke_Key.space	Key.space	n/a
190.636	0.18	381272	keystroke_o	o	n/a
190.771	0.09	381542	keystroke_p	p	n/a
190.876	0.15	381752	keystroke_e	e	n/a
191.011	0.06	382022	keystroke_n	n	n/a
191.161	0.075	382322	keystroke_i	i	n/a
191.341	0.075	382682	keystroke_n	n	n/a
191.371	0.09	382742	keystroke_g	g	n/a
191.461	0.105	382922	keystroke_Key.space	Key.space	n/a
191.671	0.075	383342	keystroke_h	h	n/a
191.776	0.105	383552	keystroke_e	e	n/a
191.896	0.09	383792	keystroke_l	l	n/a
192.061	0.105	384122	keystroke_l	l	n/a
192.241	0.0895	384482	keystroke_p	p	n/a
192.3605	0.12	384721	keystroke_Key.space	Key.space	n/a
193.141	0.075	386282	keystroke_Key.backspace	Key.backspace	n/a
193.381	0.075	386762	keystroke_Key.backspace	Key.backspace	n/a
193.681	0.045	387362	keystroke_o	o	n/a
194.071	0.135	388142	keystroke_Key.space	Key.space	n/a
194.281	0.06	388562	keystroke_s	s	n/a
194.881	0.105	389762	keystroke_e	e	n/a
196.771	0.105	393542	keystroke_t	t	n/a
197.041	0.12	394082	keystroke_u	u	n/a
197.221	0.045	394442	keystroke_p	p	n/a
197.461	0.06	394922	keystroke_Key.enter	Key.enter	n/a
197.525	7.7375	395050	prompt	n/a	wages camps numbers average\n
198.196	0.105	396392	keystroke_w	w	n/a
198.421	0.165	396842	keystroke_a	a	n/a
198.841	0.105	397682	keystroke_g	g	n/a
199.006	0.21	398012	keystroke_e	e	n/a
199.201	0.12	398402	keystroke_s	s	n/a
199.351	0.135	398702	keystroke_Key.space	Key.space	n/a
199.561	0.15	399122	keystroke_c	c	n/a
199.696	0.15	399392	keystroke_a	a	n/a
199.786	0.15	399572	keystroke_m	m	n/a
199.996	0.09	399992	keystroke_p	p	n/a
200.176	0.105	400352	keystroke_s	s	n/a
200.296	0.135	400592	keystroke_Key.space	Key.space	n/a
200.686	0.075	401372	keystroke_u	u	n/a
201.646	0.075	403292	keystroke_Key.backspace	Key.backspace	n/a
202.201	0.075	404402	keystroke_n	n	n/a
202.396	0.045	404792	keystroke_u	u	n/a
202.5915	0.074	405183	keystroke_m	m	n/a
202.6965	0.119	405393	keystroke_b	b	n/a
202.9365	0.165	405873	keystroke_e	e	n/a
203.0565	0.119	406113	keystroke_r	r	n/a
203.2365	0.119	406473	keystroke_s	s	n/a
203.3565	0.134	406713	keystroke_Key.space	Key.space	n/a
203.4765	0.104	406953	keystroke_a	a	n/a
203.7005	0.121	407401	keystroke_v	v	n/a
203.9115	0.1495	407823	keystroke_e	e	n/a
203.986	0.165	407972	keystroke_r	r	n/a
204.1665	0.225	408333	keystroke_a	a	n/a
204.3755	0.09	408751	keystroke_g	g	n/a
204.9015	0.089	409803	keystroke_e	e	n/a
205.2005	0.06	410401	keystroke_Key.enter	Key.enter	n/a
205.2655	11.697	410531	prompt	n/a	growth beyond earliest hunter\n
206.0705	0.105	412141	keystroke_g	g	n/a
206.2805	0.09	412561	keystroke_r	r	n/a
206.4455	0.09	412891	keystroke_o	o	n/a
206.5815	0.104	413163	keystroke_w	w	n/a
206.9405	0.105	413881	keystroke_t	t	n/a
207.0615	0.06	414123	keystroke_h	h	n/a
207.241	0.12	414482	keystroke_Key.space	Key.space	n/a
207.436	0.075	414872	keystroke_b	b	n/a
207.661	0.09	415322	keystroke_e	e	n/a
208.021	0.075	416042	keystroke_y	y	n/a
208.681	0.09	417362	keystroke_o	o	n/a
208.906	0.075	417812	keystroke_n	n	n/a
208.982	0.134	417964	keystroke_g	g	n/a
209.101	0.135	418202	keystroke_Key.space	Key.space	n/a
209.296	0.1495	418592	keystroke_e	e	n/a
209.4305	0.165	418861	keystroke_a	a	n/a
209.5805	0.12	419161	keystroke_r	r	n/a
209.7155	0.105	419431	keystroke_l	l	n/a
209.8955	0.075	419791	keystroke_i	i	n/a
209.9555	0.15	419911	keystroke_e	e	n/a
210.0755	0.135	420151	keystroke_s	s	n/a
210.5405	0.06	421081	keystroke_Key.backspace	Key.backspace	n/a
210.9005	0.045	421801	keystroke_Key.backspace	Key.backspace	n/a
211.2155	0.075	422431	keystroke_Key.backspace	Key.backspace	n/a
211.6055	0.045	423211	keystroke_Key.backspace	Key.backspace	n/a
211.9955	0.06	423991	keystroke_Key.backspace	Key.backspace	n/a
212.371	0.06	424742	keystroke_Key.backspace	Key.backspace	n/a
212.791	0.045	425582	keystroke_Key.backspace	Key.backspace	n/a
213.3605	0.045	426721	keystroke_Key.backspace	Key.backspace	n/a
213.8405	0.18	427681	keystroke_Key.backspace	Key.backspace	n/a
214.0805	0.105	428161	keystroke_d	d	n/a
214.2155	0.12	428431	keystroke_Key.space	Key.space	n/a
214.5915	0.149	429183	keystroke_e	e	n/a
214.7265	0.15	429453	keystroke_a	a	n/a
214.8615	0.09	429723	keystroke_r	r	n/a
215.0105	0.105	430021	keystroke_l	l	n/a
215.1605	0.09	430321	keystroke_i	i	n/a
215.2655	0.195	430531	keystroke_e	e	n/a
215.4155	0.195	430831	keystroke_s	s	n/a
215.5955	0.135	431191	keystroke_t	t	n/a
215.7155	0.165	431431	keystroke_Key.space	Key.space	n/a
216.0005	0.06	432001	keystroke_h	h	n/a
216.1655	0.06	432331	keystroke_u	u	n/a
216.3455	0.09	432691	keystroke_n	n	n/a
216.4505	0.1055	432901	keystroke_t	t	n/a
216.5705	0.15	433141	keystroke_e	e	n/a
216.6905	0.12	433381	keystroke_r	r	n/a
216.901	0.0595	433802	keystroke_Key.enter	Key.enter	n/a
216.9655	8.802	433931	prompt	n/a	adapters oakland topics substantial\n
217.606	0.09	435212	keystroke_a	a	n/a
218.101	0.135	436202	keystroke_d	d	n/a
218.296	0.135	436592	keystroke_a	a	n/a
218.851	0.03	437702	keystroke_p	p	n/a
219.331	0.105	438662	keystroke_t	t	n/a
219.511	0.15	439022	keystroke_e	e	n/a
219.586	0.12	439172	keystroke_r	r	n/a
219.841	0.105	439682	keystroke_s	s	n/a
219.961	0.12	439922	keystroke_Key.space	Key.space	n/a
220.246	0.09	440492	keystroke_o	o	n/a
220.396	0.135	440792	keystroke_a	a	n/a
220.576	0.075	441152	keystroke_k	k	n/a
220.846	0.105	441692	keystroke_l	l	n/a
220.996	0.105	441992	keystroke_a	a	n/a
221.116	0.075	442232	keystroke_n	n	n/a
221.206	0.12	442412	keystroke_d	d	n/a
221.311	0.135	442622	keystroke_Key.space	Key.space	n/a
221.596	0.06	443192	keystroke_t	t	n/a
221.761	0.15	443522	keystroke_o	o	n/a
221.956	0.1045	443912	keystroke_p	p	n/a
222.1355	0.0755	444271	keystroke_i	i	n/a
222.331	0.135	444662	keystroke_c	c	n/a
223.081	0.225	446162	keystroke_s	s	n/a
223.321	0.015	446642	keystroke_Key.space	Key.space	n/a
223.501	0.105	447002	keystroke_s	s	n/a
223.726	0.075	447452	keystroke_u	u	n/a
223.951	0.105	447902	keystroke_b	b	n/a
224.191	0.135	448382	keystroke_s	s	n/a
224.401	0.12	448802	keystroke_t	t	n/a
224.536	0.135	449072	keystroke_a	a	n/a
224.746	0.06	449492	keystroke_n	n	n/a
225.1055	0.105	450211	keystroke_t	t	n/a
225.2255	0.075	450451	keystroke_i	i	n/a
225.3305	0.12	450661	keystroke_a	a	n/a
225.4515	0.104	450903	keystroke_l	l	n/a
225.7205	0.045	451441	keystroke_Key.enter	Key.enter	n/a
225.77	5.4275	451540	prompt	n/a	protest myself wall alter\n
226.516	0.0895	453032	keystroke_p	p	n/a
226.6355	0.135	453271	keystroke_r	r	n/a
226.7555	0.09	453511	keystroke_o	o	n/a
226.9505	0.121	453901	keystroke_t	t	n/a
227.0565	0.12	454113	keystroke_e	e	n/a
227.2515	0.12	454503	keystroke_s	s	n/a
227.3865	0.12	454773	keystroke_t	t	n/a
227.4765	0.135	454953	keystroke_Key.space	Key.space	n/a
227.716	0.09	455432	keystroke_m	m	n/a
228.001	0.075	456002	keystroke_y	y	n/a
228.241	0.18	456482	keystroke_s	s	n/a
228.391	0.15	456782	keystroke_e	e	n/a
228.571	0.105	457142	keystroke_l	l	n/a
228.736	0.225	457472	keystroke_f	f	n/a
229.261	0.135	458522	keystroke_Key.space	Key.space	n/a
229.381	0.105	458762	keystroke_w	w	n/a
229.516	0.135	459032	keystroke_a	a	n/a
229.621	0.09	459242	keystroke_l	l	n/a
229.801	0.075	459602	keystroke_l	l	n/a
229.906	0.12	459812	keystroke_Key.space	Key.space	n/a
230.326	0.12	460652	keystroke_a	a	n/a
230.461	0.105	460922	keystroke_l	l	n/a
230.671	0.12	461342	keystroke_t	t	n/a
230.821	0.135	461642	keystroke_e	e	n/a
230.926	0.1195	461852	keystroke_r	r	n/a
231.1205	0.0755	462241	keystroke_Key.enter	Key.enter	n/a
231.2005	25.3025	462401	prompt	n/a	briefing laboratories atmosphere rwanda\n
232.1265	0.105	464253	keystroke_b	b	n/a
232.3815	0.105	464763	keystroke_e	e	n/a
233.0715	0.15	466143	keystroke_Key.backspace	Key.backspace	n/a
233.2365	0.015	466473	keystroke_r	r	n/a
233.2965	0.06	466593	keystroke_i	i	n/a
233.5365	0.12	467073	keystroke_e	e	n/a
233.7615	0.135	467523	keystroke_f	f	n/a
233.9265	0.06	467853	keystroke_i	i	n/a
234.1365	0.09	468273	keystroke_n	n	n/a
234.2115	0.195	468423	keystroke_g	g	n/a
234.4515	0.195	468903	keystroke_Key.space	Key.space	n/a
234.976	0.0895	469952	keystroke_l	l	n/a
235.0805	0.121	470161	keystroke_a	a	n/a
235.576	0.105	471152	keystroke_b	b	n/a
236.131	0.105	472262	keystroke_o	o	n/a
236.281	0.12	472562	keystroke_r	r	n/a
236.461	0.135	472922	keystroke_a	a	n/a
236.626	0.105	473252	keystroke_t	t	n/a
237.391	0.09	474782	keystroke_o	o	n/a
237.5565	0.09	475113	keystroke_r	r	n/a
237.7065	0.105	475413	keystroke_i	i	n/a
237.8265	0.165	475653	keystroke_e	e	n/a
237.9465	0.15	475893	keystroke_s	s	n/a
238.1415	0.135	476283	keystroke_Key.space	Key.space	n/a
238.4715	0.165	476943	keystroke_a	a	n/a
239.131	0.12	478262	keystroke_t	t	n/a
239.341	0.105	478682	keystroke_o	o	n/a
239.521	0.105	479042	keystroke_m	m	n/a
239.806	0.105	479612	keystroke_s	s	n/a
239.971	0.09	479942	keystroke_p	p	n/a
240.256	0.075	480512	keystroke_h	h	n/a
240.391	0.165	480782	keystroke_e	e	n/a
240.511	0.165	481022	keystroke_r	r	n/a
240.631	0.12	481262	keystroke_e	e	n/a
240.796	0.165	481592	keystroke_Key.space	Key.space	n/a
241.921	0.075	483842	keystroke_Key.backspace	Key.backspace	n/a
245.568	0.013	491136	keystroke_Key.backspace	Key.backspace	n/a
245.9565	0.06	491913	keystroke_Key.backspace	Key.backspace	n/a
247.891	0.09	495782	keystroke_Key.backspace	Key.backspace	n/a
248.2965	0.045	496593	keystroke_Key.backspace	Key.backspace	n/a
248.8665	0.0745	497733	keystroke_Key.backspace	Key.backspace	n/a
249.301	0.06	498602	keystroke_Key.backspace	Key.backspace	n/a
249.706	0.06	499412	keystroke_Key.backspace	Key.backspace	n/a
250.201	0.045	500402	keystroke_Key.backspace	Key.backspace	n/a
250.9365	0.105	501873	keystroke_m	m	n/a
251.1015	0.09	502203	keystroke_o	o	n/a
251.3115	0.105	502623	keystroke_s	s	n/a
251.971	0.105	503942	keystroke_p	p	n/a
252.181	0.075	504362	keystroke_h	h	n/a
252.331	0.165	504662	keystroke_e	e	n/a
252.451	0.15	504902	keystroke_r	r	n/a
252.556	0.15	505112	keystroke_e	e	n/a
252.721	0.165	505442	keystroke_Key.space	Key.space	n/a
253.456	0.075	506912	keystroke_r	r	n/a
253.726	0.105	507452	keystroke_w	w	n/a
255.4665	0.119	510933	keystroke_a	a	n/a
255.646	0.0755	511292	keystroke_n	n	n/a
256.0065	0.105	512013	keystroke_d	d	n/a
256.1865	0.12	512373	keystroke_a	a	n/a
256.4415	0.06	512883	keystroke_Key.enter	Key.enter	n/a
256.506	6.732	513012	prompt	n/a	campus douglas yours assembly\n
257.191	0.135	514382	keystroke_c	c	n/a
257.341	0.12	514682	keystroke_a	a	n/a
257.446	0.105	514892	keystroke_m	m	n/a
257.6115	0.075	515223	keystroke_p	p	n/a
257.7465	0.075	515493	keystroke_u	u	n/a
257.8665	0.135	515733	keystroke_s	s	n/a
257.9865	0.165	515973	keystroke_Key.space	Key.space	n/a
258.4815	0.12	516963	keystroke_d	d	n/a
258.6465	0.15	517293	keystroke_o	o	n/a
258.7665	0.09	517533	keystroke_u	u	n/a
258.976	0.12	517952	keystroke_g	g	n/a
259.126	0.09	518252	keystroke_l	l	n/a
259.276	0.15	518552	keystroke_a	a	n/a
259.441	0.12	518882	keystroke_s	s	n/a
259.591	0.12	519182	keystroke_Key.space	Key.space	n/a
260.026	0.075	520052	keystroke_y	y	n/a
260.131	0.195	520262	keystroke_o	o	n/a
260.281	0.105	520562	keystroke_u	u	n/a
260.446	0.09	520892	keystroke_r	r	n/a
260.686	0.105	521372	keystroke_s	s	n/a
261.4365	0.135	522873	keystroke_Key.space	Key.space	n/a
261.7815	0.09	523563	keystroke_a	a	n/a
261.9465	0.0745	523893	keystroke_s	s	n/a
262.081	0.09	524162	keystroke_s	s	n/a
262.291	0.135	524582	keystroke_e	e	n/a
262.456	0.09	524912	keystroke_m	m	n/a
262.651	0.105	525302	keystroke_b	b	n/a
262.757	0.104	525514	keystroke_l	l	n/a
262.966	0.045	525932	keystroke_y	y	n/a
263.176	0.06	526352	keystroke_Key.enter	Key.enter	n/a
263.2405	7.2875	526481	prompt	n/a	counsel topics chip genome\n
263.941	0.12	527882	keystroke_c	c	n/a
264.256	0.09	528512	keystroke_u	u	n/a
265.067	0.074	530134	keystroke_Key.backspace	Key.backspace	n/a
265.3665	0.105	530733	keystroke_o	o	n/a
265.5165	0.06	531033	keystroke_u	u	n/a
265.6965	0.075	531393	keystroke_n	n	n/a
265.8165	0.135	531633	keystroke_s	s	n/a
265.9065	0.12	531813	keystroke_e	e	n/a
266.0415	0.105	532083	keystroke_l	l	n/a
266.1915	0.135	532383	keystroke_Key.space	Key.space	n/a
266.641	0.1055	533282	keystroke_t	t	n/a
266.8215	0.105	533643	keystroke_o	o	n/a
267.0315	0.09	534063	keystroke_p	p	n/a
267.2415	0.09	534483	keystroke_i	i	n/a
267.4665	0.12	534933	keystroke_c	c	n/a
267.9015	0.1355	535803	keystroke_s	s	n/a
268.082	0.134	536164	keystroke_Key.space	Key.space	n/a
268.427	0.12	536854	keystroke_c	c	n/a
268.502	0.075	537004	keystroke_h	h	n/a
268.652	0.18	537304	keystroke_i	i	n/a
268.847	0.12	537694	keystroke_p	p	n/a
268.981	0.12	537962	keystroke_Key.space	Key.space	n/a
269.281	0.075	538562	keystroke_g	g	n/a
269.446	0.135	538892	keystroke_e	e	n/a
269.596	0.06	539192	keystroke_n	n	n/a
269.776	0.075	539552	keystroke_o	o	n/a
270.061	0.105	540122	keystroke_m	m	n/a
270.286	0.09	540572	keystroke_e	e	n/a
270.481	0.045	540962	keystroke_Key.enter	Key.enter	n/a
270.531	5.202	541062	prompt	n/a	fake lakes nominations markers\n
271.171	0.135	542342	keystroke_f	f	n/a
271.337	0.12	542674	keystroke_a	a	n/a
271.547	0.12	543094	keystroke_k	k	n/a
271.652	0.12	543304	keystroke_e	e	n/a
271.787	0.15	543574	keystroke_Key.space	Key.space	n/a
271.982	0.09	543964	keystroke_l	l	n/a
272.056	0.121	544112	keystroke_a	a	n/a
272.237	0.12	544474	keystroke_k	k	n/a
272.372	0.135	544744	keystroke_e	e	n/a
272.597	0.1195	545194	keystroke_s	s	n/a
272.7315	0.135	545463	keystroke_Key.space	Key.space	n/a
273.0165	0.0895	546033	keystroke_n	n	n/a
273.226	0.09	546452	keystroke_o	o	n/a
273.407	0.074	546814	keystroke_m	m	n/a
273.571	0.075	547142	keystroke_i	i	n/a
273.766	0.075	547532	keystroke_n	n	n/a
273.886	0.15	547772	keystroke_a	a	n/a
274.051	0.105	548102	keystroke_t	t	n/a
274.126	0.24	548252	keystroke_i	i	n/a
274.246	0.21	548492	keystroke_o	o	n/a
274.441	0.12	548882	keystroke_n	n	n/a
274.516	0.105	549032	keystroke_s	s	n/a
274.636	0.1655	549272	keystroke_Key.space	Key.space	n/a
274.7415	0.075	549483	keystroke_m	m	n/a
274.7865	0.15	549573	keystroke_a	a	n/a
274.9815	0.075	549963	keystroke_r	r	n/a
275.0715	0.045	550143	keystroke_k	k	n/a
275.1465	0.21	550293	keystroke_e	e	n/a
275.2965	0.135	550593	keystroke_r	r	n/a
275.5065	0.105	551013	keystroke_s	s	n/a
275.6565	0.075	551313	keystroke_Key.enter	Key.enter	n/a
275.736	9.147	551472	prompt	n/a	they've based adsl comparable\n
276.632	0.089	553264	keystroke_t	t	n/a
276.736	0.075	553472	keystroke_h	h	n/a
276.826	0.105	553652	keystroke_e	e	n/a
276.946	0.06	553892	keystroke_y	y	n/a
277.591	0.076	555182	keystroke_'	'	n/a
277.8615	0.09	555723	keystroke_v	v	n/a
278.056	0.12	556112	keystroke_e	e	n/a
278.161	0.135	556322	keystroke_Key.space	Key.space	n/a
278.7465	0.075	557493	keystroke_b	b	n/a
278.8815	0.1345	557763	keystroke_a	a	n/a
279.031	0.136	558062	keystroke_s	s	n/a
279.152	0.12	558304	keystroke_e	e	n/a
279.377	0.105	558754	keystroke_d	d	n/a
279.467	0.135	558934	keystroke_Key.space	Key.space	n/a
279.617	0.12	559234	keystroke_a	a	n/a
280.007	0.09	560014	keystroke_d	d	n/a
280.442	0.09	560884	keystroke_s	s	n/a
280.652	0.089	561304	keystroke_l	l	n/a
280.787	0.149	561574	keystroke_Key.space	Key.space	n/a
281.371	0.1055	562742	keystroke_c	c	n/a
281.5365	0.1045	563073	keystroke_o	o	n/a
281.731	0.091	563462	keystroke_m	m	n/a
281.911	0.075	563822	keystroke_p	p	n/a
282.017	0.135	564034	keystroke_a	a	n/a
282.167	0.119	564334	keystroke_r	r	n/a
283.126	0.06	566252	keystroke_a	a	n/a
283.306	0.075	566612	keystroke_b	b	n/a
283.471	0.09	566942	keystroke_l	l	n/a
283.606	0.105	567212	keystroke_e	e	n/a
284.837	0.0445	569674	keystroke_Key.enter	Key.enter	n/a
284.8875	6.2505	569775	prompt	n/a	guru nick adaptive failure\n
285.646	0.09	571292	keystroke_g	g	n/a
285.991	0.06	571982	keystroke_u	u	n/a
286.321	0.09	572642	keystroke_r	r	n/a
286.516	0.045	573032	keystroke_u	u	n/a
286.681	0.15	573362	keystroke_Key.space	Key.space	n/a
287.2365	0.075	574473	keystroke_n	n	n/a
287.4015	0.06	574803	keystroke_i	i	n/a
287.5515	0.105	575103	keystroke_c	c	n/a
287.6865	0.06	575373	keystroke_k	k	n/a
287.7765	0.135	575553	keystroke_Key.space	Key.space	n/a
288.0765	0.105	576153	keystroke_a	a	n/a
288.2565	0.12	576513	keystroke_d	d	n/a
288.8415	0.12	577683	keystroke_a	a	n/a
288.9615	0.0905	577923	keystroke_p	p	n/a
289.096	0.105	578192	keystroke_t	t	n/a
289.186	0.09	578372	keystroke_i	i	n/a
289.396	0.105	578792	keystroke_v	v	n/a
289.561	0.12	579122	keystroke_e	e	n/a
289.666	0.12	579332	keystroke_Key.space	Key.space	n/a
289.8765	0.12	579753	keystroke_f	f	n/a
290.0265	0.105	580053	keystroke_a	a	n/a
290.1615	0.06	580323	keystroke_i	i	n/a
290.3265	0.105	580653	keystroke_l	l	n/a
290.5665	0.075	581133	keystroke_u	u	n/a
290.7165	0.165	581433	keystroke_r	r	n/a
290.8515	0.105	581703	keystroke_e	e	n/a
291.0765	0.06	582153	keystroke_Key.enter	Key.enter	n/a
291.1415	6.431	582283	prompt	n/a	coach wearing metro whatever\n
291.871	0.135	583742	keystroke_c	c	n/a
292.156	0.076	584312	keystroke_o	o	n/a
292.336	0.1055	584672	keystroke_a	a	n/a
292.6965	0.12	585393	keystroke_c	c	n/a
292.8465	0.075	585693	keystroke_h	h	n/a
292.9665	0.135	585933	keystroke_Key.space	Key.space	n/a
293.2815	0.105	586563	keystroke_w	w	n/a
293.4765	0.255	586953	keystroke_e	e	n/a
294.0015	0.15	588003	keystroke_a	a	n/a
294.1515	0.12	588303	keystroke_r	r	n/a
294.3465	0.075	588693	keystroke_i	i	n/a
294.5565	0.105	589113	keystroke_n	n	n/a
294.6165	0.135	589233	keystroke_g	g	n/a
294.7215	0.195	589443	keystroke_Key.space	Key.space	n/a
295.0065	0.075	590013	keystroke_m	m	n/a
295.0665	0.09	590133	keystroke_e	e	n/a
295.2315	0.0605	590463	keystroke_t	t	n/a
295.427	0.09	590854	keystroke_r	r	n/a
295.547	0.104	591094	keystroke_o	o	n/a
295.666	0.12	591332	keystroke_Key.space	Key.space	n/a
295.816	0.105	591632	keystroke_w	w	n/a
296.041	0.06	592082	keystroke_h	h	n/a
296.116	0.12	592232	keystroke_a	a	n/a
296.6415	0.09	593283	keystroke_t	t	n/a
296.8515	0.09	593703	keystroke_e	e	n/a
297.0615	0.075	594123	keystroke_v	v	n/a
297.1965	0.15	594393	keystroke_e	e	n/a
297.3165	0.12	594633	keystroke_r	r	n/a
297.5115	0.06	595023	keystroke_Key.enter	Key.enter	n/a
297.5755	7.5275	595151	prompt	n/a	generations semi nights specialists\n
298.2765	0.06	596553	keystroke_g	g	n/a
298.5465	0.03	597093	keystroke_e	e	n/a
298.5615	0.045	597123	keystroke_n	n	n/a
298.6365	0.165	597273	keystroke_e	e	n/a
298.7415	0.15	597483	keystroke_r	r	n/a
298.8765	0.18	597753	keystroke_a	a	n/a
299.0265	0.12	598053	keystroke_t	t	n/a
299.1315	0.2245	598263	keystroke_i	i	n/a
299.2215	0.2095	598443	keystroke_o	o	n/a
299.416	0.1355	598832	keystroke_n	n	n/a
299.5365	0.12	599073	keystroke_s	s	n/a
299.6415	0.135	599283	keystroke_Key.space	Key.space	n/a
299.941	0.135	599882	keystroke_s	s	n/a
300.061	0.105	600122	keystroke_e	e	n/a
300.271	0.075	600542	keystroke_m	m	n/a
300.451	0.06	600902	keystroke_i	i	n/a
300.961	0.1505	601922	keystroke_Key.space	Key.space	n/a
301.936	0.06	603872	keystroke_n	n	n/a
302.0865	0.0745	604173	keystroke_i	i	n/a
302.221	0.09	604442	keystroke_g	g	n/a
302.326	0.09	604652	keystroke_h	h	n/a
302.431	0.075	604862	keystroke_t	t	n/a
302.566	0.15	605132	keystroke_s	s	n/a
302.701	0.106	605402	keystroke_Key.space	Key.space	n/a
302.837	0.074	605674	keystroke_s	s	n/a
302.942	0.09	605884	keystroke_p	p	n/a
303.0765	0.15	606153	keystroke_e	e	n/a
303.3315	0.1195	606663	keystroke_c	c	n/a
303.511	0.076	607022	keystroke_i	i	n/a
304.097	0.105	608194	keystroke_a	a	n/a
304.232	0.104	608464	keystroke_l	l	n/a
304.4265	0.09	608853	keystroke_i	i	n/a
304.5465	0.165	609093	keystroke_s	s	n/a
304.6965	0.105	609393	keystroke_t	t	n/a
304.8315	0.1205	609663	keystroke_s	s	n/a
305.0265	0.075	610053	keystroke_Key.enter	Key.enter	n/a
305.107	7.5255	610214	prompt	n/a	humidity occupations saver coverage\n
305.776	0.075	611552	keystroke_h	h	n/a
305.956	0.06	611912	keystroke_u	u	n/a
306.1815	0.06	612363	keystroke_m	m	n/a
306.9165	0.06	613833	keystroke_i	i	n/a
307.0965	0.105	614193	keystroke_d	d	n/a
307.2915	0.075	614583	keystroke_i	i	n/a
307.4265	0.09	614853	keystroke_t	t	n/a
307.591	0.045	615182	keystroke_y	y	n/a
307.726	0.135	615452	keystroke_Key.space	Key.space	n/a
308.176	0.105	616352	keystroke_o	o	n/a
308.401	0.09	616802	keystroke_c	c	n/a
308.566	0.09	617132	keystroke_c	c	n/a
308.716	0.15	617432	keystroke_u	u	n/a
308.881	0.105	617762	keystroke_p	p	n/a
309.001	0.1655	618002	keystroke_a	a	n/a
309.1815	0.105	618363	keystroke_t	t	n/a
309.302	0.18	618604	keystroke_i	i	n/a
309.407	0.225	618814	keystroke_o	o	n/a
309.617	0.12	619234	keystroke_n	n	n/a
309.752	0.135	619504	keystroke_s	s	n/a
309.887	0.135	619774	keystroke_Key.space	Key.space	n/a
310.172	0.075	620344	keystroke_s	s	n/a
310.306	0.09	620612	keystroke_a	a	n/a
310.486	0.106	620972	keystroke_v	v	n/a
310.681	0.12	621362	keystroke_e	e	n/a
310.772	0.149	621544	keystroke_r	r	n/a
310.906	0.15	621812	keystroke_Key.space	Key.space	n/a
311.387	0.104	622774	keystroke_c	c	n/a
311.551	0.09	623102	keystroke_o	o	n/a
311.671	0.105	623342	keystroke_v	v	n/a
311.881	0.12	623762	keystroke_e	e	n/a
311.941	0.135	623882	keystroke_r	r	n/a
312.106	0.18	624212	keystroke_a	a	n/a
312.271	0.135	624542	keystroke_g	g	n/a
312.421	0.09	624842	keystroke_e	e	n/a
312.586	0.045	625172	keystroke_Key.enter	Key.enter	n/a
312.6355	7.7525	625271	prompt	n/a	follows roles ebooks angel\n
313.2015	0.15	626403	keystroke_f	f	n/a
313.3665	0.075	626733	keystroke_o	o	n/a
313.5465	0.06	627093	keystroke_l	l	n/a
313.6665	0.06	627333	keystroke_l	l	n/a
313.8465	0.09	627693	keystroke_o	o	n/a
313.8765	0.105	627753	keystroke_w	w	n/a
314.1015	0.105	628203	keystroke_s	s	n/a
314.2065	0.135	628413	keystroke_Key.space	Key.space	n/a
314.5965	0.105	629193	keystroke_r	r	n/a
314.7315	0.075	629463	keystroke_o	o	n/a
314.9115	0.09	629823	keystroke_l	l	n/a
314.9565	0.1505	629913	keystroke_e	e	n/a
315.136	0.135	630272	keystroke_s	s	n/a
315.286	0.105	630572	keystroke_Key.space	Key.space	n/a
315.557	0.104	631114	keystroke_e	e	n/a
315.8715	0.135	631743	keystroke_b	b	n/a
316.1415	0.03	632283	keystroke_o	o	n/a
316.3365	0.015	632673	keystroke_o	o	n/a
316.4565	0.105	632913	keystroke_k	k	n/a
316.9665	0.105	633933	keystroke_s	s	n/a
317.1615	0.09	634323	keystroke_Key.space	Key.space	n/a
317.371	0.1355	634742	keystroke_a	a	n/a
317.507	0.059	635014	keystroke_n	n	n/a
317.6265	0.0895	635253	keystroke_g	g	n/a
318.1065	0.09	636213	keystroke_l	l	n/a
318.2565	0.12	636513	keystroke_e	e	n/a
319.321	0.06	638642	keystroke_Key.backspace	Key.backspace	n/a
319.666	0.045	639332	keystroke_Key.backspace	Key.backspace	n/a
319.906	0.105	639812	keystroke_e	e	n/a
319.996	0.135	639992	keystroke_l	l	n/a
320.311	0.075	640622	keystroke_Key.enter	Key.enter	n/a
320.3915	6.4465	640783	prompt	n/a	mail picks housewares you're\n
321.1815	0.09	642363	keystroke_m	m	n/a
321.3165	0.1345	642633	keystroke_a	a	n/a
321.436	0.075	642872	keystroke_i	i	n/a
321.586	0.105	643172	keystroke_l	l	n/a
321.676	0.135	643352	keystroke_Key.space	Key.space	n/a
321.931	0.105	643862	keystroke_p	p	n/a
322.141	0.075	644282	keystroke_i	i	n/a
322.336	0.105	644672	keystroke_c	c	n/a
322.501	0.0755	645002	keystroke_k	k	n/a
322.6065	0.105	645213	keystroke_s	s	n/a
322.8015	0.12	645603	keystroke_Key.space	Key.space	n/a
323.2365	0.06	646473	keystroke_h	h	n/a
323.3715	0.165	646743	keystroke_o	o	n/a
323.477	0.1045	646954	keystroke_u	u	n/a
323.9265	0.15	647853	keystroke_s	s	n/a
324.0465	0.105	648093	keystroke_e	e	n/a
324.2115	0.135	648423	keystroke_w	w	n/a
324.3165	0.18	648633	keystroke_a	a	n/a
324.5265	0.135	649053	keystroke_r	r	n/a
324.6165	0.12	649233	keystroke_e	e	n/a
324.8265	0.09	649653	keystroke_s	s	n/a
324.9315	0.1205	649863	keystroke_Key.space	Key.space	n/a
325.142	0.09	650284	keystroke_y	y	n/a
325.277	0.24	650554	keystroke_o	o	n/a
325.486	0.106	650972	keystroke_u	u	n/a
326.236	0.075	652472	keystroke_'	'	n/a
326.356	0.136	652712	keystroke_r	r	n/a
326.446	0.12	652892	keystroke_e	e	n/a
326.7615	0.075	653523	keystroke_Key.enter	Key.enter	n/a
326.8405	9.8675	653681	prompt	n/a	formation workout salon bridges\n
327.4065	0.135	654813	keystroke_f	f	n/a
327.5565	0.09	655113	keystroke_o	o	n/a
327.6615	0.075	655323	keystroke_r	r	n/a
327.7815	0.075	655563	keystroke_m	m	n/a
327.8415	0.105	655683	keystroke_a	a	n/a
328.006	0.105	656012	keystroke_t	t	n/a
328.066	0.225	656132	keystroke_i	i	n/a
328.186	0.18	656372	keystroke_o	o	n/a
328.351	0.12	656702	keystroke_n	n	n/a
328.472	0.119	656944	keystroke_Key.space	Key.space	n/a
328.666	0.105	657332	keystroke_w	w	n/a
328.772	0.104	657544	keystroke_o	o	n/a
328.891	0.09	657782	keystroke_r	r	n/a
329.372	0.06	658744	keystroke_k	k	n/a
329.702	0.1045	659404	keystroke_o	o	n/a
329.8215	0.12	659643	keystroke_u	u	n/a
329.987	0.15	659974	keystroke_t	t	n/a
330.107	0.1495	660214	keystroke_Key.space	Key.space	n/a
330.2865	0.135	660573	keystroke_s	s	n/a
330.407	0.1345	660814	keystroke_a	a	n/a
330.556	0.075	661112	keystroke_l	l	n/a
330.737	0.09	661474	keystroke_o	o	n/a
330.932	0.105	661864	keystroke_n	n	n/a
331.052	0.1045	662104	keystroke_Key.space	Key.space	n/a
331.4565	0.105	662913	keystroke_b	b	n/a
331.6965	0.135	663393	keystroke_r	r	n/a
331.9365	0.105	663873	keystroke_i	i	n/a
332.4165	0.09	664833	keystroke_d	d	n/a
332.6265	0.105	665253	keystroke_s	s	n/a
332.7465	0.1345	665493	keystroke_g	g	n/a
332.896	0.09	665792	keystroke_e	e	n/a
333.541	0.015	667082	keystroke_Key.backspace	Key.backspace	n/a
333.841	0.03	667682	keystroke_Key.backspace	Key.backspace	n/a
334.231	0.06	668462	keystroke_Key.backspace	Key.backspace	n/a
335.371	0.15	670742	keystroke_g	g	n/a
336.212	0.165	672424	keystroke_e	e	n/a
336.362	0.12	672724	keystroke_s	s	n/a
336.6465	0.06	673293	keystroke_Key.enter	Key.enter	n/a
336.712	11.156	673424	prompt	n/a	eventually participating cargo hunt\n
337.3215	0.075	674643	keystroke_e	e	n/a
337.4865	0.1055	674973	keystroke_v	v	n/a
337.637	0.135	675274	keystroke_e	e	n/a
337.787	0.075	675574	keystroke_n	n	n/a
337.876	0.106	675752	keystroke_t	t	n/a
338.011	0.1355	676022	keystroke_a	a	n/a
338.1015	0.0755	676203	keystroke_l	l	n/a
338.2515	0.09	676503	keystroke_l	l	n/a
338.4465	0.09	676893	keystroke_y	y	n/a
338.5215	0.12	677043	keystroke_Key.space	Key.space	n/a
338.6565	0.105	677313	keystroke_p	p	n/a
338.8065	0.1805	677613	keystroke_a	a	n/a
339.451	0.045	678902	keystroke_Key.backspace	Key.backspace	n/a
339.827	0.074	679654	keystroke_Key.backspace	Key.backspace	n/a
340.216	0.0755	680432	keystroke_Key.backspace	Key.backspace	n/a
340.6965	0.075	681393	keystroke_Key.backspace	Key.backspace	n/a
341.192	0.06	682384	keystroke_Key.backspace	Key.backspace	n/a
341.642	0.06	683284	keystroke_Key.backspace	Key.backspace	n/a
341.987	0.06	683974	keystroke_Key.backspace	Key.backspace	n/a
342.527	0.06	685054	keystroke_u	u	n/a
342.632	0.105	685264	keystroke_a	a	n/a
342.737	0.06	685474	keystroke_l	l	n/a
342.887	0.075	685774	keystroke_l	l	n/a
343.067	0.06	686134	keystroke_y	y	n/a
343.157	0.15	686314	keystroke_Key.space	Key.space	n/a
343.622	0.09	687244	keystroke_p	p	n/a
343.697	0.15	687394	keystroke_a	a	n/a
343.817	0.12	687634	keystroke_r	r	n/a
344.027	0.09	688054	keystroke_t	t	n/a
344.117	0.075	688234	keystroke_i	i	n/a
344.357	0.135	688714	keystroke_c	c	n/a
344.477	0.075	688954	keystroke_i	i	n/a
344.717	0.075	689434	keystroke_p	p	n/a
344.807	0.135	689614	keystroke_a	a	n/a
344.987	0.089	689974	keystroke_t	t	n/a
345.077	0.09	690154	keystroke_i	i	n/a
345.287	0.089	690574	keystroke_n	n	n/a
345.332	0.135	690664	keystroke_g	g	n/a
345.451	0.135	690902	keystroke_Key.space	Key.space	n/a
346.156	0.165	692312	keystroke_c	c	n/a
346.276	0.136	692552	keystroke_a	a	n/a
346.426	0.1205	692852	keystroke_r	r	n/a
346.6665	0.12	693333	keystroke_g	g	n/a
346.8015	0.09	693603	keystroke_o	o	n/a
346.8765	0.135	693753	keystroke_Key.space	Key.space	n/a
347.1315	0.075	694263	keystroke_h	h	n/a
347.3115	0.06	694623	keystroke_u	u	n/a
347.5065	0.06	695013	keystroke_n	n	n/a
347.6115	0.105	695223	keystroke_t	t	n/a
347.8065	0.06	695613	keystroke_Key.enter	Key.enter	n/a
347.8705	5.8025	695741	prompt	n/a	soil place sense attraction\n
348.871	0.12	697742	keystroke_s	s	n/a
349.021	0.0755	698042	keystroke_o	o	n/a
349.3365	0.06	698673	keystroke_i	i	n/a
349.5465	0.09	699093	keystroke_l	l	n/a
349.6965	0.12	699393	keystroke_Key.space	Key.space	n/a
349.9815	0.09	699963	keystroke_p	p	n/a
350.1315	0.12	700263	keystroke_l	l	n/a
350.1765	0.165	700353	keystroke_a	a	n/a
350.3715	0.195	700743	keystroke_c	c	n/a
350.5515	0.12	701103	keystroke_e	e	n/a
350.6415	0.135	701283	keystroke_Key.space	Key.space	n/a
350.8965	0.135	701793	keystroke_s	s	n/a
351.017	0.0895	702034	keystroke_e	e	n/a
351.1515	0.06	702303	keystroke_n	n	n/a
351.3015	0.12	702603	keystroke_s	s	n/a
351.3615	0.15	702723	keystroke_e	e	n/a
351.5565	0.135	703113	keystroke_Key.space	Key.space	n/a
351.8715	0.15	703743	keystroke_a	a	n/a
352.0665	0.06	704133	keystroke_t	t	n/a
352.2165	0.075	704433	keystroke_t	t	n/a
352.4115	0.135	704823	keystroke_r	r	n/a
352.5615	0.225	705123	keystroke_a	a	n/a
352.7865	0.09	705573	keystroke_c	c	n/a
353.0115	0.075	706023	keystroke_t	t	n/a
353.1165	0.225	706233	keystroke_i	i	n/a
353.2515	0.165	706503	keystroke_o	o	n/a
353.4015	0.075	706803	keystroke_n	n	n/a
353.6115	0.06	707223	keystroke_Key.enter	Key.enter	n/a
353.676	7.332	707352	prompt	n/a	associate incorrect drill standing\n
354.2865	0.105	708573	keystroke_a	a	n/a
354.5265	0.0305	709053	keystroke_s	s	n/a
354.647	0.105	709294	keystroke_s	s	n/a
354.827	0.09	709654	keystroke_o	o	n/a
354.977	0.1195	709954	keystroke_c	c	n/a
355.1415	0.09	710283	keystroke_i	i	n/a
355.247	0.135	710494	keystroke_a	a	n/a
355.397	0.165	710794	keystroke_t	t	n/a
355.532	0.12	711064	keystroke_e	e	n/a
356.432	0.135	712864	keystroke_Key.space	Key.space	n/a
356.747	0.06	713494	keystroke_i	i	n/a
357.017	0.0745	714034	keystroke_n	n	n/a
357.2415	0.135	714483	keystroke_c	c	n/a
357.3915	0.105	714783	keystroke_o	o	n/a
357.5415	0.09	715083	keystroke_r	r	n/a
357.7515	0.045	715503	keystroke_r	r	n/a
357.812	0.105	715624	keystroke_e	e	n/a
357.992	0.105	715984	keystroke_c	c	n/a
358.232	0.135	716464	keystroke_t	t	n/a
358.352	0.135	716704	keystroke_Key.space	Key.space	n/a
358.531	0.1205	717062	keystroke_d	d	n/a
358.711	0.09	717422	keystroke_r	r	n/a
358.8465	0.075	717693	keystroke_i	i	n/a
359.0115	0.0755	718023	keystroke_l	l	n/a
359.162	0.09	718324	keystroke_l	l	n/a
359.267	0.105	718534	keystroke_Key.space	Key.space	n/a
359.492	0.105	718984	keystroke_s	s	n/a
359.657	0.135	719314	keystroke_t	t	n/a
359.762	0.165	719524	keystroke_a	a	n/a
360.302	0.06	720604	keystroke_n	n	n/a
360.392	0.12	720784	keystroke_d	d	n/a
360.527	0.075	721054	keystroke_i	i	n/a
360.692	0.0745	721384	keystroke_n	n	n/a
360.7515	0.09	721503	keystroke_g	g	n/a
360.9465	0.06	721893	keystroke_Key.enter	Key.enter	n/a
361.012	6.9115	722024	prompt	n/a	became enemy foundations stuart\n
361.802	0.09	723604	keystroke_b	b	n/a
362.012	0.1795	724024	keystroke_e	e	n/a
362.2065	0.165	724413	keystroke_c	c	n/a
362.3265	0.195	724653	keystroke_a	a	n/a
362.5515	0.075	725103	keystroke_m	m	n/a
362.6415	0.135	725283	keystroke_e	e	n/a
362.7915	0.135	725583	keystroke_Key.space	Key.space	n/a
363.092	0.12	726184	keystroke_e	e	n/a
363.242	0.075	726484	keystroke_n	n	n/a
363.812	0.075	727624	keystroke_e	e	n/a
364.112	0.075	728224	keystroke_m	m	n/a
364.337	0.075	728674	keystroke_y	y	n/a
364.502	0.12	729004	keystroke_Key.space	Key.space	n/a
364.757	0.12	729514	keystroke_f	f	n/a
364.907	0.135	729814	keystroke_o	o	n/a
365.012	0.0745	730024	keystroke_u	u	n/a
365.2065	0.075	730413	keystroke_n	n	n/a
365.2665	0.151	730533	keystroke_d	d	n/a
365.386	0.136	730772	keystroke_a	a	n/a
365.566	0.105	731132	keystroke_t	t	n/a
365.656	0.241	731312	keystroke_i	i	n/a
365.777	0.1945	731554	keystroke_o	o	n/a
365.987	0.09	731974	keystroke_n	n	n/a
366.107	0.12	732214	keystroke_s	s	n/a
366.242	0.135	732484	keystroke_Key.space	Key.space	n/a
366.647	0.105	733294	keystroke_s	s	n/a
366.857	0.09	733714	keystroke_t	t	n/a
367.232	0.075	734464	keystroke_u	u	n/a
367.367	0.135	734734	keystroke_a	a	n/a
367.472	0.12	734944	keystroke_r	r	n/a
367.667	0.09	735334	keystroke_t	t	n/a
367.862	0.06	735724	keystroke_Key.enter	Key.enter	n/a
367.9275	7.886	735855	prompt	n/a	negotiations tribal buys reader\n
368.702	0.105	737404	keystroke_n	n	n/a
368.822	0.015	737644	keystroke_e	e	n/a
369.226	0.075	738452	keystroke_g	g	n/a
369.331	0.091	738662	keystroke_o	o	n/a
369.647	0.09	739294	keystroke_t	t	n/a
370.5465	0.06	741093	keystroke_i	i	n/a
370.8625	0.119	741725	keystroke_a	a	n/a
371.0115	0.105	742023	keystroke_t	t	n/a
371.1315	0.24	742263	keystroke_i	i	n/a
371.2365	0.195	742473	keystroke_o	o	n/a
371.4325	0.104	742865	keystroke_n	n	n/a
371.5815	0.12	743163	keystroke_s	s	n/a
371.7015	0.135	743403	keystroke_Key.space	Key.space	n/a
372.1215	0.06	744243	keystroke_t	t	n/a
372.557	0.105	745114	keystroke_r	r	n/a
372.692	0.075	745384	keystroke_i	i	n/a
373.0215	0.1355	746043	keystroke_b	b	n/a
373.247	0.0895	746494	keystroke_a	a	n/a
373.367	0.075	746734	keystroke_l	l	n/a
373.5015	0.1205	747003	keystroke_Key.space	Key.space	n/a
373.787	0.105	747574	keystroke_b	b	n/a
373.922	0.06	747844	keystroke_u	u	n/a
374.117	0.045	748234	keystroke_y	y	n/a
374.282	0.12	748564	keystroke_s	s	n/a
374.402	0.105	748804	keystroke_Key.space	Key.space	n/a
374.837	0.15	749674	keystroke_r	r	n/a
374.942	0.12	749884	keystroke_e	e	n/a
375.032	0.12	750064	keystroke_a	a	n/a
375.197	0.06	750394	keystroke_d	d	n/a
375.362	0.105	750724	keystroke_e	e	n/a
375.437	0.12	750874	keystroke_r	r	n/a
375.752	0.06	751504	keystroke_Key.enter	Key.enter	n/a
375.818	6.6855	751636	prompt	n/a	proved emerging dare alternative\n
376.517	0.105	753034	keystroke_p	p	n/a
376.907	0.105	753814	keystroke_r	r	n/a
377.0565	0.09	754113	keystroke_o	o	n/a
377.2215	0.105	754443	keystroke_v	v	n/a
377.4165	0.075	754833	keystroke_e	e	n/a
377.627	0.1045	755254	keystroke_d	d	n/a
377.7465	0.12	755493	keystroke_Key.space	Key.space	n/a
378.0315	0.135	756063	keystroke_e	e	n/a
378.1815	0.075	756363	keystroke_m	m	n/a
378.3165	0.18	756633	keystroke_e	e	n/a
378.4665	0.1205	756933	keystroke_r	r	n/a
378.8715	0.09	757743	keystroke_g	g	n/a
379.0065	0.0755	758013	keystroke_i	i	n/a
379.157	0.09	758314	keystroke_n	n	n/a
379.232	0.15	758464	keystroke_g	g	n/a
379.367	0.12	758734	keystroke_Key.space	Key.space	n/a
379.697	0.1045	759394	keystroke_d	d	n/a
379.8025	0.134	759605	keystroke_a	a	n/a
379.9215	0.15	759843	keystroke_r	r	n/a
380.0415	0.12	760083	keystroke_e	e	n/a
380.3565	0.135	760713	keystroke_Key.space	Key.space	n/a
380.7015	0.09	761403	keystroke_a	a	n/a
380.9565	0.1195	761913	keystroke_l	l	n/a
381.197	0.135	762394	keystroke_t	t	n/a
381.376	0.136	762752	keystroke_e	e	n/a
381.482	0.105	762964	keystroke_r	r	n/a
381.692	0.12	763384	keystroke_a	a	n/a
381.827	0.105	763654	keystroke_t	t	n/a
381.947	0.09	763894	keystroke_i	i	n/a
382.112	0.1055	764224	keystroke_v	v	n/a
382.2925	0.089	764585	keystroke_e	e	n/a
382.442	0.06	764884	keystroke_Key.enter	Key.enter	n/a
382.5065	8.3065	765013	prompt	n/a	chambers walt figured quantity\n
383.1775	0.12	766355	keystroke_c	c	n/a
383.3425	0.075	766685	keystroke_h	h	n/a
383.4775	0.12	766955	keystroke_a	a	n/a
383.5825	0.059	767165	keystroke_m	m	n/a
383.7315	0.106	767463	keystroke_b	b	n/a
383.9715	0.135	767943	keystroke_e	e	n/a
384.0465	0.105	768093	keystroke_r	r	n/a
384.2565	0.12	768513	keystroke_s	s	n/a
384.3915	0.1055	768783	keystroke_Key.space	Key.space	n/a
384.872	0.075	769744	keystroke_w	w	n/a
385.007	0.1195	770014	keystroke_a	a	n/a
385.1415	0.09	770283	keystroke_l	l	n/a
385.2915	0.12	770583	keystroke_t	t	n/a
385.3965	0.135	770793	keystroke_Key.space	Key.space	n/a
385.5615	0.12	771123	keystroke_f	f	n/a
385.6665	0.075	771333	keystroke_i	i	n/a
387.557	0.12	775114	keystroke_g	g	n/a
388.0525	0.074	776105	keystroke_u	u	n/a
388.2165	0.15	776433	keystroke_r	r	n/a
388.3225	0.119	776645	keystroke_e	e	n/a
388.5465	0.121	777093	keystroke_d	d	n/a
388.6515	0.12	777303	keystroke_Key.space	Key.space	n/a
388.967	0.105	777934	keystroke_q	q	n/a
389.267	0.09	778534	keystroke_u	u	n/a
389.6125	0.1045	779225	keystroke_a	a	n/a
389.747	0.06	779494	keystroke_n	n	n/a
390.122	0.105	780244	keystroke_t	t	n/a
390.257	0.06	780514	keystroke_i	i	n/a
390.392	0.09	780784	keystroke_t	t	n/a
390.5125	0.0595	781025	keystroke_y	y	n/a
390.752	0.06	781504	keystroke_Key.enter	Key.enter	n/a
390.8165	9.342	781633	prompt	n/a	muslim many motors restore\n
391.4565	0.06	782913	keystroke_m	m	n/a
391.6515	0.045	783303	keystroke_u	u	n/a
391.8615	0.09	783723	keystroke_s	s	n/a
392.0725	0.074	784145	keystroke_l	l	n/a
392.2665	0.061	784533	keystroke_i	i	n/a
392.4625	0.06	784925	keystroke_m	m	n/a
392.5525	0.134	785105	keystroke_Key.space	Key.space	n/a
392.9575	0.06	785915	keystroke_m	m	n/a
393.0465	0.135	786093	keystroke_a	a	n/a
393.1365	0.06	786273	keystroke_n	n	n/a
393.3615	0.046	786723	keystroke_y	y	n/a
393.497	0.12	786994	keystroke_Key.space	Key.space	n/a
394.0665	0.121	788133	keystroke_m	m	n/a
394.2925	0.105	788585	keystroke_o	o	n/a
394.4125	0.134	788825	keystroke_t	t	n/a
394.5615	0.15	789123	keystroke_e	e	n/a
395.177	0.06	790354	keystroke_Key.backspace	Key.backspace	n/a
395.417	0.075	790834	keystroke_r	r	n/a
395.507	0.105	791014	keystroke_o	o	n/a
395.687	0.135	791374	keystroke_s	s	n/a
395.807	0.135	791614	keystroke_Key.space	Key.space	n/a
396.5875	0.014	793175	keystroke_Key.backspace	Key.backspace	n/a
396.9325	0.06	793865	keystroke_Key.backspace	Key.backspace	n/a
397.3815	0.075	794763	keystroke_Key.backspace	Key.backspace	n/a
397.772	0.06	795544	keystroke_Key.backspace	Key.backspace	n/a
398.012	0.09	796024	keystroke_o	o	n/a
398.117	0.09	796234	keystroke_r	r	n/a
398.327	0.12	796654	keystroke_s	s	n/a
398.432	0.135	796864	keystroke_Key.space	Key.space	n/a
399.227	0.135	798454	keystroke_r	r	n/a
399.317	0.135	798634	keystroke_e	e	n/a
399.452	0.1355	798904	keystroke_s	s	n/a
399.632	0.12	799264	keystroke_t	t	n/a
399.737	0.1355	799474	keystroke_o	o	n/a
399.8725	0.1195	799745	keystroke_r	r	n/a
399.977	0.075	799954	keystroke_e	e	n/a
400.082	0.075	800164	keystroke_Key.enter	Key.enter	n/a
400.1615	15.912	800323	prompt	n/a	legacy preview antarctica initially\n
400.802	0.165	801604	keystroke_l	l	n/a
401.312	0.09	802624	keystroke_e	e	n/a
401.492	0.1055	802984	keystroke_g	g	n/a
401.8825	0.12	803765	keystroke_a	a	n/a
402.0625	0.105	804125	keystroke_c	c	n/a
402.3475	0.06	804695	keystroke_y	y	n/a
402.4825	0.12	804965	keystroke_Key.space	Key.space	n/a
402.7375	0.105	805475	keystroke_p	p	n/a
402.8275	0.149	805655	keystroke_r	r	n/a
402.9475	0.044	805895	keystroke_e	e	n/a
403.1265	0.12	806253	keystroke_v	v	n/a
403.2615	0.075	806523	keystroke_i	i	n/a
403.3665	0.165	806733	keystroke_e	e	n/a
403.4875	0.089	806975	keystroke_w	w	n/a
403.5775	0.1195	807155	keystroke_Key.space	Key.space	n/a
403.787	0.15	807574	keystroke_a	a	n/a
404.027	0.045	808054	keystroke_n	n	n/a
404.387	0.09	808774	keystroke_t	t	n/a
404.522	0.165	809044	keystroke_a	a	n/a
404.672	0.105	809344	keystroke_r	r	n/a
404.987	0.12	809974	keystroke_c	c	n/a
405.272	0.09	810544	keystroke_t	t	n/a
405.437	0.075	810874	keystroke_i	i	n/a
405.617	0.15	811234	keystroke_c	c	n/a
405.752	0.135	811504	keystroke_a	a	n/a
405.9315	0.18	811863	keystroke_Key.space	Key.space	n/a
406.6365	0.075	813273	keystroke_i	i	n/a
413.42	0.001	826840	keystroke_n	n	n/a
414.0625	0.075	828125	keystroke_i	i	n/a
414.4525	0.135	828905	keystroke_t	t	n/a
414.9775	0.075	829955	keystroke_i	i	n/a
415.3375	0.105	830675	keystroke_a	a	n/a
415.4575	0.075	830915	keystroke_l	l	n/a
415.6075	0.075	831215	keystroke_l	l	n/a
415.7875	0.06	831575	keystroke_y	y	n/a
415.9975	0.075	831995	keystroke_Key.enter	Key.enter	n/a
416.077	10.167	832154	prompt	n/a	mice consultant participate camcorder\n
416.8525	0.075	833705	keystroke_m	m	n/a
417.002	0.075	834004	keystroke_i	i	n/a
417.092	0.21	834184	keystroke_c	c	n/a
417.257	0.12	834514	keystroke_e	e	n/a
417.362	0.15	834724	keystroke_Key.space	Key.space	n/a
417.497	0.135	834994	keystroke_c	c	n/a
417.602	0.105	835204	keystroke_o	o	n/a
417.752	0.105	835504	keystroke_n	n	n/a
417.917	0.1355	835834	keystroke_s	s	n/a
418.1425	0.09	836285	keystroke_t	t	n/a
419.1325	0.075	838265	keystroke_Key.backspace	Key.backspace	n/a
419.3875	0.06	838775	keystroke_u	u	n/a
419.5675	0.105	839135	keystroke_l	l	n/a
420.167	0.06	840334	keystroke_t	t	n/a
420.333	0.15	840666	keystroke_a	a	n/a
420.678	0.06	841356	keystroke_n	n	n/a
420.797	0.165	841594	keystroke_t	t	n/a
420.947	0.165	841894	keystroke_Key.space	Key.space	n/a
421.187	0.09	842374	keystroke_p	p	n/a
421.247	0.135	842494	keystroke_a	a	n/a
421.3525	0.1195	842705	keystroke_r	r	n/a
421.547	0.12	843094	keystroke_t	t	n/a
421.652	0.075	843304	keystroke_i	i	n/a
421.892	0.1505	843784	keystroke_c	c	n/a
422.012	0.18	844024	keystroke_a	a	n/a
422.207	0.135	844414	keystroke_t	t	n/a
422.312	0.15	844624	keystroke_e	e	n/a
422.507	0.12	845014	keystroke_Key.space	Key.space	n/a
423.4225	0.105	846845	keystroke_c	c	n/a
423.5425	0.12	847085	keystroke_a	a	n/a
423.6925	0.075	847385	keystroke_m	m	n/a
424.1875	0.135	848375	keystroke_c	c	n/a
424.3375	0.075	848675	keystroke_o	o	n/a
424.5175	0.09	849035	keystroke_r	r	n/a
424.6975	0.0895	849395	keystroke_d	d	n/a
424.937	0.06	849874	keystroke_e	e	n/a
425.012	0.075	850024	keystroke_r	r	n/a
426.1225	0.12	852245	keystroke_Key.enter	Key.enter	n/a
426.247	9.1315	852494	prompt	n/a	virus breaking prompt assist\n
427.0675	0.105	854135	keystroke_v	v	n/a
427.2625	0.075	854525	keystroke_i	i	n/a
427.4725	0.0895	854945	keystroke_u	u	n/a
427.607	0.135	855214	keystroke_s	s	n/a
427.757	0.15	855514	keystroke_Key.space	Key.space	n/a
428.597	0.09	857194	keystroke_Key.backspace	Key.backspace	n/a
428.957	0.06	857914	keystroke_Key.backspace	Key.backspace	n/a
429.287	0.075	858574	keystroke_Key.backspace	Key.backspace	n/a
429.437	0.105	858874	keystroke_r	r	n/a
429.602	0.06	859204	keystroke_u	u	n/a
429.722	0.135	859444	keystroke_s	s	n/a
429.872	0.15	859744	keystroke_Key.space	Key.space	n/a
430.427	0.105	860854	keystroke_b	b	n/a
430.682	0.15	861364	keystroke_r	r	n/a
430.772	0.165	861544	keystroke_e	e	n/a
430.907	0.105	861814	keystroke_a	a	n/a
430.982	0.075	861964	keystroke_k	k	n/a
431.162	0.06	862324	keystroke_i	i	n/a
431.327	0.105	862654	keystroke_n	n	n/a
431.357	0.105	862714	keystroke_g	g	n/a
431.447	0.12	862894	keystroke_Key.space	Key.space	n/a
431.6875	0.09	863375	keystroke_p	p	n/a
431.8375	0.12	863675	keystroke_r	r	n/a
431.9875	0.075	863975	keystroke_o	o	n/a
432.1975	0.06	864395	keystroke_m	m	n/a
432.3775	0.09	864755	keystroke_o	o	n/a
432.962	0.045	865924	keystroke_Key.backspace	Key.backspace	n/a
433.8175	0.105	867635	keystroke_p	p	n/a
433.9975	0.12	867995	keystroke_t	t	n/a
434.1765	0.135	868353	keystroke_Key.space	Key.space	n/a
434.4625	0.12	868925	keystroke_a	a	n/a
434.6125	0.135	869225	keystroke_s	s	n/a
434.7925	0.06	869585	keystroke_s	s	n/a
434.8975	0.075	869795	keystroke_i	i	n/a
434.9865	0.135	869973	keystroke_s	s	n/a
435.1375	0.104	870275	keystroke_t	t	n/a
435.3165	0.06	870633	keystroke_Key.enter	Key.enter	n/a
435.381	15.883	870762	prompt	n/a	brad hydrocodone sequence distributor\n
436.3375	0.09	872675	keystroke_b	b	n/a
436.5475	0.135	873095	keystroke_r	r	n/a
436.6675	0.18	873335	keystroke_a	a	n/a
436.8625	0.12	873725	keystroke_d	d	n/a
436.9825	0.105	873965	keystroke_Key.space	Key.space	n/a
437.2975	0.075	874595	keystroke_h	h	n/a
437.5375	0.06	875075	keystroke_y	y	n/a
438.962	0.105	877924	keystroke_d	d	n/a
439.697	0.1055	879394	keystroke_o	o	n/a
439.9375	0.15	879875	keystroke_c	c	n/a
440.2075	0.09	880415	keystroke_o	o	n/a
440.5525	0.105	881105	keystroke_d	d	n/a
440.8225	0.15	881645	keystroke_o	o	n/a
440.9875	0.1195	881975	keystroke_n	n	n/a
441.152	0.15	882304	keystroke_e	e	n/a
441.317	0.135	882634	keystroke_Key.space	Key.space	n/a
441.632	0.09	883264	keystroke_s	s	n/a
442.037	0.135	884074	keystroke_w	w	n/a
442.292	0.105	884584	keystroke_q	q	n/a
442.787	0.075	885574	keystroke_Key.backspace	Key.backspace	n/a
443.192	0.075	886384	keystroke_Key.backspace	Key.backspace	n/a
444.3925	0.105	888785	keystroke_e	e	n/a
444.5875	0.09	889175	keystroke_q	q	n/a
444.7525	0.09	889505	keystroke_u	u	n/a
445.0225	0.1345	890045	keystroke_e	e	n/a
445.142	0.075	890284	keystroke_n	n	n/a
445.262	0.21	890524	keystroke_c	c	n/a
445.427	0.135	890854	keystroke_e	e	n/a
445.592	0.135	891184	keystroke_Key.space	Key.space	n/a
446.327	0.12	892654	keystroke_d	d	n/a
446.568	0.059	893136	keystroke_i	i	n/a
447.1225	0.12	894245	keystroke_s	s	n/a
447.3325	0.105	894665	keystroke_t	t	n/a
447.5425	0.135	895085	keystroke_r	r	n/a
447.6325	0.105	895265	keystroke_i	i	n/a
447.8275	0.1195	895655	keystroke_b	b	n/a
448.157	0.075	896314	keystroke_t	t	n/a
448.307	0.12	896614	keystroke_o	o	n/a
448.472	0.09	896944	keystroke_r	r	n/a
449.1025	0.075	898205	keystroke_Key.backspace	Key.backspace	n/a
449.4625	0.045	898925	keystroke_Key.backspace	Key.backspace	n/a
449.8825	0.045	899765	keystroke_Key.backspace	Key.backspace	n/a
450.1975	0.105	900395	keystroke_u	u	n/a
450.4375	0.09	900875	keystroke_t	t	n/a
450.6175	0.1055	901235	keystroke_o	o	n/a
450.737	0.06	901474	keystroke_r	r	n/a
451.2025	0.06	902405	keystroke_Key.enter	Key.enter	n/a
451.267	10.2265	902534	prompt	n/a	related tips gradually advantage\n
451.9075	0.1345	903815	keystroke_r	r	n/a
451.9975	0.1045	903995	keystroke_e	e	n/a
452.162	0.09	904324	keystroke_l	l	n/a
452.267	0.15	904534	keystroke_a	a	n/a
452.402	0.165	904804	keystroke_t	t	n/a
452.492	0.105	904984	keystroke_e	e	n/a
452.702	0.15	905404	keystroke_d	d	n/a
452.837	0.105	905674	keystroke_Key.space	Key.space	n/a
453.047	0.075	906094	keystroke_t	t	n/a
453.182	0.21	906364	keystroke_i	i	n/a
453.377	0.12	906754	keystroke_p	p	n/a
453.572	0.135	907144	keystroke_s	s	n/a
453.692	0.135	907384	keystroke_Key.space	Key.space	n/a
454.0825	0.075	908165	keystroke_g	g	n/a
454.2925	0.105	908585	keystroke_r	r	n/a
454.3825	0.165	908765	keystroke_a	a	n/a
454.5625	0.12	909125	keystroke_d	d	n/a
454.7575	0.0905	909515	keystroke_u	u	n/a
455.0725	0.03	910145	keystroke_s	s	n/a
455.5375	0.06	911075	keystroke_Key.backspace	Key.backspace	n/a
455.6875	0.09	911375	keystroke_a	a	n/a
455.8075	0.075	911615	keystroke_l	l	n/a
455.9575	0.105	911915	keystroke_l	l	n/a
456.1825	0.045	912365	keystroke_y	y	n/a
456.3025	0.105	912605	keystroke_Key.space	Key.space	n/a
456.5875	0.135	913175	keystroke_a	a	n/a
456.7375	0.135	913475	keystroke_d	d	n/a
457.0075	0.1195	914015	keystroke_v	v	n/a
457.157	0.15	914314	keystroke_a	a	n/a
457.352	0.09	914704	keystroke_t	t	n/a
457.5475	0.135	915095	keystroke_a	a	n/a
457.7125	0.105	915425	keystroke_g	g	n/a
457.8925	0.075	915785	keystroke_e	e	n/a
458.7625	0.09	917525	keystroke_Key.backspace	Key.backspace	n/a
459.137	0.06	918274	keystroke_Key.backspace	Key.backspace	n/a
459.602	0.045	919204	keystroke_Key.backspace	Key.backspace	n/a
460.022	0.06	920044	keystroke_Key.backspace	Key.backspace	n/a
460.502	0.09	921004	keystroke_n	n	n/a
460.6975	0.09	921395	keystroke_t	t	n/a
460.8325	0.18	921665	keystroke_a	a	n/a
461.0275	0.1045	922055	keystroke_g	g	n/a
461.162	0.105	922324	keystroke_e	e	n/a
461.433	0.059	922866	keystroke_Key.enter	Key.enter	n/a
461.497	11.3065	922994	prompt	n/a	exceptional tower inside wouldn't\n
462.1075	0.06	924215	keystroke_e	e	n/a
462.2725	0.1195	924545	keystroke_x	x	n/a
462.512	0.1805	925024	keystroke_c	c	n/a
462.6625	0.09	925325	keystroke_e	e	n/a
462.9025	0.09	925805	keystroke_p	p	n/a
463.142	0.075	926284	keystroke_t	t	n/a
463.277	0.24	926554	keystroke_i	i	n/a
463.412	0.18	926824	keystroke_o	o	n/a
463.667	0.105	927334	keystroke_n	n	n/a
463.847	0.106	927694	keystroke_a	a	n/a
464.133	0.089	928266	keystroke_Key.space	Key.space	n/a
464.5525	0.045	929105	keystroke_Key.backspace	Key.backspace	n/a
464.8075	0.045	929615	keystroke_;	;	n/a
464.9575	0.1345	929915	keystroke_Key.space	Key.space	n/a
465.407	0.075	930814	keystroke_Key.backspace	Key.backspace	n/a
465.917	0.06	931834	keystroke_Key.backspace	Key.backspace	n/a
466.727	0.06	933454	keystroke_l	l	n/a
466.847	0.12	933694	keystroke_Key.space	Key.space	n/a
467.732	0.12	935464	keystroke_t	t	n/a
467.897	0.105	935794	keystroke_o	o	n/a
467.972	0.105	935944	keystroke_w	w	n/a
468.182	0.135	936364	keystroke_e	e	n/a
468.302	0.135	936604	keystroke_r	r	n/a
468.437	0.135	936874	keystroke_Key.space	Key.space	n/a
468.602	0.075	937204	keystroke_i	i	n/a
468.767	0.075	937534	keystroke_n	n	n/a
468.872	0.12	937744	keystroke_s	s	n/a
469.052	0.06	938104	keystroke_i	i	n/a
469.127	0.075	938254	keystroke_d	d	n/a
469.322	0.075	938644	keystroke_e	e	n/a
469.5325	0.12	939065	keystroke_Key.space	Key.space	n/a
469.983	0.1045	939966	keystroke_w	w	n/a
470.1325	0.12	940265	keystroke_o	o	n/a
470.2225	0.0905	940445	keystroke_u	u	n/a
470.3875	0.09	940775	keystroke_l	l	n/a
470.4475	0.1205	940895	keystroke_d	d	n/a
470.6575	0.0605	941315	keystroke_n	n	n/a
471.977	0.06	943954	keystroke_'	'	n/a
472.203	0.06	944406	keystroke_t	t	n/a
472.7425	0.06	945485	keystroke_Key.enter	Key.enter	n/a
472.808	10.256	945616	prompt	n/a	shower diary difficulty tribes\n
473.5825	0.06	947165	keystroke_s	s	n/a
473.6575	0.015	947315	keystroke_h	h	n/a
473.7025	0.105	947405	keystroke_o	o	n/a
473.957	0.135	947914	keystroke_e	e	n/a
474.662	0.09	949324	keystroke_Key.backspace	Key.backspace	n/a
474.767	0.09	949534	keystroke_w	w	n/a
474.947	0.1205	949894	keystroke_e	e	n/a
475.0825	0.105	950165	keystroke_r	r	n/a
475.322	0.12	950644	keystroke_Key.space	Key.space	n/a
475.757	0.12	951514	keystroke_d	d	n/a
476.087	0.075	952174	keystroke_i	i	n/a
476.237	0.18	952474	keystroke_a	a	n/a
476.418	0.074	952836	keystroke_r	r	n/a
476.657	0.045	953314	keystroke_y	y	n/a
476.792	0.06	953584	keystroke_Key.space	Key.space	n/a
477.272	0.06	954544	keystroke_d	d	n/a
477.392	0.06	954784	keystroke_i	i	n/a
477.497	0.06	954994	keystroke_f	f	n/a
477.647	0.09	955294	keystroke_f	f	n/a
478.5475	0.06	957095	keystroke_i	i	n/a
478.743	0.165	957486	keystroke_c	c	n/a
478.9225	0.0755	957845	keystroke_u	u	n/a
479.103	0.105	958206	keystroke_l	l	n/a
479.972	0.061	959944	keystroke_t	t	n/a
480.123	0.045	960246	keystroke_y	y	n/a
480.512	0.121	961024	keystroke_Key.space	Key.space	n/a
480.9925	0.075	961985	keystroke_t	t	n/a
481.2025	0.105	962405	keystroke_r	r	n/a
481.3975	0.075	962795	keystroke_i	i	n/a
482.2975	0.09	964595	keystroke_b	b	n/a
482.5375	0.165	965075	keystroke_e	e	n/a
482.6875	0.135	965375	keystroke_s	s	n/a
483.0025	0.0595	966005	keystroke_Key.enter	Key.enter	n/a
483.0675	9.1765	966135	prompt	n/a	toyota horse pros customer\n
483.767	0.091	967534	keystroke_t	t	n/a
483.977	0.09	967954	keystroke_o	o	n/a
485.2075	0.09	970415	keystroke_y	y	n/a
485.4175	0.075	970835	keystroke_o	o	n/a
485.6725	0.09	971345	keystroke_a	a	n/a
486.108	0.074	972216	keystroke_Key.backspace	Key.backspace	n/a
486.782	0.12	973564	keystroke_t	t	n/a
486.887	0.1655	973774	keystroke_a	a	n/a
487.0975	0.135	974195	keystroke_Key.space	Key.space	n/a
488.147	0.076	976294	keystroke_h	h	n/a
488.328	0.12	976656	keystroke_o	o	n/a
488.762	0.0755	977524	keystroke_r	r	n/a
488.9125	0.195	977825	keystroke_s	s	n/a
489.0475	0.135	978095	keystroke_e	e	n/a
489.2125	0.15	978425	keystroke_Key.space	Key.space	n/a
489.6475	0.09	979295	keystroke_p	p	n/a
489.9175	0.015	979835	keystroke_r	r	n/a
489.9475	0.105	979895	keystroke_o	o	n/a
490.443	0.09	980886	keystroke_s	s	n/a
490.563	0.134	981126	keystroke_Key.space	Key.space	n/a
491.073	0.15	982146	keystroke_c	c	n/a
491.268	0.06	982536	keystroke_u	u	n/a
491.403	0.135	982806	keystroke_s	s	n/a
491.583	0.09	983166	keystroke_t	t	n/a
491.688	0.119	983376	keystroke_o	o	n/a
491.823	0.105	983646	keystroke_m	m	n/a
491.913	0.105	983826	keystroke_e	e	n/a
491.972	0.105	983944	keystroke_r	r	n/a
492.197	0.045	984394	keystroke_Key.enter	Key.enter	n/a
492.2465	7.7075	984493	prompt	n/a	case submissions description pins\n
492.9175	0.1655	985835	keystroke_c	c	n/a
493.068	0.225	986136	keystroke_a	a	n/a
493.278	0.18	986556	keystroke_s	s	n/a
493.473	0.105	986946	keystroke_e	e	n/a
493.683	0.105	987366	keystroke_Key.space	Key.space	n/a
494.0425	0.12	988085	keystroke_s	s	n/a
494.2225	0.075	988445	keystroke_u	u	n/a
494.4175	0.15	988835	keystroke_b	b	n/a
494.9725	0.075	989945	keystroke_m	m	n/a
495.1825	0.06	990365	keystroke_i	i	n/a
495.3625	0.105	990725	keystroke_s	s	n/a
495.5425	0.09	991085	keystroke_s	s	n/a
495.7225	0.225	991445	keystroke_i	i	n/a
495.8575	0.195	991715	keystroke_o	o	n/a
496.0675	0.075	992135	keystroke_n	n	n/a
496.202	0.105	992404	keystroke_s	s	n/a
496.337	0.15	992674	keystroke_Key.space	Key.space	n/a
496.802	0.075	993604	keystroke_d	d	n/a
496.982	0.075	993964	keystroke_e	e	n/a
497.192	0.135	994384	keystroke_s	s	n/a
497.387	0.105	994774	keystroke_c	c	n/a
497.612	0.075	995224	keystroke_r	r	n/a
497.747	0.075	995494	keystroke_i	i	n/a
498.333	0.0895	996666	keystroke_p	p	n/a
498.5575	0.15	997115	keystroke_t	t	n/a
498.693	0.1795	997386	keystroke_i	i	n/a
498.7675	0.21	997535	keystroke_o	o	n/a
498.9625	0.1045	997925	keystroke_n	n	n/a
499.112	0.105	998224	keystroke_Key.space	Key.space	n/a
499.292	0.075	998584	keystroke_p	p	n/a
499.427	0.075	998854	keystroke_i	i	n/a
499.622	0.075	999244	keystroke_n	n	n/a
499.773	0.09	999546	keystroke_s	s	n/a
499.893	0.06	999786	keystroke_Key.enter	Key.enter	n/a
499.9575	12.7765	999915	prompt	n/a	jean techrepublic announces tomatoes\n
500.703	0.09	1001406	keystroke_j	j	n/a
500.808	0.135	1001616	keystroke_e	e	n/a
500.928	0.12	1001856	keystroke_a	a	n/a
501.048	0.059	1002096	keystroke_n	n	n/a
501.137	0.12	1002274	keystroke_Key.space	Key.space	n/a
501.347	0.12	1002694	keystroke_t	t	n/a
501.767	0.0605	1003534	keystroke_e	e	n/a
502.022	0.1205	1004044	keystroke_c	c	n/a
502.1575	0.075	1004315	keystroke_h	h	n/a
502.697	0.166	1005394	keystroke_r	r	n/a
502.832	0.09	1005664	keystroke_e	e	n/a
503.102	0.09	1006204	keystroke_p	p	n/a
503.238	0.089	1006476	keystroke_u	u	n/a
503.417	0.091	1006834	keystroke_b	b	n/a
503.537	0.105	1007074	keystroke_l	l	n/a
503.9275	0.045	1007855	keystroke_i	i	n/a
504.018	0.165	1008036	keystroke_c	c	n/a
504.228	0.09	1008456	keystroke_Key.space	Key.space	n/a
504.453	0.12	1008906	keystroke_a	a	n/a
504.588	0.045	1009176	keystroke_n	n	n/a
504.738	0.06	1009476	keystroke_n	n	n/a
510.035	0.028	1020070	keystroke_o	o	n/a
510.123	0.06	1020246	keystroke_u	u	n/a
510.348	0.075	1020696	keystroke_n	n	n/a
510.528	0.18	1021056	keystroke_c	c	n/a
510.677	0.196	1021354	keystroke_e	e	n/a
510.858	0.105	1021716	keystroke_s	s	n/a
510.993	0.0895	1021986	keystroke_Key.space	Key.space	n/a
511.4575	0.105	1022915	keystroke_t	t	n/a
511.5925	0.09	1023185	keystroke_o	o	n/a
511.7425	0.09	1023485	keystroke_m	m	n/a
511.8475	0.15	1023695	keystroke_a	a	n/a
512.0125	0.075	1024025	keystroke_t	t	n/a
512.1625	0.105	1024325	keystroke_o	o	n/a
512.3125	0.195	1024625	keystroke_e	e	n/a
512.4925	0.075	1024985	keystroke_s	s	n/a
512.6725	0.06	1025345	keystroke_Key.enter	Key.enter	n/a
512.737	7.272	1025474	prompt	n/a	shoulder jacob sample advanced\n
513.3775	0.09	1026755	keystroke_s	s	n/a
513.5125	0.0755	1027025	keystroke_h	h	n/a
513.648	0.1195	1027296	keystroke_o	o	n/a
513.738	0.09	1027476	keystroke_u	u	n/a
513.9175	0.075	1027835	keystroke_l	l	n/a
513.9925	0.06	1027985	keystroke_d	d	n/a
514.2925	0.105	1028585	keystroke_e	e	n/a
514.3825	0.12	1028765	keystroke_r	r	n/a
514.6075	0.1195	1029215	keystroke_Key.space	Key.space	n/a
514.8475	0.12	1029695	keystroke_j	j	n/a
515.2675	0.12	1030535	keystroke_a	a	n/a
515.6575	0.15	1031315	keystroke_c	c	n/a
515.8825	0.105	1031765	keystroke_o	o	n/a
516.0175	0.135	1032035	keystroke_b	b	n/a
516.408	0.135	1032816	keystroke_Key.space	Key.space	n/a
516.828	0.075	1033656	keystroke_s	s	n/a
516.978	0.105	1033956	keystroke_a	a	n/a
517.6225	0.105	1035245	keystroke_m	m	n/a
517.8325	0.06	1035665	keystroke_p	p	n/a
518.0125	0.135	1036025	keystroke_l	l	n/a
518.1625	0.105	1036325	keystroke_e	e	n/a
518.2825	0.135	1036565	keystroke_Key.space	Key.space	n/a
518.6125	0.12	1037225	keystroke_a	a	n/a
518.7925	0.105	1037585	keystroke_d	d	n/a
519.0775	0.135	1038155	keystroke_v	v	n/a
519.2275	0.135	1038455	keystroke_a	a	n/a
519.3475	0.09	1038695	keystroke_n	n	n/a
519.4525	0.15	1038905	keystroke_c	c	n/a
519.5575	0.105	1039115	keystroke_e	e	n/a
519.7675	0.075	1039535	keystroke_d	d	n/a
519.9625	0.045	1039925	keystroke_Key.enter	Key.enter	n/a
520.0115	8.683	1040023	prompt	n/a	advantages mazda boards ellen\n
520.683	0.09	1041366	keystroke_a	a	n/a
520.833	0.105	1041666	keystroke_d	d	n/a
521.2975	0.135	1042595	keystroke_v	v	n/a
521.4925	0.12	1042985	keystroke_a	a	n/a
521.9725	0.06	1043945	keystroke_n	n	n/a
522.2125	0.09	1044425	keystroke_t	t	n/a
522.3325	0.18	1044665	keystroke_a	a	n/a
522.5425	0.15	1045085	keystroke_g	g	n/a
522.7225	0.135	1045445	keystroke_e	e	n/a
522.8425	0.15	1045685	keystroke_Key.space	Key.space	n/a
523.2475	0.075	1046495	keystroke_m	m	n/a
523.6975	0.12	1047395	keystroke_a	a	n/a
523.9825	0.12	1047965	keystroke_z	z	n/a
524.5525	0.12	1049105	keystroke_d	d	n/a
524.6875	0.12	1049375	keystroke_a	a	n/a
524.9275	0.1355	1049855	keystroke_Key.space	Key.space	n/a
526.263	0.12	1052526	keystroke_b	b	n/a
526.578	0.105	1053156	keystroke_o	o	n/a
526.9075	0.135	1053815	keystroke_a	a	n/a
527.0275	0.105	1054055	keystroke_r	r	n/a
527.2225	0.105	1054445	keystroke_d	d	n/a
527.4025	0.105	1054805	keystroke_s	s	n/a
527.5675	0.1205	1055135	keystroke_Key.space	Key.space	n/a
527.853	0.075	1055706	keystroke_e	e	n/a
528.033	0.06	1056066	keystroke_l	l	n/a
528.183	0.06	1056366	keystroke_l	l	n/a
528.288	0.1045	1056576	keystroke_e	e	n/a
528.4375	0.045	1056875	keystroke_n	n	n/a
528.6475	0.045	1057295	keystroke_Key.enter	Key.enter	n/a
528.697	5.8625	1057394	prompt	n/a	martin awesome title retired\n
529.323	0.12	1058646	keystroke_m	m	n/a
529.458	0.135	1058916	keystroke_a	a	n/a
529.578	0.105	1059156	keystroke_r	r	n/a
529.8625	0.015	1059725	keystroke_t	t	n/a
529.8925	0.06	1059785	keystroke_i	i	n/a
530.0725	0.075	1060145	keystroke_n	n	n/a
530.1325	0.135	1060265	keystroke_Key.space	Key.space	n/a
530.4175	0.135	1060835	keystroke_a	a	n/a
530.7025	0.12	1061405	keystroke_w	w	n/a
530.8375	0.12	1061675	keystroke_e	e	n/a
531.0475	0.1195	1062095	keystroke_s	s	n/a
531.152	0.106	1062304	keystroke_o	o	n/a
531.273	0.164	1062546	keystroke_m	m	n/a
531.408	0.12	1062816	keystroke_e	e	n/a
531.528	0.149	1063056	keystroke_Key.space	Key.space	n/a
531.798	0.074	1063596	keystroke_l	l	n/a
532.128	0.044	1064256	keystroke_Key.backspace	Key.backspace	n/a
532.308	0.09	1064616	keystroke_t	t	n/a
532.427	0.0755	1064854	keystroke_i	i	n/a
532.6225	0.09	1065245	keystroke_t	t	n/a
532.7275	0.105	1065455	keystroke_l	l	n/a
532.8475	0.1355	1065695	keystroke_e	e	n/a
532.998	0.15	1065996	keystroke_Key.space	Key.space	n/a
533.478	0.135	1066956	keystroke_r	r	n/a
533.598	0.06	1067196	keystroke_e	e	n/a
533.763	0.105	1067526	keystroke_t	t	n/a
533.868	0.09	1067736	keystroke_i	i	n/a
533.988	0.165	1067976	keystroke_r	r	n/a
534.078	0.09	1068156	keystroke_e	e	n/a
534.303	0.06	1068606	keystroke_d	d	n/a
534.498	0.06	1068996	keystroke_Key.enter	Key.enter	n/a
534.562	13.557	1069124	prompt	n/a	findarticles partnership computer city\n
535.218	0.12	1070436	keystroke_f	f	n/a
535.398	0.075	1070796	keystroke_i	i	n/a
535.593	0.075	1071186	keystroke_n	n	n/a
536.028	0.105	1072056	keystroke_d	d	n/a
536.178	0.15	1072356	keystroke_a	a	n/a
536.358	0.12	1072716	keystroke_r	r	n/a
536.778	0.09	1073556	keystroke_t	t	n/a
536.943	0.06	1073886	keystroke_i	i	n/a
537.1675	0.1355	1074335	keystroke_c	c	n/a
538.3075	0.105	1076615	keystroke_l	l	n/a
538.4425	0.18	1076885	keystroke_e	e	n/a
538.6075	0.135	1077215	keystroke_s	s	n/a
538.7725	0.12	1077545	keystroke_Key.space	Key.space	n/a
544.0555	0	1088111	keystroke_p	p	n/a
544.0685	0.15	1088137	keystroke_a	a	n/a
544.1885	0.105	1088377	keystroke_r	r	n/a
544.4135	0.075	1088827	keystroke_t	t	n/a
544.9385	0.06	1089877	keystroke_n	n	n/a
545.0885	0.135	1090177	keystroke_e	e	n/a
545.1635	0.09	1090327	keystroke_r	r	n/a
545.3585	0.12	1090717	keystroke_s	s	n/a
545.4935	0.075	1090987	keystroke_h	h	n/a
545.6285	0.195	1091257	keystroke_i	i	n/a
545.8235	0.09	1091647	keystroke_p	p	n/a
545.9735	0.105	1091947	keystroke_Key.space	Key.space	n/a
546.2125	0.12	1092425	keystroke_c	c	n/a
546.2875	0.12	1092575	keystroke_o	o	n/a
546.4225	0.165	1092845	keystroke_m	m	n/a
546.6475	0.09	1093295	keystroke_p	p	n/a
546.7825	0.09	1093565	keystroke_u	u	n/a
546.9475	0.12	1093895	keystroke_t	t	n/a
547.1125	0.12	1094225	keystroke_e	e	n/a
547.2025	0.135	1094405	keystroke_r	r	n/a
547.3075	0.15	1094615	keystroke_Key.space	Key.space	n/a
547.5025	0.136	1095005	keystroke_c	c	n/a
547.6235	0.075	1095247	keystroke_i	i	n/a
547.7435	0.105	1095487	keystroke_t	t	n/a
547.8635	0.06	1095727	keystroke_y	y	n/a
548.0735	0.044	1096147	keystroke_Key.enter	Key.enter	n/a
548.122	8.9525	1096244	prompt	n/a	endorsed similar broker vaccine\n
548.8235	0.074	1097647	keystroke_e	e	n/a
548.9435	0.06	1097887	keystroke_n	n	n/a
549.0335	0.0895	1098067	keystroke_d	d	n/a
549.243	0.09	1098486	keystroke_o	o	n/a
549.3485	0.1045	1098697	keystroke_r	r	n/a
549.603	0.1355	1099206	keystroke_s	s	n/a
549.708	0.1045	1099416	keystroke_e	e	n/a
549.9185	0.105	1099837	keystroke_d	d	n/a
550.0385	0.0895	1100077	keystroke_Key.space	Key.space	n/a
550.173	0.12	1100346	keystroke_s	s	n/a
550.278	0.075	1100556	keystroke_i	i	n/a
550.473	0.105	1100946	keystroke_m	m	n/a
550.683	0.075	1101366	keystroke_i	i	n/a
550.848	0.09	1101696	keystroke_l	l	n/a
550.953	0.12	1101906	keystroke_a	a	n/a
551.088	0.12	1102176	keystroke_r	r	n/a
551.223	0.135	1102446	keystroke_Key.space	Key.space	n/a
551.463	0.075	1102926	keystroke_b	b	n/a
551.658	0.09	1103316	keystroke_r	r	n/a
551.808	0.105	1103616	keystroke_o	o	n/a
552.003	0.09	1104006	keystroke_k	k	n/a
552.078	0.105	1104156	keystroke_e	e	n/a
552.138	0.15	1104276	keystroke_r	r	n/a
552.273	0.12	1104546	keystroke_Key.space	Key.space	n/a
552.483	0.12	1104966	keystroke_b	b	n/a
552.663	0.165	1105326	keystroke_a	a	n/a
552.858	0.075	1105716	keystroke_c	c	n/a
553.008	0.09	1106016	keystroke_c	c	n/a
553.128	0.09	1106256	keystroke_i	i	n/a
553.593	0.015	1107186	keystroke_Key.backspace	Key.backspace	n/a
553.848	0.06	1107696	keystroke_Key.backspace	Key.backspace	n/a
554.163	0.06	1108326	keystroke_Key.backspace	Key.backspace	n/a
554.4925	0.06	1108985	keystroke_Key.backspace	Key.backspace	n/a
554.823	0.06	1109646	keystroke_Key.backspace	Key.backspace	n/a
555.8725	0.15	1111745	keystroke_v	v	n/a
556.0385	0.164	1112077	keystroke_a	a	n/a
556.2175	0.105	1112435	keystroke_c	c	n/a
556.3975	0.09	1112795	keystroke_c	c	n/a
556.6225	0.075	1113245	keystroke_i	i	n/a
556.7875	0.075	1113575	keystroke_n	n	n/a
556.8775	0.09	1113755	keystroke_e	e	n/a
557.028	0.045	1114056	keystroke_Key.enter	Key.enter	n/a
557.0775	7.917	1114155	prompt	n/a	approximately effective interested alive\n
557.643	0.1205	1115286	keystroke_a	a	n/a
557.8835	0.06	1115767	keystroke_p	p	n/a
558.0185	0.09	1116037	keystroke_p	p	n/a
558.1535	0.105	1116307	keystroke_r	r	n/a
558.3335	0.09	1116667	keystroke_o	o	n/a
558.9785	0.119	1117957	keystroke_x	x	n/a
559.2475	0.06	1118495	keystroke_i	i	n/a
559.4425	0.076	1118885	keystroke_m	m	n/a
559.5335	0.149	1119067	keystroke_a	a	n/a
559.6985	0.119	1119397	keystroke_t	t	n/a
559.7875	0.12	1119575	keystroke_e	e	n/a
559.9525	0.105	1119905	keystroke_l	l	n/a
560.1625	0.06	1120325	keystroke_y	y	n/a
560.2975	0.12	1120595	keystroke_Key.space	Key.space	n/a
560.5075	0.12	1121015	keystroke_e	e	n/a
560.7475	0.09	1121495	keystroke_f	f	n/a
560.9275	0.09	1121855	keystroke_f	f	n/a
561.0325	0.105	1122065	keystroke_e	e	n/a
561.2275	0.12	1122455	keystroke_c	c	n/a
561.4675	0.106	1122935	keystroke_t	t	n/a
561.5575	0.105	1123115	keystroke_i	i	n/a
561.7375	0.106	1123475	keystroke_v	v	n/a
561.8875	0.135	1123775	keystroke_e	e	n/a
562.0075	0.12	1124015	keystroke_Key.space	Key.space	n/a
562.0975	0.075	1124195	keystroke_i	i	n/a
562.3085	0.074	1124617	keystroke_n	n	n/a
562.3675	0.151	1124735	keystroke_t	t	n/a
562.5335	0.135	1125067	keystroke_e	e	n/a
562.6235	0.18	1125247	keystroke_r	r	n/a
562.8335	0.21	1125667	keystroke_e	e	n/a
563.5375	0.2105	1127075	keystroke_s	s	n/a
563.763	0.06	1127526	keystroke_t	t	n/a
563.793	0.12	1127586	keystroke_e	e	n/a
564.018	0.12	1128036	keystroke_d	d	n/a
564.108	0.135	1128216	keystroke_Key.space	Key.space	n/a
564.258	0.09	1128516	keystroke_a	a	n/a
564.333	0.075	1128666	keystroke_l	l	n/a
564.498	0.105	1128996	keystroke_i	i	n/a
564.604	0.104	1129208	keystroke_v	v	n/a
564.753	0.105	1129506	keystroke_e	e	n/a
564.963	0.03	1129926	keystroke_Key.enter	Key.enter	n/a
564.9975	7.062	1129995	prompt	n/a	dosage preview enterprises advice\n
565.623	0.12	1131246	keystroke_d	d	n/a
565.863	0.105	1131726	keystroke_o	o	n/a
566.238	0.06	1132476	keystroke_s	s	n/a
566.358	0.09	1132716	keystroke_a	a	n/a
566.538	0.105	1133076	keystroke_g	g	n/a
566.718	0.15	1133436	keystroke_e	e	n/a
566.898	0.135	1133796	keystroke_Key.space	Key.space	n/a
567.3475	0.09	1134695	keystroke_p	p	n/a
567.4225	0.15	1134845	keystroke_r	r	n/a
567.5125	0.105	1135025	keystroke_e	e	n/a
567.7225	0.1055	1135445	keystroke_v	v	n/a
567.8285	0.09	1135657	keystroke_i	i	n/a
567.9335	0.135	1135867	keystroke_e	e	n/a
568.0385	0.12	1136077	keystroke_w	w	n/a
568.1735	0.135	1136347	keystroke_Key.space	Key.space	n/a
568.7135	0.075	1137427	keystroke_e	e	n/a
568.8635	0.075	1137727	keystroke_n	n	n/a
568.9535	0.12	1137907	keystroke_t	t	n/a
569.1035	0.15	1138207	keystroke_e	e	n/a
569.2085	0.1045	1138417	keystroke_r	r	n/a
569.538	0.06	1139076	keystroke_p	p	n/a
569.643	0.105	1139286	keystroke_r	r	n/a
569.733	0.075	1139466	keystroke_i	i	n/a
569.898	0.15	1139796	keystroke_s	s	n/a
569.988	0.135	1139976	keystroke_e	e	n/a
570.228	0.135	1140456	keystroke_s	s	n/a
570.438	0.135	1140876	keystroke_Key.space	Key.space	n/a
570.678	0.135	1141356	keystroke_a	a	n/a
570.828	0.12	1141656	keystroke_d	d	n/a
571.0835	0.105	1142167	keystroke_v	v	n/a
571.2035	0.06	1142407	keystroke_i	i	n/a
571.5485	0.18	1143097	keystroke_c	c	n/a
571.7135	0.105	1143427	keystroke_e	e	n/a
571.9975	0.06	1143995	keystroke_Key.enter	Key.enter	n/a
572.0645	9.865	1144129	prompt	n/a	revelation dividend drops gordon\n
572.6725	0.121	1145345	keystroke_r	r	n/a
573.0485	0.105	1146097	keystroke_v	v	n/a
573.2285	0.105	1146457	keystroke_e	e	n/a
573.6935	0.06	1147387	keystroke_Key.backspace	Key.backspace	n/a
573.9785	0.075	1147957	keystroke_Key.backspace	Key.backspace	n/a
574.1285	0.12	1148257	keystroke_e	e	n/a
574.7585	0.1345	1149517	keystroke_v	v	n/a
574.968	0.0905	1149936	keystroke_e	e	n/a
575.4785	0.09	1150957	keystroke_l	l	n/a
575.6135	0.135	1151227	keystroke_a	a	n/a
575.7635	0.105	1151527	keystroke_t	t	n/a
575.8835	0.24	1151767	keystroke_i	i	n/a
576.0035	0.1945	1152007	keystroke_o	o	n/a
576.1685	0.1345	1152337	keystroke_n	n	n/a
576.318	0.105	1152636	keystroke_Key.space	Key.space	n/a
576.438	0.09	1152876	keystroke_d	d	n/a
576.543	0.075	1153086	keystroke_i	i	n/a
576.663	0.09	1153326	keystroke_d	d	n/a
577.353	0.06	1154706	keystroke_Key.backspace	Key.backspace	n/a
577.4875	0.1055	1154975	keystroke_v	v	n/a
577.6375	0.06	1155275	keystroke_i	i	n/a
577.7425	0.105	1155485	keystroke_d	d	n/a
578.0135	0.119	1156027	keystroke_e	e	n/a
578.5825	0.075	1157165	keystroke_n	n	n/a
578.763	0.12	1157526	keystroke_d	d	n/a
578.928	0.12	1157856	keystroke_Key.space	Key.space	n/a
579.168	0.09	1158336	keystroke_d	d	n/a
579.378	0.105	1158756	keystroke_r	r	n/a
579.633	0.165	1159266	keystroke_o	o	n/a
579.813	0.12	1159626	keystroke_p	p	n/a
579.978	0.09	1159956	keystroke_s	s	n/a
580.3525	0.12	1160705	keystroke_Key.space	Key.space	n/a
580.7435	0.09	1161487	keystroke_g	g	n/a
580.9375	0.12	1161875	keystroke_o	o	n/a
581.0875	0.106	1162175	keystroke_r	r	n/a
581.3285	0.089	1162657	keystroke_d	d	n/a
581.4785	0.21	1162957	keystroke_o	o	n/a
581.6735	0.075	1163347	keystroke_n	n	n/a
581.8675	0.06	1163735	keystroke_Key.enter	Key.enter	n/a
581.9325	19.857	1163865	prompt	n/a	celebrate sauce contributing jazz\n
582.6035	0.179	1165207	keystroke_v	v	n/a
582.8575	0.1655	1165715	keystroke_e	e	n/a
583.278	0.075	1166556	keystroke_Key.backspace	Key.backspace	n/a
583.593	0.075	1167186	keystroke_Key.backspace	Key.backspace	n/a
584.2535	0.135	1168507	keystroke_c	c	n/a
584.4485	0.12	1168897	keystroke_e	e	n/a
584.5825	0.09	1169165	keystroke_l	l	n/a
584.7635	0.134	1169527	keystroke_e	e	n/a
585.0475	0.091	1170095	keystroke_v	v	n/a
585.9785	0.06	1171957	keystroke_Key.backspace	Key.backspace	n/a
586.1285	0.09	1172257	keystroke_b	b	n/a
586.4735	0.12	1172947	keystroke_r	r	n/a
586.6235	0.21	1173247	keystroke_a	a	n/a
586.8185	0.135	1173637	keystroke_t	t	n/a
586.9225	0.135	1173845	keystroke_e	e	n/a
587.2075	0.09	1174415	keystroke_Key.space	Key.space	n/a
587.3275	0.09	1174655	keystroke_s	s	n/a
587.6285	0.104	1175257	keystroke_a	a	n/a
587.7485	0.059	1175497	keystroke_u	u	n/a
587.8535	0.149	1175707	keystroke_s	s	n/a
587.9725	0.15	1175945	keystroke_e	e	n/a
