onset	duration	sample	value	key	prompt_text
4.884	6.9335	9768	prompt	n/a	the quick brown fox jumps over a lazy dog\n
6.2375	0.013	12475	keystroke_t	t	n/a
6.2385	0.087	12477	keystroke_h	h	n/a
6.4755	0.075	12951	keystroke_e	e	n/a
6.5655	0.075	13131	keystroke_Key.space	Key.space	n/a
6.7005	0.12	13401	keystroke_q	q	n/a
6.8655	0.105	13731	keystroke_u	u	n/a
6.9255	0.09	13851	keystroke_i	i	n/a
7.0305	0.075	14061	keystroke_c	c	n/a
7.1205	0.105	14241	keystroke_k	k	n/a
7.2405	0.09	14481	keystroke_Key.space	Key.space	n/a
7.6905	0.075	15381	keystroke_b	b	n/a
7.7955	0.06	15591	keystroke_r	r	n/a
7.9	0.0755	15800	keystroke_o	o	n/a
7.9905	0.075	15981	keystroke_w	w	n/a
8.0955	0.09	16191	keystroke_n	n	n/a
8.2755	0.09	16551	keystroke_Key.space	Key.space	n/a
8.8605	0.03	17721	keystroke_f	f	n/a
8.9505	0.09	17901	keystroke_o	o	n/a
9.1305	0.075	18261	keystroke_x	x	n/a
9.1905	0.075	18381	keystroke_Key.space	Key.space	n/a
9.4005	0.075	18801	keystroke_j	j	n/a
9.5655	0.0595	19131	keystroke_u	u	n/a
9.8205	0.015	19641	keystroke_m	m	n/a
9.8505	0.0895	19701	keystroke_p	p	n/a
9.955	0.0905	19910	keystroke_s	s	n/a
10.0605	0.075	20121	keystroke_Key.space	Key.space	n/a
10.1955	0.09	20391	keystroke_o	o	n/a
10.2405	0.075	20481	keystroke_v	v	n/a
10.4055	0.075	20811	keystroke_e	e	n/a
10.45	0.0905	20900	keystroke_r	r	n/a
10.5095	0.075	21019	keystroke_Key.space	Key.space	n/a
10.6155	0.104	21231	keystroke_a	a	n/a
10.6755	0.075	21351	keystroke_Key.space	Key.space	n/a
10.7795	0.106	21559	keystroke_a	a	n/a
10.8255	0.09	21651	keystroke_l	l	n/a
10.9895	0.106	21979	keystroke_z	z	n/a
11.14	0.0595	22280	keystroke_y	y	n/a
11.2295	0.06	22459	keystroke_Key.space	Key.space	n/a
11.4395	0.076	22879	keystroke_d	d	n/a
11.5445	0.091	23089	keystroke_o	o	n/a
11.6505	0.0595	23301	keystroke_g	g	n/a
11.74	0.075	23480	keystroke_Key.enter	Key.enter	n/a
11.8215	9.88	23643	prompt	n/a	sagem selecting apparently copying\n
13.0595	0.1055	26119	keystroke_s	s	n/a
13.1045	0.1055	26209	keystroke_a	a	n/a
13.375	0.09	26750	keystroke_g	g	n/a
13.435	0.1045	26870	keystroke_e	e	n/a
13.555	0.0445	27110	keystroke_m	m	n/a
13.7045	0.075	27409	keystroke_Key.space	Key.space	n/a
14.0495	0.0605	28099	keystroke_d	d	n/a
14.41	0.09	28820	keystroke_Key.backspace	Key.backspace	n/a
14.575	0.075	29150	keystroke_s	s	n/a
14.74	0.06	29480	keystroke_e	e	n/a
14.92	0.06	29840	keystroke_e	e	n/a
15.685	0.075	31370	keystroke_Key.backspace	Key.backspace	n/a
16.39	0.09	32780	keystroke_l	l	n/a
16.7945	0.105	33589	keystroke_e	e	n/a
16.8545	0.075	33709	keystroke_c	c	n/a
17.0795	0.06	34159	keystroke_t	t	n/a
17.1845	0.106	34369	keystroke_i	i	n/a
17.2445	0.075	34489	keystroke_n	n	n/a
17.3045	0.061	34609	keystroke_g	g	n/a
17.3945	0.09	34789	keystroke_Key.space	Key.space	n/a
18.1895	0.075	36379	keystroke_a	a	n/a
18.2945	0.075	36589	keystroke_p	p	n/a
18.8345	0.105	37669	keystroke_p	p	n/a
18.9695	0.09	37939	keystroke_a	a	n/a
19.2095	0.09	38419	keystroke_r	r	n/a
19.2245	0.1205	38449	keystroke_e	e	n/a
19.5245	0.105	39049	keystroke_n	n	n/a
19.7945	0.105	39589	keystroke_t	t	n/a
19.9295	0.09	39859	keystroke_l	l	n/a
20.0345	0.075	40069	keystroke_y	y	n/a
20.1545	0.105	40309	keystroke_Key.space	Key.space	n/a
20.5445	0.045	41089	keystroke_c	c	n/a
20.8745	0.15	41749	keystroke_o	o	n/a
20.9495	0.105	41899	keystroke_p	p	n/a
21.1145	0.06	42229	keystroke_y	y	n/a
21.2345	0.09	42469	keystroke_i	i	n/a
21.2945	0.06	42589	keystroke_n	n	n/a
21.3255	0.059	42651	keystroke_g	g	n/a
21.4445	0.075	42889	keystroke_Key.space	Key.space	n/a
21.6395	0.06	43279	keystroke_Key.enter	Key.enter	n/a
21.7045	8.8165	43409	prompt	n/a	investor possession something's logistics\n
22.54	0.105	45080	keystroke_i	i	n/a
22.6	0.1045	45200	keystroke_n	n	n/a
22.7645	0.105	45529	keystroke_v	v	n/a
22.8245	0.075	45649	keystroke_e	e	n/a
23.0195	0.03	46039	keystroke_s	s	n/a
23.1245	0.09	46249	keystroke_t	t	n/a
23.2295	0.105	46459	keystroke_o	o	n/a
23.3195	0.09	46639	keystroke_r	r	n/a
23.4245	0.0905	46849	keystroke_Key.space	Key.space	n/a
23.62	0.135	47240	keystroke_p	p	n/a
23.74	0.1045	47480	keystroke_o	o	n/a
23.8595	0.06	47719	keystroke_s	s	n/a
23.9945	0.06	47989	keystroke_s	s	n/a
24.1595	0.075	48319	keystroke_e	e	n/a
24.2945	0.075	48589	keystroke_s	s	n/a
24.4445	0.06	48889	keystroke_s	s	n/a
24.625	0.09	49250	keystroke_i	i	n/a
24.67	0.12	49340	keystroke_o	o	n/a
24.85	0.075	49700	keystroke_n	n	n/a
24.91	0.075	49820	keystroke_Key.space	Key.space	n/a
25.165	0.105	50330	keystroke_s	s	n/a
25.255	0.105	50510	keystroke_o	o	n/a
25.3	0.12	50600	keystroke_m	m	n/a
25.465	0.09	50930	keystroke_e	e	n/a
25.705	0.075	51410	keystroke_t	t	n/a
25.765	0.06	51530	keystroke_h	h	n/a
25.825	0.09	51650	keystroke_i	i	n/a
25.87	0.075	51740	keystroke_n	n	n/a
25.93	0.06	51860	keystroke_g	g	n/a
26.6345	0.06	53269	keystroke_'	'	n/a
26.7095	0.075	53419	keystroke_s	s	n/a
26.8745	0.075	53749	keystroke_Key.space	Key.space	n/a
27.6245	0.06	55249	keystroke_l	l	n/a
27.8045	0.09	55609	keystroke_o	o	n/a
27.9095	0.075	55819	keystroke_g	g	n/a
28.0145	0.075	56029	keystroke_i	i	n/a
28.3295	0.09	56659	keystroke_s	s	n/a
28.8995	0.075	57799	keystroke_t	t	n/a
29.0345	0.09	58069	keystroke_i	i	n/a
29.3195	0.12	58639	keystroke_c	c	n/a
29.3945	0.105	58789	keystroke_s	s	n/a
30.4	0.12	60800	keystroke_Key.enter	Key.enter	n/a
30.5245	7.602	61049	prompt	n/a	inflation tyler suffering infection\n
31.2695	0.105	62539	keystroke_i	i	n/a
31.3295	0.0905	62659	keystroke_n	n	n/a
31.464	0.016	62928	keystroke_f	f	n/a
31.51	0.09	63020	keystroke_l	l	n/a
31.584	0.075	63168	keystroke_a	a	n/a
31.734	0.075	63468	keystroke_t	t	n/a
31.825	0.1045	63650	keystroke_i	i	n/a
31.8845	0.105	63769	keystroke_o	o	n/a
32.079	0.06	64158	keystroke_n	n	n/a
32.124	0.075	64248	keystroke_Key.space	Key.space	n/a
32.559	0.12	65118	keystroke_t	t	n/a
32.619	0.105	65238	keystroke_y	y	n/a
32.739	0.105	65478	keystroke_l	l	n/a
32.874	0.1205	65748	keystroke_e	e	n/a
32.9645	0.09	65929	keystroke_r	r	n/a
33.1145	0.12	66229	keystroke_Key.space	Key.space	n/a
33.5945	0.09	67189	keystroke_s	s	n/a
33.7445	0.075	67489	keystroke_u	u	n/a
33.8645	0.09	67729	keystroke_f	f	n/a
33.9995	0.075	67999	keystroke_f	f	n/a
34.1195	0.105	68239	keystroke_e	e	n/a
34.1945	0.09	68389	keystroke_r	r	n/a
34.795	0.06	69590	keystroke_Key.backspace	Key.backspace	n/a
36.205	0.075	72410	keystroke_r	r	n/a
36.34	0.12	72680	keystroke_i	i	n/a
36.415	0.06	72830	keystroke_n	n	n/a
36.43	0.075	72860	keystroke_g	g	n/a
36.55	0.12	73100	keystroke_Key.space	Key.space	n/a
36.82	0.09	73640	keystroke_i	i	n/a
36.85	0.105	73700	keystroke_n	n	n/a
37.2395	0.09	74479	keystroke_f	f	n/a
37.2995	0.135	74599	keystroke_e	e	n/a
37.4495	0.09	74899	keystroke_c	c	n/a
37.6595	0.045	75319	keystroke_t	t	n/a
37.7195	0.075	75439	keystroke_i	i	n/a
37.7495	0.105	75499	keystroke_o	o	n/a
37.8845	0.09	75769	keystroke_n	n	n/a
38.0195	0.105	76039	keystroke_Key.enter	Key.enter	n/a
38.129	5.1275	76258	prompt	n/a	highs common racial checked\n
39.295	0.075	78590	keystroke_h	h	n/a
39.355	0.105	78710	keystroke_i	i	n/a
39.445	0.075	78890	keystroke_g	g	n/a
39.55	0.09	79100	keystroke_h	h	n/a
39.745	0.105	79490	keystroke_s	s	n/a
39.8945	0.105	79789	keystroke_Key.space	Key.space	n/a
40.075	0.075	80150	keystroke_c	c	n/a
40.21	0.09	80420	keystroke_o	o	n/a
40.27	0.075	80540	keystroke_m	m	n/a
40.42	0.105	80840	keystroke_m	m	n/a
40.5845	0.135	81169	keystroke_o	o	n/a
40.6745	0.09	81349	keystroke_n	n	n/a
40.7795	0.06	81559	keystroke_Key.space	Key.space	n/a
41.1995	0.075	82399	keystroke_r	r	n/a
41.3495	0.1055	82699	keystroke_a	a	n/a
41.4095	0.1055	82819	keystroke_c	c	n/a
41.53	0.09	83060	keystroke_i	i	n/a
41.635	0.105	83270	keystroke_a	a	n/a
41.829	0.075	83658	keystroke_Key.space	Key.space	n/a
42.22	0.06	84440	keystroke_c	c	n/a
42.309	0.091	84618	keystroke_h	h	n/a
42.4	0.0895	84800	keystroke_e	e	n/a
42.4595	0.09	84919	keystroke_c	c	n/a
42.5645	0.0745	85129	keystroke_k	k	n/a
42.835	0.075	85670	keystroke_e	e	n/a
43.0445	0.06	86089	keystroke_d	d	n/a
43.1645	0.09	86329	keystroke_Key.enter	Key.enter	n/a
43.2595	5.7715	86519	prompt	n/a	materials tune reality billion\n
44.095	0.105	88190	keystroke_m	m	n/a
44.17	0.075	88340	keystroke_a	a	n/a
44.305	0.075	88610	keystroke_t	t	n/a
44.425	0.12	88850	keystroke_e	e	n/a
44.5	0.06	89000	keystroke_r	r	n/a
44.605	0.06	89210	keystroke_i	i	n/a
44.68	0.0895	89360	keystroke_a	a	n/a
44.8295	0.015	89659	keystroke_l	l	n/a
44.8895	0.075	89779	keystroke_s	s	n/a
44.9795	0.1055	89959	keystroke_Key.space	Key.space	n/a
45.2195	0.09	90439	keystroke_t	t	n/a
45.3845	0.105	90769	keystroke_u	u	n/a
45.4445	0.09	90889	keystroke_n	n	n/a
45.5495	0.075	91099	keystroke_e	e	n/a
45.6695	0.105	91339	keystroke_Key.space	Key.space	n/a
46.54	0.09	93080	keystroke_r	r	n/a
46.57	0.09	93140	keystroke_e	e	n/a
46.705	0.09	93410	keystroke_a	a	n/a
46.81	0.105	93620	keystroke_l	l	n/a
47.02	0.09	94040	keystroke_i	i	n/a
47.17	0.09	94340	keystroke_t	t	n/a
47.215	0.075	94430	keystroke_y	y	n/a
47.32	0.12	94640	keystroke_Key.space	Key.space	n/a
47.9795	0.105	95959	keystroke_b	b	n/a
48.0245	0.09	96049	keystroke_i	i	n/a
48.2195	0.075	96439	keystroke_l	l	n/a
48.3545	0.06	96709	keystroke_l	l	n/a
48.5495	0.09	97099	keystroke_i	i	n/a
48.6545	0.105	97309	keystroke_o	o	n/a
48.7745	0.1055	97549	keystroke_n	n	n/a
48.955	0.075	97910	keystroke_Key.enter	Key.enter	n/a
49.036	5.2755	98072	prompt	n/a	weak issue strand eagle\n
50.065	0.09	100130	keystroke_w	w	n/a
50.11	0.105	100220	keystroke_e	e	n/a
50.32	0.075	100640	keystroke_a	a	n/a
50.454	0.091	100908	keystroke_k	k	n/a
50.679	0.09	101358	keystroke_Key.space	Key.space	n/a
51.084	0.091	102168	keystroke_i	i	n/a
51.204	0.075	102408	keystroke_s	s	n/a
51.354	0.09	102708	keystroke_s	s	n/a
51.459	0.09	102918	keystroke_u	u	n/a
51.594	0.0905	103188	keystroke_e	e	n/a
51.7295	0.075	103459	keystroke_Key.space	Key.space	n/a
52.075	0.059	104150	keystroke_s	s	n/a
52.2845	0.06	104569	keystroke_t	t	n/a
52.2995	0.09	104599	keystroke_r	r	n/a
52.4645	0.12	104929	keystroke_a	a	n/a
52.5995	0.105	105199	keystroke_n	n	n/a
52.7645	0.135	105529	keystroke_d	d	n/a
52.9145	0.075	105829	keystroke_Key.space	Key.space	n/a
53.4545	0.075	106909	keystroke_e	e	n/a
53.5895	0.09	107179	keystroke_a	a	n/a
53.7845	0.0605	107569	keystroke_g	g	n/a
53.904	0.09	107808	keystroke_l	l	n/a
54.024	0.045	108048	keystroke_e	e	n/a
54.234	0.075	108468	keystroke_Key.enter	Key.enter	n/a
54.316	7.0905	108632	prompt	n/a	conversion accompanied tamil library\n
55.254	0.06	110508	keystroke_c	c	n/a
55.315	0.164	110630	keystroke_o	o	n/a
55.419	0.12	110838	keystroke_n	n	n/a
55.494	0.06	110988	keystroke_v	v	n/a
55.644	0.09	111288	keystroke_e	e	n/a
55.719	0.06	111438	keystroke_r	r	n/a
55.824	0.09	111648	keystroke_s	s	n/a
55.929	0.09	111858	keystroke_i	i	n/a
55.974	0.105	111948	keystroke_o	o	n/a
56.154	0.0905	112308	keystroke_n	n	n/a
56.2295	0.09	112459	keystroke_Key.space	Key.space	n/a
56.4545	0.105	112909	keystroke_a	a	n/a
56.6195	0.075	113239	keystroke_c	c	n/a
56.7695	0.075	113539	keystroke_c	c	n/a
56.8745	0.12	113749	keystroke_o	o	n/a
56.9345	0.105	113869	keystroke_m	m	n/a
57.0995	0.09	114199	keystroke_p	p	n/a
57.3245	0.09	114649	keystroke_a	a	n/a
58.0745	0.135	116149	keystroke_n	n	n/a
58.1645	0.105	116329	keystroke_i	i	n/a
58.57	0.075	117140	keystroke_e	e	n/a
58.705	0.1345	117410	keystroke_d	d	n/a
58.81	0.0895	117620	keystroke_Key.space	Key.space	n/a
59.0345	0.06	118069	keystroke_t	t	n/a
59.1995	0.075	118399	keystroke_a	a	n/a
59.2895	0.09	118579	keystroke_m	m	n/a
59.4245	0.075	118849	keystroke_i	i	n/a
59.6195	0.0895	119239	keystroke_l	l	n/a
59.694	0.09	119388	keystroke_Key.space	Key.space	n/a
60.1745	0.075	120349	keystroke_l	l	n/a
60.3695	0.075	120739	keystroke_i	i	n/a
60.4455	0.089	120891	keystroke_b	b	n/a
60.6245	0.075	121249	keystroke_r	r	n/a
60.835	0.135	121670	keystroke_a	a	n/a
60.925	0.12	121850	keystroke_r	r	n/a
61.21	0.0595	122420	keystroke_y	y	n/a
61.2995	0.1055	122599	keystroke_Key.enter	Key.enter	n/a
61.4095	6.9715	122819	prompt	n/a	zones declare lopez discovered\n
62.56	0.105	125120	keystroke_z	z	n/a
62.77	0.12	125540	keystroke_o	o	n/a
62.815	0.105	125630	keystroke_n	n	n/a
62.905	0.06	125810	keystroke_e	e	n/a
63.07	0.06	126140	keystroke_s	s	n/a
63.16	0.105	126320	keystroke_Key.space	Key.space	n/a
63.535	0.06	127070	keystroke_d	d	n/a
63.715	0.075	127430	keystroke_e	e	n/a
63.895	0.0745	127790	keystroke_c	c	n/a
64.0595	0.09	128119	keystroke_l	l	n/a
64.2095	0.12	128419	keystroke_a	a	n/a
64.3745	0.1495	128749	keystroke_r	r	n/a
64.479	0.105	128958	keystroke_e	e	n/a
64.779	0.0905	129558	keystroke_Key.space	Key.space	n/a
65.2295	0.0745	130459	keystroke_l	l	n/a
65.454	0.09	130908	keystroke_o	o	n/a
65.529	0.045	131058	keystroke_p	p	n/a
65.709	0.06	131418	keystroke_e	e	n/a
66.3245	0.105	132649	keystroke_z	z	n/a
66.4895	0.1055	132979	keystroke_Key.space	Key.space	n/a
66.9245	0.06	133849	keystroke_d	d	n/a
67.0145	0.12	134029	keystroke_i	i	n/a
67.1045	0.06	134209	keystroke_s	s	n/a
67.2695	0.075	134539	keystroke_c	c	n/a
67.4045	0.105	134809	keystroke_o	o	n/a
67.4945	0.075	134989	keystroke_v	v	n/a
67.7045	0.075	135409	keystroke_e	e	n/a
67.7645	0.1495	135529	keystroke_r	r	n/a
67.854	0.1055	135708	keystroke_e	e	n/a
67.989	0.12	135978	keystroke_d	d	n/a
68.274	0.105	136548	keystroke_Key.enter	Key.enter	n/a
68.386	5.875	136772	prompt	n/a	dealt sacrifice walks iran\n
69.174	0.09	138348	keystroke_d	d	n/a
69.399	0.105	138798	keystroke_e	e	n/a
69.429	0.12	138858	keystroke_a	a	n/a
69.609	0.09	139218	keystroke_l	l	n/a
69.804	0.1055	139608	keystroke_t	t	n/a
69.9995	0.09	139999	keystroke_Key.space	Key.space	n/a
70.3755	0.134	140751	keystroke_s	s	n/a
70.4495	0.09	140899	keystroke_a	a	n/a
70.6445	0.06	141289	keystroke_c	c	n/a
70.8395	0.06	141679	keystroke_r	r	n/a
70.9145	0.09	141829	keystroke_i	i	n/a
71.0195	0.075	142039	keystroke_f	f	n/a
71.1095	0.09	142219	keystroke_i	i	n/a
71.9045	0.12	143809	keystroke_c	c	n/a
71.9795	0.105	143959	keystroke_e	e	n/a
72.0995	0.075	144199	keystroke_Key.space	Key.space	n/a
72.5945	0.075	145189	keystroke_w	w	n/a
72.7745	0.09	145549	keystroke_a	a	n/a
72.8795	0.15	145759	keystroke_l	l	n/a
72.9545	0.09	145909	keystroke_k	k	n/a
73.0595	0.075	146119	keystroke_s	s	n/a
73.1945	0.075	146389	keystroke_Key.space	Key.space	n/a
73.6595	0.075	147319	keystroke_i	i	n/a
73.7945	0.1045	147589	keystroke_r	r	n/a
73.884	0.09	147768	keystroke_a	a	n/a
73.989	0.075	147978	keystroke_n	n	n/a
74.169	0.09	148338	keystroke_Key.enter	Key.enter	n/a
74.2635	7.8275	148527	prompt	n/a	meta sophisticated onto beyond\n
74.919	0.09	149838	keystroke_m	m	n/a
74.994	0.105	149988	keystroke_a	a	n/a
75.474	0.075	150948	keystroke_Key.backspace	Key.backspace	n/a
75.624	0.105	151248	keystroke_e	e	n/a
75.7	0.059	151400	keystroke_t	t	n/a
75.8495	0.06	151699	keystroke_a	a	n/a
75.9695	0.12	151939	keystroke_Key.space	Key.space	n/a
76.4495	0.06	152899	keystroke_s	s	n/a
76.4945	0.1195	152989	keystroke_o	o	n/a
76.554	0.106	153108	keystroke_p	p	n/a
76.854	0.075	153708	keystroke_h	h	n/a
76.944	0.09	153888	keystroke_i	i	n/a
77.094	0.09	154188	keystroke_s	s	n/a
77.334	0.015	154668	keystroke_t	t	n/a
77.499	0.06	154998	keystroke_i	i	n/a
77.544	0.105	155088	keystroke_c	c	n/a
77.679	0.075	155358	keystroke_a	a	n/a
77.9045	0.075	155809	keystroke_l	l	n/a
78.444	0.105	156888	keystroke_Key.backspace	Key.backspace	n/a
78.609	0.1205	157218	keystroke_t	t	n/a
78.7145	0.075	157429	keystroke_e	e	n/a
78.8645	0.075	157729	keystroke_d	d	n/a
78.9545	0.105	157909	keystroke_Key.space	Key.space	n/a
79.4495	0.09	158899	keystroke_o	o	n/a
79.4795	0.12	158959	keystroke_n	n	n/a
79.5845	0.075	159169	keystroke_t	t	n/a
79.6595	0.09	159319	keystroke_o	o	n/a
79.8245	0.09	159649	keystroke_Key.space	Key.space	n/a
80.3495	0.06	160699	keystroke_b	b	n/a
80.3945	0.09	160789	keystroke_e	e	n/a
80.5745	0.075	161149	keystroke_y	y	n/a
80.664	0.105	161328	keystroke_o	o	n/a
80.724	0.09	161448	keystroke_n	n	n/a
80.784	0.09	161568	keystroke_f	f	n/a
81.5195	0.1045	163039	keystroke_Key.backspace	Key.backspace	n/a
81.654	0.045	163308	keystroke_d	d	n/a
81.8345	0.075	163669	keystroke_Key.space	Key.space	n/a
81.9995	0.09	163999	keystroke_Key.enter	Key.enter	n/a
82.099	4.822	164198	prompt	n/a	deficit further rats poems\n
82.809	0.09	165618	keystroke_d	d	n/a
83.019	0.105	166038	keystroke_e	e	n/a
83.064	0.105	166128	keystroke_f	f	n/a
83.199	0.12	166398	keystroke_i	i	n/a
83.334	0.045	166668	keystroke_c	c	n/a
83.394	0.105	166788	keystroke_i	i	n/a
83.754	0.06	167508	keystroke_t	t	n/a
83.8595	0.12	167719	keystroke_Key.space	Key.space	n/a
84.4595	0.075	168919	keystroke_f	f	n/a
84.5645	0.105	169129	keystroke_u	u	n/a
84.6395	0.105	169279	keystroke_r	r	n/a
84.8945	0.09	169789	keystroke_t	t	n/a
84.9545	0.075	169909	keystroke_h	h	n/a
85.1345	0.09	170269	keystroke_e	e	n/a
85.1795	0.105	170359	keystroke_r	r	n/a
85.2695	0.105	170539	keystroke_Key.space	Key.space	n/a
85.4195	0.105	170839	keystroke_r	r	n/a
85.5845	0.105	171169	keystroke_a	a	n/a
85.7045	0.1055	171409	keystroke_t	t	n/a
85.9145	0.105	171829	keystroke_s	s	n/a
86.0045	0.105	172009	keystroke_Key.space	Key.space	n/a
86.2895	0.12	172579	keystroke_p	p	n/a
86.3345	0.12	172669	keystroke_o	o	n/a
86.4695	0.0895	172939	keystroke_e	e	n/a
86.62	0.119	173240	keystroke_m	m	n/a
86.695	0.135	173390	keystroke_s	s	n/a
86.844	0.075	173688	keystroke_Key.enter	Key.enter	n/a
86.9235	7.6925	173847	prompt	n/a	palace highlighted composite interested\n
87.714	0.12	175428	keystroke_p	p	n/a
87.849	0.09	175698	keystroke_a	a	n/a
88.029	0.075	176058	keystroke_l	l	n/a
88.12	0.089	176240	keystroke_a	a	n/a
88.51	0.134	177020	keystroke_c	c	n/a
88.584	0.12	177168	keystroke_e	e	n/a
88.689	0.12	177378	keystroke_Key.space	Key.space	n/a
89.3645	0.12	178729	keystroke_h	h	n/a
89.4545	0.12	178909	keystroke_i	i	n/a
89.4995	0.09	178999	keystroke_g	g	n/a
89.6345	0.06	179269	keystroke_h	h	n/a
89.7995	0.0745	179599	keystroke_l	l	n/a
89.994	0.105	179988	keystroke_i	i	n/a
90.1	0.074	180200	keystroke_g	g	n/a
90.189	0.1055	180378	keystroke_h	h	n/a
90.4445	0.105	180889	keystroke_t	t	n/a
90.5795	0.12	181159	keystroke_e	e	n/a
90.7595	0.09	181519	keystroke_d	d	n/a
90.8945	0.105	181789	keystroke_Key.space	Key.space	n/a
91.4795	0.09	182959	keystroke_c	c	n/a
91.5995	0.1045	183199	keystroke_o	o	n/a
91.6595	0.1045	183319	keystroke_m	m	n/a
91.824	0.105	183648	keystroke_p	p	n/a
92.079	0.06	184158	keystroke_o	o	n/a
92.169	0.105	184338	keystroke_s	s	n/a
92.394	0.075	184788	keystroke_i	i	n/a
92.484	0.105	184968	keystroke_t	t	n/a
92.739	0.075	185478	keystroke_e	e	n/a
92.859	0.105	185718	keystroke_Key.space	Key.space	n/a
93.0695	0.0895	186139	keystroke_i	i	n/a
93.1145	0.1055	186229	keystroke_n	n	n/a
93.474	0.09	186948	keystroke_t	t	n/a
93.639	0.09	187278	keystroke_e	e	n/a
93.699	0.195	187398	keystroke_r	r	n/a
93.804	0.105	187608	keystroke_e	e	n/a
93.999	0.09	187998	keystroke_s	s	n/a
94.149	0.135	188298	keystroke_t	t	n/a
94.269	0.075	188538	keystroke_e	e	n/a
94.404	0.09	188808	keystroke_d	d	n/a
94.509	0.105	189018	keystroke_Key.enter	Key.enter	n/a
94.6185	5.4575	189237	prompt	n/a	funk midwest endless pest\n
95.5145	0.03	191029	keystroke_f	f	n/a
95.6045	0.105	191209	keystroke_u	u	n/a
95.6495	0.12	191299	keystroke_n	n	n/a
95.8295	0.1045	191659	keystroke_k	k	n/a
96.009	0.105	192018	keystroke_Key.space	Key.space	n/a
96.2495	0.12	192499	keystroke_m	m	n/a
96.594	0.075	193188	keystroke_i	i	n/a
96.684	0.105	193368	keystroke_d	d	n/a
96.909	0.09	193818	keystroke_w	w	n/a
97.269	0.06	194538	keystroke_e	e	n/a
97.449	0.09	194898	keystroke_s	s	n/a
97.599	0.09	195198	keystroke_t	t	n/a
97.779	0.105	195558	keystroke_Key.space	Key.space	n/a
98.094	0.06	196188	keystroke_e	e	n/a
98.259	0.09	196518	keystroke_n	n	n/a
98.334	0.075	196668	keystroke_d	d	n/a
98.499	0.06	196998	keystroke_l	l	n/a
98.574	0.03	197148	keystroke_e	e	n/a
98.709	0.06	197418	keystroke_s	s	n/a
98.829	0.1205	197658	keystroke_s	s	n/a
98.9505	0.089	197901	keystroke_Key.space	Key.space	n/a
99.2345	0.105	198469	keystroke_p	p	n/a
99.4145	0.09	198829	keystroke_e	e	n/a
99.5645	0.09	199129	keystroke_s	s	n/a
99.6995	0.105	199399	keystroke_t	t	n/a
99.8195	0.0905	199639	keystroke_Key.space	Key.space	n/a
99.97	0.105	199940	keystroke_Key.enter	Key.enter	n/a
100.08	4.8115	200160	prompt	n/a	networking people rocket must\n
100.8245	0.06	201649	keystroke_n	n	n/a
100.9295	0.09	201859	keystroke_e	e	n/a
100.9895	0.09	201979	keystroke_t	t	n/a
101.154	0.076	202308	keystroke_w	w	n/a
101.1695	0.1055	202339	keystroke_o	o	n/a
101.395	0.045	202790	keystroke_r	r	n/a
101.41	0.075	202820	keystroke_k	k	n/a
101.9495	0.12	203899	keystroke_i	i	n/a
102.0095	0.075	204019	keystroke_n	n	n/a
102.0395	0.09	204079	keystroke_g	g	n/a
102.1745	0.09	204349	keystroke_Key.space	Key.space	n/a
102.3845	0.09	204769	keystroke_p	p	n/a
102.5045	0.0755	205009	keystroke_e	e	n/a
102.5945	0.18	205189	keystroke_o	o	n/a
102.7445	0.1355	205489	keystroke_p	p	n/a
102.82	0.1045	205640	keystroke_l	l	n/a
102.9395	0.09	205879	keystroke_e	e	n/a
103.06	0.0745	206120	keystroke_Key.space	Key.space	n/a
103.2395	0.06	206479	keystroke_r	r	n/a
103.3145	0.09	206629	keystroke_o	o	n/a
103.4345	0.09	206869	keystroke_c	c	n/a
103.509	0.09	207018	keystroke_k	k	n/a
103.914	0.0905	207828	keystroke_e	e	n/a
103.9895	0.075	207979	keystroke_t	t	n/a
104.0495	0.075	208099	keystroke_Key.space	Key.space	n/a
104.2295	0.075	208459	keystroke_m	m	n/a
104.4245	0.075	208849	keystroke_u	u	n/a
104.5145	0.09	209029	keystroke_s	s	n/a
104.6645	0.09	209329	keystroke_t	t	n/a
104.7995	0.09	209599	keystroke_Key.enter	Key.enter	n/a
104.8945	6.116	209789	prompt	n/a	angola banned listen variable\n
105.595	0.105	211190	keystroke_a	a	n/a
105.715	0.105	211430	keystroke_n	n	n/a
105.835	0.045	211670	keystroke_g	g	n/a
105.91	0.075	211820	keystroke_o	o	n/a
106.06	0.075	212120	keystroke_l	l	n/a
106.165	0.09	212330	keystroke_a	a	n/a
106.27	0.075	212540	keystroke_Key.space	Key.space	n/a
106.54	0.09	213080	keystroke_b	b	n/a
106.675	0.0895	213350	keystroke_a	a	n/a
106.8095	0.075	213619	keystroke_n	n	n/a
106.9445	0.075	213889	keystroke_n	n	n/a
107.1395	0.09	214279	keystroke_e	e	n/a
107.3945	0.09	214789	keystroke_Key.space	Key.space	n/a
107.7695	0.09	215539	keystroke_Key.backspace	Key.backspace	n/a
107.9495	0.06	215899	keystroke_d	d	n/a
108.055	0.075	216110	keystroke_Key.space	Key.space	n/a
108.235	0.075	216470	keystroke_l	l	n/a
108.43	0.075	216860	keystroke_i	i	n/a
108.52	0.06	217040	keystroke_s	s	n/a
108.685	0.105	217370	keystroke_t	t	n/a
108.76	0.075	217520	keystroke_e	e	n/a
108.835	0.06	217670	keystroke_n	n	n/a
108.985	0.09	217970	keystroke_Key.space	Key.space	n/a
109.3	0.075	218600	keystroke_v	v	n/a
109.39	0.045	218780	keystroke_a	a	n/a
109.51	0.09	219020	keystroke_r	r	n/a
109.72	0.06	219440	keystroke_i	i	n/a
110.08	0.075	220160	keystroke_a	a	n/a
110.35	0.06	220700	keystroke_b	b	n/a
110.455	0.12	220910	keystroke_l	l	n/a
110.62	0.075	221240	keystroke_e	e	n/a
110.725	0.1045	221450	keystroke_Key.space	Key.space	n/a
110.9345	0.075	221869	keystroke_Key.enter	Key.enter	n/a
111.015	5.726	222030	prompt	n/a	front reserve livestock cord\n
111.7895	0.105	223579	keystroke_f	f	n/a
111.9845	0.06	223969	keystroke_r	r	n/a
112.0895	0.105	224179	keystroke_o	o	n/a
112.1645	0.06	224329	keystroke_n	n	n/a
112.2095	0.075	224419	keystroke_t	t	n/a
112.3145	0.105	224629	keystroke_Key.space	Key.space	n/a
112.7945	0.1045	225589	keystroke_r	r	n/a
112.8545	0.0745	225709	keystroke_e	e	n/a
113.034	0.0605	226068	keystroke_s	s	n/a
113.23	0.09	226460	keystroke_e	e	n/a
113.274	0.091	226548	keystroke_r	r	n/a
113.575	0.1495	227150	keystroke_v	v	n/a
113.6795	0.105	227359	keystroke_e	e	n/a
113.7995	0.12	227599	keystroke_Key.space	Key.space	n/a
113.9795	0.105	227959	keystroke_l	l	n/a
114.2045	0.09	228409	keystroke_i	i	n/a
114.3395	0.105	228679	keystroke_v	v	n/a
114.3845	0.09	228769	keystroke_e	e	n/a
114.5495	0.075	229099	keystroke_s	s	n/a
114.6995	0.0895	229399	keystroke_t	t	n/a
114.819	0.09	229638	keystroke_o	o	n/a
115.1645	0.045	230329	keystroke_c	c	n/a
115.674	0.075	231348	keystroke_k	k	n/a
115.929	0.105	231858	keystroke_Key.space	Key.space	n/a
116.1995	0.06	232399	keystroke_c	c	n/a
116.2745	0.075	232549	keystroke_o	o	n/a
116.3945	0.045	232789	keystroke_r	r	n/a
116.5295	0.0895	233059	keystroke_d	d	n/a
116.6645	0.075	233329	keystroke_Key.enter	Key.enter	n/a
116.744	5.8015	233488	prompt	n/a	impression patch event o'clock\n
117.354	0.12	234708	keystroke_i	i	n/a
117.444	0.075	234888	keystroke_m	m	n/a
117.8495	0.09	235699	keystroke_p	p	n/a
118.0445	0.12	236089	keystroke_r	r	n/a
118.1045	0.075	236209	keystroke_e	e	n/a
118.2995	0.045	236599	keystroke_s	s	n/a
118.4345	0.075	236869	keystroke_s	s	n/a
118.5395	0.075	237079	keystroke_i	i	n/a
118.5845	0.105	237169	keystroke_o	o	n/a
118.7495	0.09	237499	keystroke_n	n	n/a
118.8095	0.075	237619	keystroke_Key.space	Key.space	n/a
118.989	0.09	237978	keystroke_p	p	n/a
119.094	0.075	238188	keystroke_a	a	n/a
119.199	0.075	238398	keystroke_t	t	n/a
119.394	0.09	238788	keystroke_c	c	n/a
119.469	0.06	238938	keystroke_h	h	n/a
119.634	0.075	239268	keystroke_Key.space	Key.space	n/a
119.739	0.075	239478	keystroke_e	e	n/a
119.829	0.135	239658	keystroke_v	v	n/a
119.919	0.135	239838	keystroke_e	e	n/a
120.039	0.09	240078	keystroke_n	n	n/a
120.189	0.09	240378	keystroke_t	t	n/a
120.2945	0.105	240589	keystroke_Key.space	Key.space	n/a
120.7145	0.09	241429	keystroke_o	o	n/a
121.3295	0.075	242659	keystroke_'	'	n/a
121.7635	0.061	243527	keystroke_c	c	n/a
121.8395	0.104	243679	keystroke_l	l	n/a
122.0495	0.059	244099	keystroke_o	o	n/a
122.1545	0.075	244309	keystroke_c	c	n/a
122.2445	0.074	244489	keystroke_k	k	n/a
122.4535	0.09	244907	keystroke_Key.enter	Key.enter	n/a
122.55	8.561	245100	prompt	n/a	britannica surfaces explorer application\n
123.3835	0.105	246767	keystroke_b	b	n/a
123.4735	0.105	246947	keystroke_r	r	n/a
123.5635	0.09	247127	keystroke_i	i	n/a
123.6845	0.059	247369	keystroke_t	t	n/a
123.7895	0.074	247579	keystroke_a	a	n/a
123.8785	0.06	247757	keystroke_n	n	n/a
123.9985	0.075	247997	keystroke_n	n	n/a
124.1335	0.0905	248267	keystroke_i	i	n/a
124.2385	0.105	248477	keystroke_c	c	n/a
124.2985	0.105	248597	keystroke_a	a	n/a
124.3885	0.105	248777	keystroke_Key.space	Key.space	n/a
124.6735	0.09	249347	keystroke_s	s	n/a
124.7785	0.075	249557	keystroke_u	u	n/a
124.8685	0.09	249737	keystroke_r	r	n/a
125.2285	0.075	250457	keystroke_f	f	n/a
125.4085	0.105	250817	keystroke_a	a	n/a
125.4995	0.179	250999	keystroke_c	c	n/a
125.6195	0.089	251239	keystroke_e	e	n/a
125.8135	0.075	251627	keystroke_s	s	n/a
125.9035	0.105	251807	keystroke_Key.space	Key.space	n/a
126.4145	0.045	252829	keystroke_e	e	n/a
126.729	0.075	253458	keystroke_x	x	n/a
127.014	0.135	254028	keystroke_p	p	n/a
127.059	0.105	254118	keystroke_l	l	n/a
127.284	0.09	254568	keystroke_o	o	n/a
127.404	0.105	254808	keystroke_r	r	n/a
127.449	0.09	254898	keystroke_e	e	n/a
127.614	0.075	255228	keystroke_e	e	n/a
127.644	0.09	255288	keystroke_r	r	n/a
128.079	0.06	256158	keystroke_Key.backspace	Key.backspace	n/a
128.6645	0.06	257329	keystroke_Key.backspace	Key.backspace	n/a
128.8895	0.075	257779	keystroke_r	r	n/a
129.0095	0.0445	258019	keystroke_Key.space	Key.space	n/a
129.7745	0.09	259549	keystroke_a	a	n/a
129.8795	0.09	259759	keystroke_p	p	n/a
130.0295	0.06	260059	keystroke_p	p	n/a
130.1495	0.09	260299	keystroke_l	l	n/a
130.3445	0.09	260689	keystroke_i	i	n/a
130.4195	0.06	260839	keystroke_c	c	n/a
130.4495	0.09	260899	keystroke_a	a	n/a
130.6145	0.06	261229	keystroke_t	t	n/a
130.6895	0.075	261379	keystroke_i	i	n/a
130.7195	0.09	261439	keystroke_o	o	n/a
130.8545	0.105	261709	keystroke_n	n	n/a
131.0345	0.075	262069	keystroke_Key.enter	Key.enter	n/a
131.115	4.601	262230	prompt	n/a	admissions gloves compare inches\n
131.8145	0.135	263629	keystroke_a	a	n/a
131.9345	0.09	263869	keystroke_d	d	n/a
132.0695	0.105	264139	keystroke_m	m	n/a
132.2195	0.0745	264439	keystroke_i	i	n/a
132.309	0.075	264618	keystroke_s	s	n/a
132.474	0.075	264948	keystroke_s	s	n/a
132.5795	0.09	265159	keystroke_i	i	n/a
132.6395	0.09	265279	keystroke_o	o	n/a
132.8045	0.0745	265609	keystroke_n	n	n/a
132.819	0.106	265638	keystroke_s	s	n/a
133.014	0.075	266028	keystroke_Key.space	Key.space	n/a
133.434	0.06	266868	keystroke_g	g	n/a
133.524	0.075	267048	keystroke_l	l	n/a
133.704	0.09	267408	keystroke_o	o	n/a
133.779	0.075	267558	keystroke_v	v	n/a
133.809	0.09	267618	keystroke_e	e	n/a
134.0045	0.045	268009	keystroke_s	s	n/a
134.0945	0.09	268189	keystroke_Key.space	Key.space	n/a
134.2445	0.09	268489	keystroke_c	c	n/a
134.3195	0.09	268639	keystroke_o	o	n/a
134.3645	0.075	268729	keystroke_m	m	n/a
134.5145	0.09	269029	keystroke_p	p	n/a
134.5445	0.105	269089	keystroke_a	a	n/a
134.6945	0.135	269389	keystroke_r	r	n/a
134.7695	0.105	269539	keystroke_e	e	n/a
134.8595	0.09	269719	keystroke_Key.space	Key.space	n/a
134.9945	0.135	269989	keystroke_i	i	n/a
135.0695	0.135	270139	keystroke_n	n	n/a
135.1595	0.105	270319	keystroke_c	c	n/a
135.3245	0.09	270649	keystroke_h	h	n/a
135.3545	0.061	270709	keystroke_e	e	n/a
135.5195	0.075	271039	keystroke_s	s	n/a
135.6245	0.09	271249	keystroke_Key.enter	Key.enter	n/a
135.7205	7.0755	271441	prompt	n/a	infringement annually helpful played\n
136.5395	0.09	273079	keystroke_i	i	n/a
136.5695	0.09	273139	keystroke_n	n	n/a
136.7645	0.06	273529	keystroke_f	f	n/a
136.9295	0.06	273859	keystroke_r	r	n/a
136.9745	0.09	273949	keystroke_i	i	n/a
137.0195	0.09	274039	keystroke_n	n	n/a
137.0945	0.075	274189	keystroke_g	g	n/a
137.1845	0.09	274369	keystroke_e	e	n/a
137.3045	0.09	274609	keystroke_m	m	n/a
137.4095	0.075	274819	keystroke_e	e	n/a
137.5145	0.075	275029	keystroke_n	n	n/a
137.6045	0.06	275209	keystroke_t	t	n/a
137.6945	0.09	275389	keystroke_Key.space	Key.space	n/a
137.8595	0.09	275719	keystroke_a	a	n/a
137.9645	0.06	275929	keystroke_n	n	n/a
138.0545	0.075	276109	keystroke_n	n	n/a
138.2195	0.06	276439	keystroke_u	u	n/a
138.2945	0.075	276589	keystroke_a	a	n/a
138.4295	0.06	276859	keystroke_l	l	n/a
138.5495	0.06	277099	keystroke_l	l	n/a
138.6245	0.09	277249	keystroke_y	y	n/a
138.7595	0.075	277519	keystroke_Key.space	Key.space	n/a
139.2395	0.09	278479	keystroke_h	h	n/a
139.3595	0.075	278719	keystroke_e	e	n/a
139.5995	0.12	279199	keystroke_p	p	n/a
140.1695	0.105	280339	keystroke_Key.backspace	Key.backspace	n/a
140.3795	0.105	280759	keystroke_l	l	n/a
140.5295	0.06	281059	keystroke_p	p	n/a
141.174	0.06	282348	keystroke_f	f	n/a
141.249	0.105	282498	keystroke_u	u	n/a
141.414	0.075	282828	keystroke_l	l	n/a
141.534	0.075	283068	keystroke_Key.space	Key.space	n/a
142.029	0.135	284058	keystroke_p	p	n/a
142.104	0.105	284208	keystroke_l	l	n/a
142.194	0.075	284388	keystroke_a	a	n/a
142.344	0.105	284688	keystroke_y	y	n/a
142.434	0.09	284868	keystroke_e	e	n/a
142.629	0.075	285258	keystroke_d	d	n/a
142.719	0.075	285438	keystroke_Key.enter	Key.enter	n/a
142.7995	7.046	285599	prompt	n/a	posted sleeve fundamentals to've\n
143.484	0.135	286968	keystroke_p	p	n/a
143.559	0.09	287118	keystroke_o	o	n/a
143.634	0.105	287268	keystroke_s	s	n/a
143.799	0.09	287598	keystroke_t	t	n/a
143.874	0.075	287748	keystroke_e	e	n/a
144.009	0.09	288018	keystroke_d	d	n/a
144.084	0.105	288168	keystroke_Key.space	Key.space	n/a
144.234	0.075	288468	keystroke_s	s	n/a
144.339	0.075	288678	keystroke_l	l	n/a
144.459	0.03	288918	keystroke_e	e	n/a
144.549	0.105	289098	keystroke_e	e	n/a
144.699	0.1355	289398	keystroke_v	v	n/a
144.789	0.105	289578	keystroke_e	e	n/a
144.879	0.105	289758	keystroke_Key.space	Key.space	n/a
145.314	0.045	290628	keystroke_d	d	n/a
146.0945	0.03	292189	keystroke_Key.backspace	Key.backspace	n/a
146.3645	0.045	292729	keystroke_f	f	n/a
146.4695	0.135	292939	keystroke_u	u	n/a
146.5595	0.1045	293119	keystroke_n	n	n/a
146.679	0.15	293358	keystroke_d	d	n/a
146.799	0.15	293598	keystroke_a	a	n/a
147.084	0.105	294168	keystroke_m	m	n/a
147.219	0.0905	294438	keystroke_e	e	n/a
147.3245	0.09	294649	keystroke_n	n	n/a
147.3995	0.09	294799	keystroke_t	t	n/a
147.6995	0.09	295399	keystroke_a	a	n/a
147.819	0.0905	295638	keystroke_l	l	n/a
147.9695	0.089	295939	keystroke_s	s	n/a
148.0285	0.12	296057	keystroke_Key.space	Key.space	n/a
148.2245	0.06	296449	keystroke_t	t	n/a
148.3145	0.135	296629	keystroke_o	o	n/a
149.0645	0.06	298129	keystroke_'	'	n/a
149.3495	0.12	298699	keystroke_v	v	n/a
149.4095	0.09	298819	keystroke_e	e	n/a
149.5445	0.09	299089	keystroke_Key.space	Key.space	n/a
149.7985	0.045	299597	keystroke_Key.enter	Key.enter	n/a
149.8485	6.2675	299697	prompt	n/a	opened terms appointments comes\n
150.5795	0.135	301159	keystroke_o	o	n/a
150.6395	0.105	301279	keystroke_p	p	n/a
150.8195	0.09	301639	keystroke_e	e	n/a
150.9245	0.09	301849	keystroke_n	n	n/a
150.9845	0.12	301969	keystroke_e	e	n/a
151.1645	0.105	302329	keystroke_d	d	n/a
151.2845	0.09	302569	keystroke_Key.space	Key.space	n/a
151.7645	0.0895	303529	keystroke_t	t	n/a
151.974	0.105	303948	keystroke_e	e	n/a
152.034	0.105	304068	keystroke_r	r	n/a
152.169	0.09	304338	keystroke_m	m	n/a
152.289	0.105	304578	keystroke_s	s	n/a
152.379	0.09	304758	keystroke_Key.space	Key.space	n/a
152.679	0.09	305358	keystroke_a	a	n/a
152.814	0.105	305628	keystroke_p	p	n/a
153.009	0.045	306018	keystroke_p	p	n/a
153.024	0.105	306048	keystroke_o	o	n/a
153.849	0.09	307698	keystroke_i	i	n/a
153.894	0.105	307788	keystroke_n	n	n/a
154.014	0.075	308028	keystroke_t	t	n/a
154.824	0.0755	309648	keystroke_m	m	n/a
154.9445	0.0745	309889	keystroke_e	e	n/a
155.034	0.09	310068	keystroke_n	n	n/a
155.154	0.075	310308	keystroke_t	t	n/a
155.334	0.09	310668	keystroke_s	s	n/a
155.425	0.089	310850	keystroke_Key.space	Key.space	n/a
155.619	0.075	311238	keystroke_c	c	n/a
155.695	0.089	311390	keystroke_o	o	n/a
155.739	0.09	311478	keystroke_m	m	n/a
155.814	0.06	311628	keystroke_e	e	n/a
155.964	0.075	311928	keystroke_s	s	n/a
156.039	0.075	312078	keystroke_Key.enter	Key.enter	n/a
156.1235	8.0925	312247	prompt	n/a	jeffrey five ratio operational\n
157.164	0.0605	314328	keystroke_j	j	n/a
157.2545	0.135	314509	keystroke_e	e	n/a
157.3595	0.09	314719	keystroke_f	f	n/a
157.4945	0.105	314989	keystroke_f	f	n/a
157.7195	0.1055	315439	keystroke_r	r	n/a
157.8095	0.105	315619	keystroke_e	e	n/a
158.0345	0.075	316069	keystroke_y	y	n/a
158.1695	0.075	316339	keystroke_Key.space	Key.space	n/a
158.4995	0.06	316999	keystroke_f	f	n/a
158.6045	0.09	317209	keystroke_i	i	n/a
158.7095	0.12	317419	keystroke_v	v	n/a
158.7845	0.09	317569	keystroke_e	e	n/a
158.8445	0.12	317689	keystroke_Key.space	Key.space	n/a
159.0395	0.075	318079	keystroke_r	r	n/a
159.1295	0.06	318259	keystroke_a	a	n/a
159.2195	0.075	318439	keystroke_t	t	n/a
159.2955	0.104	318591	keystroke_i	i	n/a
159.3545	0.09	318709	keystroke_o	o	n/a
159.5345	0.09	319069	keystroke_n	n	n/a
160.209	0.105	320418	keystroke_Key.backspace	Key.backspace	n/a
160.374	0.075	320748	keystroke_Key.space	Key.space	n/a
161.034	0.166	322068	keystroke_o	o	n/a
161.094	0.09	322188	keystroke_p	p	n/a
162.129	0.076	324258	keystroke_e	e	n/a
162.159	0.12	324318	keystroke_r	r	n/a
162.325	0.06	324650	keystroke_a	a	n/a
162.4	0.089	324800	keystroke_t	t	n/a
162.6995	0.135	325399	keystroke_i	i	n/a
163.5545	0.09	327109	keystroke_o	o	n/a
163.7645	0.075	327529	keystroke_n	n	n/a
163.8545	0.09	327709	keystroke_a	a	n/a
163.9595	0.075	327919	keystroke_l	l	n/a
164.1395	0.075	328279	keystroke_Key.enter	Key.enter	n/a
164.2185	5.3225	328437	prompt	n/a	he've intense nerve ashley\n
165.2495	0.0595	330499	keystroke_h	h	n/a
165.324	0.105	330648	keystroke_e	e	n/a
165.759	0.075	331518	keystroke_;	;	n/a
166.074	0.09	332148	keystroke_v	v	n/a
166.089	0.12	332178	keystroke_e	e	n/a
166.21	0.089	332420	keystroke_Key.space	Key.space	n/a
166.509	0.09	333018	keystroke_i	i	n/a
166.554	0.1055	333108	keystroke_n	n	n/a
166.6445	0.09	333289	keystroke_t	t	n/a
166.7495	0.075	333499	keystroke_e	e	n/a
166.8845	0.105	333769	keystroke_n	n	n/a
167.1095	0.135	334219	keystroke_s	s	n/a
167.2145	0.0895	334429	keystroke_e	e	n/a
167.319	0.09	334638	keystroke_Key.space	Key.space	n/a
167.514	0.09	335028	keystroke_n	n	n/a
167.589	0.12	335178	keystroke_e	e	n/a
167.649	0.09	335298	keystroke_r	r	n/a
167.919	0.15	335838	keystroke_v	v	n/a
168.039	0.105	336078	keystroke_e	e	n/a
168.174	0.12	336348	keystroke_Key.space	Key.space	n/a
168.534	0.136	337068	keystroke_a	a	n/a
168.609	0.105	337218	keystroke_s	s	n/a
168.819	0.105	337638	keystroke_h	h	n/a
168.984	0.12	337968	keystroke_l	l	n/a
169.179	0.09	338358	keystroke_e	e	n/a
169.224	0.105	338448	keystroke_y	y	n/a
169.4345	0.105	338869	keystroke_Key.enter	Key.enter	n/a
169.5435	6.552	339087	prompt	n/a	russell proper accept asking\n
170.334	0.135	340668	keystroke_r	r	n/a
170.394	0.09	340788	keystroke_e	e	n/a
170.994	0.075	341988	keystroke_Key.backspace	Key.backspace	n/a
171.219	0.075	342438	keystroke_u	u	n/a
171.324	0.06	342648	keystroke_s	s	n/a
171.4595	0.075	342919	keystroke_s	s	n/a
171.6545	0.075	343309	keystroke_e	e	n/a
171.7895	0.045	343579	keystroke_l	l	n/a
171.9245	0.045	343849	keystroke_l	l	n/a
172.0295	0.075	344059	keystroke_Key.space	Key.space	n/a
172.509	0.075	345018	keystroke_Key.backspace	Key.backspace	n/a
172.884	0.03	345768	keystroke_Key.space	Key.space	n/a
173.304	0.09	346608	keystroke_p	p	n/a
173.424	0.06	346848	keystroke_r	r	n/a
173.544	0.151	347088	keystroke_o	o	n/a
173.649	0.075	347298	keystroke_p	p	n/a
173.739	0.1055	347478	keystroke_e	e	n/a
173.8145	0.075	347629	keystroke_r	r	n/a
173.9345	0.105	347869	keystroke_Key.space	Key.space	n/a
174.2195	0.105	348439	keystroke_a	a	n/a
174.2945	0.075	348589	keystroke_c	c	n/a
174.4445	0.1195	348889	keystroke_c	c	n/a
174.549	0.105	349098	keystroke_e	e	n/a
174.655	0.0895	349310	keystroke_p	p	n/a
174.8195	0.045	349639	keystroke_t	t	n/a
174.8795	0.09	349759	keystroke_Key.space	Key.space	n/a
175.3295	0.075	350659	keystroke_a	a	n/a
175.3745	0.09	350749	keystroke_s	s	n/a
175.4945	0.105	350989	keystroke_k	k	n/a
175.719	0.09	351438	keystroke_i	i	n/a
175.749	0.1055	351498	keystroke_n	n	n/a
175.8395	0.06	351679	keystroke_g	g	n/a
176.0195	0.075	352039	keystroke_Key.enter	Key.enter	n/a
176.0985	4.962	352197	prompt	n/a	repeat domain workshops assessing\n
176.8435	0.075	353687	keystroke_r	r	n/a
176.8735	0.075	353747	keystroke_e	e	n/a
176.9645	0.074	353929	keystroke_p	p	n/a
177.0535	0.121	354107	keystroke_e	e	n/a
177.2335	0.105	354467	keystroke_a	a	n/a
177.3685	0.076	354737	keystroke_t	t	n/a
177.4585	0.1055	354917	keystroke_Key.space	Key.space	n/a
177.669	0.075	355338	keystroke_d	d	n/a
177.759	0.0895	355518	keystroke_o	o	n/a
177.804	0.1055	355608	keystroke_m	m	n/a
177.9245	0.059	355849	keystroke_a	a	n/a
178.0445	0.119	356089	keystroke_i	i	n/a
178.1045	0.09	356209	keystroke_n	n	n/a
178.2535	0.076	356507	keystroke_Key.space	Key.space	n/a
178.5545	0.06	357109	keystroke_w	w	n/a
178.6745	0.119	357349	keystroke_o	o	n/a
178.8385	0.0755	357677	keystroke_r	r	n/a
178.929	0.105	357858	keystroke_k	k	n/a
179.049	0.105	358098	keystroke_s	s	n/a
179.199	0.09	358398	keystroke_h	h	n/a
179.469	0.135	358938	keystroke_o	o	n/a
179.574	0.075	359148	keystroke_p	p	n/a
179.694	0.09	359388	keystroke_s	s	n/a
179.799	0.09	359598	keystroke_Key.space	Key.space	n/a
179.919	0.135	359838	keystroke_a	a	n/a
180.009	0.06	360018	keystroke_s	s	n/a
180.144	0.075	360288	keystroke_s	s	n/a
180.309	0.075	360618	keystroke_e	e	n/a
180.459	0.06	360918	keystroke_s	s	n/a
180.594	0.075	361188	keystroke_s	s	n/a
180.714	0.09	361428	keystroke_i	i	n/a
180.789	0.06	361578	keystroke_n	n	n/a
180.834	0.045	361668	keystroke_g	g	n/a
180.999	0.06	361998	keystroke_Key.enter	Key.enter	n/a
181.0695	8.7065	362139	prompt	n/a	cellular diff diploma italiano\n
181.825	0.089	363650	keystroke_c	c	n/a
181.93	0.09	363860	keystroke_e	e	n/a
182.064	0.06	364128	keystroke_l	l	n/a
182.184	0.091	364368	keystroke_l	l	n/a
182.4095	0.075	364819	keystroke_u	u	n/a
182.6495	0.06	365299	keystroke_l	l	n/a
182.7695	0.18	365539	keystroke_a	a	n/a
182.9505	0.0735	365901	keystroke_r	r	n/a
183.054	0.09	366108	keystroke_Key.space	Key.space	n/a
183.414	0.075	366828	keystroke_d	d	n/a
183.639	0.075	367278	keystroke_i	i	n/a
183.744	0.075	367488	keystroke_g	g	n/a
183.894	0.09	367788	keystroke_g	g	n/a
183.969	0.105	367938	keystroke_Key.space	Key.space	n/a
184.704	0.06	369408	keystroke_Key.backspace	Key.backspace	n/a
184.809	0.075	369618	keystroke_Key.backspace	Key.backspace	n/a
184.929	0.075	369858	keystroke_Key.backspace	Key.backspace	n/a
185.559	0.045	371118	keystroke_f	f	n/a
185.649	0.105	371298	keystroke_f	f	n/a
185.694	0.12	371388	keystroke_Key.space	Key.space	n/a
186.0695	0.0745	372139	keystroke_d	d	n/a
186.159	0.09	372318	keystroke_i	i	n/a
186.354	0.1205	372708	keystroke_p	p	n/a
186.3845	0.15	372769	keystroke_l	l	n/a
186.6545	0.1645	373309	keystroke_o	o	n/a
186.759	0.1055	373518	keystroke_m	m	n/a
186.894	0.105	373788	keystroke_a	a	n/a
187.014	0.09	374028	keystroke_Key.space	Key.space	n/a
187.7795	0.1045	375559	keystroke_i	i	n/a
187.899	0.09	375798	keystroke_t	t	n/a
188.049	0.09	376098	keystroke_a	a	n/a
188.064	0.105	376128	keystroke_l	l	n/a
188.9645	0.09	377929	keystroke_i	i	n/a
189.2045	0.09	378409	keystroke_a	a	n/a
189.3695	0.09	378739	keystroke_n	n	n/a
189.519	0.0605	379038	keystroke_o	o	n/a
189.714	0.0605	379428	keystroke_Key.enter	Key.enter	n/a
189.781	5.485	379562	prompt	n/a	banana vacations email feeds\n
190.5245	0.0445	381049	keystroke_b	b	n/a
190.599	0.105	381198	keystroke_a	a	n/a
190.719	0.075	381438	keystroke_n	n	n/a
190.809	0.06	381618	keystroke_a	a	n/a
190.884	0.09	381768	keystroke_n	n	n/a
190.959	0.09	381918	keystroke_a	a	n/a
191.079	0.106	382158	keystroke_Key.space	Key.space	n/a
192.069	0.121	384138	keystroke_v	v	n/a
192.159	0.136	384318	keystroke_a	a	n/a
192.339	0.135	384678	keystroke_c	c	n/a
192.429	0.121	384858	keystroke_a	a	n/a
192.654	0.06	385308	keystroke_t	t	n/a
192.729	0.105	385458	keystroke_i	i	n/a
192.805	0.089	385610	keystroke_o	o	n/a
192.954	0.09	385908	keystroke_n	n	n/a
193.06	0.074	386120	keystroke_s	s	n/a
193.149	0.105	386298	keystroke_Key.space	Key.space	n/a
193.269	0.09	386538	keystroke_e	e	n/a
193.329	0.106	386658	keystroke_m	m	n/a
193.449	0.105	386898	keystroke_a	a	n/a
193.569	0.046	387138	keystroke_i	i	n/a
193.719	0.09	387438	keystroke_l	l	n/a
193.779	0.075	387558	keystroke_Key.space	Key.space	n/a
194.424	0.121	388848	keystroke_f	f	n/a
194.469	0.09	388938	keystroke_e	e	n/a
194.62	0.12	389240	keystroke_e	e	n/a
194.859	0.15	389718	keystroke_d	d	n/a
194.964	0.09	389928	keystroke_s	s	n/a
195.174	0.09	390348	keystroke_Key.enter	Key.enter	n/a
195.2795	10.6665	390559	prompt	n/a	loop successful from occupations\n
195.864	0.0905	391728	keystroke_l	l	n/a
196.0745	0.045	392149	keystroke_o	o	n/a
196.2245	0.045	392449	keystroke_o	o	n/a
196.3745	0.075	392749	keystroke_p	p	n/a
196.4645	0.105	392929	keystroke_Key.space	Key.space	n/a
196.674	0.135	393348	keystroke_s	s	n/a
196.764	0.105	393528	keystroke_c	c	n/a
196.914	0.075	393828	keystroke_u	u	n/a
197.3645	0.075	394729	keystroke_Key.backspace	Key.backspace	n/a
197.4845	0.105	394969	keystroke_c	c	n/a
197.8895	0.045	395779	keystroke_Key.backspace	Key.backspace	n/a
197.9945	0.06	395989	keystroke_Key.backspace	Key.backspace	n/a
198.2045	0.075	396409	keystroke_u	u	n/a
198.3245	0.09	396649	keystroke_c	c	n/a
198.5495	0.105	397099	keystroke_c	c	n/a
198.7745	0.075	397549	keystroke_e	e	n/a
198.9245	0.075	397849	keystroke_s	s	n/a
199.0595	0.045	398119	keystroke_s	s	n/a
199.569	0.06	399138	keystroke_f	f	n/a
199.704	0.09	399408	keystroke_u	u	n/a
199.884	0.09	399768	keystroke_l	l	n/a
200.049	0.075	400098	keystroke_Key.space	Key.space	n/a
200.454	0.075	400908	keystroke_f	f	n/a
200.664	0.03	401328	keystroke_r	r	n/a
200.709	0.105	401418	keystroke_o	o	n/a
200.784	0.06	401568	keystroke_m	m	n/a
200.949	0.06	401898	keystroke_Key.space	Key.space	n/a
201.084	0.06	402168	keystroke_c	c	n/a
201.204	0.045	402408	keystroke_o	o	n/a
201.654	0.09	403308	keystroke_Key.backspace	Key.backspace	n/a
201.789	0.06	403578	keystroke_Key.backspace	Key.backspace	n/a
201.999	0.09	403998	keystroke_i	i	n/a
202.119	0.06	404238	keystroke_c	c	n/a
202.269	0.06	404538	keystroke_c	c	n/a
202.539	0.06	405078	keystroke_Key.backspace	Key.backspace	n/a
202.659	0.06	405318	keystroke_Key.backspace	Key.backspace	n/a
202.779	0.075	405558	keystroke_Key.backspace	Key.backspace	n/a
203.334	0.06	406668	keystroke_o	o	n/a
203.439	0.06	406878	keystroke_c	c	n/a
203.649	0.03	407298	keystroke_c	c	n/a
204.8345	0.075	409669	keystroke_u	u	n/a
204.9995	0.075	409999	keystroke_p	p	n/a
205.0595	0.075	410119	keystroke_a	a	n/a
205.2545	0.06	410509	keystroke_t	t	n/a
205.2995	0.105	410599	keystroke_i	i	n/a
205.3595	0.075	410719	keystroke_o	o	n/a
205.5395	0.06	411079	keystroke_n	n	n/a
205.6445	0.09	411289	keystroke_s	s	n/a
205.7195	0.045	411439	keystroke_Key.space	Key.space	n/a
205.8695	0.075	411739	keystroke_Key.enter	Key.enter	n/a
205.95	11.1405	411900	prompt	n/a	steal quotations chuck sheffield\n
206.7995	0.075	413599	keystroke_s	s	n/a
207.0395	0.075	414079	keystroke_t	t	n/a
207.0845	0.09	414169	keystroke_e	e	n/a
207.2345	0.075	414469	keystroke_a	a	n/a
207.624	0.075	415248	keystroke_l	l	n/a
207.834	0.09	415668	keystroke_Key.space	Key.space	n/a
207.969	0.09	415938	keystroke_q	q	n/a
208.119	0.06	416238	keystroke_u	u	n/a
208.209	0.09	416418	keystroke_a	a	n/a
209.139	0.105	418278	keystroke_Key.backspace	Key.backspace	n/a
209.394	0.09	418788	keystroke_o	o	n/a
209.529	0.09	419058	keystroke_t	t	n/a
209.739	0.105	419478	keystroke_a	a	n/a
209.814	0.12	419628	keystroke_t	t	n/a
209.979	0.12	419958	keystroke_i	i	n/a
210.114	0.135	420228	keystroke_o	o	n/a
210.309	0.075	420618	keystroke_n	n	n/a
210.399	0.105	420798	keystroke_s	s	n/a
210.519	0.105	421038	keystroke_Key.space	Key.space	n/a
210.759	0.075	421518	keystroke_c	c	n/a
210.849	0.09	421698	keystroke_h	h	n/a
210.954	0.09	421908	keystroke_e	e	n/a
211.029	0.06	422058	keystroke_c	c	n/a
211.09	0.089	422180	keystroke_k	k	n/a
211.239	0.12	422478	keystroke_Key.space	Key.space	n/a
211.719	0.09	423438	keystroke_s	s	n/a
212.4395	0.06	424879	keystroke_j	j	n/a
212.7545	0.075	425509	keystroke_Key.backspace	Key.backspace	n/a
212.9795	0.0445	425959	keystroke_h	h	n/a
213.909	0.12	427818	keystroke_e	e	n/a
214.119	0.075	428238	keystroke_f	f	n/a
214.254	0.1345	428508	keystroke_f	f	n/a
214.344	0.1195	428688	keystroke_e	e	n/a
214.5085	0.121	429017	keystroke_l	l	n/a
214.6135	0.075	429227	keystroke_d	d	n/a
215.4535	0.0755	430907	keystroke_Key.backspace	Key.backspace	n/a
215.5895	0.059	431179	keystroke_Key.backspace	Key.backspace	n/a
215.7085	0.09	431417	keystroke_Key.backspace	Key.backspace	n/a
216.354	0.06	432708	keystroke_i	i	n/a
216.459	0.075	432918	keystroke_e	e	n/a
216.624	0.09	433248	keystroke_l	l	n/a
216.729	0.06	433458	keystroke_d	d	n/a
216.849	0.09	433698	keystroke_Key.space	Key.space	n/a
217.059	0.0295	434118	keystroke_Key.enter	Key.enter	n/a
217.094	8.172	434188	prompt	n/a	apache netherlands progressive ambassador\n
217.944	0.09	435888	keystroke_a	a	n/a
218.004	0.105	436008	keystroke_p	p	n/a
218.124	0.15	436248	keystroke_a	a	n/a
218.214	0.12	436428	keystroke_c	c	n/a
218.349	0.075	436698	keystroke_h	h	n/a
218.514	0.09	437028	keystroke_e	e	n/a
218.574	0.105	437148	keystroke_Key.space	Key.space	n/a
218.754	0.09	437508	keystroke_n	n	n/a
218.829	0.075	437658	keystroke_e	e	n/a
219.069	0.105	438138	keystroke_t	t	n/a
219.129	0.09	438258	keystroke_h	h	n/a
219.294	0.105	438588	keystroke_e	e	n/a
219.354	0.09	438708	keystroke_r	r	n/a
219.459	0.075	438918	keystroke_l	l	n/a
219.549	0.075	439098	keystroke_a	a	n/a
219.654	0.075	439308	keystroke_n	n	n/a
219.744	0.135	439488	keystroke_d	d	n/a
219.819	0.12	439638	keystroke_s	s	n/a
219.879	0.12	439758	keystroke_Key.space	Key.space	n/a
220.119	0.075	440238	keystroke_p	p	n/a
220.449	0.09	440898	keystroke_o	o	n/a
220.809	0.075	441618	keystroke_Key.backspace	Key.backspace	n/a
221.4095	0.105	442819	keystroke_r	r	n/a
221.6945	0.09	443389	keystroke_o	o	n/a
221.829	0.105	443658	keystroke_g	g	n/a
221.874	0.105	443748	keystroke_r	r	n/a
222.174	0.09	444348	keystroke_e	e	n/a
222.369	0.0305	444738	keystroke_s	s	n/a
222.4745	0.075	444949	keystroke_s	s	n/a
222.5785	0.091	445157	keystroke_i	i	n/a
222.7	0.119	445400	keystroke_v	v	n/a
222.729	0.151	445458	keystroke_e	e	n/a
222.864	0.09	445728	keystroke_Key.space	Key.space	n/a
222.985	0.089	445970	keystroke_a	a	n/a
223.239	0.06	446478	keystroke_m	m	n/a
223.36	0.09	446720	keystroke_b	b	n/a
223.524	0.121	447048	keystroke_a	a	n/a
223.629	0.09	447258	keystroke_s	s	n/a
223.809	0.12	447618	keystroke_s	s	n/a
223.93	0.119	447860	keystroke_a	a	n/a
224.47	0.089	448940	keystroke_d	d	n/a
224.589	0.105	449178	keystroke_o	o	n/a
224.769	0.06	449538	keystroke_r	r	n/a
225.189	0.075	450378	keystroke_Key.enter	Key.enter	n/a
225.269	13.0465	450538	prompt	n/a	respectively add sperm webshots\n
225.9395	0.09	451879	keystroke_p	p	n/a
225.9995	0.1045	451999	keystroke_r	r	n/a
226.0595	0.0895	452119	keystroke_e	e	n/a
226.209	0.09	452418	keystroke_s	s	n/a
226.404	0.031	452808	keystroke_e	e	n/a
227.139	0.045	454278	keystroke_Key.backspace	Key.backspace	n/a
227.259	0.06	454518	keystroke_Key.backspace	Key.backspace	n/a
227.379	0.06	454758	keystroke_Key.backspace	Key.backspace	n/a
227.499	0.285	454998	keystroke_Key.backspace	Key.backspace	n/a
227.8595	0.1195	455719	keystroke_Key.backspace	Key.backspace	n/a
228.099	0.09	456198	keystroke_r	r	n/a
228.144	0.075	456288	keystroke_e	e	n/a
228.294	0.075	456588	keystroke_s	s	n/a
228.399	0.09	456798	keystroke_p	p	n/a
228.504	0.105	457008	keystroke_e	e	n/a
228.639	0.12	457278	keystroke_c	c	n/a
228.879	0.06	457758	keystroke_t	t	n/a
228.924	0.09	457848	keystroke_i	i	n/a
229.089	0.105	458178	keystroke_v	v	n/a
229.149	0.12	458298	keystroke_e	e	n/a
229.27	0.0895	458540	keystroke_l	l	n/a
229.4195	0.075	458839	keystroke_y	y	n/a
229.5095	0.1345	459019	keystroke_Key.space	Key.space	n/a
229.689	0.06	459378	keystroke_a	a	n/a
229.719	0.12	459438	keystroke_d	d	n/a
229.899	0.105	459798	keystroke_d	d	n/a
230.049	0.135	460098	keystroke_Key.space	Key.space	n/a
230.319	0.075	460638	keystroke_s	s	n/a
230.395	0.089	460790	keystroke_p	p	n/a
230.514	0.09	461028	keystroke_e	e	n/a
230.649	0.12	461298	keystroke_m	m	n/a
231.114	0.09	462228	keystroke_Key.backspace	Key.backspace	n/a
231.609	0.075	463218	keystroke_r	r	n/a
231.714	0.03	463428	keystroke_n	n	n/a
232.434	0.105	464868	keystroke_Key.space	Key.space	n/a
232.569	0.12	465138	keystroke_w	w	n/a
232.644	0.075	465288	keystroke_e	e	n/a
232.809	0.105	465618	keystroke_b	b	n/a
232.899	0.105	465798	keystroke_s	s	n/a
233.034	0.09	466068	keystroke_h	h	n/a
233.169	0.09	466338	keystroke_o	o	n/a
233.26	0.074	466520	keystroke_t	t	n/a
233.469	0.075	466938	keystroke_s	s	n/a
234.6545	0.075	469309	keystroke_Key.backspace	Key.backspace	n/a
234.789	0.0755	469578	keystroke_Key.backspace	Key.backspace	n/a
234.9095	0.059	469819	keystroke_Key.backspace	Key.backspace	n/a
235.0435	0.136	470087	keystroke_Key.backspace	Key.backspace	n/a
235.239	0.06	470478	keystroke_Key.backspace	Key.backspace	n/a
235.359	0.075	470718	keystroke_Key.backspace	Key.backspace	n/a
235.449	0.09	470898	keystroke_Key.backspace	Key.backspace	n/a
235.584	0.045	471168	keystroke_Key.backspace	Key.backspace	n/a
235.704	0.09	471408	keystroke_Key.backspace	Key.backspace	n/a
236.109	0.03	472218	keystroke_Key.backspace	Key.backspace	n/a
236.604	0.045	473208	keystroke_m	m	n/a
236.739	0.075	473478	keystroke_Key.space	Key.space	n/a
237.024	0.105	474048	keystroke_w	w	n/a
237.069	0.09	474138	keystroke_e	e	n/a
237.204	0.075	474408	keystroke_b	b	n/a
237.309	0.09	474618	keystroke_s	s	n/a
237.549	0.075	475098	keystroke_h	h	n/a
237.684	0.09	475368	keystroke_o	o	n/a
237.804	0.0605	475608	keystroke_t	t	n/a
237.9845	0.075	475969	keystroke_s	s	n/a
238.0745	0.075	476149	keystroke_Key.space	Key.space	n/a
238.2395	0.075	476479	keystroke_Key.enter	Key.enter	n/a
238.326	8.7795	476652	prompt	n/a	barbie cumulative words opposition\n
239.0795	0.09	478159	keystroke_b	b	n/a
239.1545	0.105	478309	keystroke_a	a	n/a
239.2445	0.075	478489	keystroke_r	r	n/a
239.3195	0.0895	478639	keystroke_b	b	n/a
239.469	0.105	478938	keystroke_i	i	n/a
239.634	0.075	479268	keystroke_e	e	n/a
239.754	0.1055	479508	keystroke_Key.space	Key.space	n/a
240.2045	0.09	480409	keystroke_c	c	n/a
240.3245	0.075	480649	keystroke_u	u	n/a
240.5345	0.075	481069	keystroke_m	m	n/a
240.7145	0.03	481429	keystroke_u	u	n/a
240.8945	0.06	481789	keystroke_l	l	n/a
240.9995	0.12	481999	keystroke_a	a	n/a
241.2245	0.09	482449	keystroke_t	t	n/a
241.4045	0.105	482809	keystroke_i	i	n/a
241.629	0.135	483258	keystroke_v	v	n/a
241.704	0.105	483408	keystroke_e	e	n/a
241.824	0.1205	483648	keystroke_Key.space	Key.space	n/a
241.9895	0.09	483979	keystroke_w	w	n/a
242.0945	0.09	484189	keystroke_o	o	n/a
242.7545	0.075	485509	keystroke_r	r	n/a
243.0385	0.136	486077	keystroke_d	d	n/a
243.0985	0.12	486197	keystroke_s	s	n/a
243.1435	0.09	486287	keystroke_Key.space	Key.space	n/a
243.384	0.075	486768	keystroke_o	o	n/a
244.584	0.045	489168	keystroke_p	p	n/a
244.704	0.091	489408	keystroke_p	p	n/a
244.8985	0.075	489797	keystroke_s	s	n/a
244.9285	0.1055	489857	keystroke_o	o	n/a
245.424	0.045	490848	keystroke_Key.backspace	Key.backspace	n/a
245.529	0.075	491058	keystroke_Key.backspace	Key.backspace	n/a
245.619	0.09	491238	keystroke_o	o	n/a
245.7235	0.106	491447	keystroke_s	s	n/a
246.1895	0.09	492379	keystroke_t	t	n/a
246.3395	0.135	492679	keystroke_i	i	n/a
246.4595	0.15	492919	keystroke_o	o	n/a
246.5795	0.105	493159	keystroke_n	n	n/a
246.7745	0.09	493549	keystroke_Key.space	Key.space	n/a
247.0445	0.06	494089	keystroke_Key.enter	Key.enter	n/a
247.108	7.5725	494216	prompt	n/a	convenience iraq businesses faced\n
248.319	0.045	496638	keystroke_c	c	n/a
248.379	0.105	496758	keystroke_o	o	n/a
248.4245	0.1045	496849	keystroke_n	n	n/a
248.514	0.075	497028	keystroke_v	v	n/a
249.069	0.075	498138	keystroke_e	e	n/a
249.159	0.105	498318	keystroke_n	n	n/a
249.999	0.105	499998	keystroke_i	i	n/a
250.554	0.075	501108	keystroke_e	e	n/a
250.644	0.075	501288	keystroke_n	n	n/a
250.779	0.135	501558	keystroke_c	c	n/a
250.854	0.105	501708	keystroke_e	e	n/a
250.944	0.12	501888	keystroke_Key.space	Key.space	n/a
251.2895	0.075	502579	keystroke_i	i	n/a
251.4845	0.12	502969	keystroke_r	r	n/a
251.6045	0.105	503209	keystroke_a	a	n/a
251.859	0.1055	503718	keystroke_q	q	n/a
252.0695	0.09	504139	keystroke_Key.space	Key.space	n/a
252.4745	0.15	504949	keystroke_b	b	n/a
252.5495	0.09	505099	keystroke_u	u	n/a
252.6695	0.12	505339	keystroke_s	s	n/a
252.8045	0.09	505609	keystroke_i	i	n/a
252.8495	0.105	505699	keystroke_n	n	n/a
252.9245	0.075	505849	keystroke_e	e	n/a
253.0895	0.06	506179	keystroke_s	s	n/a
253.2095	0.09	506419	keystroke_s	s	n/a
253.4045	0.06	506809	keystroke_e	e	n/a
253.5545	0.09	507109	keystroke_s	s	n/a
253.6595	0.075	507319	keystroke_Key.space	Key.space	n/a
254.019	0.09	508038	keystroke_f	f	n/a
254.124	0.135	508248	keystroke_a	a	n/a
254.244	0.15	508488	keystroke_c	c	n/a
254.349	0.075	508698	keystroke_e	e	n/a
254.484	0.09	508968	keystroke_d	d	n/a
254.619	0.06	509238	keystroke_Key.enter	Key.enter	n/a
254.683	5.1425	509366	prompt	n/a	teach regional cruise grant\n
255.369	0.105	510738	keystroke_t	t	n/a
255.429	0.12	510858	keystroke_e	e	n/a
255.594	0.105	511188	keystroke_a	a	n/a
255.669	0.075	511338	keystroke_c	c	n/a
255.774	0.09	511548	keystroke_h	h	n/a
255.849	0.105	511698	keystroke_Key.space	Key.space	n/a
256.269	0.105	512538	keystroke_r	r	n/a
256.314	0.105	512628	keystroke_e	e	n/a
256.539	0.06	513078	keystroke_g	g	n/a
256.719	0.135	513438	keystroke_i	i	n/a
256.839	0.135	513678	keystroke_o	o	n/a
256.959	0.12	513918	keystroke_n	n	n/a
257.064	0.105	514128	keystroke_a	a	n/a
257.184	0.06	514368	keystroke_l	l	n/a
257.274	0.075	514548	keystroke_Key.space	Key.space	n/a
257.6195	0.09	515239	keystroke_c	c	n/a
257.919	0.09	515838	keystroke_r	r	n/a
258.054	0.15	516108	keystroke_u	u	n/a
258.189	0.09	516378	keystroke_i	i	n/a
258.384	0.15	516768	keystroke_s	s	n/a
258.459	0.09	516918	keystroke_e	e	n/a
258.564	0.105	517128	keystroke_Key.space	Key.space	n/a
258.999	0.09	517998	keystroke_g	g	n/a
259.014	0.09	518028	keystroke_r	r	n/a
259.194	0.105	518388	keystroke_a	a	n/a
259.299	0.1055	518598	keystroke_n	n	n/a
259.4945	0.06	518989	keystroke_t	t	n/a
259.5395	0.105	519079	keystroke_Key.space	Key.space	n/a
259.7345	0.09	519469	keystroke_Key.enter	Key.enter	n/a
259.8305	7.45	519661	prompt	n/a	proportion investigators saying racks\n
260.6195	0.135	521239	keystroke_o	o	n/a
261.2945	0.09	522589	keystroke_Key.backspace	Key.backspace	n/a
261.5645	0.105	523129	keystroke_p	p	n/a
261.7145	0.09	523429	keystroke_r	r	n/a
261.879	0.105	523758	keystroke_o	o	n/a
262.6135	0.12	525227	keystroke_p	p	n/a
262.7185	0.09	525437	keystroke_o	o	n/a
263.2435	0.12	526487	keystroke_r	r	n/a
263.3335	0.06	526667	keystroke_t	t	n/a
263.3785	0.106	526757	keystroke_i	i	n/a
263.4695	0.06	526939	keystroke_o	o	n/a
263.6045	0.0895	527209	keystroke_n	n	n/a
263.799	0.0905	527598	keystroke_Key.space	Key.space	n/a
264.0545	0.105	528109	keystroke_i	i	n/a
264.1145	0.105	528229	keystroke_n	n	n/a
264.1745	0.12	528349	keystroke_v	v	n/a
264.2645	0.09	528529	keystroke_e	e	n/a
264.4145	0.075	528829	keystroke_s	s	n/a
264.5345	0.075	529069	keystroke_t	t	n/a
264.6245	0.12	529249	keystroke_i	i	n/a
264.849	0.09	529698	keystroke_g	g	n/a
264.984	0.105	529968	keystroke_a	a	n/a
265.104	0.075	530208	keystroke_t	t	n/a
265.209	0.09	530418	keystroke_i	i	n/a
265.269	0.06	530538	keystroke_o	o	n/a
265.3895	0.09	530779	keystroke_n	n	n/a
265.4795	0.105	530959	keystroke_s	s	n/a
265.5995	0.09	531199	keystroke_Key.space	Key.space	n/a
265.7045	0.105	531409	keystroke_s	s	n/a
265.854	0.075	531708	keystroke_a	a	n/a
266.0345	0.06	532069	keystroke_y	y	n/a
266.1245	0.1045	532249	keystroke_i	i	n/a
266.169	0.09	532338	keystroke_n	n	n/a
266.244	0.06	532488	keystroke_g	g	n/a
266.349	0.105	532698	keystroke_Key.space	Key.space	n/a
266.559	0.075	533118	keystroke_r	r	n/a
266.724	0.12	533448	keystroke_a	a	n/a
266.814	0.09	533628	keystroke_c	c	n/a
266.919	0.09	533838	keystroke_k	k	n/a
266.994	0.105	533988	keystroke_s	s	n/a
267.189	0.09	534378	keystroke_Key.enter	Key.enter	n/a
267.2835	5.247	534567	prompt	n/a	resort waters towers sports\n
267.849	0.135	535698	keystroke_r	r	n/a
267.909	0.09	535818	keystroke_e	e	n/a
268.089	0.09	536178	keystroke_s	s	n/a
268.239	0.135	536478	keystroke_o	o	n/a
269.154	0.12	538308	keystroke_r	r	n/a
269.214	0.105	538428	keystroke_t	t	n/a
269.349	0.09	538698	keystroke_Key.space	Key.space	n/a
269.574	0.105	539148	keystroke_w	w	n/a
270.114	0.12	540228	keystroke_a	a	n/a
270.294	0.09	540588	keystroke_t	t	n/a
270.444	0.09	540888	keystroke_e	e	n/a
270.519	0.09	541038	keystroke_r	r	n/a
270.639	0.105	541278	keystroke_s	s	n/a
270.729	0.09	541458	keystroke_Key.space	Key.space	n/a
270.909	0.075	541818	keystroke_t	t	n/a
270.999	0.09	541998	keystroke_o	o	n/a
271.089	0.075	542178	keystroke_w	w	n/a
271.299	0.09	542598	keystroke_e	e	n/a
271.344	0.12	542688	keystroke_r	r	n/a
271.494	0.09	542988	keystroke_s	s	n/a
271.599	0.0745	543198	keystroke_Key.space	Key.space	n/a
271.8385	0.06	543677	keystroke_s	s	n/a
271.8685	0.15	543737	keystroke_p	p	n/a
271.9595	0.104	543919	keystroke_o	o	n/a
272.1085	0.12	544217	keystroke_r	r	n/a
272.1835	0.076	544367	keystroke_t	t	n/a
272.3345	0.09	544669	keystroke_s	s	n/a
272.4385	0.09	544877	keystroke_Key.enter	Key.enter	n/a
272.5345	13.541	545069	prompt	n/a	antiques preferences comparative pakistan\n
273.3535	0.075	546707	keystroke_q	q	n/a
273.6985	0.09	547397	keystroke_n	n	n/a
273.8035	0.09	547607	keystroke_t	t	n/a
273.9235	0.105	547847	keystroke_i	i	n/a
274.4635	0.06	548927	keystroke_q	q	n/a
274.9285	0.075	549857	keystroke_Key.backspace	Key.backspace	n/a
275.0635	0.06	550127	keystroke_Key.backspace	Key.backspace	n/a
275.1835	0.045	550367	keystroke_Key.backspace	Key.backspace	n/a
275.2885	0.18	550577	keystroke_Key.backspace	Key.backspace	n/a
275.5285	0.105	551057	keystroke_Key.backspace	Key.backspace	n/a
275.859	0.06	551718	keystroke_a	a	n/a
275.949	0.09	551898	keystroke_n	n	n/a
276.084	0.075	552168	keystroke_t	t	n/a
276.189	0.12	552378	keystroke_i	i	n/a
278.034	0.0895	556068	keystroke_q	q	n/a
278.1535	0.075	556307	keystroke_u	u	n/a
278.3935	0.105	556787	keystroke_e	e	n/a
278.4385	0.105	556877	keystroke_s	s	n/a
278.6035	0.075	557207	keystroke_Key.space	Key.space	n/a
278.8285	0.105	557657	keystroke_p	p	n/a
278.9935	0.105	557987	keystroke_e	e	n/a
279.0385	0.105	558077	keystroke_r	r	n/a
279.924	0.06	559848	keystroke_Key.backspace	Key.backspace	n/a
280.059	0.18	560118	keystroke_Key.backspace	Key.backspace	n/a
280.224	0.12	560448	keystroke_r	r	n/a
280.329	0.135	560658	keystroke_e	e	n/a
280.449	0.12	560898	keystroke_f	f	n/a
281.2135	0.09	562427	keystroke_e	e	n/a
281.2585	0.15	562517	keystroke_r	r	n/a
281.3635	0.105	562727	keystroke_e	e	n/a
281.5735	0.15	563147	keystroke_n	n	n/a
281.6935	0.12	563387	keystroke_c	c	n/a
281.7535	0.075	563507	keystroke_e	e	n/a
281.9185	0.105	563837	keystroke_s	s	n/a
282.0385	0.09	564077	keystroke_Key.space	Key.space	n/a
282.4445	0.0895	564889	keystroke_c	c	n/a
282.504	0.105	565008	keystroke_o	o	n/a
282.564	0.09	565128	keystroke_m	m	n/a
282.699	0.105	565398	keystroke_p	p	n/a
282.789	0.12	565578	keystroke_a	a	n/a
282.969	0.105	565938	keystroke_r	r	n/a
283.104	0.105	566208	keystroke_a	a	n/a
283.254	0.105	566508	keystroke_t	t	n/a
283.419	0.12	566838	keystroke_i	i	n/a
283.614	0.12	567228	keystroke_v	v	n/a
283.689	0.105	567378	keystroke_e	e	n/a
283.824	0.0905	567648	keystroke_Key.space	Key.space	n/a
284.4845	0.105	568969	keystroke_p	p	n/a
284.6045	0.09	569209	keystroke_a	a	n/a
284.7545	0.0895	569509	keystroke_k	k	n/a
284.964	0.045	569928	keystroke_i	i	n/a
285.039	0.075	570078	keystroke_s	s	n/a
285.159	0.09	570318	keystroke_t	t	n/a
285.414	0.06	570828	keystroke_a	a	n/a
285.519	0.075	571038	keystroke_n	n	n/a
285.969	0.105	571938	keystroke_Key.enter	Key.enter	n/a
286.0785	8.892	572157	prompt	n/a	industry wage telephony frost\n
286.674	0.12	573348	keystroke_i	i	n/a
286.734	0.075	573468	keystroke_n	n	n/a
286.899	0.075	573798	keystroke_d	d	n/a
287.019	0.075	574038	keystroke_u	u	n/a
287.094	0.075	574188	keystroke_s	s	n/a
287.334	0.105	574668	keystroke_t	t	n/a
287.559	0.12	575118	keystroke_y	y	n/a
288.129	0.09	576258	keystroke_Key.backspace	Key.backspace	n/a
288.324	0.09	576648	keystroke_t	t	n/a
288.369	0.09	576738	keystroke_y	y	n/a
288.474	0.09	576948	keystroke_Key.space	Key.space	n/a
288.789	0.12	577578	keystroke_w	w	n/a
289.449	0.045	578898	keystroke_Key.backspace	Key.backspace	n/a
289.584	0.06	579168	keystroke_Key.backspace	Key.backspace	n/a
289.704	0.075	579408	keystroke_Key.backspace	Key.backspace	n/a
289.8535	0.045	579707	keystroke_Key.backspace	Key.backspace	n/a
290.6185	0.151	581237	keystroke_r	r	n/a
290.694	0.1055	581388	keystroke_y	y	n/a
290.8145	0.12	581629	keystroke_Key.space	Key.space	n/a
290.9945	0.105	581989	keystroke_w	w	n/a
291.1745	0.09	582349	keystroke_a	a	n/a
291.3245	0.135	582649	keystroke_g	g	n/a
291.4145	0.105	582829	keystroke_e	e	n/a
291.5045	0.12	583009	keystroke_Key.space	Key.space	n/a
291.7145	0.105	583429	keystroke_t	t	n/a
291.7745	0.0895	583549	keystroke_e	e	n/a
292.4035	0.09	584807	keystroke_l	l	n/a
292.5235	0.105	585047	keystroke_e	e	n/a
293.109	0.075	586218	keystroke_p	p	n/a
293.229	0.105	586458	keystroke_h	h	n/a
293.364	0.1345	586728	keystroke_o	o	n/a
293.4535	0.075	586907	keystroke_n	n	n/a
293.4995	0.089	586999	keystroke_y	y	n/a
293.6185	0.09	587237	keystroke_Key.space	Key.space	n/a
294.0985	0.075	588197	keystroke_f	f	n/a
294.2485	0.075	588497	keystroke_r	r	n/a
294.3385	0.105	588677	keystroke_o	o	n/a
294.5185	0.135	589037	keystroke_s	s	n/a
294.7135	0.091	589427	keystroke_t	t	n/a
294.9095	0.06	589819	keystroke_Key.enter	Key.enter	n/a
294.9725	14.158	589945	prompt	n/a	trusts departmental infinite carroll\n
296.0185	0.075	592037	keystroke_t	t	n/a
296.2135	0.06	592427	keystroke_u	u	n/a
297.0385	0.075	594077	keystroke_Key.backspace	Key.backspace	n/a
297.924	0.075	595848	keystroke_r	r	n/a
298.044	0.0745	596088	keystroke_u	u	n/a
298.1795	0.105	596359	keystroke_s	s	n/a
298.3595	0.105	596719	keystroke_t	t	n/a
298.5245	0.105	597049	keystroke_s	s	n/a
298.6145	0.089	597229	keystroke_Key.space	Key.space	n/a
298.7645	0.09	597529	keystroke_d	d	n/a
298.9445	0.09	597889	keystroke_e	e	n/a
299.0495	0.075	598099	keystroke_p	p	n/a
299.2135	0.121	598427	keystroke_e	e	n/a
299.2595	0.12	598519	keystroke_r	r	n/a
299.8895	0.045	599779	keystroke_Key.backspace	Key.backspace	n/a
300.2785	0.06	600557	keystroke_Key.backspace	Key.backspace	n/a
300.4295	0.044	600859	keystroke_Key.backspace	Key.backspace	n/a
300.4895	0.105	600979	keystroke_a	a	n/a
301.419	0.06	602838	keystroke_Key.backspace	Key.backspace	n/a
302.0785	0.06	604157	keystroke_p	p	n/a
302.1985	0.09	604397	keystroke_a	a	n/a
302.4685	0.106	604937	keystroke_r	r	n/a
302.5285	0.106	605057	keystroke_t	t	n/a
302.6195	0.09	605239	keystroke_m	m	n/a
302.7245	0.1045	605449	keystroke_e	e	n/a
302.859	0.045	605718	keystroke_n	n	n/a
302.905	0.089	605810	keystroke_t	t	n/a
303.114	0.075	606228	keystroke_a	a	n/a
303.204	0.09	606408	keystroke_l	l	n/a
303.354	0.09	606708	keystroke_Key.space	Key.space	n/a
303.519	0.12	607038	keystroke_i	i	n/a
303.579	0.12	607158	keystroke_n	n	n/a
303.759	0.12	607518	keystroke_f	f	n/a
303.9095	0.105	607819	keystroke_i	i	n/a
304.1045	0.075	608209	keystroke_i	i	n/a
304.1345	0.105	608269	keystroke_n	n	n/a
304.2845	0.0595	608569	keystroke_t	t	n/a
305.184	0.09	610368	keystroke_e	e	n/a
305.259	0.09	610518	keystroke_Key.space	Key.space	n/a
305.874	0.03	611748	keystroke_Key.backspace	Key.backspace	n/a
305.979	0.045	611958	keystroke_Key.backspace	Key.backspace	n/a
306.189	0.09	612378	keystroke_Key.backspace	Key.backspace	n/a
306.684	0.105	613368	keystroke_i	i	n/a
306.804	0.165	613608	keystroke_t	t	n/a
306.924	0.075	613848	keystroke_e	e	n/a
307.059	0.12	614118	keystroke_Key.space	Key.space	n/a
307.884	0.09	615768	keystroke_c	c	n/a
308.1835	0.075	616367	keystroke_a	a	n/a
308.3185	0.075	616637	keystroke_r	r	n/a
308.454	0.09	616908	keystroke_r	r	n/a
308.559	0.09	617118	keystroke_o	o	n/a
308.754	0.075	617508	keystroke_l	l	n/a
308.904	0.075	617808	keystroke_l	l	n/a
309.009	0.12	618018	keystroke_Key.enter	Key.enter	n/a
309.1335	10.2275	618267	prompt	n/a	altered boundary gross xhtml\n
309.819	0.06	619638	keystroke_a	a	n/a
309.894	0.09	619788	keystroke_l	l	n/a
310.089	0.075	620178	keystroke_t	t	n/a
310.224	0.09	620448	keystroke_e	e	n/a
310.284	0.18	620568	keystroke_r	r	n/a
310.389	0.12	620778	keystroke_e	e	n/a
310.584	0.075	621168	keystroke_d	d	n/a
310.689	0.12	621378	keystroke_Key.space	Key.space	n/a
311.124	0.0755	622248	keystroke_b	b	n/a
311.2145	0.09	622429	keystroke_o	o	n/a
311.2445	0.09	622489	keystroke_u	u	n/a
311.4245	0.09	622849	keystroke_n	n	n/a
311.4535	0.121	622907	keystroke_d	d	n/a
311.5895	0.105	623179	keystroke_a	a	n/a
311.889	0.105	623778	keystroke_r	r	n/a
312.069	0.06	624138	keystroke_y	y	n/a
312.189	0.105	624378	keystroke_Key.space	Key.space	n/a
312.789	0.105	625578	keystroke_g	g	n/a
312.834	0.105	625668	keystroke_r	r	n/a
312.969	0.12	625938	keystroke_o	o	n/a
313.104	0.06	626208	keystroke_s	s	n/a
313.254	0.09	626508	keystroke_s	s	n/a
313.374	0.105	626748	keystroke_Key.space	Key.space	n/a
314.5745	0.075	629149	keystroke_x	x	n/a
314.7385	0.046	629477	keystroke_h	h	n/a
314.9485	0.061	629897	keystroke_m	m	n/a
315.0835	0.061	630167	keystroke_t	t	n/a
315.2185	0.075	630437	keystroke_l	l	n/a
316.569	0.0595	633138	keystroke_Key.backspace	Key.backspace	n/a
316.7185	0.12	633437	keystroke_Key.backspace	Key.backspace	n/a
317.7985	0.075	635597	keystroke_Key.backspace	Key.backspace	n/a
318.5335	0.06	637067	keystroke_t	t	n/a
318.6695	0.089	637339	keystroke_m	m	n/a
318.8035	0.06	637607	keystroke_l	l	n/a
319.2835	0.075	638567	keystroke_Key.enter	Key.enter	n/a
319.365	5.891	638730	prompt	n/a	depot gordon song comm\n
320.32	0.0895	640640	keystroke_d	d	n/a
320.5295	0.075	641059	keystroke_e	e	n/a
320.724	0.105	641448	keystroke_p	p	n/a
320.769	0.09	641538	keystroke_o	o	n/a
321.084	0.105	642168	keystroke_r	r	n/a
321.129	0.091	642258	keystroke_t	t	n/a
321.399	0.015	642798	keystroke_Key.space	Key.space	n/a
321.624	0.09	643248	keystroke_f	f	n/a
321.954	0.09	643908	keystroke_Key.backspace	Key.backspace	n/a
322.119	0.09	644238	keystroke_g	g	n/a
322.299	0.075	644598	keystroke_o	o	n/a
322.419	0.09	644838	keystroke_r	r	n/a
323.139	0.045	646278	keystroke_d	d	n/a
323.199	0.09	646398	keystroke_o	o	n/a
323.244	0.12	646488	keystroke_n	n	n/a
323.349	0.075	646698	keystroke_Key.space	Key.space	n/a
323.559	0.09	647118	keystroke_s	s	n/a
323.664	0.075	647328	keystroke_o	o	n/a
323.694	0.075	647388	keystroke_n	n	n/a
323.784	0.045	647568	keystroke_g	g	n/a
323.844	0.09	647688	keystroke_Key.space	Key.space	n/a
324.6695	0.03	649339	keystroke_c	c	n/a
324.7295	0.1195	649459	keystroke_o	o	n/a
324.804	0.075	649608	keystroke_m	m	n/a
324.954	0.06	649908	keystroke_m	m	n/a
325.179	0.075	650358	keystroke_Key.enter	Key.enter	n/a
325.2585	8.3975	650517	prompt	n/a	sparc collectibles applying cartoons\n
325.9595	0.09	651919	keystroke_s	s	n/a
326.0645	0.075	652129	keystroke_p	p	n/a
326.1695	0.105	652339	keystroke_a	a	n/a
326.3795	0.045	652759	keystroke_r	r	n/a
326.5445	0.09	653089	keystroke_c	c	n/a
326.6645	0.12	653329	keystroke_Key.space	Key.space	n/a
326.994	0.075	653988	keystroke_c	c	n/a
327.054	0.075	654108	keystroke_o	o	n/a
327.2345	0.06	654469	keystroke_l	l	n/a
327.3395	0.0895	654679	keystroke_l	l	n/a
327.444	0.105	654888	keystroke_e	e	n/a
327.49	0.1045	654980	keystroke_c	c	n/a
327.7745	0.075	655549	keystroke_t	t	n/a
327.9245	0.09	655849	keystroke_i	i	n/a
328.6895	0.075	657379	keystroke_b	b	n/a
328.8095	0.09	657619	keystroke_l	l	n/a
328.9295	0.075	657859	keystroke_e	e	n/a
329.0795	0.09	658159	keystroke_s	s	n/a
329.1845	0.09	658369	keystroke_Key.space	Key.space	n/a
329.4845	0.075	658969	keystroke_a	a	n/a
329.5145	0.09	659029	keystroke_p	p	n/a
329.6645	0.09	659329	keystroke_p	p	n/a
329.874	0.135	659748	keystroke_l	l	n/a
330.1	0.059	660200	keystroke_y	y	n/a
330.294	0.09	660588	keystroke_i	i	n/a
330.355	0.074	660710	keystroke_n	n	n/a
330.444	0.06	660888	keystroke_f	f	n/a
330.519	0.09	661038	keystroke_Key.space	Key.space	n/a
331.179	0.06	662358	keystroke_Key.backspace	Key.backspace	n/a
331.299	0.045	662598	keystroke_Key.backspace	Key.backspace	n/a
332.019	0.075	664038	keystroke_g	g	n/a
332.139	0.105	664278	keystroke_Key.space	Key.space	n/a
332.439	0.09	664878	keystroke_c	c	n/a
332.544	0.0755	665088	keystroke_a	a	n/a
332.6795	0.09	665359	keystroke_r	r	n/a
332.8745	0.06	665749	keystroke_t	t	n/a
333.024	0.045	666048	keystroke_o	o	n/a
333.144	0.105	666288	keystroke_o	o	n/a
333.264	0.09	666528	keystroke_n	n	n/a
333.384	0.09	666768	keystroke_s	s	n/a
333.444	0.09	666888	keystroke_Key.space	Key.space	n/a
333.579	0.075	667158	keystroke_Key.enter	Key.enter	n/a
333.659	15.387	667318	prompt	n/a	sometimes scholarships cheque sensitive\n
334.284	0.09	668568	keystroke_s	s	n/a
334.329	0.12	668658	keystroke_o	o	n/a
334.389	0.12	668778	keystroke_m	m	n/a
334.494	0.06	668988	keystroke_e	e	n/a
334.659	0.06	669318	keystroke_t	t	n/a
334.779	0.12	669558	keystroke_i	i	n/a
334.839	0.105	669678	keystroke_m	m	n/a
334.929	0.09	669858	keystroke_e	e	n/a
335.064	0.09	670128	keystroke_Key.space	Key.space	n/a
335.094	0.075	670188	keystroke_s	s	n/a
335.394	0.105	670788	keystroke_s	s	n/a
335.454	0.09	670908	keystroke_c	c	n/a
335.529	0.12	671058	keystroke_h	h	n/a
335.664	0.105	671328	keystroke_o	o	n/a
336.039	0.015	672078	keystroke_Key.backspace	Key.backspace	n/a
336.1595	0.03	672319	keystroke_Key.backspace	Key.backspace	n/a
336.2495	0.045	672499	keystroke_Key.backspace	Key.backspace	n/a
336.3395	0.075	672679	keystroke_Key.backspace	Key.backspace	n/a
336.5645	0.105	673129	keystroke_s	s	n/a
336.6245	0.09	673249	keystroke_c	c	n/a
336.7445	0.12	673489	keystroke_h	h	n/a
336.9545	0.06	673909	keystroke_o	o	n/a
337.164	0.03	674328	keystroke_Key.backspace	Key.backspace	n/a
337.269	0.045	674538	keystroke_Key.backspace	Key.backspace	n/a
337.389	0.075	674778	keystroke_Key.backspace	Key.backspace	n/a
337.7795	0.03	675559	keystroke_Key.backspace	Key.backspace	n/a
338.0495	0.045	676099	keystroke_c	c	n/a
338.1245	0.09	676249	keystroke_h	h	n/a
338.3195	0.045	676639	keystroke_o	o	n/a
338.4695	0.075	676939	keystroke_l	l	n/a
338.6345	0.09	677269	keystroke_o	o	n/a
338.8295	0.075	677659	keystroke_a	a	n/a
339.4145	0.075	678829	keystroke_Key.backspace	Key.backspace	n/a
339.5495	0.09	679099	keystroke_Key.backspace	Key.backspace	n/a
340.2995	0.075	680599	keystroke_a	a	n/a
340.4795	0.06	680959	keystroke_r	r	n/a
340.6895	0.06	681379	keystroke_s	s	n/a
340.7645	0.12	681529	keystroke_h	h	n/a
340.8545	0.09	681709	keystroke_i	i	n/a
341.0795	0.075	682159	keystroke_p	p	n/a
341.1995	0.0905	682399	keystroke_s	s	n/a
341.3045	0.09	682609	keystroke_Key.space	Key.space	n/a
341.6645	0.105	683329	keystroke_s	s	n/a
342.19	0.09	684380	keystroke_Key.backspace	Key.backspace	n/a
342.3845	0.0755	684769	keystroke_c	c	n/a
342.445	0.0895	684890	keystroke_h	h	n/a
342.5645	0.0745	685129	keystroke_e	e	n/a
342.8795	0.03	685759	keystroke_q	q	n/a
342.9545	0.06	685909	keystroke_u	u	n/a
343.1195	0.075	686239	keystroke_e	e	n/a
343.2245	0.075	686449	keystroke_Key.space	Key.space	n/a
344.0645	0.075	688129	keystroke_s	s	n/a
344.2595	0.075	688519	keystroke_n	n	n/a
344.4845	0.12	688969	keystroke_e	e	n/a
344.7695	0.075	689539	keystroke_Key.backspace	Key.backspace	n/a
344.9045	0.075	689809	keystroke_Key.backspace	Key.backspace	n/a
345.37	0.09	690740	keystroke_e	e	n/a
345.58	0.045	691160	keystroke_n	n	n/a
346.78	0.029	693560	keystroke_e	e	n/a
347.289	0.075	694578	keystroke_Key.backspace	Key.backspace	n/a
347.365	0.104	694730	keystroke_s	s	n/a
347.8745	0.09	695749	keystroke_i	i	n/a
348.0095	0.06	696019	keystroke_t	t	n/a
348.1145	0.09	696229	keystroke_i	i	n/a
348.3245	0.135	696649	keystroke_v	v	n/a
348.3995	0.12	696799	keystroke_e	e	n/a
348.9845	0.0605	697969	keystroke_Key.enter	Key.enter	n/a
349.057	7.714	698114	prompt	n/a	archived iraqi conviction invited\n
349.705	0.09	699410	keystroke_a	a	n/a
349.869	0.061	699738	keystroke_r	r	n/a
350.064	0.061	700128	keystroke_c	c	n/a
350.11	0.09	700220	keystroke_h	h	n/a
350.259	0.091	700518	keystroke_i	i	n/a
350.38	0.119	700760	keystroke_v	v	n/a
350.439	0.121	700878	keystroke_e	e	n/a
350.665	0.059	701330	keystroke_d	d	n/a
350.785	0.089	701570	keystroke_Key.space	Key.space	n/a
351.129	0.09	702258	keystroke_i	i	n/a
351.249	0.045	702498	keystroke_r	r	n/a
351.429	0.091	702858	keystroke_a	a	n/a
351.805	0.074	703610	keystroke_q	q	n/a
352.1045	0.045	704209	keystroke_i	i	n/a
352.3145	0.105	704629	keystroke_Key.space	Key.space	n/a
352.9745	0.06	705949	keystroke_c	c	n/a
353.0495	0.135	706099	keystroke_o	o	n/a
353.1095	0.135	706219	keystroke_n	n	n/a
353.1995	0.09	706399	keystroke_v	v	n/a
354.2045	0.075	708409	keystroke_i	i	n/a
354.3245	0.105	708649	keystroke_c	c	n/a
354.6245	0.06	709249	keystroke_t	t	n/a
354.6995	0.12	709399	keystroke_i	i	n/a
354.7595	0.1195	709519	keystroke_o	o	n/a
354.924	0.09	709848	keystroke_n	n	n/a
354.999	0.075	709998	keystroke_Key.space	Key.space	n/a
355.645	0.135	711290	keystroke_i	i	n/a
355.735	0.105	711470	keystroke_n	n	n/a
355.795	0.075	711590	keystroke_v	v	n/a
356.1845	0.105	712369	keystroke_i	i	n/a
356.3045	0.135	712609	keystroke_t	t	n/a
356.4245	0.09	712849	keystroke_e	e	n/a
356.5895	0.09	713179	keystroke_d	d	n/a
356.7095	0.06	713419	keystroke_Key.enter	Key.enter	n/a
356.7735	11.832	713547	prompt	n/a	safely permitted symposium microwave\n
357.64	0.119	715280	keystroke_s	s	n/a
357.744	0.09	715488	keystroke_a	a	n/a
357.954	0.075	715908	keystroke_f	f	n/a
357.999	0.09	715998	keystroke_e	e	n/a
358.104	0.09	716208	keystroke_l	l	n/a
358.224	0.075	716448	keystroke_y	y	n/a
358.284	0.075	716568	keystroke_Key.space	Key.space	n/a
358.479	0.061	716958	keystroke_p	p	n/a
358.569	0.12	717138	keystroke_e	e	n/a
358.63	0.09	717260	keystroke_r	r	n/a
358.69	0.104	717380	keystroke_m	m	n/a
358.9	0.059	717800	keystroke_i	i	n/a
359.019	0.045	718038	keystroke_t	t	n/a
359.124	0.135	718248	keystroke_t	t	n/a
359.244	0.105	718488	keystroke_e	e	n/a
359.424	0.09	718848	keystroke_d	d	n/a
359.515	0.089	719030	keystroke_Key.space	Key.space	n/a
360.234	0.105	720468	keystroke_s	s	n/a
360.474	0.09	720948	keystroke_q	q	n/a
361.314	0.075	722628	keystroke_Key.backspace	Key.backspace	n/a
361.7645	0.0745	723529	keystroke_y	y	n/a
362.169	0.12	724338	keystroke_n	n	n/a
363.13	0.09	726260	keystroke_Key.backspace	Key.backspace	n/a
363.415	0.075	726830	keystroke_m	m	n/a
364.075	0.135	728150	keystroke_p	p	n/a
364.15	0.0895	728300	keystroke_o	o	n/a
364.3145	0.045	728629	keystroke_s	s	n/a
365.215	0.075	730430	keystroke_i	i	n/a
365.425	0.015	730850	keystroke_u	u	n/a
365.575	0.06	731150	keystroke_m	m	n/a
365.7395	0.09	731479	keystroke_Key.space	Key.space	n/a
366.3545	0.09	732709	keystroke_m	m	n/a
366.5045	0.09	733009	keystroke_i	i	n/a
366.6695	0.105	733339	keystroke_c	c	n/a
366.9545	0.0905	733909	keystroke_r	r	n/a
367.075	0.09	734150	keystroke_o	o	n/a
367.24	0.03	734480	keystroke_w	w	n/a
367.5995	0.105	735199	keystroke_a	a	n/a
367.8095	0.135	735619	keystroke_v	v	n/a
367.9295	0.105	735859	keystroke_e	e	n/a
368.0795	0.075	736159	keystroke_Key.space	Key.space	n/a
368.529	0.075	737058	keystroke_Key.enter	Key.enter	n/a
368.617	5.584	737234	prompt	n/a	manuals lack contrast heating\n
369.249	0.105	738498	keystroke_m	m	n/a
369.384	0.09	738768	keystroke_a	a	n/a
369.579	0.09	739158	keystroke_n	n	n/a
369.774	0.075	739548	keystroke_u	u	n/a
370.164	0.135	740328	keystroke_a	a	n/a
370.284	0.09	740568	keystroke_l	l	n/a
370.419	0.105	740838	keystroke_s	s	n/a
370.509	0.105	741018	keystroke_Key.space	Key.space	n/a
370.794	0.075	741588	keystroke_l	l	n/a
371.004	0.1205	742008	keystroke_a	a	n/a
371.064	0.1205	742128	keystroke_c	c	n/a
371.1545	0.105	742309	keystroke_k	k	n/a
371.2895	0.075	742579	keystroke_Key.space	Key.space	n/a
371.6945	0.075	743389	keystroke_c	c	n/a
371.8145	0.1045	743629	keystroke_o	o	n/a
371.874	0.105	743748	keystroke_n	n	n/a
372.384	0.1655	744768	keystroke_t	t	n/a
372.4895	0.09	744979	keystroke_r	r	n/a
372.6845	0.1345	745369	keystroke_a	a	n/a
372.774	0.105	745548	keystroke_s	s	n/a
372.999	0.06	745998	keystroke_t	t	n/a
373.074	0.105	746148	keystroke_Key.space	Key.space	n/a
373.329	0.075	746658	keystroke_h	h	n/a
373.389	0.075	746778	keystroke_e	e	n/a
373.449	0.105	746898	keystroke_a	a	n/a
373.629	0.09	747258	keystroke_t	t	n/a
373.734	0.12	747468	keystroke_i	i	n/a
373.809	0.06	747618	keystroke_n	n	n/a
373.839	0.075	747678	keystroke_g	g	n/a
373.929	0.09	747858	keystroke_Key.space	Key.space	n/a
374.079	0.12	748158	keystroke_Key.enter	Key.enter	n/a
374.205	5.9505	748410	prompt	n/a	drugs sure horses burn\n
374.949	0.075	749898	keystroke_d	d	n/a
375.129	0.075	750258	keystroke_r	r	n/a
375.324	0.075	750648	keystroke_u	u	n/a
375.414	0.0755	750828	keystroke_g	g	n/a
375.594	0.105	751188	keystroke_s	s	n/a
375.684	0.105	751368	keystroke_Key.space	Key.space	n/a
376.374	0.1055	752748	keystroke_s	s	n/a
376.5095	0.1045	753019	keystroke_u	u	n/a
376.644	0.105	753288	keystroke_r	r	n/a
376.674	0.12	753348	keystroke_e	e	n/a
377.004	0.1205	754008	keystroke_Key.space	Key.space	n/a
377.725	0.1045	755450	keystroke_h	h	n/a
377.8895	0.09	755779	keystroke_o	o	n/a
378.0695	0.135	756139	keystroke_r	r	n/a
378.1595	0.105	756319	keystroke_s	s	n/a
378.3845	0.165	756769	keystroke_e	e	n/a
378.4745	0.12	756949	keystroke_s	s	n/a
378.6095	0.12	757219	keystroke_Key.space	Key.space	n/a
379.359	0.075	758718	keystroke_b	b	n/a
379.404	0.09	758808	keystroke_u	u	n/a
379.689	0.09	759378	keystroke_r	r	n/a
379.8695	0.075	759739	keystroke_n	n	n/a
380.0945	0.059	760189	keystroke_Key.enter	Key.enter	n/a
380.158	6.883	760316	prompt	n/a	expenses budgets marion cage\n
381.0995	0.045	762199	keystroke_e	e	n/a
381.2945	0.09	762589	keystroke_x	x	n/a
381.3995	0.105	762799	keystroke_p	p	n/a
381.5195	0.075	763039	keystroke_e	e	n/a
381.6095	0.105	763219	keystroke_n	n	n/a
381.6995	0.06	763399	keystroke_s	s	n/a
381.879	0.045	763758	keystroke_e	e	n/a
382.0145	0.105	764029	keystroke_s	s	n/a
382.1195	0.075	764239	keystroke_Key.space	Key.space	n/a
383.214	0.135	766428	keystroke_b	b	n/a
383.364	0.1055	766728	keystroke_u	u	n/a
383.6645	0.12	767329	keystroke_d	d	n/a
383.8295	0.045	767659	keystroke_g	g	n/a
383.9645	0.12	767929	keystroke_e	e	n/a
384.0695	0.075	768139	keystroke_t	t	n/a
384.2195	0.105	768439	keystroke_s	s	n/a
384.3245	0.09	768649	keystroke_Key.space	Key.space	n/a
384.5345	0.105	769069	keystroke_m	m	n/a
384.6245	0.105	769249	keystroke_a	a	n/a
384.7895	0.075	769579	keystroke_r	r	n/a
384.8945	0.12	769789	keystroke_i	i	n/a
385.0745	0.12	770149	keystroke_a	a	n/a
385.3895	0.105	770779	keystroke_Key.backspace	Key.backspace	n/a
385.8395	0.15	771679	keystroke_o	o	n/a
385.9145	0.12	771829	keystroke_n	n	n/a
385.9745	0.09	771949	keystroke_Key.space	Key.space	n/a
386.4545	0.135	772909	keystroke_c	c	n/a
386.5145	0.12	773029	keystroke_a	a	n/a
386.7545	0.075	773509	keystroke_g	g	n/a
386.7995	0.09	773599	keystroke_e	e	n/a
386.9045	0.135	773809	keystroke_Key.enter	Key.enter	n/a
387.0435	5.5175	774087	prompt	n/a	roberts rise organ ready\n
387.9245	0.075	775849	keystroke_r	r	n/a
387.9845	0.09	775969	keystroke_o	o	n/a
388.1345	0.075	776269	keystroke_b	b	n/a
388.4045	0.135	776809	keystroke_e	e	n/a
388.4795	0.12	776959	keystroke_r	r	n/a
388.7045	0.06	777409	keystroke_t	t	n/a
388.854	0.135	777708	keystroke_s	s	n/a
389.019	0.135	778038	keystroke_Key.space	Key.space	n/a
389.289	0.09	778578	keystroke_r	r	n/a
389.394	0.105	778788	keystroke_i	i	n/a
389.514	0.135	779028	keystroke_s	s	n/a
389.664	0.105	779328	keystroke_e	e	n/a
389.754	0.105	779508	keystroke_Key.space	Key.space	n/a
390.099	0.075	780198	keystroke_o	o	n/a
390.144	0.0905	780288	keystroke_r	r	n/a
390.3845	0.09	780769	keystroke_g	g	n/a
390.4895	0.12	780979	keystroke_a	a	n/a
390.5945	0.075	781189	keystroke_n	n	n/a
390.7745	0.09	781549	keystroke_Key.space	Key.space	n/a
390.9845	0.15	781969	keystroke_r	r	n/a
391.1045	0.12	782209	keystroke_e	e	n/a
391.2995	0.105	782599	keystroke_a	a	n/a
391.3595	0.105	782719	keystroke_d	d	n/a
392.109	0.075	784218	keystroke_y	y	n/a
392.199	0.105	784398	keystroke_Key.space	Key.space	n/a
392.469	0.09	784938	keystroke_Key.enter	Key.enter	n/a
392.5635	7.602	785127	prompt	n/a	writes polar absorption checked\n
393.2645	0.075	786529	keystroke_w	w	n/a
393.4895	0.06	786979	keystroke_r	r	n/a
393.6695	0.09	787339	keystroke_i	i	n/a
393.7445	0.135	787489	keystroke_t	t	n/a
393.8345	0.105	787669	keystroke_e	e	n/a
394.0295	0.09	788059	keystroke_s	s	n/a
394.1195	0.105	788239	keystroke_Key.space	Key.space	n/a
394.3745	0.135	788749	keystroke_p	p	n/a
394.4195	0.135	788839	keystroke_o	o	n/a
394.5995	0.09	789199	keystroke_l	l	n/a
394.749	0.135	789498	keystroke_a	a	n/a
394.854	0.105	789708	keystroke_r	r	n/a
394.974	0.105	789948	keystroke_Key.space	Key.space	n/a
395.529	0.12	791058	keystroke_a	a	n/a
395.859	0.09	791718	keystroke_b	b	n/a
396.909	0.09	793818	keystroke_s	s	n/a
397.029	0.075	794058	keystroke_o	o	n/a
398.2745	0.06	796549	keystroke_r	r	n/a
398.3795	0.12	796759	keystroke_p	p	n/a
398.5895	0.06	797179	keystroke_t	t	n/a
398.6945	0.105	797389	keystroke_i	i	n/a
398.7695	0.09	797539	keystroke_o	o	n/a
398.9045	0.105	797809	keystroke_n	n	n/a
398.9945	0.09	797989	keystroke_Key.space	Key.space	n/a
399.3545	0.12	798709	keystroke_c	c	n/a
399.4895	0.075	798979	keystroke_h	h	n/a
399.5045	0.105	799009	keystroke_e	e	n/a
399.5945	0.105	799189	keystroke_c	c	n/a
399.6845	0.105	799369	keystroke_k	k	n/a
399.8195	0.075	799639	keystroke_e	e	n/a
399.9545	0.09	799909	keystroke_d	d	n/a
400.0595	0.105	800119	keystroke_Key.enter	Key.enter	n/a
400.1775	6.318	800355	prompt	n/a	may drawing nebraska decor\n
400.809	0.075	801618	keystroke_m	m	n/a
400.899	0.12	801798	keystroke_a	a	n/a
401.1235	0.076	802247	keystroke_y	y	n/a
401.2145	0.1045	802429	keystroke_Key.space	Key.space	n/a
401.559	0.09	803118	keystroke_d	d	n/a
401.769	0.0755	803538	keystroke_r	r	n/a
401.8745	0.15	803749	keystroke_a	a	n/a
401.9945	0.075	803989	keystroke_w	w	n/a
402.1295	0.119	804259	keystroke_i	i	n/a
402.1895	0.074	804379	keystroke_n	n	n/a
402.2795	0.059	804559	keystroke_g	g	n/a
402.3545	0.104	804709	keystroke_Key.space	Key.space	n/a
403.1185	0.12	806237	keystroke_b	b	n/a
403.6285	0.075	807257	keystroke_Key.backspace	Key.backspace	n/a
403.8385	0.09	807677	keystroke_n	n	n/a
403.944	0.075	807888	keystroke_e	e	n/a
404.064	0.075	808128	keystroke_b	b	n/a
404.184	0.12	808368	keystroke_r	r	n/a
404.439	0.135	808878	keystroke_a	a	n/a
404.529	0.09	809058	keystroke_s	s	n/a
404.604	0.09	809208	keystroke_k	k	n/a
404.709	0.12	809418	keystroke_a	a	n/a
404.814	0.105	809628	keystroke_Key.space	Key.space	n/a
405.594	0.09	811188	keystroke_d	d	n/a
405.789	0.09	811578	keystroke_e	e	n/a
406.029	0.075	812058	keystroke_c	c	n/a
406.149	0.075	812298	keystroke_o	o	n/a
406.254	0.0595	812508	keystroke_r	r	n/a
406.3885	0.105	812777	keystroke_Key.enter	Key.enter	n/a
406.498	4.948	812996	prompt	n/a	operated single design increasingly\n
407.304	0.135	814608	keystroke_o	o	n/a
407.349	0.105	814698	keystroke_p	p	n/a
407.469	0.09	814938	keystroke_e	e	n/a
407.514	0.105	815028	keystroke_r	r	n/a
407.679	0.105	815358	keystroke_a	a	n/a
407.799	0.1195	815598	keystroke_t	t	n/a
407.889	0.0895	815778	keystroke_e	e	n/a
408.0385	0.09	816077	keystroke_d	d	n/a
408.0835	0.105	816167	keystroke_Key.space	Key.space	n/a
408.2185	0.09	816437	keystroke_s	s	n/a
408.2785	0.09	816557	keystroke_i	i	n/a
408.3235	0.105	816647	keystroke_n	n	n/a
408.4435	0.09	816887	keystroke_g	g	n/a
408.5485	0.09	817097	keystroke_l	l	n/a
408.6535	0.075	817307	keystroke_e	e	n/a
408.7435	0.105	817487	keystroke_Key.space	Key.space	n/a
408.8635	0.075	817727	keystroke_d	d	n/a
409.0285	0.06	818057	keystroke_e	e	n/a
409.1935	0.06	818387	keystroke_s	s	n/a
409.269	0.1045	818538	keystroke_i	i	n/a
409.3585	0.075	818717	keystroke_g	g	n/a
409.4485	0.075	818897	keystroke_n	n	n/a
409.5835	0.105	819167	keystroke_Key.space	Key.space	n/a
410.0035	0.09	820007	keystroke_i	i	n/a
410.0485	0.105	820097	keystroke_n	n	n/a
410.1385	0.105	820277	keystroke_c	c	n/a
410.3785	0.09	820757	keystroke_r	r	n/a
410.3935	0.106	820787	keystroke_e	e	n/a
410.5435	0.136	821087	keystroke_a	a	n/a
410.6035	0.136	821207	keystroke_s	s	n/a
410.7545	0.09	821509	keystroke_i	i	n/a
410.7995	0.09	821599	keystroke_n	n	n/a
410.8745	0.075	821749	keystroke_g	g	n/a
410.9945	0.09	821989	keystroke_l	l	n/a
411.1445	0.075	822289	keystroke_y	y	n/a
411.3545	0.09	822709	keystroke_Key.enter	Key.enter	n/a
411.448	7.4675	822896	prompt	n/a	proven experts pokemon throughout\n
412.344	0.075	824688	keystroke_p	p	n/a
412.42	0.089	824840	keystroke_r	r	n/a
412.539	0.075	825078	keystroke_o	o	n/a
412.674	0.09	825348	keystroke_v	v	n/a
412.749	0.06	825498	keystroke_e	e	n/a
412.974	0.075	825948	keystroke_n	n	n/a
413.079	0.105	826158	keystroke_e	e	n/a
413.514	0.06	827028	keystroke_Key.backspace	Key.backspace	n/a
414.114	0.09	828228	keystroke_Key.space	Key.space	n/a
414.279	0.06	828558	keystroke_e	e	n/a
414.489	0.075	828978	keystroke_x	x	n/a
414.594	0.105	829188	keystroke_p	p	n/a
414.759	0.12	829518	keystroke_e	e	n/a
414.804	0.12	829608	keystroke_r	r	n/a
415.539	0.06	831078	keystroke_t	t	n/a
415.719	0.09	831438	keystroke_s	s	n/a
415.809	0.09	831618	keystroke_Key.space	Key.space	n/a
416.019	0.12	832038	keystroke_p	p	n/a
416.079	0.105	832158	keystroke_o	o	n/a
416.274	0.135	832548	keystroke_k	k	n/a
416.41	0.089	832820	keystroke_e	e	n/a
416.574	0.045	833148	keystroke_m	m	n/a
417.159	0.12	834318	keystroke_o	o	n/a
417.219	0.09	834438	keystroke_n	n	n/a
417.399	0.1045	834798	keystroke_Key.space	Key.space	n/a
417.6385	0.135	835277	keystroke_t	t	n/a
417.6985	0.12	835397	keystroke_h	h	n/a
418.0885	0.091	836177	keystroke_r	r	n/a
418.1945	0.104	836389	keystroke_o	o	n/a
418.2235	0.105	836447	keystroke_u	u	n/a
418.3135	0.075	836627	keystroke_g	g	n/a
418.4185	0.091	836837	keystroke_h	h	n/a
418.5685	0.075	837137	keystroke_o	o	n/a
418.6135	0.06	837227	keystroke_u	u	n/a
418.6745	0.074	837349	keystroke_t	t	n/a
418.839	0.075	837678	keystroke_Key.enter	Key.enter	n/a
418.9205	8.005	837841	prompt	n/a	trans refinance rochester freeware\n
419.8885	0.09	839777	keystroke_t	t	n/a
419.9185	0.106	839837	keystroke_r	r	n/a
420.0985	0.12	840197	keystroke_a	a	n/a
420.2035	0.09	840407	keystroke_n	n	n/a
420.2785	0.09	840557	keystroke_s	s	n/a
420.4135	0.075	840827	keystroke_Key.space	Key.space	n/a
420.6985	0.09	841397	keystroke_r	r	n/a
420.7435	0.1205	841487	keystroke_e	e	n/a
421.434	0.075	842868	keystroke_f	f	n/a
421.494	0.105	842988	keystroke_i	i	n/a
421.569	0.06	843138	keystroke_n	n	n/a
421.674	0.075	843348	keystroke_n	n	n/a
421.884	0.09	843768	keystroke_a	a	n/a
422.289	0.075	844578	keystroke_Key.backspace	Key.backspace	n/a
422.409	0.09	844818	keystroke_Key.backspace	Key.backspace	n/a
422.514	0.12	845028	keystroke_a	a	n/a
422.679	0.045	845358	keystroke_n	n	n/a
422.754	0.12	845508	keystroke_c	c	n/a
422.799	0.1045	845598	keystroke_e	e	n/a
422.934	0.105	845868	keystroke_Key.space	Key.space	n/a
423.414	0.09	846828	keystroke_r	r	n/a
423.5485	0.09	847097	keystroke_o	o	n/a
423.6685	0.075	847337	keystroke_c	c	n/a
423.7735	0.06	847547	keystroke_h	h	n/a
423.8635	0.075	847727	keystroke_e	e	n/a
424.0135	0.09	848027	keystroke_s	s	n/a
424.1335	0.075	848267	keystroke_t	t	n/a
424.464	0.105	848928	keystroke_e	e	n/a
424.524	0.09	849048	keystroke_r	r	n/a
424.644	0.105	849288	keystroke_Key.space	Key.space	n/a
425.6485	0.09	851297	keystroke_f	f	n/a
425.844	0.12	851688	keystroke_r	r	n/a
425.904	0.12	851808	keystroke_e	e	n/a
426.099	0.075	852198	keystroke_e	e	n/a
426.279	0.12	852558	keystroke_w	w	n/a
426.504	0.105	853008	keystroke_a	a	n/a
426.639	0.12	853278	keystroke_r	r	n/a
426.714	0.105	853428	keystroke_e	e	n/a
426.834	0.09	853668	keystroke_Key.enter	Key.enter	n/a
426.933	13.507	853866	prompt	n/a	drilling encyclopedia distributions vessel\n
427.7635	0.09	855527	keystroke_d	d	n/a
428.0035	0.075	856007	keystroke_r	r	n/a
428.1535	0.105	856307	keystroke_i	i	n/a
428.3935	0.06	856787	keystroke_l	l	n/a
428.5135	0.09	857027	keystroke_l	l	n/a
428.7685	0.075	857537	keystroke_i	i	n/a
428.8135	0.075	857627	keystroke_n	n	n/a
428.8585	0.075	857717	keystroke_g	g	n/a
428.9635	0.075	857927	keystroke_Key.space	Key.space	n/a
429.1585	0.075	858317	keystroke_e	e	n/a
429.6535	0.075	859307	keystroke_n	n	n/a
429.8785	0.06	859757	keystroke_c	c	n/a
430.1185	0.06	860237	keystroke_r	r	n/a
430.7185	0.06	861437	keystroke_Key.backspace	Key.backspace	n/a
431.559	0.06	863118	keystroke_y	y	n/a
431.634	0.075	863268	keystroke_c	c	n/a
431.8435	0.045	863687	keystroke_l	l	n/a
432.1135	0.06	864227	keystroke_o	o	n/a
432.7285	0.06	865457	keystroke_p	p	n/a
434.499	0.06	868998	keystroke_e	e	n/a
434.664	0.09	869328	keystroke_d	d	n/a
434.9635	0.06	869927	keystroke_i	i	n/a
435.0685	0.105	870137	keystroke_a	a	n/a
435.204	0.09	870408	keystroke_Key.space	Key.space	n/a
435.639	0.075	871278	keystroke_d	d	n/a
435.834	0.09	871668	keystroke_i	i	n/a
435.984	0.12	871968	keystroke_s	s	n/a
436.269	0.09	872538	keystroke_t	t	n/a
436.299	0.105	872598	keystroke_r	r	n/a
436.449	0.09	872898	keystroke_i	i	n/a
436.584	0.09	873168	keystroke_b	b	n/a
436.734	0.09	873468	keystroke_u	u	n/a
436.839	0.075	873678	keystroke_t	t	n/a
437.064	0.12	874128	keystroke_i	i	n/a
437.154	0.105	874308	keystroke_o	o	n/a
437.289	0.09	874578	keystroke_n	n	n/a
437.394	0.09	874788	keystroke_s	s	n/a
437.469	0.09	874938	keystroke_Key.space	Key.space	n/a
437.964	0.135	875928	keystroke_v	v	n/a
438.024	0.1195	876048	keystroke_e	e	n/a
438.3845	0.089	876769	keystroke_s	s	n/a
438.5485	0.076	877097	keystroke_s	s	n/a
438.8185	0.075	877637	keystroke_e	e	n/a
438.9535	0.091	877907	keystroke_l	l	n/a
439.4035	0.09	878807	keystroke_Key.space	Key.space	n/a
440.334	0.105	880668	keystroke_Key.enter	Key.enter	n/a
440.451	7.2945	880902	prompt	n/a	levels pump lounge jeep\n
441.144	0.09	882288	keystroke_l	l	n/a
441.264	0.075	882528	keystroke_e	e	n/a
441.459	0.105	882918	keystroke_e	e	n/a
441.474	0.06	882948	keystroke_v	v	n/a
442.059	0.09	884118	keystroke_Key.backspace	Key.backspace	n/a
442.209	0.09	884418	keystroke_Key.backspace	Key.backspace	n/a
442.404	0.12	884808	keystroke_v	v	n/a
442.464	0.09	884928	keystroke_e	e	n/a
442.509	0.135	885018	keystroke_l	l	n/a
442.719	0.105	885438	keystroke_s	s	n/a
442.809	0.09	885618	keystroke_Key.space	Key.space	n/a
443.259	0.18	886518	keystroke_p	p	n/a
443.394	0.075	886788	keystroke_u	u	n/a
443.589	0.105	887178	keystroke_m	m	n/a
443.754	0.09	887508	keystroke_p	p	n/a
443.859	0.105	887718	keystroke_Key.space	Key.space	n/a
444.189	0.09	888378	keystroke_l	l	n/a
444.414	0.165	888828	keystroke_o	o	n/a
444.504	0.105	889008	keystroke_u	u	n/a
444.714	0.09	889428	keystroke_n	n	n/a
444.774	0.105	889548	keystroke_g	g	n/a
444.909	0.135	889818	keystroke_e	e	n/a
445.059	0.09	890118	keystroke_Key.space	Key.space	n/a
445.464	0.075	890928	keystroke_k	k	n/a
445.644	0.075	891288	keystroke_e	e	n/a
445.809	0.12	891618	keystroke_e	e	n/a
446.3785	0.075	892757	keystroke_Key.backspace	Key.backspace	n/a
446.5135	0.075	893027	keystroke_Key.backspace	Key.backspace	n/a
446.6635	0.045	893327	keystroke_Key.backspace	Key.backspace	n/a
447.0535	0.075	894107	keystroke_j	j	n/a
447.1585	0.075	894317	keystroke_e	e	n/a
447.3085	0.105	894617	keystroke_e	e	n/a
447.4585	0.105	894917	keystroke_p	p	n/a
447.6535	0.09	895307	keystroke_Key.enter	Key.enter	n/a
447.7495	6.131	895499	prompt	n/a	easy librarian dude ruled\n
448.494	0.09	896988	keystroke_e	e	n/a
448.659	0.105	897318	keystroke_a	a	n/a
448.719	0.1045	897438	keystroke_s	s	n/a
448.9435	0.06	897887	keystroke_y	y	n/a
449.0935	0.09	898187	keystroke_Key.space	Key.space	n/a
449.2585	0.09	898517	keystroke_l	l	n/a
449.4985	0.075	898997	keystroke_i	i	n/a
449.8585	0.12	899717	keystroke_b	b	n/a
450.339	0.09	900678	keystroke_r	r	n/a
450.654	0.105	901308	keystroke_a	a	n/a
450.804	0.09	901608	keystroke_r	r	n/a
451.359	0.06	902718	keystroke_i	i	n/a
451.434	0.1195	902868	keystroke_a	a	n/a
451.5685	0.075	903137	keystroke_n	n	n/a
451.6585	0.09	903317	keystroke_s	s	n/a
451.7635	0.075	903527	keystroke_Key.space	Key.space	n/a
451.9135	0.12	903827	keystroke_d	d	n/a
452.0485	0.105	904097	keystroke_u	u	n/a
452.124	0.1045	904248	keystroke_d	d	n/a
452.3635	0.09	904727	keystroke_e	e	n/a
452.4835	0.105	904967	keystroke_Key.space	Key.space	n/a
452.7985	0.105	905597	keystroke_r	r	n/a
452.9635	0.12	905927	keystroke_u	u	n/a
453.2335	0.075	906467	keystroke_l	l	n/a
453.2935	0.09	906587	keystroke_e	e	n/a
453.4285	0.12	906857	keystroke_d	d	n/a
453.5185	0.105	907037	keystroke_Key.space	Key.space	n/a
453.8185	0.06	907637	keystroke_Key.enter	Key.enter	n/a
453.891	6.6045	907782	prompt	n/a	revenge folders usually womens\n
454.584	0.09	909168	keystroke_r	r	n/a
454.644	0.105	909288	keystroke_e	e	n/a
454.824	0.105	909648	keystroke_v	v	n/a
454.899	0.09	909798	keystroke_e	e	n/a
455.004	0.075	910008	keystroke_n	n	n/a
455.184	0.075	910368	keystroke_Key.space	Key.space	n/a
455.739	0.075	911478	keystroke_f	f	n/a
455.799	0.075	911598	keystroke_o	o	n/a
456.069	0.015	912138	keystroke_l	l	n/a
456.099	0.06	912198	keystroke_d	d	n/a
456.279	0.075	912558	keystroke_e	e	n/a
456.309	0.09	912618	keystroke_r	r	n/a
456.459	0.105	912918	keystroke_s	s	n/a
456.549	0.12	913098	keystroke_Key.space	Key.space	n/a
456.819	0.075	913638	keystroke_u	u	n/a
456.909	0.0895	913818	keystroke_s	s	n/a
457.0135	0.09	914027	keystroke_u	u	n/a
457.0885	0.09	914177	keystroke_a	a	n/a
457.2085	0.18	914417	keystroke_l	l	n/a
457.4335	0.09	914867	keystroke_y	y	n/a
457.5985	0.105	915197	keystroke_Key.space	Key.space	n/a
458.228	0.031	916456	keystroke_Key.backspace	Key.backspace	n/a
458.333	0.0755	916666	keystroke_Key.backspace	Key.backspace	n/a
458.5885	0.09	917177	keystroke_l	l	n/a
458.7085	0.075	917417	keystroke_y	y	n/a
458.9935	0.06	917987	keystroke_Key.space	Key.space	n/a
459.879	0.105	919758	keystroke_w	w	n/a
459.954	0.135	919908	keystroke_o	o	n/a
460.044	0.105	920088	keystroke_m	m	n/a
460.149	0.09	920298	keystroke_e	e	n/a
460.254	0.075	920508	keystroke_n	n	n/a
460.389	0.105	920778	keystroke_Key.enter	Key.enter	n/a
460.499	6.2065	920998	prompt	n/a	treaty secretary retreat finite\n
461.543	0.106	923086	keystroke_t	t	n/a
461.559	0.179	923118	keystroke_r	r	n/a
461.754	0.09	923508	keystroke_e	e	n/a
462.069	0.2095	924138	keystroke_a	a	n/a
462.3235	0.1205	924647	keystroke_t	t	n/a
462.609	0.105	925218	keystroke_Key.space	Key.space	n/a
462.819	0.075	925638	keystroke_s	s	n/a
463.029	0.075	926058	keystroke_e	e	n/a
463.254	0.06	926508	keystroke_c	c	n/a
463.449	0.105	926898	keystroke_r	r	n/a
463.494	0.12	926988	keystroke_e	e	n/a
463.689	0.075	927378	keystroke_t	t	n/a
463.8695	0.089	927739	keystroke_a	a	n/a
463.9285	0.12	927857	keystroke_r	r	n/a
464.1985	0.06	928397	keystroke_y	y	n/a
464.3185	0.105	928637	keystroke_Key.space	Key.space	n/a
464.6185	0.12	929237	keystroke_r	r	n/a
464.6935	0.09	929387	keystroke_e	e	n/a
464.8885	0.135	929777	keystroke_t	t	n/a
464.9785	0.151	929957	keystroke_r	r	n/a
465.1435	0.1205	930287	keystroke_e	e	n/a
465.384	0.12	930768	keystroke_a	a	n/a
465.489	0.09	930978	keystroke_t	t	n/a
465.594	0.1195	931188	keystroke_Key.space	Key.space	n/a
465.7585	0.075	931517	keystroke_f	f	n/a
465.8485	0.09	931697	keystroke_i	i	n/a
465.8945	0.089	931789	keystroke_n	n	n/a
466.0435	0.12	932087	keystroke_i	i	n/a
466.1485	0.075	932297	keystroke_t	t	n/a
466.3435	0.105	932687	keystroke_e	e	n/a
466.6135	0.09	933227	keystroke_Key.enter	Key.enter	n/a
466.709	11.4265	933418	prompt	n/a	laughing essay interaction controversy\n
467.3485	0.091	934697	keystroke_l	l	n/a
467.4245	0.089	934849	keystroke_a	a	n/a
467.5735	0.09	935147	keystroke_u	u	n/a
467.6495	0.059	935299	keystroke_g	g	n/a
467.7835	0.076	935567	keystroke_h	h	n/a
468.5635	0.105	937127	keystroke_i	i	n/a
468.6085	0.075	937217	keystroke_n	n	n/a
468.6385	0.09	937277	keystroke_g	g	n/a
468.7435	0.12	937487	keystroke_Key.space	Key.space	n/a
468.8785	0.105	937757	keystroke_e	e	n/a
469.1185	0.076	938237	keystroke_s	s	n/a
469.2685	0.12	938537	keystroke_s	s	n/a
469.5535	0.09	939107	keystroke_a	a	n/a
469.9135	0.075	939827	keystroke_y	y	n/a
470.0185	0.12	940037	keystroke_Key.space	Key.space	n/a
470.6935	0.135	941387	keystroke_i	i	n/a
470.7535	0.106	941507	keystroke_n	n	n/a
470.8135	0.09	941627	keystroke_t	t	n/a
470.9635	0.1055	941927	keystroke_e	e	n/a
471.024	0.09	942048	keystroke_r	r	n/a
471.204	0.105	942408	keystroke_a	a	n/a
471.279	0.105	942558	keystroke_c	c	n/a
471.504	0.045	943008	keystroke_t	t	n/a
471.564	0.09	943128	keystroke_i	i	n/a
471.594	0.12	943188	keystroke_o	o	n/a
471.759	0.09	943518	keystroke_n	n	n/a
471.939	0.0895	943878	keystroke_Key.space	Key.space	n/a
472.2385	0.09	944477	keystroke_c	c	n/a
472.3585	0.105	944717	keystroke_o	o	n/a
472.4035	0.091	944807	keystroke_n	n	n/a
472.6585	0.135	945317	keystroke_t	t	n/a
472.7485	0.105	945497	keystroke_r	r	n/a
473.619	0.105	947238	keystroke_o	o	n/a
474.354	0.12	948708	keystroke_v	v	n/a
474.8035	0.12	949607	keystroke_e	e	n/a
474.8785	0.12	949757	keystroke_r	r	n/a
475.9435	0.09	951887	keystroke_s	s	n/a
476.5885	0.045	953177	keystroke_e	e	n/a
477.1585	0.09	954317	keystroke_Key.backspace	Key.backspace	n/a
477.3085	0.075	954617	keystroke_y	y	n/a
477.654	0.06	955308	keystroke_Key.space	Key.space	n/a
478.059	0.075	956118	keystroke_Key.enter	Key.enter	n/a
478.146	7.039	956292	prompt	n/a	curve supplies retrieve feed\n
479.0035	0.06	958007	keystroke_c	c	n/a
479.1985	0.09	958397	keystroke_u	u	n/a
479.3335	0.09	958667	keystroke_r	r	n/a
479.6485	0.105	959297	keystroke_v	v	n/a
479.7085	0.09	959417	keystroke_e	e	n/a
479.8135	0.105	959627	keystroke_Key.space	Key.space	n/a
480.0085	0.09	960017	keystroke_s	s	n/a
480.1285	0.0895	960257	keystroke_u	u	n/a
480.354	0.059	960708	keystroke_p	p	n/a
480.473	0.105	960946	keystroke_p	p	n/a
480.623	0.09	961246	keystroke_l	l	n/a
480.849	0.045	961698	keystroke_i	i	n/a
480.909	0.12	961818	keystroke_e	e	n/a
480.984	0.12	961968	keystroke_s	s	n/a
481.119	0.075	962238	keystroke_Key.space	Key.space	n/a
481.479	0.1495	962958	keystroke_r	r	n/a
481.5685	0.12	963137	keystroke_e	e	n/a
481.9585	0.135	963917	keystroke_t	t	n/a
481.9885	0.15	963977	keystroke_r	r	n/a
482.8435	0.0905	965687	keystroke_i	i	n/a
482.964	0.12	965928	keystroke_e	e	n/a
483.699	0.12	967398	keystroke_v	v	n/a
483.759	0.1345	967518	keystroke_e	e	n/a
483.9535	0.105	967907	keystroke_Key.space	Key.space	n/a
484.404	0.119	968808	keystroke_f	f	n/a
484.479	0.119	968958	keystroke_e	e	n/a
484.658	0.091	969316	keystroke_e	e	n/a
484.823	0.09	969646	keystroke_d	d	n/a
485.093	0.09	970186	keystroke_Key.enter	Key.enter	n/a
485.188	9.072	970376	prompt	n/a	pounds science which's webcams\n
486.023	0.121	972046	keystroke_p	p	n/a
486.459	0.0145	972918	keystroke_o	o	n/a
487.253	0.045	974506	keystroke_o	o	n/a
487.973	0.09	975946	keystroke_Key.backspace	Key.backspace	n/a
488.228	0.076	976456	keystroke_u	u	n/a
488.423	0.0905	976846	keystroke_n	n	n/a
488.4985	0.1205	976997	keystroke_d	d	n/a
488.559	0.105	977118	keystroke_s	s	n/a
488.634	0.0745	977268	keystroke_Key.space	Key.space	n/a
488.9485	0.105	977897	keystroke_s	s	n/a
488.9935	0.12	977987	keystroke_c	c	n/a
489.1285	0.105	978257	keystroke_i	i	n/a
489.2635	0.09	978527	keystroke_e	e	n/a
489.4735	0.075	978947	keystroke_n	n	n/a
489.6685	0.1505	979337	keystroke_c	c	n/a
489.7735	0.105	979547	keystroke_e	e	n/a
