onset	duration	sample	value	key	prompt_text
2.0615	6.487	4123	prompt	n/a	the quick brown fox jumps over a lazy dog\n
4.264	0.013	8528	keystroke	t	n/a
4.292	0.059	8584	keystroke	h	n/a
4.367	0.06	8734	keystroke	e	n/a
4.456	0.061	8912	keystroke	Key.space	n/a
4.577	0.105	9154	keystroke	q	n/a
4.682	0.105	9364	keystroke	u	n/a
4.771	0.061	9542	keystroke	i	n/a
4.8915	0.0895	9783	keystroke	c	n/a
4.951	0.075	9902	keystroke	k	n/a
5.011	0.075	10022	keystroke	Key.space	n/a
5.146	0.06	10292	keystroke	b	n/a
5.237	0.089	10474	keystroke	r	n/a
5.311	0.061	10622	keystroke	o	n/a
5.494	0.1695	10988	keystroke	w	n/a
5.7085	0.075	11417	keystroke	n	n/a
5.7685	0.105	11537	keystroke	Key.space	n/a
5.8585	0.075	11717	keystroke	f	n/a
6.0245	0.075	12049	keystroke	o	n/a
6.0845	0.0905	12169	keystroke	x	n/a
6.205	0.09	12410	keystroke	Key.space	n/a
6.296	0.059	12592	keystroke	j	n/a
6.445	0.06	12890	keystroke	u	n/a
6.625	0.06	13250	keystroke	m	n/a
6.775	0.12	13550	keystroke	p	n/a
6.85	0.09	13700	keystroke	s	n/a
6.91	0.1055	13820	keystroke	Key.space	n/a
6.97	0.09	13940	keystroke	o	n/a
7.045	0.075	14090	keystroke	v	n/a
7.2105	0.0745	14421	keystroke	e	n/a
7.27	0.105	14540	keystroke	r	n/a
7.36	0.09	14720	keystroke	Key.space	n/a
7.45	0.0755	14900	keystroke	a	n/a
7.5405	0.12	15081	keystroke	Key.space	n/a
7.5855	0.12	15171	keystroke	l	n/a
7.6755	0.09	15351	keystroke	a	n/a
7.8555	0.105	15711	keystroke	z	n/a
7.9455	0.075	15891	keystroke	y	n/a
7.9755	0.105	15951	keystroke	Key.space	n/a
8.0655	0.075	16131	keystroke	d	n/a
8.1555	0.09	16311	keystroke	o	n/a
8.2605	0.0895	16521	keystroke	g	n/a
8.4855	0.06	16971	keystroke	Key.enter	n/a
8.5555	5.512	17111	prompt	n/a	dominant adoption expanded aerial\n
9.1605	0.06	18321	keystroke	d	n/a
9.2355	0.06	18471	keystroke	o	n/a
9.4155	0.06	18831	keystroke	m	n/a
9.5655	0.045	19131	keystroke	i	n/a
9.7155	0.045	19431	keystroke	n	n/a
9.8205	0.075	19641	keystroke	a	n/a
9.9405	0.045	19881	keystroke	n	n/a
10.0155	0.09	20031	keystroke	t	n/a
10.1355	0.09	20271	keystroke	Key.space	n/a
10.2555	0.075	20511	keystroke	a	n/a
10.4205	0.09	20841	keystroke	d	n/a
10.5255	0.12	21051	keystroke	o	n/a
10.6005	0.09	21201	keystroke	p	n/a
10.6905	0.09	21381	keystroke	t	n/a
10.7955	0.12	21591	keystroke	i	n/a
10.8705	0.075	21741	keystroke	o	n/a
11.0505	0.1045	22101	keystroke	n	n/a
11.125	0.09	22250	keystroke	Key.space	n/a
11.26	0.045	22520	keystroke	e	n/a
11.515	0.09	23030	keystroke	x	n/a
11.62	0.09	23240	keystroke	p	n/a
11.74	0.075	23480	keystroke	a	n/a
11.83	0.075	23660	keystroke	n	n/a
11.95	0.075	23900	keystroke	d	n/a
12.13	0.03	24260	keystroke	e	n/a
12.265	0.09	24530	keystroke	d	n/a
12.37	0.12	24740	keystroke	Key.space	n/a
12.61	0.15	25220	keystroke	a	n/a
12.925	0.0905	25850	keystroke	e	n/a
13.0305	0.075	26061	keystroke	r	n/a
13.5255	0.075	27051	keystroke	i	n/a
13.6605	0.06	27321	keystroke	a	n/a
13.7355	0.06	27471	keystroke	l	n/a
13.9905	0.0755	27981	keystroke	Key.enter	n/a
14.0705	4.482	28141	prompt	n/a	kennedy processor infants onto\n
14.7705	0.0605	29541	keystroke	k	n/a
14.875	0.061	29750	keystroke	e	n/a
14.965	0.061	29930	keystroke	n	n/a
15.101	0.045	30202	keystroke	n	n/a
15.161	0.059	30322	keystroke	e	n/a
15.326	0.104	30652	keystroke	d	n/a
15.415	0.076	30830	keystroke	y	n/a
15.475	0.09	30950	keystroke	Key.space	n/a
15.671	0.06	31342	keystroke	p	n/a
15.731	0.075	31462	keystroke	r	n/a
15.926	0.075	31852	keystroke	o	n/a
16.106	0.135	32212	keystroke	c	n/a
16.181	0.075	32362	keystroke	e	n/a
16.406	0.03	32812	keystroke	s	n/a
16.511	0.09	33022	keystroke	s	n/a
16.616	0.075	33232	keystroke	o	n/a
16.751	0.0745	33502	keystroke	r	n/a
16.81	0.1355	33620	keystroke	Key.space	n/a
16.9305	0.0455	33861	keystroke	i	n/a
17.096	0.06	34192	keystroke	n	n/a
17.141	0.075	34282	keystroke	f	n/a
17.231	0.12	34462	keystroke	a	n/a
17.366	0.06	34732	keystroke	n	n/a
17.456	0.06	34912	keystroke	t	n/a
17.651	0.06	35302	keystroke	s	n/a
17.816	0.075	35632	keystroke	Key.space	n/a
17.936	0.075	35872	keystroke	o	n/a
18.086	0.075	36172	keystroke	n	n/a
18.236	0.075	36472	keystroke	t	n/a
18.296	0.06	36592	keystroke	o	n/a
18.506	0.0445	37012	keystroke	Key.enter	n/a
18.5555	6.462	37111	prompt	n/a	ratios morrison presentation match\n
19.376	0.09	38752	keystroke	r	n/a
19.435	0.121	38870	keystroke	a	n/a
19.6305	0.1195	39261	keystroke	t	n/a
19.751	0.1195	39502	keystroke	i	n/a
19.81	0.1205	39620	keystroke	o	n/a
19.9605	0.075	39921	keystroke	s	n/a
20.0805	0.075	40161	keystroke	Key.space	n/a
20.2155	0.06	40431	keystroke	m	n/a
20.4105	0.105	40821	keystroke	o	n/a
20.5005	0.045	41001	keystroke	r	n/a
20.636	0.045	41272	keystroke	r	n/a
20.711	0.09	41422	keystroke	i	n/a
20.846	0.0745	41692	keystroke	s	n/a
21.341	0.06	42682	keystroke	o	n/a
21.535	0.091	43070	keystroke	n	n/a
21.611	0.089	43222	keystroke	Key.space	n/a
21.761	0.075	43522	keystroke	p	n/a
21.851	0.105	43702	keystroke	r	n/a
21.911	0.06	43822	keystroke	e	n/a
22.076	0.06	44152	keystroke	s	n/a
22.211	0.075	44422	keystroke	e	n/a
22.301	0.06	44602	keystroke	n	n/a
22.421	0.06	44842	keystroke	t	n/a
22.525	0.076	45050	keystroke	a	n/a
22.586	0.12	45172	keystroke	t	n/a
22.661	0.105	45322	keystroke	i	n/a
22.751	0.06	45502	keystroke	o	n/a
22.976	0.06	45952	keystroke	n	n/a
23.021	0.09	46042	keystroke	Key.space	n/a
23.291	0.06	46582	keystroke	a	n/a
23.666	0.075	47332	keystroke	Key.backspace	n/a
23.936	0.06	47872	keystroke	m	n/a
24.116	0.105	48232	keystroke	a	n/a
24.176	0.06	48352	keystroke	t	n/a
24.461	0.06	48922	keystroke	c	n/a
24.506	0.06	49012	keystroke	h	n/a
24.941	0.075	49882	keystroke	Key.enter	n/a
25.021	4.9615	50042	prompt	n/a	decimal makes resumes aggressive\n
25.706	0.045	51412	keystroke	d	n/a
25.871	0.03	51742	keystroke	e	n/a
26.036	0.0895	52072	keystroke	c	n/a
26.1105	0.0605	52221	keystroke	i	n/a
26.306	0.06	52612	keystroke	m	n/a
26.412	0.104	52824	keystroke	a	n/a
26.501	0.09	53002	keystroke	l	n/a
26.561	0.135	53122	keystroke	Key.space	n/a
26.681	0.09	53362	keystroke	m	n/a
26.786	0.06	53572	keystroke	a	n/a
26.8605	0.09	53721	keystroke	k	n/a
26.9055	0.06	53811	keystroke	e	n/a
27.0715	0.074	54143	keystroke	s	n/a
27.1605	0.09	54321	keystroke	Key.space	n/a
27.2655	0.105	54531	keystroke	r	n/a
27.3105	0.075	54621	keystroke	e	n/a
27.506	0.0745	55012	keystroke	s	n/a
27.5955	0.03	55191	keystroke	u	n/a
27.7905	0.075	55581	keystroke	m	n/a
27.8355	0.06	55671	keystroke	e	n/a
28.0005	0.09	56001	keystroke	s	n/a
28.1505	0.12	56301	keystroke	Key.space	n/a
28.3905	0.06	56781	keystroke	a	n/a
28.5715	0.059	57143	keystroke	g	n/a
28.6905	0.075	57381	keystroke	g	n/a
28.9005	0.135	57801	keystroke	r	n/a
28.9905	0.075	57981	keystroke	e	n/a
29.2005	0.06	58401	keystroke	s	n/a
29.3505	0.075	58701	keystroke	s	n/a
29.4705	0.045	58941	keystroke	i	n/a
29.6655	0.06	59331	keystroke	v	n/a
29.6955	0.075	59391	keystroke	e	n/a
29.9055	0.075	59811	keystroke	Key.enter	n/a
29.9855	3.9275	59971	prompt	n/a	autos galaxy moss ground\n
30.611	0.075	61222	keystroke	a	n/a
30.701	0.075	61402	keystroke	u	n/a
30.791	0.06	61582	keystroke	t	n/a
30.896	0.075	61792	keystroke	o	n/a
31.001	0.06	62002	keystroke	s	n/a
31.091	0.075	62182	keystroke	Key.space	n/a
31.241	0.09	62482	keystroke	g	n/a
31.316	0.075	62632	keystroke	a	n/a
31.406	0.06	62812	keystroke	l	n/a
31.481	0.105	62962	keystroke	a	n/a
31.826	0.105	63652	keystroke	x	n/a
31.931	0.075	63862	keystroke	y	n/a
31.976	0.09	63952	keystroke	Key.space	n/a
32.261	0.015	64522	keystroke	m	n/a
32.396	0.06	64792	keystroke	o	n/a
32.561	0.06	65122	keystroke	s	n/a
32.711	0.06	65422	keystroke	s	n/a
32.786	0.0895	65572	keystroke	Key.space	n/a
32.8905	0.045	65781	keystroke	g	n/a
33.0555	0.06	66111	keystroke	r	n/a
33.1755	0.06	66351	keystroke	o	n/a
33.3405	0.045	66681	keystroke	u	n/a
33.5055	0.06	67011	keystroke	n	n/a
33.6105	0.06	67221	keystroke	d	n/a
33.8355	0.075	67671	keystroke	Key.enter	n/a
33.918	5.2895	67836	prompt	n/a	found asks podcast physicians\n
34.5255	0.105	69051	keystroke	f	n/a
34.6155	0.075	69231	keystroke	o	n/a
34.6605	0.06	69321	keystroke	u	n/a
34.8565	0.044	69713	keystroke	n	n/a
34.8855	0.091	69771	keystroke	d	n/a
34.9905	0.105	69981	keystroke	Key.space	n/a
35.0815	0.089	70163	keystroke	a	n/a
35.2755	0.075	70551	keystroke	s	n/a
35.4405	0.09	70881	keystroke	k	n/a
35.786	0.075	71572	keystroke	s	n/a
35.891	0.09	71782	keystroke	Key.space	n/a
36.086	0.075	72172	keystroke	p	n/a
36.251	0.06	72502	keystroke	o	n/a
36.356	0.015	72712	keystroke	d	n/a
36.551	0.12	73102	keystroke	c	n/a
36.641	0.12	73282	keystroke	a	n/a
36.911	0.03	73822	keystroke	s	n/a
37.1065	0.104	74213	keystroke	t	n/a
37.2255	0.09	74451	keystroke	Key.space	n/a
37.3305	0.046	74661	keystroke	p	n/a
37.5715	0.059	75143	keystroke	h	n/a
37.7505	0.06	75501	keystroke	y	n/a
38.0055	0.091	76011	keystroke	s	n/a
38.4255	0.0755	76851	keystroke	i	n/a
38.576	0.09	77152	keystroke	c	n/a
38.651	0.075	77302	keystroke	i	n/a
38.756	0.09	77512	keystroke	a	n/a
38.861	0.06	77722	keystroke	n	n/a
38.966	0.09	77932	keystroke	s	n/a
39.131	0.075	78262	keystroke	Key.enter	n/a
39.2125	5.185	78425	prompt	n/a	cross concord impact dynamics\n
39.8205	0.075	79641	keystroke	c	n/a
40.0305	0.06	80061	keystroke	r	n/a
40.1205	0.06	80241	keystroke	o	n/a
40.3305	0.06	80661	keystroke	s	n/a
40.4805	0.075	80961	keystroke	s	n/a
40.6455	0.075	81291	keystroke	Key.space	n/a
40.7805	0.09	81561	keystroke	c	n/a
40.8555	0.045	81711	keystroke	o	n/a
40.9905	0.06	81981	keystroke	n	n/a
41.0805	0.045	82161	keystroke	c	n/a
41.1855	0.075	82371	keystroke	o	n/a
41.3205	0.06	82641	keystroke	r	n/a
41.5155	0.045	83031	keystroke	d	n/a
41.6055	0.09	83211	keystroke	Key.space	n/a
41.9205	0.06	83841	keystroke	i	n/a
42.1615	0.059	84323	keystroke	m	n/a
42.4305	0.075	84861	keystroke	p	n/a
42.6115	0.134	85223	keystroke	a	n/a
42.6555	0.105	85311	keystroke	c	n/a
42.9105	0.045	85821	keystroke	t	n/a
42.9705	0.105	85941	keystroke	Key.space	n/a
43.1355	0.09	86271	keystroke	d	n/a
43.1955	0.105	86391	keystroke	y	n/a
43.4355	0.045	86871	keystroke	n	n/a
43.6455	0.09	87291	keystroke	a	n/a
43.7205	0.06	87441	keystroke	m	n/a
43.9155	0.075	87831	keystroke	i	n/a
44.0205	0.1205	88041	keystroke	c	n/a
44.1255	0.106	88251	keystroke	s	n/a
44.3215	0.075	88643	keystroke	Key.enter	n/a
44.4005	4.947	88801	prompt	n/a	initial peers intent break\n
45.116	0.06	90232	keystroke	i	n/a
45.281	0.075	90562	keystroke	n	n/a
45.461	0.075	90922	keystroke	i	n/a
45.537	0.104	91074	keystroke	t	n/a
45.611	0.09	91222	keystroke	i	n/a
45.761	0.075	91522	keystroke	a	n/a
45.881	0.1055	91762	keystroke	l	n/a
45.9565	0.105	91913	keystroke	Key.space	n/a
46.2115	0.09	92423	keystroke	p	n/a
46.2565	0.06	92513	keystroke	e	n/a
46.4215	0.06	92843	keystroke	e	n/a
46.4965	0.09	92993	keystroke	r	n/a
46.7215	0.075	93443	keystroke	s	n/a
46.8115	0.0895	93623	keystroke	Key.space	n/a
47.096	0.06	94192	keystroke	i	n/a
47.321	0.015	94642	keystroke	n	n/a
47.471	0.045	94942	keystroke	e	n/a
47.861	0.09	95722	keystroke	Key.backspace	n/a
48.086	0.03	96172	keystroke	t	n/a
48.221	0.06	96442	keystroke	e	n/a
48.296	0.075	96592	keystroke	n	n/a
48.386	0.075	96772	keystroke	t	n/a
48.446	0.09	96892	keystroke	Key.space	n/a
48.596	0.06	97192	keystroke	b	n/a
48.686	0.105	97372	keystroke	r	n/a
48.776	0.1205	97552	keystroke	e	n/a
48.8515	0.135	97703	keystroke	a	n/a
48.9715	0.075	97943	keystroke	k	n/a
49.2865	0.06	98573	keystroke	Key.enter	n/a
49.351	4.3165	98702	prompt	n/a	bronze midnight peas horizon\n
50.0815	0.059	100163	keystroke	b	n/a
50.2015	0.075	100403	keystroke	r	n/a
50.3215	0.045	100643	keystroke	o	n/a
50.4415	0.074	100883	keystroke	n	n/a
50.5315	0.059	101063	keystroke	z	n/a
50.7115	0.075	101423	keystroke	e	n/a
50.8005	0.0905	101601	keystroke	Key.space	n/a
50.876	0.075	101752	keystroke	m	n/a
51.056	0.06	102112	keystroke	i	n/a
51.131	0.045	102262	keystroke	d	n/a
51.266	0.06	102532	keystroke	n	n/a
51.431	0.06	102862	keystroke	i	n/a
51.5055	0.075	103011	keystroke	g	n/a
51.5955	0.075	103191	keystroke	h	n/a
51.6855	0.105	103371	keystroke	t	n/a
51.7755	0.12	103551	keystroke	Key.space	n/a
51.8355	0.12	103671	keystroke	p	n/a
51.9405	0.105	103881	keystroke	e	n/a
52.0155	0.105	104031	keystroke	a	n/a
52.4805	0.075	104961	keystroke	s	n/a
52.5855	0.09	105171	keystroke	Key.space	n/a
52.7205	0.09	105441	keystroke	h	n/a
52.7955	0.106	105591	keystroke	o	n/a
52.9015	0.09	105803	keystroke	r	n/a
53.0065	0.0595	106013	keystroke	i	n/a
53.126	0.105	106252	keystroke	z	n/a
53.216	0.075	106432	keystroke	o	n/a
53.396	0.075	106792	keystroke	n	n/a
53.576	0.09	107152	keystroke	Key.enter	n/a
53.6705	7.108	107341	prompt	n/a	ralph specially before disciplines\n
54.356	0.09	108712	keystroke	r	n/a
54.416	0.105	108832	keystroke	a	n/a
54.536	0.015	109072	keystroke	l	n/a
55.0165	0.09	110033	keystroke	p	n/a
55.3615	0.105	110723	keystroke	h	n/a
55.5405	0.105	111081	keystroke	Key.space	n/a
55.8255	0.06	111651	keystroke	p	n/a
56.306	0.09	112612	keystroke	Key.backspace	n/a
56.621	0.105	113242	keystroke	s	n/a
56.756	0.1195	113512	keystroke	p	n/a
56.9055	0.075	113811	keystroke	e	n/a
57.116	0.09	114232	keystroke	c	n/a
57.206	0.075	114412	keystroke	i	n/a
57.356	0.1055	114712	keystroke	a	n/a
57.5215	0.045	115043	keystroke	l	n/a
57.6115	0.09	115223	keystroke	l	n/a
57.8965	0.075	115793	keystroke	y	n/a
57.9565	0.0745	115913	keystroke	Key.space	n/a
58.121	0.075	116242	keystroke	b	n/a
58.241	0.15	116482	keystroke	e	n/a
58.346	0.09	116692	keystroke	f	n/a
58.466	0.09	116932	keystroke	o	n/a
58.616	0.09	117232	keystroke	r	n/a
58.661	0.09	117322	keystroke	e	n/a
58.781	0.105	117562	keystroke	Key.space	n/a
58.976	0.03	117952	keystroke	d	n/a
59.081	0.06	118162	keystroke	i	n/a
59.201	0.12	118402	keystroke	s	n/a
59.396	0.06	118792	keystroke	c	n/a
59.486	0.105	118972	keystroke	i	n/a
59.741	0.045	119482	keystroke	p	n/a
59.9215	0.0745	119843	keystroke	l	n/a
60.0715	0.0745	120143	keystroke	i	n/a
60.251	0.075	120502	keystroke	n	n/a
60.327	0.059	120654	keystroke	e	n/a
60.536	0.105	121072	keystroke	s	n/a
60.701	0.075	121402	keystroke	Key.enter	n/a
60.7815	5.471	121563	prompt	n/a	differently raising nevada titans\n
61.5265	0.03	123053	keystroke	d	n/a
61.6165	0.06	123233	keystroke	i	n/a
61.7215	0.075	123443	keystroke	f	n/a
61.8715	0.09	123743	keystroke	f	n/a
62.1115	0.075	124223	keystroke	e	n/a
62.1715	0.135	124343	keystroke	r	n/a
62.2765	0.12	124553	keystroke	e	n/a
62.3815	0.075	124763	keystroke	n	n/a
62.5165	0.075	125033	keystroke	t	n/a
62.6665	0.075	125333	keystroke	l	n/a
62.9365	0.075	125873	keystroke	y	n/a
63.1165	0.09	126233	keystroke	Key.space	n/a
63.2965	0.12	126593	keystroke	r	n/a
63.3715	0.09	126743	keystroke	a	n/a
63.4915	0.075	126983	keystroke	i	n/a
63.5965	0.105	127193	keystroke	s	n/a
63.6865	0.045	127373	keystroke	i	n/a
63.8665	0.06	127733	keystroke	n	n/a
63.9415	0.105	127883	keystroke	g	n/a
64.0615	0.105	128123	keystroke	Key.space	n/a
64.2265	0.06	128453	keystroke	n	n/a
64.3015	0.06	128603	keystroke	e	n/a
64.4965	0.12	128993	keystroke	v	n/a
64.7215	0.09	129443	keystroke	a	n/a
64.931	0.09	129862	keystroke	d	n/a
65.141	0.0755	130282	keystroke	a	n/a
65.2755	0.09	130551	keystroke	Key.space	n/a
65.3805	0.06	130761	keystroke	t	n/a
65.4705	0.091	130941	keystroke	i	n/a
65.5905	0.09	131181	keystroke	t	n/a
65.7105	0.12	131421	keystroke	a	n/a
65.8315	0.089	131663	keystroke	n	n/a
65.9805	0.075	131961	keystroke	s	n/a
66.1605	0.09	132321	keystroke	Key.enter	n/a
66.2555	5.982	132511	prompt	n/a	charms starts vegetable strongly\n
67.1205	0.015	134241	keystroke	c	n/a
67.1965	0.074	134393	keystroke	h	n/a
67.3155	0.135	134631	keystroke	a	n/a
67.3755	0.15	134751	keystroke	r	n/a
67.5405	0.03	135081	keystroke	m	n/a
67.6155	0.075	135231	keystroke	s	n/a
67.7205	0.135	135441	keystroke	Key.space	n/a
67.8255	0.12	135651	keystroke	s	n/a
68.0665	0.104	136133	keystroke	t	n/a
68.2455	0.12	136491	keystroke	a	n/a
68.3205	0.091	136641	keystroke	r	n/a
68.5305	0.045	137061	keystroke	t	n/a
68.7105	0.06	137421	keystroke	s	n/a
68.8155	0.075	137631	keystroke	Key.space	n/a
69.0265	0.09	138053	keystroke	v	n/a
69.0865	0.105	138173	keystroke	e	n/a
69.3115	0.075	138623	keystroke	g	n/a
69.3715	0.09	138743	keystroke	e	n/a
69.5665	0.09	139133	keystroke	t	n/a
69.6415	0.104	139283	keystroke	a	n/a
69.7905	0.061	139581	keystroke	b	n/a
69.9565	0.075	139913	keystroke	l	n/a
70.0455	0.06	140091	keystroke	e	n/a
70.1505	0.106	140301	keystroke	Key.space	n/a
70.2565	0.029	140513	keystroke	s	n/a
70.4065	0.06	140813	keystroke	t	n/a
70.5715	0.075	141143	keystroke	r	n/a
70.7515	0.045	141503	keystroke	n	n/a
71.186	0.09	142372	keystroke	Key.backspace	n/a
71.471	0.06	142942	keystroke	o	n/a
71.681	0.015	143362	keystroke	n	n/a
71.711	0.075	143422	keystroke	g	n/a
71.831	0.105	143662	keystroke	l	n/a
71.951	0.09	143902	keystroke	y	n/a
72.161	0.075	144322	keystroke	Key.enter	n/a
72.2405	5.697	144481	prompt	n/a	german video hoped mobility\n
72.9265	0.06	145853	keystroke	g	n/a
73.1365	0.09	146273	keystroke	e	n/a
73.1815	0.075	146363	keystroke	r	n/a
73.3465	0.09	146693	keystroke	m	n/a
73.4815	0.075	146963	keystroke	a	n/a
73.5865	0.105	147173	keystroke	n	n/a
73.6765	0.12	147353	keystroke	Key.space	n/a
73.8565	0.015	147713	keystroke	v	n/a
74.0065	0.075	148013	keystroke	i	n/a
74.5465	0.06	149093	keystroke	d	n/a
74.7265	0.074	149453	keystroke	e	n/a
74.7865	0.0895	149573	keystroke	o	n/a
74.831	0.09	149662	keystroke	Key.space	n/a
74.9815	0.0595	149963	keystroke	h	n/a
75.2055	0.15	150411	keystroke	o	n/a
75.2805	0.121	150561	keystroke	p	n/a
75.3705	0.075	150741	keystroke	e	n/a
75.5505	0.075	151101	keystroke	d	n/a
75.6705	0.09	151341	keystroke	Key.space	n/a
75.836	0.09	151672	keystroke	m	n/a
76.061	0.075	152122	keystroke	o	n/a
76.316	0.0595	152632	keystroke	b	n/a
76.5265	0.074	153053	keystroke	i	n/a
76.7505	0.075	153501	keystroke	l	n/a
76.9305	0.105	153861	keystroke	i	n/a
77.1265	0.06	154253	keystroke	t	n/a
77.3515	0.06	154703	keystroke	y	n/a
77.8455	0.0905	155691	keystroke	Key.enter	n/a
77.9405	5.8475	155881	prompt	n/a	because informational executive line\n
78.566	0.06	157132	keystroke	b	n/a
78.641	0.045	157282	keystroke	e	n/a
78.7915	0.1195	157583	keystroke	c	n/a
78.851	0.105	157702	keystroke	a	n/a
78.926	0.06	157852	keystroke	u	n/a
79.061	0.06	158122	keystroke	s	n/a
79.2415	0.0595	158483	keystroke	e	n/a
79.331	0.12	158662	keystroke	Key.space	n/a
79.406	0.06	158812	keystroke	i	n/a
79.571	0.045	159142	keystroke	n	n/a
79.646	0.06	159292	keystroke	f	n/a
79.7215	0.09	159443	keystroke	o	n/a
79.8415	0.105	159683	keystroke	r	n/a
79.9615	0.03	159923	keystroke	m	n/a
80.0965	0.105	160193	keystroke	a	n/a
80.1565	0.09	160313	keystroke	t	n/a
80.2615	0.12	160523	keystroke	i	n/a
80.3065	0.106	160613	keystroke	o	n/a
80.5165	0.075	161033	keystroke	n	n/a
80.6515	0.105	161303	keystroke	a	n/a
80.7415	0.105	161483	keystroke	l	n/a
80.8315	0.1045	161663	keystroke	Key.space	n/a
80.951	0.06	161902	keystroke	e	n/a
81.266	0.0745	162532	keystroke	x	n/a
81.491	0.09	162982	keystroke	e	n/a
81.761	0.09	163522	keystroke	c	n/a
82.211	0.075	164422	keystroke	u	n/a
82.346	0.0905	164692	keystroke	t	n/a
82.4665	0.09	164933	keystroke	i	n/a
82.6465	0.075	165293	keystroke	v	n/a
82.6915	0.105	165383	keystroke	e	n/a
82.7965	0.09	165593	keystroke	Key.space	n/a
82.9465	0.06	165893	keystroke	l	n/a
83.1265	0.06	166253	keystroke	i	n/a
83.306	0.075	166612	keystroke	n	n/a
83.426	0.09	166852	keystroke	e	n/a
83.696	0.09	167392	keystroke	Key.enter	n/a
83.7915	4.0465	167583	prompt	n/a	harley real clothes discounts\n
84.431	0.105	168862	keystroke	h	n/a
84.551	0.09	169102	keystroke	a	n/a
84.596	0.1205	169192	keystroke	r	n/a
84.731	0.0605	169462	keystroke	l	n/a
84.8065	0.09	169613	keystroke	e	n/a
84.9715	0.075	169943	keystroke	y	n/a
85.0165	0.105	170033	keystroke	Key.space	n/a
85.1515	0.135	170303	keystroke	r	n/a
85.2415	0.15	170483	keystroke	e	n/a
85.4065	0.15	170813	keystroke	a	n/a
85.5265	0.105	171053	keystroke	l	n/a
85.5865	0.105	171173	keystroke	Key.space	n/a
85.7515	0.09	171503	keystroke	c	n/a
85.8415	0.06	171683	keystroke	l	n/a
85.9915	0.0745	171983	keystroke	o	n/a
86.081	0.075	172162	keystroke	t	n/a
86.186	0.075	172372	keystroke	h	n/a
86.246	0.075	172492	keystroke	e	n/a
86.426	0.075	172852	keystroke	s	n/a
86.516	0.09	173032	keystroke	Key.space	n/a
86.591	0.075	173182	keystroke	d	n/a
86.681	0.075	173362	keystroke	i	n/a
86.831	0.1355	173662	keystroke	s	n/a
86.9215	0.135	173843	keystroke	c	n/a
87.0715	0.12	174143	keystroke	o	n/a
87.1315	0.075	174263	keystroke	u	n/a
87.3265	0.06	174653	keystroke	n	n/a
87.4015	0.09	174803	keystroke	t	n/a
87.6265	0.09	175253	keystroke	s	n/a
87.7465	0.09	175493	keystroke	Key.enter	n/a
87.8415	5.036	175683	prompt	n/a	blame scotia sunglasses chose\n
88.496	0.045	176992	keystroke	b	n/a
88.691	0.06	177382	keystroke	l	n/a
88.766	0.075	177532	keystroke	a	n/a
88.856	0.045	177712	keystroke	m	n/a
88.916	0.045	177832	keystroke	e	n/a
89.021	0.09	178042	keystroke	Key.space	n/a
89.126	0.06	178252	keystroke	s	n/a
89.5315	0.0445	179063	keystroke	c	n/a
89.621	0.045	179242	keystroke	o	n/a
89.996	0.09	179992	keystroke	t	n/a
90.101	0.0755	180202	keystroke	i	n/a
90.1915	0.09	180383	keystroke	a	n/a
90.3255	0.045	180651	keystroke	Key.space	n/a
90.4915	0.074	180983	keystroke	s	n/a
90.5665	0.074	181133	keystroke	u	n/a
90.7755	0.061	181551	keystroke	n	n/a
90.851	0.09	181702	keystroke	g	n/a
90.971	0.075	181942	keystroke	l	n/a
91.106	0.075	182212	keystroke	a	n/a
91.316	0.045	182632	keystroke	s	n/a
91.436	0.0745	182872	keystroke	s	n/a
91.6165	0.044	183233	keystroke	e	n/a
91.7805	0.075	183561	keystroke	s	n/a
91.901	0.06	183802	keystroke	Key.space	n/a
92.006	0.06	184012	keystroke	c	n/a
92.126	0.0445	184252	keystroke	h	n/a
92.157	0.1795	184314	keystroke	o	n/a
92.3505	0.076	184701	keystroke	s	n/a
92.5305	0.0605	185061	keystroke	e	n/a
92.7855	0.091	185571	keystroke	Key.enter	n/a
92.8805	4.5875	185761	prompt	n/a	ricky belle outreach combine\n
93.5065	0.06	187013	keystroke	r	n/a
93.5965	0.09	187193	keystroke	i	n/a
93.7465	0.075	187493	keystroke	c	n/a
93.8365	0.045	187673	keystroke	k	n/a
94.0465	0.09	188093	keystroke	y	n/a
94.1215	0.075	188243	keystroke	Key.space	n/a
94.2865	0.075	188573	keystroke	b	n/a
94.3915	0.06	188783	keystroke	e	n/a
94.5265	0.045	189053	keystroke	l	n/a
94.6465	0.06	189293	keystroke	l	n/a
94.8115	0.045	189623	keystroke	e	n/a
94.9155	0.105	189831	keystroke	Key.space	n/a
95.1565	0.119	190313	keystroke	o	n/a
95.2165	0.089	190433	keystroke	u	n/a
95.3215	0.059	190643	keystroke	t	n/a
95.861	0.15	191722	keystroke	r	n/a
95.966	0.135	191932	keystroke	e	n/a
96.146	0.135	192292	keystroke	a	n/a
96.267	0.104	192534	keystroke	c	n/a
96.386	0.105	192772	keystroke	h	n/a
96.431	0.105	192862	keystroke	Key.space	n/a
96.581	0.075	193162	keystroke	c	n/a
96.701	0.031	193402	keystroke	o	n/a
96.836	0.075	193672	keystroke	m	n/a
96.941	0.09	193882	keystroke	b	n/a
97.046	0.045	194092	keystroke	i	n/a
97.166	0.105	194332	keystroke	n	n/a
97.256	0.09	194512	keystroke	e	n/a
97.391	0.075	194782	keystroke	Key.enter	n/a
97.471	6.012	194942	prompt	n/a	spanking luck mozambique mariah\n
98.2315	0.105	196463	keystroke	s	n/a
98.3215	0.09	196643	keystroke	p	n/a
98.4565	0.105	196913	keystroke	a	n/a
98.5765	0.06	197153	keystroke	n	n/a
98.7565	0.06	197513	keystroke	k	n/a
98.891	0.06	197782	keystroke	i	n/a
99.056	0.06	198112	keystroke	n	n/a
99.117	0.074	198234	keystroke	g	n/a
99.206	0.12	198412	keystroke	Key.space	n/a
99.296	0.075	198592	keystroke	l	n/a
99.536	0.015	199072	keystroke	u	n/a
99.626	0.0755	199252	keystroke	c	n/a
99.8205	0.091	199641	keystroke	k	n/a
99.8815	0.135	199763	keystroke	Key.space	n/a
100.2115	0.06	200423	keystroke	m	n/a
100.4515	0.06	200903	keystroke	o	n/a
100.5715	0.09	201143	keystroke	z	n/a
100.8265	0.0745	201653	keystroke	a	n/a
100.916	0.06	201832	keystroke	m	n/a
101.141	0.045	202282	keystroke	b	n/a
101.321	0.06	202642	keystroke	i	n/a
101.456	0.06	202912	keystroke	q	n/a
101.681	0.075	203362	keystroke	u	n/a
101.816	0.1055	203632	keystroke	e	n/a
102.2955	0.091	204591	keystroke	Key.space	n/a
102.4765	0.075	204953	keystroke	m	n/a
102.5965	0.12	205193	keystroke	a	n/a
102.6565	0.105	205313	keystroke	r	n/a
102.7465	0.09	205493	keystroke	i	n/a
102.881	0.06	205762	keystroke	a	n/a
102.911	0.105	205822	keystroke	h	n/a
103.451	0.03	206902	keystroke	Key.enter	n/a
103.488	5.4395	206976	prompt	n/a	legitimate earned travels assault\n
104.1865	0.1045	208373	keystroke	l	n/a
104.2465	0.0745	208493	keystroke	e	n/a
104.441	0.06	208882	keystroke	g	n/a
104.516	0.09	209032	keystroke	i	n/a
104.651	0.09	209302	keystroke	t	n/a
104.711	0.045	209422	keystroke	i	n/a
104.891	0.06	209782	keystroke	m	n/a
104.996	0.1205	209992	keystroke	a	n/a
105.1315	0.105	210263	keystroke	t	n/a
105.2065	0.09	210413	keystroke	e	n/a
105.3415	0.105	210683	keystroke	Key.space	n/a
105.5515	0.105	211103	keystroke	e	n/a
105.6415	0.105	211283	keystroke	a	n/a
105.7615	0.105	211523	keystroke	r	n/a
105.8515	0.06	211703	keystroke	n	n/a
105.9415	0.075	211883	keystroke	e	n/a
106.1365	0.075	212273	keystroke	d	n/a
106.2265	0.09	212453	keystroke	Key.space	n/a
106.3465	0.09	212693	keystroke	t	n/a
106.5265	0.15	213053	keystroke	r	n/a
106.6015	0.09	213203	keystroke	a	n/a
106.886	0.06	213772	keystroke	v	n/a
106.916	0.075	213832	keystroke	e	n/a
107.036	0.075	214072	keystroke	l	n/a
107.141	0.075	214282	keystroke	s	n/a
107.276	0.09	214552	keystroke	Key.space	n/a
107.412	0.059	214824	keystroke	a	n/a
107.576	0.075	215152	keystroke	s	n/a
107.696	0.09	215392	keystroke	s	n/a
108.161	0.09	216322	keystroke	a	n/a
108.281	0.06	216562	keystroke	u	n/a
108.476	0.06	216952	keystroke	l	n/a
108.581	0.06	217162	keystroke	t	n/a
108.8665	0.06	217733	keystroke	Key.enter	n/a
108.9305	5.892	217861	prompt	n/a	generating focuses office favorite\n
109.5715	0.06	219143	keystroke	g	n/a
109.7065	0.089	219413	keystroke	e	n/a
109.8115	0.059	219623	keystroke	n	n/a
109.9615	0.135	219923	keystroke	r	n/a
110.621	0.06	221242	keystroke	Key.backspace	n/a
110.786	0.1355	221572	keystroke	e	n/a
110.9065	0.105	221813	keystroke	r	n/a
111.1015	0.09	222203	keystroke	a	n/a
111.2065	0.075	222413	keystroke	t	n/a
111.3115	0.045	222623	keystroke	i	n/a
111.4765	0.045	222953	keystroke	n	n/a
111.5065	0.09	223013	keystroke	g	n/a
111.6415	0.12	223283	keystroke	Key.space	n/a
111.7765	0.045	223553	keystroke	f	n/a
112.166	0.075	224332	keystroke	o	n/a
112.331	0.075	224662	keystroke	c	n/a
112.481	0.06	224962	keystroke	u	n/a
112.556	0.075	225112	keystroke	s	n/a
112.751	0.06	225502	keystroke	e	n/a
112.9465	0.075	225893	keystroke	s	n/a
113.0665	0.105	226133	keystroke	Key.space	n/a
113.1565	0.075	226313	keystroke	o	n/a
113.2165	0.06	226433	keystroke	f	n/a
113.3515	0.075	226703	keystroke	f	n/a
113.4565	0.075	226913	keystroke	i	n/a
113.5915	0.135	227183	keystroke	c	n/a
113.6815	0.075	227363	keystroke	e	n/a
113.7865	0.12	227573	keystroke	Key.space	n/a
113.8765	0.105	227753	keystroke	f	n/a
113.9515	0.105	227903	keystroke	a	n/a
114.1315	0.09	228263	keystroke	v	n/a
114.2365	0.045	228473	keystroke	o	n/a
114.3115	0.075	228623	keystroke	r	n/a
114.4165	0.105	228833	keystroke	i	n/a
114.4765	0.06	228953	keystroke	t	n/a
114.6115	0.09	229223	keystroke	e	n/a
114.7465	0.075	229493	keystroke	Key.enter	n/a
114.8255	6.522	229651	prompt	n/a	entry updates elections arnold\n
115.4815	0.09	230963	keystroke	e	n/a
115.5865	0.075	231173	keystroke	n	n/a
115.6765	0.074	231353	keystroke	r	n/a
115.8715	0.075	231743	keystroke	t	n/a
116.516	0.06	233032	keystroke	Key.backspace	n/a
116.906	0.03	233812	keystroke	Key.backspace	n/a
117.101	0.075	234202	keystroke	t	n/a
117.296	0.075	234592	keystroke	r	n/a
117.386	0.1055	234772	keystroke	y	n/a
117.4455	0.075	234891	keystroke	Key.space	n/a
117.6105	0.061	235221	keystroke	u	n/a
117.7615	0.09	235523	keystroke	p	n/a
117.8355	0.075	235671	keystroke	d	n/a
118.0465	0.105	236093	keystroke	a	n/a
118.2105	0.06	236421	keystroke	t	n/a
118.3465	0.045	236693	keystroke	e	n/a
118.5715	0.06	237143	keystroke	s	n/a
118.6615	0.0895	237323	keystroke	Key.space	n/a
118.8715	0.06	237743	keystroke	e	n/a
118.9915	0.06	237983	keystroke	l	n/a
119.0965	0.09	238193	keystroke	e	n/a
119.2915	0.0745	238583	keystroke	c	n/a
119.531	0.09	239062	keystroke	t	n/a
119.681	0.12	239362	keystroke	i	n/a
119.756	0.09	239512	keystroke	o	n/a
120.026	0.075	240052	keystroke	n	n/a
120.2055	0.06	240411	keystroke	s	n/a
120.2805	0.105	240561	keystroke	Key.space	n/a
120.4455	0.075	240891	keystroke	a	n/a
120.5355	0.091	241071	keystroke	r	n/a
120.6565	0.075	241313	keystroke	n	n/a
120.8355	0.06	241671	keystroke	o	n/a
120.9855	0.09	241971	keystroke	l	n/a
121.0605	0.061	242121	keystroke	d	n/a
121.2855	0.06	242571	keystroke	Key.enter	n/a
121.351	4.287	242702	prompt	n/a	it's mold enters aimed\n
122.0055	0.075	244011	keystroke	i	n/a
122.1105	0.106	244221	keystroke	t	n/a
122.3365	0.089	244673	keystroke	'	n/a
122.4565	0.059	244913	keystroke	s	n/a
122.5305	0.106	245061	keystroke	Key.space	n/a
122.6965	0.075	245393	keystroke	m	n/a
122.8915	0.075	245783	keystroke	o	n/a
123.0405	0.06	246081	keystroke	l	n/a
123.1155	0.105	246231	keystroke	d	n/a
123.2355	0.091	246471	keystroke	Key.space	n/a
123.5965	0.06	247193	keystroke	e	n/a
123.7015	0.06	247403	keystroke	n	n/a
123.7625	0.074	247525	keystroke	t	n/a
123.9115	0.105	247823	keystroke	e	n/a
124.0015	0.075	248003	keystroke	r	n/a
124.6915	0.075	249383	keystroke	s	n/a
124.8115	0.075	249623	keystroke	Key.space	n/a
124.9015	0.105	249803	keystroke	a	n/a
124.9915	0.06	249983	keystroke	i	n/a
125.1715	0.06	250343	keystroke	m	n/a
125.2465	0.045	250493	keystroke	e	n/a
125.3815	0.105	250763	keystroke	d	n/a
125.5615	0.075	251123	keystroke	Key.enter	n/a
125.641	6.1915	251282	prompt	n/a	kent killing hour transformation\n
126.2815	0.06	252563	keystroke	k	n/a
126.3565	0.105	252713	keystroke	e	n/a
126.4465	0.06	252893	keystroke	n	n/a
126.552	0.0895	253104	keystroke	t	n/a
126.6115	0.134	253223	keystroke	Key.space	n/a
126.7315	0.059	253463	keystroke	k	n/a
126.8515	0.075	253703	keystroke	i	n/a
127.241	0.045	254482	keystroke	n	n/a
127.841	0.06	255682	keystroke	Key.backspace	n/a
128.142	0.059	256284	keystroke	l	n/a
128.261	0.09	256522	keystroke	l	n/a
128.472	0.059	256944	keystroke	i	n/a
128.651	0.06	257302	keystroke	n	n/a
128.771	0.09	257542	keystroke	g	n/a
128.876	0.09	257752	keystroke	Key.space	n/a
128.996	0.09	257992	keystroke	h	n/a
129.191	0.105	258382	keystroke	o	n/a
129.221	0.1055	258442	keystroke	u	n/a
129.386	0.09	258772	keystroke	r	n/a
129.521	0.105	259042	keystroke	Key.space	n/a
129.7015	0.075	259403	keystroke	t	n/a
129.9565	0.135	259913	keystroke	r	n/a
130.0465	0.105	260093	keystroke	a	n/a
130.1805	0.075	260361	keystroke	n	n/a
130.3165	0.075	260633	keystroke	s	n/a
130.5405	0.106	261081	keystroke	f	n/a
130.6615	0.045	261323	keystroke	o	n/a
130.7665	0.09	261533	keystroke	r	n/a
130.8865	0.045	261773	keystroke	m	n/a
131.0815	0.1045	262163	keystroke	a	n/a
131.1415	0.104	262283	keystroke	t	n/a
131.2615	0.1045	262523	keystroke	i	n/a
131.3215	0.09	262643	keystroke	o	n/a
131.5315	0.09	263063	keystroke	n	n/a
131.7555	0.075	263511	keystroke	Key.enter	n/a
131.8355	5.5625	263671	prompt	n/a	reception popular premiere sporting\n
132.551	0.105	265102	keystroke	r	n/a
132.626	0.105	265252	keystroke	e	n/a
132.9115	0.09	265823	keystroke	c	n/a
132.9565	0.12	265913	keystroke	e	n/a
133.0315	0.09	266063	keystroke	p	n/a
133.2115	0.09	266423	keystroke	t	n/a
133.3315	0.105	266663	keystroke	i	n/a
133.3765	0.105	266753	keystroke	o	n/a
133.6165	0.105	267233	keystroke	n	n/a
133.7065	0.105	267413	keystroke	Key.space	n/a
133.9165	0.105	267833	keystroke	p	n/a
134.0065	0.195	268013	keystroke	o	n/a
134.1115	0.12	268223	keystroke	p	n/a
134.3665	0.03	268733	keystroke	u	n/a
134.6515	0.105	269303	keystroke	l	n/a
134.8165	0.0895	269633	keystroke	a	n/a
134.891	0.075	269782	keystroke	r	n/a
135.026	0.0905	270052	keystroke	Key.space	n/a
135.1915	0.075	270383	keystroke	p	n/a
135.2815	0.105	270563	keystroke	r	n/a
135.3715	0.09	270743	keystroke	e	n/a
135.4765	0.06	270953	keystroke	m	n/a
135.6715	0.075	271343	keystroke	i	n/a
135.7465	0.09	271493	keystroke	e	n/a
135.8215	0.15	271643	keystroke	r	n/a
135.9265	0.105	271853	keystroke	e	n/a
136.0915	0.105	272183	keystroke	Key.space	n/a
136.2565	0.06	272513	keystroke	s	n/a
136.3765	0.03	272753	keystroke	p	n/a
136.4215	0.1045	272843	keystroke	o	n/a
136.616	0.075	273232	keystroke	r	n/a
136.811	0.1055	273622	keystroke	t	n/a
136.8715	0.075	273743	keystroke	i	n/a
137.0665	0.09	274133	keystroke	n	n/a
137.1415	0.09	274283	keystroke	g	n/a
137.3065	0.09	274613	keystroke	Key.enter	n/a
137.4005	4.228	274801	prompt	n/a	forced broken disabled guard\n
138.0865	0.06	276173	keystroke	f	n/a
138.1765	0.06	276353	keystroke	o	n/a
138.2515	0.075	276503	keystroke	r	n/a
138.5065	0.12	277013	keystroke	c	n/a
138.5665	0.105	277133	keystroke	e	n/a
138.7765	0.06	277553	keystroke	d	n/a
138.8665	0.075	277733	keystroke	Key.space	n/a
139.0315	0.06	278063	keystroke	b	n/a
139.1215	0.09	278243	keystroke	r	n/a
139.2415	0.06	278483	keystroke	o	n/a
139.4365	0.075	278873	keystroke	k	n/a
139.5265	0.09	279053	keystroke	e	n/a
139.6465	0.06	279293	keystroke	n	n/a
139.7515	0.12	279503	keystroke	Key.space	n/a
139.9165	0.075	279833	keystroke	d	n/a
140.0215	0.06	280043	keystroke	i	n/a
140.1115	0.075	280223	keystroke	s	n/a
140.2765	0.105	280553	keystroke	a	n/a
140.3665	0.06	280733	keystroke	b	n/a
140.5315	0.0745	281063	keystroke	l	n/a
140.621	0.045	281242	keystroke	e	n/a
140.816	0.06	281632	keystroke	d	n/a
140.906	0.075	281812	keystroke	Key.space	n/a
141.0265	0.09	282053	keystroke	g	n/a
141.1015	0.075	282203	keystroke	u	n/a
141.2065	0.09	282413	keystroke	a	n/a
141.2665	0.075	282533	keystroke	r	n/a
141.4465	0.09	282893	keystroke	d	n/a
141.5515	0.075	283103	keystroke	Key.enter	n/a
141.6315	4.4215	283263	prompt	n/a	babe under affiliated bridge\n
142.2865	0.06	284573	keystroke	b	n/a
142.3615	0.09	284723	keystroke	a	n/a
142.4365	0.06	284873	keystroke	b	n/a
142.5115	0.06	285023	keystroke	e	n/a
142.6165	0.105	285233	keystroke	Key.space	n/a
142.8115	0.015	285623	keystroke	u	n/a
142.9765	0.045	285953	keystroke	n	n/a
143.0515	0.06	286103	keystroke	d	n/a
143.2465	0.0595	286493	keystroke	e	n/a
143.2765	0.1045	286553	keystroke	r	n/a
143.4265	0.105	286853	keystroke	Key.space	n/a
143.486	0.0905	286972	keystroke	a	n/a
143.6515	0.0595	287303	keystroke	f	n/a
143.771	0.09	287542	keystroke	f	n/a
143.876	0.09	287752	keystroke	i	n/a
144.101	0.06	288202	keystroke	l	n/a
144.2815	0.0445	288563	keystroke	i	n/a
144.3865	0.12	288773	keystroke	a	n/a
144.4915	0.105	288983	keystroke	t	n/a
144.6265	0.0445	289253	keystroke	e	n/a
144.851	0.105	289702	keystroke	d	n/a
144.986	0.0755	289972	keystroke	Key.space	n/a
145.1665	0.075	290333	keystroke	b	n/a
145.2715	0.075	290543	keystroke	r	n/a
145.3915	0.09	290783	keystroke	i	n/a
145.4965	0.06	290993	keystroke	d	n/a
145.6615	0.09	291323	keystroke	g	n/a
145.7215	0.105	291443	keystroke	e	n/a
145.9765	0.0745	291953	keystroke	Key.enter	n/a
146.0565	5.3065	292113	prompt	n/a	selected admit gary shut\n
146.697	0.06	293394	keystroke	s	n/a
146.832	0.0895	293664	keystroke	e	n/a
146.9365	0.06	293873	keystroke	l	n/a
147.0115	0.075	294023	keystroke	e	n/a
147.1765	0.075	294353	keystroke	c	n/a
147.371	0.076	294742	keystroke	t	n/a
147.477	0.075	294954	keystroke	e	n/a
147.656	0.075	295312	keystroke	d	n/a
147.776	0.075	295552	keystroke	Key.space	n/a
147.866	0.075	295732	keystroke	a	n/a
148.062	0.075	296124	keystroke	d	n/a
148.181	0.015	296362	keystroke	m	n/a
148.332	0.059	296664	keystroke	i	n/a
148.392	0.075	296784	keystroke	t	n/a
148.496	0.105	296992	keystroke	Key.space	n/a
148.586	0.105	297172	keystroke	g	n/a
148.8415	0.06	297683	keystroke	r	n/a
149.0065	0.06	298013	keystroke	y	n/a
149.0515	0.075	298103	keystroke	Key.space	n/a
149.7415	0.075	299483	keystroke	Key.backspace	n/a
149.9665	0.075	299933	keystroke	Key.backspace	n/a
150.146	0.09	300292	keystroke	Key.backspace	n/a
150.341	0.075	300682	keystroke	a	n/a
150.371	0.09	300742	keystroke	r	n/a
150.506	0.06	301012	keystroke	y	n/a
150.551	0.09	301102	keystroke	Key.space	n/a
150.716	0.075	301432	keystroke	s	n/a
150.776	0.06	301552	keystroke	h	n/a
150.9265	0.06	301853	keystroke	u	n/a
151.0165	0.09	302033	keystroke	t	n/a
151.3165	0.045	302633	keystroke	Key.enter	n/a
151.3655	6.4775	302731	prompt	n/a	disabled vinyl except theology\n
152.037	0.074	304074	keystroke	d	n/a
152.157	0.075	304314	keystroke	i	n/a
152.247	0.06	304494	keystroke	s	n/a
152.427	0.089	304854	keystroke	a	n/a
152.502	0.06	305004	keystroke	b	n/a
152.682	0.09	305364	keystroke	l	n/a
152.727	0.059	305454	keystroke	e	n/a
152.892	0.075	305784	keystroke	d	n/a
152.981	0.106	305962	keystroke	Key.space	n/a
153.612	0.044	307224	keystroke	v	n/a
153.686	0.06	307372	keystroke	i	n/a
153.926	0.075	307852	keystroke	n	n/a
154.3165	0.09	308633	keystroke	y	n/a
154.4515	0.075	308903	keystroke	l	n/a
154.646	0.09	309292	keystroke	Key.space	n/a
154.796	0.075	309592	keystroke	e	n/a
155.111	0.09	310222	keystroke	x	n/a
155.426	0.12	310852	keystroke	c	n/a
155.516	0.0905	311032	keystroke	e	n/a
155.6215	0.06	311243	keystroke	p	n/a
155.8765	0.06	311753	keystroke	t	n/a
156.1465	0.09	312293	keystroke	Key.space	n/a
156.4165	0.09	312833	keystroke	t	n/a
156.6115	0.075	313223	keystroke	h	n/a
156.7915	0.06	313583	keystroke	e	n/a
156.9265	0.075	313853	keystroke	o	n/a
157.1365	0.06	314273	keystroke	l	n/a
157.302	0.059	314604	keystroke	o	n/a
157.392	0.074	314784	keystroke	g	n/a
157.527	0.089	315054	keystroke	y	n/a
157.736	0.105	315472	keystroke	Key.enter	n/a
157.846	6.507	315692	prompt	n/a	manchester fever bible beaver\n
158.622	0.074	317244	keystroke	a	n/a
159.1915	0.075	318383	keystroke	Key.backspace	n/a
159.5215	0.075	319043	keystroke	m	n/a
159.6265	0.075	319253	keystroke	a	n/a
159.7315	0.09	319463	keystroke	n	n/a
159.8665	0.09	319733	keystroke	c	n/a
159.9715	0.075	319943	keystroke	h	n/a
160.0765	0.045	320153	keystroke	e	n/a
160.2565	0.075	320513	keystroke	s	n/a
160.4665	0.075	320933	keystroke	t	n/a
160.6315	0.105	321263	keystroke	e	n/a
160.7215	0.06	321443	keystroke	r	n/a
160.8115	0.12	321623	keystroke	Key.space	n/a
160.9765	0.105	321953	keystroke	f	n/a
161.1715	0.075	322343	keystroke	e	n/a
161.3965	0.045	322793	keystroke	v	n/a
162.056	0.09	324112	keystroke	e	n/a
162.117	0.089	324234	keystroke	r	n/a
162.2515	0.06	324503	keystroke	Key.space	n/a
162.476	0.061	324952	keystroke	b	n/a
162.656	0.06	325312	keystroke	i	n/a
162.776	0.09	325552	keystroke	b	n/a
162.972	0.074	325944	keystroke	l	n/a
163.076	0.076	326152	keystroke	e	n/a
163.181	0.0755	326362	keystroke	Key.space	n/a
163.3465	0.09	326693	keystroke	b	n/a
163.4365	0.075	326873	keystroke	e	n/a
163.4965	0.09	326993	keystroke	a	n/a
163.752	0.089	327504	keystroke	v	n/a
163.991	0.09	327982	keystroke	e	n/a
164.066	0.075	328132	keystroke	r	n/a
164.246	0.105	328492	keystroke	Key.enter	n/a
164.358	5.38	328716	prompt	n/a	velvet steven member healing\n
165.191	0.06	330382	keystroke	v	n/a
165.236	0.06	330472	keystroke	e	n/a
165.281	0.105	330562	keystroke	l	n/a
166.166	0.0605	332332	keystroke	v	n/a
166.4065	0.06	332813	keystroke	e	n/a
166.5715	0.09	333143	keystroke	t	n/a
166.7215	0.09	333443	keystroke	Key.space	n/a
166.7965	0.0745	333593	keystroke	s	n/a
167.006	0.0755	334012	keystroke	t	n/a
167.1715	0.09	334343	keystroke	e	n/a
167.3965	0.075	334793	keystroke	v	n/a
167.4265	0.12	334853	keystroke	e	n/a
167.5475	0.074	335095	keystroke	n	n/a
167.6065	0.09	335213	keystroke	Key.space	n/a
167.847	0.06	335694	keystroke	m	n/a
167.952	0.075	335904	keystroke	e	n/a
168.057	0.06	336114	keystroke	m	n/a
168.252	0.06	336504	keystroke	b	n/a
168.372	0.105	336744	keystroke	e	n/a
168.462	0.09	336924	keystroke	r	n/a
168.567	0.09	337134	keystroke	Key.space	n/a
168.672	0.06	337344	keystroke	h	n/a
168.777	0.0895	337554	keystroke	e	n/a
168.822	0.1045	337644	keystroke	a	n/a
168.9865	0.0755	337973	keystroke	l	n/a
169.196	0.075	338392	keystroke	i	n/a
169.391	0.06	338782	keystroke	n	n/a
169.481	0.09	338962	keystroke	g	n/a
169.646	0.0905	339292	keystroke	Key.enter	n/a
169.741	5.067	339482	prompt	n/a	hang plane paintings achieve\n
170.336	0.06	340672	keystroke	h	n/a
170.426	0.105	340852	keystroke	a	n/a
170.532	0.09	341064	keystroke	n	n/a
170.637	0.09	341274	keystroke	g	n/a
170.712	0.105	341424	keystroke	Key.space	n/a
170.802	0.075	341604	keystroke	p	n/a
170.952	0.089	341904	keystroke	l	n/a
171.056	0.091	342112	keystroke	a	n/a
171.161	0.045	342322	keystroke	n	n/a
171.237	0.105	342474	keystroke	e	n/a
171.326	0.09	342652	keystroke	Key.space	n/a
171.432	0.074	342864	keystroke	p	n/a
171.641	0.06	343282	keystroke	i	n/a
172.166	0.075	344332	keystroke	Key.backspace	n/a
172.391	0.105	344782	keystroke	a	n/a
172.497	0.029	344994	keystroke	i	n/a
172.646	0.06	345292	keystroke	n	n/a
172.721	0.106	345442	keystroke	t	n/a
172.842	0.06	345684	keystroke	i	n/a
172.992	0.104	345984	keystroke	n	n/a
173.081	0.075	346162	keystroke	g	n/a
173.2615	0.075	346523	keystroke	s	n/a
173.3515	0.09	346703	keystroke	Key.space	n/a
173.6215	0.09	347243	keystroke	a	n/a
173.8615	0.075	347723	keystroke	c	n/a
173.9665	0.06	347933	keystroke	h	n/a
174.1465	0.06	348293	keystroke	i	n/a
174.2365	0.06	348473	keystroke	e	n/a
174.4315	0.075	348863	keystroke	v	n/a
174.492	0.06	348984	keystroke	e	n/a
174.7165	0.09	349433	keystroke	Key.enter	n/a
174.8115	6.0865	349623	prompt	n/a	present defensive celebrity higher\n
175.5265	0.105	351053	keystroke	p	n/a
175.6165	0.105	351233	keystroke	r	n/a
175.6765	0.075	351353	keystroke	e	n/a
175.8715	0.075	351743	keystroke	s	n/a
176.021	0.076	352042	keystroke	e	n/a
176.111	0.061	352222	keystroke	n	n/a
176.216	0.075	352432	keystroke	t	n/a
176.321	0.105	352642	keystroke	Key.space	n/a
176.456	0.075	352912	keystroke	d	n/a
176.651	0.06	353302	keystroke	e	n/a
176.831	0.121	353662	keystroke	f	n/a
176.892	0.104	353784	keystroke	e	n/a
177.027	0.059	354054	keystroke	n	n/a
177.162	0.074	354324	keystroke	s	n/a
177.281	0.06	354562	keystroke	i	n/a
177.4165	0.12	354833	keystroke	v	n/a
177.4915	0.09	354983	keystroke	e	n/a
177.6265	0.09	355253	keystroke	Key.space	n/a
177.8515	0.105	355703	keystroke	c	n/a
178.2115	0.06	356423	keystroke	e	n/a
178.3615	0.09	356723	keystroke	l	n/a
178.5115	0.09	357023	keystroke	e	n/a
178.6465	0.045	357293	keystroke	b	n/a
178.751	0.09	357502	keystroke	r	n/a
178.901	0.09	357802	keystroke	i	n/a
179.036	0.075	358072	keystroke	t	n/a
179.1565	0.105	358313	keystroke	y	n/a
179.276	0.135	358552	keystroke	Key.space	n/a
179.502	0.09	359004	keystroke	h	n/a
179.577	0.09	359154	keystroke	i	n/a
179.757	0.06	359514	keystroke	g	n/a
179.892	0.075	359784	keystroke	h	n/a
180.537	0.09	361074	keystroke	e	n/a
180.597	0.09	361194	keystroke	r	n/a
180.807	0.09	361614	keystroke	Key.enter	n/a
180.9005	5.0525	361801	prompt	n/a	bodies reading assessing ordered\n
181.5565	0.06	363113	keystroke	b	n/a
181.7365	0.105	363473	keystroke	o	n/a
181.8565	0.045	363713	keystroke	d	n/a
181.9315	0.075	363863	keystroke	i	n/a
182.0215	0.045	364043	keystroke	e	n/a
182.1865	0.075	364373	keystroke	s	n/a
182.2765	0.105	364553	keystroke	Key.space	n/a
182.3815	0.15	364763	keystroke	r	n/a
182.4415	0.12	364883	keystroke	e	n/a
182.5765	0.165	365153	keystroke	a	n/a
182.8465	0.06	365693	keystroke	d	n/a
183.0115	0.06	366023	keystroke	i	n/a
183.1915	0.06	366383	keystroke	n	n/a
183.2815	0.09	366563	keystroke	g	n/a
183.3865	0.075	366773	keystroke	Key.space	n/a
183.522	0.075	367044	keystroke	a	n/a
183.7015	0.06	367403	keystroke	s	n/a
183.8215	0.075	367643	keystroke	s	n/a
184.0015	0.06	368003	keystroke	e	n/a
184.2115	0.015	368423	keystroke	s	n/a
184.3165	0.03	368633	keystroke	s	n/a
184.5265	0.06	369053	keystroke	i	n/a
184.6765	0.045	369353	keystroke	n	n/a
184.7665	0.075	369533	keystroke	g	n/a
184.8265	0.1055	369653	keystroke	Key.space	n/a
184.9015	0.0755	369803	keystroke	o	n/a
184.977	0.075	369954	keystroke	r	n/a
185.187	0.045	370374	keystroke	d	n/a
185.367	0.075	370734	keystroke	e	n/a
185.427	0.135	370854	keystroke	r	n/a
185.532	0.105	371064	keystroke	e	n/a
185.727	0.09	371454	keystroke	d	n/a
185.847	0.1045	371694	keystroke	Key.enter	n/a
185.956	5.562	371912	prompt	n/a	deutsch andrews monaco wine\n
186.7165	0.075	373433	keystroke	d	n/a
186.9865	0.09	373973	keystroke	e	n/a
187.1815	0.075	374363	keystroke	u	n/a
187.3165	0.09	374633	keystroke	t	n/a
187.6015	0.09	375203	keystroke	s	n/a
187.8415	0.09	375683	keystroke	c	n/a
187.9765	0.075	375953	keystroke	h	n/a
188.1565	0.06	376313	keystroke	Key.space	n/a
188.3065	0.105	376613	keystroke	a	n/a
188.4265	0.075	376853	keystroke	n	n/a
189.027	0.03	378054	keystroke	d	n/a
189.237	0.105	378474	keystroke	r	n/a
189.297	0.105	378594	keystroke	e	n/a
189.417	0.0745	378834	keystroke	w	n/a
190.062	0.074	380124	keystroke	s	n/a
190.181	0.075	380362	keystroke	Key.space	n/a
190.3765	0.0595	380753	keystroke	m	n/a
190.526	0.06	381052	keystroke	o	n/a
190.6765	0.0595	381353	keystroke	n	n/a
190.7665	0.1055	381533	keystroke	a	n/a
190.826	0.121	381652	keystroke	c	n/a
190.917	0.09	381834	keystroke	o	n/a
190.977	0.12	381954	keystroke	Key.space	n/a
191.067	0.09	382134	keystroke	w	n/a
191.142	0.045	382284	keystroke	i	n/a
191.262	0.09	382524	keystroke	n	n/a
191.337	0.075	382674	keystroke	e	n/a
191.427	0.0895	382854	keystroke	Key.enter	n/a
191.521	6.537	383042	prompt	n/a	bunch occasions accessibility framed\n
192.222	0.06	384444	keystroke	b	n/a
192.4165	0.045	384833	keystroke	u	n/a
192.6115	0.075	385223	keystroke	n	n/a
192.7915	0.075	385583	keystroke	c	n/a
192.8815	0.075	385763	keystroke	h	n/a
192.9415	0.075	385883	keystroke	Key.space	n/a
193.0915	0.075	386183	keystroke	o	n/a
193.2115	0.06	386423	keystroke	c	n/a
193.3465	0.09	386693	keystroke	c	n/a
193.5115	0.09	387023	keystroke	a	n/a
193.6765	0.0895	387353	keystroke	s	n/a
193.811	0.105	387622	keystroke	i	n/a
193.872	0.075	387744	keystroke	o	n/a
194.052	0.059	388104	keystroke	n	n/a
194.126	0.076	388252	keystroke	s	n/a
194.292	0.09	388584	keystroke	Key.space	n/a
194.516	0.09	389032	keystroke	a	n/a
194.877	0.045	389754	keystroke	c	n/a
195.042	0.06	390084	keystroke	c	n/a
195.297	0.06	390594	keystroke	e	n/a
195.552	0.06	391104	keystroke	s	n/a
195.687	0.075	391374	keystroke	s	n/a
195.882	0.06	391764	keystroke	i	n/a
196.062	0.06	392124	keystroke	b	n/a
196.242	0.075	392484	keystroke	i	n/a
196.437	0.06	392874	keystroke	l	n/a
196.617	0.105	393234	keystroke	i	n/a
196.737	0.1045	393474	keystroke	t	n/a
196.857	0.074	393714	keystroke	y	n/a
197.051	0.09	394102	keystroke	Key.space	n/a
197.246	0.076	394492	keystroke	f	n/a
197.441	0.091	394882	keystroke	r	n/a
197.487	0.105	394974	keystroke	a	n/a
197.577	0.089	395154	keystroke	m	n/a
197.681	0.06	395362	keystroke	e	n/a
197.846	0.075	395692	keystroke	d	n/a
197.966	0.09	395932	keystroke	Key.enter	n/a
198.0615	4.6015	396123	prompt	n/a	society outlet personals keyword\n
198.7315	0.075	397463	keystroke	s	n/a
198.7915	0.0745	397583	keystroke	o	n/a
198.926	0.075	397852	keystroke	c	n/a
199.016	0.075	398032	keystroke	i	n/a
199.107	0.0745	398214	keystroke	e	n/a
199.2565	0.135	398513	keystroke	t	n/a
199.3165	0.09	398633	keystroke	y	n/a
199.3925	0.059	398785	keystroke	Key.space	n/a
199.587	0.105	399174	keystroke	o	n/a
199.767	0.09	399534	keystroke	u	n/a
199.887	0.075	399774	keystroke	t	n/a
200.007	0.075	400014	keystroke	l	n/a
200.127	0.045	400254	keystroke	e	n/a
200.232	0.105	400464	keystroke	t	n/a
200.277	0.12	400554	keystroke	Key.space	n/a
200.367	0.09	400734	keystroke	p	n/a
200.442	0.09	400884	keystroke	e	n/a
200.517	0.03	401034	keystroke	r	n/a
200.652	0.09	401304	keystroke	s	n/a
200.711	0.046	401422	keystroke	o	n/a
200.847	0.0595	401694	keystroke	n	n/a
201.3415	0.075	402683	keystroke	a	n/a
201.4615	0.06	402923	keystroke	l	n/a
201.5365	0.105	403073	keystroke	s	n/a
201.6265	0.12	403253	keystroke	Key.space	n/a
201.7165	0.0895	403433	keystroke	k	n/a
201.821	0.06	403642	keystroke	e	n/a
201.971	0.06	403942	keystroke	y	n/a
202.136	0.09	404272	keystroke	w	n/a
202.242	0.075	404484	keystroke	o	n/a
202.302	0.0745	404604	keystroke	r	n/a
202.4815	0.09	404963	keystroke	d	n/a
202.5865	0.075	405173	keystroke	Key.enter	n/a
202.6665	4.9615	405333	prompt	n/a	particles utilize reduced planes\n
203.351	0.105	406702	keystroke	p	n/a
203.457	0.075	406914	keystroke	a	n/a
203.501	0.091	407002	keystroke	r	n/a
203.711	0.061	407422	keystroke	t	n/a
203.756	0.106	407512	keystroke	i	n/a
203.906	0.12	407812	keystroke	c	n/a
204.056	0.075	408112	keystroke	l	n/a
204.206	0.046	408412	keystroke	e	n/a
204.341	0.076	408682	keystroke	s	n/a
204.401	0.09	408802	keystroke	Key.space	n/a
204.566	0.075	409132	keystroke	u	n/a
204.671	0.09	409342	keystroke	t	n/a
204.8965	0.075	409793	keystroke	i	n/a
205.1065	0.06	410213	keystroke	l	n/a
205.2715	0.09	410543	keystroke	i	n/a
205.3765	0.075	410753	keystroke	z	n/a
205.5565	0.0755	411113	keystroke	e	n/a
205.661	0.075	411322	keystroke	Key.space	n/a
205.766	0.09	411532	keystroke	r	n/a
205.811	0.105	411622	keystroke	e	n/a
206.007	0.074	412014	keystroke	d	n/a
206.082	0.044	412164	keystroke	u	n/a
206.307	0.119	412614	keystroke	c	n/a
206.411	0.09	412822	keystroke	e	n/a
206.621	0.06	413242	keystroke	d	n/a
206.666	0.12	413332	keystroke	Key.space	n/a
206.801	0.06	413602	keystroke	p	n/a
206.966	0.0605	413932	keystroke	l	n/a
207.0565	0.09	414113	keystroke	a	n/a
207.1465	0.06	414293	keystroke	n	n/a
207.2075	0.059	414415	keystroke	e	n/a
207.3865	0.09	414773	keystroke	s	n/a
207.5515	0.075	415103	keystroke	Key.enter	n/a
207.631	5.0825	415262	prompt	n/a	favorite rhythm interstate mood\n
208.3015	0.12	416603	keystroke	f	n/a
208.3615	0.12	416723	keystroke	a	n/a
208.5415	0.09	417083	keystroke	v	n/a
208.6615	0.105	417323	keystroke	o	n/a
208.7515	0.06	417503	keystroke	r	n/a
208.872	0.075	417744	keystroke	i	n/a
208.917	0.075	417834	keystroke	t	n/a
209.037	0.06	418074	keystroke	e	n/a
209.157	0.09	418314	keystroke	Key.space	n/a
209.442	0.0595	418884	keystroke	r	n/a
209.6065	0.075	419213	keystroke	h	n/a
209.8465	0.075	419693	keystroke	y	n/a
209.9665	0.075	419933	keystroke	t	n/a
210.0865	0.075	420173	keystroke	h	n/a
210.356	0.06	420712	keystroke	m	n/a
210.566	0.106	421132	keystroke	Key.space	n/a
210.687	0.059	421374	keystroke	i	n/a
210.836	0.075	421672	keystroke	n	n/a
210.881	0.091	421762	keystroke	t	n/a
211.061	0.091	422122	keystroke	e	n/a
211.121	0.076	422242	keystroke	r	n/a
211.361	0.031	422722	keystroke	s	n/a
211.541	0.06	423082	keystroke	t	n/a
211.646	0.076	423292	keystroke	a	n/a
211.707	0.089	423414	keystroke	t	n/a
211.781	0.105	423562	keystroke	e	n/a
211.947	0.105	423894	keystroke	Key.space	n/a
212.112	0.045	424224	keystroke	m	n/a
212.276	0.046	424552	keystroke	o	n/a
212.382	0.09	424764	keystroke	o	n/a
212.517	0.06	425034	keystroke	d	n/a
212.606	0.106	425212	keystroke	Key.enter	n/a
212.7165	5.9215	425433	prompt	n/a	crime progressive administrators rise\n
213.462	0.075	426924	keystroke	c	n/a
213.672	0.09	427344	keystroke	r	n/a
213.732	0.075	427464	keystroke	i	n/a
213.912	0.045	427824	keystroke	m	n/a
213.972	0.105	427944	keystroke	e	n/a
214.062	0.075	428124	keystroke	Key.space	n/a
214.122	0.1045	428244	keystroke	p	n/a
214.2115	0.06	428423	keystroke	r	n/a
214.3015	0.0905	428603	keystroke	o	n/a
214.4365	0.06	428873	keystroke	g	n/a
214.6165	0.105	429233	keystroke	r	n/a
214.7065	0.075	429413	keystroke	e	n/a
214.917	0.03	429834	keystroke	s	n/a
215.022	0.089	430044	keystroke	s	n/a
215.127	0.075	430254	keystroke	i	n/a
215.232	0.075	430464	keystroke	v	n/a
215.277	0.09	430554	keystroke	e	n/a
215.412	0.06	430824	keystroke	Key.space	n/a
215.502	0.0745	431004	keystroke	a	n/a
215.6965	0.045	431393	keystroke	d	n/a
215.8465	0.06	431693	keystroke	m	n/a
216.0415	0.045	432083	keystroke	i	n/a
216.2065	0.06	432413	keystroke	n	n/a
216.3565	0.075	432713	keystroke	i	n/a
216.4465	0.03	432893	keystroke	s	n/a
216.7465	0.09	433493	keystroke	t	n/a
216.9865	0.1205	433973	keystroke	r	n/a
217.0615	0.1055	434123	keystroke	a	n/a
217.422	0.09	434844	keystroke	t	n/a
217.527	0.075	435054	keystroke	o	n/a
217.617	0.075	435234	keystroke	r	n/a
217.797	0.06	435594	keystroke	s	n/a
217.902	0.09	435804	keystroke	Key.space	n/a
218.022	0.075	436044	keystroke	r	n/a
218.127	0.105	436254	keystroke	i	n/a
218.217	0.0595	436434	keystroke	s	n/a
218.3365	0.105	436673	keystroke	e	n/a
218.5315	0.105	437063	keystroke	Key.enter	n/a
218.641	9.0425	437282	prompt	n/a	eugene meaningful indonesian counted\n
219.447	0.06	438894	keystroke	e	n/a
219.567	0.105	439134	keystroke	u	n/a
219.7015	0.0895	439403	keystroke	g	n/a
219.8515	0.0745	439703	keystroke	n	n/a
219.9715	0.0745	439943	keystroke	e	n/a
220.0765	0.0745	440153	keystroke	Key.space	n/a
220.287	0.06	440574	keystroke	m	n/a
220.362	0.06	440724	keystroke	e	n/a
220.407	0.105	440814	keystroke	a	n/a
221.0065	0.075	442013	keystroke	Key.backspace	n/a
221.2315	0.09	442463	keystroke	Key.backspace	n/a
221.4715	0.09	442943	keystroke	Key.backspace	n/a
221.6815	0.09	443363	keystroke	Key.backspace	n/a
221.9215	0.075	443843	keystroke	Key.backspace	n/a
222.2665	0.075	444533	keystroke	Key.backspace	n/a
222.626	0.09	445252	keystroke	e	n/a
222.731	0.06	445462	keystroke	n	n/a
222.837	0.075	445674	keystroke	e	n/a
222.927	0.1045	445854	keystroke	Key.space	n/a
223.0465	0.1055	446093	keystroke	m	n/a
223.1665	0.075	446333	keystroke	e	n/a
223.2265	0.09	446453	keystroke	a	n/a
223.647	0.075	447294	keystroke	n	n/a
223.827	0.0445	447654	keystroke	i	n/a
223.992	0.045	447984	keystroke	n	n/a
224.187	0.0595	448374	keystroke	g	n/a
224.367	0.0595	448734	keystroke	f	n/a
224.8165	0.06	449633	keystroke	u	n/a
225.012	0.06	450024	keystroke	l	n/a
225.2215	0.105	450443	keystroke	Key.space	n/a
225.3415	0.045	450683	keystroke	i	n/a
225.4915	0.075	450983	keystroke	n	n/a
225.6265	0.09	451253	keystroke	d	n/a
225.6865	0.06	451373	keystroke	o	n/a
225.8965	0.03	451793	keystroke	n	n/a
225.9115	0.03	451823	keystroke	e	n/a
226.0615	0.09	452123	keystroke	s	n/a
226.1365	0.075	452273	keystroke	i	n/a
226.2565	0.09	452513	keystroke	a	n/a
226.3765	0.09	452753	keystroke	n	n/a
226.4515	0.09	452903	keystroke	Key.space	n/a
226.6465	0.06	453293	keystroke	c	n/a
226.7365	0.15	453473	keystroke	o	n/a
226.8115	0.12	453623	keystroke	u	n/a
226.9915	0.06	453983	keystroke	n	n/a
227.0665	0.06	454133	keystroke	t	n/a
227.2165	0.045	454433	keystroke	e	n/a
227.3515	0.075	454703	keystroke	d	n/a
227.6215	0.06	455243	keystroke	Key.enter	n/a
227.6865	5.7415	455373	prompt	n/a	smoking flag formerly consultant\n
228.356	0.076	456712	keystroke	s	n/a
228.657	0.09	457314	keystroke	m	n/a
228.8515	0.045	457703	keystroke	o	n/a
229.0165	0.06	458033	keystroke	k	n/a
229.1665	0.045	458333	keystroke	i	n/a
229.3165	0.06	458633	keystroke	n	n/a
229.3915	0.09	458783	keystroke	g	n/a
229.4965	0.0905	458993	keystroke	Key.space	n/a
229.602	0.075	459204	keystroke	f	n/a
229.692	0.09	459384	keystroke	l	n/a
229.767	0.12	459534	keystroke	a	n/a
229.857	0.075	459714	keystroke	g	n/a
229.947	0.09	459894	keystroke	Key.space	n/a
230.052	0.09	460104	keystroke	f	n/a
230.187	0.06	460374	keystroke	o	n/a
230.757	0.075	461514	keystroke	r	n/a
230.907	0.06	461814	keystroke	m	n/a
231.102	0.075	462204	keystroke	e	n/a
231.162	0.075	462324	keystroke	r	n/a
231.267	0.06	462534	keystroke	l	n/a
231.537	0.075	463074	keystroke	y	n/a
231.597	0.075	463194	keystroke	Key.space	n/a
232.092	0.06	464184	keystroke	c	n/a
232.137	0.06	464274	keystroke	o	n/a
232.287	0.045	464574	keystroke	n	n/a
232.452	0.0445	464904	keystroke	s	n/a
232.5415	0.06	465083	keystroke	u	n/a
232.7215	0.06	465443	keystroke	l	n/a
232.8115	0.075	465623	keystroke	t	n/a
232.9315	0.105	465863	keystroke	a	n/a
233.0515	0.045	466103	keystroke	n	n/a
233.1565	0.075	466313	keystroke	t	n/a
233.3515	0.0745	466703	keystroke	Key.enter	n/a
233.4335	5.89	466867	prompt	n/a	determination opposed justice gang\n
234.101	0.076	468202	keystroke	d	n/a
234.296	0.06	468592	keystroke	e	n/a
234.596	0.091	469192	keystroke	t	n/a
234.792	0.045	469584	keystroke	e	n/a
234.822	0.0745	469644	keystroke	r	n/a
235.1815	0.075	470363	keystroke	m	n/a
235.3615	0.06	470723	keystroke	i	n/a
235.5265	0.06	471053	keystroke	n	n/a
235.6765	0.0755	471353	keystroke	a	n/a
235.797	0.12	471594	keystroke	t	n/a
235.902	0.09	471804	keystroke	i	n/a
235.962	0.075	471924	keystroke	o	n/a
236.142	0.09	472284	keystroke	n	n/a
236.217	0.105	472434	keystroke	Key.space	n/a
236.517	0.06	473034	keystroke	o	n/a
236.727	0.06	473454	keystroke	p	n/a
236.847	0.0745	473694	keystroke	p	n/a
237.0115	0.06	474023	keystroke	o	n/a
237.1165	0.06	474233	keystroke	s	n/a
237.2515	0.075	474503	keystroke	e	n/a
237.4465	0.06	474893	keystroke	d	n/a
237.5215	0.075	475043	keystroke	Key.space	n/a
237.6565	0.075	475313	keystroke	j	n/a
237.8215	0.075	475643	keystroke	u	n/a
237.9865	0.075	475973	keystroke	s	n/a
238.2115	0.075	476423	keystroke	t	n/a
238.3165	0.045	476633	keystroke	i	n/a
238.4815	0.105	476963	keystroke	c	n/a
238.5415	0.09	477083	keystroke	e	n/a
238.6465	0.075	477293	keystroke	Key.space	n/a
238.7515	0.1355	477503	keystroke	g	n/a
238.872	0.045	477744	keystroke	a	n/a
238.932	0.045	477864	keystroke	n	n/a
239.0065	0.09	478013	keystroke	g	n/a
239.2465	0.075	478493	keystroke	Key.enter	n/a
239.3265	7.9165	478653	prompt	n/a	reproductive practitioner cambodia cindy\n
240.0865	0.09	480173	keystroke	r	n/a
240.1315	0.105	480263	keystroke	e	n/a
240.2215	0.075	480443	keystroke	p	n/a
240.3715	0.075	480743	keystroke	r	n/a
240.4615	0.075	480923	keystroke	o	n/a
240.6115	0.045	481223	keystroke	d	n/a
240.6715	0.09	481343	keystroke	u	n/a
240.852	0.075	481704	keystroke	c	n/a
241.737	0.105	483474	keystroke	t	n/a
241.887	0.075	483774	keystroke	i	n/a
242.052	0.09	484104	keystroke	v	n/a
242.112	0.0745	484224	keystroke	e	n/a
242.2015	0.09	484403	keystroke	Key.space	n/a
242.4115	0.075	484823	keystroke	p	n/a
242.4875	0.089	484975	keystroke	r	n/a
242.5615	0.09	485123	keystroke	a	n/a
242.8015	0.0755	485603	keystroke	c	n/a
243.342	0.045	486684	keystroke	t	n/a
243.492	0.06	486984	keystroke	i	n/a
243.597	0.105	487194	keystroke	t	n/a
243.687	0.09	487374	keystroke	i	n/a
243.732	0.09	487464	keystroke	o	n/a
243.897	0.075	487794	keystroke	n	n/a
244.152	0.09	488304	keystroke	e	n/a
244.226	0.06	488452	keystroke	r	n/a
244.346	0.105	488692	keystroke	Key.space	n/a
244.497	0.104	488994	keystroke	c	n/a
244.572	0.075	489144	keystroke	a	n/a
244.632	0.059	489264	keystroke	m	n/a
244.812	0.06	489624	keystroke	b	n/a
244.977	0.074	489954	keystroke	o	n/a
245.066	0.06	490132	keystroke	d	n/a
245.1715	0.045	490343	keystroke	i	n/a
245.2315	0.12	490463	keystroke	a	n/a
245.3665	0.075	490733	keystroke	Key.space	n/a
246.3565	0.105	492713	keystroke	c	n/a
246.4465	0.06	492893	keystroke	i	n/a
246.6265	0.06	493253	keystroke	n	n/a
246.6715	0.075	493343	keystroke	d	n/a
246.8515	0.0605	493703	keystroke	y	n/a
247.167	0.075	494334	keystroke	Key.enter	n/a
247.246	5.5025	494492	prompt	n/a	controversial retention scales australia\n
247.932	0.09	495864	keystroke	c	n/a
248.007	0.06	496014	keystroke	o	n/a
248.172	0.0745	496344	keystroke	n	n/a
248.232	0.0745	496464	keystroke	t	n/a
248.3815	0.075	496763	keystroke	r	n/a
248.4715	0.075	496943	keystroke	o	n/a
248.5615	0.06	497123	keystroke	v	n/a
248.7415	0.105	497483	keystroke	e	n/a
248.8015	0.09	497603	keystroke	r	n/a
249.0415	0.09	498083	keystroke	s	n/a
249.1015	0.075	498203	keystroke	i	n/a
249.2665	0.075	498533	keystroke	a	n/a
249.3115	0.105	498623	keystroke	l	n/a
249.3865	0.135	498773	keystroke	Key.space	n/a
249.5815	0.1205	499163	keystroke	r	n/a
249.672	0.075	499344	keystroke	e	n/a
249.852	0.06	499704	keystroke	t	n/a
249.957	0.075	499914	keystroke	e	n/a
250.047	0.06	500094	keystroke	n	n/a
250.152	0.075	500304	keystroke	t	n/a
250.332	0.09	500664	keystroke	i	n/a
250.407	0.074	500814	keystroke	o	n/a
250.571	0.105	501142	keystroke	n	n/a
250.6465	0.0895	501293	keystroke	Key.space	n/a
250.751	0.061	501502	keystroke	s	n/a
250.887	0.135	501774	keystroke	c	n/a
250.992	0.09	501984	keystroke	a	n/a
251.097	0.06	502194	keystroke	l	n/a
251.172	0.045	502344	keystroke	e	n/a
251.3365	0.075	502673	keystroke	s	n/a
251.4265	0.075	502853	keystroke	Key.space	n/a
251.547	0.09	503094	keystroke	a	n/a
251.712	0.06	503424	keystroke	u	n/a
251.787	0.09	503574	keystroke	s	n/a
251.982	0.06	503964	keystroke	t	n/a
252.132	0.075	504264	keystroke	r	n/a
252.162	0.09	504324	keystroke	a	n/a
252.237	0.06	504474	keystroke	l	n/a
252.4015	0.075	504803	keystroke	i	n/a
252.4615	0.09	504923	keystroke	a	n/a
252.6265	0.12	505253	keystroke	Key.enter	n/a
252.753	3.6555	505506	prompt	n/a	deeply cardiac wifi skiing\n
253.4065	0.06	506813	keystroke	d	n/a
253.5715	0.045	507143	keystroke	e	n/a
253.7065	0.09	507413	keystroke	e	n/a
253.8115	0.03	507623	keystroke	p	n/a
253.947	0.06	507894	keystroke	l	n/a
254.172	0.075	508344	keystroke	y	n/a
254.217	0.09	508434	keystroke	Key.space	n/a
254.292	0.075	508584	keystroke	c	n/a
254.352	0.105	508704	keystroke	a	n/a
254.502	0.045	509004	keystroke	r	n/a
254.6215	0.1055	509243	keystroke	d	n/a
254.6815	0.0605	509363	keystroke	i	n/a
254.787	0.1345	509574	keystroke	a	n/a
254.9065	0.105	509813	keystroke	c	n/a
255.0415	0.1055	510083	keystroke	Key.space	n/a
255.132	0.09	510264	keystroke	w	n/a
255.222	0.075	510444	keystroke	i	n/a
255.312	0.09	510624	keystroke	f	n/a
255.372	0.12	510744	keystroke	i	n/a
255.477	0.09	510954	keystroke	Key.space	n/a
255.552	0.075	511104	keystroke	s	n/a
255.642	0.075	511284	keystroke	k	n/a
255.777	0.06	511554	keystroke	i	n/a
255.897	0.075	511794	keystroke	i	n/a
256.047	0.06	512094	keystroke	n	n/a
256.167	0.075	512334	keystroke	g	n/a
256.332	0.075	512664	keystroke	Key.enter	n/a
256.413	6.0855	512826	prompt	n/a	flesh unauthorized sbjct regards\n
257.292	0.045	514584	keystroke	f	n/a
257.457	0.06	514914	keystroke	l	n/a
257.502	0.06	515004	keystroke	e	n/a
257.682	0.09	515364	keystroke	s	n/a
257.757	0.1195	515514	keystroke	h	n/a
257.8315	0.105	515663	keystroke	Key.space	n/a
258.012	0.0595	516024	keystroke	u	n/a
258.207	0.03	516414	keystroke	n	n/a
258.897	0.06	517794	keystroke	a	n/a
259.077	0.045	518154	keystroke	u	n/a
259.1965	0.105	518393	keystroke	t	n/a
259.2715	0.06	518543	keystroke	h	n/a
259.4215	0.09	518843	keystroke	o	n/a
259.4965	0.075	518993	keystroke	r	n/a
259.631	0.061	519262	keystroke	i	n/a
259.737	0.06	519474	keystroke	z	n/a
259.887	0.03	519774	keystroke	e	n/a
260.037	0.06	520074	keystroke	d	n/a
260.097	0.074	520194	keystroke	Key.space	n/a
260.412	0.075	520824	keystroke	s	n/a
260.532	0.06	521064	keystroke	b	n/a
260.771	0.06	521542	keystroke	j	n/a
260.967	0.06	521934	keystroke	c	n/a
261.177	0.06	522354	keystroke	t	n/a
261.282	0.105	522564	keystroke	Key.space	n/a
261.417	0.12	522834	keystroke	r	n/a
261.507	0.09	523014	keystroke	e	n/a
261.807	0.0895	523614	keystroke	g	n/a
261.8815	0.135	523763	keystroke	a	n/a
261.9865	0.09	523973	keystroke	r	n/a
262.1965	0.09	524393	keystroke	d	n/a
262.2415	0.09	524483	keystroke	s	n/a
262.3765	0.12	524753	keystroke	Key.enter	n/a
262.5015	7.932	525003	prompt	n/a	node beatles mayor principles\n
263.142	0.06	526284	keystroke	n	n/a
263.292	0.09	526584	keystroke	o	n/a
263.367	0.045	526734	keystroke	d	n/a
263.5465	0.03	527093	keystroke	e	n/a
263.5915	0.0755	527183	keystroke	Key.space	n/a
263.727	0.09	527454	keystroke	b	n/a
263.802	0.105	527604	keystroke	e	n/a
263.862	0.105	527724	keystroke	a	n/a
263.997	0.09	527994	keystroke	t	n/a
264.102	0.06	528204	keystroke	l	n/a
264.147	0.075	528294	keystroke	e	n/a
264.327	0.09	528654	keystroke	s	n/a
264.402	0.105	528804	keystroke	Key.space	n/a
264.522	0.0745	529044	keystroke	m	n/a
264.612	0.09	529224	keystroke	a	n/a
264.732	0.09	529464	keystroke	y	n/a
264.8965	0.0905	529793	keystroke	o	n/a
265.002	0.105	530004	keystroke	r	n/a
268.0495	0.057	536099	keystroke	Key.space	n/a
268.1665	0.075	536333	keystroke	p	n/a
268.3015	0.09	536603	keystroke	r	n/a
268.4365	0.075	536873	keystroke	i	n/a
268.6315	0.06	537263	keystroke	n	n/a
268.7665	0.075	537533	keystroke	c	n/a
268.977	0.075	537954	keystroke	p	n/a
269.532	0.09	539064	keystroke	Key.backspace	n/a
269.757	0.06	539514	keystroke	i	n/a
269.922	0.06	539844	keystroke	p	n/a
270.0565	0.075	540113	keystroke	l	n/a
270.1165	0.06	540233	keystroke	e	n/a
270.2665	0.09	540533	keystroke	s	n/a
270.3715	0.06	540743	keystroke	Key.enter	n/a
270.4365	5.337	540873	prompt	n/a	johnston chance township identical\n
271.122	0.12	542244	keystroke	j	n/a
271.2575	0.06	542515	keystroke	o	n/a
271.422	0.06	542844	keystroke	h	n/a
271.587	0.045	543174	keystroke	n	n/a
271.677	0.06	543354	keystroke	s	n/a
271.947	0.09	543894	keystroke	t	n/a
272.067	0.06	544134	keystroke	o	n/a
272.247	0.105	544494	keystroke	n	n/a
272.322	0.09	544644	keystroke	Key.space	n/a
272.607	0.1045	545214	keystroke	c	n/a
272.757	0.045	545514	keystroke	h	n/a
272.877	0.165	545754	keystroke	a	n/a
272.997	0.075	545994	keystroke	n	n/a
273.207	0.12	546414	keystroke	c	n/a
273.297	0.105	546594	keystroke	e	n/a
273.447	0.09	546894	keystroke	Key.space	n/a
273.687	0.075	547374	keystroke	t	n/a
273.747	0.06	547494	keystroke	o	n/a
273.852	0.1045	547704	keystroke	w	n/a
273.9425	0.089	547885	keystroke	n	n/a
274.0625	0.06	548125	keystroke	s	n/a
274.1675	0.059	548335	keystroke	h	n/a
274.4075	0.09	548815	keystroke	i	n/a
274.4525	0.12	548905	keystroke	p	n/a
274.5865	0.09	549173	keystroke	Key.space	n/a
274.7225	0.09	549445	keystroke	i	n/a
274.8275	0.015	549655	keystroke	d	n/a
274.977	0.075	549954	keystroke	e	n/a
275.037	0.06	550074	keystroke	n	n/a
275.142	0.09	550284	keystroke	t	n/a
275.247	0.06	550494	keystroke	i	n/a
275.412	0.075	550824	keystroke	c	n/a
275.472	0.075	550944	keystroke	a	n/a
275.517	0.075	551034	keystroke	l	n/a
275.697	0.075	551394	keystroke	Key.enter	n/a
275.7765	4.542	551553	prompt	n/a	perhaps prev dear cayman\n
276.477	0.09	552954	keystroke	p	n/a
276.537	0.075	553074	keystroke	e	n/a
276.582	0.075	553164	keystroke	r	n/a
276.9115	0.045	553823	keystroke	h	n/a
277.0315	0.12	554063	keystroke	a	n/a
277.1365	0.09	554273	keystroke	p	n/a
277.2415	0.075	554483	keystroke	s	n/a
277.3465	0.105	554693	keystroke	Key.space	n/a
277.6315	0.09	555263	keystroke	p	n/a
277.7365	0.12	555473	keystroke	r	n/a
277.8115	0.075	555623	keystroke	e	n/a
277.9915	0.06	555983	keystroke	v	n/a
278.0665	0.09	556133	keystroke	Key.space	n/a
278.517	0.06	557034	keystroke	d	n/a
278.727	0.1505	557454	keystroke	e	n/a
278.8625	0.104	557725	keystroke	a	n/a
278.9515	0.075	557903	keystroke	r	n/a
279.1625	0.09	558325	keystroke	Key.space	n/a
279.3575	0.105	558715	keystroke	c	n/a
279.4465	0.106	558893	keystroke	a	n/a
279.5825	0.015	559165	keystroke	y	n/a
279.837	0.09	559674	keystroke	m	n/a
279.942	0.075	559884	keystroke	a	n/a
280.032	0.045	560064	keystroke	n	n/a
280.227	0.09	560454	keystroke	Key.enter	n/a
280.3215	6.987	560643	prompt	n/a	portfolio chan mailed consider\n
280.9775	0.0745	561955	keystroke	p	n/a
281.202	0.0745	562404	keystroke	o	n/a
281.3215	0.045	562643	keystroke	r	n/a
281.4565	0.09	562913	keystroke	t	n/a
281.6215	0.075	563243	keystroke	f	n/a
281.7265	0.06	563453	keystroke	o	n/a
281.8615	0.06	563723	keystroke	i	n/a
282.0415	0.06	564083	keystroke	l	n/a
282.2365	0.075	564473	keystroke	i	n/a
282.3565	0.06	564713	keystroke	o	n/a
283.077	0.045	566154	keystroke	Key.backspace	n/a
283.242	0.075	566484	keystroke	Key.backspace	n/a
283.437	0.075	566874	keystroke	Key.backspace	n/a
283.617	0.075	567234	keystroke	Key.backspace	n/a
283.932	0.045	567864	keystroke	l	n/a
284.142	0.12	568284	keystroke	i	n/a
284.247	0.06	568494	keystroke	o	n/a
284.772	0.1045	569544	keystroke	Key.space	n/a
284.9225	0.059	569845	keystroke	c	n/a
284.9965	0.0755	569993	keystroke	h	n/a
285.102	0.12	570204	keystroke	a	n/a
285.192	0.105	570384	keystroke	n	n/a
285.282	0.075	570564	keystroke	Key.space	n/a
285.417	0.09	570834	keystroke	m	n/a
285.552	0.12	571104	keystroke	a	n/a
285.657	0.045	571314	keystroke	i	n/a
285.807	0.075	571614	keystroke	l	n/a
285.867	0.06	571734	keystroke	e	n/a
286.032	0.06	572064	keystroke	d	n/a
286.152	0.105	572304	keystroke	Key.space	n/a
286.242	0.09	572484	keystroke	c	n/a
286.332	0.06	572664	keystroke	o	n/a
286.482	0.075	572964	keystroke	n	n/a
286.602	0.015	573204	keystroke	s	n/a
286.647	0.075	573294	keystroke	i	n/a
286.767	0.015	573534	keystroke	d	n/a
286.917	0.045	573834	keystroke	e	n/a
286.963	0.119	573926	keystroke	r	n/a
287.2315	0.0755	574463	keystroke	Key.enter	n/a
287.312	5.8315	574624	prompt	n/a	releases photos cumulative inspection\n
288.042	0.0745	576084	keystroke	r	n/a
288.087	0.09	576174	keystroke	e	n/a
288.1915	0.105	576383	keystroke	l	n/a
288.3115	0.09	576623	keystroke	e	n/a
288.4165	0.105	576833	keystroke	a	n/a
288.6415	0.045	577283	keystroke	s	n/a
288.7915	0.046	577583	keystroke	e	n/a
288.942	0.09	577884	keystroke	s	n/a
289.047	0.0895	578094	keystroke	Key.space	n/a
289.1815	0.045	578363	keystroke	p	n/a
289.3465	0.06	578693	keystroke	h	n/a
289.4965	0.105	578993	keystroke	o	n/a
289.5865	0.0905	579173	keystroke	t	n/a
289.6915	0.0755	579383	keystroke	o	n/a
289.8125	0.075	579625	keystroke	s	n/a
289.9015	0.091	579803	keystroke	Key.space	n/a
290.0825	0.06	580165	keystroke	c	n/a
290.2175	0.075	580435	keystroke	u	n/a
290.502	0.06	581004	keystroke	m	n/a
290.697	0.09	581394	keystroke	u	n/a
290.907	0.09	581814	keystroke	l	n/a
291.012	0.09	582024	keystroke	a	n/a
291.132	0.09	582264	keystroke	t	n/a
291.237	0.06	582474	keystroke	i	n/a
291.417	0.09	582834	keystroke	v	n/a
291.462	0.105	582924	keystroke	e	n/a
291.582	0.0905	583164	keystroke	Key.space	n/a
291.7175	0.075	583435	keystroke	i	n/a
291.882	0.06	583764	keystroke	n	n/a
291.957	0.075	583914	keystroke	s	n/a
292.077	0.105	584154	keystroke	p	n/a
292.137	0.075	584274	keystroke	e	n/a
292.302	0.06	584604	keystroke	c	n/a
292.512	0.09	585024	keystroke	t	n/a
292.647	0.075	585294	keystroke	i	n/a
292.677	0.09	585354	keystroke	o	n/a
292.887	0.03	585774	keystroke	n	n/a
293.082	0.06	586164	keystroke	Key.enter	n/a
293.1465	5.412	586293	prompt	n/a	introduced tried calibration insider\n
293.802	0.06	587604	keystroke	i	n/a
293.967	0.06	587934	keystroke	n	n/a
293.997	0.09	587994	keystroke	t	n/a
294.162	0.06	588324	keystroke	r	n/a
294.223	0.089	588446	keystroke	o	n/a
294.402	0.015	588804	keystroke	d	n/a
294.462	0.06	588924	keystroke	u	n/a
294.567	0.09	589134	keystroke	c	n/a
294.642	0.075	589284	keystroke	e	n/a
294.822	0.045	589644	keystroke	d	n/a
294.9125	0.105	589825	keystroke	Key.space	n/a
295.0625	0.06	590125	keystroke	t	n/a
295.1975	0.09	590395	keystroke	r	n/a
295.2725	0.075	590545	keystroke	i	n/a
295.3315	0.076	590663	keystroke	e	n/a
295.4975	0.075	590995	keystroke	d	n/a
295.5875	0.06	591175	keystroke	Key.space	n/a
295.7525	0.12	591505	keystroke	c	n/a
295.8275	0.12	591655	keystroke	a	n/a
295.9615	0.076	591923	keystroke	l	n/a
296.4875	0.06	592975	keystroke	i	n/a
296.6525	0.075	593305	keystroke	b	n/a
296.7575	0.1195	593515	keystroke	r	n/a
296.8315	0.1055	593663	keystroke	a	n/a
296.982	0.105	593964	keystroke	t	n/a
297.102	0.09	594204	keystroke	i	n/a
297.162	0.09	594324	keystroke	o	n/a
297.387	0.09	594774	keystroke	n	n/a
297.447	0.12	594894	keystroke	Key.space	n/a
297.6875	0.045	595375	keystroke	i	n/a
297.8525	0.06	595705	keystroke	n	n/a
297.9275	0.075	595855	keystroke	s	n/a
298.0475	0.075	596095	keystroke	i	n/a
298.1075	0.0595	596215	keystroke	d	n/a
298.2875	0.0595	596575	keystroke	e	n/a
298.332	0.1055	596664	keystroke	r	n/a
298.482	0.0755	596964	keystroke	Key.enter	n/a
298.5635	4.33	597127	prompt	n/a	hoping difficult calm gardening\n
299.1275	0.045	598255	keystroke	h	n/a
299.3375	0.15	598675	keystroke	o	n/a
299.4425	0.105	598885	keystroke	p	n/a
299.5925	0.06	599185	keystroke	i	n/a
299.772	0.045	599544	keystroke	n	n/a
299.832	0.06	599664	keystroke	g	n/a
299.922	0.105	599844	keystroke	Key.space	n/a
300.042	0.06	600084	keystroke	d	n/a
300.117	0.075	600234	keystroke	i	n/a
300.177	0.06	600354	keystroke	f	n/a
300.297	0.075	600594	keystroke	f	n/a
300.373	0.104	600746	keystroke	i	n/a
300.507	0.09	601014	keystroke	c	n/a
300.582	0.06	601164	keystroke	u	n/a
300.762	0.06	601524	keystroke	l	n/a
300.837	0.09	601674	keystroke	t	n/a
300.972	0.075	601944	keystroke	Key.space	n/a
301.167	0.075	602334	keystroke	c	n/a
301.227	0.075	602454	keystroke	a	n/a
301.257	0.075	602514	keystroke	l	n/a
301.437	0.09	602874	keystroke	m	n/a
301.512	0.075	603024	keystroke	Key.space	n/a
301.782	0.09	603564	keystroke	g	n/a
301.857	0.105	603714	keystroke	a	n/a
301.977	0.075	603954	keystroke	r	n/a
302.157	0.045	604314	keystroke	d	n/a
302.292	0.075	604584	keystroke	e	n/a
302.352	0.045	604704	keystroke	n	n/a
302.502	0.06	605004	keystroke	i	n/a
302.637	0.075	605274	keystroke	n	n/a
302.697	0.105	605394	keystroke	g	n/a
302.817	0.0745	605634	keystroke	Key.enter	n/a
302.8965	5.457	605793	prompt	n/a	locks justify accounts salvation\n
303.5075	0.059	607015	keystroke	l	n/a
303.6415	0.09	607283	keystroke	o	n/a
303.7175	0.06	607435	keystroke	c	n/a
303.822	0.045	607644	keystroke	k	n/a
303.882	0.09	607764	keystroke	s	n/a
303.957	0.09	607914	keystroke	Key.space	n/a
304.032	0.06	608064	keystroke	j	n/a
304.167	0.09	608334	keystroke	u	n/a
304.602	0.0605	609204	keystroke	s	n/a
304.7975	0.06	609595	keystroke	t	n/a
304.8875	0.045	609775	keystroke	i	n/a
304.9775	0.09	609955	keystroke	f	n/a
305.0675	0.075	610135	keystroke	y	n/a
305.1575	0.09	610315	keystroke	Key.space	n/a
305.5625	0.075	611125	keystroke	a	n/a
305.7425	0.045	611485	keystroke	c	n/a
305.8625	0.075	611725	keystroke	c	n/a
305.9975	0.105	611995	keystroke	o	n/a
306.0575	0.06	612115	keystroke	u	n/a
306.2375	0.06	612475	keystroke	n	n/a
306.2675	0.075	612535	keystroke	t	n/a
306.4625	0.075	612925	keystroke	s	n/a
306.5525	0.075	613105	keystroke	Key.space	n/a
306.6425	0.06	613285	keystroke	s	n/a
306.8075	0.09	613615	keystroke	a	n/a
306.9125	0.045	613825	keystroke	l	n/a
307.0625	0.1345	614125	keystroke	v	n/a
307.182	0.12	614364	keystroke	a	n/a
307.842	0.09	615684	keystroke	t	n/a
307.917	0.09	615834	keystroke	i	n/a
307.977	0.09	615954	keystroke	o	n/a
308.1425	0.0745	616285	keystroke	n	n/a
308.277	0.075	616554	keystroke	Key.enter	n/a
308.3565	3.8525	616713	prompt	n/a	program leather adults fires\n
308.997	0.075	617994	keystroke	p	n/a
309.087	0.06	618174	keystroke	r	n/a
309.162	0.09	618324	keystroke	o	n/a
309.237	0.075	618474	keystroke	g	n/a
309.447	0.03	618894	keystroke	r	n/a
309.463	0.089	618926	keystroke	a	n/a
309.492	0.075	618984	keystroke	m	n/a
309.537	0.12	619074	keystroke	Key.space	n/a
309.658	0.0745	619316	keystroke	l	n/a
309.7175	0.105	619435	keystroke	e	n/a
309.7775	0.105	619555	keystroke	a	n/a
309.9425	0.075	619885	keystroke	t	n/a
310.0025	0.075	620005	keystroke	h	n/a
310.0925	0.06	620185	keystroke	e	n/a
310.1375	0.105	620275	keystroke	r	n/a
310.2275	0.075	620455	keystroke	Key.space	n/a
310.2875	0.075	620575	keystroke	a	n/a
310.437	0.075	620874	keystroke	d	n/a
310.527	0.03	621054	keystroke	u	n/a
310.692	0.045	621384	keystroke	l	n/a
310.722	0.06	621444	keystroke	t	n/a
310.887	0.09	621774	keystroke	s	n/a
310.962	0.09	621924	keystroke	Key.space	n/a
311.037	0.06	622074	keystroke	f	n/a
311.142	0.09	622284	keystroke	i	n/a
311.262	0.09	622524	keystroke	r	n/a
311.337	0.09	622674	keystroke	e	n/a
311.742	0.09	623484	keystroke	s	n/a
312.147	0.06	624294	keystroke	Key.enter	n/a
312.213	5.561	624426	prompt	n/a	existence hearing tours enterprise\n
313.002	0.075	626004	keystroke	e	n/a
313.8415	0.075	627683	keystroke	x	n/a
313.992	0.09	627984	keystroke	i	n/a
314.1265	0.06	628253	keystroke	s	n/a
314.3215	0.09	628643	keystroke	t	n/a
314.457	0.1055	628914	keystroke	e	n/a
314.5465	0.12	629093	keystroke	n	n/a
314.7115	0.091	629423	keystroke	c	n/a
314.7425	0.1195	629485	keystroke	e	n/a
314.832	0.12	629664	keystroke	Key.space	n/a
314.982	0.0605	629964	keystroke	h	n/a
314.997	0.1205	629994	keystroke	e	n/a
315.0875	0.135	630175	keystroke	a	n/a
315.2225	0.09	630445	keystroke	r	n/a
315.3275	0.0445	630655	keystroke	i	n/a
315.462	0.075	630924	keystroke	n	n/a
315.552	0.06	631104	keystroke	g	n/a
315.687	0.075	631374	keystroke	Key.space	n/a
315.747	0.12	631494	keystroke	t	n/a
315.822	0.135	631644	keystroke	o	n/a
315.897	0.09	631794	keystroke	u	n/a
316.002	0.06	632004	keystroke	r	n/a
316.152	0.0905	632304	keystroke	s	n/a
316.2575	0.09	632515	keystroke	Key.space	n/a
316.408	0.104	632816	keystroke	e	n/a
316.557	0.015	633114	keystroke	n	n/a
316.587	0.09	633174	keystroke	t	n/a
316.752	0.075	633504	keystroke	e	n/a
316.812	0.06	633624	keystroke	r	n/a
316.9625	0.105	633925	keystroke	p	n/a
317.1725	0.075	634345	keystroke	r	n/a
317.2625	0.075	634525	keystroke	i	n/a
317.3675	0.06	634735	keystroke	s	n/a
317.5175	0.09	635035	keystroke	e	n/a
317.6525	0.119	635305	keystroke	Key.enter	n/a
317.777	5.562	635554	prompt	n/a	carolina startup willow dans\n
318.5525	0.0745	637105	keystroke	c	n/a
318.597	0.105	637194	keystroke	a	n/a
318.762	0.09	637524	keystroke	r	n/a
318.837	0.075	637674	keystroke	o	n/a
319.032	0.06	638064	keystroke	l	n/a
319.167	0.075	638334	keystroke	i	n/a
319.362	0.045	638724	keystroke	n	n/a
319.557	0.1045	639114	keystroke	a	n/a
319.692	0.0905	639384	keystroke	Key.space	n/a
319.7975	0.045	639595	keystroke	s	n/a
319.992	0.06	639984	keystroke	t	n/a
320.7275	0.09	641455	keystroke	a	n/a
320.787	0.09	641574	keystroke	r	n/a
320.982	0.105	641964	keystroke	t	n/a
321.102	0.09	642204	keystroke	u	n/a
321.252	0.075	642504	keystroke	p	n/a
321.702	0.075	643404	keystroke	Key.space	n/a
321.822	0.09	643644	keystroke	w	n/a
321.927	0.045	643854	keystroke	i	n/a
322.107	0.03	644214	keystroke	l	n/a
322.212	0.075	644424	keystroke	l	n/a
322.512	0.03	645024	keystroke	o	n/a
322.587	0.091	645174	keystroke	w	n/a
322.692	0.075	645384	keystroke	Key.space	n/a
322.812	0.1055	645624	keystroke	d	n/a
322.8875	0.075	645775	keystroke	a	n/a
322.9625	0.06	645925	keystroke	n	n/a
323.0375	0.09	646075	keystroke	s	n/a
323.2615	0.0755	646523	keystroke	Key.enter	n/a
323.3435	9.1	646687	prompt	n/a	accurately bailey madagascar metropolitan\n
323.982	0.075	647964	keystroke	a	n/a
324.2075	0.06	648415	keystroke	c	n/a
324.3265	0.09	648653	keystroke	c	n/a
324.5065	0.1055	649013	keystroke	u	n/a
324.597	0.105	649194	keystroke	r	n/a
324.703	0.119	649406	keystroke	a	n/a
324.822	0.075	649644	keystroke	t	n/a
324.912	0.075	649824	keystroke	e	n/a
325.002	0.06	650004	keystroke	l	n/a
325.2275	0.06	650455	keystroke	y	n/a
325.2725	0.09	650545	keystroke	Key.space	n/a
325.5125	0.075	651025	keystroke	b	n/a
325.7225	0.06	651445	keystroke	a	n/a
326.2475	0.09	652495	keystroke	i	n/a
326.8625	0.045	653725	keystroke	l	n/a
327.0275	0.075	654055	keystroke	e	n/a
327.2075	0.03	654415	keystroke	y	n/a
327.2525	0.06	654505	keystroke	Key.space	n/a
327.4925	0.06	654985	keystroke	m	n/a
327.5825	0.09	655165	keystroke	a	n/a
327.9425	0.12	655885	keystroke	d	n/a
328.4675	0.09	656935	keystroke	a	n/a
328.797	0.075	657594	keystroke	g	n/a
329.007	0.06	658014	keystroke	a	n/a
329.172	0.075	658344	keystroke	s	n/a
329.382	0.12	658764	keystroke	c	n/a
329.472	0.105	658944	keystroke	a	n/a
329.682	0.09	659364	keystroke	r	n/a
329.847	0.015	659694	keystroke	Key.space	n/a
329.937	0.075	659874	keystroke	m	n/a
330.027	0.0605	660054	keystroke	e	n/a
330.1775	0.06	660355	keystroke	t	n/a
330.3275	0.09	660655	keystroke	r	n/a
330.3575	0.075	660715	keystroke	o	n/a
330.5375	0.06	661075	keystroke	p	n/a
330.6725	0.06	661345	keystroke	o	n/a
330.8525	0.045	661705	keystroke	l	n/a
331.0925	0.09	662185	keystroke	i	n/a
331.2575	0.09	662515	keystroke	t	n/a
331.3325	0.0745	662665	keystroke	a	n/a
331.3775	0.0595	662755	keystroke	n	n/a
332.352	0.09	664704	keystroke	Key.enter	n/a
332.4465	5.772	664893	prompt	n/a	fill strategies creatures mitchell\n
333.1475	0.09	666295	keystroke	f	n/a
333.2075	0.075	666415	keystroke	i	n/a
333.4175	0.045	666835	keystroke	l	n/a
333.5225	0.09	667045	keystroke	l	n/a
333.5975	0.1645	667195	keystroke	Key.space	n/a
333.687	0.09	667374	keystroke	s	n/a
333.867	0.06	667734	keystroke	t	n/a
334.032	0.075	668064	keystroke	r	n/a
334.092	0.1055	668184	keystroke	a	n/a
334.2275	0.09	668455	keystroke	t	n/a
334.3025	0.06	668605	keystroke	e	n/a
334.4375	0.105	668875	keystroke	g	n/a
334.5875	0.03	669175	keystroke	i	n/a
334.6025	0.075	669205	keystroke	e	n/a
334.767	0.1055	669534	keystroke	s	n/a
335.0675	0.075	670135	keystroke	Key.space	n/a
335.2475	0.045	670495	keystroke	c	n/a
335.4275	0.1195	670855	keystroke	r	n/a
335.502	0.09	671004	keystroke	e	n/a
335.577	0.075	671154	keystroke	a	n/a
335.667	0.09	671334	keystroke	t	n/a
335.772	0.06	671544	keystroke	u	n/a
335.847	0.09	671694	keystroke	r	n/a
335.892	0.09	671784	keystroke	e	n/a
336.102	0.075	672204	keystroke	s	n/a
336.327	0.06	672654	keystroke	Key.space	n/a
336.522	0.045	673044	keystroke	m	n/a
336.732	0.06	673464	keystroke	i	n/a
336.807	0.075	673614	keystroke	t	n/a
337.032	0.045	674064	keystroke	c	n/a
337.107	0.045	674214	keystroke	h	n/a
337.182	0.045	674364	keystroke	e	n/a
337.647	0.09	675294	keystroke	l	n/a
337.797	0.105	675594	keystroke	l	n/a
338.142	0.0755	676284	keystroke	Key.enter	n/a
338.2215	5.3225	676443	prompt	n/a	bent thickness amendments mounting\n
338.907	0.075	677814	keystroke	b	n/a
339.012	0.09	678024	keystroke	e	n/a
339.132	0.045	678264	keystroke	n	n/a
339.207	0.09	678414	keystroke	t	n/a
339.312	0.075	678624	keystroke	Key.space	n/a
339.402	0.075	678804	keystroke	t	n/a
339.492	0.0905	678984	keystroke	h	n/a
339.552	0.0905	679104	keystroke	i	n/a
339.7025	0.0745	679405	keystroke	c	n/a
339.792	0.06	679584	keystroke	k	n/a
339.942	0.0605	679884	keystroke	n	n/a
340.0175	0.06	680035	keystroke	e	n/a
340.2125	0.045	680425	keystroke	s	n/a
340.3475	0.105	680695	keystroke	s	n/a
340.4825	0.06	680965	keystroke	Key.space	n/a
340.7225	0.09	681445	keystroke	a	n/a
340.932	0.09	681864	keystroke	m	n/a
341.037	0.075	682074	keystroke	e	n/a
341.142	0.075	682284	keystroke	n	n/a
341.247	0.09	682494	keystroke	d	n/a
341.397	0.09	682794	keystroke	m	n/a
341.547	0.075	683094	keystroke	e	n/a
341.667	0.06	683334	keystroke	n	n/a
341.742	0.06	683484	keystroke	t	n/a
341.907	0.09	683814	keystroke	s	n/a
342.057	0.045	684114	keystroke	Key.space	n/a
342.4625	0.045	684925	keystroke	m	n/a
342.5975	0.12	685195	keystroke	o	n/a
342.6425	0.09	685285	keystroke	u	n/a
342.8375	0.0595	685675	keystroke	n	n/a
342.927	0.12	685854	keystroke	t	n/a
343.032	0.06	686064	keystroke	i	n/a
343.182	0.076	686364	keystroke	n	n/a
343.272	0.075	686544	keystroke	g	n/a
343.482	0.06	686964	keystroke	Key.enter	n/a
343.547	4.602	687094	prompt	n/a	dollars bored connections runs\n
344.217	0.06	688434	keystroke	d	n/a
344.292	0.075	688584	keystroke	o	n/a
344.472	0.03	688944	keystroke	l	n/a
344.563	0.059	689126	keystroke	l	n/a
344.637	0.1055	689274	keystroke	a	n/a
344.667	0.0905	689334	keystroke	r	n/a
344.8475	0.075	689695	keystroke	s	n/a
344.9375	0.06	689875	keystroke	Key.space	n/a
345.088	0.03	690176	keystroke	b	n/a
345.193	0.09	690386	keystroke	o	n/a
345.252	0.121	690504	keystroke	r	n/a
345.343	0.089	690686	keystroke	e	n/a
345.5375	0.06	691075	keystroke	d	n/a
345.5975	0.0895	691195	keystroke	Key.space	n/a
345.733	0.045	691466	keystroke	c	n/a
345.808	0.045	691616	keystroke	o	n/a
345.973	0.03	691946	keystroke	n	n/a
346.062	0.075	692124	keystroke	n	n/a
346.197	0.15	692394	keystroke	e	n/a
346.617	0.045	693234	keystroke	c	n/a
346.812	0.1205	693624	keystroke	t	n/a
346.9175	0.045	693835	keystroke	i	n/a
346.9475	0.075	693895	keystroke	o	n/a
347.1125	0.06	694225	keystroke	n	n/a
347.1875	0.075	694375	keystroke	s	n/a
347.3075	0.075	694615	keystroke	Key.space	n/a
347.3975	0.09	694795	keystroke	r	n/a
347.5025	0.045	695005	keystroke	u	n/a
347.6975	0.045	695395	keystroke	n	n/a
347.7575	0.09	695515	keystroke	s	n/a
348.0725	0.0745	696145	keystroke	Key.enter	n/a
348.152	9.222	696304	prompt	n/a	compliance editions agent fuel\n
348.897	0.105	697794	keystroke	c	n/a
349.017	0.045	698034	keystroke	o	n/a
349.212	0.045	698424	keystroke	m	n/a
349.407	0.075	698814	keystroke	p	n/a
349.587	0.045	699174	keystroke	l	n/a
349.7375	0.0595	699475	keystroke	i	n/a
349.872	0.075	699744	keystroke	a	n/a
349.962	0.045	699924	keystroke	n	n/a
350.067	0.09	700134	keystroke	c	n/a
350.127	0.12	700254	keystroke	e	n/a
350.442	0.0755	700884	keystroke	Key.space	n/a
351.027	0.06	702054	keystroke	e	n/a
351.207	0.03	702414	keystroke	d	n/a
351.297	0.061	702594	keystroke	i	n/a
351.387	0.12	702774	keystroke	t	n/a
351.492	0.09	702984	keystroke	i	n/a
351.552	0.06	703104	keystroke	o	n/a
351.702	0.045	703404	keystroke	n	n/a
351.762	0.0755	703524	keystroke	s	n/a
351.867	0.105	703734	keystroke	Key.space	n/a
352.032	0.105	704064	keystroke	g	n/a
352.092	0.105	704184	keystroke	e	n/a
352.212	0.06	704424	keystroke	n	n/a
352.317	0.06	704634	keystroke	t	n/a
352.377	0.09	704754	keystroke	Key.space	n/a
352.497	0.0605	704994	keystroke	f	n/a
353.097	0.06	706194	keystroke	Key.backspace	n/a
353.3075	0.06	706615	keystroke	Key.backspace	n/a
353.5325	0.06	707065	keystroke	Key.backspace	n/a
353.7125	0.075	707425	keystroke	Key.backspace	n/a
353.9075	0.075	707815	keystroke	Key.backspace	n/a
354.1925	0.1945	708385	keystroke	Key.backspace	n/a
354.432	0.075	708864	keystroke	a	n/a
354.492	0.09	708984	keystroke	g	n/a
354.552	0.12	709104	keystroke	e	n/a
354.657	0.075	709314	keystroke	n	n/a
354.762	0.09	709524	keystroke	t	n/a
354.853	0.089	709706	keystroke	Key.space	n/a
354.957	0.076	709914	keystroke	f	n/a
355.017	0.06	710034	keystroke	u	n/a
355.122	0.09	710244	keystroke	e	n/a
355.227	0.045	710454	keystroke	l	n/a
357.2825	0.09	714565	keystroke	Key.enter	n/a
357.3765	5.2325	714753	prompt	n/a	bones strong sealed construction\n
358.0025	0.075	716005	keystroke	b	n/a
358.1675	0.075	716335	keystroke	o	n/a
358.3175	0.09	716635	keystroke	n	n/a
358.3625	0.075	716725	keystroke	e	n/a
358.5275	0.075	717055	keystroke	s	n/a
358.6475	0.1045	717295	keystroke	Key.space	n/a
358.783	0.0895	717566	keystroke	s	n/a
359.0075	0.06	718015	keystroke	t	n/a
359.1725	0.075	718345	keystroke	r	n/a
359.2625	0.045	718525	keystroke	o	n/a
359.3975	0.045	718795	keystroke	n	n/a
359.4575	0.075	718915	keystroke	g	n/a
359.5625	0.105	719125	keystroke	Key.space	n/a
359.6825	0.045	719365	keystroke	s	n/a
359.832	0.09	719664	keystroke	e	n/a
359.937	0.09	719874	keystroke	a	n/a
360.057	0.075	720114	keystroke	l	n/a
360.117	0.06	720234	keystroke	e	n/a
360.282	0.045	720564	keystroke	d	n/a
360.357	0.09	720714	keystroke	Key.space	n/a
360.522	0.09	721044	keystroke	c	n/a
360.613	0.044	721226	keystroke	o	n/a
360.762	0.045	721524	keystroke	n	n/a
360.957	0.09	721914	keystroke	s	n/a
361.152	0.075	722304	keystroke	t	n/a
361.317	0.075	722634	keystroke	r	n/a
361.407	0.09	722814	keystroke	u	n/a
361.542	0.075	723084	keystroke	c	n/a
361.7825	0.075	723565	keystroke	t	n/a
361.9025	0.12	723805	keystroke	i	n/a
361.9775	0.075	723955	keystroke	o	n/a
362.2025	0.09	724405	keystroke	n	n/a
362.5325	0.075	725065	keystroke	Key.enter	n/a
362.6135	5.86	725227	prompt	n/a	banana insight inspections declare\n
363.2675	0.03	726535	keystroke	b	n/a
363.4775	0.09	726955	keystroke	a	n/a
363.6275	0.075	727255	keystroke	n	n/a
363.7325	0.075	727465	keystroke	a	n/a
363.8225	0.06	727645	keystroke	n	n/a
363.8975	0.09	727795	keystroke	a	n/a
364.1075	0.075	728215	keystroke	Key.space	n/a
364.2425	0.06	728485	keystroke	i	n/a
364.4075	0.09	728815	keystroke	n	n/a
364.5575	0.09	729115	keystroke	s	n/a
364.6625	0.09	729325	keystroke	i	n/a
364.8275	0.075	729655	keystroke	g	n/a
364.9475	0.09	729895	keystroke	h	n/a
365.0525	0.105	730105	keystroke	t	n/a
365.2175	0.075	730435	keystroke	Key.space	n/a
365.4275	0.0445	730855	keystroke	i	n/a
365.592	0.06	731184	keystroke	n	n/a
365.892	0.045	731784	keystroke	s	n/a
365.997	0.06	731994	keystroke	p	n/a
366.102	0.075	732204	keystroke	e	n/a
366.297	0.06	732594	keystroke	c	n/a
366.552	0.075	733104	keystroke	t	n/a
366.702	0.12	733404	keystroke	i	n/a
366.792	0.0755	733584	keystroke	o	n/a
366.9725	0.075	733945	keystroke	n	n/a
367.1075	0.059	734215	keystroke	s	n/a
367.1825	0.105	734365	keystroke	Key.space	n/a
367.3025	0.03	734605	keystroke	d	n/a
367.4525	0.075	734905	keystroke	e	n/a
367.6625	0.06	735325	keystroke	c	n/a
367.7525	0.06	735505	keystroke	l	n/a
367.8425	0.12	735685	keystroke	a	n/a
367.9025	0.105	735805	keystroke	r	n/a
367.9925	0.075	735985	keystroke	e	n/a
368.3675	0.105	736735	keystroke	Key.enter	n/a
368.478	4.6305	736956	prompt	n/a	traditional devices smith mine\n
369.1475	0.06	738295	keystroke	t	n/a
369.3125	0.075	738625	keystroke	r	n/a
369.3575	0.075	738715	keystroke	a	n/a
369.5375	0.075	739075	keystroke	d	n/a
369.6275	0.06	739255	keystroke	i	n/a
369.7475	0.105	739495	keystroke	t	n/a
369.8075	0.1195	739615	keystroke	i	n/a
369.8975	0.074	739795	keystroke	o	n/a
370.062	0.075	740124	keystroke	n	n/a
370.242	0.09	740484	keystroke	a	n/a
370.3765	0.09	740753	keystroke	l	n/a
370.422	0.105	740844	keystroke	Key.space	n/a
370.5425	0.0445	741085	keystroke	d	n/a
370.692	0.0755	741384	keystroke	e	n/a
370.8725	0.09	741745	keystroke	v	n/a
370.9475	0.06	741895	keystroke	i	n/a
371.0825	0.105	742165	keystroke	c	n/a
371.322	0.06	742644	keystroke	e	n/a
371.502	0.06	743004	keystroke	s	n/a
371.577	0.075	743154	keystroke	Key.space	n/a
371.697	0.09	743394	keystroke	s	n/a
371.802	0.075	743604	keystroke	m	n/a
371.997	0.075	743994	keystroke	i	n/a
372.117	0.09	744234	keystroke	t	n/a
372.192	0.09	744384	keystroke	h	n/a
372.267	0.075	744534	keystroke	Key.space	n/a
372.477	0.045	744954	keystroke	m	n/a
372.642	0.045	745284	keystroke	i	n/a
372.762	0.075	745524	keystroke	n	n/a
372.867	0.075	745734	keystroke	e	n/a
373.0475	0.06	746095	keystroke	Key.enter	n/a
373.1115	3.4775	746223	prompt	n/a	revised ours fitting paper\n
373.7675	0.09	747535	keystroke	r	n/a
373.8275	0.0905	747655	keystroke	e	n/a
374.022	0.031	748044	keystroke	v	n/a
374.067	0.076	748134	keystroke	i	n/a
374.172	0.06	748344	keystroke	s	n/a
374.307	0.045	748614	keystroke	e	n/a
374.473	0.03	748946	keystroke	d	n/a
374.532	0.135	749064	keystroke	Key.space	n/a
374.653	0.105	749306	keystroke	o	n/a
374.698	0.0895	749396	keystroke	u	n/a
374.773	0.059	749546	keystroke	r	n/a
374.938	0.0895	749876	keystroke	s	n/a
375.0425	0.105	750085	keystroke	Key.space	n/a
375.1775	0.075	750355	keystroke	f	n/a
375.2825	0.09	750565	keystroke	i	n/a
375.4025	0.06	750805	keystroke	t	n/a
375.5375	0.12	751075	keystroke	t	n/a
375.6575	0.03	751315	keystroke	i	n/a
375.7925	0.075	751585	keystroke	n	n/a
375.8675	0.09	751735	keystroke	g	n/a
375.9575	0.105	751915	keystroke	Key.space	n/a
376.0325	0.09	752065	keystroke	p	n/a
376.1225	0.135	752245	keystroke	a	n/a
376.2125	0.09	752425	keystroke	p	n/a
376.3025	0.09	752605	keystroke	e	n/a
376.3775	0.09	752755	keystroke	r	n/a
376.5275	0.06	753055	keystroke	Key.enter	n/a
376.592	4.137	753184	prompt	n/a	fighters serbia empty reaching\n
377.5025	0.0595	755005	keystroke	f	n/a
377.577	0.0605	755154	keystroke	i	n/a
377.6525	0.06	755305	keystroke	g	n/a
377.7575	0.045	755515	keystroke	h	n/a
377.8175	0.09	755635	keystroke	t	n/a
377.9525	0.105	755905	keystroke	e	n/a
378.0275	0.06	756055	keystroke	r	n/a
378.1775	0.075	756355	keystroke	s	n/a
378.2675	0.09	756535	keystroke	Key.space	n/a
378.3425	0.09	756685	keystroke	s	n/a
378.5075	0.105	757015	keystroke	e	n/a
378.5975	0.09	757195	keystroke	r	n/a
378.6575	0.06	757315	keystroke	b	n/a
378.8225	0.06	757645	keystroke	i	n/a
378.8825	0.09	757765	keystroke	a	n/a
379.0025	0.075	758005	keystroke	Key.space	n/a
379.0925	0.0745	758185	keystroke	e	n/a
379.197	0.045	758394	keystroke	m	n/a
379.3625	0.09	758725	keystroke	p	n/a
379.4675	0.105	758935	keystroke	t	n/a
379.5875	0.075	759175	keystroke	y	n/a
379.6325	0.09	759265	keystroke	Key.space	n/a
379.9025	0.105	759805	keystroke	r	n/a
379.9625	0.12	759925	keystroke	e	n/a
380.0975	0.12	760195	keystroke	a	n/a
380.2025	0.075	760405	keystroke	c	n/a
380.3075	0.075	760615	keystroke	h	n/a
380.3675	0.06	760735	keystroke	i	n/a
380.488	0.045	760976	keystroke	n	n/a
380.548	0.09	761096	keystroke	g	n/a
380.652	0.075	761304	keystroke	Key.enter	n/a
380.732	5.502	761464	prompt	n/a	well denver consumption iraq\n
381.433	0.09	762866	keystroke	w	n/a
381.493	0.09	762986	keystroke	e	n/a
381.598	0.06	763196	keystroke	l	n/a
381.733	0.09	763466	keystroke	l	n/a
381.763	0.12	763526	keystroke	Key.space	n/a
381.868	0.06	763736	keystroke	d	n/a
382.018	0.075	764036	keystroke	e	n/a
382.108	0.06	764216	keystroke	n	n/a
382.198	0.06	764396	keystroke	v	n/a
382.438	0.075	764876	keystroke	r	n/a
383.232	0.075	766464	keystroke	Key.backspace	n/a
383.442	0.0905	766884	keystroke	e	n/a
383.4875	0.105	766975	keystroke	r	n/a
383.6525	0.09	767305	keystroke	Key.space	n/a
383.7875	0.09	767575	keystroke	c	n/a
383.8625	0.03	767725	keystroke	o	n/a
383.967	0.075	767934	keystroke	n	n/a
384.072	0.135	768144	keystroke	s	n/a
384.312	0.015	768624	keystroke	u	n/a
384.417	0.045	768834	keystroke	m	n/a
384.6125	0.105	769225	keystroke	p	n/a
384.7475	0.105	769495	keystroke	t	n/a
384.8675	0.1205	769735	keystroke	i	n/a
384.958	0.09	769916	keystroke	o	n/a
385.153	0.09	770306	keystroke	n	n/a
385.213	0.135	770426	keystroke	Key.space	n/a
385.348	0.075	770696	keystroke	i	n/a
385.437	0.121	770874	keystroke	r	n/a
385.528	0.135	771056	keystroke	a	n/a
385.783	0.09	771566	keystroke	q	n/a
386.187	0.045	772374	keystroke	Key.enter	n/a
386.237	6.237	772474	prompt	n/a	politicians indexed transfer bite\n
386.892	0.12	773784	keystroke	p	n/a
387.013	0.074	774026	keystroke	o	n/a
387.327	0.075	774654	keystroke	l	n/a
387.568	0.074	775136	keystroke	i	n/a
387.687	0.06	775374	keystroke	t	n/a
387.777	0.105	775554	keystroke	i	n/a
387.912	0.06	775824	keystroke	c	n/a
388.002	0.03	776004	keystroke	i	n/a
388.092	0.06	776184	keystroke	a	n/a
388.227	0.031	776454	keystroke	n	n/a
388.2875	0.0755	776575	keystroke	s	n/a
388.9775	0.09	777955	keystroke	Key.space	n/a
389.113	0.0745	778226	keystroke	i	n/a
389.2925	0.06	778585	keystroke	n	n/a
389.413	0.0595	778826	keystroke	d	n/a
389.578	0.0745	779156	keystroke	e	n/a
389.863	0.075	779726	keystroke	x	n/a
390.118	0.045	780236	keystroke	e	n/a
390.3125	0.0595	780625	keystroke	d	n/a
390.8075	0.0605	781615	keystroke	Key.space	n/a
390.928	0.075	781856	keystroke	t	n/a
391.078	0.075	782156	keystroke	r	n/a
391.123	0.075	782246	keystroke	a	n/a
391.213	0.06	782426	keystroke	n	n/a
391.318	0.0595	782636	keystroke	s	n/a
391.4375	0.075	782875	keystroke	f	n/a
391.602	0.076	783204	keystroke	e	n/a
391.662	0.06	783324	keystroke	r	n/a
391.737	0.06	783474	keystroke	Key.space	n/a
391.873	0.074	783746	keystroke	b	n/a
392.008	0.104	784016	keystroke	i	n/a
392.068	0.059	784136	keystroke	t	n/a
392.217	0.076	784434	keystroke	e	n/a
392.412	0.06	784824	keystroke	Key.enter	n/a
392.477	5.187	784954	prompt	n/a	amend circles gain subjective\n
393.2525	0.09	786505	keystroke	a	n/a
393.4025	0.045	786805	keystroke	m	n/a
393.4775	0.06	786955	keystroke	e	n/a
394.002	0.06	788004	keystroke	n	n/a
394.077	0.061	788154	keystroke	d	n/a
394.198	0.09	788396	keystroke	Key.space	n/a
394.303	0.09	788606	keystroke	c	n/a
394.423	0.09	788846	keystroke	i	n/a
394.558	0.045	789116	keystroke	r	n/a
394.768	0.06	789536	keystroke	c	n/a
394.843	0.075	789686	keystroke	l	n/a
394.963	0.075	789926	keystroke	e	n/a
395.158	0.06	790316	keystroke	s	n/a
395.233	0.075	790466	keystroke	Key.space	n/a
395.353	0.1045	790706	keystroke	g	n/a
395.443	0.1045	790886	keystroke	a	n/a
395.5325	0.045	791065	keystroke	i	n/a
395.6825	0.105	791365	keystroke	n	n/a
395.7725	0.09	791545	keystroke	Key.space	n/a
395.8775	0.09	791755	keystroke	s	n/a
395.9825	0.06	791965	keystroke	u	n/a
396.1475	0.045	792295	keystroke	b	n/a
396.3125	0.075	792625	keystroke	j	n/a
396.4025	0.09	792805	keystroke	e	n/a
396.6125	0.045	793225	keystroke	c	n/a
396.8225	0.0595	793645	keystroke	t	n/a
396.928	0.044	793856	keystroke	i	n/a
397.212	0.09	794424	keystroke	v	n/a
397.287	0.061	794574	keystroke	e	n/a
397.572	0.09	795144	keystroke	Key.enter	n/a
397.667	5.262	795334	prompt	n/a	helping vietnam plaza arrivals\n
398.308	0.074	796616	keystroke	h	n/a
398.397	0.075	796794	keystroke	e	n/a
398.517	0.045	797034	keystroke	l	n/a
398.698	0.029	797396	keystroke	p	n/a
398.832	0.0605	797664	keystroke	i	n/a
399.0125	0.045	798025	keystroke	n	n/a
399.0725	0.09	798145	keystroke	g	n/a
399.1925	0.09	798385	keystroke	Key.space	n/a
399.2975	0.06	798595	keystroke	v	n/a
399.4175	0.06	798835	keystroke	i	n/a
399.4925	0.105	798985	keystroke	e	n/a
399.6875	0.09	799375	keystroke	t	n/a
399.8375	0.075	799675	keystroke	n	n/a
400.0025	0.12	800005	keystroke	a	n/a
400.0925	0.06	800185	keystroke	m	n/a
400.2575	0.075	800515	keystroke	Key.space	n/a
400.378	0.074	800756	keystroke	p	n/a
400.558	0.044	801116	keystroke	l	n/a
400.663	0.09	801326	keystroke	a	n/a
400.872	0.0755	801744	keystroke	z	n/a
401.0525	0.09	802105	keystroke	a	n/a
401.6825	0.09	803365	keystroke	Key.space	n/a
401.8175	0.075	803635	keystroke	a	n/a
401.9975	0.06	803995	keystroke	r	n/a
402.1325	0.075	804265	keystroke	r	n/a
402.2825	0.045	804565	keystroke	i	n/a
402.4175	0.09	804835	keystroke	v	n/a
402.4925	0.105	804985	keystroke	a	n/a
402.5825	0.075	805165	keystroke	l	n/a
402.6725	0.075	805345	keystroke	s	n/a
402.8075	0.12	805615	keystroke	Key.enter	n/a
402.9315	4.5725	805863	prompt	n/a	epson case giants penetration\n
403.6475	0.06	807295	keystroke	e	n/a
403.7375	0.075	807475	keystroke	p	n/a
403.8275	0.09	807655	keystroke	s	n/a
403.9175	0.06	807835	keystroke	o	n/a
404.0975	0.075	808195	keystroke	n	n/a
404.1425	0.09	808285	keystroke	Key.space	n/a
404.3075	0.06	808615	keystroke	c	n/a
404.3525	0.09	808705	keystroke	a	n/a
404.5325	0.075	809065	keystroke	s	n/a
404.6825	0.075	809365	keystroke	e	n/a
404.8325	0.105	809665	keystroke	Key.space	n/a
405.0425	0.09	810085	keystroke	g	n/a
405.1475	0.06	810295	keystroke	i	n/a
405.2375	0.09	810475	keystroke	a	n/a
405.3425	0.0605	810685	keystroke	n	n/a
405.448	0.06	810896	keystroke	t	n/a
405.628	0.09	811256	keystroke	s	n/a
405.748	0.06	811496	keystroke	Key.space	n/a
405.868	0.09	811736	keystroke	p	n/a
405.973	0.06	811946	keystroke	e	n/a
406.063	0.06	812126	keystroke	n	n/a
406.183	0.075	812366	keystroke	e	n/a
406.4825	0.075	812965	keystroke	t	n/a
406.6475	0.105	813295	keystroke	r	n/a
406.7375	0.045	813475	keystroke	a	n/a
406.8275	0.105	813655	keystroke	t	n/a
406.9475	0.105	813895	keystroke	i	n/a
407.0375	0.045	814075	keystroke	o	n/a
407.1875	0.06	814375	keystroke	n	n/a
407.3975	0.105	814795	keystroke	Key.enter	n/a
407.507	11.127	815014	prompt	n/a	served deferred photographic confidence\n
408.342	0.03	816684	keystroke	s	n/a
408.478	0.089	816956	keystroke	e	n/a
408.747	0.06	817494	keystroke	v	n/a
409.3175	0.09	818635	keystroke	Key.backspace	n/a
409.4825	0.09	818965	keystroke	r	n/a
409.7225	0.09	819445	keystroke	v	n/a
409.9325	0.06	819865	keystroke	e	n/a
410.0975	0.09	820195	keystroke	d	n/a
410.2775	0.12	820555	keystroke	Key.space	n/a
410.4425	0.0755	820885	keystroke	d	n/a
410.653	0.06	821306	keystroke	e	n/a
410.8625	0.045	821725	keystroke	f	n/a
411.0125	0.045	822025	keystroke	f	n/a
411.987	0.06	823974	keystroke	Key.backspace	n/a
412.393	0.059	824786	keystroke	e	n/a
412.723	0.029	825446	keystroke	r	n/a
412.8575	0.0605	825715	keystroke	r	n/a
412.993	0.06	825986	keystroke	e	n/a
413.188	0.03	826376	keystroke	d	n/a
413.247	0.076	826494	keystroke	Key.space	n/a
413.428	0.09	826856	keystroke	p	n/a
413.668	0.06	827336	keystroke	h	n/a
414.013	0.06	828026	keystroke	t	n/a
414.5675	0.09	829135	keystroke	Key.backspace	n/a
414.853	0.0745	829706	keystroke	o	n/a
414.9725	0.09	829945	keystroke	t	n/a
415.0635	0.059	830127	keystroke	o	n/a
415.1375	0.075	830275	keystroke	g	n/a
415.3025	0.075	830605	keystroke	r	n/a
415.3625	0.1055	830725	keystroke	a	n/a
415.423	0.105	830846	keystroke	p	n/a
415.648	0.105	831296	keystroke	h	n/a
415.738	0.09	831476	keystroke	i	n/a
415.858	0.0895	831716	keystroke	c	n/a
416.3375	0.09	832675	keystroke	Key.space	n/a
416.4875	0.105	832975	keystroke	c	n/a
416.5775	0.045	833155	keystroke	o	n/a
416.7125	0.075	833425	keystroke	n	n/a
416.8325	0.045	833665	keystroke	d	n/a
417.5825	0.015	835165	keystroke	Key.backspace	n/a
417.702	0.06	835404	keystroke	f	n/a
417.777	0.075	835554	keystroke	i	n/a
417.8975	0.045	835795	keystroke	d	n/a
418.047	0.0755	836094	keystroke	e	n/a
418.1235	0.044	836247	keystroke	n	n/a
418.2275	0.09	836455	keystroke	c	n/a
418.2875	0.105	836575	keystroke	e	n/a
418.5275	0.105	837055	keystroke	Key.enter	n/a
418.637	4.062	837274	prompt	n/a	quiet duke everyone navigator\n
419.4275	0.105	838855	keystroke	q	n/a
419.5175	0.105	839035	keystroke	u	n/a
419.6075	0.105	839215	keystroke	i	n/a
419.7275	0.045	839455	keystroke	e	n/a
419.8775	0.075	839755	keystroke	t	n/a
419.9675	0.0905	839935	keystroke	Key.space	n/a
420.073	0.09	840146	keystroke	d	n/a
420.148	0.06	840296	keystroke	u	n/a
420.328	0.045	840656	keystroke	k	n/a
420.373	0.09	840746	keystroke	e	n/a
420.492	0.09	840984	keystroke	Key.space	n/a
420.568	0.09	841136	keystroke	e	n/a
420.733	0.09	841466	keystroke	v	n/a
420.9275	0.075	841855	keystroke	e	n/a
420.9875	0.09	841975	keystroke	r	n/a
421.0785	0.089	842157	keystroke	y	n/a
421.2275	0.075	842455	keystroke	o	n/a
421.377	0.075	842754	keystroke	n	n/a
421.467	0.06	842934	keystroke	e	n/a
421.557	0.03	843114	keystroke	Key.space	n/a
421.572	0.106	843144	keystroke	n	n/a
421.663	0.1195	843326	keystroke	a	n/a
421.8275	0.06	843655	keystroke	v	n/a
421.9325	0.03	843865	keystroke	i	n/a
422.0075	0.09	844015	keystroke	g	n/a
422.0825	0.105	844165	keystroke	a	n/a
422.2325	0.075	844465	keystroke	t	n/a
422.3675	0.075	844735	keystroke	o	n/a
422.4575	0.075	844915	keystroke	r	n/a
422.5925	0.105	845185	keystroke	Key.enter	n/a
422.704	7.78	845408	prompt	n/a	aquatic paragraph packard cologne\n
423.6425	0.09	847285	keystroke	a	n/a
423.8975	0.09	847795	keystroke	q	n/a
424.0775	0.0745	848155	keystroke	u	n/a
424.213	0.09	848426	keystroke	a	n/a
424.363	0.09	848726	keystroke	t	n/a
424.498	0.104	848996	keystroke	i	n/a
424.647	0.075	849294	keystroke	c	n/a
