onset	duration	sample	value	key	prompt_text
9.044	7.854	18088	prompt	n/a	the quick brown fox jumps over a lazy dog\n
10.5825	0.043	21165	keystroke_t	t	n/a
10.6405	0.18	21281	keystroke_h	h	n/a
10.7905	0.091	21581	keystroke_e	e	n/a
10.9255	0.135	21851	keystroke_Key.space	Key.space	n/a
11.0905	0.105	22181	keystroke_q	q	n/a
11.2105	0.1355	22421	keystroke_u	u	n/a
11.316	0.135	22632	keystroke_i	i	n/a
11.511	0.135	23022	keystroke_c	c	n/a
11.616	0.165	23232	keystroke_k	k	n/a
11.796	0.105	23592	keystroke_Key.space	Key.space	n/a
11.916	0.135	23832	keystroke_b	b	n/a
12.051	0.105	24102	keystroke_r	r	n/a
12.171	0.12	24342	keystroke_o	o	n/a
12.305	0.121	24610	keystroke_w	w	n/a
12.441	0.135	24882	keystroke_n	n	n/a
12.591	0.12	25182	keystroke_Key.space	Key.space	n/a
12.681	0.09	25362	keystroke_f	f	n/a
12.786	0.165	25572	keystroke_o	o	n/a
12.966	0.12	25932	keystroke_x	x	n/a
13.101	0.15	26202	keystroke_Key.space	Key.space	n/a
13.5505	0.09	27101	keystroke_j	j	n/a
13.7455	0.09	27491	keystroke_u	u	n/a
13.9855	0.09	27971	keystroke_m	m	n/a
14.2105	0.12	28421	keystroke_p	p	n/a
14.3005	0.105	28601	keystroke_s	s	n/a
14.4355	0.12	28871	keystroke_Key.space	Key.space	n/a
14.5405	0.165	29081	keystroke_o	o	n/a
14.6455	0.105	29291	keystroke_v	v	n/a
14.8855	0.135	29771	keystroke_e	e	n/a
14.9605	0.135	29921	keystroke_r	r	n/a
15.0655	0.12	30131	keystroke_Key.space	Key.space	n/a
15.2455	0.12	30491	keystroke_a	a	n/a
15.3355	0.12	30671	keystroke_Key.space	Key.space	n/a
15.5005	0.165	31001	keystroke_l	l	n/a
15.5755	0.075	31151	keystroke_a	a	n/a
15.7855	0.0745	31571	keystroke_z	z	n/a
16.0105	0.09	32021	keystroke_y	y	n/a
16.1155	0.105	32231	keystroke_Key.space	Key.space	n/a
16.3255	0.105	32651	keystroke_d	d	n/a
16.4455	0.105	32891	keystroke_o	o	n/a
16.5805	0.105	33161	keystroke_g	g	n/a
16.8355	0.06	33671	keystroke_Key.enter	Key.enter	n/a
16.902	10.0455	33804	prompt	n/a	script holocaust hearings jewellery\n
18.095	0.105	36190	keystroke_s	s	n/a
18.3505	0.105	36701	keystroke_c	c	n/a
18.5905	0.105	37181	keystroke_r	r	n/a
18.7405	0.165	37481	keystroke_i	i	n/a
18.8605	0.165	37721	keystroke_p	p	n/a
19.0555	0.105	38111	keystroke_t	t	n/a
19.2805	0.12	38561	keystroke_Key.space	Key.space	n/a
19.8805	0.1355	39761	keystroke_h	h	n/a
20.1355	0.075	40271	keystroke_o	o	n/a
20.4055	0.135	40811	keystroke_l	l	n/a
21.051	0.09	42102	keystroke_o	o	n/a
21.5	0.12	43000	keystroke_c	c	n/a
21.665	0.1055	43330	keystroke_a	a	n/a
21.9955	0.09	43991	keystroke_u	u	n/a
22.2355	0.105	44471	keystroke_s	s	n/a
22.446	0.135	44892	keystroke_t	t	n/a
22.611	0.12	45222	keystroke_Key.space	Key.space	n/a
22.836	0.12	45672	keystroke_h	h	n/a
22.971	0.09	45942	keystroke_e	e	n/a
23.196	0.15	46392	keystroke_a	a	n/a
23.256	0.12	46512	keystroke_r	r	n/a
23.421	0.09	46842	keystroke_i	i	n/a
23.466	0.18	46932	keystroke_n	n	n/a
23.586	0.09	47172	keystroke_g	g	n/a
23.811	0.15	47622	keystroke_s	s	n/a
23.931	0.135	47862	keystroke_Key.space	Key.space	n/a
24.126	0.15	48252	keystroke_j	j	n/a
24.291	0.1045	48582	keystroke_e	e	n/a
24.5005	0.105	49001	keystroke_w	w	n/a
24.7405	0.105	49481	keystroke_l	l	n/a
25.611	0.0895	51222	keystroke_Key.backspace	Key.backspace	n/a
25.7605	0.12	51521	keystroke_e	e	n/a
25.9255	0.105	51851	keystroke_l	l	n/a
26.1355	0.09	52271	keystroke_l	l	n/a
26.2405	0.165	52481	keystroke_e	e	n/a
26.3755	0.105	52751	keystroke_r	r	n/a
26.6155	0.105	53231	keystroke_y	y	n/a
26.8855	0.06	53771	keystroke_Key.enter	Key.enter	n/a
26.952	6.025	53904	prompt	n/a	dairy whereas phoenix fairy\n
27.6055	0.1205	55211	keystroke_d	d	n/a
27.816	0.135	55632	keystroke_a	a	n/a
27.921	0.135	55842	keystroke_i	i	n/a
28.086	0.105	56172	keystroke_r	r	n/a
28.371	0.12	56742	keystroke_y	y	n/a
28.596	0.12	57192	keystroke_Key.space	Key.space	n/a
28.836	0.075	57672	keystroke_w	w	n/a
28.926	0.15	57852	keystroke_h	h	n/a
29.135	0.106	58270	keystroke_e	e	n/a
29.195	0.1805	58390	keystroke_r	r	n/a
29.3455	0.105	58691	keystroke_e	e	n/a
29.6155	0.075	59231	keystroke_a	a	n/a
29.855	0.091	59710	keystroke_s	s	n/a
30.096	0.149	60192	keystroke_Key.space	Key.space	n/a
30.35	0.106	60700	keystroke_p	p	n/a
30.576	0.12	61152	keystroke_h	h	n/a
30.801	0.09	61602	keystroke_o	o	n/a
30.996	0.075	61992	keystroke_e	e	n/a
31.086	0.135	62172	keystroke_n	n	n/a
31.326	0.12	62652	keystroke_i	i	n/a
31.461	0.12	62922	keystroke_x	x	n/a
31.641	0.1195	63282	keystroke_Key.space	Key.space	n/a
31.8355	0.09	63671	keystroke_f	f	n/a
32.0455	0.105	64091	keystroke_a	a	n/a
32.1805	0.12	64361	keystroke_i	i	n/a
32.361	0.09	64722	keystroke_r	r	n/a
32.661	0.09	65322	keystroke_y	y	n/a
32.901	0.075	65802	keystroke_Key.enter	Key.enter	n/a
32.9795	5.6825	65959	prompt	n/a	sitting stone rochester system\n
33.546	0.09	67092	keystroke_s	s	n/a
33.6365	0.119	67273	keystroke_i	i	n/a
33.7855	0.075	67571	keystroke_t	t	n/a
33.996	0.105	67992	keystroke_t	t	n/a
34.116	0.135	68232	keystroke_i	i	n/a
34.2205	0.1805	68441	keystroke_n	n	n/a
34.385	0.121	68770	keystroke_g	g	n/a
34.521	0.165	69042	keystroke_Key.space	Key.space	n/a
34.746	0.119	69492	keystroke_s	s	n/a
34.985	0.106	69970	keystroke_t	t	n/a
35.106	0.164	70212	keystroke_o	o	n/a
35.196	0.21	70392	keystroke_n	n	n/a
35.39	0.105	70780	keystroke_e	e	n/a
35.51	0.15	71020	keystroke_Key.space	Key.space	n/a
35.736	0.12	71472	keystroke_r	r	n/a
35.886	0.12	71772	keystroke_o	o	n/a
36.111	0.105	72222	keystroke_c	c	n/a
36.171	0.15	72342	keystroke_h	h	n/a
36.351	0.165	72702	keystroke_e	e	n/a
36.471	0.165	72942	keystroke_s	s	n/a
36.651	0.105	73302	keystroke_t	t	n/a
36.801	0.21	73602	keystroke_e	e	n/a
36.936	0.135	73872	keystroke_r	r	n/a
37.116	0.105	74232	keystroke_Key.space	Key.space	n/a
37.266	0.105	74532	keystroke_s	s	n/a
37.491	0.105	74982	keystroke_y	y	n/a
37.686	0.1645	75372	keystroke_s	s	n/a
37.8205	0.105	75641	keystroke_t	t	n/a
37.97	0.105	75940	keystroke_e	e	n/a
38.24	0.1205	76480	keystroke_m	m	n/a
38.6155	0.045	77231	keystroke_Key.enter	Key.enter	n/a
38.6645	6.4475	77329	prompt	n/a	liberia trinidad achieved newly\n
39.32	0.165	78640	keystroke_l	l	n/a
39.455	0.12	78910	keystroke_i	i	n/a
39.665	0.165	79330	keystroke_b	b	n/a
39.89	0.12	79780	keystroke_e	e	n/a
39.965	0.12	79930	keystroke_r	r	n/a
40.13	0.135	80260	keystroke_i	i	n/a
40.295	0.135	80590	keystroke_a	a	n/a
40.55	0.106	81100	keystroke_Key.space	Key.space	n/a
40.82	0.09	81640	keystroke_t	t	n/a
41.03	0.105	82060	keystroke_r	r	n/a
41.181	0.1345	82362	keystroke_i	i	n/a
41.3305	0.135	82661	keystroke_n	n	n/a
41.5255	0.1045	83051	keystroke_i	i	n/a
41.69	0.105	83380	keystroke_d	d	n/a
41.975	0.1055	83950	keystroke_a	a	n/a
42.1855	0.09	84371	keystroke_d	d	n/a
42.3505	0.12	84701	keystroke_Key.space	Key.space	n/a
42.4715	0.104	84943	keystroke_a	a	n/a
42.6955	0.105	85391	keystroke_c	c	n/a
42.7855	0.12	85571	keystroke_h	h	n/a
42.9205	0.15	85841	keystroke_i	i	n/a
43.0855	0.075	86171	keystroke_e	e	n/a
43.3105	0.1045	86621	keystroke_v	v	n/a
43.505	0.0755	87010	keystroke_e	e	n/a
43.7155	0.105	87431	keystroke_d	d	n/a
43.8355	0.09	87671	keystroke_Key.space	Key.space	n/a
43.9855	0.1655	87971	keystroke_n	n	n/a
44.076	0.18	88152	keystroke_e	e	n/a
44.211	0.135	88422	keystroke_w	w	n/a
44.571	0.0895	89142	keystroke_l	l	n/a
44.751	0.105	89502	keystroke_y	y	n/a
45.021	0.09	90042	keystroke_Key.enter	Key.enter	n/a
45.1145	5.8325	90229	prompt	n/a	threads provides belarus mile\n
45.7855	0.12	91571	keystroke_t	t	n/a
45.8905	0.135	91781	keystroke_h	h	n/a
46.1005	0.12	92201	keystroke_r	r	n/a
46.2055	0.105	92411	keystroke_e	e	n/a
46.4605	0.12	92921	keystroke_a	a	n/a
46.6105	0.12	93221	keystroke_d	d	n/a
46.8055	0.15	93611	keystroke_s	s	n/a
47.0455	0.09	94091	keystroke_Key.space	Key.space	n/a
47.1805	0.15	94361	keystroke_p	p	n/a
47.2855	0.09	94571	keystroke_r	r	n/a
47.4055	0.1205	94811	keystroke_o	o	n/a
47.541	0.105	95082	keystroke_v	v	n/a
47.706	0.105	95412	keystroke_i	i	n/a
47.766	0.09	95532	keystroke_d	d	n/a
47.976	0.15	95952	keystroke_e	e	n/a
48.096	0.135	96192	keystroke_s	s	n/a
48.276	0.09	96552	keystroke_Key.space	Key.space	n/a
48.486	0.135	96972	keystroke_b	b	n/a
48.606	0.105	97212	keystroke_e	e	n/a
48.906	0.12	97812	keystroke_l	l	n/a
49.221	0.12	98442	keystroke_a	a	n/a
49.371	0.135	98742	keystroke_r	r	n/a
49.536	0.15	99072	keystroke_u	u	n/a
49.656	0.12	99312	keystroke_s	s	n/a
49.821	0.12	99642	keystroke_Key.space	Key.space	n/a
50.076	0.105	100152	keystroke_m	m	n/a
50.2255	0.1055	100451	keystroke_i	i	n/a
50.481	0.12	100962	keystroke_l	l	n/a
50.631	0.12	101262	keystroke_e	e	n/a
50.901	0.045	101802	keystroke_Key.enter	Key.enter	n/a
50.951	6.1465	101902	prompt	n/a	sensor program brooks adjustable\n
51.5905	0.18	103181	keystroke_s	s	n/a
51.6955	0.09	103391	keystroke_e	e	n/a
51.9205	0.135	103841	keystroke_n	n	n/a
52.2655	0.075	104531	keystroke_s	s	n/a
52.5055	0.12	105011	keystroke_o	o	n/a
52.6555	0.15	105311	keystroke_r	r	n/a
52.8205	0.09	105641	keystroke_Key.space	Key.space	n/a
52.9555	0.105	105911	keystroke_p	p	n/a
53.0305	0.09	106061	keystroke_r	r	n/a
53.1505	0.135	106301	keystroke_o	o	n/a
53.2555	0.09	106511	keystroke_g	g	n/a
53.4355	0.12	106871	keystroke_r	r	n/a
53.6155	0.135	107231	keystroke_a	a	n/a
53.7205	0.15	107441	keystroke_m	m	n/a
53.9155	0.105	107831	keystroke_Key.space	Key.space	n/a
54.1555	0.105	108311	keystroke_b	b	n/a
54.3355	0.12	108671	keystroke_r	r	n/a
54.5005	0.09	109001	keystroke_o	o	n/a
54.6805	0.075	109361	keystroke_o	o	n/a
54.9205	0.12	109841	keystroke_k	k	n/a
55.0855	0.105	110171	keystroke_s	s	n/a
55.2055	0.165	110411	keystroke_Key.space	Key.space	n/a
55.3555	0.12	110711	keystroke_a	a	n/a
55.5655	0.1355	111131	keystroke_d	d	n/a
55.671	0.12	111342	keystroke_j	j	n/a
55.896	0.105	111792	keystroke_u	u	n/a
56.016	0.15	112032	keystroke_s	s	n/a
56.136	0.1345	112272	keystroke_t	t	n/a
56.3755	0.135	112751	keystroke_a	a	n/a
56.4505	0.075	112901	keystroke_b	b	n/a
56.6455	0.105	113291	keystroke_l	l	n/a
56.7655	0.12	113531	keystroke_e	e	n/a
57.0205	0.0745	114041	keystroke_Key.enter	Key.enter	n/a
57.1025	6.6995	114205	prompt	n/a	adopted delivering across captain\n
57.6655	0.165	115331	keystroke_a	a	n/a
57.8455	0.12	115691	keystroke_d	d	n/a
58.2805	0.09	116561	keystroke_o	o	n/a
58.4305	0.105	116861	keystroke_p	p	n/a
58.6855	0.105	117371	keystroke_t	t	n/a
58.8805	0.09	117761	keystroke_e	e	n/a
59.1205	0.09	118241	keystroke_d	d	n/a
59.2405	0.105	118481	keystroke_Key.space	Key.space	n/a
59.361	0.09	118722	keystroke_d	d	n/a
59.571	0.0445	119142	keystroke_e	e	n/a
60.1705	0.18	120341	keystroke_l	l	n/a
60.2755	0.15	120551	keystroke_i	i	n/a
60.3955	0.075	120791	keystroke_v	v	n/a
60.5905	0.1355	121181	keystroke_e	e	n/a
60.666	0.135	121332	keystroke_r	r	n/a
60.786	0.15	121572	keystroke_i	i	n/a
60.891	0.18	121782	keystroke_n	n	n/a
61.041	0.119	122082	keystroke_g	g	n/a
61.19	0.135	122380	keystroke_Key.space	Key.space	n/a
61.385	0.12	122770	keystroke_a	a	n/a
61.61	0.1055	123220	keystroke_c	c	n/a
61.8655	0.105	123731	keystroke_r	r	n/a
61.9555	0.105	123911	keystroke_o	o	n/a
62.1055	0.12	124211	keystroke_s	s	n/a
62.3155	0.105	124631	keystroke_s	s	n/a
62.4505	0.1055	124901	keystroke_Key.space	Key.space	n/a
62.571	0.1195	125142	keystroke_c	c	n/a
62.721	0.12	125442	keystroke_a	a	n/a
62.826	0.105	125652	keystroke_p	p	n/a
62.9905	0.09	125981	keystroke_t	t	n/a
63.2155	0.105	126431	keystroke_a	a	n/a
63.3055	0.12	126611	keystroke_i	i	n/a
63.3805	0.12	126761	keystroke_n	n	n/a
63.725	0.075	127450	keystroke_Key.enter	Key.enter	n/a
63.806	7.481	127612	prompt	n/a	todd payment traveling subscriber\n
64.43	0.105	128860	keystroke_t	t	n/a
64.521	0.089	129042	keystroke_o	o	n/a
64.715	0.105	129430	keystroke_d	d	n/a
64.895	0.105	129790	keystroke_d	d	n/a
65.045	0.09	130090	keystroke_Key.space	Key.space	n/a
65.165	0.106	130330	keystroke_p	p	n/a
65.241	0.09	130482	keystroke_a	a	n/a
65.481	0.09	130962	keystroke_y	y	n/a
65.646	0.1195	131292	keystroke_m	m	n/a
65.7805	0.09	131561	keystroke_e	e	n/a
65.8855	0.15	131771	keystroke_n	n	n/a
66.0205	0.105	132041	keystroke_t	t	n/a
66.1555	0.15	132311	keystroke_Key.space	Key.space	n/a
66.2905	0.09	132581	keystroke_t	t	n/a
66.5155	0.12	133031	keystroke_r	r	n/a
66.6205	0.12	133241	keystroke_a	a	n/a
66.8905	0.12	133781	keystroke_v	v	n/a
67.0555	0.09	134111	keystroke_e	e	n/a
67.1305	0.075	134261	keystroke_l	l	n/a
67.311	0.075	134622	keystroke_l	l	n/a
67.7305	0.075	135461	keystroke_Key.backspace	Key.backspace	n/a
68.5555	0.105	137111	keystroke_i	i	n/a
68.6605	0.12	137321	keystroke_n	n	n/a
68.7805	0.135	137561	keystroke_g	g	n/a
68.9455	0.135	137891	keystroke_Key.space	Key.space	n/a
69.1255	0.1345	138251	keystroke_s	s	n/a
69.32	0.15	138640	keystroke_u	u	n/a
69.485	0.15	138970	keystroke_b	b	n/a
69.995	0.1055	139990	keystroke_s	s	n/a
70.1755	0.135	140351	keystroke_c	c	n/a
70.4305	0.09	140861	keystroke_r	r	n/a
70.5215	0.074	141043	keystroke_i	i	n/a
70.7005	0.135	141401	keystroke_b	b	n/a
70.8205	0.165	141641	keystroke_e	e	n/a
70.9255	0.135	141851	keystroke_r	r	n/a
71.1955	0.0905	142391	keystroke_Key.enter	Key.enter	n/a
71.29	8.577	142580	prompt	n/a	daren't panasonic voting punishment\n
71.811	0.135	143622	keystroke_d	d	n/a
72.1105	0.12	144221	keystroke_a	a	n/a
72.2905	0.12	144581	keystroke_r	r	n/a
72.4705	0.105	144941	keystroke_e	e	n/a
72.6955	0.09	145391	keystroke_n	n	n/a
72.936	0.135	145872	keystroke_'	'	n/a
73.176	0.105	146352	keystroke_t	t	n/a
73.416	0.12	146832	keystroke_Key.space	Key.space	n/a
73.701	0.12	147402	keystroke_p	p	n/a
73.836	0.15	147672	keystroke_a	a	n/a
74.136	0.12	148272	keystroke_n	n	n/a
74.286	0.12	148572	keystroke_a	a	n/a
74.826	0.12	149652	keystroke_s	s	n/a
75.021	0.105	150042	keystroke_o	o	n/a
75.201	0.12	150402	keystroke_c	c	n/a
75.741	0.075	151482	keystroke_Key.backspace	Key.backspace	n/a
75.996	0.1195	151992	keystroke_n	n	n/a
76.206	0.135	152412	keystroke_i	i	n/a
76.296	0.12	152592	keystroke_c	c	n/a
76.401	0.135	152802	keystroke_Key.space	Key.space	n/a
76.626	0.105	153252	keystroke_v	v	n/a
76.716	0.12	153432	keystroke_o	o	n/a
76.956	0.09	153912	keystroke_t	t	n/a
77.061	0.12	154122	keystroke_i	i	n/a
77.151	0.165	154302	keystroke_n	n	n/a
77.286	0.12	154572	keystroke_g	g	n/a
77.481	0.12	154962	keystroke_Key.space	Key.space	n/a
77.826	0.09	155652	keystroke_p	p	n/a
78.051	0.09	156102	keystroke_u	u	n/a
78.171	0.15	156342	keystroke_n	n	n/a
78.546	0.12	157092	keystroke_i	i	n/a
78.696	0.135	157392	keystroke_s	s	n/a
78.816	0.105	157632	keystroke_h	h	n/a
79.0855	0.105	158171	keystroke_m	m	n/a
79.2355	0.0905	158471	keystroke_e	e	n/a
79.356	0.09	158712	keystroke_n	n	n/a
79.521	0.12	159042	keystroke_t	t	n/a
79.79	0.075	159580	keystroke_Key.enter	Key.enter	n/a
79.87	5.037	159740	prompt	n/a	ranger drum plan francis\n
80.541	0.089	161082	keystroke_r	r	n/a
80.66	0.135	161320	keystroke_a	a	n/a
80.811	0.105	161622	keystroke_n	n	n/a
80.945	0.045	161890	keystroke_g	g	n/a
81.126	0.089	162252	keystroke_e	e	n/a
81.425	0.09	162850	keystroke_r	r	n/a
81.62	0.136	163240	keystroke_Key.space	Key.space	n/a
81.771	0.104	163542	keystroke_d	d	n/a
82.025	0.136	164050	keystroke_r	r	n/a
82.175	0.075	164350	keystroke_u	u	n/a
82.445	0.12	164890	keystroke_m	m	n/a
82.595	0.12	165190	keystroke_Key.space	Key.space	n/a
82.746	0.12	165492	keystroke_p	p	n/a
83.0155	0.105	166031	keystroke_l	l	n/a
83.0605	0.105	166121	keystroke_a	a	n/a
83.2705	0.15	166541	keystroke_n	n	n/a
83.4355	0.09	166871	keystroke_Key.space	Key.space	n/a
83.5555	0.06	167111	keystroke_f	f	n/a
83.7205	0.105	167441	keystroke_r	r	n/a
83.9305	0.1055	167861	keystroke_a	a	n/a
84.081	0.1195	168162	keystroke_n	n	n/a
84.291	0.105	168582	keystroke_c	c	n/a
84.441	0.12	168882	keystroke_i	i	n/a
84.546	0.15	169092	keystroke_s	s	n/a
84.831	0.075	169662	keystroke_Key.enter	Key.enter	n/a
84.91	6.162	169820	prompt	n/a	streaming lauren pants roll\n
85.476	0.105	170952	keystroke_s	s	n/a
85.7155	0.091	171431	keystroke_t	t	n/a
85.9855	0.105	171971	keystroke_r	r	n/a
86.1805	0.06	172361	keystroke_e	e	n/a
86.3755	0.135	172751	keystroke_a	a	n/a
86.646	0.0895	173292	keystroke_d	d	n/a
87.036	0.075	174072	keystroke_Key.backspace	Key.backspace	n/a
87.321	0.105	174642	keystroke_m	m	n/a
87.606	0.1045	175212	keystroke_i	i	n/a
87.7405	0.195	175481	keystroke_n	n	n/a
87.9205	0.12	175841	keystroke_g	g	n/a
88.0415	0.134	176083	keystroke_Key.space	Key.space	n/a
88.1905	0.12	176381	keystroke_l	l	n/a
88.3555	0.12	176711	keystroke_a	a	n/a
88.4605	0.105	176921	keystroke_u	u	n/a
88.6555	0.09	177311	keystroke_r	r	n/a
88.8205	0.105	177641	keystroke_n	n	n/a
88.9105	0.15	177821	keystroke_e	e	n/a
89.0755	0.09	178151	keystroke_Key.space	Key.space	n/a
89.2105	0.12	178421	keystroke_p	p	n/a
89.3455	0.09	178691	keystroke_a	a	n/a
89.5105	0.12	179021	keystroke_n	n	n/a
89.6155	0.1045	179231	keystroke_t	t	n/a
89.87	0.09	179740	keystroke_s	s	n/a
90.02	0.105	180040	keystroke_Key.space	Key.space	n/a
90.1855	0.105	180371	keystroke_r	r	n/a
90.3055	0.06	180611	keystroke_o	o	n/a
90.5155	0.06	181031	keystroke_l	l	n/a
90.6805	0.09	181361	keystroke_l	l	n/a
91.0105	0.0605	182021	keystroke_Key.enter	Key.enter	n/a
91.075	10.587	182150	prompt	n/a	google guests numeric football\n
91.7905	0.105	183581	keystroke_g	g	n/a
91.91	0.0605	183820	keystroke_o	o	n/a
92.09	0.045	184180	keystroke_o	o	n/a
92.18	0.1055	184360	keystroke_g	g	n/a
92.3005	0.1195	184601	keystroke_l	l	n/a
92.4955	0.105	184991	keystroke_e	e	n/a
92.6455	0.09	185291	keystroke_Key.space	Key.space	n/a
92.7505	0.12	185501	keystroke_g	g	n/a
92.8855	0.12	185771	keystroke_u	u	n/a
93.1105	0.165	186221	keystroke_e	e	n/a
93.2905	0.15	186581	keystroke_s	s	n/a
93.41	0.1205	186820	keystroke_t	t	n/a
93.5755	0.12	187151	keystroke_s	s	n/a
93.7555	0.12	187511	keystroke_Key.space	Key.space	n/a
94.0105	0.135	188021	keystroke_n	n	n/a
94.2055	0.075	188411	keystroke_u	u	n/a
94.4305	0.12	188861	keystroke_m	m	n/a
94.5805	0.135	189161	keystroke_b	b	n/a
94.7165	0.134	189433	keystroke_e	e	n/a
94.8055	0.12	189611	keystroke_r	r	n/a
94.9405	0.135	189881	keystroke_i	i	n/a
95.1205	0.135	190241	keystroke_c	c	n/a
95.2405	0.105	190481	keystroke_Key.space	Key.space	n/a
95.4055	0.105	190811	keystroke_f	f	n/a
95.5115	0.089	191023	keystroke_o	o	n/a
95.6755	0.1055	191351	keystroke_o	o	n/a
95.751	0.12	191502	keystroke_t	t	n/a
97.295	0.075	194590	keystroke_Key.backspace	Key.backspace	n/a
97.49	0.061	194980	keystroke_Key.backspace	Key.backspace	n/a
97.67	0.0455	195340	keystroke_Key.backspace	Key.backspace	n/a
97.8355	0.075	195671	keystroke_Key.backspace	Key.backspace	n/a
98.0455	0.075	196091	keystroke_Key.backspace	Key.backspace	n/a
98.2555	0.075	196511	keystroke_Key.backspace	Key.backspace	n/a
98.4355	0.09	196871	keystroke_Key.backspace	Key.backspace	n/a
98.6755	0.1055	197351	keystroke_Key.backspace	Key.backspace	n/a
98.961	0.0745	197922	keystroke_Key.backspace	Key.backspace	n/a
99.2455	0.075	198491	keystroke_Key.backspace	Key.backspace	n/a
99.5155	0.165	199031	keystroke_e	e	n/a
99.6055	0.135	199211	keystroke_r	r	n/a
99.7705	0.135	199541	keystroke_i	i	n/a
99.9355	0.135	199871	keystroke_c	c	n/a
100.1005	0.105	200201	keystroke_Key.space	Key.space	n/a
100.2355	0.135	200471	keystroke_f	f	n/a
100.3855	0.075	200771	keystroke_o	o	n/a
100.5505	0.1205	201101	keystroke_o	o	n/a
100.6555	0.0905	201311	keystroke_t	t	n/a
100.851	0.105	201702	keystroke_b	b	n/a
100.971	0.15	201942	keystroke_a	a	n/a
101.121	0.09	202242	keystroke_l	l	n/a
101.3005	0.09	202601	keystroke_l	l	n/a
101.6305	0.03	203261	keystroke_Key.enter	Key.enter	n/a
101.6655	8.5465	203331	prompt	n/a	affiliated senator hugh existence\n
102.2905	0.105	204581	keystroke_a	a	n/a
102.62	0.0905	205240	keystroke_f	f	n/a
102.8305	0.0895	205661	keystroke_f	f	n/a
103.055	0.06	206110	keystroke_i	i	n/a
103.791	0.195	207582	keystroke_l	l	n/a
103.926	0.134	207852	keystroke_i	i	n/a
104.2405	0.09	208481	keystroke_a	a	n/a
104.3905	0.09	208781	keystroke_t	t	n/a
104.6005	0.06	209201	keystroke_e	e	n/a
104.796	0.075	209592	keystroke_d	d	n/a
104.886	0.12	209772	keystroke_Key.space	Key.space	n/a
105.036	0.18	210072	keystroke_s	s	n/a
105.171	0.1495	210342	keystroke_e	e	n/a
105.3055	0.105	210611	keystroke_n	n	n/a
105.5605	0.12	211121	keystroke_a	a	n/a
105.8005	0.105	211601	keystroke_t	t	n/a
105.9205	0.12	211841	keystroke_o	o	n/a
106.0415	0.104	212083	keystroke_r	r	n/a
106.2505	0.09	212501	keystroke_Key.space	Key.space	n/a
106.4155	0.15	212831	keystroke_h	h	n/a
106.7155	0.105	213431	keystroke_u	u	n/a
106.8655	0.105	213731	keystroke_g	g	n/a
107.0005	0.15	214001	keystroke_h	h	n/a
107.1805	0.12	214361	keystroke_Key.space	Key.space	n/a
107.3305	0.045	214661	keystroke_e	e	n/a
107.556	0.09	215112	keystroke_x	x	n/a
107.721	0.12	215442	keystroke_i	i	n/a
107.886	0.045	215772	keystroke_s	s	n/a
108.5455	0.09	217091	keystroke_t	t	n/a
108.8455	0.075	217691	keystroke_a	a	n/a
109.2805	0.075	218561	keystroke_Key.backspace	Key.backspace	n/a
109.4005	0.105	218801	keystroke_e	e	n/a
109.5655	0.15	219131	keystroke_n	n	n/a
109.7005	0.135	219401	keystroke_c	c	n/a
109.8205	0.09	219641	keystroke_e	e	n/a
110.1355	0.0755	220271	keystroke_Key.enter	Key.enter	n/a
110.215	5.757	220430	prompt	n/a	stands kinda loop sacrifice\n
110.751	0.105	221502	keystroke_s	s	n/a
110.916	0.0895	221832	keystroke_t	t	n/a
111.0805	0.12	222161	keystroke_a	a	n/a
111.186	0.12	222372	keystroke_n	n	n/a
111.321	0.15	222642	keystroke_d	d	n/a
111.486	0.105	222972	keystroke_s	s	n/a
111.621	0.105	223242	keystroke_Key.space	Key.space	n/a
111.771	0.105	223542	keystroke_k	k	n/a
112.01	0.075	224020	keystroke_i	i	n/a
112.056	0.179	224112	keystroke_n	n	n/a
112.22	0.091	224440	keystroke_d	d	n/a
112.416	0.12	224832	keystroke_a	a	n/a
112.566	0.09	225132	keystroke_Key.space	Key.space	n/a
112.836	0.1045	225672	keystroke_l	l	n/a
113.0455	0.075	226091	keystroke_o	o	n/a
113.2405	0.105	226481	keystroke_o	o	n/a
113.3755	0.12	226751	keystroke_p	p	n/a
113.6155	0.135	227231	keystroke_Key.space	Key.space	n/a
113.8855	0.135	227771	keystroke_s	s	n/a
114.2455	0.105	228491	keystroke_a	a	n/a
114.6355	0.105	229271	keystroke_c	c	n/a
114.8905	0.09	229781	keystroke_r	r	n/a
115.0105	0.105	230021	keystroke_i	i	n/a
115.1905	0.0755	230381	keystroke_f	f	n/a
115.2505	0.1055	230501	keystroke_i	i	n/a
115.581	0.015	231162	keystroke_c	c	n/a
115.641	0.1355	231282	keystroke_e	e	n/a
115.8955	0.075	231791	keystroke_Key.enter	Key.enter	n/a
115.975	7.587	231950	prompt	n/a	developments bedford pursue chancellor\n
116.5705	0.105	233141	keystroke_d	d	n/a
116.765	0.0905	233530	keystroke_e	e	n/a
117.02	0.1055	234040	keystroke_v	v	n/a
117.2155	0.0905	234431	keystroke_e	e	n/a
117.291	0.149	234582	keystroke_l	l	n/a
117.426	0.119	234852	keystroke_o	o	n/a
117.575	0.1055	235150	keystroke_p	p	n/a
117.8155	0.15	235631	keystroke_m	m	n/a
117.9355	0.135	235871	keystroke_e	e	n/a
118.0555	0.135	236111	keystroke_n	n	n/a
118.1755	0.105	236351	keystroke_t	t	n/a
118.341	0.15	236682	keystroke_s	s	n/a
118.476	0.105	236952	keystroke_Key.space	Key.space	n/a
118.656	0.12	237312	keystroke_b	b	n/a
118.746	0.089	237492	keystroke_e	e	n/a
118.971	0.105	237942	keystroke_d	d	n/a
119.181	0.075	238362	keystroke_f	f	n/a
119.286	0.12	238572	keystroke_o	o	n/a
119.421	0.09	238842	keystroke_r	r	n/a
119.66	0.1505	239320	keystroke_d	d	n/a
119.8255	0.105	239651	keystroke_Key.space	Key.space	n/a
120.005	0.151	240010	keystroke_p	p	n/a
120.216	0.12	240432	keystroke_u	u	n/a
120.291	0.105	240582	keystroke_r	r	n/a
120.531	0.165	241062	keystroke_s	s	n/a
120.936	0.12	241872	keystroke_u	u	n/a
121.071	0.105	242142	keystroke_e	e	n/a
121.236	0.1045	242472	keystroke_Key.space	Key.space	n/a
121.3855	0.105	242771	keystroke_c	c	n/a
121.4605	0.135	242921	keystroke_h	h	n/a
121.6255	0.1355	243251	keystroke_a	a	n/a
121.7755	0.105	243551	keystroke_n	n	n/a
121.941	0.1195	243882	keystroke_c	c	n/a
122.1505	0.09	244301	keystroke_e	e	n/a
122.256	0.0895	244512	keystroke_l	l	n/a
122.4205	0.1055	244841	keystroke_l	l	n/a
123.096	0.134	246192	keystroke_o	o	n/a
123.245	0.12	246490	keystroke_r	r	n/a
123.485	0.075	246970	keystroke_Key.enter	Key.enter	n/a
123.5655	6.8815	247131	prompt	n/a	surrounded games penny train\n
124.116	0.15	248232	keystroke_s	s	n/a
124.356	0.105	248712	keystroke_u	u	n/a
124.476	0.09	248952	keystroke_r	r	n/a
124.671	0.075	249342	keystroke_r	r	n/a
124.776	0.09	249552	keystroke_o	o	n/a
124.926	0.1495	249852	keystroke_u	u	n/a
125.0315	0.179	250063	keystroke_n	n	n/a
125.1655	0.12	250331	keystroke_d	d	n/a
125.4055	0.075	250811	keystroke_e	e	n/a
125.6155	0.075	251231	keystroke_d	d	n/a
125.706	0.135	251412	keystroke_Key.space	Key.space	n/a
125.856	0.06	251712	keystroke_g	g	n/a
126.036	0.09	252072	keystroke_a	a	n/a
126.111	0.165	252222	keystroke_m	m	n/a
126.276	0.15	252552	keystroke_e	e	n/a
126.381	0.15	252762	keystroke_s	s	n/a
126.621	0.12	253242	keystroke_p	p	n/a
127.131	0.0895	254262	keystroke_Key.backspace	Key.backspace	n/a
127.3405	0.12	254681	keystroke_Key.space	Key.space	n/a
127.5355	0.105	255071	keystroke_p	p	n/a
127.685	0.121	255370	keystroke_e	e	n/a
127.836	0.09	255672	keystroke_n	n	n/a
128.016	0.12	256032	keystroke_n	n	n/a
128.121	0.105	256242	keystroke_y	y	n/a
128.271	0.105	256542	keystroke_Key.space	Key.space	n/a
128.406	0.045	256812	keystroke_r	r	n/a
128.9755	0.075	257951	keystroke_t	t	n/a
129.1855	0.105	258371	keystroke_Key.backspace	Key.backspace	n/a
129.3655	0.075	258731	keystroke_Key.backspace	Key.backspace	n/a
129.4555	0.09	258911	keystroke_t	t	n/a
129.6505	0.105	259301	keystroke_r	r	n/a
129.7705	0.1655	259541	keystroke_a	a	n/a
129.921	0.135	259842	keystroke_i	i	n/a
130.041	0.105	260082	keystroke_n	n	n/a
130.371	0.075	260742	keystroke_Key.enter	Key.enter	n/a
130.45	5.397	260900	prompt	n/a	lift corruption wireless doing\n
131.1655	0.1805	262331	keystroke_l	l	n/a
131.301	0.12	262602	keystroke_i	i	n/a
131.391	0.075	262782	keystroke_f	f	n/a
131.586	0.09	263172	keystroke_t	t	n/a
131.721	0.12	263442	keystroke_Key.space	Key.space	n/a
131.901	0.1195	263802	keystroke_c	c	n/a
132.0355	0.12	264071	keystroke_o	o	n/a
132.1855	0.09	264371	keystroke_r	r	n/a
132.3805	0.105	264761	keystroke_r	r	n/a
132.5155	0.09	265031	keystroke_u	u	n/a
132.8155	0.105	265631	keystroke_p	p	n/a
133.0105	0.105	266021	keystroke_t	t	n/a
133.1305	0.135	266261	keystroke_i	i	n/a
133.2355	0.195	266471	keystroke_o	o	n/a
133.3405	0.18	266681	keystroke_n	n	n/a
133.5055	0.12	267011	keystroke_Key.space	Key.space	n/a
133.6105	0.105	267221	keystroke_w	w	n/a
133.7305	0.165	267461	keystroke_i	i	n/a
133.9105	0.135	267821	keystroke_r	r	n/a
134.0155	0.135	268031	keystroke_e	e	n/a
134.1655	0.135	268331	keystroke_l	l	n/a
134.2855	0.15	268571	keystroke_e	e	n/a
134.4655	0.09	268931	keystroke_s	s	n/a
134.6755	0.09	269351	keystroke_s	s	n/a
134.8105	0.12	269621	keystroke_Key.space	Key.space	n/a
134.9455	0.15	269891	keystroke_d	d	n/a
135.0805	0.135	270161	keystroke_o	o	n/a
135.2305	0.12	270461	keystroke_i	i	n/a
135.2755	0.165	270551	keystroke_n	n	n/a
135.4255	0.105	270851	keystroke_g	g	n/a
135.786	0.06	271572	keystroke_Key.enter	Key.enter	n/a
135.85	6.5675	271700	prompt	n/a	office as almost indexes\n
136.4905	0.105	272981	keystroke_o	o	n/a
136.6105	0.09	273221	keystroke_f	f	n/a
136.7905	0.075	273581	keystroke_f	f	n/a
136.8805	0.135	273761	keystroke_i	i	n/a
137.0305	0.15	274061	keystroke_c	c	n/a
137.1955	0.0905	274391	keystroke_e	e	n/a
137.331	0.12	274662	keystroke_Key.space	Key.space	n/a
137.436	0.1045	274872	keystroke_a	a	n/a
137.6905	0.06	275381	keystroke_a	a	n/a
138.2755	0.075	276551	keystroke_Key.backspace	Key.backspace	n/a
138.3955	0.135	276791	keystroke_s	s	n/a
138.5605	0.12	277121	keystroke_Key.space	Key.space	n/a
138.7105	0.15	277421	keystroke_a	a	n/a
138.8455	0.15	277691	keystroke_l	l	n/a
139.1605	0.18	278321	keystroke_m	m	n/a
139.3705	0.12	278741	keystroke_o	o	n/a
139.4605	0.09	278921	keystroke_s	s	n/a
139.6555	0.135	279311	keystroke_t	t	n/a
139.8055	0.135	279611	keystroke_Key.space	Key.space	n/a
140.1355	0.105	280271	keystroke_i	i	n/a
140.2855	0.12	280571	keystroke_n	n	n/a
140.3605	0.105	280721	keystroke_d	d	n/a
140.5705	0.09	281141	keystroke_e	e	n/a
140.8405	0.06	281681	keystroke_x	x	n/a
141.2155	0.06	282431	keystroke_s	s	n/a
141.2305	0.075	282461	keystroke_e	e	n/a
141.711	0.09	283422	keystroke_Key.backspace	Key.backspace	n/a
141.876	0.09	283752	keystroke_Key.backspace	Key.backspace	n/a
141.967	0.149	283934	keystroke_e	e	n/a
142.086	0.12	284172	keystroke_s	s	n/a
142.341	0.075	284682	keystroke_Key.enter	Key.enter	n/a
142.422	6.52	284844	prompt	n/a	expiration acne gorgeous begin\n
143.016	0.075	286032	keystroke_e	e	n/a
143.256	0.119	286512	keystroke_x	x	n/a
143.391	0.06	286782	keystroke_p	p	n/a
143.556	0.12	287112	keystroke_e	e	n/a
143.69	0.091	287380	keystroke_i	i	n/a
144.095	0.075	288190	keystroke_Key.backspace	Key.backspace	n/a
144.245	0.045	288490	keystroke_Key.backspace	Key.backspace	n/a
144.47	0.106	288940	keystroke_i	i	n/a
144.546	0.089	289092	keystroke_r	r	n/a
144.681	0.149	289362	keystroke_a	a	n/a
144.89	0.12	289780	keystroke_t	t	n/a
144.996	0.165	289992	keystroke_i	i	n/a
145.146	0.164	290292	keystroke_o	o	n/a
145.22	0.195	290440	keystroke_n	n	n/a
145.4005	0.15	290801	keystroke_Key.space	Key.space	n/a
145.52	0.0755	291040	keystroke_a	a	n/a
145.7755	0.135	291551	keystroke_c	c	n/a
145.9255	0.12	291851	keystroke_n	n	n/a
146.0755	0.09	292151	keystroke_e	e	n/a
146.1955	0.12	292391	keystroke_Key.space	Key.space	n/a
146.4055	0.105	292811	keystroke_g	g	n/a
146.6005	0.105	293201	keystroke_o	o	n/a
146.7205	0.09	293441	keystroke_r	r	n/a
146.9455	0.105	293891	keystroke_g	g	n/a
147.1555	0.105	294311	keystroke_e	e	n/a
147.3805	0.135	294761	keystroke_o	o	n/a
147.4705	0.15	294941	keystroke_u	u	n/a
147.6505	0.1345	295301	keystroke_s	s	n/a
147.77	0.12	295540	keystroke_Key.space	Key.space	n/a
148.041	0.104	296082	keystroke_b	b	n/a
148.131	0.09	296262	keystroke_e	e	n/a
148.385	0.105	296770	keystroke_g	g	n/a
148.46	0.12	296920	keystroke_i	i	n/a
148.535	0.12	297070	keystroke_n	n	n/a
148.8505	0.09	297701	keystroke_Key.enter	Key.enter	n/a
148.9455	10.2715	297891	prompt	n/a	complimentary advancement softball lucky\n
149.6005	0.1505	299201	keystroke_c	c	n/a
149.706	0.12	299412	keystroke_o	o	n/a
149.811	0.165	299622	keystroke_m	m	n/a
150.006	0.09	300012	keystroke_p	p	n/a
150.261	0.15	300522	keystroke_l	l	n/a
150.381	0.12	300762	keystroke_i	i	n/a
150.561	0.09	301122	keystroke_e	e	n/a
151.056	0.059	302112	keystroke_Key.backspace	Key.backspace	n/a
151.311	0.149	302622	keystroke_m	m	n/a
151.43	0.105	302860	keystroke_e	e	n/a
151.52	0.121	303040	keystroke_n	n	n/a
151.671	0.1045	303342	keystroke_t	t	n/a
151.8655	0.195	303731	keystroke_a	a	n/a
152.0155	0.105	304031	keystroke_r	r	n/a
152.2555	0.09	304511	keystroke_y	y	n/a
152.3905	0.135	304781	keystroke_Key.space	Key.space	n/a
152.5405	0.105	305081	keystroke_a	a	n/a
152.7805	0.06	305561	keystroke_f	f	n/a
153.6205	0.1045	307241	keystroke_Key.backspace	Key.backspace	n/a
153.741	0.105	307482	keystroke_d	d	n/a
154.2805	0.09	308561	keystroke_b	b	n/a
154.8055	0.075	309611	keystroke_Key.backspace	Key.backspace	n/a
154.8655	0.09	309731	keystroke_v	v	n/a
155.195	0.09	310390	keystroke_a	a	n/a
155.331	0.134	310662	keystroke_n	n	n/a
155.45	0.135	310900	keystroke_c	c	n/a
155.645	0.061	311290	keystroke_e	e	n/a
155.736	0.135	311472	keystroke_m	m	n/a
155.856	0.105	311712	keystroke_e	e	n/a
155.976	0.15	311952	keystroke_n	n	n/a
156.081	0.12	312162	keystroke_t	t	n/a
156.216	0.105	312432	keystroke_Key.space	Key.space	n/a
156.336	0.105	312672	keystroke_s	s	n/a
156.426	0.15	312852	keystroke_o	o	n/a
156.546	0.105	313092	keystroke_f	f	n/a
156.771	0.075	313542	keystroke_t	t	n/a
157.101	0.0895	314202	keystroke_b	b	n/a
157.1755	0.1505	314351	keystroke_a	a	n/a
157.371	0.09	314742	keystroke_l	l	n/a
157.551	0.12	315102	keystroke_l	l	n/a
157.7755	0.15	315551	keystroke_Key.space	Key.space	n/a
158.1355	0.09	316271	keystroke_l	l	n/a
158.4055	0.105	316811	keystroke_u	u	n/a
158.5855	0.075	317171	keystroke_c	c	n/a
158.675	0.105	317350	keystroke_k	k	n/a
158.855	0.121	317710	keystroke_y	y	n/a
159.155	0.061	318310	keystroke_Key.enter	Key.enter	n/a
159.22	8.772	318440	prompt	n/a	folders chevrolet impact apple\n
159.8605	0.09	319721	keystroke_f	f	n/a
159.9655	0.075	319931	keystroke_o	o	n/a
160.1455	0.135	320291	keystroke_l	l	n/a
160.2505	0.105	320501	keystroke_d	d	n/a
160.4755	0.15	320951	keystroke_e	e	n/a
160.6105	0.12	321221	keystroke_r	r	n/a
160.7905	0.135	321581	keystroke_s	s	n/a
160.9105	0.12	321821	keystroke_Key.space	Key.space	n/a
161.0755	0.135	322151	keystroke_c	c	n/a
161.1955	0.135	322391	keystroke_h	h	n/a
161.3755	0.195	322751	keystroke_e	e	n/a
161.4955	0.135	322991	keystroke_r	r	n/a
161.8255	0.09	323651	keystroke_v	v	n/a
163.19	0.09	326380	keystroke_Key.backspace	Key.backspace	n/a
163.385	0.075	326770	keystroke_Key.backspace	Key.backspace	n/a
164.0305	0.105	328061	keystroke_v	v	n/a
164.421	0.12	328842	keystroke_r	r	n/a
164.661	0.1045	329322	keystroke_o	o	n/a
164.9005	0.12	329801	keystroke_l	l	n/a
165.0355	0.105	330071	keystroke_e	e	n/a
165.2005	0.1355	330401	keystroke_t	t	n/a
165.321	0.12	330642	keystroke_Key.space	Key.space	n/a
165.486	0.15	330972	keystroke_i	i	n/a
165.621	0.165	331242	keystroke_m	m	n/a
165.786	0.12	331572	keystroke_p	p	n/a
165.861	0.09	331722	keystroke_a	a	n/a
166.056	0.0895	332112	keystroke_c	c	n/a
166.2955	0.09	332591	keystroke_t	t	n/a
166.4005	0.12	332801	keystroke_Key.space	Key.space	n/a
166.5655	0.12	333131	keystroke_a	a	n/a
167.1505	0.105	334301	keystroke_p	p	n/a
167.3155	0.09	334631	keystroke_p	p	n/a
167.525	0.12	335050	keystroke_l	l	n/a
167.63	0.105	335260	keystroke_e	e	n/a
167.915	0.075	335830	keystroke_Key.enter	Key.enter	n/a
167.9945	8.638	335989	prompt	n/a	furnished reynolds wrong fruit\n
168.605	0.09	337210	keystroke_f	f	n/a
168.8605	0.105	337721	keystroke_u	u	n/a
168.9955	0.12	337991	keystroke_r	r	n/a
169.2655	0.12	338531	keystroke_n	n	n/a
169.4605	0.1205	338921	keystroke_i	i	n/a
169.596	0.1045	339192	keystroke_s	s	n/a
169.7155	0.12	339431	keystroke_h	h	n/a
169.8505	0.075	339701	keystroke_e	e	n/a
170.0605	0.135	340121	keystroke_d	d	n/a
170.1805	0.09	340361	keystroke_Key.space	Key.space	n/a
170.4805	0.12	340961	keystroke_r	r	n/a
170.6305	0.105	341261	keystroke_e	e	n/a
170.9155	0.09	341831	keystroke_y	y	n/a
171.1105	0.105	342221	keystroke_n	n	n/a
171.276	0.105	342552	keystroke_o	o	n/a
171.366	0.105	342732	keystroke_d	d	n/a
171.785	0.076	343570	keystroke_Key.backspace	Key.backspace	n/a
172.056	0.12	344112	keystroke_l	l	n/a
172.131	0.105	344262	keystroke_d	d	n/a
172.416	0.045	344832	keystroke_s	s	n/a
172.476	0.15	344952	keystroke_Key.space	Key.space	n/a
173.4655	0.1055	346931	keystroke_w	w	n/a
173.736	0.12	347472	keystroke_r	r	n/a
173.841	0.1345	347682	keystroke_o	o	n/a
173.9155	0.195	347831	keystroke_n	n	n/a
174.0355	0.105	348071	keystroke_g	g	n/a
174.1555	0.1195	348311	keystroke_Key.space	Key.space	n/a
174.29	0.135	348580	keystroke_f	f	n/a
174.396	0.09	348792	keystroke_u	u	n/a
174.6205	0.105	349241	keystroke_i	i	n/a
174.8605	0.12	349721	keystroke_l	l	n/a
175.3405	0.075	350681	keystroke_Key.backspace	Key.backspace	n/a
175.5205	0.06	351041	keystroke_Key.backspace	Key.backspace	n/a
175.7305	0.045	351461	keystroke_Key.backspace	Key.backspace	n/a
175.8205	0.09	351641	keystroke_r	r	n/a
176.0305	0.15	352061	keystroke_u	u	n/a
176.1505	0.135	352301	keystroke_i	i	n/a
176.3005	0.075	352601	keystroke_t	t	n/a
176.5555	0.075	353111	keystroke_Key.enter	Key.enter	n/a
176.636	6.461	353272	prompt	n/a	badge exceptional emacs crucial\n
177.2755	0.12	354551	keystroke_b	b	n/a
177.4105	0.09	354821	keystroke_a	a	n/a
177.6355	0.1205	355271	keystroke_d	d	n/a
177.876	0.105	355752	keystroke_g	g	n/a
178.086	0.105	356172	keystroke_e	e	n/a
178.266	0.134	356532	keystroke_Key.space	Key.space	n/a
178.475	0.075	356950	keystroke_e	e	n/a
178.731	0.09	357462	keystroke_x	x	n/a
178.941	0.12	357882	keystroke_c	c	n/a
179.076	0.12	358152	keystroke_e	e	n/a
179.211	0.09	358422	keystroke_p	p	n/a
179.331	0.135	358662	keystroke_t	t	n/a
179.451	0.1795	358902	keystroke_i	i	n/a
179.5855	0.15	359171	keystroke_o	o	n/a
179.6905	0.135	359381	keystroke_n	n	n/a
179.8405	0.12	359681	keystroke_a	a	n/a
179.9755	0.165	359951	keystroke_l	l	n/a
180.1105	0.165	360221	keystroke_Key.space	Key.space	n/a
180.2905	0.105	360581	keystroke_e	e	n/a
180.4405	0.135	360881	keystroke_m	m	n/a
180.5905	0.09	361181	keystroke_a	a	n/a
180.831	0.105	361662	keystroke_c	c	n/a
181.056	0.1795	362112	keystroke_s	s	n/a
181.266	0.12	362532	keystroke_Key.space	Key.space	n/a
181.476	0.135	362952	keystroke_c	c	n/a
181.731	0.105	363462	keystroke_r	r	n/a
181.941	0.075	363882	keystroke_u	u	n/a
182.301	0.12	364602	keystroke_c	c	n/a
182.436	0.0895	364872	keystroke_i	i	n/a
182.6155	0.135	365231	keystroke_a	a	n/a
182.7055	0.12	365411	keystroke_l	l	n/a
183.0355	0.06	366071	keystroke_Key.enter	Key.enter	n/a
183.1005	8.4265	366201	prompt	n/a	welcome features comparisons responses\n
183.74	0.136	367480	keystroke_w	w	n/a
183.816	0.135	367632	keystroke_e	e	n/a
183.966	0.09	367932	keystroke_l	l	n/a
184.131	0.135	368262	keystroke_c	c	n/a
184.236	0.15	368472	keystroke_o	o	n/a
184.311	0.225	368622	keystroke_m	m	n/a
184.506	0.09	369012	keystroke_e	e	n/a
184.611	0.119	369222	keystroke_Key.space	Key.space	n/a
184.746	0.119	369492	keystroke_f	f	n/a
185.151	0.074	370302	keystroke_e	e	n/a
185.361	0.09	370722	keystroke_a	a	n/a
185.586	0.074	371172	keystroke_t	t	n/a
185.675	0.1355	371350	keystroke_u	u	n/a
185.8255	0.135	371651	keystroke_r	r	n/a
185.9455	0.225	371891	keystroke_e	e	n/a
186.1405	0.135	372281	keystroke_s	s	n/a
186.3055	0.105	372611	keystroke_Key.space	Key.space	n/a
186.4855	0.1355	372971	keystroke_c	c	n/a
186.606	0.135	373212	keystroke_o	o	n/a
186.741	0.149	373482	keystroke_m	m	n/a
186.921	0.12	373842	keystroke_p	p	n/a
187.221	0.09	374442	keystroke_r	r	n/a
187.626	0.0895	375252	keystroke_Key.backspace	Key.backspace	n/a
187.7755	0.165	375551	keystroke_a	a	n/a
187.8805	0.105	375761	keystroke_r	r	n/a
188.1205	0.105	376241	keystroke_i	i	n/a
188.2555	0.135	376511	keystroke_s	s	n/a
188.5255	0.18	377051	keystroke_o	o	n/a
188.8105	0.135	377621	keystroke_n	n	n/a
188.9905	0.105	377981	keystroke_s	s	n/a
189.2005	0.105	378401	keystroke_Key.space	Key.space	n/a
189.4105	0.09	378821	keystroke_r	r	n/a
189.4705	0.135	378941	keystroke_e	e	n/a
190.2805	0.15	380561	keystroke_s	s	n/a
190.4605	0.1195	380921	keystroke_p	p	n/a
190.6105	0.12	381221	keystroke_o	o	n/a
190.7755	0.135	381551	keystroke_n	n	n/a
190.8955	0.15	381791	keystroke_s	s	n/a
191.0305	0.195	382061	keystroke_e	e	n/a
191.2405	0.105	382481	keystroke_s	s	n/a
191.4355	0.09	382871	keystroke_Key.enter	Key.enter	n/a
191.53	7.9625	383060	prompt	n/a	volume obvious effectiveness frontpage\n
192.2605	0.09	384521	keystroke_v	v	n/a
192.3655	0.075	384731	keystroke_o	o	n/a
192.5755	0.105	385151	keystroke_l	l	n/a
192.7855	0.09	385571	keystroke_u	u	n/a
193.0105	0.15	386021	keystroke_m	m	n/a
193.1905	0.12	386381	keystroke_e	e	n/a
193.2955	0.165	386591	keystroke_Key.space	Key.space	n/a
193.4305	0.12	386861	keystroke_o	o	n/a
193.5955	0.135	387191	keystroke_b	b	n/a
193.7755	0.135	387551	keystroke_v	v	n/a
193.8955	0.18	387791	keystroke_i	i	n/a
194.0905	0.15	388181	keystroke_o	o	n/a
194.1805	0.165	388361	keystroke_u	u	n/a
194.3465	0.119	388693	keystroke_s	s	n/a
194.4505	0.12	388901	keystroke_Key.space	Key.space	n/a
194.6455	0.0755	389291	keystroke_e	e	n/a
194.841	0.075	389682	keystroke_f	f	n/a
195.006	0.12	390012	keystroke_f	f	n/a
195.096	0.09	390192	keystroke_e	e	n/a
195.336	0.09	390672	keystroke_c	c	n/a
195.576	0.075	391152	keystroke_t	t	n/a
195.711	0.135	391422	keystroke_i	i	n/a
195.876	0.09	391752	keystroke_v	v	n/a
196.056	0.1045	392112	keystroke_e	e	n/a
196.2655	0.09	392531	keystroke_m	m	n/a
196.6555	0.075	393311	keystroke_Key.backspace	Key.backspace	n/a
196.955	0.12	393910	keystroke_n	n	n/a
197.09	0.165	394180	keystroke_e	e	n/a
197.24	0.121	394480	keystroke_s	s	n/a
197.436	0.135	394872	keystroke_s	s	n/a
197.616	0.12	395232	keystroke_Key.space	Key.space	n/a
197.826	0.075	395652	keystroke_f	f	n/a
198.111	0.105	396222	keystroke_r	r	n/a
198.276	0.12	396552	keystroke_o	o	n/a
198.366	0.165	396732	keystroke_n	n	n/a
198.486	0.075	396972	keystroke_t	t	n/a
198.741	0.1045	397482	keystroke_p	p	n/a
198.8605	0.09	397721	keystroke_a	a	n/a
199.0855	0.105	398171	keystroke_g	g	n/a
199.2205	0.1055	398441	keystroke_e	e	n/a
199.416	0.0745	398832	keystroke_Key.enter	Key.enter	n/a
199.4955	6.989	398991	prompt	n/a	mint scholar infrastructure none\n
200.2105	0.105	400421	keystroke_m	m	n/a
200.4655	0.15	400931	keystroke_i	i	n/a
200.6005	0.165	401201	keystroke_n	n	n/a
200.7355	0.12	401471	keystroke_t	t	n/a
200.9305	0.075	401861	keystroke_Key.space	Key.space	n/a
201.0505	0.105	402101	keystroke_s	s	n/a
201.2905	0.165	402581	keystroke_c	c	n/a
201.4255	0.12	402851	keystroke_h	h	n/a
201.6055	0.0905	403211	keystroke_o	o	n/a
201.83	0.135	403660	keystroke_l	l	n/a
201.95	0.12	403900	keystroke_a	a	n/a
202.115	0.165	404230	keystroke_r	r	n/a
202.25	0.136	404500	keystroke_Key.space	Key.space	n/a
202.401	0.135	404802	keystroke_i	i	n/a
202.49	0.226	404980	keystroke_n	n	n/a
202.656	0.09	405312	keystroke_f	f	n/a
202.896	0.1045	405792	keystroke_r	r	n/a
203.466	0.075	406932	keystroke_a	a	n/a
203.676	0.1195	407352	keystroke_s	s	n/a
203.8255	0.12	407651	keystroke_u	u	n/a
203.9905	0.105	407981	keystroke_t	t	n/a
204.2755	0.135	408551	keystroke_r	r	n/a
204.5755	0.105	409151	keystroke_u	u	n/a
204.7105	0.12	409421	keystroke_c	c	n/a
205.0105	0.075	410021	keystroke_t	t	n/a
205.1755	0.135	410351	keystroke_u	u	n/a
205.2955	0.15	410591	keystroke_r	r	n/a
205.4305	0.15	410861	keystroke_e	e	n/a
205.5955	0.1205	411191	keystroke_Key.space	Key.space	n/a
205.731	0.165	411462	keystroke_n	n	n/a
205.881	0.135	411762	keystroke_o	o	n/a
205.971	0.12	411942	keystroke_n	n	n/a
206.106	0.105	412212	keystroke_e	e	n/a
206.406	0.075	412812	keystroke_Key.enter	Key.enter	n/a
206.4845	5.0225	412969	prompt	n/a	unwrap camp another drawn\n
207.2305	0.1055	414461	keystroke_u	u	n/a
207.381	0.1345	414762	keystroke_n	n	n/a
207.6655	0.135	415331	keystroke_w	w	n/a
207.9505	0.09	415901	keystroke_r	r	n/a
208.1905	0.12	416381	keystroke_a	a	n/a
208.3255	0.1055	416651	keystroke_p	p	n/a
208.476	0.119	416952	keystroke_Key.space	Key.space	n/a
208.655	0.151	417310	keystroke_c	c	n/a
208.851	0.119	417702	keystroke_a	a	n/a
208.955	0.121	417910	keystroke_m	m	n/a
209.091	0.149	418182	keystroke_p	p	n/a
209.241	0.135	418482	keystroke_Key.space	Key.space	n/a
209.406	0.105	418812	keystroke_a	a	n/a
209.541	0.105	419082	keystroke_n	n	n/a
209.766	0.09	419532	keystroke_o	o	n/a
209.841	0.075	419682	keystroke_t	t	n/a
209.961	0.165	419922	keystroke_h	h	n/a
210.111	0.1795	420222	keystroke_e	e	n/a
210.246	0.12	420492	keystroke_r	r	n/a
210.321	0.15	420642	keystroke_Key.space	Key.space	n/a
210.501	0.12	421002	keystroke_d	d	n/a
210.696	0.165	421392	keystroke_r	r	n/a
210.861	0.195	421722	keystroke_a	a	n/a
211.011	0.1195	422022	keystroke_w	w	n/a
211.1455	0.12	422291	keystroke_n	n	n/a
211.4455	0.06	422891	keystroke_Key.enter	Key.enter	n/a
211.51	6.207	423020	prompt	n/a	advisory flags comply washington\n
212.166	0.12	424332	keystroke_a	a	n/a
212.316	0.06	424632	keystroke_d	d	n/a
212.5105	0.105	425021	keystroke_v	v	n/a
212.6005	0.12	425201	keystroke_i	i	n/a
212.7805	0.15	425561	keystroke_s	s	n/a
212.9755	0.105	425951	keystroke_t	t	n/a
213.1255	0.135	426251	keystroke_o	o	n/a
213.276	0.09	426552	keystroke_r	r	n/a
213.486	0.105	426972	keystroke_y	y	n/a
213.666	0.1045	427332	keystroke_Key.space	Key.space	n/a
213.8155	0.075	427631	keystroke_f	f	n/a
213.9205	0.1355	427841	keystroke_l	l	n/a
214.236	0.105	428472	keystroke_a	a	n/a
214.476	0.09	428952	keystroke_g	g	n/a
214.701	0.135	429402	keystroke_s	s	n/a
214.851	0.12	429702	keystroke_Key.space	Key.space	n/a
215.031	0.15	430062	keystroke_c	c	n/a
215.091	0.12	430182	keystroke_o	o	n/a
215.196	0.165	430392	keystroke_m	m	n/a
215.346	0.075	430692	keystroke_p	p	n/a
215.571	0.12	431142	keystroke_l	l	n/a
215.736	0.105	431472	keystroke_y	y	n/a
215.87	0.136	431740	keystroke_Key.space	Key.space	n/a
216.065	0.12	432130	keystroke_w	w	n/a
216.215	0.136	432430	keystroke_a	a	n/a
216.471	0.105	432942	keystroke_s	s	n/a
216.546	0.105	433092	keystroke_h	h	n/a
216.636	0.165	433272	keystroke_i	i	n/a
216.756	0.15	433512	keystroke_n	n	n/a
216.876	0.09	433752	keystroke_g	g	n/a
217.101	0.105	434202	keystroke_t	t	n/a
217.221	0.15	434442	keystroke_o	o	n/a
217.311	0.135	434622	keystroke_n	n	n/a
217.641	0.0745	435282	keystroke_Key.enter	Key.enter	n/a
217.7195	6.9875	435439	prompt	n/a	port scholarships recreational rough\n
218.5105	0.15	437021	keystroke_p	p	n/a
218.8105	0.12	437621	keystroke_o	o	n/a
218.9305	0.03	437861	keystroke_r	r	n/a
219.1705	0.1055	438341	keystroke_t	t	n/a
219.396	0.12	438792	keystroke_Key.space	Key.space	n/a
219.546	0.12	439092	keystroke_s	s	n/a
219.756	0.135	439512	keystroke_c	c	n/a
219.876	0.1195	439752	keystroke_h	h	n/a
219.9805	0.105	439961	keystroke_o	o	n/a
220.2355	0.12	440471	keystroke_l	l	n/a
220.3255	0.195	440651	keystroke_a	a	n/a
220.4455	0.105	440891	keystroke_r	r	n/a
220.7155	0.121	441431	keystroke_s	s	n/a
220.7765	0.119	441553	keystroke_h	h	n/a
220.8805	0.12	441761	keystroke_i	i	n/a
221.1365	0.119	442273	keystroke_p	p	n/a
221.316	0.12	442632	keystroke_s	s	n/a
221.406	0.15	442812	keystroke_Key.space	Key.space	n/a
221.631	0.18	443262	keystroke_r	r	n/a
221.826	0.105	443652	keystroke_e	e	n/a
222.081	0.105	444162	keystroke_c	c	n/a
222.351	0.09	444702	keystroke_r	r	n/a
222.486	0.105	444972	keystroke_e	e	n/a
222.726	0.075	445452	keystroke_a	a	n/a
222.876	0.105	445752	keystroke_t	t	n/a
223.011	0.1495	446022	keystroke_i	i	n/a
223.1305	0.165	446261	keystroke_o	o	n/a
223.2355	0.15	446471	keystroke_n	n	n/a
223.4005	0.135	446801	keystroke_a	a	n/a
223.5365	0.149	447073	keystroke_l	l	n/a
223.6705	0.195	447341	keystroke_Key.space	Key.space	n/a
223.8205	0.12	447641	keystroke_r	r	n/a
223.9415	0.119	447883	keystroke_o	o	n/a
224.0005	0.24	448001	keystroke_u	u	n/a
224.1955	0.105	448391	keystroke_g	g	n/a
224.2705	0.1505	448541	keystroke_h	h	n/a
224.63	0.0755	449260	keystroke_Key.enter	Key.enter	n/a
224.7115	8.1405	449423	prompt	n/a	replacement doesn't former collectables\n
225.366	0.18	450732	keystroke_r	r	n/a
225.531	0.135	451062	keystroke_e	e	n/a
225.756	0.075	451512	keystroke_p	p	n/a
225.966	0.135	451932	keystroke_l	l	n/a
226.041	0.075	452082	keystroke_a	a	n/a
226.236	0.135	452472	keystroke_c	c	n/a
226.356	0.1195	452712	keystroke_e	e	n/a
226.4905	0.12	452981	keystroke_m	m	n/a
226.5955	0.12	453191	keystroke_e	e	n/a
226.7305	0.135	453461	keystroke_n	n	n/a
226.8355	0.105	453671	keystroke_t	t	n/a
226.9705	0.12	453941	keystroke_Key.space	Key.space	n/a
227.0755	0.165	454151	keystroke_d	d	n/a
227.2255	0.105	454451	keystroke_o	o	n/a
227.3905	0.135	454781	keystroke_n	n	n/a
227.8405	0.075	455681	keystroke_Key.backspace	Key.backspace	n/a
228.0055	0.165	456011	keystroke_e	e	n/a
228.0955	0.135	456191	keystroke_s	s	n/a
228.2455	0.12	456491	keystroke_n	n	n/a
228.636	0.1195	457272	keystroke_'	'	n/a
228.8605	0.09	457721	keystroke_t	t	n/a
228.9955	0.1205	457991	keystroke_Key.space	Key.space	n/a
229.176	0.1495	458352	keystroke_m	m	n/a
229.6255	0.09	459251	keystroke_Key.backspace	Key.backspace	n/a
229.7905	0.105	459581	keystroke_f	f	n/a
229.9415	0.104	459883	keystroke_o	o	n/a
230.0605	0.12	460121	keystroke_r	r	n/a
230.2105	0.135	460421	keystroke_m	m	n/a
230.3755	0.18	460751	keystroke_e	e	n/a
230.5105	0.105	461021	keystroke_r	r	n/a
230.6605	0.12	461321	keystroke_Key.space	Key.space	n/a
230.8105	0.135	461621	keystroke_c	c	n/a
230.9155	0.09	461831	keystroke_o	o	n/a
231.1405	0.075	462281	keystroke_l	l	n/a
231.2905	0.105	462581	keystroke_l	l	n/a
231.3655	0.075	462731	keystroke_e	e	n/a
231.5905	0.09	463181	keystroke_c	c	n/a
231.8155	0.075	463631	keystroke_t	t	n/a
232.0105	0.12	464021	keystroke_a	a	n/a
232.1155	0.075	464231	keystroke_b	b	n/a
232.3255	0.15	464651	keystroke_l	l	n/a
232.4005	0.165	464801	keystroke_e	e	n/a
232.4905	0.165	464981	keystroke_s	s	n/a
232.7605	0.09	465521	keystroke_Key.enter	Key.enter	n/a
232.855	9.912	465710	prompt	n/a	clinic accuracy vehicles coordinate\n
233.5705	0.135	467141	keystroke_c	c	n/a
233.6605	0.195	467321	keystroke_l	l	n/a
233.8105	0.1655	467621	keystroke_i	i	n/a
233.946	0.165	467892	keystroke_n	n	n/a
234.096	0.1795	468192	keystroke_i	i	n/a
234.4105	0.135	468821	keystroke_c	c	n/a
234.6355	0.12	469271	keystroke_Key.space	Key.space	n/a
234.8755	0.105	469751	keystroke_a	a	n/a
235.0855	0.09	470171	keystroke_c	c	n/a
235.2805	0.105	470561	keystroke_c	c	n/a
235.8055	0.12	471611	keystroke_u	u	n/a
235.9405	0.075	471881	keystroke_r	r	n/a
236.6305	0.105	473261	keystroke_a	a	n/a
236.9005	0.1055	473801	keystroke_c	c	n/a
237.201	0.09	474402	keystroke_y	y	n/a
237.336	0.12	474672	keystroke_Key.space	Key.space	n/a
237.561	0.075	475122	keystroke_v	v	n/a
237.7715	0.1195	475543	keystroke_e	e	n/a
237.995	0.12	475990	keystroke_n	n	n/a
238.566	0.075	477132	keystroke_Key.backspace	Key.backspace	n/a
238.836	0.12	477672	keystroke_h	h	n/a
238.941	0.15	477882	keystroke_i	i	n/a
239.091	0.12	478182	keystroke_c	c	n/a
239.256	0.18	478512	keystroke_l	l	n/a
239.451	0.195	478902	keystroke_e	e	n/a
239.556	0.1645	479112	keystroke_s	s	n/a
239.7655	0.12	479531	keystroke_Key.space	Key.space	n/a
240.0055	0.12	480011	keystroke_c	c	n/a
240.0805	0.135	480161	keystroke_o	o	n/a
240.3055	0.06	480611	keystroke_r	r	n/a
240.4405	0.105	480881	keystroke_r	r	n/a
240.6505	0.105	481301	keystroke_i	i	n/a
240.7105	0.18	481421	keystroke_n	n	n/a
241.3255	0.09	482651	keystroke_Key.backspace	Key.backspace	n/a
241.4905	0.075	482981	keystroke_Key.backspace	Key.backspace	n/a
241.5955	0.135	483191	keystroke_d	d	n/a
241.8505	0.18	483701	keystroke_i	i	n/a
242.0005	0.135	484001	keystroke_n	n	n/a
242.1055	0.105	484211	keystroke_a	a	n/a
242.3305	0.12	484661	keystroke_t	t	n/a
242.4355	0.135	484871	keystroke_e	e	n/a
242.6905	0.075	485381	keystroke_Key.enter	Key.enter	n/a
242.77	5.8025	485540	prompt	n/a	imperial replied endif solely\n
243.4105	0.105	486821	keystroke_i	i	n/a
243.5905	0.136	487181	keystroke_m	m	n/a
243.7855	0.1355	487571	keystroke_p	p	n/a
243.951	0.135	487902	keystroke_e	e	n/a
244.026	0.135	488052	keystroke_r	r	n/a
244.176	0.105	488352	keystroke_i	i	n/a
244.296	0.135	488592	keystroke_a	a	n/a
244.446	0.165	488892	keystroke_l	l	n/a
244.596	0.135	489192	keystroke_Key.space	Key.space	n/a
244.791	0.15	489582	keystroke_r	r	n/a
244.881	0.15	489762	keystroke_e	e	n/a
245.046	0.06	490092	keystroke_p	p	n/a
245.286	0.195	490572	keystroke_l	l	n/a
245.586	0.1205	491172	keystroke_i	i	n/a
245.676	0.09	491352	keystroke_e	e	n/a
245.871	0.1355	491742	keystroke_d	d	n/a
246.0665	0.104	492133	keystroke_Key.space	Key.space	n/a
246.2315	0.09	492463	keystroke_e	e	n/a
246.561	0.135	493122	keystroke_n	n	n/a
246.697	0.149	493394	keystroke_d	d	n/a
246.891	0.1195	493782	keystroke_i	i	n/a
246.9955	0.105	493991	keystroke_f	f	n/a
247.161	0.1195	494322	keystroke_Key.space	Key.space	n/a
247.2955	0.12	494591	keystroke_s	s	n/a
247.4305	0.09	494861	keystroke_o	o	n/a
247.6555	0.1355	495311	keystroke_l	l	n/a
247.776	0.135	495552	keystroke_e	e	n/a
248.121	0.119	496242	keystroke_l	l	n/a
248.226	0.135	496452	keystroke_y	y	n/a
248.495	0.076	496990	keystroke_Key.enter	Key.enter	n/a
248.575	6.1775	497150	prompt	n/a	remember electronics steven hours\n
249.156	0.1495	498312	keystroke_r	r	n/a
249.2905	0.18	498581	keystroke_e	e	n/a
249.4555	0.105	498911	keystroke_m	m	n/a
249.6055	0.12	499211	keystroke_e	e	n/a
249.7415	0.074	499483	keystroke_m	m	n/a
249.8755	0.165	499751	keystroke_b	b	n/a
250.0265	0.1795	500053	keystroke_e	e	n/a
250.1605	0.105	500321	keystroke_r	r	n/a
250.2805	0.151	500561	keystroke_Key.space	Key.space	n/a
250.4165	0.12	500833	keystroke_e	e	n/a
250.5515	0.1495	501103	keystroke_l	l	n/a
250.686	0.09	501372	keystroke_e	e	n/a
250.926	0.105	501852	keystroke_c	c	n/a
251.166	0.09	502332	keystroke_t	t	n/a
251.4365	0.119	502873	keystroke_r	r	n/a
251.5855	0.166	503171	keystroke_o	o	n/a
251.7205	0.121	503441	keystroke_n	n	n/a
251.9615	0.134	503923	keystroke_i	i	n/a
252.1105	0.105	504221	keystroke_c	c	n/a
252.3055	0.165	504611	keystroke_s	s	n/a
252.4555	0.135	504911	keystroke_Key.space	Key.space	n/a
252.6505	0.075	505301	keystroke_s	s	n/a
252.8305	0.105	505661	keystroke_t	t	n/a
252.9805	0.105	505961	keystroke_e	e	n/a
253.2355	0.09	506471	keystroke_v	v	n/a
253.4155	0.105	506831	keystroke_e	e	n/a
253.5055	0.135	507011	keystroke_n	n	n/a
253.6855	0.105	507371	keystroke_Key.space	Key.space	n/a
253.8055	0.151	507611	keystroke_h	h	n/a
253.9265	0.21	507853	keystroke_o	o	n/a
254.0465	0.149	508093	keystroke_u	u	n/a
254.1815	0.12	508363	keystroke_r	r	n/a
254.3315	0.1645	508663	keystroke_s	s	n/a
254.661	0.09	509322	keystroke_Key.enter	Key.enter	n/a
254.7555	5.652	509511	prompt	n/a	msie centuries segment there\n
255.5005	0.12	511001	keystroke_m	m	n/a
255.7405	0.135	511481	keystroke_s	s	n/a
255.8915	0.134	511783	keystroke_i	i	n/a
256.0705	0.105	512141	keystroke_e	e	n/a
256.2355	0.12	512471	keystroke_Key.space	Key.space	n/a
256.4305	0.135	512861	keystroke_c	c	n/a
256.6255	0.12	513251	keystroke_e	e	n/a
256.7905	0.135	513581	keystroke_n	n	n/a
257.1805	0.09	514361	keystroke_t	t	n/a
257.4055	0.1205	514811	keystroke_u	u	n/a
257.541	0.09	515082	keystroke_r	r	n/a
257.691	0.1645	515382	keystroke_i	i	n/a
257.7955	0.27	515591	keystroke_e	e	n/a
258.0055	0.135	516011	keystroke_s	s	n/a
258.1555	0.1055	516311	keystroke_Key.space	Key.space	n/a
258.306	0.15	516612	keystroke_s	s	n/a
258.486	0.12	516972	keystroke_e	e	n/a
258.696	0.12	517392	keystroke_g	g	n/a
258.861	0.15	517722	keystroke_m	m	n/a
259.026	0.09	518052	keystroke_e	e	n/a
259.131	0.1495	518262	keystroke_n	n	n/a
259.2815	0.119	518563	keystroke_t	t	n/a
259.4155	0.12	518831	keystroke_Key.space	Key.space	n/a
259.5655	0.12	519131	keystroke_t	t	n/a
259.7005	0.15	519401	keystroke_h	h	n/a
259.7905	0.135	519581	keystroke_e	e	n/a
259.8955	0.18	519791	keystroke_r	r	n/a
260.0605	0.1355	520121	keystroke_e	e	n/a
260.331	0.075	520662	keystroke_Key.enter	Key.enter	n/a
260.41	6.402	520820	prompt	n/a	develops chapel focusing festivals\n
261.0055	0.105	522011	keystroke_d	d	n/a
261.2155	0.075	522431	keystroke_e	e	n/a
261.4555	0.1055	522911	keystroke_v	v	n/a
261.606	0.105	523212	keystroke_e	e	n/a
261.831	0.09	523662	keystroke_l	l	n/a
262.0555	0.0755	524111	keystroke_o	o	n/a
262.251	0.1195	524502	keystroke_p	p	n/a
262.4155	0.135	524831	keystroke_s	s	n/a
262.5355	0.15	525071	keystroke_Key.space	Key.space	n/a
262.866	0.1345	525732	keystroke_c	c	n/a
262.9705	0.09	525941	keystroke_h	h	n/a
263.1055	0.1055	526211	keystroke_a	a	n/a
263.241	0.12	526482	keystroke_p	p	n/a
263.406	0.135	526812	keystroke_e	e	n/a
263.616	0.165	527232	keystroke_l	l	n/a
263.766	0.135	527532	keystroke_Key.space	Key.space	n/a
263.886	0.12	527772	keystroke_f	f	n/a
263.976	0.15	527952	keystroke_o	o	n/a
264.186	0.1495	528372	keystroke_c	c	n/a
264.2905	0.105	528581	keystroke_u	u	n/a
264.4405	0.135	528881	keystroke_s	s	n/a
264.5605	0.12	529121	keystroke_i	i	n/a
264.6505	0.21	529301	keystroke_n	n	n/a
264.8155	0.105	529631	keystroke_g	g	n/a
264.9655	0.135	529931	keystroke_Key.space	Key.space	n/a
265.2505	0.105	530501	keystroke_f	f	n/a
265.461	0.15	530922	keystroke_e	e	n/a
265.596	0.12	531192	keystroke_s	s	n/a
265.791	0.09	531582	keystroke_t	t	n/a
265.896	0.12	531792	keystroke_i	i	n/a
266.061	0.09	532122	keystroke_v	v	n/a
266.226	0.105	532452	keystroke_a	a	n/a
266.316	0.12	532632	keystroke_l	l	n/a
266.466	0.105	532932	keystroke_s	s	n/a
266.736	0.075	533472	keystroke_Key.enter	Key.enter	n/a
266.8155	5.877	533631	prompt	n/a	hose popularity useful differences\n
267.426	0.15	534852	keystroke_h	h	n/a
267.7255	0.091	535451	keystroke_o	o	n/a
267.8615	0.194	535723	keystroke_s	s	n/a
268.0255	0.1205	536051	keystroke_e	e	n/a
268.176	0.09	536352	keystroke_Key.space	Key.space	n/a
268.296	0.15	536592	keystroke_p	p	n/a
268.446	0.135	536892	keystroke_o	o	n/a
268.566	0.105	537132	keystroke_p	p	n/a
268.776	0.075	537552	keystroke_u	u	n/a
268.971	0.12	537942	keystroke_l	l	n/a
269.046	0.21	538092	keystroke_a	a	n/a
269.196	0.1045	538392	keystroke_r	r	n/a
269.3305	0.15	538661	keystroke_i	i	n/a
269.496	0.0895	538992	keystroke_t	t	n/a
269.7055	0.091	539411	keystroke_y	y	n/a
269.841	0.105	539682	keystroke_Key.space	Key.space	n/a
269.976	0.15	539952	keystroke_u	u	n/a
270.096	0.18	540192	keystroke_s	s	n/a
270.231	0.09	540462	keystroke_e	e	n/a
270.516	0.045	541032	keystroke_f	f	n/a
270.531	0.09	541062	keystroke_u	u	n/a
270.756	0.15	541512	keystroke_l	l	n/a
270.891	0.15	541782	keystroke_Key.space	Key.space	n/a
271.056	0.135	542112	keystroke_d	d	n/a
271.206	0.105	542412	keystroke_i	i	n/a
271.296	0.09	542592	keystroke_f	f	n/a
271.461	0.105	542922	keystroke_f	f	n/a
271.626	0.1195	543252	keystroke_e	e	n/a
271.7605	0.12	543521	keystroke_r	r	n/a
271.8655	0.1055	543731	keystroke_e	e	n/a
272.001	0.135	544002	keystroke_n	n	n/a
272.106	0.165	544212	keystroke_c	c	n/a
272.256	0.165	544512	keystroke_e	e	n/a
272.361	0.165	544722	keystroke_s	s	n/a
272.601	0.09	545202	keystroke_Key.enter	Key.enter	n/a
272.6955	5.5025	545391	prompt	n/a	inch oracle belarus beaver\n
273.4265	0.015	546853	keystroke_i	i	n/a
273.4565	0.135	546913	keystroke_n	n	n/a
273.5915	0.134	547183	keystroke_c	c	n/a
273.7555	0.1355	547511	keystroke_h	h	n/a
273.906	0.135	547812	keystroke_Key.space	Key.space	n/a
274.0555	0.1505	548111	keystroke_o	o	n/a
274.191	0.1345	548382	keystroke_r	r	n/a
274.716	0.0895	549432	keystroke_a	a	n/a
274.956	0.105	549912	keystroke_c	c	n/a
275.076	0.15	550152	keystroke_l	l	n/a
275.241	0.06	550482	keystroke_e	e	n/a
275.271	0.15	550542	keystroke_Key.space	Key.space	n/a
275.481	0.15	550962	keystroke_b	b	n/a
275.646	0.09	551292	keystroke_e	e	n/a
275.841	0.135	551682	keystroke_l	l	n/a
275.961	0.165	551922	keystroke_a	a	n/a
276.111	0.09	552222	keystroke_r	r	n/a
276.231	0.135	552462	keystroke_u	u	n/a
276.396	0.105	552792	keystroke_s	s	n/a
276.516	0.15	553032	keystroke_Key.space	Key.space	n/a
276.846	0.135	553692	keystroke_b	b	n/a
277.026	0.09	554052	keystroke_e	e	n/a
277.311	0.09	554622	keystroke_a	a	n/a
277.581	0.075	555162	keystroke_v	v	n/a
277.7155	0.181	555431	keystroke_e	e	n/a
277.8665	0.12	555733	keystroke_r	r	n/a
278.1215	0.075	556243	keystroke_Key.enter	Key.enter	n/a
278.203	8.1245	556406	prompt	n/a	australian transformation learn bags\n
278.9765	0.1195	557953	keystroke_a	a	n/a
279.111	0.1205	558222	keystroke_u	u	n/a
279.3065	0.06	558613	keystroke_s	s	n/a
279.8015	0.075	559603	keystroke_t	t	n/a
280.0115	0.135	560023	keystroke_r	r	n/a
280.1165	0.18	560233	keystroke_a	a	n/a
280.2815	0.1945	560563	keystroke_l	l	n/a
280.416	0.135	560832	keystroke_i	i	n/a
280.611	0.12	561222	keystroke_a	a	n/a
280.716	0.15	561432	keystroke_n	n	n/a
280.881	0.1345	561762	keystroke_Key.space	Key.space	n/a
281.0305	0.09	562061	keystroke_t	t	n/a
281.2105	0.12	562421	keystroke_r	r	n/a
281.7205	0.135	563441	keystroke_a	a	n/a
281.8255	0.151	563651	keystroke_n	n	n/a
282.0055	0.091	564011	keystroke_s	s	n/a
282.4715	0.09	564943	keystroke_f	f	n/a
282.5905	0.12	565181	keystroke_o	o	n/a
282.6955	0.075	565391	keystroke_f	f	n/a
283.1455	0.0605	566291	keystroke_Key.backspace	Key.backspace	n/a
283.236	0.105	566472	keystroke_r	r	n/a
283.401	0.1345	566802	keystroke_m	m	n/a
283.5365	0.119	567073	keystroke_a	a	n/a
283.7455	0.12	567491	keystroke_t	t	n/a
283.8055	0.18	567611	keystroke_i	i	n/a
283.9405	0.195	567881	keystroke_o	o	n/a
284.0315	0.194	568063	keystroke_n	n	n/a
284.2265	0.179	568453	keystroke_Key.space	Key.space	n/a
284.4655	0.12	568931	keystroke_l	l	n/a
284.5405	0.076	569081	keystroke_e	e	n/a
284.7355	0.135	569471	keystroke_a	a	n/a
284.9305	0.12	569861	keystroke_r	r	n/a
285.0205	0.18	570041	keystroke_n	n	n/a
285.2155	0.15	570431	keystroke_s	s	n/a
285.3355	0.135	570671	keystroke_Key.space	Key.space	n/a
285.4255	0.166	570851	keystroke_b	b	n/a
285.5615	0.089	571123	keystroke_a	a	n/a
285.7865	0.075	571573	keystroke_g	g	n/a
285.9665	0.119	571933	keystroke_s	s	n/a
286.2215	0.105	572443	keystroke_Key.enter	Key.enter	n/a
286.33	5.6825	572660	prompt	n/a	ethnic ethernet hobbies armed\n
286.9265	0.09	573853	keystroke_e	e	n/a
287.1505	0.105	574301	keystroke_t	t	n/a
287.2105	0.136	574421	keystroke_h	h	n/a
287.4805	0.106	574961	keystroke_n	n	n/a
287.6605	0.151	575321	keystroke_i	i	n/a
287.8265	0.104	575653	keystroke_c	c	n/a
287.9455	0.135	575891	keystroke_Key.space	Key.space	n/a
288.1405	0.105	576281	keystroke_e	e	n/a
288.4255	0.105	576851	keystroke_t	t	n/a
288.5605	0.135	577121	keystroke_h	h	n/a
288.8305	0.09	577661	keystroke_e	e	n/a
289.0255	0.105	578051	keystroke_r	r	n/a
289.1605	0.1355	578321	keystroke_n	n	n/a
289.2655	0.1805	578531	keystroke_e	e	n/a
289.431	0.12	578862	keystroke_t	t	n/a
289.566	0.09	579132	keystroke_Key.space	Key.space	n/a
289.731	0.135	579462	keystroke_h	h	n/a
289.881	0.105	579762	keystroke_o	o	n/a
290.016	0.105	580032	keystroke_b	b	n/a
290.2255	0.075	580451	keystroke_b	b	n/a
290.4055	0.135	580811	keystroke_i	i	n/a
290.4955	0.21	580991	keystroke_e	e	n/a
290.6605	0.15	581321	keystroke_s	s	n/a
290.7655	0.12	581531	keystroke_Key.space	Key.space	n/a
290.9155	0.105	581831	keystroke_a	a	n/a
291.1555	0.1205	582311	keystroke_r	r	n/a
291.291	0.135	582582	keystroke_m	m	n/a
291.441	0.0895	582882	keystroke_e	e	n/a
291.6655	0.105	583331	keystroke_d	d	n/a
291.9055	0.105	583811	keystroke_Key.enter	Key.enter	n/a
292.015	6.702	584030	prompt	n/a	pantyhose presenting universities blast\n
292.7005	0.12	585401	keystroke_p	p	n/a
292.8205	0.09	585641	keystroke_a	a	n/a
292.9865	0.119	585973	keystroke_n	n	n/a
293.1205	0.09	586241	keystroke_t	t	n/a
293.331	0.0895	586662	keystroke_y	y	n/a
293.6455	0.12	587291	keystroke_h	h	n/a
293.7805	0.165	587561	keystroke_o	o	n/a
293.8865	0.21	587773	keystroke_s	s	n/a
293.9915	0.164	587983	keystroke_e	e	n/a
294.1255	0.105	588251	keystroke_Key.space	Key.space	n/a
294.2755	0.135	588551	keystroke_p	p	n/a
294.3805	0.15	588761	keystroke_r	r	n/a
294.4855	0.195	588971	keystroke_e	e	n/a
294.6205	0.2405	589241	keystroke_s	s	n/a
294.7855	0.1355	589571	keystroke_e	e	n/a
294.936	0.135	589872	keystroke_n	n	n/a
295.056	0.09	590112	keystroke_t	t	n/a
295.191	0.15	590382	keystroke_i	i	n/a
295.296	0.21	590592	keystroke_n	n	n/a
295.476	0.1345	590952	keystroke_g	g	n/a
295.6255	0.105	591251	keystroke_Key.space	Key.space	n/a
295.8205	0.105	591641	keystroke_u	u	n/a
295.9705	0.165	591941	keystroke_n	n	n/a
296.1205	0.1355	592241	keystroke_i	i	n/a
296.256	0.105	592512	keystroke_v	v	n/a
296.421	0.18	592842	keystroke_e	e	n/a
296.571	0.12	593142	keystroke_r	r	n/a
296.781	0.12	593562	keystroke_s	s	n/a
296.886	0.105	593772	keystroke_i	i	n/a
297.051	0.12	594102	keystroke_t	t	n/a
297.156	0.15	594312	keystroke_i	i	n/a
297.321	0.195	594642	keystroke_e	e	n/a
297.441	0.165	594882	keystroke_s	s	n/a
297.591	0.105	595182	keystroke_Key.space	Key.space	n/a
297.756	0.09	595512	keystroke_b	b	n/a
297.966	0.105	595932	keystroke_l	l	n/a
298.011	0.105	596022	keystroke_a	a	n/a
298.251	0.1055	596502	keystroke_s	s	n/a
298.4615	0.135	596923	keystroke_t	t	n/a
298.6405	0.075	597281	keystroke_Key.enter	Key.enter	n/a
298.722	7.855	597444	prompt	n/a	junk innovation zoning warranty\n
299.421	0.105	598842	keystroke_j	j	n/a
299.631	0.075	599262	keystroke_u	u	n/a
299.8255	0.18	599651	keystroke_n	n	n/a
299.9755	0.18	599951	keystroke_k	k	n/a
300.1705	0.106	600341	keystroke_Key.space	Key.space	n/a
300.3055	0.136	600611	keystroke_i	i	n/a
300.426	0.105	600852	keystroke_n	n	n/a
300.6065	0.105	601213	keystroke_n	n	n/a
300.7555	0.136	601511	keystroke_o	o	n/a
300.9655	0.106	601931	keystroke_v	v	n/a
301.2215	0.089	602443	keystroke_a	a	n/a
301.446	0.15	602892	keystroke_t	t	n/a
301.596	0.0745	603192	keystroke_i	i	n/a
301.626	0.2245	603252	keystroke_o	o	n/a
301.8355	0.195	603671	keystroke_n	n	n/a
302.0755	0.135	604151	keystroke_Key.space	Key.space	n/a
302.601	0.165	605202	keystroke_z	z	n/a
302.751	0.105	605502	keystroke_o	o	n/a
302.796	0.1645	605592	keystroke_n	n	n/a
303.066	0.1495	606132	keystroke_i	i	n/a
303.081	0.0595	606162	keystroke_g	g	n/a
303.5905	0.075	607181	keystroke_Key.backspace	Key.backspace	n/a
304.101	0.135	608202	keystroke_n	n	n/a
304.266	0.105	608532	keystroke_g	g	n/a
304.536	0.09	609072	keystroke_Key.space	Key.space	n/a
304.986	0.135	609972	keystroke_w	w	n/a
305.271	0.135	610542	keystroke_a	a	n/a
305.391	0.075	610782	keystroke_r	r	n/a
305.571	0.0895	611142	keystroke_r	r	n/a
305.781	0.1045	611562	keystroke_a	a	n/a
305.7955	0.105	611591	keystroke_n	n	n/a
306.0055	0.076	612011	keystroke_t	t	n/a
306.2305	0.105	612461	keystroke_y	y	n/a
306.5005	0.075	613001	keystroke_Key.enter	Key.enter	n/a
306.58	4.7375	613160	prompt	n/a	body zambia types atlas\n
307.2965	0.074	614593	keystroke_b	b	n/a
307.4765	0.119	614953	keystroke_o	o	n/a
307.5215	0.134	615043	keystroke_d	d	n/a
307.7765	0.1195	615553	keystroke_y	y	n/a
307.866	0.105	615732	keystroke_Key.space	Key.space	n/a
308.091	0.1495	616182	keystroke_z	z	n/a
308.4655	0.135	616931	keystroke_a	a	n/a
308.5855	0.105	617171	keystroke_m	m	n/a
308.781	0.1045	617562	keystroke_b	b	n/a
309.0055	0.12	618011	keystroke_i	i	n/a
309.1405	0.15	618281	keystroke_a	a	n/a
309.3055	0.15	618611	keystroke_Key.space	Key.space	n/a
309.4705	0.075	618941	keystroke_t	t	n/a
309.6505	0.105	619301	keystroke_y	y	n/a
309.7705	0.1055	619541	keystroke_p	p	n/a
309.906	0.165	619812	keystroke_e	e	n/a
309.996	0.1355	619992	keystroke_s	s	n/a
310.056	0.1495	620112	keystroke_Key.space	Key.space	n/a
310.2655	0.105	620531	keystroke_a	a	n/a
310.491	0.09	620982	keystroke_t	t	n/a
310.611	0.12	621222	keystroke_l	l	n/a
310.716	0.135	621432	keystroke_a	a	n/a
310.971	0.12	621942	keystroke_s	s	n/a
311.226	0.0895	622452	keystroke_Key.enter	Key.enter	n/a
311.321	7.331	622642	prompt	n/a	gardens latin profits frame\n
311.9005	0.105	623801	keystroke_g	g	n/a
312.1265	0.164	624253	keystroke_a	a	n/a
312.2005	0.12	624401	keystroke_r	r	n/a
313.2805	0.12	626561	keystroke_d	d	n/a
313.5655	0.09	627131	keystroke_e	e	n/a
313.7005	0.105	627401	keystroke_n	n	n/a
313.8805	0.12	627761	keystroke_s	s	n/a
314.0305	0.105	628061	keystroke_Key.space	Key.space	n/a
314.211	0.1495	628422	keystroke_l	l	n/a
314.316	0.0895	628632	keystroke_a	a	n/a
314.5105	0.1205	629021	keystroke_t	t	n/a
314.691	0.12	629382	keystroke_i	i	n/a
315.006	0.18	630012	keystroke_n	n	n/a
315.216	0.12	630432	keystroke_Key.space	Key.space	n/a
315.366	0.12	630732	keystroke_p	p	n/a
315.456	0.105	630912	keystroke_r	r	n/a
315.576	0.1195	631152	keystroke_o	o	n/a
315.7115	0.105	631423	keystroke_f	f	n/a
315.9805	0.091	631961	keystroke_i	i	n/a
316.3265	0.105	632653	keystroke_t	t	n/a
316.5355	0.165	633071	keystroke_s	s	n/a
316.7155	0.12	633431	keystroke_Key.space	Key.space	n/a
316.9405	0.091	633881	keystroke_f	f	n/a
317.1515	0.104	634303	keystroke_r	r	n/a
317.2855	0.135	634571	keystroke_m	m	n/a
317.4055	0.121	634811	keystroke_a	a	n/a
317.7805	0.075	635561	keystroke_Key.backspace	Key.backspace	n/a
317.9305	0.045	635861	keystroke_Key.backspace	Key.backspace	n/a
318.0365	0.15	636073	keystroke_a	a	n/a
318.1715	0.119	636343	keystroke_m	m	n/a
318.3505	0.106	636701	keystroke_e	e	n/a
318.5755	0.075	637151	keystroke_Key.enter	Key.enter	n/a
318.6555	6.477	637311	prompt	n/a	genesis telephone might've probe\n
319.2365	0.12	638473	keystroke_g	g	n/a
319.4605	0.106	638921	keystroke_e	e	n/a
319.5515	0.12	639103	keystroke_n	n	n/a
319.7455	0.09	639491	keystroke_e	e	n/a
319.9555	0.1055	639911	keystroke_s	s	n/a
320.091	0.15	640182	keystroke_i	i	n/a
320.211	0.135	640422	keystroke_s	s	n/a
320.361	0.105	640722	keystroke_Key.space	Key.space	n/a
320.481	0.105	640962	keystroke_t	t	n/a
320.6305	0.135	641261	keystroke_e	e	n/a
320.7205	0.15	641441	keystroke_l	l	n/a
321.0505	0.12	642101	keystroke_e	e	n/a
321.4255	0.105	642851	keystroke_p	p	n/a
321.6655	0.15	643331	keystroke_h	h	n/a
321.8305	0.165	643661	keystroke_o	o	n/a
321.9505	0.18	643901	keystroke_n	n	n/a
322.1155	0.105	644231	keystroke_e	e	n/a
322.2205	0.105	644441	keystroke_Key.space	Key.space	n/a
322.4155	0.12	644831	keystroke_m	m	n/a
322.8505	0.1055	645701	keystroke_i	i	n/a
322.926	0.105	645852	keystroke_g	g	n/a
323.076	0.12	646152	keystroke_h	h	n/a
323.211	0.12	646422	keystroke_t	t	n/a
323.391	0.12	646782	keystroke_'	'	n/a
323.721	0.105	647442	keystroke_v	v	n/a
323.916	0.12	647832	keystroke_e	e	n/a
324.081	0.12	648162	keystroke_Key.space	Key.space	n/a
324.306	0.12	648612	keystroke_p	p	n/a
324.411	0.12	648822	keystroke_r	r	n/a
324.516	0.09	649032	keystroke_o	o	n/a
324.726	0.105	649452	keystroke_b	b	n/a
324.846	0.105	649692	keystroke_e	e	n/a
325.056	0.075	650112	keystroke_Key.enter	Key.enter	n/a
325.135	5.2175	650270	prompt	n/a	created nato advice assign\n
325.8815	0.075	651763	keystroke_c	c	n/a
326.1515	0.12	652303	keystroke_r	r	n/a
326.2265	0.105	652453	keystroke_e	e	n/a
326.4215	0.165	652843	keystroke_a	a	n/a
326.6015	0.09	653203	keystroke_t	t	n/a
326.7815	0.09	653563	keystroke_e	e	n/a
326.9915	0.135	653983	keystroke_d	d	n/a
327.1115	0.104	654223	keystroke_Key.space	Key.space	n/a
327.2915	0.12	654583	keystroke_n	n	n/a
327.3665	0.105	654733	keystroke_a	a	n/a
327.5765	0.1195	655153	keystroke_t	t	n/a
327.711	0.15	655422	keystroke_o	o	n/a
327.831	0.165	655662	keystroke_Key.space	Key.space	n/a
327.966	0.15	655932	keystroke_a	a	n/a
328.101	0.075	656202	keystroke_d	d	n/a
328.326	0.105	656652	keystroke_v	v	n/a
328.551	0.12	657102	keystroke_i	i	n/a
328.641	0.21	657282	keystroke_c	c	n/a
328.836	0.12	657672	keystroke_e	e	n/a
328.956	0.15	657912	keystroke_Key.space	Key.space	n/a
329.121	0.12	658242	keystroke_a	a	n/a
329.361	0.105	658722	keystroke_s	s	n/a
329.556	0.075	659112	keystroke_s	s	n/a
329.6615	0.119	659323	keystroke_i	i	n/a
329.8405	0.135	659681	keystroke_g	g	n/a
329.9605	0.105	659921	keystroke_n	n	n/a
330.2605	0.09	660521	keystroke_Key.enter	Key.enter	n/a
330.355	4.752	660710	prompt	n/a	orleans dies at particular\n
330.9505	0.12	661901	keystroke_o	o	n/a
331.0555	0.12	662111	keystroke_r	r	n/a
331.2655	0.105	662531	keystroke_l	l	n/a
331.4155	0.105	662831	keystroke_e	e	n/a
331.6555	0.09	663311	keystroke_a	a	n/a
331.7605	0.105	663521	keystroke_n	n	n/a
331.8805	0.12	663761	keystroke_s	s	n/a
332.0155	0.09	664031	keystroke_Key.space	Key.space	n/a
332.1505	0.135	664301	keystroke_d	d	n/a
332.2865	0.165	664573	keystroke_i	i	n/a
332.4665	0.09	664933	keystroke_e	e	n/a
332.721	0.1205	665442	keystroke_s	s	n/a
332.8565	0.105	665713	keystroke_Key.space	Key.space	n/a
332.9915	0.0895	665983	keystroke_a	a	n/a
333.2165	0.119	666433	keystroke_t	t	n/a
333.3515	0.089	666703	keystroke_Key.space	Key.space	n/a
333.5005	0.136	667001	keystroke_p	p	n/a
333.6215	0.1795	667243	keystroke_a	a	n/a
333.771	0.09	667542	keystroke_r	r	n/a
333.966	0.09	667932	keystroke_t	t	n/a
334.041	0.105	668082	keystroke_i	i	n/a
334.251	0.105	668502	keystroke_c	c	n/a
334.311	0.09	668622	keystroke_u	u	n/a
334.536	0.15	669072	keystroke_l	l	n/a
334.626	0.165	669252	keystroke_a	a	n/a
334.761	0.105	669522	keystroke_r	r	n/a
335.031	0.075	670062	keystroke_Key.enter	Key.enter	n/a
335.1105	6.762	670221	prompt	n/a	justice victory creative assessed\n
335.8115	0.075	671623	keystroke_j	j	n/a
336.0065	0.09	672013	keystroke_u	u	n/a
336.1415	0.1195	672283	keystroke_s	s	n/a
336.336	0.12	672672	keystroke_t	t	n/a
336.471	0.12	672942	keystroke_i	i	n/a
336.636	0.15	673272	keystroke_c	c	n/a
336.801	0.09	673602	keystroke_e	e	n/a
336.876	0.135	673752	keystroke_Key.space	Key.space	n/a
337.086	0.12	674172	keystroke_v	v	n/a
337.191	0.12	674382	keystroke_i	i	n/a
337.491	0.12	674982	keystroke_c	c	n/a
337.761	0.09	675522	keystroke_t	t	n/a
337.866	0.105	675732	keystroke_o	o	n/a
337.986	0.075	675972	keystroke_r	r	n/a
338.196	0.105	676392	keystroke_y	y	n/a
338.376	0.15	676752	keystroke_Key.space	Key.space	n/a
338.556	0.105	677112	keystroke_c	c	n/a
338.826	0.12	677652	keystroke_r	r	n/a
338.931	0.105	677862	keystroke_e	e	n/a
339.156	0.12	678312	keystroke_a	a	n/a
339.306	0.12	678612	keystroke_t	t	n/a
339.456	0.15	678912	keystroke_i	i	n/a
339.621	0.12	679242	keystroke_v	v	n/a
339.801	0.105	679602	keystroke_e	e	n/a
339.921	0.12	679842	keystroke_Key.space	Key.space	n/a
340.071	0.105	680142	keystroke_a	a	n/a
340.281	0.105	680562	keystroke_s	s	n/a
340.491	0.1195	680982	keystroke_s	s	n/a
340.7455	0.105	681491	keystroke_e	e	n/a
340.9415	0.089	681883	keystroke_s	s	n/a
341.1355	0.105	682271	keystroke_s	s	n/a
341.286	0.075	682572	keystroke_e	e	n/a
341.481	0.105	682962	keystroke_d	d	n/a
341.796	0.075	683592	keystroke_Key.enter	Key.enter	n/a
341.875	6.972	683750	prompt	n/a	mobile honolulu botswana portuguese\n
342.441	0.135	684882	keystroke_m	m	n/a
342.681	0.12	685362	keystroke_o	o	n/a
342.921	0.09	685842	keystroke_b	b	n/a
343.101	0.09	686202	keystroke_i	i	n/a
343.296	0.15	686592	keystroke_l	l	n/a
343.386	0.12	686772	keystroke_e	e	n/a
343.521	0.105	687042	keystroke_Key.space	Key.space	n/a
343.641	0.18	687282	keystroke_h	h	n/a
343.806	0.165	687612	keystroke_o	o	n/a
343.956	0.18	687912	keystroke_n	n	n/a
344.151	0.075	688302	keystroke_o	o	n/a
344.376	0.105	688752	keystroke_l	l	n/a
344.511	0.135	689022	keystroke_u	u	n/a
344.7365	0.195	689473	keystroke_l	l	n/a
344.8715	0.18	689743	keystroke_u	u	n/a
345.0655	0.151	690131	keystroke_Key.space	Key.space	n/a
345.2755	0.135	690551	keystroke_b	b	n/a
345.4855	0.135	690971	keystroke_o	o	n/a
345.6355	0.12	691271	keystroke_t	t	n/a
345.8455	0.15	691691	keystroke_s	s	n/a
346.1455	0.165	692291	keystroke_w	w	n/a
346.2955	0.135	692591	keystroke_a	a	n/a
346.4605	0.165	692921	keystroke_n	n	n/a
346.6105	0.165	693221	keystroke_a	a	n/a
346.7755	0.135	693551	keystroke_Key.space	Key.space	n/a
346.9555	0.15	693911	keystroke_p	p	n/a
347.0915	0.149	694183	keystroke_o	o	n/a
347.1955	0.09	694391	keystroke_r	r	n/a
347.3905	0.105	694781	keystroke_t	t	n/a
347.5255	0.12	695051	keystroke_u	u	n/a
347.7505	0.105	695501	keystroke_g	g	n/a
347.9755	0.105	695951	keystroke_u	u	n/a
348.2155	0.15	696431	keystroke_e	e	n/a
348.3205	0.24	696641	keystroke_s	s	n/a
348.5455	0.09	697091	keystroke_e	e	n/a
348.7705	0.075	697541	keystroke_Key.enter	Key.enter	n/a
348.8495	5.848	697699	prompt	n/a	round treatment monte shareholders\n
349.476	0.12	698952	keystroke_r	r	n/a
349.581	0.135	699162	keystroke_o	o	n/a
349.686	0.135	699372	keystroke_u	u	n/a
349.776	0.21	699552	keystroke_n	n	n/a
349.881	0.135	699762	keystroke_d	d	n/a
350.001	0.1645	700002	keystroke_Key.space	Key.space	n/a
350.1515	0.09	700303	keystroke_t	t	n/a
350.3465	0.105	700693	keystroke_r	r	n/a
350.4965	0.104	700993	keystroke_e	e	n/a
350.7515	0.134	701503	keystroke_a	a	n/a
350.8405	0.091	701681	keystroke_t	t	n/a
351.0965	0.135	702193	keystroke_m	m	n/a
351.2155	0.091	702431	keystroke_e	e	n/a
351.3365	0.1645	702673	keystroke_n	n	n/a
351.501	0.12	703002	keystroke_t	t	n/a
351.606	0.12	703212	keystroke_Key.space	Key.space	n/a
351.741	0.135	703482	keystroke_m	m	n/a
351.891	0.18	703782	keystroke_o	o	n/a
352.026	0.165	704052	keystroke_n	n	n/a
352.161	0.105	704322	keystroke_t	t	n/a
352.356	0.12	704712	keystroke_e	e	n/a
352.536	0.105	705072	keystroke_Key.space	Key.space	n/a
352.671	0.12	705342	keystroke_s	s	n/a
352.776	0.12	705552	keystroke_h	h	n/a
352.971	0.105	705942	keystroke_a	a	n/a
353.136	0.1795	706272	keystroke_r	r	n/a
353.2865	0.135	706573	keystroke_e	e	n/a
353.4515	0.104	706903	keystroke_h	h	n/a
353.6305	0.09	707261	keystroke_o	o	n/a
353.8405	0.12	707681	keystroke_l	l	n/a
353.8705	0.105	707741	keystroke_d	d	n/a
354.1405	0.12	708281	keystroke_e	e	n/a
354.2305	0.15	708461	keystroke_r	r	n/a
354.4255	0.135	708851	keystroke_s	s	n/a
354.6205	0.075	709241	keystroke_Key.enter	Key.enter	n/a
354.7005	7.137	709401	prompt	n/a	plans situated massage buddy\n
355.311	0.09	710622	keystroke_p	p	n/a
355.521	0.105	711042	keystroke_l	l	n/a
355.611	0.105	711222	keystroke_a	a	n/a
355.761	0.135	711522	keystroke_n	n	n/a
356.226	0.135	712452	keystroke_s	s	n/a
356.391	0.12	712782	keystroke_Key.space	Key.space	n/a
356.571	0.12	713142	keystroke_s	s	n/a
356.676	0.09	713352	keystroke_i	i	n/a
357.066	0.09	714132	keystroke_t	t	n/a
357.351	0.015	714702	keystroke_u	u	n/a
357.3815	0.135	714763	keystroke_a	a	n/a
357.531	0.09	715062	keystroke_t	t	n/a
357.786	0.09	715572	keystroke_e	e	n/a
358.011	0.09	716022	keystroke_d	d	n/a
358.116	0.105	716232	keystroke_Key.space	Key.space	n/a
358.356	0.12	716712	keystroke_m	m	n/a
358.461	0.09	716922	keystroke_a	a	n/a
358.671	0.06	717342	keystroke_s	s	n/a
358.821	0.075	717642	keystroke_s	s	n/a
359.001	0.09	718002	keystroke_a	a	n/a
359.241	0.1045	718482	keystroke_g	g	n/a
359.3755	0.106	718751	keystroke_e	e	n/a
359.4655	0.121	718931	keystroke_Key.space	Key.space	n/a
359.6005	0.12	719201	keystroke_b	b	n/a
359.7355	0.105	719471	keystroke_d	d	n/a
359.7505	0.12	719501	keystroke_u	u	n/a
360.0505	0.06	720101	keystroke_y	y	n/a
360.3955	0.075	720791	keystroke_Key.backspace	Key.backspace	n/a
360.5605	0.06	721121	keystroke_Key.backspace	Key.backspace	n/a
360.6955	0.06	721391	keystroke_Key.backspace	Key.backspace	n/a
360.9655	0.105	721931	keystroke_u	u	n/a
361.0415	0.089	722083	keystroke_d	d	n/a
361.2355	0.12	722471	keystroke_d	d	n/a
361.4905	0.12	722981	keystroke_y	y	n/a
361.7455	0.09	723491	keystroke_Key.enter	Key.enter	n/a
361.8415	7.736	723683	prompt	n/a	forgot obesity reviews directly\n
362.451	0.105	724902	keystroke_f	f	n/a
362.586	0.12	725172	keystroke_o	o	n/a
362.691	0.0745	725382	keystroke_r	r	n/a
362.8855	0.09	725771	keystroke_g	g	n/a
363.0055	0.09	726011	keystroke_o	o	n/a
363.1255	0.105	726251	keystroke_t	t	n/a
363.276	0.12	726552	keystroke_Key.space	Key.space	n/a
363.456	0.09	726912	keystroke_o	o	n/a
363.666	0.135	727332	keystroke_b	b	n/a
363.816	0.075	727632	keystroke_s	s	n/a
364.131	0.075	728262	keystroke_Key.backspace	Key.backspace	n/a
364.281	0.195	728562	keystroke_e	e	n/a
364.386	0.135	728772	keystroke_s	s	n/a
364.641	0.12	729282	keystroke_t	t	n/a
364.776	0.12	729552	keystroke_i	i	n/a
365.5705	0.075	731141	keystroke_Key.backspace	Key.backspace	n/a
365.7355	0.06	731471	keystroke_Key.backspace	Key.backspace	n/a
365.9905	0.09	731981	keystroke_i	i	n/a
366.0655	0.075	732131	keystroke_t	t	n/a
366.2755	0.105	732551	keystroke_y	y	n/a
366.5305	0.12	733061	keystroke_Key.space	Key.space	n/a
366.7865	0.12	733573	keystroke_r	r	n/a
366.8915	0.105	733783	keystroke_e	e	n/a
367.146	0.09	734292	keystroke_v	v	n/a
367.2955	0.105	734591	keystroke_i	i	n/a
367.4155	0.195	734831	keystroke_e	e	n/a
367.5505	0.12	735101	keystroke_w	w	n/a
367.821	0.0905	735642	keystroke_s	s	n/a
367.9865	0.119	735973	keystroke_Key.space	Key.space	n/a
368.151	0.135	736302	keystroke_d	d	n/a
368.2715	0.1495	736543	keystroke_i	i	n/a
368.391	0.15	736782	keystroke_r	r	n/a
368.5265	0.105	737053	keystroke_e	e	n/a
368.751	0.105	737502	keystroke_c	c	n/a
368.9765	0.075	737953	keystroke_t	t	n/a
369.111	0.1195	738222	keystroke_l	l	n/a
369.2455	0.105	738491	keystroke_y	y	n/a
369.5165	0.059	739033	keystroke_Key.enter	Key.enter	n/a
369.58	7.978	739160	prompt	n/a	regulatory versus accurately structure\n
370.2215	0.12	740443	keystroke_r	r	n/a
370.3255	0.135	740651	keystroke_e	e	n/a
370.5515	0.1195	741103	keystroke_g	g	n/a
370.686	0.075	741372	keystroke_u	u	n/a
370.896	0.135	741792	keystroke_l	l	n/a
370.971	0.135	741942	keystroke_a	a	n/a
371.121	0.105	742242	keystroke_t	t	n/a
371.256	0.135	742512	keystroke_o	o	n/a
371.361	0.09	742722	keystroke_r	r	n/a
371.586	0.105	743172	keystroke_y	y	n/a
371.781	0.105	743562	keystroke_Key.space	Key.space	n/a
372.0055	0.135	744011	keystroke_v	v	n/a
372.2155	0.165	744431	keystroke_e	e	n/a
372.3505	0.12	744701	keystroke_r	r	n/a
372.606	0.135	745212	keystroke_s	s	n/a
372.726	0.135	745452	keystroke_u	u	n/a
372.876	0.105	745752	keystroke_s	s	n/a
373.056	0.105	746112	keystroke_Key.space	Key.space	n/a
373.176	0.0755	746352	keystroke_s	s	n/a
373.506	0.09	747012	keystroke_Key.backspace	Key.backspace	n/a
373.611	0.135	747222	keystroke_a	a	n/a
373.881	0.06	747762	keystroke_c	c	n/a
373.971	0.15	747942	keystroke_c	c	n/a
374.151	0.075	748302	keystroke_u	u	n/a
374.406	0.105	748812	keystroke_r	r	n/a
374.766	0.09	749532	keystroke_a	a	n/a
374.976	0.105	749952	keystroke_t	t	n/a
375.141	0.15	750282	keystroke_e	e	n/a
375.321	0.12	750642	keystroke_l	l	n/a
375.471	0.09	750942	keystroke_y	y	n/a
375.651	0.135	751302	keystroke_Key.space	Key.space	n/a
375.816	0.105	751632	keystroke_s	s	n/a
376.086	0.075	752172	keystroke_t	t	n/a
376.281	0.075	752562	keystroke_r	r	n/a
376.371	0.105	752742	keystroke_u	u	n/a
376.521	0.12	753042	keystroke_c	c	n/a
376.791	0.09	753582	keystroke_t	t	n/a
376.896	0.12	753792	keystroke_u	u	n/a
377.061	0.135	754122	keystroke_r	r	n/a
377.211	0.135	754422	keystroke_e	e	n/a
377.481	0.075	754962	keystroke_Key.enter	Key.enter	n/a
377.561	6.3415	755122	prompt	n/a	what'll parcel bureau roland\n
378.201	0.105	756402	keystroke_w	w	n/a
378.336	0.12	756672	keystroke_h	h	n/a
378.516	0.12	757032	keystroke_a	a	n/a
378.756	0.105	757512	keystroke_t	t	n/a
379.116	0.09	758232	keystroke_'	'	n/a
379.506	0.09	759012	keystroke_l	l	n/a
379.716	0.12	759432	keystroke_l	l	n/a
379.941	0.135	759882	keystroke_Key.space	Key.space	n/a
380.1365	0.1345	760273	keystroke_p	p	n/a
380.2265	0.135	760453	keystroke_a	a	n/a
380.571	0.0905	761142	keystroke_r	r	n/a
380.856	0.09	761712	keystroke_c	c	n/a
381.0815	0.1345	762163	keystroke_e	e	n/a
381.201	0.135	762402	keystroke_l	l	n/a
381.276	0.135	762552	keystroke_Key.space	Key.space	n/a
381.471	0.135	762942	keystroke_b	b	n/a
381.696	0.135	763392	keystroke_u	u	n/a
381.801	0.105	763602	keystroke_r	r	n/a
382.071	0.105	764142	keystroke_e	e	n/a
382.326	0.075	764652	keystroke_a	a	n/a
382.476	0.165	764952	keystroke_u	u	n/a
382.671	0.12	765342	keystroke_Key.space	Key.space	n/a
382.821	0.12	765642	keystroke_r	r	n/a
382.986	0.03	765972	keystroke_o	o	n/a
383.136	0.09	766272	keystroke_l	l	n/a
383.316	0.105	766632	keystroke_a	a	n/a
383.436	0.12	766872	keystroke_n	n	n/a
383.571	0.1195	767142	keystroke_d	d	n/a
383.8105	0.09	767621	keystroke_Key.enter	Key.enter	n/a
383.905	7.2275	767810	prompt	n/a	string signatures portuguese ease\n
384.4265	0.12	768853	keystroke_s	s	n/a
384.7265	0.075	769453	keystroke_t	t	n/a
384.9815	0.12	769963	keystroke_r	r	n/a
385.1465	0.135	770293	keystroke_i	i	n/a
385.236	0.1955	770472	keystroke_n	n	n/a
385.3865	0.09	770773	keystroke_g	g	n/a
385.4765	0.105	770953	keystroke_Key.space	Key.space	n/a
385.6415	0.105	771283	keystroke_s	s	n/a
385.7315	0.12	771463	keystroke_i	i	n/a
385.9415	0.09	771883	keystroke_g	g	n/a
386.1215	0.12	772243	keystroke_n	n	n/a
386.6155	0.105	773231	keystroke_a	a	n/a
386.9005	0.015	773801	keystroke_t	t	n/a
386.9305	0.12	773861	keystroke_u	u	n/a
387.0655	0.12	774131	keystroke_r	r	n/a
387.1405	0.255	774281	keystroke_e	e	n/a
387.3355	0.105	774671	keystroke_s	s	n/a
387.4705	0.12	774941	keystroke_Key.space	Key.space	n/a
387.6355	0.1505	775271	keystroke_p	p	n/a
387.756	0.165	775512	keystroke_o	o	n/a
387.936	0.075	775872	keystroke_r	r	n/a
388.161	0.09	776322	keystroke_t	t	n/a
388.356	0.12	776712	keystroke_u	u	n/a
388.551	0.12	777102	keystroke_g	g	n/a
388.836	0.075	777672	keystroke_e	e	n/a
389.211	0.0745	778422	keystroke_Key.backspace	Key.backspace	n/a
389.5115	0.074	779023	keystroke_u	u	n/a
389.6305	0.0905	779261	keystroke_e	e	n/a
389.871	0.165	779742	keystroke_s	s	n/a
390.021	0.105	780042	keystroke_e	e	n/a
390.171	0.135	780342	keystroke_Key.space	Key.space	n/a
390.291	0.06	780582	keystroke_e	e	n/a
390.441	0.105	780882	keystroke_a	a	n/a
390.651	0.15	781302	keystroke_s	s	n/a
390.771	0.09	781542	keystroke_e	e	n/a
391.0555	0.075	782111	keystroke_Key.enter	Key.enter	n/a
391.135	7.7225	782270	prompt	n/a	elsewhere agenda recreation publicly\n
391.8065	0.12	783613	keystroke_e	e	n/a
392.0165	0.165	784033	keystroke_l	l	n/a
392.2715	0.164	784543	keystroke_s	s	n/a
392.3755	0.105	784751	keystroke_e	e	n/a
392.6005	0.091	785201	keystroke_w	w	n/a
392.7055	0.15	785411	keystroke_h	h	n/a
392.8405	0.121	785681	keystroke_e	e	n/a
392.9615	0.194	785923	keystroke_r	r	n/a
393.0955	0.135	786191	keystroke_e	e	n/a
393.2755	0.12	786551	keystroke_Key.space	Key.space	n/a
393.3655	0.105	786731	keystroke_a	a	n/a
393.5615	0.1045	787123	keystroke_g	g	n/a
393.7705	0.075	787541	keystroke_e	e	n/a
393.8465	0.134	787693	keystroke_n	n	n/a
393.9955	0.12	787991	keystroke_a	a	n/a
394.4155	0.09	788831	keystroke_Key.backspace	Key.backspace	n/a
394.5205	0.105	789041	keystroke_d	d	n/a
394.7305	0.165	789461	keystroke_a	a	n/a
394.9405	0.12	789881	keystroke_Key.space	Key.space	n/a
395.3305	0.195	790661	keystroke_r	r	n/a
395.6005	0.09	791201	keystroke_e	e	n/a
395.8415	0.09	791683	keystroke_c	c	n/a
396.0965	0.135	792193	keystroke_r	r	n/a
396.1865	0.12	792373	keystroke_e	e	n/a
396.4115	0.12	792823	keystroke_a	a	n/a
396.6065	0.105	793213	keystroke_t	t	n/a
396.7415	0.12	793483	keystroke_i	i	n/a
396.9065	0.15	793813	keystroke_o	o	n/a
397.0115	0.21	794023	keystroke_n	n	n/a
397.2065	0.15	794413	keystroke_Key.space	Key.space	n/a
397.3715	0.105	794743	keystroke_p	p	n/a
397.5365	0.12	795073	keystroke_u	u	n/a
397.716	0.12	795432	keystroke_b	b	n/a
397.926	0.165	795852	keystroke_l	l	n/a
398.031	0.135	796062	keystroke_i	i	n/a
398.181	0.105	796362	keystroke_c	c	n/a
398.346	0.165	796692	keystroke_l	l	n/a
398.526	0.09	797052	keystroke_y	y	n/a
398.766	0.09	797532	keystroke_Key.enter	Key.enter	n/a
398.8615	8.351	797723	prompt	n/a	athletes getting angry politicians\n
399.4555	0.15	798911	keystroke_a	a	n/a
399.7405	0.105	799481	keystroke_t	t	n/a
399.8155	0.12	799631	keystroke_h	h	n/a
400.0405	0.12	800081	keystroke_l	l	n/a
400.1155	0.12	800231	keystroke_e	e	n/a
400.3255	0.135	800651	keystroke_t	t	n/a
400.4455	0.21	800891	keystroke_e	e	n/a
400.5955	0.136	801191	keystroke_s	s	n/a
400.7165	0.135	801433	keystroke_Key.space	Key.space	n/a
400.8665	0.105	801733	keystroke_g	g	n/a
401.0315	0.105	802063	keystroke_e	e	n/a
401.1965	0.0895	802393	keystroke_t	t	n/a
401.391	0.09	802782	keystroke_t	t	n/a
401.466	0.1355	802932	keystroke_i	i	n/a
401.5565	0.195	803113	keystroke_n	n	n/a
401.6765	0.134	803353	keystroke_g	g	n/a
401.8265	0.119	803653	keystroke_Key.space	Key.space	n/a
401.9605	0.09	803921	keystroke_a	a	n/a
402.0805	0.12	804161	keystroke_n	n	n/a
402.2165	0.074	804433	keystroke_g	g	n/a
402.4105	0.075	804821	keystroke_r	r	n/a
402.6205	0.105	805241	keystroke_y	y	n/a
402.7855	0.12	805571	keystroke_Key.space	Key.space	n/a
402.9355	0.15	805871	keystroke_p	p	n/a
403.0555	0.135	806111	keystroke_o	o	n/a
403.2955	0.165	806591	keystroke_l	l	n/a
403.4305	0.105	806861	keystroke_i	i	n/a
403.5805	0.105	807161	keystroke_t	t	n/a
403.6705	0.12	807341	keystroke_i	i	n/a
403.8655	0.12	807731	keystroke_c	c	n/a
404.4805	0.105	808961	keystroke_i	i	n/a
404.736	0.0905	809472	keystroke_Key.caps_lock	Key.caps_lock	n/a
404.8265	0.1195	809653	keystroke_n	n	n/a
405.411	0.06	810822	keystroke_Key.backspace	Key.backspace	n/a
406.2205	0.105	812441	keystroke_a	a	n/a
406.3405	0.12	812681	keystroke_n	n	n/a
406.4615	0.119	812923	keystroke_s	s	n/a
407.1505	0.06	814301	keystroke_Key.enter	Key.enter	n/a
407.217	8.2305	814434	prompt	n/a	israel counsel simplified advisors\n
408.0355	0.075	816071	keystroke_Key.caps_lock	Key.caps_lock	n/a
408.3805	0.135	816761	keystroke_i	i	n/a
408.8155	0.09	817631	keystroke_s	s	n/a
409.401	0.06	818802	keystroke_r	r	n/a
409.596	0.09	819192	keystroke_a	a	n/a
409.866	0.105	819732	keystroke_e	e	n/a
409.971	0.1495	819942	keystroke_l	l	n/a
410.0905	0.165	820181	keystroke_Key.space	Key.space	n/a
410.3305	0.165	820661	keystroke_c	c	n/a
410.4805	0.165	820961	keystroke_o	o	n/a
410.5555	0.135	821111	keystroke_u	u	n/a
410.7055	0.165	821411	keystroke_n	n	n/a
411.2155	0.196	822431	keystroke_s	s	n/a
411.3665	0.134	822733	keystroke_e	e	n/a
411.5155	0.105	823031	keystroke_l	l	n/a
411.6505	0.135	823301	keystroke_Key.space	Key.space	n/a
412.0105	0.1355	824021	keystroke_s	s	n/a
412.116	0.135	824232	keystroke_i	i	n/a
412.191	0.165	824382	keystroke_m	m	n/a
412.401	0.09	824802	keystroke_p	p	n/a
412.656	0.105	825312	keystroke_l	l	n/a
413.106	0.12	826212	keystroke_i	i	n/a
413.3315	0.09	826663	keystroke_f	f	n/a
413.3915	0.12	826783	keystroke_i	i	n/a
413.5265	0.075	827053	keystroke_e	e	n/a
413.7215	0.09	827443	keystroke_d	d	n/a
413.8415	0.105	827683	keystroke_Key.space	Key.space	n/a
413.9615	0.12	827923	keystroke_a	a	n/a
414.1415	0.075	828283	keystroke_d	d	n/a
414.3655	0.09	828731	keystroke_v	v	n/a
414.4415	0.12	828883	keystroke_i	i	n/a
414.6365	0.12	829273	keystroke_s	s	n/a
414.7715	0.134	829543	keystroke_o	o	n/a
414.8755	0.105	829751	keystroke_r	r	n/a
415.1315	0.119	830263	keystroke_s	s	n/a
415.3855	0.06	830771	keystroke_Key.enter	Key.enter	n/a
415.45	6.0425	830900	prompt	n/a	furnished short procedure reflects\n
416.0155	0.09	832031	keystroke_f	f	n/a
416.1355	0.105	832271	keystroke_u	u	n/a
416.2855	0.12	832571	keystroke_r	r	n/a
416.5105	0.09	833021	keystroke_n	n	n/a
416.6905	0.105	833381	keystroke_i	i	n/a
416.8105	0.12	833621	keystroke_s	s	n/a
416.9155	0.135	833831	keystroke_h	h	n/a
417.0805	0.09	834161	keystroke_e	e	n/a
417.2915	0.09	834583	keystroke_d	d	n/a
417.4415	0.06	834883	keystroke_Key.space	Key.space	n/a
417.5615	0.1195	835123	keystroke_s	s	n/a
417.651	0.135	835302	keystroke_h	h	n/a
417.771	0.165	835542	keystroke_o	o	n/a
417.891	0.075	835782	keystroke_r	r	n/a
418.086	0.09	836172	keystroke_t	t	n/a
418.251	0.1195	836502	keystroke_Key.space	Key.space	n/a
418.5055	0.105	837011	keystroke_p	p	n/a
418.5955	0.09	837191	keystroke_r	r	n/a
418.7005	0.12	837401	keystroke_o	o	n/a
418.9255	0.105	837851	keystroke_c	c	n/a
419.0905	0.09	838181	keystroke_e	e	n/a
419.286	0.105	838572	keystroke_d	d	n/a
419.391	0.12	838782	keystroke_u	u	n/a
419.526	0.135	839052	keystroke_r	r	n/a
419.631	0.1345	839262	keystroke_e	e	n/a
419.7955	0.105	839591	keystroke_Key.space	Key.space	n/a
419.9155	0.15	839831	keystroke_r	r	n/a
420.0955	0.105	840191	keystroke_e	e	n/a
420.3355	0.09	840671	keystroke_f	f	n/a
420.4405	0.15	840881	keystroke_l	l	n/a
420.5755	0.075	841151	keystroke_e	e	n/a
420.7555	0.12	841511	keystroke_c	c	n/a
421.0105	0.075	842021	keystroke_t	t	n/a
421.1305	0.1505	842261	keystroke_s	s	n/a
421.416	0.0755	842832	keystroke_Key.enter	Key.enter	n/a
421.495	5.6375	842990	prompt	n/a	males sons conjunction diamonds\n
422.106	0.135	844212	keystroke_m	m	n/a
422.226	0.105	844452	keystroke_a	a	n/a
422.361	0.15	844722	keystroke_l	l	n/a
422.526	0.18	845052	keystroke_e	e	n/a
422.646	0.105	845292	keystroke_s	s	n/a
422.766	0.075	845532	keystroke_Key.space	Key.space	n/a
422.886	0.09	845772	keystroke_s	s	n/a
422.961	0.135	845922	keystroke_o	o	n/a
423.051	0.15	846102	keystroke_n	n	n/a
423.186	0.15	846372	keystroke_s	s	n/a
423.321	0.15	846642	keystroke_Key.space	Key.space	n/a
423.516	0.12	847032	keystroke_c	c	n/a
423.651	0.12	847302	keystroke_o	o	n/a
423.726	0.105	847452	keystroke_n	n	n/a
423.906	0.105	847812	keystroke_j	j	n/a
424.131	0.075	848262	keystroke_u	u	n/a
424.641	0.09	849282	keystroke_n	n	n/a
424.986	0.12	849972	keystroke_c	c	n/a
425.256	0.0895	850512	keystroke_t	t	n/a
425.3155	0.165	850631	keystroke_i	i	n/a
425.4505	0.15	850901	keystroke_o	o	n/a
425.4955	0.2105	850991	keystroke_n	n	n/a
425.6755	0.1355	851351	keystroke_Key.space	Key.space	n/a
425.826	0.09	851652	keystroke_d	d	n/a
425.916	0.105	851832	keystroke_i	i	n/a
426.036	0.15	852072	keystroke_a	a	n/a
426.291	0.105	852582	keystroke_m	m	n/a
426.411	0.1495	852822	keystroke_o	o	n/a
426.5305	0.1505	853061	keystroke_n	n	n/a
426.666	0.1645	853332	keystroke_d	d	n/a
426.8155	0.12	853631	keystroke_s	s	n/a
427.0555	0.075	854111	keystroke_Key.enter	Key.enter	n/a
427.1355	6.312	854271	prompt	n/a	pics router expansys traveling\n
427.7005	0.0905	855401	keystroke_p	p	n/a
427.896	0.135	855792	keystroke_i	i	n/a
428.016	0.105	856032	keystroke_c	c	n/a
428.166	0.165	856332	keystroke_s	s	n/a
428.271	0.135	856542	keystroke_Key.space	Key.space	n/a
428.466	0.135	856932	keystroke_r	r	n/a
428.556	0.15	857112	keystroke_o	o	n/a
428.646	0.18	857292	keystroke_u	u	n/a
428.751	0.18	857502	keystroke_n	n	n/a
428.916	0.105	857832	keystroke_t	t	n/a
429.156	0.1495	858312	keystroke_e	e	n/a
429.2605	0.12	858521	keystroke_r	r	n/a
429.4705	0.12	858941	keystroke_Key.space	Key.space	n/a
429.7405	0.075	859481	keystroke_e	e	n/a
429.9655	0.15	859931	keystroke_x	x	n/a
430.4305	0.09	860861	keystroke_p	p	n/a
430.7315	0.015	861463	keystroke_a	a	n/a
430.7605	0.106	861521	keystroke_n	n	n/a
430.9415	0.135	861883	keystroke_s	s	n/a
431.1965	0.0895	862393	keystroke_y	y	n/a
431.376	0.1345	862752	keystroke_s	s	n/a
431.4955	0.165	862991	keystroke_Key.space	Key.space	n/a
431.8855	0.1055	863771	keystroke_t	t	n/a
432.141	0.105	864282	keystroke_r	r	n/a
432.261	0.135	864522	keystroke_a	a	n/a
432.516	0.06	865032	keystroke_v	v	n/a
432.651	0.105	865302	keystroke_e	e	n/a
432.741	0.165	865482	keystroke_l	l	n/a
432.891	0.15	865782	keystroke_i	i	n/a
432.966	0.165	865932	keystroke_n	n	n/a
433.146	0.105	866292	keystroke_g	g	n/a
433.371	0.075	866742	keystroke_Key.enter	Key.enter	n/a
433.454	8.9035	866908	prompt	n/a	thumb standard acting compare\n
434.091	0.105	868182	keystroke_t	t	n/a
434.241	0.105	868482	keystroke_h	h	n/a
434.391	0.09	868782	keystroke_u	u	n/a
434.6315	0.105	869263	keystroke_m	m	n/a
434.7965	0.135	869593	keystroke_b	b	n/a
435.0665	0.105	870133	keystroke_Key.space	Key.space	n/a
435.261	0.09	870522	keystroke_s	s	n/a
435.426	0.09	870852	keystroke_t	t	n/a
435.576	0.135	871152	keystroke_a	a	n/a
435.696	0.12	871392	keystroke_n	n	n/a
435.801	0.12	871602	keystroke_d	d	n/a
436.0255	0.165	872051	keystroke_a	a	n/a
436.1455	0.105	872291	keystroke_r	r	n/a
436.3555	0.12	872711	keystroke_d	d	n/a
436.5055	0.135	873011	keystroke_Key.space	Key.space	n/a
436.5955	0.105	873191	keystroke_a	a	n/a
436.7905	0.12	873581	keystroke_c	c	n/a
437.0455	0.09	874091	keystroke_t	t	n/a
437.2405	0.1055	874481	keystroke_i	i	n/a
437.376	0.12	874752	keystroke_v	v	n/a
437.497	0.149	874994	keystroke_n	n	n/a
437.691	0.105	875382	keystroke_g	g	n/a
438.051	0.105	876102	keystroke_Key.space	Key.space	n/a
438.471	0.06	876942	keystroke_Key.backspace	Key.backspace	n/a
438.621	0.075	877242	keystroke_Key.backspace	Key.backspace	n/a
438.7855	0.06	877571	keystroke_Key.backspace	Key.backspace	n/a
438.9505	0.09	877901	keystroke_Key.backspace	Key.backspace	n/a
439.2815	0.12	878563	keystroke_i	i	n/a
439.566	0.045	879132	keystroke_n	n	n/a
439.8665	0.0595	879733	keystroke_Key.backspace	Key.backspace	n/a
440.001	0.075	880002	keystroke_Key.backspace	Key.backspace	n/a
440.2715	0.119	880543	keystroke_n	n	n/a
440.3605	0.105	880721	keystroke_g	g	n/a
440.6455	0.12	881291	keystroke_Key.space	Key.space	n/a
441.1855	0.166	882371	keystroke_c	c	n/a
441.3055	0.06	882611	keystroke_o	o	n/a
441.3205	0.18	882641	keystroke_m	m	n/a
441.4855	0.105	882971	keystroke_p	p	n/a
441.7105	0.09	883421	keystroke_a	a	n/a
441.9205	0.135	883841	keystroke_r	r	n/a
441.9955	0.121	883991	keystroke_e	e	n/a
442.2955	0.06	884591	keystroke_Key.enter	Key.enter	n/a
442.3605	5.2015	884721	prompt	n/a	case barriers selected receive\n
442.9555	0.105	885911	keystroke_c	c	n/a
443.0905	0.09	886181	keystroke_a	a	n/a
443.301	0.15	886602	keystroke_s	s	n/a
443.376	0.165	886752	keystroke_e	e	n/a
443.481	0.105	886962	keystroke_Key.space	Key.space	n/a
443.571	0.165	887142	keystroke_b	b	n/a
443.751	0.09	887502	keystroke_a	a	n/a
443.946	0.105	887892	keystroke_r	r	n/a
444.111	0.1055	888222	keystroke_r	r	n/a
444.2165	0.15	888433	keystroke_i	i	n/a
444.3515	0.15	888703	keystroke_e	e	n/a
444.4715	0.18	888943	keystroke_r	r	n/a
444.666	0.09	889332	keystroke_s	s	n/a
444.741	0.12	889482	keystroke_Key.space	Key.space	n/a
444.891	0.15	889782	keystroke_s	s	n/a
445.0265	0.1045	890053	keystroke_e	e	n/a
445.1465	0.1195	890293	keystroke_l	l	n/a
445.236	0.0755	890472	keystroke_e	e	n/a
445.4465	0.09	890893	keystroke_c	c	n/a
445.6555	0.0905	891311	keystroke_t	t	n/a
445.806	0.105	891612	keystroke_e	e	n/a
446.016	0.105	892032	keystroke_d	d	n/a
446.151	0.12	892302	keystroke_Key.space	Key.space	n/a
446.346	0.165	892692	keystroke_r	r	n/a
446.5255	0.121	893051	keystroke_e	e	n/a
446.7815	0.12	893563	keystroke_c	c	n/a
446.8715	0.075	893743	keystroke_e	e	n/a
446.9905	0.135	893981	keystroke_i	i	n/a
447.1115	0.09	894223	keystroke_v	v	n/a
447.2615	0.105	894523	keystroke_e	e	n/a
447.4715	0.09	894943	keystroke_Key.enter	Key.enter	n/a
447.565	5.4275	895130	prompt	n/a	marion distances lotus earth\n
448.221	0.1195	896442	keystroke_m	m	n/a
448.5205	0.135	897041	keystroke_a	a	n/a
448.7905	0.12	897581	keystroke_r	r	n/a
448.8955	0.15	897791	keystroke_i	i	n/a
449.0155	0.165	898031	keystroke_o	o	n/a
449.1055	0.181	898211	keystroke_n	n	n/a
449.2715	0.12	898543	keystroke_Key.space	Key.space	n/a
449.4065	0.12	898813	keystroke_d	d	n/a
449.5415	0.1045	899083	keystroke_i	i	n/a
449.646	0.1045	899292	keystroke_s	s	n/a
449.8405	0.105	899681	keystroke_t	t	n/a
450.0055	0.135	900011	keystroke_a	a	n/a
450.1255	0.12	900251	keystroke_n	n	n/a
450.2905	0.15	900581	keystroke_c	c	n/a
450.3955	0.255	900791	keystroke_e	e	n/a
450.5755	0.12	901151	keystroke_s	s	n/a
450.7105	0.1355	901421	keystroke_Key.space	Key.space	n/a
450.876	0.12	901752	keystroke_l	l	n/a
451.101	0.12	902202	keystroke_o	o	n/a
451.4615	0.105	902923	keystroke_t	t	n/a
451.6265	0.1495	903253	keystroke_u	u	n/a
451.761	0.15	903522	keystroke_s	s	n/a
451.911	0.12	903822	keystroke_Key.space	Key.space	n/a
452.016	0.12	904032	keystroke_e	e	n/a
452.226	0.105	904452	keystroke_a	a	n/a
452.316	0.09	904632	keystroke_r	r	n/a
452.556	0.12	905112	keystroke_t	t	n/a
452.631	0.075	905262	keystroke_h	h	n/a
452.901	0.09	905802	keystroke_Key.enter	Key.enter	n/a
452.996	5.0665	905992	prompt	n/a	marc financial simon matching\n
453.576	0.1655	907152	keystroke_m	m	n/a
453.696	0.1505	907392	keystroke_a	a	n/a
453.7715	0.105	907543	keystroke_r	r	n/a
454.0565	0.134	908113	keystroke_c	c	n/a
454.1915	0.119	908383	keystroke_Key.space	Key.space	n/a
454.3705	0.15	908741	keystroke_f	f	n/a
454.4455	0.12	908891	keystroke_i	i	n/a
454.5505	0.135	909101	keystroke_n	n	n/a
454.7155	0.135	909431	keystroke_a	a	n/a
454.8205	0.12	909641	keystroke_n	n	n/a
455.0155	0.135	910031	keystroke_c	c	n/a
455.1055	0.105	910211	keystroke_i	i	n/a
455.2855	0.135	910571	keystroke_a	a	n/a
455.3605	0.165	910721	keystroke_l	l	n/a
455.5405	0.135	911081	keystroke_Key.space	Key.space	n/a
455.6455	0.18	911291	keystroke_s	s	n/a
455.8555	0.135	911711	keystroke_i	i	n/a
455.9755	0.135	911951	keystroke_m	m	n/a
456.1415	0.15	912283	keystroke_o	o	n/a
456.2615	0.1795	912523	keystroke_n	n	n/a
456.4265	0.1195	912853	keystroke_Key.space	Key.space	n/a
456.756	0.15	913512	keystroke_m	m	n/a
456.816	0.075	913632	keystroke_a	a	n/a
457.011	0.12	914022	keystroke_t	t	n/a
457.311	0.135	914622	keystroke_c	c	n/a
457.401	0.12	914802	keystroke_h	h	n/a
457.506	0.18	915012	keystroke_i	i	n/a
457.626	0.15	915252	keystroke_n	n	n/a
457.746	0.1205	915492	keystroke_g	g	n/a
457.9855	0.075	915971	keystroke_Key.enter	Key.enter	n/a
458.065	6.1925	916130	prompt	n/a	genres networking workplace verde\n
458.6455	0.091	917291	keystroke_g	g	n/a
458.8115	0.119	917623	keystroke_e	e	n/a
458.9605	0.15	917921	keystroke_n	n	n/a
459.3365	0.164	918673	keystroke_r	r	n/a
459.4715	0.119	918943	keystroke_e	e	n/a
459.7105	0.135	919421	keystroke_s	s	n/a
459.8605	0.105	919721	keystroke_Key.space	Key.space	n/a
460.1015	0.164	920203	keystroke_n	n	n/a
460.2055	0.12	920411	keystroke_e	e	n/a
460.3705	0.12	920741	keystroke_t	t	n/a
460.6255	0.09	921251	keystroke_w	w	n/a
460.7455	0.105	921491	keystroke_o	o	n/a
460.9105	0.105	921821	keystroke_r	r	n/a
460.9855	0.105	921971	keystroke_k	k	n/a
461.1955	0.1205	922391	keystroke_i	i	n/a
461.2555	0.181	922511	keystroke_n	n	n/a
461.4515	0.09	922903	keystroke_g	g	n/a
461.571	0.12	923142	keystroke_Key.space	Key.space	n/a
461.721	0.105	923442	keystroke_w	w	n/a
461.841	0.09	923682	keystroke_o	o	n/a
461.946	0.12	923892	keystroke_r	r	n/a
462.066	0.09	924132	keystroke_k	k	n/a
462.276	0.06	924552	keystroke_p	p	n/a
462.471	0.12	924942	keystroke_l	l	n/a
462.547	0.089	925094	keystroke_a	a	n/a
462.711	0.18	925422	keystroke_c	c	n/a
462.861	0.09	925722	keystroke_e	e	n/a
463.026	0.15	926052	keystroke_Key.space	Key.space	n/a
463.131	0.105	926262	keystroke_v	v	n/a
463.296	0.165	926592	keystroke_e	e	n/a
463.446	0.12	926892	keystroke_r	r	n/a
463.686	0.105	927372	keystroke_d	d	n/a
463.896	0.09	927792	keystroke_e	e	n/a
464.1805	0.076	928361	keystroke_Key.enter	Key.enter	n/a
464.2605	6.162	928521	prompt	n/a	distant traditional is complicated\n
464.991	0.105	929982	keystroke_d	d	n/a
465.156	0.105	930312	keystroke_i	i	n/a
465.3215	0.105	930643	keystroke_s	s	n/a
465.5765	0.09	931153	keystroke_t	t	n/a
465.7565	0.135	931513	keystroke_a	a	n/a
465.8765	0.12	931753	keystroke_n	n	n/a
466.0565	0.09	932113	keystroke_t	t	n/a
466.1765	0.15	932353	keystroke_Key.space	Key.space	n/a
466.4155	0.075	932831	keystroke_t	t	n/a
466.5955	0.106	933191	keystroke_r	r	n/a
466.7155	0.15	933431	keystroke_a	a	n/a
466.9855	0.121	933971	keystroke_d	d	n/a
467.0905	0.106	934181	keystroke_i	i	n/a
467.2405	0.15	934481	keystroke_t	t	n/a
467.3455	0.121	934691	keystroke_i	i	n/a
467.4215	0.134	934843	keystroke_o	o	n/a
467.5105	0.135	935021	keystroke_n	n	n/a
467.6765	0.12	935353	keystroke_a	a	n/a
467.7665	0.149	935533	keystroke_l	l	n/a
467.9315	0.135	935863	keystroke_Key.space	Key.space	n/a
468.2165	0.149	936433	keystroke_i	i	n/a
468.3355	0.12	936671	keystroke_s	s	n/a
468.4855	0.09	936971	keystroke_Key.space	Key.space	n/a
468.6065	0.149	937213	keystroke_c	c	n/a
468.7405	0.105	937481	keystroke_o	o	n/a
468.8155	0.195	937631	keystroke_m	m	n/a
