onset	duration	sample	value	key	prompt_text
1.5585	12.2695	3117	prompt	n/a	the quick brown fox jumps over a lazy dog\n
2.9405	0.0135	5881	keystroke_t	t	n/a
3.059	0.0745	6118	keystroke_h	h	n/a
3.2085	0.0755	6417	keystroke_e	e	n/a
3.404	0.0445	6808	keystroke_Key.space	Key.space	n/a
3.8835	0.12	7767	keystroke_q	q	n/a
4.0785	0.1055	8157	keystroke_u	u	n/a
4.244	0.09	8488	keystroke_i	i	n/a
4.469	0.09	8938	keystroke_c	c	n/a
4.574	0.0895	9148	keystroke_k	k	n/a
4.799	0.0745	9598	keystroke_Key.space	Key.space	n/a
4.9935	0.0905	9987	keystroke_b	b	n/a
5.1145	0.0595	10229	keystroke_r	r	n/a
5.309	0.12	10618	keystroke_o	o	n/a
5.444	0.1195	10888	keystroke_w	w	n/a
5.5795	0.074	11159	keystroke_n	n	n/a
5.768	0.0885	11536	keystroke_Key.space	Key.space	n/a
6.428	0.0445	12856	keystroke_f	f	n/a
6.728	0.1065	13456	keystroke_o	o	n/a
7.029	0.1195	14058	keystroke_x	x	n/a
7.194	0.0895	14388	keystroke_Key.space	Key.space	n/a
7.5095	0.089	15019	keystroke_j	j	n/a
7.7185	0.06	15437	keystroke_u	u	n/a
7.9145	0.1045	15829	keystroke_m	m	n/a
8.079	0.0895	16158	keystroke_p	p	n/a
9.414	0.1205	18828	keystroke_s	s	n/a
9.6245	0.1055	19249	keystroke_Key.space	Key.space	n/a
9.9245	0.1045	19849	keystroke_o	o	n/a
10.209	0.0155	20418	keystroke_v	v	n/a
10.4195	0.18	20839	keystroke_e	e	n/a
10.524	0.105	21048	keystroke_r	r	n/a
10.6895	0.105	21379	keystroke_Key.space	Key.space	n/a
10.8545	0.1205	21709	keystroke_a	a	n/a
11.004	0.0905	22008	keystroke_Key.space	Key.space	n/a
11.319	0.1205	22638	keystroke_l	l	n/a
11.4545	0.12	22909	keystroke_a	a	n/a
11.7245	0.1505	23449	keystroke_z	z	n/a
11.8445	0.075	23689	keystroke_y	y	n/a
12.0385	0.0905	24077	keystroke_Key.space	Key.space	n/a
13.119	0.0905	26238	keystroke_d	d	n/a
13.3135	0.09	26627	keystroke_o	o	n/a
13.5395	0.044	27079	keystroke_g	g	n/a
13.7195	0.105	27439	keystroke_Key.enter	Key.enter	n/a
13.833	6.564	27666	prompt	n/a	patent direct loss regions\n
14.8445	0.105	29689	keystroke_p	p	n/a
14.9945	0.104	29989	keystroke_a	a	n/a
15.174	0.0895	30348	keystroke_t	t	n/a
15.3385	0.106	30677	keystroke_e	e	n/a
15.4745	0.119	30949	keystroke_n	n	n/a
15.654	0.075	31308	keystroke_t	t	n/a
16.2085	0.1205	32417	keystroke_Key.space	Key.space	n/a
16.4345	0.09	32869	keystroke_d	d	n/a
16.5695	0.12	33139	keystroke_i	i	n/a
16.764	0.09	33528	keystroke_r	r	n/a
16.9145	0.18	33829	keystroke_e	e	n/a
17.079	0.135	34158	keystroke_c	c	n/a
17.5895	0.0745	35179	keystroke_t	t	n/a
17.7385	0.1055	35477	keystroke_Key.space	Key.space	n/a
18.024	0.1055	36048	keystroke_l	l	n/a
18.2495	0.1195	36499	keystroke_o	o	n/a
18.3385	0.105	36677	keystroke_s	s	n/a
18.5485	0.106	37097	keystroke_s	s	n/a
18.6835	0.105	37367	keystroke_Key.space	Key.space	n/a
18.8345	0.135	37669	keystroke_r	r	n/a
19.0435	0.105	38087	keystroke_e	e	n/a
19.2995	0.09	38599	keystroke_g	g	n/a
19.4635	0.181	38927	keystroke_i	i	n/a
19.6145	0.1945	39229	keystroke_o	o	n/a
19.689	0.165	39378	keystroke_n	n	n/a
19.9595	0.1195	39919	keystroke_s	s	n/a
20.259	0.1355	40518	keystroke_Key.enter	Key.enter	n/a
20.4	12.0415	40800	prompt	n/a	response symbol statute xhtml\n
21.2495	0.1345	42499	keystroke_r	r	n/a
21.369	0.0905	42738	keystroke_e	e	n/a
21.6545	0.104	43309	keystroke_s	s	n/a
21.7595	0.105	43519	keystroke_p	p	n/a
22.0445	0.1345	44089	keystroke_o	o	n/a
22.284	0.1055	44568	keystroke_n	n	n/a
22.4045	0.105	44809	keystroke_s	s	n/a
22.6295	0.09	45259	keystroke_e	e	n/a
22.749	0.12	45498	keystroke_Key.space	Key.space	n/a
23.56	0.119	47120	keystroke_s	s	n/a
24.009	0.0605	48018	keystroke_y	y	n/a
24.3095	0.1195	48619	keystroke_m	m	n/a
24.6545	0.06	49309	keystroke_b	b	n/a
24.9085	0.1065	49817	keystroke_o	o	n/a
25.134	0.1205	50268	keystroke_l	l	n/a
25.374	0.12	50748	keystroke_Key.space	Key.space	n/a
25.809	0.0905	51618	keystroke_s	s	n/a
26.0195	0.0595	52039	keystroke_t	t	n/a
26.2145	0.1645	52429	keystroke_a	a	n/a
26.3495	0.09	52699	keystroke_t	t	n/a
27.9695	0.075	55939	keystroke_u	u	n/a
28.194	0.0905	56388	keystroke_t	t	n/a
28.3745	0.1055	56749	keystroke_e	e	n/a
28.509	0.1205	57018	keystroke_Key.space	Key.space	n/a
30.1145	0.135	60229	keystroke_x	x	n/a
30.7895	0.1045	61579	keystroke_h	h	n/a
31.4795	0.0895	62959	keystroke_t	t	n/a
31.72	0.1035	63440	keystroke_m	m	n/a
31.9135	0.136	63827	keystroke_l	l	n/a
32.3045	0.135	64609	keystroke_Key.enter	Key.enter	n/a
32.445	9.3415	64890	prompt	n/a	prepaid they bookstore dramatic\n
33.339	0.12	66678	keystroke_p	p	n/a
33.4745	0.1345	66949	keystroke_r	r	n/a
33.6245	0.06	67249	keystroke_e	e	n/a
33.849	0.015	67698	keystroke_p	p	n/a
33.8945	0.0755	67789	keystroke_a	a	n/a
34.0145	0.12	68029	keystroke_i	i	n/a
34.1645	0.12	68329	keystroke_d	d	n/a
34.42	0.1045	68840	keystroke_t	t	n/a
34.9145	0.06	69829	keystroke_=	=	n/a
35.3495	0.12	70699	keystroke_Key.backspace	Key.backspace	n/a
35.544	0.09	71088	keystroke_Key.backspace	Key.backspace	n/a
35.784	0.12	71568	keystroke_Key.space	Key.space	n/a
35.905	0.074	71810	keystroke_t	t	n/a
36.0245	0.1195	72049	keystroke_h	h	n/a
36.13	0.134	72260	keystroke_e	e	n/a
36.249	0.09	72498	keystroke_y	y	n/a
36.4445	0.105	72889	keystroke_Key.space	Key.space	n/a
36.6695	0.09	73339	keystroke_b	b	n/a
36.9245	0.0745	73849	keystroke_o	o	n/a
37.105	0.12	74210	keystroke_o	o	n/a
37.6145	0.0895	75229	keystroke_k	k	n/a
37.809	0.105	75618	keystroke_s	s	n/a
38.02	0.074	76040	keystroke_t	t	n/a
38.1545	0.1045	76309	keystroke_o	o	n/a
38.305	0.105	76610	keystroke_r	r	n/a
38.364	0.12	76728	keystroke_e	e	n/a
38.559	0.12	77118	keystroke_Key.space	Key.space	n/a
38.95	0.0895	77900	keystroke_d	d	n/a
39.1445	0.105	78289	keystroke_r	r	n/a
39.3095	0.12	78619	keystroke_a	a	n/a
39.4745	0.135	78949	keystroke_m	m	n/a
40.5395	0.18	81079	keystroke_a	a	n/a
40.8395	0.09	81679	keystroke_t	t	n/a
40.9445	0.135	81889	keystroke_i	i	n/a
41.2145	0.12	82429	keystroke_c	c	n/a
41.6795	0.105	83359	keystroke_Key.enter	Key.enter	n/a
41.7905	8.396	83581	prompt	n/a	kinase vital sculpture matters\n
42.745	0.1195	85490	keystroke_k	k	n/a
42.9545	0.075	85909	keystroke_i	i	n/a
43.1195	0.12	86239	keystroke_n	n	n/a
43.2845	0.135	86569	keystroke_a	a	n/a
43.4645	0.09	86929	keystroke_s	s	n/a
43.6895	0.09	87379	keystroke_e	e	n/a
43.8095	0.12	87619	keystroke_Key.space	Key.space	n/a
44.0645	0.09	88129	keystroke_v	v	n/a
44.2295	0.12	88459	keystroke_i	i	n/a
44.3945	0.075	88789	keystroke_t	t	n/a
44.6495	0.1355	89299	keystroke_a	a	n/a
44.8295	0.105	89659	keystroke_l	l	n/a
45.0845	0.09	90169	keystroke_Key.space	Key.space	n/a
45.2495	0.075	90499	keystroke_s	s	n/a
45.4895	0.135	90979	keystroke_c	c	n/a
45.595	0.1045	91190	keystroke_u	u	n/a
45.834	0.165	91668	keystroke_l	l	n/a
46.06	0.09	92120	keystroke_t	t	n/a
46.5245	0.1045	93049	keystroke_Key.backspace	Key.backspace	n/a
46.81	0.119	93620	keystroke_p	p	n/a
47.155	0.0895	94310	keystroke_t	t	n/a
47.409	0.0905	94818	keystroke_u	u	n/a
47.559	0.135	95118	keystroke_r	r	n/a
47.679	0.1355	95358	keystroke_e	e	n/a
47.949	0.106	95898	keystroke_Key.space	Key.space	n/a
48.205	0.1045	96410	keystroke_m	m	n/a
48.3395	0.105	96679	keystroke_a	a	n/a
48.5645	0.045	97129	keystroke_t	t	n/a
48.7145	0.1055	97429	keystroke_t	t	n/a
49.4795	0.165	98959	keystroke_e	e	n/a
49.6295	0.09	99259	keystroke_r	r	n/a
49.8845	0.105	99769	keystroke_s	s	n/a
50.064	0.1205	100128	keystroke_Key.enter	Key.enter	n/a
50.191	9.5955	100382	prompt	n/a	visible phrase endangered what'd\n
51.4745	0.09	102949	keystroke_v	v	n/a
51.6545	0.1205	103309	keystroke_i	i	n/a
51.834	0.1055	103668	keystroke_s	s	n/a
51.925	0.089	103850	keystroke_i	i	n/a
52.134	0.0905	104268	keystroke_b	b	n/a
52.3445	0.1045	104689	keystroke_l	l	n/a
52.464	0.135	104928	keystroke_e	e	n/a
52.8095	0.135	105619	keystroke_Key.space	Key.space	n/a
53.184	0.0755	106368	keystroke_p	p	n/a
53.379	0.1505	106758	keystroke_h	h	n/a
53.4845	0.075	106969	keystroke_r	r	n/a
53.6645	0.1355	107329	keystroke_a	a	n/a
53.8745	0.1045	107749	keystroke_s	s	n/a
54.0995	0.075	108199	keystroke_e	e	n/a
54.219	0.09	108438	keystroke_Key.space	Key.space	n/a
54.384	0.075	108768	keystroke_e	e	n/a
54.519	0.136	109038	keystroke_n	n	n/a
54.64	0.089	109280	keystroke_d	d	n/a
54.969	0.12	109938	keystroke_a	a	n/a
55.1645	0.135	110329	keystroke_n	n	n/a
55.284	0.1055	110568	keystroke_g	g	n/a
55.479	0.151	110958	keystroke_e	e	n/a
55.614	0.15	111228	keystroke_r	r	n/a
55.734	0.135	111468	keystroke_e	e	n/a
55.975	0.105	111950	keystroke_d	d	n/a
56.109	0.135	112218	keystroke_Key.space	Key.space	n/a
56.35	0.105	112700	keystroke_w	w	n/a
56.47	0.1345	112940	keystroke_h	h	n/a
56.5895	0.1055	113179	keystroke_a	a	n/a
56.7995	0.0755	113599	keystroke_t	t	n/a
58.66	0.09	117320	keystroke_'	'	n/a
59.1845	0.09	118369	keystroke_d	d	n/a
59.665	0.1195	119330	keystroke_Key.enter	Key.enter	n/a
59.7945	6.773	119589	prompt	n/a	play think bahamas proceeds\n
60.5795	0.0605	121159	keystroke_p	p	n/a
61.0295	0.12	122059	keystroke_l	l	n/a
61.195	0.1195	122390	keystroke_a	a	n/a
61.39	0.1045	122780	keystroke_y	y	n/a
61.6595	0.1045	123319	keystroke_Key.space	Key.space	n/a
61.809	0.076	123618	keystroke_t	t	n/a
61.945	0.0895	123890	keystroke_h	h	n/a
62.11	0.104	124220	keystroke_i	i	n/a
62.3195	0.105	124639	keystroke_n	n	n/a
62.5445	0.045	125089	keystroke_k	k	n/a
62.695	0.089	125390	keystroke_Key.space	Key.space	n/a
62.9645	0.12	125929	keystroke_b	b	n/a
63.1595	0.1355	126319	keystroke_a	a	n/a
63.2805	0.104	126561	keystroke_h	h	n/a
63.4445	0.105	126889	keystroke_a	a	n/a
63.5945	0.105	127189	keystroke_m	m	n/a
63.7895	0.165	127579	keystroke_a	a	n/a
63.9095	0.15	127819	keystroke_s	s	n/a
64.1495	0.0905	128299	keystroke_Key.space	Key.space	n/a
64.36	0.135	128720	keystroke_p	p	n/a
64.5245	0.0905	129049	keystroke_r	r	n/a
64.9605	0.1195	129921	keystroke_o	o	n/a
65.395	0.089	130790	keystroke_c	c	n/a
65.7845	0.075	131569	keystroke_e	e	n/a
65.9645	0.075	131929	keystroke_e	e	n/a
66.16	0.0595	132320	keystroke_d	d	n/a
66.3395	0.12	132679	keystroke_s	s	n/a
66.4745	0.0905	132949	keystroke_Key.enter	Key.enter	n/a
66.5705	8.531	133141	prompt	n/a	module scanners bride organizations\n
67.27	0.09	134540	keystroke_m	m	n/a
67.54	0.15	135080	keystroke_o	o	n/a
67.765	0.12	135530	keystroke_d	d	n/a
68.14	0.105	136280	keystroke_u	u	n/a
68.38	0.075	136760	keystroke_l	l	n/a
68.47	0.09	136940	keystroke_e	e	n/a
68.62	0.105	137240	keystroke_Key.space	Key.space	n/a
68.815	0.09	137630	keystroke_s	s	n/a
69.055	0.105	138110	keystroke_c	c	n/a
69.355	0.1345	138710	keystroke_e	e	n/a
69.91	0.06	139820	keystroke_Key.backspace	Key.backspace	n/a
70.0295	0.1205	140059	keystroke_a	a	n/a
70.18	0.075	140360	keystroke_n	n	n/a
70.33	0.1195	140660	keystroke_n	n	n/a
70.39	0.165	140780	keystroke_e	e	n/a
70.5245	0.0905	141049	keystroke_r	r	n/a
70.765	0.09	141530	keystroke_s	s	n/a
70.8695	0.12	141739	keystroke_Key.space	Key.space	n/a
71.1245	0.1055	142249	keystroke_b	b	n/a
71.245	0.0595	142490	keystroke_r	r	n/a
71.395	0.105	142790	keystroke_i	i	n/a
71.575	0.135	143150	keystroke_d	d	n/a
72.0995	0.09	144199	keystroke_e	e	n/a
72.6245	0.1045	145249	keystroke_Key.space	Key.space	n/a
72.8495	0.15	145699	keystroke_o	o	n/a
72.939	0.076	145878	keystroke_r	r	n/a
73.3295	0.075	146659	keystroke_g	g	n/a
73.5245	0.1205	147049	keystroke_a	a	n/a
73.6305	0.089	147261	keystroke_n	n	n/a
73.8095	0.12	147619	keystroke_i	i	n/a
73.8995	0.0905	147799	keystroke_z	z	n/a
74.1245	0.105	148249	keystroke_a	a	n/a
74.2895	0.0905	148579	keystroke_t	t	n/a
74.395	0.165	148790	keystroke_i	i	n/a
74.485	0.18	148970	keystroke_o	o	n/a
74.605	0.12	149210	keystroke_n	n	n/a
74.815	0.1045	149630	keystroke_s	s	n/a
74.9945	0.105	149989	keystroke_Key.enter	Key.enter	n/a
75.106	8.5625	150212	prompt	n/a	restaurant network miami finished\n
75.985	0.06	151970	keystroke_r	r	n/a
76.09	0.105	152180	keystroke_e	e	n/a
76.315	0.12	152630	keystroke_s	s	n/a
76.855	0.09	153710	keystroke_t	t	n/a
77.4095	0.09	154819	keystroke_a	a	n/a
77.5745	0.105	155149	keystroke_u	u	n/a
77.6645	0.09	155329	keystroke_r	r	n/a
77.8595	0.105	155719	keystroke_a	a	n/a
78.0095	0.09	156019	keystroke_n	n	n/a
78.1595	0.09	156319	keystroke_t	t	n/a
78.384	0.0755	156768	keystroke_Key.space	Key.space	n/a
78.67	0.1045	157340	keystroke_n	n	n/a
78.745	0.1345	157490	keystroke_e	e	n/a
78.9395	0.09	157879	keystroke_t	t	n/a
79.3745	0.045	158749	keystroke_w	w	n/a
79.4645	0.09	158929	keystroke_o	o	n/a
79.57	0.0745	159140	keystroke_r	r	n/a
79.7045	0.09	159409	keystroke_k	k	n/a
79.9445	0.075	159889	keystroke_Key.space	Key.space	n/a
80.1695	0.0905	160339	keystroke_m	m	n/a
80.3645	0.06	160729	keystroke_i	i	n/a
80.4695	0.12	160939	keystroke_a	a	n/a
80.6045	0.1055	161209	keystroke_m	m	n/a
80.8145	0.135	161629	keystroke_i	i	n/a
81.6845	0.1355	163369	keystroke_Key.space	Key.space	n/a
82.0145	0.105	164029	keystroke_f	f	n/a
82.1795	0.09	164359	keystroke_i	i	n/a
82.3295	0.105	164659	keystroke_n	n	n/a
82.5245	0.12	165049	keystroke_i	i	n/a
82.7045	0.12	165409	keystroke_s	s	n/a
83.0495	0.105	166099	keystroke_h	h	n/a
83.1995	0.09	166399	keystroke_e	e	n/a
83.3945	0.09	166789	keystroke_d	d	n/a
83.5295	0.135	167059	keystroke_Key.enter	Key.enter	n/a
83.6765	11.6	167353	prompt	n/a	dealt rational banks genuine\n
84.3695	0.09	168739	keystroke_d	d	n/a
84.565	0.105	169130	keystroke_e	e	n/a
85.24	0.1205	170480	keystroke_a	a	n/a
85.465	0.1345	170930	keystroke_l	l	n/a
85.6295	0.06	171259	keystroke_y	y	n/a
86.2595	0.105	172519	keystroke_Key.backspace	Key.backspace	n/a
86.965	0.075	173930	keystroke_t	t	n/a
87.174	0.1355	174348	keystroke_Key.space	Key.space	n/a
87.6555	0.119	175311	keystroke_r	r	n/a
87.8495	0.12	175699	keystroke_a	a	n/a
88.0295	0.075	176059	keystroke_t	t	n/a
88.1195	0.18	176239	keystroke_i	i	n/a
88.2395	0.1805	176479	keystroke_o	o	n/a
88.975	0.105	177950	keystroke_n	n	n/a
89.2295	0.15	178459	keystroke_a	a	n/a
89.4245	0.1055	178849	keystroke_l	l	n/a
89.709	0.0905	179418	keystroke_Key.space	Key.space	n/a
90.205	0.134	180410	keystroke_a	a	n/a
90.6245	0.135	181249	keystroke_Key.backspace	Key.backspace	n/a
91.404	0.1055	182808	keystroke_b	b	n/a
91.5695	0.1345	183139	keystroke_a	a	n/a
91.824	0.105	183648	keystroke_n	n	n/a
92.005	0.1045	184010	keystroke_k	k	n/a
92.124	0.121	184248	keystroke_s	s	n/a
92.274	0.105	184548	keystroke_Key.space	Key.space	n/a
93.774	0.031	187548	keystroke_g	g	n/a
93.91	0.104	187820	keystroke_e	e	n/a
94.044	0.105	188088	keystroke_n	n	n/a
94.2695	0.0905	188539	keystroke_u	u	n/a
94.464	0.09	188928	keystroke_i	i	n/a
94.614	0.135	189228	keystroke_n	n	n/a
94.779	0.12	189558	keystroke_e	e	n/a
95.14	0.1345	190280	keystroke_Key.enter	Key.enter	n/a
95.28	8.4715	190560	prompt	n/a	gathering operate jenny inputs\n
96.37	0.06	192740	keystroke_g	g	n/a
96.55	0.105	193100	keystroke_a	a	n/a
96.73	0.105	193460	keystroke_t	t	n/a
96.85	0.09	193700	keystroke_h	h	n/a
96.925	0.135	193850	keystroke_e	e	n/a
97.015	0.119	194030	keystroke_r	r	n/a
97.12	0.165	194240	keystroke_i	i	n/a
97.255	0.134	194510	keystroke_n	n	n/a
97.795	0.09	195590	keystroke_g	g	n/a
97.9895	0.12	195979	keystroke_Key.space	Key.space	n/a
98.365	0.1045	196730	keystroke_o	o	n/a
98.5145	0.15	197029	keystroke_p	p	n/a
98.635	0.0745	197270	keystroke_e	e	n/a
98.83	0.0745	197660	keystroke_r	r	n/a
99.0095	0.1355	198019	keystroke_a	a	n/a
99.1745	0.105	198349	keystroke_t	t	n/a
99.3095	0.12	198619	keystroke_e	e	n/a
99.4745	0.0905	198949	keystroke_Key.space	Key.space	n/a
99.745	0.045	199490	keystroke_j	j	n/a
100.465	0.074	200930	keystroke_e	e	n/a
100.629	0.075	201258	keystroke_n	n	n/a
100.795	0.104	201590	keystroke_n	n	n/a
100.989	0.12	201978	keystroke_y	y	n/a
101.2445	0.105	202489	keystroke_Key.space	Key.space	n/a
101.6195	0.075	203239	keystroke_i	i	n/a
101.6645	0.015	203329	keystroke_u	u	n/a
102.3395	0.135	204679	keystroke_Key.backspace	Key.backspace	n/a
102.6995	0.075	205399	keystroke_n	n	n/a
102.9245	0.105	205849	keystroke_p	p	n/a
103.1195	0.1205	206239	keystroke_u	u	n/a
103.27	0.045	206540	keystroke_t	t	n/a
103.4495	0.1655	206899	keystroke_s	s	n/a
103.6295	0.12	207259	keystroke_Key.enter	Key.enter	n/a
103.755	5.547	207510	prompt	n/a	adding sharing monte save\n
104.545	0.105	209090	keystroke_a	a	n/a
104.7245	0.0905	209449	keystroke_d	d	n/a
104.8895	0.105	209779	keystroke_d	d	n/a
105.0095	0.09	210019	keystroke_i	i	n/a
105.1595	0.1055	210319	keystroke_n	n	n/a
105.265	0.075	210530	keystroke_g	g	n/a
105.3845	0.12	210769	keystroke_Key.space	Key.space	n/a
105.8195	0.12	211639	keystroke_s	s	n/a
105.9545	0.12	211909	keystroke_h	h	n/a
106.06	0.1345	212120	keystroke_a	a	n/a
106.1645	0.12	212329	keystroke_r	r	n/a
106.3295	0.15	212659	keystroke_i	i	n/a
106.4645	0.12	212929	keystroke_n	n	n/a
106.5695	0.06	213139	keystroke_g	g	n/a
106.6895	0.12	213379	keystroke_Key.space	Key.space	n/a
107.4545	0.121	214909	keystroke_m	m	n/a
107.665	0.075	215330	keystroke_o	o	n/a
107.86	0.075	215720	keystroke_n	n	n/a
107.95	0.06	215900	keystroke_t	t	n/a
108.13	0.075	216260	keystroke_e	e	n/a
108.25	0.105	216500	keystroke_Key.space	Key.space	n/a
108.505	0.09	217010	keystroke_s	s	n/a
108.625	0.105	217250	keystroke_a	a	n/a
108.834	0.105	217668	keystroke_v	v	n/a
109.045	0.074	218090	keystroke_e	e	n/a
109.179	0.121	218358	keystroke_Key.enter	Key.enter	n/a
109.3055	9.506	218611	prompt	n/a	tough dale minimize swedish\n
110.185	0.015	220370	keystroke_t	t	n/a
110.29	0.135	220580	keystroke_o	o	n/a
110.38	0.134	220760	keystroke_u	u	n/a
110.575	0.105	221150	keystroke_g	g	n/a
110.695	0.105	221390	keystroke_h	h	n/a
110.89	0.12	221780	keystroke_Key.space	Key.space	n/a
111.415	0.105	222830	keystroke_d	d	n/a
111.655	0.0745	223310	keystroke_a	a	n/a
111.88	0.135	223760	keystroke_l	l	n/a
112.285	0.149	224570	keystroke_e	e	n/a
112.554	0.106	225108	keystroke_Key.space	Key.space	n/a
113.035	0.119	226070	keystroke_m	m	n/a
113.2445	0.0755	226489	keystroke_i	i	n/a
113.425	0.0895	226850	keystroke_n	n	n/a
113.59	0.1045	227180	keystroke_i	i	n/a
113.7695	0.1055	227539	keystroke_m	m	n/a
113.934	0.1355	227868	keystroke_i	i	n/a
114.0995	0.18	228199	keystroke_z	z	n/a
114.5045	0.12	229009	keystroke_e	e	n/a
114.685	0.135	229370	keystroke_Key.space	Key.space	n/a
115.839	0.12	231678	keystroke_s	s	n/a
116.065	0.074	232130	keystroke_w	w	n/a
116.29	0.0445	232580	keystroke_e	e	n/a
116.4395	0.0755	232879	keystroke_e	e	n/a
116.8445	0.1055	233689	keystroke_d	d	n/a
117.0395	0.105	234079	keystroke_i	i	n/a
117.2195	0.105	234439	keystroke_s	s	n/a
117.3545	0.12	234709	keystroke_h	h	n/a
118.6895	0.12	237379	keystroke_Key.enter	Key.enter	n/a
118.815	7.211	237630	prompt	n/a	interventions towns pattern easy\n
119.8595	0.075	239719	keystroke_i	i	n/a
120.0395	0.135	240079	keystroke_n	n	n/a
120.1595	0.0755	240319	keystroke_t	t	n/a
120.3395	0.1055	240679	keystroke_e	e	n/a
120.3845	0.135	240769	keystroke_r	r	n/a
120.6995	0.0905	241399	keystroke_v	v	n/a
120.9995	0.015	241999	keystroke_e	e	n/a
121.03	0.1045	242060	keystroke_n	n	n/a
121.135	0.0895	242270	keystroke_t	t	n/a
121.2695	0.255	242539	keystroke_i	i	n/a
121.4045	0.21	242809	keystroke_o	o	n/a
121.5095	0.15	243019	keystroke_n	n	n/a
121.7495	0.0905	243499	keystroke_s	s	n/a
121.8845	0.135	243769	keystroke_Key.space	Key.space	n/a
122.1095	0.09	244219	keystroke_t	t	n/a
122.32	0.1195	244640	keystroke_o	o	n/a
122.4695	0.09	244939	keystroke_w	w	n/a
123.0395	0.135	246079	keystroke_n	n	n/a
123.2195	0.1045	246439	keystroke_s	s	n/a
123.3995	0.105	246799	keystroke_Key.space	Key.space	n/a
123.6845	0.1495	247369	keystroke_p	p	n/a
123.8645	0.075	247729	keystroke_a	a	n/a
124.074	0.0455	248148	keystroke_t	t	n/a
124.209	0.0755	248418	keystroke_t	t	n/a
124.36	0.1795	248720	keystroke_e	e	n/a
124.4945	0.0895	248989	keystroke_r	r	n/a
124.7645	0.0755	249529	keystroke_n	n	n/a
124.96	0.104	249920	keystroke_Key.space	Key.space	n/a
125.11	0.09	250220	keystroke_e	e	n/a
125.304	0.12	250608	keystroke_a	a	n/a
125.35	0.15	250700	keystroke_s	s	n/a
125.53	0.12	251060	keystroke_y	y	n/a
125.889	0.135	251778	keystroke_Key.enter	Key.enter	n/a
126.0295	13.0625	252059	prompt	n/a	yeast reasonably struct canberra\n
127.03	0.12	254060	keystroke_y	y	n/a
127.119	0.09	254238	keystroke_e	e	n/a
127.27	0.15	254540	keystroke_a	a	n/a
127.5545	0.09	255109	keystroke_s	s	n/a
127.7795	0.09	255559	keystroke_t	t	n/a
127.9145	0.105	255829	keystroke_Key.space	Key.space	n/a
128.0495	0.135	256099	keystroke_r	r	n/a
128.1695	0.09	256339	keystroke_e	e	n/a
128.7695	0.09	257539	keystroke_a	a	n/a
128.9645	0.09	257929	keystroke_s	s	n/a
129.0845	0.105	258169	keystroke_o	o	n/a
129.3095	0.105	258619	keystroke_n	n	n/a
129.9995	0.1655	259999	keystroke_a	a	n/a
130.149	0.0905	260298	keystroke_b	b	n/a
130.3445	0.1345	260689	keystroke_l	l	n/a
130.45	0.0895	260900	keystroke_y	y	n/a
130.674	0.09	261348	keystroke_Key.space	Key.space	n/a
130.9145	0.105	261829	keystroke_s	s	n/a
131.154	0.045	262308	keystroke_t	t	n/a
131.319	0.0905	262638	keystroke_r	r	n/a
131.4395	0.1345	262879	keystroke_u	u	n/a
131.649	0.105	263298	keystroke_c	c	n/a
132.0395	0.015	264079	keystroke_y	y	n/a
132.565	0.1345	265130	keystroke_Key.space	Key.space	n/a
133.705	0.164	267410	keystroke_Key.backspace	Key.backspace	n/a
133.884	0.0605	267768	keystroke_Key.backspace	Key.backspace	n/a
134.619	0.076	269238	keystroke_t	t	n/a
134.8445	0.1195	269689	keystroke_Key.space	Key.space	n/a
135.16	0.09	270320	keystroke_c	c	n/a
135.4	0.1645	270800	keystroke_a	a	n/a
137.215	0.12	274430	keystroke_n	n	n/a
137.485	0.1195	274970	keystroke_b	b	n/a
137.619	0.135	275238	keystroke_e	e	n/a
137.875	0.044	275750	keystroke_r	r	n/a
137.995	0.074	275990	keystroke_r	r	n/a
138.2195	0.1345	276439	keystroke_a	a	n/a
138.939	0.15	277878	keystroke_Key.enter	Key.enter	n/a
139.0965	12.9095	278193	prompt	n/a	engine panasonic cosmetic cutting\n
139.8695	0.1195	279739	keystroke_e	e	n/a
140.095	0.09	280190	keystroke_n	n	n/a
140.199	0.091	280398	keystroke_g	g	n/a
140.35	0.119	280700	keystroke_i	i	n/a
140.515	0.134	281030	keystroke_n	n	n/a
140.664	0.105	281328	keystroke_e	e	n/a
140.799	0.1805	281598	keystroke_Key.space	Key.space	n/a
141.115	0.1195	282230	keystroke_p	p	n/a
141.28	0.104	282560	keystroke_a	a	n/a
141.4305	0.1035	282861	keystroke_n	n	n/a
141.549	0.105	283098	keystroke_a	a	n/a
141.849	0.1055	283698	keystroke_z	z	n/a
141.939	0.06	283878	keystroke_o	o	n/a
142.1345	0.105	284269	keystroke_n	n	n/a
142.5845	0.075	285169	keystroke_Key.backspace	Key.backspace	n/a
142.929	0.121	285858	keystroke_Key.backspace	Key.backspace	n/a
143.244	0.09	286488	keystroke_Key.backspace	Key.backspace	n/a
144.1595	0.105	288319	keystroke_s	s	n/a
144.3245	0.075	288649	keystroke_o	o	n/a
144.5195	0.0905	289039	keystroke_n	n	n/a
144.6845	0.105	289369	keystroke_i	i	n/a
144.8495	0.0905	289699	keystroke_c	c	n/a
145.0595	0.105	290119	keystroke_Key.space	Key.space	n/a
146.7395	0.105	293479	keystroke_c	c	n/a
146.9195	0.0605	293839	keystroke_o	o	n/a
147.175	0.12	294350	keystroke_n	n	n/a
147.819	0.12	295638	keystroke_Key.backspace	Key.backspace	n/a
148.5845	0.1355	297169	keystroke_s	s	n/a
148.854	0.1205	297708	keystroke_m	m	n/a
148.9595	0.1205	297919	keystroke_e	e	n/a
149.17	0.105	298340	keystroke_t	t	n/a
149.32	0.1345	298640	keystroke_i	i	n/a
149.5445	0.105	299089	keystroke_c	c	n/a
149.7095	0.1355	299419	keystroke_Key.space	Key.space	n/a
150.054	0.121	300108	keystroke_c	c	n/a
150.235	0.135	300470	keystroke_u	u	n/a
150.445	0.09	300890	keystroke_t	t	n/a
150.774	0.061	301548	keystroke_t	t	n/a
151.33	0.0895	302660	keystroke_i	i	n/a
151.509	0.136	303018	keystroke_n	n	n/a
151.6295	0.0895	303259	keystroke_g	g	n/a
151.8845	0.12	303769	keystroke_Key.enter	Key.enter	n/a
152.0105	9.6115	304021	prompt	n/a	trauma expected estimate cholesterol\n
152.695	0.089	305390	keystroke_t	t	n/a
152.905	0.075	305810	keystroke_r	r	n/a
153.1	0.1045	306200	keystroke_a	a	n/a
153.2795	0.075	306559	keystroke_u	u	n/a
153.49	0.1195	306980	keystroke_m	m	n/a
153.64	0.1345	307280	keystroke_a	a	n/a
153.7895	0.105	307579	keystroke_Key.space	Key.space	n/a
154.1495	0.075	308299	keystroke_e	e	n/a
155.3795	0.12	310759	keystroke_x	x	n/a
155.515	0.15	311030	keystroke_p	p	n/a
155.6795	0.075	311359	keystroke_e	e	n/a
155.9045	0.09	311809	keystroke_c	c	n/a
156.2045	0.0895	312409	keystroke_t	t	n/a
156.3845	0.1055	312769	keystroke_e	e	n/a
156.64	0.0595	313280	keystroke_d	d	n/a
156.7445	0.1495	313489	keystroke_Key.space	Key.space	n/a
156.909	0.09	313818	keystroke_e	e	n/a
157.165	0.075	314330	keystroke_s	s	n/a
157.3595	0.1055	314719	keystroke_t	t	n/a
157.509	0.09	315018	keystroke_i	i	n/a
157.6895	0.12	315379	keystroke_m	m	n/a
157.794	0.1355	315588	keystroke_a	a	n/a
157.9745	0.135	315949	keystroke_t	t	n/a
158.1245	0.105	316249	keystroke_e	e	n/a
158.2895	0.1195	316579	keystroke_Key.space	Key.space	n/a
158.514	0.136	317028	keystroke_c	c	n/a
158.665	0.1195	317330	keystroke_h	h	n/a
158.9195	0.12	317839	keystroke_o	o	n/a
159.414	0.0755	318828	keystroke_l	l	n/a
159.565	0.1195	319130	keystroke_e	e	n/a
159.8945	0.1055	319789	keystroke_s	s	n/a
160.1795	0.075	320359	keystroke_t	t	n/a
160.6745	0.135	321349	keystroke_e	e	n/a
160.8245	0.076	321649	keystroke_r	r	n/a
161.05	0.105	322100	keystroke_a	a	n/a
161.14	0.105	322280	keystroke_l	l	n/a
161.544	0.0755	323088	keystroke_Key.enter	Key.enter	n/a
161.628	7.883	323256	prompt	n/a	feeling derived memories subaru\n
162.9845	0.0905	325969	keystroke_f	f	n/a
163.1945	0.0295	326389	keystroke_e	e	n/a
163.3295	0.09	326659	keystroke_e	e	n/a
163.4345	0.0905	326869	keystroke_l	l	n/a
163.5995	0.105	327199	keystroke_i	i	n/a
163.7945	0.0905	327589	keystroke_n	n	n/a
163.9295	0.075	327859	keystroke_g	g	n/a
164.0645	0.1345	328129	keystroke_Key.space	Key.space	n/a
164.2295	0.105	328459	keystroke_d	d	n/a
164.4545	0.165	328909	keystroke_e	e	n/a
164.6795	0.1055	329359	keystroke_r	r	n/a
164.9645	0.1195	329929	keystroke_i	i	n/a
165.114	0.1205	330228	keystroke_v	v	n/a
165.3545	0.09	330709	keystroke_e	e	n/a
165.5945	0.12	331189	keystroke_d	d	n/a
165.7295	0.12	331459	keystroke_Key.space	Key.space	n/a
165.9695	0.135	331939	keystroke_e	e	n/a
166.4045	0.06	332809	keystroke_Key.backspace	Key.backspace	n/a
166.6145	0.09	333229	keystroke_m	m	n/a
166.719	0.12	333438	keystroke_e	e	n/a
166.824	0.1055	333648	keystroke_m	m	n/a
167.0495	0.1055	334099	keystroke_o	o	n/a
167.1695	0.0755	334339	keystroke_r	r	n/a
167.3495	0.135	334699	keystroke_i	i	n/a
167.53	0.0895	335060	keystroke_e	e	n/a
167.74	0.0895	335480	keystroke_s	s	n/a
167.8445	0.1045	335689	keystroke_Key.space	Key.space	n/a
168.0995	0.12	336199	keystroke_s	s	n/a
168.474	0.1055	336948	keystroke_u	u	n/a
168.6395	0.12	337279	keystroke_b	b	n/a
168.7895	0.1195	337579	keystroke_a	a	n/a
168.9395	0.1045	337879	keystroke_r	r	n/a
169.105	0.119	338210	keystroke_u	u	n/a
169.4045	0.1045	338809	keystroke_Key.enter	Key.enter	n/a
169.515	6.5515	339030	prompt	n/a	monroe performance arab amounts\n
170.2745	0.1195	340549	keystroke_m	m	n/a
170.469	0.0605	340938	keystroke_o	o	n/a
170.635	0.1045	341270	keystroke_n	n	n/a
170.784	0.06	341568	keystroke_r	r	n/a
170.889	0.1205	341778	keystroke_o	o	n/a
171.024	0.1205	342048	keystroke_e	e	n/a
171.2195	0.12	342439	keystroke_Key.space	Key.space	n/a
171.5495	0.105	343099	keystroke_p	p	n/a
171.6395	0.165	343279	keystroke_e	e	n/a
171.7895	0.0755	343579	keystroke_r	r	n/a
172.074	0.0905	344148	keystroke_f	f	n/a
172.209	0.106	344418	keystroke_o	o	n/a
172.315	0.09	344630	keystroke_r	r	n/a
172.42	0.105	344840	keystroke_m	m	n/a
172.5095	0.105	345019	keystroke_a	a	n/a
172.6445	0.105	345289	keystroke_n	n	n/a
172.7195	0.15	345439	keystroke_c	c	n/a
172.855	0.104	345710	keystroke_e	e	n/a
172.9895	0.1345	345979	keystroke_Key.space	Key.space	n/a
173.394	0.12	346788	keystroke_a	a	n/a
173.544	0.1055	347088	keystroke_r	r	n/a
173.694	0.1205	347388	keystroke_a	a	n/a
173.844	0.1205	347688	keystroke_b	b	n/a
174.5045	0.105	349009	keystroke_Key.space	Key.space	n/a
174.775	0.1345	349550	keystroke_a	a	n/a
174.9245	0.105	349849	keystroke_m	m	n/a
175.0895	0.2705	350179	keystroke_o	o	n/a
175.209	0.1805	350418	keystroke_u	u	n/a
175.3295	0.15	350659	keystroke_n	n	n/a
175.4345	0.105	350869	keystroke_t	t	n/a
175.6745	0.1805	351349	keystroke_s	s	n/a
175.9295	0.135	351859	keystroke_Key.enter	Key.enter	n/a
176.0705	7.3305	352141	prompt	n/a	titles edmonton organized replies\n
176.8745	0.12	353749	keystroke_t	t	n/a
177.0395	0.15	354079	keystroke_i	i	n/a
177.1745	0.09	354349	keystroke_t	t	n/a
177.3395	0.1195	354679	keystroke_l	l	n/a
177.4145	0.09	354829	keystroke_e	e	n/a
177.624	0.1055	355248	keystroke_s	s	n/a
177.744	0.1205	355488	keystroke_Key.space	Key.space	n/a
177.924	0.0905	355848	keystroke_e	e	n/a
178.149	0.12	356298	keystroke_d	d	n/a
178.359	0.1205	356718	keystroke_m	m	n/a
178.719	0.06	357438	keystroke_n	n	n/a
179.169	0.03	358338	keystroke_Key.backspace	Key.backspace	n/a
179.515	0.075	359030	keystroke_o	o	n/a
179.694	0.09	359388	keystroke_n	n	n/a
179.814	0.0755	359628	keystroke_t	t	n/a
179.9795	0.0895	359959	keystroke_o	o	n/a
180.174	0.0905	360348	keystroke_n	n	n/a
180.384	0.09	360768	keystroke_Key.space	Key.space	n/a
180.6545	0.1495	361309	keystroke_o	o	n/a
180.789	0.045	361578	keystroke_r	r	n/a
180.9545	0.0745	361909	keystroke_g	g	n/a
181.149	0.105	362298	keystroke_a	a	n/a
181.24	0.104	362480	keystroke_n	n	n/a
181.42	0.1345	362840	keystroke_i	i	n/a
181.524	0.12	363048	keystroke_z	z	n/a
181.75	0.0895	363500	keystroke_e	e	n/a
181.9595	0.12	363919	keystroke_d	d	n/a
182.049	0.105	364098	keystroke_Key.space	Key.space	n/a
182.1995	0.12	364399	keystroke_r	r	n/a
182.2895	0.105	364579	keystroke_e	e	n/a
182.439	0.106	364878	keystroke_p	p	n/a
182.6345	0.0895	365269	keystroke_l	l	n/a
182.799	0.1055	365598	keystroke_i	i	n/a
182.875	0.09	365750	keystroke_e	e	n/a
183.1145	0.075	366229	keystroke_s	s	n/a
183.3095	0.0895	366619	keystroke_Key.enter	Key.enter	n/a
183.4055	19.5565	366811	prompt	n/a	it governments circuits detroit\n
184.3595	0.09	368719	keystroke_i	i	n/a
184.4645	0.075	368929	keystroke_t	t	n/a
184.6145	0.105	369229	keystroke_Key.space	Key.space	n/a
184.8245	0.105	369649	keystroke_f	f	n/a
185.0195	0.12	370039	keystroke_o	o	n/a
185.7245	0.09	371449	keystroke_Key.backspace	Key.backspace	n/a
185.8895	0.105	371779	keystroke_Key.backspace	Key.backspace	n/a
186.4595	0.075	372919	keystroke_g	g	n/a
186.7145	0.105	373429	keystroke_o	o	n/a
186.85	0.1045	373700	keystroke_v	v	n/a
187.0595	0.165	374119	keystroke_e	e	n/a
187.1795	0.105	374359	keystroke_r	r	n/a
187.3145	0.09	374629	keystroke_n	n	n/a
187.555	0.1045	375110	keystroke_m	m	n/a
187.6295	0.165	375259	keystroke_e	e	n/a
187.7795	0.09	375559	keystroke_n	n	n/a
187.8395	0.105	375679	keystroke_t	t	n/a
188.5895	0.09	377179	keystroke_e	e	n/a
189.2195	0.09	378439	keystroke_Key.backspace	Key.backspace	n/a
189.325	0.0295	378650	keystroke_s	s	n/a
189.4895	0.105	378979	keystroke_Key.space	Key.space	n/a
190.15	0.0745	380300	keystroke_c	c	n/a
190.4195	0.105	380839	keystroke_i	i	n/a
190.5395	0.075	381079	keystroke_r	r	n/a
190.9295	0.12	381859	keystroke_c	c	n/a
191.1095	0.105	382219	keystroke_u	u	n/a
191.2445	0.06	382489	keystroke_t	t	n/a
191.4995	0.1055	382999	keystroke_s	s	n/a
191.6195	0.09	383239	keystroke_Key.space	Key.space	n/a
191.8445	0.09	383689	keystroke_d	d	n/a
192.025	0.12	384050	keystroke_e	e	n/a
192.2195	0.09	384439	keystroke_t	t	n/a
192.6095	0.06	385219	keystroke_r	r	n/a
192.7595	0.075	385519	keystroke_o	o	n/a
192.955	0.1195	385910	keystroke_i	i	n/a
193.03	0.0895	386060	keystroke_t	t	n/a
196.421	0.073	392842	keystroke_Key.backspace	Key.backspace	n/a
196.5545	0.12	393109	keystroke_Key.backspace	Key.backspace	n/a
196.749	0.06	393498	keystroke_Key.backspace	Key.backspace	n/a
196.9145	0.075	393829	keystroke_Key.backspace	Key.backspace	n/a
197.1095	0.075	394219	keystroke_Key.backspace	Key.backspace	n/a
197.2895	0.09	394579	keystroke_Key.backspace	Key.backspace	n/a
197.485	0.0595	394970	keystroke_Key.backspace	Key.backspace	n/a
197.6645	0.06	395329	keystroke_Key.backspace	Key.backspace	n/a
197.8445	0.075	395689	keystroke_Key.backspace	Key.backspace	n/a
198.009	0.09	396018	keystroke_Key.backspace	Key.backspace	n/a
200.6205	0.044	401241	keystroke_i	i	n/a
200.6345	0.09	401269	keystroke_t	t	n/a
200.9345	0.09	401869	keystroke_s	s	n/a
201.085	0.1035	402170	keystroke_Key.space	Key.space	n/a
201.4145	0.0905	402829	keystroke_d	d	n/a
201.6095	0.135	403219	keystroke_e	e	n/a
201.7895	0.075	403579	keystroke_t	t	n/a
201.985	0.0745	403970	keystroke_r	r	n/a
202.075	0.0895	404150	keystroke_o	o	n/a
202.285	0.105	404570	keystroke_i	i	n/a
202.42	0.104	404840	keystroke_t	t	n/a
202.8545	0.105	405709	keystroke_Key.enter	Key.enter	n/a
202.9665	10.645	405933	prompt	n/a	nokia opera burke dividend\n
204.115	0.1195	408230	keystroke_n	n	n/a
204.369	0.076	408738	keystroke_o	o	n/a
204.5795	0.0905	409159	keystroke_k	k	n/a
204.789	0.0905	409578	keystroke_i	i	n/a
205.3295	0.045	410659	keystroke_a	a	n/a
205.6445	0.1045	411289	keystroke_Key.space	Key.space	n/a
205.8995	0.09	411799	keystroke_o	o	n/a
206.1095	0.12	412219	keystroke_p	p	n/a
206.2445	0.075	412489	keystroke_e	e	n/a
206.71	0.104	413420	keystroke_r	r	n/a
206.9495	0.0895	413899	keystroke_a	a	n/a
207.069	0.09	414138	keystroke_Key.space	Key.space	n/a
207.549	0.105	415098	keystroke_b	b	n/a
207.835	0.105	415670	keystroke_u	u	n/a
208.135	0.075	416270	keystroke_r	r	n/a
208.389	0.121	416778	keystroke_k	k	n/a
208.5545	0.1195	417109	keystroke_e	e	n/a
209.2445	0.0895	418489	keystroke_Key.space	Key.space	n/a
209.68	0.12	419360	keystroke_d	d	n/a
209.889	0.105	419778	keystroke_i	i	n/a
210.114	0.1205	420228	keystroke_v	v	n/a
210.2795	0.105	420559	keystroke_i	i	n/a
210.565	0.135	421130	keystroke_e	e	n/a
211.1945	0.135	422389	keystroke_Key.backspace	Key.backspace	n/a
211.689	0.0755	423378	keystroke_d	d	n/a
211.8245	0.105	423649	keystroke_e	e	n/a
211.9445	0.09	423889	keystroke_n	n	n/a
212.4695	0.12	424939	keystroke_d	d	n/a
213.4895	0.12	426979	keystroke_Key.enter	Key.enter	n/a
213.614	8.022	427228	prompt	n/a	orchestra pottery dept qualified\n
214.555	0.135	429110	keystroke_o	o	n/a
214.705	0.0445	429410	keystroke_r	r	n/a
214.9145	0.12	429829	keystroke_c	c	n/a
215.0795	0.12	430159	keystroke_h	h	n/a
215.1395	0.105	430279	keystroke_e	e	n/a
215.3495	0.12	430699	keystroke_s	s	n/a
215.5895	0.09	431179	keystroke_t	t	n/a
215.8295	0.075	431659	keystroke_r	r	n/a
216.4445	0.12	432889	keystroke_a	a	n/a
216.8795	0.105	433759	keystroke_Key.space	Key.space	n/a
217.2095	0.09	434419	keystroke_p	p	n/a
217.4045	0.12	434809	keystroke_o	o	n/a
217.51	0.075	435020	keystroke_t	t	n/a
217.6895	0.0455	435379	keystroke_t	t	n/a
217.81	0.15	435620	keystroke_e	e	n/a
217.93	0.105	435860	keystroke_r	r	n/a
218.0645	0.1205	436129	keystroke_y	y	n/a
218.3045	0.12	436609	keystroke_Key.space	Key.space	n/a
218.4395	0.075	436879	keystroke_d	d	n/a
218.6045	0.12	437209	keystroke_e	e	n/a
218.71	0.119	437420	keystroke_p	p	n/a
218.845	0.12	437690	keystroke_t	t	n/a
219.024	0.106	438048	keystroke_Key.space	Key.space	n/a
219.4895	0.06	438979	keystroke_q	q	n/a
219.7445	0.075	439489	keystroke_u	u	n/a
220.464	0.09	440928	keystroke_a	a	n/a
220.629	0.075	441258	keystroke_l	l	n/a
220.779	0.1205	441558	keystroke_i	i	n/a
220.96	0.0895	441920	keystroke_f	f	n/a
221.094	0.1055	442188	keystroke_i	i	n/a
221.169	0.12	442338	keystroke_e	e	n/a
221.379	0.1205	442758	keystroke_d	d	n/a
221.529	0.1055	443058	keystroke_Key.enter	Key.enter	n/a
221.639	6.807	443278	prompt	n/a	rehab nickel andorra doctors\n
222.564	0.075	445128	keystroke_r	r	n/a
222.729	0.076	445458	keystroke_e	e	n/a
222.82	0.119	445640	keystroke_h	h	n/a
222.969	0.091	445938	keystroke_a	a	n/a
223.135	0.1045	446270	keystroke_b	b	n/a
223.3895	0.12	446779	keystroke_Key.space	Key.space	n/a
223.6295	0.1055	447259	keystroke_n	n	n/a
223.8245	0.12	447649	keystroke_i	i	n/a
224.2295	0.045	448459	keystroke_c	c	n/a
224.3345	0.105	448669	keystroke_k	k	n/a
224.4245	0.12	448849	keystroke_e	e	n/a
224.6645	0.12	449329	keystroke_l	l	n/a
224.9045	0.09	449809	keystroke_Key.space	Key.space	n/a
225.0095	0.135	450019	keystroke_a	a	n/a
225.1595	0.09	450319	keystroke_n	n	n/a
225.2645	0.105	450529	keystroke_d	d	n/a
225.4	0.1045	450800	keystroke_o	o	n/a
225.5345	0.0455	451069	keystroke_r	r	n/a
225.6845	0.105	451369	keystroke_r	r	n/a
225.8795	0.105	451759	keystroke_a	a	n/a
225.9695	0.105	451939	keystroke_Key.space	Key.space	n/a
226.1495	0.1055	452299	keystroke_d	d	n/a
226.269	0.1205	452538	keystroke_o	o	n/a
226.3595	0.12	452719	keystroke_c	c	n/a
226.63	0.0595	453260	keystroke_t	t	n/a
226.7345	0.12	453469	keystroke_o	o	n/a
226.8395	0.105	453679	keystroke_r	r	n/a
227.0795	0.135	454159	keystroke_s	s	n/a
228.339	0.1055	456678	keystroke_Key.enter	Key.enter	n/a
228.45	7.6915	456900	prompt	n/a	dress automobile dinner yamaha\n
229.2695	0.12	458539	keystroke_d	d	n/a
229.5095	0.12	459019	keystroke_r	r	n/a
229.5995	0.105	459199	keystroke_e	e	n/a
229.8395	0.075	459679	keystroke_s	s	n/a
230.0045	0.075	460009	keystroke_s	s	n/a
230.1095	0.134	460219	keystroke_Key.space	Key.space	n/a
230.3045	0.105	460609	keystroke_a	a	n/a
230.4545	0.149	460909	keystroke_u	u	n/a
230.5895	0.104	461179	keystroke_t	t	n/a
230.7685	0.09	461537	keystroke_o	o	n/a
230.9795	0.089	461959	keystroke_m	m	n/a
231.13	0.0735	462260	keystroke_o	o	n/a
231.415	0.089	462830	keystroke_b	b	n/a
231.624	0.091	463248	keystroke_i	i	n/a
231.8045	0.105	463609	keystroke_l	l	n/a
231.939	0.075	463878	keystroke_e	e	n/a
232.074	0.1055	464148	keystroke_Key.space	Key.space	n/a
232.299	0.12	464598	keystroke_d	d	n/a
232.4345	0.075	464869	keystroke_i	i	n/a
232.599	0.0755	465198	keystroke_n	n	n/a
232.7345	0.1205	465469	keystroke_n	n	n/a
232.7945	0.15	465589	keystroke_e	e	n/a
232.9295	0.075	465859	keystroke_r	r	n/a
233.049	0.09	466098	keystroke_Key.space	Key.space	n/a
233.5895	0.09	467179	keystroke_y	y	n/a
233.7845	0.09	467569	keystroke_a	a	n/a
234.5035	0.136	469007	keystroke_m	m	n/a
234.7745	0.1055	469549	keystroke_a	a	n/a
235.15	0.104	470300	keystroke_h	h	n/a
235.315	0.119	470630	keystroke_a	a	n/a
235.9735	0.166	471947	keystroke_Key.enter	Key.enter	n/a
236.146	8.395	472292	prompt	n/a	therefore proper collectables declared\n
236.9945	0.075	473989	keystroke_t	t	n/a
237.099	0.12	474198	keystroke_h	h	n/a
237.249	0.165	474498	keystroke_e	e	n/a
237.354	0.12	474708	keystroke_r	r	n/a
237.6695	0.0895	475339	keystroke_e	e	n/a
238.2395	0.1045	476479	keystroke_f	f	n/a
238.4045	0.105	476809	keystroke_o	o	n/a
238.54	0.15	477080	keystroke_r	r	n/a
238.674	0.135	477348	keystroke_e	e	n/a
238.8995	0.12	477799	keystroke_Key.space	Key.space	n/a
239.365	0.09	478730	keystroke_p	p	n/a
239.469	0.105	478938	keystroke_r	r	n/a
239.59	0.089	479180	keystroke_o	o	n/a
239.815	0.075	479630	keystroke_p	p	n/a
239.89	0.1335	479780	keystroke_e	e	n/a
239.994	0.121	479988	keystroke_r	r	n/a
240.204	0.1055	480408	keystroke_Key.space	Key.space	n/a
240.639	0.1205	481278	keystroke_c	c	n/a
240.8045	0.075	481609	keystroke_o	o	n/a
241.0295	0.0445	482059	keystroke_l	l	n/a
241.164	0.1055	482328	keystroke_l	l	n/a
241.2095	0.105	482419	keystroke_e	e	n/a
241.3595	0.12	482719	keystroke_c	c	n/a
241.6435	0.091	483287	keystroke_t	t	n/a
241.8395	0.18	483679	keystroke_a	a	n/a
241.9895	0.0905	483979	keystroke_b	b	n/a
242.1995	0.075	484399	keystroke_l	l	n/a
242.3045	0.105	484609	keystroke_e	e	n/a
242.6345	0.1205	485269	keystroke_s	s	n/a
242.9935	0.1055	485987	keystroke_Key.space	Key.space	n/a
243.2185	0.076	486437	keystroke_d	d	n/a
243.4145	0.075	486829	keystroke_e	e	n/a
243.5795	0.1055	487159	keystroke_c	c	n/a
243.73	0.1185	487460	keystroke_l	l	n/a
243.7895	0.164	487579	keystroke_a	a	n/a
243.9545	0.135	487909	keystroke_r	r	n/a
244.0745	0.105	488149	keystroke_e	e	n/a
244.2995	0.0895	488599	keystroke_d	d	n/a
244.4345	0.1045	488869	keystroke_Key.enter	Key.enter	n/a
244.5445	1.4675	489089	prompt	n/a	don't limit description marilyn\n
245.4095	0.1205	490819	keystroke_d	d	n/a
245.514	0.09	491028	keystroke_o	o	n/a
245.695	0.074	491390	keystroke_n	n	n/a
245.889	0.1205	491778	keystroke_Key.enter	Key.enter	n/a
246.016	9.941	492032	prompt	n/a	seattle matches ship visible\n
246.04	0.09	492080	keystroke_t	t	n/a
247.464	0.0905	494928	keystroke_s	s	n/a
247.6735	0.136	495347	keystroke_e	e	n/a
247.839	0.12	495678	keystroke_a	a	n/a
248.0795	0.105	496159	keystroke_t	t	n/a
248.2595	0.075	496519	keystroke_t	t	n/a
248.3495	0.105	496699	keystroke_l	l	n/a
250.239	0.105	500478	keystroke_s	s	n/a
250.449	0.1505	500898	keystroke_e	e	n/a
250.629	0.15	501258	keystroke_a	a	n/a
250.8545	0.0605	501709	keystroke_t	t	n/a
251.004	0.06	502008	keystroke_t	t	n/a
251.1245	0.1045	502249	keystroke_l	l	n/a
251.274	0.0905	502548	keystroke_e	e	n/a
251.4845	0.1345	502969	keystroke_Key.space	Key.space	n/a
251.9195	0.1355	503839	keystroke_m	m	n/a
252.024	0.165	504048	keystroke_a	a	n/a
252.2045	0.0595	504409	keystroke_t	t	n/a
252.4445	0.105	504889	keystroke_c	c	n/a
252.5945	0.1195	505189	keystroke_h	h	n/a
252.699	0.0755	505398	keystroke_e	e	n/a
252.924	0.1055	505848	keystroke_s	s	n/a
253.0595	0.09	506119	keystroke_Key.space	Key.space	n/a
253.2695	0.09	506539	keystroke_s	s	n/a
253.3745	0.0895	506749	keystroke_h	h	n/a
253.5695	0.135	507139	keystroke_i	i	n/a
253.749	0.12	507498	keystroke_p	p	n/a
253.989	0.1205	507978	keystroke_Key.space	Key.space	n/a
254.739	0.075	509478	keystroke_v	v	n/a
254.875	0.1195	509750	keystroke_i	i	n/a
255.0095	0.105	510019	keystroke_s	s	n/a
255.0995	0.1045	510199	keystroke_i	i	n/a
255.325	0.0595	510650	keystroke_b	b	n/a
255.5045	0.09	511009	keystroke_l	l	n/a
255.624	0.1055	511248	keystroke_e	e	n/a
255.8645	0.09	511729	keystroke_Key.enter	Key.enter	n/a
255.963	11.394	511926	prompt	n/a	corners lamb biodiversity industrial\n
257.1695	0.12	514339	keystroke_c	c	n/a
257.4245	0.075	514849	keystroke_o	o	n/a
257.514	0.075	515028	keystroke_r	r	n/a
257.709	0.105	515418	keystroke_n	n	n/a
257.769	0.1355	515538	keystroke_e	e	n/a
257.9345	0.09	515869	keystroke_r	r	n/a
258.1595	0.075	516319	keystroke_s	s	n/a
258.264	0.09	516528	keystroke_Key.space	Key.space	n/a
258.4595	0.09	516919	keystroke_l	l	n/a
258.5945	0.12	517189	keystroke_a	a	n/a
258.76	0.0595	517520	keystroke_m	m	n/a
259.8995	0.0905	519799	keystroke_b	b	n/a
260.124	0.09	520248	keystroke_Key.space	Key.space	n/a
261.055	0.06	522110	keystroke_b	b	n/a
261.265	0.0445	522530	keystroke_i	i	n/a
261.415	0.09	522830	keystroke_o	o	n/a
261.579	0.121	523158	keystroke_d	d	n/a
261.969	0.1055	523938	keystroke_i	i	n/a
262.134	0.061	524268	keystroke_v	v	n/a
262.315	0.1345	524630	keystroke_e	e	n/a
262.405	0.1045	524810	keystroke_r	r	n/a
262.6295	0.1205	525259	keystroke_s	s	n/a
262.765	0.1195	525530	keystroke_i	i	n/a
262.8995	0.09	525799	keystroke_t	t	n/a
263.1245	0.075	526249	keystroke_y	y	n/a
264.144	0.0755	528288	keystroke_Key.space	Key.space	n/a
264.67	0.0595	529340	keystroke_d	d	n/a
265.165	0.0895	530330	keystroke_Key.backspace	Key.backspace	n/a
265.405	0.075	530810	keystroke_i	i	n/a
265.585	0.09	531170	keystroke_n	n	n/a
265.795	0.1195	531590	keystroke_d	d	n/a
265.975	0.0895	531950	keystroke_u	u	n/a
266.0945	0.105	532189	keystroke_s	s	n/a
266.274	0.075	532548	keystroke_t	t	n/a
266.4395	0.0745	532879	keystroke_r	r	n/a
266.515	0.1345	533030	keystroke_i	i	n/a
266.739	0.1505	533478	keystroke_a	a	n/a
266.8445	0.135	533689	keystroke_l	l	n/a
267.2495	0.105	534499	keystroke_Key.enter	Key.enter	n/a
267.361	9.461	534722	prompt	n/a	protest dust circus participant\n
268.09	0.015	536180	keystroke_p	p	n/a
268.1345	0.075	536269	keystroke_r	r	n/a
269.08	0.045	538160	keystroke_o	o	n/a
269.214	0.0605	538428	keystroke_t	t	n/a
269.364	0.0605	538728	keystroke_e	e	n/a
270.144	0.12	540288	keystroke_s	s	n/a
270.459	0.075	540918	keystroke_t	t	n/a
270.6545	0.105	541309	keystroke_Key.space	Key.space	n/a
271.6595	0.075	543319	keystroke_d	d	n/a
271.855	0.104	543710	keystroke_u	u	n/a
271.944	0.1055	543888	keystroke_s	s	n/a
272.1845	0.09	544369	keystroke_t	t	n/a
272.35	0.1195	544700	keystroke_Key.space	Key.space	n/a
273.2945	0.0455	546589	keystroke_c	c	n/a
273.519	0.106	547038	keystroke_i	i	n/a
273.64	0.074	547280	keystroke_r	r	n/a
273.939	0.061	547878	keystroke_c	c	n/a
274.33	0.1045	548660	keystroke_u	u	n/a
274.4645	0.1045	548929	keystroke_s	s	n/a
274.6445	0.1045	549289	keystroke_Key.space	Key.space	n/a
274.975	0.105	549950	keystroke_p	p	n/a
275.1845	0.135	550369	keystroke_a	a	n/a
275.3345	0.075	550669	keystroke_r	r	n/a
275.5145	0.0745	551029	keystroke_t	t	n/a
275.6795	0.09	551359	keystroke_i	i	n/a
275.8145	0.0905	551629	keystroke_c	c	n/a
275.92	0.074	551840	keystroke_i	i	n/a
276.07	0.1045	552140	keystroke_p	p	n/a
276.2045	0.12	552409	keystroke_a	a	n/a
276.3545	0.105	552709	keystroke_n	n	n/a
276.475	0.1345	552950	keystroke_t	t	n/a
276.715	0.1045	553430	keystroke_Key.enter	Key.enter	n/a
276.8255	8.921	553651	prompt	n/a	firewall interest sheffield logitech\n
277.99	0.09	555980	keystroke_f	f	n/a
278.11	0.105	556220	keystroke_i	i	n/a
278.215	0.135	556430	keystroke_r	r	n/a
278.3195	0.12	556639	keystroke_e	e	n/a
278.71	0.09	557420	keystroke_w	w	n/a
278.86	0.135	557720	keystroke_a	a	n/a
278.979	0.061	557958	keystroke_l	l	n/a
279.144	0.061	558288	keystroke_l	l	n/a
279.295	0.1195	558590	keystroke_Key.space	Key.space	n/a
279.5345	0.075	559069	keystroke_i	i	n/a
279.6695	0.1505	559339	keystroke_n	n	n/a
279.775	0.075	559550	keystroke_t	t	n/a
279.97	0.1195	559940	keystroke_e	e	n/a
280.0445	0.18	560089	keystroke_r	r	n/a
280.1645	0.1055	560329	keystroke_e	e	n/a
280.3895	0.135	560779	keystroke_s	s	n/a
280.644	0.0905	561288	keystroke_t	t	n/a
280.7645	0.135	561529	keystroke_Key.space	Key.space	n/a
281.2745	0.09	562549	keystroke_s	s	n/a
281.4095	0.12	562819	keystroke_h	h	n/a
281.515	0.09	563030	keystroke_e	e	n/a
281.7095	0.0605	563419	keystroke_f	f	n/a
281.8595	0.075	563719	keystroke_f	f	n/a
281.95	0.1195	563900	keystroke_i	i	n/a
282.0845	0.09	564169	keystroke_e	e	n/a
282.2045	0.105	564409	keystroke_l	l	n/a
282.3395	0.1055	564679	keystroke_d	d	n/a
282.4595	0.09	564919	keystroke_Key.space	Key.space	n/a
282.6845	0.1055	565369	keystroke_l	l	n/a
282.9095	0.1205	565819	keystroke_o	o	n/a
283.93	0.089	567860	keystroke_g	g	n/a
284.095	0.1205	568190	keystroke_i	i	n/a
284.2295	0.0755	568459	keystroke_t	t	n/a
284.4405	0.104	568881	keystroke_e	e	n/a
284.6195	0.135	569239	keystroke_c	c	n/a
284.7695	0.105	569539	keystroke_h	h	n/a
285.624	0.121	571248	keystroke_Key.enter	Key.enter	n/a
285.751	6.4	571502	prompt	n/a	thomas deviation bluetooth hunter\n
286.495	0.105	572990	keystroke_t	t	n/a
286.615	0.09	573230	keystroke_h	h	n/a
286.795	0.075	573590	keystroke_o	o	n/a
286.96	0.135	573920	keystroke_m	m	n/a
287.08	0.105	574160	keystroke_a	a	n/a
287.155	0.135	574310	keystroke_s	s	n/a
287.305	0.12	574610	keystroke_Key.space	Key.space	n/a
287.485	0.075	574970	keystroke_d	d	n/a
287.68	0.075	575360	keystroke_e	e	n/a
287.86	0.134	575720	keystroke_v	v	n/a
287.995	0.105	575990	keystroke_i	i	n/a
288.07	0.15	576140	keystroke_a	a	n/a
288.235	0.105	576470	keystroke_t	t	n/a
288.355	0.195	576710	keystroke_i	i	n/a
288.445	0.18	576890	keystroke_o	o	n/a
288.535	0.12	577070	keystroke_n	n	n/a
288.775	0.1045	577550	keystroke_Key.space	Key.space	n/a
289.0145	0.075	578029	keystroke_b	b	n/a
289.195	0.104	578390	keystroke_l	l	n/a
289.375	0.1045	578750	keystroke_u	u	n/a
289.72	0.105	579440	keystroke_e	e	n/a
289.9	0.075	579800	keystroke_t	t	n/a
290.035	0.0895	580070	keystroke_o	o	n/a
290.23	0.0295	580460	keystroke_o	o	n/a
290.3345	0.0905	580669	keystroke_d	d	n/a
290.5295	0.105	581059	keystroke_Key.space	Key.space	n/a
290.89	0.1045	581780	keystroke_h	h	n/a
291.0695	0.12	582139	keystroke_u	u	n/a
291.205	0.1345	582410	keystroke_n	n	n/a
291.3095	0.09	582619	keystroke_t	t	n/a
291.4895	0.1505	582979	keystroke_e	e	n/a
291.595	0.135	583190	keystroke_r	r	n/a
292.045	0.1045	584090	keystroke_Key.enter	Key.enter	n/a
292.155	10.2865	584310	prompt	n/a	equations benz discussing proteins\n
293.9045	0.09	587809	keystroke_e	e	n/a
294.1445	0.12	588289	keystroke_q	q	n/a
294.3395	0.0905	588679	keystroke_u	u	n/a
294.4445	0.135	588889	keystroke_a	a	n/a
294.6095	0.105	589219	keystroke_t	t	n/a
294.7	0.1795	589400	keystroke_i	i	n/a
294.7895	0.18	589579	keystroke_o	o	n/a
294.8945	0.1055	589789	keystroke_n	n	n/a
295.03	0.0895	590060	keystroke_s	s	n/a
295.1345	0.105	590269	keystroke_Key.space	Key.space	n/a
295.3595	0.1045	590719	keystroke_b	b	n/a
295.4195	0.135	590839	keystroke_e	e	n/a
295.764	0.12	591528	keystroke_n	n	n/a
296.0795	0.1205	592159	keystroke_z	z	n/a
296.4545	0.1055	592909	keystroke_Key.space	Key.space	n/a
296.965	0.09	593930	keystroke_d	d	n/a
297.13	0.12	594260	keystroke_i	i	n/a
297.265	0.045	594530	keystroke_s	s	n/a
297.4745	0.0755	594949	keystroke_c	c	n/a
297.6245	0.09	595249	keystroke_u	u	n/a
297.775	0.0445	595550	keystroke_s	s	n/a
297.9245	0.09	595849	keystroke_s	s	n/a
297.9845	0.21	595969	keystroke_i	i	n/a
298.09	0.12	596180	keystroke_o	o	n/a
298.1795	0.1205	596359	keystroke_n	n	n/a
298.6	0.075	597200	keystroke_Key.backspace	Key.backspace	n/a
299.514	0.1055	599028	keystroke_Key.backspace	Key.backspace	n/a
299.7845	0.15	599569	keystroke_n	n	n/a
299.98	0.075	599960	keystroke_g	g	n/a
300.1295	0.105	600259	keystroke_Key.space	Key.space	n/a
300.7595	0.135	601519	keystroke_p	p	n/a
300.955	0.0895	601910	keystroke_r	r	n/a
301.1345	0.09	602269	keystroke_o	o	n/a
301.255	0.09	602510	keystroke_t	t	n/a
301.4645	0.105	602929	keystroke_e	e	n/a
301.78	0.1045	603560	keystroke_i	i	n/a
301.9595	0.1205	603919	keystroke_n	n	n/a
302.11	0.104	604220	keystroke_s	s	n/a
302.349	0.091	604698	keystroke_Key.enter	Key.enter	n/a
302.445	12.432	604890	prompt	n/a	consequences exemption paste contribute\n
303.8355	0.074	607671	keystroke_v	v	n/a
304.2095	0.105	608419	keystroke_Key.backspace	Key.backspace	n/a
304.3295	0.0905	608659	keystroke_c	c	n/a
304.465	0.0895	608930	keystroke_o	o	n/a
304.6895	0.1055	609379	keystroke_n	n	n/a
304.87	0.09	609740	keystroke_s	s	n/a
305.094	0.121	610188	keystroke_e	e	n/a
305.4095	0.1495	610819	keystroke_q	q	n/a
305.6045	0.105	611209	keystroke_u	u	n/a
305.7545	0.075	611509	keystroke_e	e	n/a
305.92	0.135	611840	keystroke_n	n	n/a
306.0995	0.12	612199	keystroke_c	c	n/a
306.3095	0.09	612619	keystroke_e	e	n/a
306.55	0.074	613100	keystroke_s	s	n/a
306.684	0.1205	613368	keystroke_Key.space	Key.space	n/a
306.97	0.0595	613940	keystroke_e	e	n/a
307.269	0.1205	614538	keystroke_z	z	n/a
307.72	0.105	615440	keystroke_e	e	n/a
307.885	0.135	615770	keystroke_m	m	n/a
308.3645	0.09	616729	keystroke_Key.backspace	Key.backspace	n/a
308.5895	0.03	617179	keystroke_Key.backspace	Key.backspace	n/a
308.71	0.1195	617420	keystroke_Key.backspace	Key.backspace	n/a
308.875	0.134	617750	keystroke_z	z	n/a
309.3245	0.09	618649	keystroke_Key.backspace	Key.backspace	n/a
309.4895	0.075	618979	keystroke_c	c	n/a
309.8345	0.09	619669	keystroke_Key.backspace	Key.backspace	n/a
309.9545	0.105	619909	keystroke_x	x	n/a
310.555	0.105	621110	keystroke_e	e	n/a
310.705	0.09	621410	keystroke_m	m	n/a
310.87	0.119	621740	keystroke_p	p	n/a
310.975	0.105	621950	keystroke_t	t	n/a
311.125	0.2545	622250	keystroke_i	i	n/a
311.275	0.1645	622550	keystroke_o	o	n/a
311.364	0.1055	622728	keystroke_n	n	n/a
311.6045	0.09	623209	keystroke_Key.space	Key.space	n/a
311.845	0.15	623690	keystroke_p	p	n/a
311.935	0.134	623870	keystroke_a	a	n/a
312.024	0.121	624048	keystroke_s	s	n/a
312.235	0.119	624470	keystroke_t	t	n/a
312.369	0.106	624738	keystroke_e	e	n/a
312.5945	0.1345	625189	keystroke_Key.space	Key.space	n/a
313.2695	0.105	626539	keystroke_c	c	n/a
313.3895	0.09	626779	keystroke_o	o	n/a
313.599	0.091	627198	keystroke_n	n	n/a
313.735	0.075	627470	keystroke_t	t	n/a
313.9295	0.0745	627859	keystroke_r	r	n/a
314.019	0.09	628038	keystroke_i	i	n/a
314.2445	0.0595	628489	keystroke_b	b	n/a
314.3645	0.105	628729	keystroke_u	u	n/a
314.4245	0.09	628849	keystroke_t	t	n/a
314.619	0.106	629238	keystroke_e	e	n/a
314.769	0.105	629538	keystroke_Key.enter	Key.enter	n/a
314.881	9.971	629762	prompt	n/a	levels requirements stat monroe\n
315.8195	0.1045	631639	keystroke_l	l	n/a
315.9095	0.0905	631819	keystroke_e	e	n/a
316.105	0.134	632210	keystroke_v	v	n/a
316.3445	0.0905	632689	keystroke_e	e	n/a
316.464	0.0905	632928	keystroke_l	l	n/a
316.6295	0.09	633259	keystroke_s	s	n/a
316.779	0.105	633558	keystroke_Key.space	Key.space	n/a
317.2295	0.075	634459	keystroke_r	r	n/a
317.4545	0.045	634909	keystroke_e	e	n/a
317.8145	0.105	635629	keystroke_q	q	n/a
317.9795	0.105	635959	keystroke_u	u	n/a
318.22	0.1045	636440	keystroke_i	i	n/a
318.5795	0.06	637159	keystroke_r	r	n/a
318.7	0.1195	637400	keystroke_e	e	n/a
318.9545	0.09	637909	keystroke_m	m	n/a
319.0745	0.12	638149	keystroke_e	e	n/a
319.2095	0.1055	638419	keystroke_n	n	n/a
319.2695	0.105	638539	keystroke_t	t	n/a
319.4945	0.135	638989	keystroke_s	s	n/a
319.6295	0.09	639259	keystroke_Key.space	Key.space	n/a
319.8395	0.1205	639679	keystroke_s	s	n/a
320.079	0.075	640158	keystroke_t	t	n/a
320.259	0.166	640518	keystroke_a	a	n/a
320.3645	0.09	640729	keystroke_t	t	n/a
320.5595	0.09	641119	keystroke_Key.space	Key.space	n/a
320.7695	0.12	641539	keystroke_m	m	n/a
320.9195	0.09	641839	keystroke_o	o	n/a
321.115	0.0895	642230	keystroke_n	n	n/a
321.5495	0.09	643099	keystroke_r	r	n/a
321.7445	0.075	643489	keystroke_o	o	n/a
321.8495	0.135	643699	keystroke_e	e	n/a
324.656	0.193	649312	keystroke_Key.enter	Key.enter	n/a
324.856	8.6505	649712	prompt	n/a	declined transport glossary your\n
325.7945	0.0905	651589	keystroke_d	d	n/a
326.0195	0.0895	652039	keystroke_e	e	n/a
326.214	0.1055	652428	keystroke_c	c	n/a
326.3495	0.075	652699	keystroke_l	l	n/a
326.4845	0.09	652969	keystroke_i	i	n/a
326.6495	0.1205	653299	keystroke_n	n	n/a
326.7545	0.09	653509	keystroke_e	e	n/a
326.9945	0.0895	653989	keystroke_d	d	n/a
327.2645	0.1045	654529	keystroke_Key.space	Key.space	n/a
327.505	0.075	655010	keystroke_d	d	n/a
327.984	0.06	655968	keystroke_Key.backspace	Key.backspace	n/a
328.06	0.059	656120	keystroke_t	t	n/a
328.239	0.0605	656478	keystroke_r	r	n/a
328.419	0.09	656838	keystroke_a	a	n/a
328.554	0.106	657108	keystroke_n	n	n/a
328.689	0.136	657378	keystroke_s	s	n/a
328.869	0.106	657738	keystroke_p	p	n/a
329.0195	0.1345	658039	keystroke_o	o	n/a
329.11	0.074	658220	keystroke_r	r	n/a
329.289	0.045	658578	keystroke_t	t	n/a
329.439	0.105	658878	keystroke_Key.space	Key.space	n/a
330.0245	0.0595	660049	keystroke_g	g	n/a
330.2045	0.1045	660409	keystroke_l	l	n/a
330.384	0.105	660768	keystroke_o	o	n/a
330.669	0.091	661338	keystroke_s	s	n/a
330.849	0.09	661698	keystroke_s	s	n/a
331.03	0.119	662060	keystroke_a	a	n/a
331.18	0.104	662360	keystroke_r	r	n/a
331.314	0.121	662628	keystroke_y	y	n/a
331.614	0.135	663228	keystroke_Key.space	Key.space	n/a
332.65	0.0895	665300	keystroke_y	y	n/a
332.83	0.164	665660	keystroke_o	o	n/a
332.904	0.166	665808	keystroke_u	u	n/a
333.039	0.09	666078	keystroke_r	r	n/a
333.3995	0.1045	666799	keystroke_Key.enter	Key.enter	n/a
333.5135	7.958	667027	prompt	n/a	stages basically trace punch\n
334.3295	0.105	668659	keystroke_s	s	n/a
334.54	0.074	669080	keystroke_t	t	n/a
334.6745	0.12	669349	keystroke_a	a	n/a
334.8995	0.09	669799	keystroke_g	g	n/a
335.0945	0.09	670189	keystroke_e	e	n/a
335.32	0.0745	670640	keystroke_s	s	n/a
335.4995	0.12	670999	keystroke_Key.space	Key.space	n/a
335.8145	0.12	671629	keystroke_b	b	n/a
336.0395	0.09	672079	keystroke_a	a	n/a
336.204	0.091	672408	keystroke_s	s	n/a
336.355	0.104	672710	keystroke_i	i	n/a
336.445	0.105	672890	keystroke_c	c	n/a
336.639	0.0905	673278	keystroke_a	a	n/a
336.7305	0.074	673461	keystroke_l	l	n/a
336.9095	0.075	673819	keystroke_l	l	n/a
336.9395	0.1055	673879	keystroke_y	y	n/a
337.149	0.12	674298	keystroke_Key.space	Key.space	n/a
337.45	0.06	674900	keystroke_t	t	n/a
337.615	0.075	675230	keystroke_r	r	n/a
337.765	0.12	675530	keystroke_a	a	n/a
337.9895	0.09	675979	keystroke_c	c	n/a
338.1995	0.0745	676399	keystroke_e	e	n/a
338.3495	0.105	676699	keystroke_Key.space	Key.space	n/a
338.965	0.0745	677930	keystroke_p	p	n/a
339.2345	0.0905	678469	keystroke_u	u	n/a
339.414	0.1055	678828	keystroke_n	n	n/a
339.67	0.1195	679340	keystroke_h	h	n/a
340.224	0.09	680448	keystroke_Key.backspace	Key.backspace	n/a
340.3445	0.075	680689	keystroke_c	c	n/a
340.5545	0.105	681109	keystroke_h	h	n/a
341.365	0.1045	682730	keystroke_Key.enter	Key.enter	n/a
341.4745	11.157	682949	prompt	n/a	gilbert inspired underlying liberia\n
342.7595	0.0905	685519	keystroke_g	g	n/a
343.0445	0.0455	686089	keystroke_i	i	n/a
343.179	0.135	686358	keystroke_l	l	n/a
343.33	0.075	686660	keystroke_b	b	n/a
343.5095	0.18	687019	keystroke_e	e	n/a
343.6295	0.105	687259	keystroke_r	r	n/a
343.8395	0.075	687679	keystroke_t	t	n/a
344.0345	0.104	688069	keystroke_Key.space	Key.space	n/a
344.2595	0.105	688519	keystroke_i	i	n/a
344.44	0.1345	688880	keystroke_n	n	n/a
345.0245	0.075	690049	keystroke_s	s	n/a
345.2345	0.1045	690469	keystroke_p	p	n/a
346.0295	0.1055	692059	keystroke_i	i	n/a
346.1795	0.0905	692359	keystroke_r	r	n/a
346.33	0.09	692660	keystroke_e	e	n/a
346.5395	0.075	693079	keystroke_d	d	n/a
346.6745	0.09	693349	keystroke_Key.space	Key.space	n/a
346.974	0.09	693948	keystroke_u	u	n/a
347.154	0.1505	694308	keystroke_n	n	n/a
347.26	0.0745	694520	keystroke_d	d	n/a
347.44	0.135	694880	keystroke_e	e	n/a
347.5295	0.1055	695059	keystroke_r	r	n/a
347.7545	0.0605	695509	keystroke_l	l	n/a
348.024	0.06	696048	keystroke_y	y	n/a
348.28	0.1045	696560	keystroke_i	i	n/a
348.3995	0.12	696799	keystroke_n	n	n/a
348.5345	0.1055	697069	keystroke_g	g	n/a
348.6545	0.1355	697309	keystroke_Key.space	Key.space	n/a
348.865	0.12	697730	keystroke_l	l	n/a
349.105	0.089	698210	keystroke_i	i	n/a
350.725	0.105	701450	keystroke_b	b	n/a
350.845	0.165	701690	keystroke_e	e	n/a
350.95	0.12	701900	keystroke_r	r	n/a
351.639	0.1205	703278	keystroke_i	i	n/a
351.7745	0.1505	703549	keystroke_a	a	n/a
352.525	0.105	705050	keystroke_Key.enter	Key.enter	n/a
352.6355	7.4505	705271	prompt	n/a	hosts innovation fraction blacks\n
353.695	0.0895	707390	keystroke_h	h	n/a
353.8895	0.09	707779	keystroke_o	o	n/a
353.9945	0.105	707989	keystroke_s	s	n/a
354.2195	0.075	708439	keystroke_t	t	n/a
354.4295	0.12	708859	keystroke_s	s	n/a
354.6245	0.105	709249	keystroke_Key.space	Key.space	n/a
354.8945	0.09	709789	keystroke_i	i	n/a
355.06	0.1045	710120	keystroke_n	n	n/a
355.2245	0.09	710449	keystroke_n	n	n/a
355.5095	0.12	711019	keystroke_o	o	n/a
355.8095	0.06	711619	keystroke_v	v	n/a
356.0055	0.1335	712011	keystroke_a	a	n/a
356.185	0.09	712370	keystroke_t	t	n/a
356.289	0.196	712578	keystroke_i	i	n/a
356.41	0.134	712820	keystroke_o	o	n/a
356.5	0.12	713000	keystroke_n	n	n/a
356.8	0.119	713600	keystroke_Key.space	Key.space	n/a
357.4145	0.045	714829	keystroke_f	f	n/a
357.6095	0.045	715219	keystroke_r	r	n/a
357.76	0.1045	715520	keystroke_a	a	n/a
357.9695	0.12	715939	keystroke_c	c	n/a
358.2545	0.075	716509	keystroke_t	t	n/a
358.3595	0.21	716719	keystroke_i	i	n/a
358.494	0.1805	716988	keystroke_o	o	n/a
358.585	0.1045	717170	keystroke_n	n	n/a
358.8095	0.12	717619	keystroke_Key.space	Key.space	n/a
359.11	0.09	718220	keystroke_b	b	n/a
359.305	0.135	718610	keystroke_l	l	n/a
359.425	0.089	718850	keystroke_a	a	n/a
359.56	0.105	719120	keystroke_c	c	n/a
359.68	0.104	719360	keystroke_k	k	n/a
359.7995	0.12	719599	keystroke_s	s	n/a
359.9645	0.12	719929	keystroke_Key.enter	Key.enter	n/a
360.0915	9.6545	720183	prompt	n/a	infringement protocol shoulder however\n
361.315	0.0745	722630	keystroke_i	i	n/a
361.4795	0.12	722959	keystroke_n	n	n/a
361.5995	0.06	723199	keystroke_f	f	n/a
361.7795	0.075	723559	keystroke_r	r	n/a
361.8845	0.105	723769	keystroke_i	i	n/a
362.0945	0.105	724189	keystroke_n	n	n/a
362.2295	0.0905	724459	keystroke_g	g	n/a
362.4245	0.106	724849	keystroke_e	e	n/a
362.5745	0.075	725149	keystroke_m	m	n/a
362.6645	0.12	725329	keystroke_e	e	n/a
362.7995	0.105	725599	keystroke_n	n	n/a
362.8895	0.09	725779	keystroke_t	t	n/a
363.0095	0.09	726019	keystroke_Key.space	Key.space	n/a
363.2055	0.104	726411	keystroke_p	p	n/a
363.3245	0.0905	726649	keystroke_r	r	n/a
363.4595	0.105	726919	keystroke_o	o	n/a
363.6845	0.075	727369	keystroke_g	g	n/a
363.8645	0.12	727729	keystroke_o	o	n/a
364.5095	0.015	729019	keystroke_Key.backspace	Key.backspace	n/a
364.5845	0.09	729169	keystroke_Key.backspace	Key.backspace	n/a
364.6895	0.1055	729379	keystroke_t	t	n/a
365.1095	0.12	730219	keystroke_o	o	n/a
365.3945	0.105	730789	keystroke_c	c	n/a
365.9055	0.075	731811	keystroke_o	o	n/a
366.115	0.0745	732230	keystroke_l	l	n/a
366.2945	0.1055	732589	keystroke_Key.space	Key.space	n/a
366.4295	0.135	732859	keystroke_s	s	n/a
366.5795	0.0905	733159	keystroke_h	h	n/a
366.6555	0.179	733311	keystroke_o	o	n/a
366.7595	0.105	733519	keystroke_u	u	n/a
366.9695	0.09	733939	keystroke_l	l	n/a
367.0445	0.06	734089	keystroke_d	d	n/a
367.2095	0.135	734419	keystroke_e	e	n/a
367.2995	0.09	734599	keystroke_r	r	n/a
367.4195	0.105	734839	keystroke_Key.space	Key.space	n/a
367.69	0.0745	735380	keystroke_h	h	n/a
367.87	0.0745	735740	keystroke_o	o	n/a
368.185	0.0895	736370	keystroke_w	w	n/a
368.5595	0.0605	737119	keystroke_e	e	n/a
368.7995	0.09	737599	keystroke_v	v	n/a
368.995	0.1355	737990	keystroke_e	e	n/a
369.0845	0.1355	738169	keystroke_r	r	n/a
369.6545	0.09	739309	keystroke_Key.enter	Key.enter	n/a
369.7505	8.2475	739501	prompt	n/a	resource discussed modifications capacity\n
370.6745	0.12	741349	keystroke_r	r	n/a
370.7805	0.075	741561	keystroke_e	e	n/a
370.9895	0.105	741979	keystroke_s	s	n/a
371.0495	0.165	742099	keystroke_o	o	n/a
371.1545	0.165	742309	keystroke_u	u	n/a
371.3045	0.09	742609	keystroke_r	r	n/a
371.5295	0.105	743059	keystroke_c	c	n/a
371.6645	0.12	743329	keystroke_e	e	n/a
371.7995	0.09	743599	keystroke_Key.space	Key.space	n/a
371.9945	0.105	743989	keystroke_d	d	n/a
372.1145	0.105	744229	keystroke_i	i	n/a
372.2345	0.0605	744469	keystroke_s	s	n/a
372.4145	0.075	744829	keystroke_c	c	n/a
372.5195	0.105	745039	keystroke_u	u	n/a
372.6545	0.075	745309	keystroke_s	s	n/a
372.8345	0.06	745669	keystroke_s	s	n/a
372.9995	0.075	745999	keystroke_e	e	n/a
373.21	0.0745	746420	keystroke_d	d	n/a
373.2695	0.12	746539	keystroke_Key.space	Key.space	n/a
373.4945	0.075	746989	keystroke_m	m	n/a
373.6745	0.075	747349	keystroke_o	o	n/a
373.7645	0.1045	747529	keystroke_d	d	n/a
373.9	0.105	747800	keystroke_i	i	n/a
374.59	0.09	749180	keystroke_f	f	n/a
374.784	0.1055	749568	keystroke_i	i	n/a
374.92	0.075	749840	keystroke_c	c	n/a
375.084	0.121	750168	keystroke_a	a	n/a
375.22	0.104	750440	keystroke_t	t	n/a
375.309	0.1655	750618	keystroke_i	i	n/a
375.3995	0.1655	750799	keystroke_o	o	n/a
375.52	0.104	751040	keystroke_n	n	n/a
375.639	0.1055	751278	keystroke_s	s	n/a
375.7745	0.12	751549	keystroke_Key.space	Key.space	n/a
376.525	0.105	753050	keystroke_c	c	n/a
376.7345	0.0905	753469	keystroke_a	a	n/a
376.9145	0.1055	753829	keystroke_p	p	n/a
377.0345	0.12	754069	keystroke_a	a	n/a
377.1845	0.12	754369	keystroke_c	c	n/a
377.3495	0.12	754699	keystroke_i	i	n/a
377.4845	0.09	754969	keystroke_t	t	n/a
377.6795	0.09	755359	keystroke_y	y	n/a
377.8745	0.12	755749	keystroke_Key.enter	Key.enter	n/a
378.0045	4.9725	756009	prompt	n/a	funny fort bend powered\n
378.7295	0.105	757459	keystroke_f	f	n/a
378.8645	0.105	757729	keystroke_u	u	n/a
379.0745	0.06	758149	keystroke_n	n	n/a
379.195	0.09	758390	keystroke_n	n	n/a
379.2545	0.1055	758509	keystroke_y	y	n/a
379.45	0.12	758900	keystroke_Key.space	Key.space	n/a
379.8395	0.075	759679	keystroke_f	f	n/a
379.9445	0.105	759889	keystroke_o	o	n/a
380.0345	0.09	760069	keystroke_r	r	n/a
380.2605	0.0745	760521	keystroke_t	t	n/a
380.4995	0.09	760999	keystroke_Key.space	Key.space	n/a
380.935	0.105	761870	keystroke_b	b	n/a
380.9945	0.105	761989	keystroke_e	e	n/a
381.19	0.0595	762380	keystroke_n	n	n/a
381.2645	0.1055	762529	keystroke_d	d	n/a
381.385	0.105	762770	keystroke_Key.space	Key.space	n/a
381.61	0.0745	763220	keystroke_p	p	n/a
381.7745	0.1205	763549	keystroke_o	o	n/a
381.9545	0.1055	763909	keystroke_w	w	n/a
382.195	0.1645	764390	keystroke_e	e	n/a
382.3295	0.12	764659	keystroke_r	r	n/a
382.4795	0.0905	764959	keystroke_e	e	n/a
382.69	0.1045	765380	keystroke_d	d	n/a
382.8845	0.09	765769	keystroke_Key.enter	Key.enter	n/a
382.981	8.696	765962	prompt	n/a	bone safer wings specializing\n
383.995	0.014	767990	keystroke_b	b	n/a
384.6695	0.075	769339	keystroke_o	o	n/a
384.865	0.104	769730	keystroke_n	n	n/a
384.9845	0.1045	769969	keystroke_e	e	n/a
385.404	0.1205	770808	keystroke_Key.space	Key.space	n/a
385.585	0.105	771170	keystroke_s	s	n/a
385.764	0.1055	771528	keystroke_a	a	n/a
385.9745	0.075	771949	keystroke_f	f	n/a
386.1395	0.15	772279	keystroke_e	e	n/a
386.245	0.12	772490	keystroke_r	r	n/a
386.604	0.06	773208	keystroke_Key.space	Key.space	n/a
386.77	0.1045	773540	keystroke_w	w	n/a
386.8895	0.0905	773779	keystroke_i	i	n/a
387.0545	0.1505	774109	keystroke_n	n	n/a
387.19	0.044	774380	keystroke_g	g	n/a
387.565	0.09	775130	keystroke_s	s	n/a
387.954	0.12	775908	keystroke_Key.space	Key.space	n/a
388.255	0.104	776510	keystroke_s	s	n/a
388.42	0.1045	776840	keystroke_p	p	n/a
388.5095	0.0755	777019	keystroke_e	e	n/a
388.6445	0.1195	777289	keystroke_c	c	n/a
388.78	0.12	777560	keystroke_i	i	n/a
388.9145	0.135	777829	keystroke_a	a	n/a
389.019	0.06	778038	keystroke_l	l	n/a
389.1845	0.105	778369	keystroke_i	i	n/a
389.4545	0.09	778909	keystroke_z	z	n/a
389.5595	0.1505	779119	keystroke_i	i	n/a
389.665	0.135	779330	keystroke_n	n	n/a
389.815	0.12	779630	keystroke_g	g	n/a
391.57	0.1045	783140	keystroke_Key.enter	Key.enter	n/a
391.6815	8.9045	783363	prompt	n/a	supposed survive vessel lovers\n
392.8455	0.089	785691	keystroke_s	s	n/a
393.0395	0.09	786079	keystroke_u	u	n/a
393.25	0.06	786500	keystroke_p	p	n/a
393.414	0.121	786828	keystroke_p	p	n/a
393.505	0.15	787010	keystroke_o	o	n/a
393.639	0.091	787278	keystroke_s	s	n/a
394.1345	0.075	788269	keystroke_e	e	n/a
394.344	0.0905	788688	keystroke_d	d	n/a
394.449	0.12	788898	keystroke_Key.space	Key.space	n/a
394.7495	0.09	789499	keystroke_s	s	n/a
394.8695	0.12	789739	keystroke_u	u	n/a
395.019	0.0905	790038	keystroke_r	r	n/a
395.3345	0.105	790669	keystroke_v	v	n/a
395.53	0.105	791060	keystroke_u	u	n/a
395.725	0.105	791450	keystroke_c	c	n/a
396.159	0.1055	792318	keystroke_Key.backspace	Key.backspace	n/a
396.37	0.09	792740	keystroke_Key.backspace	Key.backspace	n/a
397.1195	0.12	794239	keystroke_i	i	n/a
397.2995	0.075	794599	keystroke_v	v	n/a
397.525	0.105	795050	keystroke_e	e	n/a
397.689	0.091	795378	keystroke_Key.space	Key.space	n/a
398.199	0.106	796398	keystroke_v	v	n/a
398.4245	0.075	796849	keystroke_e	e	n/a
398.6495	0.06	797299	keystroke_s	s	n/a
398.8145	0.09	797629	keystroke_s	s	n/a
399.0095	0.12	798019	keystroke_e	e	n/a
399.1445	0.075	798289	keystroke_l	l	n/a
399.3545	0.06	798709	keystroke_Key.space	Key.space	n/a
399.505	0.1045	799010	keystroke_l	l	n/a
399.684	0.136	799368	keystroke_o	o	n/a
399.805	0.075	799610	keystroke_v	v	n/a
399.9995	0.1655	799999	keystroke_e	e	n/a
400.1345	0.0745	800269	keystroke_r	r	n/a
400.345	0.105	800690	keystroke_s	s	n/a
400.4945	0.0895	800989	keystroke_Key.enter	Key.enter	n/a
400.59	9.6285	801180	prompt	n/a	money republicans extract apartment\n
401.35	0.12	802700	keystroke_m	m	n/a
401.545	0.09	803090	keystroke_o	o	n/a
401.74	0.09	803480	keystroke_n	n	n/a
401.845	0.105	803690	keystroke_e	e	n/a
402.025	0.074	804050	keystroke_y	y	n/a
402.204	0.12	804408	keystroke_Key.space	Key.space	n/a
402.475	0.105	804950	keystroke_r	r	n/a
402.595	0.074	805190	keystroke_e	e	n/a
403.105	0.0595	806210	keystroke_p	p	n/a
403.3895	0.09	806779	keystroke_u	u	n/a
403.5995	0.105	807199	keystroke_b	b	n/a
404.1995	0.075	808399	keystroke_l	l	n/a
404.3495	0.1205	808699	keystroke_i	i	n/a
405.52	0.0895	811040	keystroke_c	c	n/a
405.714	0.106	811428	keystroke_a	a	n/a
405.8495	0.106	811699	keystroke_n	n	n/a
405.9555	0.104	811911	keystroke_s	s	n/a
406.0895	0.105	812179	keystroke_Key.space	Key.space	n/a
406.8095	0.06	813619	keystroke_e	e	n/a
407.0945	0.135	814189	keystroke_x	x	n/a
407.4545	0.09	814909	keystroke_t	t	n/a
407.6495	0.075	815299	keystroke_r	r	n/a
407.7995	0.09	815599	keystroke_a	a	n/a
407.9945	0.0755	815989	keystroke_c	c	n/a
408.2645	0.1055	816529	keystroke_t	t	n/a
408.4595	0.135	816919	keystroke_Key.space	Key.space	n/a
408.8045	0.105	817609	keystroke_a	a	n/a
408.9245	0.12	817849	keystroke_p	p	n/a
409.0295	0.1055	818059	keystroke_a	a	n/a
409.1045	0.1205	818209	keystroke_r	r	n/a
409.315	0.0745	818630	keystroke_t	t	n/a
409.42	0.119	818840	keystroke_m	m	n/a
409.525	0.1195	819050	keystroke_e	e	n/a
409.689	0.1205	819378	keystroke_n	n	n/a
409.8995	0.105	819799	keystroke_t	t	n/a
410.11	0.1045	820220	keystroke_Key.enter	Key.enter	n/a
410.2225	6.759	820445	prompt	n/a	serious meta gives commissioners\n
410.9945	0.09	821989	keystroke_s	s	n/a
411.3095	0.105	822619	keystroke_e	e	n/a
411.4595	0.105	822919	keystroke_r	r	n/a
411.6395	0.12	823279	keystroke_i	i	n/a
411.8195	0.18	823639	keystroke_o	o	n/a
411.9245	0.1355	823849	keystroke_u	u	n/a
412.1345	0.06	824269	keystroke_s	s	n/a
412.2095	0.12	824419	keystroke_Key.space	Key.space	n/a
412.4495	0.1055	824899	keystroke_m	m	n/a
412.539	0.121	825078	keystroke_e	e	n/a
412.69	0.1045	825380	keystroke_t	t	n/a
412.93	0.12	825860	keystroke_a	a	n/a
413.1245	0.12	826249	keystroke_Key.space	Key.space	n/a
413.8145	0.09	827629	keystroke_g	g	n/a
413.9495	0.105	827899	keystroke_i	i	n/a
414.07	0.105	828140	keystroke_v	v	n/a
414.279	0.091	828558	keystroke_e	e	n/a
414.52	0.0895	829040	keystroke_s	s	n/a
414.625	0.104	829250	keystroke_Key.space	Key.space	n/a
415.03	0.12	830060	keystroke_c	c	n/a
415.179	0.09	830358	keystroke_o	o	n/a
415.375	0.0595	830750	keystroke_m	m	n/a
415.509	0.0755	831018	keystroke_m	m	n/a
415.704	0.076	831408	keystroke_i	i	n/a
415.7945	0.0605	831589	keystroke_s	s	n/a
415.945	0.119	831890	keystroke_s	s	n/a
416.004	0.18	832008	keystroke_i	i	n/a
416.14	0.149	832280	keystroke_o	o	n/a
416.229	0.15	832458	keystroke_n	n	n/a
416.334	0.105	832668	keystroke_e	e	n/a
416.425	0.104	832850	keystroke_r	r	n/a
416.6345	0.1045	833269	keystroke_s	s	n/a
416.875	0.104	833750	keystroke_Key.enter	Key.enter	n/a
416.9865	10.8405	833973	prompt	n/a	chan maternity description bubble\n
417.835	0.1045	835670	keystroke_c	c	n/a
417.985	0.0745	835970	keystroke_h	h	n/a
418.0745	0.12	836149	keystroke_a	a	n/a
418.2395	0.075	836479	keystroke_n	n	n/a
418.4495	0.12	836899	keystroke_Key.space	Key.space	n/a
419.4395	0.1055	838879	keystroke_m	m	n/a
419.665	0.1045	839330	keystroke_a	a	n/a
419.8295	0.0905	839659	keystroke_t	t	n/a
420.0245	0.12	840049	keystroke_e	e	n/a
420.1145	0.105	840229	keystroke_r	r	n/a
421.27	0.09	842540	keystroke_n	n	n/a
421.4795	0.105	842959	keystroke_i	i	n/a
421.5695	0.0905	843139	keystroke_t	t	n/a
421.7945	0.0755	843589	keystroke_y	y	n/a
421.99	0.1045	843980	keystroke_Key.space	Key.space	n/a
422.5595	0.09	845119	keystroke_d	d	n/a
422.77	0.0745	845540	keystroke_e	e	n/a
422.965	0.0605	845930	keystroke_s	s	n/a
423.1745	0.075	846349	keystroke_c	c	n/a
423.4295	0.09	846859	keystroke_t	t	n/a
423.9695	0.105	847939	keystroke_Key.backspace	Key.backspace	n/a
424.0895	0.0905	848179	keystroke_r	r	n/a
425.74	0.03	851480	keystroke_i	i	n/a
425.845	0.075	851690	keystroke_p	p	n/a
425.9345	0.075	851869	keystroke_t	t	n/a
426.0705	0.2245	852141	keystroke_i	i	n/a
426.2045	0.15	852409	keystroke_o	o	n/a
426.2795	0.105	852559	keystroke_n	n	n/a
426.489	0.121	852978	keystroke_Key.space	Key.space	n/a
426.73	0.1045	853460	keystroke_b	b	n/a
426.895	0.1045	853790	keystroke_u	u	n/a
427.0745	0.075	854149	keystroke_b	b	n/a
427.24	0.0895	854480	keystroke_b	b	n/a
427.4045	0.09	854809	keystroke_l	l	n/a
427.539	0.106	855078	keystroke_e	e	n/a
427.7195	0.1055	855439	keystroke_Key.enter	Key.enter	n/a
427.832	9.6545	855664	prompt	n/a	freebsd romania laboratory plenty\n
429.19	0.0745	858380	keystroke_f	f	n/a
429.4145	0.0905	858829	keystroke_r	r	n/a
429.61	0.045	859220	keystroke_e	e	n/a
429.775	0.105	859550	keystroke_e	e	n/a
430.6295	0.1055	861259	keystroke_b	b	n/a
430.78	0.12	861560	keystroke_s	s	n/a
431.2145	0.12	862429	keystroke_d	d	n/a
432.325	0.12	864650	keystroke_Key.space	Key.space	n/a
432.579	0.075	865158	keystroke_r	r	n/a
432.7295	0.075	865459	keystroke_o	o	n/a
432.91	0.0905	865820	keystroke_m	m	n/a
433.0145	0.0895	866029	keystroke_a	a	n/a
433.1345	0.0905	866269	keystroke_n	n	n/a
433.2695	0.09	866539	keystroke_i	i	n/a
433.4195	0.105	866839	keystroke_a	a	n/a
433.5395	0.1045	867079	keystroke_Key.space	Key.space	n/a
434.1245	0.1055	868249	keystroke_l	l	n/a
434.2445	0.135	868489	keystroke_a	a	n/a
434.3945	0.075	868789	keystroke_b	b	n/a
434.65	0.12	869300	keystroke_o	o	n/a
434.755	0.074	869510	keystroke_r	r	n/a
434.904	0.121	869808	keystroke_a	a	n/a
435.07	0.045	870140	keystroke_t	t	n/a
435.159	0.105	870318	keystroke_o	o	n/a
435.28	0.104	870560	keystroke_r	r	n/a
435.49	0.0895	870980	keystroke_y	y	n/a
435.94	0.105	871880	keystroke_Key.space	Key.space	n/a
436.405	0.075	872810	keystroke_p	p	n/a
436.615	0.09	873230	keystroke_l	l	n/a
436.69	0.105	873380	keystroke_e	e	n/a
436.84	0.119	873680	keystroke_n	n	n/a
436.944	0.106	873888	keystroke_t	t	n/a
437.214	0.061	874428	keystroke_y	y	n/a
437.379	0.106	874758	keystroke_Key.enter	Key.enter	n/a
437.4905	13.271	874981	prompt	n/a	gulf flush investigations pizza\n
439.195	0.075	878390	keystroke_g	g	n/a
439.33	0.09	878660	keystroke_u	u	n/a
439.5545	0.09	879109	keystroke_l	l	n/a
439.7495	0.076	879499	keystroke_f	f	n/a
439.959	0.105	879918	keystroke_Key.space	Key.space	n/a
440.605	0.059	881210	keystroke_f	f	n/a
440.6945	0.12	881389	keystroke_l	l	n/a
440.8895	0.105	881779	keystroke_u	u	n/a
441.0095	0.1055	882019	keystroke_s	s	n/a
441.145	0.0745	882290	keystroke_h	h	n/a
441.3095	0.105	882619	keystroke_Key.space	Key.space	n/a
441.6695	0.0905	883339	keystroke_i	i	n/a
441.8645	0.1645	883729	keystroke_n	n	n/a
441.985	0.059	883970	keystroke_v	v	n/a
442.1645	0.0905	884329	keystroke_e	e	n/a
442.3895	0.135	884779	keystroke_s	s	n/a
442.6745	0.105	885349	keystroke_t	t	n/a
442.8545	0.12	885709	keystroke_i	i	n/a
443.0045	0.075	886009	keystroke_f	f	n/a
443.1695	0.105	886339	keystroke_a	a	n/a
443.3195	0.0905	886639	keystroke_t	t	n/a
443.3945	0.21	886789	keystroke_i	i	n/a
443.4845	0.18	886969	keystroke_o	o	n/a
443.59	0.1045	887180	keystroke_n	n	n/a
443.7245	0.09	887449	keystroke_s	s	n/a
443.8295	0.075	887659	keystroke_Key.space	Key.space	n/a
444.0095	0.0905	888019	keystroke_p	p	n/a
444.189	0.1055	888378	keystroke_u	u	n/a
444.3395	0.1045	888679	keystroke_z	z	n/a
444.504	0.0905	889008	keystroke_z	z	n/a
445.06	0.36	890120	keystroke_Key.backspace	Key.backspace	n/a
445.5245	0.06	891049	keystroke_Key.backspace	Key.backspace	n/a
445.689	0.0755	891378	keystroke_Key.backspace	Key.backspace	n/a
445.8695	0.0745	891739	keystroke_Key.backspace	Key.backspace	n/a
446.0645	0.0605	892129	keystroke_Key.backspace	Key.backspace	n/a
446.2595	0.0445	892519	keystroke_Key.backspace	Key.backspace	n/a
446.454	0.06	892908	keystroke_Key.backspace	Key.backspace	n/a
446.664	0.045	893328	keystroke_Key.backspace	Key.backspace	n/a
446.859	0.0605	893718	keystroke_Key.backspace	Key.backspace	n/a
447.055	0.0595	894110	keystroke_Key.backspace	Key.backspace	n/a
447.25	0.0595	894500	keystroke_Key.backspace	Key.backspace	n/a
447.4295	0.09	894859	keystroke_Key.backspace	Key.backspace	n/a
447.61	0.0745	895220	keystroke_g	g	n/a
447.8045	0.105	895609	keystroke_a	a	n/a
447.9845	0.09	895969	keystroke_t	t	n/a
448.18	0.2095	896360	keystroke_i	i	n/a
448.2695	0.255	896539	keystroke_o	o	n/a
448.4495	0.1355	896899	keystroke_n	n	n/a
448.69	0.0745	897380	keystroke_s	s	n/a
448.7945	0.105	897589	keystroke_Key.space	Key.space	n/a
449.755	0.075	899510	keystroke_p	p	n/a
449.9195	0.12	899839	keystroke_i	i	n/a
450.0545	0.075	900109	keystroke_z	z	n/a
450.2195	0.0905	900439	keystroke_z	z	n/a
450.43	0.0895	900860	keystroke_a	a	n/a
450.6695	0.09	901339	keystroke_Key.enter	Key.enter	n/a
450.768	7.123	901536	prompt	n/a	brings ringtones hardware lose\n
451.9595	0.0905	903919	keystroke_b	b	n/a
452.065	0.09	904130	keystroke_r	r	n/a
452.2	0.075	904400	keystroke_i	i	n/a
452.335	0.149	904670	keystroke_n	n	n/a
452.485	0.074	904970	keystroke_g	g	n/a
452.664	0.165	905328	keystroke_s	s	n/a
453.7	0.074	907400	keystroke_Key.space	Key.space	n/a
453.819	0.105	907638	keystroke_r	r	n/a
453.969	0.106	907938	keystroke_i	i	n/a
454.1195	0.1205	908239	keystroke_n	n	n/a
454.285	0.044	908570	keystroke_g	g	n/a
454.479	0.075	908958	keystroke_t	t	n/a
454.6	0.075	909200	keystroke_o	o	n/a
454.7945	0.105	909589	keystroke_n	n	n/a
454.8545	0.09	909709	keystroke_e	e	n/a
455.0645	0.105	910129	keystroke_s	s	n/a
455.1845	0.105	910369	keystroke_Key.space	Key.space	n/a
455.5	0.0745	911000	keystroke_h	h	n/a
455.5895	0.1655	911179	keystroke_a	a	n/a
455.695	0.105	911390	keystroke_r	r	n/a
455.979	0.0905	911958	keystroke_d	d	n/a
456.205	0.09	912410	keystroke_w	w	n/a
456.34	0.195	912680	keystroke_a	a	n/a
456.475	0.135	912950	keystroke_r	r	n/a
456.5945	0.1345	913189	keystroke_e	e	n/a
456.909	0.12	913818	keystroke_Key.space	Key.space	n/a
457.12	0.105	914240	keystroke_l	l	n/a
457.329	0.105	914658	keystroke_o	o	n/a
457.45	0.0895	914900	keystroke_s	s	n/a
457.629	0.091	915258	keystroke_e	e	n/a
457.809	0.075	915618	keystroke_Key.enter	Key.enter	n/a
457.891	7.495	915782	prompt	n/a	interracial readers focusing romance\n
458.664	0.075	917328	keystroke_i	i	n/a
458.829	0.135	917658	keystroke_n	n	n/a
458.904	0.091	917808	keystroke_t	t	n/a
459.084	0.1805	918168	keystroke_e	e	n/a
459.2195	0.1205	918439	keystroke_r	r	n/a
459.5045	0.075	919009	keystroke_r	r	n/a
459.7145	0.12	919429	keystroke_a	a	n/a
460.0595	0.09	920119	keystroke_c	c	n/a
460.1645	0.12	920329	keystroke_i	i	n/a
460.3145	0.1345	920629	keystroke_a	a	n/a
460.42	0.1045	920840	keystroke_l	l	n/a
460.629	0.105	921258	keystroke_Key.space	Key.space	n/a
461.019	0.1205	922038	keystroke_r	r	n/a
461.155	0.0895	922310	keystroke_e	e	n/a
461.29	0.12	922580	keystroke_a	a	n/a
461.5	0.105	923000	keystroke_d	d	n/a
461.77	0.12	923540	keystroke_e	e	n/a
461.8445	0.1205	923689	keystroke_r	r	n/a
462.084	0.106	924168	keystroke_s	s	n/a
462.204	0.12	924408	keystroke_Key.space	Key.space	n/a
462.429	0.0905	924858	keystroke_f	f	n/a
462.564	0.0905	925128	keystroke_o	o	n/a
462.7445	0.1355	925489	keystroke_c	c	n/a
462.925	0.0745	925850	keystroke_u	u	n/a
463.0445	0.15	926089	keystroke_s	s	n/a
463.15	0.164	926300	keystroke_i	i	n/a
463.3	0.149	926600	keystroke_n	n	n/a
463.4645	0.105	926929	keystroke_g	g	n/a
463.5995	0.165	927199	keystroke_Key.space	Key.space	n/a
464.0645	0.09	928129	keystroke_r	r	n/a
464.365	0.105	928730	keystroke_o	o	n/a
464.5595	0.0905	929119	keystroke_m	m	n/a
464.665	0.075	929330	keystroke_a	a	n/a
464.815	0.1045	929630	keystroke_n	n	n/a
464.905	0.1645	929810	keystroke_c	c	n/a
465.0995	0.135	930199	keystroke_e	e	n/a
465.2645	0.12	930529	keystroke_Key.enter	Key.enter	n/a
465.392	7.6895	930784	prompt	n/a	headed movers experienced forbes\n
466.555	0.0295	933110	keystroke_h	h	n/a
466.5695	0.045	933139	keystroke_e	e	n/a
466.6595	0.105	933319	keystroke_a	a	n/a
466.975	0.03	933950	keystroke_d	d	n/a
467.5445	0.075	935089	keystroke_e	e	n/a
467.74	0.104	935480	keystroke_d	d	n/a
467.829	0.105	935658	keystroke_Key.space	Key.space	n/a
468.054	0.0905	936108	keystroke_m	m	n/a
468.19	0.119	936380	keystroke_o	o	n/a
468.264	0.0755	936528	keystroke_v	v	n/a
468.445	0.134	936890	keystroke_e	e	n/a
468.5345	0.1045	937069	keystroke_r	r	n/a
468.7445	0.105	937489	keystroke_s	s	n/a
468.8645	0.105	937729	keystroke_Key.space	Key.space	n/a
469.165	0.0745	938330	keystroke_e	e	n/a
469.405	0.1195	938810	keystroke_x	x	n/a
469.5545	0.1055	939109	keystroke_p	p	n/a
469.7195	0.135	939439	keystroke_e	e	n/a
469.8845	0.12	939769	keystroke_r	r	n/a
470.23	0.1045	940460	keystroke_i	i	n/a
470.3195	0.1205	940639	keystroke_e	e	n/a
470.4545	0.12	940909	keystroke_n	n	n/a
470.53	0.18	941060	keystroke_c	c	n/a
470.6945	0.09	941389	keystroke_e	e	n/a
470.9045	0.09	941809	keystroke_d	d	n/a
471.01	0.09	942020	keystroke_Key.space	Key.space	n/a
471.834	0.0755	943668	keystroke_f	f	n/a
471.9845	0.12	943969	keystroke_o	o	n/a
472.0595	0.075	944119	keystroke_r	r	n/a
472.4195	0.06	944839	keystroke_b	b	n/a
472.6145	0.09	945229	keystroke_e	e	n/a
472.8245	0.075	945649	keystroke_s	s	n/a
472.9745	0.1055	945949	keystroke_Key.enter	Key.enter	n/a
473.085	6.8065	946170	prompt	n/a	fool shadows improving chair\n
473.965	0.09	947930	keystroke_f	f	n/a
474.1295	0.09	948259	keystroke_o	o	n/a
474.31	0.075	948620	keystroke_o	o	n/a
474.5195	0.0605	949039	keystroke_l	l	n/a
474.6995	0.1045	949399	keystroke_Key.space	Key.space	n/a
474.805	0.119	949610	keystroke_s	s	n/a
474.925	0.09	949850	keystroke_h	h	n/a
474.999	0.121	949998	keystroke_a	a	n/a
475.329	0.075	950658	keystroke_d	d	n/a
475.4795	0.1055	950959	keystroke_o	o	n/a
475.5995	0.09	951199	keystroke_w	w	n/a
475.8845	0.09	951769	keystroke_s	s	n/a
476.0645	0.0755	952129	keystroke_Key.space	Key.space	n/a
476.574	0.1205	953148	keystroke_i	i	n/a
476.7845	0.075	953569	keystroke_m	m	n/a
476.965	0.1045	953930	keystroke_p	p	n/a
477.1445	0.12	954289	keystroke_r	r	n/a
477.655	0.12	955310	keystroke_o	o	n/a
477.8645	0.105	955729	keystroke_v	v	n/a
477.985	0.1645	955970	keystroke_i	i	n/a
478.1195	0.105	956239	keystroke_n	n	n/a
478.2245	0.0605	956449	keystroke_g	g	n/a
478.3745	0.1055	956749	keystroke_Key.space	Key.space	n/a
479.0645	0.0755	958129	keystroke_c	c	n/a
479.169	0.106	958338	keystroke_h	h	n/a
479.305	0.075	958610	keystroke_a	a	n/a
479.44	0.09	958880	keystroke_i	i	n/a
479.5745	0.1055	959149	keystroke_r	r	n/a
479.785	0.1045	959570	keystroke_Key.enter	Key.enter	n/a
479.894	7.0775	959788	prompt	n/a	worldcat undo tattoo excel\n
480.895	0.104	961790	keystroke_w	w	n/a
481.135	0.104	962270	keystroke_o	o	n/a
481.2545	0.091	962509	keystroke_r	r	n/a
481.5095	0.1355	963019	keystroke_l	l	n/a
481.629	0.076	963258	keystroke_d	d	n/a
481.81	0.105	963620	keystroke_c	c	n/a
482.0045	0.135	964009	keystroke_a	a	n/a
482.29	0.09	964580	keystroke_Key.space	Key.space	n/a
482.845	0.105	965690	keystroke_Key.backspace	Key.backspace	n/a
482.995	0.015	965990	keystroke_t	t	n/a
483.145	0.09	966290	keystroke_Key.space	Key.space	n/a
483.475	0.0895	966950	keystroke_u	u	n/a
483.67	0.104	967340	keystroke_n	n	n/a
483.834	0.106	967668	keystroke_d	d	n/a
483.97	0.075	967940	keystroke_o	o	n/a
484.195	0.12	968390	keystroke_Key.space	Key.space	n/a
484.33	0.0595	968660	keystroke_t	t	n/a
484.5245	0.12	969049	keystroke_a	a	n/a
484.7195	0.075	969439	keystroke_t	t	n/a
484.8545	0.1055	969709	keystroke_t	t	n/a
484.9745	0.0905	969949	keystroke_o	o	n/a
485.2295	0.015	970459	keystroke_o	o	n/a
485.3645	0.105	970729	keystroke_Key.space	Key.space	n/a
485.53	0.105	971060	keystroke_e	e	n/a
485.86	0.0745	971720	keystroke_x	x	n/a
486.04	0.0895	972080	keystroke_c	c	n/a
486.265	0.1045	972530	keystroke_e	e	n/a
486.3845	0.1055	972769	keystroke_l	l	n/a
486.8795	0.0895	973759	keystroke_Key.enter	Key.enter	n/a
486.9755	9.806	973951	prompt	n/a	containing tablet christian potatoes\n
488.05	0.12	976100	keystroke_c	c	n/a
488.17	0.059	976340	keystroke_o	o	n/a
488.335	0.105	976670	keystroke_n	n	n/a
488.4245	0.0905	976849	keystroke_t	t	n/a
488.6195	0.1205	977239	keystroke_a	a	n/a
488.755	0.074	977510	keystroke_i	i	n/a
488.89	0.1045	977780	keystroke_n	n	n/a
489.0395	0.12	978079	keystroke_i	i	n/a
489.13	0.1045	978260	keystroke_n	n	n/a
489.25	0.075	978500	keystroke_g	g	n/a
490.4945	0.1045	980989	keystroke_Key.space	Key.space	n/a
490.57	0.075	981140	keystroke_t	t	n/a
490.764	0.1205	981528	keystroke_a	a	n/a
490.8545	0.09	981709	keystroke_b	b	n/a
491.0195	0.1345	982039	keystroke_l	l	n/a
491.0945	0.1045	982189	keystroke_e	e	n/a
491.2745	0.0905	982549	keystroke_t	t	n/a
491.3945	0.105	982789	keystroke_Key.space	Key.space	n/a
491.71	0.15	983420	keystroke_c	c	n/a
491.9045	0.0905	983809	keystroke_h	h	n/a
492.01	0.074	984020	keystroke_r	r	n/a
492.1	0.104	984200	keystroke_i	i	n/a
492.234	0.1365	984468	keystroke_s	s	n/a
492.5345	0.0755	985069	keystroke_t	t	n/a
492.73	0.09	985460	keystroke_i	i	n/a
492.8645	0.135	985729	keystroke_a	a	n/a
492.97	0.089	985940	keystroke_n	n	n/a
493.2845	0.12	986569	keystroke_Key.space	Key.space	n/a
493.645	0.09	987290	keystroke_p	p	n/a
493.855	0.104	987710	keystroke_o	o	n/a
493.989	0.106	987978	keystroke_t	t	n/a
495.9395	0.105	991879	keystroke_a	a	n/a
496.0895	0.09	992179	keystroke_t	t	n/a
496.24	0.1045	992480	keystroke_o	o	n/a
496.3145	0.09	992629	keystroke_e	e	n/a
496.5245	0.1055	993049	keystroke_s	s	n/a
496.69	0.0895	993380	keystroke_Key.enter	Key.enter	n/a
496.797	10.95	993594	prompt	n/a	damaged suit adsl victoria\n
497.86	0.1195	995720	keystroke_d	d	n/a
498.0545	0.105	996109	keystroke_a	a	n/a
498.1445	0.105	996289	keystroke_m	m	n/a
498.265	0.0745	996530	keystroke_a	a	n/a
498.6995	0.0755	997399	keystroke_g	g	n/a
498.9095	0.0895	997819	keystroke_e	e	n/a
499.1345	0.1055	998269	keystroke_d	d	n/a
499.2845	0.09	998569	keystroke_Key.space	Key.space	n/a
499.78	0.015	999560	keystroke_s	s	n/a
500.245	0.09	1000490	keystroke_u	u	n/a
500.41	0.12	1000820	keystroke_i	i	n/a
500.545	0.0745	1001090	keystroke_t	t	n/a
501.099	0.12	1002198	keystroke_Key.space	Key.space	n/a
501.565	0.105	1003130	keystroke_a	a	n/a
501.73	0.105	1003460	keystroke_d	d	n/a
501.97	0.12	1003940	keystroke_s	s	n/a
502.105	0.06	1004210	keystroke_l	l	n/a
502.2845	0.09	1004569	keystroke_Key.space	Key.space	n/a
502.5845	0.09	1005169	keystroke_v	v	n/a
503.604	0.091	1007208	keystroke_i	i	n/a
503.724	0.136	1007448	keystroke_c	c	n/a
504.009	0.0755	1008018	keystroke_t	t	n/a
504.1455	0.104	1008291	keystroke_o	o	n/a
504.235	0.09	1008470	keystroke_r	r	n/a
504.445	0.089	1008890	keystroke_i	i	n/a
504.595	0.135	1009190	keystroke_a	a	n/a
507.7315	0.013	1015463	keystroke_Key.enter	Key.enter	n/a
507.751	7.4205	1015502	prompt	n/a	live smtp wheat offer\n
509.05	0.1045	1018100	keystroke_l	l	n/a
509.2295	0.12	1018459	keystroke_i	i	n/a
509.365	0.0595	1018730	keystroke_v	v	n/a
509.6045	0.045	1019209	keystroke_e	e	n/a
510.6845	0.12	1021369	keystroke_Key.space	Key.space	n/a
510.8795	0.0755	1021759	keystroke_s	s	n/a
511.06	0.105	1022120	keystroke_m	m	n/a
511.255	0.105	1022510	keystroke_t	t	n/a
511.495	0.105	1022990	keystroke_p	p	n/a
511.915	0.104	1023830	keystroke_Key.space	Key.space	n/a
512.3345	0.09	1024669	keystroke_w	w	n/a
512.5	0.1045	1025000	keystroke_h	h	n/a
512.68	0.1045	1025360	keystroke_a	a	n/a
512.8455	0.1045	1025691	keystroke_t	t	n/a
513.2945	0.1055	1026589	keystroke_Key.space	Key.space	n/a
513.67	0.09	1027340	keystroke_o	o	n/a
513.82	0.06	1027640	keystroke_f	f	n/a
513.97	0.06	1027940	keystroke_f	f	n/a
514.104	0.15	1028208	keystroke_e	e	n/a
514.21	0.135	1028420	keystroke_r	r	n/a
515.035	0.134	1030070	keystroke_Key.enter	Key.enter	n/a
515.176	11.3505	1030352	prompt	n/a	perspective wordpress random poly\n
516.22	0.1195	1032440	keystroke_p	p	n/a
516.325	0.1045	1032650	keystroke_e	e	n/a
516.4	0.1195	1032800	keystroke_r	r	n/a
517.2245	0.151	1034449	keystroke_s	s	n/a
517.585	0.1045	1035170	keystroke_p	p	n/a
517.7045	0.15	1035409	keystroke_e	e	n/a
517.81	0.1495	1035620	keystroke_c	c	n/a
518.14	0.105	1036280	keystroke_t	t	n/a
518.29	0.135	1036580	keystroke_i	i	n/a
518.53	0.09	1037060	keystroke_v	v	n/a
518.7695	0.12	1037539	keystroke_e	e	n/a
519.1745	0.1055	1038349	keystroke_Key.space	Key.space	n/a
519.55	0.09	1039100	keystroke_w	w	n/a
519.685	0.089	1039370	keystroke_o	o	n/a
519.7595	0.09	1039519	keystroke_r	r	n/a
520.0145	0.1055	1040029	keystroke_d	d	n/a
520.2845	0.1205	1040569	keystroke_p	p	n/a
520.4345	0.135	1040869	keystroke_r	r	n/a
520.5245	0.1205	1041049	keystroke_e	e	n/a
520.765	0.06	1041530	keystroke_s	s	n/a
520.8995	0.12	1041799	keystroke_s	s	n/a
521.0345	0.075	1042069	keystroke_Key.space	Key.space	n/a
521.125	0.105	1042250	keystroke_r	r	n/a
521.35	0.135	1042700	keystroke_a	a	n/a
521.5895	0.12	1043179	keystroke_n	n	n/a
522.19	0.09	1044380	keystroke_d	d	n/a
522.37	0.104	1044740	keystroke_o	o	n/a
522.5345	0.0905	1045069	keystroke_m	m	n/a
522.76	0.075	1045520	keystroke_Key.space	Key.space	n/a
523.165	0.12	1046330	keystroke_p	p	n/a
523.39	0.1205	1046780	keystroke_i	i	n/a
523.63	0.135	1047260	keystroke_l	l	n/a
523.72	0.09	1047440	keystroke_y	y	n/a
524.2	0.105	1048400	keystroke_Key.backspace	Key.backspace	n/a
524.395	0.075	1048790	keystroke_Key.backspace	Key.backspace	n/a
524.755	0.075	1049510	keystroke_Key.backspace	Key.backspace	n/a
525.955	0.06	1051910	keystroke_o	o	n/a
526.12	0.105	1052240	keystroke_l	l	n/a
526.24	0.0895	1052480	keystroke_y	y	n/a
526.405	0.12	1052810	keystroke_Key.enter	Key.enter	n/a
526.5305	5.651	1053061	prompt	n/a	coast wrap rows flour\n
527.5445	0.105	1055089	keystroke_c	c	n/a
527.68	0.1345	1055360	keystroke_o	o	n/a
527.7695	0.1655	1055539	keystroke_a	a	n/a
527.8445	0.136	1055689	keystroke_s	s	n/a
528.1	0.105	1056200	keystroke_t	t	n/a
528.3695	0.0905	1056739	keystroke_Key.space	Key.space	n/a
528.55	0.0895	1057100	keystroke_w	w	n/a
529.2995	0.0905	1058599	keystroke_r	r	n/a
529.525	0.1495	1059050	keystroke_a	a	n/a
529.6895	0.1055	1059379	keystroke_p	p	n/a
530.109	0.09	1060218	keystroke_Key.space	Key.space	n/a
530.44	0.06	1060880	keystroke_r	r	n/a
530.59	0.105	1061180	keystroke_o	o	n/a
530.71	0.075	1061420	keystroke_w	w	n/a
530.95	0.105	1061900	keystroke_s	s	n/a
531.069	0.09	1062138	keystroke_Key.space	Key.space	n/a
531.28	0.09	1062560	keystroke_f	f	n/a
531.385	0.089	1062770	keystroke_l	l	n/a
531.6105	0.1795	1063221	keystroke_o	o	n/a
531.685	0.12	1063370	keystroke_u	u	n/a
531.9095	0.0745	1063819	keystroke_s	s	n/a
532.0745	0.1055	1064149	keystroke_Key.enter	Key.enter	n/a
532.1885	10.0735	1064377	prompt	n/a	version promoting portuguese hold\n
533.3505	0.089	1066701	keystroke_v	v	n/a
533.5445	0.15	1067089	keystroke_e	e	n/a
533.6345	0.105	1067269	keystroke_r	r	n/a
533.8745	0.0905	1067749	keystroke_s	s	n/a
533.9495	0.24	1067899	keystroke_i	i	n/a
534.0695	0.18	1068139	keystroke_o	o	n/a
534.1445	0.121	1068289	keystroke_n	n	n/a
534.4145	0.0605	1068829	keystroke_Key.space	Key.space	n/a
534.73	0.0755	1069460	keystroke_p	p	n/a
534.8195	0.1205	1069639	keystroke_r	r	n/a
534.954	0.0755	1069908	keystroke_o	o	n/a
535.1195	0.09	1070239	keystroke_m	m	n/a
535.2695	0.091	1070539	keystroke_o	o	n/a
535.3445	0.091	1070689	keystroke_t	t	n/a
535.4945	0.1355	1070989	keystroke_i	i	n/a
535.5695	0.121	1071139	keystroke_n	n	n/a
535.705	0.0595	1071410	keystroke_g	g	n/a
535.7945	0.1205	1071589	keystroke_Key.space	Key.space	n/a
536.0345	0.0895	1072069	keystroke_p	p	n/a
536.23	0.135	1072460	keystroke_o	o	n/a
536.394	0.1055	1072788	keystroke_r	r	n/a
537.055	0.0595	1074110	keystroke_t	t	n/a
537.5645	0.135	1075129	keystroke_u	u	n/a
537.7145	0.0755	1075429	keystroke_g	g	n/a
538.21	0.135	1076420	keystroke_u	u	n/a
538.36	0.075	1076720	keystroke_e	e	n/a
538.585	0.105	1077170	keystroke_s	s	n/a
538.81	0.075	1077620	keystroke_e	e	n/a
538.899	0.12	1077798	keystroke_Key.space	Key.space	n/a
539.2	0.074	1078400	keystroke_g	g	n/a
539.38	0.09	1078760	keystroke_o	o	n/a
539.605	0.075	1079210	keystroke_l	l	n/a
539.77	0.12	1079540	keystroke_d	d	n/a
540.28	0.0745	1080560	keystroke_Key.backspace	Key.backspace	n/a
540.4745	0.06	1080949	keystroke_Key.backspace	Key.backspace	n/a
540.6395	0.075	1081279	keystroke_Key.backspace	Key.backspace	n/a
540.8945	0.0155	1081789	keystroke_Key.backspace	Key.backspace	n/a
541.5095	0.0755	1083019	keystroke_h	h	n/a
541.705	0.0595	1083410	keystroke_o	o	n/a
541.885	0.075	1083770	keystroke_l	l	n/a
542.02	0.075	1084040	keystroke_d	d	n/a
542.14	0.1195	1084280	keystroke_Key.enter	Key.enter	n/a
542.265	10.227	1084530	prompt	n/a	majority prison symptoms wicked\n
543.2795	0.135	1086559	keystroke_m	m	n/a
543.4295	0.135	1086859	keystroke_a	a	n/a
543.5495	0.0905	1087099	keystroke_j	j	n/a
543.7	0.135	1087400	keystroke_o	o	n/a
543.85	0.075	1087700	keystroke_r	r	n/a
543.955	0.105	1087910	keystroke_i	i	n/a
544.105	0.12	1088210	keystroke_t	t	n/a
544.36	0.09	1088720	keystroke_y	y	n/a
544.5395	0.075	1089079	keystroke_Key.space	Key.space	n/a
545.215	0.09	1090430	keystroke_p	p	n/a
545.485	0.1345	1090970	keystroke_i	i	n/a
545.785	0.09	1091570	keystroke_s	s	n/a
546.535	0.075	1093070	keystroke_Key.backspace	Key.backspace	n/a
546.684	0.091	1093368	keystroke_Key.backspace	Key.backspace	n/a
546.79	0.0895	1093580	keystroke_r	r	n/a
547.1945	0.1055	1094389	keystroke_i	i	n/a
547.42	0.09	1094840	keystroke_s	s	n/a
547.51	0.1045	1095020	keystroke_o	o	n/a
547.735	0.075	1095470	keystroke_n	n	n/a
548.11	0.1195	1096220	keystroke_Key.space	Key.space	n/a
548.5	0.1045	1097000	keystroke_s	s	n/a
548.874	0.105	1097748	keystroke_y	y	n/a
549.1595	0.105	1098319	keystroke_m	m	n/a
549.3695	0.0905	1098739	keystroke_p	p	n/a
549.624	0.045	1099248	keystroke_t	t	n/a
549.73	0.075	1099460	keystroke_o	o	n/a
549.91	0.089	1099820	keystroke_m	m	n/a
550.03	0.12	1100060	keystroke_s	s	n/a
550.4795	0.1205	1100959	keystroke_Key.space	Key.space	n/a
550.72	0.105	1101440	keystroke_w	w	n/a
550.8695	0.045	1101739	keystroke_i	i	n/a
551.244	0.0755	1102488	keystroke_c	c	n/a
551.35	0.105	1102700	keystroke_k	k	n/a
551.4695	0.12	1102939	keystroke_e	e	n/a
551.6945	0.0905	1103389	keystroke_t	t	n/a
552.0845	0.1045	1104169	keystroke_Key.backspace	Key.backspace	n/a
552.175	0.09	1104350	keystroke_d	d	n/a
552.37	0.1195	1104740	keystroke_Key.enter	Key.enter	n/a
552.496	7.555	1104992	prompt	n/a	criterion minor casting courage\n
553.3005	0.119	1106601	keystroke_c	c	n/a
553.5695	0.105	1107139	keystroke_r	r	n/a
554.5745	0.1055	1109149	keystroke_i	i	n/a
554.6945	0.0745	1109389	keystroke_t	t	n/a
555.07	0.21	1110140	keystroke_e	e	n/a
555.744	0.06	1111488	keystroke_r	r	n/a
555.924	0.195	1111848	keystroke_i	i	n/a
556.0745	0.18	1112149	keystroke_o	o	n/a
556.165	0.135	1112330	keystroke_n	n	n/a
556.4045	0.0895	1112809	keystroke_Key.space	Key.space	n/a
556.6	0.119	1113200	keystroke_m	m	n/a
556.84	0.12	1113680	keystroke_i	i	n/a
557.0655	0.0895	1114131	keystroke_n	n	n/a
557.2295	0.105	1114459	keystroke_o	o	n/a
557.3795	0.061	1114759	keystroke_r	r	n/a
557.7695	0.12	1115539	keystroke_Key.space	Key.space	n/a
557.92	0.1195	1115840	keystroke_c	c	n/a
558.0995	0.165	1116199	keystroke_a	a	n/a
558.2195	0.1205	1116439	keystroke_s	s	n/a
558.46	0.075	1116920	keystroke_t	t	n/a
558.55	0.135	1117100	keystroke_i	i	n/a
558.64	0.105	1117280	keystroke_n	n	n/a
558.76	0.06	1117520	keystroke_g	g	n/a
558.865	0.105	1117730	keystroke_Key.space	Key.space	n/a
559.03	0.135	1118060	keystroke_c	c	n/a
559.15	0.18	1118300	keystroke_o	o	n/a
559.225	0.15	1118450	keystroke_u	u	n/a
559.33	0.075	1118660	keystroke_r	r	n/a
559.51	0.089	1119020	keystroke_a	a	n/a
559.6895	0.076	1119379	keystroke_g	g	n/a
559.7945	0.105	1119589	keystroke_e	e	n/a
559.93	0.1195	1119860	keystroke_Key.enter	Key.enter	n/a
560.0555	8.1715	1120111	prompt	n/a	hospital package wifi researchers\n
560.845	0.0445	1121690	keystroke_h	h	n/a
561.3095	0.075	1122619	keystroke_o	o	n/a
561.4445	0.105	1122889	keystroke_s	s	n/a
561.7145	0.105	1123429	keystroke_p	p	n/a
561.8645	0.06	1123729	keystroke_t	t	n/a
562.3145	0.075	1124629	keystroke_Key.backspace	Key.backspace	n/a
562.5405	0.104	1125081	keystroke_i	i	n/a
562.6455	0.074	1125291	keystroke_t	t	n/a
562.8995	0.1205	1125799	keystroke_a	a	n/a
563.05	0.0895	1126100	keystroke_l	l	n/a
563.23	0.09	1126460	keystroke_Key.space	Key.space	n/a
563.41	0.12	1126820	keystroke_p	p	n/a
563.5	0.105	1127000	keystroke_a	a	n/a
563.65	0.09	1127300	keystroke_c	c	n/a
563.77	0.105	1127540	keystroke_k	k	n/a
563.935	0.075	1127870	keystroke_a	a	n/a
564.085	0.105	1128170	keystroke_g	g	n/a
564.205	0.12	1128410	keystroke_e	e	n/a
564.49	0.105	1128980	keystroke_Key.space	Key.space	n/a
564.76	0.075	1129520	keystroke_w	w	n/a
564.865	0.12	1129730	keystroke_i	i	n/a
565.03	0.09	1130060	keystroke_f	f	n/a
565.135	0.09	1130270	keystroke_i	i	n/a
565.435	0.105	1130870	keystroke_Key.space	Key.space	n/a
565.8995	0.0905	1131799	keystroke_r	r	n/a
566.395	0.075	1132790	keystroke_e	e	n/a
566.62	0.105	1133240	keystroke_s	s	n/a
566.86	0.0595	1133720	keystroke_e	e	n/a
566.965	0.1795	1133930	keystroke_a	a	n/a
567.07	0.1045	1134140	keystroke_r	r	n/a
567.3395	0.0905	1134679	keystroke_c	c	n/a
567.475	0.105	1134950	keystroke_h	h	n/a
567.565	0.165	1135130	keystroke_e	e	n/a
567.6845	0.1055	1135369	keystroke_r	r	n/a
567.925	0.1345	1135850	keystroke_s	s	n/a
568.105	0.12	1136210	keystroke_Key.enter	Key.enter	n/a
568.2305	9.071	1136461	prompt	n/a	frederick domain forestry darkness\n
570.432	0	1140864	keystroke_f	f	n/a
570.595	0.1195	1141190	keystroke_r	r	n/a
570.6845	0.09	1141369	keystroke_e	e	n/a
570.8945	0.09	1141789	keystroke_d	d	n/a
571.105	0.075	1142210	keystroke_e	e	n/a
571.15	0.105	1142300	keystroke_r	r	n/a
571.2845	0.1205	1142569	keystroke_i	i	n/a
571.434	0.121	1142868	keystroke_c	c	n/a
571.5845	0.075	1143169	keystroke_k	k	n/a
571.7795	0.075	1143559	keystroke_Key.space	Key.space	n/a
572.0195	0.105	1144039	keystroke_d	d	n/a
572.1545	0.0895	1144309	keystroke_o	o	n/a
572.305	0.105	1144610	keystroke_m	m	n/a
572.4245	0.1055	1144849	keystroke_a	a	n/a
572.545	0.135	1145090	keystroke_i	i	n/a
572.65	0.105	1145300	keystroke_n	n	n/a
572.86	0.12	1145720	keystroke_Key.space	Key.space	n/a
573.415	0.09	1146830	keystroke_f	f	n/a
573.58	0.12	1147160	keystroke_o	o	n/a
573.76	0.089	1147520	keystroke_r	r	n/a
573.954	0.091	1147908	keystroke_e	e	n/a
574.15	0.12	1148300	keystroke_s	s	n/a
574.39	0.12	1148780	keystroke_t	t	n/a
574.69	0.06	1149380	keystroke_r	r	n/a
574.765	0.075	1149530	keystroke_y	y	n/a
574.93	0.135	1149860	keystroke_Key.space	Key.space	n/a
575.47	0.105	1150940	keystroke_d	d	n/a
575.695	0.135	1151390	keystroke_a	a	n/a
575.875	0.0745	1151750	keystroke_r	r	n/a
576.175	0.044	1152350	keystroke_k	k	n/a
576.5795	0.12	1153159	keystroke_n	n	n/a
576.6695	0.075	1153339	keystroke_e	e	n/a
576.88	0.075	1153760	keystroke_s	s	n/a
577.0595	0.0605	1154119	keystroke_s	s	n/a
577.1645	0.1345	1154329	keystroke_Key.enter	Key.enter	n/a
577.305	13.302	1154610	prompt	n/a	thumbs customize exterior ambient\n
578.0055	0.059	1156011	keystroke_t	t	n/a
578.1245	0.09	1156249	keystroke_h	h	n/a
578.32	0.0745	1156640	keystroke_i	i	n/a
578.5145	0.0755	1157029	keystroke_m	m	n/a
578.92	0.09	1157840	keystroke_Key.backspace	Key.backspace	n/a
579.0845	0.09	1158169	keystroke_Key.backspace	Key.backspace	n/a
579.7895	0.045	1159579	keystroke_u	u	n/a
580.105	0.0895	1160210	keystroke_m	m	n/a
580.3595	0.1055	1160719	keystroke_b	b	n/a
580.48	0.1345	1160960	keystroke_s	s	n/a
581.349	0.016	1162698	keystroke_Key.space	Key.space	n/a
582.0245	0.0905	1164049	keystroke_c	c	n/a
582.205	0.09	1164410	keystroke_u	u	n/a
582.2795	0.105	1164559	keystroke_s	s	n/a
582.4895	0.091	1164979	keystroke_t	t	n/a
582.6545	0.075	1165309	keystroke_o	o	n/a
583.105	0.135	1166210	keystroke_m	m	n/a
585.0405	0.1345	1170081	keystroke_i	i	n/a
585.3695	0.1505	1170739	keystroke_z	z	n/a
585.6395	0.105	1171279	keystroke_e	e	n/a
585.8345	0.0905	1171669	keystroke_Key.space	Key.space	n/a
586.375	0.0445	1172750	keystroke_e	e	n/a
586.6305	0.119	1173261	keystroke_x	x	n/a
586.96	0.105	1173920	keystroke_t	t	n/a
587.1695	0.15	1174339	keystroke_e	e	n/a
587.2895	0.1055	1174579	keystroke_r	r	n/a
587.755	0.12	1175510	keystroke_i	i	n/a
587.95	0.09	1175900	keystroke_o	o	n/a
588.055	0.09	1176110	keystroke_r	r	n/a
588.564	0.136	1177128	keystroke_Key.space	Key.space	n/a
588.985	0.089	1177970	keystroke_a	a	n/a
589.54	0.135	1179080	keystroke_m	m	n/a
589.689	0.09	1179378	keystroke_b	b	n/a
589.899	0.075	1179798	keystroke_i	i	n/a
589.9905	0.1045	1179981	keystroke_e	e	n/a
590.111	0.104	1180222	keystroke_n	n	n/a
590.23	0.105	1180460	keystroke_t	t	n/a
590.485	0.12	1180970	keystroke_Key.enter	Key.enter	n/a
590.611	7.106	1181222	prompt	n/a	adding mayor involves including\n
591.4745	0.0755	1182949	keystroke_a	a	n/a
591.655	0.045	1183310	keystroke_d	d	n/a
591.775	0.135	1183550	keystroke_d	d	n/a
591.8805	0.1345	1183761	keystroke_i	i	n/a
592.03	0.135	1184060	keystroke_n	n	n/a
592.15	0.0745	1184300	keystroke_g	g	n/a
592.2695	0.1045	1184539	keystroke_Key.space	Key.space	n/a
592.4945	0.076	1184989	keystroke_m	m	n/a
592.5555	0.1045	1185111	keystroke_a	a	n/a
593.095	0.0745	1186190	keystroke_y	y	n/a
593.35	0.0895	1186700	keystroke_o	o	n/a
593.4845	0.091	1186969	keystroke_r	r	n/a
593.83	0.12	1187660	keystroke_Key.space	Key.space	n/a
594.19	0.09	1188380	keystroke_i	i	n/a
594.3695	0.1055	1188739	keystroke_n	n	n/a
594.55	0.0905	1189100	keystroke_v	v	n/a
594.7005	0.075	1189401	keystroke_o	o	n/a
594.895	0.09	1189790	keystroke_l	l	n/a
594.9995	0.06	1189999	keystroke_v	v	n/a
595.1945	0.09	1190389	keystroke_e	e	n/a
595.75	0.1205	1191500	keystroke_s	s	n/a
595.9895	0.0905	1191979	keystroke_Key.space	Key.space	n/a
596.4555	0.0895	1192911	keystroke_i	i	n/a
596.635	0.075	1193270	keystroke_n	n	n/a
596.725	0.12	1193450	keystroke_c	c	n/a
596.8455	0.105	1193691	keystroke_l	l	n/a
597.0255	0.0745	1194051	keystroke_u	u	n/a
597.1305	0.15	1194261	keystroke_d	d	n/a
597.235	0.09	1194470	keystroke_i	i	n/a
597.34	0.1195	1194680	keystroke_n	n	n/a
597.4745	0.1045	1194949	keystroke_g	g	n/a
597.6095	0.1055	1195219	keystroke_Key.enter	Key.enter	n/a
597.7205	6.551	1195441	prompt	n/a	concord route plus firmware\n
599.3195	0.106	1198639	keystroke_c	c	n/a
599.395	0.075	1198790	keystroke_o	o	n/a
599.575	0.09	1199150	keystroke_n	n	n/a
599.695	0.105	1199390	keystroke_c	c	n/a
599.815	0.12	1199630	keystroke_o	o	n/a
599.965	0.105	1199930	keystroke_r	r	n/a
600.25	0.105	1200500	keystroke_d	d	n/a
600.385	0.105	1200770	keystroke_Key.space	Key.space	n/a
600.64	0.0905	1201280	keystroke_r	r	n/a
600.775	0.195	1201550	keystroke_o	o	n/a
600.8955	0.1645	1201791	keystroke_u	u	n/a
601.015	0.0745	1202030	keystroke_t	t	n/a
601.3	0.075	1202600	keystroke_e	e	n/a
601.4345	0.105	1202869	keystroke_Key.space	Key.space	n/a
