onset	duration	sample	value	key	prompt_text
21.503	31.2565	43006	prompt	n/a	the quick brown fox jumps over a lazy dog\n
39.0635	0.013	78127	keystroke_t	t	n/a
39.1965	0.1055	78393	keystroke_h	h	n/a
39.362	0.075	78724	keystroke_e	e	n/a
39.5115	0.09	79023	keystroke_Key.space	Key.space	n/a
40.1715	0.1205	80343	keystroke_q	q	n/a
40.3515	0.135	80703	keystroke_y	y	n/a
40.4565	0.12	80913	keystroke_u	u	n/a
41.927	0.06	83854	keystroke_Key.backspace	Key.backspace	n/a
42.091	0.06	84182	keystroke_Key.backspace	Key.backspace	n/a
42.901	0.12	85802	keystroke_u	u	n/a
42.991	0.1205	85982	keystroke_i	i	n/a
43.216	0.0755	86432	keystroke_c	c	n/a
43.396	0.106	86792	keystroke_k	k	n/a
43.516	0.09	87032	keystroke_Key.space	Key.space	n/a
44.462	0.09	88924	keystroke_b	b	n/a
44.642	0.075	89284	keystroke_r	r	n/a
44.837	0.06	89674	keystroke_o	o	n/a
44.942	0.12	89884	keystroke_w	w	n/a
45.197	0.15	90394	keystroke_n	n	n/a
45.361	0.075	90722	keystroke_Key.space	Key.space	n/a
45.7365	0.06	91473	keystroke_f	f	n/a
45.9165	0.075	91833	keystroke_o	o	n/a
46.112	0.074	92224	keystroke_x	x	n/a
46.231	0.136	92462	keystroke_Key.space	Key.space	n/a
46.757	0.014	93514	keystroke_j	j	n/a
46.892	0.09	93784	keystroke_u	u	n/a
47.1915	0.06	94383	keystroke_m	m	n/a
47.2815	0.075	94563	keystroke_p	p	n/a
47.7015	0.09	95403	keystroke_s	s	n/a
47.9415	0.045	95883	keystroke_Key.space	Key.space	n/a
48.1215	0.0755	96243	keystroke_o	o	n/a
48.2565	0.0745	96513	keystroke_v	v	n/a
48.466	0.2255	96932	keystroke_e	e	n/a
48.661	0.106	97322	keystroke_r	r	n/a
48.886	0.09	97772	keystroke_Key.space	Key.space	n/a
49.232	0.044	98464	keystroke_a	a	n/a
49.367	0.1045	98734	keystroke_Key.space	Key.space	n/a
49.9965	0.105	99993	keystroke_l	l	n/a
50.132	0.089	100264	keystroke_a	a	n/a
50.371	0.076	100742	keystroke_z	z	n/a
50.806	0.0905	101612	keystroke_y	y	n/a
50.971	0.0605	101942	keystroke_Key.space	Key.space	n/a
51.301	0.076	102602	keystroke_d	d	n/a
51.481	0.091	102962	keystroke_o	o	n/a
51.6465	0.0605	103293	keystroke_g	g	n/a
52.682	0.074	105364	keystroke_Key.enter	Key.enter	n/a
52.764	7.3445	105528	prompt	n/a	disposition harris yellow inches\n
53.612	0.06	107224	keystroke_d	d	n/a
53.807	0.09	107614	keystroke_i	i	n/a
54.1965	0.0745	108393	keystroke_s	s	n/a
54.4215	0.0595	108843	keystroke_p	p	n/a
54.661	0.0755	109322	keystroke_o	o	n/a
54.946	0.06	109892	keystroke_s	s	n/a
55.1115	0.0755	110223	keystroke_i	i	n/a
55.2465	0.075	110493	keystroke_t	t	n/a
55.4865	0.2855	110973	keystroke_i	i	n/a
55.532	0.195	111064	keystroke_o	o	n/a
55.652	0.195	111304	keystroke_n	n	n/a
55.832	0.09	111664	keystroke_Key.space	Key.space	n/a
56.657	0.09	113314	keystroke_h	h	n/a
56.762	0.105	113524	keystroke_a	a	n/a
56.882	0.0595	113764	keystroke_r	r	n/a
57.032	0.09	114064	keystroke_r	r	n/a
57.152	0.0895	114304	keystroke_i	i	n/a
57.2865	0.0895	114573	keystroke_s	s	n/a
57.391	0.075	114782	keystroke_Key.space	Key.space	n/a
57.887	0.0895	115774	keystroke_y	y	n/a
58.0215	0.075	116043	keystroke_e	e	n/a
58.2915	0.09	116583	keystroke_l	l	n/a
58.4565	0.075	116913	keystroke_l	l	n/a
58.6515	0.06	117303	keystroke_o	o	n/a
58.7715	0.09	117543	keystroke_w	w	n/a
58.9215	0.06	117843	keystroke_Key.space	Key.space	n/a
59.1615	0.09	118323	keystroke_i	i	n/a
59.2365	0.105	118473	keystroke_n	n	n/a
59.3715	0.1055	118743	keystroke_c	c	n/a
59.492	0.075	118984	keystroke_h	h	n/a
59.612	0.105	119224	keystroke_e	e	n/a
59.687	0.105	119374	keystroke_s	s	n/a
60.016	0.09	120032	keystroke_Key.enter	Key.enter	n/a
60.1125	7.421	120225	prompt	n/a	departments seeking constraint warrant\n
60.8715	0.045	121743	keystroke_d	d	n/a
61.0365	0.045	122073	keystroke_e	e	n/a
61.1565	0.075	122313	keystroke_p	p	n/a
61.247	0.1045	122494	keystroke_a	a	n/a
61.3365	0.06	122673	keystroke_r	r	n/a
61.5165	0.06	123033	keystroke_t	t	n/a
61.7865	0.0905	123573	keystroke_m	m	n/a
61.8915	0.075	123783	keystroke_e	e	n/a
62.0115	0.075	124023	keystroke_n	n	n/a
62.1015	0.1205	124203	keystroke_t	t	n/a
62.2065	0.0895	124413	keystroke_s	s	n/a
62.326	0.091	124652	keystroke_Key.space	Key.space	n/a
62.9725	0.104	125945	keystroke_s	s	n/a
63.1965	0.0455	126393	keystroke_e	e	n/a
63.3475	0.059	126695	keystroke_e	e	n/a
63.4815	0.09	126963	keystroke_k	k	n/a
63.7065	0.12	127413	keystroke_i	i	n/a
63.7515	0.1505	127503	keystroke_n	n	n/a
63.8565	0.0605	127713	keystroke_g	g	n/a
63.962	0.074	127924	keystroke_Key.space	Key.space	n/a
64.307	0.09	128614	keystroke_c	c	n/a
64.442	0.134	128884	keystroke_o	o	n/a
64.546	0.12	129092	keystroke_n	n	n/a
64.906	0.075	129812	keystroke_s	s	n/a
65.041	0.06	130082	keystroke_t	t	n/a
65.1915	0.0905	130383	keystroke_r	r	n/a
65.2665	0.105	130533	keystroke_a	a	n/a
65.4315	0.1195	130863	keystroke_i	i	n/a
65.4915	0.1055	130983	keystroke_n	n	n/a
65.612	0.06	131224	keystroke_t	t	n/a
65.716	0.075	131432	keystroke_Key.space	Key.space	n/a
66.2715	0.09	132543	keystroke_w	w	n/a
66.392	0.1055	132784	keystroke_a	a	n/a
66.5415	0.0755	133083	keystroke_r	r	n/a
66.691	0.09	133382	keystroke_r	r	n/a
66.827	0.075	133654	keystroke_a	a	n/a
66.947	0.1045	133894	keystroke_n	n	n/a
67.141	0.046	134282	keystroke_t	t	n/a
67.4565	0.0745	134913	keystroke_Key.enter	Key.enter	n/a
67.537	12.6715	135074	prompt	n/a	professional equilibrium january cloth\n
68.341	0.075	136682	keystroke_p	p	n/a
68.432	0.09	136864	keystroke_r	r	n/a
68.582	0.075	137164	keystroke_o	o	n/a
68.852	0.09	137704	keystroke_f	f	n/a
68.927	0.09	137854	keystroke_e	e	n/a
69.107	0.075	138214	keystroke_s	s	n/a
69.272	0.0745	138544	keystroke_s	s	n/a
69.4065	0.1805	138813	keystroke_i	i	n/a
69.4225	0.1345	138845	keystroke_u	u	n/a
69.482	0.045	138964	keystroke_o	o	n/a
69.917	0.045	139834	keystroke_=	=	n/a
70.0515	0.0605	140103	keystroke_=	=	n/a
70.982	0.0745	141964	keystroke_Key.backspace	Key.backspace	n/a
71.1765	0.0755	142353	keystroke_Key.backspace	Key.backspace	n/a
71.4015	0.075	142803	keystroke_Key.backspace	Key.backspace	n/a
71.6865	0.06	143373	keystroke_Key.backspace	Key.backspace	n/a
72.586	0.09	145172	keystroke_o	o	n/a
72.782	0.089	145564	keystroke_n	n	n/a
72.9165	0.0745	145833	keystroke_a	a	n/a
73.081	0.12	146162	keystroke_l	l	n/a
73.2465	0.0905	146493	keystroke_Key.space	Key.space	n/a
74.056	0.076	148112	keystroke_e	e	n/a
74.266	0.106	148532	keystroke_q	q	n/a
74.657	0.149	149314	keystroke_u	u	n/a
74.7915	0.1195	149583	keystroke_i	i	n/a
75.1065	0.09	150213	keystroke_l	l	n/a
75.316	0.076	150632	keystroke_i	i	n/a
75.8865	0.09	151773	keystroke_b	b	n/a
76.0515	0.06	152103	keystroke_r	r	n/a
76.4265	0.075	152853	keystroke_i	i	n/a
76.6215	0.09	153243	keystroke_u	u	n/a
76.8465	0.12	153693	keystroke_m	m	n/a
76.9965	0.09	153993	keystroke_Key.space	Key.space	n/a
77.7465	0.09	155493	keystroke_j	j	n/a
77.8665	0.0755	155733	keystroke_a	a	n/a
77.972	0.0895	155944	keystroke_n	n	n/a
78.2115	0.06	156423	keystroke_u	u	n/a
78.3765	0.15	156753	keystroke_a	a	n/a
78.5115	0.09	157023	keystroke_r	r	n/a
78.6915	0.135	157383	keystroke_y	y	n/a
78.8565	0.075	157713	keystroke_Key.space	Key.space	n/a
79.2165	0.06	158433	keystroke_c	c	n/a
79.3215	0.106	158643	keystroke_l	l	n/a
79.576	0.105	159152	keystroke_o	o	n/a
79.712	0.074	159424	keystroke_t	t	n/a
79.861	0.075	159722	keystroke_h	h	n/a
80.1315	0.0755	160263	keystroke_Key.enter	Key.enter	n/a
80.2125	11.4565	160425	prompt	n/a	salvation focusing rebecca source\n
80.957	0.0895	161914	keystroke_s	s	n/a
81.1665	0.1205	162333	keystroke_l	l	n/a
81.752	0.09	163504	keystroke_Key.backspace	Key.backspace	n/a
82.112	0.09	164224	keystroke_a	a	n/a
82.396	0.09	164792	keystroke_l	l	n/a
82.8315	0.09	165663	keystroke_v	v	n/a
82.952	0.1345	165904	keystroke_a	a	n/a
83.1465	0.075	166293	keystroke_t	t	n/a
83.3265	0.3905	166653	keystroke_i	i	n/a
83.477	0.2095	166954	keystroke_o	o	n/a
83.581	0.195	167162	keystroke_n	n	n/a
83.761	0.09	167522	keystroke_Key.space	Key.space	n/a
84.4815	0.06	168963	keystroke_f	f	n/a
84.616	0.076	169232	keystroke_o	o	n/a
84.9315	0.045	169863	keystroke_c	c	n/a
85.4565	0.075	170913	keystroke_u	u	n/a
85.5915	0.0895	171183	keystroke_s	s	n/a
85.7265	0.1345	171453	keystroke_i	i	n/a
85.787	0.149	171574	keystroke_n	n	n/a
85.951	0.06	171902	keystroke_g	g	n/a
86.101	0.105	172202	keystroke_Key.space	Key.space	n/a
86.806	0.135	173612	keystroke_r	r	n/a
86.896	0.0905	173792	keystroke_e	e	n/a
87.0465	0.09	174093	keystroke_b	b	n/a
87.1215	0.09	174243	keystroke_e	e	n/a
87.332	0.074	174664	keystroke_c	c	n/a
87.496	0.09	174992	keystroke_c	c	n/a
87.616	0.105	175232	keystroke_a	a	n/a
87.811	0.1055	175622	keystroke_Key.space	Key.space	n/a
88.0365	0.06	176073	keystroke_s	s	n/a
88.307	0.09	176614	keystroke_o	o	n/a
88.486	0.0755	176972	keystroke_u	u	n/a
88.592	0.0745	177184	keystroke_r	r	n/a
88.816	0.12	177632	keystroke_c	c	n/a
89.116	0.06	178232	keystroke_e	e	n/a
89.327	0.0445	178654	keystroke_s	s	n/a
90.5415	0.0905	181083	keystroke_Key.backspace	Key.backspace	n/a
91.591	0.0755	183182	keystroke_Key.enter	Key.enter	n/a
91.6735	8.2595	183347	prompt	n/a	nokia differently href webmaster\n
92.5215	0.09	185043	keystroke_n	n	n/a
92.777	0.075	185554	keystroke_o	o	n/a
93.332	0.074	186664	keystroke_k	k	n/a
93.572	0.105	187144	keystroke_i	i	n/a
93.842	0.0745	187684	keystroke_a	a	n/a
94.0065	0.06	188013	keystroke_Key.space	Key.space	n/a
94.487	0.0745	188974	keystroke_d	d	n/a
94.6515	0.075	189303	keystroke_i	i	n/a
94.7715	0.075	189543	keystroke_f	f	n/a
94.9365	0.09	189873	keystroke_f	f	n/a
95.1165	0.075	190233	keystroke_e	e	n/a
95.2215	0.1055	190443	keystroke_r	r	n/a
95.2965	0.075	190593	keystroke_e	e	n/a
95.4015	0.12	190803	keystroke_n	n	n/a
95.5365	0.045	191073	keystroke_t	t	n/a
95.6265	0.09	191253	keystroke_l	l	n/a
95.8815	0.06	191763	keystroke_y	y	n/a
95.9415	0.075	191883	keystroke_Key.space	Key.space	n/a
97.0515	0.0745	194103	keystroke_h	h	n/a
97.141	0.136	194282	keystroke_r	r	n/a
97.232	0.0745	194464	keystroke_e	e	n/a
97.4865	0.06	194973	keystroke_f	f	n/a
97.787	0.0745	195574	keystroke_Key.space	Key.space	n/a
98.357	0.12	196714	keystroke_w	w	n/a
98.462	0.09	196924	keystroke_e	e	n/a
98.567	0.09	197134	keystroke_b	b	n/a
98.807	0.105	197614	keystroke_m	m	n/a
98.897	0.09	197794	keystroke_a	a	n/a
99.017	0.12	198034	keystroke_s	s	n/a
99.197	0.119	198394	keystroke_t	t	n/a
99.286	0.165	198572	keystroke_e	e	n/a
99.4215	0.0745	198843	keystroke_r	r	n/a
99.857	0.074	199714	keystroke_Key.enter	Key.enter	n/a
99.9385	10.4795	199877	prompt	n/a	prospect geology genuine factor\n
100.7715	0.09	201543	keystroke_p	p	n/a
100.8765	0.1355	201753	keystroke_r	r	n/a
101.0265	0.09	202053	keystroke_o	o	n/a
101.2515	0.075	202503	keystroke_p	p	n/a
101.522	0.12	203044	keystroke_s	s	n/a
102.016	0.06	204032	keystroke_Key.backspace	Key.backspace	n/a
102.152	0.074	204304	keystroke_Key.backspace	Key.backspace	n/a
103.036	0.076	206072	keystroke_s	s	n/a
103.2915	0.075	206583	keystroke_p	p	n/a
103.4265	0.0755	206853	keystroke_e	e	n/a
103.577	0.075	207154	keystroke_c	c	n/a
103.787	0.045	207574	keystroke_t	t	n/a
103.922	0.075	207844	keystroke_Key.space	Key.space	n/a
104.672	0.044	209344	keystroke_g	g	n/a
104.866	0.061	209732	keystroke_e	e	n/a
105.4515	0.105	210903	keystroke_l	l	n/a
105.8715	0.075	211743	keystroke_Key.backspace	Key.backspace	n/a
106.1715	0.075	212343	keystroke_o	o	n/a
106.472	0.075	212944	keystroke_l	l	n/a
106.6515	0.06	213303	keystroke_o	o	n/a
106.7715	0.075	213543	keystroke_g	g	n/a
106.8915	0.105	213783	keystroke_y	y	n/a
107.0265	0.0605	214053	keystroke_Key.space	Key.space	n/a
107.8215	0.06	215643	keystroke_g	g	n/a
108.1215	0.06	216243	keystroke_e	e	n/a
108.332	0.09	216664	keystroke_n	n	n/a
108.572	0.105	217144	keystroke_u	u	n/a
108.707	0.164	217414	keystroke_i	i	n/a
108.841	0.09	217682	keystroke_n	n	n/a
108.992	0.075	217984	keystroke_e	e	n/a
109.126	0.06	218252	keystroke_Key.space	Key.space	n/a
109.4425	0.1035	218885	keystroke_f	f	n/a
109.561	0.135	219122	keystroke_a	a	n/a
109.651	0.091	219302	keystroke_c	c	n/a
109.861	0.046	219722	keystroke_t	t	n/a
109.966	0.09	219932	keystroke_o	o	n/a
110.072	0.059	220144	keystroke_r	r	n/a
110.342	0.075	220684	keystroke_Key.enter	Key.enter	n/a
110.4215	8.5915	220843	prompt	n/a	dishes composer lexington hanging\n
111.032	0.06	222064	keystroke_d	d	n/a
111.152	0.075	222304	keystroke_i	i	n/a
111.227	0.09	222454	keystroke_s	s	n/a
111.347	0.075	222694	keystroke_h	h	n/a
111.452	0.105	222904	keystroke_e	e	n/a
111.572	0.089	223144	keystroke_s	s	n/a
111.676	0.076	223352	keystroke_Key.space	Key.space	n/a
112.277	0.0745	224554	keystroke_c	c	n/a
112.4415	0.12	224883	keystroke_o	o	n/a
112.4865	0.12	224973	keystroke_m	m	n/a
112.682	0.09	225364	keystroke_p	p	n/a
112.9065	0.075	225813	keystroke_o	o	n/a
113.0115	0.0905	226023	keystroke_s	s	n/a
113.2065	0.075	226413	keystroke_t	t	n/a
113.3415	0.15	226683	keystroke_e	e	n/a
113.447	0.09	226894	keystroke_r	r	n/a
113.851	0.045	227702	keystroke_Key.backspace	Key.backspace	n/a
114.001	0.06	228002	keystroke_Key.backspace	Key.backspace	n/a
114.136	0.076	228272	keystroke_Key.backspace	Key.backspace	n/a
114.302	0.134	228604	keystroke_e	e	n/a
114.421	0.046	228842	keystroke_r	r	n/a
114.556	0.09	229112	keystroke_Key.space	Key.space	n/a
115.5015	0.09	231003	keystroke_l	l	n/a
115.637	0.06	231274	keystroke_e	e	n/a
115.832	0.105	231664	keystroke_x	x	n/a
116.012	0.12	232024	keystroke_i	i	n/a
116.117	0.12	232234	keystroke_n	n	n/a
116.252	0.06	232504	keystroke_g	g	n/a
116.462	0.045	232924	keystroke_t	t	n/a
116.537	0.165	233074	keystroke_o	o	n/a
116.627	0.12	233254	keystroke_n	n	n/a
116.732	0.09	233464	keystroke_Key.space	Key.space	n/a
117.6615	0.0755	235323	keystroke_h	h	n/a
117.7515	0.1055	235503	keystroke_a	a	n/a
117.8715	0.09	235743	keystroke_n	n	n/a
118.172	0.045	236344	keystroke_g	g	n/a
118.441	0.151	236882	keystroke_i	i	n/a
118.501	0.151	237002	keystroke_n	n	n/a
118.6215	0.0755	237243	keystroke_g	g	n/a
118.937	0.074	237874	keystroke_Key.enter	Key.enter	n/a
119.0165	5.8915	238033	prompt	n/a	infection banana boom wood\n
119.927	0.105	239854	keystroke_i	i	n/a
119.987	0.105	239974	keystroke_n	n	n/a
120.122	0.12	240244	keystroke_f	f	n/a
120.242	0.1495	240484	keystroke_e	e	n/a
120.362	0.09	240724	keystroke_c	c	n/a
120.5865	0.0455	241173	keystroke_t	t	n/a
120.6765	0.255	241353	keystroke_i	i	n/a
120.7215	0.15	241443	keystroke_o	o	n/a
120.8115	0.15	241623	keystroke_n	n	n/a
120.9465	0.075	241893	keystroke_Key.space	Key.space	n/a
121.697	0.09	243394	keystroke_b	b	n/a
121.772	0.075	243544	keystroke_a	a	n/a
121.892	0.09	243784	keystroke_n	n	n/a
121.967	0.09	243934	keystroke_a	a	n/a
122.117	0.045	244234	keystroke_n	n	n/a
122.462	0.06	244924	keystroke_a	a	n/a
122.702	0.06	245404	keystroke_Key.space	Key.space	n/a
123.496	0.09	246992	keystroke_b	b	n/a
123.676	0.061	247352	keystroke_o	o	n/a
123.8115	0.1505	247623	keystroke_o	o	n/a
123.932	0.134	247864	keystroke_m	m	n/a
124.036	0.09	248072	keystroke_Key.space	Key.space	n/a
124.2015	0.0755	248403	keystroke_w	w	n/a
124.321	0.0765	248642	keystroke_o	o	n/a
124.4565	0.09	248913	keystroke_o	o	n/a
124.562	0.075	249124	keystroke_d	d	n/a
124.832	0.075	249664	keystroke_Key.enter	Key.enter	n/a
124.9115	8.082	249823	prompt	n/a	exhaust hong conferencing wrist\n
125.597	0.06	251194	keystroke_e	e	n/a
125.792	0.105	251584	keystroke_x	x	n/a
125.972	0.089	251944	keystroke_h	h	n/a
126.092	0.06	252184	keystroke_a	a	n/a
126.2115	0.0755	252423	keystroke_u	u	n/a
126.226	0.046	252452	keystroke_i	i	n/a
126.301	0.196	252602	keystroke_s	s	n/a
126.467	0.0745	252934	keystroke_t	t	n/a
126.7215	0.06	253443	keystroke_Key.backspace	Key.backspace	n/a
126.8715	0.045	253743	keystroke_Key.backspace	Key.backspace	n/a
126.9765	0.0905	253953	keystroke_Key.backspace	Key.backspace	n/a
127.202	0.119	254404	keystroke_s	s	n/a
127.292	0.0595	254584	keystroke_t	t	n/a
127.3815	0.075	254763	keystroke_Key.space	Key.space	n/a
127.8765	0.06	255753	keystroke_h	h	n/a
128.012	0.1195	256024	keystroke_o	o	n/a
128.0865	0.105	256173	keystroke_n	n	n/a
128.2215	0.045	256443	keystroke_g	g	n/a
128.3115	0.075	256623	keystroke_Key.space	Key.space	n/a
129.6765	0.075	259353	keystroke_c	c	n/a
129.7965	0.1205	259593	keystroke_o	o	n/a
129.9015	0.12	259803	keystroke_n	n	n/a
130.1415	0.0895	260283	keystroke_f	f	n/a
130.306	0.076	260612	keystroke_e	e	n/a
130.396	0.121	260792	keystroke_r	r	n/a
130.502	0.06	261004	keystroke_e	e	n/a
130.592	0.1045	261184	keystroke_n	n	n/a
130.7415	0.09	261483	keystroke_c	c	n/a
130.982	0.1195	261964	keystroke_i	i	n/a
131.0265	0.12	262053	keystroke_n	n	n/a
131.1165	0.0455	262233	keystroke_g	g	n/a
131.2215	0.075	262443	keystroke_Key.space	Key.space	n/a
132.212	0.09	264424	keystroke_w	w	n/a
132.332	0.09	264664	keystroke_r	r	n/a
132.452	0.105	264904	keystroke_i	i	n/a
132.542	0.105	265084	keystroke_s	s	n/a
132.602	0.075	265204	keystroke_t	t	n/a
132.902	0.09	265804	keystroke_Key.enter	Key.enter	n/a
132.9965	8.2015	265993	prompt	n/a	zoloft chronic wires beautifully\n
134.0275	0.044	268055	keystroke_z	z	n/a
134.1465	0.076	268293	keystroke_o	o	n/a
134.566	0.0455	269132	keystroke_l	l	n/a
134.6265	0.045	269253	keystroke_o	o	n/a
134.867	0.12	269734	keystroke_f	f	n/a
135.107	0.045	270214	keystroke_t	t	n/a
135.182	0.075	270364	keystroke_Key.space	Key.space	n/a
135.9465	0.075	271893	keystroke_c	c	n/a
136.037	0.0895	272074	keystroke_h	h	n/a
136.1565	0.06	272313	keystroke_r	r	n/a
136.232	0.09	272464	keystroke_o	o	n/a
136.3515	0.105	272703	keystroke_n	n	n/a
136.427	0.0895	272854	keystroke_i	i	n/a
136.5465	0.0605	273093	keystroke_c	c	n/a
136.6365	0.075	273273	keystroke_Key.space	Key.space	n/a
137.177	0.0595	274354	keystroke_w	w	n/a
137.477	0.074	274954	keystroke_i	i	n/a
137.581	0.091	275162	keystroke_r	r	n/a
137.641	0.09	275282	keystroke_e	e	n/a
137.8365	0.0895	275673	keystroke_s	s	n/a
137.971	0.0605	275942	keystroke_Key.space	Key.space	n/a
138.7815	0.0905	277563	keystroke_b	b	n/a
138.9015	0.12	277803	keystroke_e	e	n/a
138.992	0.104	277984	keystroke_a	a	n/a
139.382	0.1045	278764	keystroke_u	u	n/a
139.5315	0.075	279063	keystroke_t	t	n/a
139.7415	0.105	279483	keystroke_i	i	n/a
139.8765	0.06	279753	keystroke_f	f	n/a
139.9965	0.09	279993	keystroke_u	u	n/a
140.131	0.0605	280262	keystroke_l	l	n/a
140.2815	0.0605	280563	keystroke_l	l	n/a
140.4615	0.075	280923	keystroke_y	y	n/a
141.0915	0.105	282183	keystroke_Key.enter	Key.enter	n/a
141.2015	6.9865	282403	prompt	n/a	documentation query bookmark once\n
142.007	0.045	284014	keystroke_d	d	n/a
142.112	0.075	284224	keystroke_o	o	n/a
142.277	0.075	284554	keystroke_c	c	n/a
142.367	0.06	284734	keystroke_u	u	n/a
142.547	0.075	285094	keystroke_m	m	n/a
142.637	0.105	285274	keystroke_e	e	n/a
142.757	0.0445	285514	keystroke_n	n	n/a
142.8315	0.0895	285663	keystroke_t	t	n/a
142.967	0.1045	285934	keystroke_a	a	n/a
143.012	0.075	286024	keystroke_t	t	n/a
143.447	0.3445	286894	keystroke_i	i	n/a
143.6265	0.105	287253	keystroke_o	o	n/a
143.6715	0.1505	287343	keystroke_n	n	n/a
143.7915	0.09	287583	keystroke_Key.space	Key.space	n/a
144.617	0.105	289234	keystroke_q	q	n/a
144.812	0.075	289624	keystroke_u	u	n/a
144.872	0.12	289744	keystroke_e	e	n/a
144.977	0.06	289954	keystroke_r	r	n/a
145.067	0.075	290134	keystroke_y	y	n/a
145.202	0.075	290404	keystroke_Key.space	Key.space	n/a
145.8915	0.0755	291783	keystroke_b	b	n/a
146.0715	0.075	292143	keystroke_o	o	n/a
146.2065	0.165	292413	keystroke_o	o	n/a
146.3865	0.075	292773	keystroke_k	k	n/a
146.597	0.0745	293194	keystroke_m	m	n/a
146.7315	0.105	293463	keystroke_a	a	n/a
146.8065	0.0605	293613	keystroke_r	r	n/a
146.8815	0.0745	293763	keystroke_k	k	n/a
147.046	0.045	294092	keystroke_Key.space	Key.space	n/a
147.587	0.0895	295174	keystroke_o	o	n/a
147.6915	0.075	295383	keystroke_n	n	n/a
147.7965	0.105	295593	keystroke_c	c	n/a
147.872	0.0745	295744	keystroke_e	e	n/a
148.112	0.075	296224	keystroke_Key.enter	Key.enter	n/a
148.192	9.7615	296384	prompt	n/a	artist patricia thumbnails besides\n
148.892	0.105	297784	keystroke_a	a	n/a
149.056	0.045	298112	keystroke_r	r	n/a
149.267	0.1045	298534	keystroke_t	t	n/a
149.4165	0.075	298833	keystroke_i	i	n/a
149.5965	0.075	299193	keystroke_s	s	n/a
149.791	0.075	299582	keystroke_t	t	n/a
149.926	0.0755	299852	keystroke_Key.space	Key.space	n/a
151.037	0.0895	302074	keystroke_p	p	n/a
151.1865	0.0595	302373	keystroke_a	a	n/a
151.261	0.061	302522	keystroke_t	t	n/a
151.441	0.061	302882	keystroke_r	r	n/a
151.546	0.06	303092	keystroke_i	i	n/a
151.8915	0.0755	303783	keystroke_c	c	n/a
152.027	0.09	304054	keystroke_i	i	n/a
152.206	0.061	304412	keystroke_a	a	n/a
152.341	0.0755	304682	keystroke_Key.space	Key.space	n/a
153.4515	0.0905	306903	keystroke_t	t	n/a
153.617	0.09	307234	keystroke_h	h	n/a
153.8265	0.075	307653	keystroke_u	u	n/a
154.0215	0.0755	308043	keystroke_m	m	n/a
154.2465	0.06	308493	keystroke_b	b	n/a
154.4865	0.09	308973	keystroke_n	n	n/a
154.8015	0.076	309603	keystroke_a	a	n/a
154.9515	0.1055	309903	keystroke_i	i	n/a
155.297	0.09	310594	keystroke_l	l	n/a
155.417	0.0595	310834	keystroke_s	s	n/a
155.5215	0.075	311043	keystroke_Key.space	Key.space	n/a
156.211	0.075	312422	keystroke_b	b	n/a
156.301	0.06	312602	keystroke_e	e	n/a
156.481	0.0755	312962	keystroke_s	s	n/a
156.602	0.0595	313204	keystroke_i	i	n/a
156.6915	0.06	313383	keystroke_d	d	n/a
156.8565	0.0605	313713	keystroke_e	e	n/a
156.976	0.09	313952	keystroke_s	s	n/a
157.846	0.105	315692	keystroke_Key.enter	Key.enter	n/a
157.956	10.107	315912	prompt	n/a	sacrifice contribution dollar costumes\n
158.641	0.105	317282	keystroke_s	s	n/a
158.821	0.1205	317642	keystroke_a	a	n/a
158.971	0.106	317942	keystroke_c	c	n/a
159.196	0.0455	318392	keystroke_r	r	n/a
159.212	0.015	318424	keystroke_t	t	n/a
159.3165	0.075	318633	keystroke_i	i	n/a
159.4365	0.03	318873	keystroke_f	f	n/a
159.527	0.0745	319054	keystroke_i	i	n/a
159.827	0.029	319654	keystroke_Key.backspace	Key.backspace	n/a
159.932	0.0595	319864	keystroke_Key.backspace	Key.backspace	n/a
160.081	0.046	320162	keystroke_Key.backspace	Key.backspace	n/a
160.216	0.0605	320432	keystroke_Key.backspace	Key.backspace	n/a
160.8015	0.075	321603	keystroke_i	i	n/a
161.3415	0.06	322683	keystroke_f	f	n/a
161.4615	0.075	322923	keystroke_i	i	n/a
161.6865	0.12	323373	keystroke_c	c	n/a
161.8815	0.06	323763	keystroke_e	e	n/a
161.986	0.0755	323972	keystroke_Key.space	Key.space	n/a
162.6915	0.09	325383	keystroke_c	c	n/a
162.7965	0.09	325593	keystroke_o	o	n/a
162.872	0.0895	325744	keystroke_n	n	n/a
162.9765	0.06	325953	keystroke_t	t	n/a
163.0965	0.06	326193	keystroke_r	r	n/a
163.1715	0.12	326343	keystroke_i	i	n/a
163.426	0.1205	326852	keystroke_b	b	n/a
163.5615	0.105	327123	keystroke_u	u	n/a
163.7115	0.075	327423	keystroke_t	t	n/a
163.8465	0.375	327693	keystroke_i	i	n/a
163.9965	0.165	327993	keystroke_o	o	n/a
164.0865	0.165	328173	keystroke_n	n	n/a
164.2365	0.075	328473	keystroke_Key.space	Key.space	n/a
164.8215	0.0605	329643	keystroke_d	d	n/a
164.9715	0.075	329943	keystroke_o	o	n/a
165.211	0.0305	330422	keystroke_l	l	n/a
165.316	0.0755	330632	keystroke_l	l	n/a
165.3615	0.1345	330723	keystroke_a	a	n/a
165.467	0.06	330934	keystroke_r	r	n/a
165.571	0.0455	331142	keystroke_Key.space	Key.space	n/a
165.7515	0.03	331503	keystroke_d	d	n/a
166.306	0.061	332612	keystroke_Key.backspace	Key.backspace	n/a
166.592	0.06	333184	keystroke_c	c	n/a
166.682	0.075	333364	keystroke_o	o	n/a
166.922	0.075	333844	keystroke_s	s	n/a
167.027	0.074	334054	keystroke_t	t	n/a
167.146	0.091	334292	keystroke_u	u	n/a
167.402	0.059	334804	keystroke_m	m	n/a
167.476	0.1205	334952	keystroke_e	e	n/a
167.5815	0.105	335163	keystroke_s	s	n/a
167.9865	0.075	335973	keystroke_Key.enter	Key.enter	n/a
168.066	7.032	336132	prompt	n/a	wealth generating repository folder\n
168.7665	0.12	337533	keystroke_w	w	n/a
168.8415	0.12	337683	keystroke_e	e	n/a
168.9765	0.075	337953	keystroke_a	a	n/a
169.1865	0.075	338373	keystroke_l	l	n/a
169.2765	0.06	338553	keystroke_t	t	n/a
169.3965	0.09	338793	keystroke_h	h	n/a
169.5165	0.06	339033	keystroke_Key.space	Key.space	n/a
170.1615	0.0755	340323	keystroke_g	g	n/a
170.2665	0.045	340533	keystroke_e	e	n/a
170.3415	0.075	340683	keystroke_n	n	n/a
170.432	0.09	340864	keystroke_e	e	n/a
170.537	0.0745	341074	keystroke_r	r	n/a
170.6265	0.1055	341253	keystroke_a	a	n/a
170.7015	0.075	341403	keystroke_t	t	n/a
170.8065	0.09	341613	keystroke_i	i	n/a
170.8815	0.09	341763	keystroke_n	n	n/a
170.927	0.0295	341854	keystroke_g	g	n/a
171.106	0.0455	342212	keystroke_Key.space	Key.space	n/a
171.871	0.105	343742	keystroke_r	r	n/a
171.946	0.0755	343892	keystroke_e	e	n/a
172.096	0.076	344192	keystroke_p	p	n/a
172.292	0.059	344584	keystroke_o	o	n/a
172.381	0.06	344762	keystroke_s	s	n/a
172.5165	0.0895	345033	keystroke_i	i	n/a
172.637	0.059	345274	keystroke_t	t	n/a
173.2065	0.075	346413	keystroke_o	o	n/a
173.2965	0.075	346593	keystroke_r	r	n/a
173.4615	0.0455	346923	keystroke_y	y	n/a
173.566	0.06	347132	keystroke_Key.space	Key.space	n/a
174.197	0.0445	348394	keystroke_f	f	n/a
174.3015	0.075	348603	keystroke_o	o	n/a
174.4815	0.0605	348963	keystroke_l	l	n/a
174.5565	0.075	349113	keystroke_d	d	n/a
174.7365	0.09	349473	keystroke_e	e	n/a
174.8115	0.06	349623	keystroke_r	r	n/a
175.0215	0.0755	350043	keystroke_Key.enter	Key.enter	n/a
175.1005	7.782	350201	prompt	n/a	oliver hair week quantum\n
175.832	0.06	351664	keystroke_o	o	n/a
176.012	0.06	352024	keystroke_l	l	n/a
176.222	0.045	352444	keystroke_i	i	n/a
176.252	0.09	352504	keystroke_v	v	n/a
176.387	0.135	352774	keystroke_e	e	n/a
176.492	0.06	352984	keystroke_r	r	n/a
176.582	0.075	353164	keystroke_Key.space	Key.space	n/a
177.272	0.0745	354544	keystroke_h	h	n/a
177.3765	0.1205	354753	keystroke_a	a	n/a
177.4665	0.0445	354933	keystroke_r	r	n/a
178.081	0.075	356162	keystroke_Key.backspace	Key.backspace	n/a
178.306	0.0755	356612	keystroke_o	o	n/a
178.456	0.0605	356912	keystroke_r	r	n/a
178.891	0.015	357782	keystroke_Key.backspace	Key.backspace	n/a
178.9665	0.09	357933	keystroke_Key.backspace	Key.backspace	n/a
179.2065	0.0745	358413	keystroke_i	i	n/a
179.4465	0.06	358893	keystroke_r	r	n/a
179.6115	0.075	359223	keystroke_Key.space	Key.space	n/a
180.212	0.119	360424	keystroke_w	w	n/a
180.362	0.06	360724	keystroke_e	e	n/a
180.497	0.09	360994	keystroke_e	e	n/a
180.617	0.09	361234	keystroke_k	k	n/a
180.751	0.09	361502	keystroke_Key.space	Key.space	n/a
181.5765	0.075	363153	keystroke_q	q	n/a
181.7415	0.075	363483	keystroke_u	u	n/a
181.8465	0.075	363693	keystroke_a	a	n/a
181.9665	0.09	363933	keystroke_n	n	n/a
182.1315	0.0455	364263	keystroke_t	t	n/a
182.2965	0.075	364593	keystroke_u	u	n/a
182.491	0.075	364982	keystroke_m	m	n/a
182.821	0.06	365642	keystroke_Key.enter	Key.enter	n/a
182.8875	9.6855	365775	prompt	n/a	instrument he'll expression lighter\n
183.6765	0.12	367353	keystroke_i	i	n/a
183.7815	0.0895	367563	keystroke_n	n	n/a
183.8865	0.0595	367773	keystroke_s	s	n/a
183.9915	0.0445	367983	keystroke_t	t	n/a
184.141	0.09	368282	keystroke_u	u	n/a
184.786	0.0455	369572	keystroke_Key.backspace	Key.backspace	n/a
185.1765	0.075	370353	keystroke_r	r	n/a
185.2965	0.1055	370593	keystroke_u	u	n/a
185.5365	0.09	371073	keystroke_m	m	n/a
185.7165	0.075	371433	keystroke_e	e	n/a
185.7615	0.045	371523	keystroke_n	n	n/a
186.0315	0.06	372063	keystroke_t	t	n/a
186.2265	0.0605	372453	keystroke_Key.space	Key.space	n/a
186.901	0.0905	373802	keystroke_h	h	n/a
187.021	0.061	374042	keystroke_e	e	n/a
187.7715	0.06	375543	keystroke_'	'	n/a
188.296	0.075	376592	keystroke_l	l	n/a
188.446	0.061	376892	keystroke_l	l	n/a
188.611	0.0755	377222	keystroke_Key.space	Key.space	n/a
189.092	0.0895	378184	keystroke_e	e	n/a
189.3315	0.1045	378663	keystroke_x	x	n/a
189.6615	0.0595	379323	keystroke_p	p	n/a
189.796	0.1055	379592	keystroke_r	r	n/a
189.8715	0.09	379743	keystroke_e	e	n/a
190.067	0.0745	380134	keystroke_s	s	n/a
190.2015	0.09	380403	keystroke_s	s	n/a
190.3515	0.345	380703	keystroke_i	i	n/a
190.5015	0.18	381003	keystroke_o	o	n/a
190.6065	0.18	381213	keystroke_n	n	n/a
190.8015	0.06	381603	keystroke_Key.space	Key.space	n/a
191.447	0.0895	382894	keystroke_l	l	n/a
191.6415	0.075	383283	keystroke_i	i	n/a
191.7765	0.0745	383553	keystroke_g	g	n/a
191.866	0.0755	383732	keystroke_h	h	n/a
191.9865	0.15	383973	keystroke_t	t	n/a
192.1065	0.195	384213	keystroke_e	e	n/a
192.2415	0.121	384483	keystroke_r	r	n/a
192.4815	0.09	384963	keystroke_Key.enter	Key.enter	n/a
192.5755	6.793	385151	prompt	n/a	missed accomplished achievement sunny\n
193.2465	0.09	386493	keystroke_m	m	n/a
193.3965	0.075	386793	keystroke_i	i	n/a
193.487	0.075	386974	keystroke_s	s	n/a
193.651	0.135	387302	keystroke_s	s	n/a
193.847	0.044	387694	keystroke_e	e	n/a
193.996	0.076	387992	keystroke_d	d	n/a
194.101	0.09	388202	keystroke_Key.space	Key.space	n/a
194.371	0.076	388742	keystroke_a	a	n/a
194.522	0.059	389044	keystroke_c	c	n/a
194.656	0.0755	389312	keystroke_c	c	n/a
194.7765	0.135	389553	keystroke_o	o	n/a
194.8665	0.105	389733	keystroke_m	m	n/a
195.0315	0.075	390063	keystroke_p	p	n/a
195.2265	0.06	390453	keystroke_l	l	n/a
195.4215	0.045	390843	keystroke_i	i	n/a
195.497	0.059	390994	keystroke_s	s	n/a
195.6015	0.075	391203	keystroke_h	h	n/a
195.6915	0.06	391383	keystroke_e	e	n/a
195.8565	0.06	391713	keystroke_d	d	n/a
195.9315	0.075	391863	keystroke_Key.space	Key.space	n/a
196.4565	0.135	392913	keystroke_a	a	n/a
196.6065	0.075	393213	keystroke_c	c	n/a
196.6965	0.075	393393	keystroke_h	h	n/a
196.8015	0.09	393603	keystroke_i	i	n/a
196.9215	0.075	393843	keystroke_e	e	n/a
197.0415	0.135	394083	keystroke_v	v	n/a
197.162	0.0595	394324	keystroke_e	e	n/a
197.2665	0.1055	394533	keystroke_m	m	n/a
197.3865	0.045	394773	keystroke_e	e	n/a
197.4915	0.0895	394983	keystroke_n	n	n/a
197.582	0.059	395164	keystroke_t	t	n/a
197.701	0.075	395402	keystroke_Key.space	Key.space	n/a
198.317	0.0895	396634	keystroke_s	s	n/a
198.466	0.061	396932	keystroke_u	u	n/a
198.646	0.0605	397292	keystroke_n	n	n/a
198.766	0.076	397532	keystroke_n	n	n/a
198.9915	0.0445	397983	keystroke_y	y	n/a
199.306	0.0605	398612	keystroke_Key.enter	Key.enter	n/a
199.371	7.797	398742	prompt	n/a	reproduced variable conjunction burner\n
200.056	0.12	400112	keystroke_r	r	n/a
200.146	0.09	400292	keystroke_e	e	n/a
200.296	0.075	400592	keystroke_p	p	n/a
200.402	0.089	400804	keystroke_r	r	n/a
200.521	0.076	401042	keystroke_o	o	n/a
200.7015	0.0755	401403	keystroke_d	d	n/a
200.957	0.104	401914	keystroke_u	u	n/a
201.076	0.1205	402152	keystroke_c	c	n/a
201.1665	0.09	402333	keystroke_e	e	n/a
201.3465	0.09	402693	keystroke_d	d	n/a
201.5115	0.06	403023	keystroke_Key.space	Key.space	n/a
202.0365	0.09	404073	keystroke_v	v	n/a
202.1415	0.105	404283	keystroke_a	a	n/a
202.2765	0.075	404553	keystroke_r	r	n/a
202.4265	0.105	404853	keystroke_i	i	n/a
202.667	0.0595	405334	keystroke_a	a	n/a
202.7865	0.075	405573	keystroke_b	b	n/a
202.9665	0.075	405933	keystroke_l	l	n/a
203.0715	0.09	406143	keystroke_e	e	n/a
203.1915	0.09	406383	keystroke_Key.space	Key.space	n/a
203.866	0.15	407732	keystroke_c	c	n/a
204.0315	0.0155	408063	keystroke_o	o	n/a
204.061	0.031	408122	keystroke_n	n	n/a
204.196	0.0605	408392	keystroke_j	j	n/a
204.392	0.045	408784	keystroke_u	u	n/a
204.557	0.09	409114	keystroke_n	n	n/a
204.632	0.09	409264	keystroke_c	c	n/a
205.096	0.045	410192	keystroke_t	t	n/a
205.1865	0.2845	410373	keystroke_i	i	n/a
205.291	0.135	410582	keystroke_o	o	n/a
205.336	0.18	410672	keystroke_n	n	n/a
205.5315	0.06	411063	keystroke_Key.space	Key.space	n/a
206.1915	0.09	412383	keystroke_b	b	n/a
206.431	0.075	412862	keystroke_u	u	n/a
206.566	0.075	413132	keystroke_r	r	n/a
206.672	0.09	413344	keystroke_n	n	n/a
206.776	0.1205	413552	keystroke_e	e	n/a
206.8665	0.075	413733	keystroke_r	r	n/a
207.1215	0.045	414243	keystroke_Key.enter	Key.enter	n/a
207.1705	13.6175	414341	prompt	n/a	episode foundation quoted requirements\n
208.6815	0.075	417363	keystroke_i	i	n/a
208.877	0.06	417754	keystroke_o	o	n/a
209.8965	0.0595	419793	keystroke_Key.backspace	Key.backspace	n/a
210.4065	0.105	420813	keystroke_Key.backspace	Key.backspace	n/a
210.5415	0.06	421083	keystroke_Key.backspace	Key.backspace	n/a
210.6765	0.06	421353	keystroke_Key.backspace	Key.backspace	n/a
211.7265	0.075	423453	keystroke_e	e	n/a
211.922	0.0595	423844	keystroke_p	p	n/a
212.6415	0.0755	425283	keystroke_i	i	n/a
212.852	0.0745	425704	keystroke_s	s	n/a
213.0015	0.0605	426003	keystroke_o	o	n/a
213.107	0.059	426214	keystroke_d	d	n/a
213.271	0.0605	426542	keystroke_e	e	n/a
213.376	0.06	426752	keystroke_Key.space	Key.space	n/a
214.1565	0.075	428313	keystroke_f	f	n/a
214.3515	0.075	428703	keystroke_o	o	n/a
214.3815	0.09	428763	keystroke_u	u	n/a
214.5615	0.09	429123	keystroke_n	n	n/a
214.6365	0.12	429273	keystroke_d	d	n/a
214.7415	0.1355	429483	keystroke_a	a	n/a
214.8615	0.06	429723	keystroke_t	t	n/a
214.9815	0.3755	429963	keystroke_i	i	n/a
215.1465	0.1655	430293	keystroke_o	o	n/a
215.1765	0.1945	430353	keystroke_n	n	n/a
215.3265	0.09	430653	keystroke_Key.space	Key.space	n/a
216.182	0.105	432364	keystroke_q	q	n/a
216.332	0.075	432664	keystroke_u	u	n/a
216.421	0.1055	432842	keystroke_o	o	n/a
216.5415	0.105	433083	keystroke_t	t	n/a
216.6165	0.075	433233	keystroke_e	e	n/a
216.7515	0.0755	433503	keystroke_s	s	n/a
217.7115	0.09	435423	keystroke_Key.backspace	Key.backspace	n/a
217.8165	0.0745	435633	keystroke_d	d	n/a
217.9365	0.0595	435873	keystroke_Key.space	Key.space	n/a
218.941	0.075	437882	keystroke_r	r	n/a
218.971	0.12	437942	keystroke_e	e	n/a
219.197	0.1045	438394	keystroke_q	q	n/a
219.331	0.1205	438662	keystroke_u	u	n/a
219.407	0.1195	438814	keystroke_i	i	n/a
219.5115	0.1205	439023	keystroke_r	r	n/a
219.5865	0.0755	439173	keystroke_e	e	n/a
219.781	0.075	439562	keystroke_m	m	n/a
219.812	0.1195	439624	keystroke_e	e	n/a
219.976	0.09	439952	keystroke_n	n	n/a
220.051	0.105	440102	keystroke_t	t	n/a
220.201	0.105	440402	keystroke_s	s	n/a
220.7265	0.0595	441453	keystroke_Key.enter	Key.enter	n/a
220.7915	6.4315	441583	prompt	n/a	arabia conscious mercy coal\n
221.6265	0.091	443253	keystroke_a	a	n/a
221.8215	0.075	443643	keystroke_r	r	n/a
222.182	0.0745	444364	keystroke_a	a	n/a
222.361	0.0755	444722	keystroke_b	b	n/a
222.481	0.105	444962	keystroke_i	i	n/a
222.632	0.074	445264	keystroke_a	a	n/a
222.751	0.075	445502	keystroke_Key.space	Key.space	n/a
223.307	0.074	446614	keystroke_c	c	n/a
223.4115	0.1195	446823	keystroke_o	o	n/a
223.516	0.09	447032	keystroke_n	n	n/a
223.636	0.0755	447272	keystroke_s	s	n/a
223.8615	0.045	447723	keystroke_c	c	n/a
224.0415	0.09	448083	keystroke_i	i	n/a
224.2665	0.12	448533	keystroke_o	o	n/a
224.3565	0.09	448713	keystroke_u	u	n/a
224.4765	0.075	448953	keystroke_s	s	n/a
224.5815	0.045	449163	keystroke_Key.space	Key.space	n/a
225.3915	0.135	450783	keystroke_m	m	n/a
225.4665	0.105	450933	keystroke_e	e	n/a
225.5415	0.075	451083	keystroke_r	r	n/a
225.7215	0.075	451443	keystroke_c	c	n/a
225.8565	0.09	451713	keystroke_y	y	n/a
226.096	0.0605	452192	keystroke_Key.space	Key.space	n/a
226.501	0.076	453002	keystroke_c	c	n/a
226.591	0.09	453182	keystroke_o	o	n/a
226.711	0.09	453422	keystroke_a	a	n/a
226.816	0.105	453632	keystroke_l	l	n/a
227.161	0.06	454322	keystroke_Key.enter	Key.enter	n/a
227.226	7.1975	454452	prompt	n/a	russell underground arena value\n
227.896	0.091	455792	keystroke_r	r	n/a
228.031	0.0905	456062	keystroke_u	u	n/a
228.226	0.03	456452	keystroke_s	s	n/a
228.7665	0.135	457533	keystroke_s	s	n/a
228.9315	0.075	457863	keystroke_e	e	n/a
229.3065	0.06	458613	keystroke_l	l	n/a
229.4265	0.09	458853	keystroke_l	l	n/a
229.5765	0.09	459153	keystroke_Key.space	Key.space	n/a
230.192	0.0895	460384	keystroke_u	u	n/a
230.3705	0.106	460741	keystroke_n	n	n/a
230.4165	0.09	460833	keystroke_d	d	n/a
230.5965	0.12	461193	keystroke_e	e	n/a
230.686	0.0605	461372	keystroke_r	r	n/a
230.8665	0.0455	461733	keystroke_g	g	n/a
231.002	0.0745	462004	keystroke_r	r	n/a
231.1065	0.12	462213	keystroke_o	o	n/a
231.1665	0.0905	462333	keystroke_u	u	n/a
231.3615	0.09	462723	keystroke_n	n	n/a
231.4515	0.075	462903	keystroke_d	d	n/a
231.5715	0.06	463143	keystroke_Key.space	Key.space	n/a
232.1415	0.0905	464283	keystroke_a	a	n/a
232.2615	0.12	464523	keystroke_r	r	n/a
232.3665	0.06	464733	keystroke_e	e	n/a
232.4415	0.135	464883	keystroke_n	n	n/a
232.847	0.0595	465694	keystroke_a	a	n/a
233.0265	0.06	466053	keystroke_Key.space	Key.space	n/a
233.4165	0.075	466833	keystroke_v	v	n/a
233.5065	0.075	467013	keystroke_a	a	n/a
233.6565	0.09	467313	keystroke_l	l	n/a
233.8065	0.12	467613	keystroke_u	u	n/a
233.9115	0.06	467823	keystroke_e	e	n/a
234.346	0.075	468692	keystroke_Key.enter	Key.enter	n/a
234.426	6.9125	468852	prompt	n/a	glenn comparable joshua easily\n
235.277	0.059	470554	keystroke_g	g	n/a
235.381	0.091	470762	keystroke_l	l	n/a
235.501	0.06	471002	keystroke_e	e	n/a
235.711	0.0605	471422	keystroke_n	n	n/a
235.831	0.09	471662	keystroke_n	n	n/a
235.981	0.0755	471962	keystroke_Key.space	Key.space	n/a
236.4765	0.09	472953	keystroke_c	c	n/a
236.5815	0.105	473163	keystroke_o	o	n/a
236.6565	0.075	473313	keystroke_m	m	n/a
236.8815	0.0895	473763	keystroke_p	p	n/a
237.0615	0.1045	474123	keystroke_a	a	n/a
237.1815	0.0895	474363	keystroke_r	r	n/a
237.3915	0.09	474783	keystroke_a	a	n/a
237.5715	0.09	475143	keystroke_b	b	n/a
237.7365	0.105	475473	keystroke_l	l	n/a
237.902	0.06	475804	keystroke_e	e	n/a
238.0215	0.075	476043	keystroke_Key.space	Key.space	n/a
238.606	0.0905	477212	keystroke_j	j	n/a
238.7865	0.09	477573	keystroke_o	o	n/a
238.9515	0.0605	477903	keystroke_s	s	n/a
239.251	0.09	478502	keystroke_h	h	n/a
239.4465	0.075	478893	keystroke_u	u	n/a
239.582	0.0745	479164	keystroke_a	a	n/a
239.7015	0.06	479403	keystroke_Key.space	Key.space	n/a
240.2865	0.09	480573	keystroke_e	e	n/a
240.4365	0.12	480873	keystroke_a	a	n/a
240.5115	0.135	481023	keystroke_s	s	n/a
240.632	0.1195	481264	keystroke_i	i	n/a
240.8115	0.105	481623	keystroke_l	l	n/a
241.0065	0.06	482013	keystroke_y	y	n/a
241.2765	0.06	482553	keystroke_Key.enter	Key.enter	n/a
241.341	8.187	482682	prompt	n/a	actually commerce expansion insight\n
241.892	0.15	483784	keystroke_a	a	n/a
242.026	0.09	484052	keystroke_c	c	n/a
242.221	0.09	484442	keystroke_u	u	n/a
242.491	0.09	484982	keystroke_t	t	n/a
242.8365	0.0745	485673	keystroke_Key.backspace	Key.backspace	n/a
242.9865	0.06	485973	keystroke_Key.backspace	Key.backspace	n/a
243.227	0.0445	486454	keystroke_t	t	n/a
243.347	0.09	486694	keystroke_u	u	n/a
243.526	0.06	487052	keystroke_a	a	n/a
243.6765	0.0755	487353	keystroke_l	l	n/a
243.812	0.074	487624	keystroke_l	l	n/a
244.052	0.045	488104	keystroke_y	y	n/a
244.141	0.061	488282	keystroke_Key.space	Key.space	n/a
244.817	0.0745	489634	keystroke_c	c	n/a
244.9515	0.0755	489903	keystroke_o	o	n/a
245.1315	0.06	490263	keystroke_m	m	n/a
245.2665	0.06	490533	keystroke_m	m	n/a
245.3415	0.12	490683	keystroke_e	e	n/a
245.4165	0.075	490833	keystroke_r	r	n/a
245.6115	0.0905	491223	keystroke_c	c	n/a
245.747	0.075	491494	keystroke_e	e	n/a
245.911	0.0605	491822	keystroke_Key.space	Key.space	n/a
246.6015	0.06	493203	keystroke_e	e	n/a
246.7965	0.075	493593	keystroke_x	x	n/a
246.9015	0.09	493803	keystroke_p	p	n/a
247.0215	0.075	494043	keystroke_a	a	n/a
247.1415	0.09	494283	keystroke_n	n	n/a
247.247	0.0895	494494	keystroke_s	s	n/a
247.3965	0.3155	494793	keystroke_i	i	n/a
247.517	0.135	495034	keystroke_o	o	n/a
247.592	0.149	495184	keystroke_n	n	n/a
247.712	0.074	495424	keystroke_Key.space	Key.space	n/a
248.5065	0.09	497013	keystroke_i	i	n/a
248.566	0.1055	497132	keystroke_n	n	n/a
248.7165	0.09	497433	keystroke_s	s	n/a
248.8215	0.1055	497643	keystroke_i	i	n/a
248.9715	0.06	497943	keystroke_g	g	n/a
249.0315	0.0905	498063	keystroke_h	h	n/a
249.166	0.06	498332	keystroke_t	t	n/a
249.4365	0.0895	498873	keystroke_Key.enter	Key.enter	n/a
249.531	5.5475	499062	prompt	n/a	chose harvest community hugo\n
250.127	0.0745	500254	keystroke_c	c	n/a
250.232	0.074	500464	keystroke_h	h	n/a
250.322	0.089	500644	keystroke_o	o	n/a
250.427	0.0895	500854	keystroke_s	s	n/a
250.4865	0.1055	500973	keystroke_e	e	n/a
250.621	0.076	501242	keystroke_Key.space	Key.space	n/a
250.771	0.09	501542	keystroke_h	h	n/a
250.817	0.105	501634	keystroke_a	a	n/a
250.906	0.046	501812	keystroke_r	r	n/a
251.1015	0.0595	502203	keystroke_v	v	n/a
251.176	0.076	502352	keystroke_e	e	n/a
251.3575	0.1485	502715	keystroke_s	s	n/a
251.4615	0.0905	502923	keystroke_t	t	n/a
251.597	0.075	503194	keystroke_Key.space	Key.space	n/a
252.2265	0.0605	504453	keystroke_c	c	n/a
252.301	0.0905	504602	keystroke_o	o	n/a
252.511	0.0905	505022	keystroke_m	m	n/a
252.676	0.076	505352	keystroke_m	m	n/a
252.886	0.061	505772	keystroke_u	u	n/a
253.066	0.105	506132	keystroke_n	n	n/a
253.1415	0.09	506283	keystroke_i	i	n/a
253.2915	0.06	506583	keystroke_t	t	n/a
253.381	0.075	506762	keystroke_y	y	n/a
253.4865	0.075	506973	keystroke_Key.space	Key.space	n/a
254.2515	0.165	508503	keystroke_h	h	n/a
254.4315	0.015	508863	keystroke_u	u	n/a
254.5965	0.06	509193	keystroke_g	g	n/a
254.7465	0.1045	509493	keystroke_o	o	n/a
255.017	0.059	510034	keystroke_Key.enter	Key.enter	n/a
255.081	7.122	510162	prompt	n/a	resolved relocation enters arranged\n
255.7215	0.121	511443	keystroke_r	r	n/a
255.7965	0.105	511593	keystroke_e	e	n/a
255.9175	0.119	511835	keystroke_s	s	n/a
256.0515	0.0905	512103	keystroke_o	o	n/a
256.231	0.076	512462	keystroke_l	l	n/a
256.321	0.12	512642	keystroke_v	v	n/a
256.4565	0.075	512913	keystroke_e	e	n/a
256.6065	0.1045	513213	keystroke_d	d	n/a
256.756	0.075	513512	keystroke_Key.space	Key.space	n/a
257.582	0.149	515164	keystroke_r	r	n/a
257.701	0.075	515402	keystroke_e	e	n/a
257.926	0.0905	515852	keystroke_l	l	n/a
258.121	0.075	516242	keystroke_o	o	n/a
258.211	0.091	516422	keystroke_c	c	n/a
258.316	0.151	516632	keystroke_a	a	n/a
258.437	0.074	516874	keystroke_t	t	n/a
258.557	0.269	517114	keystroke_i	i	n/a
258.6475	0.134	517295	keystroke_o	o	n/a
258.721	0.135	517442	keystroke_n	n	n/a
258.8415	0.0895	517683	keystroke_Key.space	Key.space	n/a
259.6065	0.045	519213	keystroke_e	e	n/a
259.6815	0.09	519363	keystroke_n	n	n/a
259.8015	0.105	519603	keystroke_t	t	n/a
259.8915	0.12	519783	keystroke_e	e	n/a
259.9815	0.0905	519963	keystroke_r	r	n/a
260.2065	0.045	520413	keystroke_s	s	n/a
260.3415	0.06	520683	keystroke_Key.space	Key.space	n/a
260.9415	0.09	521883	keystroke_a	a	n/a
261.0765	0.075	522153	keystroke_r	r	n/a
261.2265	0.075	522453	keystroke_r	r	n/a
261.3165	0.105	522633	keystroke_a	a	n/a
261.4665	0.12	522933	keystroke_n	n	n/a
261.6315	0.075	523263	keystroke_g	g	n/a
261.6765	0.09	523353	keystroke_e	e	n/a
261.8865	0.06	523773	keystroke_d	d	n/a
262.1265	0.075	524253	keystroke_Key.enter	Key.enter	n/a
262.2085	6.43	524417	prompt	n/a	sector determining ivory pizza\n
262.9215	0.09	525843	keystroke_s	s	n/a
263.056	0.0765	526112	keystroke_e	e	n/a
263.2065	0.0745	526413	keystroke_c	c	n/a
263.386	0.0605	526772	keystroke_t	t	n/a
263.4765	0.075	526953	keystroke_o	o	n/a
263.567	0.045	527134	keystroke_r	r	n/a
263.6865	0.06	527373	keystroke_Key.space	Key.space	n/a
264.4815	0.045	528963	keystroke_d	d	n/a
264.542	0.0145	529084	keystroke_e	e	n/a
264.961	0.075	529922	keystroke_t	t	n/a
265.051	0.105	530102	keystroke_e	e	n/a
265.141	0.06	530282	keystroke_r	r	n/a
265.262	0.089	530524	keystroke_m	m	n/a
265.4115	0.1055	530823	keystroke_i	i	n/a
265.486	0.0755	530972	keystroke_n	n	n/a
265.6215	0.12	531243	keystroke_i	i	n/a
265.6815	0.105	531363	keystroke_n	n	n/a
265.7715	0.045	531543	keystroke_g	g	n/a
265.8765	0.075	531753	keystroke_Key.space	Key.space	n/a
266.6865	0.09	533373	keystroke_i	i	n/a
266.8065	0.0755	533613	keystroke_v	v	n/a
266.9715	0.105	533943	keystroke_o	o	n/a
267.1515	0.06	534303	keystroke_r	r	n/a
267.3015	0.045	534603	keystroke_y	y	n/a
267.3765	0.075	534753	keystroke_Key.space	Key.space	n/a
267.6765	0.06	535353	keystroke_p	p	n/a
267.9165	0.075	535833	keystroke_i	i	n/a
267.9765	0.0605	535953	keystroke_z	z	n/a
268.126	0.045	536252	keystroke_z	z	n/a
268.2915	0.06	536583	keystroke_a	a	n/a
268.5465	0.09	537093	keystroke_Key.enter	Key.enter	n/a
268.641	8.817	537282	prompt	n/a	summaries scsi pregnant detection\n
269.402	0.06	538804	keystroke_s	s	n/a
269.4925	0.0745	538985	keystroke_u	u	n/a
269.701	0.03	539402	keystroke_m	m	n/a
269.791	0.075	539582	keystroke_m	m	n/a
269.8815	0.1195	539763	keystroke_a	a	n/a
269.9865	0.0605	539973	keystroke_r	r	n/a
270.091	0.09	540182	keystroke_i	i	n/a
270.197	0.104	540394	keystroke_e	e	n/a
270.3165	0.09	540633	keystroke_s	s	n/a
270.392	0.074	540784	keystroke_Key.space	Key.space	n/a
271.172	0.134	542344	keystroke_s	s	n/a
271.292	0.0745	542584	keystroke_c	c	n/a
271.4715	0.075	542943	keystroke_i	i	n/a
272.0415	0.06	544083	keystroke_Key.backspace	Key.backspace	n/a
272.2965	0.015	544593	keystroke_s	s	n/a
272.342	0.075	544684	keystroke_i	i	n/a
272.537	0.06	545074	keystroke_Key.space	Key.space	n/a
273.3765	0.0755	546753	keystroke_p	p	n/a
273.437	0.104	546874	keystroke_r	r	n/a
273.512	0.075	547024	keystroke_e	e	n/a
273.692	0.06	547384	keystroke_g	g	n/a
273.8565	0.0905	547713	keystroke_n	n	n/a
273.9915	0.075	547983	keystroke_a	a	n/a
274.0815	0.075	548163	keystroke_n	n	n/a
274.1865	0.06	548373	keystroke_t	t	n/a
274.2915	0.075	548583	keystroke_Key.space	Key.space	n/a
274.9365	0.075	549873	keystroke_d	d	n/a
275.5815	0.0895	551163	keystroke_e	e	n/a
275.807	0.0455	551614	keystroke_t	t	n/a
276.0015	0.1345	552003	keystroke_e	e	n/a
276.2715	0.0755	552543	keystroke_c	c	n/a
276.4815	0.03	552963	keystroke_t	t	n/a
276.632	0.39	553264	keystroke_i	i	n/a
276.8265	0.225	553653	keystroke_o	o	n/a
276.9315	0.195	553863	keystroke_n	n	n/a
277.3815	0.075	554763	keystroke_Key.enter	Key.enter	n/a
277.4605	5.593	554921	prompt	n/a	combining dancing ghana flows\n
278.162	0.074	556324	keystroke_c	c	n/a
278.267	0.12	556534	keystroke_o	o	n/a
278.342	0.089	556684	keystroke_m	m	n/a
278.5665	0.06	557133	keystroke_b	b	n/a
278.6715	0.105	557343	keystroke_i	i	n/a
278.7615	0.09	557523	keystroke_n	n	n/a
278.896	0.105	557792	keystroke_i	i	n/a
278.956	0.09	557912	keystroke_n	n	n/a
279.076	0.0605	558152	keystroke_g	g	n/a
279.197	0.0595	558394	keystroke_Key.space	Key.space	n/a
279.782	0.045	559564	keystroke_d	d	n/a
279.887	0.09	559774	keystroke_a	a	n/a
279.992	0.075	559984	keystroke_n	n	n/a
280.187	0.06	560374	keystroke_c	c	n/a
280.2765	0.1205	560553	keystroke_i	i	n/a
280.322	0.106	560644	keystroke_n	n	n/a
280.442	0.045	560884	keystroke_g	g	n/a
280.547	0.045	561094	keystroke_Key.space	Key.space	n/a
281.267	0.06	562534	keystroke_g	g	n/a
281.357	0.075	562714	keystroke_h	h	n/a
281.462	0.0595	562924	keystroke_a	a	n/a
281.5665	0.075	563133	keystroke_n	n	n/a
281.6425	0.059	563285	keystroke_a	a	n/a
281.7615	0.075	563523	keystroke_Key.space	Key.space	n/a
282.122	0.0445	564244	keystroke_f	f	n/a
282.1815	0.075	564363	keystroke_l	l	n/a
282.4065	0.03	564813	keystroke_o	o	n/a
282.4815	0.075	564963	keystroke_w	w	n/a
282.6915	0.06	565383	keystroke_s	s	n/a
282.9915	0.0605	565983	keystroke_Key.enter	Key.enter	n/a
283.057	9.1465	566114	prompt	n/a	combinations arrangement livestock commit\n
283.6515	0.0905	567303	keystroke_c	c	n/a
283.757	0.0895	567514	keystroke_o	o	n/a
283.802	0.1055	567604	keystroke_m	m	n/a
284.0415	0.031	568083	keystroke_b	b	n/a
284.1465	0.12	568293	keystroke_i	i	n/a
284.2215	0.09	568443	keystroke_n	n	n/a
284.2815	0.105	568563	keystroke_a	a	n/a
284.5065	0.09	569013	keystroke_t	t	n/a
284.7315	0.24	569463	keystroke_i	i	n/a
284.807	0.1345	569614	keystroke_o	o	n/a
284.8665	0.15	569733	keystroke_n	n	n/a
285.0175	0.089	570035	keystroke_s	s	n/a
285.137	0.0595	570274	keystroke_Key.space	Key.space	n/a
285.722	0.0895	571444	keystroke_a	a	n/a
285.8565	0.06	571713	keystroke_r	r	n/a
286.0065	0.075	572013	keystroke_r	r	n/a
286.1265	0.09	572253	keystroke_a	a	n/a
286.637	0.09	573274	keystroke_n	n	n/a
286.7115	0.1055	573423	keystroke_g	g	n/a
286.8015	0.076	573603	keystroke_e	e	n/a
286.9365	0.0905	573873	keystroke_m	m	n/a
287.027	0.0595	574054	keystroke_e	e	n/a
287.132	0.0745	574264	keystroke_n	n	n/a
287.2215	0.06	574443	keystroke_t	t	n/a
287.3415	0.06	574683	keystroke_Key.space	Key.space	n/a
287.927	0.09	575854	keystroke_l	l	n/a
288.0925	0.0745	576185	keystroke_i	i	n/a
288.182	0.09	576364	keystroke_v	v	n/a
288.272	0.06	576544	keystroke_e	e	n/a
288.4365	0.121	576873	keystroke_s	s	n/a
288.5265	0.06	577053	keystroke_t	t	n/a
288.6165	0.12	577233	keystroke_o	o	n/a
288.797	0.045	577594	keystroke_c	c	n/a
289.832	0.0745	579664	keystroke_k	k	n/a
289.9665	0.0605	579933	keystroke_Key.space	Key.space	n/a
290.9865	0.075	581973	keystroke_c	c	n/a
291.0765	0.09	582153	keystroke_o	o	n/a
291.2115	0.075	582423	keystroke_m	m	n/a
291.3465	0.0905	582693	keystroke_m	m	n/a
291.5115	0.09	583023	keystroke_i	i	n/a
291.631	0.045	583262	keystroke_t	t	n/a
292.1265	0.0755	584253	keystroke_Key.enter	Key.enter	n/a
292.2065	6.3265	584413	prompt	n/a	armor founder residents sleeps\n
292.8765	0.105	585753	keystroke_a	a	n/a
293.0115	0.0455	586023	keystroke_r	r	n/a
293.0715	0.0905	586143	keystroke_m	m	n/a
293.1765	0.09	586353	keystroke_o	o	n/a
293.2515	0.075	586503	keystroke_r	r	n/a
293.3715	0.075	586743	keystroke_Key.space	Key.space	n/a
293.656	0.0755	587312	keystroke_f	f	n/a
293.792	0.1045	587584	keystroke_u	u	n/a
294.2565	0.0305	588513	keystroke_Key.backspace	Key.backspace	n/a
294.6165	0.1355	589233	keystroke_o	o	n/a
294.722	0.105	589444	keystroke_u	u	n/a
294.932	0.075	589864	keystroke_n	n	n/a
294.962	0.075	589924	keystroke_d	d	n/a
295.142	0.09	590284	keystroke_e	e	n/a
295.217	0.075	590434	keystroke_r	r	n/a
295.307	0.06	590614	keystroke_Key.space	Key.space	n/a
295.9665	0.1055	591933	keystroke_r	r	n/a
296.057	0.06	592114	keystroke_e	e	n/a
296.1915	0.0905	592383	keystroke_s	s	n/a
296.2965	0.0755	592593	keystroke_i	i	n/a
296.4015	0.045	592803	keystroke_d	d	n/a
296.5525	0.045	593105	keystroke_e	e	n/a
296.6115	0.09	593223	keystroke_n	n	n/a
296.7165	0.09	593433	keystroke_t	t	n/a
296.8215	0.09	593643	keystroke_s	s	n/a
296.9715	0.06	593943	keystroke_Key.space	Key.space	n/a
297.6465	0.0905	595293	keystroke_s	s	n/a
297.7515	0.09	595503	keystroke_l	l	n/a
297.8565	0.045	595713	keystroke_e	e	n/a
298.0065	0.06	596013	keystroke_e	e	n/a
298.0965	0.1055	596193	keystroke_p	p	n/a
298.2165	0.0745	596433	keystroke_s	s	n/a
298.472	0.06	596944	keystroke_Key.enter	Key.enter	n/a
298.536	7.303	597072	prompt	n/a	marsh alot completing elsewhere\n
299.252	0.1045	598504	keystroke_m	m	n/a
299.3415	0.075	598683	keystroke_a	a	n/a
299.4015	0.0755	598803	keystroke_r	r	n/a
299.552	0.105	599104	keystroke_s	s	n/a
299.642	0.06	599284	keystroke_h	h	n/a
299.747	0.075	599494	keystroke_Key.space	Key.space	n/a
300.512	0.075	601024	keystroke_a	a	n/a
300.602	0.075	601204	keystroke_l	l	n/a
300.782	0.075	601564	keystroke_o	o	n/a
300.8865	0.06	601773	keystroke_t	t	n/a
301.006	0.0605	602012	keystroke_Key.space	Key.space	n/a
301.742	0.105	603484	keystroke_c	c	n/a
301.862	0.0895	603724	keystroke_o	o	n/a
301.9215	0.0605	603843	keystroke_m	m	n/a
302.072	0.0595	604144	keystroke_p	p	n/a
302.387	0.06	604774	keystroke_l	l	n/a
302.971	0.061	605942	keystroke_e	e	n/a
303.152	0.0595	606304	keystroke_t	t	n/a
303.257	0.09	606514	keystroke_i	i	n/a
303.5715	0.0905	607143	keystroke_n	n	n/a
303.6765	0.0605	607353	keystroke_g	g	n/a
303.782	0.075	607564	keystroke_Key.space	Key.space	n/a
304.5475	0.0745	609095	keystroke_e	e	n/a
304.697	0.09	609394	keystroke_l	l	n/a
304.801	0.106	609602	keystroke_s	s	n/a
304.907	0.119	609814	keystroke_e	e	n/a
305.162	0.074	610324	keystroke_w	w	n/a
305.266	0.061	610532	keystroke_h	h	n/a
305.342	0.074	610684	keystroke_e	e	n/a
305.4765	0.06	610953	keystroke_r	r	n/a
305.5065	0.075	611013	keystroke_e	e	n/a
305.7615	0.0755	611523	keystroke_Key.enter	Key.enter	n/a
305.842	6.4165	611684	prompt	n/a	thru jump panels least\n
306.6765	0.0605	613353	keystroke_t	t	n/a
306.7515	0.075	613503	keystroke_h	h	n/a
306.842	0.0595	613684	keystroke_r	r	n/a
307.0815	0.045	614163	keystroke_y	y	n/a
307.097	0.0445	614194	keystroke_u	u	n/a
307.502	0.045	615004	keystroke_Key.backspace	Key.backspace	n/a
307.622	0.075	615244	keystroke_Key.backspace	Key.backspace	n/a
307.757	0.09	615514	keystroke_u	u	n/a
308.7465	0.0755	617493	keystroke_Key.space	Key.space	n/a
308.897	0.0895	617794	keystroke_j	j	n/a
309.092	0.045	618184	keystroke_u	u	n/a
309.272	0.0745	618544	keystroke_m	m	n/a
309.392	0.09	618784	keystroke_p	p	n/a
309.617	0.045	619234	keystroke_Key.space	Key.space	n/a
310.367	0.075	620734	keystroke_p	p	n/a
310.456	0.0905	620912	keystroke_a	a	n/a
310.562	0.075	621124	keystroke_n	n	n/a
310.652	0.06	621304	keystroke_e	e	n/a
310.757	0.06	621514	keystroke_l	l	n/a
310.831	0.091	621662	keystroke_s	s	n/a
310.966	0.061	621932	keystroke_Key.space	Key.space	n/a
311.612	0.0895	623224	keystroke_l	l	n/a
311.6865	0.0755	623373	keystroke_e	e	n/a
311.777	0.12	623554	keystroke_a	a	n/a
311.8365	0.1655	623673	keystroke_s	s	n/a
311.972	0.0605	623944	keystroke_t	t	n/a
312.182	0.075	624364	keystroke_Key.enter	Key.enter	n/a
312.2615	6.777	624523	prompt	n/a	establish thunder good avon\n
313.067	0.0895	626134	keystroke_e	e	n/a
313.1715	0.015	626343	keystroke_s	s	n/a
313.2015	0.0745	626403	keystroke_t	t	n/a
313.2915	0.1055	626583	keystroke_a	a	n/a
313.471	0.091	626942	keystroke_b	b	n/a
313.697	0.09	627394	keystroke_l	l	n/a
313.922	0.075	627844	keystroke_i	i	n/a
314.012	0.075	628024	keystroke_s	s	n/a
314.117	0.075	628234	keystroke_h	h	n/a
314.237	0.075	628474	keystroke_Key.space	Key.space	n/a
314.897	0.06	629794	keystroke_t	t	n/a
315.002	0.075	630004	keystroke_h	h	n/a
315.137	0.105	630274	keystroke_u	u	n/a
315.227	0.12	630454	keystroke_n	n	n/a
315.302	0.075	630604	keystroke_d	d	n/a
315.482	0.105	630964	keystroke_e	e	n/a
315.557	0.075	631114	keystroke_r	r	n/a
315.662	0.06	631324	keystroke_Key.space	Key.space	n/a
315.797	0.06	631594	keystroke_g	g	n/a
315.872	0.06	631744	keystroke_o	o	n/a
315.977	0.1045	631954	keystroke_o	o	n/a
316.0965	0.06	632193	keystroke_d	d	n/a
316.202	0.075	632404	keystroke_Key.space	Key.space	n/a
316.2775	0.104	632555	keystroke_a	a	n/a
316.3965	0.061	632793	keystroke_v	v	n/a
316.5325	0.1495	633065	keystroke_i	i	n/a
316.637	0.0745	633274	keystroke_n	n	n/a
317.252	0.03	634504	keystroke_Key.backspace	Key.backspace	n/a
317.386	0.061	634772	keystroke_Key.backspace	Key.backspace	n/a
318.242	0.075	636484	keystroke_o	o	n/a
318.392	0.105	636784	keystroke_n	n	n/a
318.9615	0.075	637923	keystroke_Key.enter	Key.enter	n/a
319.0415	8.0665	638083	prompt	n/a	rabbit discharge prayer competent\n
319.7715	0.0755	639543	keystroke_r	r	n/a
319.877	0.09	639754	keystroke_a	a	n/a
319.997	0.075	639994	keystroke_b	b	n/a
320.132	0.105	640264	keystroke_b	b	n/a
320.342	0.075	640684	keystroke_i	i	n/a
320.477	0.06	640954	keystroke_t	t	n/a
320.567	0.075	641134	keystroke_Key.space	Key.space	n/a
320.9715	0.0755	641943	keystroke_d	d	n/a
321.1515	0.075	642303	keystroke_i	i	n/a
321.2565	0.105	642513	keystroke_s	s	n/a
321.3625	0.089	642725	keystroke_c	c	n/a
321.4665	0.091	642933	keystroke_h	h	n/a
321.5715	0.09	643143	keystroke_a	a	n/a
321.6625	0.059	643325	keystroke_r	r	n/a
321.8565	0.076	643713	keystroke_g	g	n/a
321.917	0.0895	643834	keystroke_e	e	n/a
322.0515	0.06	644103	keystroke_Key.space	Key.space	n/a
322.7265	0.0455	645453	keystroke_p	p	n/a
322.742	0.015	645484	keystroke_o	o	n/a
322.7865	0.0895	645573	keystroke_r	r	n/a
322.906	0.0905	645812	keystroke_a	a	n/a
323.3265	0.03	646653	keystroke_Key.backspace	Key.backspace	n/a
323.4465	0.0605	646893	keystroke_Key.backspace	Key.backspace	n/a
323.582	0.075	647164	keystroke_Key.backspace	Key.backspace	n/a
323.732	0.075	647464	keystroke_r	r	n/a
323.837	0.09	647674	keystroke_a	a	n/a
323.942	0.0895	647884	keystroke_y	y	n/a
324.0615	0.1055	648123	keystroke_e	e	n/a
324.1365	0.0605	648273	keystroke_r	r	n/a
324.272	0.06	648544	keystroke_Key.space	Key.space	n/a
324.857	0.09	649714	keystroke_c	c	n/a
324.992	0.105	649984	keystroke_o	o	n/a
325.067	0.09	650134	keystroke_m	m	n/a
325.547	0.075	651094	keystroke_p	p	n/a
325.831	0.0755	651662	keystroke_e	e	n/a
326.0715	0.0455	652143	keystroke_t	t	n/a
326.357	0.06	652714	keystroke_e	e	n/a
326.446	0.091	652892	keystroke_n	n	n/a
326.552	0.045	653104	keystroke_t	t	n/a
327.016	0.09	654032	keystroke_Key.enter	Key.enter	n/a
327.1115	7.3915	654223	prompt	n/a	girlfriend florists byte deeper\n
328.0515	0.015	656103	keystroke_f	f	n/a
328.4115	0.06	656823	keystroke_Key.backspace	Key.backspace	n/a
328.6665	0.075	657333	keystroke_g	g	n/a
328.7565	0.06	657513	keystroke_i	i	n/a
328.8615	0.0605	657723	keystroke_r	r	n/a
328.981	0.076	657962	keystroke_l	l	n/a
329.146	0.061	658292	keystroke_f	f	n/a
329.312	0.059	658624	keystroke_r	r	n/a
329.417	0.075	658834	keystroke_i	i	n/a
329.507	0.075	659014	keystroke_e	e	n/a
329.627	0.0745	659254	keystroke_n	n	n/a
329.7315	0.061	659463	keystroke_d	d	n/a
329.8065	0.06	659613	keystroke_Key.space	Key.space	n/a
330.542	0.045	661084	keystroke_f	f	n/a
330.602	0.075	661204	keystroke_l	l	n/a
330.827	0.06	661654	keystroke_o	o	n/a
330.947	0.0605	661894	keystroke_r	r	n/a
331.4865	0.06	662973	keystroke_i	i	n/a
331.577	0.1195	663154	keystroke_s	s	n/a
331.7115	0.06	663423	keystroke_t	t	n/a
331.8315	0.0755	663663	keystroke_s	s	n/a
331.9215	0.075	663843	keystroke_Key.space	Key.space	n/a
332.687	0.044	665374	keystroke_b	b	n/a
332.882	0.045	665764	keystroke_y	y	n/a
332.986	0.091	665972	keystroke_t	t	n/a
333.032	0.105	666064	keystroke_e	e	n/a
333.181	0.075	666362	keystroke_Key.space	Key.space	n/a
333.617	0.06	667234	keystroke_d	d	n/a
333.796	0.046	667592	keystroke_e	e	n/a
333.917	0.075	667834	keystroke_e	e	n/a
334.006	0.09	668012	keystroke_p	p	n/a
334.1265	0.0895	668253	keystroke_e	e	n/a
334.201	0.076	668402	keystroke_r	r	n/a
334.441	0.061	668882	keystroke_Key.enter	Key.enter	n/a
334.5085	6.5195	669017	prompt	n/a	waterproof chemistry drum logged\n
335.251	0.075	670502	keystroke_w	w	n/a
335.372	0.1045	670744	keystroke_a	a	n/a
335.4925	0.074	670985	keystroke_t	t	n/a
335.5825	0.119	671165	keystroke_e	e	n/a
335.6875	0.074	671375	keystroke_r	r	n/a
335.7765	0.075	671553	keystroke_p	p	n/a
335.8965	0.045	671793	keystroke_r	r	n/a
336.0015	0.045	672003	keystroke_o	o	n/a
336.1215	0.0755	672243	keystroke_o	o	n/a
336.212	0.059	672424	keystroke_f	f	n/a
336.557	0.0445	673114	keystroke_Key.space	Key.space	n/a
337.1265	0.105	674253	keystroke_c	c	n/a
337.247	0.0595	674494	keystroke_h	h	n/a
337.3365	0.075	674673	keystroke_e	e	n/a
337.4415	0.09	674883	keystroke_m	m	n/a
337.5915	0.075	675183	keystroke_i	i	n/a
337.6965	0.09	675393	keystroke_s	s	n/a
337.801	0.06	675602	keystroke_t	t	n/a
337.9515	0.0745	675903	keystroke_r	r	n/a
338.056	0.06	676112	keystroke_y	y	n/a
338.161	0.045	676322	keystroke_Key.space	Key.space	n/a
338.821	0.075	677642	keystroke_d	d	n/a
338.971	0.06	677942	keystroke_r	r	n/a
339.032	0.089	678064	keystroke_u	u	n/a
339.257	0.09	678514	keystroke_m	m	n/a
339.361	0.061	678722	keystroke_Key.space	Key.space	n/a
340.037	0.09	680074	keystroke_l	l	n/a
340.262	0.06	680524	keystroke_o	o	n/a
340.382	0.06	680764	keystroke_g	g	n/a
340.517	0.0745	681034	keystroke_g	g	n/a
340.6065	0.075	681213	keystroke_e	e	n/a
340.7715	0.06	681543	keystroke_d	d	n/a
340.967	0.0595	681934	keystroke_Key.enter	Key.enter	n/a
341.0315	4.662	682063	prompt	n/a	rent her grass resistance\n
341.8065	0.0905	683613	keystroke_r	r	n/a
341.8665	0.0895	683733	keystroke_e	e	n/a
342.001	0.106	684002	keystroke_n	n	n/a
342.361	0.046	684722	keystroke_t	t	n/a
342.526	0.076	685052	keystroke_Key.space	Key.space	n/a
342.721	0.076	685442	keystroke_h	h	n/a
342.811	0.105	685622	keystroke_e	e	n/a
342.887	0.075	685774	keystroke_r	r	n/a
342.977	0.075	685954	keystroke_Key.space	Key.space	n/a
343.186	0.045	686372	keystroke_g	g	n/a
343.352	0.059	686704	keystroke_r	r	n/a
343.427	0.09	686854	keystroke_a	a	n/a
343.6365	0.0305	687273	keystroke_s	s	n/a
343.771	0.046	687542	keystroke_s	s	n/a
343.8315	0.09	687663	keystroke_Key.space	Key.space	n/a
344.0115	0.075	688023	keystroke_r	r	n/a
344.0565	0.09	688113	keystroke_e	e	n/a
344.3565	0.09	688713	keystroke_s	s	n/a
344.5365	0.0755	689073	keystroke_i	i	n/a
344.642	0.105	689284	keystroke_s	s	n/a
344.777	0.075	689554	keystroke_t	t	n/a
345.047	0.075	690094	keystroke_a	a	n/a
345.137	0.09	690274	keystroke_n	n	n/a
345.272	0.09	690544	keystroke_c	c	n/a
345.363	0.059	690726	keystroke_e	e	n/a
345.632	0.0595	691264	keystroke_Key.enter	Key.enter	n/a
345.696	7.212	691392	prompt	n/a	sublime highway poker acrylic\n
346.412	0.075	692824	keystroke_s	s	n/a
346.592	0.075	693184	keystroke_u	u	n/a
346.922	0.09	693844	keystroke_b	b	n/a
347.117	0.1195	694234	keystroke_l	l	n/a
347.3115	0.1055	694623	keystroke_i	i	n/a
347.462	0.119	694924	keystroke_m	m	n/a
347.596	0.06	695192	keystroke_e	e	n/a
347.731	0.045	695462	keystroke_Key.space	Key.space	n/a
348.347	0.06	696694	keystroke_h	h	n/a
348.437	0.09	696874	keystroke_i	i	n/a
348.572	0.075	697144	keystroke_g	g	n/a
348.662	0.075	697324	keystroke_h	h	n/a
348.752	0.09	697504	keystroke_w	w	n/a
348.902	0.0745	697804	keystroke_a	a	n/a
348.9915	0.06	697983	keystroke_y	y	n/a
349.097	0.0595	698194	keystroke_Key.space	Key.space	n/a
350.0565	0.0905	700113	keystroke_p	p	n/a
350.327	0.135	700654	keystroke_o	o	n/a
350.432	0.12	700864	keystroke_k	k	n/a
350.612	0.135	701224	keystroke_e	e	n/a
350.717	0.09	701434	keystroke_r	r	n/a
350.852	0.09	701704	keystroke_Key.space	Key.space	n/a
351.527	0.06	703054	keystroke_a	a	n/a
351.5715	0.091	703143	keystroke_c	c	n/a
351.7965	0.045	703593	keystroke_r	r	n/a
351.9315	0.075	703863	keystroke_y	y	n/a
352.1875	0.0895	704375	keystroke_l	l	n/a
352.382	0.06	704764	keystroke_i	i	n/a
352.457	0.06	704914	keystroke_c	c	n/a
352.847	0.06	705694	keystroke_Key.enter	Key.enter	n/a
352.9105	8.2325	705821	prompt	n/a	johnson performance stock achieved\n
353.6865	0.12	707373	keystroke_j	j	n/a
353.8515	0.12	707703	keystroke_o	o	n/a
353.9565	0.09	707913	keystroke_h	h	n/a
354.137	0.075	708274	keystroke_n	n	n/a
354.2565	0.075	708513	keystroke_s	s	n/a
354.3465	0.105	708693	keystroke_o	o	n/a
354.3915	0.105	708783	keystroke_n	n	n/a
354.4975	0.074	708995	keystroke_Key.space	Key.space	n/a
355.0065	0.06	710013	keystroke_p	p	n/a
355.0815	0.1045	710163	keystroke_e	e	n/a
355.156	0.09	710312	keystroke_r	r	n/a
355.6515	0.0455	711303	keystroke_f	f	n/a
355.9065	0.0605	711813	keystroke_r	r	n/a
356.2815	0.09	712563	keystroke_Key.backspace	Key.backspace	n/a
356.552	0.075	713104	keystroke_o	o	n/a
356.6715	0.075	713343	keystroke_r	r	n/a
356.8065	0.09	713613	keystroke_m	m	n/a
356.9115	0.075	713823	keystroke_a	a	n/a
357.0315	0.0755	714063	keystroke_n	n	n/a
357.1365	0.15	714273	keystroke_c	c	n/a
357.2715	0.075	714543	keystroke_e	e	n/a
357.377	0.06	714754	keystroke_Key.space	Key.space	n/a
357.9765	0.045	715953	keystroke_s	s	n/a
358.2015	0.045	716403	keystroke_t	t	n/a
358.2915	0.09	716583	keystroke_o	o	n/a
358.4265	0.06	716853	keystroke_c	c	n/a
358.4875	0.0745	716975	keystroke_k	k	n/a
358.6065	0.0755	717213	keystroke_Key.space	Key.space	n/a
359.3115	0.105	718623	keystroke_a	a	n/a
359.507	0.09	719014	keystroke_c	c	n/a
359.597	0.135	719194	keystroke_h	h	n/a
359.687	0.105	719374	keystroke_i	i	n/a
359.777	0.075	719554	keystroke_e	e	n/a
359.942	0.1045	719884	keystroke_v	v	n/a
360.032	0.0745	720064	keystroke_e	e	n/a
360.182	0.09	720364	keystroke_d	d	n/a
361.0665	0.0755	722133	keystroke_Key.enter	Key.enter	n/a
361.1465	9.4765	722293	prompt	n/a	independent exclusion religions clips\n
363.0165	0.1205	726033	keystroke_i	i	n/a
363.0765	0.105	726153	keystroke_n	n	n/a
363.1515	0.0905	726303	keystroke_d	d	n/a
363.332	0.0745	726664	keystroke_e	e	n/a
363.4515	0.0455	726903	keystroke_p	p	n/a
363.5265	0.075	727053	keystroke_e	e	n/a
364.172	0.135	728344	keystroke_n	n	n/a
364.322	0.045	728644	keystroke_d	d	n/a
364.517	0.075	729034	keystroke_e	e	n/a
364.697	0.105	729394	keystroke_n	n	n/a
364.847	0.06	729694	keystroke_t	t	n/a
364.937	0.0745	729874	keystroke_Key.space	Key.space	n/a
365.716	0.09	731432	keystroke_e	e	n/a
365.941	0.075	731882	keystroke_x	x	n/a
366.152	0.059	732304	keystroke_c	c	n/a
366.226	0.1205	732452	keystroke_l	l	n/a
366.3915	0.0905	732783	keystroke_u	u	n/a
366.4825	0.089	732965	keystroke_s	s	n/a
366.6315	0.3	733263	keystroke_i	i	n/a
366.752	0.1495	733504	keystroke_o	o	n/a
366.812	0.165	733624	keystroke_n	n	n/a
366.947	0.075	733894	keystroke_Key.space	Key.space	n/a
367.6365	0.135	735273	keystroke_r	r	n/a
367.7115	0.1205	735423	keystroke_e	e	n/a
367.906	0.1055	735812	keystroke_l	l	n/a
368.117	0.0745	736234	keystroke_i	i	n/a
368.221	0.0755	736442	keystroke_g	g	n/a
368.357	0.329	736714	keystroke_i	i	n/a
368.5215	0.1505	737043	keystroke_o	o	n/a
368.5825	0.164	737165	keystroke_n	n	n/a
368.7315	0.1045	737463	keystroke_s	s	n/a
368.867	0.074	737734	keystroke_Key.space	Key.space	n/a
369.542	0.0595	739084	keystroke_c	c	n/a
369.6165	0.105	739233	keystroke_l	l	n/a
369.797	0.09	739594	keystroke_i	i	n/a
370.007	0.09	740014	keystroke_p	p	n/a
370.112	0.09	740224	keystroke_s	s	n/a
370.547	0.075	741094	keystroke_Key.enter	Key.enter	n/a
370.626	5.127	741252	prompt	n/a	fallen planet tune democratic\n
371.2215	0.076	742443	keystroke_f	f	n/a
371.3115	0.09	742623	keystroke_a	a	n/a
371.4165	0.0745	742833	keystroke_l	l	n/a
371.582	0.0595	743164	keystroke_l	l	n/a
371.701	0.061	743402	keystroke_e	e	n/a
371.791	0.1055	743582	keystroke_n	n	n/a
371.9115	0.075	743823	keystroke_Key.space	Key.space	n/a
372.092	0.0745	744184	keystroke_p	p	n/a
372.3465	0.09	744693	keystroke_l	l	n/a
372.4515	0.075	744903	keystroke_a	a	n/a
372.5715	0.075	745143	keystroke_n	n	n/a
372.6615	0.136	745323	keystroke_e	e	n/a
372.767	0.0745	745534	keystroke_t	t	n/a
372.8265	0.09	745653	keystroke_Key.space	Key.space	n/a
373.0515	0.0605	746103	keystroke_t	t	n/a
373.127	0.075	746254	keystroke_u	u	n/a
373.322	0.074	746644	keystroke_n	n	n/a
373.397	0.074	746794	keystroke_e	e	n/a
373.502	0.075	747004	keystroke_Key.space	Key.space	n/a
373.937	0.075	747874	keystroke_d	d	n/a
374.102	0.075	748204	keystroke_e	e	n/a
374.1925	0.1185	748385	keystroke_m	m	n/a
374.326	0.0755	748652	keystroke_o	o	n/a
374.7165	0.045	749433	keystroke_c	c	n/a
374.867	0.0745	749734	keystroke_r	r	n/a
374.9565	0.1205	749913	keystroke_a	a	n/a
375.092	0.0595	750184	keystroke_t	t	n/a
375.2115	0.105	750423	keystroke_i	i	n/a
375.3315	0.045	750663	keystroke_c	c	n/a
375.692	0.06	751384	keystroke_Key.enter	Key.enter	n/a
375.7565	7.197	751513	prompt	n/a	musical vitamin compounds wired\n
376.622	0.0895	753244	keystroke_m	m	n/a
376.8315	0.0605	753663	keystroke_u	u	n/a
376.922	0.09	753844	keystroke_s	s	n/a
377.042	0.09	754084	keystroke_i	i	n/a
377.132	0.12	754264	keystroke_c	c	n/a
377.222	0.075	754444	keystroke_a	a	n/a
377.357	0.045	754714	keystroke_l	l	n/a
377.462	0.0745	754924	keystroke_Key.space	Key.space	n/a
378.3615	0.105	756723	keystroke_v	v	n/a
378.482	0.06	756964	keystroke_i	i	n/a
378.5875	0.074	757175	keystroke_t	t	n/a
378.707	0.06	757414	keystroke_a	a	n/a
378.992	0.105	757984	keystroke_m	m	n/a
379.187	0.135	758374	keystroke_i	i	n/a
379.247	0.105	758494	keystroke_n	n	n/a
379.3665	0.09	758733	keystroke_Key.space	Key.space	n/a
379.862	0.045	759724	keystroke_c	c	n/a
379.937	0.1195	759874	keystroke_o	o	n/a
380.012	0.0895	760024	keystroke_m	m	n/a
380.1615	0.076	760323	keystroke_p	p	n/a
380.402	0.075	760804	keystroke_o	o	n/a
380.462	0.075	760924	keystroke_u	u	n/a
380.672	0.09	761344	keystroke_n	n	n/a
380.792	0.075	761584	keystroke_d	d	n/a
381.242	0.075	762484	keystroke_s	s	n/a
381.377	0.075	762754	keystroke_Key.space	Key.space	n/a
381.8715	0.075	763743	keystroke_w	w	n/a
381.9765	0.0905	763953	keystroke_i	i	n/a
382.0675	0.104	764135	keystroke_r	r	n/a
382.127	0.0895	764254	keystroke_e	e	n/a
382.337	0.06	764674	keystroke_d	d	n/a
382.8615	0.0905	765723	keystroke_Key.enter	Key.enter	n/a
382.957	6.1015	765914	prompt	n/a	keeps there'd extra summer\n
383.5815	0.075	767163	keystroke_k	k	n/a
383.7015	0.0755	767403	keystroke_e	e	n/a
384.0315	0.076	768063	keystroke_e	e	n/a
384.2115	0.09	768423	keystroke_p	p	n/a
384.3465	0.075	768693	keystroke_s	s	n/a
384.452	0.06	768904	keystroke_Key.space	Key.space	n/a
384.872	0.06	769744	keystroke_t	t	n/a
384.917	0.075	769834	keystroke_h	h	n/a
384.977	0.075	769954	keystroke_e	e	n/a
385.067	0.105	770134	keystroke_r	r	n/a
385.127	0.09	770254	keystroke_e	e	n/a
385.9515	0.09	771903	keystroke_'	'	n/a
386.0715	0.0455	772143	keystroke_d	d	n/a
386.1615	0.0755	772323	keystroke_Key.space	Key.space	n/a
387.077	0.0445	774154	keystroke_e	e	n/a
387.242	0.0895	774484	keystroke_x	x	n/a
387.4065	0.015	774813	keystroke_t	t	n/a
387.512	0.105	775024	keystroke_r	r	n/a
387.632	0.075	775264	keystroke_a	a	n/a
387.752	0.075	775504	keystroke_Key.space	Key.space	n/a
387.857	0.075	775714	keystroke_s	s	n/a
387.977	0.06	775954	keystroke_u	u	n/a
388.156	0.061	776312	keystroke_m	m	n/a
388.2765	0.075	776553	keystroke_m	m	n/a
388.3665	0.105	776733	keystroke_e	e	n/a
388.4565	0.075	776913	keystroke_r	r	n/a
388.982	0.075	777964	keystroke_Key.enter	Key.enter	n/a
389.0615	8.652	778123	prompt	n/a	never east aggregate stone\n
391.849	0.0135	783698	keystroke_n	n	n/a
391.8625	0.074	783725	keystroke_e	e	n/a
392.0115	0.075	784023	keystroke_v	v	n/a
392.102	0.1495	784204	keystroke_e	e	n/a
392.2375	0.0745	784475	keystroke_r	r	n/a
392.3265	0.0755	784653	keystroke_Key.space	Key.space	n/a
392.4465	0.09	784893	keystroke_e	e	n/a
392.5515	0.1205	785103	keystroke_a	a	n/a
392.6115	0.165	785223	keystroke_s	s	n/a
392.7315	0.0755	785463	keystroke_t	t	n/a
392.8215	0.105	785643	keystroke_Key.space	Key.space	n/a
393.0915	0.12	786183	keystroke_a	a	n/a
393.2715	0.0605	786543	keystroke_g	g	n/a
393.4665	0.1055	786933	keystroke_r	r	n/a
393.5865	0.075	787173	keystroke_r	r	n/a
394.036	0.0605	788072	keystroke_Key.backspace	Key.backspace	n/a
394.171	0.06	788342	keystroke_Key.backspace	Key.backspace	n/a
394.367	0.074	788734	keystroke_g	g	n/a
394.547	0.105	789094	keystroke_r	r	n/a
394.636	0.075	789272	keystroke_e	e	n/a
395.5815	0.061	791163	keystroke_g	g	n/a
395.6115	0.15	791223	keystroke_a	a	n/a
396.182	0.09	792364	keystroke_t	t	n/a
396.272	0.06	792544	keystroke_e	e	n/a
396.377	0.074	792754	keystroke_Key.space	Key.space	n/a
396.8415	0.076	793683	keystroke_s	s	n/a
396.9615	0.075	793923	keystroke_t	t	n/a
397.0515	0.12	794103	keystroke_o	o	n/a
397.1125	0.119	794225	keystroke_n	n	n/a
397.2175	0.059	794435	keystroke_e	e	n/a
397.6365	0.075	795273	keystroke_Key.enter	Key.enter	n/a
397.7165	4.4515	795433	prompt	n/a	click disco verizon lost\n
398.447	0.074	796894	keystroke_c	c	n/a
398.506	0.105	797012	keystroke_l	l	n/a
398.6715	0.0905	797343	keystroke_i	i	n/a
398.777	0.09	797554	keystroke_c	c	n/a
398.837	0.09	797674	keystroke_k	k	n/a
398.9725	0.0745	797945	keystroke_Key.space	Key.space	n/a
399.062	0.0755	798124	keystroke_d	d	n/a
399.197	0.0745	798394	keystroke_i	i	n/a
399.2565	0.075	798513	keystroke_s	s	n/a
399.3915	0.06	798783	keystroke_c	c	n/a
399.482	0.09	798964	keystroke_o	o	n/a
399.602	0.075	799204	keystroke_Key.space	Key.space	n/a
400.277	0.045	800554	keystroke_v	v	n/a
400.367	0.105	800734	keystroke_e	e	n/a
400.442	0.09	800884	keystroke_r	r	n/a
400.5465	0.075	801093	keystroke_i	i	n/a
400.6525	0.074	801305	keystroke_z	z	n/a
400.7565	0.09	801513	keystroke_o	o	n/a
400.817	0.0895	801634	keystroke_n	n	n/a
400.9215	0.06	801843	keystroke_Key.space	Key.space	n/a
401.3865	0.045	802773	keystroke_l	l	n/a
401.5965	0.15	803193	keystroke_o	o	n/a
401.7315	0.1205	803463	keystroke_s	s	n/a
401.807	0.0895	803614	keystroke_t	t	n/a
402.107	0.0595	804214	keystroke_Key.enter	Key.enter	n/a
402.1705	4.183	804341	prompt	n/a	gimme rico cities harmful\n
402.8265	0.061	805653	keystroke_g	g	n/a
402.9765	0.0605	805953	keystroke_i	i	n/a
403.112	0.075	806224	keystroke_m	m	n/a
403.247	0.075	806494	keystroke_m	m	n/a
403.322	0.09	806644	keystroke_e	e	n/a
403.442	0.075	806884	keystroke_Key.space	Key.space	n/a
403.577	0.06	807154	keystroke_r	r	n/a
403.697	0.075	807394	keystroke_i	i	n/a
403.802	0.09	807604	keystroke_c	c	n/a
403.907	0.075	807814	keystroke_o	o	n/a
404.027	0.0595	808054	keystroke_Key.space	Key.space	n/a
404.2215	0.0905	808443	keystroke_c	c	n/a
404.3415	0.075	808683	keystroke_i	i	n/a
404.4465	0.0755	808893	keystroke_t	t	n/a
404.537	0.075	809074	keystroke_i	i	n/a
404.642	0.135	809284	keystroke_e	e	n/a
404.732	0.12	809464	keystroke_s	s	n/a
404.837	0.06	809674	keystroke_Key.space	Key.space	n/a
405.2865	0.075	810573	keystroke_h	h	n/a
405.3465	0.105	810693	keystroke_a	a	n/a
405.4365	0.075	810873	keystroke_r	r	n/a
405.527	0.075	811054	keystroke_m	m	n/a
405.692	0.03	811384	keystroke_f	f	n/a
405.797	0.0905	811594	keystroke_u	u	n/a
405.9165	0.105	811833	keystroke_l	l	n/a
406.2915	0.06	812583	keystroke_Key.enter	Key.enter	n/a
406.3575	6.491	812715	prompt	n/a	clear purchasing trying screensavers\n
407.0265	0.105	814053	keystroke_c	c	n/a
407.2065	0.09	814413	keystroke_l	l	n/a
407.3115	0.1055	814623	keystroke_e	e	n/a
407.387	0.105	814774	keystroke_a	a	n/a
407.477	0.06	814954	keystroke_r	r	n/a
407.551	0.0905	815102	keystroke_Key.space	Key.space	n/a
407.7615	0.06	815523	keystroke_p	p	n/a
407.9115	0.075	815823	keystroke_u	u	n/a
408.002	0.0595	816004	keystroke_r	r	n/a
408.2415	0.09	816483	keystroke_c	c	n/a
408.3615	0.105	816723	keystroke_h	h	n/a
408.4965	0.15	816993	keystroke_a	a	n/a
408.617	0.12	817234	keystroke_s	s	n/a
408.752	0.1195	817504	keystroke_i	i	n/a
408.827	0.1045	817654	keystroke_n	n	n/a
408.9015	0.09	817803	keystroke_g	g	n/a
409.0365	0.075	818073	keystroke_Key.space	Key.space	n/a
409.667	0.045	819334	keystroke_t	t	n/a
409.817	0.06	819634	keystroke_r	r	n/a
409.952	0.09	819904	keystroke_y	y	n/a
410.2075	0.0895	820415	keystroke_i	i	n/a
410.237	0.1045	820474	keystroke_n	n	n/a
410.3575	0.0435	820715	keystroke_g	g	n/a
410.506	0.0905	821012	keystroke_Key.space	Key.space	n/a
411.122	0.09	822244	keystroke_s	s	n/a
411.2865	0.0755	822573	keystroke_c	c	n/a
411.482	0.06	822964	keystroke_r	r	n/a
411.632	0.0445	823264	keystroke_e	e	n/a
411.767	0.06	823534	keystroke_e	e	n/a
411.842	0.0745	823684	keystroke_n	n	n/a
411.9625	0.044	823925	keystroke_s	s	n/a
412.0665	0.1205	824133	keystroke_a	a	n/a
412.2015	0.06	824403	keystroke_v	v	n/a
412.2915	0.12	824583	keystroke_e	e	n/a
412.3965	0.105	824793	keystroke_r	r	n/a
412.5025	0.089	825005	keystroke_s	s	n/a
412.7715	0.075	825543	keystroke_Key.enter	Key.enter	n/a
412.8515	8.3215	825703	prompt	n/a	tutorials jimmy password mood\n
413.582	0.045	827164	keystroke_t	t	n/a
413.717	0.09	827434	keystroke_u	u	n/a
413.792	0.075	827584	keystroke_t	t	n/a
414.047	0.0895	828094	keystroke_o	o	n/a
414.2575	0.059	828515	keystroke_i	i	n/a
414.3325	0.089	828665	keystroke_r	r	n/a
414.812	0.045	829624	keystroke_Key.backspace	Key.backspace	n/a
414.932	0.075	829864	keystroke_Key.backspace	Key.backspace	n/a
415.052	0.06	830104	keystroke_r	r	n/a
415.172	0.06	830344	keystroke_i	i	n/a
415.382	0.0595	830764	keystroke_l	l	n/a
415.457	0.1355	830914	keystroke_a	a	n/a
415.5925	0.0895	831185	keystroke_s	s	n/a
416.027	0.03	832054	keystroke_Key.backspace	Key.backspace	n/a
416.2215	0.015	832443	keystroke_Key.backspace	Key.backspace	n/a
416.282	0.0755	832564	keystroke_Key.backspace	Key.backspace	n/a
416.371	0.076	832742	keystroke_a	a	n/a
416.4925	0.0895	832985	keystroke_l	l	n/a
416.6275	0.0435	833255	keystroke_s	s	n/a
416.7165	0.06	833433	keystroke_Key.space	Key.space	n/a
417.347	0.12	834694	keystroke_j	j	n/a
417.512	0.1045	835024	keystroke_i	i	n/a
417.6915	0.075	835383	keystroke_m	m	n/a
417.8265	0.075	835653	keystroke_m	m	n/a
418.0375	0.0445	836075	keystroke_y	y	n/a
418.112	0.09	836224	keystroke_Key.space	Key.space	n/a
418.667	0.165	837334	keystroke_p	p	n/a
418.847	0.015	837694	keystroke_a	a	n/a
418.892	0.06	837784	keystroke_s	s	n/a
419.012	0.06	838024	keystroke_s	s	n/a
419.207	0.06	838414	keystroke_w	w	n/a
419.3575	0.0745	838715	keystroke_o	o	n/a
419.5375	0.104	839075	keystroke_r	r	n/a
419.6715	0.106	839343	keystroke_d	d	n/a
419.8665	0.06	839733	keystroke_Key.space	Key.space	n/a
420.4215	0.075	840843	keystroke_m	m	n/a
420.5865	0.061	841173	keystroke_o	o	n/a
420.707	0.0895	841414	keystroke_o	o	n/a
420.7815	0.075	841563	keystroke_d	d	n/a
421.112	0.06	842224	keystroke_Key.enter	Key.enter	n/a
421.1765	7.8875	842353	prompt	n/a	ocean organization basement cardiff\n
421.8615	0.075	843723	keystroke_o	o	n/a
421.982	0.1345	843964	keystroke_c	c	n/a
422.1015	0.09	844203	keystroke_e	e	n/a
422.1765	0.09	844353	keystroke_a	a	n/a
422.2515	0.0905	844503	keystroke_n	n	n/a
422.357	0.075	844714	keystroke_Key.space	Key.space	n/a
422.882	0.075	845764	keystroke_o	o	n/a
423.032	0.09	846064	keystroke_r	r	n/a
423.287	0.06	846574	keystroke_g	g	n/a
423.422	0.075	846844	keystroke_a	a	n/a
423.542	0.09	847084	keystroke_n	n	n/a
423.677	0.0745	847354	keystroke_i	i	n/a
423.782	0.075	847564	keystroke_z	z	n/a
423.977	0.1045	847954	keystroke_a	a	n/a
424.097	0.0895	848194	keystroke_t	t	n/a
424.2315	0.211	848463	keystroke_i	i	n/a
424.2925	0.134	848585	keystroke_o	o	n/a
424.3515	0.136	848703	keystroke_n	n	n/a
424.5615	0.075	849123	keystroke_Key.space	Key.space	n/a
425.237	0.06	850474	keystroke_b	b	n/a
425.312	0.09	850624	keystroke_a	a	n/a
425.372	0.12	850744	keystroke_s	s	n/a
425.447	0.09	850894	keystroke_e	e	n/a
425.552	0.075	851104	keystroke_m	m	n/a
425.657	0.06	851314	keystroke_e	e	n/a
425.747	0.06	851494	keystroke_n	n	n/a
425.837	0.075	851674	keystroke_t	t	n/a
425.927	0.075	851854	keystroke_Key.space	Key.space	n/a
426.377	0.075	852754	keystroke_c	c	n/a
427.007	0.03	854014	keystroke_Key.backspace	Key.backspace	n/a
427.4715	0.091	854943	keystroke_c	c	n/a
427.5775	0.0895	855155	keystroke_a	a	n/a
427.682	0.075	855364	keystroke_r	r	n/a
427.982	0.075	855964	keystroke_d	d	n/a
428.207	0.075	856414	keystroke_i	i	n/a
428.417	0.045	856834	keystroke_f	f	n/a
428.552	0.06	857104	keystroke_f	f	n/a
429.002	0.06	858004	keystroke_Key.enter	Key.enter	n/a
429.0665	4.1975	858133	prompt	n/a	acer brown sets browsing\n
429.797	0.105	859594	keystroke_a	a	n/a
429.932	0.0895	859864	keystroke_c	c	n/a
430.0975	0.119	860195	keystroke_e	e	n/a
430.172	0.0895	860344	keystroke_r	r	n/a
430.2915	0.09	860583	keystroke_Key.space	Key.space	n/a
430.4725	0.0745	860945	keystroke_b	b	n/a
430.5615	0.06	861123	keystroke_r	r	n/a
430.6665	0.0605	861333	keystroke_o	o	n/a
430.7415	0.09	861483	keystroke_w	w	n/a
430.8165	0.121	861633	keystroke_n	n	n/a
430.9215	0.0755	861843	keystroke_Key.space	Key.space	n/a
431.042	0.1045	862084	keystroke_s	s	n/a
431.1315	0.1055	862263	keystroke_e	e	n/a
431.2225	0.149	862445	keystroke_t	t	n/a
431.3565	0.1355	862713	keystroke_s	s	n/a
431.477	0.075	862954	keystroke_Key.space	Key.space	n/a
432.122	0.09	864244	keystroke_b	b	n/a
432.227	0.075	864454	keystroke_r	r	n/a
432.347	0.06	864694	keystroke_o	o	n/a
432.422	0.075	864844	keystroke_w	w	n/a
432.602	0.0595	865204	keystroke_s	s	n/a
432.6915	0.1055	865383	keystroke_i	i	n/a
432.767	0.105	865534	keystroke_n	n	n/a
432.857	0.045	865714	keystroke_g	g	n/a
433.202	0.06	866404	keystroke_Key.enter	Key.enter	n/a
433.2665	8.022	866533	prompt	n/a	assistant airline arrival evaluate\n
433.832	0.0455	867664	keystroke_s	s	n/a
433.9515	0.09	867903	keystroke_a	a	n/a
434.252	0.075	868504	keystroke_Key.backspace	Key.backspace	n/a
434.387	0.0745	868774	keystroke_Key.backspace	Key.backspace	n/a
434.5675	0.074	869135	keystroke_a	a	n/a
434.7015	0.061	869403	keystroke_s	s	n/a
434.8515	0.06	869703	keystroke_s	s	n/a
434.9575	0.074	869915	keystroke_i	i	n/a
435.0475	0.074	870095	keystroke_s	s	n/a
435.1525	0.059	870305	keystroke_t	t	n/a
435.2575	0.06	870515	keystroke_a	a	n/a
435.3465	0.09	870693	keystroke_n	n	n/a
435.6925	0.0445	871385	keystroke_t	t	n/a
435.767	0.075	871534	keystroke_Key.space	Key.space	n/a
436.517	0.06	873034	keystroke_a	a	n/a
436.652	0.06	873304	keystroke_i	i	n/a
436.742	0.075	873484	keystroke_r	r	n/a
437.117	0.075	874234	keystroke_l	l	n/a
437.342	0.06	874684	keystroke_i	i	n/a
437.462	0.09	874924	keystroke_n	n	n/a
437.597	0.0605	875194	keystroke_e	e	n/a
437.702	0.044	875404	keystroke_Key.space	Key.space	n/a
438.152	0.09	876304	keystroke_a	a	n/a
438.272	0.075	876544	keystroke_r	r	n/a
438.407	0.075	876814	keystroke_r	r	n/a
438.526	0.0915	877052	keystroke_i	i	n/a
438.6765	0.075	877353	keystroke_v	v	n/a
438.7825	0.09	877565	keystroke_a	a	n/a
438.8565	0.076	877713	keystroke_l	l	n/a
439.247	0.075	878494	keystroke_Key.space	Key.space	n/a
439.966	0.0755	879932	keystroke_e	e	n/a
440.162	0.075	880324	keystroke_v	v	n/a
440.267	0.09	880534	keystroke_a	a	n/a
440.417	0.09	880834	keystroke_l	l	n/a
440.567	0.09	881134	keystroke_u	u	n/a
440.702	0.15	881404	keystroke_a	a	n/a
440.822	0.165	881644	keystroke_t	t	n/a
440.942	0.12	881884	keystroke_e	e	n/a
441.227	0.06	882454	keystroke_Key.enter	Key.enter	n/a
441.2915	6.897	882583	prompt	n/a	cdna synthesis informed runtime\n
442.1115	0.06	884223	keystroke_c	c	n/a
442.3515	0.075	884703	keystroke_d	d	n/a
442.637	0.09	885274	keystroke_n	n	n/a
442.742	0.06	885484	keystroke_a	a	n/a
442.847	0.06	885694	keystroke_Key.space	Key.space	n/a
443.567	0.075	887134	keystroke_s	s	n/a
443.717	0.06	887434	keystroke_y	y	n/a
443.912	0.075	887824	keystroke_n	n	n/a
444.032	0.06	888064	keystroke_t	t	n/a
444.167	0.075	888334	keystroke_h	h	n/a
444.182	0.09	888364	keystroke_e	e	n/a
444.617	0.045	889234	keystroke_s	s	n/a
444.692	0.075	889384	keystroke_i	i	n/a
444.752	0.09	889504	keystroke_s	s	n/a
444.902	0.06	889804	keystroke_Key.space	Key.space	n/a
445.532	0.105	891064	keystroke_i	i	n/a
445.6215	0.075	891243	keystroke_n	n	n/a
445.7115	0.075	891423	keystroke_f	f	n/a
445.817	0.0745	891634	keystroke_o	o	n/a
445.9225	0.059	891845	keystroke_r	r	n/a
445.967	0.09	891934	keystroke_m	m	n/a
446.0575	0.074	892115	keystroke_e	e	n/a
446.207	0.0745	892414	keystroke_d	d	n/a
446.2965	0.075	892593	keystroke_Key.space	Key.space	n/a
446.9875	0.06	893975	keystroke_r	r	n/a
447.0625	0.059	894125	keystroke_u	u	n/a
447.2265	0.09	894453	keystroke_n	n	n/a
447.332	0.0445	894664	keystroke_t	t	n/a
447.4065	0.1355	894813	keystroke_i	i	n/a
447.497	0.12	894994	keystroke_m	m	n/a
447.602	0.09	895204	keystroke_e	e	n/a
448.112	0.075	896224	keystroke_Key.enter	Key.enter	n/a
448.192	6.251	896384	prompt	n/a	cleaner ciao class cuisine\n
448.877	0.09	897754	keystroke_c	c	n/a
449.027	0.075	898054	keystroke_l	l	n/a
449.117	0.105	898234	keystroke_e	e	n/a
449.192	0.09	898384	keystroke_a	a	n/a
449.312	0.105	898624	keystroke_n	n	n/a
449.432	0.09	898864	keystroke_e	e	n/a
449.492	0.075	898984	keystroke_r	r	n/a
449.567	0.0745	899134	keystroke_Key.space	Key.space	n/a
450.467	0.06	900934	keystroke_c	c	n/a
450.572	0.0595	901144	keystroke_i	i	n/a
450.7365	0.075	901473	keystroke_a	a	n/a
450.8715	0.076	901743	keystroke_o	o	n/a
450.9915	0.075	901983	keystroke_Key.space	Key.space	n/a
451.5615	0.061	903123	keystroke_c	c	n/a
451.6665	0.075	903333	keystroke_l	l	n/a
451.7565	0.075	903513	keystroke_a	a	n/a
451.9365	0.03	903873	keystroke_s	s	n/a
452.057	0.0595	904114	keystroke_s	s	n/a
452.3565	0.075	904713	keystroke_Key.space	Key.space	n/a
452.807	0.075	905614	keystroke_c	c	n/a
452.927	0.105	905854	keystroke_u	u	n/a
453.017	0.105	906034	keystroke_i	i	n/a
453.137	0.105	906274	keystroke_s	s	n/a
453.287	0.105	906574	keystroke_n	n	n/a
453.707	0.06	907414	keystroke_Key.backspace	Key.backspace	n/a
453.977	0.0905	907954	keystroke_i	i	n/a
454.037	0.09	908074	keystroke_n	n	n/a
454.112	0.06	908224	keystroke_e	e	n/a
454.382	0.0595	908764	keystroke_Key.enter	Key.enter	n/a
454.4455	8.353	908891	prompt	n/a	boxed never legitimate disco\n
455.0265	0.06	910053	keystroke_b	b	n/a
455.1925	0.074	910385	keystroke_o	o	n/a
455.3425	0.09	910685	keystroke_x	x	n/a
455.3565	0.061	910713	keystroke_n	n	n/a
455.747	0.06	911494	keystroke_=	=	n/a
456.212	0.045	912424	keystroke_Key.backspace	Key.backspace	n/a
456.407	0.09	912814	keystroke_Key.backspace	Key.backspace	n/a
456.707	0.06	913414	keystroke_e	e	n/a
456.872	0.075	913744	keystroke_d	d	n/a
456.992	0.09	913984	keystroke_Key.space	Key.space	n/a
457.5165	0.045	915033	keystroke_c	c	n/a
457.982	0.06	915964	keystroke_Key.backspace	Key.backspace	n/a
458.642	0.09	917284	keystroke_n	n	n/a
458.717	0.06	917434	keystroke_e	e	n/a
458.837	0.09	917674	keystroke_v	v	n/a
458.972	0.105	917944	keystroke_e	e	n/a
459.062	0.06	918124	keystroke_r	r	n/a
459.152	0.06	918304	keystroke_Key.space	Key.space	n/a
459.377	0.12	918754	keystroke_l	l	n/a
459.587	0.06	919174	keystroke_e	e	n/a
459.737	0.06	919474	keystroke_g	g	n/a
459.857	0.075	919714	keystroke_i	i	n/a
460.037	0.075	920074	keystroke_t	t	n/a
460.8315	0.0155	921663	keystroke_i	i	n/a
460.9215	0.105	921843	keystroke_m	m	n/a
461.0565	0.12	922113	keystroke_a	a	n/a
461.1615	0.105	922323	keystroke_t	t	n/a
461.2515	0.09	922503	keystroke_e	e	n/a
461.3715	0.06	922743	keystroke_Key.space	Key.space	n/a
462.107	0.09	924214	keystroke_d	d	n/a
462.227	0.0905	924454	keystroke_i	i	n/a
462.3175	0.1495	924635	keystroke_s	s	n/a
462.422	0.09	924844	keystroke_c	c	n/a
462.482	0.105	924964	keystroke_o	o	n/a
462.767	0.03	925534	keystroke_Key.enter	Key.enter	n/a
462.8015	6.297	925603	prompt	n/a	origin marks positive hazardous\n
463.6525	0.0595	927305	keystroke_o	o	n/a
463.7265	0.0905	927453	keystroke_r	r	n/a
463.8615	0.06	927723	keystroke_i	i	n/a
463.9515	0.0605	927903	keystroke_g	g	n/a
464.0275	0.105	928055	keystroke_i	i	n/a
464.0865	0.15	928173	keystroke_n	n	n/a
464.2215	0.075	928443	keystroke_Key.space	Key.space	n/a
464.702	0.09	929404	keystroke_m	m	n/a
464.762	0.075	929524	keystroke_a	a	n/a
464.837	0.075	929674	keystroke_r	r	n/a
464.942	0.075	929884	keystroke_k	k	n/a
465.002	0.12	930004	keystroke_s	s	n/a
465.197	0.045	930394	keystroke_Key.space	Key.space	n/a
465.902	0.0745	931804	keystroke_p	p	n/a
466.0965	0.0755	932193	keystroke_o	o	n/a
466.2165	0.075	932433	keystroke_s	s	n/a
466.337	0.0595	932674	keystroke_i	i	n/a
466.427	0.06	932854	keystroke_t	t	n/a
466.532	0.075	933064	keystroke_i	i	n/a
466.6525	0.074	933305	keystroke_v	v	n/a
466.712	0.0895	933424	keystroke_e	e	n/a
466.8315	0.06	933663	keystroke_Key.space	Key.space	n/a
467.477	0.075	934954	keystroke_h	h	n/a
467.552	0.1195	935104	keystroke_a	a	n/a
467.8965	0.075	935793	keystroke_z	z	n/a
468.092	0.0745	936184	keystroke_a	a	n/a
468.1965	0.12	936393	keystroke_r	r	n/a
468.2715	0.105	936543	keystroke_d	d	n/a
468.5715	0.136	937143	keystroke_o	o	n/a
468.677	0.09	937354	keystroke_u	u	n/a
468.7975	0.059	937595	keystroke_s	s	n/a
469.037	0.0595	938074	keystroke_Key.enter	Key.enter	n/a
469.1005	5.9685	938201	prompt	n/a	cancel elephant guardian good\n
469.847	0.12	939694	keystroke_c	c	n/a
469.9515	0.1055	939903	keystroke_a	a	n/a
470.102	0.09	940204	keystroke_n	n	n/a
470.462	0.105	940924	keystroke_c	c	n/a
470.5525	0.09	941105	keystroke_e	e	n/a
470.657	0.075	941314	keystroke_l	l	n/a
470.792	0.075	941584	keystroke_Key.space	Key.space	n/a
471.107	0.06	942214	keystroke_e	e	n/a
471.257	0.0895	942514	keystroke_l	l	n/a
471.3615	0.075	942723	keystroke_e	e	n/a
471.467	0.075	942934	keystroke_p	p	n/a
471.6915	0.075	943383	keystroke_h	h	n/a
471.7965	0.09	943593	keystroke_a	a	n/a
471.9015	0.076	943803	keystroke_n	n	n/a
472.0365	0.06	944073	keystroke_t	t	n/a
472.1265	0.045	944253	keystroke_Key.space	Key.space	n/a
472.817	0.075	945634	keystroke_g	g	n/a
472.937	0.075	945874	keystroke_u	u	n/a
473.027	0.12	946054	keystroke_a	a	n/a
473.117	0.105	946234	keystroke_r	r	n/a
473.222	0.105	946444	keystroke_d	d	n/a
473.402	0.105	946804	keystroke_i	i	n/a
473.5515	0.075	947103	keystroke_a	a	n/a
473.642	0.0895	947284	keystroke_n	n	n/a
473.8215	0.06	947643	keystroke_Key.space	Key.space	n/a
474.4665	0.045	948933	keystroke_g	g	n/a
474.5265	0.0455	949053	keystroke_o	o	n/a
474.6465	0.0905	949293	keystroke_o	o	n/a
474.7215	0.0605	949443	keystroke_d	d	n/a
475.022	0.045	950044	keystroke_Key.enter	Key.enter	n/a
475.076	5.8725	950152	prompt	n/a	hero great understanding infectious\n
475.6815	0.075	951363	keystroke_h	h	n/a
475.7575	0.104	951515	keystroke_e	e	n/a
475.8465	0.075	951693	keystroke_r	r	n/a
475.9075	0.059	951815	keystroke_o	o	n/a
476.0265	0.06	952053	keystroke_Key.space	Key.space	n/a
476.132	0.0745	952264	keystroke_g	g	n/a
476.327	0.0745	952654	keystroke_r	r	n/a
476.3865	0.105	952773	keystroke_e	e	n/a
476.4615	0.12	952923	keystroke_a	a	n/a
476.5365	0.075	953073	keystroke_t	t	n/a
476.6415	0.06	953283	keystroke_Key.space	Key.space	n/a
477.257	0.045	954514	keystroke_u	u	n/a
477.422	0.075	954844	keystroke_n	n	n/a
477.452	0.075	954904	keystroke_d	d	n/a
477.632	0.09	955264	keystroke_e	e	n/a
477.692	0.09	955384	keystroke_r	r	n/a
477.842	0.12	955684	keystroke_s	s	n/a
477.947	0.075	955894	keystroke_t	t	n/a
478.037	0.09	956074	keystroke_a	a	n/a
478.1275	0.075	956255	keystroke_n	n	n/a
478.217	0.06	956434	keystroke_d	d	n/a
478.322	0.09	956644	keystroke_i	i	n/a
478.382	0.075	956764	keystroke_n	n	n/a
478.472	0.045	956944	keystroke_g	g	n/a
478.592	0.045	957184	keystroke_Key.space	Key.space	n/a
478.937	0.09	957874	keystroke_i	i	n/a
479.072	0.09	958144	keystroke_n	n	n/a
479.252	0.074	958504	keystroke_f	f	n/a
479.3865	0.15	958773	keystroke_e	e	n/a
479.492	0.0755	958984	keystroke_c	c	n/a
479.686	0.076	959372	keystroke_t	t	n/a
479.822	0.1055	959644	keystroke_i	i	n/a
480.167	0.164	960334	keystroke_o	o	n/a
480.3465	0.105	960693	keystroke_u	u	n/a
480.4665	0.075	960933	keystroke_s	s	n/a
480.8865	0.0605	961773	keystroke_Key.enter	Key.enter	n/a
480.9515	6.282	961903	prompt	n/a	bathroom dawn adipex glass\n
481.8325	0.0745	963665	keystroke_b	b	n/a
481.892	0.09	963784	keystroke_a	a	n/a
481.997	0.06	963994	keystroke_t	t	n/a
482.072	0.045	964144	keystroke_h	h	n/a
482.162	0.075	964324	keystroke_r	r	n/a
482.2965	0.045	964593	keystroke_o	o	n/a
482.417	0.1345	964834	keystroke_o	o	n/a
482.5215	0.12	965043	keystroke_m	m	n/a
482.5965	0.075	965193	keystroke_Key.space	Key.space	n/a
483.3175	0.075	966635	keystroke_d	d	n/a
483.4365	0.0905	966873	keystroke_a	a	n/a
483.6165	0.075	967233	keystroke_w	w	n/a
483.797	0.0745	967594	keystroke_n	n	n/a
483.9475	0.074	967895	keystroke_Key.space	Key.space	n/a
484.6515	0.046	969303	keystroke_a	a	n/a
484.7415	0.09	969483	keystroke_d	d	n/a
485.117	0.075	970234	keystroke_i	i	n/a
485.357	0.06	970714	keystroke_p	p	n/a
485.5525	0.06	971105	keystroke_e	e	n/a
485.7465	0.075	971493	keystroke_x	x	n/a
485.8815	0.06	971763	keystroke_Key.space	Key.space	n/a
486.3325	0.074	972665	keystroke_g	g	n/a
486.4515	0.0905	972903	keystroke_l	l	n/a
486.5265	0.09	973053	keystroke_a	a	n/a
486.7375	0.044	973475	keystroke_s	s	n/a
486.857	0.0895	973714	keystroke_s	s	n/a
487.1415	0.09	974283	keystroke_Key.enter	Key.enter	n/a
487.236	6.1775	974472	prompt	n/a	barriers signals ensure nigeria\n
488.0415	0.075	976083	keystroke_b	b	n/a
488.1315	0.075	976263	keystroke_a	a	n/a
488.177	0.0745	976354	keystroke_r	r	n/a
488.3265	0.09	976653	keystroke_r	r	n/a
488.4175	0.044	976835	keystroke_i	i	n/a
488.4915	0.09	976983	keystroke_e	e	n/a
488.5665	0.06	977133	keystroke_r	r	n/a
488.7175	0.074	977435	keystroke_s	s	n/a
488.8065	0.06	977613	keystroke_Key.space	Key.space	n/a
489.5425	0.089	979085	keystroke_s	s	n/a
489.6475	0.074	979295	keystroke_i	i	n/a
489.767	0.0595	979534	keystroke_g	g	n/a
489.8425	0.09	979685	keystroke_n	n	n/a
489.9775	0.075	979955	keystroke_a	a	n/a
490.0525	0.075	980105	keystroke_l	l	n/a
490.202	0.0745	980404	keystroke_s	s	n/a
490.3075	0.074	980615	keystroke_Key.space	Key.space	n/a
491.042	0.0605	982084	keystroke_e	e	n/a
491.117	0.075	982234	keystroke_n	n	n/a
491.312	0.0595	982624	keystroke_s	s	n/a
491.447	0.0145	982894	keystroke_u	u	n/a
491.492	0.09	982984	keystroke_r	r	n/a
491.537	0.105	983074	keystroke_e	e	n/a
491.657	0.06	983314	keystroke_Key.space	Key.space	n/a
492.1515	0.075	984303	keystroke_n	n	n/a
492.2865	0.061	984573	keystroke_i	i	n/a
492.3915	0.045	984783	keystroke_g	g	n/a
492.482	0.1655	984964	keystroke_e	e	n/a
492.6915	0.09	985383	keystroke_r	r	n/a
492.8275	0.074	985655	keystroke_i	i	n/a
492.977	0.0745	985954	keystroke_a	a	n/a
493.337	0.0745	986674	keystroke_Key.enter	Key.enter	n/a
493.416	5.5925	986832	prompt	n/a	manager doom lycos site\n
494.2365	0.0755	988473	keystroke_m	m	n/a
494.297	0.09	988594	keystroke_a	a	n/a
494.447	0.075	988894	keystroke_n	n	n/a
494.507	0.06	989014	keystroke_a	a	n/a
494.5975	0.059	989195	keystroke_g	g	n/a
494.7175	0.1045	989435	keystroke_e	e	n/a
494.7775	0.105	989555	keystroke_r	r	n/a
494.8965	0.06	989793	keystroke_Key.space	Key.space	n/a
495.0165	0.061	990033	keystroke_d	d	n/a
495.092	0.0605	990184	keystroke_o	o	n/a
495.2115	0.091	990423	keystroke_o	o	n/a
495.3475	0.105	990695	keystroke_m	m	n/a
495.437	0.075	990874	keystroke_Key.space	Key.space	n/a
496.637	0.09	993274	keystroke_l	l	n/a
496.877	0.075	993754	keystroke_y	y	n/a
497.222	0.0595	994444	keystroke_c	c	n/a
497.3565	0.076	994713	keystroke_o	o	n/a
497.4765	0.076	994953	keystroke_s	s	n/a
497.5975	0.044	995195	keystroke_Key.space	Key.space	n/a
498.4225	0.09	996845	keystroke_s	s	n/a
498.5575	0.075	997115	keystroke_i	i	n/a
498.6175	0.105	997235	keystroke_t	t	n/a
498.707	0.0905	997414	keystroke_e	e	n/a
498.932	0.075	997864	keystroke_Key.enter	Key.enter	n/a
499.011	8.6685	998022	prompt	n/a	previews realtors tired environmental\n
499.8765	0.0605	999753	keystroke_p	p	n/a
499.952	0.1045	999904	keystroke_r	r	n/a
499.997	0.1345	999994	keystroke_e	e	n/a
500.2665	0.046	1000533	keystroke_v	v	n/a
500.3415	0.075	1000683	keystroke_i	i	n/a
500.4315	0.135	1000863	keystroke_e	e	n/a
500.5075	0.104	1001015	keystroke_w	w	n/a
500.6865	0.105	1001373	keystroke_s	s	n/a
500.7775	0.074	1001555	keystroke_Key.space	Key.space	n/a
501.3165	0.121	1002633	keystroke_r	r	n/a
501.3915	0.1355	1002783	keystroke_e	e	n/a
501.512	0.1195	1003024	keystroke_a	a	n/a
501.6465	0.03	1003293	keystroke_t	t	n/a
501.6915	0.09	1003383	keystroke_l	l	n/a
501.872	0.0595	1003744	keystroke_t	t	n/a
502.187	0.03	1004374	keystroke_=	=	n/a
502.322	0.045	1004644	keystroke_Key.backspace	Key.backspace	n/a
502.457	0.06	1004914	keystroke_Key.backspace	Key.backspace	n/a
502.7715	0.061	1005543	keystroke_Key.backspace	Key.backspace	n/a
503.0415	0.0605	1006083	keystroke_Key.backspace	Key.backspace	n/a
503.627	0.1045	1007254	keystroke_l	l	n/a
503.7765	0.0605	1007553	keystroke_t	t	n/a
503.927	0.0595	1007854	keystroke_o	o	n/a
503.9715	0.09	1007943	keystroke_r	r	n/a
504.137	0.09	1008274	keystroke_s	s	n/a
504.242	0.045	1008484	keystroke_Key.space	Key.space	n/a
505.0675	0.044	1010135	keystroke_t	t	n/a
505.1725	0.059	1010345	keystroke_i	i	n/a
505.247	0.0895	1010494	keystroke_r	r	n/a
505.3065	0.0755	1010613	keystroke_e	e	n/a
505.457	0.0905	1010914	keystroke_d	d	n/a
505.5615	0.06	1011123	keystroke_Key.space	Key.space	n/a
506.0865	0.045	1012173	keystroke_e	e	n/a
506.147	0.0455	1012294	keystroke_n	n	n/a
506.2215	0.076	1012443	keystroke_v	v	n/a
506.3115	0.09	1012623	keystroke_i	i	n/a
506.4475	0.074	1012895	keystroke_r	r	n/a
506.5365	0.075	1013073	keystroke_o	o	n/a
506.6575	0.0595	1013315	keystroke_n	n	n/a
506.792	0.0895	1013584	keystroke_m	m	n/a
506.8965	0.06	1013793	keystroke_e	e	n/a
507.0015	0.045	1014003	keystroke_n	n	n/a
507.0775	0.074	1014155	keystroke_t	t	n/a
507.1225	0.089	1014245	keystroke_a	a	n/a
507.1965	0.09	1014393	keystroke_l	l	n/a
507.617	0.06	1015234	keystroke_Key.enter	Key.enter	n/a
507.682	6.2965	1015364	prompt	n/a	handling democracy consider karen\n
508.457	0.06	1016914	keystroke_h	h	n/a
508.532	0.06	1017064	keystroke_a	a	n/a
508.652	0.06	1017304	keystroke_n	n	n/a
508.727	0.06	1017454	keystroke_d	d	n/a
508.817	0.06	1017634	keystroke_l	l	n/a
509.012	0.075	1018024	keystroke_i	i	n/a
509.057	0.075	1018114	keystroke_n	n	n/a
509.117	0.0605	1018234	keystroke_g	g	n/a
509.252	0.045	1018504	keystroke_Key.space	Key.space	n/a
509.9115	0.06	1019823	keystroke_d	d	n/a
510.0915	0.06	1020183	keystroke_e	e	n/a
510.1365	0.105	1020273	keystroke_m	m	n/a
510.2715	0.06	1020543	keystroke_o	o	n/a
510.3765	0.075	1020753	keystroke_c	c	n/a
510.5715	0.06	1021143	keystroke_r	r	n/a
510.6465	0.151	1021293	keystroke_a	a	n/a
510.7825	0.0745	1021565	keystroke_c	c	n/a
510.8425	0.074	1021685	keystroke_y	y	n/a
510.9615	0.06	1021923	keystroke_Key.space	Key.space	n/a
511.7875	0.0595	1023575	keystroke_c	c	n/a
511.832	0.09	1023664	keystroke_o	o	n/a
511.952	0.0905	1023904	keystroke_n	n	n/a
512.087	0.09	1024174	keystroke_s	s	n/a
512.192	0.0755	1024384	keystroke_i	i	n/a
512.2675	0.074	1024535	keystroke_d	d	n/a
512.4165	0.1055	1024833	keystroke_e	e	n/a
512.5065	0.105	1025013	keystroke_r	r	n/a
512.5525	0.0895	1025105	keystroke_Key.space	Key.space	n/a
512.9425	0.089	1025885	keystroke_k	k	n/a
513.0465	0.09	1026093	keystroke_a	a	n/a
513.1525	0.105	1026305	keystroke_r	r	n/a
513.2265	0.09	1026453	keystroke_e	e	n/a
513.572	0.0895	1027144	keystroke_n	n	n/a
513.902	0.0745	1027804	keystroke_Key.enter	Key.enter	n/a
513.9825	5.546	1027965	prompt	n/a	sixth frost prison oecd\n
514.5925	0.075	1029185	keystroke_s	s	n/a
514.7125	0.075	1029425	keystroke_i	i	n/a
514.8175	0.075	1029635	keystroke_x	x	n/a
514.9825	0.075	1029965	keystroke_t	t	n/a
515.4025	0.045	1030805	keystroke_h	h	n/a
515.522	0.075	1031044	keystroke_Key.space	Key.space	n/a
515.912	0.06	1031824	keystroke_f	f	n/a
516.062	0.06	1032124	keystroke_r	r	n/a
516.137	0.075	1032274	keystroke_o	o	n/a
516.2425	0.09	1032485	keystroke_s	s	n/a
516.3165	0.045	1032633	keystroke_t	t	n/a
516.3775	0.06	1032755	keystroke_Key.space	Key.space	n/a
517.1275	0.044	1034255	keystroke_p	p	n/a
517.2175	0.06	1034435	keystroke_r	r	n/a
517.3375	0.059	1034675	keystroke_i	i	n/a
517.4565	0.0605	1034913	keystroke_s	s	n/a
517.532	0.076	1035064	keystroke_o	o	n/a
517.608	0.074	1035216	keystroke_n	n	n/a
517.697	0.0445	1035394	keystroke_Key.space	Key.space	n/a
518.628	0.089	1037256	keystroke_o	o	n/a
518.8815	0.06	1037763	keystroke_e	e	n/a
519.107	0.0605	1038214	keystroke_c	c	n/a
519.2275	0.074	1038455	keystroke_d	d	n/a
519.4665	0.0605	1038933	keystroke_Key.enter	Key.enter	n/a
519.5325	7.766	1039065	prompt	n/a	fighters strips recording neighborhood\n
520.112	0.075	1040224	keystroke_f	f	n/a
520.2925	0.0895	1040585	keystroke_i	i	n/a
520.487	0.0605	1040974	keystroke_g	g	n/a
520.6225	0.089	1041245	keystroke_h	h	n/a
520.7275	0.135	1041455	keystroke_t	t	n/a
520.8325	0.135	1041665	keystroke_e	e	n/a
520.9365	0.105	1041873	keystroke_r	r	n/a
521.0865	0.121	1042173	keystroke_s	s	n/a
521.2215	0.075	1042443	keystroke_Key.space	Key.space	n/a
521.552	0.075	1043104	keystroke_c	c	n/a
521.837	0.075	1043674	keystroke_Key.backspace	Key.backspace	n/a
521.942	0.105	1043884	keystroke_s	s	n/a
522.032	0.0455	1044064	keystroke_t	t	n/a
522.152	0.105	1044304	keystroke_r	r	n/a
522.227	0.075	1044454	keystroke_i	i	n/a
522.422	0.06	1044844	keystroke_p	p	n/a
522.512	0.075	1045024	keystroke_s	s	n/a
522.617	0.075	1045234	keystroke_Key.space	Key.space	n/a
523.2775	0.12	1046555	keystroke_r	r	n/a
523.3825	0.075	1046765	keystroke_e	e	n/a
523.5175	0.1195	1047035	keystroke_c	c	n/a
523.622	0.09	1047244	keystroke_o	o	n/a
523.7565	0.045	1047513	keystroke_r	r	n/a
523.7725	0.149	1047545	keystroke_d	d	n/a
524.2665	0.105	1048533	keystroke_i	i	n/a
524.3275	0.104	1048655	keystroke_n	n	n/a
524.417	0.0605	1048834	keystroke_g	g	n/a
524.5215	0.075	1049043	keystroke_Key.space	Key.space	n/a
525.2265	0.106	1050453	keystroke_n	n	n/a
525.3165	0.0605	1050633	keystroke_e	e	n/a
525.4365	0.0755	1050873	keystroke_i	i	n/a
525.542	0.0755	1051084	keystroke_g	g	n/a
525.662	0.075	1051324	keystroke_h	h	n/a
525.872	0.0605	1051744	keystroke_b	b	n/a
525.9925	0.09	1051985	keystroke_o	o	n/a
526.067	0.1055	1052134	keystroke_r	r	n/a
526.4275	0.045	1052855	keystroke_h	h	n/a
526.5315	0.091	1053063	keystroke_o	o	n/a
526.6675	0.09	1053335	keystroke_o	o	n/a
526.7415	0.06	1053483	keystroke_d	d	n/a
527.222	0.0755	1054444	keystroke_Key.enter	Key.enter	n/a
527.302	6.657	1054604	prompt	n/a	countries emerging sells mono\n
527.957	0.09	1055914	keystroke_c	c	n/a
528.0325	0.09	1056065	keystroke_o	o	n/a
528.092	0.06	1056184	keystroke_u	u	n/a
528.1075	0.03	1056215	keystroke_y	y	n/a
528.257	0.0605	1056514	keystroke_n	n	n/a
528.287	0.0905	1056574	keystroke_t	t	n/a
528.602	0.045	1057204	keystroke_Key.backspace	Key.backspace	n/a
528.722	0.075	1057444	keystroke_Key.backspace	Key.backspace	n/a
528.857	0.075	1057714	keystroke_Key.backspace	Key.backspace	n/a
529.067	0.075	1058134	keystroke_n	n	n/a
529.157	0.06	1058314	keystroke_t	t	n/a
529.2775	0.075	1058555	keystroke_r	r	n/a
529.3065	0.091	1058613	keystroke_i	i	n/a
529.4415	0.166	1058883	keystroke_e	e	n/a
529.5465	0.136	1059093	keystroke_s	s	n/a
529.6365	0.076	1059273	keystroke_Key.space	Key.space	n/a
530.357	0.06	1060714	keystroke_e	e	n/a
530.447	0.105	1060894	keystroke_m	m	n/a
530.567	0.12	1061134	keystroke_e	e	n/a
530.6425	0.0745	1061285	keystroke_r	r	n/a
530.807	0.06	1061614	keystroke_g	g	n/a
530.8975	0.0895	1061795	keystroke_i	i	n/a
531.032	0.12	1062064	keystroke_n	n	n/a
531.167	0.06	1062334	keystroke_g	g	n/a
531.257	0.0755	1062514	keystroke_Key.space	Key.space	n/a
531.662	0.06	1063324	keystroke_s	s	n/a
532.007	0.06	1064014	keystroke_e	e	n/a
532.1575	0.075	1064315	keystroke_l	l	n/a
532.307	0.075	1064614	keystroke_l	l	n/a
532.712	0.075	1065424	keystroke_s	s	n/a
532.817	0.0755	1065634	keystroke_Key.space	Key.space	n/a
533.237	0.076	1066474	keystroke_m	m	n/a
533.387	0.1055	1066774	keystroke_o	o	n/a
533.4775	0.09	1066955	keystroke_n	n	n/a
533.5825	0.105	1067165	keystroke_o	o	n/a
533.8965	0.06	1067793	keystroke_Key.enter	Key.enter	n/a
533.9615	10.152	1067923	prompt	n/a	reporters mozilla scuba distinction\n
534.7375	0.09	1069475	keystroke_r	r	n/a
534.7975	0.09	1069595	keystroke_e	e	n/a
534.9025	0.045	1069805	keystroke_p	p	n/a
535.0525	0.0745	1070105	keystroke_o	o	n/a
535.142	0.0605	1070284	keystroke_r	r	n/a
535.307	0.0605	1070614	keystroke_t	t	n/a
535.6515	0.12	1071303	keystroke_e	e	n/a
535.7265	0.12	1071453	keystroke_r	r	n/a
