onset	duration	sample	value	key	prompt_text
3.782	12.6225	7564	prompt	n/a	the quick brown fox jumps over a lazy dog\n
5.5625	0.096	11125	keystroke_t	t	n/a
5.7065	0.088	11413	keystroke_h	h	n/a
5.7385	0.0965	11477	keystroke_e	e	n/a
5.891	0.12	11782	keystroke_Key.space	Key.space	n/a
6.1305	0.136	12261	keystroke_u	u	n/a
6.5545	0.072	13109	keystroke_Key.backspace	Key.backspace	n/a
7.1865	0.112	14373	keystroke_q	q	n/a
7.4105	0.128	14821	keystroke_u	u	n/a
7.4905	0.08	14981	keystroke_i	i	n/a
7.6345	0.096	15269	keystroke_c	c	n/a
7.7865	0.0795	15573	keystroke_k	k	n/a
7.946	0.104	15892	keystroke_Key.space	Key.space	n/a
8.666	0.096	17332	keystroke_b	b	n/a
8.754	0.088	17508	keystroke_r	r	n/a
8.866	0.096	17732	keystroke_o	o	n/a
8.97	0.072	17940	keystroke_w	w	n/a
9.082	0.113	18164	keystroke_n	n	n/a
9.186	0.104	18372	keystroke_Key.space	Key.space	n/a
9.298	0.072	18596	keystroke_f	f	n/a
9.434	0.088	18868	keystroke_o	o	n/a
9.706	0.104	19412	keystroke_Key.space	Key.space	n/a
10.122	0.064	20244	keystroke_Key.backspace	Key.backspace	n/a
10.17	0.08	20340	keystroke_x	x	n/a
10.346	0.08	20692	keystroke_Key.space	Key.space	n/a
11.082	0.072	22164	keystroke_j	j	n/a
11.274	0.064	22548	keystroke_u	u	n/a
11.466	0.152	22932	keystroke_m	m	n/a
11.57	0.104	23140	keystroke_p	p	n/a
11.722	0.08	23444	keystroke_s	s	n/a
12.3225	0.103	24645	keystroke_Key.space	Key.space	n/a
12.4505	0.111	24901	keystroke_o	o	n/a
12.5225	0.088	25045	keystroke_v	v	n/a
12.6815	0.129	25363	keystroke_e	e	n/a
12.7535	0.105	25507	keystroke_r	r	n/a
12.8265	0.095	25653	keystroke_Key.space	Key.space	n/a
12.9225	0.119	25845	keystroke_a	a	n/a
13.0655	0.113	26131	keystroke_Key.space	Key.space	n/a
13.2345	0.1035	26469	keystroke_l	l	n/a
13.37	0.112	26740	keystroke_a	a	n/a
13.594	0.104	27188	keystroke_z	z	n/a
13.8825	0.096	27765	keystroke_y	y	n/a
14.0505	0.112	28101	keystroke_Key.space	Key.space	n/a
14.7625	0.08	29525	keystroke_g	g	n/a
14.9785	0.12	29957	keystroke_o	o	n/a
15.3625	0.056	30725	keystroke_Key.backspace	Key.backspace	n/a
15.5305	0.064	31061	keystroke_Key.backspace	Key.backspace	n/a
15.6185	0.104	31237	keystroke_d	d	n/a
15.7625	0.088	31525	keystroke_o	o	n/a
15.882	0.088	31764	keystroke_g	g	n/a
16.346	0.056	32692	keystroke_Key.enter	Key.enter	n/a
16.4085	8.9315	32817	prompt	n/a	frontier film missile mature\n
17.202	0.104	34404	keystroke_f	f	n/a
17.322	0.08	34644	keystroke_o	o	n/a
17.426	0.096	34852	keystroke_r	r	n/a
17.57	0.08	35140	keystroke_n	n	n/a
17.9865	0.064	35973	keystroke_Key.backspace	Key.backspace	n/a
18.1465	0.08	36293	keystroke_Key.backspace	Key.backspace	n/a
18.2905	0.112	36581	keystroke_r	r	n/a
18.7545	0.072	37509	keystroke_Key.backspace	Key.backspace	n/a
18.9305	0.08	37861	keystroke_Key.backspace	Key.backspace	n/a
19.0505	0.088	38101	keystroke_r	r	n/a
19.1785	0.048	38357	keystroke_o	o	n/a
19.3625	0.08	38725	keystroke_n	n	n/a
19.938	0.104	39876	keystroke_t	t	n/a
20.155	0.079	40310	keystroke_i	i	n/a
20.338	0.128	40676	keystroke_e	e	n/a
20.394	0.12	40788	keystroke_r	r	n/a
20.858	0.112	41716	keystroke_Key.space	Key.space	n/a
21.242	0.104	42484	keystroke_f	f	n/a
21.362	0.088	42724	keystroke_i	i	n/a
21.57	0.072	43140	keystroke_l	l	n/a
21.722	0.104	43444	keystroke_m	m	n/a
21.938	0.096	43876	keystroke_Key.space	Key.space	n/a
22.5225	0.088	45045	keystroke_m	m	n/a
22.6985	0.08	45397	keystroke_i	i	n/a
23.0505	0.064	46101	keystroke_s	s	n/a
23.2345	0.072	46469	keystroke_s	s	n/a
23.3545	0.064	46709	keystroke_i	i	n/a
23.5305	0.096	47061	keystroke_l	l	n/a
23.6345	0.104	47269	keystroke_e	e	n/a
23.8025	0.0795	47605	keystroke_Key.space	Key.space	n/a
24.01	0.096	48020	keystroke_m	m	n/a
24.138	0.08	48276	keystroke_a	a	n/a
24.274	0.112	48548	keystroke_t	t	n/a
24.402	0.12	48804	keystroke_u	u	n/a
24.514	0.1205	49028	keystroke_r	r	n/a
24.554	0.1275	49108	keystroke_e	e	n/a
25.2175	0.12	50435	keystroke_Key.enter	Key.enter	n/a
25.343	7.085	50686	prompt	n/a	rays garmin novel drums\n
26.522	0.1275	53044	keystroke_r	r	n/a
26.674	0.12	53348	keystroke_a	a	n/a
26.802	0.088	53604	keystroke_y	y	n/a
27.066	0.0715	54132	keystroke_s	s	n/a
27.2495	0.096	54499	keystroke_Key.space	Key.space	n/a
27.978	0.112	55956	keystroke_g	g	n/a
28.186	0.136	56372	keystroke_a	a	n/a
28.282	0.096	56564	keystroke_r	r	n/a
28.49	0.088	56980	keystroke_m	m	n/a
28.642	0.072	57284	keystroke_i	i	n/a
28.81	0.08	57620	keystroke_n	n	n/a
29.1145	0.104	58229	keystroke_Key.space	Key.space	n/a
29.6665	0.096	59333	keystroke_n	n	n/a
29.8185	0.088	59637	keystroke_o	o	n/a
29.9145	0.088	59829	keystroke_v	v	n/a
30.0585	0.096	60117	keystroke_e	e	n/a
30.1945	0.088	60389	keystroke_l	l	n/a
30.8265	0.112	61653	keystroke_Key.space	Key.space	n/a
30.9945	0.112	61989	keystroke_d	d	n/a
31.1865	0.112	62373	keystroke_r	r	n/a
31.3865	0.096	62773	keystroke_u	u	n/a
31.6345	0.096	63269	keystroke_m	m	n/a
31.7625	0.072	63525	keystroke_s	s	n/a
32.3225	0.104	64645	keystroke_Key.enter	Key.enter	n/a
32.431	9.4765	64862	prompt	n/a	brad israeli periodically trends\n
33.2105	0.088	66421	keystroke_b	b	n/a
33.2825	0.096	66565	keystroke_r	r	n/a
33.4265	0.08	66853	keystroke_a	a	n/a
33.5705	0.104	67141	keystroke_d	d	n/a
33.6825	0.088	67365	keystroke_Key.space	Key.space	n/a
33.978	0.104	67956	keystroke_i	i	n/a
34.114	0.096	68228	keystroke_s	s	n/a
34.418	0.112	68836	keystroke_r	r	n/a
34.61	0.112	69220	keystroke_a	a	n/a
35.154	0.072	70308	keystroke_i	i	n/a
35.514	0.088	71028	keystroke_l	l	n/a
35.834	0.064	71668	keystroke_Key.backspace	Key.backspace	n/a
36.002	0.08	72004	keystroke_Key.backspace	Key.backspace	n/a
36.154	0.104	72308	keystroke_e	e	n/a
36.394	0.072	72788	keystroke_l	l	n/a
36.602	0.064	73204	keystroke_i	i	n/a
36.97	0.096	73940	keystroke_Key.space	Key.space	n/a
37.8095	0.08	75619	keystroke_p	p	n/a
37.986	0.136	75972	keystroke_e	e	n/a
38.058	0.144	76116	keystroke_r	r	n/a
38.394	0.192	76788	keystroke_i	i	n/a
38.77	0.112	77540	keystroke_o	o	n/a
38.97	0.072	77940	keystroke_d	d	n/a
39.298	0.112	78596	keystroke_i	i	n/a
39.538	0.128	79076	keystroke_c	c	n/a
39.714	0.104	79428	keystroke_a	a	n/a
39.842	0.064	79684	keystroke_l	l	n/a
39.986	0.104	79972	keystroke_l	l	n/a
40.306	0.112	80612	keystroke_y	y	n/a
40.498	0.104	80996	keystroke_Key.space	Key.space	n/a
40.818	0.112	81636	keystroke_t	t	n/a
41.01	0.144	82020	keystroke_r	r	n/a
41.09	0.088	82180	keystroke_e	e	n/a
41.194	0.096	82388	keystroke_n	n	n/a
41.306	0.192	82612	keystroke_d	d	n/a
41.41	0.112	82820	keystroke_s	s	n/a
41.794	0.112	83588	keystroke_Key.enter	Key.enter	n/a
41.911	8.4925	83822	prompt	n/a	ncaa transfers essence soviet\n
42.8815	0.105	85763	keystroke_n	n	n/a
43.0415	0.112	86083	keystroke_c	c	n/a
43.2975	0.08	86595	keystroke_a	a	n/a
43.4655	0.096	86931	keystroke_a	a	n/a
43.5775	0.104	87155	keystroke_Key.space	Key.space	n/a
44.33	0.096	88660	keystroke_t	t	n/a
44.498	0.104	88996	keystroke_r	r	n/a
44.6575	0.1205	89315	keystroke_a	a	n/a
44.7455	0.08	89491	keystroke_n	n	n/a
45.0495	0.104	90099	keystroke_s	s	n/a
45.3615	0.096	90723	keystroke_d	d	n/a
45.7935	0.08	91587	keystroke_Key.backspace	Key.backspace	n/a
45.8575	0.096	91715	keystroke_f	f	n/a
46.0015	0.12	92003	keystroke_e	e	n/a
46.0735	0.112	92147	keystroke_r	r	n/a
46.1935	0.096	92387	keystroke_s	s	n/a
46.9785	0.088	93957	keystroke_Key.space	Key.space	n/a
47.25	0.104	94500	keystroke_e	e	n/a
47.586	0.072	95172	keystroke_s	s	n/a
47.77	0.088	95540	keystroke_s	s	n/a
47.914	0.104	95828	keystroke_e	e	n/a
48.082	0.08	96164	keystroke_n	n	n/a
48.178	0.144	96356	keystroke_c	c	n/a
48.266	0.104	96532	keystroke_e	e	n/a
48.45	0.112	96900	keystroke_Key.space	Key.space	n/a
49.138	0.064	98276	keystroke_s	s	n/a
49.266	0.064	98532	keystroke_o	o	n/a
49.378	0.104	98756	keystroke_v	v	n/a
49.522	0.08	99044	keystroke_i	i	n/a
49.674	0.096	99348	keystroke_e	e	n/a
49.85	0.088	99700	keystroke_t	t	n/a
50.306	0.096	100612	keystroke_Key.enter	Key.enter	n/a
50.4065	12.805	100813	prompt	n/a	momentum euros improvements ralph\n
51.346	0.096	102692	keystroke_m	m	n/a
51.498	0.08	102996	keystroke_o	o	n/a
51.69	0.08	103380	keystroke_m	m	n/a
51.866	0.104	103732	keystroke_e	e	n/a
51.962	0.088	103924	keystroke_n	n	n/a
52.1615	0.128	104323	keystroke_t	t	n/a
52.3375	0.0965	104675	keystroke_u	u	n/a
52.602	0.072	105204	keystroke_m	m	n/a
52.786	0.096	105572	keystroke_Key.space	Key.space	n/a
53.93	0.096	107860	keystroke_e	e	n/a
54.186	0.104	108372	keystroke_u	u	n/a
54.37	0.104	108740	keystroke_r	r	n/a
54.586	0.08	109172	keystroke_o	o	n/a
55.058	0.072	110116	keystroke_s	s	n/a
55.746	0.088	111492	keystroke_Key.space	Key.space	n/a
56.33	0.08	112660	keystroke_i	i	n/a
56.4655	0.088	112931	keystroke_r	r	n/a
56.6735	0.1445	113347	keystroke_m	m	n/a
57.1695	0.057	114339	keystroke_Key.backspace	Key.backspace	n/a
57.3295	0.072	114659	keystroke_Key.backspace	Key.backspace	n/a
57.73	0.024	115460	keystroke_m	m	n/a
59.01	0.12	118020	keystroke_p	p	n/a
59.258	0.048	118516	keystroke_r	r	n/a
59.45	0.096	118900	keystroke_o	o	n/a
59.562	0.104	119124	keystroke_v	v	n/a
59.818	0.064	119636	keystroke_e	e	n/a
60.362	0.088	120724	keystroke_m	m	n/a
60.465	0.112	120930	keystroke_e	e	n/a
60.641	0.096	121282	keystroke_n	n	n/a
60.714	0.151	121428	keystroke_t	t	n/a
60.825	0.081	121650	keystroke_s	s	n/a
61.129	0.104	122258	keystroke_Key.space	Key.space	n/a
61.761	0.096	123522	keystroke_r	r	n/a
61.945	0.0965	123890	keystroke_a	a	n/a
62.17	0.088	124340	keystroke_l	l	n/a
62.41	0.072	124820	keystroke_p	p	n/a
62.746	0.056	125492	keystroke_h	h	n/a
63.138	0.072	126276	keystroke_Key.enter	Key.enter	n/a
63.2145	8.877	126429	prompt	n/a	arrived beta theaters detailed\n
63.866	0.112	127732	keystroke_a	a	n/a
64.0415	0.088	128083	keystroke_r	r	n/a
64.2255	0.096	128451	keystroke_r	r	n/a
64.3775	0.104	128755	keystroke_i	i	n/a
64.4825	0.119	128965	keystroke_v	v	n/a
64.8815	0.088	129763	keystroke_d	d	n/a
65.2255	0.096	130451	keystroke_Key.backspace	Key.backspace	n/a
65.2975	0.08	130595	keystroke_e	e	n/a
65.4655	0.096	130931	keystroke_d	d	n/a
65.5775	0.096	131155	keystroke_Key.space	Key.space	n/a
66.218	0.096	132436	keystroke_b	b	n/a
66.298	0.112	132596	keystroke_e	e	n/a
66.466	0.144	132932	keystroke_t	t	n/a
66.674	0.088	133348	keystroke_a	a	n/a
66.778	0.096	133556	keystroke_Key.space	Key.space	n/a
67.5615	0.136	135123	keystroke_t	t	n/a
67.7535	0.088	135507	keystroke_h	h	n/a
68.058	0.088	136116	keystroke_e	e	n/a
68.282	0.088	136564	keystroke_a	a	n/a
68.458	0.112	136916	keystroke_t	t	n/a
68.778	0.128	137556	keystroke_r	r	n/a
68.834	0.096	137668	keystroke_e	e	n/a
69.346	0.048	138692	keystroke_Key.backspace	Key.backspace	n/a
69.498	0.072	138996	keystroke_Key.backspace	Key.backspace	n/a
69.5855	0.1045	139171	keystroke_e	e	n/a
69.6255	0.1285	139251	keystroke_r	r	n/a
69.762	0.096	139524	keystroke_s	s	n/a
69.938	0.096	139876	keystroke_Key.space	Key.space	n/a
70.602	0.08	141204	keystroke_d	d	n/a
70.778	0.088	141556	keystroke_e	e	n/a
70.962	0.112	141924	keystroke_t	t	n/a
71.138	0.104	142276	keystroke_a	a	n/a
71.266	0.088	142532	keystroke_i	i	n/a
71.458	0.104	142916	keystroke_l	l	n/a
71.546	0.056	143092	keystroke_e	e	n/a
71.714	0.096	143428	keystroke_d	d	n/a
72.01	0.079	144020	keystroke_Key.enter	Key.enter	n/a
72.0965	9.114	144193	prompt	n/a	textbooks cardiac canyon agreed\n
72.7695	0.152	145539	keystroke_t	t	n/a
72.8895	0.08	145779	keystroke_e	e	n/a
73.0895	0.0245	146179	keystroke_s	s	n/a
73.2575	0.064	146515	keystroke_t	t	n/a
73.7935	0.056	147587	keystroke_Key.backspace	Key.backspace	n/a
73.9535	0.088	147907	keystroke_Key.backspace	Key.backspace	n/a
74.0175	0.0805	148035	keystroke_x	x	n/a
74.226	0.104	148452	keystroke_t	t	n/a
74.442	0.08	148884	keystroke_b	b	n/a
74.65	0.072	149300	keystroke_o	o	n/a
74.802	0.08	149604	keystroke_o	o	n/a
75.194	0.088	150388	keystroke_k	k	n/a
75.37	0.063	150740	keystroke_s	s	n/a
75.826	0.111	151652	keystroke_Key.space	Key.space	n/a
76.01	0.1115	152020	keystroke_c	c	n/a
76.1855	0.128	152371	keystroke_a	a	n/a
76.2655	0.096	152531	keystroke_r	r	n/a
76.4655	0.112	152931	keystroke_d	d	n/a
76.6335	0.072	153267	keystroke_i	i	n/a
76.7935	0.064	153587	keystroke_a	a	n/a
77.0335	0.096	154067	keystroke_c	c	n/a
77.2095	0.088	154419	keystroke_Key.space	Key.space	n/a
77.7455	0.112	155491	keystroke_c	c	n/a
78.0335	0.1205	156067	keystroke_a	a	n/a
78.186	0.056	156372	keystroke_n	n	n/a
78.433	0.089	156866	keystroke_y	y	n/a
78.601	0.096	157202	keystroke_o	o	n/a
78.777	0.072	157554	keystroke_n	n	n/a
78.969	0.088	157938	keystroke_Key.space	Key.space	n/a
79.497	0.088	158994	keystroke_a	a	n/a
79.697	0.104	159394	keystroke_g	g	n/a
79.889	0.136	159778	keystroke_r	r	n/a
79.961	0.097	159922	keystroke_e	e	n/a
80.153	0.088	160306	keystroke_e	e	n/a
80.369	0.104	160738	keystroke_d	d	n/a
81.097	0.112	162194	keystroke_Key.enter	Key.enter	n/a
81.214	11.7885	162428	prompt	n/a	vertex interventions oxide memories\n
81.985	0.088	163970	keystroke_v	v	n/a
82.169	0.144	164338	keystroke_e	e	n/a
82.233	0.105	164466	keystroke_r	r	n/a
82.4255	0.112	164851	keystroke_t	t	n/a
82.8655	0.08	165731	keystroke_e	e	n/a
83.2415	0.088	166483	keystroke_x	x	n/a
83.4095	0.112	166819	keystroke_Key.space	Key.space	n/a
84.1695	0.072	168339	keystroke_i	i	n/a
84.3455	0.1115	168691	keystroke_n	n	n/a
84.458	0.103	168916	keystroke_t	t	n/a
84.641	0.144	169282	keystroke_e	e	n/a
84.713	0.096	169426	keystroke_r	r	n/a
86.2095	0.08	172419	keystroke_v	v	n/a
86.409	0.104	172818	keystroke_e	e	n/a
86.529	0.088	173058	keystroke_n	n	n/a
86.801	0.072	173602	keystroke_t	t	n/a
87.073	0.2085	174146	keystroke_i	i	n/a
87.2175	0.096	174435	keystroke_o	o	n/a
87.4255	0.112	174851	keystroke_n	n	n/a
87.5775	0.056	175155	keystroke_s	s	n/a
87.8175	0.088	175635	keystroke_Key.space	Key.space	n/a
88.897	0.104	177794	keystroke_o	o	n/a
89.177	0.096	178354	keystroke_x	x	n/a
89.393	0.072	178786	keystroke_i	i	n/a
89.577	0.096	179154	keystroke_d	d	n/a
89.793	0.088	179586	keystroke_e	e	n/a
89.953	0.104	179906	keystroke_Key.space	Key.space	n/a
90.6495	0.08	181299	keystroke_m	m	n/a
90.7855	0.104	181571	keystroke_e	e	n/a
90.9295	0.144	181859	keystroke_m	m	n/a
91.0655	0.096	182131	keystroke_o	o	n/a
91.2895	0.128	182579	keystroke_r	r	n/a
91.4735	0.088	182947	keystroke_i	i	n/a
91.5775	0.072	183155	keystroke_e	e	n/a
91.7935	0.088	183587	keystroke_s	s	n/a
92.8975	0.104	185795	keystroke_Key.enter	Key.enter	n/a
93.006	12.4365	186012	prompt	n/a	transcription exercises restriction supervision\n
93.6975	0.112	187395	keystroke_t	t	n/a
94.0015	0.128	188003	keystroke_r	r	n/a
94.2175	0.112	188435	keystroke_a	a	n/a
94.3375	0.088	188675	keystroke_n	n	n/a
94.4655	0.08	188931	keystroke_s	s	n/a
95.2655	0.104	190531	keystroke_c	c	n/a
95.5615	0.12	191123	keystroke_r	r	n/a
95.7695	0.088	191539	keystroke_i	i	n/a
96.0015	0.08	192003	keystroke_p	p	n/a
96.1855	0.111	192371	keystroke_t	t	n/a
96.3455	0.128	192691	keystroke_i	i	n/a
96.4335	0.096	192867	keystroke_o	o	n/a
96.6495	0.088	193299	keystroke_n	n	n/a
97.393	0.088	194786	keystroke_Key.space	Key.space	n/a
97.617	0.048	195234	keystroke_e	e	n/a
97.793	0.096	195586	keystroke_x	x	n/a
98.001	0.1515	196002	keystroke_e	e	n/a
98.073	0.1035	196146	keystroke_r	r	n/a
98.3055	0.119	196611	keystroke_c	c	n/a
98.5045	0.088	197009	keystroke_i	i	n/a
98.6885	0.096	197377	keystroke_s	s	n/a
98.8805	0.104	197761	keystroke_e	e	n/a
99.0645	0.088	198129	keystroke_s	s	n/a
99.6085	0.12	199217	keystroke_Key.space	Key.space	n/a
99.8415	0.159	199683	keystroke_r	r	n/a
99.9205	0.088	199841	keystroke_e	e	n/a
100.1055	0.1275	200211	keystroke_s	s	n/a
100.801	0.096	201602	keystroke_t	t	n/a
101.001	0.064	202002	keystroke_r	r	n/a
101.121	0.072	202242	keystroke_i	i	n/a
101.249	0.088	202498	keystroke_c	c	n/a
101.473	0.08	202946	keystroke_t	t	n/a
101.577	0.112	203154	keystroke_i	i	n/a
101.641	0.096	203282	keystroke_o	o	n/a
101.873	0.088	203746	keystroke_n	n	n/a
102.081	0.096	204162	keystroke_Key.space	Key.space	n/a
102.761	0.104	205522	keystroke_s	s	n/a
102.953	0.088	205906	keystroke_u	u	n/a
103.337	0.088	206674	keystroke_p	p	n/a
103.513	0.144	207026	keystroke_e	e	n/a
103.577	0.104	207154	keystroke_r	r	n/a
103.833	0.104	207666	keystroke_v	v	n/a
103.985	0.088	207970	keystroke_i	i	n/a
104.137	0.088	208274	keystroke_s	s	n/a
104.249	0.184	208498	keystroke_i	i	n/a
104.377	0.104	208754	keystroke_o	o	n/a
104.633	0.104	209266	keystroke_n	n	n/a
105.321	0.12	210642	keystroke_Key.enter	Key.enter	n/a
105.4455	8.381	210891	prompt	n/a	couple charity neighbors which's\n
106.129	0.136	212258	keystroke_c	c	n/a
106.273	0.12	212546	keystroke_o	o	n/a
106.337	0.104	212674	keystroke_u	u	n/a
106.513	0.088	213026	keystroke_p	p	n/a
106.721	0.08	213442	keystroke_l	l	n/a
106.897	0.056	213794	keystroke_e	e	n/a
107.033	0.088	214066	keystroke_Key.space	Key.space	n/a
107.6485	0.144	215297	keystroke_c	c	n/a
107.7845	0.096	215569	keystroke_h	h	n/a
107.9765	0.12	215953	keystroke_a	a	n/a
108.0405	0.096	216081	keystroke_r	r	n/a
108.185	0.1285	216370	keystroke_i	i	n/a
108.289	0.1115	216578	keystroke_t	t	n/a
108.4655	0.104	216931	keystroke_y	y	n/a
108.6485	0.112	217297	keystroke_Key.space	Key.space	n/a
109.5135	0.071	219027	keystroke_n	n	n/a
109.5925	0.081	219185	keystroke_e	e	n/a
109.7605	0.144	219521	keystroke_i	i	n/a
109.8725	0.104	219745	keystroke_g	g	n/a
110.0175	0.079	220035	keystroke_h	h	n/a
110.401	0.08	220802	keystroke_b	b	n/a
110.657	0.056	221314	keystroke_o	o	n/a
110.809	0.056	221618	keystroke_o	o	n/a
111.609	0.064	223218	keystroke_Key.backspace	Key.backspace	n/a
111.713	0.112	223426	keystroke_r	r	n/a
111.945	0.08	223890	keystroke_s	s	n/a
112.5535	0.096	225107	keystroke_Key.space	Key.space	n/a
112.8575	0.056	225715	keystroke_w	w	n/a
112.9775	0.144	225955	keystroke_h	h	n/a
113.0815	0.104	226163	keystroke_i	i	n/a
113.1775	0.104	226355	keystroke_c	c	n/a
113.2815	0.088	226563	keystroke_h	h	n/a
113.4735	0.088	226947	keystroke_'	'	n/a
113.5455	0.096	227091	keystroke_s	s	n/a
113.7375	0.088	227475	keystroke_Key.enter	Key.enter	n/a
113.831	7.987	227662	prompt	n/a	peripheral military disney merit\n
114.457	0.088	228914	keystroke_p	p	n/a
114.585	0.184	229170	keystroke_e	e	n/a
114.705	0.104	229410	keystroke_r	r	n/a
114.897	0.096	229794	keystroke_i	i	n/a
115.185	0.088	230370	keystroke_p	p	n/a
115.401	0.104	230802	keystroke_h	h	n/a
115.593	0.144	231186	keystroke_e	e	n/a
115.657	0.112	231314	keystroke_r	r	n/a
116.2895	0.1355	232579	keystroke_a	a	n/a
116.473	0.08	232946	keystroke_l	l	n/a
116.649	0.048	233298	keystroke_Key.space	Key.space	n/a
116.785	0.064	233570	keystroke_m	m	n/a
116.937	0.096	233874	keystroke_i	i	n/a
117.129	0.1035	234258	keystroke_l	l	n/a
117.3935	0.087	234787	keystroke_i	i	n/a
117.857	0.112	235714	keystroke_t	t	n/a
118.081	0.128	236162	keystroke_a	a	n/a
118.145	0.1035	236290	keystroke_r	r	n/a
118.3605	0.096	236721	keystroke_y	y	n/a
118.4965	0.12	236993	keystroke_Key.space	Key.space	n/a
119.0565	0.112	238113	keystroke_d	d	n/a
119.1925	0.096	238385	keystroke_i	i	n/a
119.3205	0.12	238641	keystroke_s	s	n/a
119.4805	0.096	238961	keystroke_n	n	n/a
119.5845	0.096	239169	keystroke_e	e	n/a
119.7445	0.112	239489	keystroke_y	y	n/a
119.8805	0.128	239761	keystroke_Key.space	Key.space	n/a
120.817	0.12	241634	keystroke_m	m	n/a
121.121	0.152	242242	keystroke_e	e	n/a
121.193	0.112	242386	keystroke_r	r	n/a
121.361	0.088	242722	keystroke_i	i	n/a
121.489	0.104	242978	keystroke_t	t	n/a
121.745	0.072	243490	keystroke_Key.enter	Key.enter	n/a
121.821	4.5735	243642	prompt	n/a	else portal fires brake\n
122.513	0.096	245026	keystroke_e	e	n/a
122.697	0.112	245394	keystroke_l	l	n/a
122.841	0.144	245682	keystroke_s	s	n/a
122.953	0.104	245906	keystroke_e	e	n/a
123.073	0.112	246146	keystroke_Key.space	Key.space	n/a
123.193	0.16	246386	keystroke_p	p	n/a
123.297	0.12	246594	keystroke_o	o	n/a
123.385	0.088	246770	keystroke_r	r	n/a
123.553	0.088	247106	keystroke_t	t	n/a
123.713	0.128	247426	keystroke_a	a	n/a
123.825	0.096	247650	keystroke_l	l	n/a
123.993	0.096	247986	keystroke_Key.space	Key.space	n/a
124.681	0.12	249362	keystroke_f	f	n/a
124.825	0.088	249650	keystroke_i	i	n/a
124.905	0.12	249810	keystroke_r	r	n/a
124.969	0.072	249938	keystroke_e	e	n/a
125.137	0.072	250274	keystroke_s	s	n/a
125.257	0.096	250514	keystroke_Key.space	Key.space	n/a
125.649	0.12	251298	keystroke_b	b	n/a
125.745	0.096	251490	keystroke_r	r	n/a
125.881	0.112	251762	keystroke_a	a	n/a
126.033	0.088	252066	keystroke_k	k	n/a
126.113	0.08	252226	keystroke_e	e	n/a
126.313	0.08	252626	keystroke_Key.enter	Key.enter	n/a
126.397	9.677	252794	prompt	n/a	employee council languages dedicated\n
127.129	0.0795	254258	keystroke_e	e	n/a
127.3125	0.128	254625	keystroke_m	m	n/a
127.4325	0.08	254865	keystroke_p	p	n/a
127.6165	0.072	255233	keystroke_o	o	n/a
127.7765	0.056	255553	keystroke_o	o	n/a
127.9365	0.096	255873	keystroke_y	y	n/a
128.0565	0.04	256113	keystroke_e	e	n/a
128.385	0.04	256770	keystroke_Key.backspace	Key.backspace	n/a
128.545	0.048	257090	keystroke_Key.backspace	Key.backspace	n/a
128.705	0.056	257410	keystroke_Key.backspace	Key.backspace	n/a
128.865	0.064	257730	keystroke_Key.backspace	Key.backspace	n/a
129.073	0.072	258146	keystroke_l	l	n/a
129.257	0.032	258514	keystroke_o	o	n/a
129.361	0.096	258722	keystroke_y	y	n/a
129.489	0.088	258978	keystroke_e	e	n/a
129.665	0.088	259330	keystroke_e	e	n/a
129.785	0.096	259570	keystroke_Key.space	Key.space	n/a
130.625	0.12	261250	keystroke_c	c	n/a
130.761	0.136	261522	keystroke_o	o	n/a
130.817	0.096	261634	keystroke_u	u	n/a
131.025	0.096	262050	keystroke_n	n	n/a
131.129	0.12	262258	keystroke_c	c	n/a
131.265	0.072	262530	keystroke_i	i	n/a
131.441	0.096	262882	keystroke_l	l	n/a
131.625	0.112	263250	keystroke_Key.space	Key.space	n/a
131.961	0.112	263922	keystroke_l	l	n/a
132.113	0.1035	264226	keystroke_a	a	n/a
132.489	0.08	264978	keystroke_n	n	n/a
132.705	0.088	265410	keystroke_g	g	n/a
132.841	0.12	265682	keystroke_u	u	n/a
132.993	0.08	265986	keystroke_a	a	n/a
133.041	0.088	266082	keystroke_g	g	n/a
133.169	0.088	266338	keystroke_e	e	n/a
133.353	0.096	266706	keystroke_s	s	n/a
134.017	0.104	268034	keystroke_Key.space	Key.space	n/a
134.361	0.088	268722	keystroke_d	d	n/a
134.729	0.072	269458	keystroke_e	e	n/a
134.905	0.096	269810	keystroke_d	d	n/a
135.033	0.08	270066	keystroke_i	i	n/a
135.121	0.112	270242	keystroke_c	c	n/a
135.313	0.136	270626	keystroke_a	a	n/a
135.417	0.136	270834	keystroke_t	t	n/a
135.497	0.08	270994	keystroke_e	e	n/a
135.657	0.112	271314	keystroke_d	d	n/a
136.009	0.064	272018	keystroke_Key.enter	Key.enter	n/a
136.0765	7.8375	272153	prompt	n/a	entered especially concern finland\n
136.8405	0.08	273681	keystroke_e	e	n/a
137.1125	0.0885	274225	keystroke_n	n	n/a
137.249	0.12	274498	keystroke_t	t	n/a
137.393	0.112	274786	keystroke_e	e	n/a
137.513	0.096	275026	keystroke_r	r	n/a
137.593	0.088	275186	keystroke_e	e	n/a
137.753	0.128	275506	keystroke_d	d	n/a
137.905	0.088	275810	keystroke_Key.space	Key.space	n/a
138.513	0.088	277026	keystroke_e	e	n/a
138.713	0.104	277426	keystroke_s	s	n/a
138.841	0.072	277682	keystroke_p	p	n/a
138.913	0.104	277826	keystroke_e	e	n/a
139.089	0.104	278178	keystroke_c	c	n/a
139.209	0.072	278418	keystroke_i	i	n/a
139.337	0.112	278674	keystroke_a	a	n/a
139.433	0.064	278866	keystroke_l	l	n/a
139.561	0.088	279122	keystroke_l	l	n/a
139.769	0.104	279538	keystroke_y	y	n/a
139.913	0.104	279826	keystroke_Key.space	Key.space	n/a
140.609	0.087	281218	keystroke_c	c	n/a
140.704	0.04	281408	keystroke_o	o	n/a
140.88	0.088	281760	keystroke_n	n	n/a
140.984	0.096	281968	keystroke_c	c	n/a
141.352	0.16	282704	keystroke_e	e	n/a
141.448	0.112	282896	keystroke_r	r	n/a
141.569	0.095	283138	keystroke_n	n	n/a
141.736	0.12	283472	keystroke_Key.space	Key.space	n/a
142.384	0.089	284768	keystroke_f	f	n/a
142.552	0.08	285104	keystroke_i	i	n/a
142.72	0.088	285440	keystroke_n	n	n/a
143.208	0.08	286416	keystroke_l	l	n/a
143.352	0.096	286704	keystroke_a	a	n/a
143.464	0.08	286928	keystroke_n	n	n/a
143.569	0.119	287138	keystroke_d	d	n/a
143.816	0.096	287632	keystroke_Key.enter	Key.enter	n/a
143.917	6.077	287834	prompt	n/a	yoga expiration site apart\n
144.6165	0.072	289233	keystroke_y	y	n/a
144.8165	0.088	289633	keystroke_o	o	n/a
144.9285	0.096	289857	keystroke_g	g	n/a
145.0965	0.088	290193	keystroke_a	a	n/a
145.2245	0.104	290449	keystroke_Key.space	Key.space	n/a
145.8645	0.08	291729	keystroke_e	e	n/a
146.1605	0.12	292321	keystroke_x	x	n/a
146.496	0.12	292992	keystroke_p	p	n/a
146.768	0.088	293536	keystroke_i	i	n/a
146.984	0.104	293968	keystroke_r	r	n/a
147.209	0.128	294418	keystroke_a	a	n/a
147.297	0.112	294594	keystroke_t	t	n/a
147.417	0.128	294834	keystroke_i	i	n/a
147.529	0.088	295058	keystroke_o	o	n/a
147.801	0.12	295602	keystroke_n	n	n/a
148.057	0.128	296114	keystroke_Key.space	Key.space	n/a
148.4565	0.112	296913	keystroke_s	s	n/a
148.5925	0.104	297185	keystroke_i	i	n/a
148.6725	0.16	297345	keystroke_t	t	n/a
148.7525	0.104	297505	keystroke_e	e	n/a
148.8725	0.088	297745	keystroke_Key.space	Key.space	n/a
148.9925	0.128	297985	keystroke_a	a	n/a
149.1365	0.072	298273	keystroke_p	p	n/a
149.4885	0.136	298977	keystroke_a	a	n/a
149.5525	0.096	299105	keystroke_r	r	n/a
149.7285	0.12	299457	keystroke_t	t	n/a
149.8965	0.096	299793	keystroke_Key.enter	Key.enter	n/a
149.9975	10.7405	299995	prompt	n/a	illness fusion pharmaceuticals anytime\n
150.8485	0.08	301697	keystroke_i	i	n/a
151.0565	0.072	302113	keystroke_l	l	n/a
151.2245	0.048	302449	keystroke_l	l	n/a
151.4005	0.08	302801	keystroke_n	n	n/a
151.5125	0.08	303025	keystroke_e	e	n/a
151.7045	0.088	303409	keystroke_s	s	n/a
151.9045	0.072	303809	keystroke_s	s	n/a
152.265	0.111	304530	keystroke_Key.space	Key.space	n/a
152.481	0.112	304962	keystroke_f	f	n/a
152.608	0.081	305216	keystroke_u	u	n/a
152.745	0.103	305490	keystroke_s	s	n/a
152.88	0.144	305760	keystroke_i	i	n/a
152.992	0.073	305984	keystroke_o	o	n/a
153.169	0.079	306338	keystroke_n	n	n/a
153.352	0.112	306704	keystroke_Key.space	Key.space	n/a
154.024	0.072	308048	keystroke_p	p	n/a
154.312	0.096	308624	keystroke_h	h	n/a
154.488	0.144	308976	keystroke_a	a	n/a
154.552	0.112	309104	keystroke_r	r	n/a
154.76	0.096	309520	keystroke_m	m	n/a
154.992	0.096	309984	keystroke_a	a	n/a
156.224	0.0965	312448	keystroke_c	c	n/a
156.4405	0.096	312881	keystroke_e	e	n/a
157.209	0.112	314418	keystroke_u	u	n/a
157.984	0.096	315968	keystroke_t	t	n/a
158.16	0.081	316320	keystroke_i	i	n/a
158.249	0.1435	316498	keystroke_c	c	n/a
158.3525	0.144	316705	keystroke_a	a	n/a
158.4725	0.088	316945	keystroke_l	l	n/a
158.5765	0.104	317153	keystroke_s	s	n/a
158.9925	0.128	317985	keystroke_Key.space	Key.space	n/a
159.5125	0.088	319025	keystroke_a	a	n/a
159.6325	0.064	319265	keystroke_n	n	n/a
159.8405	0.08	319681	keystroke_y	y	n/a
159.9685	0.128	319937	keystroke_t	t	n/a
160.0805	0.064	320161	keystroke_i	i	n/a
160.2565	0.072	320513	keystroke_m	m	n/a
160.369	0.12	320738	keystroke_e	e	n/a
160.657	0.079	321314	keystroke_Key.enter	Key.enter	n/a
160.741	9.8685	321482	prompt	n/a	slip respective organizer seasonal\n
161.377	0.112	322754	keystroke_s	s	n/a
161.641	0.071	323282	keystroke_l	l	n/a
161.809	0.08	323618	keystroke_i	i	n/a
161.977	0.088	323954	keystroke_p	p	n/a
162.1365	0.08	324273	keystroke_Key.space	Key.space	n/a
162.6965	0.144	325393	keystroke_r	r	n/a
162.7685	0.08	325537	keystroke_e	e	n/a
162.9845	0.12	325969	keystroke_s	s	n/a
163.1205	0.056	326241	keystroke_p	p	n/a
163.2245	0.184	326449	keystroke_e	e	n/a
163.3045	0.128	326609	keystroke_c	c	n/a
163.5525	0.096	327105	keystroke_t	t	n/a
163.6965	0.072	327393	keystroke_i	i	n/a
163.8165	0.128	327633	keystroke_v	v	n/a
163.8725	0.128	327745	keystroke_e	e	n/a
163.9925	0.088	327985	keystroke_Key.space	Key.space	n/a
164.72	0.12	329440	keystroke_a	a	n/a
165.224	0.056	330448	keystroke_Key.backspace	Key.backspace	n/a
165.44	0.064	330880	keystroke_o	o	n/a
165.528	0.064	331056	keystroke_r	r	n/a
165.72	0.104	331440	keystroke_g	g	n/a
165.904	0.08	331808	keystroke_a	a	n/a
165.992	0.064	331984	keystroke_n	n	n/a
166.2	0.0885	332400	keystroke_i	i	n/a
166.3045	0.096	332609	keystroke_z	z	n/a
166.5525	0.144	333105	keystroke_a	a	n/a
166.9285	0.168	333857	keystroke_e	e	n/a
167.0325	0.1115	334065	keystroke_r	r	n/a
167.336	0.048	334672	keystroke_Key.backspace	Key.backspace	n/a
167.488	0.064	334976	keystroke_Key.backspace	Key.backspace	n/a
167.648	0.072	335296	keystroke_Key.backspace	Key.backspace	n/a
167.696	0.112	335392	keystroke_e	e	n/a
167.752	0.088	335504	keystroke_r	r	n/a
167.848	0.104	335696	keystroke_Key.space	Key.space	n/a
169.024	0.112	338048	keystroke_a	a	n/a
169.4	0.072	338800	keystroke_Key.backspace	Key.backspace	n/a
169.456	0.112	338912	keystroke_s	s	n/a
169.552	0.112	339104	keystroke_e	e	n/a
169.744	0.128	339488	keystroke_a	a	n/a
169.784	0.176	339568	keystroke_s	s	n/a
169.904	0.072	339808	keystroke_o	o	n/a
170.064	0.088	340128	keystroke_n	n	n/a
170.208	0.112	340416	keystroke_a	a	n/a
170.296	0.0885	340592	keystroke_l	l	n/a
170.5445	0.064	341089	keystroke_Key.enter	Key.enter	n/a
170.614	4.9555	341228	prompt	n/a	expense samples emily clay\n
171.3685	0.064	342737	keystroke_e	e	n/a
171.5445	0.088	343089	keystroke_x	x	n/a
171.7205	0.08	343441	keystroke_p	p	n/a
171.8245	0.104	343649	keystroke_e	e	n/a
171.9605	0.088	343921	keystroke_n	n	n/a
172.0495	0.1825	344099	keystroke_s	s	n/a
172.136	0.104	344272	keystroke_e	e	n/a
172.224	0.096	344448	keystroke_Key.space	Key.space	n/a
172.896	0.089	345792	keystroke_s	s	n/a
173.064	0.136	346128	keystroke_a	a	n/a
173.16	0.112	346320	keystroke_m	m	n/a
173.248	0.064	346496	keystroke_p	p	n/a
173.424	0.097	346848	keystroke_l	l	n/a
173.488	0.08	346976	keystroke_e	e	n/a
173.664	0.104	347328	keystroke_s	s	n/a
173.769	0.087	347538	keystroke_Key.space	Key.space	n/a
173.88	0.12	347760	keystroke_e	e	n/a
173.984	0.144	347968	keystroke_m	m	n/a
174.136	0.088	348272	keystroke_i	i	n/a
174.328	0.064	348656	keystroke_l	l	n/a
174.52	0.12	349040	keystroke_y	y	n/a
174.632	0.096	349264	keystroke_Key.space	Key.space	n/a
174.776	0.136	349552	keystroke_c	c	n/a
174.872	0.104	349744	keystroke_l	l	n/a
175.016	0.096	350032	keystroke_a	a	n/a
175.152	0.104	350304	keystroke_y	y	n/a
175.496	0.072	350992	keystroke_Key.enter	Key.enter	n/a
175.573	9.1245	351146	prompt	n/a	theology electron proposal over\n
176.608	0.112	353216	keystroke_t	t	n/a
176.744	0.064	353488	keystroke_h	h	n/a
176.816	0.088	353632	keystroke_e	e	n/a
176.936	0.104	353872	keystroke_o	o	n/a
177.1845	0.056	354369	keystroke_g	g	n/a
177.5925	0.072	355185	keystroke_Key.backspace	Key.backspace	n/a
177.9605	0.104	355921	keystroke_l	l	n/a
178.2085	0.088	356417	keystroke_o	o	n/a
178.4	0.112	356800	keystroke_g	g	n/a
178.56	0.088	357120	keystroke_y	y	n/a
178.704	0.096	357408	keystroke_Key.space	Key.space	n/a
179.32	0.072	358640	keystroke_e	e	n/a
179.448	0.112	358896	keystroke_l	l	n/a
179.552	0.112	359104	keystroke_e	e	n/a
179.736	0.096	359472	keystroke_c	c	n/a
179.936	0.096	359872	keystroke_t	t	n/a
180.08	0.112	360160	keystroke_r	r	n/a
180.193	0.103	360386	keystroke_o	o	n/a
180.352	0.0885	360704	keystroke_n	n	n/a
180.4965	0.096	360993	keystroke_Key.space	Key.space	n/a
181.0735	0.063	362147	keystroke_p	p	n/a
181.5925	0.112	363185	keystroke_r	r	n/a
181.7445	0.08	363489	keystroke_o	o	n/a
181.9445	0.112	363889	keystroke_r	r	n/a
182.472	0.048	364944	keystroke_Key.backspace	Key.backspace	n/a
182.696	0.072	365392	keystroke_p	p	n/a
182.896	0.088	365792	keystroke_o	o	n/a
183.016	0.104	366032	keystroke_s	s	n/a
183.216	0.12	366432	keystroke_a	a	n/a
183.328	0.088	366656	keystroke_l	l	n/a
183.512	0.056	367024	keystroke_Key.space	Key.space	n/a
184.12	0.08	368240	keystroke_o	o	n/a
184.216	0.088	368432	keystroke_v	v	n/a
184.392	0.1525	368784	keystroke_e	e	n/a
184.4565	0.12	368913	keystroke_r	r	n/a
184.6325	0.064	369265	keystroke_Key.enter	Key.enter	n/a
184.7015	10.084	369403	prompt	n/a	extreme calendar bumper widespread\n
185.3685	0.08	370737	keystroke_e	e	n/a
185.8165	0.088	371633	keystroke_x	x	n/a
186.0085	0.128	372017	keystroke_t	t	n/a
186.1605	0.136	372321	keystroke_e	e	n/a
186.608	0.064	373216	keystroke_Key.backspace	Key.backspace	n/a
186.728	0.144	373456	keystroke_r	r	n/a
186.864	0.136	373728	keystroke_e	e	n/a
186.992	0.088	373984	keystroke_m	m	n/a
187.1445	0.103	374289	keystroke_e	e	n/a
187.2795	0.096	374559	keystroke_Key.space	Key.space	n/a
188.0715	0.121	376143	keystroke_c	c	n/a
188.2235	0.136	376447	keystroke_a	a	n/a
188.3365	0.087	376673	keystroke_l	l	n/a
188.6715	0.112	377343	keystroke_n	n	n/a
189.0475	0.064	378095	keystroke_Key.backspace	Key.backspace	n/a
189.1275	0.08	378255	keystroke_e	e	n/a
189.3115	0.096	378623	keystroke_n	n	n/a
189.3915	0.088	378783	keystroke_d	d	n/a
189.6075	0.144	379215	keystroke_a	a	n/a
189.6875	0.112	379375	keystroke_r	r	n/a
189.8875	0.128	379775	keystroke_Key.space	Key.space	n/a
190.824	0.104	381648	keystroke_b	b	n/a
191.032	0.08	382064	keystroke_u	u	n/a
191.248	0.104	382496	keystroke_m	m	n/a
191.36	0.104	382720	keystroke_p	p	n/a
191.552	0.128	383104	keystroke_e	e	n/a
191.608	0.12	383216	keystroke_r	r	n/a
191.752	0.096	383504	keystroke_Key.space	Key.space	n/a
192.4165	0.0555	384833	keystroke_a	a	n/a
192.72	0.064	385440	keystroke_Key.backspace	Key.backspace	n/a
192.8	0.096	385600	keystroke_w	w	n/a
192.984	0.096	385968	keystroke_i	i	n/a
193.112	0.088	386224	keystroke_d	d	n/a
193.328	0.088	386656	keystroke_e	e	n/a
193.608	0.096	387216	keystroke_s	s	n/a
193.688	0.104	387376	keystroke_p	p	n/a
193.808	0.128	387616	keystroke_r	r	n/a
193.848	0.104	387696	keystroke_e	e	n/a
194.056	0.16	388112	keystroke_a	a	n/a
194.136	0.128	388272	keystroke_d	d	n/a
194.6885	0.095	389377	keystroke_Key.enter	Key.enter	n/a
194.789	11.8125	389578	prompt	n/a	'tis bargain sphere saturday\n
195.4965	0.096	390993	keystroke_i	i	n/a
195.8885	0.048	391777	keystroke_Key.backspace	Key.backspace	n/a
196.0245	0.064	392049	keystroke_Key.backspace	Key.backspace	n/a
196.2325	0.095	392465	keystroke_'	'	n/a
197	0.096	394000	keystroke_t	t	n/a
197.3435	0.112	394687	keystroke_i	i	n/a
197.4955	0.072	394991	keystroke_s	s	n/a
197.5835	0.112	395167	keystroke_Key.space	Key.space	n/a
198.2795	0.096	396559	keystroke_b	b	n/a
198.472	0.128	396944	keystroke_a	a	n/a
198.568	0.104	397136	keystroke_r	r	n/a
198.864	0.128	397728	keystroke_g	g	n/a
198.976	0.128	397952	keystroke_a	a	n/a
199.112	0.072	398224	keystroke_i	i	n/a
199.296	0.08	398592	keystroke_n	n	n/a
199.424	0.112	398848	keystroke_Key.space	Key.space	n/a
199.992	0.096	399984	keystroke_s	s	n/a
200.128	0.096	400256	keystroke_p	p	n/a
200.24	0.152	400480	keystroke_r	r	n/a
200.312	0.104	400624	keystroke_e	e	n/a
200.5365	0.104	401073	keystroke_h	h	n/a
200.7205	0.064	401441	keystroke_e	e	n/a
200.9365	0.056	401873	keystroke_Key.backspace	Key.backspace	n/a
201.1045	0.064	402209	keystroke_Key.backspace	Key.backspace	n/a
201.2725	0.072	402545	keystroke_Key.backspace	Key.backspace	n/a
201.4325	0.064	402865	keystroke_Key.backspace	Key.backspace	n/a
201.6725	0.064	403345	keystroke_h	h	n/a
201.7445	0.112	403489	keystroke_e	e	n/a
201.8565	0.152	403713	keystroke_r	r	n/a
201.9525	0.08	403905	keystroke_e	e	n/a
202.1045	0.1195	404209	keystroke_Key.space	Key.space	n/a
202.7435	0.088	405487	keystroke_s	s	n/a
202.9675	0.088	405935	keystroke_a	a	n/a
203.0955	0.12	406191	keystroke_t	t	n/a
203.2555	0.104	406511	keystroke_u	u	n/a
203.3835	0.112	406767	keystroke_r	r	n/a
203.5515	0.12	407103	keystroke_a	a	n/a
204.1435	0.128	408287	keystroke_d	d	n/a
205.3355	0.072	410671	keystroke_Key.backspace	Key.backspace	n/a
205.4795	0.096	410959	keystroke_Key.backspace	Key.backspace	n/a
205.5675	0.096	411135	keystroke_d	d	n/a
205.6955	0.136	411391	keystroke_a	a	n/a
205.7995	0.104	411599	keystroke_y	y	n/a
206.504	0.096	413008	keystroke_Key.enter	Key.enter	n/a
206.604	10.925	413208	prompt	n/a	cultural dumb retrieval decline\n
207.2875	0.088	414575	keystroke_c	c	n/a
207.4555	0.088	414911	keystroke_u	u	n/a
207.6635	0.088	415327	keystroke_l	l	n/a
207.8155	0.136	415631	keystroke_r	r	n/a
208.0155	0.112	416031	keystroke_u	u	n/a
208.688	0.056	417376	keystroke_Key.backspace	Key.backspace	n/a
208.864	0.056	417728	keystroke_Key.backspace	Key.backspace	n/a
208.936	0.112	417872	keystroke_t	t	n/a
209.08	0.08	418160	keystroke_u	u	n/a
209.176	0.096	418352	keystroke_r	r	n/a
209.36	0.104	418720	keystroke_a	a	n/a
209.432	0.096	418864	keystroke_l	l	n/a
209.584	0.104	419168	keystroke_Key.space	Key.space	n/a
209.992	0.104	419984	keystroke_d	d	n/a
210.152	0.08	420304	keystroke_u	u	n/a
210.368	0.096	420736	keystroke_m	m	n/a
210.5445	0.079	421089	keystroke_b	b	n/a
210.6885	0.095	421377	keystroke_Key.space	Key.space	n/a
211.4725	0.16	422945	keystroke_r	r	n/a
211.5525	0.12	423105	keystroke_e	e	n/a
211.7365	0.104	423473	keystroke_t	t	n/a
211.9605	0.112	423921	keystroke_i	i	n/a
212.52	0.056	425040	keystroke_Key.backspace	Key.backspace	n/a
212.608	0.096	425216	keystroke_r	r	n/a
212.76	0.08	425520	keystroke_i	i	n/a
213.04	0.112	426080	keystroke_e	e	n/a
213.608	0.072	427216	keystroke_v	v	n/a
213.784	0.088	427568	keystroke_a	a	n/a
213.896	0.08	427792	keystroke_l	l	n/a
214.056	0.088	428112	keystroke_Key.space	Key.space	n/a
215.768	0.088	431536	keystroke_d	d	n/a
215.96	0.072	431920	keystroke_e	e	n/a
216.152	0.072	432304	keystroke_l	l	n/a
216.5675	0.064	433135	keystroke_Key.backspace	Key.backspace	n/a
216.6875	0.096	433375	keystroke_c	c	n/a
216.7915	0.064	433583	keystroke_l	l	n/a
216.9755	0.048	433951	keystroke_i	i	n/a
217.1195	0.0805	434239	keystroke_n	n	n/a
217.224	0.08	434448	keystroke_e	e	n/a
217.432	0.096	434864	keystroke_Key.enter	Key.enter	n/a
217.5325	10.0605	435065	prompt	n/a	salem interface monitored confirmed\n
218.128	0.08	436256	keystroke_s	s	n/a
218.344	0.136	436688	keystroke_a	a	n/a
218.472	0.0795	436944	keystroke_l	l	n/a
218.6315	0.104	437263	keystroke_a	a	n/a
218.7835	0.08	437567	keystroke_m	m	n/a
219.1035	0.032	438207	keystroke_Key.backspace	Key.backspace	n/a
219.2475	0.056	438495	keystroke_Key.backspace	Key.backspace	n/a
219.3515	0.08	438703	keystroke_e	e	n/a
219.4715	0.064	438943	keystroke_m	m	n/a
219.6155	0.088	439231	keystroke_Key.space	Key.space	n/a
219.9995	0.072	439999	keystroke_i	i	n/a
220.1675	0.112	440335	keystroke_n	n	n/a
220.3515	0.136	440703	keystroke_t	t	n/a
220.688	0.152	441376	keystroke_e	e	n/a
220.752	0.104	441504	keystroke_r	r	n/a
221.072	0.072	442144	keystroke_v	v	n/a
221.472	0.064	442944	keystroke_Key.backspace	Key.backspace	n/a
221.512	0.0795	443024	keystroke_f	f	n/a
221.6315	0.128	443263	keystroke_a	a	n/a
221.7115	0.136	443423	keystroke_c	c	n/a
221.8075	0.096	443615	keystroke_e	e	n/a
222.2555	0.096	444511	keystroke_Key.space	Key.space	n/a
222.5675	0.104	445135	keystroke_m	m	n/a
222.6795	0.064	445359	keystroke_o	o	n/a
222.8235	0.08	445647	keystroke_n	n	n/a
222.9355	0.096	445871	keystroke_i	i	n/a
223.4555	0.112	446911	keystroke_t	t	n/a
223.7515	0.112	447503	keystroke_o	o	n/a
223.9355	0.064	447871	keystroke_r	r	n/a
224.5755	0.072	449151	keystroke_e	e	n/a
224.7675	0.12	449535	keystroke_d	d	n/a
224.9915	0.08	449983	keystroke_Key.space	Key.space	n/a
225.2075	0.12	450415	keystroke_c	c	n/a
225.2795	0.08	450559	keystroke_o	o	n/a
225.4635	0.08	450927	keystroke_n	n	n/a
225.5675	0.12	451135	keystroke_f	f	n/a
225.7195	0.072	451439	keystroke_i	i	n/a
226.7595	0.104	453519	keystroke_r	r	n/a
226.9115	0.112	453823	keystroke_m	m	n/a
227.0155	0.088	454031	keystroke_e	e	n/a
227.215	0.12	454430	keystroke_d	d	n/a
227.519	0.072	455038	keystroke_Key.enter	Key.enter	n/a
227.5955	7.59	455191	prompt	n/a	dead inexpensive progressive madrid\n
228.4395	0.08	456879	keystroke_d	d	n/a
228.5915	0.1045	457183	keystroke_e	e	n/a
228.7515	0.136	457503	keystroke_a	a	n/a
228.824	0.1355	457648	keystroke_d	d	n/a
228.9115	0.096	457823	keystroke_Key.space	Key.space	n/a
229.0395	0.088	458079	keystroke_i	i	n/a
229.2315	0.088	458463	keystroke_n	n	n/a
229.7275	0.064	459455	keystroke_e	e	n/a
229.9195	0.104	459839	keystroke_x	x	n/a
230.0555	0.088	460111	keystroke_p	p	n/a
230.1755	0.112	460351	keystroke_e	e	n/a
230.3755	0.088	460751	keystroke_n	n	n/a
230.8155	0.096	461631	keystroke_s	s	n/a
230.9515	0.104	461903	keystroke_i	i	n/a
231.1035	0.112	462207	keystroke_v	v	n/a
231.2635	0.096	462527	keystroke_e	e	n/a
231.3835	0.112	462767	keystroke_Key.space	Key.space	n/a
231.6555	0.104	463311	keystroke_p	p	n/a
232.2	0.12	464400	keystroke_r	r	n/a
232.3355	0.112	464671	keystroke_o	o	n/a
232.4875	0.1045	464975	keystroke_g	g	n/a
232.711	0.152	465422	keystroke_r	r	n/a
232.775	0.096	465550	keystroke_e	e	n/a
232.975	0.088	465950	keystroke_s	s	n/a
233.175	0.08	466350	keystroke_s	s	n/a
233.343	0.08	466686	keystroke_i	i	n/a
233.44	0.095	466880	keystroke_v	v	n/a
233.551	0.112	467102	keystroke_e	e	n/a
233.655	0.08	467310	keystroke_Key.space	Key.space	n/a
233.887	0.088	467774	keystroke_m	m	n/a
233.999	0.08	467998	keystroke_o	o	n/a
234.095	0.081	468190	keystroke_d	d	n/a
234.295	0.056	468590	keystroke_e	e	n/a
234.551	0.0885	469102	keystroke_l	l	n/a
235.0795	0.104	470159	keystroke_Key.enter	Key.enter	n/a
235.188	9.485	470376	prompt	n/a	cold supplemental plumbing locally\n
236.0235	0.104	472047	keystroke_c	c	n/a
236.1035	0.064	472207	keystroke_o	o	n/a
236.2795	0.104	472559	keystroke_l	l	n/a
236.3755	0.112	472751	keystroke_d	d	n/a
236.5195	0.096	473039	keystroke_Key.space	Key.space	n/a
237.0475	0.0795	474095	keystroke_s	s	n/a
237.207	0.088	474414	keystroke_u	u	n/a
237.471	0.057	474942	keystroke_p	p	n/a
237.631	0.056	475262	keystroke_p	p	n/a
237.839	0.088	475678	keystroke_l	l	n/a
238.351	0.08	476702	keystroke_e	e	n/a
238.935	0.08	477870	keystroke_m	m	n/a
239.751	0.112	479502	keystroke_e	e	n/a
239.887	0.104	479774	keystroke_n	n	n/a
240.015	0.12	480030	keystroke_t	t	n/a
240.255	0.088	480510	keystroke_a	a	n/a
240.351	0.08	480702	keystroke_l	l	n/a
240.511	0.104	481022	keystroke_Key.space	Key.space	n/a
241.271	0.088	482542	keystroke_p	p	n/a
241.479	0.08	482958	keystroke_l	l	n/a
241.687	0.064	483374	keystroke_u	u	n/a
242.152	0.104	484304	keystroke_m	m	n/a
242.384	0.096	484768	keystroke_b	b	n/a
242.783	0.088	485566	keystroke_i	i	n/a
242.975	0.128	485950	keystroke_n	n	n/a
243.127	0.128	486254	keystroke_g	g	n/a
243.271	0.088	486542	keystroke_Key.space	Key.space	n/a
243.471	0.08	486942	keystroke_l	l	n/a
243.655	0.08	487310	keystroke_o	o	n/a
243.727	0.128	487454	keystroke_c	c	n/a
243.856	0.111	487712	keystroke_a	a	n/a
243.983	0.064	487966	keystroke_l	l	n/a
244.135	0.072	488270	keystroke_l	l	n/a
244.335	0.08	488670	keystroke_y	y	n/a
244.591	0.0805	489182	keystroke_Key.enter	Key.enter	n/a
244.6755	9.269	489351	prompt	n/a	null appreciation lawn comply\n
245.3835	0.08	490767	keystroke_n	n	n/a
245.5595	0.08	491119	keystroke_u	u	n/a
245.7515	0.072	491503	keystroke_l	l	n/a
245.9035	0.08	491807	keystroke_l	l	n/a
246.0475	0.096	492095	keystroke_Key.space	Key.space	n/a
246.7675	0.12	493535	keystroke_a	a	n/a
246.8635	0.056	493727	keystroke_p	p	n/a
247.0155	0.104	494031	keystroke_p	p	n/a
247.1115	0.1515	494223	keystroke_r	r	n/a
247.175	0.08	494350	keystroke_e	e	n/a
247.359	0.128	494718	keystroke_c	c	n/a
247.495	0.072	494990	keystroke_i	i	n/a
247.615	0.104	495230	keystroke_a	a	n/a
247.679	0.152	495358	keystroke_t	t	n/a
247.775	0.04	495550	keystroke_e	e	n/a
248.207	0.056	496414	keystroke_Key.backspace	Key.backspace	n/a
248.495	0.12	496990	keystroke_i	i	n/a
248.583	0.0885	497166	keystroke_o	o	n/a
248.8075	0.08	497615	keystroke_n	n	n/a
248.9915	0.072	497983	keystroke_Key.space	Key.space	n/a
249.3835	0.088	498767	keystroke_l	l	n/a
249.4725	0.071	498945	keystroke_a	a	n/a
249.6315	0.072	499263	keystroke_w	w	n/a
249.7195	0.112	499439	keystroke_n	n	n/a
249.9035	0.136	499807	keystroke_Key.space	Key.space	n/a
250.0395	0.112	500079	keystroke_c	c	n/a
250.0795	0.088	500159	keystroke_o	o	n/a
250.2475	0.104	500495	keystroke_m	m	n/a
250.2635	0.064	500527	keystroke_n	n	n/a
250.3285	0.071	500657	keystroke_p	p	n/a
250.4875	0.08	500975	keystroke_l	l	n/a
250.976	0.056	501952	keystroke_=	=	n/a
251.376	0.031	502752	keystroke_Key.backspace	Key.backspace	n/a
251.528	0.063	503056	keystroke_Key.backspace	Key.backspace	n/a
251.6785	0.065	503357	keystroke_Key.backspace	Key.backspace	n/a
252.1025	0.089	504205	keystroke_Key.backspace	Key.backspace	n/a
252.7435	0.128	505487	keystroke_p	p	n/a
252.8155	0.12	505631	keystroke_l	l	n/a
253.2635	0.104	506527	keystroke_y	y	n/a
253.8795	0.064	507759	keystroke_Key.enter	Key.enter	n/a
253.9475	7.221	507895	prompt	n/a	counties donations they enemy\n
254.759	0.128	509518	keystroke_c	c	n/a
254.895	0.144	509790	keystroke_o	o	n/a
254.975	0.0885	509950	keystroke_u	u	n/a
255.175	0.088	510350	keystroke_n	n	n/a
255.279	0.12	510558	keystroke_t	t	n/a
255.431	0.08	510862	keystroke_i	i	n/a
255.512	0.079	511024	keystroke_e	e	n/a
255.671	0.0885	511342	keystroke_s	s	n/a
255.7915	0.08	511583	keystroke_Key.space	Key.space	n/a
256.3435	0.112	512687	keystroke_d	d	n/a
256.5835	0.08	513167	keystroke_o	o	n/a
256.7595	0.088	513519	keystroke_n	n	n/a
257.375	0.056	514750	keystroke_a	a	n/a
257.527	0.104	515054	keystroke_t	t	n/a
257.639	0.112	515278	keystroke_i	i	n/a
257.703	0.088	515406	keystroke_o	o	n/a
257.895	0.104	515790	keystroke_n	n	n/a
258.023	0.072	516046	keystroke_s	s	n/a
258.135	0.088	516270	keystroke_Key.space	Key.space	n/a
258.7675	0.119	517535	keystroke_t	t	n/a
258.8625	0.096	517725	keystroke_h	h	n/a
258.9755	0.095	517951	keystroke_e	e	n/a
259.0795	0.104	518159	keystroke_y	y	n/a
259.2065	0.08	518413	keystroke_Key.space	Key.space	n/a
259.3345	0.104	518669	keystroke_e	e	n/a
259.4555	0.087	518911	keystroke_n	n	n/a
259.5665	0.088	519133	keystroke_e	e	n/a
260.335	0.064	520670	keystroke_m	m	n/a
260.759	0.128	521518	keystroke_y	y	n/a
261.095	0.072	522190	keystroke_Key.enter	Key.enter	n/a
261.172	9.3725	522344	prompt	n/a	united homepage greenhouse daniel\n
262.071	0.0725	524142	keystroke_u	u	n/a
262.2795	0.071	524559	keystroke_n	n	n/a
262.4705	0.089	524941	keystroke_i	i	n/a
262.6395	0.0955	525279	keystroke_t	t	n/a
262.991	0.088	525982	keystroke_e	e	n/a
263.199	0.088	526398	keystroke_d	d	n/a
263.311	0.112	526622	keystroke_Key.space	Key.space	n/a
264.015	0.104	528030	keystroke_h	h	n/a
264.127	0.096	528254	keystroke_o	o	n/a
264.319	0.08	528638	keystroke_e	e	n/a
264.735	0.04	529470	keystroke_Key.backspace	Key.backspace	n/a
264.935	0.096	529870	keystroke_m	m	n/a
265.023	0.096	530046	keystroke_e	e	n/a
265.295	0.096	530590	keystroke_p	p	n/a
265.511	0.096	531022	keystroke_a	a	n/a
265.591	0.136	531182	keystroke_g	g	n/a
265.735	0.104	531470	keystroke_e	e	n/a
265.911	0.128	531822	keystroke_Key.space	Key.space	n/a
266.6705	0.112	533341	keystroke_g	g	n/a
266.9665	0.136	533933	keystroke_r	r	n/a
267.2315	0.088	534463	keystroke_e	e	n/a
267.4315	0.128	534863	keystroke_e	e	n/a
267.5755	0.088	535151	keystroke_n	n	n/a
267.8235	0.096	535647	keystroke_h	h	n/a
267.9835	0.144	535967	keystroke_o	o	n/a
268.1035	0.12	536207	keystroke_u	u	n/a
268.2715	0.16	536543	keystroke_s	s	n/a
268.3355	0.104	536671	keystroke_e	e	n/a
268.6715	0.112	537343	keystroke_Key.space	Key.space	n/a
269.4875	0.112	538975	keystroke_d	d	n/a
269.6475	0.128	539295	keystroke_a	a	n/a
269.7675	0.088	539535	keystroke_n	n	n/a
269.9275	0.088	539855	keystroke_i	i	n/a
270.0795	0.088	540159	keystroke_e	e	n/a
270.1995	0.088	540399	keystroke_l	l	n/a
270.4635	0.079	540927	keystroke_Key.enter	Key.enter	n/a
270.557	7.2755	541114	prompt	n/a	inch screen coach kinase\n
271.1505	0.072	542301	keystroke_u	u	n/a
271.5025	0.056	543005	keystroke_Key.backspace	Key.backspace	n/a
271.7185	0.056	543437	keystroke_i	i	n/a
271.8625	0.088	543725	keystroke_n	n	n/a
271.9825	0.088	543965	keystroke_c	c	n/a
272.1105	0.089	544221	keystroke_h	h	n/a
272.2715	0.112	544543	keystroke_Key.space	Key.space	n/a
272.7035	0.087	545407	keystroke_s	s	n/a
273.0785	0.096	546157	keystroke_c	c	n/a
273.2865	0.112	546573	keystroke_r	r	n/a
273.3345	0.096	546669	keystroke_e	e	n/a
273.5105	0.112	547021	keystroke_e	e	n/a
273.6945	0.08	547389	keystroke_n	n	n/a
273.8465	0.088	547693	keystroke_Key.space	Key.space	n/a
274.4385	0.088	548877	keystroke_c	c	n/a
274.5425	0.08	549085	keystroke_o	o	n/a
274.6865	0.1045	549373	keystroke_a	a	n/a
274.855	0.12	549710	keystroke_c	c	n/a
275.039	0.096	550078	keystroke_h	h	n/a
275.215	0.08	550430	keystroke_Key.space	Key.space	n/a
275.839	0.088	551678	keystroke_k	k	n/a
276.047	0.064	552094	keystroke_i	i	n/a
276.215	0.104	552430	keystroke_n	n	n/a
276.367	0.088	552734	keystroke_a	a	n/a
277.2465	0.112	554493	keystroke_s	s	n/a
277.4465	0.096	554893	keystroke_e	e	n/a
277.7585	0.072	555517	keystroke_Key.enter	Key.enter	n/a
277.836	7.492	555672	prompt	n/a	liable boys logging compound\n
278.4545	0.072	556909	keystroke_l	l	n/a
278.6465	0.064	557293	keystroke_i	i	n/a
278.7585	0.1045	557517	keystroke_a	a	n/a
278.855	0.072	557710	keystroke_b	b	n/a
279.023	0.08	558046	keystroke_l	l	n/a
279.103	0.088	558206	keystroke_e	e	n/a
279.215	0.112	558430	keystroke_Key.space	Key.space	n/a
279.567	0.088	559134	keystroke_b	b	n/a
279.727	0.088	559454	keystroke_o	o	n/a
279.919	0.096	559838	keystroke_y	y	n/a
280.023	0.08	560046	keystroke_s	s	n/a
280.127	0.128	560254	keystroke_Key.space	Key.space	n/a
280.7745	0.064	561549	keystroke_o	o	n/a
281.1345	0.064	562269	keystroke_Key.backspace	Key.backspace	n/a
281.3585	0.072	562717	keystroke_l	l	n/a
281.5425	0.08	563085	keystroke_o	o	n/a
281.7025	0.08	563405	keystroke_g	g	n/a
281.8785	0.112	563757	keystroke_g	g	n/a
282.0065	0.08	564013	keystroke_i	i	n/a
282.2225	0.089	564445	keystroke_n	n	n/a
282.3515	0.088	564703	keystroke_g	g	n/a
282.4705	0.104	564941	keystroke_Key.space	Key.space	n/a
282.9665	0.12	565933	keystroke_c	c	n/a
283.2225	0.136	566445	keystroke_o	o	n/a
283.6145	0.112	567229	keystroke_m	m	n/a
283.8545	0.104	567709	keystroke_p	p	n/a
284.0705	0.096	568141	keystroke_o	o	n/a
284.0785	0.136	568157	keystroke_u	u	n/a
284.951	0.096	569902	keystroke_n	n	n/a
285.079	0.112	570158	keystroke_d	d	n/a
285.247	0.08	570494	keystroke_Key.enter	Key.enter	n/a
285.3305	11.4935	570661	prompt	n/a	loads components collectibles paso\n
286.687	0.032	573374	keystroke_k	k	n/a
287.367	0.072	574734	keystroke_Key.backspace	Key.backspace	n/a
287.927	0.08	575854	keystroke_l	l	n/a
288.119	0.08	576238	keystroke_o	o	n/a
288.247	0.12	576494	keystroke_a	a	n/a
288.319	0.248	576638	keystroke_d	d	n/a
288.439	0.12	576878	keystroke_s	s	n/a
288.9745	0.104	577949	keystroke_Key.space	Key.space	n/a
289.1995	0.151	578399	keystroke_c	c	n/a
289.3265	0.064	578653	keystroke_o	o	n/a
289.4705	0.144	578941	keystroke_m	m	n/a
289.6065	0.073	579213	keystroke_p	p	n/a
290.0625	0.144	580125	keystroke_e	e	n/a
290.1825	0.12	580365	keystroke_n	n	n/a
291.2545	0.056	582509	keystroke_Key.backspace	Key.backspace	n/a
291.4145	0.056	582829	keystroke_Key.backspace	Key.backspace	n/a
291.6465	0.072	583293	keystroke_o	o	n/a
291.8305	0.104	583661	keystroke_n	n	n/a
292.0305	0.12	584061	keystroke_e	e	n/a
292.1745	0.112	584349	keystroke_n	n	n/a
292.2945	0.1605	584589	keystroke_t	t	n/a
292.431	0.056	584862	keystroke_s	s	n/a
292.559	0.104	585118	keystroke_Key.space	Key.space	n/a
293.191	0.12	586382	keystroke_c	c	n/a
293.447	0.088	586894	keystroke_o	o	n/a
293.671	0.064	587342	keystroke_l	l	n/a
293.831	0.096	587662	keystroke_l	l	n/a
293.935	0.16	587870	keystroke_e	e	n/a
293.983	0.112	587966	keystroke_c	c	n/a
294.215	0.096	588430	keystroke_t	t	n/a
294.75	0.0805	589500	keystroke_i	i	n/a
294.9425	0.088	589885	keystroke_b	b	n/a
295.1345	0.072	590269	keystroke_l	l	n/a
295.1825	0.08	590365	keystroke_e	e	n/a
295.3505	0.088	590701	keystroke_s	s	n/a
295.4705	0.104	590941	keystroke_Key.space	Key.space	n/a
295.9345	0.112	591869	keystroke_p	p	n/a
296.1505	0.104	592301	keystroke_a	a	n/a
296.2065	0.128	592413	keystroke_s	s	n/a
296.399	0.104	592798	keystroke_o	o	n/a
296.751	0.072	593502	keystroke_Key.enter	Key.enter	n/a
296.827	10.885	593654	prompt	n/a	technologies grow networks newspapers\n
297.6705	0.176	595341	keystroke_t	t	n/a
297.8785	0.08	595757	keystroke_e	e	n/a
298.2305	0.12	596461	keystroke_c	c	n/a
298.3745	0.072	596749	keystroke_h	h	n/a
298.6465	0.072	597293	keystroke_n	n	n/a
298.7905	0.08	597581	keystroke_o	o	n/a
298.9905	0.08	597981	keystroke_l	l	n/a
299.1825	0.072	598365	keystroke_o	o	n/a
299.3105	0.104	598621	keystroke_g	g	n/a
299.4545	0.08	598909	keystroke_i	i	n/a
299.5665	0.064	599133	keystroke_e	e	n/a
299.7265	0.104	599453	keystroke_s	s	n/a
300.4705	0.112	600941	keystroke_Key.space	Key.space	n/a
300.6625	0.088	601325	keystroke_g	g	n/a
300.855	0.112	601710	keystroke_r	r	n/a
301.039	0.072	602078	keystroke_o	o	n/a
301.159	0.088	602318	keystroke_w	w	n/a
301.303	0.104	602606	keystroke_Key.space	Key.space	n/a
302.9265	0.112	605853	keystroke_n	n	n/a
303.4225	0.088	606845	keystroke_e	e	n/a
303.5745	0.136	607149	keystroke_t	t	n/a
304.0785	0.12	608157	keystroke_w	w	n/a
304.3745	0.096	608749	keystroke_o	o	n/a
304.5345	0.096	609069	keystroke_r	r	n/a
304.7265	0.096	609453	keystroke_k	k	n/a
304.902	0.08	609804	keystroke_s	s	n/a
305.574	0.08	611148	keystroke_Key.space	Key.space	n/a
305.87	0.12	611740	keystroke_n	n	n/a
305.998	0.2	611996	keystroke_e	e	n/a
306.094	0.112	612188	keystroke_w	w	n/a
306.518	0.104	613036	keystroke_s	s	n/a
306.734	0.088	613468	keystroke_p	p	n/a
306.934	0.104	613868	keystroke_a	a	n/a
307.022	0.088	614044	keystroke_p	p	n/a
307.1825	0.136	614365	keystroke_e	e	n/a
307.2465	0.12	614493	keystroke_r	r	n/a
307.3905	0.088	614781	keystroke_s	s	n/a
307.6225	0.088	615245	keystroke_Key.enter	Key.enter	n/a
307.715	7.6845	615430	prompt	n/a	studies alike float monitoring\n
308.6145	0.08	617229	keystroke_s	s	n/a
308.8065	0.0965	617613	keystroke_t	t	n/a
308.918	0.081	617836	keystroke_u	u	n/a
309.03	0.136	618060	keystroke_d	d	n/a
309.222	0.08	618444	keystroke_i	i	n/a
309.318	0.08	618636	keystroke_e	e	n/a
309.486	0.096	618972	keystroke_s	s	n/a
309.646	0.12	619292	keystroke_Key.space	Key.space	n/a
310.014	0.105	620028	keystroke_a	a	n/a
310.078	0.08	620156	keystroke_l	l	n/a
310.351	0.063	620702	keystroke_k	k	n/a
310.566	0.048	621132	keystroke_i	i	n/a
310.8545	0.048	621709	keystroke_Key.backspace	Key.backspace	n/a
311.0145	0.048	622029	keystroke_Key.backspace	Key.backspace	n/a
311.2225	0.04	622445	keystroke_i	i	n/a
311.3905	0.08	622781	keystroke_k	k	n/a
311.4945	0.096	622989	keystroke_e	e	n/a
311.6065	0.112	623213	keystroke_Key.space	Key.space	n/a
312.1265	0.1115	624253	keystroke_f	f	n/a
312.214	0.088	624428	keystroke_l	l	n/a
312.406	0.08	624812	keystroke_o	o	n/a
312.598	0.1365	625196	keystroke_a	a	n/a
312.662	0.128	625324	keystroke_t	t	n/a
312.766	0.0885	625532	keystroke_Key.space	Key.space	n/a
313.3265	0.096	626653	keystroke_m	m	n/a
313.4305	0.08	626861	keystroke_o	o	n/a
313.5985	0.072	627197	keystroke_n	n	n/a
313.7345	0.104	627469	keystroke_i	i	n/a
313.8945	0.112	627789	keystroke_t	t	n/a
314.0145	0.08	628029	keystroke_o	o	n/a
314.1265	0.096	628253	keystroke_r	r	n/a
314.3025	0.08	628605	keystroke_i	i	n/a
314.4945	0.096	628989	keystroke_n	n	n/a
314.6305	0.12	629261	keystroke_g	g	n/a
315.294	0.104	630588	keystroke_Key.enter	Key.enter	n/a
315.4025	10.7255	630805	prompt	n/a	hospitality agricultural sustainable elect\n
316.087	0.095	632174	keystroke_h	h	n/a
316.183	0.072	632366	keystroke_o	o	n/a
316.3505	0.088	632701	keystroke_s	s	n/a
316.4945	0.096	632989	keystroke_p	p	n/a
317.0145	0.112	634029	keystroke_i	i	n/a
317.3105	0.104	634621	keystroke_t	t	n/a
317.6465	0.128	635293	keystroke_a	a	n/a
318.2785	0.112	636557	keystroke_l	l	n/a
318.5665	0.104	637133	keystroke_i	i	n/a
318.7265	0.104	637453	keystroke_t	t	n/a
318.878	0.088	637756	keystroke_y	y	n/a
318.998	0.104	637996	keystroke_Key.space	Key.space	n/a
319.71	0.112	639420	keystroke_a	a	n/a
319.958	0.136	639916	keystroke_g	g	n/a
320.262	0.08	640524	keystroke_r	r	n/a
320.414	0.08	640828	keystroke_i	i	n/a
320.662	0.12	641324	keystroke_c	c	n/a
320.83	0.096	641660	keystroke_u	u	n/a
321.094	0.056	642188	keystroke_l	l	n/a
321.462	0.128	642924	keystroke_t	t	n/a
321.71	0.096	643420	keystroke_u	u	n/a
321.838	0.104	643676	keystroke_r	r	n/a
322.03	0.1365	644060	keystroke_a	a	n/a
322.1585	0.096	644317	keystroke_l	l	n/a
322.3505	0.1035	644701	keystroke_Key.space	Key.space	n/a
323.422	0.104	646844	keystroke_s	s	n/a
323.55	0.104	647100	keystroke_u	u	n/a
323.662	0.08	647324	keystroke_s	s	n/a
323.862	0.128	647724	keystroke_t	t	n/a
324.046	0.12	648092	keystroke_a	a	n/a
324.142	0.072	648284	keystroke_i	i	n/a
324.31	0.0965	648620	keystroke_n	n	n/a
324.6065	0.128	649213	keystroke_a	a	n/a
324.6865	0.08	649373	keystroke_b	b	n/a
324.9025	0.064	649805	keystroke_l	l	n/a
324.9905	0.088	649981	keystroke_e	e	n/a
325.1265	0.104	650253	keystroke_Key.space	Key.space	n/a
325.2945	0.088	650589	keystroke_e	e	n/a
325.4065	0.048	650813	keystroke_l	l	n/a
325.5585	0.1595	651117	keystroke_e	e	n/a
325.6065	0.1355	651213	keystroke_c	c	n/a
325.8545	0.1195	651709	keystroke_t	t	n/a
326.03	0.096	652060	keystroke_Key.enter	Key.enter	n/a
326.1305	10.813	652261	prompt	n/a	very surrounded corporations gains\n
326.8065	0.1115	653613	keystroke_v	v	n/a
326.998	0.1605	653996	keystroke_e	e	n/a
327.062	0.1445	654124	keystroke_r	r	n/a
327.1745	0.128	654349	keystroke_y	y	n/a
327.2455	0.113	654491	keystroke_Key.space	Key.space	n/a
327.4465	0.08	654893	keystroke_s	s	n/a
328.1505	0.096	656301	keystroke_r	r	n/a
328.4865	0.064	656973	keystroke_Key.backspace	Key.backspace	n/a
328.7265	0.056	657453	keystroke_y	y	n/a
328.8065	0.096	657613	keystroke_r	r	n/a
328.983	0.119	657966	keystroke_r	r	n/a
329.126	0.168	658252	keystroke_o	o	n/a
329.222	0.08	658444	keystroke_u	u	n/a
329.502	0.056	659004	keystroke_Key.backspace	Key.backspace	n/a
329.646	0.08	659292	keystroke_Key.backspace	Key.backspace	n/a
329.814	0.072	659628	keystroke_Key.backspace	Key.backspace	n/a
329.982	0.072	659964	keystroke_Key.backspace	Key.backspace	n/a
330.238	0.104	660476	keystroke_u	u	n/a
330.438	0.096	660876	keystroke_r	r	n/a
330.726	0.056	661452	keystroke_Key.backspace	Key.backspace	n/a
330.886	0.064	661772	keystroke_Key.backspace	Key.backspace	n/a
331.03	0.08	662060	keystroke_Key.backspace	Key.backspace	n/a
331.27	0.072	662540	keystroke_u	u	n/a
331.366	0.088	662732	keystroke_r	r	n/a
331.534	0.128	663068	keystroke_r	r	n/a
331.654	0.144	663308	keystroke_o	o	n/a
331.718	0.088	663436	keystroke_u	u	n/a
331.934	0.096	663868	keystroke_n	n	n/a
332.31	0.128	664620	keystroke_d	d	n/a
332.5585	0.088	665117	keystroke_e	e	n/a
332.7345	0.1035	665469	keystroke_d	d	n/a
332.854	0.1045	665708	keystroke_Key.space	Key.space	n/a
333.5425	0.128	667085	keystroke_c	c	n/a
333.6625	0.064	667325	keystroke_o	o	n/a
333.8145	0.12	667629	keystroke_r	r	n/a
334.1025	0.248	668205	keystroke_p	p	n/a
334.2705	0.12	668541	keystroke_o	o	n/a
334.4705	0.12	668941	keystroke_r	r	n/a
334.7265	0.12	669453	keystroke_a	a	n/a
334.7745	0.128	669549	keystroke_t	t	n/a
334.8865	0.087	669773	keystroke_i	i	n/a
334.9345	0.079	669869	keystroke_o	o	n/a
335.1345	0.104	670269	keystroke_n	n	n/a
335.2545	0.04	670509	keystroke_s	s	n/a
335.4455	0.081	670891	keystroke_Key.space	Key.space	n/a
335.5585	0.12	671117	keystroke_g	g	n/a
335.7025	0.136	671405	keystroke_a	a	n/a
335.8065	0.072	671613	keystroke_i	i	n/a
335.9665	0.103	671933	keystroke_n	n	n/a
336.1265	0.096	672253	keystroke_s	s	n/a
336.8295	0.112	673659	keystroke_Key.enter	Key.enter	n/a
336.9465	9.437	673893	prompt	n/a	intention accessories celebs location\n
337.5665	0.064	675133	keystroke_i	i	n/a
337.7265	0.096	675453	keystroke_n	n	n/a
337.8385	0.144	675677	keystroke_t	t	n/a
337.9265	0.104	675853	keystroke_e	e	n/a
338.1025	0.072	676205	keystroke_n	n	n/a
338.2625	0.128	676525	keystroke_t	t	n/a
338.4705	0.216	676941	keystroke_i	i	n/a
338.6225	0.136	677245	keystroke_o	o	n/a
338.8225	0.096	677645	keystroke_n	n	n/a
339.3905	0.104	678781	keystroke_Key.space	Key.space	n/a
339.7345	0.104	679469	keystroke_a	a	n/a
339.9345	0.088	679869	keystroke_c	c	n/a
340.1185	0.104	680237	keystroke_c	c	n/a
340.2785	0.08	680557	keystroke_e	e	n/a
340.4465	0.072	680893	keystroke_s	s	n/a
340.6225	0.08	681245	keystroke_s	s	n/a
341.23	0.128	682460	keystroke_o	o	n/a
341.758	0.112	683516	keystroke_r	r	n/a
341.966	0.096	683932	keystroke_i	i	n/a
342.07	0.0875	684140	keystroke_e	e	n/a
342.2305	0.095	684461	keystroke_s	s	n/a
342.4055	0.088	684811	keystroke_Key.space	Key.space	n/a
343.1745	0.12	686349	keystroke_c	c	n/a
343.3345	0.12	686669	keystroke_e	e	n/a
343.4225	0.08	686845	keystroke_l	l	n/a
343.5745	0.08	687149	keystroke_e	e	n/a
343.7265	0.096	687453	keystroke_b	b	n/a
343.8865	0.08	687773	keystroke_s	s	n/a
344.3345	0.096	688669	keystroke_Key.space	Key.space	n/a
344.5185	0.088	689037	keystroke_l	l	n/a
344.7425	0.08	689485	keystroke_o	o	n/a
344.8785	0.12	689757	keystroke_c	c	n/a
345.2625	0.104	690525	keystroke_a	a	n/a
345.4225	0.136	690845	keystroke_t	t	n/a
345.5425	0.12	691085	keystroke_i	i	n/a
345.6305	0.088	691261	keystroke_o	o	n/a
345.8225	0.096	691645	keystroke_n	n	n/a
346.2945	0.088	692589	keystroke_Key.enter	Key.enter	n/a
346.39	8.4415	692780	prompt	n/a	reid belt stylus reflects\n
347.2705	0.144	694541	keystroke_r	r	n/a
347.4305	0.104	694861	keystroke_e	e	n/a
347.6385	0.104	695277	keystroke_i	i	n/a
348.0065	0.12	696013	keystroke_d	d	n/a
348.1665	0.096	696333	keystroke_Key.space	Key.space	n/a
348.806	0.096	697612	keystroke_b	b	n/a
348.926	0.1035	697852	keystroke_e	e	n/a
349.0615	0.096	698123	keystroke_l	l	n/a
349.1735	0.104	698347	keystroke_t	t	n/a
349.2855	0.104	698571	keystroke_Key.space	Key.space	n/a
350.0535	0.072	700107	keystroke_s	s	n/a
350.2295	0.1045	700459	keystroke_t	t	n/a
350.374	0.096	700748	keystroke_y	y	n/a
350.662	0.104	701324	keystroke_l	l	n/a
350.902	0.104	701804	keystroke_u	u	n/a
351.078	0.072	702156	keystroke_s	s	n/a
351.23	0.088	702460	keystroke_Key.space	Key.space	n/a
351.894	0.136	703788	keystroke_r	r	n/a
351.982	0.072	703964	keystroke_e	e	n/a
352.2705	0.104	704541	keystroke_f	f	n/a
352.4145	0.088	704829	keystroke_l	l	n/a
352.5425	0.144	705085	keystroke_e	e	n/a
352.5825	0.12	705165	keystroke_c	c	n/a
352.8465	0.08	705693	keystroke_t	t	n/a
353.0695	0.064	706139	keystroke_s	s	n/a
354.7265	0.104	709453	keystroke_Key.enter	Key.enter	n/a
354.835	7.444	709670	prompt	n/a	values skating dude reynolds\n
355.6385	0.119	711277	keystroke_v	v	n/a
355.7815	0.128	711563	keystroke_a	a	n/a
355.8695	0.088	711739	keystroke_l	l	n/a
356.0855	0.096	712171	keystroke_u	u	n/a
356.2455	0.088	712491	keystroke_e	e	n/a
356.446	0.088	712892	keystroke_s	s	n/a
356.63	0.08	713260	keystroke_Key.space	Key.space	n/a
357.0865	0.0955	714173	keystroke_s	s	n/a
357.23	0.08	714460	keystroke_k	k	n/a
357.67	0.112	715340	keystroke_a	a	n/a
357.742	0.12	715484	keystroke_t	t	n/a
357.87	0.08	715740	keystroke_i	i	n/a
358.062	0.104	716124	keystroke_n	n	n/a
358.182	0.128	716364	keystroke_g	g	n/a
358.382	0.056	716764	keystroke_Key.space	Key.space	n/a
358.678	0.104	717356	keystroke_d	d	n/a
358.814	0.104	717628	keystroke_u	u	n/a
358.894	0.096	717788	keystroke_d	d	n/a
359.078	0.104	718156	keystroke_e	e	n/a
359.198	0.08	718396	keystroke_Key.space	Key.space	n/a
359.702	0.176	719404	keystroke_r	r	n/a
359.822	0.08	719644	keystroke_e	e	n/a
360.63	0.152	721260	keystroke_y	y	n/a
361.078	0.104	722156	keystroke_n	n	n/a
361.278	0.088	722556	keystroke_o	o	n/a
361.478	0.096	722956	keystroke_l	l	n/a
361.606	0.168	723212	keystroke_d	d	n/a
361.67	0.088	723340	keystroke_s	s	n/a
362.1895	0.088	724379	keystroke_Key.enter	Key.enter	n/a
362.2835	7.9875	724567	prompt	n/a	typical touch blah villas\n
362.9495	0.1365	725899	keystroke_t	t	n/a
363.118	0.08	726236	keystroke_p	p	n/a
363.766	0.056	727532	keystroke_Key.backspace	Key.backspace	n/a
364.126	0.072	728252	keystroke_p	p	n/a
364.502	0.072	729004	keystroke_Key.backspace	Key.backspace	n/a
364.798	0.08	729596	keystroke_y	y	n/a
364.974	0.08	729948	keystroke_p	p	n/a
365.174	0.072	730348	keystroke_i	i	n/a
365.254	0.136	730508	keystroke_c	c	n/a
365.342	0.128	730684	keystroke_a	a	n/a
365.47	0.08	730940	keystroke_l	l	n/a
365.622	0.104	731244	keystroke_Key.space	Key.space	n/a
366.222	0.12	732444	keystroke_t	t	n/a
366.334	0.152	732668	keystroke_o	o	n/a
366.406	0.104	732812	keystroke_u	u	n/a
366.606	0.104	733212	keystroke_c	c	n/a
366.854	0.104	733708	keystroke_h	h	n/a
366.982	0.0875	733964	keystroke_Key.space	Key.space	n/a
367.398	0.08	734796	keystroke_b	b	n/a
367.574	0.088	735148	keystroke_l	l	n/a
367.654	0.08	735308	keystroke_a	a	n/a
367.846	0.088	735692	keystroke_f	f	n/a
368.382	0.056	736764	keystroke_Key.backspace	Key.backspace	n/a
368.606	0.112	737212	keystroke_h	h	n/a
368.742	0.104	737484	keystroke_Key.space	Key.space	n/a
368.982	0.1445	737964	keystroke_v	v	n/a
369.1335	0.081	738267	keystroke_i	i	n/a
369.5175	0.08	739035	keystroke_l	l	n/a
369.6935	0.105	739387	keystroke_l	l	n/a
369.8055	0.192	739611	keystroke_a	a	n/a
369.8865	0.135	739773	keystroke_s	s	n/a
370.1815	0.088	740363	keystroke_Key.enter	Key.enter	n/a
370.275	5.356	740550	prompt	n/a	parcel skiing hard were\n
370.8545	0.095	741709	keystroke_p	p	n/a
371.0225	0.1275	742045	keystroke_a	a	n/a
371.102	0.104	742204	keystroke_r	r	n/a
371.294	0.136	742588	keystroke_c	c	n/a
371.47	0.08	742940	keystroke_l	l	n/a
371.478	0.096	742956	keystroke_e	e	n/a
372.062	0.032	744124	keystroke_Key.backspace	Key.backspace	n/a
372.214	0.048	744428	keystroke_Key.backspace	Key.backspace	n/a
372.294	0.08	744588	keystroke_e	e	n/a
372.446	0.064	744892	keystroke_l	l	n/a
372.63	0.08	745260	keystroke_Key.space	Key.space	n/a
373.142	0.104	746284	keystroke_s	s	n/a
373.278	0.08	746556	keystroke_k	k	n/a
373.478	0.056	746956	keystroke_i	i	n/a
373.614	0.072	747228	keystroke_i	i	n/a
373.806	0.096	747612	keystroke_n	n	n/a
373.918	0.12	747836	keystroke_g	g	n/a
374.006	0.096	748012	keystroke_Key.space	Key.space	n/a
374.174	0.104	748348	keystroke_h	h	n/a
374.294	0.104	748588	keystroke_a	a	n/a
374.35	0.088	748700	keystroke_r	r	n/a
374.494	0.112	748988	keystroke_d	d	n/a
374.598	0.112	749196	keystroke_Key.space	Key.space	n/a
374.718	0.168	749436	keystroke_w	w	n/a
374.814	0.152	749628	keystroke_e	e	n/a
374.974	0.144	749948	keystroke_r	r	n/a
375.046	0.112	750092	keystroke_e	e	n/a
375.542	0.088	751084	keystroke_Key.enter	Key.enter	n/a
375.6345	5.1965	751269	prompt	n/a	licking bottom know meanwhile\n
376.5815	0.096	753163	keystroke_l	l	n/a
376.7735	0.056	753547	keystroke_i	i	n/a
376.9015	0.096	753803	keystroke_c	c	n/a
376.9655	0.072	753931	keystroke_k	k	n/a
377.1495	0.064	754299	keystroke_i	i	n/a
377.3095	0.096	754619	keystroke_n	n	n/a
377.4135	0.088	754827	keystroke_g	g	n/a
377.4855	0.072	754971	keystroke_Key.space	Key.space	n/a
377.6375	0.056	755275	keystroke_b	b	n/a
377.7735	0.104	755547	keystroke_o	o	n/a
377.8935	0.088	755787	keystroke_t	t	n/a
378.0775	0.104	756155	keystroke_t	t	n/a
378.1255	0.096	756251	keystroke_o	o	n/a
378.318	0.104	756636	keystroke_m	m	n/a
378.51	0.048	757020	keystroke_Key.space	Key.space	n/a
378.854	0.088	757708	keystroke_k	k	n/a
379.054	0.1035	758108	keystroke_n	n	n/a
379.1335	0.104	758267	keystroke_o	o	n/a
379.2615	0.104	758523	keystroke_w	w	n/a
379.3815	0.088	758763	keystroke_Key.space	Key.space	n/a
379.5575	0.088	759115	keystroke_m	m	n/a
379.6615	0.072	759323	keystroke_e	e	n/a
379.8295	0.096	759659	keystroke_a	a	n/a
379.8935	0.08	759787	keystroke_n	n	n/a
380.0615	0.096	760123	keystroke_w	w	n/a
380.1815	0.104	760363	keystroke_h	h	n/a
380.2455	0.0965	760491	keystroke_i	i	n/a
380.454	0.096	760908	keystroke_l	l	n/a
380.558	0.08	761116	keystroke_e	e	n/a
380.742	0.088	761484	keystroke_Key.enter	Key.enter	n/a
380.834	6.445	761668	prompt	n/a	documentary liked satin lens\n
381.542	0.088	763084	keystroke_d	d	n/a
381.694	0.088	763388	keystroke_o	o	n/a
381.87	0.136	763740	keystroke_c	c	n/a
382.022	0.088	764044	keystroke_u	u	n/a
382.2695	0.0725	764539	keystroke_m	m	n/a
382.382	0.104	764764	keystroke_e	e	n/a
382.502	0.088	765004	keystroke_n	n	n/a
382.606	0.096	765212	keystroke_t	t	n/a
382.79	0.12	765580	keystroke_a	a	n/a
382.958	0.12	765916	keystroke_r	r	n/a
383.117	0.096	766234	keystroke_y	y	n/a
383.261	0.112	766522	keystroke_Key.space	Key.space	n/a
383.717	0.088	767434	keystroke_l	l	n/a
383.91	0.047	767820	keystroke_i	i	n/a
384.069	0.08	768138	keystroke_k	k	n/a
384.157	0.064	768314	keystroke_e	e	n/a
384.333	0.129	768666	keystroke_d	d	n/a
384.454	0.088	768908	keystroke_Key.space	Key.space	n/a
384.814	0.096	769628	keystroke_s	s	n/a
385.046	0.119	770092	keystroke_t	t	n/a
385.477	0.056	770954	keystroke_Key.backspace	Key.backspace	n/a
385.613	0.112	771226	keystroke_a	a	n/a
385.686	0.127	771372	keystroke_t	t	n/a
385.829	0.065	771658	keystroke_i	i	n/a
385.998	0.087	771996	keystroke_n	n	n/a
386.165	0.112	772330	keystroke_Key.space	Key.space	n/a
386.6295	0.088	773259	keystroke_l	l	n/a
386.8215	0.088	773643	keystroke_e	e	n/a
386.9415	0.072	773883	keystroke_n	n	n/a
387.0455	0.072	774091	keystroke_s	s	n/a
387.206	0.072	774412	keystroke_Key.enter	Key.enter	n/a
387.2815	7.8615	774563	prompt	n/a	ecuador accident trim middle\n
388.07	0.08	776140	keystroke_e	e	n/a
388.31	0.088	776620	keystroke_d	d	n/a
388.638	0.072	777276	keystroke_Key.backspace	Key.backspace	n/a
388.71	0.152	777420	keystroke_c	c	n/a
388.942	0.136	777884	keystroke_u	u	n/a
389.198	0.096	778396	keystroke_a	a	n/a
389.398	0.088	778796	keystroke_d	d	n/a
389.534	0.104	779068	keystroke_o	o	n/a
389.662	0.096	779324	keystroke_r	r	n/a
389.814	0.104	779628	keystroke_Key.space	Key.space	n/a
391.278	0.095	782556	keystroke_a	a	n/a
391.461	0.097	782922	keystroke_c	c	n/a
391.654	0.119	783308	keystroke_c	c	n/a
391.766	0.087	783532	keystroke_i	i	n/a
391.886	0.079	783772	keystroke_d	d	n/a
392.062	0.0715	784124	keystroke_e	e	n/a
392.118	0.111	784236	keystroke_n	n	n/a
392.293	0.1045	784586	keystroke_t	t	n/a
392.5015	0.104	785003	keystroke_Key.space	Key.space	n/a
393.1815	0.1125	786363	keystroke_t	t	n/a
393.358	0.104	786716	keystroke_r	r	n/a
393.47	0.072	786940	keystroke_i	i	n/a
393.638	0.111	787276	keystroke_m	m	n/a
393.806	0.112	787612	keystroke_Key.space	Key.space	n/a
394.013	0.112	788026	keystroke_m	m	n/a
394.205	0.097	788410	keystroke_i	i	n/a
394.342	0.064	788684	keystroke_d	d	n/a
394.502	0.096	789004	keystroke_d	d	n/a
394.645	0.129	789290	keystroke_l	l	n/a
394.742	0.064	789484	keystroke_e	e	n/a
395.054	0.087	790108	keystroke_Key.enter	Key.enter	n/a
395.1475	9.0515	790295	prompt	n/a	challenge blogging norman saved\n
395.8295	0.128	791659	keystroke_c	c	n/a
395.9655	0.088	791931	keystroke_h	h	n/a
396.0695	0.1205	792139	keystroke_a	a	n/a
396.182	0.0715	792364	keystroke_l	l	n/a
396.3335	0.112	792667	keystroke_l	l	n/a
396.4695	0.08	792939	keystroke_e	e	n/a
396.7495	0.112	793499	keystroke_n	n	n/a
396.8935	0.136	793787	keystroke_g	g	n/a
396.9655	0.096	793931	keystroke_e	e	n/a
397.0935	0.128	794187	keystroke_Key.space	Key.space	n/a
397.9735	0.08	795947	keystroke_b	b	n/a
398.1495	0.096	796299	keystroke_l	l	n/a
398.3655	0.08	796731	keystroke_o	o	n/a
398.7415	0.016	797483	keystroke_g	g	n/a
398.8695	0.08	797739	keystroke_g	g	n/a
399.0535	0.096	798107	keystroke_i	i	n/a
399.2695	0.072	798539	keystroke_n	n	n/a
399.4215	0.064	798843	keystroke_g	g	n/a
399.5575	0.08	799115	keystroke_Key.space	Key.space	n/a
400.2295	0.096	800459	keystroke_m	m	n/a
400.5975	0.08	801195	keystroke_Key.backspace	Key.backspace	n/a
400.8615	0.072	801723	keystroke_n	n	n/a
401.0535	0.072	802107	keystroke_o	o	n/a
401.1735	0.1205	802347	keystroke_r	r	n/a
401.31	0.104	802620	keystroke_m	m	n/a
401.518	0.12	803036	keystroke_a	a	n/a
401.67	0.056	803340	keystroke_l	l	n/a
402.078	0.0715	804156	keystroke_Key.backspace	Key.backspace	n/a
402.3255	0.08	804651	keystroke_n	n	n/a
402.4855	0.096	804971	keystroke_Key.space	Key.space	n/a
403.206	0.104	806412	keystroke_s	s	n/a
403.414	0.112	806828	keystroke_a	a	n/a
403.494	0.112	806988	keystroke_v	v	n/a
403.654	0.08	807308	keystroke_e	e	n/a
403.854	0.088	807708	keystroke_d	d	n/a
404.094	0.104	808188	keystroke_Key.enter	Key.enter	n/a
404.202	14.645	808404	prompt	n/a	theoretical legislature bench tribunal\n
405.166	0.103	810332	keystroke_t	t	n/a
405.317	0.144	810634	keystroke_h	h	n/a
405.573	0.112	811146	keystroke_e	e	n/a
405.757	0.096	811514	keystroke_o	o	n/a
405.909	0.04	811818	keystroke_r	r	n/a
407.509	0.104	815018	keystroke_e	e	n/a
407.789	0.08	815578	keystroke_t	t	n/a
407.997	0.112	815994	keystroke_i	i	n/a
408.381	0.112	816762	keystroke_c	c	n/a
408.501	0.144	817002	keystroke_a	a	n/a
408.637	0.088	817274	keystroke_l	l	n/a
408.805	0.12	817610	keystroke_Key.space	Key.space	n/a
409.7015	0.128	819403	keystroke_l	l	n/a
409.8135	0.088	819627	keystroke_e	e	n/a
410.0215	0.104	820043	keystroke_g	g	n/a
410.469	0.088	820938	keystroke_i	i	n/a
410.637	0.096	821274	keystroke_s	s	n/a
410.845	0.128	821690	keystroke_t	t	n/a
411.6775	0.064	823355	keystroke_Key.backspace	Key.backspace	n/a
412.1175	0.0875	824235	keystroke_l	l	n/a
412.8615	0.128	825723	keystroke_a	a	n/a
413.1415	0.1275	826283	keystroke_t	t	n/a
413.325	0.096	826650	keystroke_u	u	n/a
413.429	0.128	826858	keystroke_r	r	n/a
413.485	0.112	826970	keystroke_e	e	n/a
413.605	0.112	827210	keystroke_Key.space	Key.space	n/a
414.5575	0.104	829115	keystroke_b	b	n/a
414.6695	0.088	829339	keystroke_e	e	n/a
414.8135	0.072	829627	keystroke_n	n	n/a
414.9175	0.104	829835	keystroke_c	c	n/a
415.0375	0.112	830075	keystroke_h	h	n/a
415.1895	0.1115	830379	keystroke_Key.space	Key.space	n/a
415.9405	0.096	831881	keystroke_t	t	n/a
416.1085	0.112	832217	keystroke_r	r	n/a
416.2365	0.097	832473	keystroke_i	i	n/a
416.4375	0.104	832875	keystroke_b	b	n/a
417.0215	0.1515	834043	keystroke_u	u	n/a
417.3495	0.096	834699	keystroke_n	n	n/a
417.8855	0.104	835771	keystroke_a	a	n/a
418.0855	0.112	836171	keystroke_l	l	n/a
418.7495	0.096	837499	keystroke_Key.enter	Key.enter	n/a
418.8505	8.364	837701	prompt	n/a	transfer disks happening minerals\n
419.5485	0.128	839097	keystroke_t	t	n/a
419.7885	0.12	839577	keystroke_r	r	n/a
420.1325	0.104	840265	keystroke_a	a	n/a
420.2605	0.112	840521	keystroke_n	n	n/a
420.3965	0.088	840793	keystroke_s	s	n/a
420.7645	0.096	841529	keystroke_f	f	n/a
420.9565	0.152	841913	keystroke_e	e	n/a
421.0205	0.136	842041	keystroke_r	r	n/a
421.1725	0.1205	842345	keystroke_Key.space	Key.space	n/a
421.765	0.096	843530	keystroke_d	d	n/a
421.885	0.096	843770	keystroke_i	i	n/a
422.045	0.1035	844090	keystroke_c	c	n/a
422.5485	0.072	845097	keystroke_Key.backspace	Key.backspace	n/a
422.7085	0.096	845417	keystroke_s	s	n/a
422.8605	0.056	845721	keystroke_k	k	n/a
422.9485	0.088	845897	keystroke_s	s	n/a
423.605	0.104	847210	keystroke_Key.space	Key.space	n/a
423.869	0.096	847738	keystroke_h	h	n/a
423.981	0.12	847962	keystroke_a	a	n/a
424.093	0.056	848186	keystroke_p	p	n/a
424.253	0.08	848506	keystroke_p	p	n/a
424.365	0.096	848730	keystroke_e	e	n/a
424.477	0.08	848954	keystroke_n	n	n/a
424.613	0.072	849226	keystroke_i	i	n/a
424.773	0.096	849546	keystroke_n	n	n/a
424.901	0.088	849802	keystroke_g	g	n/a
424.997	0.096	849994	keystroke_Key.space	Key.space	n/a
425.621	0.08	851242	keystroke_m	m	n/a
425.805	0.056	851610	keystroke_i	i	n/a
425.973	0.104	851946	keystroke_n	n	n/a
426.405	0.136	852810	keystroke_e	e	n/a
426.509	0.104	853018	keystroke_r	r	n/a
426.669	0.128	853338	keystroke_a	a	n/a
426.829	0.08	853658	keystroke_l	l	n/a
426.917	0.072	853834	keystroke_s	s	n/a
427.1325	0.08	854265	keystroke_Key.enter	Key.enter	n/a
427.217	8.8615	854434	prompt	n/a	coupon vulnerable weeks corps\n
428.0055	0.112	856011	keystroke_c	c	n/a
428.1255	0.104	856251	keystroke_o	o	n/a
428.1895	0.104	856379	keystroke_u	u	n/a
428.8375	0.104	857675	keystroke_p	p	n/a
429.0615	0.136	858123	keystroke_o	o	n/a
429.2855	0.08	858571	keystroke_u	u	n/a
429.7325	0.041	859465	keystroke_Key.backspace	Key.backspace	n/a
429.9565	0.081	859913	keystroke_n	n	n/a
430.1975	0.104	860395	keystroke_Key.space	Key.space	n/a
431.1165	0.089	862233	keystroke_v	v	n/a
431.2285	0.096	862457	keystroke_u	u	n/a
431.5245	0.128	863049	keystroke_l	l	n/a
431.8445	0.112	863689	keystroke_n	n	n/a
432.0765	0.1445	864153	keystroke_e	e	n/a
432.149	0.088	864298	keystroke_r	r	n/a
432.437	0.08	864874	keystroke_a	a	n/a
432.533	0.088	865066	keystroke_b	b	n/a
432.757	0.08	865514	keystroke_l	l	n/a
432.989	0.096	865978	keystroke_e	e	n/a
433.197	0.056	866394	keystroke_Key.space	Key.space	n/a
433.8455	0.103	867691	keystroke_w	w	n/a
433.9725	0.104	867945	keystroke_e	e	n/a
434.1645	0.12	868329	keystroke_e	e	n/a
434.2685	0.089	868537	keystroke_k	k	n/a
434.3885	0.08	868777	keystroke_s	s	n/a
434.5165	0.088	869033	keystroke_Key.space	Key.space	n/a
435.1965	0.1125	870393	keystroke_c	c	n/a
435.325	0.08	870650	keystroke_o	o	n/a
435.445	0.088	870890	keystroke_r	r	n/a
435.541	0.104	871082	keystroke_p	p	n/a
435.661	0.088	871322	keystroke_s	s	n/a
435.989	0.088	871978	keystroke_Key.enter	Key.enter	n/a
436.081	14.3255	872162	prompt	n/a	efficiency inbox marketplace received\n
436.773	0.088	873546	keystroke_e	e	n/a
436.981	0.08	873962	keystroke_f	f	n/a
437.165	0.08	874330	keystroke_f	f	n/a
437.261	0.08	874522	keystroke_i	i	n/a
437.373	0.104	874746	keystroke_c	c	n/a
437.493	0.096	874986	keystroke_i	i	n/a
439.069	0.08	878138	keystroke_e	e	n/a
439.181	0.096	878362	keystroke_n	n	n/a
439.381	0.112	878762	keystroke_c	c	n/a
439.565	0.096	879130	keystroke_y	y	n/a
439.717	0.112	879434	keystroke_Key.space	Key.space	n/a
440.525	0.08	881050	keystroke_i	i	n/a
440.701	0.088	881402	keystroke_n	n	n/a
441.165	0.096	882330	keystroke_n	n	n/a
441.677	0.072	883354	keystroke_=	=	n/a
441.685	0.04	883370	keystroke_Key.backspace	Key.backspace	n/a
441.797	0.088	883594	keystroke_b	b	n/a
441.949	0.08	883898	keystroke_o	o	n/a
442.2605	0.0645	884521	keystroke_Key.backspace	Key.backspace	n/a
442.4365	0.072	884873	keystroke_Key.backspace	Key.backspace	n/a
442.6125	0.072	885225	keystroke_Key.backspace	Key.backspace	n/a
442.7085	0.112	885417	keystroke_b	b	n/a
442.8685	0.072	885737	keystroke_o	o	n/a
443.645	0.072	887290	keystroke_x	x	n/a
443.829	0.104	887658	keystroke_Key.space	Key.space	n/a
444.725	0.104	889450	keystroke_m	m	n/a
444.853	0.12	889706	keystroke_a	a	n/a
444.933	0.096	889866	keystroke_r	r	n/a
445.6605	0.104	891321	keystroke_k	k	n/a
445.8125	0.096	891625	keystroke_e	e	n/a
445.9805	0.112	891961	keystroke_t	t	n/a
446.3085	0.104	892617	keystroke_p	p	n/a
446.5245	0.12	893049	keystroke_l	l	n/a
446.6125	0.088	893225	keystroke_a	a	n/a
446.6525	0.128	893305	keystroke_c	c	n/a
446.8205	0.072	893641	keystroke_e	e	n/a
447.149	0.072	894298	keystroke_Key.space	Key.space	n/a
448.0205	0.128	896041	keystroke_r	r	n/a
448.0765	0.104	896153	keystroke_e	e	n/a
448.3245	0.128	896649	keystroke_c	c	n/a
448.5165	0.096	897033	keystroke_e	e	n/a
448.7085	0.08	897417	keystroke_i	i	n/a
448.8685	0.12	897737	keystroke_v	v	n/a
449.2845	0.1045	898569	keystroke_e	e	n/a
449.501	0.128	899002	keystroke_d	d	n/a
450.301	0.104	900602	keystroke_Key.enter	Key.enter	n/a
450.4135	12.4005	900827	prompt	n/a	addressed description tunes stated\n
451.301	0.1115	902602	keystroke_a	a	n/a
451.8045	0.064	903609	keystroke_a	a	n/a
451.9015	0.087	903803	keystroke_d	d	n/a
452.349	0.072	904698	keystroke_Key.backspace	Key.backspace	n/a
452.509	0.096	905018	keystroke_Key.backspace	Key.backspace	n/a
452.597	0.056	905194	keystroke_d	d	n/a
452.773	0.072	905546	keystroke_d	d	n/a
452.997	0.168	905994	keystroke_r	r	n/a
453.053	0.096	906106	keystroke_e	e	n/a
453.3165	0.0485	906633	keystroke_s	s	n/a
453.493	0.072	906986	keystroke_s	s	n/a
453.693	0.088	907386	keystroke_e	e	n/a
453.885	0.128	907770	keystroke_d	d	n/a
454.053	0.104	908106	keystroke_Key.space	Key.space	n/a
456.804	0.104	913608	keystroke_Key.space	Key.space	n/a
456.989	0.063	913978	keystroke_d	d	n/a
457.173	0.032	914346	keystroke_e	e	n/a
457.317	0.072	914634	keystroke_s	s	n/a
457.716	0.088	915432	keystroke_c	c	n/a
457.909	0.103	915818	keystroke_r	r	n/a
458.02	0.104	916040	keystroke_i	i	n/a
458.221	0.095	916442	keystroke_p	p	n/a
458.445	0.111	916890	keystroke_t	t	n/a
458.572	0.161	917144	keystroke_i	i	n/a
458.692	0.097	917384	keystroke_o	o	n/a
458.893	0.087	917786	keystroke_n	n	n/a
459.076	0.104	918152	keystroke_Key.space	Key.space	n/a
459.9645	0.112	919929	keystroke_t	t	n/a
460.1085	0.08	920217	keystroke_u	u	n/a
460.5005	0.112	921001	keystroke_n	n	n/a
460.6205	0.072	921241	keystroke_e	e	n/a
460.8045	0.08	921609	keystroke_s	s	n/a
461.2765	0.088	922553	keystroke_Key.space	Key.space	n/a
461.7325	0.072	923465	keystroke_s	s	n/a
461.8765	0.112	923753	keystroke_t	t	n/a
462.0285	0.1125	924057	keystroke_a	a	n/a
462.1165	0.1525	924233	keystroke_t	t	n/a
462.221	0.088	924442	keystroke_e	e	n/a
462.413	0.112	924826	keystroke_d	d	n/a
462.725	0.088	925450	keystroke_Key.enter	Key.enter	n/a
462.817	14.509	925634	prompt	n/a	lung council composition celebrities\n
463.7325	0.08	927465	keystroke_l	l	n/a
464.0605	0.056	928121	keystroke_7	7	n/a
464.5805	0.056	929161	keystroke_Key.backspace	Key.backspace	n/a
464.7725	0.056	929545	keystroke_Key.backspace	Key.backspace	n/a
464.9645	0.072	929929	keystroke_Key.backspace	Key.backspace	n/a
465.1405	0.08	930281	keystroke_Key.backspace	Key.backspace	n/a
465.6525	0.088	931305	keystroke_l	l	n/a
465.8525	0.072	931705	keystroke_u	u	n/a
466.0445	0.088	932089	keystroke_n	n	n/a
466.1725	0.104	932345	keystroke_g	g	n/a
466.2845	0.088	932569	keystroke_Key.space	Key.space	n/a
466.9965	0.1755	933993	keystroke_c	c	n/a
467.396	0.1605	934792	keystroke_o	o	n/a
467.4605	0.104	934921	keystroke_u	u	n/a
467.6765	0.064	935353	keystroke_n	n	n/a
467.8445	0.128	935689	keystroke_c	c	n/a
467.9735	0.071	935947	keystroke_i	i	n/a
468.1725	0.088	936345	keystroke_l	l	n/a
468.333	0.127	936666	keystroke_Key.space	Key.space	n/a
468.909	0.128	937818	keystroke_c	c	n/a
469.02	0.081	938040	keystroke_o	o	n/a
469.188	0.096	938376	keystroke_m	m	n/a
469.276	0.097	938552	keystroke_p	p	n/a
469.917	0.12	939834	keystroke_o	o	n/a
470.109	0.096	940218	keystroke_s	s	n/a
470.3005	0.08	940601	keystroke_i	i	n/a
470.4525	0.128	940905	keystroke_t	t	n/a
470.5965	0.176	941193	keystroke_i	i	n/a
470.7325	0.12	941465	keystroke_o	o	n/a
470.9165	0.104	941833	keystroke_n	n	n/a
471.0925	0.112	942185	keystroke_Key.space	Key.space	n/a
471.492	0.088	942984	keystroke_d	d	n/a
471.948	0.072	943896	keystroke_Key.backspace	Key.backspace	n/a
472.037	0.1275	944074	keystroke_c	c	n/a
472.1485	0.104	944297	keystroke_e	e	n/a
472.2765	0.1045	944553	keystroke_l	l	n/a
472.461	0.088	944922	keystroke_e	e	n/a
472.821	0.112	945642	keystroke_b	b	n/a
473.5565	0.096	947113	keystroke_r	r	n/a
473.6605	0.08	947321	keystroke_i	i	n/a
474.1565	0.096	948313	keystroke_i	i	n/a
474.789	0.088	949578	keystroke_t	t	n/a
475.189	0.08	950378	keystroke_Key.backspace	Key.backspace	n/a
475.365	0.064	950730	keystroke_Key.backspace	Key.backspace	n/a
475.468	0.112	950936	keystroke_t	t	n/a
475.62	0.088	951240	keystroke_i	i	n/a
476.605	0.104	953210	keystroke_e	e	n/a
476.837	0.088	953674	keystroke_s	s	n/a
477.2285	0.096	954457	keystroke_Key.enter	Key.enter	n/a
477.3295	6.7325	954659	prompt	n/a	actions prefers worlds weird\n
478.22	0.096	956440	keystroke_a	a	n/a
478.332	0.088	956664	keystroke_c	c	n/a
478.54	0.104	957080	keystroke_t	t	n/a
478.596	0.12	957192	keystroke_i	i	n/a
478.653	0.088	957306	keystroke_o	o	n/a
478.852	0.104	957704	keystroke_n	n	n/a
478.988	0.057	957976	keystroke_s	s	n/a
479.108	0.096	958216	keystroke_Key.space	Key.space	n/a
479.445	0.103	958890	keystroke_p	p	n/a
479.564	0.1365	959128	keystroke_r	r	n/a
479.644	0.08	959288	keystroke_e	e	n/a
479.828	0.128	959656	keystroke_f	f	n/a
480.004	0.112	960008	keystroke_e	e	n/a
480.0605	0.1195	960121	keystroke_r	r	n/a
480.196	0.096	960392	keystroke_s	s	n/a
480.332	0.088	960664	keystroke_Key.space	Key.space	n/a
480.716	0.112	961432	keystroke_w	w	n/a
480.844	0.088	961688	keystroke_o	o	n/a
480.94	0.097	961880	keystroke_r	r	n/a
481.076	0.104	962152	keystroke_l	l	n/a
481.172	0.16	962344	keystroke_d	d	n/a
481.2285	0.1195	962457	keystroke_s	s	n/a
481.349	0.111	962698	keystroke_Key.space	Key.space	n/a
482.1165	0.0645	964233	keystroke_w	w	n/a
482.204	0.096	964408	keystroke_w	w	n/a
482.732	0.048	965464	keystroke_Key.backspace	Key.backspace	n/a
482.988	0.097	965976	keystroke_e	e	n/a
483.228	0.113	966456	keystroke_i	i	n/a
483.532	0.088	967064	keystroke_r	r	n/a
483.732	0.088	967464	keystroke_d	d	n/a
483.996	0.064	967992	keystroke_Key.enter	Key.enter	n/a
484.068	9.3135	968136	prompt	n/a	idol helicopter rivers euros\n
484.828	0.072	969656	keystroke_i	i	n/a
484.956	0.08	969912	keystroke_d	d	n/a
485.084	0.056	970168	keystroke_o	o	n/a
485.252	0.088	970504	keystroke_l	l	n/a
485.404	0.104	970808	keystroke_Key.space	Key.space	n/a
485.708	0.088	971416	keystroke_h	h	n/a
485.861	0.096	971722	keystroke_e	e	n/a
485.98	0.072	971960	keystroke_l	l	n/a
486.189	0.079	972378	keystroke_i	i	n/a
487.4765	0.1205	974953	keystroke_c	c	n/a
487.629	0.064	975258	keystroke_o	o	n/a
487.829	0.08	975658	keystroke_p	p	n/a
488.053	0.096	976106	keystroke_t	t	n/a
488.237	0.1515	976474	keystroke_e	e	n/a
488.301	0.1195	976602	keystroke_r	r	n/a
488.9165	0.104	977833	keystroke_Key.space	Key.space	n/a
489.3165	0.104	978633	keystroke_i	i	n/a
489.4285	0.056	978857	keystroke_r	r	n/a
489.668	0.088	979336	keystroke_v	v	n/a
489.852	0.056	979704	keystroke_Key.backspace	Key.backspace	n/a
490.028	0.072	980056	keystroke_Key.backspace	Key.backspace	n/a
490.196	0.064	980392	keystroke_Key.backspace	Key.backspace	n/a
490.293	0.087	980586	keystroke_r	r	n/a
490.444	0.08	980888	keystroke_i	i	n/a
490.508	0.112	981016	keystroke_v	v	n/a
490.692	0.113	981384	keystroke_e	e	n/a
490.756	0.096	981512	keystroke_r	r	n/a
490.86	0.104	981720	keystroke_s	s	n/a
490.98	0.088	981960	keystroke_Key.space	Key.space	n/a
491.788	0.12	983576	keystroke_e	e	n/a
491.956	0.12	983912	keystroke_r	r	n/a
492.4445	0.064	984889	keystroke_Key.backspace	Key.backspace	n/a
492.6685	0.08	985337	keystroke_u	u	n/a
492.7805	0.12	985561	keystroke_r	r	n/a
492.8845	0.088	985769	keystroke_o	o	n/a
493.0845	0.104	986169	keystroke_s	s	n/a
493.3005	0.08	986601	keystroke_Key.enter	Key.enter	n/a
493.384	9.2855	986768	prompt	n/a	middle halloween professor translated\n
495.06	0.072	990120	keystroke_m	m	n/a
495.228	0.096	990456	keystroke_i	i	n/a
495.34	0.072	990680	keystroke_d	d	n/a
495.508	0.08	991016	keystroke_d	d	n/a
495.652	0.072	991304	keystroke_l	l	n/a
495.716	0.056	991432	keystroke_e	e	n/a
495.9	0.064	991800	keystroke_Key.space	Key.space	n/a
496.6845	0.08	993369	keystroke_h	h	n/a
496.8525	0.096	993705	keystroke_a	a	n/a
496.9245	0.08	993849	keystroke_l	l	n/a
497.0765	0.0795	994153	keystroke_l	l	n/a
497.26	0.096	994520	keystroke_o	o	n/a
497.396	0.104	994792	keystroke_w	w	n/a
497.5485	0.08	995097	keystroke_e	e	n/a
497.7245	0.095	995449	keystroke_e	e	n/a
497.8285	0.071	995657	keystroke_n	n	n/a
497.9565	0.088	995913	keystroke_Key.space	Key.space	n/a
498.5555	0.096	997111	keystroke_p	p	n/a
498.7075	0.088	997415	keystroke_r	r	n/a
498.7715	0.096	997543	keystroke_o	o	n/a
498.9245	0.095	997849	keystroke_f	f	n/a
499.0675	0.081	998135	keystroke_e	e	n/a
499.2365	0.088	998473	keystroke_s	s	n/a
499.9	0.096	999800	keystroke_s	s	n/a
500.012	0.088	1000024	keystroke_o	o	n/a
500.132	0.088	1000264	keystroke_r	r	n/a
500.26	0.112	1000520	keystroke_Key.space	Key.space	n/a
501.044	0.104	1002088	keystroke_t	t	n/a
501.244	0.104	1002488	keystroke_r	r	n/a
501.42	0.12	1002840	keystroke_a	a	n/a
501.548	0.0885	1003096	keystroke_n	n	n/a
501.6765	0.072	1003353	keystroke_s	s	n/a
501.8445	0.088	1003689	keystroke_l	l	n/a
501.9725	0.112	1003945	keystroke_a	a	n/a
502.0685	0.1275	1004137	keystroke_t	t	n/a
502.156	0.08	1004312	keystroke_e	e	n/a
502.356	0.072	1004712	keystroke_d	d	n/a
502.596	0.072	1005192	keystroke_Key.enter	Key.enter	n/a
502.673	10.708	1005346	prompt	n/a	loading enforcement provincial driver\n
503.516	0.1125	1007032	keystroke_l	l	n/a
503.7165	0.096	1007433	keystroke_o	o	n/a
503.8365	0.071	1007673	keystroke_a	a	n/a
503.8995	0.072	1007799	keystroke_d	d	n/a
504.0125	0.071	1008025	keystroke_i	i	n/a
504.1715	0.0805	1008343	keystroke_n	n	n/a
504.3	0.1045	1008600	keystroke_g	g	n/a
504.3805	0.112	1008761	keystroke_Key.space	Key.space	n/a
504.8045	0.08	1009609	keystroke_e	e	n/a
504.9165	0.104	1009833	keystroke_n	n	n/a
505.4365	0.096	1010873	keystroke_f	f	n/a
505.5885	0.088	1011177	keystroke_o	o	n/a
505.6845	0.088	1011369	keystroke_r	r	n/a
505.9005	0.144	1011801	keystroke_c	c	n/a
506.0925	0.096	1012185	keystroke_e	e	n/a
506.2365	0.1195	1012473	keystroke_m	m	n/a
506.389	0.119	1012778	keystroke_e	e	n/a
506.5	0.088	1013000	keystroke_n	n	n/a
506.612	0.096	1013224	keystroke_t	t	n/a
506.764	0.104	1013528	keystroke_Key.space	Key.space	n/a
507.4595	0.105	1014919	keystroke_p	p	n/a
507.5955	0.096	1015191	keystroke_r	r	n/a
507.6995	0.104	1015399	keystroke_o	o	n/a
507.8195	0.144	1015639	keystroke_v	v	n/a
507.9715	0.096	1015943	keystroke_i	i	n/a
509.1235	0.129	1018247	keystroke_n	n	n/a
510.4915	0.136	1020983	keystroke_c	c	n/a
510.6115	0.096	1021223	keystroke_i	i	n/a
510.7795	0.12	1021559	keystroke_a	a	n/a
511.2115	0.168	1022423	keystroke_l	l	n/a
511.5555	0.104	1023111	keystroke_Key.space	Key.space	n/a
512.2045	0.12	1024409	keystroke_d	d	n/a
512.4125	0.104	1024825	keystroke_r	r	n/a
512.5405	0.096	1025081	keystroke_i	i	n/a
512.6605	0.104	1025321	keystroke_v	v	n/a
512.8445	0.152	1025689	keystroke_e	e	n/a
512.9245	0.112	1025849	keystroke_r	r	n/a
513.2915	0.088	1026583	keystroke_Key.enter	Key.enter	n/a
513.3845	6.8935	1026769	prompt	n/a	hart align generation chubby\n
514.036	0.088	1028072	keystroke_l	l	n/a
514.324	0.056	1028648	keystroke_Key.backspace	Key.backspace	n/a
514.588	0.128	1029176	keystroke_h	h	n/a
514.692	0.128	1029384	keystroke_a	a	n/a
514.748	0.12	1029496	keystroke_r	r	n/a
514.956	0.104	1029912	keystroke_t	t	n/a
515.092	0.112	1030184	keystroke_Key.space	Key.space	n/a
515.492	0.112	1030984	keystroke_a	a	n/a
515.588	0.0875	1031176	keystroke_l	l	n/a
515.8445	0.095	1031689	keystroke_i	i	n/a
515.9875	0.104	1031975	keystroke_g	g	n/a
516.1075	0.088	1032215	keystroke_n	n	n/a
516.2355	0.12	1032471	keystroke_Key.space	Key.space	n/a
517.0675	0.1205	1034135	keystroke_g	g	n/a
517.236	0.112	1034472	keystroke_e	e	n/a
517.364	0.12	1034728	keystroke_n	n	n/a
517.468	0.152	1034936	keystroke_e	e	n/a
517.556	0.0965	1035112	keystroke_r	r	n/a
517.7555	0.12	1035511	keystroke_a	a	n/a
517.8365	0.104	1035673	keystroke_t	t	n/a
517.8845	0.119	1035769	keystroke_i	i	n/a
517.9635	0.088	1035927	keystroke_o	o	n/a
518.1555	0.129	1036311	keystroke_n	n	n/a
518.2755	0.12	1036551	keystroke_Key.space	Key.space	n/a
518.5635	0.056	1037127	keystroke_a	a	n/a
518.8515	0.072	1037703	keystroke_Key.backspace	Key.backspace	n/a
518.9645	0.119	1037929	keystroke_c	c	n/a
519.1555	0.112	1038311	keystroke_h	h	n/a
519.3955	0.112	1038791	keystroke_u	u	n/a
519.6595	0.08	1039319	keystroke_b	b	n/a
519.8355	0.088	1039671	keystroke_b	b	n/a
519.9075	0.12	1039815	keystroke_y	y	n/a
520.1715	0.104	1040343	keystroke_Key.enter	Key.enter	n/a
520.281	7.5805	1040562	prompt	n/a	faqs tommy tribunal island\n
521.0035	0.096	1042007	keystroke_f	f	n/a
521.1715	0.096	1042343	keystroke_a	a	n/a
521.4035	0.096	1042807	keystroke_q	q	n/a
521.6515	0.097	1043303	keystroke_s	s	n/a
521.8595	0.112	1043719	keystroke_Key.space	Key.space	n/a
522.996	0.104	1045992	keystroke_t	t	n/a
523.092	0.08	1046184	keystroke_o	o	n/a
523.276	0.072	1046552	keystroke_m	m	n/a
523.452	0.096	1046904	keystroke_m	m	n/a
523.6675	0.104	1047335	keystroke_y	y	n/a
523.7635	0.128	1047527	keystroke_Key.space	Key.space	n/a
524.5075	0.096	1049015	keystroke_t	t	n/a
524.6835	0.12	1049367	keystroke_r	r	n/a
524.7725	0.072	1049545	keystroke_i	i	n/a
524.9635	0.072	1049927	keystroke_b	b	n/a
525.1955	0.12	1050391	keystroke_u	u	n/a
525.4355	0.096	1050871	keystroke_n	n	n/a
525.5475	0.136	1051095	keystroke_a	a	n/a
525.6835	0.104	1051367	keystroke_l	l	n/a
525.8195	0.112	1051639	keystroke_Key.space	Key.space	n/a
526.3875	0.08	1052775	keystroke_s	s	n/a
526.8195	0.088	1053639	keystroke_Key.backspace	Key.backspace	n/a
527.0755	0.0725	1054151	keystroke_i	i	n/a
527.18	0.096	1054360	keystroke_s	s	n/a
527.316	0.088	1054632	keystroke_l	l	n/a
527.42	0.112	1054840	keystroke_a	a	n/a
527.524	0.096	1055048	keystroke_n	n	n/a
527.628	0.1115	1055256	keystroke_d	d	n/a
527.7715	0.088	1055543	keystroke_Key.enter	Key.enter	n/a
527.87	4.639	1055740	prompt	n/a	menu gotten medical moon\n
528.428	0.08	1056856	keystroke_m	m	n/a
528.532	0.088	1057064	keystroke_e	e	n/a
528.644	0.048	1057288	keystroke_n	n	n/a
528.812	0.112	1057624	keystroke_u	u	n/a
528.964	0.112	1057928	keystroke_Key.space	Key.space	n/a
529.196	0.072	1058392	keystroke_g	g	n/a
529.244	0.088	1058488	keystroke_o	o	n/a
529.484	0.08	1058968	keystroke_t	t	n/a
529.652	0.144	1059304	keystroke_t	t	n/a
529.756	0.104	1059512	keystroke_e	e	n/a
529.852	0.104	1059704	keystroke_n	n	n/a
529.988	0.12	1059976	keystroke_Key.space	Key.space	n/a
530.564	0.12	1061128	keystroke_m	m	n/a
530.692	0.072	1061384	keystroke_e	e	n/a
530.852	0.104	1061704	keystroke_d	d	n/a
530.996	0.088	1061992	keystroke_i	i	n/a
531.1	0.136	1062200	keystroke_c	c	n/a
531.212	0.128	1062424	keystroke_a	a	n/a
531.292	0.12	1062584	keystroke_l	l	n/a
531.444	0.104	1062888	keystroke_Key.space	Key.space	n/a
531.708	0.096	1063416	keystroke_m	m	n/a
531.948	0.031	1063896	keystroke_o	o	n/a
532.084	0.096	1064168	keystroke_o	o	n/a
532.204	0.096	1064408	keystroke_n	n	n/a
532.4195	0.088	1064839	keystroke_Key.enter	Key.enter	n/a
532.512	6.197	1065024	prompt	n/a	linux willing rentals stores\n
533.0675	0.08	1066135	keystroke_l	l	n/a
533.2995	0.08	1066599	keystroke_i	i	n/a
533.5155	0.072	1067031	keystroke_n	n	n/a
533.7405	0.087	1067481	keystroke_u	u	n/a
533.8595	0.08	1067719	keystroke_x	x	n/a
534.0435	0.096	1068087	keystroke_Key.space	Key.space	n/a
534.78	0.096	1069560	keystroke_w	w	n/a
534.9	0.064	1069800	keystroke_i	i	n/a
535.092	0.072	1070184	keystroke_l	l	n/a
535.268	0.088	1070536	keystroke_l	l	n/a
535.444	0.096	1070888	keystroke_i	i	n/a
535.644	0.0795	1071288	keystroke_n	n	n/a
535.8195	0.12	1071639	keystroke_g	g	n/a
535.9235	0.12	1071847	keystroke_Key.space	Key.space	n/a
536.484	0.144	1072968	keystroke_r	r	n/a
536.564	0.128	1073128	keystroke_e	e	n/a
536.7	0.088	1073400	keystroke_n	n	n/a
536.82	0.08	1073640	keystroke_t	t	n/a
536.98	0.112	1073960	keystroke_a	a	n/a
537.1	0.0955	1074200	keystroke_l	l	n/a
537.2115	0.104	1074423	keystroke_s	s	n/a
537.3555	0.096	1074711	keystroke_Key.space	Key.space	n/a
537.8355	0.064	1075671	keystroke_s	s	n/a
537.9955	0.112	1075991	keystroke_t	t	n/a
538.1155	0.104	1076231	keystroke_o	o	n/a
538.2115	0.12	1076423	keystroke_r	r	n/a
538.2675	0.04	1076535	keystroke_e	e	n/a
538.4195	0.104	1076839	keystroke_s	s	n/a
538.6195	0.088	1077239	keystroke_Key.enter	Key.enter	n/a
538.7135	11.5715	1077427	prompt	n/a	boxes bangladesh parenting rich\n
539.4835	0.08	1078967	keystroke_b	b	n/a
539.6595	0.088	1079319	keystroke_o	o	n/a
539.7635	0.08	1079527	keystroke_x	x	n/a
540.0275	0.088	1080055	keystroke_e	e	n/a
540.1955	0.064	1080391	keystroke_s	s	n/a
540.2675	0.12	1080535	keystroke_Key.space	Key.space	n/a
541.0595	0.096	1082119	keystroke_n	n	n/a
541.2515	0.104	1082503	keystroke_a	a	n/a
541.4115	0.064	1082823	keystroke_n	n	n/a
541.7715	0.056	1083543	keystroke_=	=	n/a
542.723	0.088	1085446	keystroke_Key.backspace	Key.backspace	n/a
542.94	0.103	1085880	keystroke_Key.backspace	Key.backspace	n/a
543.212	0.079	1086424	keystroke_Key.backspace	Key.backspace	n/a
543.419	0.057	1086838	keystroke_Key.backspace	Key.backspace	n/a
543.987	0.104	1087974	keystroke_b	b	n/a
544.147	0.128	1088294	keystroke_a	a	n/a
544.267	0.088	1088534	keystroke_n	n	n/a
544.451	0.088	1088902	keystroke_g	g	n/a
545.211	0.088	1090422	keystroke_a	a	n/a
545.619	0.08	1091238	keystroke_Key.backspace	Key.backspace	n/a
545.868	0.12	1091736	keystroke_l	l	n/a
546.092	0.056	1092184	keystroke_a	a	n/a
546.476	0.072	1092952	keystroke_d	d	n/a
546.684	0.04	1093368	keystroke_e	e	n/a
546.844	0.096	1093688	keystroke_s	s	n/a
546.988	0.104	1093976	keystroke_h	h	n/a
547.1395	0.128	1094279	keystroke_Key.space	Key.space	n/a
547.6755	0.1195	1095351	keystroke_p	p	n/a
547.931	0.12	1095862	keystroke_a	a	n/a
548.019	0.104	1096038	keystroke_r	r	n/a
548.427	0.104	1096854	keystroke_e	e	n/a
548.619	0.088	1097238	keystroke_n	n	n/a
548.787	0.104	1097574	keystroke_t	t	n/a
548.907	0.112	1097814	keystroke_i	i	n/a
549.115	0.12	1098230	keystroke_n	n	n/a
549.259	0.088	1098518	keystroke_g	g	n/a
549.355	0.104	1098710	keystroke_Key.space	Key.space	n/a
549.499	0.064	1098998	keystroke_r	r	n/a
549.603	0.088	1099206	keystroke_i	i	n/a
549.7075	0.1115	1099415	keystroke_c	c	n/a
549.8515	0.1115	1099703	keystroke_h	h	n/a
550.187	0.096	1100374	keystroke_Key.enter	Key.enter	n/a
550.288	16.365	1100576	prompt	n/a	mainly boolean detector musical\n
550.979	0.096	1101958	keystroke_m	m	n/a
551.099	0.112	1102198	keystroke_a	a	n/a
551.219	0.072	1102438	keystroke_i	i	n/a
551.363	0.096	1102726	keystroke_n	n	n/a
551.579	0.08	1103158	keystroke_l	l	n/a
551.8355	0.088	1103671	keystroke_y	y	n/a
551.9715	0.088	1103943	keystroke_Key.space	Key.space	n/a
557.1235	0.0875	1114247	keystroke_b	b	n/a
557.331	0.065	1114662	keystroke_o	o	n/a
557.476	0.079	1114952	keystroke_o	o	n/a
557.676	0.128	1115352	keystroke_l	l	n/a
557.868	0.088	1115736	keystroke_e	e	n/a
558.068	0.128	1116136	keystroke_a	a	n/a
558.204	0.096	1116408	keystroke_n	n	n/a
558.372	0.095	1116744	keystroke_Key.space	Key.space	n/a
558.956	0.088	1117912	keystroke_f	f	n/a
559.395	0.081	1118790	keystroke_Key.backspace	Key.backspace	n/a
559.468	0.072	1118936	keystroke_d	d	n/a
559.636	0.088	1119272	keystroke_e	e	n/a
559.971	0.112	1119942	keystroke_c	c	n/a
560.315	0.072	1120630	keystroke_Key.backspace	Key.backspace	n/a
560.436	0.103	1120872	keystroke_t	t	n/a
560.507	0.064	1121014	keystroke_e	e	n/a
560.699	0.112	1121398	keystroke_c	c	n/a
561.3555	0.112	1122711	keystroke_t	t	n/a
561.4835	0.104	1122967	keystroke_o	o	n/a
561.6675	0.088	1123335	keystroke_r	r	n/a
561.7715	0.088	1123543	keystroke_Key.space	Key.space	n/a
562.5235	0.032	1125047	keystroke_u	u	n/a
562.8595	0.088	1125719	keystroke_Key.backspace	Key.backspace	n/a
563.3875	0.088	1126775	keystroke_m	m	n/a
563.6115	0.056	1127223	keystroke_u	u	n/a
563.6995	0.0965	1127399	keystroke_s	s	n/a
563.859	0.081	1127718	keystroke_i	i	n/a
563.94	0.127	1127880	keystroke_c	c	n/a
564.139	0.096	1128278	keystroke_l	l	n/a
564.643	0.072	1129286	keystroke_Key.backspace	Key.backspace	n/a
564.779	0.12	1129558	keystroke_a	a	n/a
564.907	0.096	1129814	keystroke_l	l	n/a
566.563	0.088	1133126	keystroke_Key.enter	Key.enter	n/a
566.6555	9.437	1133311	prompt	n/a	willow pine integrity matters\n
567.5395	0.072	1135079	keystroke_w	w	n/a
567.6275	0.072	1135255	keystroke_i	i	n/a
567.835	0.048	1135670	keystroke_l	l	n/a
567.987	0.056	1135974	keystroke_l	l	n/a
568.156	0.071	1136312	keystroke_o	o	n/a
568.243	0.08	1136486	keystroke_w	w	n/a
568.355	0.096	1136710	keystroke_Key.space	Key.space	n/a
568.555	0.088	1137110	keystroke_p	p	n/a
568.771	0.017	1137542	keystroke_8	8	n/a
568.915	0.096	1137830	keystroke_n	n	n/a
569.035	0.064	1138070	keystroke_e	e	n/a
569.34	0.055	1138680	keystroke_=	=	n/a
569.507	0.048	1139014	keystroke_Key.backspace	Key.backspace	n/a
569.675	0.064	1139350	keystroke_=	=	n/a
569.835	0.072	1139670	keystroke_=	=	n/a
570.019	0.072	1140038	keystroke_=	=	n/a
570.195	0.056	1140390	keystroke_Key.backspace	Key.backspace	n/a
570.331	0.08	1140662	keystroke_Key.backspace	Key.backspace	n/a
570.507	0.072	1141014	keystroke_Key.backspace	Key.backspace	n/a
570.675	0.072	1141350	keystroke_Key.backspace	Key.backspace	n/a
570.843	0.088	1141686	keystroke_Key.backspace	Key.backspace	n/a
571.211	0.072	1142422	keystroke_Key.backspace	Key.backspace	n/a
571.827	0.072	1143654	keystroke_i	i	n/a
572.003	0.096	1144006	keystroke_n	n	n/a
572.1625	0.088	1144325	keystroke_e	e	n/a
572.2425	0.096	1144485	keystroke_Key.space	Key.space	n/a
572.8345	0.08	1145669	keystroke_i	i	n/a
573.0345	0.112	1146069	keystroke_n	n	n/a
573.1625	0.129	1146325	keystroke_t	t	n/a
573.4195	0.112	1146839	keystroke_e	e	n/a
573.8515	0.096	1147703	keystroke_g	g	n/a
574.0355	0.096	1148071	keystroke_r	r	n/a
574.1555	0.112	1148311	keystroke_i	i	n/a
574.2995	0.104	1148599	keystroke_t	t	n/a
574.4515	0.08	1148903	keystroke_y	y	n/a
574.5795	0.088	1149159	keystroke_Key.space	Key.space	n/a
574.9075	0.104	1149815	keystroke_m	m	n/a
575.1155	0.08	1150231	keystroke_a	a	n/a
575.2755	0.096	1150551	keystroke_t	t	n/a
575.4595	0.152	1150919	keystroke_t	t	n/a
575.6035	0.144	1151207	keystroke_e	e	n/a
575.7155	0.088	1151431	keystroke_r	r	n/a
575.7955	0.1115	1151591	keystroke_s	s	n/a
575.995	0.096	1151990	keystroke_Key.enter	Key.enter	n/a
576.0955	27.6125	1152191	prompt	n/a	naked holland manhattan rage\n
596.315	0.0875	1192630	keystroke_n	n	n/a
596.4745	0.112	1192949	keystroke_a	a	n/a
596.6665	0.048	1193333	keystroke_k	k	n/a
597.307	0.048	1194614	keystroke_e	e	n/a
597.491	0.072	1194982	keystroke_d	d	n/a
598.083	0.112	1196166	keystroke_Key.space	Key.space	n/a
598.307	0.088	1196614	keystroke_h	h	n/a
598.411	0.072	1196822	keystroke_o	o	n/a
598.603	0.072	1197206	keystroke_l	l	n/a
598.771	0.08	1197542	keystroke_l	l	n/a
598.899	0.096	1197798	keystroke_a	a	n/a
598.971	0.112	1197942	keystroke_n	n	n/a
599.139	0.096	1198278	keystroke_d	d	n/a
599.187	0.104	1198374	keystroke_Key.space	Key.space	n/a
599.803	0.1045	1199606	keystroke_m	m	n/a
600.0115	0.0875	1200023	keystroke_a	a	n/a
600.107	0.0645	1200214	keystroke_n	n	n/a
600.259	0.1205	1200518	keystroke_t	t	n/a
600.3475	0.128	1200695	keystroke_h	h	n/a
600.7235	0.047	1201447	keystroke_Key.backspace	Key.backspace	n/a
600.8675	0.072	1201735	keystroke_Key.backspace	Key.backspace	n/a
601.0995	0.08	1202199	keystroke_h	h	n/a
601.1955	0.072	1202391	keystroke_a	a	n/a
