onset	duration	sample	value	key	prompt_text
3.363	10.3745	6726	prompt	n/a	the quick brown fox jumps over a lazy dog\n
5.7875	0.001	11575	keystroke_t	t	n/a
5.7875	0.087	11575	keystroke_h	h	n/a
5.8595	0.0755	11719	keystroke_e	e	n/a
5.965	0.074	11930	keystroke_Key.space	Key.space	n/a
6.2055	0.0745	12411	keystroke_q	q	n/a
6.2655	0.0745	12531	keystroke_u	u	n/a
6.385	0.1195	12770	keystroke_i	i	n/a
6.5505	0.06	13101	keystroke_c	c	n/a
6.6245	0.091	13249	keystroke_k	k	n/a
6.7605	0.0445	13521	keystroke_Key.space	Key.space	n/a
7.2545	0.061	14509	keystroke_b	b	n/a
7.9755	0.09	15951	keystroke_r	r	n/a
8.4105	0.09	16821	keystroke_o	o	n/a
8.6355	0.09	17271	keystroke_w	w	n/a
8.7105	0.104	17421	keystroke_n	n	n/a
8.8745	0.06	17749	keystroke_Key.space	Key.space	n/a
9.145	0.0745	18290	keystroke_f	f	n/a
9.25	0.0905	18500	keystroke_o	o	n/a
9.3855	0.074	18771	keystroke_x	x	n/a
9.5355	0.074	19071	keystroke_Key.space	Key.space	n/a
9.731	0.0595	19462	keystroke_j	j	n/a
9.8955	0.06	19791	keystroke_u	u	n/a
10.0605	0.075	20121	keystroke_m	m	n/a
10.196	0.0895	20392	keystroke_p	p	n/a
10.4655	0.074	20931	keystroke_s	s	n/a
10.615	0.075	21230	keystroke_Key.space	Key.space	n/a
10.8395	0.076	21679	keystroke_o	o	n/a
10.9305	0.0895	21861	keystroke_v	v	n/a
11.08	0.0905	22160	keystroke_e	e	n/a
11.1555	0.105	22311	keystroke_r	r	n/a
11.2745	0.075	22549	keystroke_Key.space	Key.space	n/a
11.38	0.1195	22760	keystroke_a	a	n/a
11.515	0.0745	23030	keystroke_Key.space	Key.space	n/a
11.7855	0.1045	23571	keystroke_l	l	n/a
11.9955	0.0895	23991	keystroke_a	a	n/a
12.4755	0.119	24951	keystroke_z	z	n/a
12.609	0.0755	25218	keystroke_y	y	n/a
12.834	0.045	25668	keystroke_Key.space	Key.space	n/a
13.1205	0.09	26241	keystroke_d	d	n/a
13.2255	0.09	26451	keystroke_o	o	n/a
13.3295	0.076	26659	keystroke_g	g	n/a
13.6445	0.09	27289	keystroke_Key.enter	Key.enter	n/a
13.743	9.4585	27486	prompt	n/a	worm consolidated form juvenile\n
15.01	0.1055	30020	keystroke_w	w	n/a
15.205	0.1055	30410	keystroke_o	o	n/a
15.4605	0.09	30921	keystroke_r	r	n/a
15.61	0.1055	31220	keystroke_m	m	n/a
15.9995	0.06	31999	keystroke_Key.space	Key.space	n/a
16.5105	0.089	33021	keystroke_s	s	n/a
16.6455	0.09	33291	keystroke_o	o	n/a
17.4095	0.061	34819	keystroke_Key.backspace	Key.backspace	n/a
17.5605	0.074	35121	keystroke_Key.backspace	Key.backspace	n/a
17.7395	0.061	35479	keystroke_c	c	n/a
17.845	0.1345	35690	keystroke_o	o	n/a
17.9345	0.135	35869	keystroke_n	n	n/a
18.19	0.1055	36380	keystroke_s	s	n/a
18.31	0.0905	36620	keystroke_o	o	n/a
18.6695	0.061	37339	keystroke_l	l	n/a
18.775	0.1055	37550	keystroke_i	i	n/a
18.94	0.075	37880	keystroke_d	d	n/a
18.999	0.1665	37998	keystroke_a	a	n/a
19.1055	0.119	38211	keystroke_t	t	n/a
19.2545	0.06	38509	keystroke_e	e	n/a
19.4655	0.045	38931	keystroke_d	d	n/a
19.555	0.1195	39110	keystroke_Key.space	Key.space	n/a
19.8555	0.06	39711	keystroke_f	f	n/a
20.005	0.0605	40010	keystroke_r	r	n/a
20.7105	0.059	41421	keystroke_Key.backspace	Key.backspace	n/a
20.9355	0.09	41871	keystroke_o	o	n/a
21.085	0.0755	42170	keystroke_r	r	n/a
21.2195	0.091	42439	keystroke_m	m	n/a
21.43	0.0295	42860	keystroke_Key.space	Key.space	n/a
21.6255	0.075	43251	keystroke_j	j	n/a
21.8055	0.0595	43611	keystroke_u	u	n/a
22.119	0.091	44238	keystroke_v	v	n/a
22.3	0.075	44600	keystroke_e	e	n/a
22.4645	0.075	44929	keystroke_n	n	n/a
22.6145	0.0755	45229	keystroke_i	i	n/a
22.8555	0.0895	45711	keystroke_l	l	n/a
22.93	0.0745	45860	keystroke_e	e	n/a
23.1245	0.0755	46249	keystroke_Key.enter	Key.enter	n/a
23.2165	7.9505	46433	prompt	n/a	performs promises paul pushed\n
23.98	0.0905	47960	keystroke_p	p	n/a
24.0405	0.1195	48081	keystroke_e	e	n/a
24.1305	0.105	48261	keystroke_r	r	n/a
24.385	0.075	48770	keystroke_f	f	n/a
24.475	0.105	48950	keystroke_o	o	n/a
24.595	0.0755	49190	keystroke_r	r	n/a
24.7155	0.1045	49431	keystroke_m	m	n/a
24.8645	0.0905	49729	keystroke_s	s	n/a
25.015	0.075	50030	keystroke_Key.space	Key.space	n/a
25.2855	0.1045	50571	keystroke_p	p	n/a
25.3755	0.089	50751	keystroke_r	r	n/a
25.48	0.09	50960	keystroke_o	o	n/a
25.7045	0.0905	51409	keystroke_m	m	n/a
25.855	0.0905	51710	keystroke_i	i	n/a
25.9905	0.1045	51981	keystroke_s	s	n/a
26.0955	0.0895	52191	keystroke_e	e	n/a
26.3345	0.0755	52669	keystroke_d	d	n/a
26.89	0.09	53780	keystroke_Key.backspace	Key.backspace	n/a
27.0245	0.106	54049	keystroke_s	s	n/a
27.5645	0.06	55129	keystroke_Key.space	Key.space	n/a
27.865	0.0905	55730	keystroke_p	p	n/a
28.076	0.089	56152	keystroke_a	a	n/a
28.181	0.074	56362	keystroke_u	u	n/a
28.405	0.0755	56810	keystroke_l	l	n/a
30.1895	0.0755	60379	keystroke_p	p	n/a
30.3105	0.0895	60621	keystroke_u	u	n/a
30.55	0.091	61100	keystroke_s	s	n/a
30.655	0.09	61310	keystroke_h	h	n/a
30.7605	0.0745	61521	keystroke_e	e	n/a
30.9255	0.089	61851	keystroke_d	d	n/a
31.075	0.09	62150	keystroke_Key.enter	Key.enter	n/a
31.1735	6.608	62347	prompt	n/a	perl socks elected outsourcing\n
31.9445	0.091	63889	keystroke_p	p	n/a
32.0945	0.0905	64189	keystroke_e	e	n/a
32.41	0.09	64820	keystroke_r	r	n/a
32.6505	0.105	65301	keystroke_l	l	n/a
32.785	0.0595	65570	keystroke_Key.space	Key.space	n/a
32.9795	0.0755	65959	keystroke_s	s	n/a
33.085	0.0905	66170	keystroke_o	o	n/a
33.2655	0.0745	66531	keystroke_c	c	n/a
33.37	0.0905	66740	keystroke_k	k	n/a
33.6705	0.0895	67341	keystroke_s	s	n/a
33.8045	0.09	67609	keystroke_Key.space	Key.space	n/a
34.09	0.075	68180	keystroke_e	e	n/a
34.1795	0.121	68359	keystroke_l	l	n/a
34.3005	0.0595	68601	keystroke_e	e	n/a
34.495	0.0455	68990	keystroke_c	c	n/a
34.899	0.091	69798	keystroke_t	t	n/a
35.29	0.06	70580	keystroke_e	e	n/a
35.485	0.09	70970	keystroke_d	d	n/a
35.605	0.06	71210	keystroke_Key.space	Key.space	n/a
35.8905	0.074	71781	keystroke_o	o	n/a
35.9805	0.119	71961	keystroke_u	u	n/a
36.1445	0.076	72289	keystroke_t	t	n/a
36.4295	0.1055	72859	keystroke_s	s	n/a
36.55	0.12	73100	keystroke_o	o	n/a
36.6405	0.1345	73281	keystroke_u	u	n/a
36.79	0.0755	73580	keystroke_r	r	n/a
37.0305	0.09	74061	keystroke_c	c	n/a
37.315	0.1495	74630	keystroke_i	i	n/a
37.3905	0.164	74781	keystroke_n	n	n/a
37.48	0.105	74960	keystroke_g	g	n/a
37.69	0.0895	75380	keystroke_Key.enter	Key.enter	n/a
37.7985	7.214	75597	prompt	n/a	introductory designer enormous curve\n
38.53	0.1495	77060	keystroke_i	i	n/a
38.6195	0.166	77239	keystroke_n	n	n/a
38.7865	0.0875	77573	keystroke_t	t	n/a
39.0705	0.0745	78141	keystroke_r	r	n/a
39.1755	0.105	78351	keystroke_o	o	n/a
39.3855	0.089	78771	keystroke_d	d	n/a
39.4905	0.09	78981	keystroke_u	u	n/a
39.6255	0.09	79251	keystroke_c	c	n/a
39.8055	0.0595	79611	keystroke_t	t	n/a
40.0745	0.091	80149	keystroke_o	o	n/a
40.1955	0.074	80391	keystroke_r	r	n/a
40.2845	0.09	80569	keystroke_y	y	n/a
40.3895	0.0605	80779	keystroke_Key.space	Key.space	n/a
40.6295	0.075	81259	keystroke_d	d	n/a
40.8095	0.061	81619	keystroke_e	e	n/a
40.96	0.06	81920	keystroke_s	s	n/a
41.08	0.075	82160	keystroke_i	i	n/a
41.1845	0.06	82369	keystroke_g	g	n/a
41.2605	0.1195	82521	keystroke_n	n	n/a
41.3655	0.0895	82731	keystroke_e	e	n/a
41.44	0.1055	82880	keystroke_r	r	n/a
41.56	0.075	83120	keystroke_Key.space	Key.space	n/a
41.83	0.06	83660	keystroke_e	e	n/a
41.95	0.075	83900	keystroke_n	n	n/a
42.355	0.075	84710	keystroke_o	o	n/a
42.94	0.09	85880	keystroke_r	r	n/a
43.225	0.09	86450	keystroke_m	m	n/a
43.525	0.105	87050	keystroke_o	o	n/a
43.6	0.135	87200	keystroke_u	u	n/a
43.7805	0.0895	87561	keystroke_s	s	n/a
43.975	0.06	87950	keystroke_Key.space	Key.space	n/a
44.1995	0.075	88399	keystroke_c	c	n/a
44.3205	0.09	88641	keystroke_u	u	n/a
44.4255	0.074	88851	keystroke_r	r	n/a
44.6355	0.06	89271	keystroke_v	v	n/a
44.7395	0.075	89479	keystroke_e	e	n/a
44.905	0.105	89810	keystroke_Key.enter	Key.enter	n/a
45.0185	10.974	90037	prompt	n/a	obituaries constitute trader unsubscribe\n
45.985	0.0745	91970	keystroke_o	o	n/a
46.1645	0.09	92329	keystroke_b	b	n/a
46.57	0.0605	93140	keystroke_i	i	n/a
46.9445	0.0755	93889	keystroke_t	t	n/a
47.125	0.0745	94250	keystroke_u	u	n/a
47.4545	0.1365	94909	keystroke_a	a	n/a
47.754	0.0755	95508	keystroke_r	r	n/a
47.8445	0.09	95689	keystroke_i	i	n/a
47.9495	0.0605	95899	keystroke_e	e	n/a
48.0555	0.1045	96111	keystroke_s	s	n/a
48.1895	0.0605	96379	keystroke_Key.space	Key.space	n/a
48.385	0.0755	96770	keystroke_c	c	n/a
48.6555	0.0295	97311	keystroke_o	o	n/a
48.67	0.12	97340	keystroke_n	n	n/a
48.955	0.0905	97910	keystroke_s	s	n/a
49.2245	0.0755	98449	keystroke_t	t	n/a
49.345	0.075	98690	keystroke_i	i	n/a
49.4805	0.075	98961	keystroke_t	t	n/a
49.6005	0.1045	99201	keystroke_u	u	n/a
49.9455	0.0745	99891	keystroke_t	t	n/a
50.065	0.075	100130	keystroke_e	e	n/a
50.26	0.06	100520	keystroke_Key.space	Key.space	n/a
50.456	0.0745	100912	keystroke_t	t	n/a
50.621	0.074	101242	keystroke_r	r	n/a
50.755	0.09	101510	keystroke_a	a	n/a
50.9805	0.059	101961	keystroke_d	d	n/a
51.1455	0.074	102291	keystroke_e	e	n/a
51.2945	0.09	102589	keystroke_r	r	n/a
51.4145	0.06	102829	keystroke_Key.space	Key.space	n/a
51.7295	0.0755	103459	keystroke_u	u	n/a
51.9095	0.075	103819	keystroke_n	n	n/a
52.1345	0.09	104269	keystroke_s	s	n/a
52.375	0.0755	104750	keystroke_u	u	n/a
52.5705	0.0745	105141	keystroke_b	b	n/a
53.08	0.075	106160	keystroke_s	s	n/a
53.9645	0.106	107929	keystroke_c	c	n/a
55.3005	0.075	110601	keystroke_r	r	n/a
55.4055	0.089	110811	keystroke_i	i	n/a
55.5405	0.06	111081	keystroke_b	b	n/a
55.66	0.0895	111320	keystroke_e	e	n/a
55.8995	0.0905	111799	keystroke_Key.enter	Key.enter	n/a
55.999	9.893	111998	prompt	n/a	considers devoted remark barbara\n
56.89	0.1045	113780	keystroke_s	s	n/a
56.9495	0.1805	113899	keystroke_o	o	n/a
57.04	0.2105	114080	keystroke_n	n	n/a
57.52	0.059	115040	keystroke_Key.backspace	Key.backspace	n/a
57.6845	0.075	115369	keystroke_Key.backspace	Key.backspace	n/a
57.8355	0.089	115671	keystroke_Key.backspace	Key.backspace	n/a
58.0455	0.074	116091	keystroke_c	c	n/a
58.1355	0.135	116271	keystroke_o	o	n/a
58.2255	0.135	116451	keystroke_n	n	n/a
58.4805	0.104	116961	keystroke_s	s	n/a
58.5995	0.075	117199	keystroke_i	i	n/a
58.72	0.0895	117440	keystroke_d	d	n/a
58.8695	0.1355	117739	keystroke_r	r	n/a
59.0355	0.0595	118071	keystroke_e	e	n/a
59.68	0.09	119360	keystroke_Key.backspace	Key.backspace	n/a
59.8755	0.0895	119751	keystroke_s	s	n/a
60.205	0.06	120410	keystroke_Key.backspace	Key.backspace	n/a
60.37	0.075	120740	keystroke_Key.backspace	Key.backspace	n/a
60.505	0.09	121010	keystroke_e	e	n/a
60.565	0.1205	121130	keystroke_r	r	n/a
61.06	0.1195	122120	keystroke_s	s	n/a
61.405	0.0595	122810	keystroke_Key.space	Key.space	n/a
61.9	0.09	123800	keystroke_d	d	n/a
62.0945	0.045	124189	keystroke_e	e	n/a
62.3655	0.059	124731	keystroke_v	v	n/a
62.4705	0.12	124941	keystroke_o	o	n/a
62.635	0.09	125270	keystroke_t	t	n/a
62.785	0.0745	125570	keystroke_e	e	n/a
62.9655	0.0745	125931	keystroke_d	d	n/a
63.085	0.0595	126170	keystroke_Key.space	Key.space	n/a
63.34	0.09	126680	keystroke_r	r	n/a
63.445	0.0745	126890	keystroke_e	e	n/a
63.6705	0.0895	127341	keystroke_m	m	n/a
63.79	0.12	127580	keystroke_a	a	n/a
63.88	0.1055	127760	keystroke_r	r	n/a
64.165	0.0155	128330	keystroke_k	k	n/a
64.2245	0.0605	128449	keystroke_Key.space	Key.space	n/a
64.495	0.06	128990	keystroke_b	b	n/a
64.6145	0.1205	129229	keystroke_a	a	n/a
64.87	0.09	129740	keystroke_r	r	n/a
65.2005	0.0445	130401	keystroke_b	b	n/a
65.305	0.0905	130610	keystroke_a	a	n/a
65.4555	0.075	130911	keystroke_r	r	n/a
65.5745	0.1055	131149	keystroke_a	a	n/a
65.7855	0.1045	131571	keystroke_Key.enter	Key.enter	n/a
65.902	6.07	131804	prompt	n/a	metal connectivity detector out\n
66.7	0.1045	133400	keystroke_m	m	n/a
66.79	0.075	133580	keystroke_e	e	n/a
66.8795	0.091	133759	keystroke_t	t	n/a
67.0155	0.119	134031	keystroke_a	a	n/a
67.1205	0.1045	134241	keystroke_l	l	n/a
67.27	0.045	134540	keystroke_Key.space	Key.space	n/a
67.4505	0.0745	134901	keystroke_c	c	n/a
67.4955	0.12	134991	keystroke_o	o	n/a
67.5855	0.12	135171	keystroke_n	n	n/a
67.8105	0.089	135621	keystroke_n	n	n/a
67.9295	0.076	135859	keystroke_e	e	n/a
68.1255	0.06	136251	keystroke_c	c	n/a
68.3055	0.059	136611	keystroke_t	t	n/a
68.605	0.0595	137210	keystroke_i	i	n/a
68.995	0.075	137990	keystroke_v	v	n/a
69.13	0.06	138260	keystroke_i	i	n/a
69.2355	0.0895	138471	keystroke_t	t	n/a
69.34	0.09	138680	keystroke_y	y	n/a
69.565	0.045	139130	keystroke_Key.space	Key.space	n/a
69.7605	0.0745	139521	keystroke_d	d	n/a
69.94	0.06	139880	keystroke_e	e	n/a
70.1205	0.075	140241	keystroke_t	t	n/a
70.42	0.0455	140840	keystroke_e	e	n/a
70.63	0.0595	141260	keystroke_c	c	n/a
70.8545	0.09	141709	keystroke_t	t	n/a
71.0205	0.105	142041	keystroke_o	o	n/a
71.1105	0.0895	142221	keystroke_r	r	n/a
71.26	0.0745	142520	keystroke_Key.space	Key.space	n/a
71.441	0.0885	142882	keystroke_o	o	n/a
71.531	0.1185	143062	keystroke_u	u	n/a
71.6495	0.0905	143299	keystroke_t	t	n/a
71.8595	0.105	143719	keystroke_Key.enter	Key.enter	n/a
71.9895	7.8975	143979	prompt	n/a	accessed licensed replied wireless\n
72.6695	0.106	145339	keystroke_a	a	n/a
72.9255	0.0595	145851	keystroke_c	c	n/a
73.0905	0.06	146181	keystroke_c	c	n/a
73.269	0.091	146538	keystroke_e	e	n/a
73.6005	0.0445	147201	keystroke_s	s	n/a
73.735	0.075	147470	keystroke_s	s	n/a
74.1995	0.061	148399	keystroke_e	e	n/a
74.335	0.0905	148670	keystroke_d	d	n/a
74.4545	0.075	148909	keystroke_Key.space	Key.space	n/a
74.7255	0.075	149451	keystroke_l	l	n/a
74.8605	0.075	149721	keystroke_i	i	n/a
75.1005	0.09	150201	keystroke_c	c	n/a
75.3545	0.075	150709	keystroke_e	e	n/a
75.475	0.0895	150950	keystroke_n	n	n/a
75.7445	0.076	151489	keystroke_s	s	n/a
75.8645	0.091	151729	keystroke_e	e	n/a
76.15	0.0755	152300	keystroke_d	d	n/a
76.2855	0.06	152571	keystroke_Key.space	Key.space	n/a
76.6305	0.105	153261	keystroke_r	r	n/a
76.7205	0.06	153441	keystroke_e	e	n/a
76.8855	0.075	153771	keystroke_p	p	n/a
77.0805	0.074	154161	keystroke_l	l	n/a
77.2005	0.1035	154401	keystroke_i	i	n/a
77.305	0.074	154610	keystroke_e	e	n/a
77.469	0.0905	154938	keystroke_d	d	n/a
77.5895	0.091	155179	keystroke_Key.space	Key.space	n/a
77.8155	0.075	155631	keystroke_w	w	n/a
78.2645	0.076	156529	keystroke_i	i	n/a
78.4305	0.0745	156861	keystroke_r	r	n/a
78.565	0.09	157130	keystroke_e	e	n/a
78.835	0.12	157670	keystroke_l	l	n/a
78.97	0.06	157940	keystroke_e	e	n/a
79.12	0.075	158240	keystroke_s	s	n/a
79.3	0.075	158600	keystroke_s	s	n/a
79.8095	0.075	159619	keystroke_Key.enter	Key.enter	n/a
79.8945	8.467	159789	prompt	n/a	creative copyright essays analyzes\n
80.5745	0.075	161149	keystroke_c	c	n/a
80.7555	0.0595	161511	keystroke_r	r	n/a
80.8295	0.0905	161659	keystroke_e	e	n/a
80.9345	0.1205	161869	keystroke_a	a	n/a
81.025	0.12	162050	keystroke_t	t	n/a
81.2805	0.0895	162561	keystroke_i	i	n/a
81.401	0.0745	162802	keystroke_v	v	n/a
81.5205	0.0895	163041	keystroke_e	e	n/a
81.625	0.075	163250	keystroke_Key.space	Key.space	n/a
81.7895	0.106	163579	keystroke_c	c	n/a
81.9105	0.09	163821	keystroke_o	o	n/a
82.0595	0.091	164119	keystroke_p	p	n/a
82.165	0.105	164330	keystroke_y	y	n/a
82.554	0.076	165108	keystroke_r	r	n/a
82.675	0.0755	165350	keystroke_i	i	n/a
82.7655	0.0585	165531	keystroke_g	g	n/a
82.84	0.105	165680	keystroke_h	h	n/a
82.93	0.0755	165860	keystroke_t	t	n/a
83.0495	0.0605	166099	keystroke_Key.space	Key.space	n/a
83.3055	0.074	166611	keystroke_e	e	n/a
83.559	0.106	167118	keystroke_a	a	n/a
83.965	0.075	167930	keystroke_Key.backspace	Key.backspace	n/a
84.1605	0.0435	168321	keystroke_s	s	n/a
84.295	0.075	168590	keystroke_s	s	n/a
84.415	0.1055	168830	keystroke_a	a	n/a
84.58	0.091	169160	keystroke_y	y	n/a
84.8355	0.0895	169671	keystroke_s	s	n/a
84.97	0.075	169940	keystroke_Key.space	Key.space	n/a
85.3005	0.1045	170601	keystroke_a	a	n/a
85.42	0.09	170840	keystroke_n	n	n/a
85.57	0.12	171140	keystroke_a	a	n/a
85.87	0.091	171740	keystroke_l	l	n/a
86.08	0.09	172160	keystroke_y	y	n/a
87.4	0.075	174800	keystroke_z	z	n/a
87.6105	0.06	175221	keystroke_e	e	n/a
88.0295	0.091	176059	keystroke_s	s	n/a
88.2845	0.075	176569	keystroke_Key.enter	Key.enter	n/a
88.367	6.4145	176734	prompt	n/a	ebooks betty marie biography\n
89.0945	0.091	178189	keystroke_e	e	n/a
89.3795	0.0905	178759	keystroke_b	b	n/a
89.5	0.06	179000	keystroke_o	o	n/a
89.6345	0.091	179269	keystroke_o	o	n/a
89.95	0.0745	179900	keystroke_k	k	n/a
90.1595	0.091	180319	keystroke_s	s	n/a
90.31	0.0895	180620	keystroke_Key.space	Key.space	n/a
90.58	0.0755	181160	keystroke_b	b	n/a
90.7445	0.061	181489	keystroke_e	e	n/a
90.8955	0.06	181791	keystroke_t	t	n/a
91.045	0.06	182090	keystroke_t	t	n/a
91.21	0.09	182420	keystroke_y	y	n/a
91.375	0.06	182750	keystroke_Key.space	Key.space	n/a
91.66	0.0895	183320	keystroke_m	m	n/a
91.7505	0.119	183501	keystroke_a	a	n/a
91.8395	0.106	183679	keystroke_r	r	n/a
92.08	0.0895	184160	keystroke_i	i	n/a
92.2155	0.075	184431	keystroke_e	e	n/a
92.4545	0.045	184909	keystroke_Key.space	Key.space	n/a
92.7405	0.074	185481	keystroke_b	b	n/a
92.8605	0.075	185721	keystroke_i	i	n/a
93.1755	0.09	186351	keystroke_o	o	n/a
93.5495	0.061	187099	keystroke_g	g	n/a
93.7	0.075	187400	keystroke_r	r	n/a
93.8505	0.1045	187701	keystroke_a	a	n/a
94.105	0.0595	188210	keystroke_p	p	n/a
94.2095	0.0905	188419	keystroke_h	h	n/a
94.42	0.0595	188840	keystroke_y	y	n/a
94.69	0.09	189380	keystroke_Key.enter	Key.enter	n/a
94.7875	5.787	189575	prompt	n/a	stones undertake sound writings\n
95.515	0.09	191030	keystroke_s	s	n/a
95.6655	0.075	191331	keystroke_t	t	n/a
95.7705	0.1345	191541	keystroke_o	o	n/a
95.8595	0.1655	191719	keystroke_n	n	n/a
95.98	0.075	191960	keystroke_e	e	n/a
96.1145	0.106	192229	keystroke_s	s	n/a
96.2645	0.06	192529	keystroke_Key.space	Key.space	n/a
96.4895	0.0755	192979	keystroke_u	u	n/a
96.6695	0.075	193339	keystroke_n	n	n/a
96.925	0.09	193850	keystroke_d	d	n/a
97.121	0.1045	194242	keystroke_e	e	n/a
97.21	0.09	194420	keystroke_r	r	n/a
97.435	0.06	194870	keystroke_t	t	n/a
97.555	0.105	195110	keystroke_a	a	n/a
97.72	0.09	195440	keystroke_k	k	n/a
97.855	0.06	195710	keystroke_e	e	n/a
97.99	0.06	195980	keystroke_Key.space	Key.space	n/a
98.2	0.105	196400	keystroke_s	s	n/a
98.29	0.1345	196580	keystroke_o	o	n/a
98.3805	0.1045	196761	keystroke_u	u	n/a
98.56	0.1205	197120	keystroke_n	n	n/a
98.695	0.105	197390	keystroke_d	d	n/a
98.815	0.0745	197630	keystroke_Key.space	Key.space	n/a
99.1305	0.0895	198261	keystroke_w	w	n/a
99.4455	0.075	198891	keystroke_r	r	n/a
99.565	0.1055	199130	keystroke_i	i	n/a
99.745	0.075	199490	keystroke_t	t	n/a
99.9255	0.165	199851	keystroke_i	i	n/a
100.0145	0.181	200029	keystroke_n	n	n/a
100.1345	0.0905	200269	keystroke_g	g	n/a
100.3005	0.1045	200601	keystroke_s	s	n/a
100.4795	0.09	200959	keystroke_Key.enter	Key.enter	n/a
100.58	5.7965	201160	prompt	n/a	genius dreams argued follows\n
101.2605	0.075	202521	keystroke_g	g	n/a
101.3945	0.075	202789	keystroke_e	e	n/a
101.6055	0.06	203211	keystroke_n	n	n/a
101.9045	0.06	203809	keystroke_i	i	n/a
102.0845	0.09	204169	keystroke_u	u	n/a
102.2495	0.107	204499	keystroke_s	s	n/a
102.4295	0.06	204859	keystroke_Key.space	Key.space	n/a
102.7005	0.09	205401	keystroke_d	d	n/a
102.8505	0.09	205701	keystroke_r	r	n/a
103	0.075	206000	keystroke_e	e	n/a
103.18	0.104	206360	keystroke_a	a	n/a
103.345	0.0905	206690	keystroke_m	m	n/a
103.615	0.014	207230	keystroke_s	s	n/a
103.675	0.06	207350	keystroke_Key.space	Key.space	n/a
103.96	0.0895	207920	keystroke_a	a	n/a
104.1095	0.0755	208219	keystroke_r	r	n/a
104.365	0.075	208730	keystroke_g	g	n/a
104.485	0.091	208970	keystroke_u	u	n/a
104.62	0.06	209240	keystroke_e	e	n/a
104.725	0.121	209450	keystroke_s	s	n/a
104.8745	0.0755	209749	keystroke_Key.space	Key.space	n/a
105.131	0.0745	210262	keystroke_f	f	n/a
105.265	0.09	210530	keystroke_o	o	n/a
105.475	0.06	210950	keystroke_l	l	n/a
105.61	0.075	211220	keystroke_l	l	n/a
105.775	0.09	211550	keystroke_o	o	n/a
105.9095	0.0745	211819	keystroke_w	w	n/a
106.12	0.09	212240	keystroke_s	s	n/a
106.284	0.09	212568	keystroke_Key.enter	Key.enter	n/a
106.381	6.2055	212762	prompt	n/a	cardiff bring charged mails\n
107.23	0.075	214460	keystroke_c	c	n/a
107.3355	0.1345	214671	keystroke_a	a	n/a
107.44	0.1055	214880	keystroke_r	r	n/a
107.755	0.09	215510	keystroke_d	d	n/a
108.131	0.074	216262	keystroke_i	i	n/a
108.3855	0.0755	216771	keystroke_f	f	n/a
108.5505	0.0745	217101	keystroke_f	f	n/a
108.7895	0.045	217579	keystroke_Key.space	Key.space	n/a
108.9845	0.076	217969	keystroke_b	b	n/a
109.1795	0.061	218359	keystroke_r	r	n/a
109.3005	0.0895	218601	keystroke_i	i	n/a
109.4495	0.1205	218899	keystroke_n	n	n/a
109.615	0.1045	219230	keystroke_g	g	n/a
109.7345	0.09	219469	keystroke_Key.space	Key.space	n/a
110.3345	0.09	220669	keystroke_c	c	n/a
110.4545	0.075	220909	keystroke_h	h	n/a
110.545	0.1195	221090	keystroke_a	a	n/a
110.68	0.1045	221360	keystroke_n	n	n/a
110.7545	0.09	221509	keystroke_g	g	n/a
110.8745	0.075	221749	keystroke_e	e	n/a
111.2195	0.106	222439	keystroke_d	d	n/a
111.4145	0.0755	222829	keystroke_Key.space	Key.space	n/a
111.7145	0.09	223429	keystroke_m	m	n/a
111.7895	0.105	223579	keystroke_a	a	n/a
112.03	0.075	224060	keystroke_i	i	n/a
112.1795	0.135	224359	keystroke_l	l	n/a
112.3	0.09	224600	keystroke_s	s	n/a
112.5095	0.075	225019	keystroke_Key.enter	Key.enter	n/a
112.5935	5.214	225187	prompt	n/a	precise doing feat optical\n
113.2305	0.105	226461	keystroke_p	p	n/a
113.3495	0.091	226699	keystroke_r	r	n/a
113.47	0.089	226940	keystroke_e	e	n/a
113.875	0.075	227750	keystroke_c	c	n/a
113.98	0.075	227960	keystroke_i	i	n/a
114.1	0.12	228200	keystroke_s	s	n/a
114.205	0.09	228410	keystroke_e	e	n/a
114.43	0.0595	228860	keystroke_Key.space	Key.space	n/a
114.6245	0.12	229249	keystroke_d	d	n/a
114.8045	0.09	229609	keystroke_o	o	n/a
115.0295	0.136	230059	keystroke_i	i	n/a
115.1045	0.196	230209	keystroke_n	n	n/a
115.1955	0.134	230391	keystroke_g	g	n/a
115.315	0.09	230630	keystroke_Key.space	Key.space	n/a
115.51	0.0905	231020	keystroke_f	f	n/a
115.66	0.075	231320	keystroke_e	e	n/a
115.7805	0.1195	231561	keystroke_a	a	n/a
115.975	0.09	231950	keystroke_t	t	n/a
116.155	0.045	232310	keystroke_Key.space	Key.space	n/a
116.335	0.0755	232670	keystroke_o	o	n/a
116.455	0.119	232910	keystroke_p	p	n/a
116.785	0.075	233570	keystroke_t	t	n/a
116.965	0.0745	233930	keystroke_i	i	n/a
117.2055	0.089	234411	keystroke_c	c	n/a
117.3405	0.1045	234681	keystroke_a	a	n/a
117.4605	0.119	234921	keystroke_l	l	n/a
117.715	0.0895	235430	keystroke_Key.enter	Key.enter	n/a
117.812	5.2295	235624	prompt	n/a	randy duty garmin facts\n
118.5255	0.06	237051	keystroke_r	r	n/a
118.9595	0.091	237919	keystroke_a	a	n/a
119.1105	0.089	238221	keystroke_n	n	n/a
119.3495	0.076	238699	keystroke_d	d	n/a
119.485	0.0755	238970	keystroke_y	y	n/a
119.6345	0.06	239269	keystroke_Key.space	Key.space	n/a
119.9505	0.074	239901	keystroke_d	d	n/a
120.0695	0.09	240139	keystroke_u	u	n/a
120.2045	0.091	240409	keystroke_t	t	n/a
120.34	0.0895	240680	keystroke_y	y	n/a
120.4745	0.06	240949	keystroke_Key.space	Key.space	n/a
120.7145	0.075	241429	keystroke_g	g	n/a
120.8495	0.1205	241699	keystroke_a	a	n/a
121.2255	0.075	242451	keystroke_r	r	n/a
121.4795	0.076	242959	keystroke_m	m	n/a
121.645	0.09	243290	keystroke_i	i	n/a
121.75	0.12	243500	keystroke_n	n	n/a
121.8995	0.075	243799	keystroke_Key.space	Key.space	n/a
122.0795	0.075	244159	keystroke_f	f	n/a
122.2295	0.0755	244459	keystroke_a	a	n/a
122.425	0.0595	244850	keystroke_c	c	n/a
122.59	0.0745	245180	keystroke_t	t	n/a
122.8	0.0745	245600	keystroke_s	s	n/a
122.9495	0.09	245899	keystroke_Key.enter	Key.enter	n/a
123.0465	6.55	246093	prompt	n/a	belkin moment mark where've\n
124.0145	0.0605	248029	keystroke_b	b	n/a
124.224	0.076	248448	keystroke_e	e	n/a
124.405	0.1045	248810	keystroke_l	l	n/a
124.72	0.059	249440	keystroke_k	k	n/a
124.885	0.06	249770	keystroke_i	i	n/a
124.9895	0.1205	249979	keystroke_n	n	n/a
125.1395	0.0605	250279	keystroke_Key.space	Key.space	n/a
125.3195	0.0755	250639	keystroke_m	m	n/a
125.47	0.09	250940	keystroke_o	o	n/a
125.665	0.0905	251330	keystroke_m	m	n/a
125.95	0.0745	251900	keystroke_e	e	n/a
126.0705	0.0895	252141	keystroke_n	n	n/a
126.1895	0.0755	252379	keystroke_t	t	n/a
126.34	0.0595	252680	keystroke_Key.space	Key.space	n/a
126.58	0.105	253160	keystroke_m	m	n/a
126.6695	0.12	253339	keystroke_a	a	n/a
126.7445	0.1205	253489	keystroke_r	r	n/a
126.9105	0.089	253821	keystroke_k	k	n/a
127.0595	0.075	254119	keystroke_Key.space	Key.space	n/a
127.39	0.1045	254780	keystroke_w	w	n/a
127.5395	0.0755	255079	keystroke_h	h	n/a
127.795	0.105	255590	keystroke_e	e	n/a
127.8695	0.135	255739	keystroke_r	r	n/a
128.0055	0.075	256011	keystroke_e	e	n/a
128.9655	0.09	257931	keystroke_'	'	n/a
129.235	0.015	258470	keystroke_v	v	n/a
129.2805	0.0745	258561	keystroke_e	e	n/a
129.505	0.089	259010	keystroke_Key.enter	Key.enter	n/a
129.6075	5.5385	259215	prompt	n/a	fate overall cents pierre\n
130.3145	0.06	260629	keystroke_f	f	n/a
130.4205	0.12	260841	keystroke_a	a	n/a
130.555	0.075	261110	keystroke_t	t	n/a
130.69	0.0745	261380	keystroke_e	e	n/a
130.826	0.0585	261652	keystroke_Key.space	Key.space	n/a
131.0045	0.0905	262009	keystroke_o	o	n/a
131.155	0.075	262310	keystroke_v	v	n/a
131.304	0.076	262608	keystroke_e	e	n/a
131.3955	0.0735	262791	keystroke_r	r	n/a
131.5605	0.1195	263121	keystroke_a	a	n/a
131.71	0.0745	263420	keystroke_l	l	n/a
131.86	0.089	263720	keystroke_l	l	n/a
131.9795	0.06	263959	keystroke_Key.space	Key.space	n/a
132.1595	0.1055	264319	keystroke_c	c	n/a
132.37	0.075	264740	keystroke_e	e	n/a
132.505	0.09	265010	keystroke_n	n	n/a
132.6095	0.09	265219	keystroke_t	t	n/a
132.73	0.12	265460	keystroke_s	s	n/a
132.924	0.09	265848	keystroke_Key.space	Key.space	n/a
133.33	0.09	266660	keystroke_p	p	n/a
133.51	0.06	267020	keystroke_i	i	n/a
133.63	0.15	267260	keystroke_e	e	n/a
134.14	0.0895	268280	keystroke_r	r	n/a
134.6205	0.0895	269241	keystroke_r	r	n/a
134.8305	0.0745	269661	keystroke_e	e	n/a
135.0545	0.0905	270109	keystroke_Key.enter	Key.enter	n/a
135.1495	6.687	270299	prompt	n/a	drag lifestyle hardwood reveal\n
135.9995	0.0605	271999	keystroke_d	d	n/a
136.12	0.074	272240	keystroke_r	r	n/a
136.2545	0.1055	272509	keystroke_a	a	n/a
136.464	0.0765	272928	keystroke_g	g	n/a
136.629	0.075	273258	keystroke_Key.space	Key.space	n/a
136.84	0.0755	273680	keystroke_l	l	n/a
136.9605	0.1045	273921	keystroke_i	i	n/a
137.11	0.09	274220	keystroke_f	f	n/a
137.275	0.06	274550	keystroke_e	e	n/a
137.59	0.075	275180	keystroke_s	s	n/a
137.7695	0.0605	275539	keystroke_t	t	n/a
137.89	0.075	275780	keystroke_y	y	n/a
138.16	0.12	276320	keystroke_l	l	n/a
138.295	0.09	276590	keystroke_e	e	n/a
138.4	0.075	276800	keystroke_Key.space	Key.space	n/a
138.73	0.075	277460	keystroke_h	h	n/a
138.851	0.104	277702	keystroke_a	a	n/a
138.925	0.1045	277850	keystroke_r	r	n/a
139.1345	0.09	278269	keystroke_d	d	n/a
139.3595	0.0605	278719	keystroke_w	w	n/a
139.9155	0.044	279831	keystroke_o	o	n/a
140.0045	0.09	280009	keystroke_o	o	n/a
140.1245	0.09	280249	keystroke_d	d	n/a
140.455	0.06	280910	keystroke_Key.space	Key.space	n/a
140.665	0.09	281330	keystroke_r	r	n/a
140.77	0.0605	281540	keystroke_e	e	n/a
141.0255	0.075	282051	keystroke_v	v	n/a
141.205	0.045	282410	keystroke_e	e	n/a
141.325	0.105	282650	keystroke_a	a	n/a
141.46	0.12	282920	keystroke_l	l	n/a
141.745	0.09	283490	keystroke_Key.enter	Key.enter	n/a
141.842	5.816	283684	prompt	n/a	mounted sunshine sector earn\n
142.5105	0.074	285021	keystroke_m	m	n/a
142.6745	0.075	285349	keystroke_o	o	n/a
142.8705	0.0595	285741	keystroke_u	u	n/a
143.0505	0.0895	286101	keystroke_n	n	n/a
143.26	0.075	286520	keystroke_t	t	n/a
143.425	0.06	286850	keystroke_e	e	n/a
143.62	0.0755	287240	keystroke_d	d	n/a
143.74	0.075	287480	keystroke_Key.space	Key.space	n/a
143.995	0.135	287990	keystroke_s	s	n/a
144.115	0.0455	288230	keystroke_u	u	n/a
144.265	0.09	288530	keystroke_n	n	n/a
144.595	0.104	289190	keystroke_s	s	n/a
144.714	0.061	289428	keystroke_h	h	n/a
144.82	0.1055	289640	keystroke_i	i	n/a
144.985	0.12	289970	keystroke_n	n	n/a
145.12	0.0905	290240	keystroke_e	e	n/a
145.225	0.076	290450	keystroke_Key.space	Key.space	n/a
145.45	0.105	290900	keystroke_s	s	n/a
145.6	0.0745	291200	keystroke_e	e	n/a
145.8095	0.0905	291619	keystroke_c	c	n/a
146.02	0.0445	292040	keystroke_t	t	n/a
146.0805	0.119	292161	keystroke_o	o	n/a
146.215	0.09	292430	keystroke_r	r	n/a
146.469	0.061	292938	keystroke_Key.space	Key.space	n/a
146.725	0.0745	293450	keystroke_e	e	n/a
146.9495	0.0905	293899	keystroke_a	a	n/a
147.115	0.075	294230	keystroke_r	r	n/a
147.34	0.075	294680	keystroke_n	n	n/a
147.565	0.09	295130	keystroke_Key.enter	Key.enter	n/a
147.69	7.9915	295380	prompt	n/a	globe convention what've revenue\n
148.42	0.075	296840	keystroke_g	g	n/a
148.54	0.075	297080	keystroke_l	l	n/a
148.735	0.06	297470	keystroke_o	o	n/a
148.96	0.0755	297920	keystroke_b	b	n/a
149.1545	0.061	298309	keystroke_e	e	n/a
149.2745	0.045	298549	keystroke_Key.space	Key.space	n/a
149.44	0.0905	298880	keystroke_c	c	n/a
149.545	0.135	299090	keystroke_o	o	n/a
149.62	0.165	299240	keystroke_n	n	n/a
149.965	0.09	299930	keystroke_v	v	n/a
150.25	0.0745	300500	keystroke_e	e	n/a
150.385	0.0905	300770	keystroke_n	n	n/a
150.5945	0.075	301189	keystroke_t	t	n/a
150.7145	0.12	301429	keystroke_i	i	n/a
150.7895	0.1655	301579	keystroke_o	o	n/a
150.91	0.1805	301820	keystroke_n	n	n/a
151.0745	0.06	302149	keystroke_Key.space	Key.space	n/a
151.3145	0.075	302629	keystroke_w	w	n/a
151.4195	0.0905	302839	keystroke_h	h	n/a
151.525	0.135	303050	keystroke_a	a	n/a
151.615	0.105	303230	keystroke_t	t	n/a
151.93	0.12	303860	keystroke_'	'	n/a
152.11	0.0905	304220	keystroke_s	s	n/a
152.455	0.09	304910	keystroke_v	v	n/a
152.83	0.06	305660	keystroke_Key.backspace	Key.backspace	n/a
153.07	0.015	306140	keystroke_Key.backspace	Key.backspace	n/a
153.1	0.075	306200	keystroke_v	v	n/a
153.25	0.09	306500	keystroke_e	e	n/a
153.4	0.075	306800	keystroke_Key.space	Key.space	n/a
153.7	0.09	307400	keystroke_r	r	n/a
153.82	0.09	307640	keystroke_e	e	n/a
154.24	0.09	308480	keystroke_v	v	n/a
154.45	0.045	308900	keystroke_e	e	n/a
154.585	0.0755	309170	keystroke_n	n	n/a
154.7645	0.0755	309529	keystroke_u	u	n/a
155.2595	0.0455	310519	keystroke_e	e	n/a
155.6645	0.015	311329	keystroke_Key.enter	Key.enter	n/a
155.6865	8.6495	311373	prompt	n/a	surfing effectively collect who'd've\n
156.5055	0.104	313011	keystroke_s	s	n/a
156.6545	0.0755	313309	keystroke_u	u	n/a
157.285	0.075	314570	keystroke_r	r	n/a
157.54	0.09	315080	keystroke_f	f	n/a
157.75	0.1505	315500	keystroke_i	i	n/a
157.84	0.18	315680	keystroke_n	n	n/a
157.9295	0.105	315859	keystroke_g	g	n/a
158.0355	0.089	316071	keystroke_Key.space	Key.space	n/a
158.2145	0.09	316429	keystroke_e	e	n/a
158.4395	0.045	316879	keystroke_f	f	n/a
158.5605	0.074	317121	keystroke_f	f	n/a
158.71	0.0755	317420	keystroke_e	e	n/a
158.919	0.061	317838	keystroke_c	c	n/a
159.0845	0.0755	318169	keystroke_t	t	n/a
159.19	0.0895	318380	keystroke_i	i	n/a
159.3095	0.075	318619	keystroke_v	v	n/a
159.4605	0.06	318921	keystroke_e	e	n/a
160.135	0.09	320270	keystroke_l	l	n/a
160.24	0.12	320480	keystroke_y	y	n/a
160.6	0.06	321200	keystroke_Key.space	Key.space	n/a
160.796	0.0895	321592	keystroke_c	c	n/a
160.9145	0.0905	321829	keystroke_o	o	n/a
161.155	0.075	322310	keystroke_l	l	n/a
161.3205	0.06	322641	keystroke_l	l	n/a
161.41	0.06	322820	keystroke_e	e	n/a
161.59	0.075	323180	keystroke_c	c	n/a
161.77	0.045	323540	keystroke_t	t	n/a
161.89	0.045	323780	keystroke_Key.space	Key.space	n/a
162.1	0.075	324200	keystroke_w	w	n/a
162.2205	0.0745	324441	keystroke_h	h	n/a
162.37	0.12	324740	keystroke_o	o	n/a
162.67	0.09	325340	keystroke_'	'	n/a
162.88	0.105	325760	keystroke_d	d	n/a
163.675	0.09	327350	keystroke_'	'	n/a
163.855	0.075	327710	keystroke_v	v	n/a
163.99	0.075	327980	keystroke_e	e	n/a
164.245	0.0895	328490	keystroke_Key.enter	Key.enter	n/a
164.339	6.3325	328678	prompt	n/a	corrections rabbit you lead\n
165.0845	0.075	330169	keystroke_c	c	n/a
165.2055	0.074	330411	keystroke_o	o	n/a
165.3715	0.0585	330743	keystroke_r	r	n/a
165.49	0.09	330980	keystroke_r	r	n/a
165.64	0.075	331280	keystroke_e	e	n/a
165.8495	0.1055	331699	keystroke_c	c	n/a
166.0895	0.0455	332179	keystroke_t	t	n/a
166.15	0.1195	332300	keystroke_i	i	n/a
166.2245	0.166	332449	keystroke_o	o	n/a
166.3145	0.165	332629	keystroke_n	n	n/a
166.45	0.0905	332900	keystroke_s	s	n/a
166.57	0.075	333140	keystroke_Key.space	Key.space	n/a
166.7645	0.0605	333529	keystroke_r	r	n/a
166.885	0.0895	333770	keystroke_a	a	n/a
167.0805	0.0445	334161	keystroke_b	b	n/a
167.23	0.06	334460	keystroke_g	g	n/a
167.349	0.091	334698	keystroke_i	i	n/a
167.92	0.0445	335840	keystroke_Key.backspace	Key.backspace	n/a
168.0695	0.09	336139	keystroke_Key.backspace	Key.backspace	n/a
168.354	0.076	336708	keystroke_b	b	n/a
168.88	0.06	337760	keystroke_i	i	n/a
168.9855	0.0895	337971	keystroke_t	t	n/a
169.299	0.0605	338598	keystroke_Key.space	Key.space	n/a
169.5105	0.0735	339021	keystroke_y	y	n/a
169.644	0.136	339288	keystroke_o	o	n/a
169.72	0.135	339440	keystroke_u	u	n/a
169.87	0.075	339740	keystroke_Key.space	Key.space	n/a
170.05	0.089	340100	keystroke_l	l	n/a
170.11	0.074	340220	keystroke_e	e	n/a
170.245	0.1195	340490	keystroke_a	a	n/a
170.559	0.105	341118	keystroke_Key.enter	Key.enter	n/a
170.6825	7.6185	341365	prompt	n/a	tracker tony certificate clock\n
171.5505	0.0745	343101	keystroke_t	t	n/a
171.7	0.0745	343400	keystroke_r	r	n/a
171.834	0.09	343668	keystroke_a	a	n/a
172.045	0.09	344090	keystroke_c	c	n/a
172.195	0.075	344390	keystroke_k	k	n/a
172.3005	0.0895	344601	keystroke_e	e	n/a
172.405	0.074	344810	keystroke_r	r	n/a
172.51	0.059	345020	keystroke_Key.space	Key.space	n/a
172.659	0.0755	345318	keystroke_t	t	n/a
172.749	0.136	345498	keystroke_o	o	n/a
173.4545	0.09	346909	keystroke_n	n	n/a
173.665	0.06	347330	keystroke_y	y	n/a
173.7995	0.06	347599	keystroke_Key.space	Key.space	n/a
174.0695	0.0605	348139	keystroke_c	c	n/a
175.2695	0.105	350539	keystroke_e	e	n/a
175.3595	0.105	350719	keystroke_r	r	n/a
176.1245	0.03	352249	keystroke_t	t	n/a
176.2145	0.075	352429	keystroke_i	i	n/a
176.455	0.0755	352910	keystroke_f	f	n/a
176.5445	0.0905	353089	keystroke_i	i	n/a
176.649	0.1055	353298	keystroke_c	c	n/a
176.7845	0.1205	353569	keystroke_a	a	n/a
176.86	0.12	353720	keystroke_t	t	n/a
177.0395	0.06	354079	keystroke_e	e	n/a
177.1295	0.075	354259	keystroke_Key.space	Key.space	n/a
177.3245	0.09	354649	keystroke_c	c	n/a
177.4445	0.09	354889	keystroke_l	l	n/a
177.6395	0.06	355279	keystroke_o	o	n/a
177.88	0.105	355760	keystroke_c	c	n/a
178	0.105	356000	keystroke_k	k	n/a
178.224	0.076	356448	keystroke_Key.enter	Key.enter	n/a
178.307	8.1545	356614	prompt	n/a	recovered different coleman instructional\n
179.0495	0.105	358099	keystroke_r	r	n/a
179.17	0.0895	358340	keystroke_e	e	n/a
179.4245	0.0905	358849	keystroke_c	c	n/a
179.5155	0.089	359031	keystroke_o	o	n/a
179.6345	0.0755	359269	keystroke_v	v	n/a
179.7695	0.1045	359539	keystroke_e	e	n/a
179.8595	0.1045	359719	keystroke_r	r	n/a
180.039	0.0755	360078	keystroke_e	e	n/a
180.235	0.074	360470	keystroke_d	d	n/a
180.3695	0.06	360739	keystroke_Key.space	Key.space	n/a
180.5505	0.104	361101	keystroke_d	d	n/a
180.6845	0.075	361369	keystroke_i	i	n/a
180.7745	0.06	361549	keystroke_f	f	n/a
180.9995	0.015	361999	keystroke_f	f	n/a
181.0895	0.105	362179	keystroke_e	e	n/a
181.24	0.06	362480	keystroke_r	r	n/a
182.0345	0.045	364069	keystroke_e	e	n/a
182.1245	0.09	364249	keystroke_n	n	n/a
182.23	0.0755	364460	keystroke_t	t	n/a
182.335	0.0745	364670	keystroke_Key.space	Key.space	n/a
182.6505	0.074	365301	keystroke_o	o	n/a
182.815	0.105	365630	keystroke_l	l	n/a
182.9345	0.075	365869	keystroke_e	e	n/a
183.145	0.0745	366290	keystroke_m	m	n/a
183.2945	0.1355	366589	keystroke_a	a	n/a
183.3245	0.15	366649	keystroke_n	n	n/a
184.42	0.0595	368840	keystroke_Key.space	Key.space	n/a
184.6595	0.075	369319	keystroke_i	i	n/a
184.765	0.1195	369530	keystroke_n	n	n/a
184.9445	0.0905	369889	keystroke_s	s	n/a
185.0495	0.075	370099	keystroke_t	t	n/a
185.23	0.06	370460	keystroke_r	r	n/a
185.32	0.1045	370640	keystroke_u	u	n/a
185.4545	0.0755	370909	keystroke_c	c	n/a
185.59	0.0895	371180	keystroke_t	t	n/a
185.665	0.12	371330	keystroke_i	i	n/a
185.7395	0.15	371479	keystroke_o	o	n/a
185.83	0.165	371660	keystroke_n	n	n/a
185.98	0.12	371960	keystroke_a	a	n/a
186.1145	0.1205	372229	keystroke_l	l	n/a
186.3845	0.0755	372769	keystroke_Key.enter	Key.enter	n/a
186.4715	10.327	372943	prompt	n/a	heath prescribed serbia violations\n
187.18	0.0745	374360	keystroke_h	h	n/a
187.2695	0.075	374539	keystroke_e	e	n/a
187.375	0.1195	374750	keystroke_a	a	n/a
188.2145	0.09	376429	keystroke_t	t	n/a
188.29	0.09	376580	keystroke_h	h	n/a
188.4095	0.075	376819	keystroke_Key.space	Key.space	n/a
188.8	0.1195	377600	keystroke_p	p	n/a
188.9505	0.1045	377901	keystroke_r	r	n/a
189.2795	0.0755	378559	keystroke_e	e	n/a
189.7295	0.0905	379459	keystroke_s	s	n/a
190.0005	0.0895	380001	keystroke_c	c	n/a
190.39	0.0745	380780	keystroke_r	r	n/a
190.4945	0.09	380989	keystroke_i	i	n/a
190.705	0.075	381410	keystroke_b	b	n/a
190.885	0.075	381770	keystroke_e	e	n/a
191.064	0.076	382128	keystroke_d	d	n/a
191.169	0.0905	382338	keystroke_Key.space	Key.space	n/a
191.38	0.1045	382760	keystroke_s	s	n/a
191.5455	0.09	383091	keystroke_e	e	n/a
191.6365	0.089	383273	keystroke_r	r	n/a
191.905	0.045	383810	keystroke_b	b	n/a
192.025	0.075	384050	keystroke_i	i	n/a
192.175	0.1045	384350	keystroke_a	a	n/a
192.3695	0.0755	384739	keystroke_Key.space	Key.space	n/a
192.8205	0.03	385641	keystroke_b	b	n/a
192.8945	0.075	385789	keystroke_i	i	n/a
193.075	0.105	386150	keystroke_o	o	n/a
193.45	0.06	386900	keystroke_Key.backspace	Key.backspace	n/a
193.615	0.06	387230	keystroke_Key.backspace	Key.backspace	n/a
193.75	0.075	387500	keystroke_Key.backspace	Key.backspace	n/a
194.86	0.075	389720	keystroke_v	v	n/a
195.49	0.075	390980	keystroke_i	i	n/a
195.655	0.09	391310	keystroke_o	o	n/a
195.896	0.104	391792	keystroke_l	l	n/a
196.015	0.12	392030	keystroke_a	a	n/a
196.105	0.09	392210	keystroke_t	t	n/a
196.18	0.15	392360	keystroke_i	i	n/a
196.27	0.15	392540	keystroke_o	o	n/a
196.375	0.165	392750	keystroke_n	n	n/a
196.525	0.105	393050	keystroke_s	s	n/a
196.7045	0.09	393409	keystroke_Key.enter	Key.enter	n/a
196.803	5.7385	393606	prompt	n/a	slovak county talking pond\n
197.53	0.0905	395060	keystroke_s	s	n/a
197.7255	0.1045	395451	keystroke_l	l	n/a
197.965	0.0895	395930	keystroke_o	o	n/a
198.339	0.0755	396678	keystroke_v	v	n/a
198.5045	0.12	397009	keystroke_a	a	n/a
198.9695	0.076	397939	keystroke_k	k	n/a
199.2545	0.0755	398509	keystroke_Key.space	Key.space	n/a
199.5095	0.105	399019	keystroke_c	c	n/a
199.5845	0.1655	399169	keystroke_o	o	n/a
199.69	0.105	399380	keystroke_u	u	n/a
199.87	0.1205	399740	keystroke_n	n	n/a
200.02	0.0895	400040	keystroke_t	t	n/a
200.1845	0.09	400369	keystroke_y	y	n/a
200.3045	0.075	400609	keystroke_Key.space	Key.space	n/a
200.6945	0.06	401389	keystroke_t	t	n/a
200.815	0.1045	401630	keystroke_a	a	n/a
200.9495	0.1055	401899	keystroke_l	l	n/a
201.1445	0.046	402289	keystroke_k	k	n/a
201.2945	0.135	402589	keystroke_i	i	n/a
201.3845	0.1355	402769	keystroke_n	n	n/a
201.4745	0.105	402949	keystroke_g	g	n/a
201.5645	0.075	403129	keystroke_Key.space	Key.space	n/a
201.7155	0.09	403431	keystroke_p	p	n/a
201.9105	0.074	403821	keystroke_o	o	n/a
202.135	0.0895	404270	keystroke_n	n	n/a
202.285	0.105	404570	keystroke_d	d	n/a
202.449	0.09	404898	keystroke_Key.enter	Key.enter	n/a
202.546	5.8455	405092	prompt	n/a	generators gods delta angela\n
203.2605	0.0595	406521	keystroke_g	g	n/a
203.395	0.075	406790	keystroke_e	e	n/a
203.5305	0.0745	407061	keystroke_n	n	n/a
203.6345	0.09	407269	keystroke_e	e	n/a
203.7545	0.0915	407509	keystroke_r	r	n/a
203.8895	0.165	407779	keystroke_a	a	n/a
204.0395	0.09	408079	keystroke_t	t	n/a
204.1755	0.089	408351	keystroke_o	o	n/a
204.3245	0.075	408649	keystroke_r	r	n/a
204.5645	0.09	409129	keystroke_s	s	n/a
204.714	0.076	409428	keystroke_Key.space	Key.space	n/a
204.925	0.075	409850	keystroke_g	g	n/a
205.03	0.09	410060	keystroke_o	o	n/a
205.15	0.105	410300	keystroke_d	d	n/a
205.315	0.105	410630	keystroke_s	s	n/a
205.48	0.074	410960	keystroke_Key.space	Key.space	n/a
205.75	0.075	411500	keystroke_d	d	n/a
205.99	0.06	411980	keystroke_e	e	n/a
206.635	0.075	413270	keystroke_l	l	n/a
206.8155	0.0745	413631	keystroke_t	t	n/a
206.935	0.1195	413870	keystroke_a	a	n/a
207.19	0.0445	414380	keystroke_Key.space	Key.space	n/a
207.4	0.1045	414800	keystroke_a	a	n/a
207.5505	0.09	415101	keystroke_n	n	n/a
207.7455	0.059	415491	keystroke_g	g	n/a
207.88	0.06	415760	keystroke_e	e	n/a
208.0295	0.0905	416059	keystroke_l	l	n/a
208.15	0.12	416300	keystroke_a	a	n/a
208.2995	0.09	416599	keystroke_Key.enter	Key.enter	n/a
208.417	5.3445	416834	prompt	n/a	colon grace weekends island\n
209.11	0.09	418220	keystroke_c	c	n/a
209.214	0.091	418428	keystroke_o	o	n/a
209.38	0.0745	418760	keystroke_l	l	n/a
209.5755	0.06	419151	keystroke_o	o	n/a
209.7555	0.059	419511	keystroke_n	n	n/a
209.89	0.0605	419780	keystroke_Key.space	Key.space	n/a
210.1755	0.0445	420351	keystroke_g	g	n/a
210.28	0.075	420560	keystroke_r	r	n/a
210.43	0.09	420860	keystroke_a	a	n/a
210.609	0.091	421218	keystroke_c	c	n/a
210.804	0.061	421608	keystroke_e	e	n/a
210.91	0.0745	421820	keystroke_Key.space	Key.space	n/a
211.0745	0.09	422149	keystroke_w	w	n/a
211.2395	0.0755	422479	keystroke_e	e	n/a
211.405	0.075	422810	keystroke_e	e	n/a
211.5395	0.0905	423079	keystroke_k	k	n/a
211.6605	0.0735	423321	keystroke_e	e	n/a
211.75	0.105	423500	keystroke_n	n	n/a
211.87	0.089	423740	keystroke_d	d	n/a
212.019	0.09	424038	keystroke_s	s	n/a
212.454	0.0605	424908	keystroke_Key.space	Key.space	n/a
212.725	0.06	425450	keystroke_i	i	n/a
212.875	0.09	425750	keystroke_s	s	n/a
213.145	0.09	426290	keystroke_l	l	n/a
213.25	0.105	426500	keystroke_a	a	n/a
213.3695	0.1355	426739	keystroke_n	n	n/a
213.46	0.09	426920	keystroke_d	d	n/a
213.6845	0.0745	427369	keystroke_Key.enter	Key.enter	n/a
213.766	7.8405	427532	prompt	n/a	restrict predictions schools excerpt\n
214.48	0.0745	428960	keystroke_r	r	n/a
214.5555	0.089	429111	keystroke_e	e	n/a
214.8395	0.091	429679	keystroke_s	s	n/a
215.0645	0.06	430129	keystroke_t	t	n/a
215.215	0.0745	430430	keystroke_r	r	n/a
215.3345	0.09	430669	keystroke_i	i	n/a
215.4395	0.105	430879	keystroke_c	c	n/a
215.7855	0.0745	431571	keystroke_t	t	n/a
215.951	0.059	431902	keystroke_Key.space	Key.space	n/a
216.2945	0.091	432589	keystroke_p	p	n/a
216.3995	0.1045	432799	keystroke_r	r	n/a
216.489	0.0765	432978	keystroke_e	e	n/a
216.9255	0.045	433851	keystroke_d	d	n/a
216.985	0.075	433970	keystroke_i	i	n/a
217.1495	0.076	434299	keystroke_c	c	n/a
217.33	0.075	434660	keystroke_t	t	n/a
217.39	0.135	434780	keystroke_i	i	n/a
217.495	0.165	434990	keystroke_o	o	n/a
217.5855	0.1945	435171	keystroke_n	n	n/a
217.7345	0.091	435469	keystroke_s	s	n/a
217.885	0.06	435770	keystroke_Key.space	Key.space	n/a
218.11	0.09	436220	keystroke_s	s	n/a
218.32	0.09	436640	keystroke_c	c	n/a
218.47	0.075	436940	keystroke_h	h	n/a
218.86	0.0595	437720	keystroke_o	o	n/a
219.01	0.074	438020	keystroke_o	o	n/a
219.1895	0.1055	438379	keystroke_l	l	n/a
219.34	0.09	438680	keystroke_s	s	n/a
219.504	0.061	439008	keystroke_Key.space	Key.space	n/a
219.79	0.074	439580	keystroke_e	e	n/a
220.014	0.1205	440028	keystroke_x	x	n/a
220.5545	0.105	441109	keystroke_c	c	n/a
220.84	0.09	441680	keystroke_e	e	n/a
220.915	0.1055	441830	keystroke_r	r	n/a
221.155	0.1055	442310	keystroke_p	p	n/a
221.3495	0.045	442699	keystroke_t	t	n/a
221.5295	0.075	443059	keystroke_Key.enter	Key.enter	n/a
221.6135	6.024	443227	prompt	n/a	unsigned http greenhouse sort\n
222.3105	0.0445	444621	keystroke_u	u	n/a
222.535	0.075	445070	keystroke_n	n	n/a
222.9855	0.089	445971	keystroke_s	s	n/a
223.1655	0.075	446331	keystroke_i	i	n/a
223.2845	0.09	446569	keystroke_g	g	n/a
223.3895	0.106	446779	keystroke_n	n	n/a
223.5845	0.0605	447169	keystroke_e	e	n/a
223.7345	0.0905	447469	keystroke_d	d	n/a
223.855	0.09	447710	keystroke_Key.space	Key.space	n/a
224.2605	0.0745	448521	keystroke_h	h	n/a
224.5	0.0445	449000	keystroke_t	t	n/a
224.62	0.0745	449240	keystroke_t	t	n/a
224.7405	0.089	449481	keystroke_p	p	n/a
224.89	0.0745	449780	keystroke_Key.space	Key.space	n/a
225.28	0.0305	450560	keystroke_g	g	n/a
225.43	0.09	450860	keystroke_r	r	n/a
225.6255	0.0595	451251	keystroke_e	e	n/a
225.7895	0.075	451579	keystroke_e	e	n/a
225.9095	0.105	451819	keystroke_n	n	n/a
226.21	0.0595	452420	keystroke_h	h	n/a
226.3295	0.15	452659	keystroke_o	o	n/a
226.4345	0.1205	452869	keystroke_u	u	n/a
226.57	0.119	453140	keystroke_s	s	n/a
226.66	0.12	453320	keystroke_e	e	n/a
226.825	0.075	453650	keystroke_Key.space	Key.space	n/a
227.005	0.0895	454010	keystroke_s	s	n/a
227.1095	0.1205	454219	keystroke_o	o	n/a
227.215	0.074	454430	keystroke_r	r	n/a
227.38	0.074	454760	keystroke_t	t	n/a
227.529	0.105	455058	keystroke_Key.enter	Key.enter	n/a
227.647	7.3695	455294	prompt	n/a	simulations zdnet money signal\n
228.3995	0.105	456799	keystroke_s	s	n/a
228.4895	0.105	456979	keystroke_i	i	n/a
228.625	0.1195	457250	keystroke_m	m	n/a
229.5095	0.075	459019	keystroke_u	u	n/a
229.7945	0.1055	459589	keystroke_l	l	n/a
229.9145	0.121	459829	keystroke_a	a	n/a
230.0805	0.074	460161	keystroke_t	t	n/a
230.1405	0.1345	460281	keystroke_i	i	n/a
230.23	0.1655	460460	keystroke_o	o	n/a
230.35	0.1645	460700	keystroke_n	n	n/a
230.4845	0.09	460969	keystroke_s	s	n/a
230.605	0.0895	461210	keystroke_Key.space	Key.space	n/a
231.07	0.0745	462140	keystroke_z	z	n/a
231.31	0.09	462620	keystroke_d	d	n/a
231.5645	0.061	463129	keystroke_e	e	n/a
231.9845	0.045	463969	keystroke_Key.backspace	Key.backspace	n/a
232.1505	0.104	464301	keystroke_n	n	n/a
232.27	0.0745	464540	keystroke_e	e	n/a
232.3895	0.0905	464779	keystroke_t	t	n/a
232.5695	0.0605	465139	keystroke_Key.space	Key.space	n/a
232.795	0.09	465590	keystroke_m	m	n/a
232.9305	0.134	465861	keystroke_o	o	n/a
233.0195	0.1655	466039	keystroke_n	n	n/a
233.2155	0.119	466431	keystroke_d	d	n/a
233.3495	0.09	466699	keystroke_y	y	n/a
233.4995	0.075	466999	keystroke_Key.space	Key.space	n/a
233.755	0.09	467510	keystroke_s	s	n/a
233.8895	0.0755	467779	keystroke_i	i	n/a
234.01	0.0745	468020	keystroke_g	g	n/a
234.1	0.0895	468200	keystroke_n	n	n/a
234.295	0.135	468590	keystroke_a	a	n/a
234.6405	0.1045	469281	keystroke_l	l	n/a
234.94	0.075	469880	keystroke_Key.enter	Key.enter	n/a
235.024	11.5875	470048	prompt	n/a	unauthorized developer delivering conspiracy\n
236.064	0.0455	472128	keystroke_u	u	n/a
236.2305	0.0745	472461	keystroke_n	n	n/a
237.1745	0.1355	474349	keystroke_a	a	n/a
237.655	0.09	475310	keystroke_u	u	n/a
237.895	0.1045	475790	keystroke_t	t	n/a
238.0145	0.075	476029	keystroke_h	h	n/a
238.21	0.105	476420	keystroke_o	o	n/a
238.51	0.074	477020	keystroke_r	r	n/a
238.63	0.074	477260	keystroke_i	i	n/a
238.78	0.09	477560	keystroke_z	z	n/a
238.959	0.061	477918	keystroke_e	e	n/a
239.1245	0.0895	478249	keystroke_d	d	n/a
239.229	0.0905	478458	keystroke_Key.space	Key.space	n/a
240.1745	0.0605	480349	keystroke_d	d	n/a
240.37	0.075	480740	keystroke_e	e	n/a
240.64	0.075	481280	keystroke_v	v	n/a
240.865	0.06	481730	keystroke_e	e	n/a
241.045	0.075	482090	keystroke_l	l	n/a
241.21	0.0895	482420	keystroke_o	o	n/a
241.405	0.09	482810	keystroke_p	p	n/a
241.795	0.09	483590	keystroke_e	e	n/a
241.9	0.105	483800	keystroke_r	r	n/a
242.139	0.061	484278	keystroke_Key.space	Key.space	n/a
242.35	0.0755	484700	keystroke_d	d	n/a
242.5445	0.06	485089	keystroke_e	e	n/a
242.6645	0.105	485329	keystroke_l	l	n/a
242.8455	0.075	485691	keystroke_i	i	n/a
242.935	0.075	485870	keystroke_v	v	n/a
243.085	0.105	486170	keystroke_e	e	n/a
243.174	0.106	486348	keystroke_r	r	n/a
243.415	0.135	486830	keystroke_i	i	n/a
243.49	0.179	486980	keystroke_n	n	n/a
243.5955	0.1185	487191	keystroke_g	g	n/a
243.7	0.09	487400	keystroke_Key.space	Key.space	n/a
243.999	0.1055	487998	keystroke_c	c	n/a
244.12	0.1495	488240	keystroke_o	o	n/a
244.2245	0.1655	488449	keystroke_n	n	n/a
244.5845	0.106	489169	keystroke_s	s	n/a
244.93	0.089	489860	keystroke_p	p	n/a
245.2605	0.075	490521	keystroke_i	i	n/a
245.769	0.061	491538	keystroke_r	r	n/a
245.905	0.105	491810	keystroke_a	a	n/a
246.1145	0.0905	492229	keystroke_c	c	n/a
246.249	0.091	492498	keystroke_y	y	n/a
246.534	0.075	493068	keystroke_Key.enter	Key.enter	n/a
246.616	8.3955	493232	prompt	n/a	final conferences benjamin responsibilities\n
247.3	0.075	494600	keystroke_f	f	n/a
247.3905	0.12	494781	keystroke_i	i	n/a
247.495	0.135	494990	keystroke_n	n	n/a
247.645	0.1205	495290	keystroke_a	a	n/a
247.78	0.135	495560	keystroke_l	l	n/a
247.93	0.06	495860	keystroke_Key.space	Key.space	n/a
248.095	0.09	496190	keystroke_c	c	n/a
248.17	0.1505	496340	keystroke_o	o	n/a
248.2605	0.1645	496521	keystroke_n	n	n/a
248.5	0.0745	497000	keystroke_f	f	n/a
248.6655	0.089	497331	keystroke_e	e	n/a
248.74	0.135	497480	keystroke_r	r	n/a
248.89	0.06	497780	keystroke_e	e	n/a
249.01	0.105	498020	keystroke_n	n	n/a
249.16	0.09	498320	keystroke_c	c	n/a
249.3555	0.06	498711	keystroke_e	e	n/a
249.505	0.09	499010	keystroke_s	s	n/a
249.639	0.061	499278	keystroke_Key.space	Key.space	n/a
249.91	0.0745	499820	keystroke_b	b	n/a
250.0905	0.074	500181	keystroke_e	e	n/a
250.51	0.0905	501020	keystroke_n	n	n/a
250.825	0.09	501650	keystroke_j	j	n/a
250.975	0.12	501950	keystroke_a	a	n/a
251.097	0.088	502194	keystroke_m	m	n/a
251.2595	0.1505	502519	keystroke_i	i	n/a
251.3495	0.165	502699	keystroke_n	n	n/a
251.545	0.06	503090	keystroke_Key.space	Key.space	n/a
251.725	0.105	503450	keystroke_r	r	n/a
251.845	0.09	503690	keystroke_e	e	n/a
252.1605	0.09	504321	keystroke_s	s	n/a
252.3705	0.0745	504741	keystroke_p	p	n/a
252.535	0.0905	505070	keystroke_o	o	n/a
252.6845	0.0895	505369	keystroke_n	n	n/a
252.984	0.1065	505968	keystroke_s	s	n/a
253.1495	0.075	506299	keystroke_i	i	n/a
253.4795	0.09	506959	keystroke_b	b	n/a
253.615	0.0895	507230	keystroke_i	i	n/a
253.9905	0.0895	507981	keystroke_l	l	n/a
254.124	0.091	508248	keystroke_i	i	n/a
254.26	0.075	508520	keystroke_t	t	n/a
254.53	0.075	509060	keystroke_i	i	n/a
254.65	0.06	509300	keystroke_e	e	n/a
254.755	0.12	509510	keystroke_s	s	n/a
254.905	0.105	509810	keystroke_Key.enter	Key.enter	n/a
255.015	5.6965	510030	prompt	n/a	menus parent passion collective\n
255.85	0.09	511700	keystroke_m	m	n/a
255.969	0.092	511938	keystroke_e	e	n/a
256.105	0.075	512210	keystroke_n	n	n/a
256.3005	0.0595	512601	keystroke_u	u	n/a
256.6595	0.09	513319	keystroke_s	s	n/a
256.8705	0.059	513741	keystroke_Key.space	Key.space	n/a
257.0345	0.105	514069	keystroke_p	p	n/a
257.1555	0.119	514311	keystroke_a	a	n/a
257.3495	0.0905	514699	keystroke_r	r	n/a
257.47	0.09	514940	keystroke_e	e	n/a
257.62	0.1045	515240	keystroke_n	n	n/a
257.739	0.076	515478	keystroke_t	t	n/a
257.86	0.0745	515720	keystroke_Key.space	Key.space	n/a
258.07	0.09	516140	keystroke_p	p	n/a
258.19	0.105	516380	keystroke_a	a	n/a
258.37	0.075	516740	keystroke_s	s	n/a
258.52	0.09	517040	keystroke_s	s	n/a
258.58	0.12	517160	keystroke_i	i	n/a
258.67	0.1505	517340	keystroke_o	o	n/a
258.774	0.1665	517548	keystroke_n	n	n/a
258.925	0.0595	517850	keystroke_Key.space	Key.space	n/a
259.105	0.09	518210	keystroke_c	c	n/a
259.24	0.089	518480	keystroke_o	o	n/a
259.45	0.0605	518900	keystroke_l	l	n/a
259.5855	0.089	519171	keystroke_l	l	n/a
259.6895	0.076	519379	keystroke_e	e	n/a
259.8855	0.089	519771	keystroke_c	c	n/a
260.0945	0.075	520189	keystroke_t	t	n/a
260.2	0.09	520400	keystroke_i	i	n/a
260.305	0.075	520610	keystroke_v	v	n/a
260.44	0.075	520880	keystroke_e	e	n/a
260.6045	0.1055	521209	keystroke_Key.enter	Key.enter	n/a
260.7155	8.501	521431	prompt	n/a	communications folders scoring weight\n
261.4755	0.089	522951	keystroke_a	a	n/a
261.8945	0.075	523789	keystroke_Key.backspace	Key.backspace	n/a
262.1205	0.075	524241	keystroke_c	c	n/a
262.2095	0.1205	524419	keystroke_o	o	n/a
262.2845	0.12	524569	keystroke_m	m	n/a
262.4945	0.0905	524989	keystroke_m	m	n/a
262.705	0.06	525410	keystroke_u	u	n/a
262.959	0.076	525918	keystroke_n	n	n/a
263.1255	0.0885	526251	keystroke_i	i	n/a
263.32	0.075	526640	keystroke_c	c	n/a
263.41	0.15	526820	keystroke_a	a	n/a
263.515	0.0745	527030	keystroke_t	t	n/a
263.575	0.1345	527150	keystroke_i	i	n/a
263.68	0.1345	527360	keystroke_o	o	n/a
263.77	0.1655	527540	keystroke_n	n	n/a
263.9195	0.09	527839	keystroke_s	s	n/a
264.0395	0.075	528079	keystroke_Key.space	Key.space	n/a
264.22	0.0905	528440	keystroke_f	f	n/a
264.34	0.075	528680	keystroke_o	o	n/a
264.5045	0.12	529009	keystroke_l	l	n/a
264.6395	0.075	529279	keystroke_d	d	n/a
264.82	0.0745	529640	keystroke_e	e	n/a
264.9105	0.075	529821	keystroke_r	r	n/a
265.105	0.0905	530210	keystroke_s	s	n/a
265.269	0.061	530538	keystroke_Key.space	Key.space	n/a
265.495	0.075	530990	keystroke_c	c	n/a
265.869	0.076	531738	keystroke_Key.backspace	Key.backspace	n/a
266.064	0.091	532128	keystroke_s	s	n/a
266.35	0.09	532700	keystroke_c	c	n/a
266.545	0.089	533090	keystroke_o	o	n/a
266.725	0.09	533450	keystroke_r	r	n/a
266.92	0.1355	533840	keystroke_i	i	n/a
266.9945	0.18	533989	keystroke_n	n	n/a
267.1145	0.105	534229	keystroke_g	g	n/a
267.2495	0.091	534499	keystroke_Key.space	Key.space	n/a
267.4905	0.104	534981	keystroke_w	w	n/a
267.6695	0.09	535339	keystroke_e	e	n/a
268.3295	0.0905	536659	keystroke_i	i	n/a
268.735	0.045	537470	keystroke_g	g	n/a
268.7945	0.0755	537589	keystroke_h	h	n/a
268.9005	0.105	537801	keystroke_t	t	n/a
269.1095	0.1055	538219	keystroke_Key.enter	Key.enter	n/a
269.231	7.9955	538462	prompt	n/a	destroyed editions thrown proposal\n
269.9505	0.0595	539901	keystroke_d	d	n/a
270.1155	0.0595	540231	keystroke_e	e	n/a
270.3695	0.09	540739	keystroke_s	s	n/a
270.565	0.0745	541130	keystroke_t	t	n/a
270.7445	0.075	541489	keystroke_r	r	n/a
270.8645	0.0755	541729	keystroke_o	o	n/a
271.0445	0.091	542089	keystroke_y	y	n/a
271.5395	0.075	543079	keystroke_e	e	n/a
271.81	0.09	543620	keystroke_d	d	n/a
271.975	0.075	543950	keystroke_Key.space	Key.space	n/a
272.304	0.0765	544608	keystroke_e	e	n/a
272.5155	0.0895	545031	keystroke_d	d	n/a
272.665	0.075	545330	keystroke_i	i	n/a
272.845	0.09	545690	keystroke_t	t	n/a
272.92	0.1205	545840	keystroke_i	i	n/a
273.0105	0.149	546021	keystroke_o	o	n/a
273.1305	0.1495	546261	keystroke_n	n	n/a
273.265	0.1205	546530	keystroke_s	s	n/a
274.165	0.075	548330	keystroke_Key.space	Key.space	n/a
274.6455	0.0745	549291	keystroke_t	t	n/a
274.75	0.09	549500	keystroke_h	h	n/a
274.87	0.105	549740	keystroke_r	r	n/a
275.0645	0.09	550129	keystroke_o	o	n/a
275.335	0.0905	550670	keystroke_w	w	n/a
275.4705	0.09	550941	keystroke_n	n	n/a
275.6195	0.0755	551239	keystroke_Key.space	Key.space	n/a
275.8905	0.12	551781	keystroke_p	p	n/a
275.9945	0.076	551989	keystroke_r	r	n/a
276.1005	0.09	552201	keystroke_o	o	n/a
276.325	0.09	552650	keystroke_p	p	n/a
276.5055	0.075	553011	keystroke_o	o	n/a
276.6245	0.0755	553249	keystroke_s	s	n/a
276.7295	0.1355	553459	keystroke_a	a	n/a
276.8795	0.1055	553759	keystroke_l	l	n/a
277.135	0.09	554270	keystroke_Key.enter	Key.enter	n/a
277.2405	7.471	554481	prompt	n/a	entertaining summer hawaii overcome\n
277.9605	0.074	555921	keystroke_e	e	n/a
278.0795	0.106	556159	keystroke_n	n	n/a
278.2305	0.075	556461	keystroke_t	t	n/a
278.3805	0.09	556761	keystroke_e	e	n/a
278.455	0.1055	556910	keystroke_r	r	n/a
278.89	0.075	557780	keystroke_t	t	n/a
279.145	0.12	558290	keystroke_a	a	n/a
279.25	0.075	558500	keystroke_i	i	n/a
279.4	0.0905	558800	keystroke_n	n	n/a
279.61	0.135	559220	keystroke_i	i	n/a
279.685	0.1645	559370	keystroke_n	n	n/a
279.79	0.12	559580	keystroke_g	g	n/a
279.9245	0.075	559849	keystroke_Key.space	Key.space	n/a
280.1795	0.09	560359	keystroke_s	s	n/a
280.3	0.0745	560600	keystroke_u	u	n/a
280.5105	0.0595	561021	keystroke_m	m	n/a
280.63	0.09	561260	keystroke_m	m	n/a
280.7205	0.104	561441	keystroke_e	e	n/a
280.8095	0.1355	561619	keystroke_r	r	n/a
280.9455	0.059	561891	keystroke_Key.space	Key.space	n/a
281.289	0.0755	562578	keystroke_h	h	n/a
281.4255	0.1205	562851	keystroke_a	a	n/a
281.6505	0.075	563301	keystroke_w	w	n/a
281.8455	0.104	563691	keystroke_a	a	n/a
282.1005	0.06	564201	keystroke_i	i	n/a
282.2505	0.075	564501	keystroke_i	i	n/a
282.3695	0.06	564739	keystroke_Key.space	Key.space	n/a
282.5655	0.0745	565131	keystroke_o	o	n/a
282.7005	0.075	565401	keystroke_v	v	n/a
282.8955	0.06	565791	keystroke_e	e	n/a
282.9695	0.105	565939	keystroke_r	r	n/a
283.9445	0.09	567889	keystroke_c	c	n/a
284.0505	0.134	568101	keystroke_o	o	n/a
284.125	0.2095	568250	keystroke_m	m	n/a
284.3205	0.074	568641	keystroke_e	e	n/a
284.6045	0.105	569209	keystroke_Key.enter	Key.enter	n/a
284.723	7.684	569446	prompt	n/a	tutorial skilled revenues prefer\n
285.5505	0.09	571101	keystroke_t	t	n/a
285.6845	0.075	571369	keystroke_u	u	n/a
286.0595	0.045	572119	keystroke_t	t	n/a
286.1495	0.09	572299	keystroke_o	o	n/a
286.495	0.075	572990	keystroke_r	r	n/a
286.6295	0.061	573259	keystroke_i	i	n/a
286.705	0.1355	573410	keystroke_a	a	n/a
286.8405	0.12	573681	keystroke_l	l	n/a
286.9745	0.06	573949	keystroke_Key.space	Key.space	n/a
287.1845	0.09	574369	keystroke_s	s	n/a
287.3045	0.075	574609	keystroke_k	k	n/a
287.6805	0.03	575361	keystroke_i	i	n/a
287.8005	0.074	575601	keystroke_i	i	n/a
287.995	0.105	575990	keystroke_l	l	n/a
288.205	0.09	576410	keystroke_e	e	n/a
288.371	0.0895	576742	keystroke_d	d	n/a
288.535	0.075	577070	keystroke_Key.space	Key.space	n/a
288.8655	0.09	577731	keystroke_r	r	n/a
288.9695	0.0615	577939	keystroke_e	e	n/a
289.2405	0.075	578481	keystroke_v	v	n/a
289.4205	0.0445	578841	keystroke_e	e	n/a
289.57	0.0445	579140	keystroke_n	n	n/a
289.7345	0.076	579469	keystroke_u	u	n/a
289.8705	0.1045	579741	keystroke_s	s	n/a
290.395	0.045	580790	keystroke_Key.backspace	Key.backspace	n/a
290.4545	0.076	580909	keystroke_e	e	n/a
290.6945	0.105	581389	keystroke_s	s	n/a
291.1145	0.0755	582229	keystroke_Key.space	Key.space	n/a
291.4295	0.1055	582859	keystroke_p	p	n/a
291.5205	0.1045	583041	keystroke_r	r	n/a
291.61	0.0745	583220	keystroke_e	e	n/a
291.835	0.075	583670	keystroke_f	f	n/a
291.985	0.0755	583970	keystroke_e	e	n/a
292.0455	0.104	584091	keystroke_r	r	n/a
292.3295	0.0755	584659	keystroke_Key.enter	Key.enter	n/a
292.4135	9.3385	584827	prompt	n/a	shipped clear contributors modification\n
293.245	0.105	586490	keystroke_s	s	n/a
293.38	0.0745	586760	keystroke_h	h	n/a
293.6495	0.075	587299	keystroke_i	i	n/a
293.8755	0.0745	587751	keystroke_p	p	n/a
294.025	0.0755	588050	keystroke_p	p	n/a
294.1455	0.06	588291	keystroke_e	e	n/a
294.3105	0.074	588621	keystroke_d	d	n/a
294.3995	0.075	588799	keystroke_Key.space	Key.space	n/a
294.5945	0.09	589189	keystroke_c	c	n/a
294.715	0.1045	589430	keystroke_l	l	n/a
294.88	0.0605	589760	keystroke_e	e	n/a
294.97	0.1505	589940	keystroke_a	a	n/a
295.315	0.09	590630	keystroke_r	r	n/a
295.48	0.075	590960	keystroke_Key.space	Key.space	n/a
295.735	0.09	591470	keystroke_c	c	n/a
295.87	0.0905	591740	keystroke_o	o	n/a
295.9905	0.1195	591981	keystroke_n	n	n/a
296.2155	0.074	592431	keystroke_t	t	n/a
296.4095	0.0755	592819	keystroke_r	r	n/a
296.6505	0.074	593301	keystroke_i	i	n/a
296.9055	0.09	593811	keystroke_b	b	n/a
297.0545	0.0905	594109	keystroke_u	u	n/a
297.3105	0.074	594621	keystroke_t	t	n/a
297.4745	0.09	594949	keystroke_o	o	n/a
297.5955	0.074	595191	keystroke_r	r	n/a
297.775	0.1045	595550	keystroke_s	s	n/a
297.9395	0.0755	595879	keystroke_Key.space	Key.space	n/a
298.1495	0.075	596299	keystroke_m	m	n/a
298.3305	0.074	596661	keystroke_o	o	n/a
298.4645	0.09	596929	keystroke_d	d	n/a
298.5995	0.075	597199	keystroke_i	i	n/a
298.825	0.0755	597650	keystroke_f	f	n/a
299.53	0.075	599060	keystroke_i	i	n/a
299.7245	0.0755	599449	keystroke_c	c	n/a
300.625	0.1045	601250	keystroke_a	a	n/a
300.97	0.0755	601940	keystroke_t	t	n/a
301.0305	0.1345	602061	keystroke_i	i	n/a
301.1355	0.18	602271	keystroke_o	o	n/a
301.2545	0.196	602509	keystroke_n	n	n/a
301.675	0.075	603350	keystroke_Key.enter	Key.enter	n/a
301.763	6.1385	603526	prompt	n/a	nice carter dynamics fraser\n
302.5	0.075	605000	keystroke_n	n	n/a
302.59	0.135	605180	keystroke_i	i	n/a
302.7405	0.0745	605481	keystroke_c	c	n/a
302.92	0.06	605840	keystroke_e	e	n/a
303.0405	0.0745	606081	keystroke_Key.space	Key.space	n/a
303.475	0.105	606950	keystroke_c	c	n/a
303.73	0.135	607460	keystroke_a	a	n/a
303.8655	0.0895	607731	keystroke_r	r	n/a
304.195	0.075	608390	keystroke_t	t	n/a
304.375	0.09	608750	keystroke_e	e	n/a
304.4505	0.1195	608901	keystroke_r	r	n/a
304.66	0.075	609320	keystroke_Key.space	Key.space	n/a
304.99	0.09	609980	keystroke_d	d	n/a
305.1555	0.09	610311	keystroke_y	y	n/a
305.439	0.091	610878	keystroke_n	n	n/a
305.575	0.12	611150	keystroke_a	a	n/a
305.7245	0.075	611449	keystroke_m	m	n/a
305.9045	0.09	611809	keystroke_i	i	n/a
306.0695	0.09	612139	keystroke_c	c	n/a
306.295	0.0895	612590	keystroke_s	s	n/a
306.4445	0.0755	612889	keystroke_Key.space	Key.space	n/a
306.655	0.075	613310	keystroke_f	f	n/a
306.835	0.0755	613670	keystroke_r	r	n/a
306.9855	0.1045	613971	keystroke_a	a	n/a
307.2705	0.0745	614541	keystroke_s	s	n/a
307.45	0.0905	614900	keystroke_e	e	n/a
307.525	0.12	615050	keystroke_r	r	n/a
307.795	0.105	615590	keystroke_Key.enter	Key.enter	n/a
307.913	8.6285	615826	prompt	n/a	storage bundle hungry we'll\n
308.5905	0.0895	617181	keystroke_s	s	n/a
309.115	0.075	618230	keystroke_t	t	n/a
309.3555	0.0895	618711	keystroke_o	o	n/a
309.4905	0.074	618981	keystroke_r	r	n/a
309.7295	0.1055	619459	keystroke_a	a	n/a
309.881	0.089	619762	keystroke_g	g	n/a
310.015	0.075	620030	keystroke_e	e	n/a
310.105	0.09	620210	keystroke_Key.space	Key.space	n/a
310.585	0.0755	621170	keystroke_b	b	n/a
310.7795	0.091	621559	keystroke_u	u	n/a
311.245	0.09	622490	keystroke_n	n	n/a
311.53	0.09	623060	keystroke_d	d	n/a
311.725	0.1055	623450	keystroke_l	l	n/a
311.875	0.075	623750	keystroke_e	e	n/a
311.965	0.075	623930	keystroke_Key.space	Key.space	n/a
312.2355	0.0595	624471	keystroke_h	h	n/a
312.4305	0.06	624861	keystroke_u	u	n/a
312.6095	0.076	625219	keystroke_n	n	n/a
312.8055	0.074	625611	keystroke_g	g	n/a
313	0.075	626000	keystroke_r	r	n/a
313.135	0.09	626270	keystroke_y	y	n/a
313.27	0.06	626540	keystroke_Key.space	Key.space	n/a
313.435	0.106	626870	keystroke_w	w	n/a
313.6155	0.075	627231	keystroke_e	e	n/a
313.825	0.076	627650	keystroke_'	'	n/a
313.9605	0.1045	627921	keystroke_'	'	n/a
314.23	0.0605	628460	keystroke_l	l	n/a
314.3955	0.06	628791	keystroke_l	l	n/a
314.8745	0.045	629749	keystroke_Key.backspace	Key.backspace	n/a
315.04	0.06	630080	keystroke_Key.backspace	Key.backspace	n/a
315.22	0.06	630440	keystroke_Key.backspace	Key.backspace	n/a
316.0305	0.06	632061	keystroke_l	l	n/a
316.15	0.09	632300	keystroke_l	l	n/a
316.45	0.0895	632900	keystroke_Key.enter	Key.enter	n/a
316.5455	6.686	633091	prompt	n/a	hang split hardcover legendary\n
317.3795	0.061	634759	keystroke_h	h	n/a
317.4995	0.1055	634999	keystroke_a	a	n/a
317.5745	0.106	635149	keystroke_n	n	n/a
317.7105	0.09	635421	keystroke_d	d	n/a
317.8595	0.09	635719	keystroke_Key.space	Key.space	n/a
318.0845	0.09	636169	keystroke_s	s	n/a
318.5045	0.09	637009	keystroke_p	p	n/a
318.7595	0.0905	637519	keystroke_l	l	n/a
318.956	0.0595	637912	keystroke_i	i	n/a
319.09	0.075	638180	keystroke_t	t	n/a
319.225	0.0595	638450	keystroke_Key.space	Key.space	n/a
319.51	0.075	639020	keystroke_h	h	n/a
319.6455	0.1045	639291	keystroke_a	a	n/a
319.72	0.105	639440	keystroke_r	r	n/a
319.9455	0.1045	639891	keystroke_d	d	n/a
320.4105	0.0745	640821	keystroke_c	c	n/a
320.499	0.091	640998	keystroke_o	o	n/a
320.6355	0.0595	641271	keystroke_v	v	n/a
320.785	0.0745	641570	keystroke_e	e	n/a
320.8445	0.105	641689	keystroke_r	r	n/a
321.085	0.06	642170	keystroke_Key.space	Key.space	n/a
321.2805	0.104	642561	keystroke_l	l	n/a
321.4455	0.0595	642891	keystroke_e	e	n/a
321.6555	0.0595	643311	keystroke_g	g	n/a
321.805	0.0605	643610	keystroke_e	e	n/a
321.9255	0.0745	643851	keystroke_n	n	n/a
322.166	0.089	644332	keystroke_d	d	n/a
322.3	0.12	644600	keystroke_a	a	n/a
322.75	0.06	645500	keystroke_r	r	n/a
322.84	0.075	645680	keystroke_y	y	n/a
323.1545	0.075	646309	keystroke_Key.enter	Key.enter	n/a
323.236	7.017	646472	prompt	n/a	greeting delhi deposit earnings\n
323.9955	0.075	647991	keystroke_g	g	n/a
324.1745	0.091	648349	keystroke_r	r	n/a
324.3695	0.061	648739	keystroke_e	e	n/a
324.5505	0.0445	649101	keystroke_e	e	n/a
324.6555	0.09	649311	keystroke_t	t	n/a
324.835	0.135	649670	keystroke_i	i	n/a
324.896	0.179	649792	keystroke_n	n	n/a
325.0005	0.1195	650001	keystroke_g	g	n/a
325.105	0.09	650210	keystroke_Key.space	Key.space	n/a
325.4055	0.075	650811	keystroke_d	d	n/a
325.6005	0.06	651201	keystroke_e	e	n/a
325.9305	0.104	651861	keystroke_l	l	n/a
326.8295	0.076	653659	keystroke_h	h	n/a
327.1145	0.076	654229	keystroke_i	i	n/a
327.3245	0.0605	654649	keystroke_Key.space	Key.space	n/a
327.5045	0.091	655009	keystroke_d	d	n/a
327.6695	0.076	655339	keystroke_e	e	n/a
327.8045	0.0905	655609	keystroke_p	p	n/a
327.97	0.09	655940	keystroke_o	o	n/a
328.1955	0.104	656391	keystroke_s	s	n/a
328.3445	0.0755	656689	keystroke_i	i	n/a
328.4655	0.075	656931	keystroke_t	t	n/a
328.585	0.075	657170	keystroke_Key.space	Key.space	n/a
328.8105	0.0595	657621	keystroke_e	e	n/a
328.9455	0.1195	657891	keystroke_a	a	n/a
329.08	0.105	658160	keystroke_r	r	n/a
329.29	0.061	658580	keystroke_n	n	n/a
329.425	0.165	658850	keystroke_i	i	n/a
329.53	0.18	659060	keystroke_n	n	n/a
329.635	0.09	659270	keystroke_g	g	n/a
329.815	0.105	659630	keystroke_s	s	n/a
330.16	0.09	660320	keystroke_Key.enter	Key.enter	n/a
330.272	5.9645	660544	prompt	n/a	cheers upon andy enquiries\n
330.9245	0.0905	661849	keystroke_c	c	n/a
331.0295	0.09	662059	keystroke_h	h	n/a
331.165	0.0605	662330	keystroke_e	e	n/a
331.3295	0.075	662659	keystroke_e	e	n/a
331.42	0.105	662840	keystroke_r	r	n/a
331.5705	0.1045	663141	keystroke_s	s	n/a
331.735	0.044	663470	keystroke_Key.space	Key.space	n/a
331.915	0.0755	663830	keystroke_u	u	n/a
332.0655	0.0895	664131	keystroke_p	p	n/a
332.275	0.135	664550	keystroke_o	o	n/a
332.38	0.165	664760	keystroke_n	n	n/a
332.56	0.075	665120	keystroke_Key.space	Key.space	n/a
332.8155	0.105	665631	keystroke_a	a	n/a
332.9495	0.0755	665899	keystroke_n	n	n/a
333.055	0.0895	666110	keystroke_d	d	n/a
333.19	0.0895	666380	keystroke_y	y	n/a
333.34	0.075	666680	keystroke_Key.space	Key.space	n/a
333.67	0.0895	667340	keystroke_e	e	n/a
333.805	0.0895	667610	keystroke_n	n	n/a
334.39	0.105	668780	keystroke_q	q	n/a
334.555	0.074	669110	keystroke_u	u	n/a
334.84	0.105	669680	keystroke_i	i	n/a
335.02	0.105	670040	keystroke_r	r	n/a
335.275	0.09	670550	keystroke_i	i	n/a
335.8905	0.075	671781	keystroke_e	e	n/a
335.98	0.09	671960	keystroke_s	s	n/a
336.115	0.119	672230	keystroke_Key.enter	Key.enter	n/a
336.2405	9.019	672481	prompt	n/a	last motorcycle skip tactics\n
337.225	0.12	674450	keystroke_l	l	n/a
337.285	0.135	674570	keystroke_a	a	n/a
337.4355	0.0895	674871	keystroke_s	s	n/a
337.6145	0.0755	675229	keystroke_t	t	n/a
337.7345	0.0895	675469	keystroke_Key.space	Key.space	n/a
338.335	0.0745	676670	keystroke_m	m	n/a
338.4555	0.105	676911	keystroke_o	o	n/a
338.725	0.075	677450	keystroke_t	t	n/a
338.861	0.104	677722	keystroke_o	o	n/a
339.5355	0.09	679071	keystroke_r	r	n/a
339.9855	0.075	679971	keystroke_y	y	n/a
340.735	0.105	681470	keystroke_Key.backspace	Key.backspace	n/a
341.5445	0.09	683089	keystroke_c	c	n/a
341.665	0.0895	683330	keystroke_y	y	n/a
341.8745	0.09	683749	keystroke_c	c	n/a
342.0555	0.12	684111	keystroke_l	l	n/a
342.2205	0.0745	684441	keystroke_e	e	n/a
342.3995	0.075	684799	keystroke_Key.space	Key.space	n/a
342.61	0.0905	685220	keystroke_s	s	n/a
342.7015	0.103	685403	keystroke_k	k	n/a
343.0005	0.075	686001	keystroke_i	i	n/a
343.2395	0.09	686479	keystroke_p	p	n/a
343.4195	0.045	686839	keystroke_Key.space	Key.space	n/a
343.5845	0.075	687169	keystroke_t	t	n/a
343.735	0.09	687470	keystroke_a	a	n/a
343.9295	0.075	687859	keystroke_c	c	n/a
344.1545	0.06	688309	keystroke_t	t	n/a
344.2455	0.1045	688491	keystroke_i	i	n/a
344.5895	0.106	689179	keystroke_c	c	n/a
344.8295	0.106	689659	keystroke_s	s	n/a
345.1595	0.09	690319	keystroke_Key.enter	Key.enter	n/a
345.2715	6.625	690543	prompt	n/a	classifieds nevada hits live\n
345.999	0.091	691998	keystroke_c	c	n/a
346.12	0.12	692240	keystroke_l	l	n/a
346.255	0.105	692510	keystroke_a	a	n/a
346.465	0.06	692930	keystroke_s	s	n/a
346.6005	0.0895	693201	keystroke_s	s	n/a
346.7345	0.105	693469	keystroke_i	i	n/a
347.035	0.075	694070	keystroke_f	f	n/a
347.1405	0.0895	694281	keystroke_i	i	n/a
347.3505	0.0595	694701	keystroke_e	e	n/a
347.545	0.075	695090	keystroke_d	d	n/a
347.9205	0.104	695841	keystroke_s	s	n/a
348.13	0.0595	696260	keystroke_Key.space	Key.space	n/a
348.4595	0.075	696919	keystroke_n	n	n/a
348.5805	0.059	697161	keystroke_e	e	n/a
348.7295	0.1055	697459	keystroke_v	v	n/a
348.9095	0.0905	697819	keystroke_e	e	n/a
349.45	0.075	698900	keystroke_Key.backspace	Key.backspace	n/a
349.63	0.09	699260	keystroke_a	a	n/a
349.8855	0.075	699771	keystroke_d	d	n/a
350.02	0.1205	700040	keystroke_a	a	n/a
350.32	0.045	700640	keystroke_Key.space	Key.space	n/a
350.499	0.0465	700998	keystroke_h	h	n/a
350.605	0.12	701210	keystroke_i	i	n/a
350.7545	0.0905	701509	keystroke_t	t	n/a
350.9055	0.119	701811	keystroke_s	s	n/a
351.055	0.0595	702110	keystroke_Key.space	Key.space	n/a
351.2205	0.0895	702441	keystroke_l	l	n/a
351.3705	0.074	702741	keystroke_i	i	n/a
351.4905	0.074	702981	keystroke_v	v	n/a
351.6405	0.0745	703281	keystroke_e	e	n/a
351.8045	0.09	703609	keystroke_Key.enter	Key.enter	n/a
351.903	5.903	703806	prompt	n/a	korea delhi deluxe nine\n
352.8405	0.059	705681	keystroke_k	k	n/a
353.0055	0.0745	706011	keystroke_o	o	n/a
353.26	0.0905	706520	keystroke_r	r	n/a
353.425	0.0745	706850	keystroke_e	e	n/a
353.5595	0.105	707119	keystroke_a	a	n/a
353.74	0.0745	707480	keystroke_Key.space	Key.space	n/a
354.0705	0.0895	708141	keystroke_d	d	n/a
354.2655	0.0605	708531	keystroke_e	e	n/a
354.415	0.09	708830	keystroke_l	l	n/a
354.685	0.06	709370	keystroke_h	h	n/a
354.82	0.09	709640	keystroke_i	i	n/a
354.955	0.0745	709910	keystroke_Key.space	Key.space	n/a
355.24	0.0755	710480	keystroke_d	d	n/a
355.42	0.0595	710840	keystroke_e	e	n/a
355.585	0.06	711170	keystroke_l	l	n/a
355.7355	0.105	711471	keystroke_u	u	n/a
356.125	0.0905	712250	keystroke_x	x	n/a
356.3955	0.0745	712791	keystroke_e	e	n/a
356.665	0.045	713330	keystroke_Key.space	Key.space	n/a
356.83	0.0595	713660	keystroke_n	n	n/a
356.965	0.09	713930	keystroke_i	i	n/a
357.4	0.09	714800	keystroke_n	n	n/a
357.52	0.075	715040	keystroke_e	e	n/a
357.7295	0.0755	715459	keystroke_Key.enter	Key.enter	n/a
357.8145	5.9615	715629	prompt	n/a	nike christmas stopping mere\n
358.5105	0.045	717021	keystroke_n	n	n/a
358.6305	0.074	717261	keystroke_i	i	n/a
358.8105	0.0745	717621	keystroke_k	k	n/a
358.9155	0.09	717831	keystroke_e	e	n/a
359.0195	0.075	718039	keystroke_Key.space	Key.space	n/a
359.2305	0.1045	718461	keystroke_c	c	n/a
359.3495	0.0905	718699	keystroke_h	h	n/a
359.8295	0.091	719659	keystroke_r	r	n/a
359.98	0.0745	719960	keystroke_i	i	n/a
360.1895	0.1055	720379	keystroke_s	s	n/a
360.46	0.074	720920	keystroke_t	t	n/a
360.8495	0.0755	721699	keystroke_m	m	n/a
360.97	0.1205	721940	keystroke_a	a	n/a
361.18	0.0755	722360	keystroke_s	s	n/a
361.315	0.06	722630	keystroke_Key.space	Key.space	n/a
361.5395	0.091	723079	keystroke_s	s	n/a
361.705	0.06	723410	keystroke_t	t	n/a
361.9145	0.0755	723829	keystroke_o	o	n/a
362.1545	0.061	724309	keystroke_p	p	n/a
362.32	0.0455	724640	keystroke_p	p	n/a
362.44	0.18	724880	keystroke_i	i	n/a
362.5445	0.18	725089	keystroke_n	n	n/a
362.6345	0.1205	725269	keystroke_g	g	n/a
362.7555	0.074	725511	keystroke_Key.space	Key.space	n/a
362.9205	0.1195	725841	keystroke_m	m	n/a
363.055	0.105	726110	keystroke_e	e	n/a
363.145	0.239	726290	keystroke_r	r	n/a
363.295	0.075	726590	keystroke_e	e	n/a
363.7	0.074	727400	keystroke_Key.enter	Key.enter	n/a
363.7815	6.355	727563	prompt	n/a	estate cleared plants compatible\n
364.555	0.075	729110	keystroke_e	e	n/a
364.72	0.075	729440	keystroke_s	s	n/a
364.9155	0.0745	729831	keystroke_t	t	n/a
365.035	0.12	730070	keystroke_a	a	n/a
365.17	0.075	730340	keystroke_t	t	n/a
365.335	0.06	730670	keystroke_e	e	n/a
365.485	0.045	730970	keystroke_Key.space	Key.space	n/a
365.68	0.0905	731360	keystroke_c	c	n/a
365.8005	0.1195	731601	keystroke_l	l	n/a
365.98	0.105	731960	keystroke_e	e	n/a
366.115	0.179	732230	keystroke_a	a	n/a
366.31	0.1055	732620	keystroke_r	r	n/a
366.58	0.0745	733160	keystroke_e	e	n/a
366.7445	0.09	733489	keystroke_d	d	n/a
366.88	0.06	733760	keystroke_Key.space	Key.space	n/a
367.06	0.09	734120	keystroke_p	p	n/a
367.2245	0.1205	734449	keystroke_l	l	n/a
367.4055	0.119	734811	keystroke_a	a	n/a
367.5405	0.105	735081	keystroke_n	n	n/a
367.6905	0.089	735381	keystroke_t	t	n/a
367.9	0.0895	735800	keystroke_s	s	n/a
368.0195	0.06	736039	keystroke_Key.space	Key.space	n/a
368.23	0.091	736460	keystroke_c	c	n/a
368.322	0.133	736644	keystroke_o	o	n/a
368.4245	0.1355	736849	keystroke_m	m	n/a
368.665	0.0905	737330	keystroke_p	p	n/a
368.8145	0.105	737629	keystroke_a	a	n/a
369.205	0.105	738410	keystroke_t	t	n/a
369.369	0.091	738738	keystroke_i	i	n/a
369.6105	0.075	739221	keystroke_b	b	n/a
369.7155	0.1185	739431	keystroke_l	l	n/a
369.835	0.0595	739670	keystroke_e	e	n/a
370.029	0.105	740058	keystroke_Key.enter	Key.enter	n/a
370.14	15.8365	740280	prompt	n/a	exit shouldn't've concentrations mozambique\n
370.945	0.075	741890	keystroke_e	e	n/a
371.1545	0.105	742309	keystroke_x	x	n/a
371.4995	0.0755	742999	keystroke_i	i	n/a
371.6345	0.09	743269	keystroke_t	t	n/a
371.7545	0.075	743509	keystroke_Key.space	Key.space	n/a
372.0095	0.105	744019	keystroke_s	s	n/a
372.1295	0.0755	744259	keystroke_h	h	n/a
372.22	0.135	744440	keystroke_o	o	n/a
372.325	0.105	744650	keystroke_u	u	n/a
372.565	0.1195	745130	keystroke_l	l	n/a
372.9555	0.0885	745911	keystroke_d	d	n/a
373.5105	0.0585	747021	keystroke_n	n	n/a
374.605	0.105	749210	keystroke_'	'	n/a
376.315	0.059	752630	keystroke_Key.backspace	Key.backspace	n/a
378.506	0.043	757012	keystroke_'	'	n/a
378.594	0.091	757188	keystroke_t	t	n/a
379.135	0.09	758270	keystroke_'	'	n/a
379.509	0.0765	759018	keystroke_v	v	n/a
379.659	0.076	759318	keystroke_e	e	n/a
379.8405	0.059	759681	keystroke_Key.space	Key.space	n/a
380.05	0.0755	760100	keystroke_c	c	n/a
380.1405	0.15	760281	keystroke_o	o	n/a
380.2295	0.165	760459	keystroke_n	n	n/a
380.425	0.0895	760850	keystroke_c	c	n/a
380.5905	0.09	761181	keystroke_e	e	n/a
380.8455	0.074	761691	keystroke_n	n	n/a
381.145	0.0605	762290	keystroke_t	t	n/a
381.325	0.075	762650	keystroke_r	r	n/a
381.55	0.1045	763100	keystroke_a	a	n/a
381.715	0.075	763430	keystroke_i	i	n/a
382.4495	0.075	764899	keystroke_Key.backspace	Key.backspace	n/a
382.6755	0.074	765351	keystroke_t	t	n/a
382.7655	0.134	765531	keystroke_i	i	n/a
382.8545	0.1805	765709	keystroke_o	o	n/a
382.974	0.196	765948	keystroke_n	n	n/a
383.155	0.1045	766310	keystroke_s	s	n/a
383.3045	0.075	766609	keystroke_Key.space	Key.space	n/a
383.485	0.09	766970	keystroke_m	m	n/a
383.6205	0.119	767241	keystroke_o	o	n/a
383.905	0.105	767810	keystroke_z	z	n/a
384.145	0.09	768290	keystroke_a	a	n/a
384.4445	0.0905	768889	keystroke_m	m	n/a
384.94	0.105	769880	keystroke_b	b	n/a
385.091	0.074	770182	keystroke_i	i	n/a
385.405	0.09	770810	keystroke_q	q	n/a
385.51	0.09	771020	keystroke_u	u	n/a
385.66	0.075	771320	keystroke_e	e	n/a
385.87	0.105	771740	keystroke_Key.enter	Key.enter	n/a
385.9845	8.542	771969	prompt	n/a	riverside benjamin guru monitoring\n
386.845	0.0905	773690	keystroke_r	r	n/a
387.0245	0.076	774049	keystroke_i	i	n/a
387.3405	0.0745	774681	keystroke_v	v	n/a
387.52	0.104	775040	keystroke_e	e	n/a
387.609	0.1065	775218	keystroke_r	r	n/a
387.895	0.09	775790	keystroke_s	s	n/a
388.03	0.075	776060	keystroke_i	i	n/a
388.135	0.075	776270	keystroke_d	d	n/a
388.345	0.06	776690	keystroke_e	e	n/a
388.525	0.06	777050	keystroke_Key.space	Key.space	n/a
388.87	0.0595	777740	keystroke_b	b	n/a
389.0345	0.075	778069	keystroke_e	e	n/a
389.3495	0.075	778699	keystroke_n	n	n/a
389.605	0.0745	779210	keystroke_j	j	n/a
389.74	0.1045	779480	keystroke_a	a	n/a
389.875	0.0895	779750	keystroke_m	m	n/a
390.055	0.105	780110	keystroke_i	i	n/a
390.145	0.135	780290	keystroke_n	n	n/a
390.34	0.0595	780680	keystroke_Key.space	Key.space	n/a
390.985	0.194	781970	keystroke_g	g	n/a
391.194	0.016	782388	keystroke_u	u	n/a
391.24	0.075	782480	keystroke_r	r	n/a
391.405	0.09	782810	keystroke_u	u	n/a
391.779	0.061	783558	keystroke_Key.space	Key.space	n/a
392.005	0.074	784010	keystroke_m	m	n/a
392.199	0.091	784398	keystroke_i	i	n/a
392.814	0.0605	785628	keystroke_Key.backspace	Key.backspace	n/a
393.04	0.06	786080	keystroke_o	o	n/a
393.2345	0.0455	786469	keystroke_n	n	n/a
393.37	0.075	786740	keystroke_i	i	n/a
393.64	0.0755	787280	keystroke_t	t	n/a
393.7305	0.105	787461	keystroke_o	o	n/a
393.85	0.075	787700	keystroke_r	r	n/a
394.044	0.136	788088	keystroke_i	i	n/a
394.119	0.166	788238	keystroke_n	n	n/a
394.27	0.0905	788540	keystroke_g	g	n/a
394.4195	0.105	788839	keystroke_Key.enter	Key.enter	n/a
394.531	6.4155	789062	prompt	n/a	reprints lover cosmetic printer\n
395.275	0.105	790550	keystroke_r	r	n/a
395.365	0.09	790730	keystroke_e	e	n/a
395.62	0.0905	791240	keystroke_p	p	n/a
395.8145	0.091	791629	keystroke_r	r	n/a
396.1005	0.075	792201	keystroke_i	i	n/a
396.28	0.0895	792560	keystroke_n	n	n/a
396.3995	0.105	792799	keystroke_t	t	n/a
396.6405	0.1045	793281	keystroke_s	s	n/a
396.7745	0.075	793549	keystroke_Key.space	Key.space	n/a
397.03	0.0745	794060	keystroke_l	l	n/a
397.2255	0.076	794451	keystroke_o	o	n/a
397.3295	0.09	794659	keystroke_v	v	n/a
397.4795	0.105	794959	keystroke_e	e	n/a
397.57	0.1055	795140	keystroke_r	r	n/a
397.6895	0.0605	795379	keystroke_Key.space	Key.space	n/a
397.9745	0.09	795949	keystroke_c	c	n/a
398.1095	0.106	796219	keystroke_o	o	n/a
398.2905	0.105	796581	keystroke_s	s	n/a
398.5445	0.0905	797089	keystroke_m	m	n/a
398.6955	0.075	797391	keystroke_e	e	n/a
399.0095	0.0755	798019	keystroke_t	t	n/a
399.1455	0.074	798291	keystroke_i	i	n/a
399.2645	0.105	798529	keystroke_c	c	n/a
399.5045	0.0455	799009	keystroke_Key.space	Key.space	n/a
399.7305	0.1045	799461	keystroke_p	p	n/a
399.865	0.09	799730	keystroke_r	r	n/a
400.045	0.0605	800090	keystroke_i	i	n/a
400.165	0.105	800330	keystroke_n	n	n/a
400.375	0.06	800750	keystroke_t	t	n/a
400.556	0.089	801112	keystroke_e	e	n/a
400.6305	0.0895	801261	keystroke_r	r	n/a
400.855	0.09	801710	keystroke_Key.enter	Key.enter	n/a
400.9565	7.6255	801913	prompt	n/a	summer wiley throat utilize\n
401.7705	0.09	803541	keystroke_s	s	n/a
401.9355	0.075	803871	keystroke_u	u	n/a
402.1595	0.0605	804319	keystroke_m	m	n/a
402.295	0.0745	804590	keystroke_m	m	n/a
402.4595	0.061	804919	keystroke_b	b	n/a
402.895	0.0595	805790	keystroke_Key.backspace	Key.backspace	n/a
403.105	0.1045	806210	keystroke_e	e	n/a
403.195	0.1195	806390	keystroke_r	r	n/a
403.3295	0.075	806659	keystroke_Key.space	Key.space	n/a
403.869	0.1065	807738	keystroke_w	w	n/a
403.99	0.075	807980	keystroke_i	i	n/a
404.23	0.104	808460	keystroke_l	l	n/a
404.3955	0.075	808791	keystroke_e	e	n/a
404.53	0.089	809060	keystroke_y	y	n/a
404.665	0.059	809330	keystroke_Key.space	Key.space	n/a
404.9355	0.089	809871	keystroke_t	t	n/a
405.0405	0.0745	810081	keystroke_h	h	n/a
405.2655	0.0745	810531	keystroke_r	r	n/a
405.415	0.09	810830	keystroke_o	o	n/a
405.6855	0.105	811371	keystroke_a	a	n/a
405.88	0.075	811760	keystroke_t	t	n/a
406.074	0.061	812148	keystroke_Key.space	Key.space	n/a
406.9305	0.089	813861	keystroke_u	u	n/a
407.335	0.0745	814670	keystroke_t	t	n/a
407.5	0.0745	815000	keystroke_i	i	n/a
407.6945	0.076	815389	keystroke_l	l	n/a
407.8445	0.091	815689	keystroke_i	i	n/a
408.085	0.09	816170	keystroke_z	z	n/a
408.296	0.044	816592	keystroke_e	e	n/a
408.49	0.09	816980	keystroke_Key.enter	Key.enter	n/a
408.588	9.053	817176	prompt	n/a	reflect contractor prepared arbitration\n
409.51	0.09	819020	keystroke_r	r	n/a
409.615	0.09	819230	keystroke_e	e	n/a
409.8405	0.104	819681	keystroke_l	l	n/a
410.245	0.0595	820490	keystroke_Key.backspace	Key.backspace	n/a
410.4245	0.075	820849	keystroke_f	f	n/a
410.5295	0.12	821059	keystroke_l	l	n/a
410.6945	0.0755	821389	keystroke_e	e	n/a
410.8905	0.06	821781	keystroke_c	c	n/a
411.055	0.045	822110	keystroke_t	t	n/a
411.34	0.059	822680	keystroke_Key.space	Key.space	n/a
411.7745	0.0905	823549	keystroke_c	c	n/a
411.8505	0.1195	823701	keystroke_o	o	n/a
411.9405	0.1495	823881	keystroke_n	n	n/a
412.105	0.075	824210	keystroke_t	t	n/a
412.27	0.0605	824540	keystroke_r	r	n/a
412.3905	0.1045	824781	keystroke_a	a	n/a
412.6	0.074	825200	keystroke_c	c	n/a
412.795	0.045	825590	keystroke_t	t	n/a
412.885	0.0905	825770	keystroke_o	o	n/a
413.0205	0.0745	826041	keystroke_r	r	n/a
413.124	0.06	826248	keystroke_Key.space	Key.space	n/a
413.35	0.089	826700	keystroke_p	p	n/a
413.499	0.1055	826998	keystroke_r	r	n/a
413.635	0.074	827270	keystroke_e	e	n/a
413.8595	0.1045	827719	keystroke_p	p	n/a
413.9795	0.121	827959	keystroke_a	a	n/a
414.054	0.135	828108	keystroke_r	r	n/a
414.234	0.09	828468	keystroke_e	e	n/a
414.444	0.075	828888	keystroke_d	d	n/a
414.564	0.075	829128	keystroke_Key.space	Key.space	n/a
414.894	0.0905	829788	keystroke_a	a	n/a
415.03	0.0905	830060	keystroke_r	r	n/a
415.4795	0.09	830959	keystroke_b	b	n/a
415.96	0.0595	831920	keystroke_i	i	n/a
416.274	0.0765	832548	keystroke_t	t	n/a
416.485	0.09	832970	keystroke_r	r	n/a
416.695	0.1055	833390	keystroke_a	a	n/a
416.9355	0.059	833871	keystroke_t	t	n/a
416.9805	0.1345	833961	keystroke_i	i	n/a
417.07	0.1645	834140	keystroke_o	o	n/a
417.1905	0.1645	834381	keystroke_n	n	n/a
417.55	0.0895	835100	keystroke_Key.enter	Key.enter	n/a
417.6435	7.558	835287	prompt	n/a	projector cattle evaluations mercy\n
418.315	0.12	836630	keystroke_p	p	n/a
418.42	0.0755	836840	keystroke_r	r	n/a
418.5255	0.1045	837051	keystroke_o	o	n/a
418.75	0.075	837500	keystroke_j	j	n/a
418.8705	0.0745	837741	keystroke_e	e	n/a
419.0495	0.0905	838099	keystroke_c	c	n/a
419.2295	0.06	838459	keystroke_t	t	n/a
419.3645	0.106	838729	keystroke_o	o	n/a
419.485	0.09	838970	keystroke_r	r	n/a
419.589	0.076	839178	keystroke_Key.space	Key.space	n/a
419.8445	0.09	839689	keystroke_c	c	n/a
420.009	0.106	840018	keystroke_a	a	n/a
420.2645	0.0455	840529	keystroke_t	t	n/a
420.415	0.0605	840830	keystroke_t	t	n/a
420.519	0.1065	841038	keystroke_l	l	n/a
420.6405	0.09	841281	keystroke_e	e	n/a
420.7445	0.075	841489	keystroke_Key.space	Key.space	n/a
420.985	0.075	841970	keystroke_e	e	n/a
421.4055	0.0745	842811	keystroke_v	v	n/a
421.6445	0.1055	843289	keystroke_a	a	n/a
421.915	0.09	843830	keystroke_l	l	n/a
422.095	0.09	844190	keystroke_u	u	n/a
422.4255	0.1045	844851	keystroke_a	a	n/a
422.9655	0.105	845931	keystroke_t	t	n/a
423.0555	0.1495	846111	keystroke_i	i	n/a
423.16	0.18	846320	keystroke_o	o	n/a
423.28	0.18	846560	keystroke_n	n	n/a
423.4755	0.1195	846951	keystroke_s	s	n/a
423.655	0.075	847310	keystroke_Key.space	Key.space	n/a
424	0.09	848000	keystroke_m	m	n/a
424.1355	0.0895	848271	keystroke_e	e	n/a
424.211	0.1045	848422	keystroke_r	r	n/a
424.5105	0.09	849021	keystroke_c	c	n/a
424.675	0.09	849350	keystroke_y	y	n/a
425.0945	0.105	850189	keystroke_Key.enter	Key.enter	n/a
425.209	8.5725	850418	prompt	n/a	findlaw resolve passenger preceding\n
426.1455	0.0895	852291	keystroke_f	f	n/a
426.2505	0.119	852501	keystroke_i	i	n/a
426.3405	0.18	852681	keystroke_n	n	n/a
426.79	0.0895	853580	keystroke_d	d	n/a
427.15	0.09	854300	keystroke_l	l	n/a
427.4795	0.105	854959	keystroke_a	a	n/a
427.7655	0.104	855531	keystroke_w	w	n/a
428.0495	0.06	856099	keystroke_Key.space	Key.space	n/a
428.2755	0.104	856551	keystroke_r	r	n/a
428.395	0.075	856790	keystroke_e	e	n/a
428.8605	0.09	857721	keystroke_s	s	n/a
429.1595	0.0905	858319	keystroke_o	o	n/a
429.775	0.105	859550	keystroke_l	l	n/a
429.94	0.105	859880	keystroke_v	v	n/a
430.09	0.075	860180	keystroke_e	e	n/a
430.195	0.075	860390	keystroke_Key.space	Key.space	n/a
430.5855	0.104	861171	keystroke_p	p	n/a
430.7345	0.106	861469	keystroke_a	a	n/a
430.9295	0.06	861859	keystroke_s	s	n/a
431.155	0.015	862310	keystroke_s	s	n/a
431.245	0.075	862490	keystroke_e	e	n/a
431.35	0.09	862700	keystroke_n	n	n/a
431.53	0.075	863060	keystroke_g	g	n/a
431.665	0.1055	863330	keystroke_e	e	n/a
431.755	0.12	863510	keystroke_r	r	n/a
431.9045	0.0605	863809	keystroke_Key.space	Key.space	n/a
432.115	0.105	864230	keystroke_p	p	n/a
432.234	0.121	864468	keystroke_r	r	n/a
432.339	0.091	864678	keystroke_e	e	n/a
432.64	0.09	865280	keystroke_c	c	n/a
432.835	0.075	865670	keystroke_e	e	n/a
433.1045	0.0755	866209	keystroke_d	d	n/a
433.2555	0.15	866511	keystroke_i	i	n/a
433.3295	0.18	866659	keystroke_n	n	n/a
433.4505	0.1045	866901	keystroke_g	g	n/a
433.675	0.1045	867350	keystroke_Key.enter	Key.enter	n/a
433.797	7.1695	867594	prompt	n/a	atlanta january bald alaska\n
434.485	0.12	868970	keystroke_a	a	n/a
434.694	0.091	869388	keystroke_t	t	n/a
434.965	0.1055	869930	keystroke_l	l	n/a
435.1155	0.12	870231	keystroke_a	a	n/a
435.265	0.09	870530	keystroke_n	n	n/a
435.4	0.09	870800	keystroke_t	t	n/a
435.505	0.15	871010	keystroke_a	a	n/a
435.865	0.06	871730	keystroke_Key.space	Key.space	n/a
436.12	0.09	872240	keystroke_j	j	n/a
436.39	0.109	872780	keystroke_a	a	n/a
436.6605	0.09	873321	keystroke_n	n	n/a
436.961	0.074	873922	keystroke_u	u	n/a
437.3505	0.1045	874701	keystroke_a	a	n/a
437.4855	0.0895	874971	keystroke_r	r	n/a
437.619	0.106	875238	keystroke_y	y	n/a
437.741	0.074	875482	keystroke_Key.space	Key.space	n/a
438.0545	0.076	876109	keystroke_b	b	n/a
438.19	0.1055	876380	keystroke_a	a	n/a
438.3405	0.105	876681	keystroke_l	l	n/a
438.8505	0.089	877701	keystroke_d	d	n/a
439.0145	0.061	878029	keystroke_Key.space	Key.space	n/a
439.3605	0.104	878721	keystroke_a	a	n/a
439.4795	0.1205	878959	keystroke_l	l	n/a
439.9745	0.12	879949	keystroke_a	a	n/a
440.2905	0.105	880581	keystroke_s	s	n/a
440.44	0.0905	880880	keystroke_k	k	n/a
440.7095	0.105	881419	keystroke_a	a	n/a
440.875	0.0895	881750	keystroke_Key.enter	Key.enter	n/a
440.975	10.1465	881950	prompt	n/a	accommodation limits glossary runtime\n
441.7295	0.105	883459	keystroke_a	a	n/a
441.9555	0.0745	883911	keystroke_c	c	n/a
442.121	0.0895	884242	keystroke_c	c	n/a
442.2695	0.1805	884539	keystroke_o	o	n/a
445.4685	0.001	890937	keystroke_m	m	n/a
445.5405	0.075	891081	keystroke_m	m	n/a
445.7505	0.105	891501	keystroke_o	o	n/a
446.2305	0.075	892461	keystroke_d	d	n/a
446.3655	0.12	892731	keystroke_a	a	n/a
446.5155	0.06	893031	keystroke_t	t	n/a
446.5895	0.136	893179	keystroke_i	i	n/a
446.6805	0.165	893361	keystroke_o	o	n/a
446.8005	0.135	893601	keystroke_n	n	n/a
446.9195	0.06	893839	keystroke_Key.space	Key.space	n/a
447.1005	0.09	894201	keystroke_l	l	n/a
447.2805	0.06	894561	keystroke_i	i	n/a
447.4605	0.075	894921	keystroke_m	m	n/a
447.5955	0.075	895191	keystroke_i	i	n/a
447.7305	0.089	895461	keystroke_t	t	n/a
447.8805	0.105	895761	keystroke_s	s	n/a
448.0155	0.074	896031	keystroke_Key.space	Key.space	n/a
448.256	0.0745	896512	keystroke_g	g	n/a
448.3755	0.09	896751	keystroke_l	l	n/a
448.5845	0.076	897169	keystroke_o	o	n/a
448.8705	0.045	897741	keystroke_s	s	n/a
448.9905	0.075	897981	keystroke_s	s	n/a
449.1245	0.121	898249	keystroke_a	a	n/a
449.2905	0.09	898581	keystroke_y	y	n/a
449.485	0.0745	898970	keystroke_Key.space	Key.space	n/a
449.755	0.0905	899510	keystroke_r	r	n/a
449.9345	0.0905	899869	keystroke_u	u	n/a
450.1595	0.09	900319	keystroke_n	n	n/a
450.371	0.0735	900742	keystroke_t	t	n/a
450.55	0.0745	901100	keystroke_i	i	n/a
450.6995	0.12	901399	keystroke_m	m	n/a
450.835	0.0755	901670	keystroke_e	e	n/a
451.0145	0.1055	902029	keystroke_Key.enter	Key.enter	n/a
451.126	6.9405	902252	prompt	n/a	alloy recycling bloomberg joan\n
451.7805	0.0895	903561	keystroke_a	a	n/a
451.9155	0.06	903831	keystroke_l	l	n/a
452.0645	0.061	904129	keystroke_l	l	n/a
452.23	0.0605	904460	keystroke_o	o	n/a
452.365	0.0895	904730	keystroke_y	y	n/a
452.5295	0.0905	905059	keystroke_Key.space	Key.space	n/a
452.7105	0.12	905421	keystroke_r	r	n/a
452.8155	0.09	905631	keystroke_e	e	n/a
453.0245	0.0905	906049	keystroke_c	c	n/a
453.1605	0.089	906321	keystroke_y	y	n/a
453.4755	0.09	906951	keystroke_c	c	n/a
453.64	0.1055	907280	keystroke_l	l	n/a
453.7605	0.0745	907521	keystroke_e	e	n/a
453.9255	0.149	907851	keystroke_i	i	n/a
453.9855	0.179	907971	keystroke_n	n	n/a
454.105	0.1045	908210	keystroke_g	g	n/a
454.225	0.06	908450	keystroke_Key.space	Key.space	n/a
454.5105	0.075	909021	keystroke_b	b	n/a
454.69	0.075	909380	keystroke_l	l	n/a
454.9455	0.076	909891	keystroke_o	o	n/a
455.2295	0.0615	910459	keystroke_o	o	n/a
455.4255	0.1045	910851	keystroke_m	m	n/a
455.7405	0.075	911481	keystroke_b	b	n/a
455.89	0.105	911780	keystroke_e	e	n/a
455.98	0.105	911960	keystroke_r	r	n/a
456.355	0.075	912710	keystroke_g	g	n/a
456.505	0.075	913010	keystroke_Key.space	Key.space	n/a
456.895	0.0745	913790	keystroke_j	j	n/a
457.1505	0.09	914301	keystroke_o	o	n/a
457.3905	0.0895	914781	keystroke_a	a	n/a
457.5405	0.0745	915081	keystroke_n	n	n/a
457.9905	0.0745	915981	keystroke_Key.enter	Key.enter	n/a
458.071	11.3225	916142	prompt	n/a	cookbook strategic camcorders linux\n
458.785	0.09	917570	keystroke_c	c	n/a
458.9055	0.0595	917811	keystroke_o	o	n/a
459.0555	0.0745	918111	keystroke_o	o	n/a
459.235	0.075	918470	keystroke_k	k	n/a
460.2555	0.075	920511	keystroke_b	b	n/a
460.3905	0.06	920781	keystroke_o	o	n/a
460.5405	0.09	921081	keystroke_o	o	n/a
460.7205	0.075	921441	keystroke_k	k	n/a
461.0495	0.075	922099	keystroke_Key.space	Key.space	n/a
461.2305	0.075	922461	keystroke_s	s	n/a
461.3505	0.074	922701	keystroke_t	t	n/a
461.5145	0.061	923029	keystroke_r	r	n/a
461.6805	0.104	923361	keystroke_a	a	n/a
461.9505	0.075	923901	keystroke_t	t	n/a
462.1605	0.0745	924321	keystroke_e	e	n/a
462.8505	0.0745	925701	keystroke_g	g	n/a
463.0305	0.075	926061	keystroke_e	e	n/a
463.48	0.06	926960	keystroke_Key.backspace	Key.backspace	n/a
463.6755	0.09	927351	keystroke_i	i	n/a
463.7955	0.0895	927591	keystroke_c	c	n/a
463.93	0.075	927860	keystroke_Key.space	Key.space	n/a
464.5755	0.0745	929151	keystroke_c	c	n/a
464.8455	0.0145	929691	keystroke_a	a	n/a
465.28	0.09	930560	keystroke_m	m	n/a
465.625	0.06	931250	keystroke_o	o	n/a
466.105	0.045	932210	keystroke_Key.backspace	Key.backspace	n/a
466.331	0.089	932662	keystroke_c	c	n/a
466.57	0.0905	933140	keystroke_o	o	n/a
466.735	0.0905	933470	keystroke_r	r	n/a
467.0345	0.0755	934069	keystroke_d	d	n/a
467.2305	0.06	934461	keystroke_e	e	n/a
467.4705	0.074	934941	keystroke_r	r	n/a
467.7095	0.0905	935419	keystroke_s	s	n/a
467.8595	0.0605	935719	keystroke_Key.space	Key.space	n/a
468.2355	0.0745	936471	keystroke_l	l	n/a
468.37	0.09	936740	keystroke_i	i	n/a
468.52	0.1055	937040	keystroke_n	n	n/a
468.9105	0.075	937821	keystroke_u	u	n/a
469.0445	0.09	938089	keystroke_s	s	n/a
469.3	0.0895	938600	keystroke_Key.enter	Key.enter	n/a
469.409	7.7075	938818	prompt	n/a	products prospects caution edition\n
470.425	0.1195	940850	keystroke_p	p	n/a
470.5295	0.077	941059	keystroke_r	r	n/a
470.6495	0.075	941299	keystroke_o	o	n/a
470.8605	0.09	941721	keystroke_d	d	n/a
470.9655	0.075	941931	keystroke_u	u	n/a
471.1	0.075	942200	keystroke_c	c	n/a
471.25	0.075	942500	keystroke_t	t	n/a
471.461	0.104	942922	keystroke_s	s	n/a
471.625	0.075	943250	keystroke_Key.space	Key.space	n/a
471.896	0.0885	943792	keystroke_p	p	n/a
471.9705	0.0895	943941	keystroke_r	r	n/a
472.091	0.089	944182	keystroke_o	o	n/a
472.36	0.09	944720	keystroke_s	s	n/a
472.72	0.0905	945440	keystroke_p	p	n/a
472.855	0.0745	945710	keystroke_e	e	n/a
473.0505	0.06	946101	keystroke_c	c	n/a
473.1855	0.075	946371	keystroke_t	t	n/a
473.3495	0.091	946699	keystroke_s	s	n/a
474.0545	0.061	948109	keystroke_Key.space	Key.space	n/a
474.58	0.091	949160	keystroke_c	c	n/a
474.7755	0.1045	949551	keystroke_a	a	n/a
474.91	0.091	949820	keystroke_u	u	n/a
475.1805	0.06	950361	keystroke_t	t	n/a
475.2555	0.1345	950511	keystroke_i	i	n/a
475.345	0.165	950690	keystroke_o	o	n/a
475.4655	0.1645	950931	keystroke_n	n	n/a
475.645	0.075	951290	keystroke_Key.space	Key.space	n/a
475.855	0.09	951710	keystroke_e	e	n/a
476.0505	0.0905	952101	keystroke_d	d	n/a
476.215	0.0905	952430	keystroke_i	i	n/a
476.4095	0.075	952819	keystroke_t	t	n/a
476.4695	0.135	952939	keystroke_i	i	n/a
476.5605	0.165	953121	keystroke_o	o	n/a
476.6805	0.1495	953361	keystroke_n	n	n/a
477.01	0.1045	954020	keystroke_Key.enter	Key.enter	n/a
477.1245	10.3725	954249	prompt	n/a	philadelphia blowing governing receivers\n
477.9845	0.076	955969	keystroke_p	p	n/a
478.105	0.09	956210	keystroke_h	h	n/a
478.675	0.075	957350	keystroke_i	i	n/a
479.095	0.105	958190	keystroke_l	l	n/a
480.0255	0.1195	960051	keystroke_a	a	n/a
480.3855	0.0895	960771	keystroke_d	d	n/a
480.5955	0.075	961191	keystroke_e	e	n/a
480.8355	0.09	961671	keystroke_l	l	n/a
481.075	0.06	962150	keystroke_p	p	n/a
481.2405	0.0605	962481	keystroke_h	h	n/a
481.375	0.09	962750	keystroke_i	i	n/a
481.6595	0.105	963319	keystroke_a	a	n/a
481.87	0.0745	963740	keystroke_Key.space	Key.space	n/a
482.1705	0.075	964341	keystroke_b	b	n/a
482.3055	0.09	964611	keystroke_l	l	n/a
482.5305	0.059	965061	keystroke_o	o	n/a
482.965	0.075	965930	keystroke_w	w	n/a
483.25	0.135	966500	keystroke_i	i	n/a
483.325	0.2095	966650	keystroke_n	n	n/a
483.4605	0.104	966921	keystroke_g	g	n/a
483.7445	0.06	967489	keystroke_Key.space	Key.space	n/a
484.0445	0.075	968089	keystroke_g	g	n/a
484.2245	0.09	968449	keystroke_o	o	n/a
484.5245	0.076	969049	keystroke_v	v	n/a
484.87	0.105	969740	keystroke_e	e	n/a
484.946	0.134	969892	keystroke_r	r	n/a
485.2305	0.1045	970461	keystroke_i	i	n/a
485.2755	0.2095	970551	keystroke_n	n	n/a
485.41	0.105	970820	keystroke_g	g	n/a
485.545	0.075	971090	keystroke_Key.space	Key.space	n/a
485.785	0.1355	971570	keystroke_r	r	n/a
485.8895	0.091	971779	keystroke_e	e	n/a
486.1595	0.075	972319	keystroke_c	c	n/a
486.3405	0.059	972681	keystroke_e	e	n/a
486.46	0.0905	972920	keystroke_i	i	n/a
486.6855	0.09	973371	keystroke_v	v	n/a
486.865	0.1195	973730	keystroke_e	e	n/a
486.97	0.1045	973940	keystroke_r	r	n/a
487.1945	0.091	974389	keystroke_s	s	n/a
487.405	0.0895	974810	keystroke_Key.enter	Key.enter	n/a
487.516	6.8505	975032	prompt	n/a	morning tears mark ingredients\n
488.2145	0.075	976429	keystroke_m	m	n/a
488.335	0.1055	976670	keystroke_o	o	n/a
488.4845	0.0755	976969	keystroke_r	r	n/a
488.6055	0.075	977211	keystroke_n	n	n/a
488.7695	0.1355	977539	keystroke_i	i	n/a
488.8445	0.166	977689	keystroke_n	n	n/a
488.95	0.12	977900	keystroke_g	g	n/a
489.055	0.091	978110	keystroke_Key.space	Key.space	n/a
489.25	0.075	978500	keystroke_t	t	n/a
489.4	0.09	978800	keystroke_e	e	n/a
489.55	0.1195	979100	keystroke_a	a	n/a
489.985	0.09	979970	keystroke_r	r	n/a
490.225	0.0755	980450	keystroke_s	s	n/a
490.3595	0.0755	980719	keystroke_Key.space	Key.space	n/a
490.6755	0.0895	981351	keystroke_m	m	n/a
490.7805	0.1045	981561	keystroke_a	a	n/a
490.855	0.12	981710	keystroke_r	r	n/a
491.05	0.09	982100	keystroke_k	k	n/a
491.185	0.06	982370	keystroke_Key.space	Key.space	n/a
491.4255	0.059	982851	keystroke_i	i	n/a
491.815	0.076	983630	keystroke_n	n	n/a
492.0545	0.091	984109	keystroke_g	g	n/a
492.5655	0.09	985131	keystroke_r	r	n/a
492.8355	0.075	985671	keystroke_e	e	n/a
493.18	0.09	986360	keystroke_d	d	n/a
493.345	0.09	986690	keystroke_i	i	n/a
493.705	0.0755	987410	keystroke_e	e	n/a
493.81	0.09	987620	keystroke_n	n	n/a
493.915	0.0605	987830	keystroke_t	t	n/a
494.0655	0.1045	988131	keystroke_s	s	n/a
494.275	0.09	988550	keystroke_Key.enter	Key.enter	n/a
494.371	13.241	988742	prompt	n/a	entitled punishment practical proposition\n
495.2945	0.075	990589	keystroke_e	e	n/a
495.4145	0.09	990829	keystroke_n	n	n/a
495.685	0.0905	991370	keystroke_t	t	n/a
495.8195	0.075	991639	keystroke_i	i	n/a
496.3605	0.0895	992721	keystroke_t	t	n/a
497.1255	0.0145	994251	keystroke_l	l	n/a
497.1555	0.0605	994311	keystroke_e	e	n/a
497.455	0.0905	994910	keystroke_d	d	n/a
497.605	0.075	995210	keystroke_Key.space	Key.space	n/a
497.8295	0.0905	995659	keystroke_p	p	n/a
497.996	0.0895	995992	keystroke_u	u	n/a
498.249	0.077	996498	keystroke_n	n	n/a
498.8505	0.0595	997701	keystroke_i	i	n/a
499.0455	0.089	998091	keystroke_s	s	n/a
499.1645	0.0915	998329	keystroke_h	h	n/a
499.4795	0.06	998959	keystroke_Key.space	Key.space	n/a
499.8705	0.074	999741	keystroke_Key.backspace	Key.backspace	n/a
500.1095	0.0905	1000219	keystroke_m	m	n/a
500.2295	0.0755	1000459	keystroke_e	e	n/a
500.3495	0.09	1000699	keystroke_n	n	n/a
500.4545	0.0755	1000909	keystroke_t	t	n/a
500.5595	0.075	1001119	keystroke_Key.space	Key.space	n/a
500.7695	0.1055	1001539	keystroke_p	p	n/a
500.8905	0.075	1001781	keystroke_r	r	n/a
500.9955	0.074	1001991	keystroke_o	o	n/a
501.6095	0.045	1003219	keystroke_Key.backspace	Key.backspace	n/a
501.8355	0.06	1003671	keystroke_c	c	n/a
502.0155	0.0895	1004031	keystroke_a	a	n/a
503.26	0.06	1006520	keystroke_Key.backspace	Key.backspace	n/a
503.425	0.0605	1006850	keystroke_Key.backspace	Key.backspace	n/a
503.6505	0.0895	1007301	keystroke_a	a	n/a
503.9355	0.0895	1007871	keystroke_c	c	n/a
504.3105	0.09	1008621	keystroke_t	t	n/a
504.4295	0.09	1008859	keystroke_i	i	n/a
504.64	0.0905	1009280	keystroke_c	c	n/a
504.82	0.1055	1009640	keystroke_a	a	n/a
504.9555	0.119	1009911	keystroke_l	l	n/a
505.0895	0.0605	1010179	keystroke_Key.space	Key.space	n/a
505.2705	0.0745	1010541	keystroke_p	p	n/a
505.5705	0.0595	1011141	keystroke_r	r	n/a
505.6755	0.09	1011351	keystroke_o	o	n/a
505.8855	0.089	1011771	keystroke_p	p	n/a
506.0805	0.0745	1012161	keystroke_o	o	n/a
506.305	0.1055	1012610	keystroke_s	s	n/a
506.485	0.076	1012970	keystroke_i	i	n/a
506.71	0.0755	1013420	keystroke_t	t	n/a
506.786	0.1335	1013572	keystroke_i	i	n/a
506.8905	0.165	1013781	keystroke_o	o	n/a
507.01	0.1645	1014020	keystroke_n	n	n/a
507.52	0.0895	1015040	keystroke_Key.enter	Key.enter	n/a
507.627	7.1545	1015254	prompt	n/a	holly travis homeland informal\n
508.5995	0.0605	1017199	keystroke_h	h	n/a
508.7645	0.0895	1017529	keystroke_o	o	n/a
509.005	0.0605	1018010	keystroke_l	l	n/a
509.125	0.0905	1018250	keystroke_l	l	n/a
509.29	0.0905	1018580	keystroke_y	y	n/a
509.5005	0.0595	1019001	keystroke_Key.space	Key.space	n/a
509.785	0.075	1019570	keystroke_t	t	n/a
509.9505	0.0745	1019901	keystroke_r	r	n/a
510.1	0.105	1020200	keystroke_a	a	n/a
510.415	0.09	1020830	keystroke_v	v	n/a
510.595	0.09	1021190	keystroke_i	i	n/a
510.985	0.06	1021970	keystroke_s	s	n/a
511.15	0.075	1022300	keystroke_Key.space	Key.space	n/a
511.495	0.0745	1022990	keystroke_h	h	n/a
511.63	0.1045	1023260	keystroke_o	o	n/a
511.8255	0.104	1023651	keystroke_m	m	n/a
512.1245	0.0755	1024249	keystroke_e	e	n/a
512.3495	0.075	1024699	keystroke_l	l	n/a
512.455	0.1045	1024910	keystroke_a	a	n/a
512.575	0.0895	1025150	keystroke_n	n	n/a
512.6945	0.09	1025389	keystroke_d	d	n/a
512.8445	0.061	1025689	keystroke_Key.space	Key.space	n/a
513.0695	0.061	1026139	keystroke_i	i	n/a
513.19	0.09	1026380	keystroke_n	n	n/a
513.385	0.0755	1026770	keystroke_f	f	n/a
513.475	0.105	1026950	keystroke_o	o	n/a
513.625	0.091	1027250	keystroke_r	r	n/a
513.97	0.09	1027940	keystroke_m	m	n/a
514.165	0.105	1028330	keystroke_a	a	n/a
514.36	0.1045	1028720	keystroke_l	l	n/a
514.7045	0.0755	1029409	keystroke_Key.enter	Key.enter	n/a
514.7865	13.27	1029573	prompt	n/a	contributor several dust governing\n
515.516	0.1035	1031032	keystroke_c	c	n/a
515.6345	0.076	1031269	keystroke_o	o	n/a
515.7115	0.134	1031423	keystroke_n	n	n/a
515.9955	0.0595	1031991	keystroke_t	t	n/a
516.16	0.075	1032320	keystroke_r	r	n/a
516.3405	0.0595	1032681	keystroke_i	i	n/a
516.67	0.016	1033340	keystroke_b	b	n/a
516.7	0.09	1033400	keystroke_u	u	n/a
516.8655	0.0745	1033731	keystroke_t	t	n/a
516.9995	0.091	1033999	keystroke_o	o	n/a
517.1205	0.09	1034241	keystroke_r	r	n/a
517.2545	0.06	1034509	keystroke_Key.space	Key.space	n/a
517.5095	0.105	1035019	keystroke_s	s	n/a
517.7055	0.0745	1035411	keystroke_e	e	n/a
517.915	0.0595	1035830	keystroke_v	v	n/a
518.0795	0.0605	1036159	keystroke_e	e	n/a
518.2305	0.104	1036461	keystroke_r	r	n/a
518.3805	0.12	1036761	keystroke_a	a	n/a
518.515	0.0905	1037030	keystroke_l	l	n/a
518.6495	0.0605	1037299	keystroke_Key.space	Key.space	n/a
518.8455	0.0895	1037691	keystroke_d	d	n/a
518.9645	0.0905	1037929	keystroke_u	u	n/a
519.1005	0.089	1038201	keystroke_s	s	n/a
519.28	0.06	1038560	keystroke_Key.space	Key.space	n/a
519.655	0.075	1039310	keystroke_g	g	n/a
519.8505	0.09	1039701	keystroke_o	o	n/a
519.9995	0.091	1039999	keystroke_v	v	n/a
520.195	0.09	1040390	keystroke_e	e	n/a
520.2695	0.121	1040539	keystroke_r	r	n/a
520.4955	0.06	1040991	keystroke_n	n	n/a
520.6445	0.151	1041289	keystroke_i	i	n/a
520.735	0.1955	1041470	keystroke_n	n	n/a
520.885	0.0905	1041770	keystroke_g	g	n/a
523.123	0.001	1046246	keystroke_Key.backspace	Key.backspace	n/a
523.209	0.076	1046418	keystroke_Key.backspace	Key.backspace	n/a
523.36	0.075	1046720	keystroke_Key.backspace	Key.backspace	n/a
523.524	0.076	1047048	keystroke_Key.backspace	Key.backspace	n/a
523.69	0.075	1047380	keystroke_Key.backspace	Key.backspace	n/a
523.8555	0.075	1047711	keystroke_Key.backspace	Key.backspace	n/a
524.035	0.0605	1048070	keystroke_Key.backspace	Key.backspace	n/a
524.215	0.0605	1048430	keystroke_Key.backspace	Key.backspace	n/a
524.4555	0.09	1048911	keystroke_Key.backspace	Key.backspace	n/a
524.7695	0.06	1049539	keystroke_Key.backspace	Key.backspace	n/a
525.3105	0.059	1050621	keystroke_t	t	n/a
525.6545	0.06	1051309	keystroke_Key.space	Key.space	n/a
526.5395	0.0605	1053079	keystroke_g	g	n/a
526.615	0.105	1053230	keystroke_o	o	n/a
526.735	0.0895	1053470	keystroke_v	v	n/a
