onset	duration	sample	value	key	prompt_text
3.363	10.3745	6726	prompt	n/a	the quick brown fox jumps over a lazy dog\n
5.7875	0.001	11575	keystroke	t	n/a
5.7875	0.087	11575	keystroke	h	n/a
5.8595	0.0755	11719	keystroke	e	n/a
5.965	0.074	11930	keystroke	Key.space	n/a
6.2055	0.0745	12411	keystroke	q	n/a
6.2655	0.0745	12531	keystroke	u	n/a
6.385	0.1195	12770	keystroke	i	n/a
6.5505	0.06	13101	keystroke	c	n/a
6.6245	0.091	13249	keystroke	k	n/a
6.7605	0.0445	13521	keystroke	Key.space	n/a
7.2545	0.061	14509	keystroke	b	n/a
7.9755	0.09	15951	keystroke	r	n/a
8.4105	0.09	16821	keystroke	o	n/a
8.6355	0.09	17271	keystroke	w	n/a
8.7105	0.104	17421	keystroke	n	n/a
8.8745	0.06	17749	keystroke	Key.space	n/a
9.145	0.0745	18290	keystroke	f	n/a
9.25	0.0905	18500	keystroke	o	n/a
9.3855	0.074	18771	keystroke	x	n/a
9.5355	0.074	19071	keystroke	Key.space	n/a
9.731	0.0595	19462	keystroke	j	n/a
9.8955	0.06	19791	keystroke	u	n/a
10.0605	0.075	20121	keystroke	m	n/a
10.196	0.0895	20392	keystroke	p	n/a
10.4655	0.074	20931	keystroke	s	n/a
10.615	0.075	21230	keystroke	Key.space	n/a
10.8395	0.076	21679	keystroke	o	n/a
10.9305	0.0895	21861	keystroke	v	n/a
11.08	0.0905	22160	keystroke	e	n/a
11.1555	0.105	22311	keystroke	r	n/a
11.2745	0.075	22549	keystroke	Key.space	n/a
11.38	0.1195	22760	keystroke	a	n/a
11.515	0.0745	23030	keystroke	Key.space	n/a
11.7855	0.1045	23571	keystroke	l	n/a
11.9955	0.0895	23991	keystroke	a	n/a
12.4755	0.119	24951	keystroke	z	n/a
12.609	0.0755	25218	keystroke	y	n/a
12.834	0.045	25668	keystroke	Key.space	n/a
13.1205	0.09	26241	keystroke	d	n/a
13.2255	0.09	26451	keystroke	o	n/a
13.3295	0.076	26659	keystroke	g	n/a
13.6445	0.09	27289	keystroke	Key.enter	n/a
13.743	9.4585	27486	prompt	n/a	worm consolidated form juvenile\n
15.01	0.1055	30020	keystroke	w	n/a
15.205	0.1055	30410	keystroke	o	n/a
15.4605	0.09	30921	keystroke	r	n/a
15.61	0.1055	31220	keystroke	m	n/a
15.9995	0.06	31999	keystroke	Key.space	n/a
16.5105	0.089	33021	keystroke	s	n/a
16.6455	0.09	33291	keystroke	o	n/a
17.4095	0.061	34819	keystroke	Key.backspace	n/a
17.5605	0.074	35121	keystroke	Key.backspace	n/a
17.7395	0.061	35479	keystroke	c	n/a
17.845	0.1345	35690	keystroke	o	n/a
17.9345	0.135	35869	keystroke	n	n/a
18.19	0.1055	36380	keystroke	s	n/a
18.31	0.0905	36620	keystroke	o	n/a
18.6695	0.061	37339	keystroke	l	n/a
18.775	0.1055	37550	keystroke	i	n/a
18.94	0.075	37880	keystroke	d	n/a
18.999	0.1665	37998	keystroke	a	n/a
19.1055	0.119	38211	keystroke	t	n/a
19.2545	0.06	38509	keystroke	e	n/a
19.4655	0.045	38931	keystroke	d	n/a
19.555	0.1195	39110	keystroke	Key.space	n/a
19.8555	0.06	39711	keystroke	f	n/a
20.005	0.0605	40010	keystroke	r	n/a
20.7105	0.059	41421	keystroke	Key.backspace	n/a
20.9355	0.09	41871	keystroke	o	n/a
21.085	0.0755	42170	keystroke	r	n/a
21.2195	0.091	42439	keystroke	m	n/a
21.43	0.0295	42860	keystroke	Key.space	n/a
21.6255	0.075	43251	keystroke	j	n/a
21.8055	0.0595	43611	keystroke	u	n/a
22.119	0.091	44238	keystroke	v	n/a
22.3	0.075	44600	keystroke	e	n/a
22.4645	0.075	44929	keystroke	n	n/a
22.6145	0.0755	45229	keystroke	i	n/a
22.8555	0.0895	45711	keystroke	l	n/a
22.93	0.0745	45860	keystroke	e	n/a
23.1245	0.0755	46249	keystroke	Key.enter	n/a
23.2165	7.9505	46433	prompt	n/a	performs promises paul pushed\n
23.98	0.0905	47960	keystroke	p	n/a
24.0405	0.1195	48081	keystroke	e	n/a
24.1305	0.105	48261	keystroke	r	n/a
24.385	0.075	48770	keystroke	f	n/a
24.475	0.105	48950	keystroke	o	n/a
24.595	0.0755	49190	keystroke	r	n/a
24.7155	0.1045	49431	keystroke	m	n/a
24.8645	0.0905	49729	keystroke	s	n/a
25.015	0.075	50030	keystroke	Key.space	n/a
25.2855	0.1045	50571	keystroke	p	n/a
25.3755	0.089	50751	keystroke	r	n/a
25.48	0.09	50960	keystroke	o	n/a
25.7045	0.0905	51409	keystroke	m	n/a
25.855	0.0905	51710	keystroke	i	n/a
25.9905	0.1045	51981	keystroke	s	n/a
26.0955	0.0895	52191	keystroke	e	n/a
26.3345	0.0755	52669	keystroke	d	n/a
26.89	0.09	53780	keystroke	Key.backspace	n/a
27.0245	0.106	54049	keystroke	s	n/a
27.5645	0.06	55129	keystroke	Key.space	n/a
27.865	0.0905	55730	keystroke	p	n/a
28.076	0.089	56152	keystroke	a	n/a
28.181	0.074	56362	keystroke	u	n/a
28.405	0.0755	56810	keystroke	l	n/a
30.1895	0.0755	60379	keystroke	p	n/a
30.3105	0.0895	60621	keystroke	u	n/a
30.55	0.091	61100	keystroke	s	n/a
30.655	0.09	61310	keystroke	h	n/a
30.7605	0.0745	61521	keystroke	e	n/a
30.9255	0.089	61851	keystroke	d	n/a
31.075	0.09	62150	keystroke	Key.enter	n/a
31.1735	6.608	62347	prompt	n/a	perl socks elected outsourcing\n
31.9445	0.091	63889	keystroke	p	n/a
32.0945	0.0905	64189	keystroke	e	n/a
32.41	0.09	64820	keystroke	r	n/a
32.6505	0.105	65301	keystroke	l	n/a
32.785	0.0595	65570	keystroke	Key.space	n/a
32.9795	0.0755	65959	keystroke	s	n/a
33.085	0.0905	66170	keystroke	o	n/a
33.2655	0.0745	66531	keystroke	c	n/a
33.37	0.0905	66740	keystroke	k	n/a
33.6705	0.0895	67341	keystroke	s	n/a
33.8045	0.09	67609	keystroke	Key.space	n/a
34.09	0.075	68180	keystroke	e	n/a
34.1795	0.121	68359	keystroke	l	n/a
34.3005	0.0595	68601	keystroke	e	n/a
34.495	0.0455	68990	keystroke	c	n/a
34.899	0.091	69798	keystroke	t	n/a
35.29	0.06	70580	keystroke	e	n/a
35.485	0.09	70970	keystroke	d	n/a
35.605	0.06	71210	keystroke	Key.space	n/a
35.8905	0.074	71781	keystroke	o	n/a
35.9805	0.119	71961	keystroke	u	n/a
36.1445	0.076	72289	keystroke	t	n/a
36.4295	0.1055	72859	keystroke	s	n/a
36.55	0.12	73100	keystroke	o	n/a
36.6405	0.1345	73281	keystroke	u	n/a
36.79	0.0755	73580	keystroke	r	n/a
37.0305	0.09	74061	keystroke	c	n/a
37.315	0.1495	74630	keystroke	i	n/a
37.3905	0.164	74781	keystroke	n	n/a
37.48	0.105	74960	keystroke	g	n/a
37.69	0.0895	75380	keystroke	Key.enter	n/a
37.7985	7.214	75597	prompt	n/a	introductory designer enormous curve\n
38.53	0.1495	77060	keystroke	i	n/a
38.6195	0.166	77239	keystroke	n	n/a
38.7865	0.0875	77573	keystroke	t	n/a
39.0705	0.0745	78141	keystroke	r	n/a
39.1755	0.105	78351	keystroke	o	n/a
39.3855	0.089	78771	keystroke	d	n/a
39.4905	0.09	78981	keystroke	u	n/a
39.6255	0.09	79251	keystroke	c	n/a
39.8055	0.0595	79611	keystroke	t	n/a
40.0745	0.091	80149	keystroke	o	n/a
40.1955	0.074	80391	keystroke	r	n/a
40.2845	0.09	80569	keystroke	y	n/a
40.3895	0.0605	80779	keystroke	Key.space	n/a
40.6295	0.075	81259	keystroke	d	n/a
40.8095	0.061	81619	keystroke	e	n/a
40.96	0.06	81920	keystroke	s	n/a
41.08	0.075	82160	keystroke	i	n/a
41.1845	0.06	82369	keystroke	g	n/a
41.2605	0.1195	82521	keystroke	n	n/a
41.3655	0.0895	82731	keystroke	e	n/a
41.44	0.1055	82880	keystroke	r	n/a
41.56	0.075	83120	keystroke	Key.space	n/a
41.83	0.06	83660	keystroke	e	n/a
41.95	0.075	83900	keystroke	n	n/a
42.355	0.075	84710	keystroke	o	n/a
42.94	0.09	85880	keystroke	r	n/a
43.225	0.09	86450	keystroke	m	n/a
43.525	0.105	87050	keystroke	o	n/a
43.6	0.135	87200	keystroke	u	n/a
43.7805	0.0895	87561	keystroke	s	n/a
43.975	0.06	87950	keystroke	Key.space	n/a
44.1995	0.075	88399	keystroke	c	n/a
44.3205	0.09	88641	keystroke	u	n/a
44.4255	0.074	88851	keystroke	r	n/a
44.6355	0.06	89271	keystroke	v	n/a
44.7395	0.075	89479	keystroke	e	n/a
44.905	0.105	89810	keystroke	Key.enter	n/a
45.0185	10.974	90037	prompt	n/a	obituaries constitute trader unsubscribe\n
45.985	0.0745	91970	keystroke	o	n/a
46.1645	0.09	92329	keystroke	b	n/a
46.57	0.0605	93140	keystroke	i	n/a
46.9445	0.0755	93889	keystroke	t	n/a
47.125	0.0745	94250	keystroke	u	n/a
47.4545	0.1365	94909	keystroke	a	n/a
47.754	0.0755	95508	keystroke	r	n/a
47.8445	0.09	95689	keystroke	i	n/a
47.9495	0.0605	95899	keystroke	e	n/a
48.0555	0.1045	96111	keystroke	s	n/a
48.1895	0.0605	96379	keystroke	Key.space	n/a
48.385	0.0755	96770	keystroke	c	n/a
48.6555	0.0295	97311	keystroke	o	n/a
48.67	0.12	97340	keystroke	n	n/a
48.955	0.0905	97910	keystroke	s	n/a
49.2245	0.0755	98449	keystroke	t	n/a
49.345	0.075	98690	keystroke	i	n/a
49.4805	0.075	98961	keystroke	t	n/a
49.6005	0.1045	99201	keystroke	u	n/a
49.9455	0.0745	99891	keystroke	t	n/a
50.065	0.075	100130	keystroke	e	n/a
50.26	0.06	100520	keystroke	Key.space	n/a
50.456	0.0745	100912	keystroke	t	n/a
50.621	0.074	101242	keystroke	r	n/a
50.755	0.09	101510	keystroke	a	n/a
50.9805	0.059	101961	keystroke	d	n/a
51.1455	0.074	102291	keystroke	e	n/a
51.2945	0.09	102589	keystroke	r	n/a
51.4145	0.06	102829	keystroke	Key.space	n/a
51.7295	0.0755	103459	keystroke	u	n/a
51.9095	0.075	103819	keystroke	n	n/a
52.1345	0.09	104269	keystroke	s	n/a
52.375	0.0755	104750	keystroke	u	n/a
52.5705	0.0745	105141	keystroke	b	n/a
53.08	0.075	106160	keystroke	s	n/a
53.9645	0.106	107929	keystroke	c	n/a
55.3005	0.075	110601	keystroke	r	n/a
55.4055	0.089	110811	keystroke	i	n/a
55.5405	0.06	111081	keystroke	b	n/a
55.66	0.0895	111320	keystroke	e	n/a
55.8995	0.0905	111799	keystroke	Key.enter	n/a
55.999	9.893	111998	prompt	n/a	considers devoted remark barbara\n
56.89	0.1045	113780	keystroke	s	n/a
56.9495	0.1805	113899	keystroke	o	n/a
57.04	0.2105	114080	keystroke	n	n/a
57.52	0.059	115040	keystroke	Key.backspace	n/a
57.6845	0.075	115369	keystroke	Key.backspace	n/a
57.8355	0.089	115671	keystroke	Key.backspace	n/a
58.0455	0.074	116091	keystroke	c	n/a
58.1355	0.135	116271	keystroke	o	n/a
58.2255	0.135	116451	keystroke	n	n/a
58.4805	0.104	116961	keystroke	s	n/a
58.5995	0.075	117199	keystroke	i	n/a
58.72	0.0895	117440	keystroke	d	n/a
58.8695	0.1355	117739	keystroke	r	n/a
59.0355	0.0595	118071	keystroke	e	n/a
59.68	0.09	119360	keystroke	Key.backspace	n/a
59.8755	0.0895	119751	keystroke	s	n/a
60.205	0.06	120410	keystroke	Key.backspace	n/a
60.37	0.075	120740	keystroke	Key.backspace	n/a
60.505	0.09	121010	keystroke	e	n/a
60.565	0.1205	121130	keystroke	r	n/a
61.06	0.1195	122120	keystroke	s	n/a
61.405	0.0595	122810	keystroke	Key.space	n/a
61.9	0.09	123800	keystroke	d	n/a
62.0945	0.045	124189	keystroke	e	n/a
62.3655	0.059	124731	keystroke	v	n/a
62.4705	0.12	124941	keystroke	o	n/a
62.635	0.09	125270	keystroke	t	n/a
62.785	0.0745	125570	keystroke	e	n/a
62.9655	0.0745	125931	keystroke	d	n/a
63.085	0.0595	126170	keystroke	Key.space	n/a
63.34	0.09	126680	keystroke	r	n/a
63.445	0.0745	126890	keystroke	e	n/a
63.6705	0.0895	127341	keystroke	m	n/a
63.79	0.12	127580	keystroke	a	n/a
63.88	0.1055	127760	keystroke	r	n/a
64.165	0.0155	128330	keystroke	k	n/a
64.2245	0.0605	128449	keystroke	Key.space	n/a
64.495	0.06	128990	keystroke	b	n/a
64.6145	0.1205	129229	keystroke	a	n/a
64.87	0.09	129740	keystroke	r	n/a
65.2005	0.0445	130401	keystroke	b	n/a
65.305	0.0905	130610	keystroke	a	n/a
65.4555	0.075	130911	keystroke	r	n/a
65.5745	0.1055	131149	keystroke	a	n/a
65.7855	0.1045	131571	keystroke	Key.enter	n/a
65.902	6.07	131804	prompt	n/a	metal connectivity detector out\n
66.7	0.1045	133400	keystroke	m	n/a
66.79	0.075	133580	keystroke	e	n/a
66.8795	0.091	133759	keystroke	t	n/a
67.0155	0.119	134031	keystroke	a	n/a
67.1205	0.1045	134241	keystroke	l	n/a
67.27	0.045	134540	keystroke	Key.space	n/a
67.4505	0.0745	134901	keystroke	c	n/a
67.4955	0.12	134991	keystroke	o	n/a
67.5855	0.12	135171	keystroke	n	n/a
67.8105	0.089	135621	keystroke	n	n/a
67.9295	0.076	135859	keystroke	e	n/a
68.1255	0.06	136251	keystroke	c	n/a
68.3055	0.059	136611	keystroke	t	n/a
68.605	0.0595	137210	keystroke	i	n/a
68.995	0.075	137990	keystroke	v	n/a
69.13	0.06	138260	keystroke	i	n/a
69.2355	0.0895	138471	keystroke	t	n/a
69.34	0.09	138680	keystroke	y	n/a
69.565	0.045	139130	keystroke	Key.space	n/a
69.7605	0.0745	139521	keystroke	d	n/a
69.94	0.06	139880	keystroke	e	n/a
70.1205	0.075	140241	keystroke	t	n/a
70.42	0.0455	140840	keystroke	e	n/a
70.63	0.0595	141260	keystroke	c	n/a
70.8545	0.09	141709	keystroke	t	n/a
71.0205	0.105	142041	keystroke	o	n/a
71.1105	0.0895	142221	keystroke	r	n/a
71.26	0.0745	142520	keystroke	Key.space	n/a
71.441	0.0885	142882	keystroke	o	n/a
71.531	0.1185	143062	keystroke	u	n/a
71.6495	0.0905	143299	keystroke	t	n/a
71.8595	0.105	143719	keystroke	Key.enter	n/a
71.9895	7.8975	143979	prompt	n/a	accessed licensed replied wireless\n
72.6695	0.106	145339	keystroke	a	n/a
72.9255	0.0595	145851	keystroke	c	n/a
73.0905	0.06	146181	keystroke	c	n/a
73.269	0.091	146538	keystroke	e	n/a
73.6005	0.0445	147201	keystroke	s	n/a
73.735	0.075	147470	keystroke	s	n/a
74.1995	0.061	148399	keystroke	e	n/a
74.335	0.0905	148670	keystroke	d	n/a
74.4545	0.075	148909	keystroke	Key.space	n/a
74.7255	0.075	149451	keystroke	l	n/a
74.8605	0.075	149721	keystroke	i	n/a
75.1005	0.09	150201	keystroke	c	n/a
75.3545	0.075	150709	keystroke	e	n/a
75.475	0.0895	150950	keystroke	n	n/a
75.7445	0.076	151489	keystroke	s	n/a
75.8645	0.091	151729	keystroke	e	n/a
76.15	0.0755	152300	keystroke	d	n/a
76.2855	0.06	152571	keystroke	Key.space	n/a
76.6305	0.105	153261	keystroke	r	n/a
76.7205	0.06	153441	keystroke	e	n/a
76.8855	0.075	153771	keystroke	p	n/a
77.0805	0.074	154161	keystroke	l	n/a
77.2005	0.1035	154401	keystroke	i	n/a
77.305	0.074	154610	keystroke	e	n/a
77.469	0.0905	154938	keystroke	d	n/a
77.5895	0.091	155179	keystroke	Key.space	n/a
77.8155	0.075	155631	keystroke	w	n/a
78.2645	0.076	156529	keystroke	i	n/a
78.4305	0.0745	156861	keystroke	r	n/a
78.565	0.09	157130	keystroke	e	n/a
78.835	0.12	157670	keystroke	l	n/a
78.97	0.06	157940	keystroke	e	n/a
79.12	0.075	158240	keystroke	s	n/a
79.3	0.075	158600	keystroke	s	n/a
79.8095	0.075	159619	keystroke	Key.enter	n/a
79.8945	8.467	159789	prompt	n/a	creative copyright essays analyzes\n
80.5745	0.075	161149	keystroke	c	n/a
80.7555	0.0595	161511	keystroke	r	n/a
80.8295	0.0905	161659	keystroke	e	n/a
80.9345	0.1205	161869	keystroke	a	n/a
81.025	0.12	162050	keystroke	t	n/a
81.2805	0.0895	162561	keystroke	i	n/a
81.401	0.0745	162802	keystroke	v	n/a
81.5205	0.0895	163041	keystroke	e	n/a
81.625	0.075	163250	keystroke	Key.space	n/a
81.7895	0.106	163579	keystroke	c	n/a
81.9105	0.09	163821	keystroke	o	n/a
82.0595	0.091	164119	keystroke	p	n/a
82.165	0.105	164330	keystroke	y	n/a
82.554	0.076	165108	keystroke	r	n/a
82.675	0.0755	165350	keystroke	i	n/a
82.7655	0.0585	165531	keystroke	g	n/a
82.84	0.105	165680	keystroke	h	n/a
82.93	0.0755	165860	keystroke	t	n/a
83.0495	0.0605	166099	keystroke	Key.space	n/a
83.3055	0.074	166611	keystroke	e	n/a
83.559	0.106	167118	keystroke	a	n/a
83.965	0.075	167930	keystroke	Key.backspace	n/a
84.1605	0.0435	168321	keystroke	s	n/a
84.295	0.075	168590	keystroke	s	n/a
84.415	0.1055	168830	keystroke	a	n/a
84.58	0.091	169160	keystroke	y	n/a
84.8355	0.0895	169671	keystroke	s	n/a
84.97	0.075	169940	keystroke	Key.space	n/a
85.3005	0.1045	170601	keystroke	a	n/a
85.42	0.09	170840	keystroke	n	n/a
85.57	0.12	171140	keystroke	a	n/a
85.87	0.091	171740	keystroke	l	n/a
86.08	0.09	172160	keystroke	y	n/a
87.4	0.075	174800	keystroke	z	n/a
87.6105	0.06	175221	keystroke	e	n/a
88.0295	0.091	176059	keystroke	s	n/a
88.2845	0.075	176569	keystroke	Key.enter	n/a
88.367	6.4145	176734	prompt	n/a	ebooks betty marie biography\n
89.0945	0.091	178189	keystroke	e	n/a
89.3795	0.0905	178759	keystroke	b	n/a
89.5	0.06	179000	keystroke	o	n/a
89.6345	0.091	179269	keystroke	o	n/a
89.95	0.0745	179900	keystroke	k	n/a
90.1595	0.091	180319	keystroke	s	n/a
90.31	0.0895	180620	keystroke	Key.space	n/a
90.58	0.0755	181160	keystroke	b	n/a
90.7445	0.061	181489	keystroke	e	n/a
90.8955	0.06	181791	keystroke	t	n/a
91.045	0.06	182090	keystroke	t	n/a
91.21	0.09	182420	keystroke	y	n/a
91.375	0.06	182750	keystroke	Key.space	n/a
91.66	0.0895	183320	keystroke	m	n/a
91.7505	0.119	183501	keystroke	a	n/a
91.8395	0.106	183679	keystroke	r	n/a
92.08	0.0895	184160	keystroke	i	n/a
92.2155	0.075	184431	keystroke	e	n/a
92.4545	0.045	184909	keystroke	Key.space	n/a
92.7405	0.074	185481	keystroke	b	n/a
92.8605	0.075	185721	keystroke	i	n/a
93.1755	0.09	186351	keystroke	o	n/a
93.5495	0.061	187099	keystroke	g	n/a
93.7	0.075	187400	keystroke	r	n/a
93.8505	0.1045	187701	keystroke	a	n/a
94.105	0.0595	188210	keystroke	p	n/a
94.2095	0.0905	188419	keystroke	h	n/a
94.42	0.0595	188840	keystroke	y	n/a
94.69	0.09	189380	keystroke	Key.enter	n/a
94.7875	5.787	189575	prompt	n/a	stones undertake sound writings\n
95.515	0.09	191030	keystroke	s	n/a
95.6655	0.075	191331	keystroke	t	n/a
95.7705	0.1345	191541	keystroke	o	n/a
95.8595	0.1655	191719	keystroke	n	n/a
95.98	0.075	191960	keystroke	e	n/a
96.1145	0.106	192229	keystroke	s	n/a
96.2645	0.06	192529	keystroke	Key.space	n/a
96.4895	0.0755	192979	keystroke	u	n/a
96.6695	0.075	193339	keystroke	n	n/a
96.925	0.09	193850	keystroke	d	n/a
97.121	0.1045	194242	keystroke	e	n/a
97.21	0.09	194420	keystroke	r	n/a
97.435	0.06	194870	keystroke	t	n/a
97.555	0.105	195110	keystroke	a	n/a
97.72	0.09	195440	keystroke	k	n/a
97.855	0.06	195710	keystroke	e	n/a
97.99	0.06	195980	keystroke	Key.space	n/a
98.2	0.105	196400	keystroke	s	n/a
98.29	0.1345	196580	keystroke	o	n/a
98.3805	0.1045	196761	keystroke	u	n/a
98.56	0.1205	197120	keystroke	n	n/a
98.695	0.105	197390	keystroke	d	n/a
98.815	0.0745	197630	keystroke	Key.space	n/a
99.1305	0.0895	198261	keystroke	w	n/a
99.4455	0.075	198891	keystroke	r	n/a
99.565	0.1055	199130	keystroke	i	n/a
99.745	0.075	199490	keystroke	t	n/a
99.9255	0.165	199851	keystroke	i	n/a
100.0145	0.181	200029	keystroke	n	n/a
100.1345	0.0905	200269	keystroke	g	n/a
100.3005	0.1045	200601	keystroke	s	n/a
100.4795	0.09	200959	keystroke	Key.enter	n/a
100.58	5.7965	201160	prompt	n/a	genius dreams argued follows\n
101.2605	0.075	202521	keystroke	g	n/a
101.3945	0.075	202789	keystroke	e	n/a
101.6055	0.06	203211	keystroke	n	n/a
101.9045	0.06	203809	keystroke	i	n/a
102.0845	0.09	204169	keystroke	u	n/a
102.2495	0.107	204499	keystroke	s	n/a
102.4295	0.06	204859	keystroke	Key.space	n/a
102.7005	0.09	205401	keystroke	d	n/a
102.8505	0.09	205701	keystroke	r	n/a
103	0.075	206000	keystroke	e	n/a
103.18	0.104	206360	keystroke	a	n/a
103.345	0.0905	206690	keystroke	m	n/a
103.615	0.014	207230	keystroke	s	n/a
103.675	0.06	207350	keystroke	Key.space	n/a
103.96	0.0895	207920	keystroke	a	n/a
104.1095	0.0755	208219	keystroke	r	n/a
104.365	0.075	208730	keystroke	g	n/a
104.485	0.091	208970	keystroke	u	n/a
104.62	0.06	209240	keystroke	e	n/a
104.725	0.121	209450	keystroke	s	n/a
104.8745	0.0755	209749	keystroke	Key.space	n/a
105.131	0.0745	210262	keystroke	f	n/a
105.265	0.09	210530	keystroke	o	n/a
105.475	0.06	210950	keystroke	l	n/a
105.61	0.075	211220	keystroke	l	n/a
105.775	0.09	211550	keystroke	o	n/a
105.9095	0.0745	211819	keystroke	w	n/a
106.12	0.09	212240	keystroke	s	n/a
106.284	0.09	212568	keystroke	Key.enter	n/a
106.381	6.2055	212762	prompt	n/a	cardiff bring charged mails\n
107.23	0.075	214460	keystroke	c	n/a
107.3355	0.1345	214671	keystroke	a	n/a
107.44	0.1055	214880	keystroke	r	n/a
107.755	0.09	215510	keystroke	d	n/a
108.131	0.074	216262	keystroke	i	n/a
108.3855	0.0755	216771	keystroke	f	n/a
108.5505	0.0745	217101	keystroke	f	n/a
108.7895	0.045	217579	keystroke	Key.space	n/a
108.9845	0.076	217969	keystroke	b	n/a
109.1795	0.061	218359	keystroke	r	n/a
109.3005	0.0895	218601	keystroke	i	n/a
109.4495	0.1205	218899	keystroke	n	n/a
109.615	0.1045	219230	keystroke	g	n/a
109.7345	0.09	219469	keystroke	Key.space	n/a
110.3345	0.09	220669	keystroke	c	n/a
110.4545	0.075	220909	keystroke	h	n/a
110.545	0.1195	221090	keystroke	a	n/a
110.68	0.1045	221360	keystroke	n	n/a
110.7545	0.09	221509	keystroke	g	n/a
110.8745	0.075	221749	keystroke	e	n/a
111.2195	0.106	222439	keystroke	d	n/a
111.4145	0.0755	222829	keystroke	Key.space	n/a
111.7145	0.09	223429	keystroke	m	n/a
111.7895	0.105	223579	keystroke	a	n/a
112.03	0.075	224060	keystroke	i	n/a
112.1795	0.135	224359	keystroke	l	n/a
112.3	0.09	224600	keystroke	s	n/a
112.5095	0.075	225019	keystroke	Key.enter	n/a
112.5935	5.214	225187	prompt	n/a	precise doing feat optical\n
113.2305	0.105	226461	keystroke	p	n/a
113.3495	0.091	226699	keystroke	r	n/a
113.47	0.089	226940	keystroke	e	n/a
113.875	0.075	227750	keystroke	c	n/a
113.98	0.075	227960	keystroke	i	n/a
114.1	0.12	228200	keystroke	s	n/a
114.205	0.09	228410	keystroke	e	n/a
114.43	0.0595	228860	keystroke	Key.space	n/a
114.6245	0.12	229249	keystroke	d	n/a
114.8045	0.09	229609	keystroke	o	n/a
115.0295	0.136	230059	keystroke	i	n/a
115.1045	0.196	230209	keystroke	n	n/a
115.1955	0.134	230391	keystroke	g	n/a
115.315	0.09	230630	keystroke	Key.space	n/a
115.51	0.0905	231020	keystroke	f	n/a
115.66	0.075	231320	keystroke	e	n/a
115.7805	0.1195	231561	keystroke	a	n/a
115.975	0.09	231950	keystroke	t	n/a
116.155	0.045	232310	keystroke	Key.space	n/a
116.335	0.0755	232670	keystroke	o	n/a
116.455	0.119	232910	keystroke	p	n/a
116.785	0.075	233570	keystroke	t	n/a
116.965	0.0745	233930	keystroke	i	n/a
117.2055	0.089	234411	keystroke	c	n/a
117.3405	0.1045	234681	keystroke	a	n/a
117.4605	0.119	234921	keystroke	l	n/a
117.715	0.0895	235430	keystroke	Key.enter	n/a
117.812	5.2295	235624	prompt	n/a	randy duty garmin facts\n
118.5255	0.06	237051	keystroke	r	n/a
118.9595	0.091	237919	keystroke	a	n/a
119.1105	0.089	238221	keystroke	n	n/a
119.3495	0.076	238699	keystroke	d	n/a
119.485	0.0755	238970	keystroke	y	n/a
119.6345	0.06	239269	keystroke	Key.space	n/a
119.9505	0.074	239901	keystroke	d	n/a
120.0695	0.09	240139	keystroke	u	n/a
120.2045	0.091	240409	keystroke	t	n/a
120.34	0.0895	240680	keystroke	y	n/a
120.4745	0.06	240949	keystroke	Key.space	n/a
120.7145	0.075	241429	keystroke	g	n/a
120.8495	0.1205	241699	keystroke	a	n/a
121.2255	0.075	242451	keystroke	r	n/a
121.4795	0.076	242959	keystroke	m	n/a
121.645	0.09	243290	keystroke	i	n/a
121.75	0.12	243500	keystroke	n	n/a
121.8995	0.075	243799	keystroke	Key.space	n/a
122.0795	0.075	244159	keystroke	f	n/a
122.2295	0.0755	244459	keystroke	a	n/a
122.425	0.0595	244850	keystroke	c	n/a
122.59	0.0745	245180	keystroke	t	n/a
122.8	0.0745	245600	keystroke	s	n/a
122.9495	0.09	245899	keystroke	Key.enter	n/a
123.0465	6.55	246093	prompt	n/a	belkin moment mark where've\n
124.0145	0.0605	248029	keystroke	b	n/a
124.224	0.076	248448	keystroke	e	n/a
124.405	0.1045	248810	keystroke	l	n/a
124.72	0.059	249440	keystroke	k	n/a
124.885	0.06	249770	keystroke	i	n/a
124.9895	0.1205	249979	keystroke	n	n/a
125.1395	0.0605	250279	keystroke	Key.space	n/a
125.3195	0.0755	250639	keystroke	m	n/a
125.47	0.09	250940	keystroke	o	n/a
125.665	0.0905	251330	keystroke	m	n/a
125.95	0.0745	251900	keystroke	e	n/a
126.0705	0.0895	252141	keystroke	n	n/a
126.1895	0.0755	252379	keystroke	t	n/a
126.34	0.0595	252680	keystroke	Key.space	n/a
126.58	0.105	253160	keystroke	m	n/a
126.6695	0.12	253339	keystroke	a	n/a
126.7445	0.1205	253489	keystroke	r	n/a
126.9105	0.089	253821	keystroke	k	n/a
127.0595	0.075	254119	keystroke	Key.space	n/a
127.39	0.1045	254780	keystroke	w	n/a
127.5395	0.0755	255079	keystroke	h	n/a
127.795	0.105	255590	keystroke	e	n/a
127.8695	0.135	255739	keystroke	r	n/a
128.0055	0.075	256011	keystroke	e	n/a
128.9655	0.09	257931	keystroke	'	n/a
129.235	0.015	258470	keystroke	v	n/a
129.2805	0.0745	258561	keystroke	e	n/a
129.505	0.089	259010	keystroke	Key.enter	n/a
129.6075	5.5385	259215	prompt	n/a	fate overall cents pierre\n
130.3145	0.06	260629	keystroke	f	n/a
130.4205	0.12	260841	keystroke	a	n/a
130.555	0.075	261110	keystroke	t	n/a
130.69	0.0745	261380	keystroke	e	n/a
130.826	0.0585	261652	keystroke	Key.space	n/a
131.0045	0.0905	262009	keystroke	o	n/a
131.155	0.075	262310	keystroke	v	n/a
131.304	0.076	262608	keystroke	e	n/a
131.3955	0.0735	262791	keystroke	r	n/a
131.5605	0.1195	263121	keystroke	a	n/a
131.71	0.0745	263420	keystroke	l	n/a
131.86	0.089	263720	keystroke	l	n/a
131.9795	0.06	263959	keystroke	Key.space	n/a
132.1595	0.1055	264319	keystroke	c	n/a
132.37	0.075	264740	keystroke	e	n/a
132.505	0.09	265010	keystroke	n	n/a
132.6095	0.09	265219	keystroke	t	n/a
132.73	0.12	265460	keystroke	s	n/a
132.924	0.09	265848	keystroke	Key.space	n/a
133.33	0.09	266660	keystroke	p	n/a
133.51	0.06	267020	keystroke	i	n/a
133.63	0.15	267260	keystroke	e	n/a
134.14	0.0895	268280	keystroke	r	n/a
134.6205	0.0895	269241	keystroke	r	n/a
134.8305	0.0745	269661	keystroke	e	n/a
135.0545	0.0905	270109	keystroke	Key.enter	n/a
135.1495	6.687	270299	prompt	n/a	drag lifestyle hardwood reveal\n
135.9995	0.0605	271999	keystroke	d	n/a
136.12	0.074	272240	keystroke	r	n/a
136.2545	0.1055	272509	keystroke	a	n/a
136.464	0.0765	272928	keystroke	g	n/a
136.629	0.075	273258	keystroke	Key.space	n/a
136.84	0.0755	273680	keystroke	l	n/a
136.9605	0.1045	273921	keystroke	i	n/a
137.11	0.09	274220	keystroke	f	n/a
137.275	0.06	274550	keystroke	e	n/a
137.59	0.075	275180	keystroke	s	n/a
137.7695	0.0605	275539	keystroke	t	n/a
137.89	0.075	275780	keystroke	y	n/a
138.16	0.12	276320	keystroke	l	n/a
138.295	0.09	276590	keystroke	e	n/a
138.4	0.075	276800	keystroke	Key.space	n/a
138.73	0.075	277460	keystroke	h	n/a
138.851	0.104	277702	keystroke	a	n/a
138.925	0.1045	277850	keystroke	r	n/a
139.1345	0.09	278269	keystroke	d	n/a
139.3595	0.0605	278719	keystroke	w	n/a
139.9155	0.044	279831	keystroke	o	n/a
140.0045	0.09	280009	keystroke	o	n/a
140.1245	0.09	280249	keystroke	d	n/a
140.455	0.06	280910	keystroke	Key.space	n/a
140.665	0.09	281330	keystroke	r	n/a
140.77	0.0605	281540	keystroke	e	n/a
141.0255	0.075	282051	keystroke	v	n/a
141.205	0.045	282410	keystroke	e	n/a
141.325	0.105	282650	keystroke	a	n/a
141.46	0.12	282920	keystroke	l	n/a
141.745	0.09	283490	keystroke	Key.enter	n/a
141.842	5.816	283684	prompt	n/a	mounted sunshine sector earn\n
142.5105	0.074	285021	keystroke	m	n/a
142.6745	0.075	285349	keystroke	o	n/a
142.8705	0.0595	285741	keystroke	u	n/a
143.0505	0.0895	286101	keystroke	n	n/a
143.26	0.075	286520	keystroke	t	n/a
143.425	0.06	286850	keystroke	e	n/a
143.62	0.0755	287240	keystroke	d	n/a
143.74	0.075	287480	keystroke	Key.space	n/a
143.995	0.135	287990	keystroke	s	n/a
144.115	0.0455	288230	keystroke	u	n/a
144.265	0.09	288530	keystroke	n	n/a
144.595	0.104	289190	keystroke	s	n/a
144.714	0.061	289428	keystroke	h	n/a
144.82	0.1055	289640	keystroke	i	n/a
144.985	0.12	289970	keystroke	n	n/a
145.12	0.0905	290240	keystroke	e	n/a
145.225	0.076	290450	keystroke	Key.space	n/a
145.45	0.105	290900	keystroke	s	n/a
145.6	0.0745	291200	keystroke	e	n/a
145.8095	0.0905	291619	keystroke	c	n/a
146.02	0.0445	292040	keystroke	t	n/a
146.0805	0.119	292161	keystroke	o	n/a
146.215	0.09	292430	keystroke	r	n/a
146.469	0.061	292938	keystroke	Key.space	n/a
146.725	0.0745	293450	keystroke	e	n/a
146.9495	0.0905	293899	keystroke	a	n/a
147.115	0.075	294230	keystroke	r	n/a
147.34	0.075	294680	keystroke	n	n/a
147.565	0.09	295130	keystroke	Key.enter	n/a
147.69	7.9915	295380	prompt	n/a	globe convention what've revenue\n
148.42	0.075	296840	keystroke	g	n/a
148.54	0.075	297080	keystroke	l	n/a
148.735	0.06	297470	keystroke	o	n/a
148.96	0.0755	297920	keystroke	b	n/a
149.1545	0.061	298309	keystroke	e	n/a
149.2745	0.045	298549	keystroke	Key.space	n/a
149.44	0.0905	298880	keystroke	c	n/a
149.545	0.135	299090	keystroke	o	n/a
149.62	0.165	299240	keystroke	n	n/a
149.965	0.09	299930	keystroke	v	n/a
150.25	0.0745	300500	keystroke	e	n/a
150.385	0.0905	300770	keystroke	n	n/a
150.5945	0.075	301189	keystroke	t	n/a
150.7145	0.12	301429	keystroke	i	n/a
150.7895	0.1655	301579	keystroke	o	n/a
150.91	0.1805	301820	keystroke	n	n/a
151.0745	0.06	302149	keystroke	Key.space	n/a
151.3145	0.075	302629	keystroke	w	n/a
151.4195	0.0905	302839	keystroke	h	n/a
151.525	0.135	303050	keystroke	a	n/a
151.615	0.105	303230	keystroke	t	n/a
151.93	0.12	303860	keystroke	'	n/a
152.11	0.0905	304220	keystroke	s	n/a
152.455	0.09	304910	keystroke	v	n/a
152.83	0.06	305660	keystroke	Key.backspace	n/a
153.07	0.015	306140	keystroke	Key.backspace	n/a
153.1	0.075	306200	keystroke	v	n/a
153.25	0.09	306500	keystroke	e	n/a
153.4	0.075	306800	keystroke	Key.space	n/a
153.7	0.09	307400	keystroke	r	n/a
153.82	0.09	307640	keystroke	e	n/a
154.24	0.09	308480	keystroke	v	n/a
154.45	0.045	308900	keystroke	e	n/a
154.585	0.0755	309170	keystroke	n	n/a
154.7645	0.0755	309529	keystroke	u	n/a
155.2595	0.0455	310519	keystroke	e	n/a
155.6645	0.015	311329	keystroke	Key.enter	n/a
155.6865	8.6495	311373	prompt	n/a	surfing effectively collect who'd've\n
156.5055	0.104	313011	keystroke	s	n/a
156.6545	0.0755	313309	keystroke	u	n/a
157.285	0.075	314570	keystroke	r	n/a
157.54	0.09	315080	keystroke	f	n/a
157.75	0.1505	315500	keystroke	i	n/a
157.84	0.18	315680	keystroke	n	n/a
157.9295	0.105	315859	keystroke	g	n/a
158.0355	0.089	316071	keystroke	Key.space	n/a
158.2145	0.09	316429	keystroke	e	n/a
158.4395	0.045	316879	keystroke	f	n/a
158.5605	0.074	317121	keystroke	f	n/a
158.71	0.0755	317420	keystroke	e	n/a
158.919	0.061	317838	keystroke	c	n/a
159.0845	0.0755	318169	keystroke	t	n/a
159.19	0.0895	318380	keystroke	i	n/a
159.3095	0.075	318619	keystroke	v	n/a
159.4605	0.06	318921	keystroke	e	n/a
160.135	0.09	320270	keystroke	l	n/a
160.24	0.12	320480	keystroke	y	n/a
160.6	0.06	321200	keystroke	Key.space	n/a
160.796	0.0895	321592	keystroke	c	n/a
160.9145	0.0905	321829	keystroke	o	n/a
161.155	0.075	322310	keystroke	l	n/a
161.3205	0.06	322641	keystroke	l	n/a
161.41	0.06	322820	keystroke	e	n/a
161.59	0.075	323180	keystroke	c	n/a
161.77	0.045	323540	keystroke	t	n/a
161.89	0.045	323780	keystroke	Key.space	n/a
162.1	0.075	324200	keystroke	w	n/a
162.2205	0.0745	324441	keystroke	h	n/a
162.37	0.12	324740	keystroke	o	n/a
162.67	0.09	325340	keystroke	'	n/a
162.88	0.105	325760	keystroke	d	n/a
163.675	0.09	327350	keystroke	'	n/a
163.855	0.075	327710	keystroke	v	n/a
163.99	0.075	327980	keystroke	e	n/a
164.245	0.0895	328490	keystroke	Key.enter	n/a
164.339	6.3325	328678	prompt	n/a	corrections rabbit you lead\n
165.0845	0.075	330169	keystroke	c	n/a
165.2055	0.074	330411	keystroke	o	n/a
165.3715	0.0585	330743	keystroke	r	n/a
165.49	0.09	330980	keystroke	r	n/a
165.64	0.075	331280	keystroke	e	n/a
165.8495	0.1055	331699	keystroke	c	n/a
166.0895	0.0455	332179	keystroke	t	n/a
166.15	0.1195	332300	keystroke	i	n/a
166.2245	0.166	332449	keystroke	o	n/a
166.3145	0.165	332629	keystroke	n	n/a
166.45	0.0905	332900	keystroke	s	n/a
166.57	0.075	333140	keystroke	Key.space	n/a
166.7645	0.0605	333529	keystroke	r	n/a
166.885	0.0895	333770	keystroke	a	n/a
167.0805	0.0445	334161	keystroke	b	n/a
167.23	0.06	334460	keystroke	g	n/a
167.349	0.091	334698	keystroke	i	n/a
167.92	0.0445	335840	keystroke	Key.backspace	n/a
168.0695	0.09	336139	keystroke	Key.backspace	n/a
168.354	0.076	336708	keystroke	b	n/a
168.88	0.06	337760	keystroke	i	n/a
168.9855	0.0895	337971	keystroke	t	n/a
169.299	0.0605	338598	keystroke	Key.space	n/a
169.5105	0.0735	339021	keystroke	y	n/a
169.644	0.136	339288	keystroke	o	n/a
169.72	0.135	339440	keystroke	u	n/a
169.87	0.075	339740	keystroke	Key.space	n/a
170.05	0.089	340100	keystroke	l	n/a
170.11	0.074	340220	keystroke	e	n/a
170.245	0.1195	340490	keystroke	a	n/a
170.559	0.105	341118	keystroke	Key.enter	n/a
170.6825	7.6185	341365	prompt	n/a	tracker tony certificate clock\n
171.5505	0.0745	343101	keystroke	t	n/a
171.7	0.0745	343400	keystroke	r	n/a
171.834	0.09	343668	keystroke	a	n/a
172.045	0.09	344090	keystroke	c	n/a
172.195	0.075	344390	keystroke	k	n/a
172.3005	0.0895	344601	keystroke	e	n/a
172.405	0.074	344810	keystroke	r	n/a
172.51	0.059	345020	keystroke	Key.space	n/a
172.659	0.0755	345318	keystroke	t	n/a
172.749	0.136	345498	keystroke	o	n/a
173.4545	0.09	346909	keystroke	n	n/a
173.665	0.06	347330	keystroke	y	n/a
173.7995	0.06	347599	keystroke	Key.space	n/a
174.0695	0.0605	348139	keystroke	c	n/a
175.2695	0.105	350539	keystroke	e	n/a
175.3595	0.105	350719	keystroke	r	n/a
176.1245	0.03	352249	keystroke	t	n/a
176.2145	0.075	352429	keystroke	i	n/a
176.455	0.0755	352910	keystroke	f	n/a
176.5445	0.0905	353089	keystroke	i	n/a
176.649	0.1055	353298	keystroke	c	n/a
176.7845	0.1205	353569	keystroke	a	n/a
176.86	0.12	353720	keystroke	t	n/a
177.0395	0.06	354079	keystroke	e	n/a
177.1295	0.075	354259	keystroke	Key.space	n/a
177.3245	0.09	354649	keystroke	c	n/a
177.4445	0.09	354889	keystroke	l	n/a
177.6395	0.06	355279	keystroke	o	n/a
177.88	0.105	355760	keystroke	c	n/a
178	0.105	356000	keystroke	k	n/a
178.224	0.076	356448	keystroke	Key.enter	n/a
178.307	8.1545	356614	prompt	n/a	recovered different coleman instructional\n
179.0495	0.105	358099	keystroke	r	n/a
179.17	0.0895	358340	keystroke	e	n/a
179.4245	0.0905	358849	keystroke	c	n/a
179.5155	0.089	359031	keystroke	o	n/a
179.6345	0.0755	359269	keystroke	v	n/a
179.7695	0.1045	359539	keystroke	e	n/a
179.8595	0.1045	359719	keystroke	r	n/a
180.039	0.0755	360078	keystroke	e	n/a
180.235	0.074	360470	keystroke	d	n/a
180.3695	0.06	360739	keystroke	Key.space	n/a
180.5505	0.104	361101	keystroke	d	n/a
180.6845	0.075	361369	keystroke	i	n/a
180.7745	0.06	361549	keystroke	f	n/a
180.9995	0.015	361999	keystroke	f	n/a
181.0895	0.105	362179	keystroke	e	n/a
181.24	0.06	362480	keystroke	r	n/a
182.0345	0.045	364069	keystroke	e	n/a
182.1245	0.09	364249	keystroke	n	n/a
182.23	0.0755	364460	keystroke	t	n/a
182.335	0.0745	364670	keystroke	Key.space	n/a
182.6505	0.074	365301	keystroke	o	n/a
182.815	0.105	365630	keystroke	l	n/a
182.9345	0.075	365869	keystroke	e	n/a
183.145	0.0745	366290	keystroke	m	n/a
183.2945	0.1355	366589	keystroke	a	n/a
183.3245	0.15	366649	keystroke	n	n/a
184.42	0.0595	368840	keystroke	Key.space	n/a
184.6595	0.075	369319	keystroke	i	n/a
184.765	0.1195	369530	keystroke	n	n/a
184.9445	0.0905	369889	keystroke	s	n/a
185.0495	0.075	370099	keystroke	t	n/a
185.23	0.06	370460	keystroke	r	n/a
185.32	0.1045	370640	keystroke	u	n/a
185.4545	0.0755	370909	keystroke	c	n/a
185.59	0.0895	371180	keystroke	t	n/a
185.665	0.12	371330	keystroke	i	n/a
185.7395	0.15	371479	keystroke	o	n/a
185.83	0.165	371660	keystroke	n	n/a
185.98	0.12	371960	keystroke	a	n/a
186.1145	0.1205	372229	keystroke	l	n/a
186.3845	0.0755	372769	keystroke	Key.enter	n/a
186.4715	10.327	372943	prompt	n/a	heath prescribed serbia violations\n
187.18	0.0745	374360	keystroke	h	n/a
187.2695	0.075	374539	keystroke	e	n/a
187.375	0.1195	374750	keystroke	a	n/a
188.2145	0.09	376429	keystroke	t	n/a
188.29	0.09	376580	keystroke	h	n/a
188.4095	0.075	376819	keystroke	Key.space	n/a
188.8	0.1195	377600	keystroke	p	n/a
188.9505	0.1045	377901	keystroke	r	n/a
189.2795	0.0755	378559	keystroke	e	n/a
189.7295	0.0905	379459	keystroke	s	n/a
190.0005	0.0895	380001	keystroke	c	n/a
190.39	0.0745	380780	keystroke	r	n/a
190.4945	0.09	380989	keystroke	i	n/a
190.705	0.075	381410	keystroke	b	n/a
190.885	0.075	381770	keystroke	e	n/a
191.064	0.076	382128	keystroke	d	n/a
191.169	0.0905	382338	keystroke	Key.space	n/a
191.38	0.1045	382760	keystroke	s	n/a
191.5455	0.09	383091	keystroke	e	n/a
191.6365	0.089	383273	keystroke	r	n/a
191.905	0.045	383810	keystroke	b	n/a
192.025	0.075	384050	keystroke	i	n/a
192.175	0.1045	384350	keystroke	a	n/a
192.3695	0.0755	384739	keystroke	Key.space	n/a
192.8205	0.03	385641	keystroke	b	n/a
192.8945	0.075	385789	keystroke	i	n/a
193.075	0.105	386150	keystroke	o	n/a
193.45	0.06	386900	keystroke	Key.backspace	n/a
193.615	0.06	387230	keystroke	Key.backspace	n/a
193.75	0.075	387500	keystroke	Key.backspace	n/a
194.86	0.075	389720	keystroke	v	n/a
195.49	0.075	390980	keystroke	i	n/a
195.655	0.09	391310	keystroke	o	n/a
195.896	0.104	391792	keystroke	l	n/a
196.015	0.12	392030	keystroke	a	n/a
196.105	0.09	392210	keystroke	t	n/a
196.18	0.15	392360	keystroke	i	n/a
196.27	0.15	392540	keystroke	o	n/a
196.375	0.165	392750	keystroke	n	n/a
196.525	0.105	393050	keystroke	s	n/a
196.7045	0.09	393409	keystroke	Key.enter	n/a
196.803	5.7385	393606	prompt	n/a	slovak county talking pond\n
197.53	0.0905	395060	keystroke	s	n/a
197.7255	0.1045	395451	keystroke	l	n/a
197.965	0.0895	395930	keystroke	o	n/a
198.339	0.0755	396678	keystroke	v	n/a
198.5045	0.12	397009	keystroke	a	n/a
198.9695	0.076	397939	keystroke	k	n/a
199.2545	0.0755	398509	keystroke	Key.space	n/a
199.5095	0.105	399019	keystroke	c	n/a
199.5845	0.1655	399169	keystroke	o	n/a
199.69	0.105	399380	keystroke	u	n/a
199.87	0.1205	399740	keystroke	n	n/a
200.02	0.0895	400040	keystroke	t	n/a
200.1845	0.09	400369	keystroke	y	n/a
200.3045	0.075	400609	keystroke	Key.space	n/a
200.6945	0.06	401389	keystroke	t	n/a
200.815	0.1045	401630	keystroke	a	n/a
200.9495	0.1055	401899	keystroke	l	n/a
201.1445	0.046	402289	keystroke	k	n/a
201.2945	0.135	402589	keystroke	i	n/a
201.3845	0.1355	402769	keystroke	n	n/a
201.4745	0.105	402949	keystroke	g	n/a
201.5645	0.075	403129	keystroke	Key.space	n/a
201.7155	0.09	403431	keystroke	p	n/a
201.9105	0.074	403821	keystroke	o	n/a
202.135	0.0895	404270	keystroke	n	n/a
202.285	0.105	404570	keystroke	d	n/a
202.449	0.09	404898	keystroke	Key.enter	n/a
202.546	5.8455	405092	prompt	n/a	generators gods delta angela\n
203.2605	0.0595	406521	keystroke	g	n/a
203.395	0.075	406790	keystroke	e	n/a
203.5305	0.0745	407061	keystroke	n	n/a
203.6345	0.09	407269	keystroke	e	n/a
203.7545	0.0915	407509	keystroke	r	n/a
203.8895	0.165	407779	keystroke	a	n/a
204.0395	0.09	408079	keystroke	t	n/a
204.1755	0.089	408351	keystroke	o	n/a
204.3245	0.075	408649	keystroke	r	n/a
204.5645	0.09	409129	keystroke	s	n/a
204.714	0.076	409428	keystroke	Key.space	n/a
204.925	0.075	409850	keystroke	g	n/a
205.03	0.09	410060	keystroke	o	n/a
205.15	0.105	410300	keystroke	d	n/a
205.315	0.105	410630	keystroke	s	n/a
205.48	0.074	410960	keystroke	Key.space	n/a
205.75	0.075	411500	keystroke	d	n/a
205.99	0.06	411980	keystroke	e	n/a
206.635	0.075	413270	keystroke	l	n/a
206.8155	0.0745	413631	keystroke	t	n/a
206.935	0.1195	413870	keystroke	a	n/a
207.19	0.0445	414380	keystroke	Key.space	n/a
207.4	0.1045	414800	keystroke	a	n/a
207.5505	0.09	415101	keystroke	n	n/a
207.7455	0.059	415491	keystroke	g	n/a
207.88	0.06	415760	keystroke	e	n/a
208.0295	0.0905	416059	keystroke	l	n/a
208.15	0.12	416300	keystroke	a	n/a
208.2995	0.09	416599	keystroke	Key.enter	n/a
208.417	5.3445	416834	prompt	n/a	colon grace weekends island\n
209.11	0.09	418220	keystroke	c	n/a
209.214	0.091	418428	keystroke	o	n/a
209.38	0.0745	418760	keystroke	l	n/a
209.5755	0.06	419151	keystroke	o	n/a
209.7555	0.059	419511	keystroke	n	n/a
209.89	0.0605	419780	keystroke	Key.space	n/a
210.1755	0.0445	420351	keystroke	g	n/a
210.28	0.075	420560	keystroke	r	n/a
210.43	0.09	420860	keystroke	a	n/a
210.609	0.091	421218	keystroke	c	n/a
210.804	0.061	421608	keystroke	e	n/a
210.91	0.0745	421820	keystroke	Key.space	n/a
211.0745	0.09	422149	keystroke	w	n/a
211.2395	0.0755	422479	keystroke	e	n/a
211.405	0.075	422810	keystroke	e	n/a
211.5395	0.0905	423079	keystroke	k	n/a
211.6605	0.0735	423321	keystroke	e	n/a
211.75	0.105	423500	keystroke	n	n/a
211.87	0.089	423740	keystroke	d	n/a
212.019	0.09	424038	keystroke	s	n/a
212.454	0.0605	424908	keystroke	Key.space	n/a
212.725	0.06	425450	keystroke	i	n/a
212.875	0.09	425750	keystroke	s	n/a
213.145	0.09	426290	keystroke	l	n/a
213.25	0.105	426500	keystroke	a	n/a
213.3695	0.1355	426739	keystroke	n	n/a
213.46	0.09	426920	keystroke	d	n/a
213.6845	0.0745	427369	keystroke	Key.enter	n/a
213.766	7.8405	427532	prompt	n/a	restrict predictions schools excerpt\n
214.48	0.0745	428960	keystroke	r	n/a
214.5555	0.089	429111	keystroke	e	n/a
214.8395	0.091	429679	keystroke	s	n/a
215.0645	0.06	430129	keystroke	t	n/a
215.215	0.0745	430430	keystroke	r	n/a
215.3345	0.09	430669	keystroke	i	n/a
215.4395	0.105	430879	keystroke	c	n/a
215.7855	0.0745	431571	keystroke	t	n/a
215.951	0.059	431902	keystroke	Key.space	n/a
216.2945	0.091	432589	keystroke	p	n/a
216.3995	0.1045	432799	keystroke	r	n/a
216.489	0.0765	432978	keystroke	e	n/a
216.9255	0.045	433851	keystroke	d	n/a
216.985	0.075	433970	keystroke	i	n/a
217.1495	0.076	434299	keystroke	c	n/a
217.33	0.075	434660	keystroke	t	n/a
217.39	0.135	434780	keystroke	i	n/a
217.495	0.165	434990	keystroke	o	n/a
217.5855	0.1945	435171	keystroke	n	n/a
217.7345	0.091	435469	keystroke	s	n/a
217.885	0.06	435770	keystroke	Key.space	n/a
218.11	0.09	436220	keystroke	s	n/a
218.32	0.09	436640	keystroke	c	n/a
218.47	0.075	436940	keystroke	h	n/a
218.86	0.0595	437720	keystroke	o	n/a
219.01	0.074	438020	keystroke	o	n/a
219.1895	0.1055	438379	keystroke	l	n/a
219.34	0.09	438680	keystroke	s	n/a
219.504	0.061	439008	keystroke	Key.space	n/a
219.79	0.074	439580	keystroke	e	n/a
220.014	0.1205	440028	keystroke	x	n/a
220.5545	0.105	441109	keystroke	c	n/a
220.84	0.09	441680	keystroke	e	n/a
220.915	0.1055	441830	keystroke	r	n/a
221.155	0.1055	442310	keystroke	p	n/a
221.3495	0.045	442699	keystroke	t	n/a
221.5295	0.075	443059	keystroke	Key.enter	n/a
221.6135	6.024	443227	prompt	n/a	unsigned http greenhouse sort\n
222.3105	0.0445	444621	keystroke	u	n/a
222.535	0.075	445070	keystroke	n	n/a
222.9855	0.089	445971	keystroke	s	n/a
223.1655	0.075	446331	keystroke	i	n/a
223.2845	0.09	446569	keystroke	g	n/a
223.3895	0.106	446779	keystroke	n	n/a
223.5845	0.0605	447169	keystroke	e	n/a
223.7345	0.0905	447469	keystroke	d	n/a
223.855	0.09	447710	keystroke	Key.space	n/a
224.2605	0.0745	448521	keystroke	h	n/a
224.5	0.0445	449000	keystroke	t	n/a
224.62	0.0745	449240	keystroke	t	n/a
224.7405	0.089	449481	keystroke	p	n/a
224.89	0.0745	449780	keystroke	Key.space	n/a
225.28	0.0305	450560	keystroke	g	n/a
225.43	0.09	450860	keystroke	r	n/a
225.6255	0.0595	451251	keystroke	e	n/a
225.7895	0.075	451579	keystroke	e	n/a
225.9095	0.105	451819	keystroke	n	n/a
226.21	0.0595	452420	keystroke	h	n/a
226.3295	0.15	452659	keystroke	o	n/a
226.4345	0.1205	452869	keystroke	u	n/a
226.57	0.119	453140	keystroke	s	n/a
226.66	0.12	453320	keystroke	e	n/a
226.825	0.075	453650	keystroke	Key.space	n/a
227.005	0.0895	454010	keystroke	s	n/a
227.1095	0.1205	454219	keystroke	o	n/a
227.215	0.074	454430	keystroke	r	n/a
227.38	0.074	454760	keystroke	t	n/a
227.529	0.105	455058	keystroke	Key.enter	n/a
227.647	7.3695	455294	prompt	n/a	simulations zdnet money signal\n
228.3995	0.105	456799	keystroke	s	n/a
228.4895	0.105	456979	keystroke	i	n/a
228.625	0.1195	457250	keystroke	m	n/a
229.5095	0.075	459019	keystroke	u	n/a
229.7945	0.1055	459589	keystroke	l	n/a
229.9145	0.121	459829	keystroke	a	n/a
230.0805	0.074	460161	keystroke	t	n/a
230.1405	0.1345	460281	keystroke	i	n/a
230.23	0.1655	460460	keystroke	o	n/a
230.35	0.1645	460700	keystroke	n	n/a
230.4845	0.09	460969	keystroke	s	n/a
230.605	0.0895	461210	keystroke	Key.space	n/a
231.07	0.0745	462140	keystroke	z	n/a
231.31	0.09	462620	keystroke	d	n/a
231.5645	0.061	463129	keystroke	e	n/a
231.9845	0.045	463969	keystroke	Key.backspace	n/a
232.1505	0.104	464301	keystroke	n	n/a
232.27	0.0745	464540	keystroke	e	n/a
232.3895	0.0905	464779	keystroke	t	n/a
232.5695	0.0605	465139	keystroke	Key.space	n/a
232.795	0.09	465590	keystroke	m	n/a
232.9305	0.134	465861	keystroke	o	n/a
233.0195	0.1655	466039	keystroke	n	n/a
233.2155	0.119	466431	keystroke	d	n/a
233.3495	0.09	466699	keystroke	y	n/a
233.4995	0.075	466999	keystroke	Key.space	n/a
233.755	0.09	467510	keystroke	s	n/a
233.8895	0.0755	467779	keystroke	i	n/a
234.01	0.0745	468020	keystroke	g	n/a
234.1	0.0895	468200	keystroke	n	n/a
234.295	0.135	468590	keystroke	a	n/a
234.6405	0.1045	469281	keystroke	l	n/a
234.94	0.075	469880	keystroke	Key.enter	n/a
235.024	11.5875	470048	prompt	n/a	unauthorized developer delivering conspiracy\n
236.064	0.0455	472128	keystroke	u	n/a
236.2305	0.0745	472461	keystroke	n	n/a
237.1745	0.1355	474349	keystroke	a	n/a
237.655	0.09	475310	keystroke	u	n/a
237.895	0.1045	475790	keystroke	t	n/a
238.0145	0.075	476029	keystroke	h	n/a
238.21	0.105	476420	keystroke	o	n/a
238.51	0.074	477020	keystroke	r	n/a
238.63	0.074	477260	keystroke	i	n/a
238.78	0.09	477560	keystroke	z	n/a
238.959	0.061	477918	keystroke	e	n/a
239.1245	0.0895	478249	keystroke	d	n/a
239.229	0.0905	478458	keystroke	Key.space	n/a
240.1745	0.0605	480349	keystroke	d	n/a
240.37	0.075	480740	keystroke	e	n/a
240.64	0.075	481280	keystroke	v	n/a
240.865	0.06	481730	keystroke	e	n/a
241.045	0.075	482090	keystroke	l	n/a
241.21	0.0895	482420	keystroke	o	n/a
241.405	0.09	482810	keystroke	p	n/a
241.795	0.09	483590	keystroke	e	n/a
241.9	0.105	483800	keystroke	r	n/a
242.139	0.061	484278	keystroke	Key.space	n/a
242.35	0.0755	484700	keystroke	d	n/a
242.5445	0.06	485089	keystroke	e	n/a
242.6645	0.105	485329	keystroke	l	n/a
242.8455	0.075	485691	keystroke	i	n/a
242.935	0.075	485870	keystroke	v	n/a
243.085	0.105	486170	keystroke	e	n/a
243.174	0.106	486348	keystroke	r	n/a
243.415	0.135	486830	keystroke	i	n/a
243.49	0.179	486980	keystroke	n	n/a
243.5955	0.1185	487191	keystroke	g	n/a
243.7	0.09	487400	keystroke	Key.space	n/a
243.999	0.1055	487998	keystroke	c	n/a
244.12	0.1495	488240	keystroke	o	n/a
244.2245	0.1655	488449	keystroke	n	n/a
244.5845	0.106	489169	keystroke	s	n/a
244.93	0.089	489860	keystroke	p	n/a
245.2605	0.075	490521	keystroke	i	n/a
245.769	0.061	491538	keystroke	r	n/a
245.905	0.105	491810	keystroke	a	n/a
246.1145	0.0905	492229	keystroke	c	n/a
246.249	0.091	492498	keystroke	y	n/a
246.534	0.075	493068	keystroke	Key.enter	n/a
246.616	8.3955	493232	prompt	n/a	final conferences benjamin responsibilities\n
247.3	0.075	494600	keystroke	f	n/a
247.3905	0.12	494781	keystroke	i	n/a
247.495	0.135	494990	keystroke	n	n/a
247.645	0.1205	495290	keystroke	a	n/a
247.78	0.135	495560	keystroke	l	n/a
247.93	0.06	495860	keystroke	Key.space	n/a
248.095	0.09	496190	keystroke	c	n/a
248.17	0.1505	496340	keystroke	o	n/a
248.2605	0.1645	496521	keystroke	n	n/a
248.5	0.0745	497000	keystroke	f	n/a
248.6655	0.089	497331	keystroke	e	n/a
248.74	0.135	497480	keystroke	r	n/a
248.89	0.06	497780	keystroke	e	n/a
249.01	0.105	498020	keystroke	n	n/a
249.16	0.09	498320	keystroke	c	n/a
249.3555	0.06	498711	keystroke	e	n/a
249.505	0.09	499010	keystroke	s	n/a
249.639	0.061	499278	keystroke	Key.space	n/a
249.91	0.0745	499820	keystroke	b	n/a
250.0905	0.074	500181	keystroke	e	n/a
250.51	0.0905	501020	keystroke	n	n/a
250.825	0.09	501650	keystroke	j	n/a
250.975	0.12	501950	keystroke	a	n/a
251.097	0.088	502194	keystroke	m	n/a
251.2595	0.1505	502519	keystroke	i	n/a
251.3495	0.165	502699	keystroke	n	n/a
251.545	0.06	503090	keystroke	Key.space	n/a
251.725	0.105	503450	keystroke	r	n/a
251.845	0.09	503690	keystroke	e	n/a
252.1605	0.09	504321	keystroke	s	n/a
252.3705	0.0745	504741	keystroke	p	n/a
252.535	0.0905	505070	keystroke	o	n/a
252.6845	0.0895	505369	keystroke	n	n/a
252.984	0.1065	505968	keystroke	s	n/a
253.1495	0.075	506299	keystroke	i	n/a
253.4795	0.09	506959	keystroke	b	n/a
253.615	0.0895	507230	keystroke	i	n/a
253.9905	0.0895	507981	keystroke	l	n/a
254.124	0.091	508248	keystroke	i	n/a
254.26	0.075	508520	keystroke	t	n/a
254.53	0.075	509060	keystroke	i	n/a
254.65	0.06	509300	keystroke	e	n/a
254.755	0.12	509510	keystroke	s	n/a
254.905	0.105	509810	keystroke	Key.enter	n/a
255.015	5.6965	510030	prompt	n/a	menus parent passion collective\n
255.85	0.09	511700	keystroke	m	n/a
255.969	0.092	511938	keystroke	e	n/a
256.105	0.075	512210	keystroke	n	n/a
256.3005	0.0595	512601	keystroke	u	n/a
256.6595	0.09	513319	keystroke	s	n/a
256.8705	0.059	513741	keystroke	Key.space	n/a
257.0345	0.105	514069	keystroke	p	n/a
257.1555	0.119	514311	keystroke	a	n/a
257.3495	0.0905	514699	keystroke	r	n/a
257.47	0.09	514940	keystroke	e	n/a
257.62	0.1045	515240	keystroke	n	n/a
257.739	0.076	515478	keystroke	t	n/a
257.86	0.0745	515720	keystroke	Key.space	n/a
258.07	0.09	516140	keystroke	p	n/a
258.19	0.105	516380	keystroke	a	n/a
258.37	0.075	516740	keystroke	s	n/a
258.52	0.09	517040	keystroke	s	n/a
258.58	0.12	517160	keystroke	i	n/a
258.67	0.1505	517340	keystroke	o	n/a
258.774	0.1665	517548	keystroke	n	n/a
258.925	0.0595	517850	keystroke	Key.space	n/a
259.105	0.09	518210	keystroke	c	n/a
259.24	0.089	518480	keystroke	o	n/a
259.45	0.0605	518900	keystroke	l	n/a
259.5855	0.089	519171	keystroke	l	n/a
259.6895	0.076	519379	keystroke	e	n/a
259.8855	0.089	519771	keystroke	c	n/a
260.0945	0.075	520189	keystroke	t	n/a
260.2	0.09	520400	keystroke	i	n/a
260.305	0.075	520610	keystroke	v	n/a
260.44	0.075	520880	keystroke	e	n/a
260.6045	0.1055	521209	keystroke	Key.enter	n/a
260.7155	8.501	521431	prompt	n/a	communications folders scoring weight\n
261.4755	0.089	522951	keystroke	a	n/a
261.8945	0.075	523789	keystroke	Key.backspace	n/a
262.1205	0.075	524241	keystroke	c	n/a
262.2095	0.1205	524419	keystroke	o	n/a
262.2845	0.12	524569	keystroke	m	n/a
262.4945	0.0905	524989	keystroke	m	n/a
262.705	0.06	525410	keystroke	u	n/a
262.959	0.076	525918	keystroke	n	n/a
263.1255	0.0885	526251	keystroke	i	n/a
263.32	0.075	526640	keystroke	c	n/a
263.41	0.15	526820	keystroke	a	n/a
263.515	0.0745	527030	keystroke	t	n/a
263.575	0.1345	527150	keystroke	i	n/a
263.68	0.1345	527360	keystroke	o	n/a
263.77	0.1655	527540	keystroke	n	n/a
263.9195	0.09	527839	keystroke	s	n/a
264.0395	0.075	528079	keystroke	Key.space	n/a
264.22	0.0905	528440	keystroke	f	n/a
264.34	0.075	528680	keystroke	o	n/a
264.5045	0.12	529009	keystroke	l	n/a
264.6395	0.075	529279	keystroke	d	n/a
264.82	0.0745	529640	keystroke	e	n/a
264.9105	0.075	529821	keystroke	r	n/a
265.105	0.0905	530210	keystroke	s	n/a
265.269	0.061	530538	keystroke	Key.space	n/a
265.495	0.075	530990	keystroke	c	n/a
265.869	0.076	531738	keystroke	Key.backspace	n/a
266.064	0.091	532128	keystroke	s	n/a
266.35	0.09	532700	keystroke	c	n/a
266.545	0.089	533090	keystroke	o	n/a
266.725	0.09	533450	keystroke	r	n/a
266.92	0.1355	533840	keystroke	i	n/a
266.9945	0.18	533989	keystroke	n	n/a
267.1145	0.105	534229	keystroke	g	n/a
267.2495	0.091	534499	keystroke	Key.space	n/a
267.4905	0.104	534981	keystroke	w	n/a
267.6695	0.09	535339	keystroke	e	n/a
268.3295	0.0905	536659	keystroke	i	n/a
268.735	0.045	537470	keystroke	g	n/a
268.7945	0.0755	537589	keystroke	h	n/a
268.9005	0.105	537801	keystroke	t	n/a
269.1095	0.1055	538219	keystroke	Key.enter	n/a
269.231	7.9955	538462	prompt	n/a	destroyed editions thrown proposal\n
269.9505	0.0595	539901	keystroke	d	n/a
270.1155	0.0595	540231	keystroke	e	n/a
270.3695	0.09	540739	keystroke	s	n/a
270.565	0.0745	541130	keystroke	t	n/a
270.7445	0.075	541489	keystroke	r	n/a
270.8645	0.0755	541729	keystroke	o	n/a
271.0445	0.091	542089	keystroke	y	n/a
271.5395	0.075	543079	keystroke	e	n/a
271.81	0.09	543620	keystroke	d	n/a
271.975	0.075	543950	keystroke	Key.space	n/a
272.304	0.0765	544608	keystroke	e	n/a
272.5155	0.0895	545031	keystroke	d	n/a
272.665	0.075	545330	keystroke	i	n/a
272.845	0.09	545690	keystroke	t	n/a
272.92	0.1205	545840	keystroke	i	n/a
273.0105	0.149	546021	keystroke	o	n/a
273.1305	0.1495	546261	keystroke	n	n/a
273.265	0.1205	546530	keystroke	s	n/a
274.165	0.075	548330	keystroke	Key.space	n/a
274.6455	0.0745	549291	keystroke	t	n/a
274.75	0.09	549500	keystroke	h	n/a
274.87	0.105	549740	keystroke	r	n/a
275.0645	0.09	550129	keystroke	o	n/a
275.335	0.0905	550670	keystroke	w	n/a
275.4705	0.09	550941	keystroke	n	n/a
275.6195	0.0755	551239	keystroke	Key.space	n/a
275.8905	0.12	551781	keystroke	p	n/a
275.9945	0.076	551989	keystroke	r	n/a
276.1005	0.09	552201	keystroke	o	n/a
276.325	0.09	552650	keystroke	p	n/a
276.5055	0.075	553011	keystroke	o	n/a
276.6245	0.0755	553249	keystroke	s	n/a
276.7295	0.1355	553459	keystroke	a	n/a
276.8795	0.1055	553759	keystroke	l	n/a
277.135	0.09	554270	keystroke	Key.enter	n/a
277.2405	7.471	554481	prompt	n/a	entertaining summer hawaii overcome\n
277.9605	0.074	555921	keystroke	e	n/a
278.0795	0.106	556159	keystroke	n	n/a
278.2305	0.075	556461	keystroke	t	n/a
278.3805	0.09	556761	keystroke	e	n/a
278.455	0.1055	556910	keystroke	r	n/a
278.89	0.075	557780	keystroke	t	n/a
279.145	0.12	558290	keystroke	a	n/a
279.25	0.075	558500	keystroke	i	n/a
279.4	0.0905	558800	keystroke	n	n/a
279.61	0.135	559220	keystroke	i	n/a
279.685	0.1645	559370	keystroke	n	n/a
279.79	0.12	559580	keystroke	g	n/a
279.9245	0.075	559849	keystroke	Key.space	n/a
280.1795	0.09	560359	keystroke	s	n/a
280.3	0.0745	560600	keystroke	u	n/a
280.5105	0.0595	561021	keystroke	m	n/a
280.63	0.09	561260	keystroke	m	n/a
280.7205	0.104	561441	keystroke	e	n/a
280.8095	0.1355	561619	keystroke	r	n/a
280.9455	0.059	561891	keystroke	Key.space	n/a
281.289	0.0755	562578	keystroke	h	n/a
281.4255	0.1205	562851	keystroke	a	n/a
281.6505	0.075	563301	keystroke	w	n/a
281.8455	0.104	563691	keystroke	a	n/a
282.1005	0.06	564201	keystroke	i	n/a
282.2505	0.075	564501	keystroke	i	n/a
282.3695	0.06	564739	keystroke	Key.space	n/a
282.5655	0.0745	565131	keystroke	o	n/a
282.7005	0.075	565401	keystroke	v	n/a
282.8955	0.06	565791	keystroke	e	n/a
282.9695	0.105	565939	keystroke	r	n/a
283.9445	0.09	567889	keystroke	c	n/a
284.0505	0.134	568101	keystroke	o	n/a
284.125	0.2095	568250	keystroke	m	n/a
284.3205	0.074	568641	keystroke	e	n/a
284.6045	0.105	569209	keystroke	Key.enter	n/a
284.723	7.684	569446	prompt	n/a	tutorial skilled revenues prefer\n
285.5505	0.09	571101	keystroke	t	n/a
285.6845	0.075	571369	keystroke	u	n/a
286.0595	0.045	572119	keystroke	t	n/a
286.1495	0.09	572299	keystroke	o	n/a
286.495	0.075	572990	keystroke	r	n/a
286.6295	0.061	573259	keystroke	i	n/a
286.705	0.1355	573410	keystroke	a	n/a
286.8405	0.12	573681	keystroke	l	n/a
286.9745	0.06	573949	keystroke	Key.space	n/a
287.1845	0.09	574369	keystroke	s	n/a
287.3045	0.075	574609	keystroke	k	n/a
287.6805	0.03	575361	keystroke	i	n/a
287.8005	0.074	575601	keystroke	i	n/a
287.995	0.105	575990	keystroke	l	n/a
288.205	0.09	576410	keystroke	e	n/a
288.371	0.0895	576742	keystroke	d	n/a
288.535	0.075	577070	keystroke	Key.space	n/a
288.8655	0.09	577731	keystroke	r	n/a
288.9695	0.0615	577939	keystroke	e	n/a
289.2405	0.075	578481	keystroke	v	n/a
289.4205	0.0445	578841	keystroke	e	n/a
289.57	0.0445	579140	keystroke	n	n/a
289.7345	0.076	579469	keystroke	u	n/a
289.8705	0.1045	579741	keystroke	s	n/a
290.395	0.045	580790	keystroke	Key.backspace	n/a
290.4545	0.076	580909	keystroke	e	n/a
290.6945	0.105	581389	keystroke	s	n/a
291.1145	0.0755	582229	keystroke	Key.space	n/a
291.4295	0.1055	582859	keystroke	p	n/a
291.5205	0.1045	583041	keystroke	r	n/a
291.61	0.0745	583220	keystroke	e	n/a
291.835	0.075	583670	keystroke	f	n/a
291.985	0.0755	583970	keystroke	e	n/a
292.0455	0.104	584091	keystroke	r	n/a
292.3295	0.0755	584659	keystroke	Key.enter	n/a
292.4135	9.3385	584827	prompt	n/a	shipped clear contributors modification\n
293.245	0.105	586490	keystroke	s	n/a
293.38	0.0745	586760	keystroke	h	n/a
293.6495	0.075	587299	keystroke	i	n/a
293.8755	0.0745	587751	keystroke	p	n/a
294.025	0.0755	588050	keystroke	p	n/a
294.1455	0.06	588291	keystroke	e	n/a
294.3105	0.074	588621	keystroke	d	n/a
294.3995	0.075	588799	keystroke	Key.space	n/a
294.5945	0.09	589189	keystroke	c	n/a
294.715	0.1045	589430	keystroke	l	n/a
294.88	0.0605	589760	keystroke	e	n/a
294.97	0.1505	589940	keystroke	a	n/a
295.315	0.09	590630	keystroke	r	n/a
295.48	0.075	590960	keystroke	Key.space	n/a
295.735	0.09	591470	keystroke	c	n/a
295.87	0.0905	591740	keystroke	o	n/a
295.9905	0.1195	591981	keystroke	n	n/a
296.2155	0.074	592431	keystroke	t	n/a
296.4095	0.0755	592819	keystroke	r	n/a
296.6505	0.074	593301	keystroke	i	n/a
296.9055	0.09	593811	keystroke	b	n/a
297.0545	0.0905	594109	keystroke	u	n/a
297.3105	0.074	594621	keystroke	t	n/a
297.4745	0.09	594949	keystroke	o	n/a
297.5955	0.074	595191	keystroke	r	n/a
297.775	0.1045	595550	keystroke	s	n/a
297.9395	0.0755	595879	keystroke	Key.space	n/a
298.1495	0.075	596299	keystroke	m	n/a
298.3305	0.074	596661	keystroke	o	n/a
298.4645	0.09	596929	keystroke	d	n/a
298.5995	0.075	597199	keystroke	i	n/a
298.825	0.0755	597650	keystroke	f	n/a
299.53	0.075	599060	keystroke	i	n/a
299.7245	0.0755	599449	keystroke	c	n/a
300.625	0.1045	601250	keystroke	a	n/a
300.97	0.0755	601940	keystroke	t	n/a
301.0305	0.1345	602061	keystroke	i	n/a
301.1355	0.18	602271	keystroke	o	n/a
301.2545	0.196	602509	keystroke	n	n/a
301.675	0.075	603350	keystroke	Key.enter	n/a
301.763	6.1385	603526	prompt	n/a	nice carter dynamics fraser\n
302.5	0.075	605000	keystroke	n	n/a
302.59	0.135	605180	keystroke	i	n/a
302.7405	0.0745	605481	keystroke	c	n/a
302.92	0.06	605840	keystroke	e	n/a
303.0405	0.0745	606081	keystroke	Key.space	n/a
303.475	0.105	606950	keystroke	c	n/a
303.73	0.135	607460	keystroke	a	n/a
303.8655	0.0895	607731	keystroke	r	n/a
304.195	0.075	608390	keystroke	t	n/a
304.375	0.09	608750	keystroke	e	n/a
304.4505	0.1195	608901	keystroke	r	n/a
304.66	0.075	609320	keystroke	Key.space	n/a
304.99	0.09	609980	keystroke	d	n/a
305.1555	0.09	610311	keystroke	y	n/a
305.439	0.091	610878	keystroke	n	n/a
305.575	0.12	611150	keystroke	a	n/a
305.7245	0.075	611449	keystroke	m	n/a
305.9045	0.09	611809	keystroke	i	n/a
306.0695	0.09	612139	keystroke	c	n/a
306.295	0.0895	612590	keystroke	s	n/a
306.4445	0.0755	612889	keystroke	Key.space	n/a
306.655	0.075	613310	keystroke	f	n/a
306.835	0.0755	613670	keystroke	r	n/a
306.9855	0.1045	613971	keystroke	a	n/a
307.2705	0.0745	614541	keystroke	s	n/a
307.45	0.0905	614900	keystroke	e	n/a
307.525	0.12	615050	keystroke	r	n/a
307.795	0.105	615590	keystroke	Key.enter	n/a
307.913	8.6285	615826	prompt	n/a	storage bundle hungry we'll\n
308.5905	0.0895	617181	keystroke	s	n/a
309.115	0.075	618230	keystroke	t	n/a
309.3555	0.0895	618711	keystroke	o	n/a
309.4905	0.074	618981	keystroke	r	n/a
309.7295	0.1055	619459	keystroke	a	n/a
309.881	0.089	619762	keystroke	g	n/a
310.015	0.075	620030	keystroke	e	n/a
310.105	0.09	620210	keystroke	Key.space	n/a
310.585	0.0755	621170	keystroke	b	n/a
310.7795	0.091	621559	keystroke	u	n/a
311.245	0.09	622490	keystroke	n	n/a
311.53	0.09	623060	keystroke	d	n/a
311.725	0.1055	623450	keystroke	l	n/a
311.875	0.075	623750	keystroke	e	n/a
311.965	0.075	623930	keystroke	Key.space	n/a
312.2355	0.0595	624471	keystroke	h	n/a
312.4305	0.06	624861	keystroke	u	n/a
312.6095	0.076	625219	keystroke	n	n/a
312.8055	0.074	625611	keystroke	g	n/a
313	0.075	626000	keystroke	r	n/a
313.135	0.09	626270	keystroke	y	n/a
313.27	0.06	626540	keystroke	Key.space	n/a
313.435	0.106	626870	keystroke	w	n/a
313.6155	0.075	627231	keystroke	e	n/a
313.825	0.076	627650	keystroke	'	n/a
313.9605	0.1045	627921	keystroke	'	n/a
314.23	0.0605	628460	keystroke	l	n/a
314.3955	0.06	628791	keystroke	l	n/a
314.8745	0.045	629749	keystroke	Key.backspace	n/a
315.04	0.06	630080	keystroke	Key.backspace	n/a
315.22	0.06	630440	keystroke	Key.backspace	n/a
316.0305	0.06	632061	keystroke	l	n/a
316.15	0.09	632300	keystroke	l	n/a
316.45	0.0895	632900	keystroke	Key.enter	n/a
316.5455	6.686	633091	prompt	n/a	hang split hardcover legendary\n
317.3795	0.061	634759	keystroke	h	n/a
317.4995	0.1055	634999	keystroke	a	n/a
317.5745	0.106	635149	keystroke	n	n/a
317.7105	0.09	635421	keystroke	d	n/a
317.8595	0.09	635719	keystroke	Key.space	n/a
318.0845	0.09	636169	keystroke	s	n/a
318.5045	0.09	637009	keystroke	p	n/a
318.7595	0.0905	637519	keystroke	l	n/a
318.956	0.0595	637912	keystroke	i	n/a
319.09	0.075	638180	keystroke	t	n/a
319.225	0.0595	638450	keystroke	Key.space	n/a
319.51	0.075	639020	keystroke	h	n/a
319.6455	0.1045	639291	keystroke	a	n/a
319.72	0.105	639440	keystroke	r	n/a
319.9455	0.1045	639891	keystroke	d	n/a
320.4105	0.0745	640821	keystroke	c	n/a
320.499	0.091	640998	keystroke	o	n/a
320.6355	0.0595	641271	keystroke	v	n/a
320.785	0.0745	641570	keystroke	e	n/a
320.8445	0.105	641689	keystroke	r	n/a
321.085	0.06	642170	keystroke	Key.space	n/a
321.2805	0.104	642561	keystroke	l	n/a
321.4455	0.0595	642891	keystroke	e	n/a
321.6555	0.0595	643311	keystroke	g	n/a
321.805	0.0605	643610	keystroke	e	n/a
321.9255	0.0745	643851	keystroke	n	n/a
322.166	0.089	644332	keystroke	d	n/a
322.3	0.12	644600	keystroke	a	n/a
322.75	0.06	645500	keystroke	r	n/a
322.84	0.075	645680	keystroke	y	n/a
323.1545	0.075	646309	keystroke	Key.enter	n/a
323.236	7.017	646472	prompt	n/a	greeting delhi deposit earnings\n
323.9955	0.075	647991	keystroke	g	n/a
324.1745	0.091	648349	keystroke	r	n/a
324.3695	0.061	648739	keystroke	e	n/a
324.5505	0.0445	649101	keystroke	e	n/a
324.6555	0.09	649311	keystroke	t	n/a
324.835	0.135	649670	keystroke	i	n/a
324.896	0.179	649792	keystroke	n	n/a
325.0005	0.1195	650001	keystroke	g	n/a
325.105	0.09	650210	keystroke	Key.space	n/a
325.4055	0.075	650811	keystroke	d	n/a
325.6005	0.06	651201	keystroke	e	n/a
325.9305	0.104	651861	keystroke	l	n/a
326.8295	0.076	653659	keystroke	h	n/a
327.1145	0.076	654229	keystroke	i	n/a
327.3245	0.0605	654649	keystroke	Key.space	n/a
327.5045	0.091	655009	keystroke	d	n/a
327.6695	0.076	655339	keystroke	e	n/a
327.8045	0.0905	655609	keystroke	p	n/a
327.97	0.09	655940	keystroke	o	n/a
328.1955	0.104	656391	keystroke	s	n/a
328.3445	0.0755	656689	keystroke	i	n/a
328.4655	0.075	656931	keystroke	t	n/a
328.585	0.075	657170	keystroke	Key.space	n/a
328.8105	0.0595	657621	keystroke	e	n/a
328.9455	0.1195	657891	keystroke	a	n/a
329.08	0.105	658160	keystroke	r	n/a
329.29	0.061	658580	keystroke	n	n/a
329.425	0.165	658850	keystroke	i	n/a
329.53	0.18	659060	keystroke	n	n/a
329.635	0.09	659270	keystroke	g	n/a
329.815	0.105	659630	keystroke	s	n/a
330.16	0.09	660320	keystroke	Key.enter	n/a
330.272	5.9645	660544	prompt	n/a	cheers upon andy enquiries\n
330.9245	0.0905	661849	keystroke	c	n/a
331.0295	0.09	662059	keystroke	h	n/a
331.165	0.0605	662330	keystroke	e	n/a
331.3295	0.075	662659	keystroke	e	n/a
331.42	0.105	662840	keystroke	r	n/a
331.5705	0.1045	663141	keystroke	s	n/a
331.735	0.044	663470	keystroke	Key.space	n/a
331.915	0.0755	663830	keystroke	u	n/a
332.0655	0.0895	664131	keystroke	p	n/a
332.275	0.135	664550	keystroke	o	n/a
332.38	0.165	664760	keystroke	n	n/a
332.56	0.075	665120	keystroke	Key.space	n/a
332.8155	0.105	665631	keystroke	a	n/a
332.9495	0.0755	665899	keystroke	n	n/a
333.055	0.0895	666110	keystroke	d	n/a
333.19	0.0895	666380	keystroke	y	n/a
333.34	0.075	666680	keystroke	Key.space	n/a
333.67	0.0895	667340	keystroke	e	n/a
333.805	0.0895	667610	keystroke	n	n/a
334.39	0.105	668780	keystroke	q	n/a
334.555	0.074	669110	keystroke	u	n/a
334.84	0.105	669680	keystroke	i	n/a
335.02	0.105	670040	keystroke	r	n/a
335.275	0.09	670550	keystroke	i	n/a
335.8905	0.075	671781	keystroke	e	n/a
335.98	0.09	671960	keystroke	s	n/a
336.115	0.119	672230	keystroke	Key.enter	n/a
336.2405	9.019	672481	prompt	n/a	last motorcycle skip tactics\n
337.225	0.12	674450	keystroke	l	n/a
337.285	0.135	674570	keystroke	a	n/a
337.4355	0.0895	674871	keystroke	s	n/a
337.6145	0.0755	675229	keystroke	t	n/a
337.7345	0.0895	675469	keystroke	Key.space	n/a
338.335	0.0745	676670	keystroke	m	n/a
338.4555	0.105	676911	keystroke	o	n/a
338.725	0.075	677450	keystroke	t	n/a
338.861	0.104	677722	keystroke	o	n/a
339.5355	0.09	679071	keystroke	r	n/a
339.9855	0.075	679971	keystroke	y	n/a
340.735	0.105	681470	keystroke	Key.backspace	n/a
341.5445	0.09	683089	keystroke	c	n/a
341.665	0.0895	683330	keystroke	y	n/a
341.8745	0.09	683749	keystroke	c	n/a
342.0555	0.12	684111	keystroke	l	n/a
342.2205	0.0745	684441	keystroke	e	n/a
342.3995	0.075	684799	keystroke	Key.space	n/a
342.61	0.0905	685220	keystroke	s	n/a
342.7015	0.103	685403	keystroke	k	n/a
343.0005	0.075	686001	keystroke	i	n/a
343.2395	0.09	686479	keystroke	p	n/a
343.4195	0.045	686839	keystroke	Key.space	n/a
343.5845	0.075	687169	keystroke	t	n/a
343.735	0.09	687470	keystroke	a	n/a
343.9295	0.075	687859	keystroke	c	n/a
344.1545	0.06	688309	keystroke	t	n/a
344.2455	0.1045	688491	keystroke	i	n/a
344.5895	0.106	689179	keystroke	c	n/a
344.8295	0.106	689659	keystroke	s	n/a
345.1595	0.09	690319	keystroke	Key.enter	n/a
345.2715	6.625	690543	prompt	n/a	classifieds nevada hits live\n
345.999	0.091	691998	keystroke	c	n/a
346.12	0.12	692240	keystroke	l	n/a
346.255	0.105	692510	keystroke	a	n/a
346.465	0.06	692930	keystroke	s	n/a
346.6005	0.0895	693201	keystroke	s	n/a
346.7345	0.105	693469	keystroke	i	n/a
347.035	0.075	694070	keystroke	f	n/a
347.1405	0.0895	694281	keystroke	i	n/a
347.3505	0.0595	694701	keystroke	e	n/a
347.545	0.075	695090	keystroke	d	n/a
347.9205	0.104	695841	keystroke	s	n/a
348.13	0.0595	696260	keystroke	Key.space	n/a
348.4595	0.075	696919	keystroke	n	n/a
348.5805	0.059	697161	keystroke	e	n/a
348.7295	0.1055	697459	keystroke	v	n/a
348.9095	0.0905	697819	keystroke	e	n/a
349.45	0.075	698900	keystroke	Key.backspace	n/a
349.63	0.09	699260	keystroke	a	n/a
349.8855	0.075	699771	keystroke	d	n/a
350.02	0.1205	700040	keystroke	a	n/a
350.32	0.045	700640	keystroke	Key.space	n/a
350.499	0.0465	700998	keystroke	h	n/a
350.605	0.12	701210	keystroke	i	n/a
350.7545	0.0905	701509	keystroke	t	n/a
350.9055	0.119	701811	keystroke	s	n/a
351.055	0.0595	702110	keystroke	Key.space	n/a
351.2205	0.0895	702441	keystroke	l	n/a
351.3705	0.074	702741	keystroke	i	n/a
351.4905	0.074	702981	keystroke	v	n/a
351.6405	0.0745	703281	keystroke	e	n/a
351.8045	0.09	703609	keystroke	Key.enter	n/a
351.903	5.903	703806	prompt	n/a	korea delhi deluxe nine\n
352.8405	0.059	705681	keystroke	k	n/a
353.0055	0.0745	706011	keystroke	o	n/a
353.26	0.0905	706520	keystroke	r	n/a
353.425	0.0745	706850	keystroke	e	n/a
353.5595	0.105	707119	keystroke	a	n/a
353.74	0.0745	707480	keystroke	Key.space	n/a
354.0705	0.0895	708141	keystroke	d	n/a
354.2655	0.0605	708531	keystroke	e	n/a
354.415	0.09	708830	keystroke	l	n/a
354.685	0.06	709370	keystroke	h	n/a
354.82	0.09	709640	keystroke	i	n/a
354.955	0.0745	709910	keystroke	Key.space	n/a
355.24	0.0755	710480	keystroke	d	n/a
355.42	0.0595	710840	keystroke	e	n/a
355.585	0.06	711170	keystroke	l	n/a
355.7355	0.105	711471	keystroke	u	n/a
356.125	0.0905	712250	keystroke	x	n/a
356.3955	0.0745	712791	keystroke	e	n/a
356.665	0.045	713330	keystroke	Key.space	n/a
356.83	0.0595	713660	keystroke	n	n/a
356.965	0.09	713930	keystroke	i	n/a
357.4	0.09	714800	keystroke	n	n/a
357.52	0.075	715040	keystroke	e	n/a
357.7295	0.0755	715459	keystroke	Key.enter	n/a
357.8145	5.9615	715629	prompt	n/a	nike christmas stopping mere\n
358.5105	0.045	717021	keystroke	n	n/a
358.6305	0.074	717261	keystroke	i	n/a
358.8105	0.0745	717621	keystroke	k	n/a
358.9155	0.09	717831	keystroke	e	n/a
359.0195	0.075	718039	keystroke	Key.space	n/a
359.2305	0.1045	718461	keystroke	c	n/a
359.3495	0.0905	718699	keystroke	h	n/a
359.8295	0.091	719659	keystroke	r	n/a
359.98	0.0745	719960	keystroke	i	n/a
360.1895	0.1055	720379	keystroke	s	n/a
360.46	0.074	720920	keystroke	t	n/a
360.8495	0.0755	721699	keystroke	m	n/a
360.97	0.1205	721940	keystroke	a	n/a
361.18	0.0755	722360	keystroke	s	n/a
361.315	0.06	722630	keystroke	Key.space	n/a
361.5395	0.091	723079	keystroke	s	n/a
361.705	0.06	723410	keystroke	t	n/a
361.9145	0.0755	723829	keystroke	o	n/a
362.1545	0.061	724309	keystroke	p	n/a
362.32	0.0455	724640	keystroke	p	n/a
362.44	0.18	724880	keystroke	i	n/a
362.5445	0.18	725089	keystroke	n	n/a
362.6345	0.1205	725269	keystroke	g	n/a
362.7555	0.074	725511	keystroke	Key.space	n/a
362.9205	0.1195	725841	keystroke	m	n/a
363.055	0.105	726110	keystroke	e	n/a
363.145	0.239	726290	keystroke	r	n/a
363.295	0.075	726590	keystroke	e	n/a
363.7	0.074	727400	keystroke	Key.enter	n/a
363.7815	6.355	727563	prompt	n/a	estate cleared plants compatible\n
364.555	0.075	729110	keystroke	e	n/a
364.72	0.075	729440	keystroke	s	n/a
364.9155	0.0745	729831	keystroke	t	n/a
365.035	0.12	730070	keystroke	a	n/a
365.17	0.075	730340	keystroke	t	n/a
365.335	0.06	730670	keystroke	e	n/a
365.485	0.045	730970	keystroke	Key.space	n/a
365.68	0.0905	731360	keystroke	c	n/a
365.8005	0.1195	731601	keystroke	l	n/a
365.98	0.105	731960	keystroke	e	n/a
366.115	0.179	732230	keystroke	a	n/a
366.31	0.1055	732620	keystroke	r	n/a
366.58	0.0745	733160	keystroke	e	n/a
366.7445	0.09	733489	keystroke	d	n/a
366.88	0.06	733760	keystroke	Key.space	n/a
367.06	0.09	734120	keystroke	p	n/a
367.2245	0.1205	734449	keystroke	l	n/a
367.4055	0.119	734811	keystroke	a	n/a
367.5405	0.105	735081	keystroke	n	n/a
367.6905	0.089	735381	keystroke	t	n/a
367.9	0.0895	735800	keystroke	s	n/a
368.0195	0.06	736039	keystroke	Key.space	n/a
368.23	0.091	736460	keystroke	c	n/a
368.322	0.133	736644	keystroke	o	n/a
368.4245	0.1355	736849	keystroke	m	n/a
368.665	0.0905	737330	keystroke	p	n/a
368.8145	0.105	737629	keystroke	a	n/a
369.205	0.105	738410	keystroke	t	n/a
369.369	0.091	738738	keystroke	i	n/a
369.6105	0.075	739221	keystroke	b	n/a
369.7155	0.1185	739431	keystroke	l	n/a
369.835	0.0595	739670	keystroke	e	n/a
370.029	0.105	740058	keystroke	Key.enter	n/a
370.14	15.8365	740280	prompt	n/a	exit shouldn't've concentrations mozambique\n
370.945	0.075	741890	keystroke	e	n/a
371.1545	0.105	742309	keystroke	x	n/a
371.4995	0.0755	742999	keystroke	i	n/a
371.6345	0.09	743269	keystroke	t	n/a
371.7545	0.075	743509	keystroke	Key.space	n/a
372.0095	0.105	744019	keystroke	s	n/a
372.1295	0.0755	744259	keystroke	h	n/a
372.22	0.135	744440	keystroke	o	n/a
372.325	0.105	744650	keystroke	u	n/a
372.565	0.1195	745130	keystroke	l	n/a
372.9555	0.0885	745911	keystroke	d	n/a
373.5105	0.0585	747021	keystroke	n	n/a
374.605	0.105	749210	keystroke	'	n/a
376.315	0.059	752630	keystroke	Key.backspace	n/a
378.506	0.043	757012	keystroke	'	n/a
378.594	0.091	757188	keystroke	t	n/a
379.135	0.09	758270	keystroke	'	n/a
379.509	0.0765	759018	keystroke	v	n/a
379.659	0.076	759318	keystroke	e	n/a
379.8405	0.059	759681	keystroke	Key.space	n/a
380.05	0.0755	760100	keystroke	c	n/a
380.1405	0.15	760281	keystroke	o	n/a
380.2295	0.165	760459	keystroke	n	n/a
380.425	0.0895	760850	keystroke	c	n/a
380.5905	0.09	761181	keystroke	e	n/a
380.8455	0.074	761691	keystroke	n	n/a
381.145	0.0605	762290	keystroke	t	n/a
381.325	0.075	762650	keystroke	r	n/a
381.55	0.1045	763100	keystroke	a	n/a
381.715	0.075	763430	keystroke	i	n/a
382.4495	0.075	764899	keystroke	Key.backspace	n/a
382.6755	0.074	765351	keystroke	t	n/a
382.7655	0.134	765531	keystroke	i	n/a
382.8545	0.1805	765709	keystroke	o	n/a
382.974	0.196	765948	keystroke	n	n/a
383.155	0.1045	766310	keystroke	s	n/a
383.3045	0.075	766609	keystroke	Key.space	n/a
383.485	0.09	766970	keystroke	m	n/a
383.6205	0.119	767241	keystroke	o	n/a
383.905	0.105	767810	keystroke	z	n/a
384.145	0.09	768290	keystroke	a	n/a
384.4445	0.0905	768889	keystroke	m	n/a
384.94	0.105	769880	keystroke	b	n/a
385.091	0.074	770182	keystroke	i	n/a
385.405	0.09	770810	keystroke	q	n/a
385.51	0.09	771020	keystroke	u	n/a
385.66	0.075	771320	keystroke	e	n/a
385.87	0.105	771740	keystroke	Key.enter	n/a
385.9845	8.542	771969	prompt	n/a	riverside benjamin guru monitoring\n
386.845	0.0905	773690	keystroke	r	n/a
387.0245	0.076	774049	keystroke	i	n/a
387.3405	0.0745	774681	keystroke	v	n/a
387.52	0.104	775040	keystroke	e	n/a
387.609	0.1065	775218	keystroke	r	n/a
387.895	0.09	775790	keystroke	s	n/a
388.03	0.075	776060	keystroke	i	n/a
388.135	0.075	776270	keystroke	d	n/a
388.345	0.06	776690	keystroke	e	n/a
388.525	0.06	777050	keystroke	Key.space	n/a
388.87	0.0595	777740	keystroke	b	n/a
389.0345	0.075	778069	keystroke	e	n/a
389.3495	0.075	778699	keystroke	n	n/a
389.605	0.0745	779210	keystroke	j	n/a
389.74	0.1045	779480	keystroke	a	n/a
389.875	0.0895	779750	keystroke	m	n/a
390.055	0.105	780110	keystroke	i	n/a
390.145	0.135	780290	keystroke	n	n/a
390.34	0.0595	780680	keystroke	Key.space	n/a
390.985	0.194	781970	keystroke	g	n/a
391.194	0.016	782388	keystroke	u	n/a
391.24	0.075	782480	keystroke	r	n/a
391.405	0.09	782810	keystroke	u	n/a
391.779	0.061	783558	keystroke	Key.space	n/a
392.005	0.074	784010	keystroke	m	n/a
392.199	0.091	784398	keystroke	i	n/a
392.814	0.0605	785628	keystroke	Key.backspace	n/a
393.04	0.06	786080	keystroke	o	n/a
393.2345	0.0455	786469	keystroke	n	n/a
393.37	0.075	786740	keystroke	i	n/a
393.64	0.0755	787280	keystroke	t	n/a
393.7305	0.105	787461	keystroke	o	n/a
393.85	0.075	787700	keystroke	r	n/a
394.044	0.136	788088	keystroke	i	n/a
394.119	0.166	788238	keystroke	n	n/a
394.27	0.0905	788540	keystroke	g	n/a
394.4195	0.105	788839	keystroke	Key.enter	n/a
394.531	6.4155	789062	prompt	n/a	reprints lover cosmetic printer\n
395.275	0.105	790550	keystroke	r	n/a
395.365	0.09	790730	keystroke	e	n/a
395.62	0.0905	791240	keystroke	p	n/a
395.8145	0.091	791629	keystroke	r	n/a
396.1005	0.075	792201	keystroke	i	n/a
396.28	0.0895	792560	keystroke	n	n/a
396.3995	0.105	792799	keystroke	t	n/a
396.6405	0.1045	793281	keystroke	s	n/a
396.7745	0.075	793549	keystroke	Key.space	n/a
397.03	0.0745	794060	keystroke	l	n/a
397.2255	0.076	794451	keystroke	o	n/a
397.3295	0.09	794659	keystroke	v	n/a
397.4795	0.105	794959	keystroke	e	n/a
397.57	0.1055	795140	keystroke	r	n/a
397.6895	0.0605	795379	keystroke	Key.space	n/a
397.9745	0.09	795949	keystroke	c	n/a
398.1095	0.106	796219	keystroke	o	n/a
398.2905	0.105	796581	keystroke	s	n/a
398.5445	0.0905	797089	keystroke	m	n/a
398.6955	0.075	797391	keystroke	e	n/a
399.0095	0.0755	798019	keystroke	t	n/a
399.1455	0.074	798291	keystroke	i	n/a
399.2645	0.105	798529	keystroke	c	n/a
399.5045	0.0455	799009	keystroke	Key.space	n/a
399.7305	0.1045	799461	keystroke	p	n/a
399.865	0.09	799730	keystroke	r	n/a
400.045	0.0605	800090	keystroke	i	n/a
400.165	0.105	800330	keystroke	n	n/a
400.375	0.06	800750	keystroke	t	n/a
400.556	0.089	801112	keystroke	e	n/a
400.6305	0.0895	801261	keystroke	r	n/a
400.855	0.09	801710	keystroke	Key.enter	n/a
400.9565	7.6255	801913	prompt	n/a	summer wiley throat utilize\n
401.7705	0.09	803541	keystroke	s	n/a
401.9355	0.075	803871	keystroke	u	n/a
402.1595	0.0605	804319	keystroke	m	n/a
402.295	0.0745	804590	keystroke	m	n/a
402.4595	0.061	804919	keystroke	b	n/a
402.895	0.0595	805790	keystroke	Key.backspace	n/a
403.105	0.1045	806210	keystroke	e	n/a
403.195	0.1195	806390	keystroke	r	n/a
403.3295	0.075	806659	keystroke	Key.space	n/a
403.869	0.1065	807738	keystroke	w	n/a
403.99	0.075	807980	keystroke	i	n/a
404.23	0.104	808460	keystroke	l	n/a
404.3955	0.075	808791	keystroke	e	n/a
404.53	0.089	809060	keystroke	y	n/a
404.665	0.059	809330	keystroke	Key.space	n/a
404.9355	0.089	809871	keystroke	t	n/a
405.0405	0.0745	810081	keystroke	h	n/a
405.2655	0.0745	810531	keystroke	r	n/a
405.415	0.09	810830	keystroke	o	n/a
405.6855	0.105	811371	keystroke	a	n/a
405.88	0.075	811760	keystroke	t	n/a
406.074	0.061	812148	keystroke	Key.space	n/a
406.9305	0.089	813861	keystroke	u	n/a
407.335	0.0745	814670	keystroke	t	n/a
407.5	0.0745	815000	keystroke	i	n/a
407.6945	0.076	815389	keystroke	l	n/a
407.8445	0.091	815689	keystroke	i	n/a
408.085	0.09	816170	keystroke	z	n/a
408.296	0.044	816592	keystroke	e	n/a
408.49	0.09	816980	keystroke	Key.enter	n/a
408.588	9.053	817176	prompt	n/a	reflect contractor prepared arbitration\n
409.51	0.09	819020	keystroke	r	n/a
409.615	0.09	819230	keystroke	e	n/a
409.8405	0.104	819681	keystroke	l	n/a
410.245	0.0595	820490	keystroke	Key.backspace	n/a
410.4245	0.075	820849	keystroke	f	n/a
410.5295	0.12	821059	keystroke	l	n/a
410.6945	0.0755	821389	keystroke	e	n/a
410.8905	0.06	821781	keystroke	c	n/a
411.055	0.045	822110	keystroke	t	n/a
411.34	0.059	822680	keystroke	Key.space	n/a
411.7745	0.0905	823549	keystroke	c	n/a
411.8505	0.1195	823701	keystroke	o	n/a
411.9405	0.1495	823881	keystroke	n	n/a
412.105	0.075	824210	keystroke	t	n/a
412.27	0.0605	824540	keystroke	r	n/a
412.3905	0.1045	824781	keystroke	a	n/a
412.6	0.074	825200	keystroke	c	n/a
412.795	0.045	825590	keystroke	t	n/a
412.885	0.0905	825770	keystroke	o	n/a
413.0205	0.0745	826041	keystroke	r	n/a
413.124	0.06	826248	keystroke	Key.space	n/a
413.35	0.089	826700	keystroke	p	n/a
413.499	0.1055	826998	keystroke	r	n/a
413.635	0.074	827270	keystroke	e	n/a
413.8595	0.1045	827719	keystroke	p	n/a
413.9795	0.121	827959	keystroke	a	n/a
414.054	0.135	828108	keystroke	r	n/a
414.234	0.09	828468	keystroke	e	n/a
414.444	0.075	828888	keystroke	d	n/a
414.564	0.075	829128	keystroke	Key.space	n/a
414.894	0.0905	829788	keystroke	a	n/a
415.03	0.0905	830060	keystroke	r	n/a
415.4795	0.09	830959	keystroke	b	n/a
415.96	0.0595	831920	keystroke	i	n/a
416.274	0.0765	832548	keystroke	t	n/a
416.485	0.09	832970	keystroke	r	n/a
416.695	0.1055	833390	keystroke	a	n/a
416.9355	0.059	833871	keystroke	t	n/a
416.9805	0.1345	833961	keystroke	i	n/a
417.07	0.1645	834140	keystroke	o	n/a
417.1905	0.1645	834381	keystroke	n	n/a
417.55	0.0895	835100	keystroke	Key.enter	n/a
417.6435	7.558	835287	prompt	n/a	projector cattle evaluations mercy\n
418.315	0.12	836630	keystroke	p	n/a
418.42	0.0755	836840	keystroke	r	n/a
418.5255	0.1045	837051	keystroke	o	n/a
418.75	0.075	837500	keystroke	j	n/a
418.8705	0.0745	837741	keystroke	e	n/a
419.0495	0.0905	838099	keystroke	c	n/a
419.2295	0.06	838459	keystroke	t	n/a
419.3645	0.106	838729	keystroke	o	n/a
419.485	0.09	838970	keystroke	r	n/a
419.589	0.076	839178	keystroke	Key.space	n/a
419.8445	0.09	839689	keystroke	c	n/a
420.009	0.106	840018	keystroke	a	n/a
420.2645	0.0455	840529	keystroke	t	n/a
420.415	0.0605	840830	keystroke	t	n/a
420.519	0.1065	841038	keystroke	l	n/a
420.6405	0.09	841281	keystroke	e	n/a
420.7445	0.075	841489	keystroke	Key.space	n/a
420.985	0.075	841970	keystroke	e	n/a
421.4055	0.0745	842811	keystroke	v	n/a
421.6445	0.1055	843289	keystroke	a	n/a
421.915	0.09	843830	keystroke	l	n/a
422.095	0.09	844190	keystroke	u	n/a
422.4255	0.1045	844851	keystroke	a	n/a
422.9655	0.105	845931	keystroke	t	n/a
423.0555	0.1495	846111	keystroke	i	n/a
423.16	0.18	846320	keystroke	o	n/a
423.28	0.18	846560	keystroke	n	n/a
423.4755	0.1195	846951	keystroke	s	n/a
423.655	0.075	847310	keystroke	Key.space	n/a
424	0.09	848000	keystroke	m	n/a
424.1355	0.0895	848271	keystroke	e	n/a
424.211	0.1045	848422	keystroke	r	n/a
424.5105	0.09	849021	keystroke	c	n/a
424.675	0.09	849350	keystroke	y	n/a
425.0945	0.105	850189	keystroke	Key.enter	n/a
425.209	8.5725	850418	prompt	n/a	findlaw resolve passenger preceding\n
426.1455	0.0895	852291	keystroke	f	n/a
426.2505	0.119	852501	keystroke	i	n/a
426.3405	0.18	852681	keystroke	n	n/a
426.79	0.0895	853580	keystroke	d	n/a
427.15	0.09	854300	keystroke	l	n/a
427.4795	0.105	854959	keystroke	a	n/a
427.7655	0.104	855531	keystroke	w	n/a
428.0495	0.06	856099	keystroke	Key.space	n/a
428.2755	0.104	856551	keystroke	r	n/a
428.395	0.075	856790	keystroke	e	n/a
428.8605	0.09	857721	keystroke	s	n/a
429.1595	0.0905	858319	keystroke	o	n/a
429.775	0.105	859550	keystroke	l	n/a
429.94	0.105	859880	keystroke	v	n/a
430.09	0.075	860180	keystroke	e	n/a
430.195	0.075	860390	keystroke	Key.space	n/a
430.5855	0.104	861171	keystroke	p	n/a
430.7345	0.106	861469	keystroke	a	n/a
430.9295	0.06	861859	keystroke	s	n/a
431.155	0.015	862310	keystroke	s	n/a
431.245	0.075	862490	keystroke	e	n/a
431.35	0.09	862700	keystroke	n	n/a
431.53	0.075	863060	keystroke	g	n/a
431.665	0.1055	863330	keystroke	e	n/a
431.755	0.12	863510	keystroke	r	n/a
431.9045	0.0605	863809	keystroke	Key.space	n/a
432.115	0.105	864230	keystroke	p	n/a
432.234	0.121	864468	keystroke	r	n/a
432.339	0.091	864678	keystroke	e	n/a
432.64	0.09	865280	keystroke	c	n/a
432.835	0.075	865670	keystroke	e	n/a
433.1045	0.0755	866209	keystroke	d	n/a
433.2555	0.15	866511	keystroke	i	n/a
433.3295	0.18	866659	keystroke	n	n/a
433.4505	0.1045	866901	keystroke	g	n/a
433.675	0.1045	867350	keystroke	Key.enter	n/a
433.797	7.1695	867594	prompt	n/a	atlanta january bald alaska\n
434.485	0.12	868970	keystroke	a	n/a
434.694	0.091	869388	keystroke	t	n/a
434.965	0.1055	869930	keystroke	l	n/a
435.1155	0.12	870231	keystroke	a	n/a
435.265	0.09	870530	keystroke	n	n/a
435.4	0.09	870800	keystroke	t	n/a
435.505	0.15	871010	keystroke	a	n/a
435.865	0.06	871730	keystroke	Key.space	n/a
436.12	0.09	872240	keystroke	j	n/a
436.39	0.109	872780	keystroke	a	n/a
436.6605	0.09	873321	keystroke	n	n/a
436.961	0.074	873922	keystroke	u	n/a
437.3505	0.1045	874701	keystroke	a	n/a
437.4855	0.0895	874971	keystroke	r	n/a
437.619	0.106	875238	keystroke	y	n/a
437.741	0.074	875482	keystroke	Key.space	n/a
438.0545	0.076	876109	keystroke	b	n/a
438.19	0.1055	876380	keystroke	a	n/a
438.3405	0.105	876681	keystroke	l	n/a
438.8505	0.089	877701	keystroke	d	n/a
439.0145	0.061	878029	keystroke	Key.space	n/a
439.3605	0.104	878721	keystroke	a	n/a
439.4795	0.1205	878959	keystroke	l	n/a
439.9745	0.12	879949	keystroke	a	n/a
440.2905	0.105	880581	keystroke	s	n/a
440.44	0.0905	880880	keystroke	k	n/a
440.7095	0.105	881419	keystroke	a	n/a
440.875	0.0895	881750	keystroke	Key.enter	n/a
440.975	10.1465	881950	prompt	n/a	accommodation limits glossary runtime\n
441.7295	0.105	883459	keystroke	a	n/a
441.9555	0.0745	883911	keystroke	c	n/a
442.121	0.0895	884242	keystroke	c	n/a
442.2695	0.1805	884539	keystroke	o	n/a
445.4685	0.001	890937	keystroke	m	n/a
445.5405	0.075	891081	keystroke	m	n/a
445.7505	0.105	891501	keystroke	o	n/a
446.2305	0.075	892461	keystroke	d	n/a
446.3655	0.12	892731	keystroke	a	n/a
446.5155	0.06	893031	keystroke	t	n/a
446.5895	0.136	893179	keystroke	i	n/a
446.6805	0.165	893361	keystroke	o	n/a
446.8005	0.135	893601	keystroke	n	n/a
446.9195	0.06	893839	keystroke	Key.space	n/a
447.1005	0.09	894201	keystroke	l	n/a
447.2805	0.06	894561	keystroke	i	n/a
447.4605	0.075	894921	keystroke	m	n/a
447.5955	0.075	895191	keystroke	i	n/a
447.7305	0.089	895461	keystroke	t	n/a
447.8805	0.105	895761	keystroke	s	n/a
448.0155	0.074	896031	keystroke	Key.space	n/a
448.256	0.0745	896512	keystroke	g	n/a
448.3755	0.09	896751	keystroke	l	n/a
448.5845	0.076	897169	keystroke	o	n/a
448.8705	0.045	897741	keystroke	s	n/a
448.9905	0.075	897981	keystroke	s	n/a
449.1245	0.121	898249	keystroke	a	n/a
449.2905	0.09	898581	keystroke	y	n/a
449.485	0.0745	898970	keystroke	Key.space	n/a
449.755	0.0905	899510	keystroke	r	n/a
449.9345	0.0905	899869	keystroke	u	n/a
450.1595	0.09	900319	keystroke	n	n/a
450.371	0.0735	900742	keystroke	t	n/a
450.55	0.0745	901100	keystroke	i	n/a
450.6995	0.12	901399	keystroke	m	n/a
450.835	0.0755	901670	keystroke	e	n/a
451.0145	0.1055	902029	keystroke	Key.enter	n/a
451.126	6.9405	902252	prompt	n/a	alloy recycling bloomberg joan\n
451.7805	0.0895	903561	keystroke	a	n/a
451.9155	0.06	903831	keystroke	l	n/a
452.0645	0.061	904129	keystroke	l	n/a
452.23	0.0605	904460	keystroke	o	n/a
452.365	0.0895	904730	keystroke	y	n/a
452.5295	0.0905	905059	keystroke	Key.space	n/a
452.7105	0.12	905421	keystroke	r	n/a
452.8155	0.09	905631	keystroke	e	n/a
453.0245	0.0905	906049	keystroke	c	n/a
453.1605	0.089	906321	keystroke	y	n/a
453.4755	0.09	906951	keystroke	c	n/a
453.64	0.1055	907280	keystroke	l	n/a
453.7605	0.0745	907521	keystroke	e	n/a
453.9255	0.149	907851	keystroke	i	n/a
453.9855	0.179	907971	keystroke	n	n/a
454.105	0.1045	908210	keystroke	g	n/a
454.225	0.06	908450	keystroke	Key.space	n/a
454.5105	0.075	909021	keystroke	b	n/a
454.69	0.075	909380	keystroke	l	n/a
454.9455	0.076	909891	keystroke	o	n/a
455.2295	0.0615	910459	keystroke	o	n/a
455.4255	0.1045	910851	keystroke	m	n/a
455.7405	0.075	911481	keystroke	b	n/a
455.89	0.105	911780	keystroke	e	n/a
455.98	0.105	911960	keystroke	r	n/a
456.355	0.075	912710	keystroke	g	n/a
456.505	0.075	913010	keystroke	Key.space	n/a
456.895	0.0745	913790	keystroke	j	n/a
457.1505	0.09	914301	keystroke	o	n/a
457.3905	0.0895	914781	keystroke	a	n/a
457.5405	0.0745	915081	keystroke	n	n/a
457.9905	0.0745	915981	keystroke	Key.enter	n/a
458.071	11.3225	916142	prompt	n/a	cookbook strategic camcorders linux\n
458.785	0.09	917570	keystroke	c	n/a
458.9055	0.0595	917811	keystroke	o	n/a
459.0555	0.0745	918111	keystroke	o	n/a
459.235	0.075	918470	keystroke	k	n/a
460.2555	0.075	920511	keystroke	b	n/a
460.3905	0.06	920781	keystroke	o	n/a
460.5405	0.09	921081	keystroke	o	n/a
460.7205	0.075	921441	keystroke	k	n/a
461.0495	0.075	922099	keystroke	Key.space	n/a
461.2305	0.075	922461	keystroke	s	n/a
461.3505	0.074	922701	keystroke	t	n/a
461.5145	0.061	923029	keystroke	r	n/a
461.6805	0.104	923361	keystroke	a	n/a
461.9505	0.075	923901	keystroke	t	n/a
462.1605	0.0745	924321	keystroke	e	n/a
462.8505	0.0745	925701	keystroke	g	n/a
463.0305	0.075	926061	keystroke	e	n/a
463.48	0.06	926960	keystroke	Key.backspace	n/a
463.6755	0.09	927351	keystroke	i	n/a
463.7955	0.0895	927591	keystroke	c	n/a
463.93	0.075	927860	keystroke	Key.space	n/a
464.5755	0.0745	929151	keystroke	c	n/a
464.8455	0.0145	929691	keystroke	a	n/a
465.28	0.09	930560	keystroke	m	n/a
465.625	0.06	931250	keystroke	o	n/a
466.105	0.045	932210	keystroke	Key.backspace	n/a
466.331	0.089	932662	keystroke	c	n/a
466.57	0.0905	933140	keystroke	o	n/a
466.735	0.0905	933470	keystroke	r	n/a
467.0345	0.0755	934069	keystroke	d	n/a
467.2305	0.06	934461	keystroke	e	n/a
467.4705	0.074	934941	keystroke	r	n/a
467.7095	0.0905	935419	keystroke	s	n/a
467.8595	0.0605	935719	keystroke	Key.space	n/a
468.2355	0.0745	936471	keystroke	l	n/a
468.37	0.09	936740	keystroke	i	n/a
468.52	0.1055	937040	keystroke	n	n/a
468.9105	0.075	937821	keystroke	u	n/a
469.0445	0.09	938089	keystroke	s	n/a
469.3	0.0895	938600	keystroke	Key.enter	n/a
469.409	7.7075	938818	prompt	n/a	products prospects caution edition\n
470.425	0.1195	940850	keystroke	p	n/a
470.5295	0.077	941059	keystroke	r	n/a
470.6495	0.075	941299	keystroke	o	n/a
470.8605	0.09	941721	keystroke	d	n/a
470.9655	0.075	941931	keystroke	u	n/a
471.1	0.075	942200	keystroke	c	n/a
471.25	0.075	942500	keystroke	t	n/a
471.461	0.104	942922	keystroke	s	n/a
471.625	0.075	943250	keystroke	Key.space	n/a
471.896	0.0885	943792	keystroke	p	n/a
471.9705	0.0895	943941	keystroke	r	n/a
472.091	0.089	944182	keystroke	o	n/a
472.36	0.09	944720	keystroke	s	n/a
472.72	0.0905	945440	keystroke	p	n/a
472.855	0.0745	945710	keystroke	e	n/a
473.0505	0.06	946101	keystroke	c	n/a
473.1855	0.075	946371	keystroke	t	n/a
473.3495	0.091	946699	keystroke	s	n/a
474.0545	0.061	948109	keystroke	Key.space	n/a
474.58	0.091	949160	keystroke	c	n/a
474.7755	0.1045	949551	keystroke	a	n/a
474.91	0.091	949820	keystroke	u	n/a
475.1805	0.06	950361	keystroke	t	n/a
475.2555	0.1345	950511	keystroke	i	n/a
475.345	0.165	950690	keystroke	o	n/a
475.4655	0.1645	950931	keystroke	n	n/a
475.645	0.075	951290	keystroke	Key.space	n/a
475.855	0.09	951710	keystroke	e	n/a
476.0505	0.0905	952101	keystroke	d	n/a
476.215	0.0905	952430	keystroke	i	n/a
476.4095	0.075	952819	keystroke	t	n/a
476.4695	0.135	952939	keystroke	i	n/a
476.5605	0.165	953121	keystroke	o	n/a
476.6805	0.1495	953361	keystroke	n	n/a
477.01	0.1045	954020	keystroke	Key.enter	n/a
477.1245	10.3725	954249	prompt	n/a	philadelphia blowing governing receivers\n
477.9845	0.076	955969	keystroke	p	n/a
478.105	0.09	956210	keystroke	h	n/a
478.675	0.075	957350	keystroke	i	n/a
479.095	0.105	958190	keystroke	l	n/a
480.0255	0.1195	960051	keystroke	a	n/a
480.3855	0.0895	960771	keystroke	d	n/a
480.5955	0.075	961191	keystroke	e	n/a
480.8355	0.09	961671	keystroke	l	n/a
481.075	0.06	962150	keystroke	p	n/a
481.2405	0.0605	962481	keystroke	h	n/a
481.375	0.09	962750	keystroke	i	n/a
481.6595	0.105	963319	keystroke	a	n/a
481.87	0.0745	963740	keystroke	Key.space	n/a
482.1705	0.075	964341	keystroke	b	n/a
482.3055	0.09	964611	keystroke	l	n/a
482.5305	0.059	965061	keystroke	o	n/a
482.965	0.075	965930	keystroke	w	n/a
483.25	0.135	966500	keystroke	i	n/a
483.325	0.2095	966650	keystroke	n	n/a
483.4605	0.104	966921	keystroke	g	n/a
483.7445	0.06	967489	keystroke	Key.space	n/a
484.0445	0.075	968089	keystroke	g	n/a
484.2245	0.09	968449	keystroke	o	n/a
484.5245	0.076	969049	keystroke	v	n/a
484.87	0.105	969740	keystroke	e	n/a
484.946	0.134	969892	keystroke	r	n/a
485.2305	0.1045	970461	keystroke	i	n/a
485.2755	0.2095	970551	keystroke	n	n/a
485.41	0.105	970820	keystroke	g	n/a
485.545	0.075	971090	keystroke	Key.space	n/a
485.785	0.1355	971570	keystroke	r	n/a
485.8895	0.091	971779	keystroke	e	n/a
486.1595	0.075	972319	keystroke	c	n/a
486.3405	0.059	972681	keystroke	e	n/a
486.46	0.0905	972920	keystroke	i	n/a
486.6855	0.09	973371	keystroke	v	n/a
486.865	0.1195	973730	keystroke	e	n/a
486.97	0.1045	973940	keystroke	r	n/a
487.1945	0.091	974389	keystroke	s	n/a
487.405	0.0895	974810	keystroke	Key.enter	n/a
487.516	6.8505	975032	prompt	n/a	morning tears mark ingredients\n
488.2145	0.075	976429	keystroke	m	n/a
488.335	0.1055	976670	keystroke	o	n/a
488.4845	0.0755	976969	keystroke	r	n/a
488.6055	0.075	977211	keystroke	n	n/a
488.7695	0.1355	977539	keystroke	i	n/a
488.8445	0.166	977689	keystroke	n	n/a
488.95	0.12	977900	keystroke	g	n/a
489.055	0.091	978110	keystroke	Key.space	n/a
489.25	0.075	978500	keystroke	t	n/a
489.4	0.09	978800	keystroke	e	n/a
489.55	0.1195	979100	keystroke	a	n/a
489.985	0.09	979970	keystroke	r	n/a
490.225	0.0755	980450	keystroke	s	n/a
490.3595	0.0755	980719	keystroke	Key.space	n/a
490.6755	0.0895	981351	keystroke	m	n/a
490.7805	0.1045	981561	keystroke	a	n/a
490.855	0.12	981710	keystroke	r	n/a
491.05	0.09	982100	keystroke	k	n/a
491.185	0.06	982370	keystroke	Key.space	n/a
491.4255	0.059	982851	keystroke	i	n/a
491.815	0.076	983630	keystroke	n	n/a
492.0545	0.091	984109	keystroke	g	n/a
492.5655	0.09	985131	keystroke	r	n/a
492.8355	0.075	985671	keystroke	e	n/a
493.18	0.09	986360	keystroke	d	n/a
493.345	0.09	986690	keystroke	i	n/a
493.705	0.0755	987410	keystroke	e	n/a
493.81	0.09	987620	keystroke	n	n/a
493.915	0.0605	987830	keystroke	t	n/a
494.0655	0.1045	988131	keystroke	s	n/a
494.275	0.09	988550	keystroke	Key.enter	n/a
494.371	13.241	988742	prompt	n/a	entitled punishment practical proposition\n
495.2945	0.075	990589	keystroke	e	n/a
495.4145	0.09	990829	keystroke	n	n/a
495.685	0.0905	991370	keystroke	t	n/a
495.8195	0.075	991639	keystroke	i	n/a
496.3605	0.0895	992721	keystroke	t	n/a
497.1255	0.0145	994251	keystroke	l	n/a
497.1555	0.0605	994311	keystroke	e	n/a
497.455	0.0905	994910	keystroke	d	n/a
497.605	0.075	995210	keystroke	Key.space	n/a
497.8295	0.0905	995659	keystroke	p	n/a
497.996	0.0895	995992	keystroke	u	n/a
498.249	0.077	996498	keystroke	n	n/a
498.8505	0.0595	997701	keystroke	i	n/a
499.0455	0.089	998091	keystroke	s	n/a
499.1645	0.0915	998329	keystroke	h	n/a
499.4795	0.06	998959	keystroke	Key.space	n/a
499.8705	0.074	999741	keystroke	Key.backspace	n/a
500.1095	0.0905	1000219	keystroke	m	n/a
500.2295	0.0755	1000459	keystroke	e	n/a
500.3495	0.09	1000699	keystroke	n	n/a
500.4545	0.0755	1000909	keystroke	t	n/a
500.5595	0.075	1001119	keystroke	Key.space	n/a
500.7695	0.1055	1001539	keystroke	p	n/a
500.8905	0.075	1001781	keystroke	r	n/a
500.9955	0.074	1001991	keystroke	o	n/a
501.6095	0.045	1003219	keystroke	Key.backspace	n/a
501.8355	0.06	1003671	keystroke	c	n/a
502.0155	0.0895	1004031	keystroke	a	n/a
503.26	0.06	1006520	keystroke	Key.backspace	n/a
503.425	0.0605	1006850	keystroke	Key.backspace	n/a
503.6505	0.0895	1007301	keystroke	a	n/a
503.9355	0.0895	1007871	keystroke	c	n/a
504.3105	0.09	1008621	keystroke	t	n/a
504.4295	0.09	1008859	keystroke	i	n/a
504.64	0.0905	1009280	keystroke	c	n/a
504.82	0.1055	1009640	keystroke	a	n/a
504.9555	0.119	1009911	keystroke	l	n/a
505.0895	0.0605	1010179	keystroke	Key.space	n/a
505.2705	0.0745	1010541	keystroke	p	n/a
505.5705	0.0595	1011141	keystroke	r	n/a
505.6755	0.09	1011351	keystroke	o	n/a
505.8855	0.089	1011771	keystroke	p	n/a
506.0805	0.0745	1012161	keystroke	o	n/a
506.305	0.1055	1012610	keystroke	s	n/a
506.485	0.076	1012970	keystroke	i	n/a
506.71	0.0755	1013420	keystroke	t	n/a
506.786	0.1335	1013572	keystroke	i	n/a
506.8905	0.165	1013781	keystroke	o	n/a
507.01	0.1645	1014020	keystroke	n	n/a
507.52	0.0895	1015040	keystroke	Key.enter	n/a
507.627	7.1545	1015254	prompt	n/a	holly travis homeland informal\n
508.5995	0.0605	1017199	keystroke	h	n/a
508.7645	0.0895	1017529	keystroke	o	n/a
509.005	0.0605	1018010	keystroke	l	n/a
509.125	0.0905	1018250	keystroke	l	n/a
509.29	0.0905	1018580	keystroke	y	n/a
509.5005	0.0595	1019001	keystroke	Key.space	n/a
509.785	0.075	1019570	keystroke	t	n/a
509.9505	0.0745	1019901	keystroke	r	n/a
510.1	0.105	1020200	keystroke	a	n/a
510.415	0.09	1020830	keystroke	v	n/a
510.595	0.09	1021190	keystroke	i	n/a
510.985	0.06	1021970	keystroke	s	n/a
511.15	0.075	1022300	keystroke	Key.space	n/a
511.495	0.0745	1022990	keystroke	h	n/a
511.63	0.1045	1023260	keystroke	o	n/a
511.8255	0.104	1023651	keystroke	m	n/a
512.1245	0.0755	1024249	keystroke	e	n/a
512.3495	0.075	1024699	keystroke	l	n/a
512.455	0.1045	1024910	keystroke	a	n/a
512.575	0.0895	1025150	keystroke	n	n/a
512.6945	0.09	1025389	keystroke	d	n/a
512.8445	0.061	1025689	keystroke	Key.space	n/a
513.0695	0.061	1026139	keystroke	i	n/a
513.19	0.09	1026380	keystroke	n	n/a
513.385	0.0755	1026770	keystroke	f	n/a
513.475	0.105	1026950	keystroke	o	n/a
513.625	0.091	1027250	keystroke	r	n/a
513.97	0.09	1027940	keystroke	m	n/a
514.165	0.105	1028330	keystroke	a	n/a
514.36	0.1045	1028720	keystroke	l	n/a
514.7045	0.0755	1029409	keystroke	Key.enter	n/a
514.7865	13.27	1029573	prompt	n/a	contributor several dust governing\n
515.516	0.1035	1031032	keystroke	c	n/a
515.6345	0.076	1031269	keystroke	o	n/a
515.7115	0.134	1031423	keystroke	n	n/a
515.9955	0.0595	1031991	keystroke	t	n/a
516.16	0.075	1032320	keystroke	r	n/a
516.3405	0.0595	1032681	keystroke	i	n/a
516.67	0.016	1033340	keystroke	b	n/a
516.7	0.09	1033400	keystroke	u	n/a
516.8655	0.0745	1033731	keystroke	t	n/a
516.9995	0.091	1033999	keystroke	o	n/a
517.1205	0.09	1034241	keystroke	r	n/a
517.2545	0.06	1034509	keystroke	Key.space	n/a
517.5095	0.105	1035019	keystroke	s	n/a
517.7055	0.0745	1035411	keystroke	e	n/a
517.915	0.0595	1035830	keystroke	v	n/a
518.0795	0.0605	1036159	keystroke	e	n/a
518.2305	0.104	1036461	keystroke	r	n/a
518.3805	0.12	1036761	keystroke	a	n/a
518.515	0.0905	1037030	keystroke	l	n/a
518.6495	0.0605	1037299	keystroke	Key.space	n/a
518.8455	0.0895	1037691	keystroke	d	n/a
518.9645	0.0905	1037929	keystroke	u	n/a
519.1005	0.089	1038201	keystroke	s	n/a
519.28	0.06	1038560	keystroke	Key.space	n/a
519.655	0.075	1039310	keystroke	g	n/a
519.8505	0.09	1039701	keystroke	o	n/a
519.9995	0.091	1039999	keystroke	v	n/a
520.195	0.09	1040390	keystroke	e	n/a
520.2695	0.121	1040539	keystroke	r	n/a
520.4955	0.06	1040991	keystroke	n	n/a
520.6445	0.151	1041289	keystroke	i	n/a
520.735	0.1955	1041470	keystroke	n	n/a
520.885	0.0905	1041770	keystroke	g	n/a
523.123	0.001	1046246	keystroke	Key.backspace	n/a
523.209	0.076	1046418	keystroke	Key.backspace	n/a
523.36	0.075	1046720	keystroke	Key.backspace	n/a
523.524	0.076	1047048	keystroke	Key.backspace	n/a
523.69	0.075	1047380	keystroke	Key.backspace	n/a
523.8555	0.075	1047711	keystroke	Key.backspace	n/a
524.035	0.0605	1048070	keystroke	Key.backspace	n/a
524.215	0.0605	1048430	keystroke	Key.backspace	n/a
524.4555	0.09	1048911	keystroke	Key.backspace	n/a
524.7695	0.06	1049539	keystroke	Key.backspace	n/a
525.3105	0.059	1050621	keystroke	t	n/a
525.6545	0.06	1051309	keystroke	Key.space	n/a
526.5395	0.0605	1053079	keystroke	g	n/a
526.615	0.105	1053230	keystroke	o	n/a
526.735	0.0895	1053470	keystroke	v	n/a
526.9605	0.119	1053921	keystroke	e	n/a
527.0645	0.12	1054129	keystroke	r	n/a
527.2595	0.075	1054519	keystroke	n	n/a
527.4855	0.134	1054971	keystroke	i	n/a
527.5745	0.165	1055149	keystroke	n	n/a
527.6945	0.105	1055389	keystroke	g	n/a
527.9495	0.105	1055899	keystroke	Key.enter	n/a
528.074	6.2375	1056148	prompt	n/a	varying entitled minority dark\n
528.76	0.0895	1057520	keystroke	v	n/a
528.925	0.12	1057850	keystroke	a	n/a
529.195	0.0745	1058390	keystroke	r	n/a
529.315	0.0605	1058630	keystroke	y	n/a
529.525	0.165	1059050	keystroke	i	n/a
529.6145	0.181	1059229	keystroke	n	n/a
529.7205	0.12	1059441	keystroke	g	n/a
529.825	0.0745	1059650	keystroke	Key.space	n/a
529.9895	0.091	1059979	keystroke	e	n/a
530.1095	0.106	1060219	keystroke	n	n/a
530.3205	0.0745	1060641	keystroke	t	n/a
530.4405	0.0745	1060881	keystroke	i	n/a
530.635	0.075	1061270	keystroke	t	n/a
530.7395	0.1205	1061479	keystroke	l	n/a
530.8605	0.09	1061721	keystroke	e	n/a
531.055	0.09	1062110	keystroke	d	n/a
531.1905	0.0745	1062381	keystroke	Key.space	n/a
531.475	0.0755	1062950	keystroke	m	n/a
531.6555	0.0595	1063311	keystroke	i	n/a
531.895	0.0905	1063790	keystroke	n	n/a
532.376	0.089	1064752	keystroke	o	n/a
532.69	0.1045	1065380	keystroke	r	n/a
532.81	0.075	1065620	keystroke	i	n/a
532.915	0.09	1065830	keystroke	t	n/a
533.0355	0.104	1066071	keystroke	y	n/a
533.155	0.09	1066310	keystroke	Key.space	n/a
533.3355	0.0895	1066671	keystroke	d	n/a
533.4845	0.181	1066969	keystroke	a	n/a
533.6205	0.105	1067241	keystroke	r	n/a
533.9055	0.075	1067811	keystroke	k	n/a
534.22	0.0895	1068440	keystroke	Key.enter	n/a
534.3175	10.4195	1068635	prompt	n/a	fioricet computing starter arkansas\n
536.6235	0.027	1073247	keystroke	f	n/a
536.6945	0.0755	1073389	keystroke	i	n/a
536.875	0.1055	1073750	keystroke	o	n/a
537.265	0.075	1074530	keystroke	r	n/a
537.4005	0.0745	1074801	keystroke	i	n/a
537.7005	0.0895	1075401	keystroke	c	n/a
537.895	0.06	1075790	keystroke	e	n/a
538.0755	0.0595	1076151	keystroke	t	n/a
538.18	0.06	1076360	keystroke	Key.space	n/a
538.375	0.0905	1076750	keystroke	c	n/a
538.4805	0.1345	1076961	keystroke	o	n/a
538.585	0.135	1077170	keystroke	m	n/a
538.8555	0.075	1077711	keystroke	p	n/a
539.0055	0.105	1078011	keystroke	u	n/a
539.2005	0.075	1078401	keystroke	t	n/a
539.4105	0.135	1078821	keystroke	i	n/a
539.4845	0.195	1078969	keystroke	n	n/a
539.6505	0.1045	1079301	keystroke	g	n/a
540.6095	0.045	1081219	keystroke	Key.space	n/a
541.0905	0.0445	1082181	keystroke	s	n/a
541.15	0.075	1082300	keystroke	t	n/a
541.2855	0.134	1082571	keystroke	a	n/a
541.4045	0.1055	1082809	keystroke	r	n/a
541.705	0.075	1083410	keystroke	t	n/a
541.8855	0.0895	1083771	keystroke	e	n/a
541.975	0.105	1083950	keystroke	r	n/a
542.11	0.06	1084220	keystroke	Key.space	n/a
542.3055	0.135	1084611	keystroke	a	n/a
542.4105	0.104	1084821	keystroke	r	n/a
542.7555	0.12	1085511	keystroke	k	n/a
543.0555	0.134	1086111	keystroke	a	n/a
543.5805	0.0895	1087161	keystroke	n	n/a
544.015	0.0755	1088030	keystroke	s	n/a
544.15	0.1205	1088300	keystroke	a	n/a
544.375	0.09	1088750	keystroke	s	n/a
544.645	0.0895	1089290	keystroke	Key.enter	n/a
544.744	8.1375	1089488	prompt	n/a	persistent builders walks karen\n
545.4855	0.105	1090971	keystroke	p	n/a
545.635	0.135	1091270	keystroke	e	n/a
545.98	0.105	1091960	keystroke	r	n/a
546.5955	0.0905	1093191	keystroke	s	n/a
546.7	0.06	1093400	keystroke	i	n/a
546.775	0.0895	1093550	keystroke	s	n/a
547.03	0.0745	1094060	keystroke	t	n/a
547.1795	0.091	1094359	keystroke	e	n/a
547.2845	0.106	1094569	keystroke	n	n/a
547.6295	0.0605	1095259	keystroke	Key.space	n/a
547.96	0.0755	1095920	keystroke	b	n/a
548.0505	0.059	1096101	keystroke	u	n/a
548.305	0.015	1096610	keystroke	i	n/a
548.3805	0.1045	1096761	keystroke	l	n/a
548.6355	0.075	1097271	keystroke	d	n/a
549.2645	0.12	1098529	keystroke	e	n/a
549.3395	0.1355	1098679	keystroke	r	n/a
549.685	0.09	1099370	keystroke	s	n/a
549.85	0.06	1099700	keystroke	Key.space	n/a
550.09	0.0745	1100180	keystroke	w	n/a
550.225	0.1055	1100450	keystroke	a	n/a
550.405	0.09	1100810	keystroke	l	n/a
550.6295	0.0755	1101259	keystroke	k	n/a
550.9	0.09	1101800	keystroke	s	n/a
551.05	0.075	1102100	keystroke	Key.space	n/a
551.515	0.06	1103030	keystroke	k	n/a
551.6195	0.165	1103239	keystroke	a	n/a
551.9355	0.1045	1103871	keystroke	r	n/a
552.325	0.075	1104650	keystroke	e	n/a
552.4455	0.09	1104891	keystroke	n	n/a
552.79	0.0895	1105580	keystroke	Key.enter	n/a
552.885	9.9715	1105770	prompt	n/a	expired commission accessibility africa\n
553.6595	0.091	1107319	keystroke	e	n/a
553.93	0.12	1107860	keystroke	x	n/a
554.17	0.105	1108340	keystroke	p	n/a
554.47	0.075	1108940	keystroke	i	n/a
554.665	0.09	1109330	keystroke	r	n/a
554.815	0.075	1109630	keystroke	e	n/a
555.011	0.0745	1110022	keystroke	d	n/a
555.1155	0.0745	1110231	keystroke	Key.space	n/a
555.355	0.0895	1110710	keystroke	c	n/a
555.4595	0.121	1110919	keystroke	o	n/a
555.55	0.1055	1111100	keystroke	m	n/a
555.7895	0.09	1111579	keystroke	m	n/a
556.15	0.0755	1112300	keystroke	i	n/a
556.5555	0.06	1113111	keystroke	s	n/a
556.7055	0.09	1113411	keystroke	s	n/a
556.7795	0.1505	1113559	keystroke	i	n/a
556.9	0.1655	1113800	keystroke	o	n/a
557.0195	0.15	1114039	keystroke	n	n/a
557.185	0.0755	1114370	keystroke	Key.space	n/a
557.3655	0.105	1114731	keystroke	a	n/a
557.605	0.0905	1115210	keystroke	c	n/a
557.785	0.0745	1115570	keystroke	c	n/a
558.07	0.105	1116140	keystroke	e	n/a
558.355	0.09	1116710	keystroke	s	n/a
558.505	0.1055	1117010	keystroke	s	n/a
558.8045	0.075	1117609	keystroke	i	n/a
559.12	0.09	1118240	keystroke	b	n/a
559.285	0.075	1118570	keystroke	i	n/a
559.96	0.09	1119920	keystroke	l	n/a
560.125	0.075	1120250	keystroke	i	n/a
560.275	0.09	1120550	keystroke	t	n/a
560.395	0.09	1120790	keystroke	y	n/a
561.205	0.0745	1122410	keystroke	Key.space	n/a
561.4315	0.104	1122863	keystroke	a	n/a
561.595	0.0895	1123190	keystroke	f	n/a
562.1045	0.076	1124209	keystroke	r	n/a
562.2695	0.06	1124539	keystroke	i	n/a
562.42	0.0745	1124840	keystroke	c	n/a
562.5255	0.1195	1125051	keystroke	a	n/a
562.7645	0.09	1125529	keystroke	Key.enter	n/a
562.866	7.4155	1125732	prompt	n/a	sculpture became discussion reason\n
563.7405	0.074	1127481	keystroke	s	n/a
564.0105	0.09	1128021	keystroke	c	n/a
564.1455	0.075	1128291	keystroke	u	n/a
564.3855	0.09	1128771	keystroke	l	n/a
564.655	0.0755	1129310	keystroke	p	n/a
565.0005	0.075	1130001	keystroke	t	n/a
565.105	0.09	1130210	keystroke	u	n/a
565.2105	0.1195	1130421	keystroke	r	n/a
565.3005	0.1045	1130601	keystroke	e	n/a
565.42	0.09	1130840	keystroke	Key.space	n/a
565.735	0.06	1131470	keystroke	b	n/a
565.9	0.075	1131800	keystroke	e	n/a
566.0945	0.076	1132189	keystroke	c	n/a
566.2905	0.09	1132581	keystroke	a	n/a
566.5305	0.0895	1133061	keystroke	m	n/a
566.71	0.0755	1133420	keystroke	e	n/a
566.86	0.06	1133720	keystroke	Key.space	n/a
567.3855	0.075	1134771	keystroke	d	n/a
567.475	0.0755	1134950	keystroke	i	n/a
567.61	0.0895	1135220	keystroke	s	n/a
567.8645	0.0755	1135729	keystroke	c	n/a
567.9695	0.09	1135939	keystroke	u	n/a
568.1645	0.06	1136329	keystroke	s	n/a
568.315	0.09	1136630	keystroke	s	n/a
568.405	0.135	1136810	keystroke	i	n/a
568.51	0.15	1137020	keystroke	o	n/a
568.615	0.1645	1137230	keystroke	n	n/a
568.7495	0.075	1137499	keystroke	Key.space	n/a
568.9295	0.1205	1137859	keystroke	r	n/a
569.065	0.075	1138130	keystroke	e	n/a
569.2155	0.1345	1138431	keystroke	a	n/a
569.59	0.105	1139180	keystroke	s	n/a
569.71	0.105	1139420	keystroke	o	n/a
