onset	duration	sample	value	key	prompt_text
7.4925	8.553	14985	prompt	n/a	the quick brown fox jumps over a lazy dog\n
8.576	0.087	17152	keystroke_t	t	n/a
8.588	0.105	17176	keystroke_h	h	n/a
8.783	0.105	17566	keystroke_e	e	n/a
9.008	0.105	18016	keystroke_Key.space	Key.space	n/a
9.128	0.15	18256	keystroke_q	q	n/a
9.338	0.09	18676	keystroke_u	u	n/a
9.503	0.105	19006	keystroke_i	i	n/a
9.593	0.15	19186	keystroke_c	c	n/a
9.683	0.12	19366	keystroke_k	k	n/a
9.863	0.105	19726	keystroke_b	b	n/a
9.983	0.09	19966	keystroke_r	r	n/a
10.298	0.075	20596	keystroke_Key.backspace	Key.backspace	n/a
10.448	0.09	20896	keystroke_Key.backspace	Key.backspace	n/a
10.8385	0.06	21677	keystroke_Key.space	Key.space	n/a
10.9285	0.09	21857	keystroke_b	b	n/a
10.9735	0.09	21947	keystroke_r	r	n/a
11.0785	0.075	22157	keystroke_o	o	n/a
11.1835	0.12	22367	keystroke_w	w	n/a
11.2735	0.06	22547	keystroke_n	n	n/a
11.4085	0.075	22817	keystroke_Key.space	Key.space	n/a
11.4985	0.1045	22997	keystroke_f	f	n/a
11.588	0.09	23176	keystroke_o	o	n/a
11.693	0.1505	23386	keystroke_x	x	n/a
11.8285	0.1195	23657	keystroke_Key.space	Key.space	n/a
11.978	0.09	23956	keystroke_j	j	n/a
12.128	0.105	24256	keystroke_u	u	n/a
12.293	0.105	24586	keystroke_m	m	n/a
12.473	0.0905	24946	keystroke_p	p	n/a
12.5785	0.09	25157	keystroke_s	s	n/a
12.6385	0.09	25277	keystroke_Key.space	Key.space	n/a
12.758	0.0905	25516	keystroke_o	o	n/a
12.8035	0.105	25607	keystroke_v	v	n/a
12.9535	0.135	25907	keystroke_r	r	n/a
13.1035	0.075	26207	keystroke_Key.space	Key.space	n/a
13.5085	0.06	27017	keystroke_Key.backspace	Key.backspace	n/a
13.6435	0.075	27287	keystroke_Key.backspace	Key.backspace	n/a
13.7335	0.075	27467	keystroke_e	e	n/a
13.7785	0.105	27557	keystroke_r	r	n/a
13.8835	0.09	27767	keystroke_Key.space	Key.space	n/a
14.1535	0.09	28307	keystroke_a	a	n/a
14.2585	0.075	28517	keystroke_Key.space	Key.space	n/a
14.4235	0.075	28847	keystroke_l	l	n/a
14.5285	0.0595	29057	keystroke_a	a	n/a
14.723	0.09	29446	keystroke_z	z	n/a
15.008	0.105	30016	keystroke_y	y	n/a
15.173	0.09	30346	keystroke_Key.space	Key.space	n/a
15.278	0.135	30556	keystroke_d	d	n/a
15.383	0.075	30766	keystroke_o	o	n/a
15.488	0.105	30976	keystroke_g	g	n/a
15.9835	0.06	31967	keystroke_Key.enter	Key.enter	n/a
16.0495	4.3305	32099	prompt	n/a	myself thing biggest above\n
16.5985	0.045	33197	keystroke_m	m	n/a
16.7475	0.106	33495	keystroke_y	y	n/a
17.0335	0.075	34067	keystroke_e	e	n/a
17.3775	0.09	34755	keystroke_Key.backspace	Key.backspace	n/a
17.4825	0.075	34965	keystroke_s	s	n/a
17.5275	0.136	35055	keystroke_e	e	n/a
17.6785	0.075	35357	keystroke_l	l	n/a
17.7375	0.12	35475	keystroke_f	f	n/a
17.8735	0.059	35747	keystroke_Key.space	Key.space	n/a
17.9785	0.105	35957	keystroke_t	t	n/a
18.0375	0.09	36075	keystroke_h	h	n/a
18.143	0.1195	36286	keystroke_i	i	n/a
18.188	0.1045	36376	keystroke_n	n	n/a
18.2475	0.076	36495	keystroke_g	g	n/a
18.4125	0.075	36825	keystroke_Key.space	Key.space	n/a
18.5185	0.0895	37037	keystroke_b	b	n/a
18.623	0.06	37246	keystroke_i	i	n/a
18.713	0.075	37426	keystroke_g	g	n/a
18.8475	0.15	37695	keystroke_g	g	n/a
18.9675	0.106	37935	keystroke_e	e	n/a
19.1625	0.12	38325	keystroke_s	s	n/a
19.2075	0.12	38415	keystroke_t	t	n/a
19.3575	0.075	38715	keystroke_Key.space	Key.space	n/a
19.508	0.121	39016	keystroke_a	a	n/a
19.733	0.075	39466	keystroke_b	b	n/a
19.824	0.059	39648	keystroke_o	o	n/a
19.944	0.134	39888	keystroke_v	v	n/a
20.033	0.12	40066	keystroke_e	e	n/a
20.303	0.075	40606	keystroke_Key.enter	Key.enter	n/a
20.3825	4.9175	40765	prompt	n/a	making florists recommend yearly\n
20.963	0.105	41926	keystroke_m	m	n/a
21.053	0.12	42106	keystroke_a	a	n/a
21.128	0.075	42256	keystroke_k	k	n/a
21.263	0.09	42526	keystroke_i	i	n/a
21.278	0.12	42556	keystroke_n	n	n/a
21.368	0.09	42736	keystroke_g	g	n/a
21.473	0.105	42946	keystroke_Key.space	Key.space	n/a
21.6235	0.105	43247	keystroke_f	f	n/a
21.7285	0.09	43457	keystroke_l	l	n/a
21.8785	0.075	43757	keystroke_o	o	n/a
21.9985	0.09	43997	keystroke_r	r	n/a
22.1185	0.075	44237	keystroke_i	i	n/a
22.3735	0.135	44747	keystroke_s	s	n/a
22.4935	0.135	44987	keystroke_t	t	n/a
22.5985	0.1195	45197	keystroke_s	s	n/a
22.778	0.12	45556	keystroke_Key.space	Key.space	n/a
22.913	0.12	45826	keystroke_r	r	n/a
22.988	0.075	45976	keystroke_e	e	n/a
23.168	0.12	46336	keystroke_c	c	n/a
23.243	0.09	46486	keystroke_o	o	n/a
23.318	0.06	46636	keystroke_m	m	n/a
23.423	0.105	46846	keystroke_m	m	n/a
23.603	0.12	47206	keystroke_e	e	n/a
23.738	0.075	47476	keystroke_n	n	n/a
23.843	0.12	47686	keystroke_d	d	n/a
23.948	0.105	47896	keystroke_Key.space	Key.space	n/a
24.278	0.09	48556	keystroke_y	y	n/a
24.428	0.09	48856	keystroke_e	e	n/a
24.593	0.1205	49186	keystroke_a	a	n/a
24.6385	0.15	49277	keystroke_r	r	n/a
24.7735	0.105	49547	keystroke_l	l	n/a
24.9385	0.09	49877	keystroke_y	y	n/a
25.2385	0.06	50477	keystroke_Key.enter	Key.enter	n/a
25.304	6.656	50608	prompt	n/a	holding filter monroe networking\n
25.943	0.12	51886	keystroke_h	h	n/a
26.078	0.0755	52156	keystroke_o	o	n/a
26.2135	0.105	52427	keystroke_l	l	n/a
26.2735	0.15	52547	keystroke_d	d	n/a
26.4085	0.09	52817	keystroke_i	i	n/a
26.4385	0.12	52877	keystroke_n	n	n/a
26.4985	0.0895	52997	keystroke_g	g	n/a
26.8735	0.105	53747	keystroke_Key.space	Key.space	n/a
26.9935	0.134	53987	keystroke_f	f	n/a
27.1135	0.075	54227	keystroke_i	i	n/a
27.2785	0.075	54557	keystroke_l	l	n/a
27.3385	0.105	54677	keystroke_t	t	n/a
27.4285	0.15	54857	keystroke_e	e	n/a
27.5185	0.12	55037	keystroke_r	r	n/a
27.6085	0.06	55217	keystroke_Key.space	Key.space	n/a
27.7585	0.09	55517	keystroke_m	m	n/a
27.8335	0.09	55667	keystroke_o	o	n/a
27.9385	0.075	55877	keystroke_n	n	n/a
28.0735	0.1195	56147	keystroke_r	r	n/a
28.343	0.075	56686	keystroke_o	o	n/a
28.478	0.1055	56956	keystroke_e	e	n/a
28.6885	0.075	57377	keystroke_Key.space	Key.space	n/a
28.943	0.075	57886	keystroke_n	n	n/a
29.018	0.12	58036	keystroke_e	e	n/a
29.108	0.09	58216	keystroke_t	t	n/a
29.288	0.09	58576	keystroke_w	w	n/a
29.363	0.06	58726	keystroke_o	o	n/a
29.468	0.09	58936	keystroke_r	r	n/a
29.888	0.06	59776	keystroke_k	k	n/a
30.023	0.105	60046	keystroke_i	i	n/a
30.068	0.09	60136	keystroke_n	n	n/a
30.173	0.105	60346	keystroke_g	g	n/a
31.8685	0.09	63737	keystroke_Key.enter	Key.enter	n/a
31.963	7.527	63926	prompt	n/a	initially malaysia coupons shot\n
32.528	0.09	65056	keystroke_i	i	n/a
32.603	0.12	65206	keystroke_n	n	n/a
32.7835	0.075	65567	keystroke_i	i	n/a
32.9635	0.09	65927	keystroke_t	t	n/a
33.1735	0.09	66347	keystroke_i	i	n/a
33.3685	0.105	66737	keystroke_a	a	n/a
33.4885	0.045	66977	keystroke_l	l	n/a
33.593	0.09	67186	keystroke_l	l	n/a
33.713	0.1055	67426	keystroke_y	y	n/a
33.8185	0.075	67637	keystroke_Key.space	Key.space	n/a
33.9685	0.075	67937	keystroke_m	m	n/a
34.0585	0.105	68117	keystroke_a	a	n/a
34.1785	0.06	68357	keystroke_l	l	n/a
34.2835	0.105	68567	keystroke_a	a	n/a
34.508	0.09	69016	keystroke_y	y	n/a
34.8835	0.134	69767	keystroke_s	s	n/a
35.0775	0.076	70155	keystroke_i	i	n/a
35.1835	0.105	70367	keystroke_a	a	n/a
35.4235	0.089	70847	keystroke_Key.space	Key.space	n/a
35.588	0.1055	71176	keystroke_c	c	n/a
35.678	0.06	71356	keystroke_o	o	n/a
35.843	0.075	71686	keystroke_u	u	n/a
36.2635	0.0895	72527	keystroke_p	p	n/a
36.443	0.135	72886	keystroke_o	o	n/a
36.548	0.075	73096	keystroke_n	n	n/a
36.698	0.12	73396	keystroke_s	s	n/a
37.613	0.075	75226	keystroke_Key.space	Key.space	n/a
37.793	0.105	75586	keystroke_s	s	n/a
37.958	0.105	75916	keystroke_h	h	n/a
38.033	0.075	76066	keystroke_o	o	n/a
38.213	0.09	76426	keystroke_t	t	n/a
39.413	0.075	78826	keystroke_Key.enter	Key.enter	n/a
39.4925	3.8075	78985	prompt	n/a	annual wool letting helen\n
40.1335	0.12	80267	keystroke_a	a	n/a
40.2685	0.015	80537	keystroke_n	n	n/a
40.2985	0.105	80597	keystroke_n	n	n/a
40.4635	0.0895	80927	keystroke_u	u	n/a
40.568	0.105	81136	keystroke_a	a	n/a
40.658	0.105	81316	keystroke_l	l	n/a
40.808	0.09	81616	keystroke_Key.space	Key.space	n/a
40.928	0.105	81856	keystroke_w	w	n/a
41.018	0.06	82036	keystroke_o	o	n/a
41.123	0.09	82246	keystroke_o	o	n/a
41.273	0.12	82546	keystroke_l	l	n/a
41.363	0.105	82726	keystroke_Key.space	Key.space	n/a
41.558	0.09	83116	keystroke_l	l	n/a
41.633	0.075	83266	keystroke_e	e	n/a
41.8435	0.09	83687	keystroke_t	t	n/a
42.0235	0.075	84047	keystroke_t	t	n/a
42.2485	0.12	84497	keystroke_i	i	n/a
42.2935	0.105	84587	keystroke_n	n	n/a
42.3835	0.075	84767	keystroke_g	g	n/a
42.4735	0.105	84947	keystroke_Key.space	Key.space	n/a
42.623	0.06	85246	keystroke_h	h	n/a
42.698	0.105	85396	keystroke_e	e	n/a
42.773	0.09	85546	keystroke_l	l	n/a
42.878	0.105	85756	keystroke_e	e	n/a
42.984	0.059	85968	keystroke_n	n	n/a
43.223	0.075	86446	keystroke_Key.enter	Key.enter	n/a
43.305	7.7355	86610	prompt	n/a	lifetime broadband consist enterprise\n
44.0335	0.075	88067	keystroke_l	l	n/a
44.1835	0.075	88367	keystroke_i	i	n/a
44.2285	0.09	88457	keystroke_f	f	n/a
44.2735	0.105	88547	keystroke_e	e	n/a
44.4235	0.1045	88847	keystroke_t	t	n/a
44.4685	0.1045	88937	keystroke_i	i	n/a
44.513	0.105	89026	keystroke_m	m	n/a
44.603	0.09	89206	keystroke_e	e	n/a
44.768	0.105	89536	keystroke_Key.space	Key.space	n/a
44.888	0.09	89776	keystroke_b	b	n/a
45.023	0.105	90046	keystroke_r	r	n/a
45.098	0.06	90196	keystroke_o	o	n/a
45.233	0.135	90466	keystroke_a	a	n/a
45.308	0.135	90616	keystroke_d	d	n/a
45.578	0.075	91156	keystroke_b	b	n/a
45.713	0.09	91426	keystroke_a	a	n/a
45.788	0.075	91576	keystroke_n	n	n/a
45.878	0.09	91756	keystroke_d	d	n/a
45.998	0.09	91996	keystroke_Key.space	Key.space	n/a
46.178	0.105	92356	keystroke_c	c	n/a
46.253	0.105	92506	keystroke_o	o	n/a
46.343	0.06	92686	keystroke_n	n	n/a
46.523	0.105	93046	keystroke_s	s	n/a
46.733	0.075	93466	keystroke_i	i	n/a
46.853	0.105	93706	keystroke_s	s	n/a
47.228	0.075	94456	keystroke_t	t	n/a
47.363	0.105	94726	keystroke_Key.space	Key.space	n/a
47.558	0.045	95116	keystroke_c	c	n/a
47.783	0.09	95566	keystroke_Key.backspace	Key.backspace	n/a
47.888	0.09	95776	keystroke_e	e	n/a
48.008	0.075	96016	keystroke_n	n	n/a
48.098	0.075	96196	keystroke_t	t	n/a
48.548	0.1655	97096	keystroke_e	e	n/a
48.6385	0.135	97277	keystroke_r	r	n/a
48.7435	0.105	97487	keystroke_p	p	n/a
48.9685	0.075	97937	keystroke_i	i	n/a
49.0585	0.0905	98117	keystroke_r	r	n/a
49.2535	0.15	98507	keystroke_s	s	n/a
49.3435	0.1055	98687	keystroke_e	e	n/a
49.748	0.045	99496	keystroke_Key.backspace	Key.backspace	n/a
49.868	0.06	99736	keystroke_Key.backspace	Key.backspace	n/a
50.0185	0.06	100037	keystroke_Key.backspace	Key.backspace	n/a
50.1235	0.075	100247	keystroke_Key.backspace	Key.backspace	n/a
50.3935	0.09	100787	keystroke_r	r	n/a
50.4985	0.075	100997	keystroke_i	i	n/a
50.6485	0.135	101297	keystroke_s	s	n/a
50.7385	0.105	101477	keystroke_e	e	n/a
50.9785	0.06	101957	keystroke_Key.enter	Key.enter	n/a
51.0455	6.0095	102091	prompt	n/a	permitted viruses timely weddings\n
51.6985	0.09	103397	keystroke_p	p	n/a
51.8185	0.135	103637	keystroke_e	e	n/a
51.8935	0.105	103787	keystroke_r	r	n/a
52.0135	0.075	104027	keystroke_m	m	n/a
52.4185	0.105	104837	keystroke_i	i	n/a
52.6435	0.0745	105287	keystroke_t	t	n/a
52.763	0.15	105526	keystroke_t	t	n/a
52.868	0.105	105736	keystroke_e	e	n/a
53.078	0.105	106156	keystroke_d	d	n/a
53.138	0.09	106276	keystroke_Key.space	Key.space	n/a
53.258	0.09	106516	keystroke_v	v	n/a
53.349	0.0745	106698	keystroke_i	i	n/a
53.4535	0.09	106907	keystroke_r	r	n/a
53.6185	0.09	107237	keystroke_u	u	n/a
53.7835	0.105	107567	keystroke_s	s	n/a
54.0085	0.165	108017	keystroke_e	e	n/a
54.3235	0.09	108647	keystroke_s	s	n/a
54.848	0.09	109696	keystroke_Key.space	Key.space	n/a
54.999	0.1195	109998	keystroke_t	t	n/a
55.0735	0.09	110147	keystroke_i	i	n/a
55.1035	0.12	110207	keystroke_m	m	n/a
55.2385	0.09	110477	keystroke_e	e	n/a
55.3735	0.105	110747	keystroke_l	l	n/a
55.5085	0.09	111017	keystroke_y	y	n/a
55.733	0.105	111466	keystroke_Key.space	Key.space	n/a
55.853	0.12	111706	keystroke_w	w	n/a
56.018	0.09	112036	keystroke_e	e	n/a
56.213	0.06	112426	keystroke_d	d	n/a
56.318	0.105	112636	keystroke_d	d	n/a
56.438	0.1055	112876	keystroke_i	i	n/a
56.4985	0.09	112997	keystroke_n	n	n/a
56.5735	0.075	113147	keystroke_g	g	n/a
56.6495	0.1045	113299	keystroke_s	s	n/a
56.979	0.075	113958	keystroke_Key.enter	Key.enter	n/a
57.0605	7.3145	114121	prompt	n/a	defence dying muscle brand\n
57.624	0.09	115248	keystroke_d	d	n/a
57.774	0.089	115548	keystroke_e	e	n/a
57.879	0.149	115758	keystroke_f	f	n/a
57.983	0.12	115966	keystroke_e	e	n/a
58.104	0.09	116208	keystroke_n	n	n/a
58.658	0.105	117316	keystroke_c	c	n/a
58.703	0.12	117406	keystroke_e	e	n/a
58.9285	0.09	117857	keystroke_Key.space	Key.space	n/a
59.0335	0.09	118067	keystroke_d	d	n/a
59.1835	0.09	118367	keystroke_y	y	n/a
59.3035	0.105	118607	keystroke_i	i	n/a
59.3485	0.09	118697	keystroke_n	n	n/a
59.798	0.105	119596	keystroke_g	g	n/a
60.008	0.09	120016	keystroke_Key.space	Key.space	n/a
60.353	0.105	120706	keystroke_m	m	n/a
60.5035	0.105	121007	keystroke_u	u	n/a
60.5935	0.135	121187	keystroke_s	s	n/a
60.6985	0.135	121397	keystroke_c	c	n/a
60.8035	0.09	121607	keystroke_l	l	n/a
60.9235	0.075	121847	keystroke_e	e	n/a
61.0135	0.075	122027	keystroke_Key.space	Key.space	n/a
61.1185	0.09	122237	keystroke_b	b	n/a
61.2235	0.105	122447	keystroke_r	r	n/a
61.6885	0.1205	123377	keystroke_a	a	n/a
61.824	0.0745	123648	keystroke_n	n	n/a
61.9435	0.09	123887	keystroke_d	d	n/a
64.346	0.027	128692	keystroke_Key.enter	Key.enter	n/a
64.378	6.6565	128756	prompt	n/a	potato branch pens newfoundland\n
64.973	0.105	129946	keystroke_o	o	n/a
65.288	0.075	130576	keystroke_i	i	n/a
65.573	0.09	131146	keystroke_Key.backspace	Key.backspace	n/a
65.723	0.09	131446	keystroke_Key.backspace	Key.backspace	n/a
66.3085	0.075	132617	keystroke_p	p	n/a
66.4585	0.075	132917	keystroke_o	o	n/a
66.578	0.1055	133156	keystroke_t	t	n/a
66.7135	0.12	133427	keystroke_a	a	n/a
66.8335	0.105	133667	keystroke_t	t	n/a
67.1635	0.075	134327	keystroke_o	o	n/a
67.4935	0.09	134987	keystroke_Key.space	Key.space	n/a
67.6135	0.105	135227	keystroke_b	b	n/a
67.7785	0.075	135557	keystroke_r	r	n/a
67.9435	0.12	135887	keystroke_a	a	n/a
68.0935	0.075	136187	keystroke_n	n	n/a
68.2285	0.105	136457	keystroke_c	c	n/a
68.3485	0.075	136697	keystroke_h	h	n/a
68.5135	0.075	137027	keystroke_Key.space	Key.space	n/a
68.6785	0.09	137357	keystroke_p	p	n/a
68.7685	0.075	137537	keystroke_e	e	n/a
68.8585	0.09	137717	keystroke_n	n	n/a
68.9635	0.0895	137927	keystroke_s	s	n/a
69.068	0.075	138136	keystroke_Key.space	Key.space	n/a
69.203	0.09	138406	keystroke_n	n	n/a
69.308	0.135	138616	keystroke_e	e	n/a
69.368	0.12	138736	keystroke_w	w	n/a
69.848	0.105	139696	keystroke_f	f	n/a
69.908	0.06	139816	keystroke_o	o	n/a
70.0735	0.105	140147	keystroke_u	u	n/a
70.1185	0.105	140237	keystroke_n	n	n/a
70.1635	0.075	140327	keystroke_d	d	n/a
70.403	0.09	140806	keystroke_l	l	n/a
70.508	0.09	141016	keystroke_a	a	n/a
70.568	0.075	141136	keystroke_n	n	n/a
70.673	0.09	141346	keystroke_d	d	n/a
70.973	0.06	141946	keystroke_Key.enter	Key.enter	n/a
71.038	5.802	142076	prompt	n/a	advancement clients shipped newport\n
71.6035	0.075	143207	keystroke_a	a	n/a
71.783	0.075	143566	keystroke_d	d	n/a
71.963	0.105	143926	keystroke_v	v	n/a
72.113	0.105	144226	keystroke_a	a	n/a
72.233	0.0605	144466	keystroke_n	n	n/a
72.3085	0.12	144617	keystroke_c	c	n/a
72.3835	0.105	144767	keystroke_e	e	n/a
72.503	0.12	145006	keystroke_m	m	n/a
72.593	0.105	145186	keystroke_e	e	n/a
72.713	0.075	145426	keystroke_n	n	n/a
72.848	0.105	145696	keystroke_t	t	n/a
73.043	0.09	146086	keystroke_Key.space	Key.space	n/a
73.463	0.091	146926	keystroke_c	c	n/a
73.539	0.06	147078	keystroke_l	l	n/a
73.6885	0.075	147377	keystroke_i	i	n/a
73.7485	0.1045	147497	keystroke_e	e	n/a
73.8985	0.03	147797	keystroke_n	n	n/a
73.9735	0.074	147947	keystroke_t	t	n/a
74.1235	0.105	148247	keystroke_s	s	n/a
74.2425	0.0905	148485	keystroke_Key.space	Key.space	n/a
74.3175	0.075	148635	keystroke_s	s	n/a
74.4385	0.075	148877	keystroke_h	h	n/a
74.4985	0.09	148997	keystroke_i	i	n/a
74.6635	0.0745	149327	keystroke_p	p	n/a
74.783	0.09	149566	keystroke_p	p	n/a
74.858	0.075	149716	keystroke_e	e	n/a
75.008	0.12	150016	keystroke_d	d	n/a
75.113	0.06	150226	keystroke_Key.space	Key.space	n/a
75.2335	0.075	150467	keystroke_n	n	n/a
75.3535	0.135	150707	keystroke_e	e	n/a
75.6985	0.105	151397	keystroke_w	w	n/a
75.8485	0.105	151697	keystroke_p	p	n/a
76.0285	0.09	152057	keystroke_o	o	n/a
76.1335	0.12	152267	keystroke_r	r	n/a
76.1935	0.135	152387	keystroke_t	t	n/a
76.7635	0.075	153527	keystroke_Key.enter	Key.enter	n/a
76.8425	4.692	153685	prompt	n/a	forest thongs newman making\n
77.4085	0.12	154817	keystroke_f	f	n/a
77.4985	0.075	154997	keystroke_o	o	n/a
77.5885	0.12	155177	keystroke_r	r	n/a
77.6485	0.135	155297	keystroke_e	e	n/a
77.9335	0.045	155867	keystroke_s	s	n/a
77.9485	0.135	155897	keystroke_t	t	n/a
78.3385	0.09	156677	keystroke_Key.space	Key.space	n/a
78.4885	0.12	156977	keystroke_t	t	n/a
78.5635	0.09	157127	keystroke_h	h	n/a
78.6085	0.12	157217	keystroke_o	o	n/a
78.6685	0.105	157337	keystroke_n	n	n/a
78.7585	0.09	157517	keystroke_g	g	n/a
78.8635	0.15	157727	keystroke_s	s	n/a
79.0285	0.075	158057	keystroke_Key.space	Key.space	n/a
79.2085	0.09	158417	keystroke_n	n	n/a
79.3285	0.15	158657	keystroke_e	e	n/a
79.4335	0.12	158867	keystroke_w	w	n/a
79.6885	0.0895	159377	keystroke_m	m	n/a
79.793	0.12	159586	keystroke_a	a	n/a
79.853	0.0905	159706	keystroke_n	n	n/a
80.0635	0.06	160127	keystroke_Key.space	Key.space	n/a
80.2135	0.09	160427	keystroke_m	m	n/a
80.3335	0.12	160667	keystroke_a	a	n/a
80.3935	0.09	160787	keystroke_k	k	n/a
80.5435	0.105	161087	keystroke_i	i	n/a
80.5885	0.105	161177	keystroke_n	n	n/a
80.7085	0.075	161417	keystroke_g	g	n/a
81.458	0.075	162916	keystroke_Key.enter	Key.enter	n/a
81.5435	5.121	163087	prompt	n/a	defend fifth cycle television\n
82.163	0.105	164326	keystroke_d	d	n/a
82.343	0.105	164686	keystroke_e	e	n/a
82.418	0.1505	164836	keystroke_f	f	n/a
82.5235	0.12	165047	keystroke_e	e	n/a
82.6435	0.105	165287	keystroke_n	n	n/a
82.8985	0.09	165797	keystroke_d	d	n/a
83.0785	0.09	166157	keystroke_Key.space	Key.space	n/a
83.3635	0.0745	166727	keystroke_f	f	n/a
83.453	0.06	166906	keystroke_i	i	n/a
83.528	0.075	167056	keystroke_f	f	n/a
83.723	0.105	167446	keystroke_t	t	n/a
83.783	0.105	167566	keystroke_h	h	n/a
84.008	0.105	168016	keystroke_Key.space	Key.space	n/a
84.158	0.09	168316	keystroke_c	c	n/a
84.398	0.06	168796	keystroke_y	y	n/a
84.608	0.106	169216	keystroke_c	c	n/a
84.728	0.075	169456	keystroke_l	l	n/a
84.818	0.075	169636	keystroke_e	e	n/a
84.908	0.075	169816	keystroke_Key.space	Key.space	n/a
85.148	0.03	170296	keystroke_t	t	n/a
85.163	0.06	170326	keystroke_e	e	n/a
85.238	0.075	170476	keystroke_l	l	n/a
85.298	0.091	170596	keystroke_e	e	n/a
85.539	0.089	171078	keystroke_v	v	n/a
85.6735	0.1045	171347	keystroke_i	i	n/a
85.808	0.1055	171616	keystroke_s	s	n/a
85.8835	0.06	171767	keystroke_i	i	n/a
86.0035	0.105	172007	keystroke_o	o	n/a
86.0485	0.105	172097	keystroke_n	n	n/a
86.6035	0.06	173207	keystroke_Key.enter	Key.enter	n/a
86.668	6.057	173336	prompt	n/a	outsourcing lyrics sequences caroline\n
87.2485	0.09	174497	keystroke_o	o	n/a
87.4435	0.105	174887	keystroke_u	u	n/a
87.5635	0.09	175127	keystroke_t	t	n/a
87.773	0.105	175546	keystroke_s	s	n/a
87.848	0.075	175696	keystroke_o	o	n/a
88.013	0.075	176026	keystroke_u	u	n/a
88.118	0.0755	176236	keystroke_r	r	n/a
88.313	0.105	176626	keystroke_c	c	n/a
88.433	0.12	176866	keystroke_i	i	n/a
88.478	0.105	176956	keystroke_n	n	n/a
88.613	0.075	177226	keystroke_g	g	n/a
88.958	0.09	177916	keystroke_Key.space	Key.space	n/a
89.168	0.09	178336	keystroke_l	l	n/a
89.378	0.09	178756	keystroke_y	y	n/a
89.513	0.09	179026	keystroke_r	r	n/a
89.648	0.075	179296	keystroke_i	i	n/a
89.768	0.135	179536	keystroke_c	c	n/a
89.828	0.15	179656	keystroke_s	s	n/a
90.068	0.0605	180136	keystroke_Key.space	Key.space	n/a
90.2185	0.12	180437	keystroke_s	s	n/a
90.4285	0.09	180857	keystroke_e	e	n/a
90.6235	0.105	181247	keystroke_q	q	n/a
90.7585	0.06	181517	keystroke_u	u	n/a
90.8485	0.09	181697	keystroke_e	e	n/a
90.9535	0.074	181907	keystroke_n	n	n/a
91.073	0.12	182146	keystroke_c	c	n/a
91.133	0.105	182266	keystroke_e	e	n/a
91.298	0.09	182596	keystroke_Key.space	Key.space	n/a
91.418	0.12	182836	keystroke_c	c	n/a
91.508	0.12	183016	keystroke_a	a	n/a
91.703	0.0745	183406	keystroke_r	r	n/a
91.8525	0.06	183705	keystroke_o	o	n/a
92.0035	0.075	184007	keystroke_l	l	n/a
92.1385	0.105	184277	keystroke_i	i	n/a
92.1835	0.09	184367	keystroke_n	n	n/a
92.2585	0.075	184517	keystroke_e	e	n/a
92.6635	0.06	185327	keystroke_Key.enter	Key.enter	n/a
92.728	10.2265	185456	prompt	n/a	symphony clarke australian network\n
93.2785	0.09	186557	keystroke_s	s	n/a
93.4135	0.09	186827	keystroke_y	y	n/a
93.5185	0.09	187037	keystroke_m	m	n/a
93.7585	0.1045	187517	keystroke_p	p	n/a
94.1335	0.075	188267	keystroke_o	o	n/a
94.2535	0.09	188507	keystroke_h	h	n/a
94.6885	0.045	189377	keystroke_Key.backspace	Key.backspace	n/a
94.7935	0.09	189587	keystroke_Key.backspace	Key.backspace	n/a
94.8535	0.1045	189707	keystroke_h	h	n/a
94.9725	0.121	189945	keystroke_o	o	n/a
95.0475	0.0755	190095	keystroke_n	n	n/a
95.138	0.0595	190276	keystroke_y	y	n/a
95.6635	0.12	191327	keystroke_Key.space	Key.space	n/a
95.8885	0.135	191777	keystroke_c	c	n/a
96.0685	0.09	192137	keystroke_l	l	n/a
96.1885	0.15	192377	keystroke_a	a	n/a
96.3235	0.135	192647	keystroke_r	r	n/a
96.4735	0.0745	192947	keystroke_k	k	n/a
96.563	0.09	193126	keystroke_e	e	n/a
96.698	0.075	193396	keystroke_Key.space	Key.space	n/a
96.863	0.1055	193726	keystroke_a	a	n/a
96.9835	0.06	193967	keystroke_u	u	n/a
97.1035	0.105	194207	keystroke_s	s	n/a
97.2385	0.135	194477	keystroke_t	t	n/a
97.3435	0.075	194687	keystroke_r	r	n/a
97.6735	0.09	195347	keystroke_a	a	n/a
97.8085	0.06	195617	keystroke_l	l	n/a
98.4835	0.06	196967	keystroke_i	i	n/a
98.5885	0.0895	197177	keystroke_a	a	n/a
98.723	0.105	197446	keystroke_n	n	n/a
98.888	0.09	197776	keystroke_Key.space	Key.space	n/a
99.248	0.075	198496	keystroke_n	n	n/a
99.338	0.1355	198676	keystroke_e	e	n/a
99.443	0.0905	198886	keystroke_t	t	n/a
99.6535	0.105	199307	keystroke_w	w	n/a
99.7435	0.09	199487	keystroke_o	o	n/a
99.8485	0.12	199697	keystroke_r	r	n/a
99.9235	0.105	199847	keystroke_k	k	n/a
102.9405	0.013	205881	keystroke_Key.enter	Key.enter	n/a
102.958	16.962	205916	prompt	n/a	additionally patrick interaction borough\n
103.4785	0.105	206957	keystroke_a	a	n/a
103.6285	0.09	207257	keystroke_d	d	n/a
103.7935	0.105	207587	keystroke_i	i	n/a
103.9285	0.075	207857	keystroke_t	t	n/a
104.0335	0.075	208067	keystroke_i	i	n/a
104.3035	0.135	208607	keystroke_o	o	n/a
104.3935	0.1045	208787	keystroke_n	n	n/a
104.513	0.12	209026	keystroke_a	a	n/a
104.603	0.06	209206	keystroke_l	l	n/a
104.648	0.045	209296	keystroke_a	a	n/a
104.753	0.06	209506	keystroke_l	l	n/a
105.353	0.075	210706	keystroke_Key.backspace	Key.backspace	n/a
105.473	0.09	210946	keystroke_Key.backspace	Key.backspace	n/a
105.818	0.06	211636	keystroke_l	l	n/a
106.0435	0.075	212087	keystroke_y	y	n/a
106.1785	0.06	212357	keystroke_Key.space	Key.space	n/a
106.688	0.105	213376	keystroke_p	p	n/a
109.406	0	218812	keystroke_Key.left	Key.left	n/a
109.493	0.09	218986	keystroke_Key.left	Key.left	n/a
109.808	0.06	219616	keystroke_Key.left	Key.left	n/a
109.943	0.06	219886	keystroke_Key.left	Key.left	n/a
110.093	0.06	220186	keystroke_Key.left	Key.left	n/a
110.243	0.045	220486	keystroke_Key.left	Key.left	n/a
110.378	0.06	220756	keystroke_Key.left	Key.left	n/a
110.543	0.045	221086	keystroke_Key.left	Key.left	n/a
110.678	0.06	221356	keystroke_Key.left	Key.left	n/a
110.813	0.06	221626	keystroke_Key.left	Key.left	n/a
111.248	0.075	222496	keystroke_d	d	n/a
111.848	0.075	223696	keystroke_Key.backspace	Key.backspace	n/a
111.968	0.09	223936	keystroke_Key.backspace	Key.backspace	n/a
112.133	0.105	224266	keystroke_d	d	n/a
113.0185	0.06	226037	keystroke_i	i	n/a
113.3935	0.165	226787	keystroke_Key.right	Key.right	n/a
113.5735	0.1495	227147	keystroke_Key.right	Key.right	n/a
113.783	0.075	227566	keystroke_Key.right	Key.right	n/a
113.918	0.075	227836	keystroke_Key.right	Key.right	n/a
114.053	0.09	228106	keystroke_Key.right	Key.right	n/a
114.203	0.09	228406	keystroke_Key.right	Key.right	n/a
114.353	0.075	228706	keystroke_Key.right	Key.right	n/a
114.5035	0.075	229007	keystroke_Key.right	Key.right	n/a
114.6535	0.225	229307	keystroke_Key.right	Key.right	n/a
115.1035	0.09	230207	keystroke_Key.right	Key.right	n/a
115.4635	0.09	230927	keystroke_a	a	n/a
115.6735	0.1195	231347	keystroke_t	t	n/a
115.748	0.105	231496	keystroke_r	r	n/a
115.883	0.105	231766	keystroke_i	i	n/a
116.0335	0.12	232067	keystroke_c	c	n/a
116.1385	0.09	232277	keystroke_k	k	n/a
116.4835	0.0895	232967	keystroke_Key.space	Key.space	n/a
116.783	0.12	233566	keystroke_i	i	n/a
116.858	0.09	233716	keystroke_n	n	n/a
116.993	0.12	233986	keystroke_t	t	n/a
117.098	0.12	234196	keystroke_e	e	n/a
117.173	0.1205	234346	keystroke_r	r	n/a
117.3835	0.105	234767	keystroke_a	a	n/a
117.4285	0.12	234857	keystroke_c	c	n/a
117.6535	0.0745	235307	keystroke_t	t	n/a
117.743	0.09	235486	keystroke_i	i	n/a
117.893	0.105	235786	keystroke_o	o	n/a
117.953	0.09	235906	keystroke_n	n	n/a
118.343	0.075	236686	keystroke_Key.space	Key.space	n/a
118.733	0.09	237466	keystroke_b	b	n/a
118.928	0.075	237856	keystroke_o	o	n/a
119.1235	0.09	238247	keystroke_r	r	n/a
119.2435	0.06	238487	keystroke_o	o	n/a
119.4085	0.075	238817	keystroke_u	u	n/a
119.5135	0.09	239027	keystroke_g	g	n/a
119.5585	0.12	239117	keystroke_h	h	n/a
119.858	0.06	239716	keystroke_Key.enter	Key.enter	n/a
119.924	8.426	239848	prompt	n/a	dealtime novel stress badly\n
120.683	0.075	241366	keystroke_d	d	n/a
120.863	0.09	241726	keystroke_e	e	n/a
121.088	0.12	242176	keystroke_a	a	n/a
121.253	0.09	242506	keystroke_l	l	n/a
121.418	0.105	242836	keystroke_t	t	n/a
121.583	0.12	243166	keystroke_i	i	n/a
121.643	0.1055	243286	keystroke_m	m	n/a
121.718	0.1055	243436	keystroke_e	e	n/a
121.8685	0.075	243737	keystroke_Key.space	Key.space	n/a
122.019	0.104	244038	keystroke_n	n	n/a
122.109	0.09	244218	keystroke_o	o	n/a
122.303	0.1045	244606	keystroke_v	v	n/a
122.618	0.105	245236	keystroke_e	e	n/a
122.738	0.0895	245476	keystroke_l	l	n/a
122.9175	0.075	245835	keystroke_Key.space	Key.space	n/a
123.0525	0.12	246105	keystroke_s	s	n/a
123.2175	0.09	246435	keystroke_t	t	n/a
123.3975	0.09	246795	keystroke_r	r	n/a
123.4285	0.089	246857	keystroke_e	e	n/a
123.5925	0.091	247185	keystroke_s	s	n/a
123.7275	0.121	247455	keystroke_s	s	n/a
123.8635	0.105	247727	keystroke_Key.space	Key.space	n/a
123.9835	0.075	247967	keystroke_b	b	n/a
124.1635	0.075	248327	keystroke_a	a	n/a
124.2235	0.135	248447	keystroke_d	d	n/a
124.4485	0.09	248897	keystroke_l	l	n/a
124.6735	0.09	249347	keystroke_y	y	n/a
128.336	0.012	256672	keystroke_Key.enter	Key.enter	n/a
128.354	5.3655	256708	prompt	n/a	entirely also bean bedrooms\n
129.0985	0.09	258197	keystroke_d	d	n/a
129.2185	0.09	258437	keystroke_Key.backspace	Key.backspace	n/a
129.4435	0.09	258887	keystroke_e	e	n/a
129.5485	0.075	259097	keystroke_n	n	n/a
129.6685	0.15	259337	keystroke_t	t	n/a
129.8935	0.075	259787	keystroke_i	i	n/a
130.0135	0.135	260027	keystroke_r	r	n/a
130.0735	0.135	260147	keystroke_e	e	n/a
130.1935	0.075	260387	keystroke_l	l	n/a
130.3285	0.105	260657	keystroke_y	y	n/a
130.4485	0.075	260897	keystroke_Key.space	Key.space	n/a
130.6585	0.12	261317	keystroke_a	a	n/a
130.7485	0.075	261497	keystroke_l	l	n/a
130.8535	0.09	261707	keystroke_s	s	n/a
130.9135	0.075	261827	keystroke_o	o	n/a
131.0635	0.09	262127	keystroke_Key.space	Key.space	n/a
131.1835	0.075	262367	keystroke_b	b	n/a
131.3635	0.075	262727	keystroke_e	e	n/a
131.4235	0.135	262847	keystroke_a	a	n/a
131.5735	0.045	263147	keystroke_n	n	n/a
131.7085	0.09	263417	keystroke_Key.space	Key.space	n/a
131.8585	0.09	263717	keystroke_d	d	n/a
132.1135	0.09	264227	keystroke_Key.backspace	Key.backspace	n/a
132.2185	0.075	264437	keystroke_b	b	n/a
132.3535	0.105	264707	keystroke_e	e	n/a
132.5035	0.105	265007	keystroke_d	d	n/a
132.6835	0.105	265367	keystroke_r	r	n/a
132.8035	0.075	265607	keystroke_o	o	n/a
132.9235	0.135	265847	keystroke_o	o	n/a
133.0435	0.09	266087	keystroke_m	m	n/a
133.1785	0.105	266357	keystroke_s	s	n/a
133.6435	0.075	267287	keystroke_Key.enter	Key.enter	n/a
133.724	9.1455	267448	prompt	n/a	destruction as marco geographical\n
134.4835	0.0745	268967	keystroke_d	d	n/a
134.633	0.075	269266	keystroke_e	e	n/a
134.753	0.105	269506	keystroke_s	s	n/a
134.888	0.03	269776	keystroke_s	s	n/a
134.903	0.09	269806	keystroke_t	t	n/a
134.948	0.09	269896	keystroke_r	r	n/a
135.053	0.06	270106	keystroke_u	u	n/a
135.188	0.09	270376	keystroke_c	c	n/a
135.353	0.09	270706	keystroke_t	t	n/a
135.638	0.075	271276	keystroke_Key.backspace	Key.backspace	n/a
135.788	0.075	271576	keystroke_Key.backspace	Key.backspace	n/a
135.923	0.075	271846	keystroke_Key.backspace	Key.backspace	n/a
136.088	0.0605	272176	keystroke_Key.backspace	Key.backspace	n/a
136.2085	0.075	272417	keystroke_Key.backspace	Key.backspace	n/a
136.3435	0.075	272687	keystroke_Key.backspace	Key.backspace	n/a
136.4335	0.09	272867	keystroke_c	c	n/a
137.0185	0.12	274037	keystroke_Key.backspace	Key.backspace	n/a
137.1685	0.15	274337	keystroke_t	t	n/a
137.2585	0.105	274517	keystroke_r	r	n/a
137.693	0.09	275386	keystroke_u	u	n/a
137.798	0.105	275596	keystroke_c	c	n/a
137.993	0.09	275986	keystroke_t	t	n/a
138.068	0.075	276136	keystroke_i	i	n/a
138.188	0.12	276376	keystroke_o	o	n/a
138.248	0.09	276496	keystroke_n	n	n/a
138.383	0.09	276766	keystroke_Key.space	Key.space	n/a
138.533	0.15	277066	keystroke_a	a	n/a
138.653	0.09	277306	keystroke_s	s	n/a
138.728	0.075	277456	keystroke_Key.space	Key.space	n/a
138.863	0.09	277726	keystroke_m	m	n/a
138.968	0.075	277936	keystroke_a	a	n/a
139.028	0.105	278056	keystroke_r	r	n/a
139.238	0.12	278476	keystroke_c	c	n/a
139.313	0.075	278626	keystroke_o	o	n/a
139.493	0.09	278986	keystroke_Key.space	Key.space	n/a
140.033	0.105	280066	keystroke_g	g	n/a
140.153	0.105	280306	keystroke_e	e	n/a
140.633	0.045	281266	keystroke_o	o	n/a
140.903	0.09	281806	keystroke_g	g	n/a
140.948	0.09	281896	keystroke_r	r	n/a
141.0975	0.12	282195	keystroke_a	a	n/a
141.2025	0.061	282405	keystroke_p	p	n/a
141.3535	0.059	282707	keystroke_h	h	n/a
141.4585	0.074	282917	keystroke_i	i	n/a
141.5775	0.12	283155	keystroke_c	c	n/a
141.6225	0.15	283245	keystroke_a	a	n/a
141.7575	0.061	283515	keystroke_l	l	n/a
142.8075	0.0605	285615	keystroke_Key.enter	Key.enter	n/a
142.8725	9.5855	285745	prompt	n/a	disclaimer arising correspondence bracket\n
143.543	0.09	287086	keystroke_d	d	n/a
143.678	0.075	287356	keystroke_i	i	n/a
143.768	0.06	287536	keystroke_s	s	n/a
143.873	0.105	287746	keystroke_c	c	n/a
143.993	0.075	287986	keystroke_l	l	n/a
144.113	0.135	288226	keystroke_a	a	n/a
144.293	0.135	288586	keystroke_i	i	n/a
144.383	0.09	288766	keystroke_m	m	n/a
144.653	0.135	289306	keystroke_e	e	n/a
144.728	0.12	289456	keystroke_r	r	n/a
144.983	0.09	289966	keystroke_Key.space	Key.space	n/a
145.178	0.135	290356	keystroke_a	a	n/a
145.418	0.09	290836	keystroke_r	r	n/a
145.523	0.06	291046	keystroke_i	i	n/a
145.628	0.075	291256	keystroke_s	s	n/a
145.673	0.075	291346	keystroke_i	i	n/a
145.733	0.075	291466	keystroke_n	n	n/a
145.823	0.06	291646	keystroke_g	g	n/a
146.1235	0.09	292247	keystroke_Key.space	Key.space	n/a
146.3635	0.105	292727	keystroke_c	c	n/a
146.4385	0.075	292877	keystroke_o	o	n/a
146.5885	0.06	293177	keystroke_r	r	n/a
146.7235	0.105	293447	keystroke_r	r	n/a
146.8135	0.105	293627	keystroke_e	e	n/a
147.0235	0.09	294047	keystroke_s	s	n/a
147.1585	0.09	294317	keystroke_p	p	n/a
147.3235	0.15	294647	keystroke_o	o	n/a
147.3985	0.09	294797	keystroke_n	n	n/a
147.758	0.075	295516	keystroke_d	d	n/a
147.938	0.06	295876	keystroke_e	e	n/a
148.448	0.075	296896	keystroke_n	n	n/a
148.553	0.105	297106	keystroke_c	c	n/a
148.598	0.135	297196	keystroke_e	e	n/a
148.898	0.075	297796	keystroke_Key.space	Key.space	n/a
149.018	0.075	298036	keystroke_b	b	n/a
149.213	0.075	298426	keystroke_r	r	n/a
149.378	0.1055	298756	keystroke_a	a	n/a
149.438	0.1355	298876	keystroke_c	c	n/a
149.5435	0.06	299087	keystroke_k	k	n/a
149.6635	0.1495	299327	keystroke_e	e	n/a
149.753	0.12	299506	keystroke_t	t	n/a
152.4555	0.001	304911	keystroke_Key.enter	Key.enter	n/a
152.46	6.4745	304920	prompt	n/a	channels yards zinc till\n
153.1735	0.105	306347	keystroke_c	c	n/a
153.3685	0.075	306737	keystroke_h	h	n/a
153.4735	0.135	306947	keystroke_a	a	n/a
153.5635	0.09	307127	keystroke_n	n	n/a
153.6835	0.06	307367	keystroke_n	n	n/a
153.788	0.105	307576	keystroke_e	e	n/a
153.878	0.105	307756	keystroke_l	l	n/a
153.998	0.12	307996	keystroke_s	s	n/a
154.163	0.09	308326	keystroke_Key.space	Key.space	n/a
154.658	0.045	309316	keystroke_h	h	n/a
155.2575	0.09	310515	keystroke_Key.backspace	Key.backspace	n/a
155.4375	0.09	310875	keystroke_y	y	n/a
155.6335	0.104	311267	keystroke_a	a	n/a
155.7975	0.106	311595	keystroke_r	r	n/a
156.0225	0.1205	312045	keystroke_d	d	n/a
156.0825	0.135	312165	keystroke_s	s	n/a
156.4435	0.105	312887	keystroke_Key.space	Key.space	n/a
156.6535	0.12	313307	keystroke_z	z	n/a
156.7885	0.1045	313577	keystroke_i	i	n/a
156.833	0.12	313666	keystroke_n	n	n/a
157.178	0.12	314356	keystroke_c	c	n/a
157.403	0.09	314806	keystroke_Key.space	Key.space	n/a
157.943	0.09	315886	keystroke_t	t	n/a
158.048	0.075	316096	keystroke_i	i	n/a
158.213	0.06	316426	keystroke_l	l	n/a
158.318	0.09	316636	keystroke_l	l	n/a
158.873	0.06	317746	keystroke_Key.enter	Key.enter	n/a
158.95	7.83	317900	prompt	n/a	algorithms rope include immunology\n
159.608	0.135	319216	keystroke_a	a	n/a
159.728	0.105	319456	keystroke_l	l	n/a
159.983	0.105	319966	keystroke_g	g	n/a
160.073	0.09	320146	keystroke_o	o	n/a
160.253	0.0905	320506	keystroke_r	r	n/a
160.5985	0.075	321197	keystroke_i	i	n/a
160.7785	0.105	321557	keystroke_t	t	n/a
160.8385	0.09	321677	keystroke_h	h	n/a
161.1385	0.135	322277	keystroke_m	m	n/a
161.2585	0.105	322517	keystroke_s	s	n/a
161.6035	0.06	323207	keystroke_Key.space	Key.space	n/a
161.708	0.0905	323416	keystroke_r	r	n/a
161.8135	0.105	323627	keystroke_o	o	n/a
161.9785	0.075	323957	keystroke_p	p	n/a
162.0835	0.105	324167	keystroke_e	e	n/a
162.263	0.12	324526	keystroke_Key.space	Key.space	n/a
162.428	0.105	324856	keystroke_i	i	n/a
162.488	0.09	324976	keystroke_n	n	n/a
162.593	0.105	325186	keystroke_c	c	n/a
162.683	0.06	325366	keystroke_l	l	n/a
162.818	0.075	325636	keystroke_u	u	n/a
162.953	0.075	325906	keystroke_d	d	n/a
163.103	0.12	326206	keystroke_e	e	n/a
163.283	0.075	326566	keystroke_Key.space	Key.space	n/a
163.553	0.09	327106	keystroke_i	i	n/a
163.628	0.09	327256	keystroke_m	m	n/a
163.763	0.105	327526	keystroke_m	m	n/a
164.078	0.105	328156	keystroke_u	u	n/a
164.168	0.12	328336	keystroke_n	n	n/a
164.453	0.105	328906	keystroke_o	o	n/a
164.708	0.075	329416	keystroke_l	l	n/a
164.828	0.075	329656	keystroke_o	o	n/a
164.948	0.09	329896	keystroke_g	g	n/a
165.173	0.075	330346	keystroke_y	y	n/a
166.7035	0.075	333407	keystroke_Key.enter	Key.enter	n/a
166.783	6.0415	333566	prompt	n/a	literally millions asia iowa\n
167.393	0.09	334786	keystroke_l	l	n/a
167.573	0.075	335146	keystroke_i	i	n/a
167.663	0.09	335326	keystroke_t	t	n/a
167.738	0.15	335476	keystroke_e	e	n/a
167.813	0.105	335626	keystroke_r	r	n/a
167.993	0.12	335986	keystroke_a	a	n/a
168.068	0.06	336136	keystroke_l	l	n/a
168.173	0.09	336346	keystroke_l	l	n/a
168.278	0.075	336556	keystroke_y	y	n/a
168.368	0.06	336736	keystroke_Key.space	Key.space	n/a
168.5035	0.1045	337007	keystroke_m	m	n/a
168.578	0.12	337156	keystroke_i	i	n/a
168.788	0.075	337576	keystroke_l	l	n/a
168.908	0.075	337816	keystroke_l	l	n/a
169.058	0.075	338116	keystroke_i	i	n/a
169.178	0.105	338356	keystroke_o	o	n/a
169.223	0.105	338446	keystroke_n	n	n/a
169.313	0.09	338626	keystroke_s	s	n/a
169.418	0.09	338836	keystroke_Key.space	Key.space	n/a
169.523	0.135	339046	keystroke_a	a	n/a
169.613	0.135	339226	keystroke_s	s	n/a
169.778	0.09	339556	keystroke_i	i	n/a
169.883	0.105	339766	keystroke_a	a	n/a
170.333	0.045	340666	keystroke_Key.space	Key.space	n/a
170.453	0.0905	340906	keystroke_i	i	n/a
170.6025	0.09	341205	keystroke_o	o	n/a
170.7085	0.09	341417	keystroke_w	w	n/a
170.9335	0.12	341867	keystroke_a	a	n/a
172.733	0.09	345466	keystroke_Key.enter	Key.enter	n/a
172.829	6.941	345658	prompt	n/a	hostels incident inexpensive clubs\n
173.6035	0.09	347207	keystroke_h	h	n/a
173.6785	0.09	347357	keystroke_o	o	n/a
173.7835	0.135	347567	keystroke_s	s	n/a
173.8735	0.165	347747	keystroke_t	t	n/a
174.0235	0.105	348047	keystroke_e	e	n/a
174.1435	0.075	348287	keystroke_l	l	n/a
174.2485	0.12	348497	keystroke_s	s	n/a
174.3835	0.09	348767	keystroke_Key.space	Key.space	n/a
174.5185	0.105	349037	keystroke_i	i	n/a
174.5785	0.105	349157	keystroke_n	n	n/a
174.6985	0.09	349397	keystroke_v	v	n/a
175.0135	0.0895	350027	keystroke_Key.backspace	Key.backspace	n/a
175.133	0.105	350266	keystroke_c	c	n/a
175.283	0.105	350566	keystroke_i	i	n/a
175.568	0.09	351136	keystroke_d	d	n/a
175.7335	0.09	351467	keystroke_e	e	n/a
175.8385	0.09	351677	keystroke_n	n	n/a
175.9735	0.075	351947	keystroke_t	t	n/a
176.1385	0.09	352277	keystroke_Key.space	Key.space	n/a
176.5135	0.075	353027	keystroke_e	e	n/a
176.8885	0.105	353777	keystroke_Key.backspace	Key.backspace	n/a
177.0985	0.075	354197	keystroke_i	i	n/a
177.1285	0.105	354257	keystroke_n	n	n/a
177.3685	0.075	354737	keystroke_e	e	n/a
177.773	0.135	355546	keystroke_x	x	n/a
177.938	0.09	355876	keystroke_p	p	n/a
178.073	0.075	356146	keystroke_e	e	n/a
178.178	0.0905	356356	keystroke_n	n	n/a
178.2985	0.0895	356597	keystroke_s	s	n/a
178.3735	0.0745	356747	keystroke_i	i	n/a
178.463	0.1205	356926	keystroke_v	v	n/a
178.5385	0.105	357077	keystroke_e	e	n/a
178.6585	0.09	357317	keystroke_Key.space	Key.space	n/a
178.7635	0.105	357527	keystroke_c	c	n/a
178.8535	0.06	357707	keystroke_l	l	n/a
179.0035	0.075	358007	keystroke_u	u	n/a
179.1085	0.09	358217	keystroke_b	b	n/a
179.2585	0.105	358517	keystroke_s	s	n/a
179.7535	0.015	359507	keystroke_Key.enter	Key.enter	n/a
179.774	6.8955	359548	prompt	n/a	she experiencing woods hungary\n
180.338	0.09	360676	keystroke_s	s	n/a
180.503	0.075	361006	keystroke_h	h	n/a
180.593	0.105	361186	keystroke_e	e	n/a
180.713	0.105	361426	keystroke_Key.space	Key.space	n/a
180.833	0.09	361666	keystroke_e	e	n/a
181.028	0.09	362056	keystroke_x	x	n/a
181.133	0.075	362266	keystroke_p	p	n/a
181.253	0.135	362506	keystroke_e	e	n/a
181.313	0.09	362626	keystroke_r	r	n/a
181.463	0.09	362926	keystroke_m	m	n/a
181.8235	0.045	363647	keystroke_Key.backspace	Key.backspace	n/a
182.0485	0.075	364097	keystroke_i	i	n/a
182.1385	0.1045	364277	keystroke_e	e	n/a
182.228	0.075	364456	keystroke_n	n	n/a
182.393	0.1055	364786	keystroke_c	c	n/a
182.5435	0.135	365087	keystroke_i	i	n/a
182.6035	0.105	365207	keystroke_n	n	n/a
182.7235	0.06	365447	keystroke_g	g	n/a
183.0385	0.09	366077	keystroke_Key.space	Key.space	n/a
183.2485	0.135	366497	keystroke_w	w	n/a
183.3085	0.06	366617	keystroke_o	o	n/a
183.4285	0.09	366857	keystroke_o	o	n/a
183.653	0.015	367306	keystroke_s	s	n/a
183.9985	0.09	367997	keystroke_Key.backspace	Key.backspace	n/a
184.0735	0.12	368147	keystroke_d	d	n/a
184.1485	0.135	368297	keystroke_s	s	n/a
184.3435	0.09	368687	keystroke_Key.space	Key.space	n/a
184.523	0.105	369046	keystroke_g	g	n/a
184.658	0.12	369316	keystroke_u	u	n/a
184.718	0.105	369436	keystroke_n	n	n/a
185.033	0.075	370066	keystroke_Key.backspace	Key.backspace	n/a
185.168	0.06	370336	keystroke_Key.backspace	Key.backspace	n/a
185.288	0.075	370576	keystroke_Key.backspace	Key.backspace	n/a
185.364	0.089	370728	keystroke_h	h	n/a
185.513	0.12	371026	keystroke_u	u	n/a
185.573	0.105	371146	keystroke_n	n	n/a
185.693	0.12	371386	keystroke_g	g	n/a
185.858	0.165	371716	keystroke_a	a	n/a
186.068	0.15	372136	keystroke_r	r	n/a
186.173	0.105	372346	keystroke_y	y	n/a
186.5775	0.091	373155	keystroke_Key.enter	Key.enter	n/a
186.6725	4.512	373345	prompt	n/a	profession confirm bubble fact\n
187.3275	0.121	374655	keystroke_p	p	n/a
187.4625	0.06	374925	keystroke_r	r	n/a
187.5385	0.074	375077	keystroke_o	o	n/a
187.6285	0.119	375257	keystroke_f	f	n/a
187.7025	0.12	375405	keystroke_e	e	n/a
187.9135	0.09	375827	keystroke_s	s	n/a
188.0635	0.134	376127	keystroke_s	s	n/a
188.1525	0.076	376305	keystroke_i	i	n/a
188.2725	0.12	376545	keystroke_o	o	n/a
188.3325	0.091	376665	keystroke_n	n	n/a
188.498	0.09	376996	keystroke_Key.space	Key.space	n/a
188.618	0.12	377236	keystroke_c	c	n/a
188.708	0.12	377416	keystroke_o	o	n/a
188.753	0.105	377506	keystroke_n	n	n/a
188.873	0.075	377746	keystroke_f	f	n/a
188.963	0.0895	377926	keystroke_i	i	n/a
189.0675	0.075	378135	keystroke_r	r	n/a
189.1575	0.09	378315	keystroke_m	m	n/a
189.3675	0.09	378735	keystroke_Key.space	Key.space	n/a
189.5175	0.105	379035	keystroke_b	b	n/a
189.6235	0.089	379247	keystroke_u	u	n/a
189.7275	0.061	379455	keystroke_b	b	n/a
189.8625	0.06	379725	keystroke_b	b	n/a
189.9375	0.09	379875	keystroke_l	l	n/a
190.0425	0.075	380085	keystroke_e	e	n/a
190.1475	0.075	380295	keystroke_Key.space	Key.space	n/a
190.1925	0.18	380385	keystroke_f	f	n/a
190.2975	0.105	380595	keystroke_a	a	n/a
190.538	0.075	381076	keystroke_c	c	n/a
190.763	0.075	381526	keystroke_t	t	n/a
191.123	0.06	382246	keystroke_Key.enter	Key.enter	n/a
191.1935	9.366	382387	prompt	n/a	beneficial warnings takes exclusively\n
191.7985	0.0745	383597	keystroke_b	b	n/a
191.933	0.09	383866	keystroke_e	e	n/a
192.023	0.105	384046	keystroke_n	n	n/a
192.113	0.075	384226	keystroke_e	e	n/a
192.278	0.105	384556	keystroke_f	f	n/a
192.428	0.0755	384856	keystroke_i	i	n/a
192.6385	0.104	385277	keystroke_c	c	n/a
192.7575	0.06	385515	keystroke_i	i	n/a
192.8335	0.12	385667	keystroke_a	a	n/a
192.9685	0.074	385937	keystroke_l	l	n/a
193.2975	0.1055	386595	keystroke_Key.space	Key.space	n/a
193.404	0.1185	386808	keystroke_w	w	n/a
193.5375	0.1205	387075	keystroke_a	a	n/a
193.6275	0.1205	387255	keystroke_r	r	n/a
193.778	0.105	387556	keystroke_n	n	n/a
193.928	0.12	387856	keystroke_i	i	n/a
193.988	0.12	387976	keystroke_n	n	n/a
194.138	0.09	388276	keystroke_g	g	n/a
194.258	0.12	388516	keystroke_s	s	n/a
194.648	0.045	389296	keystroke_Key.space	Key.space	n/a
194.708	0.105	389416	keystroke_t	t	n/a
194.783	0.135	389566	keystroke_a	a	n/a
194.903	0.075	389806	keystroke_k	k	n/a
194.993	0.075	389986	keystroke_e	e	n/a
195.113	0.105	390226	keystroke_s	s	n/a
195.233	0.09	390466	keystroke_Key.space	Key.space	n/a
195.4735	0.045	390947	keystroke_e	e	n/a
195.6385	0.09	391277	keystroke_x	x	n/a
195.788	0.105	391576	keystroke_l	l	n/a
196.013	0.09	392026	keystroke_u	u	n/a
196.613	0.09	393226	keystroke_Key.backspace	Key.backspace	n/a
196.748	0.105	393496	keystroke_c	c	n/a
196.9585	0.03	393917	keystroke_=	=	n/a
196.9735	0.045	393947	keystroke_Key.backspace	Key.backspace	n/a
197.0785	0.09	394157	keystroke_Key.backspace	Key.backspace	n/a
197.1835	0.1045	394367	keystroke_c	c	n/a
197.768	0.075	395536	keystroke_Key.backspace	Key.backspace	n/a
197.903	0.105	395806	keystroke_Key.backspace	Key.backspace	n/a
198.053	0.12	396106	keystroke_c	c	n/a
198.158	0.105	396316	keystroke_l	l	n/a
198.383	0.09	396766	keystroke_u	u	n/a
198.608	0.105	397216	keystroke_s	s	n/a
198.728	0.06	397456	keystroke_i	i	n/a
198.818	0.12	397636	keystroke_v	v	n/a
198.953	0.12	397906	keystroke_e	e	n/a
199.088	0.09	398176	keystroke_l	l	n/a
199.253	0.075	398506	keystroke_y	y	n/a
200.4825	0.075	400965	keystroke_Key.enter	Key.enter	n/a
200.5625	9.162	401125	prompt	n/a	preparation publish richardson mauritius\n
201.1135	0.089	402227	keystroke_p	p	n/a
201.2625	0.15	402525	keystroke_r	r	n/a
201.2925	0.135	402585	keystroke_e	e	n/a
201.5325	0.0905	403065	keystroke_p	p	n/a
201.758	0.105	403516	keystroke_a	a	n/a
201.893	0.15	403786	keystroke_r	r	n/a
202.028	0.075	404056	keystroke_a	a	n/a
202.163	0.1045	404326	keystroke_t	t	n/a
202.2525	0.09	404505	keystroke_i	i	n/a
202.358	0.12	404716	keystroke_o	o	n/a
202.4325	0.0755	404865	keystroke_n	n	n/a
202.5975	0.06	405195	keystroke_Key.space	Key.space	n/a
202.7925	0.075	405585	keystroke_p	p	n/a
202.9725	0.075	405945	keystroke_u	u	n/a
203.108	0.09	406216	keystroke_b	b	n/a
203.213	0.06	406426	keystroke_l	l	n/a
203.333	0.09	406666	keystroke_i	i	n/a
203.468	0.105	406936	keystroke_s	s	n/a
203.603	0.075	407206	keystroke_h	h	n/a
203.7685	0.089	407537	keystroke_Key.space	Key.space	n/a
203.8875	0.09	407775	keystroke_r	r	n/a
204.0085	0.06	408017	keystroke_i	i	n/a
204.1285	0.09	408257	keystroke_c	c	n/a
204.1885	0.075	408377	keystroke_h	h	n/a
204.2785	0.09	408557	keystroke_a	a	n/a
204.4135	0.105	408827	keystroke_r	r	n/a
204.6085	0.09	409217	keystroke_d	d	n/a
204.908	0.105	409816	keystroke_s	s	n/a
205.028	0.12	410056	keystroke_o	o	n/a
205.103	0.105	410206	keystroke_n	n	n/a
205.313	0.075	410626	keystroke_Key.space	Key.space	n/a
205.508	0.09	411016	keystroke_m	m	n/a
205.703	0.075	411406	keystroke_a	a	n/a
205.973	0.09	411946	keystroke_u	u	n/a
206.123	0.12	412246	keystroke_r	r	n/a
206.979	0.074	413958	keystroke_i	i	n/a
207.593	0.105	415186	keystroke_t	t	n/a
207.938	0.12	415876	keystroke_i	i	n/a
208.133	0.09	416266	keystroke_u	u	n/a
208.238	0.12	416476	keystroke_s	s	n/a
209.648	0.0755	419296	keystroke_Key.enter	Key.enter	n/a
209.7295	4.06	419459	prompt	n/a	dating events knowing pose\n
210.2785	0.104	420557	keystroke_d	d	n/a
210.4435	0.0745	420887	keystroke_a	a	n/a
210.519	0.104	421038	keystroke_t	t	n/a
210.593	0.12	421186	keystroke_i	i	n/a
210.638	0.105	421276	keystroke_n	n	n/a
210.728	0.09	421456	keystroke_g	g	n/a
210.803	0.09	421606	keystroke_Key.space	Key.space	n/a
210.908	0.09	421816	keystroke_e	e	n/a
211.028	0.105	422056	keystroke_v	v	n/a
211.088	0.135	422176	keystroke_e	e	n/a
211.208	0.075	422416	keystroke_n	n	n/a
211.343	0.06	422686	keystroke_t	t	n/a
211.478	0.135	422956	keystroke_s	s	n/a
211.628	0.06	423256	keystroke_Key.space	Key.space	n/a
211.748	0.105	423496	keystroke_k	k	n/a
211.808	0.06	423616	keystroke_n	n	n/a
211.913	0.075	423826	keystroke_o	o	n/a
212.003	0.075	424006	keystroke_w	w	n/a
212.0785	0.105	424157	keystroke_i	i	n/a
212.1225	0.091	424245	keystroke_n	n	n/a
212.1985	0.09	424397	keystroke_g	g	n/a
212.3035	0.075	424607	keystroke_Key.space	Key.space	n/a
212.5135	0.09	425027	keystroke_p	p	n/a
212.6635	0.0895	425327	keystroke_o	o	n/a
212.888	0.165	425776	keystroke_s	s	n/a
212.979	0.149	425958	keystroke_e	e	n/a
213.713	0.0755	427426	keystroke_Key.enter	Key.enter	n/a
213.7935	6.266	427587	prompt	n/a	radio warned toilet corporations\n
214.4485	0.12	428897	keystroke_r	r	n/a
214.5535	0.135	429107	keystroke_a	a	n/a
214.6735	0.12	429347	keystroke_d	d	n/a
214.7485	0.09	429497	keystroke_i	i	n/a
214.8685	0.089	429737	keystroke_o	o	n/a
214.9735	0.089	429947	keystroke_Key.space	Key.space	n/a
215.0785	0.135	430157	keystroke_w	w	n/a
215.1985	0.075	430397	keystroke_a	a	n/a
215.2435	0.15	430487	keystroke_r	r	n/a
215.3785	0.074	430757	keystroke_n	n	n/a
215.5135	0.089	431027	keystroke_e	e	n/a
215.6635	0.12	431327	keystroke_d	d	n/a
216.383	0.105	432766	keystroke_Key.space	Key.space	n/a
216.5175	0.12	433035	keystroke_t	t	n/a
216.6235	0.074	433247	keystroke_o	o	n/a
216.7575	0.09	433515	keystroke_i	i	n/a
216.9225	0.105	433845	keystroke_l	l	n/a
216.9975	0.12	433995	keystroke_e	e	n/a
217.0575	0.136	434115	keystroke_t	t	n/a
217.1775	0.09	434355	keystroke_Key.space	Key.space	n/a
217.5375	0.105	435075	keystroke_c	c	n/a
217.6275	0.06	435255	keystroke_o	o	n/a
217.793	0.09	435586	keystroke_r	r	n/a
218.1675	0.045	436335	keystroke_p	p	n/a
218.573	0.06	437146	keystroke_o	o	n/a
218.858	0.12	437716	keystroke_r	r	n/a
219.038	0.105	438076	keystroke_a	a	n/a
219.1135	0.1345	438227	keystroke_t	t	n/a
219.263	0.075	438526	keystroke_i	i	n/a
219.383	0.105	438766	keystroke_o	o	n/a
219.428	0.105	438856	keystroke_n	n	n/a
219.518	0.135	439036	keystroke_s	s	n/a
219.983	0.075	439966	keystroke_Key.enter	Key.enter	n/a
220.064	7.3905	440128	prompt	n/a	tokyo fathers seats theoretical\n
220.688	0.06	441376	keystroke_t	t	n/a
220.733	0.06	441466	keystroke_o	o	n/a
220.853	0.105	441706	keystroke_k	k	n/a
220.973	0.105	441946	keystroke_y	y	n/a
221.093	0.0755	442186	keystroke_o	o	n/a
221.2435	0.09	442487	keystroke_Key.space	Key.space	n/a
221.3625	0.1505	442725	keystroke_f	f	n/a
221.468	0.105	442936	keystroke_a	a	n/a
221.663	0.09	443326	keystroke_t	t	n/a
221.693	0.105	443386	keystroke_h	h	n/a
221.828	0.135	443656	keystroke_e	e	n/a
221.903	0.12	443806	keystroke_r	r	n/a
222.473	0.105	444946	keystroke_s	s	n/a
222.683	0.015	445366	keystroke_Key.space	Key.space	n/a
222.713	0.12	445426	keystroke_s	s	n/a
222.863	0.105	445726	keystroke_e	e	n/a
222.968	0.1055	445936	keystroke_a	a	n/a
223.0575	0.12	446115	keystroke_t	t	n/a
223.1625	0.105	446325	keystroke_s	s	n/a
223.4175	0.105	446835	keystroke_Key.space	Key.space	n/a
223.7175	0.12	447435	keystroke_t	t	n/a
223.7925	0.09	447585	keystroke_h	h	n/a
223.9125	0.15	447825	keystroke_e	e	n/a
224.8575	0.045	449715	keystroke_o	o	n/a
225.0525	0.12	450105	keystroke_r	r	n/a
225.2175	0.045	450435	keystroke_i	i	n/a
225.5625	0.045	451125	keystroke_Key.backspace	Key.backspace	n/a
225.7125	0.1505	451425	keystroke_e	e	n/a
225.848	0.135	451696	keystroke_t	t	n/a
226.013	0.09	452026	keystroke_i	i	n/a
226.193	0.135	452386	keystroke_c	c	n/a
226.238	0.165	452476	keystroke_a	a	n/a
226.433	0.09	452866	keystroke_l	l	n/a
227.378	0.0755	454756	keystroke_Key.enter	Key.enter	n/a
227.459	6.9255	454918	prompt	n/a	object sapphire appointments newspaper\n
228.0535	0.105	456107	keystroke_o	o	n/a
228.2785	0.12	456557	keystroke_b	b	n/a
228.4285	0.075	456857	keystroke_j	j	n/a
228.5175	0.105	457035	keystroke_e	e	n/a
228.5925	0.105	457185	keystroke_c	c	n/a
228.7575	0.12	457515	keystroke_t	t	n/a
228.9075	0.09	457815	keystroke_Key.space	Key.space	n/a
229.1175	0.105	458235	keystroke_s	s	n/a
229.2825	0.105	458565	keystroke_a	a	n/a
229.4025	0.06	458805	keystroke_p	p	n/a
229.5225	0.075	459045	keystroke_p	p	n/a
229.6425	0.09	459285	keystroke_h	h	n/a
229.7625	0.06	459525	keystroke_i	i	n/a
229.8675	0.12	459735	keystroke_r	r	n/a
229.8825	0.135	459765	keystroke_e	e	n/a
230.3925	0.105	460785	keystroke_Key.space	Key.space	n/a
230.5725	0.12	461145	keystroke_a	a	n/a
230.6935	0.104	461387	keystroke_p	p	n/a
230.8425	0.09	461685	keystroke_p	p	n/a
230.9925	0.09	461985	keystroke_o	o	n/a
231.1425	0.12	462285	keystroke_i	i	n/a
231.2175	0.09	462435	keystroke_n	n	n/a
231.2925	0.105	462585	keystroke_t	t	n/a
231.4125	0.09	462825	keystroke_m	m	n/a
231.4875	0.105	462975	keystroke_e	e	n/a
231.5475	0.09	463095	keystroke_n	n	n/a
231.6225	0.15	463245	keystroke_t	t	n/a
231.7575	0.12	463515	keystroke_s	s	n/a
232.0575	0.105	464115	keystroke_Key.space	Key.space	n/a
232.2375	0.09	464475	keystroke_n	n	n/a
232.3125	0.135	464625	keystroke_e	e	n/a
232.3725	0.12	464745	keystroke_w	w	n/a
232.9435	0.105	465887	keystroke_s	s	n/a
233.0785	0.09	466157	keystroke_p	p	n/a
233.2585	0.105	466517	keystroke_a	a	n/a
233.3485	0.06	466697	keystroke_p	p	n/a
233.4535	0.09	466907	keystroke_e	e	n/a
233.5135	0.105	467027	keystroke_r	r	n/a
234.3225	0.061	468645	keystroke_Key.enter	Key.enter	n/a
234.3875	7.752	468775	prompt	n/a	representation librarian details worst\n
234.9525	0.166	469905	keystroke_r	r	n/a
235.0435	0.104	470087	keystroke_e	e	n/a
235.2375	0.09	470475	keystroke_p	p	n/a
235.418	0.15	470836	keystroke_r	r	n/a
235.493	0.09	470986	keystroke_e	e	n/a
235.718	0.1345	471436	keystroke_s	s	n/a
235.8375	0.09	471675	keystroke_e	e	n/a
235.9575	0.075	471915	keystroke_n	n	n/a
236.1075	0.135	472215	keystroke_t	t	n/a
236.2125	0.135	472425	keystroke_a	a	n/a
236.2875	0.135	472575	keystroke_t	t	n/a
236.3775	0.075	472755	keystroke_i	i	n/a
236.5125	0.105	473025	keystroke_o	o	n/a
236.5725	0.135	473145	keystroke_n	n	n/a
236.9775	0.105	473955	keystroke_Key.space	Key.space	n/a
237.233	0.09	474466	keystroke_l	l	n/a
237.398	0.09	474796	keystroke_i	i	n/a
237.533	0.09	475066	keystroke_b	b	n/a
237.683	0.1055	475366	keystroke_r	r	n/a
237.9085	0.0745	475817	keystroke_a	a	n/a
238.1935	0.12	476387	keystroke_r	r	n/a
238.3435	0.09	476687	keystroke_i	i	n/a
238.4935	0.12	476987	keystroke_a	a	n/a
238.5835	0.105	477167	keystroke_n	n	n/a
238.7635	0.105	477527	keystroke_Key.space	Key.space	n/a
238.9735	0.09	477947	keystroke_d	d	n/a
239.1385	0.105	478277	keystroke_e	e	n/a
239.2285	0.105	478457	keystroke_t	t	n/a
239.3185	0.1345	478637	keystroke_a	a	n/a
239.438	0.06	478876	keystroke_i	i	n/a
239.603	0.12	479206	keystroke_l	l	n/a
239.708	0.105	479416	keystroke_s	s	n/a
240.218	0.09	480436	keystroke_Key.space	Key.space	n/a
240.353	0.09	480706	keystroke_w	w	n/a
240.443	0.075	480886	keystroke_o	o	n/a
240.653	0.135	481306	keystroke_r	r	n/a
240.878	0.105	481756	keystroke_s	s	n/a
240.953	0.135	481906	keystroke_t	t	n/a
242.0485	0.0895	484097	keystroke_Key.enter	Key.enter	n/a
242.1425	5.517	484285	prompt	n/a	sent designated next composed\n
242.663	0.09	485326	keystroke_d	d	n/a
242.993	0.09	485986	keystroke_Key.backspace	Key.backspace	n/a
243.098	0.105	486196	keystroke_s	s	n/a
243.158	0.105	486316	keystroke_e	e	n/a
243.248	0.09	486496	keystroke_n	n	n/a
243.353	0.06	486706	keystroke_t	t	n/a
243.413	0.1045	486826	keystroke_Key.space	Key.space	n/a
243.488	0.1195	486976	keystroke_d	d	n/a
243.6535	0.074	487307	keystroke_e	e	n/a
244.0425	0.03	488085	keystroke_s	s	n/a
244.3725	0.12	488745	keystroke_i	i	n/a
244.5075	0.105	489015	keystroke_g	g	n/a
244.6275	0.075	489255	keystroke_n	n	n/a
244.7475	0.1055	489495	keystroke_a	a	n/a
244.898	0.15	489796	keystroke_t	t	n/a
245.018	0.105	490036	keystroke_e	e	n/a
245.228	0.105	490456	keystroke_d	d	n/a
245.334	0.1185	490668	keystroke_Key.space	Key.space	n/a
245.5575	0.0755	491115	keystroke_n	n	n/a
245.678	0.075	491356	keystroke_e	e	n/a
245.888	0.12	491776	keystroke_x	x	n/a
245.9935	0.1045	491987	keystroke_t	t	n/a
246.083	0.09	492166	keystroke_Key.space	Key.space	n/a
246.263	0.1055	492526	keystroke_c	c	n/a
246.278	0.1055	492556	keystroke_o	o	n/a
246.338	0.0755	492676	keystroke_m	m	n/a
246.4735	0.075	492947	keystroke_p	p	n/a
246.6385	0.09	493277	keystroke_o	o	n/a
246.7135	0.12	493427	keystroke_s	s	n/a
246.8185	0.18	493637	keystroke_e	e	n/a
246.9835	0.075	493967	keystroke_s	s	n/a
247.2835	0.09	494567	keystroke_Key.backspace	Key.backspace	n/a
247.4185	0.09	494837	keystroke_d	d	n/a
247.5835	0.075	495167	keystroke_Key.enter	Key.enter	n/a
247.662	5.8625	495324	prompt	n/a	assistant guards toward occupied\n
248.2725	0.121	496545	keystroke_a	a	n/a
248.4535	0.0745	496907	keystroke_s	s	n/a
248.558	0.1505	497116	keystroke_s	s	n/a
248.7235	0.09	497447	keystroke_i	i	n/a
248.9035	0.1045	497807	keystroke_s	s	n/a
249.083	0.135	498166	keystroke_t	t	n/a
249.188	0.12	498376	keystroke_a	a	n/a
249.278	0.105	498556	keystroke_n	n	n/a
249.398	0.105	498796	keystroke_t	t	n/a
249.518	0.12	499036	keystroke_Key.space	Key.space	n/a
249.713	0.135	499426	keystroke_g	g	n/a
249.893	0.075	499786	keystroke_u	u	n/a
249.983	0.105	499966	keystroke_a	a	n/a
250.133	0.0895	500266	keystroke_r	r	n/a
250.3125	0.165	500625	keystroke_d	d	n/a
250.4325	0.12	500865	keystroke_s	s	n/a
250.6275	0.105	501255	keystroke_Key.space	Key.space	n/a
250.7475	0.09	501495	keystroke_t	t	n/a
250.8385	0.074	501677	keystroke_o	o	n/a
250.9285	0.09	501857	keystroke_w	w	n/a
251.0025	0.12	502005	keystroke_a	a	n/a
251.1075	0.105	502215	keystroke_r	r	n/a
251.3185	0.164	502637	keystroke_d	d	n/a
251.6625	0.105	503325	keystroke_Key.space	Key.space	n/a
251.9025	0.09	503805	keystroke_o	o	n/a
252.0225	0.061	504045	keystroke_c	c	n/a
252.1425	0.091	504285	keystroke_c	c	n/a
252.2625	0.105	504525	keystroke_u	u	n/a
252.5175	0.075	505035	keystroke_p	p	n/a
252.6675	0.076	505335	keystroke_i	i	n/a
252.8925	0.09	505785	keystroke_e	e	n/a
253.088	0.075	506176	keystroke_d	d	n/a
253.463	0.06	506926	keystroke_Key.enter	Key.enter	n/a
253.5285	6.9715	507057	prompt	n/a	databases lifetime corporations axis\n
254.078	0.105	508156	keystroke_d	d	n/a
254.228	0.105	508456	keystroke_a	a	n/a
254.303	0.15	508606	keystroke_t	t	n/a
254.408	0.12	508816	keystroke_a	a	n/a
254.753	0.015	509506	keystroke_b	b	n/a
254.843	0.105	509686	keystroke_a	a	n/a
255.368	0.06	510736	keystroke_s	s	n/a
255.533	0.105	511066	keystroke_e	e	n/a
255.623	0.15	511246	keystroke_s	s	n/a
255.7875	0.09	511575	keystroke_Key.space	Key.space	n/a
255.9525	0.06	511905	keystroke_l	l	n/a
256.0875	0.105	512175	keystroke_i	i	n/a
256.1475	0.075	512295	keystroke_f	f	n/a
256.1775	0.09	512355	keystroke_e	e	n/a
256.3275	0.105	512655	keystroke_t	t	n/a
256.3875	0.12	512775	keystroke_i	i	n/a
256.4475	0.1055	512895	keystroke_m	m	n/a
256.523	0.12	513046	keystroke_e	e	n/a
256.658	0.105	513316	keystroke_Key.space	Key.space	n/a
256.883	0.1205	513766	keystroke_c	c	n/a
256.958	0.075	513916	keystroke_o	o	n/a
257.168	0.09	514336	keystroke_r	r	n/a
257.393	0.09	514786	keystroke_p	p	n/a
257.543	0.075	515086	keystroke_o	o	n/a
258.0525	0.105	516105	keystroke_r	r	n/a
258.2175	0.12	516435	keystroke_a	a	n/a
258.3075	0.135	516615	keystroke_t	t	n/a
258.4575	0.075	516915	keystroke_i	i	n/a
258.5925	0.0755	517185	keystroke_o	o	n/a
258.6225	0.0755	517245	keystroke_n	n	n/a
258.773	0.075	517546	keystroke_Key.space	Key.space	n/a
258.908	0.075	517816	keystroke_s	s	n/a
259.133	0.06	518266	keystroke_a	a	n/a
259.283	0.09	518566	keystroke_Key.backspace	Key.backspace	n/a
259.418	0.09	518836	keystroke_Key.backspace	Key.backspace	n/a
259.643	0.09	519286	keystroke_a	a	n/a
259.883	0.135	519766	keystroke_x	x	n/a
260.033	0.075	520066	keystroke_i	i	n/a
260.183	0.105	520366	keystroke_s	s	n/a
260.408	0.09	520816	keystroke_Key.enter	Key.enter	n/a
260.5045	7.315	521009	prompt	n/a	only engineer strikes obesity\n
261.083	0.135	522166	keystroke_o	o	n/a
261.173	0.075	522346	keystroke_n	n	n/a
261.308	0.105	522616	keystroke_l	l	n/a
261.428	0.06	522856	keystroke_y	y	n/a
261.548	0.105	523096	keystroke_Key.space	Key.space	n/a
261.668	0.09	523336	keystroke_e	e	n/a
261.773	0.09	523546	keystroke_n	n	n/a
261.893	0.09	523786	keystroke_g	g	n/a
261.998	0.0895	523996	keystroke_i	i	n/a
262.043	0.0895	524086	keystroke_n	n	n/a
262.1925	0.075	524385	keystroke_e	e	n/a
262.3425	0.105	524685	keystroke_e	e	n/a
262.4175	0.12	524835	keystroke_r	r	n/a
262.793	0.09	525586	keystroke_Key.space	Key.space	n/a
263.138	0.165	526276	keystroke_s	s	n/a
263.273	0.15	526546	keystroke_t	t	n/a
263.438	0.03	526876	keystroke_i	i	n/a
263.8135	0.074	527627	keystroke_Key.backspace	Key.backspace	n/a
263.9185	0.12	527837	keystroke_r	r	n/a
264.0385	0.06	528077	keystroke_i	i	n/a
264.1585	0.089	528317	keystroke_k	k	n/a
264.2775	0.091	528555	keystroke_e	e	n/a
264.578	0.015	529156	keystroke_s	s	n/a
264.608	0.06	529216	keystroke_Key.space	Key.space	n/a
264.7585	0.059	529517	keystroke_o	o	n/a
264.8625	0.075	529725	keystroke_b	b	n/a
264.9975	0.091	529995	keystroke_j	j	n/a
265.0725	0.135	530145	keystroke_e	e	n/a
265.1635	0.104	530327	keystroke_c	c	n/a
265.5075	0.045	531015	keystroke_Key.backspace	Key.backspace	n/a
265.6275	0.0755	531255	keystroke_Key.backspace	Key.backspace	n/a
265.748	0.09	531496	keystroke_Key.backspace	Key.backspace	n/a
265.883	0.105	531766	keystroke_s	s	n/a
266.528	0.045	533056	keystroke_Key.backspace	Key.backspace	n/a
266.603	0.105	533206	keystroke_e	e	n/a
266.858	0.105	533716	keystroke_s	s	n/a
266.993	0.075	533986	keystroke_i	i	n/a
267.113	0.09	534226	keystroke_t	t	n/a
267.308	0.075	534616	keystroke_y	y	n/a
267.728	0.09	535456	keystroke_Key.enter	Key.enter	n/a
267.8255	6.459	535651	prompt	n/a	hash vulnerable advised colors\n
268.583	0.075	537166	keystroke_h	h	n/a
268.733	0.135	537466	keystroke_a	a	n/a
268.838	0.09	537676	keystroke_s	s	n/a
268.988	0.09	537976	keystroke_h	h	n/a
269.633	0.045	539266	keystroke_Key.space	Key.space	n/a
269.693	0.1055	539386	keystroke_v	v	n/a
269.9785	0.075	539957	keystroke_u	u	n/a
270.2485	0.06	540497	keystroke_l	l	n/a
270.4285	0.075	540857	keystroke_n	n	n/a
270.5185	0.09	541037	keystroke_e	e	n/a
270.5785	0.135	541157	keystroke_r	r	n/a
270.6985	0.12	541397	keystroke_a	a	n/a
270.9685	0.105	541937	keystroke_b	b	n/a
271.0885	0.075	542177	keystroke_l	l	n/a
271.2085	0.09	542417	keystroke_e	e	n/a
271.5685	0.105	543137	keystroke_Key.space	Key.space	n/a
271.7185	0.1345	543437	keystroke_a	a	n/a
271.838	0.135	543676	keystroke_d	d	n/a
272.093	0.09	544186	keystroke_v	v	n/a
272.213	0.075	544426	keystroke_i	i	n/a
272.333	0.15	544666	keystroke_s	s	n/a
272.468	0.105	544936	keystroke_e	e	n/a
272.633	0.12	545266	keystroke_d	d	n/a
272.738	0.105	545476	keystroke_Key.space	Key.space	n/a
272.828	0.105	545656	keystroke_c	c	n/a
272.948	0.06	545896	keystroke_o	o	n/a
273.068	0.075	546136	keystroke_l	l	n/a
273.203	0.075	546406	keystroke_o	o	n/a
273.293	0.135	546586	keystroke_r	r	n/a
273.398	0.105	546796	keystroke_s	s	n/a
274.2075	0.075	548415	keystroke_Key.enter	Key.enter	n/a
274.2885	6.281	548577	prompt	n/a	debt heart suse winston\n
274.9575	0.045	549915	keystroke_d	d	n/a
275.0775	0.076	550155	keystroke_e	e	n/a
275.2575	0.075	550515	keystroke_b	b	n/a
275.4225	0.09	550845	keystroke_t	t	n/a
275.5575	0.075	551115	keystroke_Key.space	Key.space	n/a
275.7525	0.09	551505	keystroke_h	h	n/a
275.8125	0.12	551625	keystroke_e	e	n/a
275.9485	0.104	551897	keystroke_a	a	n/a
276.0975	0.105	552195	keystroke_r	r	n/a
276.1585	0.134	552317	keystroke_t	t	n/a
276.3375	0.09	552675	keystroke_Key.space	Key.space	n/a
276.5325	0.105	553065	keystroke_s	s	n/a
276.6225	0.09	553245	keystroke_u	u	n/a
276.7425	0.135	553485	keystroke_s	s	n/a
276.8625	0.105	553725	keystroke_e	e	n/a
277.2525	0.09	554505	keystroke_Key.space	Key.space	n/a
277.5375	0.0905	555075	keystroke_w	w	n/a
277.5975	0.1205	555195	keystroke_i	i	n/a
277.658	0.075	555316	keystroke_n	n	n/a
277.778	0.135	555556	keystroke_s	s	n/a
278.333	0.12	556666	keystroke_t	t	n/a
278.438	0.1345	556876	keystroke_o	o	n/a
278.528	0.105	557056	keystroke_n	n	n/a
280.5075	0.06	561015	keystroke_Key.enter	Key.enter	n/a
280.5765	10.508	561153	prompt	n/a	telecom varying satellite successfully\n
281.1675	0.105	562335	keystroke_t	t	n/a
281.2425	0.12	562485	keystroke_e	e	n/a
281.3475	0.09	562695	keystroke_l	l	n/a
281.4225	0.09	562845	keystroke_e	e	n/a
281.6175	0.105	563235	keystroke_c	c	n/a
281.6925	0.135	563385	keystroke_o	o	n/a
281.7525	0.105	563505	keystroke_m	m	n/a
282.0825	0.105	564165	keystroke_Key.space	Key.space	n/a
282.2775	0.1355	564555	keystroke_v	v	n/a
282.383	0.135	564766	keystroke_a	a	n/a
282.503	0.15	565006	keystroke_r	r	n/a
282.638	0.06	565276	keystroke_y	y	n/a
282.713	0.12	565426	keystroke_i	i	n/a
282.743	0.135	565486	keystroke_n	n	n/a
282.848	0.105	565696	keystroke_g	g	n/a
283.178	0.105	566356	keystroke_Key.space	Key.space	n/a
283.523	0.105	567046	keystroke_s	s	n/a
283.613	0.1205	567226	keystroke_t	t	n/a
283.7185	0.1195	567437	keystroke_a	a	n/a
284.1085	0.0745	568217	keystroke_Key.backspace	Key.backspace	n/a
284.258	0.06	568516	keystroke_Key.backspace	Key.backspace	n/a
284.408	0.09	568816	keystroke_a	a	n/a
284.648	0.12	569296	keystroke_t	t	n/a
284.723	0.12	569446	keystroke_e	e	n/a
285.053	0.075	570106	keystroke_l	l	n/a
285.9835	0.089	571967	keystroke_l	l	n/a
286.1475	0.09	572295	keystroke_i	i	n/a
286.2535	0.134	572507	keystroke_t	t	n/a
286.3275	0.135	572655	keystroke_e	e	n/a
286.5225	0.105	573045	keystroke_Key.space	Key.space	n/a
286.7175	0.12	573435	keystroke_s	s	n/a
286.8385	0.074	573677	keystroke_u	u	n/a
286.9725	0.09	573945	keystroke_c	c	n/a
287.1525	0.09	574305	keystroke_c	c	n/a
287.2575	0.105	574515	keystroke_e	e	n/a
287.4075	0.105	574815	keystroke_s	s	n/a
287.5575	0.09	575115	keystroke_f	f	n/a
287.6925	0.105	575385	keystroke_f	f	n/a
287.8575	0.075	575715	keystroke_u	u	n/a
288.0675	0.09	576135	keystroke_l	l	n/a
288.2775	0.09	576555	keystroke_y	y	n/a
289.388	0.0745	578776	keystroke_Key.backspace	Key.backspace	n/a
289.5525	0.075	579105	keystroke_Key.backspace	Key.backspace	n/a
289.6875	0.075	579375	keystroke_Key.backspace	Key.backspace	n/a
289.853	0.06	579706	keystroke_Key.backspace	Key.backspace	n/a
290.423	0.074	580846	keystroke_u	u	n/a
290.618	0.045	581236	keystroke_l	l	n/a
290.7235	0.0895	581447	keystroke_l	l	n/a
290.828	0.075	581656	keystroke_y	y	n/a
291.0085	0.075	582017	keystroke_Key.enter	Key.enter	n/a
291.0875	6.267	582175	prompt	n/a	crash newspaper expensive sheffield\n
291.803	0.12	583606	keystroke_c	c	n/a
291.998	0.09	583996	keystroke_r	r	n/a
292.148	0.12	584296	keystroke_a	a	n/a
292.208	0.1505	584416	keystroke_s	s	n/a
292.283	0.06	584566	keystroke_h	h	n/a
292.4625	0.06	584925	keystroke_Key.space	Key.space	n/a
292.5685	0.09	585137	keystroke_n	n	n/a
292.6725	0.135	585345	keystroke_e	e	n/a
292.7185	0.105	585437	keystroke_w	w	n/a
292.9125	0.106	585825	keystroke_s	s	n/a
293.0625	0.105	586125	keystroke_p	p	n/a
293.2735	0.105	586547	keystroke_a	a	n/a
293.3485	0.075	586697	keystroke_p	p	n/a
293.4685	0.105	586937	keystroke_e	e	n/a
293.5285	0.12	587057	keystroke_r	r	n/a
293.693	0.09	587386	keystroke_Key.space	Key.space	n/a
294.0835	0.09	588167	keystroke_e	e	n/a
294.2925	0.075	588585	keystroke_x	x	n/a
294.3825	0.06	588765	keystroke_p	p	n/a
294.4735	0.074	588947	keystroke_e	e	n/a
294.5635	0.074	589127	keystroke_n	n	n/a
294.6525	0.09	589305	keystroke_s	s	n/a
294.7435	0.059	589487	keystroke_i	i	n/a
294.8325	0.09	589665	keystroke_v	v	n/a
294.9375	0.076	589875	keystroke_e	e	n/a
295.0425	0.075	590085	keystroke_Key.space	Key.space	n/a
295.6135	0.2395	591227	keystroke_s	s	n/a
295.838	0.03	591676	keystroke_h	h	n/a
295.883	0.06	591766	keystroke_e	e	n/a
296.108	0.105	592216	keystroke_f	f	n/a
296.288	0.1045	592576	keystroke_f	f	n/a
296.4825	0.09	592965	keystroke_i	i	n/a
296.5875	0.091	593175	keystroke_e	e	n/a
296.7085	0.0895	593417	keystroke_l	l	n/a
296.798	0.105	593596	keystroke_d	d	n/a
297.2625	0.091	594525	keystroke_Key.enter	Key.enter	n/a
297.3575	8.142	594715	prompt	n/a	britannica sodium but right\n
297.9525	0.09	595905	keystroke_b	b	n/a
298.1175	0.105	596235	keystroke_r	r	n/a
298.2975	0.09	596595	keystroke_i	i	n/a
298.4475	0.0905	596895	keystroke_t	t	n/a
299.6625	0.0755	599325	keystroke_a	a	n/a
299.753	0.045	599506	keystroke_n	n	n/a
299.858	0.09	599716	keystroke_n	n	n/a
300.0085	0.075	600017	keystroke_i	i	n/a
300.1135	0.105	600227	keystroke_c	c	n/a
300.1585	0.135	600317	keystroke_a	a	n/a
300.3975	0.09	600795	keystroke_Key.space	Key.space	n/a
300.5635	0.12	601127	keystroke_s	s	n/a
300.6535	0.059	601307	keystroke_o	o	n/a
300.758	0.105	601516	keystroke_d	d	n/a
301.283	0.09	602566	keystroke_i	i	n/a
301.448	0.09	602896	keystroke_u	u	n/a
301.643	0.0905	603286	keystroke_m	m	n/a
302.1225	0.09	604245	keystroke_Key.space	Key.space	n/a
302.3635	0.105	604727	keystroke_b	b	n/a
302.4825	0.0605	604965	keystroke_u	u	n/a
302.5575	0.091	605115	keystroke_t	t	n/a
302.6625	0.09	605325	keystroke_Key.space	Key.space	n/a
302.7675	0.075	605535	keystroke_r	r	n/a
302.8585	0.059	605717	keystroke_i	i	n/a
302.9625	0.091	605925	keystroke_g	g	n/a
303.0235	0.12	606047	keystroke_h	h	n/a
303.1285	0.105	606257	keystroke_t	t	n/a
305.44	0.058	610880	keystroke_Key.enter	Key.enter	n/a
305.503	8.6965	611006	prompt	n/a	depending there'll minolta heather\n
306.008	0.06	612016	keystroke_d	d	n/a
306.158	0.0905	612316	keystroke_e	e	n/a
306.2335	0.075	612467	keystroke_p	p	n/a
306.3235	0.09	612647	keystroke_e	e	n/a
306.4275	0.076	612855	keystroke_n	n	n/a
306.5185	0.075	613037	keystroke_d	d	n/a
306.5785	0.119	613157	keystroke_i	i	n/a
306.6235	0.105	613247	keystroke_n	n	n/a
306.6825	0.09	613365	keystroke_g	g	n/a
306.8175	0.1055	613635	keystroke_Key.space	Key.space	n/a
307.088	0.12	614176	keystroke_t	t	n/a
307.148	0.105	614296	keystroke_h	h	n/a
307.298	0.105	614596	keystroke_e	e	n/a
307.373	0.165	614746	keystroke_r	r	n/a
307.523	0.06	615046	keystroke_e	e	n/a
307.853	0.09	615706	keystroke_'	'	n/a
308.198	0.09	616396	keystroke_l	l	n/a
308.348	0.105	616696	keystroke_l	l	n/a
308.648	0.075	617296	keystroke_Key.space	Key.space	n/a
308.888	0.075	617776	keystroke_m	m	n/a
309.203	0.105	618406	keystroke_i	i	n/a
309.293	0.1045	618586	keystroke_n	n	n/a
309.5485	0.104	619097	keystroke_o	o	n/a
309.7575	0.09	619515	keystroke_l	l	n/a
309.8775	0.15	619755	keystroke_t	t	n/a
309.9675	0.135	619935	keystroke_a	a	n/a
310.4025	0.09	620805	keystroke_Key.space	Key.space	n/a
310.7025	0.09	621405	keystroke_h	h	n/a
310.8675	0.105	621735	keystroke_e	e	n/a
311.0025	0.105	622005	keystroke_a	a	n/a
311.2125	0.135	622425	keystroke_t	t	n/a
311.5725	0.0905	623145	keystroke_Key.backspace	Key.backspace	n/a
312.323	0.135	624646	keystroke_t	t	n/a
312.383	0.09	624766	keystroke_h	h	n/a
312.8925	0.1655	625785	keystroke_e	e	n/a
312.9675	0.121	625935	keystroke_r	r	n/a
314.1085	0.09	628217	keystroke_Key.enter	Key.enter	n/a
314.203	6.2815	628406	prompt	n/a	ipod evaluation refugees watching\n
314.8725	0.105	629745	keystroke_i	i	n/a
315.0825	0.075	630165	keystroke_p	p	n/a
315.2175	0.105	630435	keystroke_o	o	n/a
315.3375	0.105	630675	keystroke_d	d	n/a
315.4575	0.0905	630915	keystroke_Key.space	Key.space	n/a
315.623	0.09	631246	keystroke_e	e	n/a
315.8635	0.09	631727	keystroke_v	v	n/a
315.9985	0.12	631997	keystroke_a	a	n/a
316.2535	0.09	632507	keystroke_l	l	n/a
316.4485	0.075	632897	keystroke_u	u	n/a
316.583	0.09	633166	keystroke_a	a	n/a
316.658	0.135	633316	keystroke_t	t	n/a
316.763	0.075	633526	keystroke_i	i	n/a
316.883	0.09	633766	keystroke_o	o	n/a
316.928	0.105	633856	keystroke_n	n	n/a
317.1075	0.075	634215	keystroke_Key.space	Key.space	n/a
317.4525	0.15	634905	keystroke_r	r	n/a
317.5275	0.09	635055	keystroke_e	e	n/a
317.6925	0.135	635385	keystroke_f	f	n/a
317.8425	0.09	635685	keystroke_u	u	n/a
317.9775	0.12	635955	keystroke_s	s	n/a
318.3075	0.0755	636615	keystroke_Key.backspace	Key.backspace	n/a
318.398	0.075	636796	keystroke_g	g	n/a
318.5325	0.09	637065	keystroke_e	e	n/a
318.6825	0.121	637365	keystroke_e	e	n/a
318.8925	0.105	637785	keystroke_s	s	n/a
319.1625	0.0755	638325	keystroke_Key.space	Key.space	n/a
319.343	0.1195	638686	keystroke_w	w	n/a
319.4475	0.135	638895	keystroke_a	a	n/a
319.5675	0.105	639135	keystroke_t	t	n/a
319.7775	0.105	639555	keystroke_c	c	n/a
319.8225	0.09	639645	keystroke_h	h	n/a
319.9275	0.135	639855	keystroke_i	i	n/a
319.9875	0.105	639975	keystroke_n	n	n/a
320.0775	0.09	640155	keystroke_g	g	n/a
320.3775	0.105	640755	keystroke_Key.enter	Key.enter	n/a
320.4885	7.166	640977	prompt	n/a	officer forgotten juvenile superb\n
321.083	0.09	642166	keystroke_o	o	n/a
321.218	0.075	642436	keystroke_f	f	n/a
321.353	0.09	642706	keystroke_f	f	n/a
321.443	0.075	642886	keystroke_i	i	n/a
321.533	0.135	643066	keystroke_c	c	n/a
321.638	0.135	643276	keystroke_e	e	n/a
321.728	0.135	643456	keystroke_r	r	n/a
322.058	0.105	644116	keystroke_Key.space	Key.space	n/a
322.178	0.15	644356	keystroke_f	f	n/a
322.283	0.09	644566	keystroke_o	o	n/a
322.388	0.105	644776	keystroke_r	r	n/a
322.553	0.135	645106	keystroke_g	g	n/a
322.958	0.075	645916	keystroke_o	o	n/a
323.093	0.09	646186	keystroke_t	t	n/a
323.258	0.135	646516	keystroke_t	t	n/a
323.378	0.12	646756	keystroke_e	e	n/a
323.528	0.09	647056	keystroke_n	n	n/a
323.693	0.09	647386	keystroke_Key.space	Key.space	n/a
323.9475	0.075	647895	keystroke_j	j	n/a
324.1125	0.09	648225	keystroke_u	u	n/a
324.3825	0.12	648765	keystroke_v	v	n/a
324.4125	0.135	648825	keystroke_e	e	n/a
324.8325	0.045	649665	keystroke_l	l	n/a
324.9825	0.045	649965	keystroke_i	i	n/a
325.2525	0.06	650505	keystroke_Key.backspace	Key.backspace	n/a
325.4025	0.06	650805	keystroke_Key.backspace	Key.backspace	n/a
325.7175	0.076	651435	keystroke_n	n	n/a
325.7625	0.106	651525	keystroke_i	i	n/a
325.9275	0.105	651855	keystroke_l	l	n/a
326.0335	0.119	652067	keystroke_e	e	n/a
326.3775	0.09	652755	keystroke_Key.space	Key.space	n/a
326.4825	0.1055	652965	keystroke_s	s	n/a
326.603	0.075	653206	keystroke_u	u	n/a
326.813	0.075	653626	keystroke_p	p	n/a
326.873	0.12	653746	keystroke_e	e	n/a
326.933	0.12	653866	keystroke_r	r	n/a
327.158	0.12	654316	keystroke_b	b	n/a
327.578	0.075	655156	keystroke_Key.enter	Key.enter	n/a
327.66	6.5045	655320	prompt	n/a	suburban sons careers reservation\n
328.268	0.09	656536	keystroke_s	s	n/a
328.6275	0.09	657255	keystroke_u	u	n/a
328.7475	0.105	657495	keystroke_b	b	n/a
329.0325	0.0755	658065	keystroke_u	u	n/a
329.1225	0.1055	658245	keystroke_r	r	n/a
329.4975	0.075	658995	keystroke_b	b	n/a
329.6175	0.18	659235	keystroke_a	a	n/a
329.7525	0.06	659505	keystroke_n	n	n/a
329.9025	0.075	659805	keystroke_Key.space	Key.space	n/a
330.0075	0.135	660015	keystroke_s	s	n/a
330.1125	0.12	660225	keystroke_o	o	n/a
330.173	0.1045	660346	keystroke_n	n	n/a
330.2925	0.105	660585	keystroke_s	s	n/a
330.4725	0.121	660945	keystroke_Key.space	Key.space	n/a
330.6535	0.135	661307	keystroke_c	c	n/a
330.7725	0.12	661545	keystroke_a	a	n/a
330.9375	0.121	661875	keystroke_r	r	n/a
331.0885	0.09	662177	keystroke_e	e	n/a
331.2535	0.135	662507	keystroke_e	e	n/a
331.3735	0.105	662747	keystroke_r	r	n/a
331.748	0.015	663496	keystroke_Key.space	Key.space	n/a
332.0475	0.075	664095	keystroke_Key.backspace	Key.backspace	n/a
332.1375	0.09	664275	keystroke_s	s	n/a
332.3175	0.075	664635	keystroke_Key.space	Key.space	n/a
332.4075	0.105	664815	keystroke_r	r	n/a
332.4825	0.09	664965	keystroke_e	e	n/a
332.6925	0.09	665385	keystroke_s	s	n/a
332.8575	0.09	665715	keystroke_e	e	n/a
332.8875	0.12	665775	keystroke_r	r	n/a
333.1125	0.105	666225	keystroke_v	v	n/a
333.2475	0.12	666495	keystroke_a	a	n/a
333.4125	0.0755	666825	keystroke_t	t	n/a
333.503	0.105	667006	keystroke_i	i	n/a
333.653	0.1195	667306	keystroke_o	o	n/a
333.7275	0.09	667455	keystroke_n	n	n/a
334.0725	0.09	668145	keystroke_Key.enter	Key.enter	n/a
334.1695	10.135	668339	prompt	n/a	christianity steal states underlying\n
334.7775	0.2405	669555	keystroke_c	c	n/a
335.003	0.03	670006	keystroke_h	h	n/a
335.048	0.06	670096	keystroke_r	r	n/a
335.153	0.09	670306	keystroke_i	i	n/a
335.318	0.1345	670636	keystroke_s	s	n/a
335.4375	0.135	670875	keystroke_t	t	n/a
335.6775	0.09	671355	keystroke_i	i	n/a
335.8425	0.12	671685	keystroke_a	a	n/a
336.323	0.075	672646	keystroke_n	n	n/a
336.5325	0.06	673065	keystroke_i	i	n/a
336.6525	0.15	673305	keystroke_t	t	n/a
336.7725	0.0755	673545	keystroke_y	y	n/a
336.923	0.075	673846	keystroke_Key.space	Key.space	n/a
337.058	0.12	674116	keystroke_s	s	n/a
337.163	0.12	674326	keystroke_t	t	n/a
337.238	0.09	674476	keystroke_e	e	n/a
337.343	0.105	674686	keystroke_a	a	n/a
337.5985	0.075	675197	keystroke_l	l	n/a
338.093	0.09	676186	keystroke_Key.space	Key.space	n/a
338.198	0.135	676396	keystroke_s	s	n/a
338.303	0.12	676606	keystroke_t	t	n/a
338.378	0.135	676756	keystroke_a	a	n/a
338.498	0.165	676996	keystroke_t	t	n/a
338.6335	0.09	677267	keystroke_e	e	n/a
338.828	0.105	677656	keystroke_s	s	n/a
338.978	0.105	677956	keystroke_Key.space	Key.space	n/a
339.203	0.105	678406	keystroke_u	u	n/a
339.263	0.09	678526	keystroke_n	n	n/a
339.323	0.0905	678646	keystroke_d	d	n/a
339.473	0.105	678946	keystroke_e	e	n/a
339.548	0.135	679096	keystroke_r	r	n/a
339.638	0.075	679276	keystroke_l	l	n/a
339.773	0.105	679546	keystroke_i	i	n/a
339.818	0.09	679636	keystroke_n	n	n/a
339.923	0.09	679846	keystroke_g	g	n/a
340.223	0.0745	680446	keystroke_Key.backspace	Key.backspace	n/a
340.3575	0.09	680715	keystroke_Key.backspace	Key.backspace	n/a
340.5075	0.075	681015	keystroke_Key.backspace	Key.backspace	n/a
341.0025	0.09	682005	keystroke_y	y	n/a
341.1075	0.12	682215	keystroke_i	i	n/a
341.1675	0.105	682335	keystroke_n	n	n/a
341.3175	0.075	682635	keystroke_g	g	n/a
344.2745	0.028	688549	keystroke_Key.enter	Key.enter	n/a
344.308	9.1315	688616	prompt	n/a	written bucks acrylic decided\n
344.9625	0.03	689925	keystroke_w	w	n/a
344.9775	0.075	689955	keystroke_r	r	n/a
345.0675	0.06	690135	keystroke_i	i	n/a
345.1725	0.09	690345	keystroke_t	t	n/a
345.2925	0.15	690585	keystroke_t	t	n/a
345.4125	0.135	690825	keystroke_e	e	n/a
345.5625	0.09	691125	keystroke_n	n	n/a
345.7275	0.09	691455	keystroke_Key.space	Key.space	n/a
345.8625	0.09	691725	keystroke_b	b	n/a
345.9825	0.075	691965	keystroke_u	u	n/a
346.0875	0.09	692175	keystroke_c	c	n/a
346.1625	0.09	692325	keystroke_k	k	n/a
346.2675	0.105	692535	keystroke_s	s	n/a
346.4475	0.0905	692895	keystroke_Key.space	Key.space	n/a
346.658	0.075	693316	keystroke_a	a	n/a
346.973	0.06	693946	keystroke_x	x	n/a
347.3625	0.075	694725	keystroke_Key.backspace	Key.backspace	n/a
347.4525	0.09	694905	keystroke_c	c	n/a
347.6775	0.105	695355	keystroke_y	y	n/a
349.5225	0.09	699045	keystroke_Key.backspace	Key.backspace	n/a
349.6425	0.09	699285	keystroke_r	r	n/a
350.213	0.0745	700426	keystroke_y	y	n/a
350.5135	0.1195	701027	keystroke_l	l	n/a
350.678	0.105	701356	keystroke_i	i	n/a
350.768	0.104	701536	keystroke_c	c	n/a
350.888	0.1055	701776	keystroke_Key.space	Key.space	n/a
350.9785	0.09	701957	keystroke_d	d	n/a
351.1285	0.09	702257	keystroke_e	e	n/a
351.3085	0.09	702617	keystroke_c	c	n/a
351.5185	0.06	703037	keystroke_i	i	n/a
351.6235	0.09	703247	keystroke_d	d	n/a
351.7875	0.061	703575	keystroke_e	e	n/a
351.9535	0.075	703907	keystroke_d	d	n/a
353.348	0.09	706696	keystroke_Key.enter	Key.enter	n/a
353.4465	8.6175	706893	prompt	n/a	periodically competition flickr forever\n
354.323	0.12	708646	keystroke_p	p	n/a
354.458	0.12	708916	keystroke_e	e	n/a
354.503	0.15	709006	keystroke_r	r	n/a
354.638	0.075	709276	keystroke_i	i	n/a
354.7575	0.09	709515	keystroke_o	o	n/a
354.923	0.1045	709846	keystroke_d	d	n/a
355.4475	0.09	710895	keystroke_i	i	n/a
355.6435	0.1195	711287	keystroke_c	c	n/a
355.793	0.15	711586	keystroke_a	a	n/a
355.958	0.21	711916	keystroke_l	l	n/a
356.438	0.075	712876	keystroke_l	l	n/a
356.558	0.105	713116	keystroke_y	y	n/a
356.753	0.105	713506	keystroke_Key.space	Key.space	n/a
357.278	0.135	714556	keystroke_c	c	n/a
357.338	0.105	714676	keystroke_o	o	n/a
357.398	0.075	714796	keystroke_m	m	n/a
357.563	0.075	715126	keystroke_p	p	n/a
357.998	0.1045	715996	keystroke_e	e	n/a
358.1175	0.135	716235	keystroke_t	t	n/a
358.3875	0.09	716775	keystroke_i	i	n/a
358.5075	0.12	717015	keystroke_t	t	n/a
358.6125	0.06	717225	keystroke_i	i	n/a
358.7325	0.105	717465	keystroke_o	o	n/a
358.7925	0.09	717585	keystroke_n	n	n/a
359.618	0.105	719236	keystroke_Key.space	Key.space	n/a
359.843	0.12	719686	keystroke_f	f	n/a
359.948	0.075	719896	keystroke_l	l	n/a
360.113	0.06	720226	keystroke_i	i	n/a
360.203	0.135	720406	keystroke_c	c	n/a
360.488	0.075	720976	keystroke_k	k	n/a
360.653	0.075	721306	keystroke_r	r	n/a
360.802	0.09	721604	keystroke_Key.space	Key.space	n/a
360.923	0.135	721846	keystroke_f	f	n/a
361.042	0.076	722084	keystroke_o	o	n/a
361.1325	0.0905	722265	keystroke_r	r	n/a
361.313	0.089	722626	keystroke_e	e	n/a
361.433	0.12	722866	keystroke_v	v	n/a
361.523	0.1045	723046	keystroke_e	e	n/a
361.583	0.1205	723166	keystroke_r	r	n/a
361.988	0.075	723976	keystroke_Key.enter	Key.enter	n/a
362.0685	6.2055	724137	prompt	n/a	advertise breaks mailed recruitment\n
362.7525	0.135	725505	keystroke_a	a	n/a
362.8725	0.105	725745	keystroke_d	d	n/a
363.0975	0.09	726195	keystroke_v	v	n/a
363.2325	0.12	726465	keystroke_e	e	n/a
363.3075	0.105	726615	keystroke_r	r	n/a
363.3975	0.12	726795	keystroke_t	t	n/a
363.5475	0.075	727095	keystroke_i	i	n/a
363.6525	0.1205	727305	keystroke_s	s	n/a
363.7425	0.1205	727485	keystroke_e	e	n/a
363.863	0.09	727726	keystroke_Key.space	Key.space	n/a
364.073	0.075	728146	keystroke_b	b	n/a
364.313	0.12	728626	keystroke_r	r	n/a
364.373	0.075	728746	keystroke_e	e	n/a
364.493	0.1045	728986	keystroke_a	a	n/a
364.6275	0.09	729255	keystroke_k	k	n/a
364.7475	0.09	729495	keystroke_s	s	n/a
365.4375	0.12	730875	keystroke_Key.space	Key.space	n/a
365.6925	0.12	731385	keystroke_m	m	n/a
365.9025	0.105	731805	keystroke_a	a	n/a
366.0225	0.075	732045	keystroke_i	i	n/a
366.1875	0.075	732375	keystroke_l	l	n/a
366.2475	0.075	732495	keystroke_e	e	n/a
366.3975	0.12	732795	keystroke_d	d	n/a
366.5025	0.075	733005	keystroke_Key.space	Key.space	n/a
366.622	0.12	733244	keystroke_r	r	n/a
366.697	0.0755	733394	keystroke_e	e	n/a
366.8775	0.1045	733755	keystroke_c	c	n/a
366.997	0.1055	733994	keystroke_r	r	n/a
367.1175	0.076	734235	keystroke_u	u	n/a
367.2385	0.089	734477	keystroke_i	i	n/a
367.3725	0.0905	734745	keystroke_t	t	n/a
367.478	0.0895	734956	keystroke_m	m	n/a
367.5825	0.06	735165	keystroke_e	e	n/a
367.6275	0.075	735255	keystroke_n	n	n/a
367.7625	0.075	735525	keystroke_t	t	n/a
368.2135	0.059	736427	keystroke_Key.enter	Key.enter	n/a
368.2765	5.9975	736553	prompt	n/a	essay previously useful purchase\n
368.933	0.075	737866	keystroke_e	e	n/a
369.053	0.12	738106	keystroke_s	s	n/a
369.218	0.15	738436	keystroke_s	s	n/a
369.323	0.12	738646	keystroke_a	a	n/a
369.5035	0.074	739007	keystroke_y	y	n/a
369.6075	0.075	739215	keystroke_Key.space	Key.space	n/a
369.8025	0.075	739605	keystroke_p	p	n/a
370.1185	0.134	740237	keystroke_r	r	n/a
370.1925	0.0905	740385	keystroke_e	e	n/a
370.448	0.075	740896	keystroke_i	i	n/a
370.7325	0.09	741465	keystroke_Key.backspace	Key.backspace	n/a
370.8235	0.119	741647	keystroke_v	v	n/a
370.9575	0.06	741915	keystroke_i	i	n/a
371.0925	0.06	742185	keystroke_o	o	n/a
371.2275	0.075	742455	keystroke_u	u	n/a
371.3325	0.12	742665	keystroke_s	s	n/a
371.4075	0.09	742815	keystroke_l	l	n/a
371.5575	0.09	743115	keystroke_y	y	n/a
371.6625	0.09	743325	keystroke_Key.space	Key.space	n/a
371.8425	0.06	743685	keystroke_u	u	n/a
371.9035	0.119	743807	keystroke_s	s	n/a
371.9775	0.075	743955	keystroke_e	e	n/a
372.1425	0.09	744285	keystroke_f	f	n/a
372.3525	0.075	744705	keystroke_u	u	n/a
372.548	0.09	745096	keystroke_l	l	n/a
372.728	0.075	745456	keystroke_Key.space	Key.space	n/a
372.9975	0.075	745995	keystroke_p	p	n/a
373.1925	0.105	746385	keystroke_u	u	n/a
373.3125	0.06	746625	keystroke_r	r	n/a
373.4475	0.12	746895	keystroke_c	c	n/a
373.5375	0.075	747075	keystroke_h	h	n/a
373.6425	0.12	747285	keystroke_a	a	n/a
373.7175	0.1205	747435	keystroke_s	s	n/a
373.778	0.12	747556	keystroke_e	e	n/a
374.198	0.075	748396	keystroke_Key.enter	Key.enter	n/a
374.2765	5.188	748553	prompt	n/a	puzzles almost parks selected\n
374.8875	0.09	749775	keystroke_p	p	n/a
375.0825	0.075	750165	keystroke_u	u	n/a
375.2175	0.105	750435	keystroke_z	z	n/a
375.3675	0.12	750735	keystroke_z	z	n/a
375.5475	0.09	751095	keystroke_l	l	n/a
375.6525	0.0905	751305	keystroke_e	e	n/a
375.788	0.12	751576	keystroke_s	s	n/a
375.878	0.075	751756	keystroke_Key.space	Key.space	n/a
376.088	0.075	752176	keystroke_a	a	n/a
376.343	0.105	752686	keystroke_l	l	n/a
376.418	0.105	752836	keystroke_m	m	n/a
376.538	0.075	753076	keystroke_o	o	n/a
376.598	0.12	753196	keystroke_s	s	n/a
376.673	0.15	753346	keystroke_t	t	n/a
376.778	0.075	753556	keystroke_Key.space	Key.space	n/a
376.943	0.09	753886	keystroke_p	p	n/a
377.018	0.09	754036	keystroke_a	a	n/a
377.063	0.15	754126	keystroke_r	r	n/a
377.198	0.09	754396	keystroke_k	k	n/a
377.333	0.12	754666	keystroke_s	s	n/a
377.558	0.09	755116	keystroke_Key.space	Key.space	n/a
377.858	0.135	755716	keystroke_s	s	n/a
377.978	0.12	755956	keystroke_e	e	n/a
378.113	0.09	756226	keystroke_l	l	n/a
378.203	0.09	756406	keystroke_e	e	n/a
378.338	0.075	756676	keystroke_c	c	n/a
378.833	0.12	757666	keystroke_t	t	n/a
378.893	0.09	757786	keystroke_e	e	n/a
379.058	0.12	758116	keystroke_d	d	n/a
379.388	0.075	758776	keystroke_Key.enter	Key.enter	n/a
379.467	10.0025	758934	prompt	n/a	intense substantial recycling committees\n
380.048	0.12	760096	keystroke_i	i	n/a
380.108	0.09	760216	keystroke_n	n	n/a
380.169	0.134	760338	keystroke_t	t	n/a
380.258	0.135	760516	keystroke_e	e	n/a
380.378	0.09	760756	keystroke_n	n	n/a
380.5585	0.15	761117	keystroke_s	s	n/a
380.6485	0.134	761297	keystroke_e	e	n/a
381.0985	0.1045	762197	keystroke_Key.space	Key.space	n/a
381.398	0.12	762796	keystroke_s	s	n/a
381.533	0.06	763066	keystroke_u	u	n/a
381.683	0.075	763366	keystroke_b	b	n/a
382.298	0.15	764596	keystroke_s	s	n/a
382.433	0.12	764866	keystroke_t	t	n/a
382.598	0.135	765196	keystroke_a	a	n/a
382.718	0.06	765436	keystroke_n	n	n/a
383.7385	0.105	767477	keystroke_t	t	n/a
383.8125	0.075	767625	keystroke_i	i	n/a
383.903	0.12	767806	keystroke_a	a	n/a
384.098	0.09	768196	keystroke_l	l	n/a
384.293	0.075	768586	keystroke_Key.space	Key.space	n/a
384.488	0.12	768976	keystroke_r	r	n/a
384.533	0.09	769066	keystroke_e	e	n/a
384.848	0.12	769696	keystroke_c	c	n/a
385.118	0.06	770236	keystroke_y	y	n/a
385.403	0.105	770806	keystroke_c	c	n/a
385.478	0.075	770956	keystroke_l	l	n/a
385.643	0.1045	771286	keystroke_i	i	n/a
385.658	0.1345	771316	keystroke_n	n	n/a
385.7775	0.045	771555	keystroke_g	g	n/a
385.9425	0.09	771885	keystroke_Key.space	Key.space	n/a
386.0925	0.105	772185	keystroke_c	c	n/a
386.1825	0.105	772365	keystroke_o	o	n/a
386.2575	0.09	772515	keystroke_m	m	n/a
386.4075	0.105	772815	keystroke_m	m	n/a
387.068	0.06	774136	keystroke_i	i	n/a
387.3225	0.076	774645	keystroke_t	t	n/a
387.4425	0.105	774885	keystroke_t	t	n/a
387.7575	0.091	775515	keystroke_e	e	n/a
387.9075	0.1055	775815	keystroke_e	e	n/a
388.163	0.105	776326	keystroke_s	s	n/a
389.393	0.075	778786	keystroke_Key.enter	Key.enter	n/a
389.472	6.672	778944	prompt	n/a	pursue scout factor forum\n
390.083	0.0745	780166	keystroke_p	p	n/a
390.3375	0.09	780675	keystroke_u	u	n/a
390.5025	0.075	781005	keystroke_t	t	n/a
391.0575	0.105	782115	keystroke_Key.backspace	Key.backspace	n/a
391.1485	0.059	782297	keystroke_r	r	n/a
391.3125	0.105	782625	keystroke_s	s	n/a
391.5375	0.075	783075	keystroke_u	u	n/a
392.0025	0.09	784005	keystroke_e	e	n/a
392.2725	0.09	784545	keystroke_Key.space	Key.space	n/a
392.3775	0.105	784755	keystroke_s	s	n/a
392.6625	0.09	785325	keystroke_c	c	n/a
392.7535	0.074	785507	keystroke_o	o	n/a
392.9025	0.09	785805	keystroke_u	u	n/a
393.0225	0.09	786045	keystroke_t	t	n/a
393.1275	0.09	786255	keystroke_Key.space	Key.space	n/a
393.2625	0.135	786525	keystroke_f	f	n/a
393.3525	0.1355	786705	keystroke_a	a	n/a
393.7275	0.0905	787455	keystroke_c	c	n/a
393.938	0.075	787876	keystroke_t	t	n/a
394.043	0.075	788086	keystroke_o	o	n/a
394.133	0.09	788266	keystroke_r	r	n/a
394.358	0.075	788716	keystroke_Key.space	Key.space	n/a
394.538	0.12	789076	keystroke_f	f	n/a
394.673	0.045	789346	keystroke_o	o	n/a
394.748	0.09	789496	keystroke_r	r	n/a
394.913	0.09	789826	keystroke_u	u	n/a
395.063	0.09	790126	keystroke_m	m	n/a
396.0675	0.075	792135	keystroke_Key.enter	Key.enter	n/a
396.1465	7.651	792293	prompt	n/a	realize iron whale who'd've\n
396.758	0.135	793516	keystroke_r	r	n/a
396.833	0.09	793666	keystroke_e	e	n/a
397.013	0.12	794026	keystroke_a	a	n/a
397.148	0.075	794296	keystroke_l	l	n/a
397.283	0.075	794566	keystroke_i	i	n/a
397.688	0.15	795376	keystroke_z	z	n/a
397.823	0.12	795646	keystroke_e	e	n/a
398.018	0.105	796036	keystroke_Key.space	Key.space	n/a
398.213	0.075	796426	keystroke_i	i	n/a
398.303	0.105	796606	keystroke_r	r	n/a
398.378	0.105	796756	keystroke_o	o	n/a
398.438	0.0745	796876	keystroke_n	n	n/a
398.5725	0.09	797145	keystroke_Key.space	Key.space	n/a
398.6775	0.09	797355	keystroke_w	w	n/a
398.8575	0.075	797715	keystroke_h	h	n/a
398.9775	0.15	797955	keystroke_a	a	n/a
399.1875	0.09	798375	keystroke_l	l	n/a
399.3075	0.06	798615	keystroke_e	e	n/a
399.488	0.09	798976	keystroke_Key.space	Key.space	n/a
399.6975	0.06	799395	keystroke_w	w	n/a
399.8775	0.09	799755	keystroke_h	h	n/a
399.9825	0.075	799965	keystroke_o	o	n/a
400.8975	0.06	801795	keystroke_'	'	n/a
400.9725	0.105	801945	keystroke_d	d	n/a
401.4225	0.0905	802845	keystroke_v	v	n/a
401.4675	0.1205	802935	keystroke_e	e	n/a
403.795	0.001	807590	keystroke_Key.enter	Key.enter	n/a
403.8005	6.8785	807601	prompt	n/a	effective counter executed killer\n
404.5875	0.09	809175	keystroke_e	e	n/a
404.7525	0.06	809505	keystroke_f	f	n/a
404.8725	0.075	809745	keystroke_f	f	n/a
404.9775	0.1355	809955	keystroke_e	e	n/a
405.308	0.075	810616	keystroke_t	t	n/a
405.638	0.105	811276	keystroke_Key.backspace	Key.backspace	n/a
405.728	0.105	811456	keystroke_c	c	n/a
405.923	0.075	811846	keystroke_t	t	n/a
406.013	0.06	812026	keystroke_i	i	n/a
406.118	0.12	812236	keystroke_v	v	n/a
406.163	0.135	812326	keystroke_e	e	n/a
406.493	0.1045	812986	keystroke_Key.space	Key.space	n/a
406.8225	0.12	813645	keystroke_c	c	n/a
406.8975	0.06	813795	keystroke_o	o	n/a
407.0625	0.09	814125	keystroke_u	u	n/a
407.0775	0.12	814155	keystroke_n	n	n/a
407.1825	0.09	814365	keystroke_t	t	n/a
407.3175	0.135	814635	keystroke_e	e	n/a
407.4075	0.12	814815	keystroke_r	r	n/a
407.5425	0.075	815085	keystroke_Key.space	Key.space	n/a
407.7075	0.075	815415	keystroke_e	e	n/a
407.9325	0.075	815865	keystroke_x	x	n/a
408.1125	0.075	816225	keystroke_e	e	n/a
408.278	0.105	816556	keystroke_c	c	n/a
408.398	0.0895	816796	keystroke_u	u	n/a
408.563	0.12	817126	keystroke_t	t	n/a
408.623	0.09	817246	keystroke_e	e	n/a
408.773	0.1195	817546	keystroke_d	d	n/a
408.8325	0.075	817665	keystroke_Key.space	Key.space	n/a
408.9825	0.075	817965	keystroke_k	k	n/a
409.1175	0.09	818235	keystroke_i	i	n/a
409.1325	0.045	818265	keystroke_u	u	n/a
409.4025	0.045	818805	keystroke_l	l	n/a
409.6575	0.075	819315	keystroke_Key.backspace	Key.backspace	n/a
409.793	0.09	819586	keystroke_Key.backspace	Key.backspace	n/a
410.123	0.09	820246	keystroke_l	l	n/a
410.258	0.075	820516	keystroke_l	l	n/a
410.348	0.15	820696	keystroke_e	e	n/a
410.423	0.135	820846	keystroke_r	r	n/a
410.573	0.105	821146	keystroke_Key.enter	Key.enter	n/a
410.682	5.967	821364	prompt	n/a	porcelain springer suit block\n
411.3375	0.06	822675	keystroke_p	p	n/a
411.4425	0.09	822885	keystroke_r	r	n/a
411.8925	0.1055	823785	keystroke_Key.backspace	Key.backspace	n/a
412.148	0.09	824296	keystroke_o	o	n/a
412.253	0.075	824506	keystroke_r	r	n/a
412.508	0.105	825016	keystroke_c	c	n/a
412.718	0.09	825436	keystroke_e	e	n/a
412.9725	0.105	825945	keystroke_l	l	n/a
413.2725	0.135	826545	keystroke_a	a	n/a
413.3925	0.12	826785	keystroke_i	i	n/a
413.4525	0.075	826905	keystroke_n	n	n/a
413.6175	0.06	827235	keystroke_Key.space	Key.space	n/a
413.7225	0.105	827445	keystroke_s	s	n/a
413.8125	0.0895	827625	keystroke_p	p	n/a
413.933	0.104	827866	keystroke_r	r	n/a
414.022	0.09	828044	keystroke_i	i	n/a
414.068	0.089	828136	keystroke_n	n	n/a
414.142	0.091	828284	keystroke_g	g	n/a
414.218	0.149	828436	keystroke_e	e	n/a
414.307	0.136	828614	keystroke_r	r	n/a
414.6675	0.09	829335	keystroke_Key.space	Key.space	n/a
414.8175	0.135	829635	keystroke_s	s	n/a
414.9535	0.075	829907	keystroke_u	u	n/a
415.0875	0.09	830175	keystroke_i	i	n/a
415.1925	0.0755	830385	keystroke_t	t	n/a
415.313	0.09	830626	keystroke_Key.space	Key.space	n/a
415.583	0.105	831166	keystroke_b	b	n/a
415.733	0.075	831466	keystroke_l	l	n/a
415.883	0.075	831766	keystroke_o	o	n/a
415.973	0.105	831946	keystroke_c	c	n/a
416.063	0.075	832126	keystroke_k	k	n/a
416.5875	0.06	833175	keystroke_Key.enter	Key.enter	n/a
416.652	6.462	833304	prompt	n/a	terminals forces layout beneath\n
417.248	0.12	834496	keystroke_t	t	n/a
417.353	0.15	834706	keystroke_e	e	n/a
417.458	0.12	834916	keystroke_r	r	n/a
417.593	0.09	835186	keystroke_m	m	n/a
417.713	0.135	835426	keystroke_i	i	n/a
417.773	0.105	835546	keystroke_n	n	n/a
417.938	0.105	835876	keystroke_a	a	n/a
418.073	0.075	836146	keystroke_l	l	n/a
418.178	0.09	836356	keystroke_s	s	n/a
418.718	0.075	837436	keystroke_Key.space	Key.space	n/a
418.778	0.12	837556	keystroke_f	f	n/a
418.883	0.09	837766	keystroke_o	o	n/a
419.003	0.0745	838006	keystroke_r	r	n/a
419.1825	0.12	838365	keystroke_c	c	n/a
419.2575	0.135	838515	keystroke_e	e	n/a
419.4825	0.09	838965	keystroke_s	s	n/a
419.5875	0.075	839175	keystroke_Key.space	Key.space	n/a
419.753	0.075	839506	keystroke_l	l	n/a
419.843	0.075	839686	keystroke_a	a	n/a
419.978	0.105	839956	keystroke_y	y	n/a
420.098	0.075	840196	keystroke_o	o	n/a
420.233	0.09	840466	keystroke_u	u	n/a
420.338	0.09	840676	keystroke_t	t	n/a
420.517	0.09	841034	keystroke_Key.space	Key.space	n/a
420.622	0.09	841244	keystroke_b	b	n/a
421.0875	0.076	842175	keystroke_e	e	n/a
421.2525	0.09	842505	keystroke_n	n	n/a
421.4925	0.09	842985	keystroke_e	e	n/a
421.808	0.135	843616	keystroke_a	a	n/a
421.988	0.1195	843976	keystroke_t	t	n/a
422.4525	0.075	844905	keystroke_h	h	n/a
423.0225	0.09	846045	keystroke_Key.enter	Key.enter	n/a
423.118	9.581	846236	prompt	n/a	through straight when's software\n
423.773	0.135	847546	keystroke_t	t	n/a
423.848	0.09	847696	keystroke_h	h	n/a
423.998	0.09	847996	keystroke_r	r	n/a
424.103	0.09	848206	keystroke_o	o	n/a
425.318	0.03	850636	keystroke_u	u	n/a
425.378	0.15	850756	keystroke_g	g	n/a
425.453	0.135	850906	keystroke_h	h	n/a
425.573	0.12	851146	keystroke_Key.space	Key.space	n/a
425.708	0.135	851416	keystroke_s	s	n/a
425.812	0.135	851624	keystroke_t	t	n/a
425.887	0.076	851774	keystroke_r	r	n/a
426.052	0.105	852104	keystroke_a	a	n/a
426.158	0.075	852316	keystroke_i	i	n/a
426.293	0.105	852586	keystroke_g	g	n/a
426.383	0.105	852766	keystroke_h	h	n/a
426.503	0.09	853006	keystroke_t	t	n/a
426.607	0.09	853214	keystroke_Key.space	Key.space	n/a
426.742	0.09	853484	keystroke_w	w	n/a
426.922	0.06	853844	keystroke_h	h	n/a
426.968	0.105	853936	keystroke_e	e	n/a
427.073	0.075	854146	keystroke_n	n	n/a
427.5525	0.09	855105	keystroke_'	'	n/a
427.6875	0.12	855375	keystroke_s	s	n/a
428.0325	0.105	856065	keystroke_s	s	n/a
428.1525	0.075	856305	keystroke_o	o	n/a
428.2425	0.12	856485	keystroke_f	f	n/a
428.4675	0.0905	856935	keystroke_t	t	n/a
428.4985	0.0745	856997	keystroke_e	e	n/a
428.918	0.0745	857836	keystroke_Key.backspace	Key.backspace	n/a
429.0525	0.09	858105	keystroke_Key.backspace	Key.backspace	n/a
429.2025	0.075	858405	keystroke_Key.backspace	Key.backspace	n/a
429.3225	0.105	858645	keystroke_Key.backspace	Key.backspace	n/a
429.6675	0.105	859335	keystroke_Key.space	Key.space	n/a
430.0275	0.09	860055	keystroke_Key.backspace	Key.backspace	n/a
430.1775	0.0905	860355	keystroke_Key.backspace	Key.backspace	n/a
430.403	0.075	860806	keystroke_Key.space	Key.space	n/a
430.508	0.105	861016	keystroke_s	s	n/a
430.583	0.075	861166	keystroke_o	o	n/a
431.3325	0.09	862665	keystroke_f	f	n/a
431.4975	0.09	862995	keystroke_t	t	n/a
431.6625	0.135	863325	keystroke_w	w	n/a
431.7825	0.165	863565	keystroke_a	a	n/a
431.9025	0.12	863805	keystroke_r	r	n/a
431.9775	0.09	863955	keystroke_e	e	n/a
432.578	0.12	865156	keystroke_Key.enter	Key.enter	n/a
432.7025	9.0415	865405	prompt	n/a	sought membrane halifax porcelain\n
433.283	0.075	866566	keystroke_s	s	n/a
433.358	0.105	866716	keystroke_o	o	n/a
433.568	0.09	867136	keystroke_u	u	n/a
433.703	0.12	867406	keystroke_g	g	n/a
433.793	0.105	867586	keystroke_h	h	n/a
433.943	0.09	867886	keystroke_t	t	n/a
434.063	0.105	868126	keystroke_Key.space	Key.space	n/a
434.303	0.075	868606	keystroke_m	m	n/a
434.363	0.09	868726	keystroke_e	e	n/a
434.438	0.0745	868876	keystroke_m	m	n/a
434.6475	0.105	869295	keystroke_b	b	n/a
434.7975	0.105	869595	keystroke_e	e	n/a
435.2175	0.045	870435	keystroke_Key.backspace	Key.backspace	n/a
435.2775	0.045	870555	keystroke_r	r	n/a
435.3675	0.135	870735	keystroke_a	a	n/a
435.5325	0.075	871065	keystroke_n	n	n/a
435.6375	0.075	871275	keystroke_e	e	n/a
435.818	0.09	871636	keystroke_Key.space	Key.space	n/a
436.298	0.045	872596	keystroke_h	h	n/a
436.358	0.105	872716	keystroke_a	a	n/a
436.5825	0.09	873165	keystroke_l	l	n/a
436.7625	0.06	873525	keystroke_i	i	n/a
437.4375	0.135	874875	keystroke_f	f	n/a
437.6325	0.12	875265	keystroke_a	a	n/a
438.1875	0.06	876375	keystroke_x	x	n/a
438.5325	0.075	877065	keystroke_Key.space	Key.space	n/a
438.7125	0.075	877425	keystroke_p	p	n/a
438.8625	0.09	877725	keystroke_o	o	n/a
438.9375	0.075	877875	keystroke_r	r	n/a
439.1325	0.09	878265	keystroke_c	c	n/a
439.3875	0.09	878775	keystroke_e	e	n/a
439.6125	0.09	879225	keystroke_l	l	n/a
439.7625	0.1205	879525	keystroke_a	a	n/a
439.943	0.12	879886	keystroke_i	i	n/a
440.003	0.09	880006	keystroke_n	n	n/a
441.6675	0.075	883335	keystroke_Key.enter	Key.enter	n/a
441.7485	7.6155	883497	prompt	n/a	plates incentives layout courts\n
442.3575	0.09	884715	keystroke_p	p	n/a
442.5225	0.105	885045	keystroke_l	l	n/a
442.6575	0.075	885315	keystroke_a	a	n/a
442.7775	0.135	885555	keystroke_t	t	n/a
442.8675	0.105	885735	keystroke_e	e	n/a
443.2425	0.09	886485	keystroke_s	s	n/a
443.4825	0.075	886965	keystroke_Key.space	Key.space	n/a
443.6175	0.1055	887235	keystroke_i	i	n/a
443.6475	0.1205	887295	keystroke_n	n	n/a
443.9775	0.09	887955	keystroke_v	v	n/a
444.4425	0.075	888885	keystroke_Key.backspace	Key.backspace	n/a
444.5475	0.12	889095	keystroke_e	e	n/a
444.5625	0.06	889125	keystroke_c	c	n/a
445.0875	0.075	890175	keystroke_Key.backspace	Key.backspace	n/a
445.2225	0.09	890445	keystroke_Key.backspace	Key.backspace	n/a
445.4175	0.12	890835	keystroke_c	c	n/a
445.4785	0.134	890957	keystroke_e	e	n/a
445.6275	0.06	891255	keystroke_n	n	n/a
445.898	0.075	891796	keystroke_t	t	n/a
446.003	0.075	892006	keystroke_i	i	n/a
446.168	0.075	892336	keystroke_v	v	n/a
446.198	0.105	892396	keystroke_e	e	n/a
446.408	0.105	892816	keystroke_s	s	n/a
446.573	0.1045	893146	keystroke_Key.space	Key.space	n/a
447.0075	0.09	894015	keystroke_l	l	n/a
447.1425	0.1055	894285	keystroke_a	a	n/a
447.308	0.105	894616	keystroke_y	y	n/a
447.428	0.06	894856	keystroke_o	o	n/a
447.563	0.09	895126	keystroke_u	u	n/a
447.668	0.0895	895336	keystroke_t	t	n/a
448.178	0.09	896356	keystroke_Key.space	Key.space	n/a
448.328	0.135	896656	keystroke_c	c	n/a
448.418	0.075	896836	keystroke_o	o	n/a
448.583	0.075	897166	keystroke_u	u	n/a
448.658	0.105	897316	keystroke_r	r	n/a
448.718	0.12	897436	keystroke_t	t	n/a
448.883	0.105	897766	keystroke_s	s	n/a
449.273	0.0895	898546	keystroke_Key.enter	Key.enter	n/a
449.367	6.687	898734	prompt	n/a	your stone namespace parameters\n
450.143	0.105	900286	keystroke_y	y	n/a
450.248	0.045	900496	keystroke_o	o	n/a
450.368	0.075	900736	keystroke_u	u	n/a
450.458	0.0745	900916	keystroke_r	r	n/a
450.5335	0.089	901067	keystroke_Key.space	Key.space	n/a
450.6525	0.1055	901305	keystroke_s	s	n/a
450.728	0.15	901456	keystroke_t	t	n/a
450.923	0.12	901846	keystroke_o	o	n/a
450.983	0.105	901966	keystroke_n	n	n/a
451.193	0.075	902386	keystroke_e	e	n/a
451.403	0.075	902806	keystroke_Key.space	Key.space	n/a
451.538	0.06	903076	keystroke_n	n	n/a
451.628	0.105	903256	keystroke_a	a	n/a
451.703	0.09	903406	keystroke_m	m	n/a
451.8225	0.06	903645	keystroke_e	e	n/a
452.048	0.0895	904096	keystroke_s	s	n/a
452.1525	0.09	904305	keystroke_p	p	n/a
452.2875	0.03	904575	keystroke_a	a	n/a
452.3925	0.1055	904785	keystroke_e	e	n/a
452.7375	0.09	905475	keystroke_Key.backspace	Key.backspace	n/a
452.8575	0.135	905715	keystroke_e	e	n/a
453.1425	0.105	906285	keystroke_Key.space	Key.space	n/a
453.533	0.074	907066	keystroke_Key.backspace	Key.backspace	n/a
453.6675	0.0895	907335	keystroke_Key.backspace	Key.backspace	n/a
453.817	0.166	907634	keystroke_c	c	n/a
453.907	0.105	907814	keystroke_e	e	n/a
454.147	0.09	908294	keystroke_Key.space	Key.space	n/a
454.312	0.09	908624	keystroke_p	p	n/a
454.417	0.12	908834	keystroke_a	a	n/a
454.522	0.1655	909044	keystroke_r	r	n/a
454.642	0.12	909284	keystroke_a	a	n/a
454.9125	0.09	909825	keystroke_m	m	n/a
455.0175	0.12	910035	keystroke_e	e	n/a
455.1975	0.105	910395	keystroke_t	t	n/a
455.603	0.0895	911206	keystroke_e	e	n/a
455.6175	0.1055	911235	keystroke_r	r	n/a
455.7975	0.12	911595	keystroke_s	s	n/a
455.9625	0.0905	911925	keystroke_Key.enter	Key.enter	n/a
456.057	5.967	912114	prompt	n/a	reporting nest upper translated\n
456.607	0.1205	913214	keystroke_r	r	n/a
456.6675	0.12	913335	keystroke_e	e	n/a
456.7725	0.075	913545	keystroke_p	p	n/a
456.9375	0.09	913875	keystroke_o	o	n/a
457.0425	0.12	914085	keystroke_r	r	n/a
457.1025	0.12	914205	keystroke_t	t	n/a
457.2075	0.105	914415	keystroke_i	i	n/a
457.2375	0.105	914475	keystroke_n	n	n/a
457.3275	0.105	914655	keystroke_g	g	n/a
457.6125	0.09	915225	keystroke_Key.space	Key.space	n/a
458.0175	0.075	916035	keystroke_n	n	n/a
458.1075	0.105	916215	keystroke_e	e	n/a
458.348	0.09	916696	keystroke_s	s	n/a
458.408	0.1195	916816	keystroke_t	t	n/a
458.6025	0.105	917205	keystroke_Key.space	Key.space	n/a
458.888	0.09	917776	keystroke_u	u	n/a
459.143	0.06	918286	keystroke_p	p	n/a
459.263	0.09	918526	keystroke_p	p	n/a
459.368	0.135	918736	keystroke_e	e	n/a
459.428	0.1495	918856	keystroke_r	r	n/a
460.1175	0.09	920235	keystroke_Key.space	Key.space	n/a
460.1925	0.12	920385	keystroke_t	t	n/a
460.2375	0.09	920475	keystroke_r	r	n/a
460.4025	0.12	920805	keystroke_a	a	n/a
460.5075	0.075	921015	keystroke_n	n	n/a
460.6125	0.09	921225	keystroke_s	s	n/a
460.7175	0.075	921435	keystroke_l	l	n/a
460.8075	0.1055	921615	keystroke_a	a	n/a
460.928	0.12	921856	keystroke_t	t	n/a
461.003	0.105	922006	keystroke_e	e	n/a
461.303	0.015	922606	keystroke_d	d	n/a
461.948	0.075	923896	keystroke_Key.enter	Key.enter	n/a
462.0285	7.7205	924057	prompt	n/a	smith awards agricultural hungarian\n
462.578	0.09	925156	keystroke_s	s	n/a
462.653	0.135	925306	keystroke_m	m	n/a
462.758	0.09	925516	keystroke_i	i	n/a
462.863	0.12	925726	keystroke_t	t	n/a
462.908	0.12	925816	keystroke_h	h	n/a
463.043	0.089	926086	keystroke_Key.space	Key.space	n/a
463.268	0.105	926536	keystroke_a	a	n/a
463.463	0.105	926926	keystroke_w	w	n/a
463.553	0.09	927106	keystroke_a	a	n/a
463.718	0.06	927436	keystroke_y	y	n/a
464.153	0.09	928306	keystroke_Key.backspace	Key.backspace	n/a
464.258	0.0745	928516	keystroke_r	r	n/a
464.4825	0.15	928965	keystroke_d	d	n/a
464.5875	0.15	929175	keystroke_s	s	n/a
464.932	0.105	929864	keystroke_Key.space	Key.space	n/a
465.083	0.089	930166	keystroke_a	a	n/a
465.352	0.105	930704	keystroke_g	g	n/a
465.412	0.105	930824	keystroke_r	r	n/a
465.652	0.075	931304	keystroke_i	i	n/a
466.133	0.119	932266	keystroke_c	c	n/a
466.222	0.075	932444	keystroke_u	u	n/a
