onset	duration	sample	value	key	prompt_text
38.1235	22.8225	76247	prompt	n/a	the quick brown fox jumps over a lazy dog\n
46.726	0.012	93452	keystroke	t	n/a
46.843	0.0605	93686	keystroke	h	n/a
47.533	0.06	95066	keystroke	e	n/a
48.088	0.09	96176	keystroke	Key.space	n/a
48.358	0.0905	96716	keystroke	q	n/a
48.838	0.0895	97676	keystroke	u	n/a
49.0175	0.0905	98035	keystroke	i	n/a
49.153	0.0755	98306	keystroke	c	n/a
49.3335	0.089	98667	keystroke	k	n/a
49.4675	0.075	98935	keystroke	Key.space	n/a
49.678	0.0745	99356	keystroke	b	n/a
49.7975	0.0605	99595	keystroke	r	n/a
49.9625	0.06	99925	keystroke	o	n/a
50.1425	0.061	100285	keystroke	w	n/a
50.308	0.09	100616	keystroke	n	n/a
50.4275	0.09	100855	keystroke	Key.space	n/a
50.6235	0.06	101247	keystroke	d	n/a
51.808	0.06	103616	keystroke	Key.backspace	n/a
52.333	0.045	104666	keystroke	f	n/a
52.558	0.074	105116	keystroke	o	n/a
52.753	0.06	105506	keystroke	x	n/a
52.8875	0.0905	105775	keystroke	Key.space	n/a
55.485	0.001	110970	keystroke	j	n/a
55.618	0.0755	111236	keystroke	u	n/a
56.263	0.09	112526	keystroke	m	n/a
56.5035	0.06	113007	keystroke	p	n/a
56.728	0.075	113456	keystroke	s	n/a
56.908	0.0905	113816	keystroke	Key.space	n/a
57.373	0.0605	114746	keystroke	o	n/a
57.553	0.0905	115106	keystroke	v	n/a
57.748	0.12	115496	keystroke	e	n/a
57.883	0.075	115766	keystroke	r	n/a
57.9735	0.0895	115947	keystroke	Key.space	n/a
58.093	0.075	116186	keystroke	t	n/a
58.213	0.09	116426	keystroke	h	n/a
58.347	0.091	116694	keystroke	e	n/a
58.468	0.09	116936	keystroke	Key.space	n/a
58.753	0.1045	117506	keystroke	l	n/a
58.9025	0.1055	117805	keystroke	a	n/a
59.1435	0.0895	118287	keystroke	z	n/a
59.309	0.0895	118618	keystroke	y	n/a
59.473	0.075	118946	keystroke	Key.space	n/a
59.578	0.105	119156	keystroke	d	n/a
59.743	0.075	119486	keystroke	o	n/a
59.923	0.075	119846	keystroke	g	n/a
60.868	0.075	121736	keystroke	Key.enter	n/a
60.9525	13.9875	121905	prompt	n/a	thread handling approximate analysis\n
61.9335	0.0745	123867	keystroke	t	n/a
62.0535	0.09	124107	keystroke	h	n/a
62.1735	0.089	124347	keystroke	r	n/a
62.3525	0.121	124705	keystroke	e	n/a
62.5025	0.1655	125005	keystroke	a	n/a
62.653	0.105	125306	keystroke	d	n/a
62.743	0.09	125486	keystroke	Key.space	n/a
62.938	0.09	125876	keystroke	h	n/a
63.043	0.121	126086	keystroke	e	n/a
63.1485	0.2095	126297	keystroke	a	n/a
63.343	0.045	126686	keystroke	d	n/a
64.3185	0.0745	128637	keystroke	Key.backspace	n/a
64.528	0.0605	129056	keystroke	Key.backspace	n/a
65.7435	0.0605	131487	keystroke	Key.backspace	n/a
66.1335	0.12	132267	keystroke	a	n/a
66.2985	0.0745	132597	keystroke	n	n/a
66.433	0.075	132866	keystroke	d	n/a
66.6125	0.0755	133225	keystroke	l	n/a
66.8235	0.135	133647	keystroke	i	n/a
66.943	0.09	133886	keystroke	n	n/a
67.063	0.075	134126	keystroke	g	n/a
67.198	0.0905	134396	keystroke	Key.space	n/a
67.6485	0.1195	135297	keystroke	a	n/a
67.9025	0.046	135805	keystroke	p	n/a
68.0525	0.0605	136105	keystroke	p	n/a
68.248	0.075	136496	keystroke	r	n/a
68.428	0.0595	136856	keystroke	o	n/a
69.388	0.09	138776	keystroke	x	n/a
69.538	0.09	139076	keystroke	i	n/a
69.778	0.09	139556	keystroke	m	n/a
69.928	0.12	139856	keystroke	a	n/a
70.213	0.15	140426	keystroke	t	n/a
70.348	0.1205	140696	keystroke	e	n/a
70.528	0.1045	141056	keystroke	Key.space	n/a
70.708	0.0595	141416	keystroke	a	n/a
70.963	0.0595	141926	keystroke	n	n/a
71.0685	0.104	142137	keystroke	a	n/a
72.8685	0.09	145737	keystroke	l	n/a
73.588	0.0755	147176	keystroke	y	n/a
73.724	0.0895	147448	keystroke	s	n/a
73.873	0.075	147746	keystroke	i	n/a
73.993	0.075	147986	keystroke	s	n/a
74.878	0.06	149756	keystroke	Key.enter	n/a
74.945	5.2305	149890	prompt	n/a	chorus theories east past\n
75.9135	0.075	151827	keystroke	c	n/a
76.1835	0.09	152367	keystroke	h	n/a
76.408	0.09	152816	keystroke	o	n/a
76.5575	0.0755	153115	keystroke	r	n/a
76.7835	0.075	153567	keystroke	u	n/a
76.9185	0.09	153837	keystroke	s	n/a
77.0375	0.09	154075	keystroke	Key.space	n/a
77.2175	0.076	154435	keystroke	t	n/a
77.339	0.0895	154678	keystroke	h	n/a
77.5185	0.105	155037	keystroke	e	n/a
77.6835	0.075	155367	keystroke	o	n/a
77.788	0.075	155576	keystroke	r	n/a
77.938	0.0755	155876	keystroke	i	n/a
78.073	0.0905	156146	keystroke	e	n/a
78.2075	0.106	156415	keystroke	s	n/a
78.3285	0.0895	156657	keystroke	Key.space	n/a
78.463	0.135	156926	keystroke	e	n/a
78.583	0.165	157166	keystroke	a	n/a
78.688	0.225	157376	keystroke	s	n/a
78.988	0.09	157976	keystroke	t	n/a
79.123	0.1055	158246	keystroke	Key.space	n/a
79.3935	0.0745	158787	keystroke	p	n/a
79.5135	0.18	159027	keystroke	a	n/a
79.6475	0.1205	159295	keystroke	s	n/a
79.8275	0.091	159655	keystroke	t	n/a
80.098	0.0755	160196	keystroke	Key.enter	n/a
80.18	15.716	160360	prompt	n/a	send programmes surfaces boys\n
81.043	0.12	162086	keystroke	s	n/a
81.193	0.0905	162386	keystroke	e	n/a
81.328	0.1055	162656	keystroke	n	n/a
81.448	0.09	162896	keystroke	d	n/a
81.553	0.06	163106	keystroke	Key.space	n/a
81.7185	0.0745	163437	keystroke	p	n/a
81.823	0.0895	163646	keystroke	r	n/a
81.9735	0.06	163947	keystroke	o	n/a
82.198	0.075	164396	keystroke	g	n/a
82.6635	0.1945	165327	keystroke	r	n/a
82.8435	0.1345	165687	keystroke	a	n/a
83.0235	0.104	166047	keystroke	m	n/a
83.2025	0.0905	166405	keystroke	m	n/a
83.368	0.0755	166736	keystroke	e	n/a
83.5785	0.1045	167157	keystroke	s	n/a
83.6975	0.0755	167395	keystroke	Key.space	n/a
83.818	0.09	167636	keystroke	s	n/a
83.968	0.1055	167936	keystroke	u	n/a
84.223	0.105	168446	keystroke	r	n/a
93.0155	0.028	186031	keystroke	f	n/a
93.0585	0.1645	186117	keystroke	a	n/a
93.328	0.075	186656	keystroke	c	n/a
93.448	0.1055	186896	keystroke	e	n/a
93.6735	0.0895	187347	keystroke	s	n/a
93.8685	0.135	187737	keystroke	Key.space	n/a
94.5285	0.105	189057	keystroke	b	n/a
94.7685	0.105	189537	keystroke	o	n/a
94.979	0.0745	189958	keystroke	y	n/a
95.0835	0.09	190167	keystroke	s	n/a
95.818	0.0755	191636	keystroke	Key.enter	n/a
95.9	8.455	191800	prompt	n/a	rocky thinking target rule\n
96.764	0.0895	193528	keystroke	r	n/a
97.0185	0.075	194037	keystroke	o	n/a
97.1385	0.06	194277	keystroke	c	n/a
97.2735	0.09	194547	keystroke	k	n/a
97.6035	0.075	195207	keystroke	y	n/a
97.7835	0.09	195567	keystroke	Key.space	n/a
98.3385	0.0755	196677	keystroke	t	n/a
98.5185	0.045	197037	keystroke	h	n/a
99.4785	0.06	198957	keystroke	i	n/a
99.734	0.059	199468	keystroke	n	n/a
99.928	0.045	199856	keystroke	k	n/a
100.0935	0.075	200187	keystroke	i	n/a
100.244	0.089	200488	keystroke	n	n/a
100.348	0.075	200696	keystroke	g	n/a
100.453	0.09	200906	keystroke	Key.space	n/a
100.904	0.104	201808	keystroke	t	n/a
101.114	0.164	202228	keystroke	a	n/a
101.263	0.12	202526	keystroke	r	n/a
101.5035	0.0905	203007	keystroke	g	n/a
101.698	0.12	203396	keystroke	e	n/a
101.849	0.089	203698	keystroke	t	n/a
102.028	0.061	204056	keystroke	Key.space	n/a
102.239	0.074	204478	keystroke	r	n/a
102.884	0.06	205768	keystroke	u	n/a
103.2435	0.06	206487	keystroke	l	n/a
103.3485	0.075	206697	keystroke	e	n/a
104.293	0.0605	208586	keystroke	Key.enter	n/a
104.3595	6.5505	208719	prompt	n/a	lean how'll schema thee\n
105.568	0.06	211136	keystroke	l	n/a
105.643	0.12	211286	keystroke	e	n/a
105.718	0.136	211436	keystroke	a	n/a
105.8835	0.1055	211767	keystroke	n	n/a
106.0185	0.075	212037	keystroke	Key.space	n/a
106.2135	0.09	212427	keystroke	h	n/a
106.409	0.074	212818	keystroke	o	n/a
106.514	0.09	213028	keystroke	w	n/a
107.158	0.06	214316	keystroke	'	n/a
107.5495	0.044	215099	keystroke	l	n/a
107.654	0.074	215308	keystroke	l	n/a
107.788	0.09	215576	keystroke	Key.space	n/a
108.104	0.089	216208	keystroke	s	n/a
108.358	0.09	216716	keystroke	c	n/a
108.5535	0.06	217107	keystroke	h	n/a
108.7345	0.074	217469	keystroke	e	n/a
109.498	0.0755	218996	keystroke	m	n/a
109.6035	0.105	219207	keystroke	a	n/a
109.7235	0.0755	219447	keystroke	Key.space	n/a
109.9335	0.09	219867	keystroke	t	n/a
110.054	0.0745	220108	keystroke	h	n/a
110.2345	0.0895	220469	keystroke	e	n/a
110.3835	0.0905	220767	keystroke	e	n/a
110.8635	0.045	221727	keystroke	Key.enter	n/a
110.917	9.0685	221834	prompt	n/a	differences causing another golf\n
111.7635	0.09	223527	keystroke	d	n/a
111.974	0.075	223948	keystroke	i	n/a
112.093	0.061	224186	keystroke	f	n/a
112.214	0.074	224428	keystroke	f	n/a
112.363	0.105	224726	keystroke	e	n/a
112.453	0.09	224906	keystroke	r	n/a
112.5735	0.0745	225147	keystroke	e	n/a
112.664	0.074	225328	keystroke	n	n/a
112.828	0.121	225656	keystroke	c	n/a
112.933	0.12	225866	keystroke	e	n/a
113.804	0.105	227608	keystroke	s	n/a
113.984	0.09	227968	keystroke	Key.space	n/a
114.404	0.075	228808	keystroke	c	n/a
114.584	0.03	229168	keystroke	a	n/a
114.974	0.075	229948	keystroke	u	n/a
115.094	0.0895	230188	keystroke	s	n/a
115.2435	0.12	230487	keystroke	i	n/a
115.348	0.09	230696	keystroke	n	n/a
115.453	0.105	230906	keystroke	g	n/a
115.588	0.105	231176	keystroke	Key.space	n/a
115.709	0.089	231418	keystroke	t	n/a
116.5785	0.045	233157	keystroke	Key.backspace	n/a
116.7435	0.09	233487	keystroke	a	n/a
116.9535	0.0605	233907	keystroke	n	n/a
117.1335	0.075	234267	keystroke	o	n/a
117.299	0.0745	234598	keystroke	t	n/a
117.4185	0.06	234837	keystroke	h	n/a
117.524	0.12	235048	keystroke	e	n/a
117.644	0.105	235288	keystroke	r	n/a
117.7785	0.09	235557	keystroke	Key.space	n/a
118.004	0.075	236008	keystroke	g	n/a
118.168	0.0755	236336	keystroke	o	n/a
118.4535	0.09	236907	keystroke	l	n/a
118.6035	0.09	237207	keystroke	d	n/a
119.3985	0.045	238797	keystroke	Key.backspace	n/a
119.6535	0.06	239307	keystroke	f	n/a
119.9235	0.06	239847	keystroke	Key.enter	n/a
119.989	12.656	239978	prompt	n/a	powder completely supplies wait\n
120.914	0.0745	241828	keystroke	p	n/a
121.018	0.09	242036	keystroke	w	n/a
121.318	0.075	242636	keystroke	d	n/a
121.544	0.104	243088	keystroke	e	n/a
121.664	0.09	243328	keystroke	r	n/a
121.784	0.09	243568	keystroke	Key.space	n/a
122.024	0.105	244048	keystroke	c	n/a
122.129	0.0755	244258	keystroke	o	n/a
122.909	0.104	245818	keystroke	Key.backspace	n/a
123.284	0.0595	246568	keystroke	Key.backspace	n/a
123.583	0.0755	247166	keystroke	Key.backspace	n/a
123.793	0.06	247586	keystroke	Key.backspace	n/a
124.168	0.06	248336	keystroke	Key.backspace	n/a
124.5285	0.045	249057	keystroke	Key.backspace	n/a
124.8885	0.045	249777	keystroke	Key.backspace	n/a
125.474	0.09	250948	keystroke	o	n/a
125.6385	0.0605	251277	keystroke	w	n/a
125.8485	0.0905	251697	keystroke	d	n/a
126.0285	0.075	252057	keystroke	e	n/a
126.1935	0.0755	252387	keystroke	r	n/a
126.3135	0.12	252627	keystroke	Key.space	n/a
126.4785	0.09	252957	keystroke	c	n/a
126.6285	0.165	253257	keystroke	o	n/a
126.764	0.1195	253528	keystroke	m	n/a
127.034	0.15	254068	keystroke	p	n/a
127.124	0.12	254248	keystroke	l	n/a
127.244	0.105	254488	keystroke	e	n/a
127.529	0.15	255058	keystroke	t	n/a
127.664	0.105	255328	keystroke	e	n/a
127.829	0.135	255658	keystroke	l	n/a
128.399	0.1045	256798	keystroke	y	n/a
128.6235	0.0755	257247	keystroke	Key.space	n/a
129.554	0.104	259108	keystroke	s	n/a
129.673	0.091	259346	keystroke	u	n/a
130.348	0.031	260696	keystroke	p	n/a
130.438	0.0755	260876	keystroke	p	n/a
130.649	0.1045	261298	keystroke	l	n/a
130.8135	0.0595	261627	keystroke	i	n/a
130.9785	0.18	261957	keystroke	e	n/a
131.129	0.1045	262258	keystroke	s	n/a
131.263	0.105	262526	keystroke	Key.space	n/a
131.609	0.12	263218	keystroke	w	n/a
131.729	0.135	263458	keystroke	a	n/a
131.879	0.074	263758	keystroke	i	n/a
132.014	0.06	264028	keystroke	t	n/a
132.583	0.06	265166	keystroke	Key.enter	n/a
132.6495	8.096	265299	prompt	n/a	mambo foods garlic dispatched\n
133.634	0.0745	267268	keystroke	m	n/a
133.754	0.09	267508	keystroke	a	n/a
133.919	0.09	267838	keystroke	m	n/a
134.1735	0.09	268347	keystroke	b	n/a
134.4285	0.06	268857	keystroke	o	n/a
134.578	0.0905	269156	keystroke	Key.space	n/a
134.878	0.091	269756	keystroke	f	n/a
135.044	0.0595	270088	keystroke	o	n/a
135.209	0.045	270418	keystroke	o	n/a
135.329	0.075	270658	keystroke	d	n/a
135.509	0.105	271018	keystroke	s	n/a
135.644	0.089	271288	keystroke	Key.space	n/a
136.634	0.074	273268	keystroke	g	n/a
136.738	0.09	273476	keystroke	a	n/a
136.858	0.076	273716	keystroke	r	n/a
136.993	0.15	273986	keystroke	l	n/a
137.129	0.1045	274258	keystroke	i	n/a
137.7885	0.09	275577	keystroke	c	n/a
137.9535	0.09	275907	keystroke	Key.space	n/a
138.6735	0.0755	277347	keystroke	d	n/a
138.8535	0.061	277707	keystroke	i	n/a
139.0035	0.136	278007	keystroke	s	n/a
139.2595	0.0745	278519	keystroke	p	n/a
139.3935	0.105	278787	keystroke	a	n/a
139.588	0.061	279176	keystroke	t	n/a
139.7845	0.0735	279569	keystroke	c	n/a
139.903	0.075	279806	keystroke	h	n/a
140.038	0.046	280076	keystroke	e	n/a
140.1885	0.0755	280377	keystroke	d	n/a
140.699	0.045	281398	keystroke	Key.enter	n/a
140.75	6.5955	281500	prompt	n/a	channels board different carlo\n
141.479	0.105	282958	keystroke	c	n/a
141.614	0.075	283228	keystroke	h	n/a
141.719	0.075	283438	keystroke	a	n/a
141.824	0.075	283648	keystroke	n	n/a
141.914	0.105	283828	keystroke	n	n/a
142.619	0.09	285238	keystroke	e	n/a
142.814	0.09	285628	keystroke	l	n/a
142.979	0.075	285958	keystroke	s	n/a
143.114	0.075	286228	keystroke	Key.space	n/a
143.384	0.09	286768	keystroke	b	n/a
143.594	0.075	287188	keystroke	o	n/a
143.743	0.106	287486	keystroke	a	n/a
143.894	0.075	287788	keystroke	r	n/a
144.074	0.09	288148	keystroke	d	n/a
144.224	0.089	288448	keystroke	Key.space	n/a
144.614	0.089	289228	keystroke	d	n/a
144.778	0.091	289556	keystroke	i	n/a
145.004	0.045	290008	keystroke	f	n/a
145.109	0.09	290218	keystroke	f	n/a
145.274	0.135	290548	keystroke	e	n/a
145.424	0.105	290848	keystroke	r	n/a
145.559	0.09	291118	keystroke	e	n/a
145.634	0.15	291268	keystroke	n	n/a
145.859	0.075	291718	keystroke	t	n/a
145.9935	0.0905	291987	keystroke	Key.space	n/a
146.309	0.105	292618	keystroke	c	n/a
146.5345	0.0445	293069	keystroke	a	n/a
146.624	0.06	293248	keystroke	r	n/a
146.773	0.061	293546	keystroke	l	n/a
146.954	0.06	293908	keystroke	o	n/a
147.284	0.0595	294568	keystroke	Key.enter	n/a
147.35	7.5855	294700	prompt	n/a	width ecological song vision\n
148.1245	0.0745	296249	keystroke	w	n/a
148.2885	0.075	296577	keystroke	i	n/a
148.424	0.1045	296848	keystroke	d	n/a
148.634	0.075	297268	keystroke	t	n/a
148.769	0.0745	297538	keystroke	h	n/a
148.8585	0.105	297717	keystroke	Key.space	n/a
149.174	0.044	298348	keystroke	e	n/a
149.6385	0.046	299277	keystroke	x	n/a
150.133	0.091	300266	keystroke	Key.backspace	n/a
150.315	0.074	300630	keystroke	c	n/a
150.8835	0.06	301767	keystroke	o	n/a
151.0485	0.06	302097	keystroke	l	n/a
151.229	0.0595	302458	keystroke	o	n/a
151.3795	0.0895	302759	keystroke	g	n/a
151.529	0.075	303058	keystroke	i	n/a
151.754	0.105	303508	keystroke	c	n/a
152.024	0.105	304048	keystroke	a	n/a
152.219	0.06	304438	keystroke	l	n/a
152.4135	0.0445	304827	keystroke	Key.space	n/a
152.729	0.0905	305458	keystroke	s	n/a
152.864	0.06	305728	keystroke	o	n/a
153.059	0.075	306118	keystroke	n	n/a
153.1635	0.0905	306327	keystroke	g	n/a
153.2835	0.0895	306567	keystroke	Key.space	n/a
153.778	0.09	307556	keystroke	v	n/a
153.9135	0.0755	307827	keystroke	i	n/a
154.063	0.0915	308126	keystroke	s	n/a
154.1695	0.134	308339	keystroke	i	n/a
154.3185	0.0755	308637	keystroke	o	n/a
154.528	0.076	309056	keystroke	n	n/a
154.874	0.06	309748	keystroke	Key.enter	n/a
154.941	9.414	309882	prompt	n/a	mention becoming relocation restrictions\n
155.759	0.0745	311518	keystroke	m	n/a
155.9545	0.089	311909	keystroke	e	n/a
156.0585	0.0905	312117	keystroke	n	n/a
156.2085	0.0755	312417	keystroke	t	n/a
156.3135	0.135	312627	keystroke	i	n/a
156.4335	0.0605	312867	keystroke	o	n/a
156.614	0.0745	313228	keystroke	n	n/a
156.7035	0.075	313407	keystroke	Key.space	n/a
156.8985	0.0755	313797	keystroke	e	n/a
157.3185	0.0745	314637	keystroke	Key.backspace	n/a
158.2185	0.0755	316437	keystroke	b	n/a
158.3085	0.0605	316617	keystroke	e	n/a
158.4885	0.0895	316977	keystroke	c	n/a
158.609	0.09	317218	keystroke	o	n/a
158.759	0.1055	317518	keystroke	m	n/a
158.999	0.105	317998	keystroke	i	n/a
159.119	0.09	318238	keystroke	n	n/a
159.254	0.06	318508	keystroke	g	n/a
159.404	0.075	318808	keystroke	Key.space	n/a
160.424	0.0745	320848	keystroke	r	n/a
160.5735	0.09	321147	keystroke	e	n/a
160.6935	0.061	321387	keystroke	l	n/a
160.8745	0.0745	321749	keystroke	o	n/a
160.964	0.105	321928	keystroke	c	n/a
161.099	0.135	322198	keystroke	a	n/a
161.294	0.075	322588	keystroke	t	n/a
161.384	0.135	322768	keystroke	i	n/a
161.4885	0.076	322977	keystroke	o	n/a
161.714	0.0905	323428	keystroke	n	n/a
161.8345	0.089	323669	keystroke	Key.space	n/a
162.0735	0.1355	324147	keystroke	r	n/a
162.193	0.1205	324386	keystroke	e	n/a
162.419	0.105	324838	keystroke	s	n/a
162.929	0.0895	325858	keystroke	t	n/a
163.1085	0.06	326217	keystroke	r	n/a
163.2285	0.09	326457	keystroke	i	n/a
163.3635	0.0755	326727	keystroke	c	n/a
163.574	0.075	327148	keystroke	t	n/a
163.664	0.1345	327328	keystroke	i	n/a
163.7685	0.0605	327537	keystroke	o	n/a
163.9635	0.06	327927	keystroke	n	n/a
164.039	0.0895	328078	keystroke	s	n/a
164.3085	0.045	328617	keystroke	Key.enter	n/a
164.3595	8.801	328719	prompt	n/a	balance attempting bring entertainment\n
165.1785	0.0605	330357	keystroke	b	n/a
165.314	0.075	330628	keystroke	a	n/a
165.779	0.075	331558	keystroke	l	n/a
165.9585	0.09	331917	keystroke	a	n/a
166.244	0.0895	332488	keystroke	n	n/a
166.3935	0.1205	332787	keystroke	c	n/a
166.4985	0.105	332997	keystroke	e	n/a
166.6485	0.075	333297	keystroke	Key.space	n/a
167.009	0.09	334018	keystroke	a	n/a
167.264	0.0595	334528	keystroke	t	n/a
167.3845	0.089	334769	keystroke	t	n/a
167.5185	0.09	335037	keystroke	e	n/a
167.669	0.0745	335338	keystroke	m	n/a
167.9985	0.075	335997	keystroke	p	n/a
168.134	0.075	336268	keystroke	t	n/a
168.299	0.18	336598	keystroke	i	n/a
168.524	0.075	337048	keystroke	n	n/a
168.6745	0.0895	337349	keystroke	g	n/a
168.8385	0.075	337677	keystroke	Key.space	n/a
169.184	0.0905	338368	keystroke	b	n/a
169.2885	0.105	338577	keystroke	r	n/a
169.424	0.105	338848	keystroke	i	n/a
169.499	0.105	338998	keystroke	n	n/a
169.633	0.106	339266	keystroke	g	n/a
169.7535	0.09	339507	keystroke	Key.space	n/a
170.1735	0.105	340347	keystroke	e	n/a
170.309	0.09	340618	keystroke	n	n/a
170.458	0.0915	340916	keystroke	t	n/a
170.624	0.135	341248	keystroke	e	n/a
170.774	0.105	341548	keystroke	r	n/a
171.059	0.075	342118	keystroke	t	n/a
171.3585	0.09	342717	keystroke	a	n/a
171.4935	0.09	342987	keystroke	i	n/a
171.614	0.09	343228	keystroke	n	n/a
172.214	0.09	344428	keystroke	m	n/a
172.3335	0.1055	344667	keystroke	e	n/a
172.4985	0.0895	344997	keystroke	n	n/a
172.6195	0.1045	345239	keystroke	t	n/a
172.829	0.09	345658	keystroke	Key.space	n/a
173.0685	0.0905	346137	keystroke	Key.enter	n/a
173.165	10.4055	346330	prompt	n/a	goes sentence adventures submit\n
173.999	0.075	347998	keystroke	a	n/a
174.779	0.06	349558	keystroke	Key.backspace	n/a
175.0785	0.075	350157	keystroke	g	n/a
175.288	0.061	350576	keystroke	o	n/a
175.394	0.1195	350788	keystroke	e	n/a
175.529	0.09	351058	keystroke	s	n/a
175.6635	0.09	351327	keystroke	Key.space	n/a
175.949	0.105	351898	keystroke	s	n/a
176.099	0.0755	352198	keystroke	e	n/a
176.219	0.075	352438	keystroke	n	n/a
176.489	0.075	352978	keystroke	t	n/a
176.594	0.105	353188	keystroke	e	n/a
176.789	0.075	353578	keystroke	n	n/a
176.999	0.105	353998	keystroke	c	n/a
177.134	0.1045	354268	keystroke	e	n/a
177.389	0.075	354778	keystroke	s	n/a
177.5085	0.09	355017	keystroke	Key.space	n/a
177.854	0.12	355708	keystroke	a	n/a
178.064	0.09	356128	keystroke	d	n/a
178.289	0.0895	356578	keystroke	v	n/a
178.4835	0.075	356967	keystroke	e	n/a
178.589	0.09	357178	keystroke	n	n/a
178.739	0.09	357478	keystroke	t	n/a
178.919	0.075	357838	keystroke	u	n/a
179.069	0.105	358138	keystroke	e	n/a
179.489	0.0455	358978	keystroke	r	n/a
179.834	0.12	359668	keystroke	Key.backspace	n/a
180.103	0.045	360206	keystroke	Key.backspace	n/a
180.224	0.105	360448	keystroke	r	n/a
180.329	0.0895	360658	keystroke	e	n/a
180.779	0.075	361558	keystroke	s	n/a
181.244	0.0895	362488	keystroke	Key.space	n/a
181.6935	0.135	363387	keystroke	a	n/a
182.039	0.045	364078	keystroke	Key.backspace	n/a
182.2035	0.091	364407	keystroke	s	n/a
182.504	0.09	365008	keystroke	u	n/a
182.684	0.0905	365368	keystroke	b	n/a
182.9245	0.119	365849	keystroke	m	n/a
183.0285	0.09	366057	keystroke	i	n/a
183.1345	0.104	366269	keystroke	t	n/a
183.5235	0.045	367047	keystroke	Key.enter	n/a
183.5755	8.305	367151	prompt	n/a	likely appliance logo roof\n
184.4545	0.1195	368909	keystroke	l	n/a
184.559	0.09	369118	keystroke	i	n/a
184.739	0.105	369478	keystroke	k	n/a
185.039	0.075	370078	keystroke	e	n/a
185.339	0.1045	370678	keystroke	l	n/a
185.5795	0.0895	371159	keystroke	y	n/a
185.819	0.075	371638	keystroke	Key.space	n/a
185.984	0.09	371968	keystroke	a	n/a
186.104	0.075	372208	keystroke	p	n/a
186.239	0.06	372478	keystroke	p	n/a
186.4345	0.0595	372869	keystroke	l	n/a
186.644	0.0755	373288	keystroke	i	n/a
186.839	0.1195	373678	keystroke	a	n/a
187.0185	0.09	374037	keystroke	n	n/a
187.1835	0.1055	374367	keystroke	c	n/a
187.274	0.1045	374548	keystroke	e	n/a
187.574	0.0895	375148	keystroke	Key.space	n/a
187.919	0.0745	375838	keystroke	l	n/a
188.1735	0.09	376347	keystroke	g	n/a
188.939	0.045	377878	keystroke	Key.backspace	n/a
189.809	0.09	379618	keystroke	o	n/a
189.929	0.0905	379858	keystroke	g	n/a
190.079	0.06	380158	keystroke	o	n/a
190.304	0.0895	380608	keystroke	Key.space	n/a
190.5135	0.076	381027	keystroke	r	n/a
190.6185	0.09	381237	keystroke	o	n/a
190.7695	0.09	381539	keystroke	o	n/a
191.5935	0.0755	383187	keystroke	f	n/a
191.8335	0.0455	383667	keystroke	Key.enter	n/a
191.8845	12.1165	383769	prompt	n/a	marshall mainstream productivity cloud\n
192.7045	0.0745	385409	keystroke	m	n/a
192.794	0.1205	385588	keystroke	a	n/a
192.929	0.105	385858	keystroke	r	n/a
193.154	0.105	386308	keystroke	s	n/a
193.334	0.06	386668	keystroke	h	n/a
193.454	0.0755	386908	keystroke	a	n/a
193.619	0.0445	387238	keystroke	l	n/a
193.754	0.0745	387508	keystroke	l	n/a
193.8585	0.105	387717	keystroke	Key.space	n/a
194.054	0.0905	388108	keystroke	m	n/a
194.1745	0.089	388349	keystroke	a	n/a
197.386	0.1185	394772	keystroke	i	n/a
197.4445	0.12	394889	keystroke	n	n/a
198.1195	0.059	396239	keystroke	s	n/a
198.3135	0.0905	396627	keystroke	t	n/a
198.5395	0.075	397079	keystroke	r	n/a
198.689	0.12	397378	keystroke	e	n/a
198.854	0.09	397708	keystroke	a	n/a
199.049	0.105	398098	keystroke	m	n/a
199.214	0.075	398428	keystroke	Key.space	n/a
199.4545	0.074	398909	keystroke	p	n/a
199.5595	0.0895	399119	keystroke	r	n/a
199.7235	0.076	399447	keystroke	o	n/a
199.8295	0.1045	399659	keystroke	d	n/a
200.009	0.0905	400018	keystroke	u	n/a
200.114	0.0905	400228	keystroke	c	n/a
200.3845	0.059	400769	keystroke	t	n/a
200.5645	0.074	401129	keystroke	i	n/a
200.8035	0.1505	401607	keystroke	v	n/a
200.969	0.075	401938	keystroke	i	n/a
201.194	0.0455	402388	keystroke	t	n/a
201.434	0.0755	402868	keystroke	y	n/a
201.644	0.075	403288	keystroke	Key.space	n/a
202.424	0.0905	404848	keystroke	c	n/a
202.559	0.075	405118	keystroke	l	n/a
202.739	0.09	405478	keystroke	o	n/a
202.9045	0.09	405809	keystroke	u	n/a
203.0245	0.09	406049	keystroke	d	n/a
203.939	0.06	407878	keystroke	Key.enter	n/a
204.0105	6.846	408021	prompt	n/a	ventures since weights stream\n
204.794	0.09	409588	keystroke	v	n/a
204.944	0.075	409888	keystroke	e	n/a
205.079	0.09	410158	keystroke	n	n/a
205.259	0.0895	410518	keystroke	t	n/a
205.3935	0.075	410787	keystroke	u	n/a
205.4995	0.0895	410999	keystroke	r	n/a
205.664	0.1045	411328	keystroke	e	n/a
205.8745	0.0895	411749	keystroke	s	n/a
205.979	0.105	411958	keystroke	Key.space	n/a
206.099	0.1055	412198	keystroke	s	n/a
206.234	0.135	412468	keystroke	i	n/a
206.3395	0.12	412679	keystroke	n	n/a
206.444	0.12	412888	keystroke	c	n/a
206.549	0.1205	413098	keystroke	e	n/a
206.699	0.09	413398	keystroke	Key.space	n/a
206.804	0.075	413608	keystroke	w	n/a
207.179	0.1045	414358	keystroke	e	n/a
207.989	0.075	415978	keystroke	i	n/a
208.169	0.06	416338	keystroke	g	n/a
208.289	0.0905	416578	keystroke	h	n/a
208.3935	0.075	416787	keystroke	t	n/a
208.5445	0.09	417089	keystroke	s	n/a
208.709	0.09	417418	keystroke	Key.space	n/a
209.0245	0.105	418049	keystroke	s	n/a
209.2345	0.119	418469	keystroke	t	n/a
209.4745	0.09	418949	keystroke	r	n/a
209.6695	0.135	419339	keystroke	e	n/a
209.8195	0.105	419639	keystroke	a	n/a
210.374	0.0595	420748	keystroke	m	n/a
210.794	0.0595	421588	keystroke	Key.enter	n/a
210.8615	12.129	421723	prompt	n/a	acknowledge movers porter trained\n
211.6045	0.0895	423209	keystroke	a	n/a
211.829	0.075	423658	keystroke	c	n/a
211.964	0.09	423928	keystroke	k	n/a
212.144	0.06	424288	keystroke	o	n/a
212.6545	0.075	425309	keystroke	Key.backspace	n/a
213.5245	0.0595	427049	keystroke	n	n/a
213.689	0.075	427378	keystroke	o	n/a
213.824	0.06	427648	keystroke	w	n/a
214.0045	0.06	428009	keystroke	l	n/a
215.1595	0.0745	430319	keystroke	e	n/a
215.3835	0.076	430767	keystroke	d	n/a
216.0745	0.075	432149	keystroke	g	n/a
216.1945	0.075	432389	keystroke	e	n/a
216.6585	0.0755	433317	keystroke	Key.space	n/a
216.899	0.0745	433798	keystroke	m	n/a
217.094	0.0595	434188	keystroke	o	n/a
217.2135	0.1205	434427	keystroke	v	n/a
217.424	0.135	434848	keystroke	e	n/a
217.5745	0.1045	435149	keystroke	r	n/a
217.7845	0.0905	435569	keystroke	s	n/a
217.9185	0.09	435837	keystroke	Key.space	n/a
218.1595	0.0145	436319	keystroke	p	n/a
218.669	0.0895	437338	keystroke	r	n/a
218.8795	0.09	437759	keystroke	t	n/a
219.749	0.0745	439498	keystroke	Key.backspace	n/a
219.9285	0.0605	439857	keystroke	Key.backspace	n/a
220.4235	0.076	440847	keystroke	o	n/a
220.5585	0.075	441117	keystroke	r	n/a
220.7545	0.06	441509	keystroke	t	n/a
220.964	0.12	441928	keystroke	e	n/a
221.084	0.105	442168	keystroke	r	n/a
221.234	0.1055	442468	keystroke	Key.space	n/a
221.6095	0.09	443219	keystroke	t	n/a
221.8635	0.106	443727	keystroke	r	n/a
222.0595	0.134	444119	keystroke	a	n/a
222.2235	0.1655	444447	keystroke	i	n/a
222.3435	0.1055	444687	keystroke	n	n/a
222.4945	0.075	444989	keystroke	e	n/a
222.7035	0.091	445407	keystroke	d	n/a
222.929	0.0595	445858	keystroke	Key.enter	n/a
222.9945	7.662	445989	prompt	n/a	folks functions iron licking\n
223.9495	0.075	447899	keystroke	f	n/a
224.069	0.09	448138	keystroke	o	n/a
224.264	0.09	448528	keystroke	l	n/a
224.4745	0.074	448949	keystroke	k	n/a
224.5945	0.09	449189	keystroke	s	n/a
224.7285	0.09	449457	keystroke	Key.space	n/a
224.9845	0.09	449969	keystroke	f	n/a
225.1035	0.09	450207	keystroke	u	n/a
225.3295	0.0745	450659	keystroke	n	n/a
225.419	0.1055	450838	keystroke	c	n/a
225.629	0.0755	451258	keystroke	t	n/a
225.7345	0.12	451469	keystroke	i	n/a
225.8245	0.074	451649	keystroke	o	n/a
226.0645	0.0595	452129	keystroke	n	n/a
226.1995	0.0895	452399	keystroke	s	n/a
226.4545	0.075	452909	keystroke	Key.space	n/a
226.7995	0.09	453599	keystroke	i	n/a
226.9045	0.075	453809	keystroke	r	n/a
227.0245	0.06	454049	keystroke	o	n/a
227.2195	0.09	454439	keystroke	n	n/a
227.3245	0.09	454649	keystroke	Key.space	n/a
227.4745	0.135	454949	keystroke	l	n/a
227.5795	0.105	455159	keystroke	i	n/a
227.8345	0.09	455669	keystroke	c	n/a
227.9695	0.0745	455939	keystroke	k	n/a
228.1635	0.076	456327	keystroke	i	n/a
228.3885	0.061	456777	keystroke	n	n/a
228.554	0.09	457108	keystroke	g	n/a
229.0945	0.0445	458189	keystroke	\	n/a
230.309	0.03	460618	keystroke	Key.backspace	n/a
230.594	0.06	461188	keystroke	Key.enter	n/a
230.661	17.6055	461322	prompt	n/a	territory accident involvement matter\n
231.5845	0.0745	463169	keystroke	t	n/a
231.749	0.105	463498	keystroke	e	n/a
231.8845	0.0595	463769	keystroke	r	n/a
232.0045	0.0895	464009	keystroke	r	n/a
232.124	0.091	464248	keystroke	i	n/a
232.275	0.105	464550	keystroke	r	n/a
232.664	0.0755	465328	keystroke	t	n/a
233.054	0.075	466108	keystroke	Key.backspace	n/a
233.204	0.0905	466408	keystroke	Key.backspace	n/a
233.31	0.104	466620	keystroke	t	n/a
233.5045	0.0745	467009	keystroke	o	n/a
233.609	0.09	467218	keystroke	r	n/a
233.819	0.105	467638	keystroke	i	n/a
234.0445	0.09	468089	keystroke	t	n/a
234.239	0.075	468478	keystroke	y	n/a
234.4945	0.0745	468989	keystroke	Key.space	n/a
234.929	0.1055	469858	keystroke	a	n/a
237.331	0.0435	474662	keystroke	Key.backspace	n/a
237.464	0.06	474928	keystroke	Key.backspace	n/a
237.629	0.075	475258	keystroke	Key.backspace	n/a
237.809	0.075	475618	keystroke	Key.backspace	n/a
237.9895	0.045	475979	keystroke	Key.backspace	n/a
239.2195	0.075	478439	keystroke	y	n/a
239.3395	0.105	478679	keystroke	Key.space	n/a
239.7595	0.105	479519	keystroke	a	n/a
239.9995	0.0745	479999	keystroke	c	n/a
240.1345	0.09	480269	keystroke	c	n/a
240.2695	0.09	480539	keystroke	i	n/a
240.4045	0.0895	480809	keystroke	d	n/a
240.584	0.0905	481168	keystroke	e	n/a
240.7495	0.105	481499	keystroke	n	n/a
240.914	0.09	481828	keystroke	t	n/a
241.094	0.0755	482188	keystroke	Key.space	n/a
241.649	0.135	483298	keystroke	i	n/a
241.7995	0.1195	483599	keystroke	n	n/a
241.979	0.09	483958	keystroke	v	n/a
242.174	0.06	484348	keystroke	o	n/a
242.354	0.0905	484708	keystroke	l	n/a
242.894	0.0905	485788	keystroke	v	n/a
243.9445	0.074	487889	keystroke	e	n/a
244.8435	0.061	489687	keystroke	m	n/a
244.9345	0.105	489869	keystroke	e	n/a
245.0545	0.09	490109	keystroke	n	n/a
245.1895	0.075	490379	keystroke	t	n/a
245.7295	0.105	491459	keystroke	Key.space	n/a
246.134	0.0755	492268	keystroke	m	n/a
246.2385	0.121	492477	keystroke	a	n/a
246.4645	0.044	492929	keystroke	t	n/a
246.5835	0.076	493167	keystroke	t	n/a
246.7345	0.1045	493469	keystroke	e	n/a
246.825	0.089	493650	keystroke	r	n/a
246.9595	0.0745	493919	keystroke	\	n/a
247.8885	0.0455	495777	keystroke	Key.backspace	n/a
248.204	0.06	496408	keystroke	Key.enter	n/a
248.2715	8.23	496543	prompt	n/a	floral demonstrated equipped board\n
249.3445	0.074	498689	keystroke	f	n/a
249.4495	0.074	498899	keystroke	l	n/a
249.614	0.075	499228	keystroke	o	n/a
249.8835	0.136	499767	keystroke	r	n/a
250.0495	0.119	500099	keystroke	a	n/a
250.184	0.0745	500368	keystroke	l	n/a
250.3185	0.091	500637	keystroke	Key.space	n/a
250.544	0.09	501088	keystroke	d	n/a
250.7095	0.0895	501419	keystroke	e	n/a
250.844	0.09	501688	keystroke	m	n/a
251.0245	0.0595	502049	keystroke	o	n/a
251.1895	0.075	502379	keystroke	n	n/a
251.2795	0.105	502559	keystroke	s	n/a
251.445	0.0895	502890	keystroke	t	n/a
251.624	0.1355	503248	keystroke	r	n/a
251.789	0.105	503578	keystroke	a	n/a
251.939	0.09	503878	keystroke	t	n/a
252.239	0.0755	504478	keystroke	e	n/a
252.419	0.075	504838	keystroke	d	n/a
252.5235	0.105	505047	keystroke	Key.space	n/a
252.9895	0.105	505979	keystroke	e	n/a
253.1995	0.075	506399	keystroke	q	n/a
253.4245	0.075	506849	keystroke	u	n/a
253.5885	0.091	507177	keystroke	i	n/a
253.8745	0.09	507749	keystroke	p	n/a
254.084	0.0755	508168	keystroke	p	n/a
254.2495	0.0745	508499	keystroke	e	n/a
254.4145	0.0905	508829	keystroke	d	n/a
254.5635	0.106	509127	keystroke	Key.space	n/a
254.8945	0.0905	509789	keystroke	b	n/a
255.119	0.06	510238	keystroke	o	n/a
255.27	0.089	510540	keystroke	a	n/a
255.419	0.06	510838	keystroke	r	n/a
255.5995	0.0745	511199	keystroke	d	n/a
256.454	0.0455	512908	keystroke	Key.enter	n/a
256.5055	11.3655	513011	prompt	n/a	transfers affordable tears crisis\n
257.369	0.09	514738	keystroke	t	n/a
257.549	0.105	515098	keystroke	r	n/a
257.684	0.1205	515368	keystroke	a	n/a
257.9545	0.075	515909	keystroke	n	n/a
258.209	0.0755	516418	keystroke	s	n/a
258.5845	0.12	517169	keystroke	f	n/a
258.794	0.12	517588	keystroke	e	n/a
258.9295	0.0905	517859	keystroke	r	n/a
259.185	0.089	518370	keystroke	s	n/a
259.364	0.09	518728	keystroke	Key.space	n/a
259.575	0.1045	519150	keystroke	a	n/a
259.7395	0.044	519479	keystroke	d	n/a
260.909	0.045	521818	keystroke	Key.backspace	n/a
261.1945	0.06	522389	keystroke	f	n/a
261.33	0.1045	522660	keystroke	f	n/a
261.4645	0.105	522929	keystroke	o	n/a
261.5845	0.09	523169	keystroke	r	n/a
261.959	0.09	523918	keystroke	d	n/a
262.244	0.1055	524488	keystroke	a	n/a
262.409	0.0905	524818	keystroke	b	n/a
262.665	0.074	525330	keystroke	l	n/a
262.8145	0.0755	525629	keystroke	e	n/a
262.9345	0.105	525869	keystroke	Key.space	n/a
263.2345	0.06	526469	keystroke	t	n/a
263.5035	0.225	527007	keystroke	e	n/a
263.7145	0.165	527429	keystroke	a	n/a
263.9235	0.121	527847	keystroke	r	n/a
264.194	0.0895	528388	keystroke	s	n/a
264.464	0.09	528928	keystroke	Key.space	n/a
264.704	0.06	529408	keystroke	a	n/a
265.019	0.06	530038	keystroke	Key.backspace	n/a
265.1395	0.1195	530279	keystroke	c	n/a
265.3645	0.0755	530729	keystroke	r	n/a
265.5145	0.075	531029	keystroke	i	n/a
265.6645	0.06	531329	keystroke	s	n/a
265.7995	0.075	531599	keystroke	s	n/a
265.934	0.09	531868	keystroke	i	n/a
266.429	0.0605	532858	keystroke	Key.backspace	n/a
266.594	0.045	533188	keystroke	Key.backspace	n/a
267.419	0.0755	534838	keystroke	i	n/a
267.5235	0.091	535047	keystroke	s	n/a
267.8245	0.045	535649	keystroke	Key.enter	n/a
267.8755	14.2605	535751	prompt	n/a	instances pontiac expenses upload\n
268.8735	0.121	537747	keystroke	i	n/a
268.9645	0.104	537929	keystroke	n	n/a
269.0535	0.09	538107	keystroke	s	n/a
269.2345	0.09	538469	keystroke	t	n/a
269.3535	0.1055	538707	keystroke	a	n/a
269.5195	0.0605	539039	keystroke	n	n/a
270.0295	0.1345	540059	keystroke	c	n/a
270.165	0.104	540330	keystroke	e	n/a
270.434	0.075	540868	keystroke	s	n/a
270.539	0.09	541078	keystroke	Key.space	n/a
270.794	0.0755	541588	keystroke	p	n/a
271.094	0.09	542188	keystroke	n	n/a
271.3345	0.075	542669	keystroke	t	n/a
271.5295	0.06	543059	keystroke	i	n/a
271.724	0.1055	543448	keystroke	a	n/a
272.1745	0.09	544349	keystroke	Key.backspace	n/a
272.4135	0.045	544827	keystroke	Key.backspace	n/a
272.6085	0.061	545217	keystroke	Key.backspace	n/a
273.119	0.045	546238	keystroke	Key.backspace	n/a
273.599	0.0455	547198	keystroke	o	n/a
273.7795	0.06	547559	keystroke	n	n/a
273.929	0.075	547858	keystroke	t	n/a
274.095	0.1345	548190	keystroke	a	n/a
274.7095	0.1045	549419	keystroke	Key.backspace	n/a
275.309	0.0755	550618	keystroke	i	n/a
275.4445	0.1345	550889	keystroke	a	n/a
275.8795	0.1055	551759	keystroke	c	n/a
276.0445	0.105	552089	keystroke	Key.space	n/a
276.3445	0.075	552689	keystroke	e	n/a
276.6895	0.075	553379	keystroke	p	n/a
277.1995	0.09	554399	keystroke	Key.backspace	n/a
277.5745	0.0595	555149	keystroke	x	n/a
277.784	0.0755	555568	keystroke	p	n/a
278.0395	0.0755	556079	keystroke	e	n/a
278.2185	0.09	556437	keystroke	n	n/a
278.3545	0.12	556709	keystroke	s	n/a
278.5345	0.105	557069	keystroke	e	n/a
278.6545	0.105	557309	keystroke	s	n/a
279.0295	0.075	558059	keystroke	Key.space	n/a
279.3745	0.045	558749	keystroke	y	n/a
279.3895	0.015	558779	keystroke	u	n/a
279.854	0.09	559708	keystroke	Key.backspace	n/a
280.1695	0.06	560339	keystroke	Key.backspace	n/a
280.829	0.1055	561658	keystroke	u	n/a
281.0095	0.0605	562019	keystroke	p	n/a
281.2035	0.076	562407	keystroke	l	n/a
281.3845	0.06	562769	keystroke	o	n/a
281.4595	0.165	562919	keystroke	a	n/a
281.625	0.1045	563250	keystroke	d	n/a
282.0745	0.059	564149	keystroke	Key.enter	n/a
282.1405	9.8055	564281	prompt	n/a	pichunter creating worried anytime\n
283.125	0.0595	566250	keystroke	p	n/a
283.3195	0.06	566639	keystroke	i	n/a
283.4845	0.09	566969	keystroke	c	n/a
283.635	0.1195	567270	keystroke	h	n/a
283.7555	0.0895	567511	keystroke	u	n/a
283.9195	0.075	567839	keystroke	n	n/a
284.055	0.1195	568110	keystroke	t	n/a
284.2345	0.135	568469	keystroke	e	n/a
284.355	0.0885	568710	keystroke	r	n/a
284.5345	0.09	569069	keystroke	Key.space	n/a
284.9385	0.106	569877	keystroke	c	n/a
285.18	0.0745	570360	keystroke	r	n/a
285.3745	0.18	570749	keystroke	e	n/a
285.524	0.1355	571048	keystroke	a	n/a
285.735	0.089	571470	keystroke	t	n/a
286.0045	0.1195	572009	keystroke	i	n/a
286.1095	0.1045	572219	keystroke	n	n/a
286.2295	0.0745	572459	keystroke	g	n/a
286.364	0.09	572728	keystroke	Key.space	n/a
286.6495	0.105	573299	keystroke	q	n/a
286.889	0.06	573778	keystroke	o	n/a
287.324	0.075	574648	keystroke	Key.backspace	n/a
287.4895	0.0595	574979	keystroke	Key.backspace	n/a
287.639	0.1055	575278	keystroke	w	n/a
287.8495	0.075	575699	keystroke	o	n/a
287.955	0.0895	575910	keystroke	r	n/a
288.1195	0.09	576239	keystroke	r	n/a
288.2845	0.0905	576569	keystroke	i	n/a
288.494	0.091	576988	keystroke	e	n/a
288.704	0.076	577408	keystroke	d	n/a
288.825	0.0745	577650	keystroke	Key.space	n/a
289.0045	0.0905	578009	keystroke	a	n/a
289.169	0.0905	578338	keystroke	n	n/a
289.424	0.0755	578848	keystroke	y	n/a
289.545	0.089	579090	keystroke	t	n/a
289.9045	0.0895	579809	keystroke	i	n/a
290.129	0.091	580258	keystroke	m	n/a
290.2495	0.075	580499	keystroke	e	n/a
290.5345	0.0295	581069	keystroke	\	n/a
291.584	0.06	583168	keystroke	Key.backspace	n/a
291.8995	0.0445	583799	keystroke	Key.enter	n/a
291.9495	8.5165	583899	prompt	n/a	cart reported imports suspect\n
292.7545	0.12	585509	keystroke	c	n/a
292.9045	0.135	585809	keystroke	a	n/a
293.0845	0.075	586169	keystroke	r	n/a
293.2345	0.075	586469	keystroke	t	n/a
293.3695	0.089	586739	keystroke	Key.space	n/a
293.5795	0.075	587159	keystroke	r	n/a
293.775	0.0895	587550	keystroke	e	n/a
294.0145	0.06	588029	keystroke	p	n/a
294.0445	0.1345	588089	keystroke	o	n/a
294.2695	0.09	588539	keystroke	r	n/a
294.4345	0.1045	588869	keystroke	t	n/a
294.614	0.0905	589228	keystroke	s	n/a
295.1845	0.09	590369	keystroke	Key.backspace	n/a
295.3345	0.09	590669	keystroke	e	n/a
295.5445	0.09	591089	keystroke	d	n/a
295.7545	0.09	591509	keystroke	Key.space	n/a
296.6395	0.0605	593279	keystroke	i	n/a
296.849	0.06	593698	keystroke	m	n/a
297.089	0.105	594178	keystroke	p	n/a
297.149	0.105	594298	keystroke	o	n/a
297.269	0.09	594538	keystroke	r	n/a
297.434	0.12	594868	keystroke	t	n/a
297.614	0.091	595228	keystroke	s	n/a
297.8245	0.0595	595649	keystroke	Key.space	n/a
298.095	0.255	596190	keystroke	s	n/a
298.5295	0.1045	597059	keystroke	u	n/a
298.7545	0.0905	597509	keystroke	s	n/a
299.4445	0.06	598889	keystroke	p	n/a
299.5335	0.076	599067	keystroke	e	n/a
299.775	0.0745	599550	keystroke	c	n/a
299.955	0.0745	599910	keystroke	t	n/a
300.3595	0.1045	600719	keystroke	Key.enter	n/a
300.4695	7.362	600939	prompt	n/a	lightbox bingo mariah efforts\n
301.4545	0.0145	602909	keystroke	l	n/a
301.8145	0.075	603629	keystroke	i	n/a
301.9195	0.09	603839	keystroke	g	n/a
302.0995	0.0605	604199	keystroke	h	n/a
302.1745	0.06	604349	keystroke	t	n/a
302.3995	0.0755	604799	keystroke	b	n/a
302.639	0.031	605278	keystroke	o	n/a
302.745	0.0745	605490	keystroke	x	n/a
303.2395	0.09	606479	keystroke	Key.space	n/a
303.5395	0.0755	607079	keystroke	b	n/a
303.7495	0.105	607499	keystroke	i	n/a
303.87	0.0745	607740	keystroke	n	n/a
303.975	0.105	607950	keystroke	g	n/a
304.1845	0.06	608369	keystroke	o	n/a
304.4995	0.09	608999	keystroke	Key.space	n/a
304.7395	0.0745	609479	keystroke	m	n/a
304.889	0.1355	609778	keystroke	a	n/a
305.0845	0.0755	610169	keystroke	r	n/a
305.234	0.1055	610468	keystroke	i	n/a
305.3845	0.105	610769	keystroke	a	n/a
305.5495	0.0755	611099	keystroke	h	n/a
305.8945	0.09	611789	keystroke	Key.space	n/a
306.2995	0.06	612599	keystroke	e	n/a
306.5095	0.0755	613019	keystroke	f	n/a
306.645	0.0895	613290	keystroke	f	n/a
306.81	0.075	613620	keystroke	o	n/a
307.1245	0.1495	614249	keystroke	r	n/a
307.379	0.0755	614758	keystroke	t	n/a
307.53	0.09	615060	keystroke	s	n/a
307.739	0.0905	615478	keystroke	Key.enter	n/a
307.839	11.3925	615678	prompt	n/a	symantec component payments markers\n
308.5195	0.0895	617039	keystroke	s	n/a
308.685	0.0295	617370	keystroke	y	n/a
309.239	0.105	618478	keystroke	m	n/a
309.5245	0.09	619049	keystroke	a	n/a
309.78	0.0745	619560	keystroke	n	n/a
309.9895	0.0755	619979	keystroke	t	n/a
310.2445	0.075	620489	keystroke	e	n/a
310.514	0.075	621028	keystroke	c	n/a
310.664	0.0905	621328	keystroke	Key.space	n/a
310.98	0.044	621960	keystroke	c	n/a
311.054	0.1805	622108	keystroke	o	n/a
311.204	0.136	622408	keystroke	m	n/a
311.894	0.0755	623788	keystroke	p	n/a
313.23	0.089	626460	keystroke	o	n/a
313.604	0.12	627208	keystroke	n	n/a
313.829	0.0755	627658	keystroke	e	n/a
314.055	0.0895	628110	keystroke	n	n/a
314.19	0.075	628380	keystroke	t	n/a
314.4145	0.09	628829	keystroke	Key.space	n/a
314.8645	0.075	629729	keystroke	p	n/a
314.999	0.121	629998	keystroke	a	n/a
315.105	0.09	630210	keystroke	y	n/a
315.375	0.105	630750	keystroke	m	n/a
315.5245	0.09	631049	keystroke	e	n/a
315.675	0.09	631350	keystroke	n	n/a
315.7795	0.12	631559	keystroke	t	n/a
315.93	0.0895	631860	keystroke	s	n/a
316.1545	0.06	632309	keystroke	Key.space	n/a
316.529	0.045	633058	keystroke	n	n/a
316.634	0.09	633268	keystroke	a	n/a
317.2195	0.075	634439	keystroke	Key.backspace	n/a
317.3845	0.06	634769	keystroke	Key.backspace	n/a
317.9695	0.0905	635939	keystroke	m	n/a
318.105	0.09	636210	keystroke	a	n/a
318.254	0.061	636508	keystroke	r	n/a
318.42	0.0745	636840	keystroke	k	n/a
318.5545	0.105	637109	keystroke	e	n/a
318.6745	0.105	637349	keystroke	r	n/a
318.8695	0.09	637739	keystroke	s	n/a
319.125	0.105	638250	keystroke	Key.enter	n/a
319.236	10.525	638472	prompt	n/a	marriott huge voluntary cosmetic\n
319.8895	0.105	639779	keystroke	m	n/a
320.0095	0.0605	640019	keystroke	a	n/a
320.1605	0.059	640321	keystroke	r	n/a
320.2945	0.075	640589	keystroke	r	n/a
320.3845	0.1355	640769	keystroke	i	n/a
320.535	0.075	641070	keystroke	o	n/a
321.24	0.059	642480	keystroke	t	n/a
321.36	0.09	642720	keystroke	t	n/a
321.5245	0.105	643049	keystroke	Key.space	n/a
322.185	0.0895	644370	keystroke	h	n/a
322.3495	0.0905	644699	keystroke	u	n/a
322.605	0.0595	645210	keystroke	g	n/a
322.7395	0.075	645479	keystroke	e	n/a
322.904	0.09	645808	keystroke	Key.space	n/a
323.6545	0.0605	647309	keystroke	v	n/a
323.8195	0.075	647639	keystroke	o	n/a
324.135	0.0745	648270	keystroke	l	n/a
324.3295	0.06	648659	keystroke	u	n/a
324.5245	0.075	649049	keystroke	n	n/a
324.6295	0.1055	649259	keystroke	t	n/a
324.825	0.134	649650	keystroke	a	n/a
325.0055	0.0895	650011	keystroke	r	n/a
325.2	0.075	650400	keystroke	y	n/a
325.3795	0.0895	650759	keystroke	Key.space	n/a
325.6495	0.0445	651299	keystroke	c	n/a
326.0695	0.0755	652139	keystroke	o	n/a
326.205	0.09	652410	keystroke	s	n/a
326.459	0.0605	652918	keystroke	m	n/a
326.865	0.075	653730	keystroke	t	n/a
327.3445	0.0595	654689	keystroke	Key.backspace	n/a
327.45	0.1045	654900	keystroke	e	n/a
327.585	0.074	655170	keystroke	t	n/a
327.779	0.075	655558	keystroke	i	n/a
327.944	0.061	655888	keystroke	c	n/a
328.5	0.06	657000	keystroke	\	n/a
329.489	0.0155	658978	keystroke	Key.backspace	n/a
329.714	0.045	659428	keystroke	Key.enter	n/a
329.766	13.766	659532	prompt	n/a	spirituality convert so're cube\n
330.8245	0.0745	661649	keystroke	s	n/a
331.02	0.03	662040	keystroke	p	n/a
331.83	0.0595	663660	keystroke	i	n/a
331.9795	0.075	663959	keystroke	r	n/a
332.385	0.0895	664770	keystroke	i	n/a
332.97	0.075	665940	keystroke	t	n/a
333.405	0.09	666810	keystroke	u	n/a
333.645	0.105	667290	keystroke	a	n/a
333.78	0.15	667560	keystroke	l	n/a
333.915	0.104	667830	keystroke	i	n/a
334.2	0.015	668400	keystroke	t	n/a
334.305	0.0895	668610	keystroke	y	n/a
334.544	0.075	669088	keystroke	Key.space	n/a
334.8	0.09	669600	keystroke	c	n/a
335.205	0.135	670410	keystroke	o	n/a
335.519	0.105	671038	keystroke	n	n/a
335.745	0.0595	671490	keystroke	v	n/a
335.9395	0.135	671879	keystroke	e	n/a
336.135	0.0895	672270	keystroke	r	n/a
336.345	0.0745	672690	keystroke	t	n/a
336.464	0.121	672928	keystroke	Key.space	n/a
336.72	0.0895	673440	keystroke	c	n/a
336.8395	0.09	673679	keystroke	o	n/a
337.1705	0.104	674341	keystroke	'	n/a
337.74	0.1195	675480	keystroke	r	n/a
337.9945	0.075	675989	keystroke	e	n/a
338.205	0.09	676410	keystroke	Key.space	n/a
338.729	0.061	677458	keystroke	Key.backspace	n/a
338.91	0.06	677820	keystroke	Key.backspace	n/a
339.1495	0.0455	678299	keystroke	Key.backspace	n/a
339.5245	0.045	679049	keystroke	Key.backspace	n/a
339.689	0.075	679378	keystroke	Key.backspace	n/a
339.93	0.059	679860	keystroke	Key.backspace	n/a
340.065	0.09	680130	keystroke	s	n/a
340.215	0.09	680430	keystroke	o	n/a
340.965	0.0595	681930	keystroke	'	n/a
341.2045	0.105	682409	keystroke	r	n/a
341.3105	0.1045	682621	keystroke	e	n/a
341.475	0.1045	682950	keystroke	Key.space	n/a
341.9545	0.0755	683909	keystroke	c	n/a
342.135	0.0745	684270	keystroke	u	n/a
342.36	0.09	684720	keystroke	b	n/a
342.4945	0.076	684989	keystroke	e	n/a
343.47	0.0595	686940	keystroke	Key.enter	n/a
343.535	7.2565	687070	prompt	n/a	reload spanking positions penetration\n
344.5645	0.0605	689129	keystroke	r	n/a
344.715	0.075	689430	keystroke	e	n/a
344.8055	0.06	689611	keystroke	l	n/a
344.9705	0.0595	689941	keystroke	o	n/a
345.044	0.136	690088	keystroke	a	n/a
345.195	0.089	690390	keystroke	d	n/a
345.345	0.0895	690690	keystroke	Key.space	n/a
345.54	0.074	691080	keystroke	s	n/a
345.629	0.075	691258	keystroke	p	n/a
345.855	0.1045	691710	keystroke	a	n/a
346.005	0.1195	692010	keystroke	n	n/a
346.2	0.09	692400	keystroke	k	n/a
346.395	0.1055	692790	keystroke	i	n/a
346.515	0.09	693030	keystroke	n	n/a
346.635	0.0755	693270	keystroke	g	n/a
346.7245	0.09	693449	keystroke	Key.space	n/a
346.889	0.076	693778	keystroke	p	n/a
347.1295	0.061	694259	keystroke	o	n/a
347.2655	0.075	694531	keystroke	s	n/a
347.415	0.0595	694830	keystroke	i	n/a
347.5795	0.075	695159	keystroke	t	n/a
347.7145	0.045	695429	keystroke	i	n/a
348.12	0.06	696240	keystroke	o	n/a
348.329	0.061	696658	keystroke	n	n/a
348.45	0.09	696900	keystroke	s	n/a
348.6145	0.0745	697229	keystroke	Key.space	n/a
348.9	0.045	697800	keystroke	p	n/a
349.095	0.09	698190	keystroke	e	n/a
349.23	0.059	698460	keystroke	n	n/a
349.32	0.105	698640	keystroke	e	n/a
349.62	0.09	699240	keystroke	t	n/a
349.8	0.105	699600	keystroke	r	n/a
349.935	0.12	699870	keystroke	a	n/a
350.085	0.075	700170	keystroke	t	n/a
350.205	0.135	700410	keystroke	i	n/a
350.31	0.075	700620	keystroke	o	n/a
350.505	0.074	701010	keystroke	n	n/a
350.7295	0.06	701459	keystroke	Key.enter	n/a
350.796	8.2155	701592	prompt	n/a	then avatar culture recent\n
351.6305	0.0745	703261	keystroke	t	n/a
351.7505	0.074	703501	keystroke	h	n/a
351.8845	0.075	703769	keystroke	e	n/a
352.0355	0.0895	704071	keystroke	n	n/a
352.229	0.075	704458	keystroke	Key.space	n/a
352.349	0.106	704698	keystroke	a	n/a
352.635	0.105	705270	keystroke	v	n/a
352.845	0.09	705690	keystroke	a	n/a
353.3705	0.074	706741	keystroke	t	n/a
353.6695	0.105	707339	keystroke	a	n/a
353.8345	0.09	707669	keystroke	r	n/a
354.0145	0.09	708029	keystroke	Key.space	n/a
354.1645	0.045	708329	keystroke	s	n/a
354.8695	0.06	709739	keystroke	Key.backspace	n/a
355.2745	0.0745	710549	keystroke	c	n/a
355.9045	0.061	711809	keystroke	u	n/a
356.1895	0.0905	712379	keystroke	l	n/a
356.8195	0.09	713639	keystroke	t	n/a
357.0595	0.0755	714119	keystroke	u	n/a
357.18	0.09	714360	keystroke	r	n/a
357.4345	0.0755	714869	keystroke	e	n/a
357.5545	0.105	715109	keystroke	Key.space	n/a
357.8695	0.121	715739	keystroke	r	n/a
357.9905	0.089	715981	keystroke	e	n/a
358.2005	0.1045	716401	keystroke	c	n/a
358.3195	0.0755	716639	keystroke	e	n/a
358.425	0.09	716850	keystroke	n	n/a
358.5895	0.0905	717179	keystroke	t	n/a
358.92	0.09	717840	keystroke	Key.enter	n/a
359.0145	10.1545	718029	prompt	n/a	specifically ministers needn't space\n
359.79	0.0745	719580	keystroke	s	n/a
359.895	0.09	719790	keystroke	p	n/a
360.045	0.075	720090	keystroke	s	n/a
360.539	0.075	721078	keystroke	Key.backspace	n/a
360.99	0.089	721980	keystroke	e	n/a
361.229	0.091	722458	keystroke	c	n/a
361.4245	0.105	722849	keystroke	i	n/a
361.815	0.06	723630	keystroke	f	n/a
361.95	0.09	723900	keystroke	i	n/a
362.0255	0.105	724051	keystroke	c	n/a
362.2195	0.09	724439	keystroke	a	n/a
362.3545	0.0745	724709	keystroke	l	n/a
362.489	0.076	724978	keystroke	l	n/a
362.714	0.0765	725428	keystroke	y	n/a
362.8495	0.09	725699	keystroke	Key.space	n/a
363.0595	0.106	726119	keystroke	m	n/a
363.2245	0.105	726449	keystroke	i	n/a
363.3445	0.0905	726689	keystroke	n	n/a
363.4495	0.075	726899	keystroke	i	n/a
363.6145	0.09	727229	keystroke	s	n/a
363.78	0.1205	727560	keystroke	t	n/a
363.944	0.1505	727888	keystroke	e	n/a
364.1095	0.075	728219	keystroke	r	n/a
364.665	0.104	729330	keystroke	s	n/a
364.8145	0.1045	729629	keystroke	Key.space	n/a
365.054	0.0765	730108	keystroke	n	n/a
365.16	0.0745	730320	keystroke	e	n/a
365.2945	0.0905	730589	keystroke	e	n/a
365.565	0.06	731130	keystroke	d	n/a
366.42	0.0445	732840	keystroke	n	n/a
366.915	0.045	733830	keystroke	'	n/a
367.11	0.06	734220	keystroke	t	n/a
367.275	0.0745	734550	keystroke	Key.space	n/a
367.6045	0.0755	735209	keystroke	s	n/a
368.3845	0.0605	736769	keystroke	p	n/a
368.4605	0.1195	736921	keystroke	a	n/a
368.775	0.105	737550	keystroke	c	n/a
368.85	0.1055	737700	keystroke	e	n/a
369.06	0.104	738120	keystroke	Key.enter	n/a
369.1735	10.673	738347	prompt	n/a	beijing albert introduces patches\n
369.8855	0.0895	739771	keystroke	b	n/a
370.05	0.075	740100	keystroke	e	n/a
370.5145	0.045	741029	keystroke	i	n/a
370.875	0.1055	741750	keystroke	g	n/a
371.445	0.075	742890	keystroke	Key.backspace	n/a
371.805	0.09	743610	keystroke	j	n/a
372	0.09	744000	keystroke	i	n/a
372.24	0.06	744480	keystroke	n	n/a
373.0645	0.075	746129	keystroke	g	n/a
373.26	0.0595	746520	keystroke	Key.space	n/a
374.385	0.119	748770	keystroke	a	n/a
375.225	0.0755	750450	keystroke	l	n/a
375.4495	0.0905	750899	keystroke	b	n/a
375.6	0.0755	751200	keystroke	e	n/a
375.765	0.0895	751530	keystroke	r	n/a
375.96	0.075	751920	keystroke	t	n/a
376.0795	0.09	752159	keystroke	Key.space	n/a
376.2455	0.119	752491	keystroke	i	n/a
376.35	0.1195	752700	keystroke	n	n/a
376.4845	0.106	752969	keystroke	t	n/a
376.68	0.0595	753360	keystroke	r	n/a
376.8445	0.0905	753689	keystroke	o	n/a
377.144	0.076	754288	keystroke	d	n/a
377.2805	0.0595	754561	keystroke	u	n/a
377.37	0.105	754740	keystroke	c	n/a
377.7595	0.09	755519	keystroke	e	n/a
378.044	0.0605	756088	keystroke	s	n/a
378.239	0.09	756478	keystroke	Key.space	n/a
378.5995	0.06	757199	keystroke	p	n/a
378.7045	0.105	757409	keystroke	a	n/a
378.9	0.0745	757800	keystroke	t	n/a
379.11	0.1045	758220	keystroke	c	n/a
379.2905	0.0145	758581	keystroke	h	n/a
379.38	0.0605	758760	keystroke	e	n/a
379.575	0.09	759150	keystroke	s	n/a
379.77	0.0745	759540	keystroke	Key.enter	n/a
379.8515	7.465	759703	prompt	n/a	whom require unwrap chemicals\n
380.6845	0.075	761369	keystroke	w	n/a
380.805	0.1055	761610	keystroke	h	n/a
380.9705	0.089	761941	keystroke	o	n/a
381.1945	0.106	762389	keystroke	m	n/a
381.345	0.045	762690	keystroke	Key.space	n/a
381.525	0.06	763050	keystroke	r	n/a
381.675	0.1195	763350	keystroke	e	n/a
381.8095	0.105	763619	keystroke	q	n/a
381.9755	0.089	763951	keystroke	u	n/a
382.169	0.0615	764338	keystroke	i	n/a
382.275	0.135	764550	keystroke	r	n/a
382.395	0.09	764790	keystroke	e	n/a
382.5895	0.075	765179	keystroke	Key.space	n/a
383.0845	0.076	766169	keystroke	u	n/a
383.28	0.09	766560	keystroke	n	n/a
383.4455	0.1495	766891	keystroke	w	n/a
383.835	0.12	767670	keystroke	r	n/a
384	0.12	768000	keystroke	a	n/a
384.165	0.09	768330	keystroke	p	n/a
384.48	0.075	768960	keystroke	Key.space	n/a
385.0495	0.1205	770099	keystroke	c	n/a
385.1545	0.0755	770309	keystroke	h	n/a
385.3345	0.076	770669	keystroke	e	n/a
385.4705	0.059	770941	keystroke	m	n/a
385.785	0.075	771570	keystroke	i	n/a
385.9495	0.09	771899	keystroke	c	n/a
386.0405	0.1045	772081	keystroke	a	n/a
386.1605	0.104	772321	keystroke	l	n/a
386.3995	0.06	772799	keystroke	s	n/a
387.2545	0.06	774509	keystroke	Key.enter	n/a
387.32	10.3765	774640	prompt	n/a	below infections events zero\n
388.1245	0.0905	776249	keystroke	b	n/a
388.38	0.0445	776760	keystroke	l	n/a
388.4845	0.075	776969	keystroke	e	n/a
388.815	0.0905	777630	keystroke	o	n/a
389.264	0.076	778528	keystroke	Key.backspace	n/a
389.594	0.061	779188	keystroke	Key.backspace	n/a
389.8645	0.0595	779729	keystroke	Key.backspace	n/a
390.285	0.075	780570	keystroke	e	n/a
390.4505	0.0595	780901	keystroke	l	n/a
390.6305	0.044	781261	keystroke	o	n/a
390.75	0.0595	781500	keystroke	w	n/a
390.9595	0.075	781919	keystroke	Key.space	n/a
391.1845	0.12	782369	keystroke	i	n/a
391.2895	0.106	782579	keystroke	n	n/a
391.4095	0.1205	782819	keystroke	f	n/a
391.59	0.1045	783180	keystroke	e	n/a
391.8	0.105	783600	keystroke	c	n/a
392.04	0.06	784080	keystroke	t	n/a
392.13	0.1195	784260	keystroke	i	n/a
392.2045	0.0755	784409	keystroke	o	n/a
392.43	0.091	784860	keystroke	n	n/a
392.565	0.09	785130	keystroke	s	n/a
392.73	0.0895	785460	keystroke	Key.space	n/a
392.955	0.0595	785910	keystroke	f	n/a
393.0445	0.075	786089	keystroke	o	n/a
393.885	0.0745	787770	keystroke	Key.backspace	n/a
394.2745	0.075	788549	keystroke	Key.backspace	n/a
394.98	0.09	789960	keystroke	e	n/a
395.22	0.09	790440	keystroke	v	n/a
395.3255	0.1045	790651	keystroke	e	n/a
395.475	0.09	790950	keystroke	n	n/a
395.595	0.12	791190	keystroke	t	n/a
396.045	0.105	792090	keystroke	s	n/a
396.21	0.09	792420	keystroke	Key.space	n/a
396.495	0.0895	792990	keystroke	z	n/a
396.7345	0.0755	793469	keystroke	e	n/a
396.9	0.1055	793800	keystroke	r	n/a
397.05	0.105	794100	keystroke	o	n/a
397.65	0.044	795300	keystroke	Key.enter	n/a
397.7005	8.366	795401	prompt	n/a	swimming stuck canvas carb\n
398.34	0.09	796680	keystroke	s	n/a
398.535	0.09	797070	keystroke	w	n/a
398.76	0.06	797520	keystroke	i	n/a
398.925	0.12	797850	keystroke	m	n/a
399.315	0.09	798630	keystroke	m	n/a
399.5395	0.1045	799079	keystroke	i	n/a
399.645	0.1055	799290	keystroke	n	n/a
399.8105	0.09	799621	keystroke	g	n/a
399.9445	0.075	799889	keystroke	Key.space	n/a
400.305	0.03	800610	keystroke	t	n/a
400.8155	0.0895	801631	keystroke	Key.backspace	n/a
401.31	0.0755	802620	keystroke	s	n/a
401.52	0.075	803040	keystroke	t	n/a
401.685	0.09	803370	keystroke	u	n/a
401.82	0.075	803640	keystroke	c	n/a
401.955	0.12	803910	keystroke	k	n/a
402.075	0.104	804150	keystroke	Key.space	n/a
402.4205	0.12	804841	keystroke	c	n/a
402.6155	0.105	805231	keystroke	a	n/a
402.7505	0.074	805501	keystroke	n	n/a
402.8545	0.1655	805709	keystroke	c	n/a
403.3195	0.0755	806639	keystroke	Key.backspace	n/a
403.4555	0.1045	806911	keystroke	v	n/a
403.605	0.1355	807210	keystroke	a	n/a
403.8605	0.1045	807721	keystroke	s	n/a
404.1005	0.074	808201	keystroke	Key.space	n/a
404.3545	0.09	808709	keystroke	s	n/a
404.7305	0.0585	809461	keystroke	Key.backspace	n/a
404.9105	0.12	809821	keystroke	c	n/a
405.0145	0.1205	810029	keystroke	a	n/a
405.21	0.09	810420	keystroke	r	n/a
405.7805	0.075	811561	keystroke	b	n/a
406.0195	0.045	812039	keystroke	Key.enter	n/a
406.071	10.451	812142	prompt	n/a	sensor congressional barcelona ethical\n
406.71	0.075	813420	keystroke	s	n/a
406.8605	0.0895	813721	keystroke	e	n/a
407.0105	0.0895	814021	keystroke	n	n/a
407.145	0.105	814290	keystroke	s	n/a
407.385	0.0595	814770	keystroke	o	n/a
407.4895	0.091	814979	keystroke	r	n/a
407.6845	0.09	815369	keystroke	Key.space	n/a
408.2545	0.1055	816509	keystroke	c	n/a
408.42	0.1355	816840	keystroke	o	n/a
408.5105	0.09	817021	keystroke	n	n/a
408.6905	0.06	817381	keystroke	f	n/a
409.17	0.0595	818340	keystroke	Key.backspace	n/a
409.3055	0.104	818611	keystroke	g	n/a
409.5595	0.1055	819119	keystroke	r	n/a
409.7855	0.089	819571	keystroke	e	n/a
409.9955	0.06	819991	keystroke	s	n/a
410.1445	0.06	820289	keystroke	s	n/a
410.385	0.03	820770	keystroke	i	n/a
410.73	0.075	821460	keystroke	o	n/a
410.9105	0.0895	821821	keystroke	n	n/a
411.045	0.105	822090	keystroke	a	n/a
411.21	0.075	822420	keystroke	l	n/a
411.495	0.06	822990	keystroke	Key.space	n/a
411.915	0.0895	823830	keystroke	b	n/a
412.065	0.1205	824130	keystroke	a	n/a
412.6205	0.0595	825241	keystroke	r	n/a
413.0695	0.0605	826139	keystroke	c	n/a
413.2805	0.06	826561	keystroke	e	n/a
413.6705	0.06	827341	keystroke	l	n/a
413.91	0.0605	827820	keystroke	o	n/a
414.1355	0.075	828271	keystroke	n	n/a
414.3295	0.076	828659	keystroke	a	n/a
414.4955	0.06	828991	keystroke	Key.space	n/a
415.2755	0.09	830551	keystroke	e	n/a
415.4555	0.06	830911	keystroke	t	n/a
415.6045	0.076	831209	keystroke	h	n/a
415.7705	0.075	831541	keystroke	i	n/a
415.89	0.105	831780	keystroke	c	n/a
416.025	0.1355	832050	keystroke	a	n/a
416.1755	0.0745	832351	keystroke	l	n/a
416.4455	0.075	832891	keystroke	Key.enter	n/a
416.528	8.124	833056	prompt	n/a	venezuela detroit consoles mins\n
417.6155	0.06	835231	keystroke	v	n/a
417.7055	0.06	835411	keystroke	e	n/a
417.9005	0.075	835801	keystroke	n	n/a
418.0355	0.06	836071	keystroke	e	n/a
418.455	0.0745	836910	keystroke	z	n/a
418.68	0.075	837360	keystroke	u	n/a
418.905	0.075	837810	keystroke	e	n/a
419.055	0.09	838110	keystroke	l	n/a
419.2205	0.0895	838441	keystroke	a	n/a
419.385	0.09	838770	keystroke	Key.space	n/a
419.76	0.045	839520	keystroke	d	n/a
419.91	0.105	839820	keystroke	e	n/a
420.15	0.105	840300	keystroke	t	n/a
420.33	0.0905	840660	keystroke	r	n/a
420.5095	0.165	841019	keystroke	o	n/a
420.6305	0.12	841261	keystroke	i	n/a
420.8405	0.075	841681	keystroke	t	n/a
421.0495	0.09	842099	keystroke	Key.space	n/a
421.5305	0.1045	843061	keystroke	c	n/a
421.6505	0.149	843301	keystroke	o	n/a
421.8145	0.061	843629	keystroke	n	n/a
421.9505	0.09	843901	keystroke	s	n/a
422.055	0.0905	844110	keystroke	o	n/a
422.2505	0.0605	844501	keystroke	l	n/a
422.37	0.1055	844740	keystroke	e	n/a
422.445	0.105	844890	keystroke	s	n/a
422.6555	0.105	845311	keystroke	Key.space	n/a
422.88	0.105	845760	keystroke	m	n/a
423.06	0.165	846120	keystroke	i	n/a
423.18	0.105	846360	keystroke	n	n/a
423.4655	0.09	846931	keystroke	s	n/a
424.5905	0.06	849181	keystroke	Key.enter	n/a
424.6565	7.3455	849313	prompt	n/a	soon lauderdale arrival eugene\n
425.3255	0.09	850651	keystroke	s	n/a
425.505	0.06	851010	keystroke	o	n/a
425.6245	0.091	851249	keystroke	o	n/a
425.8645	0.076	851729	keystroke	n	n/a
426.0145	0.0755	852029	keystroke	Key.space	n/a
426.1945	0.076	852389	keystroke	l	n/a
426.3755	0.09	852751	keystroke	a	n/a
426.4955	0.09	852991	keystroke	u	n/a
426.901	0.104	853802	keystroke	d	n/a
427.1105	0.104	854221	keystroke	e	n/a
427.2895	0.075	854579	keystroke	r	n/a
427.545	0.0755	855090	keystroke	d	n/a
427.65	0.1345	855300	keystroke	a	n/a
427.9205	0.09	855841	keystroke	l	n/a
428.0405	0.0895	856081	keystroke	e	n/a
428.16	0.106	856320	keystroke	Key.space	n/a
428.28	0.1055	856560	keystroke	a	n/a
428.4755	0.075	856951	keystroke	r	n/a
428.5955	0.0895	857191	keystroke	r	n/a
428.7455	0.074	857491	keystroke	i	n/a
428.8655	0.135	857731	keystroke	v	n/a
429.1055	0.09	858211	keystroke	a	n/a
429.2255	0.09	858451	keystroke	l	n/a
429.3605	0.075	858721	keystroke	Key.space	n/a
429.96	0.09	859920	keystroke	e	n/a
430.786	0.0595	861572	keystroke	u	n/a
431.055	0.06	862110	keystroke	g	n/a
431.19	0.06	862380	keystroke	e	n/a
431.34	0.09	862680	keystroke	n	n/a
431.535	0.0605	863070	keystroke	e	n/a
431.895	0.105	863790	keystroke	Key.enter	n/a
432.006	8.4865	864012	prompt	n/a	common receive increased consecutive\n
432.706	0.0895	865412	keystroke	c	n/a
432.796	0.0895	865592	keystroke	o	n/a
432.9905	0.075	865981	keystroke	m	n/a
433.1405	0.075	866281	keystroke	m	n/a
433.2905	0.12	866581	keystroke	o	n/a
433.4255	0.0745	866851	keystroke	n	n/a
433.59	0.09	867180	keystroke	Key.space	n/a
433.7255	0.0595	867451	keystroke	r	n/a
433.86	0.06	867720	keystroke	e	n/a
434.07	0.1055	868140	keystroke	c	n/a
434.2205	0.0745	868441	keystroke	e	n/a
434.4605	0.0745	868921	keystroke	i	n/a
434.595	0.1355	869190	keystroke	v	n/a
434.731	0.0895	869462	keystroke	e	n/a
434.895	0.0895	869790	keystroke	Key.space	n/a
435.3305	0.15	870661	keystroke	i	n/a
435.4355	0.105	870871	keystroke	n	n/a
435.5555	0.105	871111	keystroke	c	n/a
435.9455	0.09	871891	keystroke	r	n/a
436.1705	0.12	872341	keystroke	e	n/a
436.3505	0.1645	872701	keystroke	a	n/a
436.53	0.075	873060	keystroke	d	n/a
437.085	0.09	874170	keystroke	Key.backspace	n/a
437.2655	0.1045	874531	keystroke	s	n/a
437.4305	0.09	874861	keystroke	e	n/a
437.6255	0.09	875251	keystroke	d	n/a
437.7895	0.105	875579	keystroke	Key.space	n/a
438.2705	0.09	876541	keystroke	c	n/a
438.4055	0.1345	876811	keystroke	o	n/a
438.48	0.105	876960	keystroke	n	n/a
438.645	0.121	877290	keystroke	s	n/a
438.8855	0.1045	877771	keystroke	e	n/a
439.1705	0.0145	878341	keystroke	r	n/a
439.32	0.106	878640	keystroke	c	n/a
439.5905	0.06	879181	keystroke	u	n/a
439.7255	0.105	879451	keystroke	t	n/a
439.8455	0.1195	879691	keystroke	i	n/a
440.0105	0.1205	880021	keystroke	v	n/a
440.2355	0.06	880471	keystroke	e	n/a
440.4155	0.075	880831	keystroke	Key.enter	n/a
440.4965	13.2405	880993	prompt	n/a	portsmouth vulnerable structures naughty\n
441.795	0.09	883590	keystroke	p	n/a
442.05	0.075	884100	keystroke	o	n/a
442.231	0.0745	884462	keystroke	s	n/a
442.5755	0.06	885151	keystroke	Key.backspace	n/a
442.725	0.1055	885450	keystroke	r	n/a
442.965	0.1205	885930	keystroke	t	n/a
443.8355	0.0755	887671	keystroke	s	n/a
444.0455	0.09	888091	keystroke	m	n/a
444.2555	0.135	888511	keystroke	o	n/a
444.391	0.105	888782	keystroke	u	n/a
444.5405	0.0895	889081	keystroke	t	n/a
444.676	0.089	889352	keystroke	h	n/a
444.81	0.106	889620	keystroke	Key.space	n/a
444.975	0.09	889950	keystroke	c	n/a
445.411	0.089	890822	keystroke	Key.backspace	n/a
445.531	0.09	891062	keystroke	v	n/a
445.7405	0.075	891481	keystroke	u	n/a
446.07	0.06	892140	keystroke	k	n/a
446.6405	0.075	893281	keystroke	Key.backspace	n/a
446.94	0.075	893880	keystroke	l	n/a
447.3155	0.075	894631	keystroke	n	n/a
447.4805	0.075	894961	keystroke	e	n/a
447.6605	0.0755	895321	keystroke	r	n/a
449.1305	0.135	898261	keystroke	a	n/a
449.2805	0.0895	898561	keystroke	b	n/a
449.5205	0.06	899041	keystroke	l	n/a
449.6405	0.075	899281	keystroke	e	n/a
449.7755	0.06	899551	keystroke	Key.space	n/a
449.8505	0.09	899701	keystroke	s	n/a
450.0455	0.09	900091	keystroke	t	n/a
450.2105	0.075	900421	keystroke	r	n/a
450.4055	0.06	900811	keystroke	u	n/a
450.45	0.06	900900	keystroke	c	n/a
450.8105	0.09	901621	keystroke	t	n/a
451.005	0.0755	902010	keystroke	u	n/a
451.291	0.1345	902582	keystroke	r	n/a
451.4405	0.09	902881	keystroke	e	n/a
451.7105	0.09	903421	keystroke	s	n/a
451.845	0.0905	903690	keystroke	Key.space	n/a
452.535	0.1055	905070	keystroke	n	n/a
452.6705	0.09	905341	keystroke	a	n/a
452.791	0.12	905582	keystroke	u	n/a
452.8805	0.105	905761	keystroke	g	n/a
453.0455	0.105	906091	keystroke	h	n/a
453.166	0.0895	906332	keystroke	t	n/a
453.3005	0.09	906601	keystroke	s	n/a
453.6605	0.075	907321	keystroke	Key.enter	n/a
453.741	9.491	907482	prompt	n/a	likewise joke bureau front\n
454.4395	0.1065	908879	keystroke	l	n/a
454.591	0.1045	909182	keystroke	i	n/a
454.905	0.12	909810	keystroke	e	n/a
455.28	0.075	910560	keystroke	Key.backspace	n/a
455.5355	0.09	911071	keystroke	k	n/a
455.6855	0.0595	911371	keystroke	e	n/a
456.016	0.075	912032	keystroke	w	n/a
456.106	0.089	912212	keystroke	i	n/a
456.27	0.121	912540	keystroke	s	n/a
456.4505	0.09	912901	keystroke	e	n/a
456.615	0.075	913230	keystroke	Key.space	n/a
456.81	0.105	913620	keystroke	j	n/a
456.9905	0.0745	913981	keystroke	o	n/a
457.185	0.0305	914370	keystroke	j	n/a
457.635	0.06	915270	keystroke	e	n/a
458.0105	0.0595	916021	keystroke	Key.backspace	n/a
458.1905	0.045	916381	keystroke	Key.backspace	n/a
458.746	0.0745	917492	keystroke	k	n/a
458.851	0.0895	917702	keystroke	e	n/a
458.9995	0.09	917999	keystroke	Key.space	n/a
459.4955	0.0595	918991	keystroke	b	n/a
459.721	0.074	919442	keystroke	u	n/a
459.84	0.09	919680	keystroke	r	n/a
460.095	0.075	920190	keystroke	e	n/a
460.425	0.105	920850	keystroke	a	n/a
460.7705	0.0745	921541	keystroke	u	n/a
461.1905	0.059	922381	keystroke	Key.space	n/a
461.7455	0.105	923491	keystroke	f	n/a
461.9555	0.105	923911	keystroke	r	n/a
462.09	0.18	924180	keystroke	o	n/a
462.2105	0.1045	924421	keystroke	n	n/a
462.33	0.091	924660	keystroke	t	n/a
463.1705	0.059	926341	keystroke	Key.enter	n/a
463.2355	16.2865	926471	prompt	n/a	pirates noble dublin hypothesis\n
465.045	0.06	930090	keystroke	o	n/a
466.125	0.045	932250	keystroke	Key.backspace	n/a
466.965	0.09	933930	keystroke	p	n/a
467.115	0.1055	934230	keystroke	i	n/a
467.265	0.15	934530	keystroke	r	n/a
467.386	0.18	934772	keystroke	a	n/a
467.6095	0.151	935219	keystroke	t	n/a
467.7455	0.1055	935491	keystroke	e	n/a
467.9705	0.0745	935941	keystroke	s	n/a
468.0605	0.0745	936121	keystroke	Key.space	n/a
468.2105	0.1045	936421	keystroke	n	n/a
468.405	0.06	936810	keystroke	o	n/a
468.5855	0.0895	937171	keystroke	b	n/a
468.78	0.061	937560	keystroke	l	n/a
468.9	0.091	937800	keystroke	e	n/a
469.0205	0.09	938041	keystroke	Key.space	n/a
469.2155	0.12	938431	keystroke	d	n/a
469.3505	0.0905	938701	keystroke	u	n/a
469.5895	0.075	939179	keystroke	b	n/a
469.9045	0.046	939809	keystroke	l	n/a
470.1745	0.135	940349	keystroke	i	n/a
470.2955	0.105	940591	keystroke	n	n/a
470.6105	0.06	941221	keystroke	Key.space	n/a
471.451	0.0745	942902	keystroke	h	n/a
471.6305	0.09	943261	keystroke	y	n/a
471.8405	0.075	943681	keystroke	p	n/a
472.0205	0.06	944041	keystroke	t	n/a
472.0955	0.105	944191	keystroke	o	n/a
472.7705	0.059	945541	keystroke	Key.backspace	n/a
473.1	0.0605	946200	keystroke	Key.backspace	n/a
473.355	0.09	946710	keystroke	p	n/a
473.505	0.075	947010	keystroke	t	n/a
473.685	0.076	947370	keystroke	h	n/a
474.12	0.061	948240	keystroke	Key.backspace	n/a
474.376	0.0895	948752	keystroke	Key.backspace	n/a
474.8255	0.045	949651	keystroke	Key.backspace	n/a
475.3505	0.06	950701	keystroke	p	n/a
475.575	0.046	951150	keystroke	t	n/a
476.1455	0.059	952291	keystroke	Key.backspace	n/a
476.5205	0.06	953041	keystroke	Key.backspace	n/a
477.0905	0.075	954181	keystroke	o	n/a
477.3005	0.0605	954601	keystroke	t	n/a
477.675	0.06	955350	keystroke	h	n/a
478.4405	0.104	956881	keystroke	e	n/a
478.7395	0.0755	957479	keystroke	s	n/a
478.9055	0.105	957811	keystroke	i	n/a
479.0245	0.091	958049	keystroke	s	n/a
479.1295	0.076	958259	keystroke	i	n/a
479.4305	0.09	958861	keystroke	Key.enter	n/a
479.5325	8.345	959065	prompt	n/a	connected winners ways queries\n
481.3655	0.09	962731	keystroke	c	n/a
481.59	0.0755	963180	keystroke	o	n/a
481.755	0.075	963510	keystroke	n	n/a
481.891	0.089	963782	keystroke	n	n/a
482.025	0.09	964050	keystroke	e	n/a
482.251	0.09	964502	keystroke	c	n/a
482.5055	0.12	965011	keystroke	t	n/a
482.6105	0.1055	965221	keystroke	e	n/a
482.8205	0.0745	965641	keystroke	d	n/a
482.955	0.105	965910	keystroke	Key.space	n/a
483.0755	0.1495	966151	keystroke	i	n/a
483.6	0.09	967200	keystroke	Key.backspace	n/a
483.78	0.075	967560	keystroke	w	n/a
483.9905	0.135	967981	keystroke	i	n/a
484.3805	0.0595	968761	keystroke	n	n/a
484.5155	0.09	969031	keystroke	n	n/a
484.725	0.09	969450	keystroke	e	n/a
484.905	0.105	969810	keystroke	r	n/a
485.085	0.1055	970170	keystroke	s	n/a
485.22	0.0755	970440	keystroke	Key.space	n/a
485.34	0.0905	970680	keystroke	w	n/a
485.505	0.135	971010	keystroke	a	n/a
485.686	0.119	971372	keystroke	y	n/a
485.835	0.09	971670	keystroke	s	n/a
485.985	0.105	971970	keystroke	Key.space	n/a
486.2855	0.0905	972571	keystroke	q	n/a
486.5105	0.09	973021	keystroke	u	n/a
486.6305	0.12	973261	keystroke	e	n/a
486.931	0.0895	973862	keystroke	r	n/a
487.2755	0.09	974551	keystroke	i	n/a
487.4255	0.09	974851	keystroke	e	n/a
487.561	0.0895	975122	keystroke	s	n/a
487.8005	0.075	975601	keystroke	Key.enter	n/a
487.882	7.255	975764	prompt	n/a	index stolen apache embassy\n
488.6255	0.165	977251	keystroke	i	n/a
488.745	0.12	977490	keystroke	n	n/a
488.881	0.089	977762	keystroke	d	n/a
489.0455	0.0595	978091	keystroke	e	n/a
489.2705	0.0745	978541	keystroke	x	n/a
489.4055	0.09	978811	keystroke	Key.space	n/a
489.6	0.0905	979200	keystroke	s	n/a
489.735	0.0605	979470	keystroke	o	n/a
490.0805	0.075	980161	keystroke	Key.backspace	n/a
490.41	0.1205	980820	keystroke	t	n/a
490.5905	0.09	981181	keystroke	o	n/a
490.7855	0.09	981571	keystroke	l	n/a
490.9055	0.075	981811	keystroke	e	n/a
491.085	0.075	982170	keystroke	n	n/a
491.22	0.105	982440	keystroke	Key.space	n/a
491.37	0.1205	982740	keystroke	a	n/a
491.521	0.0745	983042	keystroke	p	n/a
491.6255	0.105	983251	keystroke	a	n/a
491.851	0.09	983702	keystroke	c	n/a
492.0005	0.0755	984001	keystroke	h	n/a
492.1205	0.074	984241	keystroke	e	n/a
492.2545	0.0755	984509	keystroke	Key.space	n/a
492.4355	0.045	984871	keystroke	a	n/a
492.7055	0.075	985411	keystroke	Key.backspace	n/a
492.8555	0.09	985711	keystroke	e	n/a
493.1255	0.0595	986251	keystroke	m	n/a
493.41	0.076	986820	keystroke	b	n/a
493.875	0.1055	987750	keystroke	a	n/a
494.3105	0.075	988621	keystroke	s	n/a
494.4605	0.0745	988921	keystroke	s	n/a
494.686	0.0895	989372	keystroke	y	n/a
495.0455	0.09	990091	keystroke	Key.enter	n/a
495.141	9.1315	990282	prompt	n/a	interested enter where've seekers\n
495.825	0.1355	991650	keystroke	i	n/a
495.945	0.1055	991890	keystroke	n	n/a
496.126	0.135	992252	keystroke	s	n/a
496.6205	0.0755	993241	keystroke	Key.backspace	n/a
496.7705	0.105	993541	keystroke	t	n/a
496.936	0.1195	993872	keystroke	e	n/a
497.0705	0.15	994141	keystroke	r	n/a
497.2055	0.105	994411	keystroke	e	n/a
497.535	0.045	995070	keystroke	s	n/a
497.761	0.12	995522	keystroke	t	n/a
497.9105	0.09	995821	keystroke	e	n/a
498.1205	0.0595	996241	keystroke	d	n/a
498.2405	0.105	996481	keystroke	Key.space	n/a
498.435	0.076	996870	keystroke	e	n/a
498.675	0.1055	997350	keystroke	t	n/a
499.245	0.06	998490	keystroke	Key.backspace	n/a
499.726	0.0445	999452	keystroke	n	n/a
499.8455	0.09	999691	keystroke	t	n/a
500.0555	0.105	1000111	keystroke	e	n/a
500.1755	0.075	1000351	keystroke	r	n/a
500.3855	0.075	1000771	keystroke	Key.space	n/a
500.88	0.076	1001760	keystroke	w	n/a
500.985	0.09	1001970	keystroke	h	n/a
501.121	0.0895	1002242	keystroke	e	n/a
501.33	0.0605	1002660	keystroke	r	n/a
501.4955	0.0305	1002991	keystroke	e	n/a
501.9155	0.0755	1003831	keystroke	'	n/a
502.231	0.0895	1004462	keystroke	v	n/a
502.3955	0.105	1004791	keystroke	e	n/a
502.575	0.06	1005150	keystroke	Key.space	n/a
502.9355	0.105	1005871	keystroke	s	n/a
503.145	0.03	1006290	keystroke	e	n/a
503.2495	0.091	1006499	keystroke	e	n/a
503.4005	0.1045	1006801	keystroke	k	n/a
503.565	0.121	1007130	keystroke	e	n/a
503.73	0.121	1007460	keystroke	r	n/a
503.97	0.061	1007940	keystroke	s	n/a
504.195	0.0755	1008390	keystroke	Key.enter	n/a
504.2765	8.5005	1008553	prompt	n/a	reducing prospective draws florida\n
505.171	0.09	1010342	keystroke	e	n/a
505.5305	0.105	1011061	keystroke	Key.backspace	n/a
505.8155	0.09	1011631	keystroke	r	n/a
505.9955	0.075	1011991	keystroke	e	n/a
506.1455	0.0895	1012291	keystroke	d	n/a
506.2505	0.12	1012501	keystroke	u	n/a
506.3855	0.0905	1012771	keystroke	c	n/a
506.5805	0.1505	1013161	keystroke	i	n/a
506.7155	0.105	1013431	keystroke	n	n/a
506.8805	0.12	1013761	keystroke	g	n/a
507.0155	0.09	1014031	keystroke	Key.space	n/a
507.226	0.0595	1014452	keystroke	p	n/a
507.3605	0.0745	1014721	keystroke	r	n/a
507.4955	0.0755	1014991	keystroke	o	n/a
507.945	0.09	1015890	keystroke	s	n/a
508.2155	0.06	1016431	keystroke	p	n/a
508.3955	0.075	1016791	keystroke	e	n/a
508.6665	0.0595	1017333	keystroke	c	n/a
508.86	0.075	1017720	keystroke	t	n/a
508.966	0.089	1017932	keystroke	i	n/a
509.1005	0.135	1018201	keystroke	v	n/a
509.3105	0.075	1018621	keystroke	e	n/a
509.475	0.06	1018950	keystroke	Key.space	n/a
509.595	0.0755	1019190	keystroke	d	n/a
509.775	0.0755	1019550	keystroke	r	n/a
510.1355	0.15	1020271	keystroke	a	n/a
510.3305	0.0755	1020661	keystroke	w	n/a
510.586	0.09	1021172	keystroke	s	n/a
511.005	0.046	1022010	keystroke	Key.space	n/a
511.4105	0.105	1022821	keystroke	f	n/a
511.6505	0.06	1023301	keystroke	l	n/a
511.8305	0.045	1023661	keystroke	o	n/a
512.011	0.105	1024022	keystroke	r	n/a
512.206	0.0895	1024412	keystroke	i	n/a
512.4005	0.105	1024801	keystroke	d	n/a
512.5205	0.09	1025041	keystroke	a	n/a
512.701	0.0745	1025402	keystroke	Key.enter	n/a
512.784	7.298	1025568	prompt	n/a	party labor we'll aquarium\n
513.4205	0.076	1026841	keystroke	p	n/a
513.571	0.1045	1027142	keystroke	a	n/a
513.7505	0.0905	1027501	keystroke	r	n/a
513.961	0.09	1027922	keystroke	t	n/a
514.066	0.075	1028132	keystroke	y	n/a
514.2005	0.105	1028401	keystroke	Key.space	n/a
514.3805	0.0905	1028761	keystroke	l	n/a
514.515	0.1055	1029030	keystroke	a	n/a
514.65	0.075	1029300	keystroke	b	n/a
514.846	0.044	1029692	keystroke	o	n/a
514.9955	0.0745	1029991	keystroke	r	n/a
515.1	0.045	1030200	keystroke	Key.space	n/a
515.3255	0.075	1030651	keystroke	w	n/a
515.4455	0.0895	1030891	keystroke	e	n/a
515.7755	0.0595	1031551	keystroke	'	n/a
516.361	0.06	1032722	keystroke	l	n/a
516.496	0.075	1032992	keystroke	l	n/a
516.7205	0.075	1033441	keystroke	Key.space	n/a
517.0055	0.105	1034011	keystroke	a	n/a
518.3105	0.1045	1036621	keystroke	q	n/a
518.536	0.089	1037072	keystroke	u	n/a
518.731	0.1205	1037462	keystroke	a	n/a
519	0.06	1038000	keystroke	r	n/a
519.211	0.0895	1038422	keystroke	i	n/a
519.436	0.0895	1038872	keystroke	u	n/a
519.69	0.09	1039380	keystroke	m	n/a
520.02	0.06	1040040	keystroke	Key.enter	n/a
520.086	5.577	1040172	prompt	n/a	tales restriction loved east\n
520.8305	0.1205	1041661	keystroke	t	n/a
520.9805	0.105	1041961	keystroke	a	n/a
521.131	0.0745	1042262	keystroke	l	n/a
521.2655	0.105	1042531	keystroke	e	n/a
521.4005	0.1205	1042801	keystroke	s	n/a
521.5355	0.1045	1043071	keystroke	Key.space	n/a
521.701	0.12	1043402	keystroke	r	n/a
521.896	0.09	1043792	keystroke	e	n/a
522.046	0.12	1044092	keystroke	s	n/a
522.2565	0.0885	1044513	keystroke	t	n/a
522.421	0.09	1044842	keystroke	r	n/a
522.541	0.089	1045082	keystroke	i	n/a
522.6605	0.09	1045321	keystroke	c	n/a
522.87	0.0755	1045740	keystroke	t	n/a
522.99	0.135	1045980	keystroke	i	n/a
523.111	0.0445	1046222	keystroke	o	n/a
523.3055	0.09	1046611	keystroke	n	n/a
523.4405	0.0895	1046881	keystroke	Key.space	n/a
523.576	0.0745	1047152	keystroke	l	n/a
523.741	0.06	1047482	keystroke	o	n/a
524.0705	0.09	1048141	keystroke	v	n/a
524.221	0.09	1048442	keystroke	e	n/a
524.4455	0.0755	1048891	keystroke	d	n/a
524.5655	0.09	1049131	keystroke	Key.space	n/a
524.7905	0.15	1049581	keystroke	e	n/a
524.9705	0.1345	1049941	keystroke	a	n/a
524.9855	0.225	1049971	keystroke	s	n/a
525.285	0.105	1050570	keystroke	t	n/a
525.5855	0.075	1051171	keystroke	Key.enter	n/a
525.667	7.5555	1051334	prompt	n/a	large fell mentioned suppose\n
526.3205	0.0595	1052641	keystroke	l	n/a
526.3955	0.135	1052791	keystroke	a	n/a
526.5755	0.105	1053151	keystroke	r	n/a
526.8455	0.135	1053691	keystroke	g	n/a
527.0105	0.12	1054021	keystroke	e	n/a
527.9855	0.09	1055971	keystroke	Key.space	n/a
529.155	0.076	1058310	keystroke	f	n/a
529.351	0.044	1058702	keystroke	e	n/a
529.4715	0.0145	1058943	keystroke	l	n/a
529.651	0.03	1059302	keystroke	l	n/a
530.116	0.09	1060232	keystroke	Key.space	n/a
530.5055	0.0455	1061011	keystroke	m	n/a
530.6555	0.06	1061311	keystroke	e	n/a
530.8355	0.105	1061671	keystroke	n	n/a
530.9855	0.105	1061971	keystroke	t	n/a
531.1355	0.1655	1062271	keystroke	i	n/a
531.2855	0.046	1062571	keystroke	o	n/a
531.5405	0.09	1063081	keystroke	n	n/a
531.6605	0.075	1063321	keystroke	e	n/a
531.8105	0.1055	1063621	keystroke	d	n/a
531.93	0.076	1063860	keystroke	Key.space	n/a
532.051	0.09	1064102	keystroke	s	n/a
532.171	0.075	1064342	keystroke	u	n/a
532.396	0.044	1064792	keystroke	p	n/a
532.5155	0.0745	1065031	keystroke	p	n/a
532.725	0.045	1065450	keystroke	o	n/a
532.846	0.119	1065692	keystroke	s	n/a
532.995	0.076	1065990	keystroke	e	n/a
533.1305	0.09	1066261	keystroke	Key.enter	n/a
533.2265	6.911	1066453	prompt	n/a	creature emacs centre plane\n
533.9565	0.104	1067913	keystroke	c	n/a
534.18	0.106	1068360	keystroke	r	n/a
534.391	0.135	1068782	keystroke	e	n/a
534.511	0.119	1069022	keystroke	a	n/a
534.675	0.106	1069350	keystroke	t	n/a
534.826	0.09	1069652	keystroke	u	n/a
534.961	0.105	1069922	keystroke	r	n/a
535.0515	0.0895	1070103	keystroke	e	n/a
535.201	0.089	1070402	keystroke	Key.space	n/a
535.381	0.075	1070762	keystroke	e	n/a
535.501	0.09	1071002	keystroke	m	n/a
535.636	0.09	1071272	keystroke	a	n/a
535.891	0.0905	1071782	keystroke	c	n/a
536.356	0.075	1072712	keystroke	s	n/a
536.5505	0.0905	1073101	keystroke	Key.space	n/a
537.1955	0.0895	1074391	keystroke	c	n/a
537.316	0.135	1074632	keystroke	e	n/a
537.4955	0.0895	1074991	keystroke	n	n/a
537.601	0.105	1075202	keystroke	t	n/a
537.9005	0.0755	1075801	keystroke	r	n/a
538.095	0.06	1076190	keystroke	e	n/a
538.6055	0.075	1077211	keystroke	Key.space	n/a
538.9515	0.074	1077903	keystroke	p	n/a
539.1605	0.09	1078321	keystroke	l	n/a
539.3105	0.105	1078621	keystroke	a	n/a
539.4755	0.075	1078951	keystroke	n	n/a
539.8655	0.075	1079731	keystroke	e	n/a
540.0605	0.075	1080121	keystroke	Key.enter	n/a
540.1415	8.741	1080283	prompt	n/a	generate tech struct courage\n
541.546	0.06	1083092	keystroke	g	n/a
541.651	0.089	1083302	keystroke	e	n/a
541.831	0.06	1083662	keystroke	n	n/a
541.936	0.104	1083872	keystroke	e	n/a
542.1455	0.1355	1084291	keystroke	r	n/a
542.2505	0.1505	1084501	keystroke	a	n/a
542.461	0.1345	1084922	keystroke	t	n/a
542.6405	0.105	1085281	keystroke	e	n/a
543.1055	0.075	1086211	keystroke	Key.space	n/a
543.301	0.1195	1086602	keystroke	t	n/a
543.4355	0.105	1086871	keystroke	e	n/a
543.676	0.09	1087352	keystroke	c	n/a
543.901	0.045	1087802	keystroke	h	n/a
544.0805	0.075	1088161	keystroke	Key.space	n/a
544.3355	0.09	1088671	keystroke	s	n/a
544.5155	0.1055	1089031	keystroke	t	n/a
544.666	0.1045	1089332	keystroke	r	n/a
544.8765	0.059	1089753	keystroke	u	n/a
545.0555	0.0755	1090111	keystroke	c	n/a
545.266	0.0745	1090532	keystroke	t	n/a
545.4005	0.09	1090801	keystroke	Key.space	n/a
545.5655	0.075	1091131	keystroke	c	n/a
545.6705	0.151	1091341	keystroke	o	n/a
545.7605	0.1205	1091521	keystroke	u	n/a
545.8655	0.091	1091731	keystroke	r	n/a
546.0765	0.1045	1092153	keystroke	a	n/a
546.4955	0.105	1092991	keystroke	g	n/a
546.631	0.0745	1093262	keystroke	e	n/a
547.426	0.075	1094852	keystroke	\	n/a
548.6405	0.015	1097281	keystroke	Key.backspace	n/a
548.8205	0.06	1097641	keystroke	Key.enter	n/a
548.8865	7.076	1097773	prompt	n/a	sigma syntax unto collections\n
549.5855	0.0905	1099171	keystroke	s	n/a
549.9005	0.075	1099801	keystroke	i	n/a
550.0655	0.0755	1100131	keystroke	g	n/a
550.2455	0.06	1100491	keystroke	m	n/a
550.396	0.09	1100792	keystroke	a	n/a
550.516	0.09	1101032	keystroke	Key.space	n/a
550.7105	0.0905	1101421	keystroke	s	n/a
550.906	0.0755	1101812	keystroke	y	n/a
551.0405	0.06	1102081	keystroke	s	n/a
551.536	0.0595	1103072	keystroke	Key.backspace	n/a
551.821	0.03	1103642	keystroke	n	n/a
551.911	0.075	1103822	keystroke	t	n/a
552.136	0.0895	1104272	keystroke	a	n/a
552.435	0.075	1104870	keystroke	x	n/a
552.7205	0.075	1105441	keystroke	Key.space	n/a
553.321	0.06	1106642	keystroke	u	n/a
553.501	0.09	1107002	keystroke	n	n/a
553.636	0.09	1107272	keystroke	t	n/a
553.8005	0.076	1107601	keystroke	o	n/a
553.966	0.1045	1107932	keystroke	Key.space	n/a
554.296	0.0895	1108592	keystroke	c	n/a
554.416	0.06	1108832	keystroke	o	n/a
554.596	0.0595	1109192	keystroke	l	n/a
554.7005	0.0755	1109401	keystroke	l	n/a
554.806	0.0445	1109612	keystroke	e	n/a
554.9855	0.0905	1109971	keystroke	c	n/a
555.196	0.075	1110392	keystroke	t	n/a
555.286	0.135	1110572	keystroke	i	n/a
555.406	0.06	1110812	keystroke	o	n/a
555.5855	0.075	1111171	keystroke	n	n/a
555.706	0.0595	1111412	keystroke	s	n/a
555.886	0.0745	1111772	keystroke	Key.enter	n/a
555.966	9.7915	1111932	prompt	n/a	yard astronomy poly genealogy\n
556.7715	0.0745	1113543	keystroke	y	n/a
556.876	0.105	1113752	keystroke	a	n/a
557.041	0.075	1114082	keystroke	r	n/a
557.236	0.075	1114472	keystroke	d	n/a
557.356	0.09	1114712	keystroke	Key.space	n/a
557.581	0.2095	1115162	keystroke	a	n/a
557.7755	0.135	1115551	keystroke	s	n/a
558.015	0.091	1116030	keystroke	t	n/a
558.196	0.075	1116392	keystroke	r	n/a
558.3015	0.074	1116603	keystroke	o	n/a
558.496	0.06	1116992	keystroke	n	n/a
558.676	0.0595	1117352	keystroke	o	n/a
559.456	0.075	1118912	keystroke	m	n/a
560.146	0.075	1120292	keystroke	y	n/a
560.3555	0.075	1120711	keystroke	Key.space	n/a
560.625	0.09	1121250	keystroke	p	n/a
560.85	0.06	1121700	keystroke	o	n/a
561	0.0755	1122000	keystroke	l	n/a
561.21	0.075	1122420	keystroke	y	n/a
561.5105	0.06	1123021	keystroke	Key.space	n/a
562.096	0.0745	1124192	keystroke	g	n/a
562.231	0.0745	1124462	keystroke	e	n/a
562.366	0.105	1124732	keystroke	n	n/a
563.086	0.0895	1126172	keystroke	e	n/a
563.3255	0.0905	1126651	keystroke	o	n/a
563.8205	0.06	1127641	keystroke	Key.backspace	n/a
563.9405	0.105	1127881	keystroke	a	n/a
564.7355	0.0605	1129471	keystroke	l	n/a
564.9155	0.0605	1129831	keystroke	o	n/a
565.1555	0.105	1130311	keystroke	g	n/a
565.336	0.1045	1130672	keystroke	y	n/a
565.6805	0.075	1131361	keystroke	Key.enter	n/a
565.762	8.77	1131524	prompt	n/a	execution maybe inches stood\n
566.476	0.0605	1132952	keystroke	e	n/a
566.715	0.091	1133430	keystroke	x	n/a
567.0755	0.0895	1134151	keystroke	e	n/a
567.3455	0.075	1134691	keystroke	c	n/a
567.586	0.09	1135172	keystroke	u	n/a
567.707	0.1035	1135414	keystroke	t	n/a
567.8705	0.135	1135741	keystroke	i	n/a
568.051	0.075	1136102	keystroke	o	n/a
568.2905	0.076	1136581	keystroke	n	n/a
568.5155	0.075	1137031	keystroke	Key.space	n/a
568.801	0.09	1137602	keystroke	m	n/a
568.921	0.105	1137842	keystroke	a	n/a
569.071	0.074	1138142	keystroke	y	n/a
569.296	0.089	1138592	keystroke	b	n/a
569.4465	0.0745	1138893	keystroke	e	n/a
569.535	0.091	1139070	keystroke	Key.space	n/a
569.9105	0.076	1139821	keystroke	i	n/a
569.9715	0.104	1139943	keystroke	n	n/a
570.1205	0.106	1140241	keystroke	c	n/a
570.2565	0.0745	1140513	keystroke	h	n/a
570.4205	0.1205	1140841	keystroke	e	n/a
570.556	0.105	1141112	keystroke	s	n/a
570.676	0.09	1141352	keystroke	Key.space	n/a
570.7965	0.1195	1141593	keystroke	s	n/a
571.021	0.075	1142042	keystroke	t	n/a
571.1415	0.0745	1142283	keystroke	o	n/a
571.291	0.06	1142582	keystroke	o	n/a
571.441	0.075	1142882	keystroke	f	n/a
572.086	0.075	1144172	keystroke	Key.backspace	n/a
572.191	0.105	1144382	keystroke	g	n/a
573.2855	0.045	1146571	keystroke	Key.backspace	n/a
573.3915	0.074	1146783	keystroke	d	n/a
574.501	0.03	1149002	keystroke	Key.enter	n/a
574.535	7.2425	1149070	prompt	n/a	taste innovation road lens\n
575.4	0.09	1150800	keystroke	t	n/a
575.6115	0.1495	1151223	keystroke	a	n/a
575.775	0.1205	1151550	keystroke	s	n/a
576.0005	0.0745	1152001	keystroke	t	n/a
576.091	0.12	1152182	keystroke	e	n/a
576.3005	0.0895	1152601	keystroke	Key.space	n/a
576.451	0.1645	1152902	keystroke	i	n/a
576.601	0.045	1153202	keystroke	n	n/a
576.781	0.0895	1153562	keystroke	n	n/a
577.035	0.076	1154070	keystroke	o	n/a
577.185	0.0755	1154370	keystroke	v	n/a
578.1305	0.075	1156261	keystroke	a	n/a
578.3405	0.091	1156681	keystroke	t	n/a
578.5355	0.1205	1157071	keystroke	i	n/a
578.6565	0.014	1157313	keystroke	o	n/a
578.8815	0.074	1157763	keystroke	n	n/a
579.0755	0.09	1158151	keystroke	Key.space	n/a
579.7365	0.0145	1159473	keystroke	r	n/a
579.766	0.03	1159532	keystroke	o	n/a
579.811	0.135	1159622	keystroke	a	n/a
579.991	0.0745	1159982	keystroke	d	n/a
580.126	0.09	1160252	keystroke	Key.space	n/a
580.3205	0.075	1160641	keystroke	l	n/a
580.441	0.075	1160882	keystroke	e	n/a
580.606	0.09	1161212	keystroke	n	n/a
580.726	0.0895	1161452	keystroke	s	n/a
581.7305	0.0455	1163461	keystroke	Key.enter	n/a
581.7825	16.585	1163565	prompt	n/a	initial region test incorrect\n
591.1985	0.012	1182397	keystroke	i	n/a
591.3015	0.089	1182603	keystroke	n	n/a
591.4965	0.045	1182993	keystroke	i	n/a
591.6015	0.0895	1183203	keystroke	t	n/a
591.751	0.075	1183502	keystroke	i	n/a
591.841	0.105	1183682	keystroke	a	n/a
591.991	0.0905	1183982	keystroke	l	n/a
592.186	0.0755	1184372	keystroke	Key.space	n/a
592.411	0.0755	1184822	keystroke	r	n/a
592.456	0.135	1184912	keystroke	e	n/a
592.6955	0.1055	1185391	keystroke	g	n/a
592.8465	0.12	1185693	keystroke	i	n/a
592.9965	0.045	1185993	keystroke	o	n/a
593.1755	0.09	1186351	keystroke	n	n/a
593.3405	0.076	1186681	keystroke	Key.space	n/a
593.6715	0.1645	1187343	keystroke	t	n/a
593.8665	0.1195	1187733	keystroke	e	n/a
594.1365	0.059	1188273	keystroke	s	n/a
594.2565	0.0755	1188513	keystroke	t	n/a
594.391	0.0905	1188782	keystroke	Key.space	n/a
594.5415	0.119	1189083	keystroke	i	n/a
594.6155	0.106	1189231	keystroke	n	n/a
594.7665	0.0895	1189533	keystroke	v	n/a
594.9165	0.09	1189833	keystroke	o	n/a
595.081	0.09	1190162	keystroke	r	n/a
595.276	0.03	1190552	keystroke	r	n/a
595.501	0.06	1191002	keystroke	Key.backspace	n/a
595.666	0.06	1191332	keystroke	Key.backspace	n/a
595.8015	0.0595	1191603	keystroke	Key.backspace	n/a
596.1015	0.0745	1192203	keystroke	Key.backspace	n/a
596.9265	0.09	1193853	keystroke	c	n/a
597.046	0.0605	1194092	keystroke	o	n/a
597.3315	0.075	1194663	keystroke	r	n/a
597.4965	0.12	1194993	keystroke	r	n/a
597.6305	0.091	1195261	keystroke	e	n/a
597.9015	0.075	1195803	keystroke	c	n/a
598.1265	0.075	1196253	keystroke	t	n/a
598.3065	0.06	1196613	keystroke	Key.enter	n/a
598.371	8.862	1196742	prompt	n/a	keyword houses rwanda aaron\n
599.176	0.1055	1198352	keystroke	k	n/a
599.2965	0.0895	1198593	keystroke	e	n/a
600.1965	0.0745	1200393	keystroke	y	n/a
600.3465	0.0745	1200693	keystroke	w	n/a
600.4965	0.075	1200993	keystroke	o	n/a
600.5865	0.09	1201173	keystroke	r	n/a
600.7955	0.076	1201591	keystroke	d	n/a
600.9005	0.091	1201801	keystroke	Key.space	n/a
601.2015	0.075	1202403	keystroke	h	n/a
601.396	0.105	1202792	keystroke	o	n/a
601.486	0.075	1202972	keystroke	u	n/a
601.6515	0.1345	1203303	keystroke	s	n/a
601.756	0.1055	1203512	keystroke	e	n/a
601.921	0.0755	1203842	keystroke	s	n/a
602.1465	0.0745	1204293	keystroke	Key.space	n/a
602.4465	0.09	1204893	keystroke	r	n/a
602.6565	0.0895	1205313	keystroke	q	n/a
603.346	0.075	1206692	keystroke	Key.backspace	n/a
603.4665	0.09	1206933	keystroke	w	n/a
603.8415	0.105	1207683	keystroke	a	n/a
604.036	0.09	1208072	keystroke	n	n/a
604.3965	0.104	1208793	keystroke	d	n/a
604.5465	0.075	1209093	keystroke	a	n/a
604.756	0.075	1209512	keystroke	Key.space	n/a
605.1765	0.09	1210353	keystroke	a	n/a
605.356	0.1205	1210712	keystroke	a	n/a
605.581	0.0755	1211162	keystroke	r	n/a
605.717	0.09	1211434	keystroke	o	n/a
605.926	0.0755	1211852	keystroke	n	n/a
607.1565	0.075	1214313	keystroke	Key.enter	n/a
607.24	10.748	1214480	prompt	n/a	inspection demonstrated relevance agent\n
608.0865	0.09	1216173	keystroke	i	n/a
608.2665	0.0745	1216533	keystroke	n	n/a
608.401	0.1055	1216802	keystroke	s	n/a
608.581	0.0605	1217162	keystroke	p	n/a
608.671	0.075	1217342	keystroke	e	n/a
608.852	0.104	1217704	keystroke	c	n/a
609.061	0.075	1218122	keystroke	t	n/a
609.1965	0.12	1218393	keystroke	i	n/a
609.287	0.0745	1218574	keystroke	o	n/a
609.5415	0.0595	1219083	keystroke	n	n/a
609.691	0.0605	1219382	keystroke	Key.space	n/a
609.887	0.075	1219774	keystroke	d	n/a
610.037	0.0895	1220074	keystroke	e	n/a
610.1565	0.075	1220313	keystroke	m	n/a
610.3665	0.0605	1220733	keystroke	o	n/a
610.6055	0.06	1221211	keystroke	n	n/a
610.7865	0.1055	1221573	keystroke	s	n/a
610.9965	0.1045	1221993	keystroke	t	n/a
611.281	0.15	1222562	keystroke	r	n/a
611.4165	0.1645	1222833	keystroke	a	n/a
611.656	0.105	1223312	keystroke	t	n/a
611.7465	0.1045	1223493	keystroke	e	n/a
612.1355	0.061	1224271	keystroke	d	n/a
612.886	0.09	1225772	keystroke	Key.space	n/a
613.6215	0.135	1227243	keystroke	r	n/a
613.7715	0.0905	1227543	keystroke	e	n/a
613.9215	0.105	1227843	keystroke	l	n/a
614.0715	0.09	1228143	keystroke	e	n/a
614.5665	0.09	1229133	keystroke	v	n/a
614.776	0.0895	1229552	keystroke	a	n/a
614.911	0.0905	1229822	keystroke	n	n/a
615.1065	0.1045	1230213	keystroke	c	n/a
615.196	0.075	1230392	keystroke	e	n/a
615.361	0.1055	1230722	keystroke	Key.space	n/a
616.0365	0.105	1232073	keystroke	a	n/a
616.246	0.045	1232492	keystroke	g	n/a
616.741	0.075	1233482	keystroke	e	n/a
616.861	0.076	1233722	keystroke	n	n/a
617.011	0.09	1234022	keystroke	t	n/a
617.9265	0.06	1235853	keystroke	Key.enter	n/a
617.9915	8.9665	1235983	prompt	n/a	clinton selling syndicate identified\n
618.7365	0.075	1237473	keystroke	c	n/a
619.3655	0.0755	1238731	keystroke	l	n/a
619.576	0.105	1239152	keystroke	i	n/a
619.7565	0.059	1239513	keystroke	n	n/a
619.862	0.1045	1239724	keystroke	t	n/a
620.0255	0.06	1240051	keystroke	o	n/a
620.2065	0.09	1240413	keystroke	n	n/a
620.356	0.09	1240712	keystroke	Key.space	n/a
620.491	0.075	1240982	keystroke	s	n/a
620.6865	0.075	1241373	keystroke	e	n/a
620.8665	0.059	1241733	keystroke	l	n/a
620.9865	0.089	1241973	keystroke	l	n/a
621.196	0.1205	1242392	keystroke	i	n/a
621.2865	0.104	1242573	keystroke	n	n/a
621.4055	0.09	1242811	keystroke	g	n/a
621.5855	0.09	1243171	keystroke	Key.space	n/a
621.7805	0.105	1243561	keystroke	s	n/a
621.9015	0.09	1243803	keystroke	y	n/a
622.3955	0.076	1244791	keystroke	n	n/a
622.5615	0.09	1245123	keystroke	d	n/a
623.086	0.075	1246172	keystroke	i	n/a
623.2065	0.104	1246413	keystroke	c	n/a
623.3565	0.12	1246713	keystroke	a	n/a
623.6265	0.12	1247253	keystroke	t	n/a
623.7165	0.105	1247433	keystroke	e	n/a
623.8515	0.075	1247703	keystroke	Key.space	n/a
624.1515	0.09	1248303	keystroke	i	n/a
624.3015	0.075	1248603	keystroke	d	n/a
624.4515	0.09	1248903	keystroke	e	n/a
624.5565	0.09	1249113	keystroke	n	n/a
624.8115	0.1045	1249623	keystroke	t	n/a
624.9765	0.0895	1249953	keystroke	i	n/a
625.5465	0.075	1251093	keystroke	f	n/a
626.3565	0.0895	1252713	keystroke	i	n/a
626.491	0.0905	1252982	keystroke	e	n/a
626.6865	0.089	1253373	keystroke	d	n/a
626.8655	0.09	1253731	keystroke	Key.enter	n/a
626.962	6.566	1253924	prompt	n/a	junior saying votes steve\n
628.0665	0.059	1256133	keystroke	j	n/a
628.2015	0.1195	1256403	keystroke	u	n/a
628.456	0.075	1256912	keystroke	n	n/a
628.6215	0.045	1257243	keystroke	i	n/a
628.7565	0.0745	1257513	keystroke	o	n/a
628.8915	0.0755	1257783	keystroke	r	n/a
628.981	0.09	1257962	keystroke	Key.space	n/a
629.1015	0.1045	1258203	keystroke	s	n/a
629.296	0.091	1258592	keystroke	y	n/a
629.401	0.1055	1258802	keystroke	a	n/a
630.0165	0.105	1260033	keystroke	Key.backspace	n/a
630.2255	0.045	1260451	keystroke	Key.backspace	n/a
630.4215	0.105	1260843	keystroke	a	n/a
630.587	0.104	1261174	keystroke	y	n/a
630.7665	0.1645	1261533	keystroke	i	n/a
630.8865	0.1195	1261773	keystroke	n	n/a
631.036	0.105	1262072	keystroke	g	n/a
631.156	0.0905	1262312	keystroke	Key.space	n/a
631.5615	0.09	1263123	keystroke	v	n/a
631.696	0.0905	1263392	keystroke	o	n/a
631.8315	0.15	1263663	keystroke	t	n/a
632.011	0.09	1264022	keystroke	e	n/a
632.236	0.09	1264472	keystroke	s	n/a
632.386	0.0905	1264772	keystroke	Key.space	n/a
632.5665	0.0755	1265133	keystroke	s	n/a
632.746	0.091	1265492	keystroke	t	n/a
632.838	0.118	1265676	keystroke	e	n/a
633.1065	0.09	1266213	keystroke	v	n/a
633.256	0.1055	1266512	keystroke	e	n/a
633.4515	0.075	1266903	keystroke	Key.enter	n/a
633.5325	9.5205	1267065	prompt	n/a	surveys exercise conjunction chemicals\n
634.2465	0.09	1268493	keystroke	s	n/a
634.3815	0.1045	1268763	keystroke	u	n/a
634.5015	0.09	1269003	keystroke	r	n/a
634.7265	0.0905	1269453	keystroke	v	n/a
634.877	0.18	1269754	keystroke	e	n/a
635.086	0.1055	1270172	keystroke	y	n/a
635.3115	0.075	1270623	keystroke	s	n/a
635.476	0.09	1270952	keystroke	Key.space	n/a
635.9415	0.0895	1271883	keystroke	e	n/a
636.1815	0.0895	1272363	keystroke	x	n/a
636.391	0.0905	1272782	keystroke	e	n/a
636.5565	0.09	1273113	keystroke	r	n/a
636.796	0.091	1273592	keystroke	v	n/a
637.321	0.0905	1274642	keystroke	Key.backspace	n/a
637.4565	0.09	1274913	keystroke	c	n/a
637.727	0.06	1275454	keystroke	i	n/a
637.861	0.1505	1275722	keystroke	s	n/a
638.057	0.0745	1276114	keystroke	e	n/a
638.2515	0.09	1276503	keystroke	Key.space	n/a
638.596	0.075	1277192	keystroke	c	n/a
638.686	0.09	1277372	keystroke	o	n/a
638.9115	0.075	1277823	keystroke	n	n/a
639.1065	0.075	1278213	keystroke	j	n/a
639.271	0.075	1278542	keystroke	u	n/a
639.376	0.121	1278752	keystroke	s	n/a
639.946	0.015	1279892	keystroke	Key.backspace	n/a
640.247	0.074	1280494	keystroke	n	n/a
640.5915	0.105	1281183	keystroke	c	n/a
640.8615	0.075	1281723	keystroke	t	n/a
640.9515	0.1505	1281903	keystroke	i	n/a
641.072	0.059	1282144	keystroke	o	n/a
641.267	0.074	1282534	keystroke	n	n/a
641.386	0.0895	1282772	keystroke	Key.space	n/a
641.7165	0.0755	1283433	keystroke	c	n/a
641.792	0.0895	1283584	keystroke	h	n/a
641.9265	0.075	1283853	keystroke	e	n/a
642.092	0.09	1284184	keystroke	m	n/a
642.241	0.0755	1284482	keystroke	i	n/a
642.362	0.0895	1284724	keystroke	c	n/a
642.481	0.1205	1284962	keystroke	a	n/a
642.6165	0.09	1285233	keystroke	l	n/a
642.767	0.0895	1285534	keystroke	s	n/a
642.9915	0.06	1285983	keystroke	Key.enter	n/a
643.058	8.035	1286116	prompt	n/a	launch leasing launched owns\n
643.7265	0.075	1287453	keystroke	l	n/a
643.846	0.0905	1287692	keystroke	a	n/a
643.9815	0.1055	1287963	keystroke	u	n/a
644.1165	0.09	1288233	keystroke	c	n/a
644.251	0.0905	1288502	keystroke	n	n/a
644.4465	0.075	1288893	keystroke	h	n/a
644.641	0.0605	1289282	keystroke	Key.space	n/a
645.3465	0.0745	1290693	keystroke	Key.backspace	n/a
645.5415	0.075	1291083	keystroke	Key.backspace	n/a
645.7215	0.06	1291443	keystroke	Key.backspace	n/a
646.0965	0.0745	1292193	keystroke	Key.backspace	n/a
646.4715	0.09	1292943	keystroke	n	n/a
646.6515	0.06	1293303	keystroke	c	n/a
646.742	0.0895	1293484	keystroke	h	n/a
646.9365	0.075	1293873	keystroke	Key.space	n/a
647.5815	0.0605	1295163	keystroke	l	n/a
647.6865	0.1355	1295373	keystroke	e	n/a
647.8365	0.12	1295673	keystroke	a	n/a
647.9405	0.105	1295881	keystroke	s	n/a
648.092	0.1195	1296184	keystroke	i	n/a
648.167	0.1035	1296334	keystroke	n	n/a
648.287	0.0895	1296574	keystroke	g	n/a
648.4055	0.0905	1296811	keystroke	Key.space	n/a
648.5565	0.09	1297113	keystroke	l	n/a
648.6765	0.105	1297353	keystroke	a	n/a
649.0965	0.0595	1298193	keystroke	u	n/a
649.306	0.091	1298612	keystroke	n	n/a
649.471	0.0905	1298942	keystroke	c	n/a
649.6205	0.076	1299241	keystroke	h	n/a
649.831	0.075	1299662	keystroke	e	n/a
650.011	0.09	1300022	keystroke	d	n/a
650.161	0.09	1300322	keystroke	Key.space	n/a
650.431	0.061	1300862	keystroke	o	n/a
650.551	0.0905	1301102	keystroke	w	n/a
650.702	0.089	1301404	keystroke	n	n/a
650.8215	0.0595	1301643	keystroke	s	n/a
651.001	0.0905	1302002	keystroke	Key.enter	n/a
651.097	12.5655	1302194	prompt	n/a	carlos parcel violin quantity\n
651.7215	0.09	1303443	keystroke	c	n/a
651.8565	0.105	1303713	keystroke	a	n/a
652.0215	0.091	1304043	keystroke	r	n/a
652.187	0.0745	1304374	keystroke	l	n/a
652.3665	0.06	1304733	keystroke	o	n/a
652.472	0.09	1304944	keystroke	s	n/a
652.606	0.0755	1305212	keystroke	Key.space	n/a
652.727	0.0745	1305454	keystroke	p	n/a
652.8315	0.09	1305663	keystroke	a	n/a
653.0855	0.1055	1306171	keystroke	r	n/a
653.3115	0.09	1306623	keystroke	c	n/a
653.5215	0.0905	1307043	keystroke	e	n/a
653.672	0.0735	1307344	keystroke	l	n/a
653.9865	0.06	1307973	keystroke	Key.space	n/a
654.632	0.1045	1309264	keystroke	b	n/a
654.9165	0.15	1309833	keystroke	i	n/a
655.2765	0.06	1310553	keystroke	Key.backspace	n/a
655.4265	0.06	1310853	keystroke	Key.backspace	n/a
656.1015	0.06	1312203	keystroke	v	n/a
656.5065	0.1195	1313013	keystroke	i	n/a
656.596	0.09	1313192	keystroke	o	n/a
656.8065	0.0605	1313613	keystroke	u	n/a
657.017	0.059	1314034	keystroke	l	n/a
657.2415	0.09	1314483	keystroke	i	n/a
657.317	0.1045	1314634	keystroke	n	n/a
657.5265	0.075	1315053	keystroke	Key.space	n/a
658.531	0.0755	1317062	keystroke	Key.backspace	n/a
658.6815	0.06	1317363	keystroke	Key.backspace	n/a
658.937	0.0745	1317874	keystroke	Key.backspace	n/a
659.2065	0.075	1318413	keystroke	Key.backspace	n/a
659.761	0.061	1319522	keystroke	Key.backspace	n/a
661.0065	0.0745	1322013	keystroke	l	n/a
661.216	0.076	1322432	keystroke	i	n/a
661.306	0.12	1322612	keystroke	n	n/a
661.486	0.09	1322972	keystroke	Key.space	n/a
661.756	0.075	1323512	keystroke	q	n/a
661.8465	0.075	1323693	keystroke	u	n/a
662.042	0.074	1324084	keystroke	n	n/a
662.4615	0.06	1324923	keystroke	t	n/a
662.5815	0.0745	1325163	keystroke	i	n/a
662.716	0.105	1325432	keystroke	t	n/a
662.9115	0.0745	1325823	keystroke	y	n/a
663.586	0.075	1327172	keystroke	Key.enter	n/a
663.6675	10.665	1327335	prompt	n/a	relief escorts immigrants after\n
664.486	0.076	1328972	keystroke	r	n/a
664.5315	0.1205	1329063	keystroke	e	n/a
664.711	0.12	1329422	keystroke	l	n/a
664.801	0.0905	1329602	keystroke	i	n/a
664.9365	0.12	1329873	keystroke	e	n/a
665.191	0.1205	1330382	keystroke	f	n/a
665.5205	0.076	1331041	keystroke	Key.space	n/a
665.867	0.1045	1331734	keystroke	e	n/a
666.0465	0.1055	1332093	keystroke	s	n/a
666.2255	0.1065	1332451	keystroke	c	n/a
666.451	0.105	1332902	keystroke	o	n/a
666.647	0.0895	1333294	keystroke	r	n/a
666.931	0.09	1333862	keystroke	t	n/a
668.0265	0.0595	1336053	keystroke	s	n/a
668.296	0.09	1336592	keystroke	Key.space	n/a
668.582	0.1495	1337164	keystroke	i	n/a
668.746	0.076	1337492	keystroke	m	n/a
668.911	0.1355	1337822	keystroke	m	n/a
669.091	0.105	1338182	keystroke	i	n/a
669.256	0.1205	1338512	keystroke	g	n/a
669.481	0.12	1338962	keystroke	r	n/a
669.5865	0.1345	1339173	keystroke	a	n/a
669.8265	0.0905	1339653	keystroke	n	n/a
669.962	0.1045	1339924	keystroke	t	n/a
670.111	0.12	1340222	keystroke	s	n/a
670.261	0.09	1340522	keystroke	Key.space	n/a
670.4715	0.105	1340943	keystroke	a	n/a
670.9365	0.0755	1341873	keystroke	f	n/a
671.297	0.1195	1342594	keystroke	t	n/a
671.866	0.0755	1343732	keystroke	r	n/a
672.7215	0.12	1345443	keystroke	Key.backspace	n/a
672.9915	0.1355	1345983	keystroke	e	n/a
673.1115	0.075	1346223	keystroke	r	n/a
674.2515	0.075	1348503	keystroke	Key.enter	n/a
674.3325	7.9155	1348665	prompt	n/a	voltage integration file ciao\n
675.4515	0.045	1350903	keystroke	v	n/a
675.7365	0.075	1351473	keystroke	o	n/a
675.9015	0.075	1351803	keystroke	l	n/a
676.0365	0.09	1352073	keystroke	t	n/a
676.1415	0.1195	1352283	keystroke	a	n/a
676.351	0.1355	1352702	keystroke	g	n/a
676.4565	0.12	1352913	keystroke	e	n/a
676.6065	0.09	1353213	keystroke	Key.space	n/a
676.8015	0.15	1353603	keystroke	i	n/a
676.9065	0.105	1353813	keystroke	n	n/a
677.0265	0.12	1354053	keystroke	t	n/a
677.1615	0.15	1354323	keystroke	e	n/a
677.8815	0.09	1355763	keystroke	r	n/a
678.1215	0.105	1356243	keystroke	g	n/a
678.4365	0.1355	1356873	keystroke	r	n/a
678.556	0.166	1357112	keystroke	a	n/a
678.736	0.105	1357472	keystroke	t	n/a
678.887	0.1345	1357774	keystroke	i	n/a
678.991	0.0605	1357982	keystroke	o	n/a
679.2015	0.09	1358403	keystroke	n	n/a
679.3515	0.105	1358703	keystroke	Key.space	n/a
679.6065	0.06	1359213	keystroke	f	n/a
680.072	0.075	1360144	keystroke	i	n/a
680.236	0.0605	1360472	keystroke	l	n/a
680.342	0.1045	1360684	keystroke	e	n/a
680.4915	0.0905	1360983	keystroke	Key.space	n/a
680.7165	0.075	1361433	keystroke	c	n/a
680.8365	0.105	1361673	keystroke	i	n/a
681.017	0.1045	1362034	keystroke	a	n/a
681.496	0.075	1362992	keystroke	o	n/a
682.187	0.059	1364374	keystroke	Key.enter	n/a
682.2525	6.8355	1364505	prompt	n/a	shed teachers dylan infants\n
683.147	0.089	1366294	keystroke	s	n/a
683.341	0.0755	1366682	keystroke	h	n/a
683.506	0.0755	1367012	keystroke	r	n/a
684.151	0.12	1368302	keystroke	Key.backspace	n/a
684.287	0.0895	1368574	keystroke	e	n/a
684.556	0.075	1369112	keystroke	d	n/a
684.841	0.0905	1369682	keystroke	Key.space	n/a
685.126	0.0905	1370252	keystroke	t	n/a
685.3815	0.075	1370763	keystroke	e	n/a
685.486	0.12	1370972	keystroke	a	n/a
685.651	0.106	1371302	keystroke	c	n/a
685.8165	0.075	1371633	keystroke	h	n/a
685.9965	0.075	1371993	keystroke	e	n/a
686.1765	0.075	1372353	keystroke	r	n/a
686.3115	0.09	1372623	keystroke	s	n/a
686.4465	0.09	1372893	keystroke	Key.space	n/a
686.7915	0.075	1373583	keystroke	d	n/a
686.8965	0.105	1373793	keystroke	y	n/a
687.152	0.075	1374304	keystroke	l	n/a
687.2865	0.1045	1374573	keystroke	a	n/a
687.437	0.0895	1374874	keystroke	n	n/a
687.571	0.0905	1375142	keystroke	Key.space	n/a
687.782	0.09	1375564	keystroke	i	n/a
687.842	0.12	1375684	keystroke	n	n/a
688.007	0.09	1376014	keystroke	f	n/a
688.142	0.12	1376284	keystroke	a	n/a
688.292	0.1045	1376584	keystroke	n	n/a
688.592	0.089	1377184	keystroke	t	n/a
688.8165	0.09	1377633	keystroke	s	n/a
688.9965	0.09	1377993	keystroke	Key.enter	n/a
689.092	9.972	1378184	prompt	n/a	vacancies dependence diving antibodies\n
689.8365	0.12	1379673	keystroke	v	n/a
690.0765	0.0905	1380153	keystroke	a	n/a
690.6165	0.09	1381233	keystroke	c	n/a
690.9465	0.0755	1381893	keystroke	a	n/a
691.1415	0.105	1382283	keystroke	n	n/a
691.637	0.0895	1383274	keystroke	c	n/a
691.8315	0.09	1383663	keystroke	i	n/a
691.9815	0.075	1383963	keystroke	e	n/a
692.1165	0.0755	1384233	keystroke	s	n/a
692.3115	0.075	1384623	keystroke	Key.space	n/a
692.7015	0.075	1385403	keystroke	d	n/a
692.867	0.0745	1385734	keystroke	e	n/a
692.9865	0.0905	1385973	keystroke	p	n/a
693.122	0.0745	1386244	keystroke	e	n/a
693.2715	0.075	1386543	keystroke	n	n/a
693.4365	0.09	1386873	keystroke	d	n/a
694.1415	0.0755	1388283	keystroke	e	n/a
694.3365	0.075	1388673	keystroke	n	n/a
694.501	0.0755	1389002	keystroke	c	n/a
694.6215	0.09	1389243	keystroke	e	n/a
694.8915	0.06	1389783	keystroke	Key.space	n/a
695.1465	0.105	1390293	keystroke	d	n/a
695.5215	0.0755	1391043	keystroke	i	n/a
695.6565	0.06	1391313	keystroke	v	n/a
695.8065	0.12	1391613	keystroke	i	n/a
695.9115	0.105	1391823	keystroke	n	n/a
696.0915	0.105	1392183	keystroke	g	n/a
696.3165	0.06	1392633	keystroke	Key.space	n/a
696.9165	0.105	1393833	keystroke	a	n/a
697.097	0.09	1394194	keystroke	n	n/a
697.2915	0.0755	1394583	keystroke	t	n/a
697.3965	0.12	1394793	keystroke	i	n/a
698.0565	0.105	1396113	keystroke	b	n/a
698.2965	0.06	1396593	keystroke	o	n/a
698.416	0.0755	1396832	keystroke	d	n/a
698.5365	0.0895	1397073	keystroke	i	n/a
698.672	0.0895	1397344	keystroke	e	n/a
698.822	0.0895	1397644	keystroke	s	n/a
698.9715	0.0895	1397943	keystroke	Key.enter	n/a
699.068	10.2405	1398136	prompt	n/a	gotta mentioned transcript nirvana\n
699.8415	0.09	1399683	keystroke	g	n/a
