onset	duration	sample	value	key	prompt_text
3.276	10.2795	6552	prompt	n/a	the quick brown fox jumps over a lazy dog\n
4.7505	0.042	9501	keystroke	t	n/a
4.7515	0.071	9503	keystroke	h	n/a
7.194	0.014	14388	keystroke	e	n/a
7.208	0.09	14416	keystroke	Key.space	n/a
7.3575	0.09	14715	keystroke	q	n/a
7.4925	0.09	14985	keystroke	u	n/a
7.5675	0.0755	15135	keystroke	i	n/a
7.657	0.09	15314	keystroke	c	n/a
7.762	0.106	15524	keystroke	k	n/a
7.8975	0.045	15795	keystroke	Key.space	n/a
7.9875	0.09	15975	keystroke	b	n/a
8.1375	0.075	16275	keystroke	r	n/a
8.2125	0.105	16425	keystroke	o	n/a
8.3325	0.105	16665	keystroke	w	n/a
8.4225	0.06	16845	keystroke	n	n/a
8.5575	0.09	17115	keystroke	Key.space	n/a
8.6625	0.06	17325	keystroke	f	n/a
8.7375	0.09	17475	keystroke	o	n/a
8.9175	0.0745	17835	keystroke	x	n/a
9.007	0.075	18014	keystroke	Key.space	n/a
9.217	0.0755	18434	keystroke	j	n/a
9.398	0.06	18796	keystroke	u	n/a
9.593	0.06	19186	keystroke	m	n/a
9.728	0.075	19456	keystroke	p	n/a
9.908	0.09	19816	keystroke	s	n/a
10.058	0.105	20116	keystroke	Key.space	n/a
10.268	0.0895	20536	keystroke	o	n/a
10.3725	0.06	20745	keystroke	v	n/a
10.5225	0.1055	21045	keystroke	e	n/a
10.598	0.075	21196	keystroke	r	n/a
10.703	0.075	21406	keystroke	Key.space	n/a
10.928	0.105	21856	keystroke	a	n/a
11.048	0.075	22096	keystroke	Key.space	n/a
11.573	0.12	23146	keystroke	l	n/a
11.678	0.15	23356	keystroke	a	n/a
12.113	0.105	24226	keystroke	z	n/a
12.398	0.06	24796	keystroke	y	n/a
12.472	0.105	24944	keystroke	Key.space	n/a
13.148	0.0895	26296	keystroke	d	n/a
13.2525	0.09	26505	keystroke	o	n/a
13.3725	0.075	26745	keystroke	g	n/a
13.4775	0.075	26955	keystroke	Key.enter	n/a
13.5595	6.475	27119	prompt	n/a	conditional rights cable dana\n
14.3475	0.0755	28695	keystroke	c	n/a
14.408	0.12	28816	keystroke	o	n/a
14.468	0.105	28936	keystroke	n	n/a
15.533	0.06	31066	keystroke	d	n/a
15.728	0.105	31456	keystroke	i	n/a
15.863	0.075	31726	keystroke	t	n/a
15.9975	0.135	31995	keystroke	i	n/a
16.1025	0.09	32205	keystroke	o	n/a
16.2525	0.09	32505	keystroke	n	n/a
16.3725	0.09	32745	keystroke	a	n/a
16.5375	0.09	33075	keystroke	l	n/a
16.6425	0.075	33285	keystroke	Key.space	n/a
17.3185	0.0895	34637	keystroke	r	n/a
17.453	0.09	34906	keystroke	i	n/a
17.558	0.09	35116	keystroke	g	n/a
17.828	0.075	35656	keystroke	h	n/a
18.008	0.0745	36016	keystroke	t	n/a
18.2175	0.075	36435	keystroke	s	n/a
18.368	0.105	36736	keystroke	Key.space	n/a
18.653	0.105	37306	keystroke	c	n/a
18.728	0.105	37456	keystroke	a	n/a
18.878	0.09	37756	keystroke	b	n/a
19.058	0.09	38116	keystroke	l	n/a
19.163	0.075	38326	keystroke	e	n/a
19.253	0.075	38506	keystroke	Key.space	n/a
19.448	0.12	38896	keystroke	d	n/a
19.583	0.09	39166	keystroke	a	n/a
19.703	0.09	39406	keystroke	n	n/a
19.763	0.09	39526	keystroke	a	n/a
19.928	0.105	39856	keystroke	Key.enter	n/a
20.0485	13.8615	40097	prompt	n/a	individually unlikely monster strain\n
20.798	0.12	41596	keystroke	i	n/a
20.858	0.12	41716	keystroke	n	n/a
21.2625	0.075	42525	keystroke	d	n/a
21.3825	0.105	42765	keystroke	i	n/a
21.5175	0.075	43035	keystroke	v	n/a
21.7275	0.075	43455	keystroke	i	n/a
22.0575	0.075	44115	keystroke	u	n/a
22.2825	0.09	44565	keystroke	a	n/a
22.3875	0.06	44775	keystroke	l	n/a
22.5075	0.06	45015	keystroke	l	n/a
22.5975	0.09	45195	keystroke	y	n/a
22.7175	0.105	45435	keystroke	Key.space	n/a
22.9875	0.12	45975	keystroke	u	n/a
23.0475	0.105	46095	keystroke	n	n/a
23.2575	0.075	46515	keystroke	l	n/a
23.4375	0.045	46875	keystroke	i	n/a
23.5725	0.075	47145	keystroke	k	n/a
23.6625	0.09	47325	keystroke	e	n/a
23.7675	0.061	47535	keystroke	l	n/a
23.9025	0.09	47805	keystroke	y	n/a
23.9775	0.105	47955	keystroke	Key.space	n/a
24.473	0.12	48946	keystroke	o	n/a
24.533	0.075	49066	keystroke	m	n/a
24.713	0.09	49426	keystroke	n	n/a
24.863	0.105	49726	keystroke	s	n/a
25.193	0.075	50386	keystroke	Key.backspace	n/a
25.328	0.0595	50656	keystroke	Key.backspace	n/a
25.4625	0.015	50925	keystroke	Key.backspace	n/a
25.553	0.075	51106	keystroke	Key.backspace	n/a
26.228	0.06	52456	keystroke	Key.backspace	n/a
26.363	0.06	52726	keystroke	Key.backspace	n/a
26.483	0.06	52966	keystroke	Key.backspace	n/a
26.603	0.045	53206	keystroke	Key.backspace	n/a
26.6925	0.045	53385	keystroke	Key.backspace	n/a
26.8125	0.045	53625	keystroke	Key.backspace	n/a
26.9175	0.03	53835	keystroke	Key.backspace	n/a
27.0225	0.06	54045	keystroke	Key.backspace	n/a
27.1275	0.045	54255	keystroke	Key.backspace	n/a
27.2325	0.045	54465	keystroke	Key.backspace	n/a
27.3525	0.03	54705	keystroke	Key.backspace	n/a
27.4275	0.06	54855	keystroke	Key.backspace	n/a
27.5325	0.045	55065	keystroke	Key.backspace	n/a
27.6375	0.075	55275	keystroke	Key.backspace	n/a
28.2525	0.06	56505	keystroke	Key.backspace	n/a
29.7075	0.06	59415	keystroke	d	n/a
29.8275	0.06	59655	keystroke	u	n/a
29.9175	0.09	59835	keystroke	a	n/a
30.0525	0.06	60105	keystroke	l	n/a
30.1725	0.06	60345	keystroke	l	n/a
30.2335	0.074	60467	keystroke	y	n/a
30.3675	0.075	60735	keystroke	Key.space	n/a
30.8625	0.12	61725	keystroke	u	n/a
30.9225	0.09	61845	keystroke	n	n/a
31.1325	0.045	62265	keystroke	l	n/a
31.2975	0.0455	62595	keystroke	i	n/a
31.448	0.075	62896	keystroke	k	n/a
31.553	0.09	63106	keystroke	e	n/a
31.658	0.075	63316	keystroke	l	n/a
31.793	0.075	63586	keystroke	y	n/a
31.853	0.075	63706	keystroke	Key.space	n/a
32.048	0.09	64096	keystroke	m	n/a
32.108	0.135	64216	keystroke	o	n/a
32.273	0.09	64546	keystroke	n	n/a
32.393	0.075	64786	keystroke	s	n/a
32.543	0.09	65086	keystroke	t	n/a
32.678	0.09	65356	keystroke	e	n/a
32.753	0.06	65506	keystroke	r	n/a
32.843	0.09	65686	keystroke	Key.space	n/a
32.948	0.075	65896	keystroke	s	n/a
33.128	0.105	66256	keystroke	t	n/a
33.188	0.105	66376	keystroke	r	n/a
33.383	0.09	66766	keystroke	a	n/a
33.488	0.09	66976	keystroke	i	n/a
33.518	0.075	67036	keystroke	n	n/a
33.578	0.09	67156	keystroke	s	n/a
33.683	0.075	67366	keystroke	Key.space	n/a
33.818	0.09	67636	keystroke	Key.enter	n/a
33.9125	6.057	67825	prompt	n/a	para less sentence mean\n
34.508	0.105	69016	keystroke	p	n/a
34.598	0.075	69196	keystroke	a	n/a
34.8525	0.061	69705	keystroke	p	n/a
34.8685	0.074	69737	keystroke	a	n/a
35.5885	0.21	71177	keystroke	Key.backspace	n/a
35.8885	0.15	71777	keystroke	r	n/a
36.1125	0.045	72225	keystroke	Key.backspace	n/a
36.2325	0.06	72465	keystroke	Key.backspace	n/a
36.3085	0.075	72617	keystroke	r	n/a
36.3385	0.12	72677	keystroke	a	n/a
36.6225	0.121	73245	keystroke	Key.space	n/a
36.8635	0.09	73727	keystroke	l	n/a
37.0285	0.075	74057	keystroke	e	n/a
37.2085	0.075	74417	keystroke	s	n/a
37.3435	0.105	74687	keystroke	s	n/a
37.4025	0.105	74805	keystroke	Key.space	n/a
37.5225	0.1055	75045	keystroke	s	n/a
38.4075	0.091	76815	keystroke	e	n/a
38.5135	0.089	77027	keystroke	n	n/a
38.6625	0.136	77325	keystroke	t	n/a
38.7825	0.091	77565	keystroke	e	n/a
39.0375	0.075	78075	keystroke	n	n/a
39.1285	0.104	78257	keystroke	c	n/a
39.1725	0.106	78345	keystroke	e	n/a
39.2475	0.075	78495	keystroke	Key.space	n/a
39.4125	0.076	78825	keystroke	m	n/a
39.4575	0.075	78915	keystroke	e	n/a
39.6225	0.075	79245	keystroke	a	n/a
39.7125	0.09	79425	keystroke	n	n/a
39.8775	0.09	79755	keystroke	Key.enter	n/a
39.973	9.6415	79946	prompt	n/a	activities knights soldier calculators\n
40.6125	0.105	81225	keystroke	a	n/a
40.6725	0.106	81345	keystroke	c	n/a
40.9125	0.046	81825	keystroke	t	n/a
40.9425	0.06	81885	keystroke	i	n/a
41.1375	0.076	82275	keystroke	v	n/a
41.2575	0.075	82515	keystroke	i	n/a
41.348	0.0745	82696	keystroke	t	n/a
41.4385	0.104	82877	keystroke	i	n/a
41.5575	0.06	83115	keystroke	e	n/a
41.6925	0.09	83385	keystroke	s	n/a
41.7675	0.075	83535	keystroke	Key.space	n/a
41.9625	0.105	83925	keystroke	k	n/a
42.0525	0.075	84105	keystroke	n	n/a
42.2025	0.061	84405	keystroke	i	n/a
42.2175	0.015	84435	keystroke	o	n/a
42.5325	0.075	85065	keystroke	g	n/a
43.2525	0.045	86505	keystroke	Key.backspace	n/a
43.3585	0.06	86717	keystroke	Key.backspace	n/a
43.8685	0.075	87737	keystroke	g	n/a
43.9735	0.06	87947	keystroke	h	n/a
44.0485	0.06	88097	keystroke	t	n/a
44.1985	0.09	88397	keystroke	s	n/a
44.3035	0.09	88607	keystroke	Key.space	n/a
44.7235	0.09	89447	keystroke	s	n/a
44.7985	0.045	89597	keystroke	o	n/a
44.9485	0.045	89897	keystroke	l	n/a
45.0385	0.0895	90077	keystroke	d	n/a
45.158	0.075	90316	keystroke	i	n/a
45.308	0.105	90616	keystroke	e	n/a
45.368	0.09	90736	keystroke	r	n/a
45.5325	0.09	91065	keystroke	Key.space	n/a
45.9525	0.075	91905	keystroke	c	n/a
46.058	0.0445	92116	keystroke	o	n/a
46.4025	0.045	92805	keystroke	Key.backspace	n/a
46.4925	0.105	92985	keystroke	a	n/a
46.6575	0.045	93315	keystroke	l	n/a
46.7625	0.105	93525	keystroke	c	n/a
47.798	0.075	95596	keystroke	u	n/a
47.9925	0.06	95985	keystroke	l	n/a
48.0535	0.104	96107	keystroke	a	n/a
48.2325	0.06	96465	keystroke	t	n/a
48.4125	0.06	96825	keystroke	o	n/a
48.923	0.075	97846	keystroke	r	n/a
49.223	0.075	98446	keystroke	s	n/a
49.5525	0.06	99105	keystroke	Key.enter	n/a
49.6215	5.0635	99243	prompt	n/a	racial wines insects surfaces\n
50.2875	0.045	100575	keystroke	r	n/a
50.3925	0.195	100785	keystroke	a	n/a
50.5125	0.12	101025	keystroke	c	n/a
50.6335	0.089	101267	keystroke	i	n/a
50.7675	0.075	101535	keystroke	a	n/a
50.8725	0.075	101745	keystroke	l	n/a
50.9175	0.105	101835	keystroke	Key.space	n/a
51.4725	0.09	102945	keystroke	w	n/a
51.5775	0.12	103155	keystroke	i	n/a
51.6525	0.06	103305	keystroke	n	n/a
51.833	0.135	103666	keystroke	e	n/a
51.953	0.12	103906	keystroke	s	n/a
52.103	0.105	104206	keystroke	Key.space	n/a
52.343	0.105	104686	keystroke	i	n/a
52.418	0.09	104836	keystroke	n	n/a
52.493	0.0895	104986	keystroke	s	n/a
52.7175	0.045	105435	keystroke	e	n/a
52.8825	0.06	105765	keystroke	s	n/a
53.0625	0.105	106125	keystroke	c	n/a
53.2725	0.06	106545	keystroke	t	n/a
53.4075	0.0905	106815	keystroke	s	n/a
53.513	0.09	107026	keystroke	Key.space	n/a
53.633	0.09	107266	keystroke	s	n/a
53.738	0.075	107476	keystroke	u	n/a
53.828	0.045	107656	keystroke	r	n/a
53.9635	0.075	107927	keystroke	f	n/a
54.0985	0.15	108197	keystroke	a	n/a
54.2635	0.09	108527	keystroke	c	n/a
54.3385	0.075	108677	keystroke	e	n/a
54.4885	0.12	108977	keystroke	s	n/a
54.5935	0.09	109187	keystroke	Key.enter	n/a
54.6885	6.371	109377	prompt	n/a	care royal crystal clarity\n
55.8385	0.075	111677	keystroke	c	n/a
55.868	0.1205	111736	keystroke	a	n/a
56.0485	0.1045	112097	keystroke	r	n/a
56.108	0.12	112216	keystroke	e	n/a
56.2435	0.0895	112487	keystroke	Key.space	n/a
56.303	0.12	112606	keystroke	r	n/a
56.4685	0.1045	112937	keystroke	o	n/a
56.6335	0.0595	113267	keystroke	y	n/a
56.873	0.09	113746	keystroke	a	n/a
56.9935	0.0895	113987	keystroke	l	n/a
57.083	0.0755	114166	keystroke	Key.space	n/a
57.2935	0.075	114587	keystroke	c	n/a
57.6985	0.09	115397	keystroke	r	n/a
57.8335	0.09	115667	keystroke	y	n/a
58.0285	0.074	116057	keystroke	s	n/a
58.1335	0.089	116267	keystroke	t	n/a
58.2685	0.075	116537	keystroke	a	n/a
58.4325	0.091	116865	keystroke	l	n/a
58.5085	0.059	117017	keystroke	Key.space	n/a
58.8085	0.105	117617	keystroke	c	n/a
59.1525	0.075	118305	keystroke	a	n/a
59.5285	0.045	119057	keystroke	Key.backspace	n/a
59.6635	0.105	119327	keystroke	l	n/a
59.7835	0.06	119567	keystroke	a	n/a
60.353	0.09	120706	keystroke	r	n/a
60.458	0.075	120916	keystroke	i	n/a
60.683	0.0895	121366	keystroke	t	n/a
60.728	0.105	121456	keystroke	y	n/a
60.968	0.09	121936	keystroke	Key.enter	n/a
61.064	17.6365	122128	prompt	n/a	bless bradley monitoring republic\n
61.958	0.06	123916	keystroke	b	n/a
62.048	0.09	124096	keystroke	l	n/a
62.168	0.075	124336	keystroke	e	n/a
62.348	0.06	124696	keystroke	s	n/a
62.498	0.075	124996	keystroke	s	n/a
62.633	0.045	125266	keystroke	s	n/a
62.723	0.09	125446	keystroke	Key.space	n/a
63.248	0.045	126496	keystroke	Key.backspace	n/a
63.398	0.015	126796	keystroke	Key.backspace	n/a
63.4875	0.045	126975	keystroke	Key.backspace	n/a
63.5775	0.075	127155	keystroke	Key.space	n/a
64.2075	0.06	128415	keystroke	Key.backspace	n/a
64.4025	0.075	128805	keystroke	s	n/a
64.5075	0.06	129015	keystroke	Key.space	n/a
65.363	0.045	130726	keystroke	b	n/a
65.663	0.075	131326	keystroke	r	n/a
65.798	0.12	131596	keystroke	a	n/a
65.873	0.105	131746	keystroke	d	n/a
66.038	0.105	132076	keystroke	l	n/a
66.158	0.105	132316	keystroke	e	n/a
66.368	0.06	132736	keystroke	y	n/a
66.503	0.09	133006	keystroke	Key.space	n/a
67.283	0.044	134566	keystroke	Key.backspace	n/a
67.417	0.076	134834	keystroke	Key.backspace	n/a
68.4525	0.075	136905	keystroke	y	n/a
68.5425	0.075	137085	keystroke	Key.space	n/a
68.7675	0.165	137535	keystroke	o	n/a
68.7975	0.06	137595	keystroke	m	n/a
69.6825	0.06	139365	keystroke	Key.backspace	n/a
69.8175	0.075	139635	keystroke	Key.backspace	n/a
70.0125	0.09	140025	keystroke	,	n/a
70.5375	0.09	141075	keystroke	Key.backspace	n/a
71.0025	0.09	142005	keystroke	m	n/a
71.258	0.09	142516	keystroke	o	n/a
71.4525	0.06	142905	keystroke	n	n/a
72.323	0.075	144646	keystroke	i	n/a
72.593	0.06	145186	keystroke	t	n/a
72.893	0.06	145786	keystroke	o	n/a
73.073	0.075	146146	keystroke	r	n/a
73.718	0.09	147436	keystroke	i	n/a
73.763	0.075	147526	keystroke	n	n/a
73.823	0.06	147646	keystroke	g	n/a
73.913	0.09	147826	keystroke	Key.space	n/a
74.5125	0.09	149025	keystroke	r	n/a
74.5725	0.105	149145	keystroke	e	n/a
75.5925	0.06	151185	keystroke	Key.backspace	n/a
76.237	0.105	152474	keystroke	e	n/a
76.357	0.09	152714	keystroke	p	n/a
76.597	0.06	153194	keystroke	u	n/a
76.732	0.075	153464	keystroke	v	n/a
77.197	0.075	154394	keystroke	Key.backspace	n/a
77.333	0.09	154666	keystroke	b	n/a
77.407	0.076	154814	keystroke	l	n/a
77.647	0.061	155294	keystroke	i	n/a
78.5025	0.06	157005	keystroke	c	n/a
78.5925	0.105	157185	keystroke	Key.enter	n/a
78.7125	7.2465	157425	prompt	n/a	modems slim pittsburgh olympus\n
79.4175	0.09	158835	keystroke	m	n/a
79.4775	0.105	158955	keystroke	o	n/a
79.5675	0.09	159135	keystroke	d	n/a
79.7625	0.105	159525	keystroke	e	n/a
79.8225	0.075	159645	keystroke	r	n/a
79.9125	0.075	159825	keystroke	n	n/a
80.0175	0.105	160035	keystroke	s	n/a
80.1375	0.105	160275	keystroke	Key.space	n/a
80.4375	0.09	160875	keystroke	s	n/a
80.5425	0.09	161085	keystroke	l	n/a
80.7675	0.09	161535	keystroke	i	n/a
80.8275	0.12	161655	keystroke	m	n/a
80.9325	0.105	161865	keystroke	Key.space	n/a
81.2925	0.09	162585	keystroke	p	n/a
81.4875	0.06	162975	keystroke	i	n/a
81.6825	0.075	163365	keystroke	t	n/a
81.8025	0.075	163605	keystroke	t	n/a
82.0125	0.09	164025	keystroke	s	n/a
82.4925	0.105	164985	keystroke	b	n/a
83.273	0.0745	166546	keystroke	u	n/a
83.3775	0.105	166755	keystroke	r	n/a
84.007	0.075	168014	keystroke	g	n/a
84.112	0.105	168224	keystroke	Key.space	n/a
84.6975	0.06	169395	keystroke	o	n/a
84.8325	0.105	169665	keystroke	l	n/a
84.9975	0.075	169995	keystroke	y	n/a
85.0875	0.0905	170175	keystroke	m	n/a
85.238	0.1195	170476	keystroke	p	n/a
85.4025	0.075	170805	keystroke	u	n/a
85.5375	0.09	171075	keystroke	s	n/a
85.6285	0.104	171257	keystroke	Key.space	n/a
85.8825	0.075	171765	keystroke	Key.enter	n/a
85.974	11.49	171948	prompt	n/a	spectrum stores coordinator november\n
86.7675	0.09	173535	keystroke	s	n/a
86.9175	0.105	173835	keystroke	p	n/a
87.0525	0.105	174105	keystroke	e	n/a
87.1275	0.105	174255	keystroke	c	n/a
87.3675	0.09	174735	keystroke	t	n/a
87.5325	0.135	175065	keystroke	r	n/a
87.6825	0.09	175365	keystroke	u	n/a
87.8775	0.09	175755	keystroke	m	n/a
87.9525	0.09	175905	keystroke	Key.space	n/a
88.1775	0.075	176355	keystroke	s	n/a
88.3725	0.12	176745	keystroke	t	n/a
88.4475	0.09	176895	keystroke	r	n/a
88.5525	0.1655	177105	keystroke	o	n/a
89.048	0.105	178096	keystroke	Key.backspace	n/a
89.303	0.105	178606	keystroke	Key.backspace	n/a
89.558	0.09	179116	keystroke	o	n/a
89.663	0.12	179326	keystroke	r	n/a
89.723	0.09	179446	keystroke	e	n/a
89.873	0.12	179746	keystroke	s	n/a
89.978	0.12	179956	keystroke	Key.space	n/a
90.128	0.09	180256	keystroke	c	n/a
90.233	0.06	180466	keystroke	o	n/a
90.3675	0.09	180735	keystroke	o	n/a
90.4725	0.09	180945	keystroke	r	n/a
90.6825	0.075	181365	keystroke	d	n/a
90.8475	0.09	181695	keystroke	i	n/a
90.9225	0.075	181845	keystroke	n	n/a
90.9825	0.09	181965	keystroke	a	n/a
91.1025	0.0905	182205	keystroke	t	n/a
91.268	0.105	182536	keystroke	o	n/a
91.388	0.09	182776	keystroke	r	n/a
91.523	0.09	183046	keystroke	Key.space	n/a
92.168	0.105	184336	keystroke	c	n/a
92.288	0.075	184576	keystroke	o	n/a
92.453	0.075	184906	keystroke	v	n/a
93.173	0.075	186346	keystroke	m	n/a
93.278	0.12	186556	keystroke	e	n/a
93.923	0.12	187846	keystroke	b	n/a
94.703	0.075	189406	keystroke	Key.backspace	n/a
94.838	0.0745	189676	keystroke	Key.backspace	n/a
94.9575	0.06	189915	keystroke	Key.backspace	n/a
95.0775	0.06	190155	keystroke	Key.backspace	n/a
95.1825	0.045	190365	keystroke	Key.backspace	n/a
95.2725	0.075	190545	keystroke	Key.backspace	n/a
96.0525	0.075	192105	keystroke	n	n/a
96.1875	0.075	192375	keystroke	o	n/a
96.5775	0.12	193155	keystroke	v	n/a
96.6375	0.12	193275	keystroke	e	n/a
96.7725	0.075	193545	keystroke	m	n/a
97.0425	0.06	194085	keystroke	b	n/a
97.2225	0.09	194445	keystroke	e	n/a
97.2675	0.09	194535	keystroke	r	n/a
97.3725	0.09	194745	keystroke	Key.enter	n/a
97.4665	8.0225	194933	prompt	n/a	geneva stockholm optimum wiring\n
98.423	0.09	196846	keystroke	g	n/a
98.468	0.105	196936	keystroke	e	n/a
98.603	0.105	197206	keystroke	n	n/a
98.618	0.105	197236	keystroke	e	n/a
98.978	0.12	197956	keystroke	v	n/a
99.098	0.12	198196	keystroke	a	n/a
99.263	0.09	198526	keystroke	Key.space	n/a
99.4725	0.09	198945	keystroke	s	n/a
99.6825	0.075	199365	keystroke	t	n/a
99.7875	0.105	199575	keystroke	o	n/a
99.9225	0.09	199845	keystroke	c	n/a
100.0575	0.075	200115	keystroke	k	n/a
100.3875	0.06	200775	keystroke	h	n/a
100.4625	0.075	200925	keystroke	o	n/a
100.7025	0.105	201405	keystroke	l	n/a
100.8375	0.1055	201675	keystroke	m	n/a
100.958	0.12	201916	keystroke	Key.space	n/a
101.8725	0.12	203745	keystroke	o	n/a
101.9475	0.09	203895	keystroke	p	n/a
102.3825	0.075	204765	keystroke	t	n/a
102.6675	0.075	205335	keystroke	i	n/a
102.8175	0.075	205635	keystroke	m	n/a
102.9975	0.105	205995	keystroke	u	n/a
103.2225	0.075	206445	keystroke	m	n/a
103.3125	0.045	206625	keystroke	Key.space	n/a
103.8825	0.135	207765	keystroke	w	n/a
103.9575	0.12	207915	keystroke	r	n/a
104.5275	0.06	209055	keystroke	Key.backspace	n/a
104.7675	0.075	209535	keystroke	i	n/a
104.8575	0.075	209715	keystroke	r	n/a
104.9625	0.105	209925	keystroke	i	n/a
105.0225	0.09	210045	keystroke	n	n/a
105.0825	0.075	210165	keystroke	g	n/a
105.4425	0.045	210885	keystroke	Key.enter	n/a
105.4925	6.9415	210985	prompt	n/a	warranty dictionaries ruby easy\n
106.253	0.09	212506	keystroke	w	n/a
106.448	0.09	212896	keystroke	a	n/a
106.598	0.075	213196	keystroke	r	n/a
106.748	0.06	213496	keystroke	r	n/a
106.883	0.105	213766	keystroke	a	n/a
107.018	0.105	214036	keystroke	n	n/a
107.153	0.09	214306	keystroke	t	n/a
107.363	0.06	214726	keystroke	y	n/a
107.498	0.09	214996	keystroke	Key.space	n/a
108.068	0.09	216136	keystroke	d	n/a
108.173	0.09	216346	keystroke	i	n/a
108.383	0.0895	216766	keystroke	c	n/a
108.6225	0.075	217245	keystroke	t	n/a
108.7875	0.075	217575	keystroke	i	n/a
108.8325	0.105	217665	keystroke	o	n/a
108.9825	0.105	217965	keystroke	n	n/a
109.1025	0.09	218205	keystroke	a	n/a
109.3125	0.0905	218625	keystroke	r	n/a
109.523	0.06	219046	keystroke	i	n/a
109.718	0.1495	219436	keystroke	e	n/a
109.8225	0.105	219645	keystroke	s	n/a
109.9725	0.12	219945	keystroke	Key.space	n/a
110.543	0.075	221086	keystroke	r	n/a
110.903	0.0895	221806	keystroke	u	n/a
111.008	0.06	222016	keystroke	b	n/a
111.188	0.0595	222376	keystroke	y	n/a
111.2925	0.105	222585	keystroke	Key.space	n/a
111.5325	0.09	223065	keystroke	e	n/a
111.7275	0.135	223455	keystroke	a	n/a
111.8175	0.135	223635	keystroke	s	n/a
112.1175	0.075	224235	keystroke	y	n/a
112.3575	0.075	224715	keystroke	Key.enter	n/a
112.437	10.857	224874	prompt	n/a	which's negotiations losses inner\n
113.033	0.09	226066	keystroke	w	n/a
113.273	0.1495	226546	keystroke	h	n/a
113.288	0.1195	226576	keystroke	i	n/a
113.4975	0.09	226995	keystroke	c	n/a
114.8325	0.045	229665	keystroke	h	n/a
115.642	0.075	231284	keystroke	'	n/a
115.732	0.09	231464	keystroke	s	n/a
115.897	0.075	231794	keystroke	Key.space	n/a
116.8575	0.09	233715	keystroke	n	n/a
116.9625	0.075	233925	keystroke	e	n/a
117.0975	0.075	234195	keystroke	g	n/a
117.1425	0.09	234285	keystroke	o	n/a
117.2925	0.075	234585	keystroke	t	n/a
119.077	0.135	238154	keystroke	a	n/a
119.167	0.105	238334	keystroke	t	n/a
120.008	0.075	240016	keystroke	Key.backspace	n/a
120.143	0.075	240286	keystroke	Key.backspace	n/a
120.338	0.09	240676	keystroke	i	n/a
120.863	0.09	241726	keystroke	a	n/a
120.923	0.09	241846	keystroke	t	n/a
121.058	0.09	242116	keystroke	i	n/a
121.1175	0.105	242235	keystroke	o	n/a
121.2825	0.0605	242565	keystroke	n	n/a
121.343	0.105	242686	keystroke	s	n/a
121.463	0.105	242926	keystroke	Key.space	n/a
121.658	0.09	243316	keystroke	l	n/a
121.853	0.075	243706	keystroke	o	n/a
121.943	0.105	243886	keystroke	s	n/a
122.078	0.1345	244156	keystroke	s	n/a
122.3475	0.045	244695	keystroke	e	n/a
122.4825	0.09	244965	keystroke	s	n/a
122.5575	0.09	245115	keystroke	Key.space	n/a
122.723	0.075	245446	keystroke	i	n/a
122.783	0.045	245566	keystroke	n	n/a
122.888	0.135	245776	keystroke	n	n/a
123.038	0.105	246076	keystroke	e	n/a
123.098	0.075	246196	keystroke	r	n/a
123.203	0.09	246406	keystroke	Key.enter	n/a
123.3045	7.7295	246609	prompt	n/a	once maintaining goat betting\n
123.922	0.075	247844	keystroke	o	n/a
124.117	0.105	248234	keystroke	n	n/a
124.237	0.15	248474	keystroke	c	n/a
124.372	0.105	248744	keystroke	e	n/a
124.507	0.105	249014	keystroke	Key.space	n/a
124.792	0.075	249584	keystroke	m	n/a
124.882	0.091	249764	keystroke	a	n/a
125.018	0.104	250036	keystroke	i	n/a
125.077	0.09	250154	keystroke	n	n/a
125.197	0.09	250394	keystroke	t	n/a
125.452	0.075	250904	keystroke	a	n/a
126.5925	0.03	253185	keystroke	Key.backspace	n/a
126.8475	0.105	253695	keystroke	a	n/a
127.1025	0.09	254205	keystroke	n	n/a
127.7175	0.06	255435	keystroke	Key.backspace	n/a
128.1375	0.12	256275	keystroke	i	n/a
128.1975	0.09	256395	keystroke	n	n/a
128.3775	0.06	256755	keystroke	i	n/a
128.4075	0.075	256815	keystroke	n	n/a
128.4675	0.0745	256935	keystroke	g	n/a
128.557	0.09	257114	keystroke	Key.space	n/a
129.277	0.0755	258554	keystroke	g	n/a
129.3525	0.075	258705	keystroke	o	n/a
129.4425	0.105	258885	keystroke	a	n/a
129.5625	0.075	259125	keystroke	l	n/a
129.6675	0.06	259335	keystroke	Key.space	n/a
130.0425	0.09	260085	keystroke	b	n/a
130.1175	0.105	260235	keystroke	e	n/a
130.312	0.045	260624	keystroke	t	n/a
130.417	0.075	260834	keystroke	t	n/a
130.522	0.12	261044	keystroke	i	n/a
130.582	0.075	261164	keystroke	n	n/a
130.627	0.06	261254	keystroke	g	n/a
130.732	0.075	261464	keystroke	Key.space	n/a
130.972	0.06	261944	keystroke	Key.enter	n/a
131.0395	6.0395	262079	prompt	n/a	reunion sporting contains prisoners\n
131.707	0.106	263414	keystroke	r	n/a
131.752	0.105	263504	keystroke	e	n/a
131.947	0.12	263894	keystroke	u	n/a
132.127	0.105	264254	keystroke	n	n/a
132.548	0.105	265096	keystroke	i	n/a
132.637	0.105	265274	keystroke	o	n/a
132.773	0.075	265546	keystroke	n	n/a
132.967	0.075	265934	keystroke	Key.space	n/a
133.147	0.091	266294	keystroke	s	n/a
133.207	0.135	266414	keystroke	p	n/a
133.267	0.135	266534	keystroke	o	n/a
133.417	0.105	266834	keystroke	r	n/a
133.462	0.105	266924	keystroke	t	n/a
133.582	0.105	267164	keystroke	i	n/a
133.642	0.075	267284	keystroke	n	n/a
133.688	0.074	267376	keystroke	g	n/a
133.807	0.075	267614	keystroke	Key.space	n/a
134.1525	0.075	268305	keystroke	c	n/a
134.2575	0.03	268515	keystroke	o	n/a
134.2725	0.0895	268545	keystroke	n	n/a
134.363	0.059	268726	keystroke	t	n/a
134.452	0.105	268904	keystroke	a	n/a
134.677	0.105	269354	keystroke	i	n/a
134.737	0.105	269474	keystroke	n	n/a
135.4575	0.105	270915	keystroke	s	n/a
135.5775	0.09	271155	keystroke	Key.space	n/a
135.848	0.09	271696	keystroke	p	n/a
135.968	0.075	271936	keystroke	r	n/a
136.088	0.09	272176	keystroke	i	n/a
136.223	0.105	272446	keystroke	s	n/a
136.388	0.15	272776	keystroke	o	n/a
136.478	0.135	272956	keystroke	n	n/a
136.613	0.09	273226	keystroke	e	n/a
136.673	0.09	273346	keystroke	r	n/a
136.808	0.135	273616	keystroke	s	n/a
136.958	0.12	273916	keystroke	Key.enter	n/a
137.0825	7.2115	274165	prompt	n/a	needs folk skating theology\n
137.7375	0.06	275475	keystroke	n	n/a
137.8275	0.06	275655	keystroke	e	n/a
137.9475	0.105	275895	keystroke	e	n/a
138.1425	0.105	276285	keystroke	d	n/a
138.1725	0.12	276345	keystroke	s	n/a
138.2775	0.12	276555	keystroke	Key.space	n/a
138.7875	0.075	277575	keystroke	g	n/a
138.8475	0.075	277695	keystroke	o	n/a
139.2525	0.06	278505	keystroke	Key.backspace	n/a
139.372	0.09	278744	keystroke	Key.backspace	n/a
139.508	0.074	279016	keystroke	f	n/a
139.597	0.06	279194	keystroke	o	n/a
139.747	0.0905	279494	keystroke	l	n/a
139.8525	0.09	279705	keystroke	d	n/a
140.0925	0.06	280185	keystroke	Key.space	n/a
140.6175	0.09	281235	keystroke	s	n/a
140.7375	0.075	281475	keystroke	k	n/a
140.8425	0.0745	281685	keystroke	a	n/a
140.993	0.075	281986	keystroke	t	n/a
141.082	0.09	282164	keystroke	i	n/a
141.112	0.09	282224	keystroke	n	n/a
141.217	0.075	282434	keystroke	g	n/a
141.307	0.076	282614	keystroke	Key.space	n/a
141.728	0.09	283456	keystroke	t	n/a
141.773	0.09	283546	keystroke	h	n/a
141.923	0.105	283846	keystroke	e	n/a
141.998	0.09	283996	keystroke	o	n/a
142.193	0.12	284386	keystroke	l	n/a
143.3775	0.075	286755	keystroke	o	n/a
143.678	0.06	287356	keystroke	g	n/a
143.828	0.06	287656	keystroke	y	n/a
143.933	0.09	287866	keystroke	Key.space	n/a
144.203	0.09	288406	keystroke	Key.enter	n/a
144.2965	8.1575	288593	prompt	n/a	adapters hung processors remote\n
145.0725	0.105	290145	keystroke	s	n/a
145.387	0.075	290774	keystroke	Key.backspace	n/a
145.477	0.105	290954	keystroke	a	n/a
145.537	0.12	291074	keystroke	d	n/a
145.672	0.105	291344	keystroke	a	n/a
146.047	0.075	292094	keystroke	p	n/a
146.437	0.075	292874	keystroke	t	n/a
146.452	0.045	292904	keystroke	r	n/a
146.482	0.045	292964	keystroke	y	n/a
146.9325	0.06	293865	keystroke	Key.backspace	n/a
147.052	0.09	294104	keystroke	Key.backspace	n/a
147.622	0.135	295244	keystroke	e	n/a
147.697	0.12	295394	keystroke	r	n/a
147.862	0.105	295724	keystroke	s	n/a
148.0125	0.135	296025	keystroke	Key.space	n/a
148.5375	0.075	297075	keystroke	h	n/a
148.6575	0.135	297315	keystroke	u	n/a
148.7175	0.09	297435	keystroke	n	n/a
148.7775	0.09	297555	keystroke	g	n/a
148.8975	0.105	297795	keystroke	Key.space	n/a
149.4675	0.09	298935	keystroke	p	n/a
149.5725	0.105	299145	keystroke	r	n/a
149.7225	0.075	299445	keystroke	o	n/a
149.8125	0.12	299625	keystroke	v	n/a
149.8875	0.105	299775	keystroke	e	n/a
150.1875	0.06	300375	keystroke	Key.backspace	n/a
150.3075	0.09	300615	keystroke	Key.backspace	n/a
150.4125	0.165	300825	keystroke	c	n/a
150.5025	0.12	301005	keystroke	e	n/a
150.9825	0.075	301965	keystroke	s	n/a
151.1175	0.105	302235	keystroke	s	n/a
151.2675	0.0895	302535	keystroke	o	n/a
151.372	0.105	302744	keystroke	r	n/a
151.462	0.105	302924	keystroke	s	n/a
151.582	0.12	303164	keystroke	Key.space	n/a
151.762	0.105	303524	keystroke	r	n/a
151.792	0.12	303584	keystroke	e	n/a
151.897	0.09	303794	keystroke	m	n/a
152.002	0.09	304004	keystroke	o	n/a
152.062	0.105	304124	keystroke	t	n/a
152.137	0.105	304274	keystroke	e	n/a
152.227	0.105	304454	keystroke	Key.space	n/a
152.362	0.09	304724	keystroke	Key.enter	n/a
152.457	10.422	304914	prompt	n/a	photography spine innovative navy\n
153.3825	0.1195	306765	keystroke	p	n/a
153.532	0.06	307064	keystroke	h	n/a
153.622	0.105	307244	keystroke	o	n/a
153.742	0.075	307484	keystroke	t	n/a
153.832	0.09	307664	keystroke	o	n/a
154.402	0.09	308804	keystroke	g	n/a
154.432	0.105	308864	keystroke	r	n/a
154.582	0.09	309164	keystroke	p	n/a
154.612	0.09	309224	keystroke	a	n/a
155.437	0.015	310874	keystroke	Key.backspace	n/a
155.5275	0.0745	311055	keystroke	Key.backspace	n/a
155.632	0.12	311264	keystroke	a	n/a
155.887	0.105	311774	keystroke	p	n/a
156.022	0.09	312044	keystroke	h	n/a
156.1875	0.0755	312375	keystroke	y	n/a
156.293	0.1045	312586	keystroke	Key.space	n/a
157.042	0.09	314084	keystroke	s	n/a
157.102	0.105	314204	keystroke	p	n/a
157.3565	0.076	314713	keystroke	i	n/a
157.3865	0.09	314773	keystroke	n	n/a
157.4925	0.09	314985	keystroke	e	n/a
157.597	0.09	315194	keystroke	Key.space	n/a
157.9725	0.105	315945	keystroke	i	n/a
158.0475	0.285	316095	keystroke	n	n/a
158.5575	0.06	317115	keystroke	n	n/a
158.812	0.0305	317624	keystroke	o	n/a
159.187	0.045	318374	keystroke	c	n/a
159.217	0.12	318434	keystroke	a	n/a
159.5025	0.075	319005	keystroke	t	n/a
160.1475	0.075	320295	keystroke	Key.backspace	n/a
160.2825	0.06	320565	keystroke	Key.backspace	n/a
160.4025	0.06	320805	keystroke	Key.backspace	n/a
161.0775	0.06	322155	keystroke	v	n/a
161.1225	0.075	322245	keystroke	a	n/a
161.2875	0.0595	322575	keystroke	t	n/a
161.377	0.09	322754	keystroke	i	n/a
161.497	0.105	322994	keystroke	v	n/a
161.572	0.0905	323144	keystroke	e	n/a
161.6625	0.075	323325	keystroke	Key.space	n/a
161.872	0.09	323744	keystroke	n	n/a
161.992	0.12	323984	keystroke	a	n/a
162.442	0.075	324884	keystroke	v	n/a
162.652	0.06	325304	keystroke	y	n/a
162.787	0.09	325574	keystroke	Key.enter	n/a
162.883	7.391	325766	prompt	n/a	potatoes reflects venues appointed\n
163.492	0.075	326984	keystroke	p	n/a
163.747	0.0755	327494	keystroke	o	n/a
163.8225	0.09	327645	keystroke	t	n/a
164.3175	0.135	328635	keystroke	a	n/a
164.4375	0.075	328875	keystroke	t	n/a
164.8425	0.09	329685	keystroke	o	n/a
164.9925	0.15	329985	keystroke	e	n/a
165.0975	0.09	330195	keystroke	s	n/a
165.2325	0.09	330465	keystroke	Key.space	n/a
165.6675	0.06	331335	keystroke	e	n/a
165.9675	0.06	331935	keystroke	Key.backspace	n/a
166.0425	0.09	332085	keystroke	r	n/a
166.0875	0.105	332175	keystroke	e	n/a
166.2075	0.105	332415	keystroke	f	n/a
166.3275	0.09	332655	keystroke	l	n/a
166.4325	0.06	332865	keystroke	e	n/a
166.5975	0.105	333195	keystroke	c	n/a
166.8975	0.075	333795	keystroke	t	n/a
167.0925	0.075	334185	keystroke	s	n/a
167.1975	0.12	334395	keystroke	Key.space	n/a
167.7375	0.09	335475	keystroke	v	n/a
167.7675	0.12	335535	keystroke	e	n/a
167.9025	0.12	335805	keystroke	n	n/a
168.0375	0.12	336075	keystroke	u	n/a
168.1425	0.09	336285	keystroke	e	n/a
168.2925	0.12	336585	keystroke	s	n/a
168.457	0.09	336914	keystroke	Key.space	n/a
168.772	0.105	337544	keystroke	a	n/a
168.862	0.075	337724	keystroke	p	n/a
169.027	0.121	338054	keystroke	p	n/a
169.117	0.105	338234	keystroke	o	n/a
169.4025	0.12	338805	keystroke	i	n/a
169.4775	0.105	338955	keystroke	n	n/a
169.5825	0.12	339165	keystroke	t	n/a
169.7175	0.06	339435	keystroke	e	n/a
169.8685	0.089	339737	keystroke	d	n/a
170.017	0.09	340034	keystroke	Key.space	n/a
170.182	0.09	340364	keystroke	Key.enter	n/a
170.2765	9.9575	340553	prompt	n/a	pensions personal synthesis lottery\n
170.9625	0.06	341925	keystroke	p	n/a
171.127	0.076	342254	keystroke	e	n/a
171.217	0.075	342434	keystroke	n	n/a
171.637	0.06	343274	keystroke	s	n/a
171.863	0.104	343726	keystroke	i	n/a
171.952	0.12	343904	keystroke	o	n/a
172.087	0.09	344174	keystroke	n	n/a
172.193	0.089	344386	keystroke	s	n/a
172.267	0.09	344534	keystroke	Key.space	n/a
172.447	0.09	344894	keystroke	p	n/a
172.522	0.09	345044	keystroke	e	n/a
172.567	0.09	345134	keystroke	r	n/a
172.702	0.12	345404	keystroke	s	n/a
172.807	0.105	345614	keystroke	o	n/a
172.867	0.105	345734	keystroke	n	n/a
172.927	0.105	345854	keystroke	a	n/a
173.062	0.09	346124	keystroke	l	n/a
173.167	0.075	346334	keystroke	Key.space	n/a
173.542	0.105	347084	keystroke	s	n/a
173.662	0.075	347324	keystroke	y	n/a
173.857	0.09	347714	keystroke	t	n/a
173.887	0.09	347774	keystroke	h	n/a
174.097	0.075	348194	keystroke	e	n/a
174.277	0.061	348554	keystroke	s	n/a
175.057	0.075	350114	keystroke	i	n/a
175.147	0.075	350294	keystroke	s	n/a
175.357	0.075	350714	keystroke	Key.space	n/a
176.242	0.105	352484	keystroke	l	n/a
176.467	0.075	352934	keystroke	o	n/a
176.572	0.1055	353144	keystroke	t	n/a
176.7675	0.09	353535	keystroke	e	n/a
176.8125	0.09	353625	keystroke	r	n/a
176.947	0.1205	353894	keystroke	r	n/a
178.657	0.075	357314	keystroke	Key.backspace	n/a
178.792	0.09	357584	keystroke	Key.backspace	n/a
179.287	0.09	358574	keystroke	Key.backspace	n/a
179.482	0.09	358964	keystroke	t	n/a
179.617	0.105	359234	keystroke	e	n/a
179.692	0.075	359384	keystroke	r	n/a
179.812	0.105	359624	keystroke	r	n/a
180.037	0.075	360074	keystroke	y	n/a
180.172	0.06	360344	keystroke	Key.enter	n/a
180.237	5.022	360474	prompt	n/a	outdoors mistress unto tank\n
181.042	0.075	362084	keystroke	o	n/a
181.207	0.105	362414	keystroke	u	n/a
181.297	0.0755	362594	keystroke	t	n/a
181.4925	0.105	362985	keystroke	d	n/a
181.6275	0.06	363255	keystroke	o	n/a
181.7325	0.09	363465	keystroke	o	n/a
181.8375	0.09	363675	keystroke	r	n/a
181.9575	0.12	363915	keystroke	s	n/a
182.0925	0.105	364185	keystroke	Key.space	n/a
182.317	0.09	364634	keystroke	n	n/a
182.602	0.06	365204	keystroke	Key.backspace	n/a
182.797	0.06	365594	keystroke	m	n/a
182.902	0.09	365804	keystroke	i	n/a
183.007	0.075	366014	keystroke	s	n/a
183.187	0.135	366374	keystroke	t	n/a
183.232	0.18	366464	keystroke	r	n/a
183.382	0.105	366764	keystroke	e	n/a
183.607	0.06	367214	keystroke	s	n/a
183.727	0.09	367454	keystroke	s	n/a
183.862	0.09	367724	keystroke	Key.space	n/a
184.057	0.105	368114	keystroke	u	n/a
184.117	0.09	368234	keystroke	n	n/a
184.222	0.075	368444	keystroke	t	n/a
184.312	0.12	368624	keystroke	o	n/a
184.507	0.105	369014	keystroke	Key.space	n/a
184.717	0.06	369434	keystroke	t	n/a
184.8665	0.076	369733	keystroke	a	n/a
184.9125	0.09	369825	keystroke	n	n/a
184.9725	0.09	369945	keystroke	k	n/a
185.1375	0.119	370275	keystroke	Key.enter	n/a
185.2615	5.877	370523	prompt	n/a	albert cheat luggage genius\n
185.872	0.12	371744	keystroke	a	n/a
185.977	0.09	371954	keystroke	l	n/a
186.142	0.1055	372284	keystroke	b	n/a
186.3525	0.105	372705	keystroke	e	n/a
186.3975	0.105	372795	keystroke	r	n/a
186.5925	0.075	373185	keystroke	t	n/a
186.6825	0.09	373365	keystroke	Key.space	n/a
187.1325	0.06	374265	keystroke	l	n/a
187.3275	0.06	374655	keystroke	u	n/a
187.4325	0.06	374865	keystroke	g	n/a
187.5525	0.105	375105	keystroke	g	n/a
187.7175	0.105	375435	keystroke	a	n/a
187.7925	0.12	375585	keystroke	g	n/a
188.2275	0.105	376455	keystroke	e	n/a
188.4075	0.135	376815	keystroke	Key.space	n/a
189.022	0.12	378044	keystroke	g	n/a
189.097	0.12	378194	keystroke	e	n/a
189.322	0.15	378644	keystroke	n	n/a
189.487	0.0455	378974	keystroke	u	n/a
189.817	0.06	379634	keystroke	Key.backspace	n/a
190.282	0.135	380564	keystroke	i	n/a
190.372	0.09	380744	keystroke	u	n/a
190.447	0.1055	380894	keystroke	s	n/a
190.5825	0.105	381165	keystroke	Key.space	n/a
191.0625	0.075	382125	keystroke	Key.enter	n/a
191.142	6.1465	382284	prompt	n/a	recovery villas eric stamp\n
191.7975	0.09	383595	keystroke	r	n/a
191.8725	0.075	383745	keystroke	e	n/a
192.0075	0.09	384015	keystroke	c	n/a
192.0825	0.105	384165	keystroke	o	n/a
192.277	0.09	384554	keystroke	v	n/a
192.472	0.09	384944	keystroke	e	n/a
192.532	0.075	385064	keystroke	r	n/a
192.727	0.06	385454	keystroke	y	n/a
192.832	0.135	385664	keystroke	Key.space	n/a
193.522	0.075	387044	keystroke	v	n/a
193.612	0.09	387224	keystroke	i	n/a
193.837	0.015	387674	keystroke	l	n/a
193.927	0.075	387854	keystroke	l	n/a
194.032	0.1355	388064	keystroke	a	n/a
194.1065	0.106	388213	keystroke	s	n/a
194.2275	0.1045	388455	keystroke	Key.space	n/a
194.617	0.105	389234	keystroke	e	n/a
194.797	0.075	389594	keystroke	r	n/a
194.932	0.09	389864	keystroke	i	n/a
195.037	0.09	390074	keystroke	c	n/a
195.142	0.09	390284	keystroke	Key.space	n/a
195.397	0.105	390794	keystroke	s	n/a
195.7875	0.075	391575	keystroke	t	n/a
196.0415	0.075	392083	keystroke	a	n/a
196.1475	0.074	392295	keystroke	m	n/a
196.7465	0.075	393493	keystroke	p	n/a
197.2115	0.075	394423	keystroke	Key.enter	n/a
197.2915	5.157	394583	prompt	n/a	really picked packages subscribe\n
197.9915	0.135	395983	keystroke	r	n/a
198.0515	0.135	396103	keystroke	e	n/a
198.2015	0.105	396403	keystroke	a	n/a
198.3365	0.075	396673	keystroke	l	n/a
198.4565	0.09	396913	keystroke	l	n/a
198.5475	0.104	397095	keystroke	y	n/a
198.6365	0.09	397273	keystroke	Key.space	n/a
198.8465	0.105	397693	keystroke	p	n/a
198.9065	0.105	397813	keystroke	i	n/a
199.0265	0.12	398053	keystroke	c	n/a
199.5215	0.105	399043	keystroke	k	n/a
199.6415	0.075	399283	keystroke	e	n/a
199.8225	0.0895	399645	keystroke	d	n/a
199.897	0.09	399794	keystroke	Key.space	n/a
200.092	0.075	400184	keystroke	p	n/a
200.137	0.105	400274	keystroke	a	n/a
200.212	0.105	400424	keystroke	c	n/a
200.257	0.105	400514	keystroke	k	n/a
200.347	0.09	400694	keystroke	a	n/a
200.4975	0.075	400995	keystroke	g	n/a
200.5575	0.075	401115	keystroke	e	n/a
200.722	0.0905	401444	keystroke	s	n/a
200.8275	0.1045	401655	keystroke	Key.space	n/a
201.2025	0.105	402405	keystroke	s	n/a
201.3225	0.134	402645	keystroke	u	n/a
201.382	0.1045	402764	keystroke	b	n/a
201.5315	0.12	403063	keystroke	s	n/a
201.6065	0.105	403213	keystroke	c	n/a
201.9065	0.105	403813	keystroke	i	n/a
201.9965	0.075	403993	keystroke	r	n/a
202.1465	0.09	404293	keystroke	b	n/a
202.2515	0.09	404503	keystroke	e	n/a
202.3565	0.09	404713	keystroke	Key.enter	n/a
202.451	6.7175	404902	prompt	n/a	shield additional refer macromedia\n
203.5265	0.135	407053	keystroke	s	n/a
203.6465	0.06	407293	keystroke	h	n/a
203.6765	0.09	407353	keystroke	i	n/a
204.097	0.075	408194	keystroke	e	n/a
204.892	0.09	409784	keystroke	l	n/a
205.027	0.09	410054	keystroke	d	n/a
205.132	0.09	410264	keystroke	Key.space	n/a
205.2515	0.105	410503	keystroke	a	n/a
205.3115	0.09	410623	keystroke	d	n/a
205.462	0.09	410924	keystroke	d	n/a
205.567	0.105	411134	keystroke	i	n/a
205.687	0.06	411374	keystroke	t	n/a
205.792	0.075	411584	keystroke	i	n/a
205.807	0.12	411614	keystroke	o	n/a
205.957	0.09	411914	keystroke	n	n/a
206.032	0.09	412064	keystroke	a	n/a
206.137	0.09	412274	keystroke	l	n/a
206.242	0.09	412484	keystroke	Key.space	n/a
206.482	0.09	412964	keystroke	r	n/a
206.527	0.1195	413054	keystroke	e	n/a
206.6615	0.09	413323	keystroke	f	n/a
206.8115	0.09	413623	keystroke	e	n/a
206.8565	0.105	413713	keystroke	r	n/a
206.9915	0.1205	413983	keystroke	Key.space	n/a
207.427	0.09	414854	keystroke	m	n/a
207.472	0.105	414944	keystroke	a	n/a
207.532	0.09	415064	keystroke	c	n/a
207.742	0.06	415484	keystroke	r	n/a
207.817	0.105	415634	keystroke	o	n/a
208.012	0.09	416024	keystroke	m	n/a
208.117	0.06	416234	keystroke	e	n/a
208.297	0.075	416594	keystroke	d	n/a
208.837	0.075	417674	keystroke	i	n/a
208.927	0.09	417854	keystroke	a	n/a
209.092	0.075	418184	keystroke	Key.enter	n/a
209.171	5.802	418342	prompt	n/a	alpine enemies cookie lows\n
209.8415	0.075	419683	keystroke	a	n/a
209.9465	0.09	419893	keystroke	l	n/a
210.4415	0.105	420883	keystroke	p	n/a
210.6965	0.105	421393	keystroke	i	n/a
210.7565	0.09	421513	keystroke	n	n/a
210.8165	0.09	421633	keystroke	e	n/a
210.9365	0.12	421873	keystroke	Key.space	n/a
211.1465	0.09	422293	keystroke	e	n/a
211.2215	0.09	422443	keystroke	n	n/a
211.2965	0.105	422593	keystroke	e	n/a
211.4315	0.075	422863	keystroke	o	n/a
211.5215	0.09	423043	keystroke	m	n/a
211.9715	0.06	423943	keystroke	Key.backspace	n/a
212.107	0.075	424214	keystroke	Key.backspace	n/a
212.4515	0.09	424903	keystroke	m	n/a
212.6465	0.075	425293	keystroke	i	n/a
212.7515	0.09	425503	keystroke	e	n/a
212.9165	0.12	425833	keystroke	s	n/a
213.0965	0.12	426193	keystroke	Key.space	n/a
213.472	0.09	426944	keystroke	c	n/a
213.547	0.06	427094	keystroke	o	n/a
213.682	0.105	427364	keystroke	o	n/a
213.817	0.105	427634	keystroke	k	n/a
214.042	0.06	428084	keystroke	i	n/a
214.132	0.09	428264	keystroke	e	n/a
214.207	0.09	428414	keystroke	Key.space	n/a
214.387	0.0745	428774	keystroke	l	n/a
214.5515	0.0755	429103	keystroke	o	n/a
214.612	0.075	429224	keystroke	w	n/a
214.7775	0.09	429555	keystroke	s	n/a
214.8825	0.089	429765	keystroke	Key.enter	n/a
214.9775	5.741	429955	prompt	n/a	duke hunting cuisine usda\n
216.0965	0.105	432193	keystroke	d	n/a
216.1865	0.075	432373	keystroke	u	n/a
216.3815	0.06	432763	keystroke	k	n/a
216.4865	0.09	432973	keystroke	e	n/a
216.5915	0.105	433183	keystroke	Key.space	n/a
217.1775	0.105	434355	keystroke	h	n/a
217.2525	0.164	434505	keystroke	u	n/a
217.3715	0.105	434743	keystroke	n	n/a
217.4615	0.09	434923	keystroke	t	n/a
217.5665	0.12	435133	keystroke	i	n/a
217.6115	0.09	435223	keystroke	n	n/a
217.6715	0.09	435343	keystroke	g	n/a
217.7765	0.12	435553	keystroke	Key.space	n/a
218.8115	0.061	437623	keystroke	c	n/a
218.8865	0.105	437773	keystroke	u	n/a
218.9465	0.106	437893	keystroke	i	n/a
219.0815	0.105	438163	keystroke	s	n/a
219.2015	0.105	438403	keystroke	i	n/a
219.2465	0.106	438493	keystroke	n	n/a
219.3665	0.105	438733	keystroke	e	n/a
219.4865	0.106	438973	keystroke	Key.space	n/a
219.9965	0.135	439993	keystroke	a	n/a
220.0425	0.104	440085	keystroke	s	n/a
220.3425	0.09	440685	keystroke	d	n/a
220.4475	0.09	440895	keystroke	a	n/a
220.6415	0.076	441283	keystroke	Key.enter	n/a
220.7215	5.832	441443	prompt	n/a	permalink march sunglasses singles\n
221.7215	0.135	443443	keystroke	p	n/a
221.8715	0.09	443743	keystroke	e	n/a
221.8865	0.105	443773	keystroke	r	n/a
221.9765	0.12	443953	keystroke	m	n/a
222.0815	0.075	444163	keystroke	a	n/a
222.2015	0.06	444403	keystroke	l	n/a
222.4265	0.075	444853	keystroke	i	n/a
222.4565	0.105	444913	keystroke	n	n/a
222.6065	0.09	445213	keystroke	k	n/a
222.6815	0.165	445363	keystroke	Key.space	n/a
222.9665	0.075	445933	keystroke	m	n/a
223.0425	0.119	446085	keystroke	a	n/a
223.1315	0.075	446263	keystroke	r	n/a
223.2815	0.0755	446563	keystroke	c	n/a
223.402	0.075	446804	keystroke	h	n/a
223.462	0.09	446924	keystroke	Key.space	n/a
224.287	0.0895	448574	keystroke	s	n/a
224.4215	0.12	448843	keystroke	u	n/a
224.4815	0.105	448963	keystroke	n	n/a
224.6015	0.075	449203	keystroke	g	n/a
224.7365	0.09	449473	keystroke	l	n/a
224.8115	0.12	449623	keystroke	a	n/a
224.8865	0.06	449773	keystroke	s	n/a
225.0215	0.105	450043	keystroke	s	n/a
225.2315	0.06	450463	keystroke	e	n/a
225.367	0.09	450734	keystroke	s	n/a
225.472	0.09	450944	keystroke	Key.space	n/a
225.637	0.105	451274	keystroke	s	n/a
225.742	0.105	451484	keystroke	i	n/a
225.802	0.09	451604	keystroke	n	n/a
225.907	0.105	451814	keystroke	g	n/a
226.117	0.075	452234	keystroke	l	n/a
226.207	0.075	452414	keystroke	e	n/a
226.342	0.105	452684	keystroke	s	n/a
226.492	0.06	452984	keystroke	Key.enter	n/a
226.5575	8.276	453115	prompt	n/a	worldwide costumes camera investigations\n
227.242	0.105	454484	keystroke	w	n/a
227.317	0.0895	454634	keystroke	o	n/a
227.4515	0.075	454903	keystroke	r	n/a
227.5715	0.105	455143	keystroke	l	n/a
227.6615	0.075	455323	keystroke	d	n/a
227.8865	0.075	455773	keystroke	w	n/a
227.9915	0.09	455983	keystroke	i	n/a
228.1265	0.105	456253	keystroke	d	n/a
228.3365	0.105	456673	keystroke	e	n/a
228.4265	0.105	456853	keystroke	Key.space	n/a
228.8765	0.045	457753	keystroke	c	n/a
229.0715	0.015	458143	keystroke	o	n/a
229.2815	0.09	458563	keystroke	s	n/a
230.062	0.075	460124	keystroke	t	n/a
230.557	0.06	461114	keystroke	u	n/a
230.752	0.075	461504	keystroke	m	n/a
230.842	0.045	461684	keystroke	e	n/a
230.962	0.09	461924	keystroke	s	n/a
231.037	0.0895	462074	keystroke	Key.space	n/a
231.217	0.075	462434	keystroke	m	n/a
231.712	0.06	463424	keystroke	Key.backspace	n/a
231.817	0.09	463634	keystroke	c	n/a
231.892	0.09	463784	keystroke	a	n/a
231.997	0.0745	463994	keystroke	m	n/a
232.1615	0.105	464323	keystroke	e	n/a
232.2065	0.105	464413	keystroke	r	n/a
232.3415	0.105	464683	keystroke	a	n/a
232.4615	0.0905	464923	keystroke	Key.space	n/a
233.167	0.105	466334	keystroke	i	n/a
233.227	0.105	466454	keystroke	n	n/a
233.347	0.09	466694	keystroke	v	n/a
233.422	0.09	466844	keystroke	e	n/a
233.587	0.075	467174	keystroke	s	n/a
233.722	0.0895	467444	keystroke	t	n/a
233.827	0.09	467654	keystroke	i	n/a
233.962	0.105	467924	keystroke	g	n/a
234.112	0.105	468224	keystroke	a	n/a
234.247	0.09	468494	keystroke	t	n/a
234.367	0.09	468734	keystroke	i	n/a
234.427	0.09	468854	keystroke	o	n/a
234.547	0.09	469094	keystroke	n	n/a
234.622	0.075	469244	keystroke	s	n/a
234.742	0.09	469484	keystroke	Key.enter	n/a
234.8365	5.232	469673	prompt	n/a	boating homes busy brokers\n
235.5065	0.09	471013	keystroke	c	n/a
235.5815	0.09	471163	keystroke	o	n/a
235.6865	0.09	471373	keystroke	a	n/a
235.7465	0.09	471493	keystroke	t	n/a
235.8815	0.105	471763	keystroke	i	n/a
235.9265	0.075	471853	keystroke	n	n/a
235.9715	0.075	471943	keystroke	g	n/a
236.0915	0.09	472183	keystroke	Key.space	n/a
236.617	0.06	473234	keystroke	h	n/a
236.707	0.12	473414	keystroke	o	n/a
236.782	0.09	473564	keystroke	m	n/a
236.887	0.09	473774	keystroke	e	n/a
237.1115	0.06	474223	keystroke	s	n/a
237.2015	0.09	474403	keystroke	Key.space	n/a
237.427	0.1045	474854	keystroke	b	n/a
237.5165	0.1205	475033	keystroke	u	n/a
237.652	0.09	475304	keystroke	s	n/a
237.892	0.0755	475784	keystroke	y	n/a
237.9975	0.105	475995	keystroke	Key.space	n/a
238.1175	0.1045	476235	keystroke	t	n/a
238.312	0.09	476624	keystroke	a	n/a
238.6115	0.045	477223	keystroke	Key.backspace	n/a
238.7465	0.045	477493	keystroke	Key.backspace	n/a
238.9265	0.09	477853	keystroke	b	n/a
239.2875	0.0895	478575	keystroke	r	n/a
239.437	0.135	478874	keystroke	o	n/a
239.527	0.06	479054	keystroke	k	n/a
239.662	0.105	479324	keystroke	e	n/a
239.707	0.105	479414	keystroke	r	n/a
239.857	0.12	479714	keystroke	s	n/a
239.992	0.075	479984	keystroke	Key.enter	n/a
240.071	8.9975	480142	prompt	n/a	collins possession themselves shoes\n
240.7725	0.075	481545	keystroke	c	n/a
240.8315	0.09	481663	keystroke	o	n/a
241.0125	0.059	482025	keystroke	l	n/a
241.1315	0.075	482263	keystroke	l	n/a
241.3415	0.045	482683	keystroke	i	n/a
241.3565	0.09	482713	keystroke	n	n/a
241.4475	0.089	482895	keystroke	s	n/a
241.5375	0.089	483075	keystroke	Key.space	n/a
241.7315	0.075	483463	keystroke	p	n/a
242.017	0.075	484034	keystroke	o	n/a
242.137	0.06	484274	keystroke	s	n/a
242.272	0.075	484544	keystroke	s	n/a
242.482	0.06	484964	keystroke	e	n/a
242.632	0.06	485264	keystroke	s	n/a
242.767	0.105	485534	keystroke	s	n/a
242.947	0.09	485894	keystroke	i	n/a
243.187	0.15	486374	keystroke	n	n/a
243.202	0.09	486404	keystroke	o	n/a
243.907	0.06	487814	keystroke	Key.backspace	n/a
244.027	0.075	488054	keystroke	Key.backspace	n/a
244.312	0.105	488624	keystroke	o	n/a
244.357	0.105	488714	keystroke	n	n/a
244.447	0.075	488894	keystroke	s	n/a
244.552	0.09	489104	keystroke	Key.space	n/a
245.242	0.09	490484	keystroke	t	n/a
245.287	0.09	490574	keystroke	h	n/a
245.437	0.09	490874	keystroke	e	n/a
245.542	0.105	491084	keystroke	m	n/a
245.632	0.075	491264	keystroke	e	n/a
246.262	0.075	492524	keystroke	Key.backspace	n/a
246.352	0.09	492704	keystroke	s	n/a
246.502	0.075	493004	keystroke	l	n/a
247.2965	0.0755	494593	keystroke	Key.backspace	n/a
247.417	0.105	494834	keystroke	e	n/a
247.552	0.09	495104	keystroke	l	n/a
247.717	0.09	495434	keystroke	v	n/a
247.762	0.09	495524	keystroke	e	n/a
247.927	0.09	495854	keystroke	s	n/a
248.047	0.09	496094	keystroke	Key.space	n/a
248.332	0.09	496664	keystroke	s	n/a
248.467	0.1045	496934	keystroke	h	n/a
248.5565	0.1055	497113	keystroke	o	n/a
248.663	0.0885	497326	keystroke	e	n/a
248.842	0.0895	497684	keystroke	s	n/a
248.9765	0.09	497953	keystroke	Key.enter	n/a
249.071	7.347	498142	prompt	n/a	hayes girls constantly fascinating\n
249.9515	0.075	499903	keystroke	h	n/a
249.9965	0.09	499993	keystroke	a	n/a
250.1915	0.045	500383	keystroke	y	n/a
250.2515	0.06	500503	keystroke	e	n/a
250.4165	0.06	500833	keystroke	s	n/a
250.4465	0.09	500893	keystroke	Key.space	n/a
250.8065	0.105	501613	keystroke	g	n/a
250.9265	0.12	501853	keystroke	i	n/a
251.0765	0.1205	502153	keystroke	r	n/a
251.272	0.09	502544	keystroke	l	n/a
251.4965	0.1055	502993	keystroke	s	n/a
251.752	0.09	503504	keystroke	Key.space	n/a
252.5325	0.074	505065	keystroke	c	n/a
252.5775	0.12	505155	keystroke	o	n/a
252.6375	0.105	505275	keystroke	n	n/a
252.6825	0.105	505365	keystroke	s	n/a
252.8325	0.075	505665	keystroke	t	n/a
252.9375	0.105	505875	keystroke	a	n/a
252.9975	0.09	505995	keystroke	t	n/a
253.0575	0.105	506115	keystroke	n	n/a
253.2075	0.09	506415	keystroke	l	n/a
253.2825	0.09	506565	keystroke	y	n/a
253.4015	0.09	506803	keystroke	Key.space	n/a
253.8665	0.105	507733	keystroke	f	n/a
254.107	0.15	508214	keystroke	a	n/a
254.167	0.12	508334	keystroke	s	n/a
254.4065	0.075	508813	keystroke	c	n/a
254.5415	0.15	509083	keystroke	i	n/a
254.6465	0.09	509293	keystroke	n	n/a
254.7665	0.09	509533	keystroke	a	n/a
254.8875	0.089	509775	keystroke	t	n/a
255.0515	0.045	510103	keystroke	o	n/a
255.427	0.075	510854	keystroke	Key.backspace	n/a
255.9225	0.104	511845	keystroke	i	n/a
255.9665	0.075	511933	keystroke	n	n/a
256.0275	0.059	512055	keystroke	g	n/a
256.1315	0.075	512263	keystroke	Key.space	n/a
256.3565	0.06	512713	keystroke	Key.enter	n/a
256.4215	5.9515	512843	prompt	n/a	holidays specs patrick alone\n
257.362	0.075	514724	keystroke	h	n/a
257.4225	0.075	514845	keystroke	o	n/a
257.5725	0.09	515145	keystroke	l	n/a
257.7825	0.06	515565	keystroke	i	n/a
257.9625	0.105	515925	keystroke	d	n/a
258.0825	0.12	516165	keystroke	a	n/a
258.2325	0.075	516465	keystroke	y	n/a
258.3975	0.09	516795	keystroke	s	n/a
258.4715	0.106	516943	keystroke	Key.space	n/a
258.6825	0.09	517365	keystroke	s	n/a
258.7575	0.105	517515	keystroke	p	n/a
258.8775	0.12	517755	keystroke	e	n/a
258.9825	0.075	517965	keystroke	c	n/a
259.1175	0.12	518235	keystroke	s	n/a
259.2665	0.105	518533	keystroke	Key.space	n/a
259.5075	0.089	519015	keystroke	p	n/a
259.8215	0.06	519643	keystroke	a	n/a
260.332	0.12	520664	keystroke	t	n/a
260.422	0.105	520844	keystroke	r	n/a
260.692	0.09	521384	keystroke	i	n/a
260.827	0.09	521654	keystroke	c	n/a
260.932	0.075	521864	keystroke	k	n/a
261.022	0.075	522044	keystroke	Key.space	n/a
261.2465	0.091	522493	keystroke	a	n/a
261.352	0.045	522704	keystroke	l	n/a
261.967	0.15	523934	keystroke	o	n/a
262.057	0.105	524114	keystroke	n	n/a
262.132	0.105	524264	keystroke	e	n/a
262.297	0.075	524594	keystroke	Key.enter	n/a
262.3755	8.953	524751	prompt	n/a	factory convenience tiffany mountains\n
263.197	0.105	526394	keystroke	f	n/a
263.287	0.135	526574	keystroke	a	n/a
263.392	0.075	526784	keystroke	c	n/a
263.572	0.06	527144	keystroke	t	n/a
263.647	0.09	527294	keystroke	o	n/a
263.752	0.1195	527504	keystroke	r	n/a
263.8575	0.074	527715	keystroke	y	n/a
264.0065	0.09	528013	keystroke	Key.space	n/a
264.2165	0.105	528433	keystroke	c	n/a
264.3065	0.106	528613	keystroke	o	n/a
264.3665	0.09	528733	keystroke	n	n/a
264.4725	0.089	528945	keystroke	v	n/a
264.5765	0.09	529153	keystroke	e	n/a
264.7115	0.09	529423	keystroke	n	n/a
264.9225	0.104	529845	keystroke	i	n/a
265.0715	0.106	530143	keystroke	a	n/a
265.2065	0.09	530413	keystroke	n	n/a
265.3115	0.09	530623	keystroke	c	n/a
265.3565	0.105	530713	keystroke	e	n/a
265.4315	0.105	530863	keystroke	Key.space	n/a
265.8515	0.06	531703	keystroke	Key.backspace	n/a
265.9715	0.075	531943	keystroke	Key.backspace	n/a
266.1065	0.045	532213	keystroke	Key.backspace	n/a
266.3015	0.09	532603	keystroke	Key.backspace	n/a
266.4665	0.09	532933	keystroke	Key.backspace	n/a
266.872	0.105	533744	keystroke	e	n/a
267.427	0.09	534854	keystroke	n	n/a
267.532	0.105	535064	keystroke	c	n/a
267.592	0.105	535184	keystroke	e	n/a
267.727	0.105	535454	keystroke	Key.space	n/a
268.297	0.045	536594	keystroke	t	n/a
268.612	0.06	537224	keystroke	i	n/a
268.732	0.045	537464	keystroke	f	n/a
268.837	0.09	537674	keystroke	f	n/a
268.987	0.105	537974	keystroke	a	n/a
269.107	0.09	538214	keystroke	n	n/a
269.257	0.09	538514	keystroke	y	n/a
269.482	0.12	538964	keystroke	Key.space	n/a
269.857	0.075	539714	keystroke	m	n/a
270.007	0.1495	540014	keystroke	o	n/a
270.1115	0.075	540223	keystroke	u	n/a
270.2615	0.12	540523	keystroke	n	n/a
270.3365	0.075	540673	keystroke	t	n/a
270.5315	0.06	541063	keystroke	a	n/a
270.6215	0.105	541243	keystroke	i	n/a
270.6815	0.075	541363	keystroke	n	n/a
270.7415	0.09	541483	keystroke	s	n/a
271.2365	0.09	542473	keystroke	Key.enter	n/a
271.333	6.776	542666	prompt	n/a	terrorists lingerie nikon whenever\n
272.1515	0.075	544303	keystroke	t	n/a
272.2865	0.12	544573	keystroke	e	n/a
272.3765	0.06	544753	keystroke	r	n/a
272.5265	0.0755	545053	keystroke	r	n/a
272.617	0.105	545234	keystroke	o	n/a
272.707	0.105	545414	keystroke	r	n/a
272.887	0.09	545774	keystroke	i	n/a
273.007	0.105	546014	keystroke	s	n/a
273.157	0.09	546314	keystroke	t	n/a
273.262	0.09	546524	keystroke	s	n/a
273.397	0.075	546794	keystroke	Key.space	n/a
273.562	0.09	547124	keystroke	l	n/a
273.772	0.09	547544	keystroke	i	n/a
273.832	0.09	547664	keystroke	n	n/a
273.907	0.06	547814	keystroke	g	n/a
274.027	0.135	548054	keystroke	e	n/a
274.147	0.105	548294	keystroke	r	n/a
274.312	0.105	548624	keystroke	i	n/a
274.462	0.09	548924	keystroke	e	n/a
274.612	0.105	549224	keystroke	Key.space	n/a
275.4665	0.105	550933	keystroke	n	n/a
275.5865	0.12	551173	keystroke	i	n/a
275.8265	0.105	551653	keystroke	k	n/a
276.0815	0.1355	552163	keystroke	o	n/a
276.1865	0.0905	552373	keystroke	n	n/a
276.262	0.09	552524	keystroke	Key.space	n/a
276.472	0.12	552944	keystroke	w	n/a
276.607	0.075	553214	keystroke	h	n/a
276.697	0.105	553394	keystroke	e	n/a
276.802	0.12	553604	keystroke	n	n/a
276.907	0.135	553814	keystroke	e	n/a
277.027	0.12	554054	keystroke	v	n/a
277.237	0.105	554474	keystroke	e	n/a
277.297	0.12	554594	keystroke	r	n/a
278.002	0.105	556004	keystroke	Key.enter	n/a
278.1125	6.086	556225	prompt	n/a	festival constraint attached bowl\n
279.1715	0.135	558343	keystroke	f	n/a
279.2315	0.06	558463	keystroke	e	n/a
279.412	0.06	558824	keystroke	s	n/a
279.532	0.09	559064	keystroke	t	n/a
279.637	0.105	559274	keystroke	i	n/a
279.787	0.12	559574	keystroke	v	n/a
279.862	0.1045	559724	keystroke	a	n/a
279.982	0.105	559964	keystroke	l	n/a
280.072	0.0595	560144	keystroke	Key.space	n/a
280.3715	0.09	560743	keystroke	c	n/a
280.4915	0.105	560983	keystroke	o	n/a
280.5665	0.106	561133	keystroke	n	n/a
281.2125	0.104	562425	keystroke	s	n/a
281.4225	0.119	562845	keystroke	t	n/a
281.4665	0.1055	562933	keystroke	r	n/a
281.662	0.09	563324	keystroke	a	n/a
281.782	0.135	563564	keystroke	i	n/a
281.827	0.105	563654	keystroke	n	n/a
281.947	0.06	563894	keystroke	t	n/a
282.022	0.105	564044	keystroke	Key.space	n/a
282.472	0.075	564944	keystroke	a	n/a
282.622	0.045	565244	keystroke	t	n/a
282.742	0.09	565484	keystroke	t	n/a
282.892	0.105	565784	keystroke	a	n/a
282.967	0.105	565934	keystroke	c	n/a
283.087	0.09	566174	keystroke	h	n/a
283.147	0.06	566294	keystroke	e	n/a
283.297	0.09	566594	keystroke	d	n/a
283.402	0.075	566804	keystroke	Key.space	n/a
283.612	0.075	567224	keystroke	b	n/a
283.747	0.105	567494	keystroke	o	n/a
283.837	0.075	567674	keystroke	w	n/a
283.942	0.09	567884	keystroke	l	n/a
284.107	0.09	568214	keystroke	Key.enter	n/a
284.2015	10.3915	568403	prompt	n/a	pottery snow athletic existed\n
285.127	0.15	570254	keystroke	p	n/a
285.202	0.12	570404	keystroke	o	n/a
285.3515	0.105	570703	keystroke	t	n/a
285.5465	0.075	571093	keystroke	t	n/a
285.7415	0.12	571483	keystroke	e	n/a
285.8015	0.12	571603	keystroke	r	n/a
286.0715	0.075	572143	keystroke	y	n/a
286.1765	0.09	572353	keystroke	Key.space	n/a
286.3415	0.075	572683	keystroke	s	n/a
286.4175	0.089	572835	keystroke	n	n/a
286.5215	0.105	573043	keystroke	o	n/a
286.6415	0.075	573283	keystroke	w	n/a
287.467	0.105	574934	keystroke	Key.space	n/a
287.602	0.105	575204	keystroke	w	n/a
287.917	0.09	575834	keystroke	t	n/a
287.962	0.09	575924	keystroke	h	n/a
288.112	0.09	576224	keystroke	l	n/a
288.217	0.12	576434	keystroke	e	n/a
288.277	0.09	576554	keystroke	t	n/a
288.532	0.075	577064	keystroke	c	n/a
288.8765	0.075	577753	keystroke	Key.backspace	n/a
289.3265	0.03	578653	keystroke	Key.backspace	n/a
289.4315	0.075	578863	keystroke	Key.backspace	n/a
289.567	0.045	579134	keystroke	Key.backspace	n/a
289.657	0.075	579314	keystroke	Key.backspace	n/a
289.7915	0.12	579583	keystroke	Key.backspace	n/a
290.2115	0.06	580423	keystroke	Key.backspace	n/a
290.3165	0.105	580633	keystroke	a	n/a
290.5565	0.09	581113	keystroke	t	n/a
290.5715	0.105	581143	keystroke	h	n/a
290.7515	0.09	581503	keystroke	l	n/a
290.8565	0.12	581713	keystroke	e	n/a
290.9465	0.09	581893	keystroke	t	n/a
291.0665	0.075	582133	keystroke	i	n/a
291.2015	0.105	582403	keystroke	c	n/a
291.3365	0.105	582673	keystroke	Key.space	n/a
291.7415	0.045	583483	keystroke	e	n/a
292.1315	0.0755	584263	keystroke	i	n/a
292.9415	0.075	585883	keystroke	Key.backspace	n/a
293.6465	0.06	587293	keystroke	x	n/a
293.7215	0.075	587443	keystroke	i	n/a
293.8415	0.075	587683	keystroke	s	n/a
294.0815	0.075	588163	keystroke	t	n/a
294.1415	0.075	588283	keystroke	e	n/a
294.3215	0.06	588643	keystroke	d	n/a
294.5015	0.09	589003	keystroke	Key.enter	n/a
294.604	7.894	589208	prompt	n/a	about friends filme fixes\n
295.252	0.075	590504	keystroke	a	n/a
295.492	0.075	590984	keystroke	b	n/a
295.612	0.09	591224	keystroke	o	n/a
295.687	0.075	591374	keystroke	u	n/a
295.747	0.06	591494	keystroke	t	n/a
295.882	0.105	591764	keystroke	Key.space	n/a
296.017	0.09	592034	keystroke	f	n/a
296.257	0.045	592514	keystroke	r	n/a
296.782	0.09	593564	keystroke	i	n/a
296.857	0.09	593714	keystroke	e	n/a
296.977	0.105	593954	keystroke	n	n/a
297.097	0.12	594194	keystroke	d	n/a
297.157	0.12	594314	keystroke	s	n/a
297.292	0.09	594584	keystroke	Key.space	n/a
297.787	0.075	595574	keystroke	f	n/a
297.847	0.06	595694	keystroke	i	n/a
298.9715	0.09	597943	keystroke	i	n/a
299.0625	0.089	598125	keystroke	l	n/a
299.7815	0.06	599563	keystroke	Key.backspace	n/a
299.9015	0.09	599803	keystroke	Key.backspace	n/a
300.6215	0.135	601243	keystroke	l	n/a
300.6815	0.105	601363	keystroke	m	n/a
300.7715	0.12	601543	keystroke	e	n/a
300.9215	0.09	601843	keystroke	Key.space	n/a
301.6415	0.06	603283	keystroke	f	n/a
301.7025	0.074	603405	keystroke	i	n/a
301.9115	0.075	603823	keystroke	x	n/a
302.1215	0.045	604243	keystroke	e	n/a
302.3465	0.015	604693	keystroke	s	n/a
302.3915	0.105	604783	keystroke	Key.enter	n/a
302.5025	14.9805	605005	prompt	n/a	turtle nominated sunshine destinations\n
303.487	0.09	606974	keystroke	t	n/a
303.577	0.09	607154	keystroke	u	n/a
303.682	0.06	607364	keystroke	t	n/a
303.877	0.09	607754	keystroke	r	n/a
304.2665	0.09	608533	keystroke	l	n/a
304.4015	0.105	608803	keystroke	e	n/a
304.5215	0.135	609043	keystroke	Key.space	n/a
305.122	0.075	610244	keystroke	Key.backspace	n/a
305.257	0.09	610514	keystroke	Key.backspace	n/a
305.392	0.045	610784	keystroke	Key.backspace	n/a
305.512	0.09	611024	keystroke	Key.backspace	n/a
305.902	0.06	611804	keystroke	Key.backspace	n/a
306.292	0.105	612584	keystroke	l	n/a
306.847	0.105	613694	keystroke	Key.backspace	n/a
307.312	0.0745	614624	keystroke	r	n/a
307.5665	0.075	615133	keystroke	t	n/a
307.6565	0.105	615313	keystroke	l	n/a
307.7765	0.12	615553	keystroke	e	n/a
307.9265	0.075	615853	keystroke	Key.space	n/a
308.1515	0.105	616303	keystroke	n	n/a
308.1665	0.135	616333	keystroke	o	n/a
308.3315	0.15	616663	keystroke	m	n/a
308.4965	0.135	616993	keystroke	i	n/a
308.6015	0.12	617203	keystroke	a	n/a
308.6165	0.03	617233	keystroke	n	n/a
308.7065	0.1205	617413	keystroke	t	n/a
308.842	0.06	617684	keystroke	e	n/a
308.962	0.09	617924	keystroke	d	n/a
309.067	0.105	618134	keystroke	Key.space	n/a
309.952	0.06	619904	keystroke	Key.backspace	n/a
310.2815	0.045	620563	keystroke	Key.backspace	n/a
310.4315	0.06	620863	keystroke	Key.backspace	n/a
310.5665	0.045	621133	keystroke	Key.backspace	n/a
310.9715	0.045	621943	keystroke	Key.backspace	n/a
311.2115	0.075	622423	keystroke	Key.backspace	n/a
312.0965	0.09	624193	keystroke	n	n/a
312.2015	0.09	624403	keystroke	a	n/a
312.3515	0.105	624703	keystroke	t	n/a
312.4715	0.06	624943	keystroke	e	n/a
312.6365	0.075	625273	keystroke	d	n/a
312.7565	0.09	625513	keystroke	Key.space	n/a
312.922	0.09	625844	keystroke	s	n/a
313.042	0.075	626084	keystroke	u	n/a
313.057	0.045	626114	keystroke	i	n/a
313.072	0.105	626144	keystroke	n	n/a
313.132	0.09	626264	keystroke	s	n/a
313.626	0.03	627252	keystroke	Key.backspace	n/a
313.762	0.06	627524	keystroke	Key.backspace	n/a
314.031	0.135	628062	keystroke	Key.backspace	n/a
314.361	0.121	628722	keystroke	n	n/a
314.466	0.075	628932	keystroke	s	n/a
314.751	0.121	629502	keystroke	h	n/a
314.826	0.15	629652	keystroke	i	n/a
314.991	0.075	629982	keystroke	n	n/a
315.096	0.105	630192	keystroke	e	n/a
315.216	0.06	630432	keystroke	Key.space	n/a
315.8465	0.09	631693	keystroke	d	n/a
316.2965	0.15	632593	keystroke	e	n/a
316.3865	0.09	632773	keystroke	s	n/a
316.5665	0.075	633133	keystroke	t	n/a
316.6565	0.12	633313	keystroke	i	n/a
316.7165	0.09	633433	keystroke	n	n/a
316.8075	0.104	633615	keystroke	a	n/a
316.8815	0.09	633763	keystroke	t	n/a
317.0315	0.09	634063	keystroke	i	n/a
317.0915	0.105	634183	keystroke	o	n/a
317.2115	0.09	634423	keystroke	n	n/a
317.2415	0.1045	634483	keystroke	s	n/a
317.391	0.09	634782	keystroke	Key.enter	n/a
317.4865	9.9565	634973	prompt	n/a	operates journalism thunder hopefully\n
318.127	0.135	636254	keystroke	o	n/a
318.187	0.09	636374	keystroke	p	n/a
318.307	0.1045	636614	keystroke	e	n/a
318.367	0.1045	636734	keystroke	r	n/a
318.5165	0.09	637033	keystroke	a	n/a
318.5915	0.12	637183	keystroke	t	n/a
318.6965	0.09	637393	keystroke	e	n/a
318.8465	0.105	637693	keystroke	s	n/a
318.9665	0.09	637933	keystroke	Key.space	n/a
319.6265	0.09	639253	keystroke	j	n/a
319.7765	0.12	639553	keystroke	o	n/a
319.8515	0.09	639703	keystroke	u	n/a
319.9565	0.09	639913	keystroke	r	n/a
320.0915	0.105	640183	keystroke	n	n/a
320.2415	0.105	640483	keystroke	a	n/a
320.3615	0.075	640723	keystroke	l	n/a
320.557	0.075	641114	keystroke	i	n/a
320.677	0.09	641354	keystroke	s	n/a
320.782	0.059	641564	keystroke	m	n/a
320.947	0.09	641894	keystroke	Key.space	n/a
321.2315	0.1055	642463	keystroke	t	n/a
321.2765	0.0895	642553	keystroke	h	n/a
321.411	0.121	642822	keystroke	u	n/a
321.501	0.091	643002	keystroke	n	n/a
321.771	0.15	643542	keystroke	d	n/a
322.071	0.105	644142	keystroke	e	n/a
322.116	0.105	644232	keystroke	r	n/a
322.266	0.09	644532	keystroke	Key.space	n/a
322.911	0.105	645822	keystroke	h	n/a
322.941	0.12	645882	keystroke	i	n/a
323.331	0.091	646662	keystroke	Key.backspace	n/a
323.452	0.015	646904	keystroke	Key.backspace	n/a
323.662	0.12	647324	keystroke	o	n/a
323.737	0.105	647474	keystroke	p	n/a
323.857	0.105	647714	keystroke	e	n/a
324.232	0.06	648464	keystroke	Key.backspace	n/a
324.367	0.06	648734	keystroke	Key.backspace	n/a
324.472	0.075	648944	keystroke	Key.backspace	n/a
325.2065	0.09	650413	keystroke	h	n/a
325.2815	0.09	650563	keystroke	o	n/a
325.326	0.0905	650652	keystroke	p	n/a
325.4615	0.06	650923	keystroke	e	n/a
325.7615	0.09	651523	keystroke	f	n/a
325.8215	0.09	651643	keystroke	u	n/a
326.0315	0.045	652063	keystroke	l	n/a
326.1515	0.075	652303	keystroke	l	n/a
327.262	0.075	654524	keystroke	y	n/a
327.352	0.09	654704	keystroke	Key.enter	n/a
327.4455	8.3525	654891	prompt	n/a	asbestos designs doors memorabilia\n
328.3565	0.135	656713	keystroke	a	n/a
328.3865	0.12	656773	keystroke	s	n/a
328.6115	0.09	657223	keystroke	b	n/a
328.6865	0.075	657373	keystroke	e	n/a
328.8365	0.075	657673	keystroke	s	n/a
328.9865	0.075	657973	keystroke	t	n/a
329.0915	0.09	658183	keystroke	o	n/a
329.1965	0.105	658393	keystroke	s	n/a
329.3615	0.075	658723	keystroke	Key.space	n/a
329.6915	0.0595	659383	keystroke	d	n/a
329.841	0.105	659682	keystroke	e	n/a
329.976	0.105	659952	keystroke	s	n/a
330.082	0.089	660164	keystroke	i	n/a
330.186	0.09	660372	keystroke	g	n/a
330.306	0.075	660612	keystroke	n	n/a
330.336	0.075	660672	keystroke	e	n/a
330.7715	0.06	661543	keystroke	Key.backspace	n/a
330.907	0.09	661814	keystroke	s	n/a
331.042	0.105	662084	keystroke	Key.space	n/a
332.152	0.03	664304	keystroke	d	n/a
332.227	0.045	664454	keystroke	o	n/a
332.332	0.09	664664	keystroke	o	n/a
332.407	0.09	664814	keystroke	r	n/a
332.587	0.075	665174	keystroke	s	n/a
332.707	0.06	665414	keystroke	Key.space	n/a
332.887	0.09	665774	keystroke	m	n/a
332.992	0.09	665984	keystroke	e	n/a
333.097	0.0895	666194	keystroke	m	n/a
333.277	0.0895	666554	keystroke	o	n/a
333.3965	0.075	666793	keystroke	r	n/a
333.5915	0.075	667183	keystroke	a	n/a
333.7865	0.0895	667573	keystroke	b	n/a
334.4015	0.075	668803	keystroke	i	n/a
334.6265	0.045	669253	keystroke	l	n/a
334.762	0.09	669524	keystroke	l	n/a
335.002	0.045	670004	keystroke	i	n/a
335.137	0.075	670274	keystroke	a	n/a
335.722	0.075	671444	keystroke	Key.enter	n/a
335.8015	8.6365	671603	prompt	n/a	adults overseas reserved inline\n
336.652	0.135	673304	keystroke	a	n/a
336.727	0.09	673454	keystroke	d	n/a
336.862	0.12	673724	keystroke	u	n/a
337.042	0.09	674084	keystroke	l	n/a
337.147	0.105	674294	keystroke	t	n/a
337.2365	0.1195	674473	keystroke	s	n/a
337.371	0.09	674742	keystroke	Key.space	n/a
337.551	0.075	675102	keystroke	o	n/a
337.641	0.075	675282	keystroke	v	n/a
337.791	0.105	675582	keystroke	e	n/a
337.851	0.09	675702	keystroke	r	n/a
338.001	0.0755	676002	keystroke	s	n/a
338.2115	0.09	676423	keystroke	e	n/a
338.3765	0.12	676753	keystroke	a	n/a
338.4665	0.075	676933	keystroke	s	n/a
339.3665	0.105	678733	keystroke	Key.space	n/a
339.6065	0.09	679213	keystroke	r	n/a
339.6515	0.09	679303	keystroke	e	n/a
339.8465	0.03	679693	keystroke	s	n/a
340.0715	0.15	680143	keystroke	r	n/a
340.0865	0.075	680173	keystroke	e	n/a
340.3715	0.12	680743	keystroke	v	n/a
340.5065	0.075	681013	keystroke	e	n/a
340.7165	0.075	681433	keystroke	d	n/a
340.8965	0.09	681793	keystroke	Key.space	n/a
341.227	0.0895	682454	keystroke	i	n/a
341.2715	0.105	682543	keystroke	n	n/a
341.6165	0.03	683233	keystroke	Key.backspace	n/a
341.7215	0.09	683443	keystroke	Key.backspace	n/a
341.8415	0.075	683683	keystroke	Key.backspace	n/a
341.9615	0.06	683923	keystroke	Key.backspace	n/a
342.0815	0.06	684163	keystroke	Key.backspace	n/a
342.1565	0.075	684313	keystroke	Key.backspace	n/a
342.2915	0.075	684583	keystroke	Key.backspace	n/a
342.696	0.045	685392	keystroke	Key.backspace	n/a
342.891	0.1055	685782	keystroke	e	n/a
342.9365	0.09	685873	keystroke	r	n/a
343.1765	0.12	686353	keystroke	v	n/a
343.2815	0.09	686563	keystroke	e	n/a
343.4315	0.09	686863	keystroke	d	n/a
343.5065	0.105	687013	keystroke	Key.space	n/a
343.6865	0.09	687373	keystroke	i	n/a
343.7315	0.105	687463	keystroke	n	n/a
343.8965	0.09	687793	keystroke	l	n/a
344.121	0.075	688242	keystroke	i	n/a
344.151	0.09	688302	keystroke	n	n/a
344.256	0.0605	688512	keystroke	e	n/a
344.3615	0.075	688723	keystroke	Key.enter	n/a
344.4425	8.2905	688885	prompt	n/a	worcester pdas recorded tension\n
345.3365	0.12	690673	keystroke	w	n/a
345.3815	0.105	690763	keystroke	r	n/a
345.6065	0.1045	691213	keystroke	o	n/a
346.506	0.06	693012	keystroke	Key.backspace	n/a
346.626	0.09	693252	keystroke	Key.backspace	n/a
346.852	0.074	693704	keystroke	o	n/a
346.986	0.0905	693972	keystroke	r	n/a
347.2115	0.12	694423	keystroke	c	n/a
347.3015	0.0895	694603	keystroke	e	n/a
347.511	0.06	695022	keystroke	s	n/a
348.0365	0.09	696073	keystroke	t	n/a
348.2165	0.12	696433	keystroke	e	n/a
348.2765	0.09	696553	keystroke	r	n/a
348.4565	0.09	696913	keystroke	Key.space	n/a
348.7115	0.075	697423	keystroke	p	n/a
348.9515	0.15	697903	keystroke	d	n/a
349.0115	0.165	698023	keystroke	s	n/a
349.6415	0.09	699283	keystroke	Key.backspace	n/a
349.8665	0.165	699733	keystroke	a	n/a
349.9265	0.12	699853	keystroke	s	n/a
350.1665	0.105	700333	keystroke	Key.space	n/a
350.7965	0.075	701593	keystroke	r	n/a
350.8265	0.105	701653	keystroke	e	n/a
350.9915	0.0895	701983	keystroke	c	n/a
351.0665	0.1045	702133	keystroke	o	n/a
351.186	0.09	702372	keystroke	r	n/a
351.3665	0.09	702733	keystroke	d	n/a
351.5315	0.075	703063	keystroke	e	n/a
351.6515	0.12	703303	keystroke	d	n/a
351.7565	0.09	703513	keystroke	Key.space	n/a
351.9215	0.105	703843	keystroke	t	n/a
351.9965	0.105	703993	keystroke	e	n/a
352.1165	0.075	704233	keystroke	n	n/a
352.2065	0.075	704413	keystroke	s	n/a
352.3265	0.09	704653	keystroke	i	n/a
352.4015	0.1345	704803	keystroke	o	n/a
352.506	0.09	705012	keystroke	n	n/a
352.641	0.09	705282	keystroke	Key.enter	n/a
352.737	11.4105	705474	prompt	n/a	wired premises sons revelation\n
353.286	0.1055	706572	keystroke	w	n/a
353.4665	0.09	706933	keystroke	i	n/a
353.5715	0.12	707143	keystroke	r	n/a
353.6465	0.09	707293	keystroke	e	n/a
353.7815	0.105	707563	keystroke	d	n/a
353.9015	0.075	707803	keystroke	Key.space	n/a
354.0815	0.105	708163	keystroke	p	n/a
354.5915	0.105	709183	keystroke	r	n/a
354.6365	0.105	709273	keystroke	e	n/a
354.8465	0.12	709693	keystroke	m	n/a
354.9665	0.075	709933	keystroke	e	n/a
355.0865	0.075	710173	keystroke	i	n/a
355.1765	0.105	710353	keystroke	s	n/a
355.341	0.135	710682	keystroke	e	n/a
355.461	0.12	710922	keystroke	s	n/a
355.566	0.09	711132	keystroke	Key.space	n/a
355.716	0.09	711432	keystroke	s	n/a
355.776	0.12	711552	keystroke	o	n/a
355.851	0.09	711702	keystroke	n	n/a
356.076	0.09	712152	keystroke	s	n/a
356.211	0.12	712422	keystroke	Key.space	n/a
356.811	0.06	713622	keystroke	Key.backspace	n/a
356.946	0.09	713892	keystroke	Key.backspace	n/a
357.096	0.09	714192	keystroke	Key.backspace	n/a
357.231	0.195	714462	keystroke	Key.backspace	n/a
357.576	0.06	715152	keystroke	Key.backspace	n/a
357.681	0.075	715362	keystroke	Key.backspace	n/a
357.816	0.06	715632	keystroke	Key.backspace	n/a
357.936	0.06	715872	keystroke	Key.backspace	n/a
358.041	0.075	716082	keystroke	Key.backspace	n/a
358.176	0.03	716352	keystroke	Key.backspace	n/a
358.521	0.045	717042	keystroke	Key.backspace	n/a
358.956	0.045	717912	keystroke	u	n/a
359.286	0.075	718572	keystroke	Key.backspace	n/a
359.481	0.075	718962	keystroke	i	n/a
359.9465	0.105	719893	keystroke	s	n/a
360.0065	0.135	720013	keystroke	e	n/a
360.1265	0.1195	720253	keystroke	s	n/a
360.276	0.1055	720552	keystroke	Key.space	n/a
360.6215	0.06	721243	keystroke	s	n/a
360.6665	0.105	721333	keystroke	o	n/a
360.7115	0.09	721423	keystroke	n	n/a
360.7865	0.12	721573	keystroke	s	n/a
360.8915	0.105	721783	keystroke	Key.space	n/a
361.1465	0.075	722293	keystroke	r	n/a
361.1765	0.12	722353	keystroke	e	n/a
361.4905	0.1205	722981	keystroke	v	n/a
361.5655	0.09	723131	keystroke	e	n/a
361.7155	0.09	723431	keystroke	a	n/a
362.076	0.0595	724152	keystroke	Key.backspace	n/a
362.2105	0.105	724421	keystroke	Key.backspace	n/a
362.9465	0.105	725893	keystroke	e	n/a
363.2915	0.1045	726583	keystroke	l	n/a
363.441	0.075	726882	keystroke	a	n/a
363.531	0.09	727062	keystroke	t	n/a
363.666	0.075	727332	keystroke	i	n/a
363.742	0.104	727484	keystroke	o	n/a
363.861	0.09	727722	keystroke	n	n/a
364.071	0.075	728142	keystroke	Key.enter	n/a
364.153	10.465	728306	prompt	n/a	forms christians holly currently\n
364.9865	0.075	729973	keystroke	f	n/a
365.0915	0.09	730183	keystroke	o	n/a
365.1665	0.075	730333	keystroke	r	n/a
365.2865	0.09	730573	keystroke	m	n/a
365.3915	0.09	730783	keystroke	s	n/a
365.4665	0.09	730933	keystroke	Key.space	n/a
365.7665	0.09	731533	keystroke	c	n/a
365.8865	0.09	731773	keystroke	h	n/a
365.9915	0.09	731983	keystroke	i	n/a
366.9065	0.09	733813	keystroke	Key.backspace	n/a
367.0415	0.09	734083	keystroke	r	n/a
367.1915	0.09	734383	keystroke	i	n/a
367.4165	0.0895	734833	keystroke	s	n/a
368.4065	0.12	736813	keystroke	t	n/a
368.6015	0.089	737203	keystroke	i	n/a
368.7065	0.105	737413	keystroke	a	n/a
368.8565	0.09	737713	keystroke	n	n/a
368.9305	0.106	737861	keystroke	s	n/a
369.0515	0.09	738103	keystroke	Key.space	n/a
371.4955	0.0755	742991	keystroke	h	n/a
371.586	0.09	743172	keystroke	o	n/a
371.991	0.06	743982	keystroke	l	n/a
372.111	0.12	744222	keystroke	l	n/a
372.291	0.06	744582	keystroke	y	n/a
372.891	0.0895	745782	keystroke	Key.space	n/a
373.4605	0.09	746921	keystroke	c	n/a
373.5655	0.09	747131	keystroke	u	n/a
373.7005	0.076	747401	keystroke	r	n/a
373.8505	0.12	747701	keystroke	r	n/a
373.9105	0.12	747821	keystroke	e	n/a
374.0155	0.105	748031	keystroke	n	n/a
374.1215	0.074	748243	keystroke	t	n/a
374.2105	0.106	748421	keystroke	l	n/a
374.3315	0.06	748663	keystroke	y	n/a
374.5415	0.075	749083	keystroke	Key.enter	n/a
374.6205	6.957	749241	prompt	n/a	profile father hampshire peterson\n
375.756	0.075	751512	keystroke	p	n/a
375.846	0.0905	751692	keystroke	r	n/a
375.9665	0.0745	751933	keystroke	o	n/a
376.086	0.06	752172	keystroke	f	n/a
376.896	0.06	753792	keystroke	i	n/a
377.0915	0.075	754183	keystroke	l	n/a
377.1815	0.105	754363	keystroke	e	n/a
377.316	0.1055	754632	keystroke	Key.space	n/a
377.5565	0.12	755113	keystroke	f	n/a
377.7065	0.09	755413	keystroke	a	n/a
377.961	0.105	755922	keystroke	t	n/a
378.021	0.09	756042	keystroke	h	n/a
378.201	0.105	756402	keystroke	e	n/a
378.261	0.09	756522	keystroke	r	n/a
378.411	0.12	756822	keystroke	Key.space	n/a
378.906	0.09	757812	keystroke	h	n/a
378.966	0.09	757932	keystroke	a	n/a
379.116	0.09	758232	keystroke	m	n/a
379.236	0.09	758472	keystroke	p	n/a
379.341	0.105	758682	keystroke	s	n/a
379.506	0.105	759012	keystroke	h	n/a
380.151	0.075	760302	keystroke	i	n/a
380.256	0.12	760512	keystroke	r	n/a
380.316	0.105	760632	keystroke	e	n/a
380.406	0.09	760812	keystroke	Key.space	n/a
380.616	0.09	761232	keystroke	p	n/a
380.706	0.12	761412	keystroke	e	n/a
380.781	0.12	761562	keystroke	t	n/a
380.931	0.135	761862	keystroke	e	n/a
381.006	0.1205	762012	keystroke	r	n/a
381.1865	0.12	762373	keystroke	s	n/a
381.2915	0.12	762583	keystroke	o	n/a
381.3665	0.105	762733	keystroke	n	n/a
381.5015	0.075	763003	keystroke	Key.enter	n/a
381.581	10.3165	763162	prompt	n/a	where's voyeurweb lamb farmers\n
382.3115	0.075	764623	keystroke	w	n/a
382.4165	0.09	764833	keystroke	h	n/a
382.5215	0.1045	765043	keystroke	e	n/a
382.5815	0.1495	765163	keystroke	r	n/a
382.671	0.105	765342	keystroke	e	n/a
383.0465	0.09	766093	keystroke	'	n/a
383.1815	0.105	766363	keystroke	s	n/a
383.3315	0.105	766663	keystroke	Key.space	n/a
383.7965	0.06	767593	keystroke	t	n/a
383.8265	0.09	767653	keystroke	h	n/a
383.9915	0.075	767983	keystroke	e	n/a
384.3365	0.045	768673	keystroke	Key.backspace	n/a
384.4715	0.06	768943	keystroke	Key.backspace	n/a
384.5915	0.06	769183	keystroke	Key.backspace	n/a
385.596	0.06	771192	keystroke	v	n/a
386.421	0.1055	772842	keystroke	o	n/a
386.466	0.09	772932	keystroke	y	n/a
387.591	0.09	775182	keystroke	e	n/a
387.756	0.075	775512	keystroke	u	n/a
387.846	0.09	775692	keystroke	r	n/a
388.431	0.105	776862	keystroke	w	n/a
388.626	0.09	777252	keystroke	e	n/a
388.776	0.105	777552	keystroke	b	n/a
389.376	0.075	778752	keystroke	Key.space	n/a
389.571	0.09	779142	keystroke	l	n/a
389.676	0.09	779352	keystroke	a	n/a
389.841	0.075	779682	keystroke	m	n/a
390.081	0.075	780162	keystroke	b	n/a
390.216	0.12	780432	keystroke	Key.space	n/a
390.996	0.075	781992	keystroke	f	n/a
391.056	0.12	782112	keystroke	a	n/a
391.221	0.09	782442	keystroke	r	n/a
391.326	0.09	782652	keystroke	m	n/a
391.431	0.09	782862	keystroke	e	n/a
391.476	0.075	782952	keystroke	r	n/a
391.611	0.105	783222	keystroke	s	n/a
391.791	0.105	783582	keystroke	Key.enter	n/a
391.9005	7.167	783801	prompt	n/a	marina satisfactory planet ensures\n
392.7515	0.105	785503	keystroke	m	n/a
392.8265	0.074	785653	keystroke	a	n/a
393.0805	0.106	786161	keystroke	r	n/a
393.3515	0.09	786703	keystroke	i	n/a
393.3965	0.09	786793	keystroke	n	n/a
393.5015	0.104	787003	keystroke	e	n/a
393.6655	0.09	787331	keystroke	Key.space	n/a
394.2505	0.121	788501	keystroke	s	n/a
394.3565	0.075	788713	keystroke	a	n/a
394.5365	0.075	789073	keystroke	t	n/a
394.6415	0.0895	789283	keystroke	i	n/a
394.761	0.09	789522	keystroke	s	n/a
394.941	0.06	789882	keystroke	f	n/a
395.031	0.12	790062	keystroke	a	n/a
395.106	0.09	790212	keystroke	c	n/a
395.331	0.0445	790662	keystroke	t	n/a
395.3915	0.09	790783	keystroke	o	n/a
395.4665	0.119	790933	keystroke	r	n/a
395.7205	0.061	791441	keystroke	y	n/a
395.8855	0.106	791771	keystroke	Key.space	n/a
396.0805	0.15	792161	keystroke	p	n/a
396.2165	0.105	792433	keystroke	a	n/a
396.7705	0.0905	793541	keystroke	Key.backspace	n/a
397.2655	0.091	794531	keystroke	l	n/a
397.3415	0.089	794683	keystroke	a	n/a
397.506	0.075	795012	keystroke	n	n/a
397.6565	0.1195	795313	keystroke	e	n/a
397.7315	0.075	795463	keystroke	t	n/a
397.8215	0.12	795643	keystroke	Key.space	n/a
398.2265	0.0745	796453	keystroke	e	n/a
398.331	0.12	796662	keystroke	n	n/a
398.421	0.09	796842	keystroke	s	n/a
398.616	0.075	797232	keystroke	u	n/a
398.676	0.1055	797352	keystroke	r	n/a
398.7215	0.075	797443	keystroke	e	n/a
398.8865	0.1045	797773	keystroke	s	n/a
398.992	0.074	797984	keystroke	Key.enter	n/a
399.083	7.5895	798166	prompt	n/a	accent organisms nirvana completed\n
399.682	0.089	799364	keystroke	a	n/a
399.726	0.09	799452	keystroke	c	n/a
399.906	0.12	799812	keystroke	c	n/a
400.041	0.09	800082	keystroke	e	n/a
400.1615	0.09	800323	keystroke	n	n/a
400.2365	0.075	800473	keystroke	t	n/a
400.3415	0.105	800683	keystroke	Key.space	n/a
401.421	0.045	802842	keystroke	o	n/a
401.511	0.0905	803022	keystroke	r	n/a
401.5565	0.105	803113	keystroke	g	n/a
401.7365	0.075	803473	keystroke	a	n/a
401.8265	0.105	803653	keystroke	n	n/a
401.9465	0.09	803893	keystroke	i	n/a
402.1715	0.075	804343	keystroke	m	n/a
402.3215	0.135	804643	keystroke	s	n/a
402.816	0.06	805632	keystroke	Key.backspace	n/a
402.951	0.0755	805902	keystroke	Key.backspace	n/a
403.0865	0.09	806173	keystroke	s	n/a
403.1465	0.09	806293	keystroke	m	n/a
403.3415	0.09	806683	keystroke	Key.space	n/a
404.1065	0.09	808213	keystroke	n	n/a
404.241	0.0755	808482	keystroke	i	n/a
404.3465	0.075	808693	keystroke	r	n/a
404.5565	0.0745	809113	keystroke	v	n/a
404.646	0.075	809292	keystroke	a	n/a
404.736	0.075	809472	keystroke	n	n/a
405.0515	0.105	810103	keystroke	a	n/a
405.2465	0.1045	810493	keystroke	Key.space	n/a
405.681	0.09	811362	keystroke	c	n/a
405.711	0.12	811422	keystroke	o	n/a
405.786	0.09	811572	keystroke	m	n/a
405.936	0.135	811872	keystroke	p	n/a
405.996	0.105	811992	keystroke	l	n/a
406.102	0.089	812204	keystroke	e	n/a
406.131	0.165	812262	keystroke	t	n/a
406.281	0.09	812562	keystroke	e	n/a
406.446	0.075	812892	keystroke	d	n/a
406.581	0.09	813162	keystroke	Key.enter	n/a
406.677	6.326	813354	prompt	n/a	hearing outlook chrysler certified\n
407.496	0.105	814992	keystroke	h	n/a
407.556	0.12	815112	keystroke	e	n/a
407.661	0.135	815322	keystroke	a	n/a
407.781	0.09	815562	keystroke	r	n/a
407.886	0.1355	815772	keystroke	i	n/a
407.946	0.0905	815892	keystroke	n	n/a
408.0065	0.075	816013	keystroke	g	n/a
408.1115	0.12	816223	keystroke	Key.space	n/a
408.5915	0.1045	817183	keystroke	o	n/a
408.651	0.105	817302	keystroke	u	n/a
408.726	0.075	817452	keystroke	t	n/a
408.831	0.09	817662	keystroke	l	n/a
409.041	0.06	818082	keystroke	o	n/a
409.2055	0.151	818411	keystroke	o	n/a
409.296	0.1055	818592	keystroke	k	n/a
409.3865	0.105	818773	keystroke	Key.space	n/a
409.926	0.09	819852	keystroke	c	n/a
410.031	0.09	820062	keystroke	h	n/a
410.136	0.075	820272	keystroke	r	n/a
410.376	0.09	820752	keystroke	y	n/a
410.527	0.09	821054	keystroke	s	n/a
410.976	0.075	821952	keystroke	l	n/a
411.066	0.1205	822132	keystroke	e	n/a
411.1415	0.105	822283	keystroke	r	n/a
411.2615	0.09	822523	keystroke	Key.space	n/a
411.5315	0.09	823063	keystroke	c	n/a
411.7565	0.105	823513	keystroke	e	n/a
411.8165	0.12	823633	keystroke	r	n/a
412.0715	0.075	824143	keystroke	t	n/a
412.2215	0.105	824443	keystroke	i	n/a
412.3565	0.075	824713	keystroke	f	n/a
412.4615	0.09	824923	keystroke	i	n/a
412.6565	0.075	825313	keystroke	e	n/a
412.8065	0.105	825613	keystroke	d	n/a
412.9415	0.06	825883	keystroke	Key.enter	n/a
413.0065	5.6515	826013	prompt	n/a	warned global stats handling\n
413.7665	0.1495	827533	keystroke	w	n/a
413.841	0.06	827682	keystroke	e	n/a
414.231	0.075	828462	keystroke	Key.backspace	n/a
414.576	0.1055	829152	keystroke	a	n/a
414.7415	0.105	829483	keystroke	r	n/a
415.0115	0.105	830023	keystroke	n	n/a
415.1015	0.0745	830203	keystroke	e	n/a
415.266	0.075	830532	keystroke	d	n/a
415.3565	0.105	830713	keystroke	Key.space	n/a
415.7615	0.045	831523	keystroke	g	n/a
415.8215	0.0745	831643	keystroke	l	n/a
415.986	0.075	831972	keystroke	o	n/a
416.016	0.075	832032	keystroke	b	n/a
416.1965	0.09	832393	keystroke	a	n/a
416.2715	0.09	832543	keystroke	l	n/a
416.3765	0.09	832753	keystroke	Key.space	n/a
416.676	0.045	833352	keystroke	s	n/a
416.811	0.105	833622	keystroke	t	n/a
416.901	0.105	833802	keystroke	a	n/a
416.991	0.1055	833982	keystroke	t	n/a
417.1565	0.105	834313	keystroke	s	n/a
417.3365	0.119	834673	keystroke	Key.space	n/a
417.726	0.09	835452	keystroke	h	n/a
417.786	0.09	835572	keystroke	a	n/a
417.906	0.09	835812	keystroke	n	n/a
417.981	0.0905	835962	keystroke	d	n/a
418.0865	0.075	836173	keystroke	l	n/a
418.2965	0.09	836593	keystroke	i	n/a
418.3415	0.089	836683	keystroke	n	n/a
418.4015	0.06	836803	keystroke	g	n/a
418.5955	0.06	837191	keystroke	Key.enter	n/a
418.6605	6.012	837321	prompt	n/a	be tommy brian source\n
419.4955	0.075	838991	keystroke	b	n/a
419.7055	0.09	839411	keystroke	e	n/a
419.8705	0.105	839741	keystroke	Key.space	n/a
420.0505	0.06	840101	keystroke	t	n/a
420.1565	0.059	840313	keystroke	o	n/a
420.2005	0.06	840401	keystroke	m	n/a
420.3205	0.075	840641	keystroke	m	n/a
420.4705	0.075	840941	keystroke	y	n/a
420.5605	0.12	841121	keystroke	Key.space	n/a
420.8155	0.06	841631	keystroke	b	n/a
420.8905	0.075	841781	keystroke	r	n/a
421.2055	0.09	842411	keystroke	i	n/a
421.3405	0.1055	842681	keystroke	a	n/a
421.461	0.09	842922	keystroke	n	n/a
421.566	0.075	843132	keystroke	Key.space	n/a
423.081	0.09	846162	keystroke	s	n/a
423.186	0.0905	846372	keystroke	o	n/a
423.321	0.0445	846642	keystroke	r	n/a
423.681	0.06	847362	keystroke	Key.backspace	n/a
423.876	0.09	847752	keystroke	u	n/a
423.951	0.075	847902	keystroke	r	n/a
424.266	0.09	848532	keystroke	c	n/a
424.326	0.09	848652	keystroke	e	n/a
424.596	0.075	849192	keystroke	Key.enter	n/a
424.675	7.7075	849350	prompt	n/a	pursuit batteries okay divide\n
425.481	0.06	850962	keystroke	p	n/a
425.586	0.09	851172	keystroke	u	n/a
425.751	0.12	851502	keystroke	s	n/a
426.051	0.12	852102	keystroke	u	n/a
426.141	0.09	852282	keystroke	i	n/a
426.232	0.089	852464	keystroke	t	n/a
426.351	0.105	852702	keystroke	Key.space	n/a
426.711	0.045	853422	keystroke	b	n/a
427.026	0.06	854052	keystroke	Key.backspace	n/a
427.176	0.045	854352	keystroke	Key.backspace	n/a
427.281	0.06	854562	keystroke	Key.backspace	n/a
427.386	0.075	854772	keystroke	Key.backspace	n/a
427.506	0.045	855012	keystroke	Key.backspace	n/a
427.611	0.045	855222	keystroke	Key.backspace	n/a
428.226	0.06	856452	keystroke	r	n/a
428.406	0.06	856812	keystroke	s	n/a
428.526	0.12	857052	keystroke	u	n/a
428.586	0.09	857172	keystroke	i	n/a
428.691	0.105	857382	keystroke	t	n/a
428.811	0.09	857622	keystroke	Key.space	n/a
429.0065	0.09	858013	keystroke	b	n/a
429.0665	0.105	858133	keystroke	a	n/a
429.1865	0.075	858373	keystroke	t	n/a
429.3355	0.105	858671	keystroke	t	n/a
429.4705	0.12	858941	keystroke	e	n/a
429.5455	0.135	859091	keystroke	r	n/a
429.8905	0.09	859781	keystroke	i	n/a
429.9955	0.075	859991	keystroke	e	n/a
430.1305	0.1355	860261	keystroke	s	n/a
430.251	0.09	860502	keystroke	Key.space	n/a
430.806	0.12	861612	keystroke	o	n/a
430.851	0.105	861702	keystroke	k	n/a
430.941	0.09	861882	keystroke	a	n/a
431.136	0.075	862272	keystroke	y	n/a
431.226	0.12	862452	keystroke	Key.space	n/a
431.496	0.09	862992	keystroke	d	n/a
431.616	0.075	863232	keystroke	i	n/a
431.721	0.075	863442	keystroke	v	n/a
431.811	0.09	863622	keystroke	i	n/a
431.946	0.09	863892	keystroke	d	n/a
432.111	0.09	864222	keystroke	e	n/a
432.306	0.075	864612	keystroke	Key.enter	n/a
432.388	12.7745	864776	prompt	n/a	privacy university freedom flood\n
432.981	0.09	865962	keystroke	p	n/a
433.116	0.09	866232	keystroke	r	n/a
433.236	0.0905	866472	keystroke	i	n/a
433.341	0.105	866682	keystroke	v	n/a
433.476	0.105	866952	keystroke	a	n/a
435.561	0.06	871122	keystroke	v	n/a
435.876	0.06	871752	keystroke	Key.backspace	n/a
435.981	0.075	871962	keystroke	c	n/a
436.251	0.0755	872502	keystroke	y	n/a
436.3565	0.09	872713	keystroke	Key.space	n/a
437.5565	0.089	875113	keystroke	u	n/a
437.6165	0.09	875233	keystroke	n	n/a
437.7515	0.09	875503	keystroke	i	n/a
437.8865	0.089	875773	keystroke	v	n/a
438.036	0.105	876072	keystroke	e	n/a
438.111	0.09	876222	keystroke	r	n/a
438.231	0.075	876462	keystroke	s	n/a
438.351	0.06	876702	keystroke	t	n/a
439.296	0.105	878592	keystroke	y	n/a
439.431	0.09	878862	keystroke	Key.space	n/a
439.956	0.105	879912	keystroke	f	n/a
440.166	0.105	880332	keystroke	r	n/a
440.211	0.09	880422	keystroke	e	n/a
440.361	0.09	880722	keystroke	e	n/a
440.526	0.105	881052	keystroke	d	n/a
440.736	0.15	881472	keystroke	o	n/a
440.796	0.12	881592	keystroke	m	n/a
440.961	0.105	881922	keystroke	Key.space	n/a
441.9055	0.06	883811	keystroke	d	n/a
441.9665	0.104	883933	keystroke	l	n/a
442.1605	0.105	884321	keystroke	o	n/a
442.6705	0.075	885341	keystroke	o	n/a
443.106	0.06	886212	keystroke	Key.backspace	n/a
443.256	0.045	886512	keystroke	Key.backspace	n/a
443.3605	0.105	886721	keystroke	Key.backspace	n/a
443.5705	0.06	887141	keystroke	Key.backspace	n/a
444.1105	0.06	888221	keystroke	f	n/a
444.2005	0.06	888401	keystroke	l	n/a
444.3955	0.03	888791	keystroke	o	n/a
444.4705	0.075	888941	keystroke	o	n/a
444.6505	0.0455	889301	keystroke	d	n/a
445.0865	0.075	890173	keystroke	Key.enter	n/a
445.174	5.058	890348	prompt	n/a	arbor makeup around robot\n
445.896	0.12	891792	keystroke	a	n/a
445.956	0.09	891912	keystroke	r	n/a
446.196	0.09	892392	keystroke	b	n/a
446.316	0.105	892632	keystroke	o	n/a
446.406	0.0905	892812	keystroke	r	n/a
446.526	0.09	893052	keystroke	Key.space	n/a
446.721	0.075	893442	keystroke	m	n/a
446.811	0.105	893622	keystroke	a	n/a
446.931	0.075	893862	keystroke	k	n/a
447.051	0.09	894102	keystroke	e	n/a
447.5465	0.075	895093	keystroke	u	n/a
447.6805	0.105	895361	keystroke	p	n/a
447.8005	0.0905	895601	keystroke	Key.space	n/a
448.281	0.105	896562	keystroke	a	n/a
448.371	0.09	896742	keystroke	r	n/a
448.551	0.135	897102	keystroke	o	n/a
448.626	0.09	897252	keystroke	u	n/a
448.836	0.09	897672	keystroke	n	n/a
448.896	0.12	897792	keystroke	d	n/a
449.046	0.075	898092	keystroke	Key.space	n/a
449.451	0.075	898902	keystroke	r	n/a
449.556	0.09	899112	keystroke	o	n/a
449.691	0.105	899382	keystroke	b	n/a
449.811	0.09	899622	keystroke	o	n/a
449.931	0.06	899862	keystroke	t	n/a
450.171	0.06	900342	keystroke	Key.enter	n/a
450.235	6.3875	900470	prompt	n/a	moreover poll obligation mastercard\n
451.131	0.075	902262	keystroke	m	n/a
451.236	0.09	902472	keystroke	o	n/a
451.311	0.105	902622	keystroke	r	n/a
451.371	0.09	902742	keystroke	e	n/a
451.551	0.105	903102	keystroke	o	n/a
451.686	0.105	903372	keystroke	v	n/a
451.866	0.135	903732	keystroke	e	n/a
451.956	0.09	903912	keystroke	r	n/a
452.001	0.09	904002	keystroke	Key.space	n/a
452.211	0.09	904422	keystroke	p	n/a
452.271	0.12	904542	keystroke	o	n/a
452.916	0.06	905832	keystroke	l	n/a
453.051	0.0895	906102	keystroke	l	n/a
453.1255	0.09	906251	keystroke	Key.space	n/a
453.666	0.075	907332	keystroke	o	n/a
453.861	0.09	907722	keystroke	b	n/a
454.0855	0.075	908171	keystroke	l	n/a
454.2805	0.06	908561	keystroke	i	n/a
454.4305	0.135	908861	keystroke	g	n/a
454.5805	0.1055	909161	keystroke	a	n/a
454.6705	0.0905	909341	keystroke	t	n/a
454.776	0.075	909552	keystroke	i	n/a
454.821	0.105	909642	keystroke	o	n/a
454.956	0.105	909912	keystroke	n	n/a
455.076	0.06	910152	keystroke	Key.space	n/a
455.256	0.105	910512	keystroke	m	n/a
455.346	0.135	910692	keystroke	a	n/a
455.421	0.105	910842	keystroke	s	n/a
455.631	0.09	911262	keystroke	t	n/a
455.736	0.12	911472	keystroke	e	n/a
455.826	0.06	911652	keystroke	r	n/a
456.021	0.105	912042	keystroke	c	n/a
456.111	0.105	912222	keystroke	a	n/a
456.246	0.09	912492	keystroke	r	n/a
456.411	0.09	912822	keystroke	d	n/a
456.531	0.09	913062	keystroke	Key.enter	n/a
456.625	5.4425	913250	prompt	n/a	xanax chad beam beam\n
457.716	0.135	915432	keystroke	x	n/a
457.791	0.105	915582	keystroke	a	n/a
457.896	0.09	915792	keystroke	n	n/a
457.971	0.105	915942	keystroke	a	n/a
458.241	0.075	916482	keystroke	x	n/a
458.451	0.09	916902	keystroke	Key.space	n/a
459.2165	0.12	918433	keystroke	c	n/a
459.3515	0.075	918703	keystroke	h	n/a
459.4415	0.1195	918883	keystroke	a	n/a
459.696	0.075	919392	keystroke	d	n/a
459.816	0.09	919632	keystroke	Key.space	n/a
460.056	0.09	920112	keystroke	b	n/a
460.131	0.075	920262	keystroke	e	n/a
460.266	0.09	920532	keystroke	a	n/a
460.386	0.06	920772	keystroke	m	n/a
460.566	0.06	921132	keystroke	Key.space	n/a
461.286	0.09	922572	keystroke	b	n/a
461.3465	0.0895	922693	keystroke	e	n/a
461.481	0.09	922962	keystroke	a	n/a
461.586	0.09	923172	keystroke	m	n/a
461.976	0.09	923952	keystroke	Key.enter	n/a
462.0705	5.052	924141	prompt	n/a	skip grams manga hunger\n
463.011	0.075	926022	keystroke	s	n/a
463.146	0.06	926292	keystroke	k	n/a
463.311	0.0755	926622	keystroke	i	n/a
463.4165	0.105	926833	keystroke	p	n/a
463.5365	0.105	927073	keystroke	Key.space	n/a
463.9865	0.1195	927973	keystroke	g	n/a
464.0315	0.0895	928063	keystroke	r	n/a
464.196	0.105	928392	keystroke	a	n/a
464.316	0.075	928632	keystroke	m	n/a
464.406	0.105	928812	keystroke	s	n/a
464.496	0.105	928992	keystroke	Key.space	n/a
464.751	0.09	929502	keystroke	m	n/a
464.856	0.12	929712	keystroke	a	n/a
464.961	0.09	929922	keystroke	n	n/a
465.576	0.1055	931152	keystroke	g	n/a
465.6655	0.105	931331	keystroke	a	n/a
465.7555	0.09	931511	keystroke	Key.space	n/a
466.431	0.075	932862	keystroke	h	n/a
466.476	0.15	932952	keystroke	u	n/a
466.641	0.09	933282	keystroke	n	n/a
466.701	0.075	933402	keystroke	g	n/a
466.881	0.1045	933762	keystroke	e	n/a
466.941	0.0895	933882	keystroke	r	n/a
467.0455	0.076	934091	keystroke	Key.enter	n/a
467.127	7.4655	934254	prompt	n/a	asking crisis travesti ebay\n
467.766	0.12	935532	keystroke	a	n/a
467.841	0.09	935682	keystroke	s	n/a
467.976	0.12	935952	keystroke	k	n/a
468.201	0.105	936402	keystroke	i	n/a
468.246	0.0745	936492	keystroke	n	n/a
468.291	0.0745	936582	keystroke	g	n/a
468.3965	0.105	936793	keystroke	Key.space	n/a
468.5605	0.09	937121	keystroke	c	n/a
468.7255	0.075	937451	keystroke	r	n/a
468.8605	0.105	937721	keystroke	i	n/a
468.9505	0.075	937901	keystroke	s	n/a
469.0565	0.105	938113	keystroke	i	n/a
469.1155	0.106	938231	keystroke	s	n/a
469.2355	0.105	938471	keystroke	Key.space	n/a
469.926	0.075	939852	keystroke	t	n/a
469.956	0.105	939912	keystroke	r	n/a
470.271	0.075	940542	keystroke	a	n/a
471.2455	0.1205	942491	keystroke	v	n/a
471.2905	0.1055	942581	keystroke	e	n/a
471.501	0.09	943002	keystroke	s	n/a
472.9555	0.075	945911	keystroke	t	n/a
473.0605	0.0605	946121	keystroke	i	n/a
473.226	0.105	946452	keystroke	Key.space	n/a
473.7355	0.09	947471	keystroke	e	n/a
473.8855	0.135	947771	keystroke	b	n/a
474.0655	0.09	948131	keystroke	a	n/a
474.3355	0.09	948671	keystroke	y	n/a
474.5305	0.06	949061	keystroke	Key.enter	n/a
474.595	10.3475	949190	prompt	n/a	think motorcycle appropriations thesaurus\n
475.311	0.105	950622	keystroke	t	n/a
475.356	0.105	950712	keystroke	h	n/a
475.551	0.105	951102	keystroke	i	n/a
475.611	0.12	951222	keystroke	n	n/a
475.761	0.12	951522	keystroke	k	n/a
475.911	0.105	951822	keystroke	Key.space	n/a
476.121	0.105	952242	keystroke	m	n/a
476.241	0.105	952482	keystroke	o	n/a
476.451	0.075	952902	keystroke	t	n/a
476.8855	0.075	953771	keystroke	o	n/a
477.0505	0.09	954101	keystroke	r	n/a
477.5005	0.105	955001	keystroke	c	n/a
478.446	0.09	956892	keystroke	y	n/a
478.626	0.105	957252	keystroke	c	n/a
478.746	0.105	957492	keystroke	l	n/a
478.866	0.105	957732	keystroke	e	n/a
478.986	0.075	957972	keystroke	Key.space	n/a
479.196	0.09	958392	keystroke	a	n/a
479.301	0.0595	958602	keystroke	p	n/a
479.4505	0.06	958901	keystroke	p	n/a
479.5405	0.09	959081	keystroke	r	n/a
479.6455	0.09	959291	keystroke	o	n/a
480.231	0.074	960462	keystroke	p	n/a
481.5355	0.09	963071	keystroke	r	n/a
481.9555	0.06	963911	keystroke	i	n/a
482.0605	0.12	964121	keystroke	a	n/a
482.2255	0.105	964451	keystroke	t	n/a
482.3155	0.09	964631	keystroke	i	n/a
482.3755	0.09	964751	keystroke	o	n/a
482.5105	0.105	965021	keystroke	n	n/a
482.6305	0.09	965261	keystroke	s	n/a
482.7355	0.09	965471	keystroke	Key.space	n/a
482.9455	0.12	965891	keystroke	t	n/a
483.0055	0.09	966011	keystroke	h	n/a
483.2005	0.09	966401	keystroke	e	n/a
483.381	0.09	966762	keystroke	s	n/a
483.546	0.119	967092	keystroke	a	n/a
483.681	0.09	967362	keystroke	u	n/a
483.9205	0.135	967841	keystroke	r	n/a
484.5355	0.06	969071	keystroke	u	n/a
484.6255	0.1045	969251	keystroke	s	n/a
484.865	0.075	969730	keystroke	Key.enter	n/a
484.9475	10.2545	969895	prompt	n/a	objectives encyclopedia johnson thou\n
485.87	0.076	971740	keystroke	o	n/a
485.961	0.059	971922	keystroke	b	n/a
486.1105	0.075	972221	keystroke	j	n/a
486.2305	0.105	972461	keystroke	e	n/a
486.3805	0.105	972761	keystroke	c	n/a
486.6055	0.045	973211	keystroke	t	n/a
486.6805	0.105	973361	keystroke	i	n/a
486.8155	0.105	973631	keystroke	v	n/a
486.8755	0.105	973751	keystroke	e	n/a
487.0705	0.09	974141	keystroke	s	n/a
487.1905	0.09	974381	keystroke	Key.space	n/a
487.431	0.104	974862	keystroke	e	n/a
487.55	0.09	975100	keystroke	n	n/a
487.67	0.076	975340	keystroke	c	n/a
488.045	0.06	976090	keystroke	c	n/a
489.006	0.06	978012	keystroke	Key.backspace	n/a
489.4705	0.0605	978941	keystroke	y	n/a
489.576	0.09	979152	keystroke	c	n/a
490.371	0.075	980742	keystroke	l	n/a
491.5705	0.12	983141	keystroke	o	n/a
491.9155	0.105	983831	keystroke	p	n/a
492.0355	0.09	984071	keystroke	e	n/a
492.1855	0.105	984371	keystroke	d	n/a
492.3055	0.075	984611	keystroke	i	n/a
492.4105	0.105	984821	keystroke	a	n/a
492.5605	0.105	985121	keystroke	Key.space	n/a
493.206	0.09	986412	keystroke	j	n/a
493.6705	0.09	987341	keystroke	o	n/a
493.8205	0.09	987641	keystroke	h	n/a
494.0005	0.09	988001	keystroke	n	n/a
494.1055	0.09	988211	keystroke	s	n/a
494.211	0.075	988422	keystroke	o	n/a
494.24	0.091	988480	keystroke	n	n/a
494.39	0.106	988780	keystroke	Key.space	n/a
494.646	0.104	989292	keystroke	t	n/a
494.705	0.091	989410	keystroke	h	n/a
494.781	0.105	989562	keystroke	o	n/a
494.826	0.105	989652	keystroke	u	n/a
495.111	0.09	990222	keystroke	Key.enter	n/a
495.205	11.592	990410	prompt	n/a	everyone's engineers forge strategic\n
495.9955	0.09	991991	keystroke	e	n/a
496.0705	0.09	992141	keystroke	n	n/a
496.2205	0.105	992441	keystroke	v	n/a
497.0605	0.06	994121	keystroke	Key.backspace	n/a
497.1805	0.09	994361	keystroke	Key.backspace	n/a
497.435	0.09	994870	keystroke	v	n/a
497.51	0.105	995020	keystroke	e	n/a
497.735	0.105	995470	keystroke	r	n/a
498.396	0.075	996792	keystroke	y	n/a
498.531	0.135	997062	keystroke	o	n/a
498.606	0.12	997212	keystroke	n	n/a
499.6255	0.09	999251	keystroke	e	n/a
499.7755	0.09	999551	keystroke	'	n/a
499.8665	0.089	999733	keystroke	e	n/a
500.2105	0.09	1000421	keystroke	Key.space	n/a
500.9905	0.075	1001981	keystroke	Key.backspace	n/a
501.1405	0.075	1002281	keystroke	Key.backspace	n/a
501.4705	0.09	1002941	keystroke	s	n/a
501.5755	0.09	1003151	keystroke	Key.space	n/a
501.9055	0.09	1003811	keystroke	e	n/a
502.0105	0.06	1004021	keystroke	n	n/a
502.4905	0.075	1004981	keystroke	g	n/a
502.5505	0.12	1005101	keystroke	i	n/a
502.6405	0.06	1005281	keystroke	n	n/a
502.7305	0.12	1005461	keystroke	e	n/a
502.8955	0.15	1005791	keystroke	e	n/a
503.0305	0.12	1006061	keystroke	r	n/a
503.1955	0.105	1006391	keystroke	s	n/a
503.3155	0.105	1006631	keystroke	Key.space	n/a
503.8555	0.075	1007711	keystroke	f	n/a
503.9755	0.09	1007951	keystroke	o	n/a
504.0505	0.075	1008101	keystroke	r	n/a
504.2755	0.105	1008551	keystroke	g	n/a
504.3205	0.15	1008641	keystroke	e	n/a
504.4855	0.105	1008971	keystroke	Key.space	n/a
504.7705	0.105	1009541	keystroke	s	n/a
505.0105	0.12	1010021	keystroke	t	n/a
505.0405	0.15	1010081	keystroke	r	n/a
505.2355	0.1205	1010471	keystroke	a	n/a
505.2955	0.1355	1010591	keystroke	t	n/a
505.566	0.12	1011132	keystroke	e	n/a
506.031	0.105	1012062	keystroke	g	n/a
506.241	0.09	1012482	keystroke	i	n/a
506.346	0.09	1012692	keystroke	c	n/a
506.7355	0.06	1013471	keystroke	Key.enter	n/a
506.8	5.592	1013600	prompt	n/a	instances teddy allowing nasa\n
507.4855	0.09	1014971	keystroke	i	n/a
507.5305	0.105	1015061	keystroke	n	n/a
507.6055	0.075	1015211	keystroke	s	n/a
507.7405	0.075	1015481	keystroke	t	n/a
507.8305	0.0895	1015661	keystroke	a	n/a
507.935	0.106	1015870	keystroke	n	n/a
508.011	0.149	1016022	keystroke	c	n/a
508.086	0.089	1016172	keystroke	e	n/a
508.265	0.106	1016530	keystroke	s	n/a
508.385	0.09	1016770	keystroke	Key.space	n/a
508.76	0.105	1017520	keystroke	t	n/a
508.82	0.105	1017640	keystroke	e	n/a
509.03	0.0455	1018060	keystroke	d	n/a
509.1505	0.09	1018301	keystroke	d	n/a
509.2855	0.1045	1018571	keystroke	y	n/a
509.405	0.105	1018810	keystroke	Key.space	n/a
509.6	0.075	1019200	keystroke	a	n/a
509.705	0.075	1019410	keystroke	l	n/a
509.84	0.075	1019680	keystroke	l	n/a
510.005	0.105	1020010	keystroke	o	n/a
510.08	0.105	1020160	keystroke	w	n/a
510.245	0.09	1020490	keystroke	i	n/a
510.29	0.075	1020580	keystroke	n	n/a
510.35	0.06	1020700	keystroke	g	n/a
510.44	0.105	1020880	keystroke	Key.space	n/a
511.22	0.03	1022440	keystroke	n	n/a
511.265	0.15	1022530	keystroke	a	n/a
511.475	0.075	1022950	keystroke	s	n/a
511.625	0.15	1023250	keystroke	a	n/a
511.91	0.075	1023820	keystroke	Key.space	n/a
512.315	0.075	1024630	keystroke	Key.enter	n/a
512.395	13.692	1024790	prompt	n/a	framed interference revolutionary essence\n
513.2605	0.0905	1026521	keystroke	f	n/a
513.456	0.045	1026912	keystroke	r	n/a
513.546	0.09	1027092	keystroke	a	n/a
513.666	0.105	1027332	keystroke	m	n/a
513.741	0.1045	1027482	keystroke	e	n/a
513.906	0.0895	1027812	keystroke	d	n/a
513.9655	0.075	1027931	keystroke	Key.space	n/a
514.1305	0.09	1028261	keystroke	i	n/a
514.1755	0.09	1028351	keystroke	n	n/a
514.2355	0.075	1028471	keystroke	t	n/a
514.3255	0.105	1028651	keystroke	e	n/a
514.416	0.1195	1028832	keystroke	r	n/a
514.5205	0.09	1029041	keystroke	e	n/a
514.6405	0.1355	1029281	keystroke	f	n/a
514.851	0.105	1029702	keystroke	e	n/a
514.896	0.12	1029792	keystroke	r	n/a
515.031	0.09	1030062	keystroke	e	n/a
515.256	0.1045	1030512	keystroke	n	n/a
515.3905	0.09	1030781	keystroke	c	n/a
515.4055	0.135	1030811	keystroke	e	n/a
515.5105	0.09	1031021	keystroke	Key.space	n/a
516.171	0.075	1032342	keystroke	Key.backspace	n/a
516.306	0.075	1032612	keystroke	Key.backspace	n/a
516.441	0.09	1032882	keystroke	Key.backspace	n/a
516.591	0.06	1033182	keystroke	Key.backspace	n/a
517.251	0.12	1034502	keystroke	c	n/a
517.311	0.105	1034622	keystroke	e	n/a
517.3855	0.1355	1034771	keystroke	Key.space	n/a
517.8205	0.045	1035641	keystroke	Key.backspace	n/a
517.9405	0.21	1035881	keystroke	Key.backspace	n/a
518.2705	0.105	1036541	keystroke	Key.backspace	n/a
518.5555	0.105	1037111	keystroke	n	n/a
518.6615	0.1345	1037323	keystroke	c	n/a
518.7355	0.1055	1037471	keystroke	e	n/a
518.811	0.09	1037622	keystroke	Key.space	n/a
519.696	0.03	1039392	keystroke	Key.backspace	n/a
519.846	0.075	1039692	keystroke	Key.backspace	n/a
519.996	0.09	1039992	keystroke	Key.backspace	n/a
520.1755	0.075	1040351	keystroke	Key.backspace	n/a
520.3705	0.075	1040741	keystroke	Key.backspace	n/a
520.5355	0.075	1041071	keystroke	Key.backspace	n/a
520.7155	0.06	1041431	keystroke	Key.backspace	n/a
520.8655	0.09	1041731	keystroke	Key.backspace	n/a
521.0755	0.075	1042151	keystroke	Key.backspace	n/a
521.63	0.091	1043260	keystroke	f	n/a
521.765	0.106	1043530	keystroke	e	n/a
521.841	0.12	1043682	keystroke	r	n/a
521.945	0.091	1043890	keystroke	e	n/a
522.02	0.121	1044040	keystroke	n	n/a
522.125	0.12	1044250	keystroke	c	n/a
522.156	0.119	1044312	keystroke	e	n/a
522.23	0.09	1044460	keystroke	Key.space	n/a
523.1455	0.06	1046291	keystroke	r	n/a
523.1905	0.09	1046381	keystroke	e	n/a
523.3405	0.09	1046681	keystroke	v	n/a
523.4605	0.12	1046921	keystroke	o	n/a
523.6255	0.09	1047251	keystroke	l	n/a
523.8355	0.09	1047671	keystroke	u	n/a
523.9405	0.09	1047881	keystroke	t	n/a
524.0455	0.105	1048091	keystroke	i	n/a
524.1055	0.1205	1048211	keystroke	o	n/a
524.24	0.075	1048480	keystroke	n	n/a
524.33	0.12	1048660	keystroke	a	n/a
524.465	0.106	1048930	keystroke	r	n/a
524.75	0.075	1049500	keystroke	y	n/a
524.855	0.105	1049710	keystroke	Key.space	n/a
525.17	0.061	1050340	keystroke	e	n/a
525.3505	0.045	1050701	keystroke	s	n/a
525.4555	0.09	1050911	keystroke	s	n/a
525.6355	0.075	1051271	keystroke	e	n/a
525.7405	0.09	1051481	keystroke	n	n/a
525.8455	0.09	1051691	keystroke	c	n/a
525.9055	0.09	1051811	keystroke	e	n/a
526.0105	0.075	1052021	keystroke	Key.enter	n/a
526.098	7.444	1052196	prompt	n/a	covered preferred wells easily\n
526.7755	0.105	1053551	keystroke	c	n/a
526.8655	0.0895	1053731	keystroke	o	n/a
527.15	0.09	1054300	keystroke	v	n/a
527.3605	0.105	1054721	keystroke	e	n/a
527.4205	0.105	1054841	keystroke	r	n/a
528.8155	0.09	1057631	keystroke	e	n/a
528.9805	0.09	1057961	keystroke	d	n/a
529.0855	0.105	1058171	keystroke	Key.space	n/a
529.7305	0.09	1059461	keystroke	p	n/a
529.7905	0.105	1059581	keystroke	r	n/a
529.8505	0.12	1059701	keystroke	e	n/a
529.9855	0.105	1059971	keystroke	f	n/a
530.1805	0.12	1060361	keystroke	e	n/a
530.2705	0.12	1060541	keystroke	r	n/a
530.4805	0.105	1060961	keystroke	r	n/a
530.6005	0.12	1061201	keystroke	e	n/a
530.7805	0.09	1061561	keystroke	d	n/a
530.9455	0.1045	1061891	keystroke	Key.space	n/a
531.215	0.106	1062430	keystroke	w	n/a
531.26	0.1055	1062520	keystroke	e	n/a
531.4255	0.06	1062851	keystroke	l	n/a
531.5605	0.09	1063121	keystroke	l	n/a
531.6805	0.12	1063361	keystroke	s	n/a
531.8455	0.135	1063691	keystroke	Key.space	n/a
532.521	0.105	1065042	keystroke	e	n/a
