onset	duration	sample	value	key	prompt_text
2.8315	13.356	5663	prompt	n/a	the quick brown fox jumps over a lazy dog\n
6.3745	0.0285	12749	keystroke_t	t	n/a
6.3875	0.0605	12775	keystroke_h	h	n/a
6.478	0.151	12956	keystroke_e	e	n/a
6.644	0.0605	13288	keystroke_Key.space	Key.space	n/a
6.929	0.105	13858	keystroke_q	q	n/a
7.199	0.105	14398	keystroke_u	u	n/a
7.274	0.0895	14548	keystroke_i	i	n/a
7.379	0.105	14758	keystroke_c	c	n/a
7.529	0.09	15058	keystroke_k	k	n/a
7.6345	0.105	15269	keystroke_Key.space	Key.space	n/a
8.069	0.09	16138	keystroke_b	b	n/a
8.3245	0.1195	16649	keystroke_r	r	n/a
8.444	0.075	16888	keystroke_o	o	n/a
8.5495	0.09	17099	keystroke_w	w	n/a
8.699	0.0905	17398	keystroke_n	n	n/a
8.819	0.09	17638	keystroke_Key.space	Key.space	n/a
9.269	0.105	18538	keystroke_f	f	n/a
9.329	0.091	18658	keystroke_o	o	n/a
9.479	0.135	18958	keystroke_x	x	n/a
9.629	0.1055	19258	keystroke_Key.space	Key.space	n/a
10.424	0.06	20848	keystroke_j	j	n/a
10.4685	0.0455	20937	keystroke_u	u	n/a
10.874	0.1345	21748	keystroke_m	m	n/a
11.0245	0.0895	22049	keystroke_p	p	n/a
11.099	0.105	22198	keystroke_s	s	n/a
11.294	0.1045	22588	keystroke_Key.space	Key.space	n/a
11.789	0.09	23578	keystroke_o	o	n/a
11.8795	0.089	23759	keystroke_v	v	n/a
12.014	0.165	24028	keystroke_e	e	n/a
12.104	0.12	24208	keystroke_r	r	n/a
12.209	0.12	24418	keystroke_Key.space	Key.space	n/a
12.344	0.135	24688	keystroke_a	a	n/a
12.464	0.12	24928	keystroke_Key.space	Key.space	n/a
12.8985	0.0455	25797	keystroke_l	l	n/a
12.9135	0.015	25827	keystroke_k	k	n/a
12.9295	0.0895	25859	keystroke_a	a	n/a
13.1535	0.061	26307	keystroke_z	z	n/a
13.2885	0.1205	26577	keystroke_y	y	n/a
13.6485	0.0755	27297	keystroke_Key.backspace	Key.backspace	n/a
13.784	0.06	27568	keystroke_Key.backspace	Key.backspace	n/a
13.904	0.075	27808	keystroke_Key.backspace	Key.backspace	n/a
14.0695	0.0445	28139	keystroke_Key.backspace	Key.backspace	n/a
14.429	0.09	28858	keystroke_a	a	n/a
14.834	0.09	29668	keystroke_z	z	n/a
15.074	0.09	30148	keystroke_y	y	n/a
15.1485	0.105	30297	keystroke_Key.space	Key.space	n/a
15.554	0.09	31108	keystroke_d	d	n/a
15.689	0.1055	31378	keystroke_o	o	n/a
15.779	0.105	31558	keystroke_g	g	n/a
16.0935	0.09	32187	keystroke_Key.enter	Key.enter	n/a
16.193	8.2885	32386	prompt	n/a	surfaces shopping ross mortgages\n
16.874	0.0905	33748	keystroke_s	s	n/a
17.099	0.09	34198	keystroke_u	u	n/a
17.205	0.0895	34410	keystroke_r	r	n/a
17.4135	0.09	34827	keystroke_f	f	n/a
17.549	0.0595	35098	keystroke_a	a	n/a
17.6695	0.09	35339	keystroke_c	c	n/a
17.774	0.135	35548	keystroke_e	e	n/a
17.894	0.1205	35788	keystroke_s	s	n/a
18.015	0.134	36030	keystroke_Key.space	Key.space	n/a
18.5385	0.1055	37077	keystroke_s	s	n/a
18.749	0.105	37498	keystroke_h	h	n/a
18.869	0.09	37738	keystroke_o	o	n/a
19.229	0.0305	38458	keystroke_Key.backspace	Key.backspace	n/a
19.874	0.136	39748	keystroke_o	o	n/a
19.9335	0.121	39867	keystroke_p	p	n/a
20.294	0.135	40588	keystroke_p	p	n/a
20.5645	0.1495	41129	keystroke_i	i	n/a
20.699	0.09	41398	keystroke_n	n	n/a
20.7735	0.0905	41547	keystroke_g	g	n/a
20.894	0.1495	41788	keystroke_Key.space	Key.space	n/a
21.479	0.09	42958	keystroke_r	r	n/a
21.584	0.12	43168	keystroke_o	o	n/a
21.6895	0.09	43379	keystroke_s	s	n/a
21.839	0.1355	43678	keystroke_s	s	n/a
21.989	0.1355	43978	keystroke_Key.space	Key.space	n/a
22.3635	0.1355	44727	keystroke_m	m	n/a
22.4395	0.1645	44879	keystroke_o	o	n/a
22.799	0.09	45598	keystroke_r	r	n/a
22.9485	0.1055	45897	keystroke_t	t	n/a
23.474	0.12	46948	keystroke_g	g	n/a
23.5485	0.0905	47097	keystroke_a	a	n/a
23.6545	0.1345	47309	keystroke_g	g	n/a
23.8485	0.1205	47697	keystroke_e	e	n/a
23.9995	0.149	47999	keystroke_s	s	n/a
24.3585	0.12	48717	keystroke_Key.enter	Key.enter	n/a
24.487	7.0145	48974	prompt	n/a	tamil scope reverse certified\n
25.184	0.09	50368	keystroke_t	t	n/a
25.334	0.06	50668	keystroke_a	a	n/a
25.3955	0.1635	50791	keystroke_m	m	n/a
25.5295	0.1345	51059	keystroke_i	i	n/a
25.739	0.1345	51478	keystroke_l	l	n/a
25.859	0.1355	51718	keystroke_Key.space	Key.space	n/a
26.159	0.1045	52318	keystroke_s	s	n/a
26.399	0.12	52798	keystroke_c	c	n/a
26.5635	0.105	53127	keystroke_o	o	n/a
26.7585	0.091	53517	keystroke_p	p	n/a
26.879	0.1355	53758	keystroke_e	e	n/a
27.449	0.105	54898	keystroke_Key.space	Key.space	n/a
27.884	0.0755	55768	keystroke_r	r	n/a
27.929	0.1055	55858	keystroke_e	e	n/a
28.154	0.1045	56308	keystroke_v	v	n/a
28.304	0.1645	56608	keystroke_e	e	n/a
28.4245	0.105	56849	keystroke_r	r	n/a
28.5305	0.163	57061	keystroke_s	s	n/a
28.9935	0.1205	57987	keystroke_e	e	n/a
29.309	0.105	58618	keystroke_Key.space	Key.space	n/a
29.7295	0.104	59459	keystroke_c	c	n/a
29.8185	0.1965	59637	keystroke_e	e	n/a
29.984	0.1205	59968	keystroke_r	r	n/a
30.254	0.1345	60508	keystroke_t	t	n/a
30.3435	0.1205	60687	keystroke_i	i	n/a
30.629	0.105	61258	keystroke_f	f	n/a
30.704	0.135	61408	keystroke_i	i	n/a
30.944	0.12	61888	keystroke_e	e	n/a
31.139	0.12	62278	keystroke_d	d	n/a
31.364	0.135	62728	keystroke_Key.enter	Key.enter	n/a
31.507	10.7335	63014	prompt	n/a	travesti enquiry archived supposed\n
32.444	0.105	64888	keystroke_t	t	n/a
32.6535	0.0905	65307	keystroke_r	r	n/a
32.8185	0.1055	65637	keystroke_a	a	n/a
33.0885	0.0755	66177	keystroke_v	v	n/a
33.224	0.0905	66448	keystroke_e	e	n/a
33.2835	0.151	66567	keystroke_s	s	n/a
33.809	0.09	67618	keystroke_t	t	n/a
34.094	0.105	68188	keystroke_i	i	n/a
34.274	0.15	68548	keystroke_Key.space	Key.space	n/a
34.6945	0.1345	69389	keystroke_e	e	n/a
34.949	0.1045	69898	keystroke_n	n	n/a
35.2195	0.134	70439	keystroke_q	q	n/a
35.564	0.1505	71128	keystroke_u	u	n/a
35.5945	0.164	71189	keystroke_i	i	n/a
37.499	0.135	74998	keystroke_r	r	n/a
37.574	0.12	75148	keystroke_y	y	n/a
37.739	0.165	75478	keystroke_Key.space	Key.space	n/a
38.339	0.105	76678	keystroke_a	a	n/a
38.489	0.105	76978	keystroke_r	r	n/a
38.729	0.12	77458	keystroke_c	c	n/a
38.879	0.1055	77758	keystroke_h	h	n/a
39.1045	0.135	78209	keystroke_i	i	n/a
39.2545	0.119	78509	keystroke_v	v	n/a
39.389	0.1495	78778	keystroke_e	e	n/a
39.629	0.105	79258	keystroke_d	d	n/a
39.794	0.12	79588	keystroke_Key.space	Key.space	n/a
40.0345	0.105	80069	keystroke_s	s	n/a
40.2895	0.105	80579	keystroke_u	u	n/a
40.5435	0.06	81087	keystroke_p	p	n/a
40.784	0.015	81568	keystroke_p	p	n/a
40.859	0.12	81718	keystroke_o	o	n/a
41.054	0.2105	82108	keystroke_s	s	n/a
41.0845	0.1195	82169	keystroke_e	e	n/a
41.8195	0.1195	83639	keystroke_d	d	n/a
42.1195	0.119	84239	keystroke_Key.enter	Key.enter	n/a
42.244	13.768	84488	prompt	n/a	identifies corruption pleased spears\n
43.1395	0.119	86279	keystroke_i	i	n/a
43.289	0.075	86578	keystroke_d	d	n/a
43.439	0.12	86878	keystroke_e	e	n/a
43.619	0.12	87238	keystroke_n	n	n/a
43.829	0.0905	87658	keystroke_t	t	n/a
44.024	0.12	88048	keystroke_i	i	n/a
44.549	0.1055	89098	keystroke_f	f	n/a
44.6695	0.105	89339	keystroke_i	i	n/a
44.8495	0.165	89699	keystroke_e	e	n/a
44.9535	0.151	89907	keystroke_s	s	n/a
45.269	0.1055	90538	keystroke_Key.space	Key.space	n/a
45.6295	0.09	91259	keystroke_c	c	n/a
45.7645	0.075	91529	keystroke_o	o	n/a
46.274	0.106	92548	keystroke_r	r	n/a
46.439	0.15	92878	keystroke_r	r	n/a
47.279	0.106	94558	keystroke_u	u	n/a
47.324	0.135	94648	keystroke_p	p	n/a
47.489	0.12	94978	keystroke_t	t	n/a
47.594	0.165	95188	keystroke_o	o	n/a
47.714	0.1205	95428	keystroke_p	p	n/a
47.924	0.1055	95848	keystroke_n	n	n/a
48.164	0.135	96328	keystroke_Key.space	Key.space	n/a
48.539	0.091	97078	keystroke_p	p	n/a
48.7645	0.1645	97529	keystroke_l	l	n/a
48.9145	0.1045	97829	keystroke_a	a	n/a
49.3345	0.074	98669	keystroke_Key.backspace	Key.backspace	n/a
49.469	0.0905	98938	keystroke_Key.backspace	Key.backspace	n/a
49.6045	0.075	99209	keystroke_Key.backspace	Key.backspace	n/a
49.7395	0.075	99479	keystroke_Key.backspace	Key.backspace	n/a
49.9045	0.06	99809	keystroke_Key.backspace	Key.backspace	n/a
50.0545	0.0595	100109	keystroke_Key.backspace	Key.backspace	n/a
50.2035	0.061	100407	keystroke_Key.backspace	Key.backspace	n/a
50.9395	0.075	101879	keystroke_i	i	n/a
50.9995	0.03	101999	keystroke_o	o	n/a
51.0445	0.12	102089	keystroke_n	n	n/a
51.2395	0.135	102479	keystroke_Key.space	Key.space	n/a
51.8695	0.075	103739	keystroke_p	p	n/a
52.0345	0.135	104069	keystroke_l	l	n/a
52.0795	0.12	104159	keystroke_e	e	n/a
52.1845	0.165	104369	keystroke_a	a	n/a
52.2755	0.1795	104551	keystroke_s	s	n/a
52.3945	0.1195	104789	keystroke_e	e	n/a
52.679	0.1055	105358	keystroke_Key.space	Key.space	n/a
53.984	0.105	107968	keystroke_Key.backspace	Key.backspace	n/a
54.044	0.1355	108088	keystroke_d	d	n/a
54.164	0.1205	108328	keystroke_Key.space	Key.space	n/a
54.9	0.15	109800	keystroke_s	s	n/a
55.094	0.136	110188	keystroke_p	p	n/a
55.139	0.12	110278	keystroke_e	e	n/a
55.244	0.121	110488	keystroke_a	a	n/a
55.409	0.105	110818	keystroke_r	r	n/a
55.604	0.0905	111208	keystroke_s	s	n/a
55.9035	0.1065	111807	keystroke_Key.enter	Key.enter	n/a
56.0175	9.174	112035	prompt	n/a	providing sharp usage proceeds\n
56.789	0.091	113578	keystroke_p	p	n/a
56.8955	0.089	113791	keystroke_r	r	n/a
56.999	0.09	113998	keystroke_o	o	n/a
57.239	0.1055	114478	keystroke_d	d	n/a
57.6285	0.106	115257	keystroke_Key.backspace	Key.backspace	n/a
57.794	0.0905	115588	keystroke_v	v	n/a
57.9295	0.12	115859	keystroke_i	i	n/a
58.0645	0.104	116129	keystroke_d	d	n/a
58.1835	0.121	116367	keystroke_i	i	n/a
58.4695	0.105	116939	keystroke_n	n	n/a
58.6345	0.105	117269	keystroke_g	g	n/a
58.829	0.1055	117658	keystroke_Key.space	Key.space	n/a
59.2195	0.1345	118439	keystroke_s	s	n/a
59.429	0.1055	118858	keystroke_h	h	n/a
59.519	0.105	119038	keystroke_a	a	n/a
59.654	0.1205	119308	keystroke_r	r	n/a
59.804	0.12	119608	keystroke_p	p	n/a
60.0295	0.1195	120059	keystroke_Key.space	Key.space	n/a
60.779	0.105	121558	keystroke_u	u	n/a
60.8245	0.09	121649	keystroke_s	s	n/a
60.959	0.0915	121918	keystroke_a	a	n/a
61.1095	0.1195	122219	keystroke_f	f	n/a
61.2445	0.12	122489	keystroke_e	e	n/a
61.6045	0.075	123209	keystroke_Key.backspace	Key.backspace	n/a
61.7395	0.1045	123479	keystroke_Key.backspace	Key.backspace	n/a
61.8295	0.12	123659	keystroke_g	g	n/a
61.889	0.1655	123778	keystroke_e	e	n/a
62.1445	0.1345	124289	keystroke_Key.space	Key.space	n/a
63.0145	0.1055	126029	keystroke_p	p	n/a
63.104	0.121	126208	keystroke_r	r	n/a
63.227	0.118	126454	keystroke_o	o	n/a
63.899	0.09	127798	keystroke_c	c	n/a
64.0045	0.105	128009	keystroke_e	e	n/a
64.2145	0.105	128429	keystroke_e	e	n/a
64.4105	0.119	128821	keystroke_d	d	n/a
64.6795	0.1195	129359	keystroke_s	s	n/a
65.1445	0.0445	130289	keystroke_Key.enter	Key.enter	n/a
65.2	6.5765	130400	prompt	n/a	dialog know harrison edited\n
65.909	0.12	131818	keystroke_d	d	n/a
66.0745	0.0895	132149	keystroke_i	i	n/a
66.105	0.134	132210	keystroke_a	a	n/a
66.2545	0.105	132509	keystroke_l	l	n/a
66.4195	0.1505	132839	keystroke_o	o	n/a
66.5845	0.105	133169	keystroke_g	g	n/a
66.7645	0.12	133529	keystroke_Key.space	Key.space	n/a
67.23	0.0895	134460	keystroke_k	k	n/a
67.394	0.12	134788	keystroke_n	n	n/a
67.469	0.136	134938	keystroke_o	o	n/a
67.4985	0.1355	134997	keystroke_w	w	n/a
67.664	0.135	135328	keystroke_Key.space	Key.space	n/a
68.3385	0.1215	136677	keystroke_h	h	n/a
68.3845	0.12	136769	keystroke_a	a	n/a
68.5345	0.09	137069	keystroke_r	r	n/a
68.7145	0.12	137429	keystroke_r	r	n/a
68.8195	0.12	137639	keystroke_i	i	n/a
69.1495	0.1195	138299	keystroke_o	o	n/a
69.239	0.105	138478	keystroke_s	s	n/a
69.6895	0.0445	139379	keystroke_Key.backspace	Key.backspace	n/a
69.824	0.0755	139648	keystroke_Key.backspace	Key.backspace	n/a
69.915	0.104	139830	keystroke_s	s	n/a
70.0945	0.135	140189	keystroke_o	o	n/a
70.2445	0.105	140489	keystroke_n	n	n/a
70.3945	0.15	140789	keystroke_Key.space	Key.space	n/a
70.6945	0.105	141389	keystroke_e	e	n/a
70.8745	0.105	141749	keystroke_d	d	n/a
70.9945	0.18	141989	keystroke_i	i	n/a
71.1295	0.105	142259	keystroke_t	t	n/a
71.2795	0.105	142559	keystroke_e	e	n/a
71.489	0.1055	142978	keystroke_d	d	n/a
71.6695	0.105	143339	keystroke_Key.enter	Key.enter	n/a
71.781	13.0445	143562	prompt	n/a	uncertainty treasures partner prints\n
72.9295	0.165	145859	keystroke_u	u	n/a
73.0345	0.075	146069	keystroke_n	n	n/a
73.1245	0.075	146249	keystroke_e	e	n/a
73.634	0.0755	147268	keystroke_Key.backspace	Key.backspace	n/a
73.9945	0.1345	147989	keystroke_c	c	n/a
74.0545	0.1195	148109	keystroke_e	e	n/a
74.309	0.075	148618	keystroke_Key.backspace	Key.backspace	n/a
74.474	0.045	148948	keystroke_Key.backspace	Key.backspace	n/a
74.8945	0.105	149789	keystroke_c	c	n/a
74.9695	0.21	149939	keystroke_e	e	n/a
75.1195	0.165	150239	keystroke_r	r	n/a
75.719	0.0755	151438	keystroke_t	t	n/a
75.854	0.105	151708	keystroke_a	a	n/a
76.544	0.135	153088	keystroke_i	i	n/a
76.619	0.12	153238	keystroke_n	n	n/a
76.784	0.135	153568	keystroke_t	t	n/a
77.4745	0.105	154949	keystroke_y	y	n/a
77.684	0.1345	155368	keystroke_Key.space	Key.space	n/a
78.389	0.0755	156778	keystroke_t	t	n/a
78.434	0.1955	156868	keystroke_r	r	n/a
78.5695	0.165	157139	keystroke_e	e	n/a
78.824	0.195	157648	keystroke_a	a	n/a
79.034	0.135	158068	keystroke_s	s	n/a
79.6195	0.075	159239	keystroke_Key.backspace	Key.backspace	n/a
79.739	0.1505	159478	keystroke_a	a	n/a
79.859	0.091	159718	keystroke_s	s	n/a
80.1595	0.075	160319	keystroke_Key.backspace	Key.backspace	n/a
80.2945	0.12	160589	keystroke_Key.backspace	Key.backspace	n/a
80.8195	0.12	161639	keystroke_s	s	n/a
80.9545	0.12	161909	keystroke_u	u	n/a
81.0895	0.09	162179	keystroke_r	r	n/a
81.1495	0.12	162299	keystroke_e	e	n/a
81.27	0.149	162540	keystroke_s	s	n/a
81.5395	0.135	163079	keystroke_Key.space	Key.space	n/a
82.095	0.09	164190	keystroke_p	p	n/a
82.154	0.1205	164308	keystroke_a	a	n/a
82.364	0.1205	164728	keystroke_r	r	n/a
82.5595	0.09	165119	keystroke_t	t	n/a
82.6645	0.105	165329	keystroke_n	n	n/a
82.7395	0.15	165479	keystroke_e	e	n/a
82.8595	0.135	165719	keystroke_r	r	n/a
83.0695	0.135	166139	keystroke_Key.space	Key.space	n/a
83.759	0.09	167518	keystroke_p	p	n/a
83.864	0.121	167728	keystroke_r	r	n/a
84	0.104	168000	keystroke_i	i	n/a
84.164	0.1055	168328	keystroke_n	n	n/a
84.2395	0.105	168479	keystroke_t	t	n/a
84.3595	0.15	168719	keystroke_s	s	n/a
84.7345	0.09	169469	keystroke_Key.enter	Key.enter	n/a
84.83	8.216	169660	prompt	n/a	tend coral tests helmet\n
85.6495	0.075	171299	keystroke_t	t	n/a
85.71	0.1045	171420	keystroke_e	e	n/a
85.9045	0.091	171809	keystroke_n	n	n/a
86.0105	0.134	172021	keystroke_d	d	n/a
86.159	0.1205	172318	keystroke_Key.space	Key.space	n/a
86.4295	0.0755	172859	keystroke_c	c	n/a
86.55	0.075	173100	keystroke_o	o	n/a
86.64	0.1045	173280	keystroke_r	r	n/a
86.759	0.12	173518	keystroke_a	a	n/a
86.939	0.1055	173878	keystroke_l	l	n/a
87.1045	0.105	174209	keystroke_Key.space	Key.space	n/a
87.3445	0.1055	174689	keystroke_t	t	n/a
87.465	0.0745	174930	keystroke_e	e	n/a
87.524	0.151	175048	keystroke_s	s	n/a
87.704	0.12	175408	keystroke_t	t	n/a
88.215	0.089	176430	keystroke_t	t	n/a
88.7695	0.0895	177539	keystroke_Key.backspace	Key.backspace	n/a
89.6395	0.12	179279	keystroke_s	s	n/a
89.8795	0.12	179759	keystroke_Key.space	Key.space	n/a
91.274	0.09	182548	keystroke_h	h	n/a
91.9495	0.1195	183899	keystroke_e	e	n/a
92.0395	0.105	184079	keystroke_l	l	n/a
92.294	0.06	184588	keystroke_m	m	n/a
92.459	0.1355	184918	keystroke_e	e	n/a
92.6245	0.1195	185249	keystroke_t	t	n/a
92.9545	0.09	185909	keystroke_Key.enter	Key.enter	n/a
93.051	7.855	186102	prompt	n/a	o'er you separate executed\n
94.17	0.089	188340	keystroke_o	o	n/a
94.424	0.105	188848	keystroke_;	;	n/a
95.0395	0.105	190079	keystroke_Key.backspace	Key.backspace	n/a
95.2795	0.135	190559	keystroke_'	'	n/a
95.4295	0.1355	190859	keystroke_e	e	n/a
95.52	0.09	191040	keystroke_r	r	n/a
95.88	0.119	191760	keystroke_Key.space	Key.space	n/a
96.6295	0.0895	193259	keystroke_y	y	n/a
96.7045	0.0895	193409	keystroke_o	o	n/a
96.945	0.104	193890	keystroke_u	u	n/a
97.049	0.0905	194098	keystroke_Key.space	Key.space	n/a
97.7095	0.1045	195419	keystroke_s	s	n/a
97.754	0.12	195508	keystroke_e	e	n/a
97.949	0.12	195898	keystroke_p	p	n/a
97.994	0.12	195988	keystroke_a	a	n/a
98.3535	0.106	196707	keystroke_r	r	n/a
98.4745	0.12	196949	keystroke_a	a	n/a
98.669	0.12	197338	keystroke_t	t	n/a
98.819	0.15	197638	keystroke_e	e	n/a
98.984	0.1355	197968	keystroke_Key.space	Key.space	n/a
99.285	0.1345	198570	keystroke_e	e	n/a
99.4945	0.15	198989	keystroke_x	x	n/a
99.6595	0.0895	199319	keystroke_e	e	n/a
100.005	0.1345	200010	keystroke_c	c	n/a
100.1995	0.1195	200399	keystroke_u	u	n/a
100.289	0.12	200578	keystroke_t	t	n/a
100.41	0.1345	200820	keystroke_e	e	n/a
100.5895	0.135	201179	keystroke_d	d	n/a
100.7835	0.121	201567	keystroke_Key.enter	Key.enter	n/a
100.9105	6.5055	201821	prompt	n/a	bears do voices inspection\n
101.7445	0.09	203489	keystroke_b	b	n/a
101.8195	0.09	203639	keystroke_e	e	n/a
101.8495	0.105	203699	keystroke_a	a	n/a
101.9995	0.135	203999	keystroke_r	r	n/a
102.1495	0.135	204299	keystroke_s	s	n/a
102.299	0.135	204598	keystroke_Key.space	Key.space	n/a
102.509	0.1345	205018	keystroke_d	d	n/a
103.214	0.0895	206428	keystroke_o	o	n/a
103.289	0.1205	206578	keystroke_Key.space	Key.space	n/a
103.5145	0.0895	207029	keystroke_v	v	n/a
103.574	0.0895	207148	keystroke_o	o	n/a
103.7685	0.1205	207537	keystroke_i	i	n/a
103.829	0.0455	207658	keystroke_d	d	n/a
104.324	0.0455	208648	keystroke_Key.backspace	Key.backspace	n/a
104.7145	0.0895	209429	keystroke_c	c	n/a
104.7895	0.1645	209579	keystroke_e	e	n/a
104.924	0.1805	209848	keystroke_s	s	n/a
105.1195	0.12	210239	keystroke_Key.space	Key.space	n/a
105.8545	0.0595	211709	keystroke_i	i	n/a
105.8995	0.0445	211799	keystroke_n	n	n/a
105.9285	0.031	211857	keystroke_s	s	n/a
106.0195	0.165	212039	keystroke_p	p	n/a
106.1535	0.136	212307	keystroke_e	e	n/a
106.439	0.0905	212878	keystroke_c	c	n/a
106.6945	0.09	213389	keystroke_t	t	n/a
106.814	0.135	213628	keystroke_i	i	n/a
106.844	0.1355	213688	keystroke_o	o	n/a
107.009	0.12	214018	keystroke_n	n	n/a
107.3235	0.09	214647	keystroke_Key.enter	Key.enter	n/a
107.4205	10.3455	214841	prompt	n/a	logan soul leonard investigations\n
108.2695	0.0895	216539	keystroke_l	l	n/a
108.4195	0.1195	216839	keystroke_o	o	n/a
108.599	0.09	217198	keystroke_g	g	n/a
108.7645	0.09	217529	keystroke_a	a	n/a
108.899	0.09	217798	keystroke_n	n	n/a
109.064	0.12	218128	keystroke_Key.space	Key.space	n/a
109.335	0.119	218670	keystroke_s	s	n/a
109.455	0.089	218910	keystroke_o	o	n/a
110.174	0.105	220348	keystroke_u	u	n/a
110.264	0.105	220528	keystroke_l	l	n/a
110.459	0.12	220918	keystroke_Key.space	Key.space	n/a
110.939	0.1055	221878	keystroke_l	l	n/a
111.014	0.0905	222028	keystroke_e	e	n/a
111.4045	0.0445	222809	keystroke_o	o	n/a
111.629	0.12	223258	keystroke_n	n	n/a
111.7345	0.1195	223469	keystroke_a	a	n/a
111.869	0.1055	223738	keystroke_r	r	n/a
112.0495	0.105	224099	keystroke_d	d	n/a
112.2895	0.12	224579	keystroke_Key.space	Key.space	n/a
112.7095	0.1495	225419	keystroke_i	i	n/a
112.8145	0.1195	225629	keystroke_n	n	n/a
113.6835	0.061	227367	keystroke_v	v	n/a
113.8035	0.1955	227607	keystroke_e	e	n/a
113.939	0.0755	227878	keystroke_r	r	n/a
114.029	0.135	228058	keystroke_s	s	n/a
114.2995	0.1195	228599	keystroke_t	t	n/a
114.8395	0.0755	229679	keystroke_Key.backspace	Key.backspace	n/a
115.005	0.0895	230010	keystroke_Key.backspace	Key.backspace	n/a
115.1545	0.1495	230309	keystroke_Key.backspace	Key.backspace	n/a
115.6195	0.045	231239	keystroke_s	s	n/a
115.7545	0.09	231509	keystroke_t	t	n/a
116.2945	0.105	232589	keystroke_i	i	n/a
116.6685	0.076	233337	keystroke_g	g	n/a
116.8195	0.0745	233639	keystroke_a	a	n/a
116.9995	0.0745	233999	keystroke_t	t	n/a
117.0595	0.15	234119	keystroke_i	i	n/a
117.1495	0.12	234299	keystroke_o	o	n/a
117.2545	0.12	234509	keystroke_n	n	n/a
117.39	0.09	234780	keystroke_s	s	n/a
117.6745	0.09	235349	keystroke_Key.enter	Key.enter	n/a
117.7715	8.425	235543	prompt	n/a	lesson suits jeep thomas\n
118.5145	0.1195	237029	keystroke_l	l	n/a
118.619	0.076	237238	keystroke_e	e	n/a
118.71	0.045	237420	keystroke_s	s	n/a
118.8595	0.0895	237719	keystroke_s	s	n/a
118.994	0.165	237988	keystroke_o	o	n/a
119.1745	0.135	238349	keystroke_n	n	n/a
119.3245	0.1495	238649	keystroke_Key.space	Key.space	n/a
119.5645	0.09	239129	keystroke_s	s	n/a
119.849	0.15	239698	keystroke_u	u	n/a
119.894	0.151	239788	keystroke_i	i	n/a
119.984	0.106	239968	keystroke_t	t	n/a
120.2095	0.1495	240419	keystroke_s	s	n/a
120.4945	0.1205	240989	keystroke_Key.space	Key.space	n/a
121.1995	0.135	242399	keystroke_k	k	n/a
121.3045	0.075	242609	keystroke_e	e	n/a
121.4545	0.12	242909	keystroke_e	e	n/a
121.5895	0.1345	243179	keystroke_p	p	n/a
121.7845	0.1195	243569	keystroke_Key.space	Key.space	n/a
122.1595	0.0895	244319	keystroke_Key.backspace	Key.backspace	n/a
122.339	0.045	244678	keystroke_Key.backspace	Key.backspace	n/a
122.4445	0.0605	244889	keystroke_Key.backspace	Key.backspace	n/a
122.58	0.0445	245160	keystroke_Key.backspace	Key.backspace	n/a
122.684	0.105	245368	keystroke_Key.backspace	Key.backspace	n/a
123.571	0.118	247142	keystroke_j	j	n/a
123.704	0.045	247408	keystroke_e	e	n/a
123.8685	0.106	247737	keystroke_e	e	n/a
123.989	0.135	247978	keystroke_p	p	n/a
124.3795	0.1195	248759	keystroke_Key.space	Key.space	n/a
124.6795	0.119	249359	keystroke_t	t	n/a
125.054	0.15	250108	keystroke_h	h	n/a
125.174	0.1505	250348	keystroke_o	o	n/a
125.4295	0.105	250859	keystroke_m	m	n/a
125.5355	0.1635	251071	keystroke_a	a	n/a
125.639	0.1655	251278	keystroke_s	s	n/a
126.059	0.135	252118	keystroke_Key.enter	Key.enter	n/a
126.2005	12.2205	252401	prompt	n/a	independently short secret debut\n
127.1245	0.18	254249	keystroke_i	i	n/a
127.2145	0.1195	254429	keystroke_n	n	n/a
127.4845	0.0895	254969	keystroke_d	d	n/a
127.649	0.1205	255298	keystroke_e	e	n/a
127.7995	0.0895	255599	keystroke_m	m	n/a
128.1145	0.0745	256229	keystroke_Key.backspace	Key.backspace	n/a
128.6395	0.105	257279	keystroke_p	p	n/a
128.7295	0.105	257459	keystroke_e	e	n/a
128.9245	0.135	257849	keystroke_n	n	n/a
129.869	0.075	259738	keystroke_d	d	n/a
130.0195	0.1195	260039	keystroke_e	e	n/a
130.6935	0.106	261387	keystroke_n	n	n/a
130.784	0.1055	261568	keystroke_t	t	n/a
131.174	0.0455	262348	keystroke_l	l	n/a
131.535	0.1195	263070	keystroke_y	y	n/a
132.089	0.1655	264178	keystroke_Key.space	Key.space	n/a
132.4795	0.1345	264959	keystroke_s	s	n/a
132.7635	0.1055	265527	keystroke_h	h	n/a
132.8385	0.1205	265677	keystroke_o	o	n/a
132.9895	0.1195	265979	keystroke_r	r	n/a
133.3795	0.1045	266759	keystroke_t	t	n/a
133.889	0.1055	267778	keystroke_Key.space	Key.space	n/a
134.219	0.1345	268438	keystroke_s	s	n/a
134.3245	0.1205	268649	keystroke_e	e	n/a
134.5195	0.0745	269039	keystroke_v	v	n/a
134.639	0.21	269278	keystroke_e	e	n/a
135.2245	0.06	270449	keystroke_Key.backspace	Key.backspace	n/a
135.359	0.09	270718	keystroke_Key.backspace	Key.backspace	n/a
135.5095	0.135	271019	keystroke_c	c	n/a
136.334	0.1205	272668	keystroke_r	r	n/a
136.409	0.1355	272818	keystroke_e	e	n/a
136.559	0.1355	273118	keystroke_t	t	n/a
136.7395	0.12	273479	keystroke_Key.space	Key.space	n/a
137.0535	0.121	274107	keystroke_d	d	n/a
137.564	0.1055	275128	keystroke_e	e	n/a
137.8645	0.1045	275729	keystroke_b	b	n/a
137.939	0.0905	275878	keystroke_u	u	n/a
138.0595	0.1045	276119	keystroke_t	t	n/a
138.2845	0.135	276569	keystroke_Key.enter	Key.enter	n/a
138.4255	10.752	276851	prompt	n/a	characteristics details dude reveal\n
139.2295	0.075	278459	keystroke_c	c	n/a
139.5445	0.105	279089	keystroke_h	h	n/a
139.6495	0.12	279299	keystroke_a	a	n/a
139.7995	0.1195	279599	keystroke_r	r	n/a
139.9485	0.1655	279897	keystroke_a	a	n/a
140.3545	0.1045	280709	keystroke_c	c	n/a
141.0745	0.105	282149	keystroke_t	t	n/a
141.209	0.15	282418	keystroke_e	e	n/a
141.57	0.1195	283140	keystroke_r	r	n/a
141.7185	0.136	283437	keystroke_i	i	n/a
141.899	0.1205	283798	keystroke_s	s	n/a
142.5285	0.09	285057	keystroke_t	t	n/a
142.634	0.1195	285268	keystroke_i	i	n/a
142.874	0.1055	285748	keystroke_c	c	n/a
142.9655	0.1185	285931	keystroke_s	s	n/a
143.219	0.1055	286438	keystroke_Key.space	Key.space	n/a
143.429	0.076	286858	keystroke_d	d	n/a
143.6095	0.1345	287219	keystroke_e	e	n/a
143.9095	0.0595	287819	keystroke_t	t	n/a
144.014	0.12	288028	keystroke_a	a	n/a
144.1195	0.09	288239	keystroke_i	i	n/a
144.3295	0.1195	288659	keystroke_l	l	n/a
144.434	0.1355	288868	keystroke_s	s	n/a
144.5545	0.135	289109	keystroke_Key.space	Key.space	n/a
144.7945	0.105	289589	keystroke_d	d	n/a
145.2895	0.12	290579	keystroke_i	i	n/a
145.364	0.075	290728	keystroke_d	d	n/a
145.8595	0.09	291719	keystroke_d	d	n/a
146.1295	0.044	292259	keystroke_Key.backspace	Key.backspace	n/a
146.2345	0.074	292469	keystroke_Key.backspace	Key.backspace	n/a
146.369	0.0905	292738	keystroke_Key.backspace	Key.backspace	n/a
146.8795	0.12	293759	keystroke_u	u	n/a
146.9245	0.076	293849	keystroke_d	d	n/a
147.089	0.151	294178	keystroke_e	e	n/a
147.2985	0.1355	294597	keystroke_Key.space	Key.space	n/a
147.8995	0.1195	295799	keystroke_r	r	n/a
147.9595	0.15	295919	keystroke_e	e	n/a
148.2445	0.075	296489	keystroke_v	v	n/a
148.3645	0.12	296729	keystroke_e	e	n/a
148.5295	0.135	297059	keystroke_a	a	n/a
148.7235	0.1505	297447	keystroke_l	l	n/a
149.054	0.12	298108	keystroke_Key.enter	Key.enter	n/a
149.1815	8.1395	298363	prompt	n/a	phases competition north restored\n
149.9395	0.1045	299879	keystroke_p	p	n/a
150.3145	0.1045	300629	keystroke_h	h	n/a
150.3595	0.225	300719	keystroke_a	a	n/a
150.509	0.271	301018	keystroke_s	s	n/a
150.7495	0.15	301499	keystroke_e	e	n/a
150.944	0.1205	301888	keystroke_s	s	n/a
151.2445	0.165	302489	keystroke_Key.space	Key.space	n/a
151.724	0.1215	303448	keystroke_c	c	n/a
151.8595	0.1505	303719	keystroke_o	o	n/a
152.025	0.134	304050	keystroke_m	m	n/a
152.234	0.1355	304468	keystroke_p	p	n/a
152.429	0.151	304858	keystroke_l	l	n/a
152.5645	0.119	305129	keystroke_e	e	n/a
152.8645	0.12	305729	keystroke_t	t	n/a
153.1045	0.1055	306209	keystroke_i	i	n/a
153.1495	0.1495	306299	keystroke_o	o	n/a
153.24	0.149	306480	keystroke_n	n	n/a
153.6445	0.1345	307289	keystroke_Key.space	Key.space	n/a
154.3795	0.135	308759	keystroke_n	n	n/a
154.469	0.196	308938	keystroke_o	o	n/a
154.89	0.0895	309780	keystroke_r	r	n/a
155.0395	0.1495	310079	keystroke_t	t	n/a
155.1295	0.151	310259	keystroke_h	h	n/a
155.3095	0.15	310619	keystroke_Key.space	Key.space	n/a
155.6995	0.105	311399	keystroke_r	r	n/a
155.789	0.0755	311578	keystroke_e	e	n/a
155.8795	0.135	311759	keystroke_s	s	n/a
156.1795	0.12	312359	keystroke_t	t	n/a
156.3135	0.106	312627	keystroke_o	o	n/a
156.6895	0.105	313379	keystroke_r	r	n/a
156.7495	0.135	313499	keystroke_e	e	n/a
156.9735	0.121	313947	keystroke_d	d	n/a
157.184	0.135	314368	keystroke_Key.enter	Key.enter	n/a
157.3295	7.183	314659	prompt	n/a	frames accessory mazda bare\n
158.1445	0.06	316289	keystroke_f	f	n/a
158.2795	0.105	316559	keystroke_r	r	n/a
158.4145	0.0905	316829	keystroke_a	a	n/a
158.5195	0.0745	317039	keystroke_m	m	n/a
158.625	0.135	317250	keystroke_e	e	n/a
158.774	0.195	317548	keystroke_s	s	n/a
158.9995	0.1495	317999	keystroke_Key.space	Key.space	n/a
159.4335	0.1215	318867	keystroke_a	a	n/a
159.6295	0.105	319259	keystroke_c	c	n/a
159.839	0.12	319678	keystroke_c	c	n/a
159.944	0.15	319888	keystroke_e	e	n/a
160.754	0.06	321508	keystroke_s	s	n/a
160.9195	0.105	321839	keystroke_s	s	n/a
161.0245	0.1045	322049	keystroke_o	o	n/a
161.384	0.12	322768	keystroke_r	r	n/a
161.46	0.134	322920	keystroke_y	y	n/a
161.9545	0.1045	323909	keystroke_Key.space	Key.space	n/a
162.194	0.12	324388	keystroke_m	m	n/a
162.584	0.105	325168	keystroke_a	a	n/a
162.794	0.09	325588	keystroke_z	z	n/a
163.1095	0.1195	326219	keystroke_d	d	n/a
163.244	0.165	326488	keystroke_a	a	n/a
163.439	0.1505	326878	keystroke_Key.space	Key.space	n/a
163.9485	0.0905	327897	keystroke_b	b	n/a
164.0095	0.1345	328019	keystroke_a	a	n/a
164.1895	0.1045	328379	keystroke_r	r	n/a
164.2645	0.134	328529	keystroke_e	e	n/a
164.384	0.1205	328768	keystroke_Key.enter	Key.enter	n/a
164.5215	11.13	329043	prompt	n/a	azerbaijan jonathan epinions casa\n
165.464	0.0755	330928	keystroke_a	a	n/a
166.6045	0.1185	333209	keystroke_z	z	n/a
166.739	0.15	333478	keystroke_e	e	n/a
166.829	0.135	333658	keystroke_r	r	n/a
167.444	0.1355	334888	keystroke_b	b	n/a
167.5495	0.12	335099	keystroke_a	a	n/a
167.8195	0.1345	335639	keystroke_i	i	n/a
168.389	0.1355	336778	keystroke_j	j	n/a
168.4645	0.12	336929	keystroke_a	a	n/a
168.6145	0.135	337229	keystroke_n	n	n/a
168.809	0.1355	337618	keystroke_Key.space	Key.space	n/a
169.6035	0.121	339207	keystroke_j	j	n/a
169.6645	0.15	339329	keystroke_o	o	n/a
169.875	0.104	339750	keystroke_n	n	n/a
169.934	0.105	339868	keystroke_a	a	n/a
170.414	0.0905	340828	keystroke_t	t	n/a
170.505	0.119	341010	keystroke_h	h	n/a
170.61	0.089	341220	keystroke_a	a	n/a
170.744	0.1355	341488	keystroke_n	n	n/a
170.984	0.121	341968	keystroke_Key.space	Key.space	n/a
171.4645	0.075	342929	keystroke_e	e	n/a
171.584	0.12	343168	keystroke_p	p	n/a
171.884	0.075	343768	keystroke_Key.backspace	Key.backspace	n/a
172.0185	0.1055	344037	keystroke_Key.backspace	Key.backspace	n/a
172.664	0.12	345328	keystroke_e	e	n/a
172.739	0.12	345478	keystroke_p	p	n/a
173.039	0.15	346078	keystroke_i	i	n/a
173.279	0.1645	346558	keystroke_n	n	n/a
173.4145	0.1495	346829	keystroke_i	i	n/a
173.4155	0.1935	346831	keystroke_o	o	n/a
173.669	0.105	347338	keystroke_n	n	n/a
173.8645	0.15	347729	keystroke_s	s	n/a
174.1035	0.12	348207	keystroke_Key.space	Key.space	n/a
174.4195	0.09	348839	keystroke_c	c	n/a
174.524	0.135	349048	keystroke_a	a	n/a
174.644	0.18	349288	keystroke_s	s	n/a
174.794	0.12	349588	keystroke_a	a	n/a
175.574	0.075	351148	keystroke_Key.enter	Key.enter	n/a
175.6545	10.6465	351309	prompt	n/a	asked array moms tuning\n
176.309	0.18	352618	keystroke_a	a	n/a
176.414	0.165	352828	keystroke_s	s	n/a
176.64	0.164	353280	keystroke_k	k	n/a
176.789	0.0755	353578	keystroke_e	e	n/a
176.969	0.09	353938	keystroke_d	d	n/a
177.075	0.104	354150	keystroke_Key.space	Key.space	n/a
177.209	0.1505	354418	keystroke_a	a	n/a
177.4635	0.076	354927	keystroke_r	r	n/a
177.644	0.075	355288	keystroke_r	r	n/a
177.7345	0.1195	355469	keystroke_a	a	n/a
177.989	0.105	355978	keystroke_y	y	n/a
178.229	0.0905	356458	keystroke_Key.space	Key.space	n/a
178.5755	0.149	357151	keystroke_m	m	n/a
178.6645	0.165	357329	keystroke_o	o	n/a
178.8145	0.12	357629	keystroke_m	m	n/a
178.8585	0.1505	357717	keystroke_o	o	n/a
178.9635	0.151	357927	keystroke_s	s	n/a
179.159	0.1355	358318	keystroke_Key.space	Key.space	n/a
179.6235	0.121	359247	keystroke_t	t	n/a
179.774	0.18	359548	keystroke_u	u	n/a
180.2245	0.0595	360449	keystroke_Key.backspace	Key.backspace	n/a
180.3585	0.076	360717	keystroke_Key.backspace	Key.backspace	n/a
180.479	0.0755	360958	keystroke_Key.backspace	Key.backspace	n/a
180.6135	0.105	361227	keystroke_Key.backspace	Key.backspace	n/a
180.8095	0.135	361619	keystroke_s	s	n/a
181.139	0.06	362278	keystroke_Key.backspace	Key.backspace	n/a
181.274	0.106	362548	keystroke_Key.backspace	Key.backspace	n/a
181.35	0.1495	362700	keystroke_s	s	n/a
181.469	0.12	362938	keystroke_Key.space	Key.space	n/a
182.2945	0.1195	364589	keystroke_t	t	n/a
182.384	0.1055	364768	keystroke_i	i	n/a
182.5945	0.1645	365189	keystroke_n	n	n/a
182.7295	0.1195	365459	keystroke_i	i	n/a
182.8935	0.1355	365787	keystroke_n	n	n/a
183.254	0.0605	366508	keystroke_Key.backspace	Key.backspace	n/a
183.3895	0.075	366779	keystroke_Key.backspace	Key.backspace	n/a
183.509	0.21	367018	keystroke_Key.backspace	Key.backspace	n/a
183.959	0.105	367918	keystroke_Key.backspace	Key.backspace	n/a
184.6045	0.1195	369209	keystroke_u	u	n/a
184.7535	0.151	369507	keystroke_n	n	n/a
184.874	0.1645	369748	keystroke_i	i	n/a
184.994	0.1355	369988	keystroke_n	n	n/a
185.1145	0.09	370229	keystroke_g	g	n/a
185.2795	0.12	370559	keystroke_s	s	n/a
185.699	0.09	371398	keystroke_Key.backspace	Key.backspace	n/a
186.179	0.12	372358	keystroke_Key.enter	Key.enter	n/a
186.305	17.366	372610	prompt	n/a	newspaper aluminum jennifer bite\n
187.0935	0.1055	374187	keystroke_n	n	n/a
187.154	0.12	374308	keystroke_e	e	n/a
187.289	0.105	374578	keystroke_w	w	n/a
187.4835	0.121	374967	keystroke_s	s	n/a
187.6345	0.135	375269	keystroke_p	p	n/a
187.7695	0.15	375539	keystroke_a	a	n/a
187.9335	0.136	375867	keystroke_p	p	n/a
188.1145	0.18	376229	keystroke_e	e	n/a
188.2345	0.15	376469	keystroke_r	r	n/a
188.5795	0.12	377159	keystroke_Key.space	Key.space	n/a
188.879	0.1205	377758	keystroke_a	a	n/a
188.9995	0.149	377999	keystroke_l	l	n/a
189.314	0.15	378628	keystroke_u	u	n/a
189.494	0.1345	378988	keystroke_n	n	n/a
189.614	0.1355	379228	keystroke_i	i	n/a
190.8745	0.0895	381749	keystroke_n	n	n/a
190.9035	0.151	381807	keystroke_u	u	n/a
191.069	0.15	382138	keystroke_m	m	n/a
191.7145	0.1045	383429	keystroke_Key.space	Key.space	n/a
193.109	0.045	386218	keystroke_Key.backspace	Key.backspace	n/a
193.334	0.03	386668	keystroke_Key.backspace	Key.backspace	n/a
193.439	0.075	386878	keystroke_Key.backspace	Key.backspace	n/a
193.574	0.075	387148	keystroke_Key.backspace	Key.backspace	n/a
193.724	0.0605	387448	keystroke_Key.backspace	Key.backspace	n/a
194.819	0.1205	389638	keystroke_Key.backspace	Key.backspace	n/a
195.5245	0.12	391049	keystroke_m	m	n/a
195.6145	0.18	391229	keystroke_i	i	n/a
195.8095	0.1945	391619	keystroke_n	n	n/a
195.944	0.1505	391888	keystroke_u	u	n/a
196.124	0.15	392248	keystroke_m	m	n/a
196.5295	0.1345	393059	keystroke_Key.space	Key.space	n/a
197.2195	0.105	394439	keystroke_j	j	n/a
197.3395	0.134	394679	keystroke_e	e	n/a
197.534	0.09	395068	keystroke_n	n	n/a
197.684	0.18	395368	keystroke_n	n	n/a
197.849	0.1355	395698	keystroke_i	i	n/a
198.029	0.09	396058	keystroke_g	g	n/a
198.104	0.03	396208	keystroke_f	f	n/a
198.1495	0.2095	396299	keystroke_e	e	n/a
198.284	0.105	396568	keystroke_r	r	n/a
198.6885	0.0605	397377	keystroke_Key.backspace	Key.backspace	n/a
198.8395	0.0595	397679	keystroke_Key.backspace	Key.backspace	n/a
198.959	0.105	397918	keystroke_Key.backspace	Key.backspace	n/a
199.229	0.135	398458	keystroke_g	g	n/a
199.544	0.09	399088	keystroke_Key.backspace	Key.backspace	n/a
199.694	0.1055	399388	keystroke_Key.backspace	Key.backspace	n/a
199.9945	0.15	399989	keystroke_d	d	n/a
200.2945	0.135	400589	keystroke_e	e	n/a
200.3545	0.1195	400709	keystroke_r	r	n/a
200.579	0.0905	401158	keystroke_Key.backspace	Key.backspace	n/a
200.7295	0.089	401459	keystroke_Key.backspace	Key.backspace	n/a
200.8635	0.106	401727	keystroke_Key.backspace	Key.backspace	n/a
201.4795	0.0295	402959	keystroke_g	g	n/a
201.689	0.12	403378	keystroke_Key.backspace	Key.backspace	n/a
201.7935	0.1055	403587	keystroke_f	f	n/a
201.914	0.2105	403828	keystroke_e	e	n/a
202.034	0.135	404068	keystroke_r	r	n/a
202.319	0.1195	404638	keystroke_Key.space	Key.space	n/a
203.129	0.135	406258	keystroke_b	b	n/a
203.204	0.151	406408	keystroke_i	i	n/a
203.279	0.1055	406558	keystroke_t	t	n/a
203.369	0.12	406738	keystroke_e	e	n/a
203.5485	0.121	407097	keystroke_Key.enter	Key.enter	n/a
203.676	8.605	407352	prompt	n/a	out britney beef archive\n
204.5835	0.1205	409167	keystroke_o	o	n/a
204.824	0.135	409648	keystroke_u	u	n/a
204.884	0.1055	409768	keystroke_t	t	n/a
204.974	0.135	409948	keystroke_Key.space	Key.space	n/a
205.6345	0.24	411269	keystroke_b	b	n/a
205.889	0.015	411778	keystroke_r	r	n/a
206.0395	0.1345	412079	keystroke_i	i	n/a
206.2945	0.12	412589	keystroke_t	t	n/a
206.4445	0.12	412889	keystroke_n	n	n/a
206.5795	0.1345	413159	keystroke_e	e	n/a
206.774	0.105	413548	keystroke_y	y	n/a
206.984	0.105	413968	keystroke_Key.space	Key.space	n/a
207.494	0.0905	414988	keystroke_f	f	n/a
207.914	0.12	415828	keystroke_b	b	n/a
208.064	0.1205	416128	keystroke_e	e	n/a
208.304	0.104	416608	keystroke_Key.backspace	Key.backspace	n/a
208.484	0.24	416968	keystroke_Key.backspace	Key.backspace	n/a
209.009	0.12	418018	keystroke_Key.backspace	Key.backspace	n/a
209.159	0.121	418318	keystroke_b	b	n/a
209.2945	0.136	418589	keystroke_e	e	n/a
209.549	0.21	419098	keystroke_e	e	n/a
209.8045	0.18	419609	keystroke_f	f	n/a
210.4645	0.1495	420929	keystroke_Key.space	Key.space	n/a
210.9445	0.134	421889	keystroke_a	a	n/a
211.124	0.1055	422248	keystroke_r	r	n/a
211.364	0.135	422728	keystroke_c	c	n/a
211.559	0.12	423118	keystroke_h	h	n/a
211.8	0.119	423600	keystroke_i	i	n/a
211.889	0.0605	423778	keystroke_v	v	n/a
211.9635	0.121	423927	keystroke_e	e	n/a
212.1585	0.121	424317	keystroke_Key.enter	Key.enter	n/a
212.285	9.851	424570	prompt	n/a	reducing marilyn opposite dean\n
213.165	0.089	426330	keystroke_r	r	n/a
213.2095	0.1195	426419	keystroke_e	e	n/a
213.449	0.1195	426898	keystroke_d	d	n/a
213.705	0.104	427410	keystroke_u	u	n/a
213.825	0.1045	427650	keystroke_c	c	n/a
213.944	0.1055	427888	keystroke_i	i	n/a
214.095	0.12	428190	keystroke_n	n	n/a
214.185	0.134	428370	keystroke_g	g	n/a
214.364	0.12	428728	keystroke_Key.space	Key.space	n/a
214.9645	0.135	429929	keystroke_m	m	n/a
215.069	0.12	430138	keystroke_a	a	n/a
215.2935	0.1065	430587	keystroke_r	r	n/a
217.2755	0.09	434551	keystroke_i	i	n/a
217.424	0.1355	434848	keystroke_l	l	n/a
217.829	0.135	435658	keystroke_y	y	n/a
217.979	0.135	435958	keystroke_n	n	n/a
218.249	0.12	436498	keystroke_Key.space	Key.space	n/a
218.6845	0.1195	437369	keystroke_o	o	n/a
218.8645	0.09	437729	keystroke_p	p	n/a
219.014	0.105	438028	keystroke_p	p	n/a
219.179	0.1645	438358	keystroke_o	o	n/a
219.389	0.15	438778	keystroke_s	s	n/a
219.599	0.18	439198	keystroke_i	i	n/a
219.7645	0.119	439529	keystroke_t	t	n/a
219.929	0.165	439858	keystroke_e	e	n/a
220.154	0.0445	440308	keystroke_Key.space	Key.space	n/a
220.664	0.045	441328	keystroke_d	d	n/a
220.7235	0.135	441447	keystroke_a	a	n/a
221.4285	0.0905	442857	keystroke_Key.backspace	Key.backspace	n/a
221.5345	0.09	443069	keystroke_e	e	n/a
221.6095	0.12	443219	keystroke_a	a	n/a
221.7145	0.135	443429	keystroke_n	n	n/a
222.0145	0.12	444029	keystroke_Key.enter	Key.enter	n/a
222.14	10.646	444280	prompt	n/a	curious meets occupation patricia\n
222.944	0.0755	445888	keystroke_c	c	n/a
223.1245	0.1345	446249	keystroke_u	u	n/a
223.424	0.135	446848	keystroke_r	r	n/a
223.514	0.195	447028	keystroke_i	i	n/a
223.604	0.1955	447208	keystroke_o	o	n/a
223.724	0.0905	447448	keystroke_s	s	n/a
223.979	0.105	447958	keystroke_u	u	n/a
224.4145	0.074	448829	keystroke_Key.backspace	Key.backspace	n/a
224.549	0.135	449098	keystroke_Key.backspace	Key.backspace	n/a
225.074	0.135	450148	keystroke_u	u	n/a
225.148	0.1665	450296	keystroke_s	s	n/a
225.299	0.15	450598	keystroke_Key.space	Key.space	n/a
225.839	0.1355	451678	keystroke_m	m	n/a
225.9295	0.104	451859	keystroke_e	e	n/a
226.3335	0.106	452667	keystroke_e	e	n/a
226.5445	0.105	453089	keystroke_t	t	n/a
226.694	0.1805	453388	keystroke_s	s	n/a
226.8895	0.104	453779	keystroke_Key.space	Key.space	n/a
227.309	0.075	454618	keystroke_i	i	n/a
227.669	0.0755	455338	keystroke_Key.backspace	Key.backspace	n/a
227.8645	0.135	455729	keystroke_o	o	n/a
227.9545	0.105	455909	keystroke_c	c	n/a
228.1195	0.1345	456239	keystroke_c	c	n/a
228.8545	0.134	457709	keystroke_u	u	n/a
229.0795	0.1345	458159	keystroke_p	p	n/a
229.6045	0.1345	459209	keystroke_a	a	n/a
229.9495	0.135	459899	keystroke_t	t	n/a
230.069	0.1345	460138	keystroke_i	i	n/a
230.114	0.165	460228	keystroke_o	o	n/a
230.2635	0.1365	460527	keystroke_n	n	n/a
230.459	0.1655	460918	keystroke_Key.space	Key.space	n/a
231.1335	0.1205	462267	keystroke_p	p	n/a
231.224	0.1205	462448	keystroke_a	a	n/a
231.4645	0.09	462929	keystroke_t	t	n/a
231.6595	0.105	463319	keystroke_r	r	n/a
231.7795	0.135	463559	keystroke_i	i	n/a
231.8995	0.1355	463799	keystroke_c	c	n/a
232.079	0.1205	464158	keystroke_i	i	n/a
232.2595	0.1045	464519	keystroke_a	a	n/a
232.649	0.135	465298	keystroke_Key.enter	Key.enter	n/a
232.79	8.2335	465580	prompt	n/a	subtle corrected doctors croatia\n
233.6845	0.105	467369	keystroke_s	s	n/a
233.9095	0.119	467819	keystroke_u	u	n/a
234.044	0.09	468088	keystroke_b	b	n/a
234.2845	0.1045	468569	keystroke_t	t	n/a
234.4495	0.1195	468899	keystroke_l	l	n/a
234.524	0.15	469048	keystroke_e	e	n/a
234.689	0.12	469378	keystroke_Key.space	Key.space	n/a
235.3195	0.045	470639	keystroke_c	c	n/a
235.3795	0.09	470759	keystroke_o	o	n/a
235.574	0.0605	471148	keystroke_r	r	n/a
235.7395	0.09	471479	keystroke_r	r	n/a
235.814	0.1355	471628	keystroke_e	e	n/a
235.979	0.105	471958	keystroke_c	c	n/a
236.189	0.0905	472378	keystroke_t	t	n/a
236.3535	0.06	472707	keystroke_e	e	n/a
236.4285	0.1205	472857	keystroke_d	d	n/a
236.5785	0.135	473157	keystroke_Key.space	Key.space	n/a
236.804	0.1055	473608	keystroke_d	d	n/a
236.924	0.1355	473848	keystroke_o	o	n/a
237.1185	0.1055	474237	keystroke_c	c	n/a
237.4795	0.1045	474959	keystroke_t	t	n/a
237.5985	0.1355	475197	keystroke_o	o	n/a
237.689	0.1355	475378	keystroke_r	r	n/a
238.2435	0.121	476487	keystroke_s	s	n/a
238.454	0.105	476908	keystroke_Key.space	Key.space	n/a
238.934	0.105	477868	keystroke_c	c	n/a
239.594	0.1195	479188	keystroke_r	r	n/a
239.639	0.105	479278	keystroke_o	o	n/a
239.7745	0.135	479549	keystroke_a	a	n/a
239.984	0.12	479968	keystroke_t	t	n/a
240.509	0.12	481018	keystroke_i	i	n/a
240.569	0.121	481138	keystroke_a	a	n/a
240.884	0.135	481768	keystroke_Key.enter	Key.enter	n/a
241.032	11.5235	482064	prompt	n/a	forests greene commitments classified\n
241.8295	0.075	483659	keystroke_f	f	n/a
241.8895	0.1355	483779	keystroke_o	o	n/a
242.009	0.165	484018	keystroke_r	r	n/a
242.159	0.165	484318	keystroke_s	s	n/a
242.4745	0.18	484949	keystroke_e	e	n/a
242.594	0.121	485188	keystroke_s	s	n/a
243.179	0.06	486358	keystroke_Key.backspace	Key.backspace	n/a
243.2995	0.045	486599	keystroke_Key.backspace	Key.backspace	n/a
243.4195	0.06	486839	keystroke_Key.backspace	Key.backspace	n/a
243.5085	0.225	487017	keystroke_e	e	n/a
243.5535	0.1505	487107	keystroke_s	s	n/a
243.719	0.12	487438	keystroke_t	t	n/a
243.9435	0.121	487887	keystroke_s	s	n/a
244.3785	0.135	488757	keystroke_Key.space	Key.space	n/a
245.1135	0.1055	490227	keystroke_g	g	n/a
245.234	0.075	490468	keystroke_r	r	n/a
245.25	0.104	490500	keystroke_e	e	n/a
245.444	0.1345	490888	keystroke_e	e	n/a
245.624	0.1355	491248	keystroke_n	n	n/a
245.7445	0.15	491489	keystroke_e	e	n/a
245.939	0.1355	491878	keystroke_Key.space	Key.space	n/a
246.629	0.135	493258	keystroke_c	c	n/a
247.064	0.1055	494128	keystroke_o	o	n/a
247.2895	0.0295	494579	keystroke_m	m	n/a
247.409	0.09	494818	keystroke_m	m	n/a
247.5885	0.1505	495177	keystroke_i	i	n/a
247.919	0.1205	495838	keystroke_t	t	n/a
248.1435	0.09	496287	keystroke_m	m	n/a
249.104	0.1505	498208	keystroke_e	e	n/a
249.2395	0.119	498479	keystroke_n	n	n/a
249.3595	0.1345	498719	keystroke_t	t	n/a
249.5095	0.1645	499019	keystroke_s	s	n/a
249.779	0.12	499558	keystroke_Key.space	Key.space	n/a
250.259	0.12	500518	keystroke_c	c	n/a
250.5745	0.1495	501149	keystroke_l	l	n/a
250.679	0.135	501358	keystroke_a	a	n/a
251.0685	0.0905	502137	keystroke_s	s	n/a
251.2345	0.1195	502469	keystroke_s	s	n/a
251.399	0.12	502798	keystroke_i	i	n/a
251.714	0.09	503428	keystroke_f	f	n/a
251.774	0.165	503548	keystroke_i	i	n/a
252.059	0.12	504118	keystroke_e	e	n/a
252.254	0.1055	504508	keystroke_d	d	n/a
252.4185	0.1355	504837	keystroke_Key.enter	Key.enter	n/a
252.5605	10.316	505121	prompt	n/a	gloves corresponding cable batteries\n
253.529	0.1205	507058	keystroke_g	g	n/a
253.679	0.12	507358	keystroke_l	l	n/a
253.859	0.21	507718	keystroke_o	o	n/a
254.054	0.1055	508108	keystroke_v	v	n/a
254.174	0.15	508348	keystroke_e	e	n/a
254.414	0.165	508828	keystroke_s	s	n/a
254.564	0.1505	509128	keystroke_Key.space	Key.space	n/a
254.849	0.1045	509698	keystroke_c	c	n/a
254.9385	0.1205	509877	keystroke_o	o	n/a
255.088	0.091	510176	keystroke_r	r	n/a
255.2685	0.105	510537	keystroke_r	r	n/a
255.3885	0.1355	510777	keystroke_e	e	n/a
255.569	0.1195	511138	keystroke_s	s	n/a
256.364	0.15	512728	keystroke_p	p	n/a
256.439	0.1795	512878	keystroke_o	o	n/a
256.754	0.21	513508	keystroke_i	i	n/a
257.534	0.135	515068	keystroke_Key.backspace	Key.backspace	n/a
257.9845	0.1195	515969	keystroke_n	n	n/a
258.089	0.135	516178	keystroke_d	d	n/a
258.194	0.165	516388	keystroke_i	i	n/a
258.344	0.15	516688	keystroke_n	n	n/a
258.434	0.105	516868	keystroke_g	g	n/a
258.749	0.12	517498	keystroke_Key.space	Key.space	n/a
259.229	0.0905	518458	keystroke_c	c	n/a
259.3345	0.1045	518669	keystroke_a	a	n/a
259.6045	0.0895	519209	keystroke_b	b	n/a
259.7245	0.1495	519449	keystroke_l	l	n/a
259.889	0.12	519778	keystroke_e	e	n/a
260.024	0.1495	520048	keystroke_Key.space	Key.space	n/a
260.5945	0.105	521189	keystroke_b	b	n/a
260.6545	0.1195	521309	keystroke_a	a	n/a
260.879	0.0755	521758	keystroke_t	t	n/a
261.044	0.06	522088	keystroke_t	t	n/a
261.149	0.1495	522298	keystroke_e	e	n/a
261.224	0.1345	522448	keystroke_r	r	n/a
261.344	0.1505	522688	keystroke_i	i	n/a
261.7485	0.12	523497	keystroke_s	s	n/a
262.3635	0.135	524727	keystroke_Key.backspace	Key.backspace	n/a
262.5295	0.1345	525059	keystroke_e	e	n/a
262.5735	0.135	525147	keystroke_s	s	n/a
262.739	0.135	525478	keystroke_Key.enter	Key.enter	n/a
262.881	8.2745	525762	prompt	n/a	weather arguments uses rally\n
263.789	0.12	527578	keystroke_w	w	n/a
264.2085	0.1355	528417	keystroke_e	e	n/a
264.359	0.1345	528718	keystroke_a	a	n/a
264.659	0.1045	529318	keystroke_t	t	n/a
265.004	0.12	530008	keystroke_h	h	n/a
265.109	0.1505	530218	keystroke_e	e	n/a
265.169	0.1205	530338	keystroke_r	r	n/a
265.304	0.12	530608	keystroke_Key.space	Key.space	n/a
265.7995	0.1345	531599	keystroke_a	a	n/a
266.039	0.12	532078	keystroke_g	g	n/a
266.429	0.135	532858	keystroke_Key.backspace	Key.backspace	n/a
266.504	0.12	533008	keystroke_r	r	n/a
266.669	0.1195	533338	keystroke_g	g	n/a
267.149	0.0895	534298	keystroke_u	u	n/a
267.344	0.106	534688	keystroke_m	m	n/a
267.479	0.105	534958	keystroke_e	e	n/a
267.569	0.1345	535138	keystroke_n	n	n/a
267.6885	0.1205	535377	keystroke_t	t	n/a
267.7635	0.21	535527	keystroke_s	s	n/a
267.989	0.12	535978	keystroke_Key.space	Key.space	n/a
268.4245	0.1195	536849	keystroke_u	u	n/a
268.559	0.105	537118	keystroke_s	s	n/a
268.634	0.135	537268	keystroke_e	e	n/a
268.814	0.12	537628	keystroke_s	s	n/a
269.129	0.135	538258	keystroke_Key.space	Key.space	n/a
269.519	0.106	539038	keystroke_r	r	n/a
269.609	0.135	539218	keystroke_a	a	n/a
269.789	0.075	539578	keystroke_l	l	n/a
269.9385	0.1355	539877	keystroke_l	l	n/a
270.119	0.12	540238	keystroke_y	y	n/a
270.2535	0.1355	540507	keystroke_Key.space	Key.space	n/a
270.779	0.1195	541558	keystroke_Key.backspace	Key.backspace	n/a
271.034	0.119	542068	keystroke_Key.enter	Key.enter	n/a
271.163	12.3225	542326	prompt	n/a	lauderdale mary report coupons\n
271.9795	0.106	543959	keystroke_l	l	n/a
272.0545	0.135	544109	keystroke_a	a	n/a
272.309	0.12	544618	keystroke_u	u	n/a
272.624	0.0455	545248	keystroke_r	r	n/a
272.9985	0.105	545997	keystroke_Key.backspace	Key.backspace	n/a
273.0435	0.09	546087	keystroke_d	d	n/a
273.284	0.195	546568	keystroke_r	r	n/a
274.094	0.06	548188	keystroke_Key.backspace	Key.backspace	n/a
274.439	0.1055	548878	keystroke_e	e	n/a
274.605	0.134	549210	keystroke_r	r	n/a
274.979	0.15	549958	keystroke_d	d	n/a
275.084	0.135	550168	keystroke_a	a	n/a
275.2035	0.136	550407	keystroke_l	l	n/a
275.354	0.2095	550708	keystroke_e	e	n/a
275.549	0.12	551098	keystroke_Key.space	Key.space	n/a
275.8945	0.104	551789	keystroke_m	m	n/a
275.9545	0.135	551909	keystroke_a	a	n/a
277.1085	0.1205	554217	keystroke_r	r	n/a
277.169	0.135	554338	keystroke_y	y	n/a
277.5285	0.121	555057	keystroke_Key.space	Key.space	n/a
277.919	0.09	555838	keystroke_r	r	n/a
277.979	0.15	555958	keystroke_e	e	n/a
278.144	0.135	556288	keystroke_p	p	n/a
278.339	0.1805	556678	keystroke_o	o	n/a
278.5215	0.0575	557043	keystroke_t	t	n/a
279.0145	0.1045	558029	keystroke_y	y	n/a
279.3585	0.0605	558717	keystroke_Key.backspace	Key.backspace	n/a
279.509	0.09	559018	keystroke_Key.backspace	Key.backspace	n/a
279.5535	0.076	559107	keystroke_r	r	n/a
279.7035	0.135	559407	keystroke_t	t	n/a
280.3635	0.121	560727	keystroke_Key.space	Key.space	n/a
280.679	0.135	561358	keystroke_c	c	n/a
281.024	0.105	562048	keystroke_o	o	n/a
281.248	0.106	562496	keystroke_u	u	n/a
281.489	0.18	562978	keystroke_p	p	n/a
281.6535	0.1515	563307	keystroke_o	o	n/a
282.359	0.1045	564718	keystroke_n	n	n/a
282.419	0.165	564838	keystroke_s	s	n/a
282.569	0.09	565138	keystroke_Key.space	Key.space	n/a
283.154	0.12	566308	keystroke_Key.backspace	Key.backspace	n/a
283.3935	0.0905	566787	keystroke_Key.enter	Key.enter	n/a
283.49	14.2005	566980	prompt	n/a	says fork oughtn't davis\n
284.234	0.15	568468	keystroke_s	s	n/a
284.324	0.12	568648	keystroke_a	a	n/a
284.5795	0.105	569159	keystroke_y	y	n/a
284.6235	0.1955	569247	keystroke_s	s	n/a
284.7735	0.1505	569547	keystroke_Key.space	Key.space	n/a
285.0735	0.076	570147	keystroke_f	f	n/a
285.1785	0.1205	570357	keystroke_o	o	n/a
285.2385	0.1505	570477	keystroke_r	r	n/a
285.375	0.134	570750	keystroke_k	k	n/a
285.569	0.15	571138	keystroke_Key.space	Key.space	n/a
286.2435	0.121	572487	keystroke_o	o	n/a
286.4835	0.1355	572967	keystroke_u	u	n/a
286.9485	0.0905	573897	keystroke_g	g	n/a
287.041	0.103	574082	keystroke_h	h	n/a
287.7595	0.1045	575519	keystroke_n	n	n/a
289.2735	0.12	578547	keystroke_Key.backspace	Key.backspace	n/a
289.454	0.15	578908	keystroke_r	r	n/a
290.2935	0.0905	580587	keystroke_Key.backspace	Key.backspace	n/a
290.399	0.12	580798	keystroke_t	t	n/a
290.564	0.119	581128	keystroke_n	n	n/a
291.2235	0.09	582447	keystroke_;	;	n/a
291.375	0.164	582750	keystroke_t	t	n/a
292.259	0.135	584518	keystroke_Key.backspace	Key.backspace	n/a
292.484	0.1055	584968	keystroke_Key.backspace	Key.backspace	n/a
292.8435	0.1205	585687	keystroke_;	;	n/a
293.099	0.285	586198	keystroke_y	y	n/a
293.3685	0.0755	586737	keystroke_Key.backspace	Key.backspace	n/a
293.534	0.075	587068	keystroke_Key.backspace	Key.backspace	n/a
294.284	0.015	588568	keystroke_'	'	n/a
294.314	0.09	588628	keystroke_y	y	n/a
294.9735	0.0905	589947	keystroke_Key.backspace	Key.backspace	n/a
295.394	0.15	590788	keystroke_y	y	n/a
295.6945	0.149	591389	keystroke_Key.backspace	Key.backspace	n/a
295.754	0.105	591508	keystroke_t	t	n/a
296.459	0.105	592918	keystroke_Key.space	Key.space	n/a
296.684	0.12	593368	keystroke_d	d	n/a
296.7745	0.1195	593549	keystroke_a	a	n/a
297.014	0.1195	594028	keystroke_v	v	n/a
297.1495	0.1195	594299	keystroke_i	i	n/a
297.254	0.15	594508	keystroke_s	s	n/a
297.554	0.135	595108	keystroke_Key.enter	Key.enter	n/a
297.6955	14.6505	595391	prompt	n/a	hospitality subdivision mills expects\n
298.679	0.105	597358	keystroke_h	h	n/a
298.844	0.15	597688	keystroke_o	o	n/a
298.979	0.1205	597958	keystroke_s	s	n/a
299.684	0.105	599368	keystroke_p	p	n/a
299.924	0.1195	599848	keystroke_i	i	n/a
300.0735	0.105	600147	keystroke_t	t	n/a
300.239	0.1195	600478	keystroke_a	a	n/a
300.2985	0.151	600597	keystroke_l	l	n/a
300.569	0.165	601138	keystroke_i	i	n/a
301.1685	0.1205	602337	keystroke_t	t	n/a
301.2735	0.137	602547	keystroke_y	y	n/a
301.5295	0.104	603059	keystroke_Key.space	Key.space	n/a
302.0985	0.1205	604197	keystroke_s	s	n/a
302.399	0.1195	604798	keystroke_u	u	n/a
302.6835	0.1205	605367	keystroke_b	b	n/a
302.939	0.1205	605878	keystroke_d	d	n/a
303.1185	0.1055	606237	keystroke_i	i	n/a
303.329	0.105	606658	keystroke_v	v	n/a
303.3735	0.152	606747	keystroke_i	i	n/a
303.5545	0.15	607109	keystroke_s	s	n/a
303.7195	0.0745	607439	keystroke_i	i	n/a
304.334	0.0445	608668	keystroke_i	i	n/a
304.8735	0.105	609747	keystroke_Key.backspace	Key.backspace	n/a
305.3695	0.134	610739	keystroke_o	o	n/a
305.6385	0.1205	611277	keystroke_n	n	n/a
306.164	0.1195	612328	keystroke_Key.space	Key.space	n/a
306.6135	0.1355	613227	keystroke_m	m	n/a
306.704	0.105	613408	keystroke_i	i	n/a
306.914	0.075	613828	keystroke_l	l	n/a
307.049	0.1345	614098	keystroke_l	l	n/a
307.1085	0.1505	614217	keystroke_s	s	n/a
307.2285	0.1355	614457	keystroke_Key.space	Key.space	n/a
307.4835	0.09	614967	keystroke_w	w	n/a
307.709	0.105	615418	keystroke_x	x	n/a
307.829	0.15	615658	keystroke_p	p	n/a
307.934	0.165	615868	keystroke_e	e	n/a
308.174	0.12	616348	keystroke_c	c	n/a
308.429	0.09	616858	keystroke_t	t	n/a
308.714	0.075	617428	keystroke_Key.backspace	Key.backspace	n/a
308.849	0.075	617698	keystroke_Key.backspace	Key.backspace	n/a
308.9835	0.06	617967	keystroke_Key.backspace	Key.backspace	n/a
309.1185	0.0605	618237	keystroke_Key.backspace	Key.backspace	n/a
309.269	0.075	618538	keystroke_Key.backspace	Key.backspace	n/a
309.3885	0.105	618777	keystroke_Key.backspace	Key.backspace	n/a
309.509	0.15	619018	keystroke_e	e	n/a
310.424	0.12	620848	keystroke_x	x	n/a
310.694	0.105	621388	keystroke_c	c	n/a
311.099	0.09	622198	keystroke_Key.backspace	Key.backspace	n/a
311.294	0.149	622588	keystroke_p	p	n/a
311.3535	0.15	622707	keystroke_e	e	n/a
311.519	0.1345	623038	keystroke_c	c	n/a
311.774	0.1045	623548	keystroke_t	t	n/a
311.8945	0.1495	623789	keystroke_s	s	n/a
312.209	0.1345	624418	keystroke_Key.enter	Key.enter	n/a
312.3525	8.993	624705	prompt	n/a	distances islamic applications intimate\n
313.379	0.1195	626758	keystroke_d	d	n/a
313.454	0.135	626908	keystroke_i	i	n/a
313.6345	0.1495	627269	keystroke_s	s	n/a
313.844	0.1055	627688	keystroke_t	t	n/a
314.0235	0.1355	628047	keystroke_a	a	n/a
314.399	0.09	628798	keystroke_n	n	n/a
314.459	0.09	628918	keystroke_c	c	n/a
314.5495	0.134	629099	keystroke_e	e	n/a
314.624	0.1795	629248	keystroke_s	s	n/a
314.8785	0.1355	629757	keystroke_Key.space	Key.space	n/a
315.3735	0.1055	630747	keystroke_i	i	n/a
315.4345	0.119	630869	keystroke_s	s	n/a
315.584	0.12	631168	keystroke_l	l	n/a
315.689	0.12	631378	keystroke_a	a	n/a
315.81	0.104	631620	keystroke_m	m	n/a
316.079	0.15	632158	keystroke_i	i	n/a
316.304	0.15	632608	keystroke_c	c	n/a
316.484	0.12	632968	keystroke_Key.space	Key.space	n/a
316.799	0.0905	633598	keystroke_a	a	n/a
316.9345	0.12	633869	keystroke_p	p	n/a
317.099	0.135	634198	keystroke_p	p	n/a
317.249	0.15	634498	keystroke_l	l	n/a
317.819	0.15	635638	keystroke_i	i	n/a
317.894	0.0765	635788	keystroke_c	c	n/a
317.984	0.075	635968	keystroke_a	a	n/a
318.434	0.12	636868	keystroke_t	t	n/a
318.554	0.1655	637108	keystroke_i	i	n/a
318.6585	0.166	637317	keystroke_o	o	n/a
318.8095	0.149	637619	keystroke_n	n	n/a
318.9285	0.1805	637857	keystroke_s	s	n/a
319.124	0.15	638248	keystroke_Key.space	Key.space	n/a
319.844	0.165	639688	keystroke_i	i	n/a
319.9185	0.1655	639837	keystroke_n	n	n/a
320.189	0.135	640378	keystroke_t	t	n/a
320.264	0.165	640528	keystroke_i	i	n/a
320.579	0.135	641158	keystroke_m	m	n/a
320.669	0.105	641338	keystroke_a	a	n/a
320.864	0.12	641728	keystroke_t	t	n/a
320.999	0.12	641998	keystroke_e	e	n/a
321.224	0.119	642448	keystroke_Key.enter	Key.enter	n/a
321.3525	8.4835	642705	prompt	n/a	role acute deutsche enforcement\n
322.184	0.12	644368	keystroke_r	r	n/a
322.289	0.09	644578	keystroke_o	o	n/a
322.454	0.15	644908	keystroke_l	l	n/a
322.574	0.165	645148	keystroke_e	e	n/a
322.709	0.105	645418	keystroke_Key.space	Key.space	n/a
322.889	0.1805	645778	keystroke_a	a	n/a
323.2045	0.1045	646409	keystroke_c	c	n/a
323.6535	0.1355	647307	keystroke_u	u	n/a
323.7135	0.105	647427	keystroke_t	t	n/a
323.8035	0.165	647607	keystroke_e	e	n/a
323.9545	0.134	647909	keystroke_Key.space	Key.space	n/a
324.2835	0.06	648567	keystroke_d	d	n/a
324.4635	0.0905	648927	keystroke_e	e	n/a
324.734	0.15	649468	keystroke_u	u	n/a
324.989	0.1195	649978	keystroke_t	t	n/a
325.394	0.09	650788	keystroke_c	c	n/a
325.934	0.1045	651868	keystroke_Key.backspace	Key.backspace	n/a
326.009	0.09	652018	keystroke_s	s	n/a
326.054	0.135	652108	keystroke_c	c	n/a
326.219	0.1345	652438	keystroke_h	h	n/a
326.3545	0.149	652709	keystroke_e	e	n/a
326.7435	0.1205	653487	keystroke_Key.space	Key.space	n/a
327.2685	0.136	654537	keystroke_e	e	n/a
327.4195	0.105	654839	keystroke_n	n	n/a
327.6735	0.106	655347	keystroke_f	f	n/a
327.7635	0.135	655527	keystroke_o	o	n/a
327.8845	0.1195	655769	keystroke_r	r	n/a
328.064	0.12	656128	keystroke_m	m	n/a
328.409	0.105	656818	keystroke_Key.backspace	Key.backspace	n/a
328.4995	0.1045	656999	keystroke_c	c	n/a
328.574	0.12	657148	keystroke_e	e	n/a
328.979	0.1045	657958	keystroke_m	m	n/a
329.0535	0.1655	658107	keystroke_e	e	n/a
329.204	0.12	658408	keystroke_n	n	n/a
329.339	0.105	658678	keystroke_t	t	n/a
329.7135	0.12	659427	keystroke_Key.enter	Key.enter	n/a
329.8405	11.681	659681	prompt	n/a	proteins supplies highlighted amount\n
330.6895	0.09	661379	keystroke_p	p	n/a
330.7495	0.12	661499	keystroke_r	r	n/a
330.8705	0.1185	661741	keystroke_o	o	n/a
331.064	0.105	662128	keystroke_t	t	n/a
331.184	0.1645	662368	keystroke_e	e	n/a
331.319	0.135	662638	keystroke_i	i	n/a
331.529	0.1045	663058	keystroke_n	n	n/a
331.5895	0.165	663179	keystroke_s	s	n/a
331.769	0.15	663538	keystroke_Key.space	Key.space	n/a
332.1745	0.1345	664349	keystroke_s	s	n/a
332.3835	0.1205	664767	keystroke_i	i	n/a
332.8935	0.075	665787	keystroke_Key.backspace	Key.backspace	n/a
333.164	0.105	666328	keystroke_u	u	n/a
333.644	0.0755	667288	keystroke_p	p	n/a
333.7935	0.06	667587	keystroke_p	p	n/a
333.9295	0.0595	667859	keystroke_l	l	n/a
334.079	0.1655	668158	keystroke_i	i	n/a
334.139	0.15	668278	keystroke_e	e	n/a
334.2295	0.2095	668459	keystroke_s	s	n/a
334.454	0.12	668908	keystroke_Key.space	Key.space	n/a
335.279	0.075	670558	keystroke_i	i	n/a
335.384	0.105	670768	keystroke_h	h	n/a
335.639	0.105	671278	keystroke_Key.backspace	Key.backspace	n/a
335.819	0.105	671638	keystroke_Key.backspace	Key.backspace	n/a
335.999	0.1345	671998	keystroke_h	h	n/a
336.059	0.135	672118	keystroke_i	i	n/a
336.599	0.1045	673198	keystroke_g	g	n/a
336.6885	0.121	673377	keystroke_h	h	n/a
337.0795	0.0745	674159	keystroke_l	l	n/a
337.259	0.105	674518	keystroke_i	i	n/a
339.1185	0.1055	678237	keystroke_g	g	n/a
339.179	0.135	678358	keystroke_h	h	n/a
339.374	0.1355	678748	keystroke_t	t	n/a
339.569	0.135	679138	keystroke_e	e	n/a
339.794	0.1205	679588	keystroke_d	d	n/a
340.049	0.1205	680098	keystroke_Key.space	Key.space	n/a
340.3795	0.12	680759	keystroke_a	a	n/a
340.5135	0.1365	681027	keystroke_m	m	n/a
340.6045	0.1945	681209	keystroke_o	o	n/a
340.844	0.2105	681688	keystroke_u	u	n/a
340.964	0.165	681928	keystroke_n	n	n/a
341.0985	0.1205	682197	keystroke_t	t	n/a
341.414	0.1045	682828	keystroke_Key.enter	Key.enter	n/a
341.5245	7.631	683049	prompt	n/a	spell inspection religion palm\n
342.1935	0.136	684387	keystroke_s	s	n/a
342.2995	0.1345	684599	keystroke_p	p	n/a
342.4185	0.121	684837	keystroke_e	e	n/a
342.929	0.1045	685858	keystroke_l	l	n/a
343.0945	0.1345	686189	keystroke_l	l	n/a
343.244	0.105	686488	keystroke_Key.space	Key.space	n/a
343.559	0.1355	687118	keystroke_i	i	n/a
343.6965	0.132	687393	keystroke_n	n	n/a
344.054	0.15	688108	keystroke_s	s	n/a
344.249	0.165	688498	keystroke_p	p	n/a
344.37	0.134	688740	keystroke_e	e	n/a
344.594	0.105	689188	keystroke_c	c	n/a
344.8645	0.134	689729	keystroke_t	t	n/a
345.0745	0.119	690149	keystroke_i	i	n/a
345.119	0.1795	690238	keystroke_o	o	n/a
345.239	0.1495	690478	keystroke_n	n	n/a
345.5385	0.135	691077	keystroke_Key.space	Key.space	n/a
345.7335	0.1055	691467	keystroke_r	r	n/a
345.7945	0.119	691589	keystroke_e	e	n/a
345.9745	0.134	691949	keystroke_l	l	n/a
346.514	0.1355	693028	keystroke_i	i	n/a
346.7095	0.134	693419	keystroke_g	g	n/a
346.829	0.165	693658	keystroke_i	i	n/a
346.9335	0.135	693867	keystroke_o	o	n/a
347.084	0.1505	694168	keystroke_n	n	n/a
347.414	0.1195	694828	keystroke_Key.space	Key.space	n/a
347.774	0.135	695548	keystroke_p	p	n/a
347.924	0.12	695848	keystroke_a	a	n/a
348.029	0.12	696058	keystroke_l	l	n/a
348.3735	0.0455	696747	keystroke_m	m	n/a
349.034	0.1195	698068	keystroke_Key.enter	Key.enter	n/a
349.16	10.181	698320	prompt	n/a	options huntington shakira official\n
349.9635	0.1955	699927	keystroke_o	o	n/a
350.039	0.135	700078	keystroke_p	p	n/a
350.219	0.12	700438	keystroke_t	t	n/a
350.279	0.195	700558	keystroke_i	i	n/a
350.504	0.195	701008	keystroke_o	o	n/a
350.534	0.0605	701068	keystroke_n	n	n/a
351.569	0.135	703138	keystroke_s	s	n/a
351.734	0.135	703468	keystroke_Key.space	Key.space	n/a
352.634	0.135	705268	keystroke_h	h	n/a
352.709	0.165	705418	keystroke_u	u	n/a
352.889	0.15	705778	keystroke_n	n	n/a
353.519	0.1045	707038	keystroke_t	t	n/a
353.5935	0.1505	707187	keystroke_i	i	n/a
353.789	0.105	707578	keystroke_n	n	n/a
353.9545	0.09	707909	keystroke_g	g	n/a
354.854	0.12	709708	keystroke_t	t	n/a
354.914	0.15	709828	keystroke_o	o	n/a
355.139	0.12	710278	keystroke_n	n	n/a
355.469	0.135	710938	keystroke_Key.space	Key.space	n/a
355.8585	0.1355	711717	keystroke_s	s	n/a
355.979	0.1045	711958	keystroke_h	h	n/a
356.0985	0.135	712197	keystroke_a	a	n/a
356.279	0.09	712558	keystroke_k	k	n/a
356.474	0.15	712948	keystroke_i	i	n/a
356.6085	0.0905	713217	keystroke_r	r	n/a
356.684	0.15	713368	keystroke_a	a	n/a
357.239	0.135	714478	keystroke_Key.space	Key.space	n/a
357.854	0.12	715708	keystroke_o	o	n/a
358.004	0.0895	716008	keystroke_f	f	n/a
358.154	0.105	716308	keystroke_f	f	n/a
358.214	0.12	716428	keystroke_i	i	n/a
358.424	0.09	716848	keystroke_c	c	n/a
358.5735	0.12	717147	keystroke_i	i	n/a
358.724	0.06	717448	keystroke_a	a	n/a
358.904	0.1055	717808	keystroke_l	l	n/a
359.234	0.1055	718468	keystroke_Key.enter	Key.enter	n/a
359.346	8.9645	718692	prompt	n/a	root june isbn mediterranean\n
360.089	0.105	720178	keystroke_r	r	n/a
360.1635	0.0755	720327	keystroke_o	o	n/a
360.3135	0.1355	720627	keystroke_o	o	n/a
360.374	0.1345	720748	keystroke_t	t	n/a
360.5235	0.12	721047	keystroke_Key.space	Key.space	n/a
361.304	0.12	722608	keystroke_j	j	n/a
361.379	0.18	722758	keystroke_u	u	n/a
361.529	0.136	723058	keystroke_n	n	n/a
361.635	0.164	723270	keystroke_e	e	n/a
361.739	0.15	723478	keystroke_Key.space	Key.space	n/a
362.3235	0.135	724647	keystroke_i	i	n/a
362.399	0.18	724798	keystroke_s	s	n/a
362.999	0.105	725998	keystroke_b	b	n/a
363.1195	0.1045	726239	keystroke_n	n	n/a
363.329	0.0895	726658	keystroke_Key.space	Key.space	n/a
363.6735	0.1355	727347	keystroke_m	m	n/a
363.7785	0.105	727557	keystroke_e	e	n/a
363.9735	0.1055	727947	keystroke_d	d	n/a
364.5595	0.1195	729119	keystroke_i	i	n/a
365.0245	0.1195	730049	keystroke_t	t	n/a
365.159	0.1345	730318	keystroke_e	e	n/a
365.174	0.0595	730348	keystroke_r	r	n/a
365.3535	0.121	730707	keystroke_r	r	n/a
365.564	0.075	731128	keystroke_r	r	n/a
365.909	0.0895	731818	keystroke_a	a	n/a
366.5685	0.12	733137	keystroke_n	n	n/a
366.69	0.1035	733380	keystroke_e	e	n/a
367.169	0.105	734338	keystroke_a	a	n/a
367.394	0.09	734788	keystroke_n	n	n/a
368.174	0.1345	736348	keystroke_Key.enter	Key.enter	n/a
368.315	11.335	736630	prompt	n/a	unsigned visual frames blogging\n
369.5995	0.1935	739199	keystroke_u	u	n/a
369.734	0.1205	739468	keystroke_n	n	n/a
369.9895	0.105	739979	keystroke_s	s	n/a
370.2895	0.164	740579	keystroke_i	i	n/a
370.6185	0.106	741237	keystroke_g	g	n/a
370.7395	0.1045	741479	keystroke_n	n	n/a
370.9035	0.1355	741807	keystroke_e	e	n/a
371.129	0.1195	742258	keystroke_d	d	n/a
371.2785	0.1205	742557	keystroke_Key.space	Key.space	n/a
371.834	0.0895	743668	keystroke_v	v	n/a
371.9535	0.0905	743907	keystroke_u	u	n/a
372.419	0.1055	744838	keystroke_Key.backspace	Key.backspace	n/a
372.629	0.15	745258	keystroke_o	o	n/a
372.749	0.134	745498	keystroke_s	s	n/a
372.9285	0.135	745857	keystroke_u	u	n/a
373.259	0.105	746518	keystroke_Key.backspace	Key.backspace	n/a
373.4235	0.06	746847	keystroke_Key.backspace	Key.backspace	n/a
373.543	0.075	747086	keystroke_Key.backspace	Key.backspace	n/a
374.129	0.1205	748258	keystroke_i	i	n/a
374.2335	0.1055	748467	keystroke_s	s	n/a
374.3545	0.1195	748709	keystroke_u	u	n/a
374.459	0.105	748918	keystroke_a	a	n/a
374.6235	0.1355	749247	keystroke_l	l	n/a
374.8345	0.149	749669	keystroke_Key.space	Key.space	n/a
375.329	0.0595	750658	keystroke_f	f	n/a
375.494	0.075	750988	keystroke_r	r	n/a
375.6135	0.105	751227	keystroke_a	a	n/a
375.7035	0.0905	751407	keystroke_m	m	n/a
376.2435	0.195	752487	keystroke_e	e	n/a
376.349	0.1505	752698	keystroke_s	s	n/a
376.5435	0.1205	753087	keystroke_Key.space	Key.space	n/a
377.069	0.0745	754138	keystroke_b	b	n/a
377.1285	0.1055	754257	keystroke_l	l	n/a
377.309	0.1045	754618	keystroke_o	o	n/a
377.819	0.1345	755638	keystroke_g	g	n/a
377.984	0.165	755968	keystroke_g	g	n/a
378.104	0.195	756208	keystroke_i	i	n/a
378.3435	0.121	756687	keystroke_n	n	n/a
378.8235	0.12	757647	keystroke_g	g	n/a
379.5435	0.105	759087	keystroke_Key.enter	Key.enter	n/a
379.655	8.7405	759310	prompt	n/a	everyday frames suggest bronze\n
380.294	0.09	760588	keystroke_e	e	n/a
380.4895	0.0595	760979	keystroke_v	v	n/a
380.624	0.03	761248	keystroke_e	e	n/a
380.6545	0.164	761309	keystroke_r	r	n/a
380.9085	0.105	761817	keystroke_y	y	n/a
381.0895	0.089	762179	keystroke_d	d	n/a
381.149	0.1355	762298	keystroke_a	a	n/a
382.3935	0.1205	764787	keystroke_y	y	n/a
382.6635	0.136	765327	keystroke_Key.space	Key.space	n/a
383.204	0.06	766408	keystroke_r	r	n/a
383.893	0.1205	767786	keystroke_Key.backspace	Key.backspace	n/a
383.969	0.09	767938	keystroke_f	f	n/a
384.1935	0.031	768387	keystroke_r	r	n/a
384.284	0.1045	768568	keystroke_a	a	n/a
384.899	0.12	769798	keystroke_m	m	n/a
385.034	0.105	770068	keystroke_e	e	n/a
385.109	0.195	770218	keystroke_s	s	n/a
385.289	0.135	770578	keystroke_Key.space	Key.space	n/a
385.7545	0.105	771509	keystroke_s	s	n/a
385.8745	0.1045	771749	keystroke_u	u	n/a
386.1135	0.0155	772227	keystroke_g	g	n/a
386.2195	0.0595	772439	keystroke_g	g	n/a
386.339	0.135	772678	keystroke_e	e	n/a
386.384	0.1505	772768	keystroke_s	s	n/a
386.549	0.12	773098	keystroke_t	t	n/a
386.729	0.135	773458	keystroke_Key.space	Key.space	n/a
387.359	0.0895	774718	keystroke_b	b	n/a
387.569	0.1045	775138	keystroke_r	r	n/a
387.644	0.0895	775288	keystroke_o	o	n/a
387.868	0.091	775736	keystroke_n	n	n/a
387.884	0.135	775768	keystroke_z	z	n/a
388.0335	0.122	776067	keystroke_e	e	n/a
388.2885	0.1055	776577	keystroke_Key.enter	Key.enter	n/a
388.4	6.446	776800	prompt	n/a	coin median watershed networks\n
389.189	0.119	778378	keystroke_c	c	n/a
389.294	0.09	778588	keystroke_o	o	n/a
389.459	0.18	778918	keystroke_i	i	n/a
389.5935	0.1355	779187	keystroke_n	n	n/a
389.7735	0.1355	779547	keystroke_Key.space	Key.space	n/a
390.0885	0.15	780177	keystroke_m	m	n/a
390.209	0.135	780418	keystroke_e	e	n/a
390.4035	0.105	780807	keystroke_d	d	n/a
390.4485	0.166	780897	keystroke_i	i	n/a
390.5835	0.12	781167	keystroke_a	a	n/a
390.7635	0.15	781527	keystroke_n	n	n/a
390.9295	0.1635	781859	keystroke_Key.space	Key.space	n/a
391.214	0.1645	782428	keystroke_w	w	n/a
391.304	0.1355	782608	keystroke_a	a	n/a
391.5895	0.12	783179	keystroke_t	t	n/a
391.859	0.1505	783718	keystroke_e	e	n/a
391.934	0.135	783868	keystroke_r	r	n/a
392.249	0.105	784498	keystroke_s	s	n/a
392.3395	0.1045	784679	keystroke_h	h	n/a
392.5045	0.134	785009	keystroke_e	e	n/a
392.7285	0.1055	785457	keystroke_d	d	n/a
392.819	0.1505	785638	keystroke_Key.space	Key.space	n/a
393.134	0.135	786268	keystroke_n	n	n/a
393.2245	0.1495	786449	keystroke_e	e	n/a
393.4485	0.106	786897	keystroke_t	t	n/a
393.6885	0.151	787377	keystroke_w	w	n/a
393.8085	0.1655	787617	keystroke_o	o	n/a
393.9295	0.1195	787859	keystroke_r	r	n/a
394.093	0.1365	788186	keystroke_k	k	n/a
394.499	0.105	788998	keystroke_s	s	n/a
394.739	0.105	789478	keystroke_Key.enter	Key.enter	n/a
394.85	9.8805	789700	prompt	n/a	reno scientific bass where'd\n
395.474	0.09	790948	keystroke_r	r	n/a
396.2235	0.1355	792447	keystroke_e	e	n/a
396.374	0.09	792748	keystroke_n	n	n/a
396.644	0.12	793288	keystroke_o	o	n/a
396.8985	0.105	793797	keystroke_Key.space	Key.space	n/a
397.169	0.1195	794338	keystroke_s	s	n/a
397.3935	0.12	794787	keystroke_c	c	n/a
397.4985	0.1055	794997	keystroke_i	i	n/a
397.649	0.1495	795298	keystroke_e	e	n/a
397.814	0.1045	795628	keystroke_n	n	n/a
397.9335	0.1205	795867	keystroke_t	t	n/a
398.0985	0.166	796197	keystroke_i	i	n/a
398.3535	0.1355	796707	keystroke_f	f	n/a
398.5035	0.1205	797007	keystroke_i	i	n/a
398.6695	0.1195	797339	keystroke_c	c	n/a
399.1035	0.1355	798207	keystroke_Key.space	Key.space	n/a
399.869	0.105	799738	keystroke_b	b	n/a
399.899	0.15	799798	keystroke_a	a	n/a
399.974	0.105	799948	keystroke_s	s	n/a
400.169	0.135	800338	keystroke_s	s	n/a
400.334	0.15	800668	keystroke_Key.space	Key.space	n/a
400.724	0.165	801448	keystroke_w	w	n/a
400.843	0.121	801686	keystroke_h	h	n/a
400.9485	0.121	801897	keystroke_e	e	n/a
401.1735	0.0905	802347	keystroke_e	e	n/a
401.234	0.105	802468	keystroke_r	r	n/a
401.879	0.074	803758	keystroke_Key.backspace	Key.backspace	n/a
402.044	0.1045	804088	keystroke_Key.backspace	Key.backspace	n/a
402.134	0.0595	804268	keystroke_r	r	n/a
402.1785	0.135	804357	keystroke_e	e	n/a
403.379	0.1195	806758	keystroke_'	'	n/a
403.454	0.1495	806908	keystroke_d	d	n/a
403.649	0.165	807298	keystroke_Key.space	Key.space	n/a
404.354	0.119	808708	keystroke_Key.backspace	Key.backspace	n/a
404.5935	0.1355	809187	keystroke_Key.enter	Key.enter	n/a
404.734	7.197	809468	prompt	n/a	infections warner diet spyware\n
405.5395	0.134	811079	keystroke_i	i	n/a
405.6595	0.075	811319	keystroke_n	n	n/a
405.7645	0.1345	811529	keystroke_f	f	n/a
405.9135	0.135	811827	keystroke_e	e	n/a
406.0785	0.1055	812157	keystroke_c	c	n/a
406.289	0.12	812578	keystroke_t	t	n/a
406.364	0.135	812728	keystroke_i	i	n/a
406.424	0.165	812848	keystroke_o	o	n/a
406.529	0.135	813058	keystroke_n	n	n/a
406.7835	0.1655	813567	keystroke_s	s	n/a
406.9335	0.1055	813867	keystroke_Key.space	Key.space	n/a
407.7585	0.12	815517	keystroke_w	w	n/a
407.8035	0.15	815607	keystroke_a	a	n/a
408.2685	0.12	816537	keystroke_r	r	n/a
408.404	0.1195	816808	keystroke_n	n	n/a
408.509	0.1645	817018	keystroke_e	e	n/a
408.6435	0.1355	817287	keystroke_r	r	n/a
408.9285	0.1355	817857	keystroke_Key.space	Key.space	n/a
409.244	0.105	818488	keystroke_d	d	n/a
409.4095	0.1195	818819	keystroke_i	i	n/a
409.484	0.0915	818968	keystroke_e	e	n/a
409.6635	0.1355	819327	keystroke_t	t	n/a
409.8285	0.12	819657	keystroke_Key.space	Key.space	n/a
410.114	0.135	820228	keystroke_s	s	n/a
410.234	0.1195	820468	keystroke_p	p	n/a
410.999	0.0895	821998	keystroke_y	y	n/a
411.0285	0.195	822057	keystroke_w	w	n/a
411.103	0.136	822206	keystroke_a	a	n/a
411.313	0.121	822626	keystroke_r	r	n/a
411.389	0.1515	822778	keystroke_e	e	n/a
411.809	0.1195	823618	keystroke_Key.enter	Key.enter	n/a
411.935	7.361	823870	prompt	n/a	hayes launches new copied\n
413.309	0.105	826618	keystroke_h	h	n/a
413.3835	0.1205	826767	keystroke_a	a	n/a
413.549	0.1645	827098	keystroke_y	y	n/a
413.7145	0.149	827429	keystroke_e	e	n/a
413.8935	0.105	827787	keystroke_s	s	n/a
414.374	0.135	828748	keystroke_Key.space	Key.space	n/a
415.124	0.1345	830248	keystroke_l	l	n/a
415.784	0.12	831568	keystroke_a	a	n/a
416.534	0.106	833068	keystroke_u	u	n/a
416.789	0.105	833578	keystroke_n	n	n/a
416.8785	0.1205	833757	keystroke_c	c	n/a
417.0585	0.1055	834117	keystroke_h	h	n/a
417.074	0.135	834148	keystroke_e	e	n/a
417.179	0.15	834358	keystroke_s	s	n/a
417.374	0.1045	834748	keystroke_Key.space	Key.space	n/a
417.6135	0.12	835227	keystroke_n	n	n/a
417.7035	0.135	835407	keystroke_e	e	n/a
417.7785	0.165	835557	keystroke_w	w	n/a
417.929	0.1345	835858	keystroke_Key.space	Key.space	n/a
418.2585	0.135	836517	keystroke_c	c	n/a
418.4235	0.1655	836847	keystroke_o	o	n/a
418.4995	0.149	836999	keystroke_p	p	n/a
418.7385	0.1655	837477	keystroke_i	i	n/a
418.8435	0.105	837687	keystroke_e	e	n/a
419.0385	0.1505	838077	keystroke_d	d	n/a
419.1435	0.15	838287	keystroke_Key.enter	Key.enter	n/a
419.2995	6.851	838599	prompt	n/a	manage zinc am grow\n
420.014	0.12	840028	keystroke_m	m	n/a
420.059	0.106	840118	keystroke_a	a	n/a
420.33	0.0735	840660	keystroke_b	b	n/a
420.3895	0.1345	840779	keystroke_a	a	n/a
420.9585	0.0305	841917	keystroke_Key.backspace	Key.backspace	n/a
421.0635	0.1195	842127	keystroke_Key.backspace	Key.backspace	n/a
421.6335	0.1055	843267	keystroke_n	n	n/a
421.6785	0.1055	843357	keystroke_a	a	n/a
421.949	0.135	843898	keystroke_g	g	n/a
422.054	0.1645	844108	keystroke_e	e	n/a
422.2945	0.134	844589	keystroke_Key.space	Key.space	n/a
422.609	0.12	845218	keystroke_z	z	n/a
422.6985	0.0905	845397	keystroke_i	i	n/a
422.909	0.12	845818	keystroke_n	n	n/a
423.149	0.1205	846298	keystroke_c	c	n/a
423.4035	0.15	846807	keystroke_Key.space	Key.space	n/a
423.7635	0.12	847527	keystroke_a	a	n/a
424.019	0.1345	848038	keystroke_m	m	n/a
424.1385	0.1355	848277	keystroke_Key.space	Key.space	n/a
424.483	0.076	848966	keystroke_f	f	n/a
425.069	0.135	850138	keystroke_Key.backspace	Key.backspace	n/a
425.3985	0.075	850797	keystroke_g	g	n/a
425.5935	0.105	851187	keystroke_r	r	n/a
425.669	0.12	851338	keystroke_o	o	n/a
425.819	0.1195	851638	keystroke_w	w	n/a
425.9985	0.15	851997	keystroke_Key.enter	Key.enter	n/a
426.1545	4.556	852309	prompt	n/a	laser gate wolf issn\n
426.8835	0.1055	853767	keystroke_l	l	n/a
427.049	0.1645	854098	keystroke_a	a	n/a
427.139	0.2395	854278	keystroke_s	s	n/a
427.3335	0.1505	854667	keystroke_e	e	n/a
427.5735	0.15	855147	keystroke_r	r	n/a
427.7085	0.12	855417	keystroke_Key.space	Key.space	n/a
428.039	0.075	856078	keystroke_g	g	n/a
428.189	0.105	856378	keystroke_a	a	n/a
428.3985	0.0595	856797	keystroke_t	t	n/a
428.474	0.1045	856948	keystroke_e	e	n/a
428.7135	0.1055	857427	keystroke_Key.space	Key.space	n/a
428.9235	0.12	857847	keystroke_w	w	n/a
428.9835	0.12	857967	keystroke_o	o	n/a
429.2085	0.135	858417	keystroke_l	l	n/a
429.3585	0.1355	858717	keystroke_f	f	n/a
429.508	0.12	859016	keystroke_Key.space	Key.space	n/a
429.9595	0.12	859919	keystroke_i	i	n/a
430.0485	0.075	860097	keystroke_s	s	n/a
430.2135	0.1495	860427	keystroke_s	s	n/a
430.349	0.12	860698	keystroke_n	n	n/a
430.618	0.09	861236	keystroke_Key.enter	Key.enter	n/a
430.7135	8.607	861427	prompt	n/a	chubby universe incidence suited\n
431.459	0.105	862918	keystroke_c	c	n/a
431.804	0.12	863608	keystroke_h	h	n/a
431.863	0.15	863726	keystroke_u	u	n/a
432.0585	0.1055	864117	keystroke_b	b	n/a
432.179	0.1195	864358	keystroke_b	b	n/a
432.674	0.1195	865348	keystroke_y	y	n/a
433.109	0.149	866218	keystroke_Key.space	Key.space	n/a
433.5735	0.151	867147	keystroke_u	u	n/a
433.6485	0.106	867297	keystroke_n	n	n/a
433.8585	0.1655	867717	keystroke_i	i	n/a
434.0835	0.0595	868167	keystroke_v	v	n/a
434.203	0.18	868406	keystroke_e	e	n/a
434.324	0.1195	868648	keystroke_r	r	n/a
434.6235	0.1805	869247	keystroke_s	s	n/a
434.7435	0.136	869487	keystroke_e	e	n/a
435.1335	0.1355	870267	keystroke_Key.space	Key.space	n/a
435.6145	0.134	871229	keystroke_i	i	n/a
435.7335	0.12	871467	keystroke_n	n	n/a
435.989	0.12	871978	keystroke_c	c	n/a
436.0635	0.12	872127	keystroke_i	i	n/a
436.2445	0.074	872489	keystroke_d	d	n/a
436.3785	0.0905	872757	keystroke_d	d	n/a
436.9785	0.1055	873957	keystroke_Key.backspace	Key.backspace	n/a
437.099	0.105	874198	keystroke_e	e	n/a
437.309	0.12	874618	keystroke_n	n	n/a
437.414	0.0895	874828	keystroke_c	c	n/a
437.474	0.135	874948	keystroke_e	e	n/a
438.0735	0.1195	876147	keystroke_Key.space	Key.space	n/a
438.283	0.136	876566	keystroke_s	s	n/a
438.493	0.18	876986	keystroke_u	u	n/a
438.569	0.1505	877138	keystroke_i	i	n/a
438.734	0.0895	877468	keystroke_t	t	n/a
438.8685	0.121	877737	keystroke_e	e	n/a
439.0635	0.12	878127	keystroke_d	d	n/a
439.199	0.119	878398	keystroke_Key.enter	Key.enter	n/a
439.3245	13.0765	878649	prompt	n/a	observation wanted fourth blogging\n
440.0835	0.105	880167	keystroke_i	i	n/a
440.099	0.0745	880198	keystroke_o	o	n/a
440.279	0.105	880558	keystroke_n	n	n/a
440.6235	0.0755	881247	keystroke_Key.backspace	Key.backspace	n/a
440.7735	0.09	881547	keystroke_Key.backspace	Key.backspace	n/a
441.164	0.1045	882328	keystroke_Key.backspace	Key.backspace	n/a
441.4635	0.0905	882927	keystroke_o	o	n/a
441.839	0.1345	883678	keystroke_b	b	n/a
442.0185	0.1655	884037	keystroke_s	s	n/a
442.064	0.225	884128	keystroke_e	e	n/a
442.259	0.135	884518	keystroke_r	r	n/a
442.6035	0.0755	885207	keystroke_v	v	n/a
442.739	0.105	885478	keystroke_e	e	n/a
442.9795	0.089	885959	keystroke_a	a	n/a
443.2785	0.0595	886557	keystroke_Key.backspace	Key.backspace	n/a
443.4135	0.1505	886827	keystroke_Key.backspace	Key.backspace	n/a
443.4595	0.149	886919	keystroke_a	a	n/a
443.8185	0.1195	887637	keystroke_t	t	n/a
443.9535	0.1355	887907	keystroke_i	i	n/a
443.998	0.1655	887996	keystroke_o	o	n/a
444.1485	0.135	888297	keystroke_n	n	n/a
444.5685	0.1205	889137	keystroke_Key.space	Key.space	n/a
445.1535	0.1655	890307	keystroke_w	w	n/a
445.2285	0.12	890457	keystroke_a	a	n/a
445.4845	0.135	890969	keystroke_t	t	n/a
445.6495	0.134	891299	keystroke_n	n	n/a
446.0685	0.076	892137	keystroke_Key.backspace	Key.backspace	n/a
446.2035	0.09	892407	keystroke_Key.backspace	Key.backspace	n/a
446.4585	0.1205	892917	keystroke_n	n	n/a
446.564	0.136	893128	keystroke_t	t	n/a
446.684	0.1345	893368	keystroke_e	e	n/a
446.8635	0.1655	893727	keystroke_d	d	n/a
447.104	0.119	894208	keystroke_Key.space	Key.space	n/a
447.7635	0.1055	895527	keystroke_f	f	n/a
447.854	0.105	895708	keystroke_o	o	n/a
448.2445	0.134	896489	keystroke_u	u	n/a
448.439	0.135	896878	keystroke_r	r	n/a
448.6935	0.1355	897387	keystroke_t	t	n/a
448.8135	0.135	897627	keystroke_h	h	n/a
449.0535	0.0905	898107	keystroke_Key.space	Key.space	n/a
449.7285	0.1055	899457	keystroke_b	b	n/a
449.819	0.075	899638	keystroke_l	l	n/a
449.969	0.1195	899938	keystroke_o	o	n/a
450.2545	0.059	900509	keystroke_g	g	n/a
450.3895	0.134	900779	keystroke_g	g	n/a
450.4635	0.1355	900927	keystroke_i	i	n/a
450.6435	0.12	901287	keystroke_n	n	n/a
451.994	0.15	903988	keystroke_g	g	n/a
452.279	0.12	904558	keystroke_Key.enter	Key.enter	n/a
452.405	18.2955	904810	prompt	n/a	commonly partner fellowship opportunities\n
453.329	0.1195	906658	keystroke_c	c	n/a
453.434	0.119	906868	keystroke_o	o	n/a
453.6585	0.24	907317	keystroke_m	m	n/a
453.8835	0.045	907767	keystroke_o	o	n/a
454.904	0.1045	909808	keystroke_Key.backspace	Key.backspace	n/a
455.2645	0.1335	910529	keystroke_m	m	n/a
455.473	0.1805	910946	keystroke_o	o	n/a
455.699	0.12	911398	keystroke_n	n	n/a
456.029	0.1505	912058	keystroke_l	l	n/a
456.374	0.135	912748	keystroke_y	y	n/a
456.493	0.166	912986	keystroke_Key.space	Key.space	n/a
457.169	0.1195	914338	keystroke_p	p	n/a
457.274	0.1495	914548	keystroke_a	a	n/a
457.4535	0.12	914907	keystroke_r	r	n/a
457.6485	0.1205	915297	keystroke_t	t	n/a
457.771	0.118	915542	keystroke_n	n	n/a
457.844	0.165	915688	keystroke_e	e	n/a
457.919	0.195	915838	keystroke_r	r	n/a
458.1285	0.1205	916257	keystroke_Key.space	Key.space	n/a
458.489	0.089	916978	keystroke_f	f	n/a
458.609	0.1355	917218	keystroke_e	e	n/a
458.759	0.075	917518	keystroke_l	l	n/a
458.9235	0.075	917847	keystroke_l	l	n/a
459.0585	0.1805	918117	keystroke_o	o	n/a
459.898	0.0905	919796	keystroke_Key.backspace	Key.backspace	n/a
459.9735	0.1205	919947	keystroke_w	w	n/a
460.409	0.135	920818	keystroke_Key.backspace	Key.backspace	n/a
460.784	0.1195	921568	keystroke_o	o	n/a
460.874	0.1495	921748	keystroke_w	w	n/a
461.2335	0.12	922467	keystroke_s	s	n/a
461.4435	0.121	922887	keystroke_h	h	n/a
461.9085	0.12	923817	keystroke_i	i	n/a
461.9685	0.15	923937	keystroke_p	p	n/a
462.523	0.1205	925046	keystroke_Key.space	Key.space	n/a
462.8835	0.135	925767	keystroke_o	o	n/a
463.0195	0.1045	926039	keystroke_p	p	n/a
463.184	0.0445	926368	keystroke_p	p	n/a
463.1985	0.0745	926397	keystroke_o	o	n/a
464.2935	0.0905	928587	keystroke_t	t	n/a
465.509	0.12	931018	keystroke_Key.backspace	Key.backspace	n/a
465.5685	0.1205	931137	keystroke_t	t	n/a
465.884	0.1045	931768	keystroke_u	u	n/a
466.739	0.135	933478	keystroke_n	n	n/a
466.829	0.135	933658	keystroke_i	i	n/a
467.144	0.06	934288	keystroke_y	y	n/a
467.894	0.135	935788	keystroke_Key.backspace	Key.backspace	n/a
468.839	0.1195	937678	keystroke_t	t	n/a
468.914	0.1645	937828	keystroke_i	i	n/a
469.0485	0.1505	938097	keystroke_e	e	n/a
469.1385	0.1505	938277	keystroke_s	s	n/a
469.7385	0.1055	939477	keystroke_Key.space	Key.space	n/a
470.2935	0.105	940587	keystroke_Key.backspace	Key.backspace	n/a
470.579	0.1195	941158	keystroke_Key.enter	Key.enter	n/a
470.7045	8.186	941409	prompt	n/a	troy lips disagree gave\n
471.6285	0.0905	943257	keystroke_t	t	n/a
471.9135	0.015	943827	keystroke_r	r	n/a
471.9585	0.09	943917	keystroke_u	u	n/a
472.3185	0.09	944637	keystroke_Key.backspace	Key.backspace	n/a
472.8885	0.0905	945777	keystroke_o	o	n/a
473.234	0.1495	946468	keystroke_y	y	n/a
473.3685	0.15	946737	keystroke_Key.space	Key.space	n/a
474.164	0.0145	948328	keystroke_l	l	n/a
474.2535	0.15	948507	keystroke_i	i	n/a
474.4785	0.1655	948957	keystroke_p	p	n/a
474.599	0.135	949198	keystroke_s	s	n/a
474.763	0.121	949526	keystroke_Key.space	Key.space	n/a
475.1235	0.1355	950247	keystroke_d	d	n/a
475.2885	0.12	950577	keystroke_i	i	n/a
476.3385	0.1805	952677	keystroke_s	s	n/a
476.4295	0.1355	952859	keystroke_a	a	n/a
476.6985	0.106	953397	keystroke_g	g	n/a
477.1485	0.1205	954297	keystroke_r	r	n/a
477.239	0.09	954478	keystroke_e	e	n/a
477.404	0.165	954808	keystroke_e	e	n/a
477.599	0.12	955198	keystroke_Key.space	Key.space	n/a
478.124	0.0745	956248	keystroke_g	g	n/a
478.2585	0.121	956517	keystroke_a	a	n/a
478.4835	0.09	956967	keystroke_v	v	n/a
478.559	0.1195	957118	keystroke_e	e	n/a
478.7385	0.1505	957477	keystroke_Key.enter	Key.enter	n/a
478.8995	11.616	957799	prompt	n/a	households receptors container principle\n
480.0435	0.0905	960087	keystroke_h	h	n/a
480.119	0.105	960238	keystroke_o	o	n/a
480.3285	0.1055	960657	keystroke_u	u	n/a
480.419	0.1195	960838	keystroke_s	s	n/a
480.464	0.135	960928	keystroke_e	e	n/a
481.1535	0.0755	962307	keystroke_o	o	n/a
481.739	0.09	963478	keystroke_Key.backspace	Key.backspace	n/a
481.934	0.1045	963868	keystroke_h	h	n/a
482.0535	0.09	964107	keystroke_o	o	n/a
482.2335	0.1055	964467	keystroke_l	l	n/a
482.2785	0.135	964557	keystroke_d	d	n/a
482.3845	0.179	964769	keystroke_s	s	n/a
482.5935	0.135	965187	keystroke_Key.space	Key.space	n/a
483.134	0.105	966268	keystroke_r	r	n/a
483.194	0.1195	966388	keystroke_e	e	n/a
483.3885	0.121	966777	keystroke_c	c	n/a
483.4945	0.1185	966989	keystroke_e	e	n/a
483.628	0.1665	967256	keystroke_p	p	n/a
483.9135	0.12	967827	keystroke_t	t	n/a
484.0035	0.1505	968007	keystroke_o	o	n/a
484.4695	0.119	968939	keystroke_r	r	n/a
484.6485	0.1205	969297	keystroke_s	s	n/a
484.9635	0.1355	969927	keystroke_Key.space	Key.space	n/a
485.279	0.12	970558	keystroke_c	c	n/a
485.414	0.09	970828	keystroke_o	o	n/a
485.654	0.105	971308	keystroke_n	n	n/a
485.714	0.09	971428	keystroke_t	t	n/a
485.8785	0.075	971757	keystroke_a	a	n/a
485.939	0.1195	971878	keystroke_i	i	n/a
486.104	0.12	972208	keystroke_n	n	n/a
486.238	0.1505	972476	keystroke_e	e	n/a
486.299	0.1495	972598	keystroke_r	r	n/a
486.509	0.15	973018	keystroke_Key.space	Key.space	n/a
487.094	0.1195	974188	keystroke_p	p	n/a
487.2145	0.1345	974429	keystroke_r	r	n/a
487.364	0.12	974728	keystroke_i	i	n/a
487.573	0.106	975146	keystroke_n	n	n/a
487.693	0.136	975386	keystroke_c	c	n/a
487.844	0.15	975688	keystroke_i	i	n/a
488.099	0.135	976198	keystroke_p	p	n/a
488.264	0.091	976528	keystroke_s	s	n/a
488.639	0.045	977278	keystroke_Key.backspace	Key.backspace	n/a
489.074	0.1345	978148	keystroke_e	e	n/a
489.5985	0.1205	979197	keystroke_Key.backspace	Key.backspace	n/a
489.9895	0.119	979979	keystroke_l	l	n/a
490.0335	0.1955	980067	keystroke_e	e	n/a
490.3935	0.12	980787	keystroke_Key.enter	Key.enter	n/a
490.5195	11.741	981039	prompt	n/a	infections function saudi adequate\n
491.3235	0.15	982647	keystroke_i	i	n/a
491.3835	0.12	982767	keystroke_n	n	n/a
491.5635	0.12	983127	keystroke_f	f	n/a
491.6985	0.15	983397	keystroke_e	e	n/a
491.984	0.1045	983968	keystroke_c	c	n/a
492.209	0.1195	984418	keystroke_t	t	n/a
492.2695	0.149	984539	keystroke_i	i	n/a
492.344	0.195	984688	keystroke_o	o	n/a
492.449	0.12	984898	keystroke_n	n	n/a
492.614	0.15	985228	keystroke_s	s	n/a
492.883	0.121	985766	keystroke_Key.space	Key.space	n/a
493.7085	0.1055	987417	keystroke_f	f	n/a
493.904	0.105	987808	keystroke_u	u	n/a
493.919	0.045	987838	keystroke_i	i	n/a
493.934	0.119	987868	keystroke_n	n	n/a
494.429	0.12	988858	keystroke_c	c	n/a
495.284	0.0595	990568	keystroke_Key.backspace	Key.backspace	n/a
495.449	0.0445	990898	keystroke_Key.backspace	Key.backspace	n/a
495.5535	0.1045	991107	keystroke_Key.backspace	Key.backspace	n/a
496.108	0.1055	992216	keystroke_n	n	n/a
496.1685	0.105	992337	keystroke_c	c	n/a
496.4685	0.12	992937	keystroke_t	t	n/a
496.513	0.1205	993026	keystroke_i	i	n/a
496.5585	0.18	993117	keystroke_o	o	n/a
496.679	0.09	993358	keystroke_n	n	n/a
497.3235	0.135	994647	keystroke_Key.space	Key.space	n/a
497.9535	0.09	995907	keystroke_s	s	n/a
498.0135	0.12	996027	keystroke_a	a	n/a
499.1385	0.0905	998277	keystroke_u	u	n/a
499.2135	0.105	998427	keystroke_d	d	n/a
499.3335	0.135	998667	keystroke_i	i	n/a
499.5135	0.1655	999027	keystroke_Key.space	Key.space	n/a
500.0085	0.12	1000017	keystroke_a	a	n/a
500.3685	0.091	1000737	keystroke_d	d	n/a
500.5785	0.105	1001157	keystroke_e	e	n/a
501.389	0.1195	1002778	keystroke_q	q	n/a
501.524	0.1195	1003048	keystroke_u	u	n/a
501.5985	0.151	1003197	keystroke_a	a	n/a
501.794	0.1045	1003588	keystroke_t	t	n/a
501.8835	0.15	1003767	keystroke_e	e	n/a
502.1235	0.135	1004247	keystroke_Key.enter	Key.enter	n/a
502.2645	6.536	1004529	prompt	n/a	remain routes pill airports\n
503.099	0.075	1006198	keystroke_r	r	n/a
503.144	0.09	1006288	keystroke_e	e	n/a
503.3385	0.1205	1006677	keystroke_m	m	n/a
503.429	0.12	1006858	keystroke_a	a	n/a
503.609	0.1495	1007218	keystroke_i	i	n/a
503.7285	0.105	1007457	keystroke_n	n	n/a
504.134	0.1045	1008268	keystroke_Key.space	Key.space	n/a
504.9285	0.1205	1009857	keystroke_r	r	n/a
504.9885	0.0455	1009977	keystroke_o	o	n/a
505.1835	0.12	1010367	keystroke_u	u	n/a
505.214	0.075	1010428	keystroke_t	t	n/a
505.3335	0.18	1010667	keystroke_e	e	n/a
505.4985	0.15	1010997	keystroke_s	s	n/a
505.6635	0.1055	1011327	keystroke_Key.space	Key.space	n/a
506.248	0.151	1012496	keystroke_p	p	n/a
506.338	0.1355	1012676	keystroke_i	i	n/a
506.6245	0.089	1013249	keystroke_l	l	n/a
506.7885	0.12	1013577	keystroke_l	l	n/a
506.894	0.1045	1013788	keystroke_Key.space	Key.space	n/a
507.0135	0.1805	1014027	keystroke_a	a	n/a
507.254	0.1495	1014508	keystroke_i	i	n/a
507.3735	0.06	1014747	keystroke_r	r	n/a
507.6885	0.1955	1015377	keystroke_p	p	n/a
507.7945	0.1485	1015589	keystroke_o	o	n/a
508.153	0.121	1016306	keystroke_r	r	n/a
508.3185	0.1505	1016637	keystroke_t	t	n/a
508.4385	0.18	1016877	keystroke_s	s	n/a
508.633	0.1655	1017266	keystroke_Key.enter	Key.enter	n/a
508.805	7.6	1017610	prompt	n/a	elect commons exclude chest\n
509.459	0.1045	1018918	keystroke_e	e	n/a
509.8185	0.1795	1019637	keystroke_l	l	n/a
509.9235	0.1055	1019847	keystroke_e	e	n/a
510.1185	0.0755	1020237	keystroke_c	c	n/a
510.3135	0.075	1020627	keystroke_t	t	n/a
510.6585	0.105	1021317	keystroke_Key.space	Key.space	n/a
510.8985	0.105	1021797	keystroke_c	c	n/a
510.9585	0.135	1021917	keystroke_o	o	n/a
511.1685	0.075	1022337	keystroke_m	m	n/a
511.304	0.1345	1022608	keystroke_m	m	n/a
511.4235	0.18	1022847	keystroke_o	o	n/a
511.559	0.1045	1023118	keystroke_n	n	n/a
511.6785	0.1505	1023357	keystroke_s	s	n/a
511.8435	0.12	1023687	keystroke_Key.space	Key.space	n/a
512.2035	0.075	1024407	keystroke_e	e	n/a
512.4885	0.12	1024977	keystroke_x	x	n/a
512.7735	0.12	1025547	keystroke_c	c	n/a
512.9385	0.091	1025877	keystroke_l	l	n/a
513.3295	0.03	1026659	keystroke_o	o	n/a
514.2735	0.105	1028547	keystroke_Key.backspace	Key.backspace	n/a
514.8135	0.1055	1029627	keystroke_u	u	n/a
514.8735	0.0755	1029747	keystroke_d	d	n/a
515.0535	0.165	1030107	keystroke_e	e	n/a
515.2485	0.1355	1030497	keystroke_Key.space	Key.space	n/a
515.6385	0.1045	1031277	keystroke_c	c	n/a
515.7285	0.1195	1031457	keystroke_h	h	n/a
515.864	0.224	1031728	keystroke_e	e	n/a
515.9535	0.15	1031907	keystroke_s	s	n/a
516.0585	0.1215	1032117	keystroke_t	t	n/a
516.284	0.1195	1032568	keystroke_Key.enter	Key.enter	n/a
516.4085	10.032	1032817	prompt	n/a	trout retro edinburgh july\n
517.3035	0.09	1034607	keystroke_t	t	n/a
517.4835	0.105	1034967	keystroke_r	r	n/a
517.5585	0.1055	1035117	keystroke_o	o	n/a
517.7985	0.135	1035597	keystroke_u	u	n/a
517.9035	0.1055	1035807	keystroke_t	t	n/a
518.0235	0.1505	1036047	keystroke_Key.space	Key.space	n/a
518.714	0.1195	1037428	keystroke_r	r	n/a
518.789	0.1645	1037578	keystroke_e	e	n/a
519.059	0.105	1038118	keystroke_t	t	n/a
519.209	0.1205	1038418	keystroke_o	o	n/a
519.3135	0.121	1038627	keystroke_r	r	n/a
519.913	0.0755	1039826	keystroke_Key.backspace	Key.backspace	n/a
520.078	0.0755	1040156	keystroke_Key.backspace	Key.backspace	n/a
520.199	0.1195	1040398	keystroke_r	r	n/a
520.2735	0.18	1040547	keystroke_o	o	n/a
520.4835	0.135	1040967	keystroke_Key.space	Key.space	n/a
521.053	0.1055	1042106	keystroke_e	e	n/a
521.218	0.15	1042436	keystroke_d	d	n/a
521.354	0.134	1042708	keystroke_i	i	n/a
521.593	0.121	1043186	keystroke_n	n	n/a
522.0585	0.1045	1044117	keystroke_b	b	n/a
522.1485	0.105	1044297	keystroke_u	u	n/a
522.344	0.1355	1044688	keystroke_r	r	n/a
523.0345	0.134	1046069	keystroke_g	g	n/a
523.694	0.1045	1047388	keystroke_h	h	n/a
524.203	0.1055	1048406	keystroke_Key.space	Key.space	n/a
525.2085	0.1045	1050417	keystroke_j	j	n/a
525.269	0.12	1050538	keystroke_u	u	n/a
525.524	0.12	1051048	keystroke_l	l	n/a
526.019	0.1045	1052038	keystroke_y	y	n/a
526.319	0.1195	1052638	keystroke_Key.enter	Key.enter	n/a
526.445	7.51	1052890	prompt	n/a	accept funded nuclear witch\n
527.0835	0.135	1054167	keystroke_a	a	n/a
527.2785	0.0755	1054557	keystroke_c	c	n/a
527.459	0.0745	1054918	keystroke_c	c	n/a
527.5185	0.135	1055037	keystroke_e	e	n/a
528.479	0.12	1056958	keystroke_p	p	n/a
528.554	0.15	1057108	keystroke_t	t	n/a
528.719	0.12	1057438	keystroke_Key.space	Key.space	n/a
529.724	0.1045	1059448	keystroke_f	f	n/a
529.799	0.135	1059598	keystroke_u	u	n/a
529.874	0.135	1059748	keystroke_n	n	n/a
530.099	0.0745	1060198	keystroke_d	d	n/a
530.2485	0.121	1060497	keystroke_e	e	n/a
530.444	0.165	1060888	keystroke_d	d	n/a
530.5785	0.1355	1061157	keystroke_Key.space	Key.space	n/a
530.983	0.136	1061966	keystroke_n	n	n/a
531.029	0.1195	1062058	keystroke_u	u	n/a
531.104	0.1205	1062208	keystroke_c	c	n/a
531.3735	0.135	1062747	keystroke_l	l	n/a
531.3885	0.135	1062777	keystroke_e	e	n/a
531.4935	0.1655	1062987	keystroke_a	a	n/a
531.6735	0.1355	1063347	keystroke_r	r	n/a
532.3185	0.136	1064637	keystroke_Key.space	Key.space	n/a
532.664	0.151	1065328	keystroke_w	w	n/a
532.964	0.1345	1065928	keystroke_h	h	n/a
533.039	0.1495	1066078	keystroke_i	i	n/a
533.1735	0.135	1066347	keystroke_c	c	n/a
533.2935	0.1205	1066587	keystroke_h	h	n/a
533.8335	0.12	1067667	keystroke_Key.enter	Key.enter	n/a
533.9595	9.297	1067919	prompt	n/a	horrible litigation reward weighted\n
534.9435	0.12	1069887	keystroke_h	h	n/a
535.0335	0.0895	1070067	keystroke_o	o	n/a
535.334	0.06	1070668	keystroke_r	r	n/a
535.514	0.075	1071028	keystroke_r	r	n/a
535.544	0.1045	1071088	keystroke_i	i	n/a
535.7835	0.06	1071567	keystroke_v	v	n/a
535.8735	0.075	1071747	keystroke_l	l	n/a
536.339	0.06	1072678	keystroke_Key.backspace	Key.backspace	n/a
536.579	0.135	1073158	keystroke_b	b	n/a
536.7585	0.075	1073517	keystroke_Key.backspace	Key.backspace	n/a
536.894	0.1205	1073788	keystroke_Key.backspace	Key.backspace	n/a
536.984	0.1345	1073968	keystroke_b	b	n/a
537.809	0.12	1075618	keystroke_l	l	n/a
537.898	0.1655	1075796	keystroke_e	e	n/a
538.709	0.119	1077418	keystroke_Key.space	Key.space	n/a
539.0535	0.1045	1078107	keystroke_r	r	n/a
539.114	0.1505	1078228	keystroke_e	e	n/a
539.339	0.075	1078678	keystroke_q	q	n/a
539.984	0.1045	1079968	keystroke_Key.backspace	Key.backspace	n/a
540.1035	0.1505	1080207	keystroke_w	w	n/a
540.149	0.165	1080298	keystroke_a	a	n/a
540.359	0.12	1080718	keystroke_r	r	n/a
540.5535	0.1505	1081107	keystroke_d	d	n/a
540.824	0.1345	1081648	keystroke_Key.space	Key.space	n/a
541.3935	0.1805	1082787	keystroke_w	w	n/a
541.5285	0.1055	1083057	keystroke_e	e	n/a
541.664	0.1195	1083328	keystroke_i	i	n/a
541.994	0.1195	1083988	keystroke_g	g	n/a
542.0835	0.1355	1084167	keystroke_h	h	n/a
542.3385	0.105	1084677	keystroke_t	t	n/a
542.4285	0.151	1084857	keystroke_e	e	n/a
542.6385	0.135	1085277	keystroke_d	d	n/a
543.1485	0.1055	1086297	keystroke_Key.enter	Key.enter	n/a
543.2605	10.675	1086521	prompt	n/a	implies copies happy challenge\n
544.094	0.1345	1088188	keystroke_i	i	n/a
544.1545	0.1045	1088309	keystroke_m	m	n/a
544.498	0.1355	1088996	keystroke_l	l	n/a
544.679	0.164	1089358	keystroke_i	i	n/a
544.813	0.255	1089626	keystroke_e	e	n/a
544.978	0.1655	1089956	keystroke_s	s	n/a
545.1735	0.12	1090347	keystroke_Key.space	Key.space	n/a
545.4135	0.1205	1090827	keystroke_c	c	n/a
545.5035	0.165	1091007	keystroke_p	p	n/a
545.9385	0.106	1091877	keystroke_Key.backspace	Key.backspace	n/a
546.1045	0.074	1092209	keystroke_Key.backspace	Key.backspace	n/a
546.2235	0.06	1092447	keystroke_Key.backspace	Key.backspace	n/a
546.3585	0.06	1092717	keystroke_Key.backspace	Key.backspace	n/a
546.493	0.061	1092986	keystroke_Key.backspace	Key.backspace	n/a
546.5985	0.1205	1093197	keystroke_Key.backspace	Key.backspace	n/a
546.9885	0.0895	1093977	keystroke_Key.backspace	Key.backspace	n/a
547.544	0.09	1095088	keystroke_p	p	n/a
547.7835	0.09	1095567	keystroke_l	l	n/a
547.9335	0.1655	1095867	keystroke_i	i	n/a
548.039	0.18	1096078	keystroke_e	e	n/a
548.1435	0.18	1096287	keystroke_s	s	n/a
548.338	0.1355	1096676	keystroke_Key.space	Key.space	n/a
548.8175	0.136	1097635	keystroke_c	c	n/a
548.9085	0.27	1097817	keystroke_o	o	n/a
549.119	0.135	1098238	keystroke_p	p	n/a
549.554	0.135	1099108	keystroke_i	i	n/a
549.628	0.196	1099256	keystroke_e	e	n/a
549.719	0.135	1099438	keystroke_s	s	n/a
550.3185	0.135	1100637	keystroke_Key.space	Key.space	n/a
550.8595	0.104	1101719	keystroke_h	h	n/a
550.9485	0.105	1101897	keystroke_a	a	n/a
551.0685	0.09	1102137	keystroke_p	p	n/a
551.2335	0.135	1102467	keystroke_p	p	n/a
551.669	0.15	1103338	keystroke_y	y	n/a
551.804	0.1645	1103608	keystroke_Key.space	Key.space	n/a
552.239	0.105	1104478	keystroke_c	c	n/a
552.4485	0.121	1104897	keystroke_h	h	n/a
552.5085	0.121	1105017	keystroke_a	a	n/a
552.7635	0.1055	1105527	keystroke_l	l	n/a
552.9285	0.12	1105857	keystroke_l	l	n/a
553.064	0.1345	1106128	keystroke_e	e	n/a
553.319	0.1195	1106638	keystroke_n	n	n/a
553.4235	0.1055	1106847	keystroke_g	g	n/a
553.5745	0.165	1107149	keystroke_e	e	n/a
553.8435	0.09	1107687	keystroke_Key.enter	Key.enter	n/a
553.9395	13.6905	1107879	prompt	n/a	lowest persian portsmouth hypothesis\n
554.323	0.1355	1108646	keystroke_Key.space	Key.space	n/a
555.089	0.12	1110178	keystroke_Key.backspace	Key.backspace	n/a
555.704	0.075	1111408	keystroke_l	l	n/a
555.854	0.181	1111708	keystroke_o	o	n/a
555.944	0.12	1111888	keystroke_w	w	n/a
556.004	0.21	1112008	keystroke_e	e	n/a
556.229	0.15	1112458	keystroke_s	s	n/a
556.394	0.1205	1112788	keystroke_t	t	n/a
556.664	0.104	1113328	keystroke_Key.space	Key.space	n/a
557.0835	0.1205	1114167	keystroke_p	p	n/a
557.1435	0.1345	1114287	keystroke_e	e	n/a
557.218	0.136	1114436	keystroke_r	r	n/a
557.444	0.135	1114888	keystroke_i	i	n/a
557.518	0.105	1115036	keystroke_s	s	n/a
557.744	0.105	1115488	keystroke_a	a	n/a
558.164	0.1045	1116328	keystroke_n	n	n/a
558.4335	0.121	1116867	keystroke_Key.space	Key.space	n/a
558.8385	0.1205	1117677	keystroke_p	p	n/a
558.989	0.105	1117978	keystroke_r	r	n/a
559.108	0.165	1118216	keystroke_o	o	n/a
559.8885	0.0905	1119777	keystroke_Key.backspace	Key.backspace	n/a
560.293	0.121	1120586	keystroke_Key.backspace	Key.backspace	n/a
561.403	0.09	1122806	keystroke_o	o	n/a
561.4635	0.12	1122927	keystroke_r	r	n/a
561.674	0.1195	1123348	keystroke_t	t	n/a
562.1235	0.105	1124247	keystroke_s	s	n/a
563.369	0.06	1126738	keystroke_m	m	n/a
563.4435	0.0905	1126887	keystroke_o	o	n/a
564.3425	0.0915	1128685	keystroke_u	u	n/a
564.419	0.135	1128838	keystroke_t	t	n/a
564.5385	0.1355	1129077	keystroke_h	h	n/a
564.7335	0.1205	1129467	keystroke_Key.space	Key.space	n/a
565.4535	0.1055	1130907	keystroke_h	h	n/a
565.4985	0.106	1130997	keystroke_y	y	n/a
565.919	0.075	1131838	keystroke_p	p	n/a
566.083	0.121	1132166	keystroke_o	o	n/a
566.3385	0.12	1132677	keystroke_t	t	n/a
566.4135	0.135	1132827	keystroke_h	h	n/a
566.5635	0.165	1133127	keystroke_e	e	n/a
566.714	0.135	1133428	keystroke_s	s	n/a
567.089	0.1345	1134178	keystroke_i	i	n/a
567.194	0.135	1134388	keystroke_s	s	n/a
567.4935	0.135	1134987	keystroke_Key.enter	Key.enter	n/a
567.634	10.947	1135268	prompt	n/a	views thermal generator 'tis\n
568.4385	0.0905	1136877	keystroke_v	v	n/a
568.5435	0.1505	1137087	keystroke_e	e	n/a
568.6185	0.12	1137237	keystroke_i	i	n/a
568.799	0.165	1137598	keystroke_s	s	n/a
569.534	0.12	1139068	keystroke_Key.backspace	Key.backspace	n/a
569.609	0.105	1139218	keystroke_w	w	n/a
569.939	0.075	1139878	keystroke_Key.backspace	Key.backspace	n/a
570.089	0.06	1140178	keystroke_Key.backspace	Key.backspace	n/a
570.224	0.0595	1140448	keystroke_Key.backspace	Key.backspace	n/a
571.0785	0.12	1142157	keystroke_i	i	n/a
571.169	0.1645	1142338	keystroke_e	e	n/a
571.3485	0.18	1142697	keystroke_w	w	n/a
571.5895	0.1645	1143179	keystroke_s	s	n/a
571.9335	0.1345	1143867	keystroke_Key.space	Key.space	n/a
572.4135	0.0605	1144827	keystroke_t	t	n/a
572.458	0.105	1144916	keystroke_h	h	n/a
572.5485	0.165	1145097	keystroke_e	e	n/a
572.639	0.1345	1145278	keystroke_r	r	n/a
572.8035	0.135	1145607	keystroke_m	m	n/a
572.894	0.1195	1145788	keystroke_a	a	n/a
573.0735	0.15	1146147	keystroke_l	l	n/a
573.3285	0.12	1146657	keystroke_Key.space	Key.space	n/a
573.899	0.105	1147798	keystroke_g	g	n/a
573.989	0.1195	1147978	keystroke_e	e	n/a
574.1235	0.15	1148247	keystroke_n	n	n/a
574.229	0.1795	1148458	keystroke_e	e	n/a
574.4835	0.136	1148967	keystroke_r	r	n/a
574.604	0.1195	1149208	keystroke_a	a	n/a
574.8435	0.12	1149687	keystroke_t	t	n/a
574.9785	0.15	1149957	keystroke_o	o	n/a
575.1435	0.1355	1150287	keystroke_r	r	n/a
576.013	0.091	1152026	keystroke_Key.space	Key.space	n/a
577.4245	0.119	1154849	keystroke_'	'	n/a
577.8285	0.105	1155657	keystroke_t	t	n/a
577.9185	0.12	1155837	keystroke_i	i	n/a
578.0085	0.1805	1156017	keystroke_s	s	n/a
578.443	0.136	1156886	keystroke_Key.enter	Key.enter	n/a
578.591	11.6005	1157182	prompt	n/a	toyota chambers messages sector\n
579.479	0.1195	1158958	keystroke_t	t	n/a
579.5685	0.1205	1159137	keystroke_o	o	n/a
579.72	0.104	1159440	keystroke_t	t	n/a
579.9585	0.09	1159917	keystroke_u	u	n/a
580.379	0.105	1160758	keystroke_Key.backspace	Key.backspace	n/a
580.5435	0.1195	1161087	keystroke_Key.backspace	Key.backspace	n/a
581.1885	0.151	1162377	keystroke_u	u	n/a
581.6685	0.135	1163337	keystroke_Key.backspace	Key.backspace	n/a
582.1185	0.1355	1164237	keystroke_y	y	n/a
582.224	0.15	1164448	keystroke_o	o	n/a
582.404	0.1045	1164808	keystroke_t	t	n/a
582.5685	0.12	1165137	keystroke_a	a	n/a
583.0485	0.135	1166097	keystroke_Key.space	Key.space	n/a
583.2285	0.1355	1166457	keystroke_c	c	n/a
583.3485	0.105	1166697	keystroke_h	h	n/a
583.424	0.1195	1166848	keystroke_a	a	n/a
583.6485	0.105	1167297	keystroke_m	m	n/a
583.9785	0.1345	1167957	keystroke_b	b	n/a
584.0685	0.1645	1168137	keystroke_e	e	n/a
584.1585	0.12	1168317	keystroke_r	r	n/a
584.4285	0.135	1168857	keystroke_s	s	n/a
584.6685	0.105	1169337	keystroke_Key.space	Key.space	n/a
584.9685	0.135	1169937	keystroke_m	m	n/a
585.0285	0.135	1170057	keystroke_e	e	n/a
585.4485	0.09	1170897	keystroke_s	s	n/a
585.6285	0.091	1171257	keystroke_s	s	n/a
585.8385	0.106	1171677	keystroke_a	a	n/a
586.0485	0.09	1172097	keystroke_g	g	n/a
586.1235	0.03	1172247	keystroke_f	f	n/a
586.1685	0.165	1172337	keystroke_e	e	n/a
586.2585	0.1655	1172517	keystroke_s	s	n/a
586.8135	0.105	1173627	keystroke_Key.backspace	Key.backspace	n/a
586.9785	0.045	1173957	keystroke_Key.backspace	Key.backspace	n/a
587.0835	0.1055	1174167	keystroke_Key.backspace	Key.backspace	n/a
587.399	0.135	1174798	keystroke_e	e	n/a
587.564	0.18	1175128	keystroke_s	s	n/a
587.9535	0.1195	1175907	keystroke_Key.space	Key.space	n/a
588.524	0.179	1177048	keystroke_s	s	n/a
588.629	0.135	1177258	keystroke_e	e	n/a
588.8535	0.1055	1177707	keystroke_c	c	n/a
589.078	0.0905	1178156	keystroke_t	t	n/a
589.198	0.1205	1178396	keystroke_o	o	n/a
589.2735	0.1045	1178547	keystroke_r	r	n/a
590.0685	0.12	1180137	keystroke_Key.enter	Key.enter	n/a
590.2085	7.287	1180417	prompt	n/a	pixels choosing edge cleaner\n
591.3285	0.15	1182657	keystroke_p	p	n/a
591.5085	0.15	1183017	keystroke_i	i	n/a
591.644	0.1195	1183288	keystroke_x	x	n/a
591.7785	0.135	1183557	keystroke_e	e	n/a
591.959	0.12	1183918	keystroke_l	l	n/a
592.184	0.135	1184368	keystroke_s	s	n/a
592.378	0.151	1184756	keystroke_Key.space	Key.space	n/a
592.6635	0.1205	1185327	keystroke_c	c	n/a
592.948	0.106	1185896	keystroke_h	h	n/a
593.1735	0.0905	1186347	keystroke_o	o	n/a
593.3385	0.12	1186677	keystroke_o	o	n/a
593.5335	0.105	1187067	keystroke_s	s	n/a
593.6535	0.1055	1187307	keystroke_i	i	n/a
593.894	0.1345	1187788	keystroke_n	n	n/a
593.984	0.135	1187968	keystroke_g	g	n/a
594.2535	0.0895	1188507	keystroke_Key.space	Key.space	n/a
594.6135	0.1055	1189227	keystroke_e	e	n/a
594.808	0.0905	1189616	keystroke_d	d	n/a
595.018	0.09	1190036	keystroke_g	g	n/a
595.079	0.15	1190158	keystroke_e	e	n/a
595.363	0.1055	1190726	keystroke_Key.space	Key.space	n/a
595.9035	0.1055	1191807	keystroke_c	c	n/a
595.993	0.1205	1191986	keystroke_l	l	n/a
596.1435	0.105	1192287	keystroke_e	e	n/a
596.2185	0.165	1192437	keystroke_a	a	n/a
596.3985	0.12	1192797	keystroke_n	n	n/a
596.5485	0.165	1193097	keystroke_e	e	n/a
596.683	0.09	1193366	keystroke_r	r	n/a
597.3585	0.1355	1194717	keystroke_Key.enter	Key.enter	n/a
597.5	7.1205	1195000	prompt	n/a	permit prisoners genre hide\n
598.349	0.119	1196698	keystroke_p	p	n/a
