onset	duration	sample	value	key	prompt_text
3.968	16.036	7936	prompt	n/a	the quick brown fox jumps over a lazy dog\n
6.4855	0.058	12971	keystroke_t	t	n/a
6.5285	0.091	13057	keystroke_h	h	n/a
6.6035	0.0905	13207	keystroke_e	e	n/a
6.8135	0.09	13627	keystroke_Key.space	Key.space	n/a
7.2945	0.0905	14589	keystroke_q	q	n/a
7.4	0.075	14800	keystroke_u	u	n/a
7.5655	0.0745	15131	keystroke_i	i	n/a
7.76	0.075	15520	keystroke_c	c	n/a
7.85	0.0755	15700	keystroke_k	k	n/a
8.045	0.075	16090	keystroke_Key.space	Key.space	n/a
8.4055	0.105	16811	keystroke_v	v	n/a
8.81	0.09	17620	keystroke_Key.backspace	Key.backspace	n/a
8.945	0.0905	17890	keystroke_b	b	n/a
8.9905	0.1195	17981	keystroke_r	r	n/a
9.725	0.1055	19450	keystroke_i	i	n/a
9.8155	0.075	19631	keystroke_w	w	n/a
9.966	0.059	19932	keystroke_n	n	n/a
11.1645	0.046	22329	keystroke_Key.backspace	Key.backspace	n/a
11.27	0.075	22540	keystroke_Key.backspace	Key.backspace	n/a
11.4055	0.074	22811	keystroke_Key.backspace	Key.backspace	n/a
12.0505	0.075	24101	keystroke_o	o	n/a
12.3505	0.09	24701	keystroke_w	w	n/a
12.4255	0.075	24851	keystroke_n	n	n/a
12.591	0.0745	25182	keystroke_Key.space	Key.space	n/a
13.1005	0.06	26201	keystroke_f	f	n/a
13.445	0.075	26890	keystroke_o	o	n/a
13.58	0.075	27160	keystroke_x	x	n/a
13.685	0.106	27370	keystroke_Key.space	Key.space	n/a
13.941	0.134	27882	keystroke_j	j	n/a
14.166	0.0745	28332	keystroke_u	u	n/a
14.361	0.044	28722	keystroke_m	m	n/a
14.496	0.089	28992	keystroke_p	p	n/a
14.586	0.09	29172	keystroke_s	s	n/a
14.72	0.075	29440	keystroke_Key.space	Key.space	n/a
14.916	0.089	29832	keystroke_o	o	n/a
15.02	0.0905	30040	keystroke_v	v	n/a
15.17	0.12	30340	keystroke_e	e	n/a
15.411	0.1045	30822	keystroke_Key.space	Key.space	n/a
15.7855	0.075	31571	keystroke_Key.backspace	Key.backspace	n/a
15.8905	0.09	31781	keystroke_r	r	n/a
15.9955	0.075	31991	keystroke_a	a	n/a
16.1155	0.045	32231	keystroke_Key.space	Key.space	n/a
16.6855	0.06	33371	keystroke_Key.backspace	Key.backspace	n/a
16.9255	0.075	33851	keystroke_Key.backspace	Key.backspace	n/a
17.195	0.091	34390	keystroke_Key.space	Key.space	n/a
17.33	0.0455	34660	keystroke_a	a	n/a
17.4205	0.075	34841	keystroke_Key.space	Key.space	n/a
17.916	0.0895	35832	keystroke_l	l	n/a
17.9605	0.06	35921	keystroke_a	a	n/a
18.3505	0.0605	36701	keystroke_z	z	n/a
18.4405	0.075	36881	keystroke_y	y	n/a
18.9055	0.06	37811	keystroke_Key.space	Key.space	n/a
19.1755	0.105	38351	keystroke_d	d	n/a
19.2955	0.0905	38591	keystroke_o	o	n/a
19.4455	0.045	38891	keystroke_g	g	n/a
19.911	0.0895	39822	keystroke_Key.enter	Key.enter	n/a
20.0105	9.397	40021	prompt	n/a	consent range civilization calendars\n
20.8855	0.06	41771	keystroke_c	c	n/a
20.9605	0.1355	41921	keystroke_o	o	n/a
21.05	0.09	42100	keystroke_n	n	n/a
21.155	0.1055	42310	keystroke_s	s	n/a
21.335	0.106	42670	keystroke_e	e	n/a
21.4555	0.0895	42911	keystroke_n	n	n/a
21.531	0.075	43062	keystroke_t	t	n/a
21.635	0.09	43270	keystroke_Key.space	Key.space	n/a
21.876	0.09	43752	keystroke_r	r	n/a
22.056	0.074	44112	keystroke_a	a	n/a
22.176	0.09	44352	keystroke_n	n	n/a
22.28	0.09	44560	keystroke_g	g	n/a
22.325	0.121	44650	keystroke_e	e	n/a
22.6705	0.0745	45341	keystroke_Key.space	Key.space	n/a
23.091	0.0895	46182	keystroke_c	c	n/a
23.195	0.09	46390	keystroke_i	i	n/a
23.331	0.089	46662	keystroke_v	v	n/a
23.406	0.06	46812	keystroke_i	i	n/a
23.601	0.074	47202	keystroke_l	l	n/a
23.7805	0.0755	47561	keystroke_i	i	n/a
24.291	0.105	48582	keystroke_z	z	n/a
24.561	0.119	49122	keystroke_a	a	n/a
24.756	0.0745	49512	keystroke_t	t	n/a
24.8155	0.135	49631	keystroke_i	i	n/a
24.8755	0.12	49751	keystroke_o	o	n/a
24.936	0.0895	49872	keystroke_n	n	n/a
25.8505	0.12	51701	keystroke_Key.space	Key.space	n/a
26.1505	0.0905	52301	keystroke_c	c	n/a
26.3005	0.03	52601	keystroke_a	a	n/a
26.3605	0.09	52721	keystroke_l	l	n/a
27.216	0.0895	54432	keystroke_a	a	n/a
27.6205	0.09	55241	keystroke_Key.backspace	Key.backspace	n/a
27.7255	0.0905	55451	keystroke_e	e	n/a
27.936	0.075	55872	keystroke_n	n	n/a
28.0255	0.105	56051	keystroke_d	d	n/a
28.4305	0.1805	56861	keystroke_a	a	n/a
28.6255	0.0905	57251	keystroke_r	r	n/a
28.8055	0.12	57611	keystroke_s	s	n/a
29.3305	0.075	58661	keystroke_Key.enter	Key.enter	n/a
29.4125	4.81	58825	prompt	n/a	tire ozone snow hats\n
30.231	0.075	60462	keystroke_t	t	n/a
30.3505	0.1055	60701	keystroke_i	i	n/a
30.4705	0.045	60941	keystroke_r	r	n/a
30.4855	0.1055	60971	keystroke_e	e	n/a
30.606	0.0745	61212	keystroke_Key.space	Key.space	n/a
30.816	0.0895	61632	keystroke_o	o	n/a
31.221	0.075	62442	keystroke_z	z	n/a
31.341	0.075	62682	keystroke_o	o	n/a
31.4	0.15	62800	keystroke_n	n	n/a
31.491	0.09	62982	keystroke_e	e	n/a
31.625	0.091	63250	keystroke_Key.space	Key.space	n/a
32.2705	0.075	64541	keystroke_s	s	n/a
32.3465	0.104	64693	keystroke_n	n	n/a
32.511	0.075	65022	keystroke_o	o	n/a
32.5555	0.09	65111	keystroke_w	w	n/a
32.721	0.09	65442	keystroke_Key.space	Key.space	n/a
33.171	0.045	66342	keystroke_h	h	n/a
33.216	0.119	66432	keystroke_a	a	n/a
33.441	0.09	66882	keystroke_t	t	n/a
33.786	0.089	67572	keystroke_s	s	n/a
34.191	0.029	68382	keystroke_Key.enter	Key.enter	n/a
34.227	9.4615	68454	prompt	n/a	celebration preservation property fastest\n
35.181	0.0895	70362	keystroke_c	c	n/a
35.286	0.0895	70572	keystroke_e	e	n/a
35.436	0.0745	70872	keystroke_l	l	n/a
35.556	0.075	71112	keystroke_e	e	n/a
35.7955	0.105	71591	keystroke_b	b	n/a
35.9755	0.1055	71951	keystroke_r	r	n/a
36.2755	0.0605	72551	keystroke_a	a	n/a
36.4105	0.09	72821	keystroke_t	t	n/a
36.486	0.1345	72972	keystroke_i	i	n/a
36.561	0.0895	73122	keystroke_o	o	n/a
36.6055	0.09	73211	keystroke_n	n	n/a
36.906	0.0895	73812	keystroke_Key.space	Key.space	n/a
37.1455	0.105	74291	keystroke_p	p	n/a
37.206	0.0895	74412	keystroke_r	r	n/a
37.2505	0.1055	74501	keystroke_e	e	n/a
37.5055	0.105	75011	keystroke_s	s	n/a
37.761	0.105	75522	keystroke_e	e	n/a
37.836	0.09	75672	keystroke_r	r	n/a
38.0755	0.075	76151	keystroke_v	v	n/a
38.3305	0.1055	76661	keystroke_a	a	n/a
38.5705	0.0755	77141	keystroke_t	t	n/a
38.6605	0.195	77321	keystroke_i	i	n/a
38.766	0.1045	77532	keystroke_o	o	n/a
38.811	0.105	77622	keystroke_n	n	n/a
39.291	0.06	78582	keystroke_Key.space	Key.space	n/a
39.516	0.0895	79032	keystroke_p	p	n/a
39.6205	0.0755	79241	keystroke_r	r	n/a
39.711	0.164	79422	keystroke_o	o	n/a
39.861	0.06	79722	keystroke_p	p	n/a
39.936	0.105	79872	keystroke_e	e	n/a
39.996	0.104	79992	keystroke_r	r	n/a
40.161	0.0745	80322	keystroke_t	t	n/a
41.105	0.075	82210	keystroke_y	y	n/a
41.616	0.075	83232	keystroke_Key.space	Key.space	n/a
42.021	0.075	84042	keystroke_f	f	n/a
42.066	0.06	84132	keystroke_e	e	n/a
42.4105	0.09	84821	keystroke_Key.backspace	Key.backspace	n/a
42.4865	0.119	84973	keystroke_a	a	n/a
42.5455	0.12	85091	keystroke_s	s	n/a
42.771	0.09	85542	keystroke_t	t	n/a
42.831	0.105	85662	keystroke_e	e	n/a
43.101	0.09	86202	keystroke_s	s	n/a
43.2805	0.075	86561	keystroke_t	t	n/a
43.566	0.12	87132	keystroke_Key.enter	Key.enter	n/a
43.693	17.9345	87386	prompt	n/a	gaming enhancements illinois toyota\n
44.631	0.075	89262	keystroke_g	g	n/a
44.766	0.09	89532	keystroke_a	a	n/a
44.841	0.09	89682	keystroke_m	m	n/a
44.976	0.12	89952	keystroke_i	i	n/a
45.051	0.09	90102	keystroke_n	n	n/a
45.156	0.0895	90312	keystroke_g	g	n/a
45.261	0.0895	90522	keystroke_Key.space	Key.space	n/a
46.041	0.09	92082	keystroke_e	e	n/a
46.116	0.075	92232	keystroke_n	n	n/a
46.281	0.09	92562	keystroke_c	c	n/a
46.326	0.075	92652	keystroke_h	h	n/a
46.386	0.15	92772	keystroke_a	a	n/a
46.5205	0.0755	93041	keystroke_n	n	n/a
46.611	0.12	93222	keystroke_c	c	n/a
46.746	0.075	93492	keystroke_e	e	n/a
46.911	0.105	93822	keystroke_m	m	n/a
47.001	0.06	94002	keystroke_e	e	n/a
47.091	0.105	94182	keystroke_n	n	n/a
47.121	0.09	94242	keystroke_t	t	n/a
47.361	0.09	94722	keystroke_s	s	n/a
48.111	0.075	96222	keystroke_Key.space	Key.space	n/a
48.321	0.075	96642	keystroke_i	i	n/a
48.546	0.06	97092	keystroke_l	l	n/a
48.651	0.075	97302	keystroke_l	l	n/a
48.831	0.075	97662	keystroke_i	i	n/a
50.3455	0.0605	100691	keystroke_Key.backspace	Key.backspace	n/a
50.4805	0.0605	100961	keystroke_Key.backspace	Key.backspace	n/a
50.6005	0.075	101201	keystroke_Key.backspace	Key.backspace	n/a
50.7205	0.075	101441	keystroke_Key.backspace	Key.backspace	n/a
50.841	0.0595	101682	keystroke_Key.backspace	Key.backspace	n/a
50.9455	0.075	101891	keystroke_Key.backspace	Key.backspace	n/a
51.066	0.0745	102132	keystroke_Key.backspace	Key.backspace	n/a
51.2005	0.0605	102401	keystroke_Key.backspace	Key.backspace	n/a
51.3205	0.0745	102641	keystroke_Key.backspace	Key.backspace	n/a
51.441	0.06	102882	keystroke_Key.backspace	Key.backspace	n/a
51.575	0.061	103150	keystroke_Key.backspace	Key.backspace	n/a
51.725	0.046	103450	keystroke_Key.backspace	Key.backspace	n/a
51.831	0.06	103662	keystroke_Key.backspace	Key.backspace	n/a
51.966	0.059	103932	keystroke_Key.backspace	Key.backspace	n/a
52.086	0.06	104172	keystroke_Key.backspace	Key.backspace	n/a
52.205	0.046	104410	keystroke_Key.backspace	Key.backspace	n/a
52.746	0.09	105492	keystroke_h	h	n/a
52.8505	0.0905	105701	keystroke_a	a	n/a
52.986	0.0745	105972	keystroke_n	n	n/a
53.1055	0.0755	106211	keystroke_c	c	n/a
53.166	0.1045	106332	keystroke_e	e	n/a
53.4505	0.075	106901	keystroke_m	m	n/a
53.5555	0.09	107111	keystroke_e	e	n/a
53.6305	0.1055	107261	keystroke_n	n	n/a
53.691	0.075	107382	keystroke_t	t	n/a
54.2005	0.0605	108401	keystroke_s	s	n/a
54.831	0.045	109662	keystroke_Key.space	Key.space	n/a
55.101	0.06	110202	keystroke_i	i	n/a
55.296	0.06	110592	keystroke_l	l	n/a
55.401	0.0745	110802	keystroke_l	l	n/a
55.5505	0.0755	111101	keystroke_i	i	n/a
55.776	0.0745	111552	keystroke_n	n	n/a
56.016	0.1345	112032	keystroke_o	o	n/a
56.1205	0.09	112241	keystroke_i	i	n/a
56.2715	0.0895	112543	keystroke_s	s	n/a
58.462	0.013	116924	keystroke_Key.space	Key.space	n/a
58.6555	0.0755	117311	keystroke_t	t	n/a
58.7465	0.104	117493	keystroke_o	o	n/a
58.881	0.0895	117762	keystroke_y	y	n/a
59.1805	0.0755	118361	keystroke_a	a	n/a
59.3305	0.09	118661	keystroke_o	o	n/a
59.4505	0.09	118901	keystroke_t	t	n/a
59.7505	0.0605	119501	keystroke_Key.backspace	Key.backspace	n/a
59.901	0.0445	119802	keystroke_Key.backspace	Key.backspace	n/a
60.0205	0.075	120041	keystroke_Key.backspace	Key.backspace	n/a
60.231	0.0905	120462	keystroke_o	o	n/a
60.261	0.0895	120522	keystroke_t	t	n/a
60.3655	0.061	120731	keystroke_a	a	n/a
61.566	0.059	123132	keystroke_Key.enter	Key.enter	n/a
61.632	11.8165	123264	prompt	n/a	conference parts certainly diploma\n
62.7955	0.09	125591	keystroke_c	c	n/a
62.9005	0.03	125801	keystroke_o	o	n/a
62.9155	0.06	125831	keystroke_n	n	n/a
63.5305	0.091	127061	keystroke_e	e	n/a
63.891	0.09	127782	keystroke_Key.backspace	Key.backspace	n/a
63.996	0.09	127992	keystroke_f	f	n/a
64.101	0.09	128202	keystroke_e	e	n/a
64.146	0.09	128292	keystroke_r	r	n/a
64.686	0.0755	129372	keystroke_e	e	n/a
64.8215	0.1045	129643	keystroke_n	n	n/a
64.9405	0.075	129881	keystroke_c	c	n/a
64.9705	0.105	129941	keystroke_e	e	n/a
65.226	0.0745	130452	keystroke_Key.space	Key.space	n/a
65.436	0.1045	130872	keystroke_p	p	n/a
65.5115	0.164	131023	keystroke_a	a	n/a
65.6465	0.074	131293	keystroke_r	r	n/a
65.7955	0.075	131591	keystroke_t	t	n/a
65.9305	0.106	131861	keystroke_s	s	n/a
66.1115	0.089	132223	keystroke_Key.space	Key.space	n/a
66.981	0.075	133962	keystroke_c	c	n/a
67.116	0.12	134232	keystroke_e	e	n/a
67.326	0.075	134652	keystroke_r	r	n/a
67.9715	0.074	135943	keystroke_t	t	n/a
68.1655	0.121	136331	keystroke_a	a	n/a
68.226	0.1045	136452	keystroke_i	i	n/a
68.301	0.075	136602	keystroke_n	n	n/a
68.4505	0.12	136901	keystroke_l	l	n/a
68.5555	0.075	137111	keystroke_y	y	n/a
68.976	0.075	137952	keystroke_Key.space	Key.space	n/a
70.311	0.075	140622	keystroke_d	d	n/a
70.731	0.075	141462	keystroke_i	i	n/a
70.986	0.045	141972	keystroke_p	p	n/a
71.916	0.0745	143832	keystroke_l	l	n/a
72.1255	0.045	144251	keystroke_o	o	n/a
72.5155	0.0605	145031	keystroke_m	m	n/a
72.6355	0.0755	145271	keystroke_a	a	n/a
73.3555	0.09	146711	keystroke_Key.enter	Key.enter	n/a
73.453	12.6105	146906	prompt	n/a	stuck posted nationally wild\n
74.3455	0.1055	148691	keystroke_s	s	n/a
74.601	0.06	149202	keystroke_t	t	n/a
74.7055	0.045	149411	keystroke_u	u	n/a
74.811	0.1055	149622	keystroke_c	c	n/a
74.8865	0.105	149773	keystroke_k	k	n/a
75.4405	0.0755	150881	keystroke_Key.space	Key.space	n/a
75.6655	0.12	151331	keystroke_p	p	n/a
75.756	0.1055	151512	keystroke_o	o	n/a
75.8165	0.104	151633	keystroke_s	s	n/a
75.9955	0.075	151991	keystroke_t	t	n/a
76.056	0.0895	152112	keystroke_e	e	n/a
76.2065	0.0745	152413	keystroke_d	d	n/a
76.2815	0.0745	152563	keystroke_Key.space	Key.space	n/a
76.6565	0.0745	153313	keystroke_n	n	n/a
76.851	0.105	153702	keystroke_a	a	n/a
77.0015	0.0895	154003	keystroke_t	t	n/a
77.046	0.1355	154092	keystroke_i	i	n/a
77.1365	0.1195	154273	keystroke_o	o	n/a
77.2115	0.12	154423	keystroke_n	n	n/a
77.466	0.075	154932	keystroke_a	a	n/a
77.676	0.06	155352	keystroke_;	;	n/a
77.781	0.135	155562	keystroke_;	;	n/a
79.116	0.06	158232	keystroke_Key.backspace	Key.backspace	n/a
79.251	0.0755	158502	keystroke_Key.backspace	Key.backspace	n/a
79.8215	0.075	159643	keystroke_l	l	n/a
79.9415	0.09	159883	keystroke_l	l	n/a
84.3995	0	168799	keystroke_y	y	n/a
84.6355	0.106	169271	keystroke_Key.space	Key.space	n/a
85.1615	0.075	170323	keystroke_w	w	n/a
85.2505	0.076	170501	keystroke_i	i	n/a
85.4155	0.135	170831	keystroke_l	l	n/a
85.4905	0.121	170981	keystroke_d	d	n/a
85.956	0.1055	171912	keystroke_Key.enter	Key.enter	n/a
86.0705	8.468	172141	prompt	n/a	cart residential workers tion\n
86.9465	0.1045	173893	keystroke_c	c	n/a
87.1405	0.136	174281	keystroke_a	a	n/a
87.2915	0.0895	174583	keystroke_r	r	n/a
87.4415	0.1195	174883	keystroke_t	t	n/a
87.651	0.09	175302	keystroke_Key.space	Key.space	n/a
88.1765	0.0745	176353	keystroke_r	r	n/a
88.221	0.1055	176442	keystroke_e	e	n/a
88.4615	0.1195	176923	keystroke_s	s	n/a
88.6115	0.09	177223	keystroke_i	i	n/a
88.806	0.12	177612	keystroke_d	d	n/a
88.971	0.0905	177942	keystroke_e	e	n/a
89.046	0.09	178092	keystroke_n	n	n/a
89.1815	0.09	178363	keystroke_t	t	n/a
89.391	0.0605	178782	keystroke_a	a	n/a
89.421	0.12	178842	keystroke_i	i	n/a
89.871	0.03	179742	keystroke_Key.backspace	Key.backspace	n/a
89.976	0.09	179952	keystroke_Key.backspace	Key.backspace	n/a
90.216	0.105	180432	keystroke_i	i	n/a
90.321	0.09	180642	keystroke_a	a	n/a
90.546	0.06	181092	keystroke_l	l	n/a
91.1615	0.075	182323	keystroke_Key.space	Key.space	n/a
91.4315	0.09	182863	keystroke_w	w	n/a
91.5365	0.075	183073	keystroke_o	o	n/a
91.6265	0.105	183253	keystroke_r	r	n/a
91.7315	0.06	183463	keystroke_k	k	n/a
91.8215	0.18	183643	keystroke_e	e	n/a
91.9865	0.06	183973	keystroke_r	r	n/a
92.3765	0.09	184753	keystroke_s	s	n/a
93.4265	0.0745	186853	keystroke_Key.space	Key.space	n/a
93.681	0.105	187362	keystroke_t	t	n/a
93.801	0.2245	187602	keystroke_i	i	n/a
93.936	0.1055	187872	keystroke_o	o	n/a
93.9815	0.1195	187963	keystroke_n	n	n/a
94.461	0.0745	188922	keystroke_Key.enter	Key.enter	n/a
94.5445	10.0285	189089	prompt	n/a	makers christopher senate leeds\n
95.526	0.0605	191052	keystroke_m	m	n/a
95.587	0.1195	191174	keystroke_a	a	n/a
95.661	0.105	191322	keystroke_k	k	n/a
95.826	0.09	191652	keystroke_w	w	n/a
95.871	0.09	191742	keystroke_e	e	n/a
95.9765	0.0895	191953	keystroke_r	r	n/a
96.381	0.06	192762	keystroke_Key.backspace	Key.backspace	n/a
96.516	0.075	193032	keystroke_Key.backspace	Key.backspace	n/a
96.6515	0.0895	193303	keystroke_Key.backspace	Key.backspace	n/a
96.7265	0.105	193453	keystroke_e	e	n/a
96.8015	0.135	193603	keystroke_r	r	n/a
96.9515	0.0895	193903	keystroke_s	s	n/a
97.401	0.09	194802	keystroke_Key.space	Key.space	n/a
97.7165	0.105	195433	keystroke_c	c	n/a
97.807	0.0895	195614	keystroke_h	h	n/a
97.9715	0.075	195943	keystroke_r	r	n/a
98.0915	0.12	196183	keystroke_i	i	n/a
98.1665	0.09	196333	keystroke_s	s	n/a
98.3615	0.0745	196723	keystroke_t	t	n/a
98.481	0.12	196962	keystroke_o	o	n/a
98.541	0.135	197082	keystroke_p	p	n/a
99.156	0.075	198312	keystroke_h	h	n/a
99.2465	0.1045	198493	keystroke_e	e	n/a
99.3215	0.0745	198643	keystroke_r	r	n/a
99.9815	0.1345	199963	keystroke_Key.space	Key.space	n/a
100.1315	0.045	200263	keystroke_s	s	n/a
101.121	0.06	202242	keystroke_e	e	n/a
101.2265	0.06	202453	keystroke_n	n	n/a
101.841	0.105	203682	keystroke_a	a	n/a
102.0065	0.075	204013	keystroke_t	t	n/a
102.066	0.0905	204132	keystroke_e	e	n/a
102.2915	0.074	204583	keystroke_Key.space	Key.space	n/a
102.4865	0.105	204973	keystroke_l	l	n/a
102.5765	0.06	205153	keystroke_e	e	n/a
102.966	0.016	205932	keystroke_d	d	n/a
103.2505	0.031	206501	keystroke_e	e	n/a
103.4165	0.075	206833	keystroke_Key.backspace	Key.backspace	n/a
103.5665	0.075	207133	keystroke_Key.backspace	Key.backspace	n/a
103.6865	0.06	207373	keystroke_e	e	n/a
103.8065	0.1045	207613	keystroke_d	d	n/a
103.9705	0.121	207941	keystroke_s	s	n/a
104.4815	0.0895	208963	keystroke_Key.enter	Key.enter	n/a
104.5775	12.8955	209155	prompt	n/a	surprise warrant newbie mostly\n
105.2465	0.0895	210493	keystroke_s	s	n/a
105.3815	0.0895	210763	keystroke_u	u	n/a
105.5015	0.075	211003	keystroke_r	r	n/a
105.636	0.1205	211272	keystroke_p	p	n/a
105.861	0.0895	211722	keystroke_i	i	n/a
105.981	0.0895	211962	keystroke_s	s	n/a
106.1755	0.0605	212351	keystroke_e	e	n/a
107.061	0.0755	214122	keystroke_Key.space	Key.space	n/a
107.1955	0.0905	214391	keystroke_w	w	n/a
107.377	0.104	214754	keystroke_a	a	n/a
107.541	0.075	215082	keystroke_r	r	n/a
107.661	0.09	215322	keystroke_r	r	n/a
107.826	0.12	215652	keystroke_a	a	n/a
107.947	0.089	215894	keystroke_n	n	n/a
108.0215	0.0595	216043	keystroke_t	t	n/a
108.126	0.075	216252	keystroke_Key.space	Key.space	n/a
109.206	0.075	218412	keystroke_Key.backspace	Key.backspace	n/a
109.341	0.075	218682	keystroke_Key.backspace	Key.backspace	n/a
109.491	0.0605	218982	keystroke_Key.backspace	Key.backspace	n/a
109.626	0.0305	219252	keystroke_Key.backspace	Key.backspace	n/a
109.731	0.0455	219462	keystroke_Key.backspace	Key.backspace	n/a
109.836	0.0605	219672	keystroke_Key.backspace	Key.backspace	n/a
109.941	0.0605	219882	keystroke_Key.backspace	Key.backspace	n/a
110.0465	0.06	220093	keystroke_Key.backspace	Key.backspace	n/a
110.1665	0.06	220333	keystroke_Key.backspace	Key.backspace	n/a
110.2865	0.0745	220573	keystroke_Key.backspace	Key.backspace	n/a
110.4065	0.0595	220813	keystroke_Key.backspace	Key.backspace	n/a
110.721	0.0605	221442	keystroke_Key.backspace	Key.backspace	n/a
110.9915	0.075	221983	keystroke_r	r	n/a
111.0965	0.075	222193	keystroke_i	i	n/a
111.1865	0.09	222373	keystroke_s	s	n/a
111.3365	0.075	222673	keystroke_e	e	n/a
112.0715	0.074	224143	keystroke_Key.space	Key.space	n/a
112.4015	0.09	224803	keystroke_w	w	n/a
112.5665	0.075	225133	keystroke_a	a	n/a
112.8365	0.06	225673	keystroke_r	r	n/a
113.0765	0.09	226153	keystroke_r	r	n/a
113.3015	0.0905	226603	keystroke_a	a	n/a
113.3765	0.105	226753	keystroke_n	n	n/a
113.482	0.089	226964	keystroke_t	t	n/a
113.692	0.074	227384	keystroke_Key.space	Key.space	n/a
113.9015	0.0895	227803	keystroke_n	n	n/a
114.036	0.09	228072	keystroke_e	e	n/a
114.081	0.105	228162	keystroke_w	w	n/a
114.637	0.0895	229274	keystroke_b	b	n/a
114.741	0.075	229482	keystroke_i	i	n/a
114.831	0.105	229662	keystroke_e	e	n/a
115.431	0.06	230862	keystroke_Key.space	Key.space	n/a
115.581	0.105	231162	keystroke_m	m	n/a
115.7015	0.1645	231403	keystroke_o	o	n/a
115.776	0.1055	231552	keystroke_s	s	n/a
115.971	0.1055	231942	keystroke_t	t	n/a
116.196	0.12	232392	keystroke_l	l	n/a
116.317	0.044	232634	keystroke_e	e	n/a
116.931	0.09	233862	keystroke_Key.backspace	Key.backspace	n/a
117.066	0.075	234132	keystroke_y	y	n/a
117.3815	0.0895	234763	keystroke_Key.enter	Key.enter	n/a
117.478	15.685	234956	prompt	n/a	feature vegetation thousands pest\n
118.431	0.0755	236862	keystroke_d	d	n/a
118.8055	0.0905	237611	keystroke_Key.backspace	Key.backspace	n/a
118.9415	0.089	237883	keystroke_f	f	n/a
118.9565	0.089	237913	keystroke_e	e	n/a
119.0915	0.09	238183	keystroke_a	a	n/a
119.2565	0.105	238513	keystroke_t	t	n/a
119.3915	0.09	238783	keystroke_u	u	n/a
119.4665	0.1045	238933	keystroke_r	r	n/a
119.526	0.09	239052	keystroke_e	e	n/a
120.111	0.075	240222	keystroke_Key.space	Key.space	n/a
120.441	0.075	240882	keystroke_v	v	n/a
120.576	0.1205	241152	keystroke_e	e	n/a
120.7415	0.075	241483	keystroke_g	g	n/a
120.8165	0.1045	241633	keystroke_e	e	n/a
121.041	0.06	242082	keystroke_t	t	n/a
121.161	0.1355	242322	keystroke_a	a	n/a
121.281	0.1505	242562	keystroke_i	i	n/a
121.3265	0.135	242653	keystroke_o	o	n/a
121.4165	0.135	242833	keystroke_n	n	n/a
122.1365	0.06	244273	keystroke_Key.backspace	Key.backspace	n/a
122.271	0.075	244542	keystroke_Key.backspace	Key.backspace	n/a
122.4065	0.075	244813	keystroke_Key.backspace	Key.backspace	n/a
122.5565	0.0745	245113	keystroke_Key.backspace	Key.backspace	n/a
122.8555	0.165	245711	keystroke_i	i	n/a
122.9915	0.15	245983	keystroke_o	o	n/a
123.1265	0.105	246253	keystroke_n	n	n/a
123.8005	0.046	247601	keystroke_Key.space	Key.space	n/a
123.8765	0.075	247753	keystroke_s	s	n/a
124.4165	0.09	248833	keystroke_Key.backspace	Key.backspace	n/a
124.5815	0.075	249163	keystroke_t	t	n/a
124.716	0.0905	249432	keystroke_h	h	n/a
125.451	0.06	250902	keystroke_Key.backspace	Key.backspace	n/a
125.6155	0.061	251231	keystroke_Key.backspace	Key.backspace	n/a
125.7815	0.059	251563	keystroke_Key.backspace	Key.backspace	n/a
125.931	0.1045	251862	keystroke_Key.backspace	Key.backspace	n/a
126.0805	0.076	252161	keystroke_Key.backspace	Key.backspace	n/a
126.2315	0.0745	252463	keystroke_Key.backspace	Key.backspace	n/a
126.7255	0.09	253451	keystroke_a	a	n/a
126.8765	0.105	253753	keystroke_t	t	n/a
126.9955	0.195	253991	keystroke_i	i	n/a
127.0705	0.105	254141	keystroke_o	o	n/a
127.1455	0.091	254291	keystroke_n	n	n/a
127.896	0.06	255792	keystroke_Key.space	Key.space	n/a
128.076	0.075	256152	keystroke_t	t	n/a
128.2265	0.0445	256453	keystroke_o	o	n/a
128.256	0.075	256512	keystroke_u	u	n/a
128.526	0.06	257052	keystroke_s	s	n/a
129.0205	0.105	258041	keystroke_a	a	n/a
129.3655	0.06	258731	keystroke_Key.backspace	Key.backspace	n/a
129.4865	0.074	258973	keystroke_Key.backspace	Key.backspace	n/a
129.6205	0.075	259241	keystroke_Key.backspace	Key.backspace	n/a
129.7565	0.059	259513	keystroke_Key.backspace	Key.backspace	n/a
130.206	0.075	260412	keystroke_h	h	n/a
130.371	0.105	260742	keystroke_o	o	n/a
130.461	0.075	260922	keystroke_u	u	n/a
130.5215	0.089	261043	keystroke_s	s	n/a
130.6865	0.12	261373	keystroke_a	a	n/a
130.791	0.0905	261582	keystroke_n	n	n/a
130.866	0.1055	261732	keystroke_d	d	n/a
131.016	0.135	262032	keystroke_s	s	n/a
131.586	0.06	263172	keystroke_Key.space	Key.space	n/a
131.8265	0.0905	263653	keystroke_p	p	n/a
131.9315	0.075	263863	keystroke_e	e	n/a
132.171	0.0895	264342	keystroke_s	s	n/a
132.3655	0.0305	264731	keystroke_t	t	n/a
133.0565	0.104	266113	keystroke_Key.enter	Key.enter	n/a
133.167	6.026	266334	prompt	n/a	flight patch drainage please\n
134.1065	0.135	268213	keystroke_f	f	n/a
134.2265	0.03	268453	keystroke_l	l	n/a
134.3465	0.06	268693	keystroke_i	i	n/a
134.4215	0.059	268843	keystroke_g	g	n/a
134.4665	0.089	268933	keystroke_h	h	n/a
134.5405	0.106	269081	keystroke_t	t	n/a
134.6915	0.044	269383	keystroke_Key.space	Key.space	n/a
134.9315	0.089	269863	keystroke_p	p	n/a
135.022	0.1345	270044	keystroke_a	a	n/a
135.1855	0.106	270371	keystroke_t	t	n/a
135.4115	0.104	270823	keystroke_c	c	n/a
135.4865	0.0895	270973	keystroke_h	h	n/a
135.711	0.1045	271422	keystroke_Key.space	Key.space	n/a
135.9965	0.059	271993	keystroke_d	d	n/a
136.146	0.105	272292	keystroke_r	r	n/a
136.2815	0.12	272563	keystroke_a	a	n/a
136.3865	0.075	272773	keystroke_i	i	n/a
136.4315	0.09	272863	keystroke_n	n	n/a
136.7615	0.1345	273523	keystroke_a	a	n/a
136.881	0.12	273762	keystroke_g	g	n/a
137.0155	0.075	274031	keystroke_e	e	n/a
137.571	0.075	275142	keystroke_Key.space	Key.space	n/a
137.781	0.105	275562	keystroke_p	p	n/a
137.841	0.105	275682	keystroke_l	l	n/a
137.9315	0.075	275863	keystroke_e	e	n/a
138.066	0.105	276132	keystroke_a	a	n/a
138.111	0.105	276222	keystroke_s	s	n/a
138.1565	0.0745	276313	keystroke_d	d	n/a
138.7855	0.0605	277571	keystroke_Key.backspace	Key.backspace	n/a
138.8615	0.075	277723	keystroke_e	e	n/a
139.1005	0.091	278201	keystroke_Key.enter	Key.enter	n/a
139.197	5.636	278394	prompt	n/a	venture tops lenses rugby\n
140.0165	0.0895	280033	keystroke_v	v	n/a
140.136	0.09	280272	keystroke_e	e	n/a
140.2565	0.0895	280513	keystroke_n	n	n/a
140.391	0.075	280782	keystroke_t	t	n/a
140.481	0.0755	280962	keystroke_u	u	n/a
140.601	0.03	281202	keystroke_r	r	n/a
140.6165	0.0755	281233	keystroke_e	e	n/a
141.1265	0.0595	282253	keystroke_Key.space	Key.space	n/a
141.3665	0.09	282733	keystroke_t	t	n/a
141.4265	0.1195	282853	keystroke_o	o	n/a
141.486	0.1205	282972	keystroke_p	p	n/a
141.621	0.075	283242	keystroke_s	s	n/a
141.816	0.075	283632	keystroke_Key.space	Key.space	n/a
142.476	0.09	284952	keystroke_l	l	n/a
142.536	0.091	285072	keystroke_e	e	n/a
142.701	0.0755	285402	keystroke_n	n	n/a
142.7315	0.0895	285463	keystroke_s	s	n/a
142.896	0.0755	285792	keystroke_e	e	n/a
143.0165	0.0895	286033	keystroke_s	s	n/a
143.181	0.06	286362	keystroke_Key.space	Key.space	n/a
143.811	0.09	287622	keystroke_r	r	n/a
143.901	0.09	287802	keystroke_u	u	n/a
144.0065	0.09	288013	keystroke_g	g	n/a
144.3515	0.06	288703	keystroke_b	b	n/a
144.5315	0.075	289063	keystroke_y	y	n/a
144.7415	0.09	289483	keystroke_Key.enter	Key.enter	n/a
144.8375	13.48	289675	prompt	n/a	resort macedonia mississippi participant\n
145.6705	0.091	291341	keystroke_r	r	n/a
145.7315	0.075	291463	keystroke_e	e	n/a
146.2565	0.015	292513	keystroke_s	s	n/a
146.3155	0.091	292631	keystroke_o	o	n/a
146.4215	0.075	292843	keystroke_r	r	n/a
146.5865	0.075	293173	keystroke_t	t	n/a
147.081	0.0595	294162	keystroke_Key.space	Key.space	n/a
147.2615	0.075	294523	keystroke_m	m	n/a
147.3065	0.104	294613	keystroke_a	a	n/a
147.5755	0.09	295151	keystroke_c	c	n/a
147.6815	0.12	295363	keystroke_e	e	n/a
147.921	0.1055	295842	keystroke_d	d	n/a
147.9805	0.136	295961	keystroke_o	o	n/a
148.0865	0.09	296173	keystroke_n	n	n/a
148.7465	0.09	297493	keystroke_i	i	n/a
149.0615	0.075	298123	keystroke_a	a	n/a
149.6615	0.059	299323	keystroke_Key.space	Key.space	n/a
149.8115	0.0895	299623	keystroke_m	m	n/a
149.931	0.09	299862	keystroke_i	i	n/a
150.051	0.0755	300102	keystroke_s	s	n/a
150.2015	0.075	300403	keystroke_s	s	n/a
150.3365	0.09	300673	keystroke_i	i	n/a
151.8655	0.075	303731	keystroke_s	s	n/a
152.0005	0.105	304001	keystroke_i	i	n/a
152.4065	0.09	304813	keystroke_Key.backspace	Key.backspace	n/a
152.6005	0.076	305201	keystroke_s	s	n/a
153.0965	0.0895	306193	keystroke_i	i	n/a
153.4265	0.0595	306853	keystroke_p	p	n/a
153.546	0.075	307092	keystroke_p	p	n/a
153.7565	0.09	307513	keystroke_i	i	n/a
155.841	0.06	311682	keystroke_Key.space	Key.space	n/a
156.066	0.105	312132	keystroke_p	p	n/a
156.1565	0.12	312313	keystroke_a	a	n/a
156.3205	0.091	312641	keystroke_r	r	n/a
156.4865	0.06	312973	keystroke_t	t	n/a
156.5615	0.075	313123	keystroke_i	i	n/a
156.6815	0.1045	313363	keystroke_c	c	n/a
156.7415	0.075	313483	keystroke_i	i	n/a
156.8915	0.0595	313783	keystroke_a	a	n/a
157.3865	0.075	314773	keystroke_Key.backspace	Key.backspace	n/a
157.5515	0.105	315103	keystroke_p	p	n/a
157.6415	0.105	315283	keystroke_a	a	n/a
157.761	0.09	315522	keystroke_n	n	n/a
157.836	0.075	315672	keystroke_t	t	n/a
158.226	0.09	316452	keystroke_Key.enter	Key.enter	n/a
158.322	8.846	316644	prompt	n/a	mixture stories backup labeled\n
159.1855	0.076	318371	keystroke_m	m	n/a
159.351	0.0895	318702	keystroke_i	i	n/a
159.426	0.06	318852	keystroke_s	s	n/a
159.936	0.105	319872	keystroke_Key.backspace	Key.backspace	n/a
160.1465	0.075	320293	keystroke_x	x	n/a
160.7165	0.0745	321433	keystroke_t	t	n/a
160.836	0.045	321672	keystroke_u	u	n/a
160.881	0.105	321762	keystroke_r	r	n/a
161.151	0.075	322302	keystroke_e	e	n/a
161.7065	0.075	323413	keystroke_Key.space	Key.space	n/a
161.8715	0.09	323743	keystroke_s	s	n/a
162.0065	0.09	324013	keystroke_o	o	n/a
162.1115	0.075	324223	keystroke_t	t	n/a
162.7715	0.059	325543	keystroke_Key.backspace	Key.backspace	n/a
162.8905	0.106	325781	keystroke_Key.backspace	Key.backspace	n/a
162.9815	0.09	325963	keystroke_t	t	n/a
163.101	0.12	326202	keystroke_o	o	n/a
163.236	0.0905	326472	keystroke_r	r	n/a
163.551	0.075	327102	keystroke_i	i	n/a
163.641	0.075	327282	keystroke_e	e	n/a
163.7765	0.1045	327553	keystroke_s	s	n/a
164.016	0.075	328032	keystroke_Key.space	Key.space	n/a
164.3765	0.1045	328753	keystroke_b	b	n/a
164.466	0.135	328932	keystroke_a	a	n/a
164.571	0.09	329142	keystroke_c	c	n/a
164.7215	0.06	329443	keystroke_k	k	n/a
164.886	0.06	329772	keystroke_u	u	n/a
165.081	0.105	330162	keystroke_p	p	n/a
165.381	0.075	330762	keystroke_Key.space	Key.space	n/a
165.846	0.075	331692	keystroke_l	l	n/a
165.906	0.12	331812	keystroke_a	a	n/a
166.131	0.075	332262	keystroke_b	b	n/a
166.2665	0.105	332533	keystroke_e	e	n/a
166.386	0.105	332772	keystroke_l	l	n/a
166.4465	0.1045	332893	keystroke_e	e	n/a
166.5965	0.09	333193	keystroke_d	d	n/a
167.0615	0.105	334123	keystroke_Key.enter	Key.enter	n/a
167.173	8.381	334346	prompt	n/a	programme subaru dramatic profiles\n
168.0365	0.06	336073	keystroke_p	p	n/a
168.1115	0.105	336223	keystroke_r	r	n/a
168.2315	0.06	336463	keystroke_o	o	n/a
168.3665	0.09	336733	keystroke_g	g	n/a
168.4415	0.075	336883	keystroke_r	r	n/a
168.6215	0.075	337243	keystroke_a	a	n/a
168.711	0.0605	337422	keystroke_m	m	n/a
168.831	0.09	337662	keystroke_m	m	n/a
168.906	0.1055	337812	keystroke_e	e	n/a
169.1015	0.075	338203	keystroke_Key.space	Key.space	n/a
169.4465	0.075	338893	keystroke_s	s	n/a
169.506	0.06	339012	keystroke_u	u	n/a
169.6415	0.0895	339283	keystroke_b	b	n/a
169.8515	0.105	339703	keystroke_a	a	n/a
169.941	0.09	339882	keystroke_r	r	n/a
170.1065	0.059	340213	keystroke_u	u	n/a
171.2765	0.06	342553	keystroke_Key.space	Key.space	n/a
171.5615	0.105	343123	keystroke_d	d	n/a
171.7715	0.09	343543	keystroke_r	r	n/a
171.9215	0.075	343843	keystroke_a	a	n/a
172.0265	0.09	344053	keystroke_m	m	n/a
172.0865	0.09	344173	keystroke_a	a	n/a
172.6415	0.105	345283	keystroke_t	t	n/a
172.7315	0.165	345463	keystroke_i	i	n/a
172.8365	0.075	345673	keystroke_o	o	n/a
173.3165	0.075	346633	keystroke_Key.backspace	Key.backspace	n/a
173.3615	0.06	346723	keystroke_c	c	n/a
174.066	0.0595	348132	keystroke_Key.space	Key.space	n/a
174.2605	0.135	348521	keystroke_p	p	n/a
174.3505	0.0755	348701	keystroke_r	r	n/a
174.4565	0.0745	348913	keystroke_o	o	n/a
174.5765	0.1045	349153	keystroke_f	f	n/a
174.666	0.105	349332	keystroke_i	i	n/a
174.8465	0.1045	349693	keystroke_l	l	n/a
174.9215	0.0895	349843	keystroke_e	e	n/a
175.086	0.105	350172	keystroke_s	s	n/a
175.461	0.0905	350922	keystroke_Key.enter	Key.enter	n/a
175.558	7.39	351116	prompt	n/a	finish competitive chris identification\n
176.436	0.0755	352872	keystroke_f	f	n/a
176.4815	0.09	352963	keystroke_i	i	n/a
176.5405	0.09	353081	keystroke_n	n	n/a
176.6605	0.075	353321	keystroke_i	i	n/a
176.691	0.0745	353382	keystroke_s	s	n/a
176.8265	0.0745	353653	keystroke_h	h	n/a
177.036	0.075	354072	keystroke_Key.space	Key.space	n/a
177.187	0.089	354374	keystroke_c	c	n/a
177.261	0.0905	354522	keystroke_o	o	n/a
177.321	0.076	354642	keystroke_m	m	n/a
177.486	0.075	354972	keystroke_p	p	n/a
177.516	0.1355	355032	keystroke_e	e	n/a
177.7115	0.075	355423	keystroke_t	t	n/a
177.8015	0.12	355603	keystroke_i	i	n/a
178.0565	0.075	356113	keystroke_t	t	n/a
178.2365	0.135	356473	keystroke_v	v	n/a
178.701	0.075	357402	keystroke_Key.backspace	Key.backspace	n/a
178.911	0.0905	357822	keystroke_i	i	n/a
178.941	0.075	357882	keystroke_v	v	n/a
178.986	0.105	357972	keystroke_e	e	n/a
179.5865	0.075	359173	keystroke_Key.space	Key.space	n/a
179.7515	0.09	359503	keystroke_c	c	n/a
179.8565	0.09	359713	keystroke_h	h	n/a
179.9615	0.06	359923	keystroke_r	r	n/a
180.0515	0.09	360103	keystroke_i	i	n/a
180.1115	0.09	360223	keystroke_s	s	n/a
180.2765	0.09	360553	keystroke_Key.space	Key.space	n/a
180.681	0.0905	361362	keystroke_i	i	n/a
180.786	0.06	361572	keystroke_d	d	n/a
180.936	0.105	361872	keystroke_e	e	n/a
181.026	0.076	362052	keystroke_n	n	n/a
181.146	0.045	362292	keystroke_t	t	n/a
181.206	0.06	362412	keystroke_i	i	n/a
181.311	0.106	362622	keystroke_f	f	n/a
181.401	0.075	362802	keystroke_i	i	n/a
181.881	0.0455	363762	keystroke_c	c	n/a
181.9715	0.0895	363943	keystroke_a	a	n/a
182.136	0.135	364272	keystroke_t	t	n/a
182.211	0.12	364422	keystroke_i	i	n/a
182.286	0.12	364572	keystroke_o	o	n/a
182.361	0.0905	364722	keystroke_n	n	n/a
182.8715	0.0745	365743	keystroke_Key.enter	Key.enter	n/a
182.9525	7.031	365905	prompt	n/a	membrane malta barnes mariah\n
183.711	0.0905	367422	keystroke_m	m	n/a
183.8015	0.0895	367603	keystroke_e	e	n/a
183.8765	0.0895	367753	keystroke_m	m	n/a
184.027	0.074	368054	keystroke_b	b	n/a
184.177	0.059	368354	keystroke_r	r	n/a
184.327	0.119	368654	keystroke_a	a	n/a
184.431	0.09	368862	keystroke_n	n	n/a
184.536	0.091	369072	keystroke_e	e	n/a
184.686	0.1055	369372	keystroke_Key.space	Key.space	n/a
185.1065	0.1205	370213	keystroke_m	m	n/a
185.2415	0.075	370483	keystroke_a	a	n/a
185.3765	0.09	370753	keystroke_l	l	n/a
185.6915	0.075	371383	keystroke_t	t	n/a
185.901	0.105	371802	keystroke_a	a	n/a
186.3815	0.045	372763	keystroke_Key.space	Key.space	n/a
186.6365	0.0895	373273	keystroke_b	b	n/a
186.696	0.09	373392	keystroke_r	r	n/a
186.847	0.059	373694	keystroke_a	a	n/a
186.921	0.09	373842	keystroke_n	n	n/a
187.521	0.075	375042	keystroke_Key.backspace	Key.backspace	n/a
187.7605	0.016	375521	keystroke_Key.backspace	Key.backspace	n/a
187.8215	0.075	375643	keystroke_Key.backspace	Key.backspace	n/a
187.9265	0.075	375853	keystroke_a	a	n/a
188.1965	0.045	376393	keystroke_r	r	n/a
188.2865	0.075	376573	keystroke_n	n	n/a
188.3465	0.1195	376693	keystroke_e	e	n/a
188.706	0.105	377412	keystroke_s	s	n/a
189.021	0.03	378042	keystroke_Key.space	Key.space	n/a
189.156	0.09	378312	keystroke_m	m	n/a
189.216	0.105	378432	keystroke_a	a	n/a
189.3965	0.0595	378793	keystroke_r	r	n/a
189.4265	0.0895	378853	keystroke_i	i	n/a
189.561	0.045	379122	keystroke_a	a	n/a
189.621	0.075	379242	keystroke_h	h	n/a
189.8765	0.1045	379753	keystroke_Key.enter	Key.enter	n/a
189.99	8.033	379980	prompt	n/a	guards morocco hawaiian often\n
190.7615	0.09	381523	keystroke_g	g	n/a
190.8365	0.09	381673	keystroke_u	u	n/a
190.9415	0.105	381883	keystroke_a	a	n/a
191.0315	0.09	382063	keystroke_r	r	n/a
191.1965	0.12	382393	keystroke_d	d	n/a
191.3315	0.06	382663	keystroke_s	s	n/a
191.8855	0.046	383771	keystroke_Key.space	Key.space	n/a
192.0665	0.06	384133	keystroke_m	m	n/a
192.2915	0.015	384583	keystroke_o	o	n/a
192.3215	0.045	384643	keystroke_r	r	n/a
192.4715	0.06	384943	keystroke_o	o	n/a
192.5915	0.075	385183	keystroke_o	o	n/a
192.6515	0.09	385303	keystroke_c	c	n/a
193.6115	0.075	387223	keystroke_Key.backspace	Key.backspace	n/a
193.7465	0.075	387493	keystroke_Key.backspace	Key.backspace	n/a
193.9265	0.06	387853	keystroke_c	c	n/a
194.0615	0.075	388123	keystroke_c	c	n/a
194.1815	0.075	388363	keystroke_o	o	n/a
194.4965	0.075	388993	keystroke_Key.space	Key.space	n/a
195.0065	0.075	390013	keystroke_h	h	n/a
195.0815	0.075	390163	keystroke_a	a	n/a
195.3055	0.091	390611	keystroke_w	w	n/a
195.5015	0.09	391003	keystroke_a	a	n/a
195.9815	0.045	391963	keystroke_i	i	n/a
196.1015	0.075	392203	keystroke_i	i	n/a
196.2365	0.1045	392473	keystroke_a	a	n/a
196.3265	0.119	392653	keystroke_n	n	n/a
196.5655	0.0905	393131	keystroke_Key.space	Key.space	n/a
196.7915	0.075	393583	keystroke_o	o	n/a
196.8965	0.12	393793	keystroke_f	f	n/a
197.061	0.1055	394122	keystroke_t	t	n/a
197.121	0.1205	394242	keystroke_e	e	n/a
197.2265	0.09	394453	keystroke_n	n	n/a
197.9165	0.105	395833	keystroke_Key.enter	Key.enter	n/a
198.0275	12.67	396055	prompt	n/a	norman podcast check enhancing\n
198.621	0.0745	397242	keystroke_m	m	n/a
199.3715	0.0895	398743	keystroke_o	o	n/a
199.686	0.06	399372	keystroke_=	=	n/a
199.806	0.0605	399612	keystroke_Key.backspace	Key.backspace	n/a
199.821	0.03	399642	keystroke_=	=	n/a
200.091	0.045	400182	keystroke_Key.backspace	Key.backspace	n/a
200.196	0.075	400392	keystroke_Key.backspace	Key.backspace	n/a
200.361	0.03	400722	keystroke_Key.backspace	Key.backspace	n/a
200.8865	0.0745	401773	keystroke_n	n	n/a
201.0365	0.1045	402073	keystroke_o	o	n/a
201.066	0.0305	402132	keystroke_p	p	n/a
201.156	0.0605	402312	keystroke_r	r	n/a
201.201	0.105	402402	keystroke_m	m	n/a
201.291	0.0905	402582	keystroke_a	a	n/a
201.4265	0.045	402853	keystroke_n	n	n/a
201.741	0.0445	403482	keystroke_Key.backspace	Key.backspace	n/a
201.8605	0.06	403721	keystroke_Key.backspace	Key.backspace	n/a
201.9815	0.059	403963	keystroke_Key.backspace	Key.backspace	n/a
202.1165	0.06	404233	keystroke_Key.backspace	Key.backspace	n/a
202.2205	0.075	404441	keystroke_Key.backspace	Key.backspace	n/a
202.4615	0.074	404923	keystroke_r	r	n/a
202.671	0.075	405342	keystroke_m	m	n/a
202.8065	0.105	405613	keystroke_o	o	n/a
203.1815	0.06	406363	keystroke_Key.backspace	Key.backspace	n/a
203.2265	0.09	406453	keystroke_a	a	n/a
203.3605	0.106	406721	keystroke_n	n	n/a
203.8115	0.074	407623	keystroke_Key.space	Key.space	n/a
204.0355	0.0615	408071	keystroke_p	p	n/a
204.171	0.12	408342	keystroke_o	o	n/a
204.306	0.076	408612	keystroke_d	d	n/a
204.486	0.0905	408972	keystroke_c	c	n/a
204.607	0.1195	409214	keystroke_a	a	n/a
204.697	0.134	409394	keystroke_s	s	n/a
204.9665	0.0895	409933	keystroke_t	t	n/a
205.7465	0.0745	411493	keystroke_Key.space	Key.space	n/a
205.881	0.105	411762	keystroke_c	c	n/a
206.001	0.0755	412002	keystroke_h	h	n/a
206.061	0.09	412122	keystroke_e	e	n/a
206.181	0.075	412362	keystroke_c	c	n/a
206.2715	0.075	412543	keystroke_k	k	n/a
206.4665	0.105	412933	keystroke_Key.space	Key.space	n/a
206.9015	0.1195	413803	keystroke_e	e	n/a
207.006	0.075	414012	keystroke_n	n	n/a
207.1265	0.0895	414253	keystroke_c	c	n/a
207.2465	0.0745	414493	keystroke_h	h	n/a
207.336	0.0905	414672	keystroke_a	a	n/a
207.4265	0.1045	414853	keystroke_n	n	n/a
208.0415	0.075	416083	keystroke_Key.backspace	Key.backspace	n/a
208.1915	0.075	416383	keystroke_Key.backspace	Key.backspace	n/a
208.3265	0.09	416653	keystroke_Key.backspace	Key.backspace	n/a
208.4915	0.09	416983	keystroke_Key.backspace	Key.backspace	n/a
209.2265	0.075	418453	keystroke_h	h	n/a
209.3165	0.03	418633	keystroke_a	a	n/a
209.3615	0.074	418723	keystroke_n	n	n/a
209.541	0.045	419082	keystroke_c	c	n/a
209.961	0.1055	419922	keystroke_i	i	n/a
210.006	0.105	420012	keystroke_n	n	n/a
210.051	0.0755	420102	keystroke_g	g	n/a
210.621	0.0755	421242	keystroke_Key.enter	Key.enter	n/a
210.701	7.137	421402	prompt	n/a	challenged flux abilities they'd\n
211.5065	0.105	423013	keystroke_c	c	n/a
211.6265	0.075	423253	keystroke_h	h	n/a
211.6715	0.075	423343	keystroke_a	a	n/a
211.8665	0.06	423733	keystroke_l	l	n/a
211.9865	0.09	423973	keystroke_l	l	n/a
212.0615	0.09	424123	keystroke_e	e	n/a
212.2265	0.09	424453	keystroke_n	n	n/a
212.4215	0.06	424843	keystroke_g	g	n/a
212.4515	0.12	424903	keystroke_e	e	n/a
212.6465	0.075	425293	keystroke_d	d	n/a
212.9315	0.06	425863	keystroke_Key.space	Key.space	n/a
213.4265	0.12	426853	keystroke_f	f	n/a
213.5015	0.09	427003	keystroke_l	l	n/a
213.7115	0.09	427423	keystroke_u	u	n/a
213.8615	0.09	427723	keystroke_x	x	n/a
213.9815	0.09	427963	keystroke_Key.space	Key.space	n/a
214.6265	0.0745	429253	keystroke_a	a	n/a
214.956	0.1505	429912	keystroke_b	b	n/a
215.0315	0.09	430063	keystroke_i	i	n/a
215.197	0.0745	430394	keystroke_l	l	n/a
215.3465	0.075	430693	keystroke_i	i	n/a
215.4065	0.0755	430813	keystroke_t	t	n/a
215.5265	0.0745	431053	keystroke_i	i	n/a
215.616	0.091	431232	keystroke_e	e	n/a
215.9915	0.105	431983	keystroke_s	s	n/a
216.306	0.06	432612	keystroke_Key.space	Key.space	n/a
216.516	0.06	433032	keystroke_t	t	n/a
216.561	0.0755	433122	keystroke_h	h	n/a
216.621	0.09	433242	keystroke_e	e	n/a
216.8015	0.09	433603	keystroke_y	y	n/a
216.9515	0.09	433903	keystroke_'	'	n/a
217.1165	0.1045	434233	keystroke_d	d	n/a
217.806	0.0305	435612	keystroke_Key.enter	Key.enter	n/a
217.842	8.3065	435684	prompt	n/a	hometown isn't knowledge floor\n
218.766	0.0745	437532	keystroke_h	h	n/a
218.9315	0.1195	437863	keystroke_o	o	n/a
218.9905	0.151	437981	keystroke_m	m	n/a
219.0965	0.06	438193	keystroke_e	e	n/a
219.5765	0.09	439153	keystroke_t	t	n/a
219.7265	0.075	439453	keystroke_o	o	n/a
219.757	0.104	439514	keystroke_w	w	n/a
219.891	0.091	439782	keystroke_n	n	n/a
220.0715	0.09	440143	keystroke_Key.space	Key.space	n/a
220.2665	0.075	440533	keystroke_i	i	n/a
220.3265	0.09	440653	keystroke_s	s	n/a
220.4165	0.105	440833	keystroke_n	n	n/a
220.701	0.0755	441402	keystroke_'	'	n/a
220.777	0.0895	441554	keystroke_t	t	n/a
221.8265	0.0595	443653	keystroke_Key.space	Key.space	n/a
221.9465	0.1045	443893	keystroke_k	k	n/a
222.022	0.0745	444044	keystroke_n	n	n/a
222.186	0.075	444372	keystroke_o	o	n/a
222.231	0.075	444462	keystroke_w	w	n/a
222.3515	0.1045	444703	keystroke_l	l	n/a
222.471	0.06	444942	keystroke_e	e	n/a
222.622	0.089	445244	keystroke_d	d	n/a
222.801	0.075	445602	keystroke_f	f	n/a
222.802	0.059	445604	keystroke_g	g	n/a
222.846	0.12	445692	keystroke_e	e	n/a
223.3565	0.075	446713	keystroke_Key.backspace	Key.backspace	n/a
223.5065	0.075	447013	keystroke_Key.backspace	Key.backspace	n/a
224.0465	0.09	448093	keystroke_Key.backspace	Key.backspace	n/a
224.1665	0.075	448333	keystroke_d	d	n/a
224.5265	0.0745	449053	keystroke_Key.backspace	Key.backspace	n/a
224.5865	0.09	449173	keystroke_g	g	n/a
224.6615	0.1045	449323	keystroke_e	e	n/a
225.201	0.0595	450402	keystroke_Key.space	Key.space	n/a
225.4715	0.1045	450943	keystroke_f	f	n/a
225.576	0.0455	451152	keystroke_l	l	n/a
225.7115	0.06	451423	keystroke_o	o	n/a
225.816	0.1045	451632	keystroke_o	o	n/a
225.876	0.0755	451752	keystroke_r	r	n/a
226.0565	0.0895	452113	keystroke_Key.enter	Key.enter	n/a
226.153	9.1005	452306	prompt	n/a	viewpicture explicit flowers healthy\n
227.241	0.0905	454482	keystroke_v	v	n/a
227.3465	0.0745	454693	keystroke_i	i	n/a
227.482	0.0885	454964	keystroke_e	e	n/a
227.511	0.1195	455022	keystroke_w	w	n/a
228.1265	0.044	456253	keystroke_p	p	n/a
228.2905	0.091	456581	keystroke_i	i	n/a
228.3665	0.104	456733	keystroke_c	c	n/a
228.5915	0.0745	457183	keystroke_t	t	n/a
228.667	0.089	457334	keystroke_u	u	n/a
228.741	0.0755	457482	keystroke_r	r	n/a
228.8015	0.12	457603	keystroke_e	e	n/a
229.0565	0.0745	458113	keystroke_Key.space	Key.space	n/a
229.2815	0.075	458563	keystroke_e	e	n/a
229.5065	0.09	459013	keystroke_x	x	n/a
229.5815	0.12	459163	keystroke_p	p	n/a
229.6415	0.075	459283	keystroke_l	l	n/a
229.8215	0.075	459643	keystroke_i	i	n/a
229.9115	0.0895	459823	keystroke_c	c	n/a
230.002	0.074	460004	keystroke_i	i	n/a
230.136	0.0755	460272	keystroke_t	t	n/a
232.2065	0.105	464413	keystroke_Key.space	Key.space	n/a
232.3715	0.09	464743	keystroke_f	f	n/a
232.447	0.0895	464894	keystroke_l	l	n/a
232.5965	0.0895	465193	keystroke_o	o	n/a
232.656	0.0905	465312	keystroke_w	w	n/a
232.851	0.135	465702	keystroke_e	e	n/a
232.926	0.0905	465852	keystroke_r	r	n/a
233.0915	0.1045	466183	keystroke_s	s	n/a
233.241	0.075	466482	keystroke_Key.space	Key.space	n/a
234.1715	0.075	468343	keystroke_h	h	n/a
234.2165	0.105	468433	keystroke_e	e	n/a
234.3365	0.195	468673	keystroke_a	a	n/a
234.4415	0.105	468883	keystroke_l	l	n/a
234.5765	0.059	469153	keystroke_t	t	n/a
234.6515	0.15	469303	keystroke_h	h	n/a
234.757	0.0595	469514	keystroke_y	y	n/a
235.1765	0.075	470353	keystroke_Key.enter	Key.enter	n/a
235.2575	11.3055	470515	prompt	n/a	poly impose respiratory pursuit\n
236.122	0.059	472244	keystroke_p	p	n/a
236.301	0.0905	472602	keystroke_o	o	n/a
236.436	0.105	472872	keystroke_l	l	n/a
236.542	0.089	473084	keystroke_y	y	n/a
237.6365	0.0895	475273	keystroke_Key.space	Key.space	n/a
237.8165	0.1345	475633	keystroke_i	i	n/a
237.891	0.09	475782	keystroke_m	m	n/a
238.0715	0.045	476143	keystroke_o	o	n/a
238.1315	0.1195	476263	keystroke_p	p	n/a
238.221	0.09	476442	keystroke_o	o	n/a
238.2965	0.0895	476593	keystroke_s	s	n/a
238.446	0.09	476892	keystroke_e	e	n/a
239.9305	0.06	479861	keystroke_Key.space	Key.space	n/a
240.0355	0.0755	480071	keystroke_r	r	n/a
240.066	0.0905	480132	keystroke_e	e	n/a
240.5165	0.044	481033	keystroke_Key.backspace	Key.backspace	n/a
240.6355	0.0755	481271	keystroke_Key.backspace	Key.backspace	n/a
240.7865	0.03	481573	keystroke_Key.backspace	Key.backspace	n/a
240.8915	0.06	481783	keystroke_Key.backspace	Key.backspace	n/a
241.0115	0.045	482023	keystroke_Key.backspace	Key.backspace	n/a
241.1465	0.06	482293	keystroke_Key.backspace	Key.backspace	n/a
241.2205	0.076	482441	keystroke_Key.backspace	Key.backspace	n/a
241.3415	0.105	482683	keystroke_Key.backspace	Key.backspace	n/a
241.8215	0.06	483643	keystroke_p	p	n/a
241.9265	0.075	483853	keystroke_o	o	n/a
241.9865	0.03	483973	keystroke_s	s	n/a
242.376	0.0605	484752	keystroke_e	e	n/a
243.186	0.06	486372	keystroke_Key.space	Key.space	n/a
243.3665	0.075	486733	keystroke_r	r	n/a
243.3965	0.12	486793	keystroke_e	e	n/a
243.6215	0.0745	487243	keystroke_s	s	n/a
243.831	0.0605	487662	keystroke_p	p	n/a
243.981	0.105	487962	keystroke_i	i	n/a
244.101	0.06	488202	keystroke_r	r	n/a
244.221	0.12	488442	keystroke_a	a	n/a
244.4165	0.0595	488833	keystroke_t	t	n/a
244.611	0.09	489222	keystroke_o	o	n/a
244.6865	0.105	489373	keystroke_r	r	n/a
244.8515	0.09	489703	keystroke_y	y	n/a
245.0165	0.09	490033	keystroke_Key.space	Key.space	n/a
245.481	0.075	490962	keystroke_p	p	n/a
245.661	0.075	491322	keystroke_u	u	n/a
245.751	0.105	491502	keystroke_r	r	n/a
245.9165	0.105	491833	keystroke_s	s	n/a
246.126	0.015	492252	keystroke_u	u	n/a
246.1865	0.0595	492373	keystroke_i	i	n/a
246.2915	0.105	492583	keystroke_t	t	n/a
246.486	0.075	492972	keystroke_Key.enter	Key.enter	n/a
246.567	8.186	493134	prompt	n/a	capability insights receptor vitamin\n
247.356	0.0605	494712	keystroke_c	c	n/a
247.461	0.105	494922	keystroke_a	a	n/a
247.551	0.106	495102	keystroke_p	p	n/a
247.6415	0.09	495283	keystroke_a	a	n/a
248.1665	0.09	496333	keystroke_b	b	n/a
248.2415	0.09	496483	keystroke_i	i	n/a
248.3915	0.09	496783	keystroke_l	l	n/a
248.5415	0.105	497083	keystroke_i	i	n/a
248.6315	0.059	497263	keystroke_t	t	n/a
248.7355	0.091	497471	keystroke_y	y	n/a
249.2905	0.015	498581	keystroke_Key.space	Key.space	n/a
249.4105	0.12	498821	keystroke_i	i	n/a
249.486	0.1045	498972	keystroke_n	n	n/a
249.5765	0.09	499153	keystroke_s	s	n/a
249.6815	0.045	499363	keystroke_i	i	n/a
249.7565	0.1045	499513	keystroke_g	g	n/a
249.8455	0.075	499691	keystroke_h	h	n/a
249.9055	0.091	499811	keystroke_t	t	n/a
250.0555	0.121	500111	keystroke_s	s	n/a
251.0005	0.06	502001	keystroke_Key.space	Key.space	n/a
251.1805	0.15	502361	keystroke_r	r	n/a
251.2265	0.18	502453	keystroke_e	e	n/a
251.4515	0.075	502903	keystroke_c	c	n/a
251.541	0.0445	503082	keystroke_e	e	n/a
251.6765	0.06	503353	keystroke_p	p	n/a
251.871	0.0755	503742	keystroke_t	t	n/a
252.4115	0.0445	504823	keystroke_o	o	n/a
252.726	0.06	505452	keystroke_r	r	n/a
253.491	0.09	506982	keystroke_Key.space	Key.space	n/a
253.6565	0.0745	507313	keystroke_v	v	n/a
253.7465	0.0895	507493	keystroke_i	i	n/a
253.851	0.09	507702	keystroke_t	t	n/a
254.031	0.09	508062	keystroke_a	a	n/a
254.1965	0.0295	508393	keystroke_m	m	n/a
254.271	0.12	508542	keystroke_i	i	n/a
254.331	0.105	508662	keystroke_n	n	n/a
254.661	0.09	509322	keystroke_Key.enter	Key.enter	n/a
254.7565	11.456	509513	prompt	n/a	bangladesh steal layers soonest\n
255.6815	0.09	511363	keystroke_b	b	n/a
255.7565	0.1045	511513	keystroke_a	a	n/a
255.876	0.0905	511752	keystroke_n	n	n/a
256.1915	0.074	512383	keystroke_g	g	n/a
256.4015	0.045	512803	keystroke_l	l	n/a
256.5815	0.045	513163	keystroke_a	a	n/a
259.2395	0.042	518479	keystroke_f	f	n/a
259.2395	0.072	518479	keystroke_e	e	n/a
259.5965	0.075	519193	keystroke_Key.backspace	Key.backspace	n/a
259.7165	0.09	519433	keystroke_Key.backspace	Key.backspace	n/a
259.7615	0.09	519523	keystroke_d	d	n/a
259.8665	0.105	519733	keystroke_e	e	n/a
260.0305	0.075	520061	keystroke_s	s	n/a
260.4215	0.0595	520843	keystroke_h	h	n/a
261.5305	0.076	523061	keystroke_Key.space	Key.space	n/a
261.5765	0.09	523153	keystroke_s	s	n/a
261.7715	0.075	523543	keystroke_t	t	n/a
261.8315	0.075	523663	keystroke_e	e	n/a
261.9205	0.106	523841	keystroke_w	w	n/a
262.0415	0.0745	524083	keystroke_l	l	n/a
262.4305	0.091	524861	keystroke_Key.backspace	Key.backspace	n/a
262.566	0.0895	525132	keystroke_Key.backspace	Key.backspace	n/a
262.6405	0.061	525281	keystroke_a	a	n/a
262.791	0.09	525582	keystroke_l	l	n/a
263.6005	0.061	527201	keystroke_Key.space	Key.space	n/a
263.7955	0.0905	527591	keystroke_l	l	n/a
263.841	0.1055	527682	keystroke_a	a	n/a
264.0815	0.0895	528163	keystroke_y	y	n/a
264.216	0.12	528432	keystroke_e	e	n/a
264.321	0.0905	528642	keystroke_r	r	n/a
264.7115	0.0595	529423	keystroke_s	s	n/a
264.981	0.075	529962	keystroke_Key.space	Key.space	n/a
265.206	0.045	530412	keystroke_s	s	n/a
265.2965	0.06	530593	keystroke_o	o	n/a
265.401	0.0605	530802	keystroke_o	o	n/a
265.5055	0.091	531011	keystroke_n	n	n/a
265.6105	0.091	531221	keystroke_e	e	n/a
265.7905	0.12	531581	keystroke_s	s	n/a
265.971	0.0905	531942	keystroke_t	t	n/a
266.121	0.09	532242	keystroke_Key.enter	Key.enter	n/a
266.217	15.236	532434	prompt	n/a	vulnerability obligation verify dispatch\n
267.2615	0.0745	534523	keystroke_v	v	n/a
267.381	0.06	534762	keystroke_u	u	n/a
267.5615	0.105	535123	keystroke_l	l	n/a
267.771	0.0755	535542	keystroke_n	n	n/a
267.861	0.09	535722	keystroke_e	e	n/a
268.1315	0.0745	536263	keystroke_r	r	n/a
268.341	0.1205	536682	keystroke_a	a	n/a
268.8965	0.075	537793	keystroke_b	b	n/a
269.4815	0.09	538963	keystroke_i	i	n/a
269.6315	0.0895	539263	keystroke_l	l	n/a
269.8105	0.091	539621	keystroke_i	i	n/a
269.8415	0.06	539683	keystroke_t	t	n/a
269.9605	0.075	539921	keystroke_y	y	n/a
270.081	0.0595	540162	keystroke_Key.space	Key.space	n/a
271.2965	0.0595	542593	keystroke_o	o	n/a
271.3715	0.0895	542743	keystroke_b	b	n/a
271.476	0.0905	542952	keystroke_l	l	n/a
271.641	0.105	543282	keystroke_i	i	n/a
271.821	0.075	543642	keystroke_g	g	n/a
271.926	0.0905	543852	keystroke_h	h	n/a
272.4365	0.06	544873	keystroke_Key.backspace	Key.backspace	n/a
272.6315	0.09	545263	keystroke_a	a	n/a
272.7965	0.0745	545593	keystroke_t	t	n/a
272.961	0.075	545922	keystroke_i	i	n/a
272.991	0.06	545982	keystroke_o	o	n/a
274.2965	0.075	548593	keystroke_n	n	n/a
275.7965	0.06	551593	keystroke_Key.space	Key.space	n/a
275.9465	0.075	551893	keystroke_v	v	n/a
276.1415	0.09	552283	keystroke_e	e	n/a
276.2015	0.075	552403	keystroke_r	r	n/a
276.2615	0.075	552523	keystroke_i	i	n/a
276.3665	0.105	552733	keystroke_f	f	n/a
276.5765	0.09	553153	keystroke_y	y	n/a
277.5365	0.075	555073	keystroke_Key.space	Key.space	n/a
277.701	0.075	555402	keystroke_d	d	n/a
277.7915	0.1045	555583	keystroke_i	i	n/a
277.912	0.089	555824	keystroke_s	s	n/a
278.151	0.0605	556302	keystroke_p	p	n/a
278.271	0.12	556542	keystroke_a	a	n/a
278.451	0.09	556902	keystroke_c	c	n/a
278.631	0.105	557262	keystroke_t	t	n/a
278.752	0.0595	557504	keystroke_h	h	n/a
279.8315	0.075	559663	keystroke_Key.backspace	Key.backspace	n/a
279.9965	0.06	559993	keystroke_Key.backspace	Key.backspace	n/a
280.2065	0.075	560413	keystroke_t	t	n/a
280.4915	0.06	560983	keystroke_Key.backspace	Key.backspace	n/a
280.6115	0.075	561223	keystroke_Key.backspace	Key.backspace	n/a
280.6415	0.09	561283	keystroke_t	t	n/a
280.8815	0.105	561763	keystroke_c	c	n/a
281.0015	0.06	562003	keystroke_h	h	n/a
281.3465	0.105	562693	keystroke_Key.enter	Key.enter	n/a
281.457	9.251	562914	prompt	n/a	advanced relevance batman occasional\n
282.1115	0.135	564223	keystroke_a	a	n/a
282.2015	0.09	564403	keystroke_d	d	n/a
282.396	0.0905	564792	keystroke_v	v	n/a
282.531	0.12	565062	keystroke_a	a	n/a
282.576	0.105	565152	keystroke_n	n	n/a
282.621	0.12	565242	keystroke_c	c	n/a
282.8315	0.0895	565663	keystroke_e	e	n/a
282.9665	0.105	565933	keystroke_d	d	n/a
283.3265	0.059	566653	keystroke_Key.space	Key.space	n/a
283.5355	0.091	567071	keystroke_r	r	n/a
283.6115	0.1055	567223	keystroke_e	e	n/a
283.8215	0.075	567643	keystroke_l	l	n/a
283.8965	0.089	567793	keystroke_e	e	n/a
284.0305	0.091	568061	keystroke_v	v	n/a
284.8265	0.075	569653	keystroke_a	a	n/a
284.946	0.0445	569892	keystroke_n	n	n/a
285.0055	0.151	570011	keystroke_c	c	n/a
285.1265	0.12	570253	keystroke_e	e	n/a
285.3505	0.075	570701	keystroke_Key.space	Key.space	n/a
285.9065	0.06	571813	keystroke_b	b	n/a
285.982	0.1045	571964	keystroke_a	a	n/a
286.1465	0.075	572293	keystroke_t	t	n/a
286.2365	0.06	572473	keystroke_m	m	n/a
286.3115	0.105	572623	keystroke_a	a	n/a
286.3865	0.09	572773	keystroke_n	n	n/a
286.6115	0.06	573223	keystroke_Key.space	Key.space	n/a
286.881	0.075	573762	keystroke_o	o	n/a
287.0315	0.015	574063	keystroke_c	c	n/a
288.0365	0.075	576073	keystroke_c	c	n/a
288.2315	0.105	576463	keystroke_a	a	n/a
288.4565	0.0895	576913	keystroke_s	s	n/a
288.6215	0.134	577243	keystroke_i	i	n/a
288.696	0.135	577392	keystroke_o	o	n/a
288.8165	0.0895	577633	keystroke_n	n	n/a
288.996	0.06	577992	keystroke_a	a	n/a
289.1165	0.0895	578233	keystroke_;	;	n/a
289.656	0.045	579312	keystroke_Key.backspace	Key.backspace	n/a
289.866	0.09	579732	keystroke_l	l	n/a
290.616	0.0905	581232	keystroke_Key.enter	Key.enter	n/a
290.7125	6.656	581425	prompt	n/a	peru premier works desk\n
292.3405	0.076	584681	keystroke_p	p	n/a
292.4315	0.105	584863	keystroke_e	e	n/a
292.5215	0.09	585043	keystroke_r	r	n/a
292.596	0.09	585192	keystroke_u	u	n/a
293.001	0.075	586002	keystroke_Key.space	Key.space	n/a
293.481	0.09	586962	keystroke_p	p	n/a
293.706	0.105	587412	keystroke_r	r	n/a
293.796	0.0605	587592	keystroke_e	e	n/a
294.4115	0.09	588823	keystroke_m	m	n/a
294.5765	0.0755	589153	keystroke_i	i	n/a
294.6665	0.089	589333	keystroke_e	e	n/a
294.7265	0.0895	589453	keystroke_r	r	n/a
294.9515	0.075	589903	keystroke_Key.space	Key.space	n/a
295.1615	0.0895	590323	keystroke_w	w	n/a
295.221	0.09	590442	keystroke_o	o	n/a
295.326	0.075	590652	keystroke_r	r	n/a
295.386	0.105	590772	keystroke_k	k	n/a
295.491	0.075	590982	keystroke_s	s	n/a
295.596	0.09	591192	keystroke_Key.space	Key.space	n/a
296.017	0.0895	592034	keystroke_d	d	n/a
296.166	0.105	592332	keystroke_e	e	n/a
296.3315	0.1045	592663	keystroke_s	s	n/a
296.481	0.121	592962	keystroke_k	k	n/a
297.2915	0.0745	594583	keystroke_Key.enter	Key.enter	n/a
297.3765	11.452	594753	prompt	n/a	liberty vacuum sydney navigation\n
300.2325	0.014	600465	keystroke_l	l	n/a
300.3515	0.075	600703	keystroke_i	i	n/a
300.442	0.0895	600884	keystroke_b	b	n/a
300.7715	0.135	601543	keystroke_e	e	n/a
300.877	0.0745	601754	keystroke_r	r	n/a
301.0115	0.09	602023	keystroke_t	t	n/a
301.327	0.0895	602654	keystroke_y	y	n/a
301.8665	0.075	603733	keystroke_Key.space	Key.space	n/a
302.1965	0.09	604393	keystroke_v	v	n/a
302.3465	0.09	604693	keystroke_a	a	n/a
302.6915	0.0595	605383	keystroke_c	c	n/a
302.901	0.091	605802	keystroke_u	u	n/a
303.021	0.0905	606042	keystroke_u	u	n/a
303.201	0.12	606402	keystroke_m	m	n/a
303.546	0.075	607092	keystroke_Key.space	Key.space	n/a
303.846	0.0905	607692	keystroke_s	s	n/a
304.116	0.105	608232	keystroke_y	y	n/a
304.4615	0.075	608923	keystroke_d	d	n/a
304.5815	0.105	609163	keystroke_n	n	n/a
304.6715	0.105	609343	keystroke_e	e	n/a
304.8365	0.0595	609673	keystroke_t	t	n/a
305.4215	0.0895	610843	keystroke_Key.backspace	Key.backspace	n/a
305.496	0.091	610992	keystroke_y	y	n/a
306.2915	0.075	612583	keystroke_Key.space	Key.space	n/a
306.4565	0.12	612913	keystroke_n	n	n/a
306.5765	0.0595	613153	keystroke_a	a	n/a
306.981	0.075	613962	keystroke_v	v	n/a
307.0865	0.075	614173	keystroke_i	i	n/a
307.7465	0.075	615493	keystroke_g	g	n/a
307.911	0.075	615822	keystroke_a	a	n/a
308.031	0.1055	616062	keystroke_t	t	n/a
308.0765	0.1045	616153	keystroke_i	i	n/a
308.122	0.209	616244	keystroke_o	o	n/a
308.2565	0.104	616513	keystroke_n	n	n/a
308.7215	0.105	617443	keystroke_Key.enter	Key.enter	n/a
308.8325	10.886	617665	prompt	n/a	equipped avoid trucks subsequently\n
310.131	0.09	620262	keystroke_e	e	n/a
310.2965	0.105	620593	keystroke_q	q	n/a
310.4165	0.0895	620833	keystroke_u	u	n/a
310.987	0.074	621974	keystroke_i	i	n/a
311.2415	0.075	622483	keystroke_p	p	n/a
311.376	0.09	622752	keystroke_p	p	n/a
311.451	0.0755	622902	keystroke_e	e	n/a
311.586	0.09	623172	keystroke_d	d	n/a
312.1115	0.075	624223	keystroke_Key.space	Key.space	n/a
312.336	0.09	624672	keystroke_a	a	n/a
312.532	0.074	625064	keystroke_v	v	n/a
312.651	0.075	625302	keystroke_o	o	n/a
312.7115	0.075	625423	keystroke_i	i	n/a
312.7565	0.075	625513	keystroke_d	d	n/a
312.8915	0.104	625783	keystroke_Key.space	Key.space	n/a
313.2815	0.105	626563	keystroke_t	t	n/a
313.3265	0.105	626653	keystroke_r	r	n/a
313.4465	0.105	626893	keystroke_u	u	n/a
313.5065	0.135	627013	keystroke_a	a	n/a
313.6115	0.105	627223	keystroke_c	c	n/a
313.7015	0.09	627403	keystroke_k	k	n/a
313.8065	0.105	627613	keystroke_s	s	n/a
314.1215	0.06	628243	keystroke_Key.backspace	Key.backspace	n/a
314.2565	0.0595	628513	keystroke_Key.backspace	Key.backspace	n/a
314.3915	0.059	628783	keystroke_Key.backspace	Key.backspace	n/a
314.511	0.1055	629022	keystroke_Key.backspace	Key.backspace	n/a
314.6615	0.075	629323	keystroke_c	c	n/a
314.8415	0.09	629683	keystroke_k	k	n/a
314.9465	0.09	629893	keystroke_s	s	n/a
315.5305	0.075	631061	keystroke_Key.space	Key.space	n/a
315.7255	0.106	631451	keystroke_s	s	n/a
315.8465	0.0895	631693	keystroke_u	u	n/a
315.9965	0.12	631993	keystroke_b	b	n/a
316.4005	0.091	632801	keystroke_s	s	n/a
316.6265	0.089	633253	keystroke_e	e	n/a
317.151	0.075	634302	keystroke_q	q	n/a
317.2565	0.105	634513	keystroke_u	u	n/a
317.376	0.0605	634752	keystroke_e	e	n/a
317.4665	0.09	634933	keystroke_n	n	n/a
317.571	0.105	635142	keystroke_c	c	n/a
317.796	0.09	635592	keystroke_t	t	n/a
318.1415	0.0595	636283	keystroke_Key.backspace	Key.backspace	n/a
318.261	0.09	636522	keystroke_Key.backspace	Key.backspace	n/a
318.3365	0.075	636673	keystroke_t	t	n/a
318.471	0.075	636942	keystroke_y	y	n/a
318.8165	0.09	637633	keystroke_l	l	n/a
319.4315	0.059	638863	keystroke_Key.backspace	Key.backspace	n/a
319.6115	0.105	639223	keystroke_Key.enter	Key.enter	n/a
319.723	11.695	639446	prompt	n/a	raised printers cashiers foot\n
320.6765	0.09	641353	keystroke_r	r	n/a
320.7365	0.089	641473	keystroke_e	e	n/a
321.8465	0.0595	643693	keystroke_Key.backspace	Key.backspace	n/a
321.8915	0.075	643783	keystroke_a	a	n/a
322.506	0.0745	645012	keystroke_i	i	n/a
322.5665	0.075	645133	keystroke_s	s	n/a
322.7315	0.105	645463	keystroke_e	e	n/a
322.8965	0.104	645793	keystroke_d	d	n/a
324.1415	0.089	648283	keystroke_Key.space	Key.space	n/a
324.4705	0.105	648941	keystroke_p	p	n/a
324.5915	0.089	649183	keystroke_r	r	n/a
324.9805	0.076	649961	keystroke_t	t	n/a
325.0865	0.135	650173	keystroke_i	i	n/a
325.1605	0.076	650321	keystroke_n	n	n/a
325.4165	0.075	650833	keystroke_Key.backspace	Key.backspace	n/a
325.5505	0.075	651101	keystroke_Key.backspace	Key.backspace	n/a
325.8815	0.074	651763	keystroke_Key.backspace	Key.backspace	n/a
326.1355	0.076	652271	keystroke_i	i	n/a
326.1815	0.104	652363	keystroke_n	n	n/a
326.2405	0.0755	652481	keystroke_t	t	n/a
326.3915	0.105	652783	keystroke_e	e	n/a
326.4805	0.076	652961	keystroke_r	r	n/a
326.6005	0.121	653201	keystroke_s	s	n/a
326.9755	0.075	653951	keystroke_Key.space	Key.space	n/a
327.187	0.1045	654374	keystroke_c	c	n/a
327.322	0.0895	654644	keystroke_a	a	n/a
327.396	0.105	654792	keystroke_h	h	n/a
327.591	0.075	655182	keystroke_s	s	n/a
327.8765	0.06	655753	keystroke_Key.backspace	Key.backspace	n/a
327.9965	0.074	655993	keystroke_Key.backspace	Key.backspace	n/a
328.1305	0.045	656261	keystroke_Key.backspace	Key.backspace	n/a
328.2815	0.06	656563	keystroke_s	s	n/a
328.6865	0.089	657373	keystroke_Key.backspace	Key.backspace	n/a
328.7615	0.105	657523	keystroke_a	a	n/a
328.8365	0.12	657673	keystroke_s	s	n/a
329.1515	0.09	658303	keystroke_h	h	n/a
329.5115	0.06	659023	keystroke_i	i	n/a
329.6015	0.12	659203	keystroke_e	e	n/a
329.6765	0.165	659353	keystroke_r	r	n/a
329.8865	0.089	659773	keystroke_s	s	n/a
330.2765	0.075	660553	keystroke_Key.space	Key.space	n/a
330.4265	0.075	660853	keystroke_f	f	n/a
330.5765	0.09	661153	keystroke_o	o	n/a
330.7115	0.075	661423	keystroke_o	o	n/a
331.1755	0.075	662351	keystroke_t	t	n/a
331.3265	0.089	662653	keystroke_Key.enter	Key.enter	n/a
331.422	9.581	662844	prompt	n/a	design directory changing classroom\n
332.316	0.0905	664632	keystroke_d	d	n/a
332.451	0.09	664902	keystroke_e	e	n/a
332.646	0.075	665292	keystroke_s	s	n/a
332.7365	0.075	665473	keystroke_i	i	n/a
332.841	0.075	665682	keystroke_g	g	n/a
332.9315	0.0895	665863	keystroke_n	n	n/a
333.516	0.0905	667032	keystroke_Key.space	Key.space	n/a
333.7255	0.1055	667451	keystroke_d	d	n/a
333.9365	0.089	667873	keystroke_i	i	n/a
334.0265	0.09	668053	keystroke_r	r	n/a
334.1005	0.075	668201	keystroke_e	e	n/a
334.2365	0.089	668473	keystroke_c	c	n/a
334.4465	0.06	668893	keystroke_t	t	n/a
334.5515	0.105	669103	keystroke_o	o	n/a
334.6715	0.075	669343	keystroke_y	y	n/a
335.226	0.075	670452	keystroke_Key.backspace	Key.backspace	n/a
335.316	0.0455	670632	keystroke_t	t	n/a
335.661	0.09	671322	keystroke_Key.backspace	Key.backspace	n/a
335.691	0.075	671382	keystroke_r	r	n/a
335.961	0.015	671922	keystroke_y	y	n/a
337.1005	0.075	674201	keystroke_Key.space	Key.space	n/a
337.1915	0.09	674383	keystroke_c	c	n/a
337.2965	0.075	674593	keystroke_h	h	n/a
337.3565	0.105	674713	keystroke_a	a	n/a
337.4755	0.091	674951	keystroke_n	n	n/a
337.5515	0.1045	675103	keystroke_g	g	n/a
337.626	0.12	675252	keystroke_i	i	n/a
337.701	0.12	675402	keystroke_n	n	n/a
337.7765	0.1195	675553	keystroke_g	g	n/a
338.3915	0.0595	676783	keystroke_Key.space	Key.space	n/a
338.646	0.1205	677292	keystroke_c	c	n/a
338.781	0.1055	677562	keystroke_l	l	n/a
338.841	0.09	677682	keystroke_a	a	n/a
339.022	0.0895	678044	keystroke_s	s	n/a
339.1865	0.09	678373	keystroke_s	s	n/a
340.0865	0.075	680173	keystroke_r	r	n/a
340.3415	0.0455	680683	keystroke_o	o	n/a
340.4465	0.09	680893	keystroke_o	o	n/a
340.6265	0.09	681253	keystroke_m	m	n/a
340.9265	0.075	681853	keystroke_Key.enter	Key.enter	n/a
341.007	17.516	682014	prompt	n/a	jenny israel exceptions criticism\n
342.4565	0.075	684913	keystroke_j	j	n/a
342.576	0.1055	685152	keystroke_e	e	n/a
342.7265	0.045	685453	keystroke_n	n	n/a
342.8315	0.075	685663	keystroke_n	n	n/a
343.0265	0.0895	686053	keystroke_y	y	n/a
344.346	0.075	688692	keystroke_Key.space	Key.space	n/a
344.571	0.06	689142	keystroke_i	i	n/a
344.646	0.135	689292	keystroke_s	s	n/a
344.9315	0.0895	689863	keystroke_r	r	n/a
344.976	0.1055	689952	keystroke_e	e	n/a
345.1115	0.1345	690223	keystroke_a	a	n/a
345.366	0.075	690732	keystroke_l	l	n/a
346.8365	0.06	693673	keystroke_Key.backspace	Key.backspace	n/a
346.9565	0.09	693913	keystroke_Key.backspace	Key.backspace	n/a
347.1065	0.075	694213	keystroke_Key.backspace	Key.backspace	n/a
347.4065	0.1045	694813	keystroke_a	a	n/a
347.601	0.105	695202	keystroke_e	e	n/a
347.751	0.045	695502	keystroke_l	l	n/a
350.649	0	701298	keystroke_Key.space	Key.space	n/a
350.721	0.03	701442	keystroke_e	e	n/a
350.902	0.0745	701804	keystroke_x	x	n/a
351.351	0.0905	702702	keystroke_Key.backspace	Key.backspace	n/a
352.0715	0.075	704143	keystroke_x	x	n/a
352.2815	0.075	704563	keystroke_c	c	n/a
352.4015	0.075	704803	keystroke_e	e	n/a
352.5215	0.105	705043	keystroke_p	p	n/a
352.7015	0.075	705403	keystroke_t	t	n/a
352.8065	0.105	705613	keystroke_i	i	n/a
352.9415	0.09	705883	keystroke_p	p	n/a
353.496	0.09	706992	keystroke_Key.backspace	Key.backspace	n/a
354.081	0.151	708162	keystroke_o	o	n/a
354.187	0.104	708374	keystroke_n	n	n/a
354.276	0.075	708552	keystroke_s	s	n/a
355.8365	0.09	711673	keystroke_Key.space	Key.space	n/a
355.941	0.0905	711882	keystroke_c	c	n/a
356.151	0.075	712302	keystroke_r	r	n/a
356.256	0.09	712512	keystroke_i	i	n/a
356.391	0.0905	712782	keystroke_t	t	n/a
356.466	0.0905	712932	keystroke_i	i	n/a
357.186	0.06	714372	keystroke_c	c	n/a
357.261	0.12	714522	keystroke_i	i	n/a
357.321	0.075	714642	keystroke_s	s	n/a
357.426	0.12	714852	keystroke_m	m	n/a
358.3865	0.135	716773	keystroke_Key.enter	Key.enter	n/a
358.5265	8.0065	717053	prompt	n/a	stopping walt pounds protest\n
359.212	0.0895	718424	keystroke_s	s	n/a
359.421	0.0905	718842	keystroke_t	t	n/a
359.646	0.075	719292	keystroke_o	o	n/a
359.842	0.059	719684	keystroke_p	p	n/a
359.976	0.09	719952	keystroke_p	p	n/a
360.1565	0.1195	720313	keystroke_i	i	n/a
360.2315	0.0895	720463	keystroke_n	n	n/a
360.292	0.074	720584	keystroke_g	g	n/a
360.4115	0.0895	720823	keystroke_Key.space	Key.space	n/a
360.5765	0.074	721153	keystroke_w	w	n/a
360.7415	0.0905	721483	keystroke_a	a	n/a
360.982	0.105	721964	keystroke_l	l	n/a
361.0715	0.075	722143	keystroke_t	t	n/a
361.237	0.0595	722474	keystroke_Key.space	Key.space	n/a
361.4465	0.105	722893	keystroke_o	o	n/a
362.7215	0.075	725443	keystroke_Key.backspace	Key.backspace	n/a
363.337	0.075	726674	keystroke_p	p	n/a
363.9815	0.12	727963	keystroke_o	o	n/a
364.1615	0.075	728323	keystroke_u	u	n/a
364.3415	0.09	728683	keystroke_n	n	n/a
364.4465	0.1055	728893	keystroke_d	d	n/a
364.537	0.1195	729074	keystroke_s	s	n/a
365.3765	0.0595	730753	keystroke_Key.space	Key.space	n/a
365.6165	0.089	731233	keystroke_p	p	n/a
365.7215	0.0605	731443	keystroke_r	r	n/a
365.8115	0.09	731623	keystroke_o	o	n/a
365.9165	0.12	731833	keystroke_t	t	n/a
366.022	0.09	732044	keystroke_e	e	n/a
366.1865	0.105	732373	keystroke_s	s	n/a
366.3515	0.075	732703	keystroke_t	t	n/a
366.4415	0.09	732883	keystroke_Key.enter	Key.enter	n/a
366.537	6.0565	733074	prompt	n/a	server laws menus detective\n
367.4465	0.105	734893	keystroke_s	s	n/a
367.7015	0.15	735403	keystroke_e	e	n/a
367.8365	0.09	735673	keystroke_r	r	n/a
368.2115	0.0755	736423	keystroke_v	v	n/a
368.3765	0.075	736753	keystroke_e	e	n/a
368.4215	0.105	736843	keystroke_r	r	n/a
368.6465	0.0745	737293	keystroke_Key.space	Key.space	n/a
368.856	0.09	737712	keystroke_l	l	n/a
368.9615	0.0895	737923	keystroke_a	a	n/a
369.006	0.136	738012	keystroke_w	w	n/a
369.246	0.075	738492	keystroke_s	s	n/a
369.576	0.105	739152	keystroke_Key.space	Key.space	n/a
369.9365	0.0895	739873	keystroke_m	m	n/a
370.0115	0.0745	740023	keystroke_e	e	n/a
370.116	0.105	740232	keystroke_n	n	n/a
370.401	0.09	740802	keystroke_u	u	n/a
370.461	0.105	740922	keystroke_s	s	n/a
371.091	0.076	742182	keystroke_Key.space	Key.space	n/a
371.226	0.09	742452	keystroke_d	d	n/a
371.3615	0.12	742723	keystroke_e	e	n/a
371.512	0.09	743024	keystroke_t	t	n/a
371.587	0.09	743174	keystroke_e	e	n/a
371.752	0.1045	743504	keystroke_c	c	n/a
371.976	0.061	743952	keystroke_t	t	n/a
372.051	0.0605	744102	keystroke_i	i	n/a
372.142	0.135	744284	keystroke_v	v	n/a
372.262	0.1045	744524	keystroke_e	e	n/a
372.5455	0.046	745091	keystroke_Key.enter	Key.enter	n/a
372.5985	9.5345	745197	prompt	n/a	common geographical mozambique arising\n
373.356	0.075	746712	keystroke_c	c	n/a
373.446	0.046	746892	keystroke_o	o	n/a
373.567	0.075	747134	keystroke_m	m	n/a
373.701	0.075	747402	keystroke_m	m	n/a
373.7615	0.1645	747523	keystroke_o	o	n/a
373.867	0.134	747734	keystroke_n	n	n/a
374.301	0.06	748602	keystroke_Key.space	Key.space	n/a
374.721	0.091	749442	keystroke_g	g	n/a
374.8715	0.075	749743	keystroke_e	e	n/a
374.902	0.0895	749804	keystroke_o	o	n/a
375.1415	0.1055	750283	keystroke_g	g	n/a
375.202	0.09	750404	keystroke_r	r	n/a
375.7415	0.1055	751483	keystroke_a	a	n/a
375.9215	0.075	751843	keystroke_p	p	n/a
376.162	0.0595	752324	keystroke_h	h	n/a
376.3265	0.09	752653	keystroke_i	i	n/a
376.4315	0.0755	752863	keystroke_c	c	n/a
376.6415	0.075	753283	keystroke_a	a	n/a
376.7615	0.0755	753523	keystroke_l	l	n/a
377.0165	0.075	754033	keystroke_Key.space	Key.space	n/a
377.511	0.046	755022	keystroke_m	m	n/a
377.7815	0.075	755563	keystroke_o	o	n/a
377.917	0.104	755834	keystroke_z	z	n/a
378.096	0.0905	756192	keystroke_a	a	n/a
378.202	0.09	756404	keystroke_m	m	n/a
378.486	0.075	756972	keystroke_b	b	n/a
378.546	0.0755	757092	keystroke_i	i	n/a
379.1165	0.075	758233	keystroke_q	q	n/a
379.2065	0.09	758413	keystroke_u	u	n/a
379.3115	0.06	758623	keystroke_r	r	n/a
379.8965	0.09	759793	keystroke_Key.backspace	Key.backspace	n/a
379.972	0.0745	759944	keystroke_e	e	n/a
380.647	0.075	761294	keystroke_Key.space	Key.space	n/a
380.722	0.074	761444	keystroke_a	a	n/a
380.871	0.091	761742	keystroke_r	r	n/a
381.0065	0.0605	762013	keystroke_i	i	n/a
381.081	0.0755	762162	keystroke_s	s	n/a
381.1415	0.09	762283	keystroke_i	i	n/a
381.2165	0.105	762433	keystroke_n	n	n/a
381.3065	0.075	762613	keystroke_g	g	n/a
382.0415	0.09	764083	keystroke_Key.enter	Key.enter	n/a
382.138	10.4655	764276	prompt	n/a	vatican deputy francis registration\n
383.332	0.1045	766664	keystroke_v	v	n/a
383.4815	0.1495	766963	keystroke_a	a	n/a
383.617	0.089	767234	keystroke_t	t	n/a
383.721	0.09	767442	keystroke_i	i	n/a
384.1415	0.075	768283	keystroke_c	c	n/a
384.3065	0.09	768613	keystroke_a	a	n/a
384.4115	0.0595	768823	keystroke_n	n	n/a
385.041	0.075	770082	keystroke_Key.space	Key.space	n/a
385.221	0.075	770442	keystroke_d	d	n/a
385.387	0.0595	770774	keystroke_e	e	n/a
385.6265	0.09	771253	keystroke_p	p	n/a
385.9715	0.09	771943	keystroke_u	u	n/a
386.0765	0.03	772153	keystroke_t	t	n/a
386.182	0.0895	772364	keystroke_y	y	n/a
387.0965	0.075	774193	keystroke_Key.space	Key.space	n/a
387.1715	0.075	774343	keystroke_d	d	n/a
387.3215	0.09	774643	keystroke_r	r	n/a
387.7115	0.045	775423	keystroke_Key.backspace	Key.backspace	n/a
387.8315	0.075	775663	keystroke_Key.backspace	Key.backspace	n/a
387.8765	0.075	775753	keystroke_f	f	n/a
388.0415	0.06	776083	keystroke_r	r	n/a
388.1765	0.105	776353	keystroke_a	a	n/a
388.2965	0.06	776593	keystroke_n	n	n/a
388.4315	0.0755	776863	keystroke_c	c	n/a
388.5215	0.09	777043	keystroke_i	i	n/a
388.6265	0.09	777253	keystroke_s	s	n/a
388.7615	0.09	777523	keystroke_Key.space	Key.space	n/a
389.5115	0.06	779023	keystroke_r	r	n/a
389.557	0.0745	779114	keystroke_e	e	n/a
389.9465	0.075	779893	keystroke_i	i	n/a
390.0665	0.075	780133	keystroke_g	g	n/a
390.6815	0.045	781363	keystroke_Key.backspace	Key.backspace	n/a
390.8015	0.09	781603	keystroke_Key.backspace	Key.backspace	n/a
390.9815	0.06	781963	keystroke_g	g	n/a
391.1015	0.105	782203	keystroke_i	i	n/a
391.222	0.0895	782444	keystroke_s	s	n/a
391.5215	0.09	783043	keystroke_t	t	n/a
391.5665	0.0905	783133	keystroke_r	r	n/a
391.7765	0.09	783553	keystroke_a	a	n/a
391.9565	0.06	783913	keystroke_t	t	n/a
392.0015	0.15	784003	keystroke_i	i	n/a
392.0615	0.135	784123	keystroke_o	o	n/a
392.137	0.1045	784274	keystroke_n	n	n/a
392.4965	0.105	784993	keystroke_Key.enter	Key.enter	n/a
392.608	15.776	785216	prompt	n/a	approximate alberta subjective nobody\n
393.3215	0.075	786643	keystroke_a	a	n/a
393.6065	0.075	787213	keystroke_p	p	n/a
393.7415	0.075	787483	keystroke_p	p	n/a
393.9065	0.0745	787813	keystroke_r	r	n/a
393.9515	0.105	787903	keystroke_o	o	n/a
394.221	0.061	788442	keystroke_c	c	n/a
394.6115	0.06	789223	keystroke_Key.backspace	Key.backspace	n/a
394.657	0.0595	789314	keystroke_x	x	n/a
394.792	0.0895	789584	keystroke_i	i	n/a
394.9265	0.09	789853	keystroke_m	m	n/a
395.0315	0.09	790063	keystroke_a	a	n/a
395.1965	0.075	790393	keystroke_t	t	n/a
395.257	0.1195	790514	keystroke_e	e	n/a
395.7665	0.075	791533	keystroke_Key.space	Key.space	n/a
395.9165	0.12	791833	keystroke_a	a	n/a
396.1265	0.1055	792253	keystroke_b	b	n/a
396.5465	0.075	793093	keystroke_Key.backspace	Key.backspace	n/a
396.741	0.0905	793482	keystroke_l	l	n/a
396.816	0.076	793632	keystroke_b	b	n/a
396.966	0.1205	793932	keystroke_e	e	n/a
397.042	0.075	794084	keystroke_r	r	n/a
397.2215	0.06	794443	keystroke_y	y	n/a
397.2365	0.06	794473	keystroke_t	t	n/a
397.851	0.0605	795702	keystroke_Key.backspace	Key.backspace	n/a
397.971	0.0905	795942	keystroke_Key.backspace	Key.backspace	n/a
398.121	0.0905	796242	keystroke_t	t	n/a
398.3915	0.075	796783	keystroke_a	a	n/a
399.742	0.075	799484	keystroke_Key.space	Key.space	n/a
399.876	0.045	799752	keystroke_s	s	n/a
399.996	0.046	799992	keystroke_u	u	n/a
400.0115	0.0155	800023	keystroke_i	i	n/a
401.0915	0.09	802183	keystroke_Key.backspace	Key.backspace	n/a
401.1515	0.09	802303	keystroke_b	b	n/a
401.8265	0.09	803653	keystroke_j	j	n/a
402.0515	0.075	804103	keystroke_u	u	n/a
402.1565	0.075	804313	keystroke_s	s	n/a
402.606	0.1055	805212	keystroke_Key.backspace	Key.backspace	n/a
402.7265	0.06	805453	keystroke_e	e	n/a
402.891	0.09	805782	keystroke_c	c	n/a
403.416	0.0455	806832	keystroke_Key.backspace	Key.backspace	n/a
403.536	0.075	807072	keystroke_Key.backspace	Key.backspace	n/a
403.6865	0.0595	807373	keystroke_Key.backspace	Key.backspace	n/a
403.941	0.075	807882	keystroke_e	e	n/a
404.1065	0.0895	808213	keystroke_c	c	n/a
404.2115	0.09	808423	keystroke_u	u	n/a
404.3765	0.0895	808753	keystroke_t	t	n/a
404.4815	0.105	808963	keystroke_i	i	n/a
404.5565	0.075	809113	keystroke_n	n	n/a
404.856	0.061	809712	keystroke_Key.backspace	Key.backspace	n/a
404.976	0.076	809952	keystroke_Key.backspace	Key.backspace	n/a
405.111	0.06	810222	keystroke_Key.backspace	Key.backspace	n/a
405.246	0.046	810492	keystroke_Key.backspace	Key.backspace	n/a
405.442	0.075	810884	keystroke_t	t	n/a
406.2365	0.075	812473	keystroke_i	i	n/a
406.3265	0.075	812653	keystroke_v	v	n/a
406.357	0.104	812714	keystroke_e	e	n/a
407.1965	0.06	814393	keystroke_Key.space	Key.space	n/a
407.346	0.0905	814692	keystroke_n	n	n/a
407.5115	0.0745	815023	keystroke_o	o	n/a
407.646	0.075	815292	keystroke_b	b	n/a
407.826	0.105	815652	keystroke_d	d	n/a
407.932	0.089	815864	keystroke_o	o	n/a
408.052	0.059	816104	keystroke_y	y	n/a
408.2915	0.09	816583	keystroke_Key.enter	Key.enter	n/a
408.3895	11.4085	816779	prompt	n/a	enquiries supplier bend reduces\n
410.121	0.0305	820242	keystroke_e	e	n/a
410.136	0.075	820272	keystroke_n	n	n/a
410.451	0.1055	820902	keystroke_q	q	n/a
410.557	0.0445	821114	keystroke_u	u	n/a
410.6615	0.1045	821323	keystroke_i	i	n/a
410.781	0.09	821562	keystroke_r	r	n/a
410.841	0.0905	821682	keystroke_e	e	n/a
410.991	0.105	821982	keystroke_i	i	n/a
411.081	0.075	822162	keystroke_e	e	n/a
411.2315	0.0895	822463	keystroke_s	s	n/a
411.9205	0.061	823841	keystroke_Key.backspace	Key.backspace	n/a
412.0865	0.0595	824173	keystroke_Key.backspace	Key.backspace	n/a
412.236	0.06	824472	keystroke_Key.backspace	Key.backspace	n/a
413.7065	0.0895	827413	keystroke_Key.backspace	Key.backspace	n/a
415.011	0.075	830022	keystroke_i	i	n/a
415.0565	0.0755	830113	keystroke_e	e	n/a
415.2215	0.0755	830443	keystroke_s	s	n/a
416.0765	0.075	832153	keystroke_Key.space	Key.space	n/a
416.2265	0.09	832453	keystroke_s	s	n/a
416.3015	0.075	832603	keystroke_u	u	n/a
416.5115	0.06	833023	keystroke_p	p	n/a
416.6165	0.075	833233	keystroke_p	p	n/a
416.7815	0.075	833563	keystroke_l	l	n/a
416.932	0.0895	833864	keystroke_i	i	n/a
416.9765	0.075	833953	keystroke_e	e	n/a
417.0665	0.06	834133	keystroke_r	r	n/a
417.261	0.0905	834522	keystroke_Key.space	Key.space	n/a
417.7415	0.075	835483	keystroke_b	b	n/a
417.9065	0.09	835813	keystroke_e	e	n/a
418.011	0.0605	836022	keystroke_n	n	n/a
418.086	0.1205	836172	keystroke_d	d	n/a
418.161	0.075	836322	keystroke_Key.space	Key.space	n/a
418.402	0.09	836804	keystroke_r	r	n/a
418.4765	0.0895	836953	keystroke_e	e	n/a
419.136	0.06	838272	keystroke_d	d	n/a
419.241	0.091	838482	keystroke_u	u	n/a
419.3465	0.09	838693	keystroke_c	c	n/a
419.4065	0.105	838813	keystroke_e	e	n/a
419.5715	0.105	839143	keystroke_s	s	n/a
419.6915	0.105	839383	keystroke_Key.enter	Key.enter	n/a
419.8015	6.5365	839603	prompt	n/a	combat bathroom oriented honor\n
420.532	0.0895	841064	keystroke_c	c	n/a
420.6365	0.105	841273	keystroke_o	o	n/a
420.6815	0.09	841363	keystroke_m	m	n/a
421.0715	0.015	842143	keystroke_b	b	n/a
421.432	0.1345	842864	keystroke_a	a	n/a
421.5815	0.075	843163	keystroke_t	t	n/a
421.7615	0.03	843523	keystroke_Key.space	Key.space	n/a
422.0315	0.09	844063	keystroke_b	b	n/a
422.1365	0.12	844273	keystroke_a	a	n/a
422.2865	0.075	844573	keystroke_t	t	n/a
422.3765	0.075	844753	keystroke_h	h	n/a
422.5865	0.075	845173	keystroke_o	o	n/a
423.2315	0.089	846463	keystroke_Key.backspace	Key.backspace	n/a
423.3365	0.0905	846673	keystroke_r	r	n/a
423.4405	0.0755	846881	keystroke_o	o	n/a
423.5765	0.1345	847153	keystroke_o	o	n/a
423.6965	0.0895	847393	keystroke_m	m	n/a
423.861	0.0905	847722	keystroke_Key.space	Key.space	n/a
424.236	0.075	848472	keystroke_o	o	n/a
424.386	0.09	848772	keystroke_r	r	n/a
424.461	0.09	848922	keystroke_i	i	n/a
424.6565	0.0895	849313	keystroke_e	e	n/a
424.762	0.09	849524	keystroke_n	n	n/a
424.837	0.075	849674	keystroke_t	t	n/a
425.0765	0.0895	850153	keystroke_e	e	n/a
425.2265	0.1055	850453	keystroke_d	d	n/a
425.436	0.09	850872	keystroke_Key.space	Key.space	n/a
425.662	0.075	851324	keystroke_h	h	n/a
425.841	0.076	851682	keystroke_o	o	n/a
425.9015	0.1495	851803	keystroke_n	n	n/a
426.037	0.09	852074	keystroke_o	o	n/a
426.082	0.075	852164	keystroke_r	r	n/a
426.2165	0.1195	852433	keystroke_Key.enter	Key.enter	n/a
426.342	10.526	852684	prompt	n/a	fleece long residential renaissance\n
427.1465	0.06	854293	keystroke_f	f	n/a
427.2215	0.09	854443	keystroke_l	l	n/a
427.327	0.0595	854654	keystroke_e	e	n/a
427.4315	0.075	854863	keystroke_e	e	n/a
427.5665	0.09	855133	keystroke_c	c	n/a
427.6265	0.105	855253	keystroke_e	e	n/a
427.821	0.075	855642	keystroke_Key.space	Key.space	n/a
428.332	0.075	856664	keystroke_l	l	n/a
428.482	0.12	856964	keystroke_o	o	n/a
428.5865	0.09	857173	keystroke_n	n	n/a
428.6465	0.09	857293	keystroke_g	g	n/a
428.7515	0.074	857503	keystroke_Key.space	Key.space	n/a
429.757	0.0745	859514	keystroke_r	r	n/a
429.8015	0.0755	859603	keystroke_e	e	n/a
429.9665	0.074	859933	keystroke_s	s	n/a
430.1005	0.076	860201	keystroke_i	i	n/a
430.3565	0.105	860713	keystroke_p	p	n/a
430.5065	0.044	861013	keystroke_d	d	n/a
430.8655	0.075	861731	keystroke_Key.backspace	Key.backspace	n/a
431.001	0.0605	862002	keystroke_Key.backspace	Key.backspace	n/a
431.841	0.075	863682	keystroke_d	d	n/a
431.976	0.075	863952	keystroke_e	e	n/a
432.037	0.104	864074	keystroke_n	n	n/a
432.157	0.075	864314	keystroke_t	t	n/a
432.246	0.076	864492	keystroke_i	i	n/a
432.337	0.104	864674	keystroke_a	a	n/a
432.457	0.105	864914	keystroke_l	l	n/a
433.4465	0.06	866893	keystroke_Key.space	Key.space	n/a
433.687	0.075	867374	keystroke_r	r	n/a
433.716	0.091	867432	keystroke_e	e	n/a
434.407	0.0895	868814	keystroke_n	n	n/a
434.6615	0.0755	869323	keystroke_a	a	n/a
434.9015	0.075	869803	keystroke_i	i	n/a
435.2165	0.045	870433	keystroke_s	s	n/a
435.3665	0.075	870733	keystroke_s	s	n/a
435.6515	0.09	871303	keystroke_a	a	n/a
435.7565	0.06	871513	keystroke_n	n	n/a
435.936	0.1655	871872	keystroke_c	c	n/a
436.086	0.105	872172	keystroke_e	e	n/a
436.791	0.0755	873582	keystroke_Key.enter	Key.enter	n/a
436.8715	11.1125	873743	prompt	n/a	hypothetical you pumps cultures\n
438.8315	0.075	877663	keystroke_h	h	n/a
438.9965	0.09	877993	keystroke_y	y	n/a
439.731	0.105	879462	keystroke_p	p	n/a
439.822	0.089	879644	keystroke_o	o	n/a
440.436	0.06	880872	keystroke_t	t	n/a
440.4815	0.09	880963	keystroke_h	h	n/a
440.5565	0.1045	881113	keystroke_e	e	n/a
440.6765	0.03	881353	keystroke_r	r	n/a
441.1265	0.0895	882253	keystroke_Key.backspace	Key.backspace	n/a
441.201	0.09	882402	keystroke_t	t	n/a
441.336	0.105	882672	keystroke_i	i	n/a
441.471	0.091	882942	keystroke_c	c	n/a
441.591	0.0905	883182	keystroke_a	a	n/a
441.6965	0.1045	883393	keystroke_;	;	n/a
442.266	0.1055	884532	keystroke_Key.backspace	Key.backspace	n/a
442.6715	0.0755	885343	keystroke_l	l	n/a
443.7665	0.075	887533	keystroke_Key.space	Key.space	n/a
444.0365	0.09	888073	keystroke_y	y	n/a
444.0965	0.105	888193	keystroke_o	o	n/a
444.1715	0.075	888343	keystroke_u	u	n/a
444.3815	0.09	888763	keystroke_Key.space	Key.space	n/a
444.9365	0.06	889873	keystroke_p	p	n/a
445.1015	0.075	890203	keystroke_u	u	n/a
445.2815	0.075	890563	keystroke_m	m	n/a
445.401	0.1055	890802	keystroke_p	p	n/a
445.491	0.075	890982	keystroke_s	s	n/a
445.626	0.0905	891252	keystroke_Key.space	Key.space	n/a
446.7215	0.0445	893443	keystroke_c	c	n/a
446.8265	0.0595	893653	keystroke_u	u	n/a
447.0065	0.09	894013	keystroke_l	l	n/a
447.112	0.074	894224	keystroke_t	t	n/a
447.217	0.074	894434	keystroke_u	u	n/a
447.292	0.074	894584	keystroke_r	r	n/a
447.3215	0.1045	894643	keystroke_e	e	n/a
447.501	0.1055	895002	keystroke_s	s	n/a
447.8765	0.1055	895753	keystroke_Key.enter	Key.enter	n/a
447.9885	15.55	895977	prompt	n/a	austin projected anatomy plans\n
448.8665	0.075	897733	keystroke_a	a	n/a
448.9865	0.06	897973	keystroke_u	u	n/a
449.0615	0.135	898123	keystroke_s	s	n/a
449.2715	0.105	898543	keystroke_t	t	n/a
449.3615	0.12	898723	keystroke_i	i	n/a
449.4215	0.105	898843	keystroke_o	o	n/a
449.4665	0.12	898933	keystroke_n	n	n/a
449.9015	0.045	899803	keystroke_Key.space	Key.space	n/a
450.2765	0.06	900553	keystroke_p	p	n/a
450.3815	0.0895	900763	keystroke_r	r	n/a
450.442	0.075	900884	keystroke_o	o	n/a
450.6065	0.09	901213	keystroke_j	j	n/a
450.7115	0.105	901423	keystroke_e	e	n/a
450.8615	0.09	901723	keystroke_c	c	n/a
451.0565	0.105	902113	keystroke_t	t	n/a
451.1765	0.0905	902353	keystroke_e	e	n/a
451.2965	0.105	902593	keystroke_d	d	n/a
451.446	0.075	902892	keystroke_Key.space	Key.space	n/a
451.611	0.09	903222	keystroke_a	a	n/a
451.686	0.091	903372	keystroke_n	n	n/a
451.791	0.105	903582	keystroke_a	a	n/a
452.0165	0.0745	904033	keystroke_t	t	n/a
452.121	0.12	904242	keystroke_o	o	n/a
452.211	0.091	904422	keystroke_m	m	n/a
452.376	0.12	904752	keystroke_y	y	n/a
453.861	0.06	907722	keystroke_Key.backspace	Key.backspace	n/a
453.981	0.06	907962	keystroke_Key.backspace	Key.backspace	n/a
454.1315	0.0295	908263	keystroke_Key.backspace	Key.backspace	n/a
454.251	0.045	908502	keystroke_Key.backspace	Key.backspace	n/a
454.3565	0.075	908713	keystroke_Key.backspace	Key.backspace	n/a
454.476	0.0455	908952	keystroke_Key.backspace	Key.backspace	n/a
454.5815	0.0595	909163	keystroke_Key.backspace	Key.backspace	n/a
454.7015	0.0595	909403	keystroke_Key.backspace	Key.backspace	n/a
454.821	0.0605	909642	keystroke_Key.backspace	Key.backspace	n/a
454.941	0.045	909882	keystroke_Key.backspace	Key.backspace	n/a
455.061	0.0455	910122	keystroke_Key.backspace	Key.backspace	n/a
455.1815	0.045	910363	keystroke_Key.backspace	Key.backspace	n/a
455.316	0.045	910632	keystroke_Key.backspace	Key.backspace	n/a
455.436	0.0455	910872	keystroke_Key.backspace	Key.backspace	n/a
455.5565	0.06	911113	keystroke_Key.backspace	Key.backspace	n/a
455.6915	0.06	911383	keystroke_Key.backspace	Key.backspace	n/a
455.811	0.06	911622	keystroke_Key.backspace	Key.backspace	n/a
455.947	0.0595	911894	keystroke_Key.backspace	Key.backspace	n/a
456.0815	0.06	912163	keystroke_Key.backspace	Key.backspace	n/a
456.366	0.061	912732	keystroke_Key.backspace	Key.backspace	n/a
456.877	0.045	913754	keystroke_n	n	n/a
457.371	0.045	914742	keystroke_Key.space	Key.space	n/a
457.627	0.075	915254	keystroke_p	p	n/a
457.717	0.09	915434	keystroke_r	r	n/a
457.822	0.105	915644	keystroke_o	o	n/a
458.122	0.0595	916244	keystroke_j	j	n/a
458.287	0.075	916574	keystroke_e	e	n/a
458.391	0.091	916782	keystroke_c	c	n/a
458.587	0.075	917174	keystroke_t	t	n/a
458.707	0.105	917414	keystroke_e	e	n/a
458.842	0.0895	917684	keystroke_d	d	n/a
458.9465	0.06	917893	keystroke_Key.space	Key.space	n/a
461.7085	0.013	923417	keystroke_a	a	n/a
461.7365	0.075	923473	keystroke_n	n	n/a
461.827	0.1045	923654	keystroke_a	a	n/a
462.0065	0.06	924013	keystroke_t	t	n/a
462.0975	0.134	924195	keystroke_o	o	n/a
462.1865	0.1055	924373	keystroke_m	m	n/a
462.2765	0.075	924553	keystroke_y	y	n/a
462.3965	0.075	924793	keystroke_Key.space	Key.space	n/a
462.937	0.12	925874	keystroke_p	p	n/a
462.997	0.09	925994	keystroke_l	l	n/a
463.072	0.09	926144	keystroke_a	a	n/a
463.177	0.09	926354	keystroke_n	n	n/a
463.252	0.09	926504	keystroke_s	s	n/a
463.447	0.09	926894	keystroke_Key.enter	Key.enter	n/a
463.5425	5.9065	927085	prompt	n/a	design cork mumbai number\n
464.632	0.09	929264	keystroke_d	d	n/a
464.752	0.09	929504	keystroke_e	e	n/a
464.917	0.09	929834	keystroke_s	s	n/a
465.037	0.075	930074	keystroke_i	i	n/a
465.127	0.075	930254	keystroke_g	g	n/a
465.247	0.09	930494	keystroke_n	n	n/a
465.847	0.075	931694	keystroke_Key.space	Key.space	n/a
466.177	0.0895	932354	keystroke_c	c	n/a
466.2815	0.075	932563	keystroke_o	o	n/a
466.3715	0.0755	932743	keystroke_r	r	n/a
466.4015	0.0905	932803	keystroke_k	k	n/a
466.5815	0.09	933163	keystroke_Key.space	Key.space	n/a
467.002	0.0595	934004	keystroke_m	m	n/a
467.1215	0.1055	934243	keystroke_u	u	n/a
467.2565	0.12	934513	keystroke_m	m	n/a
467.4065	0.09	934813	keystroke_b	b	n/a
467.5865	0.075	935173	keystroke_a	a	n/a
467.6315	0.09	935263	keystroke_i	i	n/a
467.8415	0.0755	935683	keystroke_Key.space	Key.space	n/a
468.1865	0.075	936373	keystroke_n	n	n/a
468.3065	0.091	936613	keystroke_u	u	n/a
468.442	0.0895	936884	keystroke_m	m	n/a
468.607	0.09	937214	keystroke_b	b	n/a
468.8025	0.1345	937605	keystroke_e	e	n/a
468.8775	0.1195	937755	keystroke_r	r	n/a
469.357	0.09	938714	keystroke_Key.enter	Key.enter	n/a
469.453	7.181	938906	prompt	n/a	customs earth watched accounting\n
470.3165	0.0605	940633	keystroke_c	c	n/a
470.3915	0.09	940783	keystroke_u	u	n/a
470.452	0.105	940904	keystroke_s	s	n/a
470.662	0.075	941324	keystroke_t	t	n/a
470.752	0.12	941504	keystroke_o	o	n/a
470.827	0.105	941654	keystroke_m	m	n/a
470.917	0.12	941834	keystroke_s	s	n/a
471.052	0.06	942104	keystroke_Key.space	Key.space	n/a
471.757	0.09	943514	keystroke_e	e	n/a
471.907	0.12	943814	keystroke_a	a	n/a
471.996	0.091	943992	keystroke_r	r	n/a
472.1765	0.0755	944353	keystroke_t	t	n/a
472.2815	0.0755	944563	keystroke_h	h	n/a
472.8815	0.09	945763	keystroke_Key.space	Key.space	n/a
473.0615	0.09	946123	keystroke_w	w	n/a
473.227	0.1355	946454	keystroke_a	a	n/a
473.5565	0.015	947113	keystroke_t	t	n/a
473.7075	0.0895	947415	keystroke_c	c	n/a
473.812	0.0895	947624	keystroke_h	h	n/a
473.8565	0.075	947713	keystroke_e	e	n/a
474.0065	0.075	948013	keystroke_d	d	n/a
474.0965	0.09	948193	keystroke_Key.space	Key.space	n/a
474.397	0.105	948794	keystroke_a	a	n/a
474.5765	0.045	949153	keystroke_v	v	n/a
474.7115	0.105	949423	keystroke_c	c	n/a
475.1165	0.0305	950233	keystroke_Key.backspace	Key.backspace	n/a
475.2965	0.03	950593	keystroke_Key.backspace	Key.backspace	n/a
475.4015	0.076	950803	keystroke_c	c	n/a
475.6565	0.015	951313	keystroke_c	c	n/a
475.732	0.105	951464	keystroke_o	o	n/a
475.807	0.09	951614	keystroke_u	u	n/a
475.972	0.12	951944	keystroke_n	n	n/a
476.0775	0.1045	952155	keystroke_t	t	n/a
476.197	0.0595	952394	keystroke_i	i	n/a
476.212	0.104	952424	keystroke_n	n	n/a
476.2715	0.0905	952543	keystroke_g	g	n/a
476.541	0.0905	953082	keystroke_Key.enter	Key.enter	n/a
476.639	8.8295	953278	prompt	n/a	closest places formatting cancelled\n
477.517	0.0745	955034	keystroke_c	c	n/a
477.562	0.075	955124	keystroke_l	l	n/a
477.727	0.09	955454	keystroke_o	o	n/a
477.787	0.075	955574	keystroke_s	s	n/a
478.0275	0.0885	956055	keystroke_e	e	n/a
478.1915	0.0905	956383	keystroke_s	s	n/a
478.386	0.061	956772	keystroke_t	t	n/a
478.5975	0.09	957195	keystroke_s	s	n/a
479.002	0.06	958004	keystroke_Key.backspace	Key.backspace	n/a
479.541	0.061	959082	keystroke_Key.space	Key.space	n/a
480.8025	0.104	961605	keystroke_p	p	n/a
480.847	0.1055	961694	keystroke_l	l	n/a
480.8915	0.1805	961783	keystroke_a	a	n/a
481.0275	0.105	962055	keystroke_c	c	n/a
481.1165	0.09	962233	keystroke_e	e	n/a
481.3415	0.0905	962683	keystroke_s	s	n/a
481.912	0.075	963824	keystroke_Key.space	Key.space	n/a
482.032	0.09	964064	keystroke_f	f	n/a
482.1365	0.09	964273	keystroke_o	o	n/a
482.2115	0.075	964423	keystroke_r	r	n/a
482.3015	0.061	964603	keystroke_m	m	n/a
482.3915	0.0755	964783	keystroke_a	a	n/a
482.5115	0.09	965023	keystroke_t	t	n/a
482.6465	0.09	965293	keystroke_t	t	n/a
482.7375	0.1345	965475	keystroke_i	i	n/a
482.797	0.0895	965594	keystroke_n	n	n/a
482.8565	0.0605	965713	keystroke_g	g	n/a
482.9765	0.0905	965953	keystroke_Key.space	Key.space	n/a
483.2165	0.1055	966433	keystroke_c	c	n/a
483.3665	0.09	966733	keystroke_a	a	n/a
483.472	0.0895	966944	keystroke_n	n	n/a
483.8765	0.09	967753	keystroke_c	c	n/a
483.997	0.105	967994	keystroke_e	e	n/a
484.1775	0.0445	968355	keystroke_l	l	n/a
484.2665	0.09	968533	keystroke_l	l	n/a
484.3265	0.0755	968653	keystroke_e	e	n/a
484.4615	0.09	968923	keystroke_d	d	n/a
484.627	0.075	969254	keystroke_'	'	n/a
485.1215	0.105	970243	keystroke_Key.backspace	Key.backspace	n/a
485.347	0.1195	970694	keystroke_Key.enter	Key.enter	n/a
485.4725	12.851	970945	prompt	n/a	passage applicants telling injection\n
486.3065	0.03	972613	keystroke_o	o	n/a
486.367	0.06	972734	keystroke_a	a	n/a
486.9965	0.09	973993	keystroke_Key.backspace	Key.backspace	n/a
487.4165	0.06	974833	keystroke_Key.backspace	Key.backspace	n/a
488.1965	0.09	976393	keystroke_p	p	n/a
489.3525	0.089	978705	keystroke_a	a	n/a
489.577	0.09	979154	keystroke_s	s	n/a
489.727	0.06	979454	keystroke_s	s	n/a
489.847	0.135	979694	keystroke_a	a	n/a
490.012	0.1045	980024	keystroke_g	g	n/a
490.1175	0.119	980235	keystroke_w	w	n/a
490.5965	0.075	981193	keystroke_Key.backspace	Key.backspace	n/a
490.627	0.0895	981254	keystroke_e	e	n/a
491.362	0.075	982724	keystroke_Key.space	Key.space	n/a
491.452	0.075	982904	keystroke_a	a	n/a
491.617	0.06	983234	keystroke_p	p	n/a
491.722	0.0745	983444	keystroke_p	p	n/a
491.8725	0.074	983745	keystroke_l	l	n/a
492.0365	0.075	984073	keystroke_i	i	n/a
492.0965	0.075	984193	keystroke_c	c	n/a
492.2165	0.105	984433	keystroke_a	a	n/a
492.5315	0.105	985063	keystroke_n	n	n/a
492.6815	0.06	985363	keystroke_t	t	n/a
492.8315	0.105	985663	keystroke_s	s	n/a
492.9215	0.0755	985843	keystroke_Key.space	Key.space	n/a
493.777	0.0895	987554	keystroke_t	t	n/a
493.8815	0.075	987763	keystroke_t	t	n/a
493.942	0.0895	987884	keystroke_e	e	n/a
494.152	0.045	988304	keystroke_l	l	n/a
494.2725	0.0745	988545	keystroke_l	l	n/a
494.4515	0.1205	988903	keystroke_i	i	n/a
494.5115	0.0905	989023	keystroke_n	n	n/a
494.5865	0.075	989173	keystroke_g	g	n/a
494.977	0.045	989954	keystroke_Key.backspace	Key.backspace	n/a
495.067	0.06	990134	keystroke_Key.backspace	Key.backspace	n/a
495.187	0.06	990374	keystroke_Key.backspace	Key.backspace	n/a
495.307	0.06	990614	keystroke_Key.backspace	Key.backspace	n/a
495.427	0.06	990854	keystroke_Key.backspace	Key.backspace	n/a
495.547	0.06	991094	keystroke_Key.backspace	Key.backspace	n/a
495.667	0.09	991334	keystroke_Key.backspace	Key.backspace	n/a
495.862	0.09	991724	keystroke_e	e	n/a
496.0425	0.0745	992085	keystroke_l	l	n/a
496.147	0.09	992294	keystroke_l	l	n/a
496.342	0.12	992684	keystroke_i	i	n/a
496.402	0.09	992804	keystroke_n	n	n/a
496.462	0.06	992924	keystroke_g	g	n/a
496.567	0.104	993134	keystroke_Key.space	Key.space	n/a
497.0915	0.105	994183	keystroke_i	i	n/a
497.152	0.09	994304	keystroke_n	n	n/a
497.3465	0.0305	994693	keystroke_Key.down	Key.down	n/a
497.3615	0.06	994723	keystroke_j	j	n/a
497.4065	0.075	994813	keystroke_e	e	n/a
497.542	0.0895	995084	keystroke_c	c	n/a
497.7365	0.06	995473	keystroke_t	t	n/a
497.752	0.15	995504	keystroke_i	i	n/a
497.8415	0.105	995683	keystroke_o	o	n/a
497.8865	0.075	995773	keystroke_n	n	n/a
498.2615	0.06	996523	keystroke_Key.enter	Key.enter	n/a
498.327	8.5465	996654	prompt	n/a	zones pleased fired security\n
499.282	0.075	998564	keystroke_z	z	n/a
499.357	0.105	998714	keystroke_o	o	n/a
499.432	0.09	998864	keystroke_n	n	n/a
499.537	0.06	999074	keystroke_e	e	n/a
499.732	0.09	999464	keystroke_s	s	n/a
499.867	0.0895	999734	keystroke_Key.space	Key.space	n/a
500.782	0.12	1001564	keystroke_p	p	n/a
500.857	0.09	1001714	keystroke_l	l	n/a
500.887	0.135	1001774	keystroke_e	e	n/a
501.127	0.075	1002254	keystroke_s	s	n/a
501.142	0.09	1002284	keystroke_a	a	n/a
501.622	0.075	1003244	keystroke_Key.backspace	Key.backspace	n/a
501.772	0.09	1003544	keystroke_Key.backspace	Key.backspace	n/a
501.892	0.135	1003784	keystroke_a	a	n/a
501.952	0.15	1003904	keystroke_s	s	n/a
502.147	0.075	1004294	keystroke_e	e	n/a
502.7165	0.076	1005433	keystroke_d	d	n/a
503.1065	0.075	1006213	keystroke_Key.space	Key.space	n/a
503.3465	0.09	1006693	keystroke_f	f	n/a
503.452	0.0745	1006904	keystroke_i	i	n/a
503.5575	0.029	1007115	keystroke_r	r	n/a
503.5725	0.0745	1007145	keystroke_e	e	n/a
503.7665	0.075	1007533	keystroke_s	s	n/a
503.9615	0.075	1007923	keystroke_t	t	n/a
504.4115	0.03	1008823	keystroke_Key.backspace	Key.backspace	n/a
504.5165	0.0605	1009033	keystroke_Key.backspace	Key.backspace	n/a
504.742	0.0595	1009484	keystroke_d	d	n/a
505.342	0.0445	1010684	keystroke_Key.space	Key.space	n/a
505.5215	0.045	1011043	keystroke_s	s	n/a
505.6565	0.1205	1011313	keystroke_e	e	n/a
505.8215	0.1055	1011643	keystroke_c	c	n/a
505.9415	0.105	1011883	keystroke_u	u	n/a
506.062	0.1195	1012124	keystroke_r	r	n/a
506.197	0.0895	1012394	keystroke_i	i	n/a
506.2715	0.0755	1012543	keystroke_t	t	n/a
506.4365	0.0605	1012873	keystroke_y	y	n/a
506.7815	0.0895	1013563	keystroke_Key.enter	Key.enter	n/a
506.8765	5.952	1013753	prompt	n/a	apple deliver grade transaction\n
507.502	0.09	1015004	keystroke_a	a	n/a
507.622	0.06	1015244	keystroke_p	p	n/a
507.742	0.09	1015484	keystroke_p	p	n/a
507.922	0.0755	1015844	keystroke_l	l	n/a
507.982	0.09	1015964	keystroke_e	e	n/a
508.117	0.06	1016234	keystroke_Key.space	Key.space	n/a
508.417	0.09	1016834	keystroke_d	d	n/a
508.552	0.09	1017104	keystroke_e	e	n/a
508.627	0.09	1017254	keystroke_l	l	n/a
508.7925	0.0895	1017585	keystroke_i	i	n/a
508.852	0.075	1017704	keystroke_v	v	n/a
508.987	0.104	1017974	keystroke_e	e	n/a
509.062	0.09	1018124	keystroke_r	r	n/a
509.107	0.075	1018214	keystroke_Key.space	Key.space	n/a
509.902	0.0905	1019804	keystroke_g	g	n/a
509.9465	0.0905	1019893	keystroke_r	r	n/a
510.142	0.104	1020284	keystroke_a	a	n/a
510.232	0.135	1020464	keystroke_d	d	n/a
510.382	0.0905	1020764	keystroke_e	e	n/a
510.486	0.075	1020972	keystroke_Key.space	Key.space	n/a
510.8765	0.105	1021753	keystroke_t	t	n/a
510.9365	0.09	1021873	keystroke_r	r	n/a
511.1315	0.0905	1022263	keystroke_a	a	n/a
511.2065	0.1355	1022413	keystroke_n	n	n/a
511.2965	0.09	1022593	keystroke_s	s	n/a
511.477	0.09	1022954	keystroke_a	a	n/a
511.8815	0.075	1023763	keystroke_c	c	n/a
512.1365	0.0755	1024273	keystroke_t	t	n/a
512.1825	0.15	1024365	keystroke_i	i	n/a
512.241	0.1205	1024482	keystroke_o	o	n/a
512.3015	0.121	1024603	keystroke_n	n	n/a
512.736	0.091	1025472	keystroke_Key.enter	Key.enter	n/a
512.8345	9.849	1025669	prompt	n/a	adsl filtering compatibility outlook\n
513.6815	0.0905	1027363	keystroke_a	a	n/a
513.802	0.0745	1027604	keystroke_d	d	n/a
514.0565	0.105	1028113	keystroke_s	s	n/a
514.1615	0.0755	1028323	keystroke_l	l	n/a
515.1815	0.06	1030363	keystroke_Key.space	Key.space	n/a
515.3315	0.075	1030663	keystroke_f	f	n/a
515.4215	0.06	1030843	keystroke_i	i	n/a
515.7215	0.075	1031443	keystroke_l	l	n/a
515.8115	0.12	1031623	keystroke_t	t	n/a
515.977	0.12	1031954	keystroke_e	e	n/a
516.0815	0.06	1032163	keystroke_r	r	n/a
517.252	0.09	1034504	keystroke_i	i	n/a
517.297	0.105	1034594	keystroke_n	n	n/a
517.3865	0.075	1034773	keystroke_g	g	n/a
518.4065	0.075	1036813	keystroke_Key.space	Key.space	n/a
518.5265	0.075	1037053	keystroke_c	c	n/a
518.6315	0.105	1037263	keystroke_o	o	n/a
518.6915	0.09	1037383	keystroke_m	m	n/a
518.8565	0.0905	1037713	keystroke_p	p	n/a
518.9315	0.105	1037863	keystroke_a	a	n/a
519.1265	0.0605	1038253	keystroke_t	t	n/a
519.1565	0.09	1038313	keystroke_i	i	n/a
520.312	0.075	1040624	keystroke_b	b	n/a
520.357	0.075	1040714	keystroke_i	i	n/a
520.522	0.075	1041044	keystroke_l	l	n/a
520.672	0.09	1041344	keystroke_i	i	n/a
520.687	0.06	1041374	keystroke_t	t	n/a
520.852	0.075	1041704	keystroke_y	y	n/a
520.942	0.06	1041884	keystroke_Key.space	Key.space	n/a
521.587	0.075	1043174	keystroke_o	o	n/a
521.767	0.0905	1043534	keystroke_u	u	n/a
521.872	0.045	1043744	keystroke_t	t	n/a
522.007	0.075	1044014	keystroke_l	l	n/a
522.172	0.06	1044344	keystroke_o	o	n/a
522.277	0.15	1044554	keystroke_o	o	n/a
522.397	0.0895	1044794	keystroke_k	k	n/a
522.592	0.09	1045184	keystroke_Key.enter	Key.enter	n/a
522.688	7.1205	1045376	prompt	n/a	hartford fundraising pork becoming\n
523.5815	0.105	1047163	keystroke_h	h	n/a
523.642	0.1495	1047284	keystroke_a	a	n/a
523.7615	0.105	1047523	keystroke_r	r	n/a
523.9265	0.0905	1047853	keystroke_t	t	n/a
524.1215	0.09	1048243	keystroke_f	f	n/a
524.2265	0.075	1048453	keystroke_o	o	n/a
524.2865	0.075	1048573	keystroke_r	r	n/a
524.4215	0.09	1048843	keystroke_d	d	n/a
524.5125	0.074	1049025	keystroke_Key.space	Key.space	n/a
525.097	0.1195	1050194	keystroke_f	f	n/a
525.2015	0.06	1050403	keystroke_u	u	n/a
525.2315	0.075	1050463	keystroke_n	n	n/a
525.292	0.06	1050584	keystroke_d	d	n/a
526.1165	0.1205	1052233	keystroke_r	r	n/a
526.2815	0.075	1052563	keystroke_a	a	n/a
526.3865	0.09	1052773	keystroke_i	i	n/a
526.5065	0.075	1053013	keystroke_s	s	n/a
526.5815	0.12	1053163	keystroke_i	i	n/a
526.672	0.0895	1053344	keystroke_n	n	n/a
526.7315	0.0905	1053463	keystroke_g	g	n/a
526.882	0.06	1053764	keystroke_Key.space	Key.space	n/a
527.5265	0.105	1055053	keystroke_p	p	n/a
527.6165	0.09	1055233	keystroke_o	o	n/a
527.7215	0.06	1055443	keystroke_r	r	n/a
527.9765	0.0605	1055953	keystroke_k	k	n/a
528.1715	0.0905	1056343	keystroke_Key.space	Key.space	n/a
528.711	0.091	1057422	keystroke_b	b	n/a
528.862	0.105	1057724	keystroke_e	e	n/a
529.011	0.091	1058022	keystroke_c	c	n/a
529.116	0.106	1058232	keystroke_o	o	n/a
529.177	0.075	1058354	keystroke_m	m	n/a
529.312	0.09	1058624	keystroke_i	i	n/a
529.386	0.091	1058772	keystroke_n	n	n/a
529.402	0.089	1058804	keystroke_g	g	n/a
529.7015	0.1045	1059403	keystroke_Key.enter	Key.enter	n/a
529.8125	6.8365	1059625	prompt	n/a	singles posts enabling james\n
530.587	0.09	1061174	keystroke_s	s	n/a
530.662	0.1045	1061324	keystroke_i	i	n/a
530.722	0.1045	1061444	keystroke_n	n	n/a
530.812	0.0595	1061624	keystroke_g	g	n/a
530.9015	0.1205	1061803	keystroke_l	l	n/a
530.9915	0.09	1061983	keystroke_e	e	n/a
531.1865	0.0755	1062373	keystroke_s	s	n/a
531.697	0.06	1063394	keystroke_Key.space	Key.space	n/a
531.982	0.104	1063964	keystroke_p	p	n/a
532.057	0.1195	1064114	keystroke_o	o	n/a
532.1915	0.09	1064383	keystroke_s	s	n/a
532.3715	0.075	1064743	keystroke_t	t	n/a
532.5225	0.149	1065045	keystroke_s	s	n/a
532.6565	0.075	1065313	keystroke_Key.space	Key.space	n/a
533.2865	0.1055	1066573	keystroke_e	e	n/a
533.4065	0.075	1066813	keystroke_n	n	n/a
533.692	0.0595	1067384	keystroke_a	a	n/a
534.5315	0.09	1069063	keystroke_b	b	n/a
534.637	0.075	1069274	keystroke_l	l	n/a
534.802	0.1345	1069604	keystroke_i	i	n/a
534.907	0.09	1069814	keystroke_n	n	n/a
534.9515	0.06	1069903	keystroke_g	g	n/a
535.701	0.06	1071402	keystroke_Key.space	Key.space	n/a
535.897	0.075	1071794	keystroke_j	j	n/a
535.9865	0.0905	1071973	keystroke_a	a	n/a
536.077	0.105	1072154	keystroke_m	m	n/a
536.257	0.09	1072514	keystroke_e	e	n/a
536.407	0.104	1072814	keystroke_s	s	n/a
536.542	0.104	1073084	keystroke_Key.enter	Key.enter	n/a
536.653	7.646	1073306	prompt	n/a	folders highlight tucson chris\n
537.6515	0.0605	1075303	keystroke_g	g	n/a
537.6965	0.075	1075393	keystroke_o	o	n/a
538.1015	0.0455	1076203	keystroke_Key.backspace	Key.backspace	n/a
538.2065	0.0605	1076413	keystroke_Key.backspace	Key.backspace	n/a
538.417	0.075	1076834	keystroke_f	f	n/a
538.4765	0.075	1076953	keystroke_o	o	n/a
538.6265	0.105	1077253	keystroke_l	l	n/a
538.7165	0.06	1077433	keystroke_d	d	n/a
538.7915	0.165	1077583	keystroke_e	e	n/a
538.9115	0.09	1077823	keystroke_r	r	n/a
539.0465	0.1205	1078093	keystroke_s	s	n/a
539.4365	0.0745	1078873	keystroke_Key.space	Key.space	n/a
539.7215	0.105	1079443	keystroke_h	h	n/a
539.8115	0.09	1079623	keystroke_i	i	n/a
539.917	0.0745	1079834	keystroke_g	g	n/a
539.9765	0.09	1079953	keystroke_h	h	n/a
540.1865	0.075	1080373	keystroke_l	l	n/a
540.3665	0.0755	1080733	keystroke_i	i	n/a
540.4265	0.09	1080853	keystroke_g	g	n/a
540.5165	0.0755	1081033	keystroke_h	h	n/a
540.5925	0.074	1081185	keystroke_t	t	n/a
540.712	0.075	1081424	keystroke_Key.space	Key.space	n/a
541.072	0.0295	1082144	keystroke_t	t	n/a
541.087	0.03	1082174	keystroke_r	r	n/a
541.132	0.06	1082264	keystroke_u	u	n/a
541.9115	0.06	1083823	keystroke_Key.backspace	Key.backspace	n/a
542.0465	0.075	1084093	keystroke_Key.backspace	Key.backspace	n/a
542.2865	0.105	1084573	keystroke_u	u	n/a
542.3765	0.075	1084753	keystroke_c	c	n/a
543.081	0.0605	1086162	keystroke_s	s	n/a
543.186	0.075	1086372	keystroke_o	o	n/a
543.216	0.091	1086432	keystroke_n	n	n/a
543.516	0.075	1087032	keystroke_Key.space	Key.space	n/a
543.651	0.106	1087302	keystroke_c	c	n/a
543.741	0.075	1087482	keystroke_h	h	n/a
543.861	0.076	1087722	keystroke_r	r	n/a
543.966	0.0755	1087932	keystroke_i	i	n/a
544.026	0.0905	1088052	keystroke_s	s	n/a
544.206	0.091	1088412	keystroke_Key.enter	Key.enter	n/a
544.3035	3.4455	1088607	prompt	n/a	serving roller arbitrary minerals\n
545.5115	0.09	1091023	keystroke_s	s	n/a
545.7065	0.09	1091413	keystroke_e	e	n/a
545.7515	0.09	1091503	keystroke_r	r	n/a
545.962	0.09	1091924	keystroke_v	v	n/a
546.082	0.12	1092164	keystroke_i	i	n/a
546.172	0.09	1092344	keystroke_n	n	n/a
546.217	0.09	1092434	keystroke_g	g	n/a
546.427	0.0595	1092854	keystroke_Key.space	Key.space	n/a
547.012	0.0745	1094024	keystroke_r	r	n/a
547.1165	0.0595	1094233	keystroke_o	o	n/a
547.2965	0.0455	1094593	keystroke_l	l	n/a
547.416	0.075	1094832	keystroke_l	l	n/a
