onset	duration	sample	value	key	prompt_text
11.922	13.5905	23844	prompt	n/a	the quick brown fox jumps over a lazy dog\n
13.749	0.056	27498	keystroke	t	n/a
13.79	0.075	27580	keystroke	h	n/a
13.91	0.1055	27820	keystroke	e	n/a
14.1955	0.105	28391	keystroke	Key.space	n/a
14.795	0.09	29590	keystroke	q	n/a
14.976	0.06	29952	keystroke	u	n/a
15.141	0.045	30282	keystroke	i	n/a
15.366	0.075	30732	keystroke	c	n/a
15.471	0.0595	30942	keystroke	k	n/a
16.281	0.06	32562	keystroke	Key.space	n/a
16.611	0.075	33222	keystroke	b	n/a
17.001	0.075	34002	keystroke	r	n/a
17.1965	0.075	34393	keystroke	o	n/a
17.2865	0.075	34573	keystroke	w	n/a
17.4215	0.075	34843	keystroke	n	n/a
17.6015	0.075	35203	keystroke	Key.space	n/a
18.022	0.06	36044	keystroke	f	n/a
18.187	0.06	36374	keystroke	o	n/a
18.502	0.075	37004	keystroke	x	n/a
18.6365	0.075	37273	keystroke	Key.space	n/a
18.8325	0.059	37665	keystroke	j	n/a
18.9515	0.06	37903	keystroke	u	n/a
19.1615	0.105	38323	keystroke	m	n/a
19.3265	0.061	38653	keystroke	p	n/a
19.4475	0.105	38895	keystroke	s	n/a
19.5975	0.0745	39195	keystroke	Key.space	n/a
19.807	0.06	39614	keystroke	o	n/a
19.912	0.075	39824	keystroke	v	n/a
20.182	0.09	40364	keystroke	e	n/a
20.287	0.105	40574	keystroke	r	n/a
20.633	0.09	41266	keystroke	Key.space	n/a
20.873	0.06	41746	keystroke	t	n/a
22.118	0.06	44236	keystroke	Key.backspace	n/a
22.5385	0.075	45077	keystroke	a	n/a
22.763	0.091	45526	keystroke	Key.space	n/a
23.1385	0.0605	46277	keystroke	l	n/a
23.259	0.12	46518	keystroke	a	n/a
23.484	0.0745	46968	keystroke	z	n/a
23.6485	0.0755	47297	keystroke	y	n/a
23.9045	0.059	47809	keystroke	Key.space	n/a
24.5795	0.06	49159	keystroke	d	n/a
24.804	0.045	49608	keystroke	o	n/a
25.014	0.075	50028	keystroke	g	n/a
25.419	0.09	50838	keystroke	Key.enter	n/a
25.517	12.69	51034	prompt	n/a	decline amount moderator divx\n
27.506	0.1645	55012	keystroke	d	n/a
27.6555	0.09	55311	keystroke	e	n/a
28.0155	0.09	56031	keystroke	c	n/a
28.1355	0.075	56271	keystroke	l	n/a
28.3605	0.075	56721	keystroke	i	n/a
28.4055	0.09	56811	keystroke	n	n/a
28.6155	0.061	57231	keystroke	e	n/a
28.7215	0.09	57443	keystroke	Key.space	n/a
29.036	0.06	58072	keystroke	m	n/a
29.921	0.06	59842	keystroke	Key.backspace	n/a
30.191	0.091	60382	keystroke	a	n/a
30.312	0.075	60624	keystroke	m	n/a
30.447	0.0745	60894	keystroke	o	n/a
30.687	0.06	61374	keystroke	u	n/a
30.912	0.075	61824	keystroke	n	n/a
31.017	0.075	62034	keystroke	t	n/a
31.272	0.075	62544	keystroke	Key.space	n/a
31.9325	0.075	63865	keystroke	m	n/a
32.0975	0.06	64195	keystroke	o	n/a
32.3075	0.09	64615	keystroke	d	n/a
32.4725	0.1355	64945	keystroke	e	n/a
32.593	0.105	65186	keystroke	r	n/a
33.133	0.0895	66266	keystroke	a	n/a
33.3725	0.045	66745	keystroke	t	n/a
33.6275	0.045	67255	keystroke	e	n/a
34.7835	0.075	69567	keystroke	Key.backspace	n/a
35.2195	0.06	70439	keystroke	o	n/a
35.2945	0.075	70589	keystroke	r	n/a
35.5345	0.06	71069	keystroke	Key.space	n/a
36.7195	0.06	73439	keystroke	d	n/a
37.1395	0.06	74279	keystroke	i	n/a
37.2895	0.0605	74579	keystroke	v	n/a
37.635	0.075	75270	keystroke	x	n/a
38.1145	0.091	76229	keystroke	Key.enter	n/a
38.21	10.321	76420	prompt	n/a	none thong alternative bedford\n
39.2255	0.075	78451	keystroke	n	n/a
39.4205	0.075	78841	keystroke	o	n/a
39.4965	0.074	78993	keystroke	n	n/a
39.6905	0.09	79381	keystroke	e	n/a
39.8405	0.06	79681	keystroke	Key.space	n/a
39.9905	0.076	79981	keystroke	t	n/a
40.0665	0.0895	80133	keystroke	h	n/a
40.2015	0.105	80403	keystroke	o	n/a
40.2615	0.105	80523	keystroke	n	n/a
40.4565	0.0895	80913	keystroke	g	n/a
40.621	0.0905	81242	keystroke	Key.space	n/a
41.3115	0.105	82623	keystroke	a	n/a
41.4915	0.075	82983	keystroke	l	n/a
41.6565	0.09	83313	keystroke	t	n/a
41.8515	0.0905	83703	keystroke	e	n/a
41.912	0.105	83824	keystroke	r	n/a
42.077	0.075	84154	keystroke	n	n/a
42.197	0.045	84394	keystroke	a	n/a
42.377	0.12	84754	keystroke	t	n/a
42.572	0.06	85144	keystroke	i	n/a
43.5775	0.15	87155	keystroke	f	n/a
43.7125	0.06	87425	keystroke	e	n/a
44.5825	0.06	89165	keystroke	Key.backspace	n/a
44.7175	0.0755	89435	keystroke	Key.backspace	n/a
45.303	0.105	90606	keystroke	v	n/a
45.498	0.075	90996	keystroke	e	n/a
45.708	0.075	91416	keystroke	Key.space	n/a
46.759	0.06	93518	keystroke	b	n/a
46.834	0.105	93668	keystroke	e	n/a
47.0735	0.0905	94147	keystroke	d	n/a
47.3135	0.06	94627	keystroke	f	n/a
47.4635	0.06	94927	keystroke	o	n/a
47.5535	0.075	95107	keystroke	r	n/a
47.7335	0.075	95467	keystroke	d	n/a
48.454	0.075	96908	keystroke	Key.enter	n/a
48.5345	7.0945	97069	prompt	n/a	shares posting overall file\n
50.4805	0.075	100961	keystroke	s	n/a
50.6155	0.06	101231	keystroke	h	n/a
50.7055	0.12	101411	keystroke	a	n/a
50.8705	0.15	101741	keystroke	r	n/a
50.9905	0.105	101981	keystroke	e	n/a
51.2005	0.09	102401	keystroke	s	n/a
51.3655	0.09	102731	keystroke	Key.space	n/a
51.7555	0.1055	103511	keystroke	p	n/a
51.845	0.091	103690	keystroke	o	n/a
52.011	0.09	104022	keystroke	s	n/a
52.206	0.0895	104412	keystroke	t	n/a
52.3265	0.135	104653	keystroke	i	n/a
52.3865	0.12	104773	keystroke	n	n/a
52.5365	0.09	105073	keystroke	g	n/a
52.6415	0.09	105283	keystroke	Key.space	n/a
52.851	0.075	105702	keystroke	o	n/a
53.0015	0.1045	106003	keystroke	v	n/a
53.301	0.15	106602	keystroke	e	n/a
53.436	0.075	106872	keystroke	r	n/a
53.661	0.105	107322	keystroke	a	n/a
53.811	0.091	107622	keystroke	l	n/a
54.0215	0.09	108043	keystroke	l	n/a
54.3065	0.06	108613	keystroke	Key.space	n/a
54.801	0.06	109602	keystroke	f	n/a
54.9975	0.0595	109995	keystroke	i	n/a
55.207	0.09	110414	keystroke	l	n/a
55.327	0.075	110654	keystroke	e	n/a
55.552	0.075	111104	keystroke	Key.enter	n/a
55.632	6.4465	111264	prompt	n/a	taking patient tubes township\n
56.617	0.075	113234	keystroke	t	n/a
56.8125	0.0895	113625	keystroke	a	n/a
56.9325	0.044	113865	keystroke	k	n/a
57.0815	0.09	114163	keystroke	i	n/a
57.1415	0.12	114283	keystroke	n	n/a
57.3365	0.075	114673	keystroke	g	n/a
57.4715	0.075	114943	keystroke	Key.space	n/a
57.7275	0.0745	115455	keystroke	p	n/a
57.8615	0.12	115723	keystroke	a	n/a
58.0865	0.09	116173	keystroke	t	n/a
58.2515	0.09	116503	keystroke	i	n/a
58.4015	0.106	116803	keystroke	e	n/a
58.5365	0.091	117073	keystroke	n	n/a
58.7175	0.0595	117435	keystroke	t	n/a
58.852	0.075	117704	keystroke	Key.space	n/a
59.017	0.09	118034	keystroke	t	n/a
59.182	0.09	118364	keystroke	u	n/a
59.302	0.105	118604	keystroke	b	n/a
59.467	0.105	118934	keystroke	e	n/a
59.6915	0.075	119383	keystroke	s	n/a
59.8715	0.0905	119743	keystroke	Key.space	n/a
60.217	0.0745	120434	keystroke	t	n/a
60.3515	0.075	120703	keystroke	o	n/a
60.472	0.105	120944	keystroke	w	n/a
60.637	0.075	121274	keystroke	n	n/a
60.817	0.0895	121634	keystroke	s	n/a
61.1915	0.06	122383	keystroke	h	n/a
61.3115	0.06	122623	keystroke	i	n/a
61.4765	0.0745	122953	keystroke	p	n/a
61.9715	0.105	123943	keystroke	Key.enter	n/a
62.0815	8.8755	124163	prompt	n/a	prayers formal commentary yamaha\n
63.546	0.0605	127092	keystroke	p	n/a
63.6665	0.075	127333	keystroke	r	n/a
63.846	0.091	127692	keystroke	a	n/a
64.0265	0.06	128053	keystroke	y	n/a
64.1615	0.135	128323	keystroke	e	n/a
64.2665	0.1195	128533	keystroke	r	n/a
64.821	0.106	129642	keystroke	s	n/a
65.1665	0.09	130333	keystroke	Key.space	n/a
65.3765	0.105	130753	keystroke	f	n/a
65.5265	0.045	131053	keystroke	o	n/a
65.5865	0.09	131173	keystroke	r	n/a
65.781	0.06	131562	keystroke	m	n/a
65.946	0.06	131892	keystroke	a	n/a
66.051	0.09	132102	keystroke	l	n/a
66.2755	0.075	132551	keystroke	Key.space	n/a
66.531	0.105	133062	keystroke	c	n/a
66.666	0.075	133332	keystroke	o	n/a
66.846	0.06	133692	keystroke	m	n/a
66.996	0.06	133992	keystroke	m	n/a
67.1615	0.075	134323	keystroke	e	n/a
67.3565	0.06	134713	keystroke	n	n/a
67.7305	0.06	135461	keystroke	t	n/a
67.926	0.075	135852	keystroke	a	n/a
68.061	0.09	136122	keystroke	r	n/a
68.2855	0.0455	136571	keystroke	y	n/a
68.736	0.105	137472	keystroke	Key.space	n/a
69.486	0.075	138972	keystroke	y	n/a
69.606	0.1045	139212	keystroke	a	n/a
69.9205	0.076	139841	keystroke	m	n/a
70.0565	0.0745	140113	keystroke	a	n/a
70.236	0.075	140472	keystroke	h	n/a
70.356	0.09	140712	keystroke	a	n/a
70.8505	0.105	141701	keystroke	Key.enter	n/a
70.961	7.346	141922	prompt	n/a	abilities moon justify edited\n
71.961	0.045	143922	keystroke	a	n/a
72.126	0.075	144252	keystroke	b	n/a
72.291	0.075	144582	keystroke	i	n/a
72.5005	0.06	145001	keystroke	l	n/a
72.6805	0.0745	145361	keystroke	i	n/a
72.8	0.09	145600	keystroke	t	n/a
72.965	0.06	145930	keystroke	i	n/a
73.086	0.075	146172	keystroke	e	n/a
73.281	0.0895	146562	keystroke	s	n/a
73.5355	0.015	147071	keystroke	Key.space	n/a
73.655	0.075	147310	keystroke	m	n/a
73.82	0.075	147640	keystroke	o	n/a
73.985	0.0605	147970	keystroke	o	n/a
74.1655	0.09	148331	keystroke	d	n/a
74.4355	0.075	148871	keystroke	Key.space	n/a
74.6305	0.06	149261	keystroke	j	n/a
74.7955	0.06	149591	keystroke	u	n/a
75.4855	0.0745	150971	keystroke	s	n/a
75.7695	0.075	151539	keystroke	t	n/a
75.9495	0.075	151899	keystroke	i	n/a
76.3705	0.06	152741	keystroke	f	n/a
76.55	0.06	153100	keystroke	y	n/a
76.8195	0.09	153639	keystroke	Key.space	n/a
77.1045	0.0905	154209	keystroke	e	n/a
77.36	0.06	154720	keystroke	d	n/a
77.525	0.075	155050	keystroke	i	n/a
77.645	0.06	155290	keystroke	t	n/a
77.81	0.0595	155620	keystroke	e	n/a
77.9895	0.09	155979	keystroke	d	n/a
78.2	0.105	156400	keystroke	Key.enter	n/a
78.3115	22.9125	156623	prompt	n/a	imperial worcester fotos setup\n
79.385	0.045	158770	keystroke	i	n/a
79.534	0.09	159068	keystroke	m	n/a
79.715	0.06	159430	keystroke	e	n/a
80.5545	0.045	161109	keystroke	Key.backspace	n/a
80.9895	0.06	161979	keystroke	p	n/a
81.139	0.075	162278	keystroke	e	n/a
81.184	0.09	162368	keystroke	r	n/a
81.859	0.091	163718	keystroke	i	n/a
81.9795	0.105	163959	keystroke	a	n/a
82.324	0.075	164648	keystroke	l	n/a
83.3895	0.105	166779	keystroke	Key.space	n/a
83.644	0.105	167288	keystroke	w	n/a
83.779	0.09	167558	keystroke	o	n/a
83.884	0.075	167768	keystroke	r	n/a
84.2595	0.1195	168519	keystroke	c	n/a
84.499	0.105	168998	keystroke	e	n/a
84.739	0.0745	169478	keystroke	s	n/a
84.9185	0.1205	169837	keystroke	t	n/a
85.054	0.105	170108	keystroke	o	n/a
85.234	0.045	170468	keystroke	r	n/a
85.384	0.1045	170768	keystroke	Key.space	n/a
86.389	0.12	172778	keystroke	f	n/a
86.524	0.09	173048	keystroke	o	n/a
86.689	0.06	173378	keystroke	t	n/a
86.779	0.075	173558	keystroke	o	n/a
86.989	0.09	173978	keystroke	s	n/a
87.4535	0.12	174907	keystroke	Key.space	n/a
92.0155	0.013	184031	keystroke	Key.backspace	n/a
92.313	0.06	184626	keystroke	Key.backspace	n/a
92.658	0.075	185316	keystroke	Key.backspace	n/a
93.2275	0.075	186455	keystroke	Key.backspace	n/a
93.918	0.06	187836	keystroke	Key.backspace	n/a
94.5175	0.09	189035	keystroke	Key.backspace	n/a
95.1925	0.045	190385	keystroke	Key.backspace	n/a
95.8075	0.06	191615	keystroke	Key.backspace	n/a
96.4375	0.045	192875	keystroke	Key.backspace	n/a
97.112	0.105	194224	keystroke	e	n/a
97.338	0.075	194676	keystroke	r	n/a
97.578	0.1045	195156	keystroke	Key.space	n/a
97.9225	0.075	195845	keystroke	f	n/a
98.1325	0.0595	196265	keystroke	o	n/a
98.297	0.061	196594	keystroke	t	n/a
98.463	0.075	196926	keystroke	o	n/a
98.583	0.104	197166	keystroke	s	n/a
98.807	0.09	197614	keystroke	Key.space	n/a
99.902	0.0755	199804	keystroke	s	n/a
100.0975	0.09	200195	keystroke	e	n/a
100.2925	0.06	200585	keystroke	t	n/a
100.623	0.06	201246	keystroke	u	n/a
100.877	0.045	201754	keystroke	p	n/a
101.1025	0.12	202205	keystroke	Key.enter	n/a
101.2275	15.415	202455	prompt	n/a	cricket mere hands estimation\n
102.4375	0.09	204875	keystroke	c	n/a
102.6475	0.06	205295	keystroke	r	n/a
102.8425	0.06	205685	keystroke	i	n/a
102.9925	0.09	205985	keystroke	c	n/a
103.6825	0.09	207365	keystroke	k	n/a
103.922	0.075	207844	keystroke	e	n/a
104.132	0.075	208264	keystroke	t	n/a
104.2975	0.0745	208595	keystroke	Key.space	n/a
104.522	0.06	209044	keystroke	m	n/a
104.687	0.075	209374	keystroke	e	n/a
104.9425	0.075	209885	keystroke	r	n/a
105.1075	0.075	210215	keystroke	e	n/a
105.4065	0.06	210813	keystroke	Key.space	n/a
105.6925	0.06	211385	keystroke	h	n/a
105.7825	0.1345	211565	keystroke	a	n/a
105.992	0.075	211984	keystroke	n	n/a
106.127	0.105	212254	keystroke	d	n/a
106.367	0.09	212734	keystroke	s	n/a
107.4465	0.0605	214893	keystroke	e	n/a
107.642	0.06	215284	keystroke	s	n/a
107.837	0.06	215674	keystroke	t	n/a
107.987	0.06	215974	keystroke	i	n/a
108.1665	0.075	216333	keystroke	m	n/a
108.2865	0.09	216573	keystroke	a	n/a
108.5115	0.06	217023	keystroke	t	n/a
109.666	0.075	219332	keystroke	Key.backspace	n/a
110.236	0.09	220472	keystroke	Key.backspace	n/a
110.7765	0.09	221553	keystroke	Key.backspace	n/a
111.331	0.105	222662	keystroke	Key.backspace	n/a
111.901	0.0895	223802	keystroke	Key.backspace	n/a
112.53	0.046	225060	keystroke	Key.backspace	n/a
113.131	0.03	226262	keystroke	Key.backspace	n/a
113.701	0.06	227402	keystroke	Key.space	n/a
114.181	0.06	228362	keystroke	e	n/a
114.5555	0.075	229111	keystroke	s	n/a
114.8855	0.06	229771	keystroke	t	n/a
115.1105	0.06	230221	keystroke	i	n/a
115.3055	0.0745	230611	keystroke	m	n/a
115.4105	0.0895	230821	keystroke	a	n/a
115.65	0.061	231300	keystroke	t	n/a
115.906	0.06	231812	keystroke	i	n/a
116.1155	0.09	232231	keystroke	o	n/a
116.2505	0.06	232501	keystroke	n	n/a
116.55	0.09	233100	keystroke	Key.enter	n/a
116.645	17.606	233290	prompt	n/a	spine puzzle king discrimination\n
117.886	0.105	235772	keystroke	s	n/a
118.006	0.015	236012	keystroke	o	n/a
118.096	0.0745	236192	keystroke	i	n/a
118.2605	0.06	236521	keystroke	n	n/a
118.3955	0.075	236791	keystroke	e	n/a
119.2955	0.06	238591	keystroke	Key.backspace	n/a
119.5355	0.06	239071	keystroke	Key.backspace	n/a
119.775	0.06	239550	keystroke	Key.backspace	n/a
120.015	0.075	240030	keystroke	Key.backspace	n/a
120.6605	0.06	241321	keystroke	p	n/a
121.11	0.06	242220	keystroke	i	n/a
121.365	0.06	242730	keystroke	n	n/a
121.591	0.06	243182	keystroke	e	n/a
121.875	0.0605	243750	keystroke	Key.space	n/a
123.0455	0.09	246091	keystroke	p	n/a
123.3005	0.06	246601	keystroke	u	n/a
123.5405	0.12	247081	keystroke	z	n/a
123.7355	0.09	247471	keystroke	z	n/a
124.065	0.06	248130	keystroke	l	n/a
124.26	0.075	248520	keystroke	e	n/a
124.485	0.06	248970	keystroke	Key.space	n/a
125.1755	0.075	250351	keystroke	k	n/a
125.415	0.09	250830	keystroke	i	n/a
125.7	0.06	251400	keystroke	n	n/a
125.91	0.06	251820	keystroke	g	n/a
126.2545	0.03	252509	keystroke	Key.space	n/a
127.4995	0.12	254999	keystroke	d	n/a
127.755	0.09	255510	keystroke	i	n/a
127.92	0.09	255840	keystroke	s	n/a
128.205	0.12	256410	keystroke	c	n/a
128.5345	0.0895	257069	keystroke	r	n/a
128.699	0.12	257398	keystroke	u	n/a
129.734	0.09	259468	keystroke	Key.backspace	n/a
130.08	0.06	260160	keystroke	i	n/a
130.3945	0.09	260789	keystroke	m	n/a
131.3395	0.075	262679	keystroke	i	n/a
131.5495	0.09	263099	keystroke	n	n/a
131.7745	0.0905	263549	keystroke	a	n/a
131.969	0.076	263938	keystroke	t	n/a
132.12	0.0595	264240	keystroke	u	n/a
133.064	0.06	266128	keystroke	Key.backspace	n/a
133.499	0.0595	266998	keystroke	i	n/a
133.6785	0.091	267357	keystroke	o	n/a
133.874	0.075	267748	keystroke	n	n/a
134.159	0.09	268318	keystroke	Key.enter	n/a
134.254	9.4165	268508	prompt	n/a	curtis fossil mpegs racks\n
135.4495	0.0895	270899	keystroke	c	n/a
135.704	0.06	271408	keystroke	u	n/a
135.989	0.06	271978	keystroke	r	n/a
136.199	0.0595	272398	keystroke	t	n/a
136.3935	0.061	272787	keystroke	i	n/a
136.6045	0.09	273209	keystroke	s	n/a
136.7845	0.075	273569	keystroke	Key.space	n/a
137.7895	0.0745	275579	keystroke	f	n/a
138.029	0.0905	276058	keystroke	o	n/a
138.2245	0.06	276449	keystroke	s	n/a
138.3895	0.075	276779	keystroke	s	n/a
138.614	0.06	277228	keystroke	i	n/a
138.899	0.06	277798	keystroke	l	n/a
139.4385	0.0755	278877	keystroke	Key.space	n/a
140.474	0.06	280948	keystroke	m	n/a
140.7885	0.061	281577	keystroke	p	n/a
141.1045	0.09	282209	keystroke	e	n/a
141.314	0.075	282628	keystroke	g	n/a
141.584	0.06	283168	keystroke	s	n/a
142.1535	0.06	284307	keystroke	Key.space	n/a
142.4235	0.075	284847	keystroke	r	n/a
142.6195	0.0895	285239	keystroke	a	n/a
142.829	0.09	285658	keystroke	c	n/a
143.054	0.105	286108	keystroke	k	n/a
143.234	0.075	286468	keystroke	s	n/a
143.549	0.12	287098	keystroke	Key.enter	n/a
143.6735	10.9155	287347	prompt	n/a	authorization delay restaurant divorce\n
144.5385	0.075	289077	keystroke	a	n/a
144.7785	0.06	289557	keystroke	u	n/a
144.944	0.075	289888	keystroke	t	n/a
145.064	0.06	290128	keystroke	h	n/a
145.273	0.075	290546	keystroke	o	n/a
145.468	0.075	290936	keystroke	r	n/a
145.588	0.061	291176	keystroke	i	n/a
146.7135	0.0745	293427	keystroke	z	n/a
146.938	0.09	293876	keystroke	a	n/a
147.193	0.0595	294386	keystroke	t	n/a
147.4475	0.06	294895	keystroke	i	n/a
147.6285	0.12	295257	keystroke	o	n/a
147.988	0.075	295976	keystroke	n	n/a
148.408	0.015	296816	keystroke	Key.space	n/a
148.7225	0.105	297445	keystroke	d	n/a
148.8875	0.105	297775	keystroke	e	n/a
149.083	0.045	298166	keystroke	l	n/a
149.8925	0.105	299785	keystroke	a	n/a
150.0875	0.09	300175	keystroke	y	n/a
150.4175	0.075	300835	keystroke	Key.space	n/a
150.9125	0.1045	301825	keystroke	r	n/a
151.062	0.09	302124	keystroke	e	n/a
151.303	0.09	302606	keystroke	s	n/a
151.498	0.06	302996	keystroke	t	n/a
151.6625	0.0905	303325	keystroke	a	n/a
151.828	0.06	303656	keystroke	u	n/a
151.9325	0.075	303865	keystroke	r	n/a
152.1725	0.12	304345	keystroke	a	n/a
152.4275	0.06	304855	keystroke	n	n/a
152.5925	0.06	305185	keystroke	t	n/a
152.7575	0.0745	305515	keystroke	Key.space	n/a
153.132	0.075	306264	keystroke	d	n/a
153.343	0.075	306686	keystroke	i	n/a
153.478	0.0745	306956	keystroke	v	n/a
153.6125	0.09	307225	keystroke	o	n/a
153.7775	0.06	307555	keystroke	r	n/a
154.0325	0.105	308065	keystroke	c	n/a
154.2575	0.075	308515	keystroke	e	n/a
154.498	0.0895	308996	keystroke	Key.enter	n/a
154.5925	8.6365	309185	prompt	n/a	hugh completely headlines richard\n
155.727	0.105	311454	keystroke	h	n/a
155.922	0.091	311844	keystroke	u	n/a
156.1165	0.076	312233	keystroke	g	n/a
156.2675	0.09	312535	keystroke	h	n/a
156.4925	0.09	312985	keystroke	Key.space	n/a
156.6575	0.105	313315	keystroke	c	n/a
156.7925	0.135	313585	keystroke	o	n/a
157.0325	0.0895	314065	keystroke	m	n/a
157.2725	0.06	314545	keystroke	p	n/a
157.3175	0.12	314635	keystroke	l	n/a
157.5425	0.105	315085	keystroke	e	n/a
158.382	0.105	316764	keystroke	t	n/a
158.592	0.075	317184	keystroke	e	n/a
158.772	0.076	317544	keystroke	l	n/a
158.938	0.0595	317876	keystroke	y	n/a
159.2375	0.075	318475	keystroke	Key.space	n/a
160.0625	0.09	320125	keystroke	h	n/a
160.2125	0.09	320425	keystroke	e	n/a
160.4075	0.09	320815	keystroke	a	n/a
160.6025	0.0745	321205	keystroke	d	n/a
160.752	0.09	321504	keystroke	l	n/a
160.962	0.105	321924	keystroke	i	n/a
161.022	0.09	322044	keystroke	n	n/a
161.157	0.105	322314	keystroke	e	n/a
161.263	0.104	322526	keystroke	s	n/a
161.472	0.09	322944	keystroke	Key.space	n/a
161.7125	0.075	323425	keystroke	r	n/a
161.8475	0.105	323695	keystroke	i	n/a
162.027	0.12	324054	keystroke	c	n/a
162.252	0.06	324504	keystroke	h	n/a
162.327	0.135	324654	keystroke	a	n/a
162.447	0.1045	324894	keystroke	r	n/a
162.7015	0.091	325403	keystroke	d	n/a
163.0925	0.1345	326185	keystroke	Key.enter	n/a
163.2315	12.0715	326463	prompt	n/a	roller nato polyester understanding\n
164.1115	0.06	328223	keystroke	r	n/a
164.3215	0.075	328643	keystroke	o	n/a
164.531	0.046	329062	keystroke	l	n/a
164.682	0.075	329364	keystroke	l	n/a
164.9515	0.15	329903	keystroke	e	n/a
165.1165	0.0895	330233	keystroke	r	n/a
165.281	0.075	330562	keystroke	Key.space	n/a
165.476	0.06	330952	keystroke	n	n/a
165.581	0.106	331162	keystroke	a	n/a
165.8365	0.075	331673	keystroke	t	n/a
166.091	0.06	332182	keystroke	o	n/a
166.361	0.075	332722	keystroke	Key.space	n/a
167.0215	0.0895	334043	keystroke	p	n/a
167.276	0.075	334552	keystroke	o	n/a
167.456	0.061	334912	keystroke	l	n/a
167.7715	0.06	335543	keystroke	y	n/a
167.9515	0.0895	335903	keystroke	s	n/a
168.1615	0.075	336323	keystroke	t	n/a
168.3865	0.12	336773	keystroke	e	n/a
168.5215	0.06	337043	keystroke	r	n/a
169.346	0.09	338692	keystroke	Key.space	n/a
169.886	0.09	339772	keystroke	u	n/a
170.156	0.015	340312	keystroke	n	n/a
170.306	0.075	340612	keystroke	d	n/a
170.472	0.1195	340944	keystroke	s	n/a
171.1615	0.09	342323	keystroke	Key.backspace	n/a
171.746	0.1055	343492	keystroke	e	n/a
171.9865	0.09	343973	keystroke	r	n/a
172.226	0.09	344452	keystroke	s	n/a
172.676	0.0895	345352	keystroke	t	n/a
172.9005	0.09	345801	keystroke	a	n/a
173.0955	0.091	346191	keystroke	n	n/a
173.2465	0.105	346493	keystroke	d	n/a
173.4115	0.12	346823	keystroke	i	n/a
173.5015	0.1195	347003	keystroke	n	n/a
174.611	0.0745	349222	keystroke	g	n/a
175.1955	0.106	350391	keystroke	Key.enter	n/a
175.306	7.616	350612	prompt	n/a	secured prayers mate awful\n
176.291	0.0895	352582	keystroke	s	n/a
176.531	0.06	353062	keystroke	e	n/a
176.756	0.09	353512	keystroke	c	n/a
176.996	0.06	353992	keystroke	u	n/a
177.191	0.1045	354382	keystroke	r	n/a
177.3855	0.075	354771	keystroke	e	n/a
177.641	0.075	355282	keystroke	d	n/a
177.881	0.075	355762	keystroke	Key.space	n/a
178.3755	0.09	356751	keystroke	p	n/a
178.5255	0.06	357051	keystroke	r	n/a
178.7055	0.091	357411	keystroke	a	n/a
178.9155	0.06	357831	keystroke	y	n/a
179.1105	0.15	358221	keystroke	e	n/a
179.2305	0.105	358461	keystroke	r	n/a
179.5005	0.09	359001	keystroke	s	n/a
179.755	0.075	359510	keystroke	Key.space	n/a
180.191	0.06	360382	keystroke	m	n/a
180.401	0.105	360802	keystroke	a	n/a
180.6405	0.09	361281	keystroke	t	n/a
180.8505	0.09	361701	keystroke	e	n/a
181.1205	0.075	362241	keystroke	Key.space	n/a
181.66	0.105	363320	keystroke	a	n/a
181.8705	0.075	363741	keystroke	w	n/a
182.0805	0.075	364161	keystroke	f	n/a
182.305	0.06	364610	keystroke	u	n/a
182.531	0.074	365062	keystroke	l	n/a
182.786	0.135	365572	keystroke	Key.enter	n/a
182.925	10.601	365850	prompt	n/a	inquiries provides defence nested\n
183.8805	0.09	367761	keystroke	i	n/a
184.0755	0.09	368151	keystroke	n	n/a
184.3155	0.0895	368631	keystroke	q	n/a
184.48	0.075	368960	keystroke	u	n/a
184.69	0.06	369380	keystroke	i	n/a
184.99	0.09	369980	keystroke	r	n/a
185.215	0.06	370430	keystroke	i	n/a
185.4095	0.075	370819	keystroke	e	n/a
185.6645	0.076	371329	keystroke	s	n/a
185.8755	0.06	371751	keystroke	Key.space	n/a
186.58	0.06	373160	keystroke	p	n/a
186.79	0.06	373580	keystroke	r	n/a
187	0.0445	374000	keystroke	o	n/a
188.0495	0.09	376099	keystroke	v	n/a
188.3345	0.045	376669	keystroke	i	n/a
188.5295	0.1205	377059	keystroke	d	n/a
188.8	0.09	377600	keystroke	e	n/a
189.04	0.09	378080	keystroke	s	n/a
189.31	0.0895	378620	keystroke	Key.space	n/a
189.8945	0.0905	379789	keystroke	d	n/a
190.1195	0.06	380239	keystroke	e	n/a
190.3145	0.06	380629	keystroke	f	n/a
190.5395	0.075	381079	keystroke	e	n/a
190.7645	0.075	381529	keystroke	n	n/a
190.959	0.105	381918	keystroke	c	n/a
191.2	0.0745	382400	keystroke	e	n/a
191.5145	0.105	383029	keystroke	Key.space	n/a
192.114	0.075	384228	keystroke	n	n/a
192.325	0.075	384650	keystroke	e	n/a
192.505	0.09	385010	keystroke	s	n/a
192.73	0.0595	385460	keystroke	t	n/a
192.9095	0.06	385819	keystroke	e	n/a
193.1345	0.105	386269	keystroke	d	n/a
193.42	0.105	386840	keystroke	Key.enter	n/a
193.529	8.622	387058	prompt	n/a	marked skirt lower prayers\n
194.5445	0.105	389089	keystroke	m	n/a
194.7095	0.12	389419	keystroke	a	n/a
194.9345	0.09	389869	keystroke	r	n/a
195.0695	0.105	390139	keystroke	k	n/a
195.2645	0.06	390529	keystroke	e	n/a
195.4745	0.1045	390949	keystroke	d	n/a
195.684	0.12	391368	keystroke	Key.space	n/a
195.924	0.09	391848	keystroke	s	n/a
196.059	0.09	392118	keystroke	k	n/a
196.284	0.106	392568	keystroke	i	n/a
196.39	0.15	392780	keystroke	r	n/a
196.495	0.0895	392990	keystroke	t	n/a
196.6595	0.1495	393319	keystroke	Key.space	n/a
197.7395	0.1045	395479	keystroke	l	n/a
197.994	0.121	395988	keystroke	o	n/a
198.2345	0.135	396469	keystroke	w	n/a
198.5045	0.165	397009	keystroke	e	n/a
198.6395	0.12	397279	keystroke	r	n/a
198.8645	0.15	397729	keystroke	Key.space	n/a
199.8695	0.12	399739	keystroke	p	n/a
200.1095	0.1045	400219	keystroke	r	n/a
200.259	0.12	400518	keystroke	a	n/a
200.709	0.1055	401418	keystroke	y	n/a
200.9195	0.1195	401839	keystroke	e	n/a
200.979	0.12	401958	keystroke	r	n/a
201.354	0.075	402708	keystroke	s	n/a
201.9535	0.1955	403907	keystroke	Key.enter	n/a
202.1555	13.5995	404311	prompt	n/a	liked ozone laughing held\n
203.3935	0.2555	406787	keystroke	l	n/a
203.829	0.165	407658	keystroke	i	n/a
204.1895	0.135	408379	keystroke	k	n/a
204.354	0.12	408708	keystroke	e	n/a
204.744	0.1195	409488	keystroke	s	n/a
205.614	0.105	411228	keystroke	Key.backspace	n/a
205.8695	0.105	411739	keystroke	d	n/a
206.349	0.12	412698	keystroke	Key.space	n/a
206.9185	0.105	413837	keystroke	o	n/a
208.0885	0.165	416177	keystroke	z	n/a
208.3585	0.105	416717	keystroke	o	n/a
209.0785	0.15	418157	keystroke	n	n/a
209.333	0.09	418666	keystroke	e	n/a
209.573	0.15	419146	keystroke	Key.space	n/a
210.368	0.2405	420736	keystroke	l	n/a
210.5935	0.12	421187	keystroke	a	n/a
210.8485	0.15	421697	keystroke	u	n/a
211.1035	0.0745	422207	keystroke	g	n/a
211.283	0.075	422566	keystroke	h	n/a
211.763	0.285	423526	keystroke	n	n/a
212.723	0.06	425446	keystroke	Key.backspace	n/a
213.1285	0.06	426257	keystroke	i	n/a
213.1735	0.135	426347	keystroke	n	n/a
213.6385	0.0895	427277	keystroke	g	n/a
213.893	0.165	427786	keystroke	Key.space	n/a
214.283	0.091	428566	keystroke	h	n/a
214.4785	0.12	428957	keystroke	e	n/a
214.853	0.1205	429706	keystroke	l	n/a
215.0785	0.15	430157	keystroke	d	n/a
215.648	0.105	431296	keystroke	Key.enter	n/a
215.7595	13.8245	431519	prompt	n/a	scale zimbabwe days retention\n
216.893	0.09	433786	keystroke	s	n/a
217.133	0.1645	434266	keystroke	c	n/a
217.2825	0.105	434565	keystroke	a	n/a
217.838	0.1345	435676	keystroke	l	n/a
218.1975	0.12	436395	keystroke	e	n/a
218.5125	0.135	437025	keystroke	Key.space	n/a
220.028	0.165	440056	keystroke	z	n/a
220.328	0.18	440656	keystroke	i	n/a
220.6425	0.135	441285	keystroke	m	n/a
220.9725	0.105	441945	keystroke	b	n/a
221.2425	0.105	442485	keystroke	a	n/a
221.873	0.105	443746	keystroke	b	n/a
223.043	0.09	446086	keystroke	e	n/a
223.6875	0.09	447375	keystroke	Key.backspace	n/a
224.198	0.1195	448396	keystroke	w	n/a
224.4675	0.105	448935	keystroke	e	n/a
224.6475	0.165	449295	keystroke	Key.space	n/a
225.383	0.12	450766	keystroke	d	n/a
225.518	0.06	451036	keystroke	a	n/a
225.668	0.1345	451336	keystroke	y	n/a
225.8475	0.1345	451695	keystroke	s	n/a
226.237	0.015	452474	keystroke	Key.space	n/a
226.538	0.15	453076	keystroke	r	n/a
226.673	0.1045	453346	keystroke	e	n/a
227.3775	0.1195	454755	keystroke	n	n/a
227.557	0.09	455114	keystroke	t	n/a
227.752	0.21	455504	keystroke	i	n/a
228.007	0.1505	456014	keystroke	o	n/a
228.697	0.105	457394	keystroke	n	n/a
229.432	0.15	458864	keystroke	Key.enter	n/a
229.5865	9.432	459173	prompt	n/a	beast sacramento soft death\n
230.7225	0.0755	461445	keystroke	b	n/a
230.857	0.1045	461714	keystroke	e	n/a
231.1425	0.1795	462285	keystroke	a	n/a
231.292	0.135	462584	keystroke	s	n/a
231.547	0.106	463094	keystroke	t	n/a
231.712	0.12	463424	keystroke	Key.space	n/a
232.0875	0.1495	464175	keystroke	s	n/a
232.192	0.135	464384	keystroke	a	n/a
232.432	0.15	464864	keystroke	c	n/a
232.7625	0.1055	465525	keystroke	r	n/a
232.8525	0.075	465705	keystroke	e	n/a
233.0625	0.06	466125	keystroke	a	n/a
233.6615	0.03	467323	keystroke	Key.backspace	n/a
234.0525	0.105	468105	keystroke	Key.backspace	n/a
234.367	0.09	468734	keystroke	a	n/a
234.832	0.12	469664	keystroke	m	n/a
234.997	0.09	469994	keystroke	e	n/a
235.237	0.1195	470474	keystroke	n	n/a
235.4165	0.091	470833	keystroke	t	n/a
235.7925	0.0895	471585	keystroke	o	n/a
236.1215	0.12	472243	keystroke	Key.space	n/a
237.007	0.12	474014	keystroke	s	n/a
237.247	0.0895	474494	keystroke	o	n/a
237.3665	0.06	474733	keystroke	f	n/a
237.5165	0.0605	475033	keystroke	t	n/a
237.6515	0.12	475303	keystroke	Key.space	n/a
237.8915	0.12	475783	keystroke	d	n/a
238.0265	0.12	476053	keystroke	e	n/a
238.1915	0.09	476383	keystroke	a	n/a
238.3265	0.105	476653	keystroke	t	n/a
238.5065	0.0895	477013	keystroke	h	n/a
238.837	0.18	477674	keystroke	Key.enter	n/a
239.0215	8.127	478043	prompt	n/a	euro whether hacker lottery\n
239.977	0.09	479954	keystroke	e	n/a
240.202	0.075	480404	keystroke	u	n/a
240.367	0.06	480734	keystroke	r	n/a
240.892	0.12	481784	keystroke	o	n/a
241.177	0.09	482354	keystroke	Key.space	n/a
241.4615	0.135	482923	keystroke	w	n/a
242.2865	0.075	484573	keystroke	h	n/a
242.4215	0.09	484843	keystroke	e	n/a
242.6315	0.075	485263	keystroke	t	n/a
242.7515	0.0755	485503	keystroke	h	n/a
242.931	0.1505	485862	keystroke	e	n/a
243.0515	0.135	486103	keystroke	r	n/a
243.2765	0.18	486553	keystroke	Key.space	n/a
243.6515	0.0745	487303	keystroke	h	n/a
243.741	0.15	487482	keystroke	a	n/a
243.936	0.106	487872	keystroke	c	n/a
244.101	0.136	488202	keystroke	k	n/a
244.327	0.1195	488654	keystroke	e	n/a
244.4315	0.09	488863	keystroke	r	n/a
244.5965	0.1645	489193	keystroke	Key.space	n/a
245.181	0.106	490362	keystroke	l	n/a
245.602	0.105	491204	keystroke	o	n/a
245.7815	0.12	491563	keystroke	t	n/a
246.0365	0.075	492073	keystroke	t	n/a
246.2615	0.135	492523	keystroke	e	n/a
246.3815	0.09	492763	keystroke	r	n/a
246.6065	0.1345	493213	keystroke	y	n/a
247.027	0.12	494054	keystroke	Key.enter	n/a
247.1515	17.172	494303	prompt	n/a	descriptions citysearch melbourne nick\n
248.092	0.1495	496184	keystroke	d	n/a
248.2115	0.075	496423	keystroke	e	n/a
248.4665	0.09	496933	keystroke	s	n/a
248.7065	0.045	497413	keystroke	c	n/a
248.8865	0.075	497773	keystroke	r	n/a
249.081	0.075	498162	keystroke	i	n/a
249.517	0.09	499034	keystroke	p	n/a
249.727	0.075	499454	keystroke	t	n/a
249.8765	0.09	499753	keystroke	i	n/a
250.2365	0.105	500473	keystroke	o	n/a
250.4015	0.135	500803	keystroke	n	n/a
250.746	0.105	501492	keystroke	s	n/a
250.941	0.12	501882	keystroke	Key.space	n/a
251.391	0.09	502782	keystroke	c	n/a
251.496	0.105	502992	keystroke	i	n/a
251.706	0.09	503412	keystroke	t	n/a
252.2915	0.15	504583	keystroke	s	n/a
252.666	0.12	505332	keystroke	e	n/a
252.771	0.165	505542	keystroke	a	n/a
253.461	0.09	506922	keystroke	Key.backspace	n/a
253.761	0.0755	507522	keystroke	Key.backspace	n/a
254.0765	0.0895	508153	keystroke	Key.backspace	n/a
254.781	0.03	509562	keystroke	y	n/a
255.7265	0.1195	511453	keystroke	s	n/a
255.9215	0.12	511843	keystroke	e	n/a
256.1165	0.1345	512233	keystroke	a	n/a
256.341	0.09	512682	keystroke	r	n/a
256.6265	0.12	513253	keystroke	c	n/a
256.791	0.15	513582	keystroke	g	n/a
257.1355	0.076	514271	keystroke	Key.space	n/a
257.736	0.06	515472	keystroke	Key.backspace	n/a
257.931	0.0745	515862	keystroke	Key.backspace	n/a
258.2465	0.075	516493	keystroke	h	n/a
258.6215	0.15	517243	keystroke	Key.space	n/a
259.4615	0.1195	518923	keystroke	m	n/a
259.656	0.1055	519312	keystroke	e	n/a
259.8505	0.106	519701	keystroke	l	n/a
260.1665	0.06	520333	keystroke	b	n/a
260.4365	0.15	520873	keystroke	o	n/a
260.691	0.0745	521382	keystroke	u	n/a
260.8415	0.09	521683	keystroke	r	n/a
261.0065	0.075	522013	keystroke	n	n/a
261.1865	0.105	522373	keystroke	e	n/a
261.3815	0.045	522763	keystroke	Key.space	n/a
261.5465	0.0745	523093	keystroke	k	n/a
261.711	0.075	523422	keystroke	i	n/a
262.3265	0.06	524653	keystroke	Key.backspace	n/a
262.506	0.075	525012	keystroke	Key.backspace	n/a
262.821	0.045	525642	keystroke	n	n/a
263.466	0.075	526932	keystroke	i	n/a
263.706	0.1205	527412	keystroke	c	n/a
263.9615	0.075	527923	keystroke	k	n/a
264.261	0.06	528522	keystroke	Key.enter	n/a
264.3265	13.6305	528653	prompt	n/a	percentage pick opposite brazil\n
265.671	0.1355	531342	keystroke	p	n/a
265.9865	0.1345	531973	keystroke	e	n/a
266.2255	0.075	532451	keystroke	r	n/a
266.4955	0.121	532991	keystroke	c	n/a
266.6465	0.105	533293	keystroke	e	n/a
266.8565	0.0595	533713	keystroke	n	n/a
267.066	0.09	534132	keystroke	t	n/a
267.2605	0.12	534521	keystroke	a	n/a
267.4705	0.046	534941	keystroke	g	n/a
267.7715	0.09	535543	keystroke	e	n/a
268.026	0.12	536052	keystroke	Key.space	n/a
268.7755	0.12	537551	keystroke	p	n/a
268.9705	0.135	537941	keystroke	i	n/a
269.2555	0.1055	538511	keystroke	c	n/a
269.391	0.09	538782	keystroke	k	n/a
269.6455	0.045	539291	keystroke	Key.space	n/a
269.931	0.12	539862	keystroke	o	n/a
270.186	0.03	540372	keystroke	p	n/a
270.336	0.015	540672	keystroke	p	n/a
270.531	0.09	541062	keystroke	o	n/a
271.1005	0.105	542201	keystroke	s	n/a
271.4315	0.0895	542863	keystroke	i	n/a
271.6405	0.105	543281	keystroke	t	n/a
271.881	0.12	543762	keystroke	e	n/a
272.076	0.105	544152	keystroke	Key.space	n/a
272.8705	0.12	545741	keystroke	b	n/a
273.1855	0.135	546371	keystroke	r	n/a
273.591	0.135	547182	keystroke	z	n/a
273.861	0.105	547722	keystroke	a	n/a
274.4155	0.06	548831	keystroke	Key.backspace	n/a
274.5205	0.06	549041	keystroke	Key.backspace	n/a
274.7455	0.1195	549491	keystroke	z	n/a
275.015	0.105	550030	keystroke	a	n/a
275.6005	0.06	551201	keystroke	Key.backspace	n/a
275.78	0.045	551560	keystroke	Key.backspace	n/a
276.4555	0.09	552911	keystroke	a	n/a
276.6955	0.06	553391	keystroke	z	n/a
276.8605	0.06	553721	keystroke	i	n/a
277.3855	0.0445	554771	keystroke	l	n/a
277.85	0.105	555700	keystroke	Key.enter	n/a
277.96	10.677	555920	prompt	n/a	care concepts prospective today\n
278.9	0.09	557800	keystroke	c	n/a
279.11	0.121	558220	keystroke	a	n/a
279.411	0.0445	558822	keystroke	r	n/a
279.5005	0.06	559001	keystroke	e	n/a
279.8305	0.135	559661	keystroke	Key.space	n/a
280.0255	0.1055	560051	keystroke	c	n/a
280.146	0.1495	560292	keystroke	o	n/a
280.2805	0.105	560561	keystroke	n	n/a
280.8655	0.09	561731	keystroke	c	n/a
281.0605	0.045	562121	keystroke	e	n/a
281.2105	0.0895	562421	keystroke	o	n/a
281.405	0.075	562810	keystroke	t	n/a
281.9155	0.06	563831	keystroke	Key.backspace	n/a
282.08	0.061	564160	keystroke	Key.backspace	n/a
282.3055	0.015	564611	keystroke	p	n/a
282.5005	0.0595	565001	keystroke	p	n/a
282.98	0.06	565960	keystroke	Key.backspace	n/a
283.2655	0.075	566531	keystroke	t	n/a
283.7605	0.12	567521	keystroke	s	n/a
284.1205	0.0745	568241	keystroke	Key.space	n/a
284.75	0.106	569500	keystroke	p	n/a
284.9755	0.105	569951	keystroke	r	n/a
285.3805	0.09	570761	keystroke	o	n/a
285.6505	0.0895	571301	keystroke	s	n/a
285.815	0.105	571630	keystroke	p	n/a
285.965	0.105	571930	keystroke	e	n/a
286.16	0.075	572320	keystroke	c	n/a
286.385	0.075	572770	keystroke	t	n/a
286.5045	0.0905	573009	keystroke	i	n/a
286.6845	0.121	573369	keystroke	v	n/a
286.8205	0.09	573641	keystroke	e	n/a
287.0305	0.12	574061	keystroke	Key.space	n/a
287.4055	0.0745	574811	keystroke	t	n/a
287.66	0.06	575320	keystroke	o	n/a
287.9455	0.0445	575891	keystroke	d	n/a
287.96	0.105	575920	keystroke	a	n/a
288.14	0.105	576280	keystroke	y	n/a
288.545	0.09	577090	keystroke	Key.enter	n/a
288.64	10.1665	577280	prompt	n/a	discussions accuracy binding meetup\n
289.5955	0.135	579191	keystroke	d	n/a
290.36	0.045	580720	keystroke	i	n/a
290.555	0.06	581110	keystroke	s	n/a
290.735	0.135	581470	keystroke	c	n/a
290.96	0.09	581920	keystroke	u	n/a
291.2	0.06	582400	keystroke	s	n/a
291.3495	0.075	582699	keystroke	s	n/a
291.4695	0.09	582939	keystroke	i	n/a
291.9655	0.1045	583931	keystroke	o	n/a
292.22	0.0745	584440	keystroke	n	n/a
292.3845	0.12	584769	keystroke	s	n/a
292.5645	0.105	585129	keystroke	Key.space	n/a
292.6855	0.105	585371	keystroke	a	n/a
292.9105	0.06	585821	keystroke	c	n/a
293.1355	0.0745	586271	keystroke	c	n/a
293.33	0.0905	586660	keystroke	u	n/a
293.4955	0.119	586991	keystroke	r	n/a
293.6755	0.1195	587351	keystroke	a	n/a
294.1545	0.135	588309	keystroke	c	n/a
294.425	0.105	588850	keystroke	y	n/a
294.845	0.1345	589690	keystroke	Key.space	n/a
295.4905	0.075	590981	keystroke	b	n/a
295.7455	0.089	591491	keystroke	i	n/a
295.805	0.1195	591610	keystroke	n	n/a
296.0445	0.135	592089	keystroke	d	n/a
296.2095	0.09	592419	keystroke	i	n/a
296.2395	0.135	592479	keystroke	n	n/a
296.4345	0.091	592869	keystroke	g	n/a
296.6305	0.0895	593261	keystroke	Key.space	n/a
297.2155	0.06	594431	keystroke	m	n/a
297.335	0.075	594670	keystroke	e	n/a
297.5	0.09	595000	keystroke	e	n/a
297.665	0.12	595330	keystroke	t	n/a
297.89	0.09	595780	keystroke	u	n/a
298.2195	0.105	596439	keystroke	p	n/a
298.6695	0.135	597339	keystroke	Key.enter	n/a
298.8095	10.302	597619	prompt	n/a	queries rentals obviously forestry\n
299.795	0.105	599590	keystroke	q	n/a
299.945	0.0895	599890	keystroke	u	n/a
300.1395	0.1055	600279	keystroke	e	n/a
300.35	0.105	600700	keystroke	r	n/a
300.8595	0.105	601719	keystroke	i	n/a
301.0695	0.0905	602139	keystroke	e	n/a
301.3095	0.12	602619	keystroke	s	n/a
301.4895	0.12	602979	keystroke	Key.space	n/a
301.7445	0.0455	603489	keystroke	r	n/a
301.791	0.074	603582	keystroke	e	n/a
302.1045	0.045	604209	keystroke	n	n/a
302.3295	0.015	604659	keystroke	t	n/a
302.4645	0.12	604929	keystroke	a	n/a
302.914	0.1355	605828	keystroke	l	n/a
303.1695	0.105	606339	keystroke	s	n/a
303.4545	0.12	606909	keystroke	Key.space	n/a
303.844	0.121	607688	keystroke	o	n/a
304.115	0.09	608230	keystroke	b	n/a
304.505	0.045	609010	keystroke	v	n/a
304.595	0.075	609190	keystroke	i	n/a
305.0295	0.21	610059	keystroke	o	n/a
305.1195	0.135	610239	keystroke	u	n/a
305.3445	0.12	610689	keystroke	s	n/a
305.4795	0.135	610959	keystroke	l	n/a
305.734	0.136	611468	keystroke	y	n/a
306.02	0.135	612040	keystroke	Key.space	n/a
306.9795	0.105	613959	keystroke	f	n/a
307.2795	0.105	614559	keystroke	o	n/a
307.624	0.121	615248	keystroke	r	n/a
307.835	0.075	615670	keystroke	e	n/a
308.075	0.09	616150	keystroke	s	n/a
308.435	0.045	616870	keystroke	t	n/a
308.45	0.1195	616900	keystroke	r	n/a
308.6595	0.105	617319	keystroke	y	n/a
308.9445	0.165	617889	keystroke	Key.enter	n/a
309.114	9.852	618228	prompt	n/a	rome arcade notification comfortable\n
310.055	0.09	620110	keystroke	r	n/a
310.295	0.1345	620590	keystroke	o	n/a
310.5195	0.105	621039	keystroke	m	n/a
310.7595	0.105	621519	keystroke	e	n/a
310.9545	0.105	621909	keystroke	Key.space	n/a
311.21	0.1045	622420	keystroke	a	n/a
311.4345	0.09	622869	keystroke	r	n/a
311.6745	0.12	623349	keystroke	c	n/a
312.0645	0.165	624129	keystroke	a	n/a
312.7845	0.165	625569	keystroke	d	n/a
312.9195	0.12	625839	keystroke	e	n/a
313.3395	0.15	626679	keystroke	Key.space	n/a
313.774	0.0905	627548	keystroke	n	n/a
314.0295	0.105	628059	keystroke	o	n/a
314.3745	0.0895	628749	keystroke	t	n/a
314.554	0.09	629108	keystroke	i	n/a
314.839	0.09	629678	keystroke	f	n/a
314.989	0.09	629978	keystroke	i	n/a
315.185	0.135	630370	keystroke	c	n/a
315.335	0.0895	630670	keystroke	a	n/a
315.5295	0.105	631059	keystroke	t	n/a
315.6945	0.0895	631389	keystroke	i	n/a
315.919	0.166	631838	keystroke	o	n/a
316.145	0.0895	632290	keystroke	n	n/a
316.579	0.15	633158	keystroke	Key.space	n/a
316.939	0.106	633878	keystroke	c	n/a
317.06	0.1045	634120	keystroke	o	n/a
317.1345	0.15	634269	keystroke	m	n/a
317.3445	0.09	634689	keystroke	f	n/a
317.4495	0.09	634899	keystroke	o	n/a
317.5995	0.165	635199	keystroke	r	n/a
317.7195	0.12	635439	keystroke	t	n/a
318.0185	0.136	636037	keystroke	a	n/a
318.1695	0.09	636339	keystroke	b	n/a
318.3945	0.09	636789	keystroke	l	n/a
318.5595	0.09	637119	keystroke	e	n/a
318.8145	0.1495	637629	keystroke	Key.enter	n/a
318.9685	11.817	637937	prompt	n/a	autos accordingly 'twas maritime\n
319.805	0.06	639610	keystroke	a	n/a
319.9695	0.09	639939	keystroke	u	n/a
320.1345	0.12	640269	keystroke	t	n/a
320.4945	0.09	640989	keystroke	o	n/a
320.6745	0.09	641349	keystroke	s	n/a
320.8995	0.09	641799	keystroke	Key.space	n/a
321.1695	0.135	642339	keystroke	a	n/a
321.4545	0.0745	642909	keystroke	c	n/a
321.6485	0.091	643297	keystroke	c	n/a
321.7685	0.121	643537	keystroke	o	n/a
321.9495	0.045	643899	keystroke	r	n/a
322.114	0.105	644228	keystroke	d	n/a
322.534	0.1045	645068	keystroke	i	n/a
322.5935	0.106	645187	keystroke	n	n/a
322.7445	0.12	645489	keystroke	g	n/a
323.1345	0.105	646269	keystroke	l	n/a
323.2845	0.135	646569	keystroke	y	n/a
323.524	0.135	647048	keystroke	Key.space	n/a
325.4895	0.21	650979	keystroke	Key.shift_r	n/a
325.9545	0.09	651909	keystroke	'	n/a
326.8095	0.1195	653619	keystroke	t	n/a
327.1535	0.09	654307	keystroke	w	n/a
327.319	0.15	654638	keystroke	a	n/a
327.499	0.12	654998	keystroke	s	n/a
327.724	0.12	655448	keystroke	Key.space	n/a
329.0295	0.0745	658059	keystroke	m	n/a
329.134	0.165	658268	keystroke	a	n/a
329.344	0.075	658688	keystroke	r	n/a
329.464	0.09	658928	keystroke	i	n/a
329.6745	0.0595	659349	keystroke	t	n/a
329.7795	0.105	659559	keystroke	i	n/a
329.8695	0.1345	659739	keystroke	m	n/a
330.064	0.09	660128	keystroke	e	n/a
330.6795	0.105	661359	keystroke	Key.enter	n/a
330.7895	7.046	661579	prompt	n/a	david size beat jacob\n
332.044	0.045	664088	keystroke	d	n/a
332.074	0.105	664148	keystroke	a	n/a
332.374	0.075	664748	keystroke	v	n/a
332.524	0.0895	665048	keystroke	i	n/a
332.6285	0.12	665257	keystroke	d	n/a
332.8235	0.135	665647	keystroke	Key.space	n/a
333.1535	0.12	666307	keystroke	s	n/a
333.3185	0.075	666637	keystroke	i	n/a
333.4835	0.091	666967	keystroke	z	n/a
333.724	0.0895	667448	keystroke	e	n/a
333.8735	0.135	667747	keystroke	Key.space	n/a
334.969	0.12	669938	keystroke	b	n/a
335.074	0.105	670148	keystroke	e	n/a
335.119	0.135	670238	keystroke	a	n/a
335.389	0.0895	670778	keystroke	t	n/a
335.5235	0.12	671047	keystroke	Key.space	n/a
336.1245	0.089	672249	keystroke	j	n/a
336.2745	0.0885	672549	keystroke	a	n/a
336.544	0.105	673088	keystroke	c	n/a
336.664	0.165	673328	keystroke	o	n/a
337.0385	0.076	674077	keystroke	b	n/a
337.699	0.135	675398	keystroke	Key.enter	n/a
337.8385	17.697	675677	prompt	n/a	precious ordinance something's sustainability\n
339.214	0.06	678428	keystroke	p	n/a
339.8435	0.135	679687	keystroke	r	n/a
339.9335	0.105	679867	keystroke	e	n/a
340.759	0.15	681518	keystroke	c	n/a
341.029	0.0745	682058	keystroke	i	n/a
341.2695	0.09	682539	keystroke	o	n/a
341.3285	0.1055	682657	keystroke	u	n/a
341.569	0.12	683138	keystroke	s	n/a
341.749	0.105	683498	keystroke	Key.space	n/a
342.079	0.09	684158	keystroke	o	n/a
342.229	0.09	684458	keystroke	r	n/a
342.754	0.015	685508	keystroke	d	n/a
342.784	0.12	685568	keystroke	i	n/a
342.889	0.105	685778	keystroke	n	n/a
343.6085	0.12	687217	keystroke	a	n/a
344.464	0.06	688928	keystroke	Key.backspace	n/a
346.926	0.058	693852	keystroke	a	n/a
347.0435	0.09	694087	keystroke	n	n/a
347.883	0.135	695766	keystroke	c	n/a
348.2135	0.12	696427	keystroke	e	n/a
348.4235	0.135	696847	keystroke	Key.space	n/a
348.723	0.09	697446	keystroke	s	n/a
348.934	0.165	697868	keystroke	o	n/a
349.039	0.135	698078	keystroke	m	n/a
349.174	0.075	698348	keystroke	e	n/a
349.399	0.165	698798	keystroke	t	n/a
349.579	0.0895	699158	keystroke	h	n/a
349.758	0.06	699516	keystroke	i	n/a
349.774	0.164	699548	keystroke	n	n/a
349.953	0.09	699906	keystroke	g	n/a
350.6135	0.1345	701227	keystroke	'	n/a
350.839	0.075	701678	keystroke	s	n/a
351.109	0.1345	702218	keystroke	Key.space	n/a
351.424	0.1495	702848	keystroke	s	n/a
351.6185	0.09	703237	keystroke	u	n/a
351.859	0.12	703718	keystroke	s	n/a
352.0985	0.03	704197	keystroke	t	n/a
352.2635	0.1055	704527	keystroke	a	n/a
352.384	0.1195	704768	keystroke	i	n/a
352.444	0.1195	704888	keystroke	n	n/a
352.6985	0.12	705397	keystroke	a	n/a
352.9085	0.06	705817	keystroke	b	n/a
353.1185	0.09	706237	keystroke	i	n/a
353.808	0.091	707616	keystroke	l	n/a
354.214	0.09	708428	keystroke	i	n/a
354.5585	0.135	709117	keystroke	t	n/a
354.9185	0.105	709837	keystroke	y	n/a
355.398	0.135	710796	keystroke	Key.enter	n/a
355.538	13.137	711076	prompt	n/a	y'all township spank viking\n
357.4235	0.045	714847	keystroke	;	n/a
358.1135	0.09	716227	keystroke	Key.backspace	n/a
358.8035	0.1195	717607	keystroke	y	n/a
359.4335	0.3	718867	keystroke	'	n/a
359.7485	0.12	719497	keystroke	a	n/a
360.229	0.1345	720458	keystroke	l	n/a
360.4535	0.105	720907	keystroke	l	n/a
360.8585	0.09	721717	keystroke	Key.space	n/a
361.3085	0.105	722617	keystroke	t	n/a
361.5785	0.105	723157	keystroke	o	n/a
361.7585	0.105	723517	keystroke	w	n/a
361.9685	0.12	723937	keystroke	n	n/a
362.298	0.12	724596	keystroke	s	n/a
362.568	0.165	725136	keystroke	h	n/a
362.883	0.166	725766	keystroke	i	n/a
363.063	0.1355	726126	keystroke	p	n/a
363.4385	0.15	726877	keystroke	Key.space	n/a
364.3235	0.09	728647	keystroke	s	n/a
364.4285	0.135	728857	keystroke	p	n/a
364.5785	0.135	729157	keystroke	a	n/a
364.8035	0.105	729607	keystroke	n	n/a
365.0435	0.1645	730087	keystroke	k	n/a
365.463	0.135	730926	keystroke	Key.space	n/a
366.8735	0.15	733747	keystroke	v	n/a
367.1435	0.105	734287	keystroke	i	n/a
367.4285	0.105	734857	keystroke	k	n/a
367.6535	0.1195	735307	keystroke	i	n/a
367.803	0.12	735606	keystroke	n	n/a
368.088	0.075	736176	keystroke	g	n/a
368.538	0.135	737076	keystroke	Key.enter	n/a
368.6775	14.907	737355	prompt	n/a	gotten artist registration fourth\n
370.3235	0.105	740647	keystroke	g	n/a
370.5335	0.0895	741067	keystroke	o	n/a
370.758	0.045	741516	keystroke	t	n/a
370.983	0.105	741966	keystroke	t	n/a
371.2385	0.09	742477	keystroke	e	n/a
371.583	0.075	743166	keystroke	n	n/a
371.8985	0.21	743797	keystroke	a	n/a
372.0035	0.06	744007	keystroke	Key.space	n/a
372.663	0.075	745326	keystroke	Key.backspace	n/a
372.783	0.06	745566	keystroke	Key.backspace	n/a
373.158	0.1045	746316	keystroke	Key.space	n/a
374.1935	0.1345	748387	keystroke	a	n/a
374.508	0.15	749016	keystroke	r	n/a
374.568	0.135	749136	keystroke	t	n/a
374.883	0.075	749766	keystroke	i	n/a
375.018	0.15	750036	keystroke	s	n/a
375.183	0.105	750366	keystroke	t	n/a
375.318	0.135	750636	keystroke	Key.space	n/a
376.2335	0.105	752467	keystroke	r	n/a
376.2935	0.105	752587	keystroke	e	n/a
376.653	0.105	753306	keystroke	g	n/a
376.833	0.12	753666	keystroke	i	n/a
377.178	0.12	754356	keystroke	s	n/a
377.6125	0.12	755225	keystroke	t	n/a
377.8975	0.106	755795	keystroke	r	n/a
378.2135	0.15	756427	keystroke	a	n/a
378.573	0.06	757146	keystroke	t	n/a
379.203	0.1055	758406	keystroke	i	n/a
379.773	0.105	759546	keystroke	o	n/a
380.013	0.135	760026	keystroke	n	n/a
380.3725	0.15	760745	keystroke	Key.space	n/a
381.1825	0.12	762365	keystroke	f	n/a
381.9035	0.2545	763807	keystroke	o	n/a
382.173	0.1045	764346	keystroke	u	n/a
382.5325	0.166	765065	keystroke	r	n/a
382.7135	0.075	765427	keystroke	t	n/a
382.9385	0.12	765877	keystroke	h	n/a
383.418	0.165	766836	keystroke	Key.enter	n/a
383.5875	19.7365	767175	prompt	n/a	bosnia widespread stone sunday\n
384.7685	0.12	769537	keystroke	b	n/a
385.398	0.12	770796	keystroke	o	n/a
385.9385	0.134	771877	keystroke	s	n/a
386.1025	0.15	772205	keystroke	n	n/a
386.508	0.105	773016	keystroke	i	n/a
387.1675	0.21	774335	keystroke	Key.caps_lock	n/a
387.7985	0.1945	775597	keystroke	Key.caps_lock	n/a
388.338	0.12	776676	keystroke	a	n/a
388.848	0.105	777696	keystroke	Key.space	n/a
389.628	0.06	779256	keystroke	w	n/a
389.838	0.09	779676	keystroke	o	n/a
390.213	0.12	780426	keystroke	d	n/a
390.8425	0.075	781685	keystroke	Key.backspace	n/a
391.0225	0.075	782045	keystroke	Key.backspace	n/a
391.8475	0.075	783695	keystroke	i	n/a
392.1175	0.136	784235	keystroke	d	n/a
392.2535	0.1045	784507	keystroke	e	n/a
392.4625	0.105	784925	keystroke	Key.space	n/a
392.988	0.105	785976	keystroke	Key.backspace	n/a
394.1275	0.135	788255	keystroke	s	n/a
394.578	0.15	789156	keystroke	p	n/a
394.998	0.09	789996	keystroke	r	n/a
395.643	0.12	791286	keystroke	e	n/a
395.928	0.12	791856	keystroke	a	n/a
396.063	0.1345	792126	keystroke	d	n/a
396.3025	0.135	792605	keystroke	Key.space	n/a
397.203	0.135	794406	keystroke	d	n/a
397.488	0.09	794976	keystroke	t	n/a
397.683	0.1495	795366	keystroke	o	n/a
398.193	0.075	796386	keystroke	Key.backspace	n/a
398.3425	0.075	796685	keystroke	Key.backspace	n/a
398.508	0.06	797016	keystroke	Key.backspace	n/a
398.598	0.12	797196	keystroke	s	n/a
398.778	0.105	797556	keystroke	t	n/a
398.973	0.1345	797946	keystroke	o	n/a
399.0775	0.105	798155	keystroke	n	n/a
399.1975	0.06	798395	keystroke	e	n/a
399.3325	0.135	798665	keystroke	Key.space	n/a
401.69	0.058	803380	keystroke	s	n/a
401.883	0.12	803766	keystroke	u	n/a
402.078	0.1345	804156	keystroke	n	n/a
402.3325	0.1505	804665	keystroke	d	n/a
402.453	0.075	804906	keystroke	a	n/a
402.693	0.075	805386	keystroke	y	n/a
403.1575	0.165	806315	keystroke	Key.enter	n/a
403.327	11.637	806654	prompt	n/a	subjects looked wasn't powder\n
405.815	0.1175	811630	keystroke	s	n/a
405.9175	0.075	811835	keystroke	u	n/a
406.0825	0.135	812165	keystroke	b	n/a
406.3375	0.06	812675	keystroke	j	n/a
406.4875	0.105	812975	keystroke	e	n/a
407.103	0.12	814206	keystroke	c	n/a
407.373	0.075	814746	keystroke	t	n/a
407.6575	0.12	815315	keystroke	s	n/a
407.8225	0.15	815645	keystroke	Key.space	n/a
408.4225	0.105	816845	keystroke	l	n/a
408.933	0.12	817866	keystroke	o	n/a
409.158	0.0745	818316	keystroke	o	n/a
409.458	0.119	818916	keystroke	k	n/a
409.742	0.076	819484	keystroke	e	n/a
409.938	0.12	819876	keystroke	d	n/a
410.103	0.15	820206	keystroke	Key.space	n/a
410.3725	0.135	820745	keystroke	w	n/a
410.583	0.24	821166	keystroke	a	n/a
410.778	0.135	821556	keystroke	s	n/a
410.928	0.12	821856	keystroke	n	n/a
411.2275	0.15	822455	keystroke	'	n/a
411.528	0.09	823056	keystroke	t	n/a
411.7225	0.12	823445	keystroke	Key.space	n/a
412.6825	0.195	825365	keystroke	p	n/a
412.8475	0.105	825695	keystroke	o	n/a
413.0275	0.1495	826055	keystroke	w	n/a
413.1175	0.0745	826235	keystroke	e	n/a
413.973	0.0745	827946	keystroke	Key.backspace	n/a
414.1225	0.12	828245	keystroke	d	n/a
414.3775	0.135	828755	keystroke	e	n/a
414.4975	0.09	828995	keystroke	r	n/a
414.7675	0.1945	829535	keystroke	Key.enter	n/a
414.9675	25.7665	829935	prompt	n/a	exhibition estimated highly cloth\n
415.967	0.165	831934	keystroke	e	n/a
416.3575	0.06	832715	keystroke	c	n/a
416.9275	0.0895	833855	keystroke	Key.backspace	n/a
417.122	0.15	834244	keystroke	x	n/a
417.603	0.165	835206	keystroke	h	n/a
417.828	0.09	835656	keystroke	i	n/a
418.0525	0.135	836105	keystroke	t	n/a
418.848	0.0895	837696	keystroke	Key.backspace	n/a
419.718	0.09	839436	keystroke	b	n/a
419.9425	0.09	839885	keystroke	i	n/a
420.138	0.09	840276	keystroke	t	n/a
420.618	0.135	841236	keystroke	i	n/a
420.9325	0.15	841865	keystroke	o	n/a
421.1575	0.135	842315	keystroke	n	n/a
421.8325	0.165	843665	keystroke	Key.space	n/a
422.3425	0.1355	844685	keystroke	e	n/a
422.6575	0.105	845315	keystroke	s	n/a
422.8675	0.09	845735	keystroke	t	n/a
423.0625	0.12	846125	keystroke	i	n/a
425.3745	0.118	850749	keystroke	m	n/a
425.8975	0.21	851795	keystroke	a	n/a
426.2275	0.15	852455	keystroke	t	n/a
426.662	0.1505	853324	keystroke	e	n/a
427.128	0.165	854256	keystroke	d	n/a
427.5025	0.15	855005	keystroke	Key.space	n/a
428.1025	0.12	856205	keystroke	h	n/a
428.552	0.105	857104	keystroke	i	n/a
428.838	0.09	857676	keystroke	g	n/a
429.123	0.105	858246	keystroke	h	n/a
429.3775	0.15	858755	keystroke	i	n/a
429.4525	0.18	858905	keystroke	n	n/a
430.532	0.105	861064	keystroke	Key.backspace	n/a
430.7425	0.09	861485	keystroke	Key.backspace	n/a
431.568	0.15	863136	keystroke	l	n/a
431.732	0.031	863464	keystroke	l	n/a
432.0475	0.12	864095	keystroke	y	n/a
432.3925	0.12	864785	keystroke	Key.space	n/a
433.442	0.121	866884	keystroke	Key.backspace	n/a
433.937	0.105	867874	keystroke	Key.backspace	n/a
434.462	0.121	868924	keystroke	Key.backspace	n/a
435.303	0.1495	870606	keystroke	y	n/a
435.7675	0.1945	871535	keystroke	Key.space	n/a
436.9675	0.045	873935	keystroke	l	n/a
437.8675	0.075	875735	keystroke	Key.backspace	n/a
438.783	0.1195	877566	keystroke	c	n/a
439.1425	0.1195	878285	keystroke	l	n/a
439.353	0.09	878706	keystroke	o	n/a
439.473	0.12	878946	keystroke	t	n/a
439.623	0.0745	879246	keystroke	h	n/a
440.582	0.15	881164	keystroke	Key.enter	n/a
440.737	13.872	881474	prompt	n/a	especially differences clinical wherever\n
442.143	0.09	884286	keystroke	e	n/a
442.6825	0.06	885365	keystroke	s	n/a
442.9825	0.075	885965	keystroke	e	n/a
443.612	0.12	887224	keystroke	Key.backspace	n/a
444.033	0.044	888066	keystroke	p	n/a
444.3925	0.075	888785	keystroke	e	n/a
444.662	0.12	889324	keystroke	c	n/a
444.887	0.045	889774	keystroke	i	n/a
445.217	0.09	890434	keystroke	a	n/a
445.7575	0.045	891515	keystroke	l	n/a
445.8925	0.075	891785	keystroke	l	n/a
446.1325	0.09	892265	keystroke	y	n/a
446.477	0.1205	892954	keystroke	Key.space	n/a
447.2275	0.09	894455	keystroke	d	n/a
447.3625	0.0595	894725	keystroke	i	n/a
448.157	0.061	896314	keystroke	f	n/a
448.338	0.06	896676	keystroke	f	n/a
448.5325	0.075	897065	keystroke	e	n/a
448.5775	0.15	897155	keystroke	r	n/a
448.7575	0.075	897515	keystroke	e	n/a
448.9675	0.105	897935	keystroke	n	n/a
449.1325	0.15	898265	keystroke	c	n/a
449.2675	0.0595	898535	keystroke	e	n/a
449.537	0.12	899074	keystroke	s	n/a
449.8225	0.09	899645	keystroke	Key.space	n/a
450.347	0.12	900694	keystroke	c	n/a
450.587	0.105	901174	keystroke	l	n/a
450.842	0.0755	901684	keystroke	i	n/a
451.0225	0.1045	902045	keystroke	n	n/a
451.172	0.09	902344	keystroke	i	n/a
451.382	0.15	902764	keystroke	c	n/a
451.712	0.105	903424	keystroke	a	n/a
452.117	0.09	904234	keystroke	l	n/a
452.3875	0.18	904775	keystroke	Key.space	n/a
452.8675	0.135	905735	keystroke	w	n/a
453.1075	0.06	906215	keystroke	h	n/a
453.242	0.1205	906484	keystroke	e	n/a
453.302	0.1655	906604	keystroke	r	n/a
453.5575	0.03	907115	keystroke	e	n/a
453.8425	0.135	907685	keystroke	v	n/a
454.142	0.09	908284	keystroke	e	n/a
454.187	0.12	908374	keystroke	r	n/a
454.427	0.18	908854	keystroke	Key.enter	n/a
454.6115	14.3825	909223	prompt	n/a	king annual foul lamps\n
456.017	0.105	912034	keystroke	k	n/a
456.512	0.09	913024	keystroke	i	n/a
456.7075	0.105	913415	keystroke	n	n/a
456.8725	0.1045	913745	keystroke	g	n/a
457.022	0.1355	914044	keystroke	Key.space	n/a
457.2625	0.1645	914525	keystroke	Key.caps_lock	n/a
457.532	0.166	915064	keystroke	u	n/a
457.817	0.09	915634	keystroke	n	n/a
458.432	0.09	916864	keystroke	Key.backspace	n/a
458.7475	0.09	917495	keystroke	Key.backspace	n/a
459.1675	0.18	918335	keystroke	Key.caps_lock	n/a
459.7825	0.075	919565	keystroke	a	n/a
460.652	0.075	921304	keystroke	n	n/a
460.847	0.075	921694	keystroke	n	n/a
461.072	0.105	922144	keystroke	u	n/a
461.297	0.121	922594	keystroke	a	n/a
461.6125	0.135	923225	keystroke	l	n/a
461.8525	0.12	923705	keystroke	Key.space	n/a
462.3475	0.1195	924695	keystroke	d	n/a
462.632	0.1055	925264	keystroke	o	n/a
462.9475	0.075	925895	keystroke	u	n/a
463.9375	0.075	927875	keystroke	Key.backspace	n/a
464.462	0.06	928924	keystroke	Key.backspace	n/a
465.0925	0.105	930185	keystroke	Key.backspace	n/a
465.947	0.105	931894	keystroke	f	n/a
466.4875	0.105	932975	keystroke	o	n/a
466.6075	0.105	933215	keystroke	u	n/a
466.9375	0.105	933875	keystroke	l	n/a
467.222	0.135	934444	keystroke	Key.space	n/a
467.417	0.12	934834	keystroke	l	n/a
467.717	0.1205	935434	keystroke	a	n/a
467.8825	0.135	935765	keystroke	m	n/a
468.332	0.06	936664	keystroke	p	n/a
468.632	0.09	937264	keystroke	s	n/a
468.842	0.15	937684	keystroke	Key.enter	n/a
468.997	19.092	937994	prompt	n/a	diamond structural heritage butter\n
470.087	0.165	940174	keystroke	d	n/a
470.492	0.09	940984	keystroke	i	n/a
470.9125	0.105	941825	keystroke	a	n/a
471.602	0.18	943204	keystroke	m	n/a
472.202	0.03	944404	keystroke	o	n/a
472.547	0.1055	945094	keystroke	n	n/a
472.7125	0.165	945425	keystroke	d	n/a
473.087	0.12	946174	keystroke	Key.space	n/a
473.3425	0.105	946685	keystroke	s	n/a
473.6425	0.12	947285	keystroke	t	n/a
473.7025	0.12	947405	keystroke	r	n/a
473.927	0.09	947854	keystroke	u	n/a
474.137	0.075	948274	keystroke	c	n/a
474.407	0.03	948814	keystroke	t	n/a
474.617	0.075	949234	keystroke	u	n/a
474.872	0.0595	949744	keystroke	r	n/a
475.2325	0.105	950465	keystroke	a	n/a
475.4125	0.105	950825	keystroke	l	n/a
476.9415	0.106	953883	keystroke	Key.space	n/a
478.247	0.06	956494	keystroke	h	n/a
478.397	0.09	956794	keystroke	e	n/a
478.457	0.09	956914	keystroke	r	n/a
479.102	0.075	958204	keystroke	i	n/a
479.312	0.105	958624	keystroke	t	n/a
480.5565	0.105	961113	keystroke	a	n/a
480.7815	0.136	961563	keystroke	g	n/a
480.9325	0.105	961865	keystroke	e	n/a
481.1275	0.15	962255	keystroke	Key.space	n/a
484.2345	0.072	968469	keystroke	b	n/a
484.5325	0.12	969065	keystroke	u	n/a
484.8475	0.135	969695	keystroke	t	n/a
486.7225	0.12	973445	keystroke	t	n/a
487.067	0.1795	974134	keystroke	e	n/a
487.2165	0.135	974433	keystroke	r	n/a
487.9075	0.18	975815	keystroke	Key.enter	n/a
488.0915	17.097	976183	prompt	n/a	continuity gabriel israel iran\n
489.2565	0.121	978513	keystroke	c	n/a
489.4675	0.075	978935	keystroke	o	n/a
489.6175	0.1795	979235	keystroke	n	n/a
489.932	0.0895	979864	keystroke	t	n/a
490.0815	0.12	980163	keystroke	i	n/a
490.3365	0.121	980673	keystroke	n	n/a
490.6225	0.0895	981245	keystroke	u	n/a
490.982	0.09	981964	keystroke	i	n/a
491.162	0.105	982324	keystroke	t	n/a
491.312	0.075	982624	keystroke	u	n/a
492.4525	0.09	984905	keystroke	Key.backspace	n/a
493.442	0.15	986884	keystroke	y	n/a
495.077	0.135	990154	keystroke	Key.space	n/a
495.7665	0.046	991533	keystroke	g	n/a
496.0225	0.1345	992045	keystroke	a	n/a
496.352	0.09	992704	keystroke	b	n/a
496.7265	0.121	993453	keystroke	i	n/a
497.582	0.1505	995164	keystroke	Key.backspace	n/a
498.0315	0.12	996063	keystroke	r	n/a
498.3165	0.091	996633	keystroke	e	n/a
499.142	0.135	998284	keystroke	Key.backspace	n/a
499.592	0.0605	999184	keystroke	i	n/a
499.7725	0.1045	999545	keystroke	e	n/a
499.952	0.12	999904	keystroke	l	n/a
500.342	0.135	1000684	keystroke	Key.space	n/a
501.0165	0.12	1002033	keystroke	i	n/a
501.2425	0.105	1002485	keystroke	s	n/a
501.4825	0.075	1002965	keystroke	r	n/a
501.6025	0.015	1003205	keystroke	e	n/a
502.1415	0.09	1004283	keystroke	Key.backspace	n/a
502.7125	0.075	1005425	keystroke	a	n/a
502.952	0.105	1005904	keystroke	e	n/a
503.147	0.105	1006294	keystroke	l	n/a
503.507	0.12	1007014	keystroke	Key.space	n/a
504.137	0.09	1008274	keystroke	i	n/a
504.302	0.09	1008604	keystroke	r	n/a
504.572	0.09	1009144	keystroke	a	n/a
504.707	0.1195	1009414	keystroke	n	n/a
505.097	0.09	1010194	keystroke	Key.enter	n/a
505.1955	16.763	1010391	prompt	n/a	combined proposition province yemen\n
506.117	0.135	1012234	keystroke	c	n/a
506.357	0.135	1012714	keystroke	o	n/a
506.432	0.12	1012864	keystroke	m	n/a
507.1975	0.1195	1014395	keystroke	b	n/a
507.512	0.1355	1015024	keystroke	i	n/a
507.947	0.09	1015894	keystroke	n	n/a
508.112	0.105	1016224	keystroke	e	n/a
508.337	0.165	1016674	keystroke	d	n/a
508.592	0.1645	1017184	keystroke	Key.space	n/a
509.1175	0.105	1018235	keystroke	p	n/a
509.2975	0.09	1018595	keystroke	r	n/a
509.837	0.09	1019674	keystroke	o	n/a
510.1525	0.12	1020305	keystroke	p	n/a
510.3475	0.045	1020695	keystroke	o	n/a
510.647	0.12	1021294	keystroke	s	n/a
511.022	0.075	1022044	keystroke	i	n/a
511.232	0.045	1022464	keystroke	t	n/a
511.4575	0.12	1022915	keystroke	i	n/a
511.772	0.165	1023544	keystroke	o	n/a
511.907	0.12	1023814	keystroke	n	n/a
512.342	0.165	1024684	keystroke	Key.space	n/a
513.0925	0.12	1026185	keystroke	p	n/a
513.2575	0.0895	1026515	keystroke	r	n/a
513.6765	0.045	1027353	keystroke	o	n/a
514.1875	0.135	1028375	keystroke	v	n/a
514.3825	0.1495	1028765	keystroke	i	n/a
514.517	0.12	1029034	keystroke	n	n/a
514.697	0.105	1029394	keystroke	e	n/a
515.3715	0.1205	1030743	keystroke	Key.backspace	n/a
515.627	0.18	1031254	keystroke	c	n/a
515.972	0.105	1031944	keystroke	e	n/a
516.122	0.15	1032244	keystroke	Key.space	n/a
516.482	0.09	1032964	keystroke	y	n/a
516.6615	0.09	1033323	keystroke	e	n/a
516.932	0.06	1033864	keystroke	e	n/a
517.697	0.21	1035394	keystroke	Key.backspace	n/a
518.9565	0.135	1037913	keystroke	m	n/a
519.1065	0.105	1038213	keystroke	e	n/a
519.6475	0.1345	1039295	keystroke	m	n/a
520.5315	0.135	1041063	keystroke	Key.backspace	n/a
521.2375	0.12	1042475	keystroke	n	n/a
521.8065	0.15	1043613	keystroke	Key.enter	n/a
521.9615	15.672	1043923	prompt	n/a	fourth spell landing continues\n
524.9745	0.042	1049949	keystroke	f	n/a
525.2425	0.149	1050485	keystroke	o	n/a
525.5415	0.0905	1051083	keystroke	u	n/a
525.707	0.135	1051414	keystroke	r	n/a
525.932	0.12	1051864	keystroke	t	n/a
526.3975	0.0895	1052795	keystroke	h	n/a
527.027	0.15	1054054	keystroke	Key.space	n/a
527.5965	0.06	1055193	keystroke	s	n/a
528.1675	0.1945	1056335	keystroke	p	n/a
528.377	0.06	1056754	keystroke	e	n/a
528.812	0.09	1057624	keystroke	l	n/a
529.022	0.1055	1058044	keystroke	l	n/a
529.292	0.165	1058584	keystroke	Key.space	n/a
529.712	0.135	1059424	keystroke	l	n/a
530.2215	0.195	1060443	keystroke	Key.caps_lock	n/a
530.897	0.18	1061794	keystroke	Key.caps_lock	n/a
531.7375	0.105	1063475	keystroke	a	n/a
532.0225	0.1195	1064045	keystroke	n	n/a
532.9225	0.1045	1065845	keystroke	d	n/a
533.132	0.1345	1066264	keystroke	i	n/a
533.2215	0.15	1066443	keystroke	n	n/a
533.4165	0.09	1066833	keystroke	g	n/a
533.5665	0.12	1067133	keystroke	Key.space	n/a
534.227	0.015	1068454	keystroke	c	n/a
535.082	0.12	1070164	keystroke	o	n/a
535.337	0.0895	1070674	keystroke	n	n/a
535.8765	0.105	1071753	keystroke	t	n/a
536.1615	0.135	1072323	keystroke	i	n/a
536.3715	0.12	1072743	keystroke	n	n/a
536.6275	0.09	1073255	keystroke	u	n/a
536.792	0.105	1073584	keystroke	e	n/a
537.047	0.135	1074094	keystroke	s	n/a
537.4515	0.181	1074903	keystroke	Key.enter	n/a
537.6365	23.937	1075273	prompt	n/a	aerial electron confirmation rehabilitation\n
539.8685	0.118	1079737	keystroke	a	n/a
540.3315	0.196	1080663	keystroke	e	n/a
540.902	0.12	1081804	keystroke	r	n/a
541.112	0.105	1082224	keystroke	i	n/a
541.307	0.195	1082614	keystroke	a	n/a
541.832	0.15	1083664	keystroke	l	n/a
542.312	0.18	1084624	keystroke	Key.space	n/a
542.9865	0.03	1085973	keystroke	e	n/a
543.0915	0.151	1086183	keystroke	l	n/a
543.3025	0.105	1086605	keystroke	e	n/a
543.797	0.15	1087594	keystroke	c	n/a
544.2475	0.09	1088495	keystroke	t	n/a
544.4575	0.1195	1088915	keystroke	i	n/a
545.7015	0.165	1091403	keystroke	Key.backspace	n/a
547.5465	0.121	1095093	keystroke	r	n/a
547.7415	0.1355	1095483	keystroke	o	n/a
548.072	0.12	1096144	keystroke	n	n/a
548.492	0.165	1096984	keystroke	Key.space	n/a
549.1815	0.135	1098363	keystroke	c	n/a
550.202	0.12	1100404	keystroke	o	n/a
550.502	0.135	1101004	keystroke	n	n/a
550.7865	0.12	1101573	keystroke	f	n/a
551.3265	0.075	1102653	keystroke	i	n/a
551.6575	0.1195	1103315	keystroke	r	n/a
552.752	0.1345	1105504	keystroke	m	n/a
553.0515	0.165	1106103	keystroke	a	n/a
553.3065	0.105	1106613	keystroke	t	n/a
553.7865	0.0755	1107573	keystroke	i	n/a
554.072	0.1345	1108144	keystroke	o	n/a
554.3265	0.135	1108653	keystroke	n	n/a
554.8965	0.1205	1109793	keystroke	Key.space	n/a
555.4665	0.12	1110933	keystroke	r	n/a
555.7665	0.1205	1111533	keystroke	e	n/a
556.0515	0.105	1112103	keystroke	h	n/a
556.3065	0.165	1112613	keystroke	a	n/a
556.5165	0.15	1113033	keystroke	b	n/a
557.087	0.18	1114174	keystroke	i	n/a
558.722	0.1645	1117444	keystroke	l	n/a
559.1565	0.105	1118313	keystroke	i	n/a
559.5465	0.12	1119093	keystroke	t	n/a
559.8175	0.1485	1119635	keystroke	a	n/a
560.102	0.135	1120204	keystroke	t	n/a
560.282	0.105	1120564	keystroke	i	n/a
560.7165	0.0905	1121433	keystroke	o	n/a
560.957	0.15	1121914	keystroke	n	n/a
561.467	0.1045	1122934	keystroke	Key.enter	n/a
561.576	17.847	1123152	prompt	n/a	signatures pleased payroll painted\n
562.757	0.09	1125514	keystroke	s	n/a
563.267	0.1045	1126534	keystroke	i	n/a
563.4925	0.089	1126985	keystroke	g	n/a
563.5975	0.1345	1127195	keystroke	n	n/a
563.837	0.075	1127674	keystroke	a	n/a
564.077	0.075	1128154	keystroke	t	n/a
564.242	0.09	1128484	keystroke	u	n/a
564.5865	0.1505	1129173	keystroke	r	n/a
564.677	0.12	1129354	keystroke	e	n/a
564.977	0.15	1129954	keystroke	Key.space	n/a
566.2215	0.12	1132443	keystroke	Key.backspace	n/a
566.6565	0.106	1133313	keystroke	s	n/a
567.0765	0.18	1134153	keystroke	Key.space	n/a
568.0065	0.165	1136013	keystroke	p	n/a
568.3215	0.06	1136643	keystroke	;	n/a
569.4465	0.045	1138893	keystroke	Key.backspace	n/a
570.5415	0.12	1141083	keystroke	l	n/a
570.796	0.105	1141592	keystroke	e	n/a
571.007	0.27	1142014	keystroke	a	n/a
571.022	0.09	1142044	keystroke	s	n/a
571.172	0.12	1142344	keystroke	s	n/a
571.937	0.15	1143874	keystroke	Key.backspace	n/a
572.207	0.12	1144414	keystroke	e	n/a
572.522	0.1345	1145044	keystroke	d	n/a
572.8815	0.12	1145763	keystroke	Key.space	n/a
573.571	0.121	1147142	keystroke	p	n/a
573.647	0.12	1147294	keystroke	a	n/a
574.2765	0.09	1148553	keystroke	y	n/a
574.3965	0.105	1148793	keystroke	r	n/a
574.8315	0.12	1149663	keystroke	l	n/a
575.582	0.105	1151164	keystroke	Key.backspace	n/a
575.9565	0.12	1151913	keystroke	o	n/a
576.2865	0.045	1152573	keystroke	l	n/a
576.4065	0.075	1152813	keystroke	l	n/a
576.8865	0.18	1153773	keystroke	Key.space	n/a
577.787	0.1045	1155574	keystroke	p	n/a
577.9665	0.105	1155933	keystroke	a	n/a
578.1315	0.135	1156263	keystroke	i	n/a
578.2365	0.135	1156473	keystroke	n	n/a
578.6115	0.105	1157223	keystroke	t	n/a
578.7615	0.0445	1157523	keystroke	e	n/a
578.971	0.105	1157942	keystroke	d	n/a
579.347	0.075	1158694	keystroke	Key.enter	n/a
579.426	15.5375	1158852	prompt	n/a	asthma switzerland cafe plant\n
580.5765	0.18	1161153	keystroke	a	n/a
580.6515	0.135	1161303	keystroke	s	n/a
580.7265	0.075	1161453	keystroke	d	n/a
581.0565	0.09	1162113	keystroke	t	n/a
581.326	0.06	1162652	keystroke	h	n/a
581.762	0.044	1163524	keystroke	Key.backspace	n/a
581.897	0.09	1163794	keystroke	Key.backspace	n/a
582.047	0.045	1164094	keystroke	Key.backspace	n/a
582.257	0.0895	1164514	keystroke	t	n/a
582.4215	0.0895	1164843	keystroke	h	n/a
582.691	0.091	1165382	keystroke	m	n/a
582.842	0.15	1165684	keystroke	a	n/a
583.2765	0.15	1166553	keystroke	Key.space	n/a
583.9215	0.105	1167843	keystroke	s	n/a
584.191	0.06	1168382	keystroke	w	n/a
584.492	0.09	1168984	keystroke	t	n/a
584.657	0.06	1169314	keystroke	i	n/a
585.346	0.075	1170692	keystroke	x	n/a
585.842	0.09	1171684	keystroke	e	n/a
585.887	0.15	1171774	keystroke	r	n/a
586.5465	0.0595	1173093	keystroke	Key.backspace	n/a
586.697	0.075	1173394	keystroke	Key.backspace	n/a
586.862	0.075	1173724	keystroke	Key.backspace	n/a
587.4165	0.09	1174833	keystroke	Key.backspace	n/a
587.6265	0.0455	1175253	keystroke	Key.backspace	n/a
588.5265	0.075	1177053	keystroke	i	n/a
588.6615	0.105	1177323	keystroke	t	n/a
589.201	0.15	1178402	keystroke	z	n/a
589.846	0.091	1179692	keystroke	e	n/a
589.892	0.135	1179784	keystroke	r	n/a
590.132	0.1195	1180264	keystroke	l	n/a
590.416	0.12	1180832	keystroke	a	n/a
590.581	0.105	1181162	keystroke	n	n/a
590.701	0.106	1181402	keystroke	d	n/a
591.047	0.12	1182094	keystroke	Key.space	n/a
591.661	0.135	1183322	keystroke	c	n/a
591.842	0.06	1183684	keystroke	a	n/a
592.022	0.165	1184044	keystroke	f	n/a
592.172	0.0745	1184344	keystroke	e	n/a
592.471	0.18	1184942	keystroke	Key.space	n/a
593.671	0.075	1187342	keystroke	p	n/a
593.897	0.075	1187794	keystroke	l	n/a
594.092	0.075	1188184	keystroke	a	n/a
594.332	0.105	1188664	keystroke	n	n/a
594.467	0.104	1188934	keystroke	t	n/a
594.826	0.135	1189652	keystroke	Key.enter	n/a
594.9665	29.8165	1189933	prompt	n/a	independent gauge buffalo achieving\n
596.042	0.06	1192084	keystroke	i	n/a
596.057	0.135	1192114	keystroke	n	n/a
596.417	0.1495	1192834	keystroke	d	n/a
596.5675	0.089	1193135	keystroke	e	n/a
596.7615	0.12	1193523	keystroke	p	n/a
597.1365	0.09	1194273	keystroke	e	n/a
597.317	0.0895	1194634	keystroke	n	n/a
597.4815	0.1505	1194963	keystroke	d	n/a
598.022	0.09	1196044	keystroke	e	n/a
598.157	0.03	1196314	keystroke	n	n/a
598.292	0.075	1196584	keystroke	t	n/a
598.5315	0.105	1197063	keystroke	Key.space	n/a
598.9965	0.075	1197993	keystroke	g	n/a
599.1915	0.06	1198383	keystroke	u	n/a
599.341	0.075	1198682	keystroke	a	n/a
599.596	0.091	1199192	keystroke	g	n/a
599.746	0.076	1199492	keystroke	e	n/a
599.9565	0.165	1199913	keystroke	Key.space	n/a
600.902	0.09	1201804	keystroke	b	n/a
601.097	0.045	1202194	keystroke	u	n/a
601.382	0.0895	1202764	keystroke	f	n/a
601.5465	0.12	1203093	keystroke	f	n/a
601.8015	0.09	1203603	keystroke	a	n/a
601.9815	0.075	1203963	keystroke	l	n/a
602.267	0.0745	1204534	keystroke	o	n/a
602.821	0.106	1205642	keystroke	Key.space	n/a
606.004	0.001	1212008	keystroke	Key.backspace	n/a
606.5865	0.06	1213173	keystroke	Key.backspace	n/a
607.2315	0.075	1214463	keystroke	Key.backspace	n/a
607.9215	0.03	1215843	keystroke	Key.backspace	n/a
608.552	0.075	1217104	keystroke	Key.backspace	n/a
609.1965	0.06	1218393	keystroke	Key.backspace	n/a
609.811	0.06	1219622	keystroke	Key.backspace	n/a
610.442	0.105	1220884	keystroke	Key.backspace	n/a
610.9815	0.075	1221963	keystroke	Key.backspace	n/a
611.6265	0.045	1223253	keystroke	Key.backspace	n/a
612.242	0.0445	1224484	keystroke	Key.backspace	n/a
612.841	0.135	1225682	keystroke	Key.backspace	n/a
613.412	0.075	1226824	keystroke	Key.backspace	n/a
614.056	0.121	1228112	keystroke	a	n/a
614.297	0.09	1228594	keystroke	u	n/a
616.0215	0.075	1232043	keystroke	g	n/a
616.2165	0.09	1232433	keystroke	e	n/a
616.3515	0.18	1232703	keystroke	Key.space	n/a
616.652	0.1345	1233304	keystroke	b	n/a
616.8165	0.09	1233633	keystroke	u	n/a
616.9665	0.075	1233933	keystroke	f	n/a
617.1315	0.105	1234263	keystroke	f	n/a
617.447	0.09	1234894	keystroke	a	n/a
617.612	0.0895	1235224	keystroke	l	n/a
617.8965	0.105	1235793	keystroke	o	n/a
618.2265	0.135	1236453	keystroke	Key.space	n/a
618.856	0.091	1237712	keystroke	a	n/a
619.097	0.12	1238194	keystroke	c	n/a
619.337	0.105	1238674	keystroke	i	n/a
619.5765	0.075	1239153	keystroke	e	n/a
620.3565	0.06	1240713	keystroke	Key.backspace	n/a
620.536	0.075	1241072	keystroke	Key.backspace	n/a
621.4065	0.075	1242813	keystroke	h	n/a
621.721	0.03	1243442	keystroke	i	n/a
621.962	0.09	1243924	keystroke	e	n/a
622.067	0.09	1244134	keystroke	v	n/a
622.411	0.09	1244822	keystroke	n	n/a
623.282	0.06	1246564	keystroke	Key.backspace	n/a
623.6715	0.105	1247343	keystroke	i	n/a
623.7465	0.1195	1247493	keystroke	n	n/a
624.077	0.09	1248154	keystroke	g	n/a
624.631	0.15	1249262	keystroke	Key.enter	n/a
624.786	6.837	1249572	prompt	n/a	refuse stickers raises hand\n
627.3635	0.043	1254727	keystroke	r	n/a
627.364	0.0875	1254728	keystroke	e	n/a
627.616	0.105	1255232	keystroke	f	n/a
627.826	0.061	1255652	keystroke	u	n/a
627.962	0.09	1255924	keystroke	s	n/a
628.157	0.0895	1256314	keystroke	e	n/a
628.6815	0.135	1257363	keystroke	Key.space	n/a
629.0415	0.06	1258083	keystroke	s	n/a
629.266	0.075	1258532	keystroke	t	n/a
629.552	0.104	1259104	keystroke	i	n/a
629.687	0.075	1259374	keystroke	c	n/a
629.867	0.045	1259734	keystroke	k	n/a
629.927	0.105	1259854	keystroke	e	n/a
629.972	0.105	1259944	keystroke	r	n/a
630.2415	0.135	1260483	keystroke	s	n/a
630.4215	0.12	1260843	keystroke	Key.space	n/a
630.6915	0.06	1261383	keystroke	h	n/a
630.7965	0.105	1261593	keystroke	a	n/a
630.9765	0.1195	1261953	keystroke	n	n/a
631.111	0.105	1262222	keystroke	d	n/a
631.486	0.135	1262972	keystroke	Key.enter	n/a
631.6265	10.4065	1263253	prompt	n/a	antigua treasures closest carbon\n
632.5365	0.075	1265073	keystroke	a	n/a
632.882	0.134	1265764	keystroke	n	n/a
633.106	0.06	1266212	keystroke	t	n/a
633.376	0.076	1266752	keystroke	i	n/a
633.587	0.105	1267174	keystroke	g	n/a
633.782	0.015	1267564	keystroke	u	n/a
633.9765	0.105	1267953	keystroke	a	n/a
634.2465	0.15	1268493	keystroke	Key.space	n/a
635.207	0.134	1270414	keystroke	t	n/a
635.5365	0.135	1271073	keystroke	r	n/a
635.6565	0.105	1271313	keystroke	e	n/a
635.8065	0.1645	1271613	keystroke	a	n/a
635.986	0.15	1271972	keystroke	s	n/a
636.242	0.09	1272484	keystroke	u	n/a
636.392	0.165	1272784	keystroke	r	n/a
636.542	0.09	1273084	keystroke	e	n/a
636.781	0.12	1273562	keystroke	s	n/a
637.021	0.12	1274042	keystroke	Key.space	n/a
637.487	0.12	1274974	keystroke	c	n/a
637.682	0.0895	1275364	keystroke	l	n/a
637.936	0.075	1275872	keystroke	o	n/a
638.3865	0.105	1276773	keystroke	s	n/a
638.731	0.135	1277462	keystroke	e	n/a
639.076	0.121	1278152	keystroke	t	n/a
639.332	0.1195	1278664	keystroke	Key.space	n/a
639.692	0.1645	1279384	keystroke	c	n/a
639.8715	0.09	1279743	keystroke	a	n/a
640.0515	0.06	1280103	keystroke	r	n/a
640.6665	0.0745	1281333	keystroke	b	n/a
641.2365	0.045	1282473	keystroke	o	n/a
641.3865	0.12	1282773	keystroke	n	n/a
641.8815	0.15	1283763	keystroke	Key.enter	n/a
642.036	10.392	1284072	prompt	n/a	adjust possibilities rescue neighborhood\n
642.961	0.105	1285922	keystroke	a	n/a
643.171	0.106	1286342	keystroke	d	n/a
643.412	0.06	1286824	keystroke	j	n/a
643.727	0.0745	1287454	keystroke	u	n/a
643.8915	0.09	1287783	keystroke	s	n/a
644.1915	0.075	1288383	keystroke	t	n/a
644.4015	0.15	1288803	keystroke	Key.space	n/a
644.911	0.09	1289822	keystroke	p	n/a
645.152	0.075	1290304	keystroke	o	n/a
645.377	0.045	1290754	keystroke	s	n/a
645.557	0.059	1291114	keystroke	s	n/a
645.691	0.075	1291382	keystroke	i	n/a
645.916	0.091	1291832	keystroke	b	n/a
646.187	0.0745	1292374	keystroke	i	n/a
646.486	0.075	1292972	keystroke	l	n/a
646.681	0.105	1293362	keystroke	i	n/a
646.876	0.091	1293752	keystroke	t	n/a
647.132	0.075	1294264	keystroke	i	n/a
647.3265	0.105	1294653	keystroke	e	n/a
647.6415	0.105	1295283	keystroke	s	n/a
647.8065	0.1645	1295613	keystroke	Key.space	n/a
648.3165	0.135	1296633	keystroke	r	n/a
648.4525	0.089	1296905	keystroke	e	n/a
648.7065	0.09	1297413	keystroke	s	n/a
648.9315	0.12	1297863	keystroke	c	n/a
649.096	0.105	1298192	keystroke	u	n/a
649.246	0.06	1298492	keystroke	e	n/a
649.501	0.105	1299002	keystroke	Key.space	n/a
649.772	0.075	1299544	keystroke	n	n/a
649.877	0.09	1299754	keystroke	e	n/a
650.027	0.0745	1300054	keystroke	i	n/a
650.296	0.075	1300592	keystroke	g	n/a
650.416	0.06	1300832	keystroke	h	n/a
650.627	0.044	1301254	keystroke	b	n/a
650.837	0.075	1301674	keystroke	i	n/a
651.0765	0.075	1302153	keystroke	r	n/a
651.3465	0.045	1302693	keystroke	h	n/a
651.5415	0.0595	1303083	keystroke	o	n/a
651.707	0.059	1303414	keystroke	o	n/a
651.902	0.1045	1303804	keystroke	d	n/a
652.2915	0.135	1304583	keystroke	Key.enter	n/a
652.431	15.132	1304862	prompt	n/a	communist adds siemens study\n
653.401	0.09	1306802	keystroke	c	n/a
653.551	0.105	1307102	keystroke	i	n/a
653.791	0.106	1307582	keystroke	m	n/a
653.9865	0.06	1307973	keystroke	m	n/a
654.2115	0.12	1308423	keystroke	u	n/a
654.3765	0.0745	1308753	keystroke	n	n/a
654.526	0.06	1309052	keystroke	i	n/a
654.782	0.1045	1309564	keystroke	s	n/a
655.0965	0.09	1310193	keystroke	t	n/a
655.772	0.045	1311544	keystroke	Key.backspace	n/a
655.9665	0.045	1311933	keystroke	Key.backspace	n/a
656.2365	0.045	1312473	keystroke	Key.backspace	n/a
656.5665	0.03	1313133	keystroke	Key.backspace	n/a
656.896	0.06	1313792	keystroke	Key.backspace	n/a
657.2865	0.015	1314573	keystroke	Key.backspace	n/a
657.646	0.06	1315292	keystroke	Key.backspace	n/a
658.052	0.0445	1316104	keystroke	Key.backspace	n/a
658.6515	0.075	1317303	keystroke	o	n/a
658.8615	0.0605	1317723	keystroke	m	n/a
659.0415	0.06	1318083	keystroke	m	n/a
659.2665	0.075	1318533	keystroke	u	n/a
659.3565	0.12	1318713	keystroke	n	n/a
659.5215	0.0595	1319043	keystroke	i	n/a
659.686	0.106	1319372	keystroke	s	n/a
659.9115	0.06	1319823	keystroke	t	n/a
660.0165	0.15	1320033	keystroke	Key.space	n/a
660.9465	0.1655	1321893	keystroke	a	n/a
661.441	0.09	1322882	keystroke	d	n/a
661.651	0.105	1323302	keystroke	d	n/a
661.786	0.1205	1323572	keystroke	s	n/a
661.9365	0.1795	1323873	keystroke	Key.space	n/a
662.702	0.1045	1325404	keystroke	s	n/a
662.7765	0.09	1325553	keystroke	i	n/a
662.9415	0.06	1325883	keystroke	e	n/a
663.0615	0.09	1326123	keystroke	m	n/a
663.3015	0.045	1326603	keystroke	e	n/a
663.4815	0.075	1326963	keystroke	n	n/a
663.6015	0.09	1327203	keystroke	s	n/a
663.946	0.1505	1327892	keystroke	Key.space	n/a
665.2665	0.1195	1330533	keystroke	s	n/a
665.7015	0.015	1331403	keystroke	t	n/a
666.1515	0.105	1332303	keystroke	u	n/a
666.3165	0.06	1332633	keystroke	d	n/a
666.4815	0.0745	1332963	keystroke	y	n/a
667.441	0.12	1334882	keystroke	Key.enter	n/a
667.567	11.726	1335134	prompt	n/a	progressive speakers watts production\n
668.9715	0.12	1337943	keystroke	p	n/a
669.1665	0.075	1338333	keystroke	r	n/a
669.3765	0.06	1338753	keystroke	o	n/a
670.036	0.09	1340072	keystroke	g	n/a
670.291	0.15	1340582	keystroke	r	n/a
670.426	0.09	1340852	keystroke	e	n/a
670.681	0.046	1341362	keystroke	s	n/a
670.8165	0.09	1341633	keystroke	s	n/a
670.9365	0.09	1341873	keystroke	i	n/a
671.672	0.06	1343344	keystroke	v	n/a
671.8065	0.09	1343613	keystroke	e	n/a
671.9415	0.15	1343883	keystroke	Key.space	n/a
672.1065	0.15	1344213	keystroke	s	n/a
672.3465	0.105	1344693	keystroke	p	n/a
672.5265	0.15	1345053	keystroke	e	n/a
672.6465	0.1195	1345293	keystroke	a	n/a
673.201	0.075	1346402	keystroke	k	n/a
673.442	0.135	1346884	keystroke	e	n/a
673.532	0.0895	1347064	keystroke	r	n/a
673.8915	0.18	1347783	keystroke	s	n/a
674.1465	0.0745	1348293	keystroke	Key.space	n/a
674.477	0.18	1348954	keystroke	w	n/a
674.567	0.1345	1349134	keystroke	a	n/a
675.5565	0.06	1351113	keystroke	t	n/a
675.6915	0.075	1351383	keystroke	t	n/a
675.841	0.12	1351682	keystroke	s	n/a
675.961	0.18	1351922	keystroke	Key.space	n/a
676.3515	0.12	1352703	keystroke	p	n/a
676.5165	0.075	1353033	keystroke	r	n/a
677.461	0.105	1354922	keystroke	o	n/a
677.7015	0.075	1355403	keystroke	d	n/a
677.9265	0.09	1355853	keystroke	u	n/a
678.0615	0.105	1356123	keystroke	c	n/a
678.2865	0.135	1356573	keystroke	t	n/a
678.4215	0.06	1356843	keystroke	i	n/a
678.616	0.105	1357232	keystroke	o	n/a
678.706	0.18	1357412	keystroke	n	n/a
679.231	0.06	1358462	keystroke	Key.enter	n/a
679.296	13.722	1358592	prompt	n/a	attorney influences immunology streaming\n
680.326	0.135	1360652	keystroke	a	n/a
680.5815	0.06	1361163	keystroke	t	n/a
680.7465	0.075	1361493	keystroke	t	n/a
680.8515	0.075	1361703	keystroke	o	n/a
680.9865	0.09	1361973	keystroke	r	n/a
681.0465	0.1345	1362093	keystroke	n	n/a
681.226	0.09	1362452	keystroke	e	n/a
681.301	0.091	1362602	keystroke	y	n/a
681.5265	0.105	1363053	keystroke	Key.space	n/a
682.0215	0.09	1364043	keystroke	i	n/a
682.0965	0.12	1364193	keystroke	n	n/a
682.3215	0.12	1364643	keystroke	f	n/a
682.4865	0.0595	1364973	keystroke	l	n/a
682.681	0.075	1365362	keystroke	u	n/a
682.786	0.12	1365572	keystroke	e	n/a
682.891	0.12	1365782	keystroke	n	n/a
683.026	0.18	1366052	keystroke	c	n/a
683.146	0.105	1366292	keystroke	e	n/a
683.461	0.1205	1366922	keystroke	s	n/a
683.6415	0.15	1367283	keystroke	Key.space	n/a
683.8965	0.105	1367793	keystroke	i	n/a
684.0465	0.165	1368093	keystroke	m	n/a
684.481	0.12	1368962	keystroke	m	n/a
684.706	0.15	1369412	keystroke	u	n/a
684.842	0.1045	1369684	keystroke	n	n/a
685.1565	0.045	1370313	keystroke	i	n/a
685.892	0.0595	1371784	keystroke	Key.backspace	n/a
686.3565	0.0745	1372713	keystroke	o	n/a
686.8515	0.09	1373703	keystroke	l	n/a
687.0615	0.0895	1374123	keystroke	o	n/a
688.381	0.135	1376762	keystroke	g	n/a
688.531	0.135	1377062	keystroke	y	n/a
688.8165	0.15	1377633	keystroke	Key.space	n/a
689.911	0.075	1379822	keystroke	s	n/a
690.121	0.15	1380242	keystroke	t	n/a
690.316	0.0455	1380632	keystroke	r	n/a
690.5115	0.09	1381023	keystroke	e	n/a
690.6465	0.0895	1381293	keystroke	a	n/a
690.796	0.12	1381592	keystroke	m	n/a
691.096	0.1205	1382192	keystroke	n	n/a
691.666	0.045	1383332	keystroke	Key.backspace	n/a
692.102	0.0595	1384204	keystroke	i	n/a
692.146	0.0755	1384292	keystroke	n	n/a
692.5815	0.0595	1385163	keystroke	g	n/a
692.851	0.165	1385702	keystroke	Key.enter	n/a
693.0225	9.91	1386045	prompt	n/a	password discussions cure robinson\n
694.201	0.09	1388402	keystroke	p	n/a
694.366	0.1655	1388732	keystroke	a	n/a
694.6065	0.09	1389213	keystroke	s	n/a
694.8015	0.075	1389603	keystroke	s	n/a
695.071	0.09	1390142	keystroke	w	n/a
695.281	0.075	1390562	keystroke	o	n/a
695.416	0.06	1390832	keystroke	r	n/a
695.671	0.075	1391342	keystroke	d	n/a
695.866	0.1355	1391732	keystroke	Key.space	n/a
696.4965	0.105	1392993	keystroke	d	n/a
696.7215	0.09	1393443	keystroke	i	n/a
696.8715	0.1045	1393743	keystroke	s	n/a
697.126	0.165	1394252	keystroke	c	n/a
697.321	0.09	1394642	keystroke	u	n/a
697.486	0.045	1394972	keystroke	s	n/a
697.6515	0.105	1395303	keystroke	s	n/a
697.951	0.105	1395902	keystroke	i	n/a
698.221	0.1205	1396442	keystroke	o	n/a
698.3565	0.12	1396713	keystroke	n	n/a
698.5215	0.165	1397043	keystroke	s	n/a
698.881	0.1355	1397762	keystroke	Key.space	n/a
699.5865	0.105	1399173	keystroke	c	n/a
699.7365	0.0895	1399473	keystroke	u	n/a
699.886	0.1505	1399772	keystroke	r	n/a
700.0215	0.105	1400043	keystroke	e	n/a
700.1565	0.135	1400313	keystroke	Key.space	n/a
700.4865	0.105	1400973	keystroke	r	n/a
700.6815	0.0755	1401363	keystroke	o	n/a
700.9515	0.12	1401903	keystroke	b	n/a
701.3415	0.075	1402683	keystroke	i	n/a
701.672	0.12	1403344	keystroke	n	n/a
701.9565	0.12	1403913	keystroke	s	n/a
702.1215	0.075	1404243	keystroke	o	n/a
702.4365	0.105	1404873	keystroke	n	n/a
702.856	0.075	1405712	keystroke	Key.enter	n/a
702.9355	11.9525	1405871	prompt	n/a	alive consequence folders circles\n
703.6965	0.075	1407393	keystroke	a	n/a
703.9065	0.1195	1407813	keystroke	l	n/a
704.116	0.0755	1408232	keystroke	i	n/a
704.2815	0.12	1408563	keystroke	v	n/a
704.4765	0.075	1408953	keystroke	e	n/a
704.6265	0.105	1409253	keystroke	Key.space	n/a
705.331	0.12	1410662	keystroke	c	n/a
705.601	0.135	1411202	keystroke	n	n/a
706.531	0.09	1413062	keystroke	Key.backspace	n/a
707.0415	0.015	1414083	keystroke	o	n/a
707.3265	0.105	1414653	keystroke	n	n/a
708.391	0.106	1416782	keystroke	s	n/a
709.291	0.105	1418582	keystroke	e	n/a
709.5765	0.09	1419153	keystroke	q	n/a
709.7715	0.09	1419543	keystroke	u	n/a
709.8765	0.1345	1419753	keystroke	e	n/a
710.041	0.105	1420082	keystroke	n	n/a
710.236	0.135	1420472	keystroke	c	n/a
710.356	0.105	1420712	keystroke	e	n/a
710.551	0.166	1421102	keystroke	Key.space	n/a
711.1515	0.105	1422303	keystroke	f	n/a
711.3765	0.105	1422753	keystroke	o	n/a
711.691	0.1055	1423382	keystroke	l	n/a
711.9315	0.1345	1423863	keystroke	d	n/a
712.186	0.105	1424372	keystroke	e	n/a
712.201	0.165	1424402	keystroke	r	n/a
712.562	0.12	1425124	keystroke	s	n/a
712.741	0.1205	1425482	keystroke	Key.space	n/a
712.9665	0.105	1425933	keystroke	c	n/a
713.1165	0.045	1426233	keystroke	i	n/a
713.4615	0.075	1426923	keystroke	r	n/a
713.6715	0.1195	1427343	keystroke	c	n/a
713.881	0.105	1427762	keystroke	l	n/a
714.031	0.0455	1428062	keystroke	e	n/a
714.3615	0.0895	1428723	keystroke	s	n/a
714.6905	0.1955	1429381	keystroke	Key.enter	n/a
714.8905	8.0375	1429781	prompt	n/a	lamb jeans sony dynamic\n
715.876	0.09	1431752	keystroke	l	n/a
716.116	0.09	1432232	keystroke	a	n/a
716.222	0.1045	1432444	keystroke	m	n/a
716.5365	0.09	1433073	keystroke	b	n/a
716.8965	0.12	1433793	keystroke	Key.space	n/a
718.1565	0.24	1436313	keystroke	j	n/a
718.4115	0.03	1436823	keystroke	e	n/a
718.4265	0.03	1436853	keystroke	a	n/a
718.471	0.0905	1436942	keystroke	n	n/a
718.7115	0.105	1437423	keystroke	s	n/a
718.8765	0.12	1437753	keystroke	Key.space	n/a
719.101	0.15	1438202	keystroke	s	n/a
719.611	0.09	1439222	keystroke	o	n/a
720.1965	0.12	1440393	keystroke	n	n/a
720.4965	0.075	1440993	keystroke	y	n/a
720.7515	0.09	1441503	keystroke	Key.space	n/a
721.336	0.18	1442672	keystroke	d	n/a
721.516	0.0605	1443032	keystroke	y	n/a
721.7415	0.105	1443483	keystroke	n	n/a
721.8765	0.1045	1443753	keystroke	a	n/a
722.056	0.09	1444112	keystroke	m	n/a
722.176	0.105	1444352	keystroke	i	n/a
722.386	0.12	1444772	keystroke	c	n/a
722.791	0.1355	1445582	keystroke	Key.enter	n/a
722.935	10.1625	1445870	prompt	n/a	streets exterior funding payday\n
723.8715	0.0595	1447743	keystroke	s	n/a
724.126	0.15	1448252	keystroke	t	n/a
724.306	0.075	1448612	keystroke	r	n/a
724.696	0.105	1449392	keystroke	e	n/a
724.8915	0.105	1449783	keystroke	e	n/a
725.146	0.12	1450292	keystroke	t	n/a
725.506	0.12	1451012	keystroke	s	n/a
725.671	0.135	1451342	keystroke	Key.space	n/a
725.8505	0.091	1451701	keystroke	e	n/a
726.1215	0.18	1452243	keystroke	x	n/a
726.5265	0.015	1453053	keystroke	t	n/a
726.841	0.105	1453682	keystroke	e	n/a
726.901	0.12	1453802	keystroke	r	n/a
727.141	0.075	1454282	keystroke	i	n/a
727.411	0.075	1454822	keystroke	o	n/a
727.6065	0.075	1455213	keystroke	r	n/a
727.861	0.1655	1455722	keystroke	Key.space	n/a
728.7765	0.09	1457553	keystroke	f	n/a
728.9415	0.09	1457883	keystroke	u	n/a
729.2565	0.135	1458513	keystroke	n	n/a
729.4215	0.12	1458843	keystroke	d	n/a
729.691	0.06	1459382	keystroke	i	n/a
729.706	0.12	1459412	keystroke	n	n/a
730.111	0.1205	1460222	keystroke	g	n/a
730.336	0.12	1460672	keystroke	Key.space	n/a
731.7015	0.075	1463403	keystroke	p	n/a
731.7915	0.015	1463583	keystroke	a	n/a
731.9715	0.09	1463943	keystroke	y	n/a
732.3015	0.18	1464603	keystroke	d	n/a
732.4665	0.0445	1464933	keystroke	a	n/a
732.526	0.1195	1465052	keystroke	y	n/a
732.9315	0.165	1465863	keystroke	Key.enter	n/a
733.101	12.747	1466202	prompt	n/a	brussels volvo customer hometown\n
734.086	0.105	1468172	keystroke	b	n/a
734.206	0.1205	1468412	keystroke	r	n/a
734.566	0.06	1469132	keystroke	u	n/a
734.791	0.045	1469582	keystroke	s	n/a
734.956	0.045	1469912	keystroke	s	n/a
735.211	0.075	1470422	keystroke	e	n/a
735.331	0.1195	1470662	keystroke	l	n/a
735.541	0.12	1471082	keystroke	s	n/a
735.766	0.12	1471532	keystroke	Key.space	n/a
736.321	0.06	1472642	keystroke	c	n/a
737.0115	0.12	1474023	keystroke	Key.backspace	n/a
737.2665	0.1045	1474533	keystroke	v	n/a
737.446	0.105	1474892	keystroke	o	n/a
737.716	0.135	1475432	keystroke	l	n/a
738.3765	0.0895	1476753	keystroke	v	n/a
738.661	0.12	1477322	keystroke	o	n/a
739.036	0.12	1478072	keystroke	Key.space	n/a
739.726	0.135	1479452	keystroke	c	n/a
739.891	0.09	1479782	keystroke	u	n/a
740.056	0.075	1480112	keystroke	s	n/a
740.372	0.0445	1480744	keystroke	t	n/a
740.6565	0.12	1481313	keystroke	m	n/a
741.241	0.1045	1482482	keystroke	Key.backspace	n/a
741.5565	0.1495	1483113	keystroke	o	n/a
741.691	0.105	1483382	keystroke	m	n/a
742.171	0.2095	1484342	keystroke	e	n/a
742.4265	0.09	1484853	keystroke	r	n/a
742.6215	0.1645	1485243	keystroke	Key.space	n/a
742.981	0.09	1485962	keystroke	h	n/a
743.236	0.12	1486472	keystroke	o	n/a
743.282	0.1335	1486564	keystroke	m	n/a
743.4915	0.12	1486983	keystroke	e	n/a
743.7315	0.045	1487463	keystroke	h	n/a
744.106	0.06	1488212	keystroke	Key.backspace	n/a
744.302	0.1195	1488604	keystroke	t	n/a
744.9915	0.09	1489983	keystroke	o	n/a
745.1565	0.0745	1490313	keystroke	w	n/a
745.276	0.135	1490552	keystroke	n	n/a
745.6815	0.165	1491363	keystroke	Key.enter	n/a
745.851	14.337	1491702	prompt	n/a	leone championships evaluation alter\n
746.836	0.09	1493672	keystroke	l	n/a
746.987	0.1035	1493974	keystroke	e	n/a
747.4515	0.1345	1494903	keystroke	o	n/a
747.571	0.12	1495142	keystroke	n	n/a
747.751	0.09	1495502	keystroke	e	n/a
748.0655	0.105	1496131	keystroke	Key.space	n/a
748.591	0.135	1497182	keystroke	c	n/a
748.756	0.06	1497512	keystroke	h	n/a
748.891	0.1195	1497782	keystroke	a	n/a
749.0405	0.105	1498081	keystroke	m	n/a
749.311	0.105	1498622	keystroke	p	n/a
749.596	0.075	1499192	keystroke	i	n/a
749.897	0.0435	1499794	keystroke	o	n/a
750.1215	0.105	1500243	keystroke	n	n/a
750.3165	0.09	1500633	keystroke	s	n/a
750.796	0.12	1501592	keystroke	h	n/a
751.006	0.06	1502012	keystroke	i	n/a
751.2015	0.09	1502403	keystroke	p	n/a
751.606	0.1355	1503212	keystroke	s	n/a
752.1615	0.195	1504323	keystroke	Key.space	n/a
752.776	0.105	1505552	keystroke	e	n/a
753.181	0.105	1506362	keystroke	v	n/a
753.406	0.105	1506812	keystroke	a	n/a
753.631	0.09	1507262	keystroke	l	n/a
753.9315	0.09	1507863	keystroke	a	n/a
754.516	0.09	1509032	keystroke	Key.backspace	n/a
754.861	0.09	1509722	keystroke	u	n/a
755.101	0.075	1510202	keystroke	a	n/a
755.3405	0.075	1510681	keystroke	t	n/a
755.521	0.105	1511042	keystroke	u	n/a
756.151	0.1045	1512302	keystroke	Key.backspace	n/a
757.5615	0.0745	1515123	keystroke	i	n/a
757.831	0.15	1515662	keystroke	o	n/a
758.206	0.12	1516412	keystroke	n	n/a
758.446	0.1345	1516892	keystroke	Key.space	n/a
758.8815	0.105	1517763	keystroke	a	n/a
759.0915	0.135	1518183	keystroke	l	n/a
759.361	0.15	1518722	keystroke	t	n/a
759.676	0.105	1519352	keystroke	e	n/a
759.766	0.09	1519532	keystroke	r	n/a
760.036	0.15	1520072	keystroke	Key.enter	n/a
760.192	8.6055	1520384	prompt	n/a	glen wesley tier cooking\n
761.1165	0.105	1522233	keystroke	f	n/a
761.566	0.12	1523132	keystroke	Key.backspace	n/a
761.791	0.09	1523582	keystroke	g	n/a
762.0015	0.09	1524003	keystroke	l	n/a
762.316	0.09	1524632	keystroke	e	n/a
762.496	0.1195	1524992	keystroke	n	n/a
762.9315	0.105	1525863	keystroke	Key.space	n/a
763.2015	0.1195	1526403	keystroke	w	n/a
763.306	0.09	1526612	keystroke	e	n/a
763.5755	0.105	1527151	keystroke	d	n/a
763.9515	0.09	1527903	keystroke	Key.backspace	n/a
764.1165	0.0895	1528233	keystroke	s	n/a
764.341	0.165	1528682	keystroke	l	n/a
764.551	0.075	1529102	keystroke	e	n/a
764.9415	0.12	1529883	keystroke	y	n/a
765.301	0.12	1530602	keystroke	Key.space	n/a
765.9465	0.15	1531893	keystroke	t	n/a
766.1415	0.0895	1532283	keystroke	i	n/a
766.351	0.135	1532702	keystroke	e	n/a
766.471	0.105	1532942	keystroke	r	n/a
766.651	0.15	1533302	keystroke	Key.space	n/a
766.861	0.135	1533722	keystroke	c	n/a
767.041	0.12	1534082	keystroke	o	n/a
767.4015	0.089	1534803	keystroke	o	n/a
767.701	0.06	1535402	keystroke	k	n/a
768.016	0.135	1536032	keystroke	i	n/a
768.076	0.165	1536152	keystroke	n	n/a
768.376	0.105	1536752	keystroke	g	n/a
768.646	0.15	1537292	keystroke	Key.enter	n/a
768.8	10.1225	1537600	prompt	n/a	house indicator connecting briefing\n
769.6815	0.12	1539363	keystroke	h	n/a
769.951	0.15	1539902	keystroke	o	n/a
770.011	0.075	1540022	keystroke	u	n/a
770.4005	0.211	1540801	keystroke	s	n/a
770.6715	0.09	1541343	keystroke	e	n/a
770.8965	0.0895	1541793	keystroke	n	n/a
771.721	0.12	1543442	keystroke	Key.backspace	n/a
772.0655	0.12	1544131	keystroke	Key.space	n/a
772.3515	0.09	1544703	keystroke	i	n/a
772.4115	0.135	1544823	keystroke	n	n/a
772.6965	0.1195	1545393	keystroke	d	n/a
772.876	0.09	1545752	keystroke	i	n/a
773.206	0.165	1546412	keystroke	c	n/a
773.431	0.09	1546862	keystroke	a	n/a
773.701	0.075	1547402	keystroke	t	n/a
773.8955	0.09	1547791	keystroke	o	n/a
774.0905	0.075	1548181	keystroke	r	n/a
774.2855	0.151	1548571	keystroke	Key.space	n/a
774.7365	0.1195	1549473	keystroke	c	n/a
774.991	0.075	1549982	keystroke	o	n/a
775.171	0.075	1550342	keystroke	n	n/a
775.336	0.075	1550672	keystroke	n	n/a
775.516	0.1795	1551032	keystroke	e	n/a
775.6965	0.1195	1551393	keystroke	c	n/a
776.026	0.045	1552052	keystroke	t	n/a
776.386	0.105	1552772	keystroke	i	n/a
776.431	0.12	1552862	keystroke	n	n/a
776.7005	0.09	1553401	keystroke	g	n/a
776.8655	0.135	1553731	keystroke	Key.space	n/a
777.3015	0.0745	1554603	keystroke	b	n/a
777.511	0.075	1555022	keystroke	r	n/a
777.661	0.09	1555322	keystroke	i	n/a
777.841	0.09	1555682	keystroke	e	n/a
778.051	0.09	1556102	keystroke	f	n/a
778.201	0.1195	1556402	keystroke	i	n/a
778.276	0.1495	1556552	keystroke	n	n/a
778.4555	0.105	1556911	keystroke	g	n/a
778.7855	0.135	1557571	keystroke	Key.enter	n/a
778.9285	17.559	1557857	prompt	n/a	peter influences authorized destroy\n
780.076	0.075	1560152	keystroke	p	n/a
780.286	0.1045	1560572	keystroke	e	n/a
780.4805	0.105	1560961	keystroke	t	n/a
780.7055	0.181	1561411	keystroke	e	n/a
780.8715	0.09	1561743	keystroke	r	n/a
781.0215	0.1495	1562043	keystroke	Key.space	n/a
781.3205	0.075	1562641	keystroke	i	n/a
781.4555	0.135	1562911	keystroke	n	n/a
781.6805	0.105	1563361	keystroke	f	n/a
781.906	0.09	1563812	keystroke	k	n/a
782.101	0.1045	1564202	keystroke	u	n/a
782.2955	0.135	1564591	keystroke	e	n/a
782.4005	0.1355	1564801	keystroke	n	n/a
782.581	0.195	1565162	keystroke	c	n/a
783.2115	0.045	1566423	keystroke	Key.backspace	n/a
783.466	0.09	1566932	keystroke	Key.backspace	n/a
783.676	0.0295	1567352	keystroke	Key.backspace	n/a
783.8415	0.0445	1567683	keystroke	Key.backspace	n/a
783.991	0.105	1567982	keystroke	Key.backspace	n/a
784.2915	0.104	1568583	keystroke	l	n/a
785.3105	0.075	1570621	keystroke	e	n/a
787.2165	0.075	1574433	keystroke	Key.backspace	n/a
787.6065	0.074	1575213	keystroke	u	n/a
787.8165	0.09	1575633	keystroke	e	n/a
787.9215	0.1045	1575843	keystroke	n	n/a
788.131	0.225	1576262	keystroke	c	n/a
788.281	0.15	1576562	keystroke	e	n/a
788.6555	0.105	1577311	keystroke	s	n/a
788.7755	0.165	1577551	keystroke	Key.space	n/a
788.9255	0.121	1577851	keystroke	a	n/a
789.3165	0.0745	1578633	keystroke	t	n/a
790.0515	0.075	1580103	keystroke	Key.backspace	n/a
790.606	0.105	1581212	keystroke	u	n/a
790.771	0.12	1581542	keystroke	t	n/a
790.906	0.09	1581812	keystroke	h	n/a
791.5355	0.105	1583071	keystroke	r	n/a
792.0915	0.1195	1584183	keystroke	Key.backspace	n/a
792.331	0.09	1584662	keystroke	o	n/a
792.526	0.09	1585052	keystroke	r	n/a
792.916	0.105	1585832	keystroke	i	n/a
793.081	0.1645	1586162	keystroke	z	n/a
793.4555	0.105	1586911	keystroke	e	n/a
793.8015	0.105	1587603	keystroke	d	n/a
794.071	0.12	1588142	keystroke	Key.space	n/a
794.4005	0.15	1588801	keystroke	d	n/a
794.5205	0.136	1589041	keystroke	e	n/a
794.9115	0.09	1589823	keystroke	s	n/a
795.181	0.12	1590362	keystroke	t	n/a
795.286	0.075	1590572	keystroke	r	n/a
795.4955	0.181	1590991	keystroke	o	n/a
795.9465	0.1045	1591893	keystroke	y	n/a
796.3205	0.165	1592641	keystroke	Key.enter	n/a
796.4905	17.097	1592981	prompt	n/a	basement relations his earlier\n
797.641	0.09	1595282	keystroke	b	n/a
797.851	0.1345	1595702	keystroke	a	n/a
798.0905	0.12	1596181	keystroke	s	n/a
798.2705	0.09	1596541	keystroke	e	n/a
799.1705	0.136	1598341	keystroke	m	n/a
799.411	0.0895	1598822	keystroke	e	n/a
799.5755	0.121	1599151	keystroke	n	n/a
799.8465	0.1195	1599693	keystroke	t	n/a
800.191	0.1645	1600382	keystroke	Key.space	n/a
800.5665	0.119	1601133	keystroke	r	n/a
800.881	0.12	1601762	keystroke	e	n/a
801.331	0.12	1602662	keystroke	l	n/a
801.601	0.135	1603202	keystroke	a	n/a
801.871	0.1345	1603742	keystroke	t	n/a
803.086	0.105	1606172	keystroke	t	n/a
803.5515	0.15	1607103	keystroke	i	n/a
804.151	0.12	1608302	keystroke	Key.backspace	n/a
804.3605	0.075	1608721	keystroke	Key.backspace	n/a
805.621	0.12	1611242	keystroke	i	n/a
805.876	0.12	1611752	keystroke	o	n/a
806.026	0.15	1612052	keystroke	n	n/a
806.6255	0.105	1613251	keystroke	s	n/a
807.046	0.105	1614092	keystroke	Key.space	n/a
807.6605	0.165	1615321	keystroke	h	n/a
807.9305	0.075	1615861	keystroke	i	n/a
809.101	0.18	1618202	keystroke	s	n/a
809.341	0.15	1618682	keystroke	Key.space	n/a
809.791	0.105	1619582	keystroke	e	n/a
810.9615	0.15	1621923	keystroke	a	n/a
811.486	0.015	1622972	keystroke	r	n/a
812.296	0.12	1624592	keystroke	l	n/a
812.7005	0.09	1625401	keystroke	i	n/a
812.956	0.12	1625912	keystroke	e	n/a
813.091	0.075	1626182	keystroke	r	n/a
813.421	0.165	1626842	keystroke	Key.enter	n/a
813.59	12.5375	1627180	prompt	n/a	diary occurrence whom holland\n
814.726	0.15	1629452	keystroke	d	n/a
814.9355	0.03	1629871	keystroke	i	n/a
815.776	0.1795	1631552	keystroke	a	n/a
816.1805	0.105	1632361	keystroke	s	n/a
817.0655	0.12	1634131	keystroke	Key.backspace	n/a
817.2905	0.09	1634581	keystroke	r	n/a
817.4715	0.1195	1634943	keystroke	y	n/a
817.741	0.135	1635482	keystroke	Key.space	n/a
818.0255	0.09	1636051	keystroke	o	n/a
818.2055	0.09	1636411	keystroke	c	n/a
818.401	0.09	1636802	keystroke	c	n/a
818.536	0.1045	1637072	keystroke	u	n/a
818.7155	0.12	1637431	keystroke	r	n/a
818.8205	0.105	1637641	keystroke	e	n/a
818.9405	0.1205	1637881	keystroke	n	n/a
819.121	0.18	1638242	keystroke	c	n/a
819.271	0.105	1638542	keystroke	e	n/a
819.511	0.1345	1639022	keystroke	Key.space	n/a
819.9155	0.12	1639831	keystroke	w	n/a
820.1255	0.0755	1640251	keystroke	h	n/a
820.6205	0.135	1641241	keystroke	o	n/a
820.7105	0.105	1641421	keystroke	m	n/a
820.9205	0.15	1641841	keystroke	Key.space	n/a
821.1765	0.0895	1642353	keystroke	h	n/a
821.446	0.0895	1642892	keystroke	o	n/a
821.8205	0.06	1643641	keystroke	l	n/a
821.9555	0.06	1643911	keystroke	l	n/a
822.1505	0.09	1644301	keystroke	n	n/a
822.3165	0.075	1644633	keystroke	a	n/a
822.736	0.0745	1645472	keystroke	Key.backspace	n/a
822.9005	0.075	1645801	keystroke	Key.backspace	n/a
823.1415	0.089	1646283	keystroke	a	n/a
823.3065	0.1195	1646613	keystroke	b	n/a
823.456	0.1195	1646912	keystroke	d	n/a
824.2505	0.091	1648501	keystroke	Key.backspace	n/a
824.4905	0.12	1648981	keystroke	Key.backspace	n/a
825.2565	0.1045	1650513	keystroke	n	n/a
825.7355	0.075	1651471	keystroke	d	n/a
826.0055	0.12	1652011	keystroke	Key.enter	n/a
826.13	14.2185	1652260	prompt	n/a	diverse connectors marco labs\n
827.476	0.105	1654952	keystroke	d	n/a
827.656	0.075	1655312	keystroke	i	n/a
827.866	0.12	1655732	keystroke	v	n/a
828.181	0.1345	1656362	keystroke	e	n/a
828.346	0.1045	1656692	keystroke	r	n/a
828.6155	0.21	1657231	keystroke	s	n/a
828.7955	0.1055	1657591	keystroke	e	n/a
828.946	0.165	1657892	keystroke	Key.space	n/a
829.216	0.12	1658432	keystroke	c	n/a
829.381	0.09	1658762	keystroke	o	n/a
829.621	0.09	1659242	keystroke	n	n/a
829.831	0.045	1659662	keystroke	n	n/a
830.131	0.015	1660262	keystroke	e	n/a
830.896	0.12	1661792	keystroke	c	n/a
831.316	0.045	1662632	keystroke	t	n/a
831.7655	0.12	1663531	keystroke	o	n/a
832.7555	0.12	1665511	keystroke	r	n/a
832.9955	0.12	1665991	keystroke	s	n/a
833.1905	0.135	1666381	keystroke	Key.space	n/a
833.6255	0.12	1667251	keystroke	a	n/a
833.7605	0.12	1667521	keystroke	r	n/a
834.301	0.1195	1668602	keystroke	Key.backspace	n/a
834.646	0.12	1669292	keystroke	Key.backspace	n/a
834.931	0.0445	1669862	keystroke	Key.space	n/a
835.351	0.09	1670702	keystroke	Key.backspace	n/a
835.9805	0.105	1671961	keystroke	m	n/a
836.2065	0.1645	1672413	keystroke	a	n/a
836.386	0.075	1672772	keystroke	r	n/a
836.626	0.135	1673252	keystroke	c	n/a
837.136	0.1495	1674272	keystroke	i	n/a
837.8555	0.09	1675711	keystroke	Key.backspace	n/a
839.026	0.09	1678052	keystroke	o	n/a
839.206	0.15	1678412	keystroke	Key.space	n/a
839.431	0.09	1678862	keystroke	k	n/a
839.6255	0.1055	1679251	keystroke	a	n/a
839.7905	0.12	1679581	keystroke	b	n/a
840.031	0.0895	1680062	keystroke	s	n/a
840.2405	0.105	1680481	keystroke	Key.enter	n/a
840.3515	16.421	1680703	prompt	n/a	nicholas followed preferred subscriber\n
842.131	0.0895	1684262	keystroke	n	n/a
842.4455	0.075	1684891	keystroke	i	n/a
842.6855	0.151	1685371	keystroke	c	n/a
842.8505	0.06	1685701	keystroke	h	n/a
843.076	0.0595	1686152	keystroke	o	n/a
843.3905	0.075	1686781	keystroke	l	n/a
843.5855	0.18	1687171	keystroke	a	n/a
844.0955	0.135	1688191	keystroke	s	n/a
844.3055	0.135	1688611	keystroke	Key.space	n/a
844.6805	0.121	1689361	keystroke	f	n/a
844.846	0.075	1689692	keystroke	o	n/a
845.236	0.105	1690472	keystroke	l	n/a
845.446	0.075	1690892	keystroke	l	n/a
845.671	0.1045	1691342	keystroke	o	n/a
845.956	0.165	1691912	keystroke	w	n/a
846.121	0.09	1692242	keystroke	e	n/a
847.126	0.105	1694252	keystroke	d	n/a
847.321	0.1345	1694642	keystroke	Key.space	n/a
847.5605	0.105	1695121	keystroke	p	n/a
847.771	0.21	1695542	keystroke	r	n/a
847.906	0.15	1695812	keystroke	e	n/a
849.601	0.1345	1699202	keystroke	f	n/a
849.9305	0.1955	1699861	keystroke	e	n/a
850.156	0.075	1700312	keystroke	r	n/a
850.351	0.12	1700702	keystroke	r	n/a
850.561	0.03	1701122	keystroke	e	n/a
850.74	0.106	1701480	keystroke	d	n/a
850.906	0.135	1701812	keystroke	Key.space	n/a
851.176	0.0895	1702352	keystroke	s	n/a
851.3255	0.105	1702651	keystroke	u	n/a
851.4905	0.135	1702981	keystroke	b	n/a
851.9555	0.1055	1703911	keystroke	s	n/a
852.106	0.105	1704212	keystroke	c	n/a
852.3755	0.075	1704751	keystroke	r	n/a
852.4655	0.12	1704931	keystroke	u	n/a
852.6905	0.09	1705381	keystroke	b	n/a
852.8705	0.15	1705741	keystroke	e	n/a
852.9305	0.136	1705861	keystroke	r	n/a
853.966	0.09	1707932	keystroke	Key.backspace	n/a
854.221	0.1795	1708442	keystroke	Key.backspace	n/a
854.4605	0.075	1708921	keystroke	Key.backspace	n/a
854.6705	0.09	1709341	keystroke	Key.backspace	n/a
855.451	0.075	1710902	keystroke	i	n/a
855.811	0.18	1711622	keystroke	b	n/a
856.156	0.15	1712312	keystroke	e	n/a
856.306	0.075	1712612	keystroke	r	n/a
856.606	0.165	1713212	keystroke	Key.enter	n/a
856.7765	11.186	1713553	prompt	n/a	combined impression clinton creation\n
857.7155	0.18	1715431	keystroke	c	n/a
857.9105	0.1055	1715821	keystroke	o	n/a
858.076	0.12	1716152	keystroke	m	n/a
858.391	0.09	1716782	keystroke	b	n/a
858.631	0.15	1717262	keystroke	i	n/a
858.706	0.15	1717412	keystroke	n	n/a
858.901	0.0445	1717802	keystroke	e	n/a
859.0805	0.12	1718161	keystroke	d	n/a
859.2455	0.135	1718491	keystroke	Key.space	n/a
859.441	0.18	1718882	keystroke	i	n/a
859.606	0.105	1719212	keystroke	m	n/a
859.981	0.09	1719962	keystroke	p	n/a
860.2505	0.166	1720501	keystroke	r	n/a
860.3705	0.12	1720741	keystroke	e	n/a
860.6715	0.06	1721343	keystroke	s	n/a
860.8365	0.1045	1721673	keystroke	s	n/a
861.151	0.105	1722302	keystroke	i	n/a
861.406	0.135	1722812	keystroke	o	n/a
861.556	0.2245	1723112	keystroke	n	n/a
862.081	0.12	1724162	keystroke	Key.space	n/a
862.9355	0.135	1725871	keystroke	c	n/a
863.1455	0.09	1726291	keystroke	l	n/a
863.4005	0.045	1726801	keystroke	i	n/a
863.5065	0.1195	1727013	keystroke	n	n/a
863.6555	0.12	1727311	keystroke	t	n/a
863.8805	0.12	1727761	keystroke	o	n/a
863.9555	0.12	1727911	keystroke	n	n/a
864.391	0.135	1728782	keystroke	Key.space	n/a
865.291	0.105	1730582	keystroke	c	n/a
865.516	0.149	1731032	keystroke	r	n/a
865.62	0.151	1731240	keystroke	e	n/a
865.846	0.075	1731692	keystroke	a	n/a
866.221	0.09	1732442	keystroke	t	n/a
866.401	0.1495	1732802	keystroke	i	n/a
866.5955	0.12	1733191	keystroke	o	n/a
866.7605	0.195	1733521	keystroke	n	n/a
867.7805	0.1805	1735561	keystroke	Key.enter	n/a
867.9655	6.942	1735931	prompt	n/a	tier statute hundreds guard\n
868.8905	0.135	1737781	keystroke	t	n/a
869.0855	0.166	1738171	keystroke	i	n/a
869.2965	0.134	1738593	keystroke	e	n/a
