onset	duration	sample	value	key	prompt_text
0.671	7.3865	1342	prompt	n/a	the quick brown fox jumps over a lazy dog\n
2.4305	0.0425	4861	keystroke	t	n/a
2.458	0.135	4916	keystroke	h	n/a
2.563	0.12	5126	keystroke	e	n/a
2.6225	0.1505	5245	keystroke	Key.space	n/a
2.727	0.076	5454	keystroke	u	n/a
3.0725	0.1055	6145	keystroke	Key.backspace	n/a
3.193	0.09	6386	keystroke	q	n/a
3.298	0.09	6596	keystroke	u	n/a
3.508	0.105	7016	keystroke	i	n/a
3.703	0.09	7406	keystroke	c	n/a
3.838	0.1045	7676	keystroke	k	n/a
3.9575	0.1355	7915	keystroke	Key.space	n/a
4.078	0.0755	8156	keystroke	b	n/a
4.1835	0.0895	8367	keystroke	r	n/a
4.243	0.1205	8486	keystroke	o	n/a
4.393	0.12	8786	keystroke	w	n/a
4.453	0.1205	8906	keystroke	n	n/a
4.558	0.135	9116	keystroke	Key.space	n/a
4.633	0.12	9266	keystroke	f	n/a
4.843	0.0905	9686	keystroke	o	n/a
5.068	0.1055	10136	keystroke	x	n/a
5.128	0.1345	10256	keystroke	Key.space	n/a
5.2025	0.1055	10405	keystroke	j	n/a
5.2485	0.12	10497	keystroke	u	n/a
5.4285	0.1645	10857	keystroke	m	n/a
5.4885	0.135	10977	keystroke	p	n/a
5.593	0.133	11186	keystroke	s	n/a
5.6525	0.133	11305	keystroke	Key.space	n/a
5.921	0.1355	11842	keystroke	o	n/a
6.0405	0.151	12081	keystroke	v	n/a
6.1305	0.1665	12261	keystroke	e	n/a
6.251	0.136	12502	keystroke	r	n/a
6.3265	0.165	12653	keystroke	Key.space	n/a
6.477	0.105	12954	keystroke	a	n/a
6.6115	0.106	13223	keystroke	Key.space	n/a
6.942	0.09	13884	keystroke	l	n/a
7.077	0.06	14154	keystroke	a	n/a
7.2565	0.1495	14513	keystroke	z	n/a
7.331	0.09	14662	keystroke	y	n/a
7.4665	0.1205	14933	keystroke	Key.space	n/a
7.557	0.12	15114	keystroke	d	n/a
7.6165	0.121	15233	keystroke	o	n/a
7.7825	0.075	15565	keystroke	g	n/a
7.9775	0.075	15955	keystroke	Key.enter	n/a
8.0625	7.957	16125	prompt	n/a	pharmacies think mines dynamics\n
10.334	0.1335	20668	keystroke	p	n/a
10.7525	0.135	21505	keystroke	h	n/a
10.917	0.195	21834	keystroke	a	n/a
11.0525	0.135	22105	keystroke	r	n/a
11.1575	0.18	22315	keystroke	m	n/a
11.3225	0.12	22645	keystroke	a	n/a
11.9225	0.045	23845	keystroke	c	n/a
11.9825	0.165	23965	keystroke	i	n/a
12.1625	0.27	24325	keystroke	e	n/a
12.3125	0.165	24625	keystroke	s	n/a
12.4175	0.1645	24835	keystroke	Key.space	n/a
12.5225	0.0745	25045	keystroke	t	n/a
12.927	0.135	25854	keystroke	h	n/a
13.0025	0.1045	26005	keystroke	i	n/a
13.1975	0.1805	26395	keystroke	n	n/a
13.242	0.1655	26484	keystroke	k	n/a
13.6475	0.15	27295	keystroke	Key.space	n/a
14.128	0.1495	28256	keystroke	m	n/a
14.2625	0.165	28525	keystroke	i	n/a
14.3525	0.165	28705	keystroke	n	n/a
14.4425	0.165	28885	keystroke	e	n/a
14.502	0.15	29004	keystroke	s	n/a
14.5925	0.135	29185	keystroke	Key.space	n/a
14.7425	0.105	29485	keystroke	d	n/a
14.7875	0.105	29575	keystroke	y	n/a
14.9525	0.105	29905	keystroke	n	n/a
15.1025	0.1645	30205	keystroke	a	n/a
15.3875	0.1505	30775	keystroke	m	n/a
15.463	0.1345	30926	keystroke	i	n/a
15.5675	0.1945	31135	keystroke	c	n/a
15.7175	0.1355	31435	keystroke	s	n/a
15.8825	0.135	31765	keystroke	Key.enter	n/a
16.0295	6.62	32059	prompt	n/a	disciplinary brisbane grab towards\n
16.6925	0.12	33385	keystroke	d	n/a
16.7975	0.12	33595	keystroke	i	n/a
16.887	0.105	33774	keystroke	s	n/a
17.007	0.18	34014	keystroke	c	n/a
17.2625	0.1645	34525	keystroke	i	n/a
18.3725	0.1795	36745	keystroke	p	n/a
18.537	0.1205	37074	keystroke	l	n/a
18.7475	0.1505	37495	keystroke	i	n/a
19.1675	0.1195	38335	keystroke	n	n/a
19.3175	0.18	38635	keystroke	a	n/a
19.393	0.1495	38786	keystroke	r	n/a
19.5275	0.0745	39055	keystroke	y	n/a
19.6325	0.1195	39265	keystroke	Key.space	n/a
19.7975	0.1205	39595	keystroke	b	n/a
19.902	0.1055	39804	keystroke	r	n/a
20.0225	0.1045	40045	keystroke	i	n/a
20.1425	0.09	40285	keystroke	s	n/a
20.2475	0.1045	40495	keystroke	b	n/a
20.3375	0.15	40675	keystroke	a	n/a
20.4575	0.1195	40915	keystroke	n	n/a
20.562	0.1355	41124	keystroke	e	n/a
20.637	0.135	41274	keystroke	Key.space	n/a
20.8175	0.1645	41635	keystroke	g	n/a
20.892	0.1655	41784	keystroke	r	n/a
20.968	0.164	41936	keystroke	a	n/a
21.0725	0.09	42145	keystroke	b	n/a
21.117	0.12	42234	keystroke	Key.space	n/a
21.1925	0.1195	42385	keystroke	t	n/a
21.297	0.105	42594	keystroke	o	n/a
21.342	0.1655	42684	keystroke	w	n/a
21.477	0.12	42954	keystroke	r	n/a
21.8375	0.09	43675	keystroke	Key.backspace	n/a
21.9125	0.1495	43825	keystroke	a	n/a
21.987	0.135	43974	keystroke	r	n/a
22.1975	0.165	44395	keystroke	d	n/a
22.2865	0.1205	44573	keystroke	s	n/a
22.557	0.0905	45114	keystroke	Key.enter	n/a
22.6535	4.106	45307	prompt	n/a	military spine stopping football\n
23.337	0.1655	46674	keystroke	m	n/a
23.4125	0.1045	46825	keystroke	i	n/a
23.4875	0.135	46975	keystroke	l	n/a
23.6375	0.12	47275	keystroke	i	n/a
23.727	0.1355	47454	keystroke	t	n/a
23.8325	0.195	47665	keystroke	a	n/a
23.937	0.15	47874	keystroke	r	n/a
24.0425	0.12	48085	keystroke	y	n/a
24.102	0.1355	48204	keystroke	Key.space	n/a
24.2525	0.105	48505	keystroke	s	n/a
24.3425	0.1645	48685	keystroke	p	n/a
24.4475	0.1645	48895	keystroke	i	n/a
24.5225	0.165	49045	keystroke	n	n/a
24.6275	0.0895	49255	keystroke	e	n/a
24.6875	0.1195	49375	keystroke	Key.space	n/a
24.837	0.12	49674	keystroke	s	n/a
24.942	0.09	49884	keystroke	t	n/a
24.987	0.135	49974	keystroke	o	n/a
25.062	0.075	50124	keystroke	p	n/a
25.1975	0.1645	50395	keystroke	p	n/a
25.3475	0.1645	50695	keystroke	i	n/a
25.4525	0.135	50905	keystroke	n	n/a
25.4975	0.12	50995	keystroke	g	n/a
25.6025	0.1345	51205	keystroke	Key.space	n/a
25.7225	0.135	51445	keystroke	f	n/a
25.8125	0.0745	51625	keystroke	o	n/a
25.9475	0.12	51895	keystroke	o	n/a
26.0375	0.0895	52075	keystroke	t	n/a
26.2025	0.135	52405	keystroke	b	n/a
26.3065	0.1505	52613	keystroke	a	n/a
26.3975	0.0445	52795	keystroke	l	n/a
26.517	0.1355	53034	keystroke	l	n/a
26.622	0.1355	53244	keystroke	Key.enter	n/a
26.765	3.519	53530	prompt	n/a	rover investor soma growth\n
27.462	0.0905	54924	keystroke	r	n/a
27.537	0.106	55074	keystroke	o	n/a
27.6575	0.1645	55315	keystroke	v	n/a
27.7615	0.1505	55523	keystroke	e	n/a
27.8375	0.1345	55675	keystroke	r	n/a
27.897	0.15	55794	keystroke	Key.space	n/a
27.943	0.149	55886	keystroke	i	n/a
28.017	0.1505	56034	keystroke	n	n/a
28.287	0.135	56574	keystroke	v	n/a
28.4525	0.2095	56905	keystroke	e	n/a
28.572	0.165	57144	keystroke	s	n/a
28.6915	0.1205	57383	keystroke	t	n/a
28.7975	0.135	57595	keystroke	o	n/a
28.8875	0.1045	57775	keystroke	r	n/a
28.962	0.1195	57924	keystroke	Key.space	n/a
29.0675	0.1195	58135	keystroke	s	n/a
29.142	0.1355	58284	keystroke	o	n/a
29.2025	0.165	58405	keystroke	m	n/a
29.3375	0.135	58675	keystroke	a	n/a
29.3825	0.12	58765	keystroke	Key.space	n/a
29.488	0.1345	58976	keystroke	g	n/a
29.5625	0.12	59125	keystroke	r	n/a
29.6375	0.1195	59275	keystroke	o	n/a
29.802	0.105	59604	keystroke	w	n/a
29.892	0.105	59784	keystroke	t	n/a
29.982	0.0905	59964	keystroke	h	n/a
30.1925	0.0895	60385	keystroke	Key.enter	n/a
30.288	6.1475	60576	prompt	n/a	principles characterized separately presently\n
30.957	0.0905	61914	keystroke	p	n/a
31.0485	0.104	62097	keystroke	r	n/a
31.1225	0.15	62245	keystroke	i	n/a
31.1975	0.135	62395	keystroke	n	n/a
31.3175	0.135	62635	keystroke	c	n/a
31.438	0.1345	62876	keystroke	i	n/a
31.5575	0.1945	63115	keystroke	p	n/a
31.692	0.1805	63384	keystroke	l	n/a
31.857	0.1655	63714	keystroke	e	n/a
31.9325	0.1345	63865	keystroke	s	n/a
32.007	0.135	64014	keystroke	Key.space	n/a
32.1125	0.1645	64225	keystroke	c	n/a
32.187	0.1505	64374	keystroke	h	n/a
32.323	0.089	64646	keystroke	a	n/a
32.413	0.104	64826	keystroke	r	n/a
32.518	0.1345	65036	keystroke	a	n/a
32.6225	0.119	65245	keystroke	c	n/a
32.8625	0.09	65725	keystroke	t	n/a
32.967	0.1505	65934	keystroke	e	n/a
33.0425	0.1355	66085	keystroke	r	n/a
33.147	0.106	66294	keystroke	i	n/a
33.268	0.2095	66536	keystroke	z	n/a
33.3875	0.2245	66775	keystroke	e	n/a
33.508	0.1635	67016	keystroke	d	n/a
33.6265	0.121	67253	keystroke	Key.space	n/a
33.6875	0.105	67375	keystroke	s	n/a
33.897	0.1355	67794	keystroke	e	n/a
34.062	0.105	68124	keystroke	p	n/a
34.197	0.151	68394	keystroke	a	n/a
34.392	0.135	68784	keystroke	r	n/a
34.512	0.165	69024	keystroke	a	n/a
34.647	0.1205	69294	keystroke	t	n/a
34.722	0.1205	69444	keystroke	e	n/a
34.812	0.1205	69624	keystroke	l	n/a
34.9625	0.134	69925	keystroke	y	n/a
35.0515	0.151	70103	keystroke	Key.space	n/a
35.2925	0.134	70585	keystroke	p	n/a
35.3675	0.18	70735	keystroke	r	n/a
35.4425	0.12	70885	keystroke	e	n/a
35.5165	0.226	71033	keystroke	s	n/a
35.6975	0.12	71395	keystroke	e	n/a
35.8325	0.164	71665	keystroke	n	n/a
35.982	0.1055	71964	keystroke	t	n/a
36.1025	0.075	72205	keystroke	l	n/a
36.2075	0.105	72415	keystroke	y	n/a
36.3425	0.09	72685	keystroke	Key.enter	n/a
36.444	5.9	72888	prompt	n/a	afterwards addressing new revelation\n
36.987	0.1355	73974	keystroke	a	n/a
37.077	0.15	74154	keystroke	f	n/a
37.3325	0.135	74665	keystroke	t	n/a
37.4525	0.24	74905	keystroke	e	n/a
37.5575	0.165	75115	keystroke	r	n/a
37.6775	0.18	75355	keystroke	w	n/a
37.8125	0.195	75625	keystroke	a	n/a
37.8725	0.165	75745	keystroke	r	n/a
38.0525	0.24	76105	keystroke	d	n/a
38.1875	0.135	76375	keystroke	s	n/a
38.3375	0.24	76675	keystroke	a	n/a
38.3675	0.15	76735	keystroke	Key.space	n/a
38.5925	0.12	77185	keystroke	d	n/a
38.862	0.09	77724	keystroke	Key.backspace	n/a
39.042	0.03	78084	keystroke	Key.backspace	n/a
39.147	0.09	78294	keystroke	Key.backspace	n/a
39.2075	0.1645	78415	keystroke	Key.space	n/a
39.328	0.1345	78656	keystroke	a	n/a
39.387	0.105	78774	keystroke	d	n/a
39.5525	0.09	79105	keystroke	d	n/a
39.763	0.134	79526	keystroke	r	n/a
39.8075	0.1345	79615	keystroke	e	n/a
39.913	0.089	79826	keystroke	s	n/a
40.0625	0.1355	80125	keystroke	s	n/a
40.168	0.165	80336	keystroke	i	n/a
40.257	0.12	80514	keystroke	n	n/a
40.318	0.135	80636	keystroke	g	n/a
40.4075	0.1195	80815	keystroke	Key.space	n/a
40.4975	0.1045	80995	keystroke	n	n/a
40.573	0.179	81146	keystroke	e	n/a
40.647	0.136	81294	keystroke	w	n/a
40.7975	0.1345	81595	keystroke	Key.space	n/a
40.992	0.135	81984	keystroke	r	n/a
41.112	0.0755	82224	keystroke	e	n/a
41.262	0.135	82524	keystroke	v	n/a
41.353	0.089	82706	keystroke	e	n/a
41.412	0.1205	82824	keystroke	l	n/a
41.5925	0.135	83185	keystroke	a	n/a
41.6375	0.12	83275	keystroke	t	n/a
41.7725	0.18	83545	keystroke	i	n/a
41.788	0.1495	83576	keystroke	o	n/a
41.8925	0.135	83785	keystroke	n	n/a
42.2525	0.09	84505	keystroke	Key.enter	n/a
42.3495	5.6795	84699	prompt	n/a	wash risk goes centers\n
42.958	0.089	85916	keystroke	w	n/a
43.063	0.209	86126	keystroke	a	n/a
43.182	0.1355	86364	keystroke	s	n/a
43.2875	0.105	86575	keystroke	h	n/a
43.362	0.1355	86724	keystroke	Key.space	n/a
43.437	0.135	86874	keystroke	r	n/a
43.542	0.106	87084	keystroke	i	n/a
43.632	0.1355	87264	keystroke	s	n/a
43.7965	0.106	87593	keystroke	Key.space	n/a
43.8135	0.074	87627	keystroke	k	n/a
43.9625	0.12	87925	keystroke	g	n/a
44.0675	0.12	88135	keystroke	o	n/a
44.1725	0.135	88345	keystroke	e	n/a
44.248	0.135	88496	keystroke	s	n/a
44.322	0.135	88644	keystroke	Key.space	n/a
44.4275	0.1495	88855	keystroke	c	n/a
44.7125	0.2995	89425	keystroke	Key.backspace	n/a
45.147	0.0455	90294	keystroke	Key.backspace	n/a
45.282	0.0455	90564	keystroke	Key.backspace	n/a
45.417	0.06	90834	keystroke	Key.backspace	n/a
45.552	0.045	91104	keystroke	Key.backspace	n/a
45.6725	0.075	91345	keystroke	Key.backspace	n/a
45.8075	0.075	91615	keystroke	Key.backspace	n/a
45.9275	0.09	91855	keystroke	Key.backspace	n/a
46.2425	0.15	92485	keystroke	k	n/a
46.3775	0.165	92755	keystroke	Key.space	n/a
46.768	0.1195	93536	keystroke	g	n/a
46.8425	0.105	93685	keystroke	o	n/a
46.9325	0.165	93865	keystroke	e	n/a
47.0225	0.135	94045	keystroke	s	n/a
47.0825	0.135	94165	keystroke	Key.space	n/a
47.2025	0.15	94405	keystroke	c	n/a
47.2925	0.15	94585	keystroke	e	n/a
47.3975	0.105	94795	keystroke	n	n/a
47.5175	0.0905	95035	keystroke	t	n/a
47.5925	0.18	95185	keystroke	e	n/a
47.713	0.1345	95426	keystroke	r	n/a
47.8025	0.12	95605	keystroke	s	n/a
47.9375	0.09	95875	keystroke	Key.enter	n/a
48.0335	4.5565	96067	prompt	n/a	rule adults jacksonville winners\n
48.643	0.1195	97286	keystroke	r	n/a
48.792	0.2105	97584	keystroke	u	n/a
48.912	0.1205	97824	keystroke	l	n/a
49.0175	0.135	98035	keystroke	e	n/a
49.1225	0.135	98245	keystroke	Key.space	n/a
49.1975	0.18	98395	keystroke	a	n/a
49.2875	0.15	98575	keystroke	d	n/a
49.408	0.18	98816	keystroke	u	n/a
49.4975	0.12	98995	keystroke	l	n/a
49.588	0.2095	99176	keystroke	t	n/a
49.7075	0.1655	99415	keystroke	s	n/a
49.8575	0.12	99715	keystroke	Key.space	n/a
50.1575	0.105	100315	keystroke	j	n/a
50.2925	0.15	100585	keystroke	a	n/a
50.3525	0.1645	100705	keystroke	c	n/a
50.4585	0.074	100917	keystroke	k	n/a
50.577	0.1055	101154	keystroke	s	n/a
50.623	0.105	101246	keystroke	o	n/a
50.6975	0.1355	101395	keystroke	n	n/a
50.802	0.121	101604	keystroke	v	n/a
50.9075	0.1195	101815	keystroke	i	n/a
50.967	0.09	101934	keystroke	l	n/a
51.1475	0.1055	102295	keystroke	l	n/a
51.2675	0.135	102535	keystroke	e	n/a
51.3575	0.12	102715	keystroke	Key.space	n/a
51.6275	0.105	103255	keystroke	w	n/a
51.6725	0.1205	103345	keystroke	i	n/a
51.7475	0.105	103495	keystroke	n	n/a
51.8975	0.135	103795	keystroke	n	n/a
52.0475	0.135	104095	keystroke	e	n/a
52.1225	0.165	104245	keystroke	r	n/a
52.2575	0.0895	104515	keystroke	s	n/a
52.497	0.0905	104994	keystroke	Key.enter	n/a
52.594	3.4795	105188	prompt	n/a	window amongst heat pubs\n
53.338	0.09	106676	keystroke	w	n/a
53.398	0.165	106796	keystroke	i	n/a
53.488	0.165	106976	keystroke	n	n/a
53.728	0.149	107456	keystroke	d	n/a
53.893	0.104	107786	keystroke	o	n/a
53.9825	0.0895	107965	keystroke	w	n/a
54.0575	0.1345	108115	keystroke	Key.space	n/a
54.162	0.15	108324	keystroke	a	n/a
54.237	0.106	108474	keystroke	m	n/a
54.327	0.1355	108654	keystroke	o	n/a
54.447	0.135	108894	keystroke	n	n/a
54.538	0.1045	109076	keystroke	g	n/a
54.6575	0.15	109315	keystroke	s	n/a
54.7625	0.135	109525	keystroke	t	n/a
54.8225	0.12	109645	keystroke	Key.space	n/a
54.9125	0.105	109825	keystroke	h	n/a
55.003	0.1795	110006	keystroke	e	n/a
55.0775	0.1955	110155	keystroke	a	n/a
55.1525	0.135	110305	keystroke	t	n/a
55.2575	0.105	110515	keystroke	Key.space	n/a
55.4075	0.09	110815	keystroke	p	n/a
55.5875	0.1355	111175	keystroke	u	n/a
55.6625	0.12	111325	keystroke	b	n/a
55.7675	0.09	111535	keystroke	s	n/a
55.9625	0.105	111925	keystroke	Key.enter	n/a
56.0735	4.001	112147	prompt	n/a	story jail interests bones\n
56.668	0.15	113336	keystroke	s	n/a
56.773	0.1195	113546	keystroke	t	n/a
56.8775	0.1355	113755	keystroke	o	n/a
57.027	0.18	114054	keystroke	r	n/a
57.102	0.136	114204	keystroke	y	n/a
57.222	0.15	114444	keystroke	Key.space	n/a
57.417	0.091	114834	keystroke	j	n/a
57.808	0.135	115616	keystroke	a	n/a
57.928	0.179	115856	keystroke	i	n/a
58.017	0.135	116034	keystroke	l	n/a
58.123	0.104	116246	keystroke	Key.space	n/a
58.258	0.104	116516	keystroke	i	n/a
58.303	0.1495	116606	keystroke	n	n/a
58.3775	0.12	116755	keystroke	t	n/a
58.468	0.15	116936	keystroke	e	n/a
58.6025	0.18	117205	keystroke	r	n/a
58.7225	0.21	117445	keystroke	e	n/a
58.7675	0.18	117535	keystroke	s	n/a
58.9775	0.195	117955	keystroke	t	n/a
59.1275	0.1805	118255	keystroke	s	n/a
59.2325	0.1345	118465	keystroke	Key.space	n/a
59.413	0.134	118826	keystroke	b	n/a
59.517	0.165	119034	keystroke	o	n/a
59.667	0.12	119334	keystroke	n	n/a
59.742	0.1355	119484	keystroke	e	n/a
59.802	0.136	119604	keystroke	s	n/a
59.967	0.1055	119934	keystroke	Key.enter	n/a
60.079	6.34	120158	prompt	n/a	membership shortly fell enforcement\n
60.672	0.1055	121344	keystroke	m	n/a
60.7925	0.075	121585	keystroke	e	n/a
60.853	0.1045	121706	keystroke	m	n/a
61.0625	0.15	122125	keystroke	e	n/a
61.1675	0.15	122335	keystroke	r	n/a
61.2725	0.105	122545	keystroke	b	n/a
61.5275	0.06	123055	keystroke	Key.backspace	n/a
61.6775	0.075	123355	keystroke	Key.backspace	n/a
61.8275	0.105	123655	keystroke	Key.backspace	n/a
61.9475	0.15	123895	keystroke	b	n/a
62.0225	0.165	124045	keystroke	e	n/a
62.1425	0.18	124285	keystroke	r	n/a
62.2625	0.135	124525	keystroke	s	n/a
62.3675	0.2105	124735	keystroke	h	n/a
62.4575	0.2255	124915	keystroke	i	n/a
62.563	0.1345	125126	keystroke	p	n/a
62.6975	0.15	125395	keystroke	Key.space	n/a
62.7875	0.15	125575	keystroke	s	n/a
62.8625	0.1655	125725	keystroke	h	n/a
62.953	0.1345	125906	keystroke	o	n/a
63.0425	0.1505	126085	keystroke	r	n/a
63.133	0.104	126266	keystroke	t	n/a
63.223	0.12	126446	keystroke	l	n/a
63.372	0.121	126744	keystroke	y	n/a
63.477	0.18	126954	keystroke	Key.space	n/a
63.643	0.119	127286	keystroke	f	n/a
63.718	0.135	127436	keystroke	e	n/a
63.778	0.06	127556	keystroke	l	n/a
63.898	0.1195	127796	keystroke	l	n/a
64.0025	0.12	128005	keystroke	Key.space	n/a
64.1075	0.12	128215	keystroke	e	n/a
64.243	0.12	128486	keystroke	n	n/a
64.453	0.0295	128906	keystroke	c	n/a
65.0525	0.105	130105	keystroke	Key.backspace	n/a
65.188	0.0895	130376	keystroke	f	n/a
65.3075	0.12	130615	keystroke	o	n/a
65.353	0.135	130706	keystroke	r	n/a
65.6075	0.15	131215	keystroke	c	n/a
65.7275	0.0905	131455	keystroke	e	n/a
65.8475	0.12	131695	keystroke	m	n/a
65.9525	0.09	131905	keystroke	e	n/a
66.057	0.0905	132114	keystroke	n	n/a
66.148	0.104	132296	keystroke	t	n/a
66.327	0.09	132654	keystroke	Key.enter	n/a
66.423	3.806	132846	prompt	n/a	tracker acne protected ports\n
66.988	0.1345	133976	keystroke	t	n/a
67.0475	0.15	134095	keystroke	r	n/a
67.153	0.18	134306	keystroke	a	n/a
67.2725	0.165	134545	keystroke	c	n/a
67.4225	0.165	134845	keystroke	k	n/a
67.4975	0.15	134995	keystroke	e	n/a
67.6025	0.12	135205	keystroke	r	n/a
67.6775	0.09	135355	keystroke	Key.space	n/a
67.7375	0.18	135475	keystroke	a	n/a
67.873	0.18	135746	keystroke	c	n/a
68.0675	0.105	136135	keystroke	n	n/a
68.1875	0.12	136375	keystroke	e	n/a
68.2775	0.105	136555	keystroke	Key.space	n/a
68.3525	0.105	136705	keystroke	p	n/a
68.4725	0.12	136945	keystroke	r	n/a
68.6075	0.0755	137215	keystroke	o	n/a
68.6375	0.1055	137275	keystroke	t	n/a
68.758	0.12	137516	keystroke	e	n/a
68.893	0.104	137786	keystroke	c	n/a
69.133	0.12	138266	keystroke	t	n/a
69.222	0.24	138444	keystroke	e	n/a
69.372	0.195	138744	keystroke	d	n/a
69.507	0.1345	139014	keystroke	Key.space	n/a
69.5825	0.15	139165	keystroke	p	n/a
69.6725	0.135	139345	keystroke	o	n/a
69.7475	0.165	139495	keystroke	r	n/a
69.8675	0.15	139735	keystroke	t	n/a
69.973	0.1195	139946	keystroke	s	n/a
70.1525	0.075	140305	keystroke	Key.enter	n/a
70.2335	4.7065	140467	prompt	n/a	dans mutual supreme japan\n
70.8875	0.1805	141775	keystroke	d	n/a
71.008	0.134	142016	keystroke	a	n/a
71.098	0.119	142196	keystroke	n	n/a
71.218	0.149	142436	keystroke	s	n/a
71.292	0.1205	142584	keystroke	Key.space	n/a
71.3825	0.0745	142765	keystroke	m	n/a
71.518	0.119	143036	keystroke	u	n/a
71.623	0.119	143246	keystroke	t	n/a
71.7575	0.0755	143515	keystroke	u	n/a
71.878	0.105	143756	keystroke	a	n/a
71.9975	0.1055	143995	keystroke	l	n/a
72.328	0.119	144656	keystroke	Key.space	n/a
72.642	0.151	145284	keystroke	s	n/a
72.8975	0.075	145795	keystroke	p	n/a
73.168	0.075	146336	keystroke	Key.backspace	n/a
73.393	0.179	146786	keystroke	u	n/a
73.513	0.105	147026	keystroke	p	n/a
73.603	0.089	147206	keystroke	r	n/a
73.647	0.12	147294	keystroke	e	n/a
73.753	0.15	147506	keystroke	m	n/a
73.857	0.121	147714	keystroke	e	n/a
73.9325	0.1345	147865	keystroke	Key.space	n/a
74.217	0.106	148434	keystroke	j	n/a
74.353	0.09	148706	keystroke	a	n/a
74.4135	0.089	148827	keystroke	p	n/a
74.533	0.1195	149066	keystroke	a	n/a
74.6075	0.1045	149215	keystroke	n	n/a
74.847	0.0905	149694	keystroke	Key.enter	n/a
74.944	9.6115	149888	prompt	n/a	genealogy treaty untitled realize\n
75.6575	0.1495	151315	keystroke	g	n/a
75.7325	0.1355	151465	keystroke	e	n/a
75.8375	0.15	151675	keystroke	n	n/a
76.078	0.165	152156	keystroke	e	n/a
76.528	0.1495	153056	keystroke	a	n/a
76.7825	0.15	153565	keystroke	l	n/a
77.067	0.09	154134	keystroke	Key.backspace	n/a
77.263	0.12	154526	keystroke	o	n/a
77.3975	0.2095	154795	keystroke	l	n/a
77.547	0.1355	155094	keystroke	o	n/a
77.6975	0.1205	155395	keystroke	g	n/a
78.9575	0.09	157915	keystroke	Key.backspace	n/a
79.152	0.076	158304	keystroke	Key.backspace	n/a
79.3325	0.0605	158665	keystroke	Key.backspace	n/a
79.468	0.1045	158936	keystroke	Key.backspace	n/a
79.9925	0.18	159985	keystroke	l	n/a
80.0975	0.135	160195	keystroke	o	n/a
80.2325	0.135	160465	keystroke	g	n/a
80.5775	0.165	161155	keystroke	y	n/a
80.863	0.1495	161726	keystroke	Key.space	n/a
81.163	0.1945	162326	keystroke	t	n/a
81.222	0.2405	162444	keystroke	r	n/a
81.342	0.226	162684	keystroke	e	n/a
81.5225	0.2405	163045	keystroke	a	n/a
81.6575	0.1805	163315	keystroke	t	n/a
81.808	0.0895	163616	keystroke	y	n/a
81.898	0.119	163796	keystroke	Key.space	n/a
82.033	0.12	164066	keystroke	u	n/a
82.092	0.15	164184	keystroke	n	n/a
82.408	0.1045	164816	keystroke	t	n/a
82.527	0.091	165054	keystroke	i	n/a
82.633	0.1195	165266	keystroke	t	n/a
82.7375	0.1495	165475	keystroke	l	n/a
82.963	0.2245	165926	keystroke	e	n/a
83.083	0.165	166166	keystroke	d	n/a
83.232	0.1205	166464	keystroke	Key.space	n/a
83.368	0.194	166736	keystroke	r	n/a
83.443	0.2245	166886	keystroke	e	n/a
83.548	0.1495	167096	keystroke	a	n/a
83.6825	0.2105	167365	keystroke	l	n/a
83.8325	0.09	167665	keystroke	i	n/a
83.8775	0.1805	167755	keystroke	z	n/a
84.028	0.12	168056	keystroke	e	n/a
84.478	0.075	168956	keystroke	Key.enter	n/a
84.56	7.5845	169120	prompt	n/a	phillips travelling province smilies\n
85.168	0.12	170336	keystroke	p	n/a
85.3475	0.1205	170695	keystroke	h	n/a
85.4225	0.1505	170845	keystroke	i	n/a
85.5125	0.105	171025	keystroke	l	n/a
85.678	0.1045	171356	keystroke	l	n/a
85.7835	0.2545	171567	keystroke	i	n/a
85.9175	0.1355	171835	keystroke	p	n/a
86.098	0.179	172196	keystroke	s	n/a
86.217	0.121	172434	keystroke	Key.space	n/a
86.382	0.1505	172764	keystroke	t	n/a
86.638	0.165	173276	keystroke	r	n/a
86.668	0.24	173336	keystroke	e	n/a
86.772	0.21	173544	keystroke	a	n/a
87.267	0.0605	174534	keystroke	Key.backspace	n/a
87.417	0.075	174834	keystroke	Key.backspace	n/a
88.003	0.18	176006	keystroke	a	n/a
88.2425	0.1655	176485	keystroke	v	n/a
88.333	0.1345	176666	keystroke	e	n/a
88.437	0.076	176874	keystroke	l	n/a
88.572	0.1205	177144	keystroke	l	n/a
88.7975	0.2105	177595	keystroke	i	n/a
88.918	0.135	177836	keystroke	n	n/a
88.993	0.1345	177986	keystroke	g	n/a
89.068	0.12	178136	keystroke	Key.space	n/a
89.158	0.0895	178316	keystroke	p	n/a
89.233	0.1345	178466	keystroke	r	n/a
89.3375	0.165	178675	keystroke	o	n/a
90.0125	0.12	180025	keystroke	v	n/a
90.1025	0.135	180205	keystroke	i	n/a
90.1775	0.1505	180355	keystroke	n	n/a
90.2525	0.195	180505	keystroke	c	n/a
90.3425	0.1805	180685	keystroke	e	n/a
90.4325	0.15	180865	keystroke	Key.space	n/a
90.523	0.1045	181046	keystroke	s	n/a
91.0325	0.1655	182065	keystroke	m	n/a
91.153	0.165	182306	keystroke	i	n/a
91.258	0.15	182516	keystroke	l	n/a
91.423	0.18	182846	keystroke	i	n/a
91.573	0.18	183146	keystroke	e	n/a
91.692	0.136	183384	keystroke	s	n/a
92.053	0.09	184106	keystroke	Key.enter	n/a
92.1515	6.085	184303	prompt	n/a	convert harassment dallas rely\n
92.7575	0.135	185515	keystroke	c	n/a
92.8475	0.1195	185695	keystroke	o	n/a
93.1625	0.105	186325	keystroke	n	n/a
93.253	0.225	186506	keystroke	v	n/a
93.3725	0.3	186745	keystroke	e	n/a
93.8075	0.1955	187615	keystroke	r	n/a
93.9275	0.1805	187855	keystroke	t	n/a
94.0325	0.135	188065	keystroke	Key.space	n/a
94.182	0.12	188364	keystroke	h	n/a
94.2875	0.105	188575	keystroke	a	n/a
94.348	0.2395	188696	keystroke	r	n/a
95.4725	0.1655	190945	keystroke	a	n/a
95.6225	0.075	191245	keystroke	s	n/a
95.803	0.1045	191606	keystroke	s	n/a
95.953	0.1045	191906	keystroke	m	n/a
96.0575	0.1055	192115	keystroke	e	n/a
96.177	0.121	192354	keystroke	n	n/a
96.238	0.1345	192476	keystroke	t	n/a
96.327	0.1355	192654	keystroke	Key.space	n/a
96.5225	0.1805	193045	keystroke	d	n/a
96.627	0.135	193254	keystroke	a	n/a
96.748	0.09	193496	keystroke	l	n/a
96.882	0.15	193764	keystroke	l	n/a
97.003	0.165	194006	keystroke	a	n/a
97.078	0.15	194156	keystroke	s	n/a
97.212	0.076	194424	keystroke	Key.space	n/a
97.242	0.151	194484	keystroke	r	n/a
97.332	0.1205	194664	keystroke	e	n/a
97.422	0.1355	194844	keystroke	l	n/a
97.587	0.09	195174	keystroke	y	n/a
98.097	0.135	196194	keystroke	Key.enter	n/a
98.24	6.279	196480	prompt	n/a	contributors location widespread nonprofit\n
98.998	0.1195	197996	keystroke	c	n/a
99.103	0.164	198206	keystroke	o	n/a
99.207	0.15	198414	keystroke	n	n/a
99.298	0.1345	198596	keystroke	t	n/a
99.388	0.149	198776	keystroke	r	n/a
99.462	0.12	198924	keystroke	i	n/a
99.5975	0.2095	199195	keystroke	b	n/a
99.703	0.134	199406	keystroke	u	n/a
100.2125	0.12	200425	keystroke	t	n/a
100.3475	0.105	200695	keystroke	o	n/a
100.4675	0.18	200935	keystroke	r	n/a
100.543	0.1645	201086	keystroke	s	n/a
100.6775	0.15	201355	keystroke	Key.space	n/a
100.843	0.1045	201686	keystroke	l	n/a
101.052	0.136	202104	keystroke	o	n/a
101.157	0.1055	202314	keystroke	c	n/a
101.247	0.1955	202494	keystroke	a	n/a
101.412	0.1505	202824	keystroke	t	n/a
101.487	0.225	202974	keystroke	i	n/a
101.548	0.149	203096	keystroke	o	n/a
101.653	0.1195	203306	keystroke	n	n/a
101.712	0.1355	203424	keystroke	Key.space	n/a
101.7725	0.135	203545	keystroke	w	n/a
101.8925	0.12	203785	keystroke	i	n/a
101.9825	0.18	203965	keystroke	d	n/a
102.087	0.1955	204174	keystroke	e	n/a
102.2975	0.135	204595	keystroke	s	n/a
102.4175	0.135	204835	keystroke	p	n/a
102.5375	0.15	205075	keystroke	r	n/a
102.6125	0.2545	205225	keystroke	e	n/a
102.7175	0.2095	205435	keystroke	a	n/a
102.8675	0.1195	205735	keystroke	d	n/a
102.957	0.12	205914	keystroke	Key.space	n/a
103.092	0.1505	206184	keystroke	n	n/a
103.2125	0.135	206425	keystroke	o	n/a
103.3325	0.12	206665	keystroke	n	n/a
103.4975	0.12	206995	keystroke	p	n/a
103.7975	0.09	207595	keystroke	r	n/a
103.9025	0.12	207805	keystroke	o	n/a
104.053	0.0895	208106	keystroke	f	n/a
104.1275	0.105	208255	keystroke	i	n/a
104.2775	0.09	208555	keystroke	t	n/a
104.4125	0.105	208825	keystroke	Key.enter	n/a
104.522	5.142	209044	prompt	n/a	transcription claire self spouse\n
105.088	0.1945	210176	keystroke	t	n/a
105.1625	0.195	210325	keystroke	r	n/a
105.2375	0.21	210475	keystroke	a	n/a
105.432	0.1355	210864	keystroke	n	n/a
105.627	0.1805	211254	keystroke	s	n/a
105.7925	0.2095	211585	keystroke	c	n/a
105.9125	0.165	211825	keystroke	r	n/a
106.0475	0.2095	212095	keystroke	i	n/a
106.153	0.1195	212306	keystroke	p	n/a
106.4525	0.135	212905	keystroke	t	n/a
106.5575	0.2405	213115	keystroke	i	n/a
106.617	0.121	213234	keystroke	o	n/a
106.723	0.1645	213446	keystroke	n	n/a
106.8125	0.15	213625	keystroke	Key.space	n/a
107.0375	0.15	214075	keystroke	c	n/a
107.1125	0.12	214225	keystroke	l	n/a
107.263	0.1495	214526	keystroke	a	n/a
107.3675	0.165	214735	keystroke	i	n/a
107.5175	0.1945	215035	keystroke	r	n/a
107.6385	0.1935	215277	keystroke	e	n/a
107.8025	0.1645	215605	keystroke	Key.space	n/a
107.982	0.166	215964	keystroke	s	n/a
108.0725	0.1345	216145	keystroke	e	n/a
108.192	0.1205	216384	keystroke	l	n/a
108.2825	0.15	216565	keystroke	f	n/a
108.3875	0.12	216775	keystroke	Key.space	n/a
108.418	0.1495	216836	keystroke	s	n/a
108.5525	0.195	217105	keystroke	p	n/a
108.687	0.165	217374	keystroke	o	n/a
109.017	0.1355	218034	keystroke	u	n/a
109.137	0.15	218274	keystroke	s	n/a
109.227	0.135	218454	keystroke	e	n/a
109.5725	0.09	219145	keystroke	Key.enter	n/a
109.668	4.091	219336	prompt	n/a	ethernet spam configure reject\n
110.2925	0.12	220585	keystroke	e	n/a
110.518	0.1345	221036	keystroke	t	n/a
110.6225	0.12	221245	keystroke	h	n/a
110.728	0.1195	221456	keystroke	e	n/a
110.8025	0.12	221605	keystroke	r	n/a
110.9075	0.1055	221815	keystroke	n	n/a
110.9975	0.1645	221995	keystroke	e	n/a
111.088	0.18	222176	keystroke	t	n/a
111.177	0.165	222354	keystroke	Key.space	n/a
111.268	0.1195	222536	keystroke	s	n/a
111.357	0.09	222714	keystroke	p	n/a
111.493	0.119	222986	keystroke	a	n/a
111.5675	0.105	223135	keystroke	m	n/a
111.6275	0.105	223255	keystroke	Key.space	n/a
111.7175	0.165	223435	keystroke	c	n/a
111.8225	0.12	223645	keystroke	o	n/a
111.8825	0.135	223765	keystroke	n	n/a
112.0025	0.12	224005	keystroke	f	n/a
112.1525	0.09	224305	keystroke	i	n/a
112.2725	0.12	224545	keystroke	g	n/a
112.3625	0.1495	224725	keystroke	u	n/a
112.528	0.1345	225056	keystroke	r	n/a
112.5875	0.1655	225175	keystroke	e	n/a
112.7075	0.12	225415	keystroke	Key.space	n/a
112.813	0.1195	225626	keystroke	r	n/a
112.8875	0.105	225775	keystroke	e	n/a
112.9625	0.1505	225925	keystroke	j	n/a
113.1275	0.1205	226255	keystroke	e	n/a
113.1575	0.15	226315	keystroke	c	n/a
113.443	0.1045	226886	keystroke	t	n/a
113.6675	0.09	227335	keystroke	Key.enter	n/a
113.7645	5.365	227529	prompt	n/a	yarn convinced journalism fill\n
114.6425	0.075	229285	keystroke	y	n/a
114.7475	0.2105	229495	keystroke	a	n/a
114.987	0.196	229974	keystroke	r	n/a
115.138	0.1185	230276	keystroke	n	n/a
115.212	0.15	230424	keystroke	Key.space	n/a
115.363	0.135	230726	keystroke	c	n/a
115.4525	0.1195	230905	keystroke	o	n/a
115.5125	0.1195	231025	keystroke	n	n/a
115.618	0.1345	231236	keystroke	v	n/a
115.7375	0.12	231475	keystroke	i	n/a
115.7975	0.15	231595	keystroke	n	n/a
116.143	0.1345	232286	keystroke	c	n/a
116.3365	0.196	232673	keystroke	e	n/a
116.4425	0.1955	232885	keystroke	d	n/a
116.592	0.12	233184	keystroke	Key.space	n/a
116.908	0.195	233816	keystroke	j	n/a
117.0425	0.24	234085	keystroke	o	n/a
117.372	0.15	234744	keystroke	u	n/a
117.5375	0.1345	235075	keystroke	r	n/a
117.6575	0.1195	235315	keystroke	n	n/a
117.762	0.136	235524	keystroke	a	n/a
117.837	0.1055	235674	keystroke	l	n/a
117.988	0.1195	235976	keystroke	i	n/a
118.1225	0.12	236245	keystroke	s	n/a
118.2275	0.0895	236455	keystroke	m	n/a
118.287	0.105	236574	keystroke	Key.space	n/a
118.332	0.18	236664	keystroke	f	n/a
118.4075	0.1195	236815	keystroke	i	n/a
118.4975	0.0905	236995	keystroke	l	n/a
118.6175	0.1495	237235	keystroke	l	n/a
119.038	0.09	238076	keystroke	Key.enter	n/a
119.134	3.941	238268	prompt	n/a	risks creatures floor cover\n
119.682	0.1505	239364	keystroke	r	n/a
119.7725	0.0895	239545	keystroke	i	n/a
119.8775	0.1045	239755	keystroke	s	n/a
119.967	0.1205	239934	keystroke	k	n/a
120.072	0.1505	240144	keystroke	s	n/a
120.1775	0.1345	240355	keystroke	Key.space	n/a
120.658	0.09	241316	keystroke	c	n/a
120.8675	0.12	241735	keystroke	r	n/a
120.912	0.166	241824	keystroke	e	n/a
121.0025	0.18	242005	keystroke	a	n/a
121.107	0.1055	242214	keystroke	t	n/a
121.1975	0.136	242395	keystroke	u	n/a
121.3185	0.179	242637	keystroke	r	n/a
121.378	0.1795	242756	keystroke	e	n/a
121.4525	0.15	242905	keystroke	s	n/a
121.5275	0.15	243055	keystroke	Key.space	n/a
121.6325	0.1205	243265	keystroke	f	n/a
121.738	0.15	243476	keystroke	l	n/a
121.8575	0.0895	243715	keystroke	o	n/a
122.038	0.119	244076	keystroke	o	n/a
122.113	0.104	244226	keystroke	r	n/a
122.2025	0.1345	244405	keystroke	Key.space	n/a
122.367	0.0905	244734	keystroke	c	n/a
122.442	0.1205	244884	keystroke	o	n/a
122.5775	0.1505	245155	keystroke	v	n/a
122.652	0.196	245304	keystroke	e	n/a
122.788	0.12	245576	keystroke	r	n/a
122.9675	0.1055	245935	keystroke	Key.enter	n/a
123.0795	5.8905	246159	prompt	n/a	metabolism chapel czech explain\n
123.7625	0.15	247525	keystroke	m	n/a
123.8675	0.195	247735	keystroke	e	n/a
123.9725	0.12	247945	keystroke	t	n/a
124.0775	0.1045	248155	keystroke	a	n/a
124.213	0.1195	248426	keystroke	b	n/a
124.258	0.1045	248516	keystroke	o	n/a
124.3775	0.1495	248755	keystroke	l	n/a
124.647	0.09	249294	keystroke	i	n/a
124.767	0.15	249534	keystroke	s	n/a
124.8575	0.135	249715	keystroke	m	n/a
124.9325	0.1495	249865	keystroke	Key.space	n/a
125.067	0.181	250134	keystroke	c	n/a
125.1725	0.1195	250345	keystroke	h	n/a
125.307	0.121	250614	keystroke	a	n/a
125.4425	0.0895	250885	keystroke	p	n/a
125.592	0.1055	251184	keystroke	e	n/a
125.682	0.1205	251364	keystroke	l	n/a
125.7725	0.15	251545	keystroke	Key.space	n/a
125.8775	0.18	251755	keystroke	z	n/a
126.1925	0.105	252385	keystroke	Key.backspace	n/a
126.2825	0.165	252565	keystroke	c	n/a
126.3575	0.135	252715	keystroke	a	n/a
126.642	0.12	253284	keystroke	Key.backspace	n/a
126.882	0.045	253764	keystroke	z	n/a
127.107	0.1355	254214	keystroke	a	n/a
127.4525	0.1195	254905	keystroke	Key.backspace	n/a
127.558	0.1345	255116	keystroke	e	n/a
127.6475	0.1345	255295	keystroke	c	n/a
127.812	0.06	255624	keystroke	h	n/a
127.947	0.135	255894	keystroke	Key.space	n/a
128.0675	0.0905	256135	keystroke	e	n/a
128.172	0.15	256344	keystroke	x	n/a
128.2925	0.1495	256585	keystroke	p	n/a
128.353	0.135	256706	keystroke	l	n/a
128.457	0.1205	256914	keystroke	a	n/a
128.5785	0.1335	257157	keystroke	i	n/a
128.6525	0.105	257305	keystroke	n	n/a
128.8775	0.09	257755	keystroke	Key.enter	n/a
128.9735	4.181	257947	prompt	n/a	candidate theta tied thirty\n
129.5675	0.15	259135	keystroke	c	n/a
129.6425	0.12	259285	keystroke	a	n/a
129.7025	0.1055	259405	keystroke	n	n/a
129.8525	0.075	259705	keystroke	d	n/a
129.9125	0.12	259825	keystroke	i	n/a
130.0325	0.15	260065	keystroke	d	n/a
130.122	0.225	260244	keystroke	a	n/a
130.2575	0.1805	260515	keystroke	t	n/a
130.4075	0.1505	260815	keystroke	e	n/a
130.4675	0.18	260935	keystroke	Key.space	n/a
130.573	0.1495	261146	keystroke	t	n/a
130.662	0.135	261324	keystroke	h	n/a
130.768	0.1645	261536	keystroke	e	n/a
130.918	0.1945	261836	keystroke	t	n/a
131.0675	0.2695	262135	keystroke	a	n/a
131.3075	0.1345	262615	keystroke	Key.space	n/a
131.5025	0.12	263005	keystroke	t	n/a
131.6375	0.135	263275	keystroke	i	n/a
131.7575	0.2255	263515	keystroke	e	n/a
131.8925	0.135	263785	keystroke	d	n/a
131.9975	0.12	263995	keystroke	Key.space	n/a
132.1475	0.1355	264295	keystroke	t	n/a
132.2675	0.195	264535	keystroke	h	n/a
132.3725	0.135	264745	keystroke	i	n/a
132.4925	0.1645	264985	keystroke	r	n/a
132.627	0.15	265254	keystroke	t	n/a
132.8675	0.15	265735	keystroke	y	n/a
133.0625	0.09	266125	keystroke	Key.enter	n/a
133.1585	4.301	266317	prompt	n/a	simplified aruba propose estimate\n
133.6925	0.1205	267385	keystroke	s	n/a
133.752	0.15	267504	keystroke	i	n/a
133.843	0.134	267686	keystroke	m	n/a
133.963	0.1495	267926	keystroke	p	n/a
134.098	0.089	268196	keystroke	l	n/a
134.2625	0.1045	268525	keystroke	i	n/a
134.412	0.105	268824	keystroke	f	n/a
134.472	0.1205	268944	keystroke	i	n/a
134.6075	0.165	269215	keystroke	e	n/a
134.6825	0.18	269365	keystroke	d	n/a
134.8325	0.12	269665	keystroke	Key.space	n/a
134.9825	0.1505	269965	keystroke	a	n/a
135.0575	0.15	270115	keystroke	r	n/a
135.1475	0.165	270295	keystroke	u	n/a
135.2675	0.1505	270535	keystroke	b	n/a
135.4925	0.18	270985	keystroke	a	n/a
135.6575	0.105	271315	keystroke	Key.space	n/a
135.7475	0.105	271495	keystroke	p	n/a
135.8675	0.105	271735	keystroke	r	n/a
135.9125	0.1205	271825	keystroke	o	n/a
136.048	0.1795	272096	keystroke	p	n/a
136.153	0.135	272306	keystroke	o	n/a
136.303	0.12	272606	keystroke	s	n/a
136.363	0.104	272726	keystroke	e	n/a
136.452	0.121	272904	keystroke	Key.space	n/a
136.587	0.1955	273174	keystroke	e	n/a
136.6625	0.135	273325	keystroke	s	n/a
136.7675	0.15	273535	keystroke	t	n/a
136.8425	0.165	273685	keystroke	i	n/a
136.9325	0.165	273865	keystroke	m	n/a
137.0375	0.12	274075	keystroke	a	n/a
137.1125	0.165	274225	keystroke	t	n/a
137.2025	0.12	274405	keystroke	e	n/a
137.3675	0.09	274735	keystroke	Key.enter	n/a
137.464	3.985	274928	prompt	n/a	graphs frames amount review\n
137.9975	0.1505	275995	keystroke	g	n/a
138.0425	0.1805	276085	keystroke	r	n/a
138.1625	0.1355	276325	keystroke	a	n/a
138.192	0.1655	276384	keystroke	p	n/a
138.3275	0.15	276655	keystroke	h	n/a
138.5075	0.12	277015	keystroke	s	n/a
138.5825	0.12	277165	keystroke	Key.space	n/a
138.688	0.165	277376	keystroke	g	n/a
138.763	0.075	277526	keystroke	r	n/a
138.9275	0.075	277855	keystroke	Key.backspace	n/a
139.0775	0.09	278155	keystroke	Key.backspace	n/a
139.1525	0.1505	278305	keystroke	f	n/a
139.198	0.1495	278396	keystroke	r	n/a
139.3175	0.195	278635	keystroke	a	n/a
139.4825	0.1195	278965	keystroke	m	n/a
139.5875	0.195	279175	keystroke	e	n/a
139.6925	0.135	279385	keystroke	s	n/a
139.7975	0.12	279595	keystroke	Key.space	n/a
139.9625	0.12	279925	keystroke	a	n/a
140.0375	0.15	280075	keystroke	m	n/a
140.1425	0.225	280285	keystroke	o	n/a
140.278	0.1495	280556	keystroke	u	n/a
140.3525	0.165	280705	keystroke	n	n/a
140.458	0.1195	280916	keystroke	t	n/a
140.5325	0.18	281065	keystroke	Key.space	n/a
140.6975	0.075	281395	keystroke	r	n/a
140.7425	0.09	281485	keystroke	e	n/a
140.9225	0.105	281845	keystroke	v	n/a
141.0425	0.1055	282085	keystroke	i	n/a
141.118	0.1495	282236	keystroke	e	n/a
141.1925	0.12	282385	keystroke	w	n/a
141.3725	0.075	282745	keystroke	Key.enter	n/a
141.457	3.9565	282914	prompt	n/a	summary filling upper to've\n
141.958	0.1045	283916	keystroke	s	n/a
142.0025	0.09	284005	keystroke	u	n/a
142.1675	0.0755	284335	keystroke	m	n/a
142.318	0.075	284636	keystroke	m	n/a
142.4075	0.1655	284815	keystroke	a	n/a
142.4525	0.165	284905	keystroke	r	n/a
142.5575	0.0755	285115	keystroke	y	n/a
142.6625	0.165	285325	keystroke	Key.space	n/a
142.768	0.1195	285536	keystroke	f	n/a
142.813	0.1795	285626	keystroke	i	n/a
142.9175	0.12	285835	keystroke	l	n/a
143.1125	0.195	286225	keystroke	l	n/a
143.2025	0.135	286405	keystroke	i	n/a
143.2925	0.1655	286585	keystroke	n	n/a
143.413	0.1495	286826	keystroke	g	n/a
143.5025	0.1345	287005	keystroke	Key.space	n/a
143.712	0.1055	287424	keystroke	u	n/a
143.8925	0.09	287785	keystroke	p	n/a
144.0725	0.135	288145	keystroke	p	n/a
144.163	0.1495	288326	keystroke	e	n/a
144.2225	0.15	288445	keystroke	r	n/a
144.3275	0.12	288655	keystroke	Key.space	n/a
144.492	0.1205	288984	keystroke	t	n/a
144.537	0.1355	289074	keystroke	o	n/a
144.747	0.1655	289494	keystroke	'	n/a
145.048	0.1195	290096	keystroke	v	n/a
145.1225	0.1055	290245	keystroke	e	n/a
145.317	0.0905	290634	keystroke	Key.enter	n/a
145.4135	5.141	290827	prompt	n/a	mating patrick pirates shot\n
146.0825	0.1205	292165	keystroke	m	n/a
146.142	0.1505	292284	keystroke	a	n/a
146.2325	0.09	292465	keystroke	t	n/a
146.3075	0.135	292615	keystroke	i	n/a
146.3825	0.1355	292765	keystroke	n	n/a
146.487	0.1055	292974	keystroke	g	n/a
146.5475	0.15	293095	keystroke	Key.space	n/a
146.6225	0.12	293245	keystroke	p	n/a
146.7425	0.1505	293485	keystroke	a	n/a
146.848	0.1645	293696	keystroke	t	n/a
146.9525	0.135	293905	keystroke	r	n/a
147.0575	0.1055	294115	keystroke	i	n/a
147.2225	0.1505	294445	keystroke	c	n/a
147.3425	0.105	294685	keystroke	k	n/a
147.4625	0.075	294925	keystroke	Key.space	n/a
147.5525	0.1505	295105	keystroke	p	n/a
147.6425	0.135	295285	keystroke	i	n/a
147.7175	0.105	295435	keystroke	r	n/a
147.823	0.165	295646	keystroke	a	n/a
147.9425	0.195	295885	keystroke	t	n/a
148.0175	0.195	296035	keystroke	e	n/a
148.1815	0.1365	296363	keystroke	Key.space	n/a
148.1965	0.046	296393	keystroke	s	n/a
148.3325	0.12	296665	keystroke	s	n/a
148.438	0.179	296876	keystroke	h	n/a
148.5425	0.12	297085	keystroke	o	n/a
148.827	0.075	297654	keystroke	Key.backspace	n/a
148.9775	0.075	297955	keystroke	Key.backspace	n/a
149.112	0.0755	298224	keystroke	Key.backspace	n/a
149.2475	0.06	298495	keystroke	Key.backspace	n/a
149.412	0.0755	298824	keystroke	Key.backspace	n/a
149.623	0.1195	299246	keystroke	s	n/a
149.7425	0.135	299485	keystroke	Key.space	n/a
149.8325	0.12	299665	keystroke	s	n/a
149.9225	0.1505	299845	keystroke	h	n/a
149.998	0.1045	299996	keystroke	o	n/a
150.1175	0.09	300235	keystroke	t	n/a
150.4475	0.1055	300895	keystroke	Key.enter	n/a
150.559	4.364	301118	prompt	n/a	finals share height subsequently\n
151.137	0.136	302274	keystroke	f	n/a
151.197	0.18	302394	keystroke	i	n/a
151.303	0.165	302606	keystroke	n	n/a
151.453	0.165	302906	keystroke	a	n/a
151.528	0.105	303056	keystroke	l	n/a
151.648	0.135	303296	keystroke	s	n/a
151.768	0.15	303536	keystroke	Key.space	n/a
151.872	0.106	303744	keystroke	s	n/a
151.948	0.12	303896	keystroke	h	n/a
152.068	0.179	304136	keystroke	a	n/a
152.1875	0.1495	304375	keystroke	r	n/a
152.277	0.135	304554	keystroke	e	n/a
152.353	0.119	304706	keystroke	Key.space	n/a
152.458	0.1195	304916	keystroke	h	n/a
152.5625	0.1055	305125	keystroke	e	n/a
152.668	0.105	305336	keystroke	i	n/a
152.758	0.105	305516	keystroke	g	n/a
152.892	0.121	305784	keystroke	h	n/a
152.968	0.135	305936	keystroke	t	n/a
153.0575	0.1195	306115	keystroke	Key.space	n/a
153.118	0.135	306236	keystroke	s	n/a
153.207	0.1655	306414	keystroke	u	n/a
153.312	0.12	306624	keystroke	b	n/a
153.6425	0.1795	307285	keystroke	s	n/a
153.822	0.12	307644	keystroke	e	n/a
154.0025	0.0755	308005	keystroke	q	n/a
154.092	0.105	308184	keystroke	u	n/a
154.1825	0.121	308365	keystroke	e	n/a
154.3185	0.1035	308637	keystroke	n	n/a
154.423	0.104	308846	keystroke	t	n/a
154.542	0.1055	309084	keystroke	l	n/a
154.648	0.12	309296	keystroke	y	n/a
154.8125	0.105	309625	keystroke	Key.enter	n/a
154.9265	5.7975	309853	prompt	n/a	internal adjustments bank who'd\n
155.608	0.1345	311216	keystroke	i	n/a
155.6825	0.1355	311365	keystroke	n	n/a
155.7725	0.1355	311545	keystroke	t	n/a
155.8925	0.165	311785	keystroke	e	n/a
155.998	0.134	311996	keystroke	r	n/a
156.0875	0.12	312175	keystroke	n	n/a
156.238	0.135	312476	keystroke	a	n/a
156.342	0.106	312684	keystroke	l	n/a
156.418	0.15	312836	keystroke	Key.space	n/a
156.612	0.1805	313224	keystroke	a	n/a
156.717	0.151	313434	keystroke	d	n/a
156.807	0.1505	313614	keystroke	j	n/a
156.912	0.12	313824	keystroke	u	n/a
157.0025	0.135	314005	keystroke	s	n/a
157.092	0.106	314184	keystroke	t	n/a
157.1825	0.0895	314365	keystroke	m	n/a
157.288	0.1195	314576	keystroke	e	n/a
157.3925	0.1055	314785	keystroke	n	n/a
157.4525	0.1655	314905	keystroke	t	n/a
157.573	0.1045	315146	keystroke	s	n/a
157.618	0.1195	315236	keystroke	Key.space	n/a
157.6935	0.074	315387	keystroke	b	n/a
157.8125	0.12	315625	keystroke	a	n/a
157.9025	0.1655	315805	keystroke	n	n/a
157.9775	0.135	315955	keystroke	k	n/a
158.0375	0.135	316075	keystroke	Key.space	n/a
158.0975	0.12	316195	keystroke	w	n/a
158.2325	0.105	316465	keystroke	o	n/a
158.592	0.06	317184	keystroke	d	n/a
158.9225	0.03	317845	keystroke	=	n/a
159.237	0.045	318474	keystroke	Key.backspace	n/a
159.372	0.0605	318744	keystroke	Key.backspace	n/a
159.507	0.0755	319014	keystroke	Key.backspace	n/a
159.762	0.1805	319524	keystroke	h	n/a
159.8675	0.1195	319735	keystroke	o	n/a
160.2425	0.105	320485	keystroke	'	n/a
160.422	0.105	320844	keystroke	d	n/a
160.6475	0.075	321295	keystroke	Key.enter	n/a
160.7275	5.517	321455	prompt	n/a	emergency gmbh eden devices\n
161.5185	0.089	323037	keystroke	e	n/a
161.6225	0.12	323245	keystroke	m	n/a
161.848	0.1495	323696	keystroke	e	n/a
161.9075	0.105	323815	keystroke	r	n/a
162.1475	0.18	324295	keystroke	g	n/a
162.2525	0.165	324505	keystroke	e	n/a
162.403	0.1345	324806	keystroke	n	n/a
162.5525	0.1655	325105	keystroke	c	n/a
162.703	0.1345	325406	keystroke	y	n/a
162.8225	0.135	325645	keystroke	Key.space	n/a
163.3475	0.12	326695	keystroke	g	n/a
163.4825	0.12	326965	keystroke	m	n/a
163.6775	0.105	327355	keystroke	b	n/a
163.9325	0.091	327865	keystroke	h	n/a
164.142	0.135	328284	keystroke	Key.space	n/a
164.6225	0.1045	329245	keystroke	e	n/a
164.863	0.165	329726	keystroke	d	n/a
164.9525	0.15	329905	keystroke	e	n/a
165.117	0.135	330234	keystroke	n	n/a
165.2225	0.1495	330445	keystroke	Key.space	n/a
165.357	0.1505	330714	keystroke	d	n/a
165.4475	0.1205	330895	keystroke	e	n/a
165.6275	0.106	331255	keystroke	v	n/a
165.7475	0.1055	331495	keystroke	i	n/a
165.8225	0.165	331645	keystroke	c	n/a
165.8975	0.165	331795	keystroke	e	n/a
166.003	0.1045	332006	keystroke	s	n/a
166.1675	0.0755	332335	keystroke	Key.enter	n/a
166.2495	3.115	332499	prompt	n/a	axis medical flash berry\n
166.797	0.1655	333594	keystroke	a	n/a
166.9475	0.18	333895	keystroke	x	n/a
167.1125	0.1195	334225	keystroke	i	n/a
167.1875	0.1195	334375	keystroke	s	n/a
167.2625	0.1645	334525	keystroke	Key.space	n/a
167.382	0.1055	334764	keystroke	m	n/a
167.442	0.151	334884	keystroke	e	n/a
167.518	0.135	335036	keystroke	d	n/a
167.638	0.12	335276	keystroke	i	n/a
167.758	0.15	335516	keystroke	c	n/a
167.863	0.179	335726	keystroke	a	n/a
167.923	0.12	335846	keystroke	l	n/a
168.027	0.12	336054	keystroke	Key.space	n/a
168.087	0.1505	336174	keystroke	f	n/a
168.192	0.09	336384	keystroke	l	n/a
168.253	0.1495	336506	keystroke	a	n/a
168.328	0.134	336656	keystroke	s	n/a
168.418	0.089	336836	keystroke	h	n/a
168.522	0.1055	337044	keystroke	Key.space	n/a
168.6125	0.1355	337225	keystroke	b	n/a
168.7175	0.105	337435	keystroke	e	n/a
168.7925	0.06	337585	keystroke	r	n/a
168.9125	0.135	337825	keystroke	r	n/a
168.9875	0.105	337975	keystroke	y	n/a
169.2575	0.105	338515	keystroke	Key.enter	n/a
169.3675	4.2415	338735	prompt	n/a	odds substances starring task\n
169.9175	0.135	339835	keystroke	o	n/a
170.1125	0.12	340225	keystroke	d	n/a
170.338	0.2245	340676	keystroke	d	n/a
170.4725	0.1505	340945	keystroke	s	n/a
170.7275	0.15	341455	keystroke	Key.space	n/a
170.848	0.134	341696	keystroke	s	n/a
170.938	0.15	341876	keystroke	u	n/a
171.028	0.134	342056	keystroke	b	n/a
171.133	0.105	342266	keystroke	s	n/a
171.223	0.134	342446	keystroke	t	n/a
171.327	0.1805	342654	keystroke	a	n/a
171.4625	0.09	342925	keystroke	n	n/a
171.523	0.2395	343046	keystroke	c	n/a
171.6875	0.195	343375	keystroke	e	n/a
171.7775	0.15	343555	keystroke	s	n/a
171.9125	0.12	343825	keystroke	Key.space	n/a
172.0325	0.105	344065	keystroke	s	n/a
172.1225	0.12	344245	keystroke	t	n/a
172.2275	0.1655	344455	keystroke	a	n/a
172.348	0.0895	344696	keystroke	r	n/a
172.4975	0.105	344995	keystroke	r	n/a
172.617	0.12	345234	keystroke	i	n/a
172.6775	0.135	345355	keystroke	n	n/a
172.7385	0.134	345477	keystroke	g	n/a
172.842	0.1805	345684	keystroke	Key.space	n/a
172.978	0.149	345956	keystroke	t	n/a
173.0825	0.2405	346165	keystroke	a	n/a
173.188	0.165	346376	keystroke	s	n/a
173.337	0.09	346674	keystroke	k	n/a
173.502	0.1055	347004	keystroke	Key.enter	n/a
173.613	6.4765	347226	prompt	n/a	film geographic consist attempting\n
174.1625	0.135	348325	keystroke	f	n/a
174.2675	0.225	348535	keystroke	i	n/a
174.4475	0.195	348895	keystroke	l	n/a
174.6275	0.15	349255	keystroke	m	n/a
174.7325	0.1495	349465	keystroke	Key.space	n/a
174.8225	0.15	349645	keystroke	g	n/a
174.912	0.165	349824	keystroke	e	n/a
175.0475	0.045	350095	keystroke	p	n/a
175.377	0.0905	350754	keystroke	Key.backspace	n/a
176.0825	0.135	352165	keystroke	i	n/a
176.502	0.06	353004	keystroke	Key.backspace	n/a
176.683	0.105	353366	keystroke	o	n/a
176.908	0.165	353816	keystroke	g	n/a
176.968	0.194	353936	keystroke	r	n/a
177.118	0.15	354236	keystroke	a	n/a
177.208	0.195	354416	keystroke	p	n/a
177.388	0.195	354776	keystroke	h	n/a
177.508	0.135	355016	keystroke	i	n/a
177.688	0.1345	355376	keystroke	c	n/a
177.778	0.1045	355556	keystroke	Key.space	n/a
177.9425	0.12	355885	keystroke	c	n/a
177.9875	0.1355	355975	keystroke	o	n/a
178.048	0.135	356096	keystroke	n	n/a
178.1675	0.105	356335	keystroke	s	n/a
178.2875	0.12	356575	keystroke	i	n/a
178.3925	0.196	356785	keystroke	s	n/a
178.5275	0.1495	357055	keystroke	t	n/a
178.6475	0.1045	357295	keystroke	Key.space	n/a
178.813	0.18	357626	keystroke	a	n/a
178.9475	0.0905	357895	keystroke	t	n/a
179.1125	0.135	358225	keystroke	t	n/a
179.1875	0.12	358375	keystroke	e	n/a
179.2925	0.12	358585	keystroke	m	n/a
179.3525	0.0905	358705	keystroke	p	n/a
179.4275	0.105	358855	keystroke	t	n/a
179.533	0.1345	359066	keystroke	i	n/a
179.6075	0.1205	359215	keystroke	n	n/a
179.7125	0.105	359425	keystroke	g	n/a
179.9975	0.09	359995	keystroke	Key.enter	n/a
180.0925	5.3375	360185	prompt	n/a	leone physics kate correspondence\n
180.853	0.105	361706	keystroke	l	n/a
180.942	0.121	361884	keystroke	e	n/a
181.0775	0.105	362155	keystroke	o	n/a
181.1375	0.1655	362275	keystroke	n	n/a
181.2875	0.165	362575	keystroke	e	n/a
181.3775	0.165	362755	keystroke	Key.space	n/a
181.6325	0.045	363265	keystroke	t	n/a
181.8725	0.045	363745	keystroke	Key.backspace	n/a
182.0975	0.105	364195	keystroke	p	n/a
182.1875	0.06	364375	keystroke	h	n/a
182.398	0.0745	364796	keystroke	y	n/a
182.5625	0.12	365125	keystroke	s	n/a
182.6375	0.105	365275	keystroke	i	n/a
182.7575	0.195	365515	keystroke	c	n/a
182.8775	0.15	365755	keystroke	s	n/a
183.0125	0.15	366025	keystroke	Key.space	n/a
183.1325	0.1205	366265	keystroke	k	n/a
183.2225	0.165	366445	keystroke	a	n/a
183.2975	0.18	366595	keystroke	t	n/a
183.433	0.15	366866	keystroke	e	n/a
183.4935	0.149	366987	keystroke	Key.space	n/a
183.7025	0.0905	367405	keystroke	c	n/a
183.748	0.1345	367496	keystroke	o	n/a
183.9725	0.0755	367945	keystroke	r	n/a
184.1375	0.15	368275	keystroke	r	n/a
184.1825	0.21	368365	keystroke	e	n/a
184.288	0.1655	368576	keystroke	s	n/a
184.3775	0.18	368755	keystroke	p	n/a
184.4825	0.165	368965	keystroke	o	n/a
184.588	0.1495	369176	keystroke	n	n/a
184.7825	0.12	369565	keystroke	d	n/a
184.8575	0.136	369715	keystroke	e	n/a
184.9775	0.09	369955	keystroke	n	n/a
185.038	0.165	370076	keystroke	c	n/a
185.1575	0.105	370315	keystroke	e	n/a
185.338	0.0895	370676	keystroke	Key.enter	n/a
185.4335	5.4105	370867	prompt	n/a	kept half arbitration refused\n
186.4925	0.136	372985	keystroke	k	n/a
186.5985	0.1035	373197	keystroke	e	n/a
186.717	0.105	373434	keystroke	p	n/a
186.7775	0.135	373555	keystroke	t	n/a
186.853	0.149	373706	keystroke	Key.space	n/a
187.108	0.134	374216	keystroke	h	n/a
187.228	0.1345	374456	keystroke	a	n/a
187.3175	0.1355	374635	keystroke	l	n/a
187.4075	0.135	374815	keystroke	f	n/a
187.4975	0.12	374995	keystroke	Key.space	n/a
187.5875	0.195	375175	keystroke	a	n/a
188.1725	0.15	376345	keystroke	r	n/a
188.3375	0.195	376675	keystroke	b	n/a
188.4575	0.12	376915	keystroke	i	n/a
188.5625	0.12	377125	keystroke	t	n/a
188.8925	0.2555	377785	keystroke	r	n/a
189.028	0.1645	378056	keystroke	a	n/a
189.1315	0.166	378263	keystroke	t	n/a
189.3125	0.2545	378625	keystroke	i	n/a
189.3725	0.15	378745	keystroke	o	n/a
189.4925	0.1645	378985	keystroke	n	n/a
189.717	0.135	379434	keystroke	Key.space	n/a
189.8975	0.0895	379795	keystroke	r	n/a
189.972	0.136	379944	keystroke	e	n/a
190.123	0.135	380246	keystroke	f	n/a
190.168	0.119	380336	keystroke	u	n/a
190.302	0.18	380604	keystroke	s	n/a
190.408	0.165	380816	keystroke	e	n/a
190.498	0.1645	380996	keystroke	d	n/a
190.752	0.09	381504	keystroke	Key.enter	n/a
190.8485	3.7755	381697	prompt	n/a	surge lender partners fruits\n
191.3675	0.12	382735	keystroke	s	n/a
191.4575	0.12	382915	keystroke	u	n/a
191.5625	0.045	383125	keystroke	r	n/a
191.7575	0.135	383515	keystroke	g	n/a
191.788	0.15	383576	keystroke	e	n/a
191.9075	0.12	383815	keystroke	Key.space	n/a
191.968	0.1195	383936	keystroke	l	n/a
192.0875	0.12	384175	keystroke	e	n/a
192.2525	0.12	384505	keystroke	n	n/a
192.328	0.1345	384656	keystroke	d	n/a
192.4475	0.18	384895	keystroke	e	n/a
192.5675	0.15	385135	keystroke	r	n/a
192.7025	0.1345	385405	keystroke	Key.space	n/a
192.7625	0.1195	385525	keystroke	p	n/a
192.897	0.135	385794	keystroke	a	n/a
192.942	0.105	385884	keystroke	r	n/a
193.167	0.1205	386334	keystroke	t	n/a
193.3325	0.1355	386665	keystroke	n	n/a
193.4375	0.135	386875	keystroke	e	n/a
193.4975	0.195	386995	keystroke	r	n/a
193.6325	0.165	387265	keystroke	s	n/a
193.7675	0.15	387535	keystroke	Key.space	n/a
193.903	0.1495	387806	keystroke	f	n/a
194.0075	0.1205	388015	keystroke	r	n/a
194.0535	0.2095	388107	keystroke	u	n/a
194.143	0.135	388286	keystroke	i	n/a
194.248	0.12	388496	keystroke	t	n/a
194.338	0.104	388676	keystroke	s	n/a
194.518	0.104	389036	keystroke	Key.enter	n/a
194.6305	5.409	389261	prompt	n/a	survivors depth deficit talk\n
195.132	0.106	390264	keystroke	s	n/a
195.223	0.089	390446	keystroke	u	n/a
195.3275	0.0605	390655	keystroke	r	n/a
195.508	0.0745	391016	keystroke	v	n/a
195.8525	0.12	391705	keystroke	i	n/a
195.9575	0.12	391915	keystroke	v	n/a
196.078	0.134	392156	keystroke	o	n/a
196.227	0.1805	392454	keystroke	r	n/a
196.3175	0.15	392635	keystroke	s	n/a
196.4525	0.135	392905	keystroke	Key.space	n/a
196.6025	0.135	393205	keystroke	d	n/a
196.6775	0.12	393355	keystroke	e	n/a
196.7225	0.105	393445	keystroke	p	n/a
196.8875	0.1345	393775	keystroke	t	n/a
197.008	0.135	394016	keystroke	h	n/a
197.113	0.149	394226	keystroke	Key.space	n/a
197.248	0.12	394496	keystroke	d	n/a
197.308	0.135	394616	keystroke	e	n/a
197.803	0.12	395606	keystroke	f	n/a
197.923	0.12	395846	keystroke	i	n/a
198.0575	0.1505	396115	keystroke	c	n/a
198.193	0.1195	396386	keystroke	i	n/a
198.4625	0.09	396925	keystroke	t	n/a
199.048	0.1195	398096	keystroke	Key.space	n/a
199.1375	0.15	398275	keystroke	t	n/a
199.258	0.15	398516	keystroke	a	n/a
199.363	0.1495	398726	keystroke	l	n/a
199.4525	0.135	398905	keystroke	k	n/a
199.9625	0.075	399925	keystroke	Key.enter	n/a
200.043	6.237	400086	prompt	n/a	readily transcription ministers born\n
200.578	0.1345	401156	keystroke	r	n/a
200.668	0.2845	401336	keystroke	e	n/a
200.9375	0.2245	401875	keystroke	a	n/a
201.058	0.1645	402116	keystroke	d	n/a
201.2375	0.1955	402475	keystroke	i	n/a
201.343	0.135	402686	keystroke	l	n/a
201.507	0.15	403014	keystroke	y	n/a
201.642	0.1805	403284	keystroke	Key.space	n/a
202.0175	0.1655	404035	keystroke	t	n/a
202.0775	0.2245	404155	keystroke	r	n/a
202.197	0.2105	404394	keystroke	a	n/a
202.332	0.166	404664	keystroke	s	n/a
202.4675	0.135	404935	keystroke	n	n/a
202.8125	0.075	405625	keystroke	Key.backspace	n/a
202.9475	0.075	405895	keystroke	Key.backspace	n/a
203.1275	0.135	406255	keystroke	n	n/a
203.1875	0.135	406375	keystroke	s	n/a
203.3375	0.165	406675	keystroke	c	n/a
203.4425	0.1505	406885	keystroke	r	n/a
203.5175	0.1805	407035	keystroke	i	n/a
203.6075	0.105	407215	keystroke	p	n/a
203.727	0.12	407454	keystroke	t	n/a
203.848	0.27	407696	keystroke	i	n/a
203.922	0.136	407844	keystroke	o	n/a
204.0425	0.1805	408085	keystroke	n	n/a
204.207	0.135	408414	keystroke	Key.space	n/a
204.4025	0.1205	408805	keystroke	m	n/a
204.4925	0.1355	408985	keystroke	i	n/a
204.6285	0.209	409257	keystroke	n	n/a
204.733	0.1345	409466	keystroke	i	n/a
204.8825	0.135	409765	keystroke	s	n/a
204.987	0.135	409974	keystroke	t	n/a
205.107	0.181	410214	keystroke	e	n/a
205.213	0.18	410426	keystroke	r	n/a
205.318	0.135	410636	keystroke	s	n/a
205.378	0.134	410756	keystroke	Key.space	n/a
205.467	0.151	410934	keystroke	b	n/a
205.648	0.15	411296	keystroke	o	n/a
205.842	0.1505	411684	keystroke	r	n/a
205.947	0.1205	411894	keystroke	n	n/a
206.1425	0.1355	412285	keystroke	Key.enter	n/a
206.284	3.9405	412568	prompt	n/a	fitted walls nato agent\n
206.8325	0.1345	413665	keystroke	f	n/a
206.9225	0.1195	413845	keystroke	i	n/a
207.102	0.105	414204	keystroke	t	n/a
207.372	0.151	414744	keystroke	t	n/a
207.5675	0.1805	415135	keystroke	e	n/a
207.657	0.1655	415314	keystroke	d	n/a
207.762	0.1805	415524	keystroke	Key.space	n/a
207.8825	0.165	415765	keystroke	w	n/a
207.9725	0.18	415945	keystroke	a	n/a
208.0625	0.0755	416125	keystroke	l	n/a
208.2125	0.135	416425	keystroke	l	n/a
208.3325	0.165	416665	keystroke	s	n/a
208.4525	0.12	416905	keystroke	Key.space	n/a
208.692	0.135	417384	keystroke	n	n/a
208.842	0.166	417684	keystroke	a	n/a
208.918	0.1505	417836	keystroke	t	n/a
209.022	0.1065	418044	keystroke	o	n/a
209.082	0.18	418164	keystroke	Key.space	n/a
209.217	0.15	418434	keystroke	a	n/a
209.3975	0.2405	418795	keystroke	g	n/a
209.682	0.1055	419364	keystroke	e	n/a
209.817	0.105	419634	keystroke	n	n/a
209.907	0.12	419814	keystroke	t	n/a
210.118	0.104	420236	keystroke	Key.enter	n/a
210.228	7.0765	420456	prompt	n/a	scientist myrtle century minneapolis\n
210.9125	0.164	421825	keystroke	s	n/a
211.0475	0.135	422095	keystroke	c	n/a
211.1675	0.09	422335	keystroke	i	n/a
211.3325	0.1505	422665	keystroke	e	n/a
211.5875	0.135	423175	keystroke	n	n/a
211.7375	0.1205	423475	keystroke	t	n/a
211.858	0.1045	423716	keystroke	i	n/a
211.9775	0.165	423955	keystroke	s	n/a
212.0975	0.15	424195	keystroke	t	n/a
212.2025	0.12	424405	keystroke	Key.space	n/a
212.3075	0.135	424615	keystroke	m	n/a
212.4875	0.12	424975	keystroke	y	n/a
212.7425	0.09	425485	keystroke	t	n/a
213.492	0.105	426984	keystroke	Key.backspace	n/a
213.688	0.1045	427376	keystroke	r	n/a
213.8975	0.1195	427795	keystroke	t	n/a
214.003	0.1345	428006	keystroke	l	n/a
214.197	0.136	428394	keystroke	e	n/a
214.257	0.15	428514	keystroke	Key.space	n/a
214.4525	0.18	428905	keystroke	c	n/a
214.6175	0.18	429235	keystroke	e	n/a
214.783	0.135	429566	keystroke	n	n/a
214.9775	0.15	429955	keystroke	t	n/a
215.113	0.1195	430226	keystroke	u	n/a
215.2175	0.2255	430435	keystroke	r	n/a
215.323	0.18	430646	keystroke	y	n/a
215.4575	0.12	430915	keystroke	Key.space	n/a
215.608	0.1195	431216	keystroke	m	n/a
215.7125	0.1505	431425	keystroke	i	n/a
215.848	0.0895	431696	keystroke	n	n/a
216.013	0.1795	432026	keystroke	n	n/a
216.132	0.1955	432264	keystroke	e	n/a
216.2525	0.1655	432505	keystroke	a	n/a
216.418	0.12	432836	keystroke	p	n/a
216.5525	0.1205	433105	keystroke	o	n/a
216.6425	0.1205	433285	keystroke	l	n/a
216.8675	0.1355	433735	keystroke	i	n/a
217.003	0.089	434006	keystroke	s	n/a
217.1975	0.105	434395	keystroke	Key.enter	n/a
217.3085	5.546	434617	prompt	n/a	animation screenshots reduced several\n
217.858	0.12	435716	keystroke	a	n/a
218.113	0.135	436226	keystroke	n	n/a
218.232	0.135	436464	keystroke	i	n/a
218.353	0.1345	436706	keystroke	m	n/a
218.458	0.15	436916	keystroke	a	n/a
218.5175	0.165	437035	keystroke	t	n/a
218.638	0.24	437276	keystroke	i	n/a
218.697	0.15	437394	keystroke	o	n/a
218.803	0.149	437606	keystroke	n	n/a
218.862	0.15	437724	keystroke	Key.space	n/a
218.967	0.135	437934	keystroke	s	n/a
219.072	0.15	438144	keystroke	c	n/a
219.3425	0.12	438685	keystroke	r	n/a
219.417	0.09	438834	keystroke	e	n/a
219.582	0.1205	439164	keystroke	e	n/a
219.672	0.105	439344	keystroke	n	n/a
219.7925	0.1355	439585	keystroke	s	n/a
219.913	0.1645	439826	keystroke	h	n/a
220.002	0.1505	440004	keystroke	o	n/a
220.3175	0.165	440635	keystroke	t	n/a
220.468	0.135	440936	keystroke	s	n/a
220.5875	0.1495	441175	keystroke	Key.space	n/a
220.7225	0.12	441445	keystroke	r	n/a
220.797	0.1355	441594	keystroke	e	n/a
220.9475	0.105	441895	keystroke	d	n/a
221.0535	0.1185	442107	keystroke	u	n/a
221.157	0.1205	442314	keystroke	c	n/a
221.293	0.165	442586	keystroke	e	n/a
221.3975	0.1355	442795	keystroke	d	n/a
221.487	0.12	442974	keystroke	Key.space	n/a
221.593	0.2095	443186	keystroke	s	n/a
221.6825	0.15	443365	keystroke	e	n/a
222.0125	0.18	444025	keystroke	v	n/a
222.1475	0.18	444295	keystroke	e	n/a
222.2675	0.195	444535	keystroke	r	n/a
222.4325	0.15	444865	keystroke	a	n/a
222.5375	0.105	445075	keystroke	l	n/a
222.762	0.0905	445524	keystroke	Key.enter	n/a
222.8585	3.4315	445717	prompt	n/a	sodium utah feat huge\n
223.452	0.12	446904	keystroke	s	n/a
223.542	0.076	447084	keystroke	o	n/a
223.632	0.165	447264	keystroke	d	n/a
223.738	0.074	447476	keystroke	i	n/a
223.9175	0.075	447835	keystroke	u	n/a
224.0675	0.12	448135	keystroke	m	n/a
224.1425	0.12	448285	keystroke	Key.space	n/a
224.278	0.1045	448556	keystroke	u	n/a
224.3985	0.164	448797	keystroke	t	n/a
224.5175	0.165	449035	keystroke	a	n/a
224.6675	0.105	449335	keystroke	h	n/a
224.7575	0.135	449515	keystroke	Key.space	n/a
224.8175	0.18	449635	keystroke	f	n/a
224.9225	0.285	449845	keystroke	e	n/a
225.0725	0.18	450145	keystroke	a	n/a
225.1925	0.15	450385	keystroke	t	n/a
225.2975	0.1495	450595	keystroke	Key.space	n/a
225.6875	0.165	451375	keystroke	h	n/a
225.778	0.1045	451556	keystroke	u	n/a
225.8375	0.15	451675	keystroke	g	n/a
225.9275	0.12	451855	keystroke	e	n/a
226.1825	0.105	452365	keystroke	Key.enter	n/a
226.2935	4.481	452587	prompt	n/a	null wesley measures suggest\n
227.082	0.1505	454164	keystroke	n	n/a
227.142	0.1805	454284	keystroke	u	n/a
227.2775	0.105	454555	keystroke	l	n/a
227.4425	0.1505	454885	keystroke	l	n/a
227.5775	0.15	455155	keystroke	Key.space	n/a
227.6825	0.135	455365	keystroke	w	n/a
227.8025	0.195	455605	keystroke	e	n/a
227.938	0.1495	455876	keystroke	s	n/a
228.0425	0.105	456085	keystroke	l	n/a
228.1625	0.18	456325	keystroke	e	n/a
228.3585	0.149	456717	keystroke	y	n/a
228.5375	0.165	457075	keystroke	Key.space	n/a
229.018	0.1345	458036	keystroke	m	n/a
229.078	0.12	458156	keystroke	e	n/a
229.167	0.136	458334	keystroke	a	n/a
229.227	0.15	458454	keystroke	s	n/a
229.333	0.119	458666	keystroke	u	n/a
229.437	0.2255	458874	keystroke	r	n/a
229.542	0.1955	459084	keystroke	e	n/a
229.6175	0.15	459235	keystroke	s	n/a
229.7525	0.135	459505	keystroke	Key.space	n/a
229.8425	0.12	459685	keystroke	s	n/a
229.9025	0.15	459805	keystroke	u	n/a
230.0075	0.105	460015	keystroke	g	n/a
230.1725	0.15	460345	keystroke	g	n/a
230.2625	0.2695	460525	keystroke	e	n/a
230.3975	0.1645	460795	keystroke	s	n/a
230.502	0.135	461004	keystroke	t	n/a
230.697	0.0745	461394	keystroke	Key.enter	n/a
230.779	4.615	461558	prompt	n/a	doom hacker assignment technology\n
231.3865	0.121	462773	keystroke	d	n/a
231.448	0.0895	462896	keystroke	o	n/a
231.597	0.1195	463194	keystroke	o	n/a
231.6725	0.12	463345	keystroke	m	n/a
231.7765	0.151	463553	keystroke	Key.space	n/a
231.912	0.1055	463824	keystroke	h	n/a
232.033	0.1045	464066	keystroke	a	n/a
232.0625	0.149	464125	keystroke	c	n/a
232.1825	0.12	464365	keystroke	k	n/a
232.3465	0.1815	464693	keystroke	e	n/a
232.4225	0.1795	464845	keystroke	r	n/a
232.542	0.1805	465084	keystroke	Key.space	n/a
232.692	0.12	465384	keystroke	a	n/a
232.7375	0.1195	465475	keystroke	s	n/a
232.947	0.1055	465894	keystroke	s	n/a
233.007	0.09	466014	keystroke	i	n/a
233.158	0.119	466316	keystroke	g	n/a
233.217	0.076	466434	keystroke	n	n/a
233.397	0.0905	466794	keystroke	m	n/a
233.458	0.1045	466916	keystroke	e	n/a
233.577	0.135	467154	keystroke	n	n/a
233.667	0.135	467334	keystroke	t	n/a
233.772	0.1195	467544	keystroke	Key.space	n/a
233.9375	0.0895	467875	keystroke	t	n/a
233.9965	0.151	467993	keystroke	e	n/a
234.1625	0.12	468325	keystroke	c	n/a
234.2525	0.104	468505	keystroke	h	n/a
234.4615	0.1065	468923	keystroke	n	n/a
234.5225	0.105	469045	keystroke	o	n/a
234.7175	0.075	469435	keystroke	l	n/a
234.8815	0.121	469763	keystroke	o	n/a
234.9575	0.0755	469915	keystroke	g	n/a
235.137	0.105	470274	keystroke	y	n/a
235.302	0.09	470604	keystroke	Key.enter	n/a
235.399	5.245	470798	prompt	n/a	chevrolet controlled chicks yarn\n
236.218	0.134	472436	keystroke	c	n/a
236.308	0.1345	472616	keystroke	h	n/a
236.9375	0.1505	473875	keystroke	e	n/a
237.027	0.225	474054	keystroke	v	n/a
237.238	0.134	474476	keystroke	r	n/a
237.327	0.046	474654	keystroke	o	n/a
237.492	0.121	474984	keystroke	l	n/a
237.598	0.2095	475196	keystroke	e	n/a
237.703	0.1345	475406	keystroke	t	n/a
237.792	0.1205	475584	keystroke	Key.space	n/a
237.9725	0.135	475945	keystroke	c	n/a
238.0925	0.12	476185	keystroke	o	n/a
238.1375	0.135	476275	keystroke	n	n/a
238.2725	0.15	476545	keystroke	t	n/a
238.3625	0.12	476725	keystroke	r	n/a
238.438	0.0895	476876	keystroke	o	n/a
238.632	0.06	477264	keystroke	l	n/a
238.7525	0.1205	477505	keystroke	l	n/a
238.827	0.24	477654	keystroke	e	n/a
238.917	0.1655	477834	keystroke	d	n/a
239.083	0.1335	478166	keystroke	Key.space	n/a
239.2315	0.1355	478463	keystroke	c	n/a
239.307	0.1205	478614	keystroke	h	n/a
239.3825	0.0895	478765	keystroke	i	n/a
239.4875	0.09	478975	keystroke	c	n/a
239.5465	0.105	479093	keystroke	k	n/a
239.622	0.1355	479244	keystroke	s	n/a
239.6975	0.1345	479395	keystroke	Key.space	n/a
239.818	0.104	479636	keystroke	y	n/a
239.9375	0.1495	479875	keystroke	a	n/a
240.193	0.119	480386	keystroke	r	n/a
240.313	0.104	480626	keystroke	n	n/a
240.537	0.1055	481074	keystroke	Key.enter	n/a
240.648	3.356	481296	prompt	n/a	retained play receiver mill\n
241.1675	0.135	482335	keystroke	r	n/a
241.2275	0.15	482455	keystroke	e	n/a
241.4075	0.135	482815	keystroke	t	n/a
241.4975	0.18	482995	keystroke	a	n/a
241.5875	0.135	483175	keystroke	i	n/a
241.6625	0.135	483325	keystroke	n	n/a
241.7375	0.135	483475	keystroke	Key.space	n/a
241.8875	0.1945	483775	keystroke	p	n/a
242.0375	0.1495	484075	keystroke	l	n/a
242.097	0.195	484194	keystroke	a	n/a
242.1725	0.135	484345	keystroke	y	n/a
242.2775	0.1195	484555	keystroke	Key.space	n/a
242.427	0.121	484854	keystroke	r	n/a
242.502	0.1355	485004	keystroke	e	n/a
242.6675	0.135	485335	keystroke	c	n/a
242.7425	0.135	485485	keystroke	e	n/a
242.8475	0.12	485695	keystroke	i	n/a
242.9825	0.21	485965	keystroke	v	n/a
243.103	0.2545	486206	keystroke	e	n/a
243.2525	0.12	486505	keystroke	r	n/a
243.3275	0.12	486655	keystroke	Key.space	n/a
243.3875	0.135	486775	keystroke	m	n/a
243.4625	0.12	486925	keystroke	i	n/a
243.5375	0.075	487075	keystroke	l	n/a
243.6725	0.105	487345	keystroke	l	n/a
243.9125	0.09	487825	keystroke	Key.enter	n/a
244.0085	6.3705	488017	prompt	n/a	considerations uniprotkb version hayes\n
244.6475	0.15	489295	keystroke	c	n/a
244.7075	0.18	489415	keystroke	o	n/a
244.8275	0.12	489655	keystroke	n	n/a
244.9165	0.136	489833	keystroke	s	n/a
245.0975	0.0905	490195	keystroke	i	n/a
245.1265	0.121	490253	keystroke	d	n/a
245.2175	0.21	490435	keystroke	e	n/a
245.352	0.136	490704	keystroke	r	n/a
245.4725	0.18	490945	keystroke	a	n/a
245.577	0.151	491154	keystroke	t	n/a
245.6675	0.21	491335	keystroke	i	n/a
245.7115	0.136	491423	keystroke	o	n/a
245.8025	0.165	491605	keystroke	n	n/a
245.8925	0.135	491785	keystroke	s	n/a
245.9375	0.15	491875	keystroke	Key.space	n/a
246.1925	0.15	492385	keystroke	u	n/a
246.2675	0.15	492535	keystroke	n	n/a
246.4925	0.104	492985	keystroke	i	n/a
246.717	0.106	493434	keystroke	p	n/a
246.912	0.1055	493824	keystroke	r	n/a
247.2275	0.15	494455	keystroke	o	n/a
247.422	0.135	494844	keystroke	t	n/a
247.767	0.1505	495534	keystroke	k	n/a
248.0075	0.1505	496015	keystroke	b	n/a
248.2175	0.135	496435	keystroke	Key.space	n/a
248.367	0.1205	496734	keystroke	v	n/a
248.5025	0.18	497005	keystroke	e	n/a
248.6225	0.1795	497245	keystroke	r	n/a
248.742	0.1505	497484	keystroke	s	n/a
248.8175	0.285	497635	keystroke	i	n/a
248.908	0.1495	497816	keystroke	o	n/a
249.0125	0.165	498025	keystroke	n	n/a
249.4315	0.106	498863	keystroke	Key.space	n/a
249.6265	0.121	499253	keystroke	h	n/a
249.7775	0.164	499555	keystroke	a	n/a
249.9115	0.136	499823	keystroke	y	n/a
250.017	0.1355	500034	keystroke	e	n/a
250.0775	0.135	500155	keystroke	s	n/a
250.3025	0.075	500605	keystroke	Key.enter	n/a
250.386	4.45	500772	prompt	n/a	survivor terms preventing advise\n
251.0075	0.105	502015	keystroke	s	n/a
251.0825	0.09	502165	keystroke	u	n/a
251.1875	0.06	502375	keystroke	r	n/a
251.3975	0.075	502795	keystroke	v	n/a
251.6075	0.105	503215	keystroke	i	n/a
251.7275	0.135	503455	keystroke	v	n/a
251.8475	0.15	503695	keystroke	o	n/a
252.0125	0.12	504025	keystroke	r	n/a
252.1025	0.165	504205	keystroke	Key.space	n/a
252.2375	0.1045	504475	keystroke	t	n/a
252.3125	0.195	504625	keystroke	e	n/a
252.4475	0.1505	504895	keystroke	r	n/a
252.583	0.1195	505166	keystroke	m	n/a
252.6725	0.165	505345	keystroke	s	n/a
252.7775	0.1345	505555	keystroke	Key.space	n/a
252.897	0.121	505794	keystroke	p	n/a
252.988	0.0895	505976	keystroke	r	n/a
253.062	0.09	506124	keystroke	e	n/a
253.257	0.1355	506514	keystroke	v	n/a
253.303	0.149	506606	keystroke	e	n/a
253.437	0.12	506874	keystroke	n	n/a
253.527	0.106	507054	keystroke	t	n/a
253.6625	0.15	507325	keystroke	i	n/a
253.7525	0.1055	507505	keystroke	n	n/a
253.798	0.104	507596	keystroke	g	n/a
253.887	0.135	507774	keystroke	Key.space	n/a
254.008	0.1645	508016	keystroke	a	n/a
254.0975	0.1205	508195	keystroke	d	n/a
254.2475	0.15	508495	keystroke	v	n/a
254.3525	0.135	508705	keystroke	i	n/a
254.5025	0.18	509005	keystroke	s	n/a
254.607	0.12	509214	keystroke	e	n/a
254.772	0.06	509544	keystroke	Key.enter	n/a
254.8405	4.1185	509681	prompt	n/a	comic contest imperial roberts\n
255.492	0.1205	510984	keystroke	c	n/a
255.5225	0.1495	511045	keystroke	o	n/a
255.657	0.195	511314	keystroke	m	n/a
255.7775	0.12	511555	keystroke	i	n/a
255.8825	0.1505	511765	keystroke	c	n/a
256.017	0.135	512034	keystroke	Key.space	n/a
256.167	0.1355	512334	keystroke	c	n/a
256.243	0.1345	512486	keystroke	o	n/a
256.332	0.166	512664	keystroke	n	n/a
256.527	0.195	513054	keystroke	t	n/a
256.618	0.284	513236	keystroke	e	n/a
256.737	0.1805	513474	keystroke	s	n/a
256.842	0.1505	513684	keystroke	t	n/a
256.932	0.1355	513864	keystroke	Key.space	n/a
257.0075	0.1055	514015	keystroke	i	n/a
257.0825	0.12	514165	keystroke	m	n/a
257.2325	0.12	514465	keystroke	p	n/a
257.3225	0.15	514645	keystroke	e	n/a
257.3675	0.166	514735	keystroke	r	n/a
257.4875	0.09	514975	keystroke	i	n/a
257.607	0.1345	515214	keystroke	a	n/a
257.7265	0.136	515453	keystroke	l	n/a
257.8025	0.135	515605	keystroke	Key.space	n/a
257.878	0.1645	515756	keystroke	r	n/a
258.0275	0.135	516055	keystroke	o	n/a
258.1015	0.136	516203	keystroke	b	n/a
258.2075	0.12	516415	keystroke	e	n/a
258.253	0.1045	516506	keystroke	r	n/a
258.478	0.1195	516956	keystroke	t	n/a
258.5825	0.1205	517165	keystroke	s	n/a
258.8525	0.105	517705	keystroke	Key.enter	n/a
258.963	4.8705	517926	prompt	n/a	looked pediatric moderator anna\n
259.977	0.105	519954	keystroke	l	n/a
260.128	0.0595	520256	keystroke	o	n/a
260.247	0.1205	520494	keystroke	o	n/a
260.307	0.165	520614	keystroke	k	n/a
260.4125	0.1655	520825	keystroke	e	n/a
260.487	0.1805	520974	keystroke	d	n/a
260.5925	0.1495	521185	keystroke	Key.space	n/a
260.653	0.12	521306	keystroke	p	n/a
260.727	0.1655	521454	keystroke	e	n/a
260.817	0.1505	521634	keystroke	d	n/a
260.9225	0.105	521845	keystroke	i	n/a
261.403	0.1645	522806	keystroke	a	n/a
261.6125	0.1645	523225	keystroke	t	n/a
261.702	0.1655	523404	keystroke	r	n/a
261.838	0.1195	523676	keystroke	i	n/a
261.958	0.165	523916	keystroke	c	n/a
262.123	0.104	524246	keystroke	Key.space	n/a
262.198	0.1645	524396	keystroke	m	n/a
262.2725	0.135	524545	keystroke	o	n/a
262.3475	0.12	524695	keystroke	d	n/a
262.4525	0.1805	524905	keystroke	e	n/a
262.5725	0.1645	525145	keystroke	r	n/a
262.7225	0.1955	525445	keystroke	a	n/a
262.8125	0.165	525625	keystroke	t	n/a
262.9325	0.105	525865	keystroke	o	n/a
263.0225	0.1655	526045	keystroke	r	n/a
263.0975	0.149	526195	keystroke	Key.space	n/a
263.173	0.1495	526346	keystroke	a	n/a
263.3075	0.044	526615	keystroke	n	n/a
263.458	0.12	526916	keystroke	n	n/a
263.5625	0.1055	527125	keystroke	a	n/a
263.7125	0.1195	527425	keystroke	Key.enter	n/a
263.8375	4.797	527675	prompt	n/a	zdnet ralph requires medicine\n
264.5375	0.165	529075	keystroke	z	n/a
264.8525	0.0895	529705	keystroke	d	n/a
264.972	0.1355	529944	keystroke	n	n/a
265.078	0.2095	530156	keystroke	e	n/a
265.1825	0.15	530365	keystroke	t	n/a
265.2575	0.165	530515	keystroke	Key.space	n/a
265.6025	0.165	531205	keystroke	r	n/a
265.6925	0.165	531385	keystroke	a	n/a
266.0375	0.18	532075	keystroke	l	n/a
266.2025	0.12	532405	keystroke	p	n/a
266.3075	0.165	532615	keystroke	h	n/a
266.4575	0.149	532915	keystroke	Key.space	n/a
266.6375	0.15	533275	keystroke	r	n/a
266.7125	0.1355	533425	keystroke	e	n/a
266.8625	0.1205	533725	keystroke	q	n/a
266.968	0.1795	533936	keystroke	u	n/a
267.073	0.0595	534146	keystroke	i	n/a
267.1025	0.225	534205	keystroke	r	n/a
267.1775	0.165	534355	keystroke	e	n/a
267.2525	0.135	534505	keystroke	s	n/a
267.3575	0.1645	534715	keystroke	Key.space	n/a
267.4175	0.0905	534835	keystroke	m	n/a
267.4925	0.15	534985	keystroke	e	n/a
267.5825	0.135	535165	keystroke	d	n/a
267.688	0.1195	535376	keystroke	i	n/a
267.7925	0.165	535585	keystroke	c	n/a
268.0025	0.12	536005	keystroke	i	n/a
268.0765	0.151	536153	keystroke	n	n/a
268.197	0.1055	536394	keystroke	e	n/a
268.5275	0.1045	537055	keystroke	Key.enter	n/a
268.6375	5.8315	537275	prompt	n/a	compact volumes expense congo\n
269.263	0.1495	538526	keystroke	c	n/a
269.3075	0.12	538615	keystroke	o	n/a
269.3975	0.06	538795	keystroke	n	n/a
269.847	0.0755	539694	keystroke	Key.backspace	n/a
270.073	0.164	540146	keystroke	m	n/a
270.1925	0.12	540385	keystroke	p	n/a
270.3435	0.104	540687	keystroke	a	n/a
270.3725	0.15	540745	keystroke	c	n/a
270.7175	0.165	541435	keystroke	t	n/a
270.8075	0.15	541615	keystroke	Key.space	n/a
271.0925	0.105	542185	keystroke	v	n/a
271.1675	0.135	542335	keystroke	o	n/a
271.783	0.1345	543566	keystroke	l	n/a
272.1265	0.121	544253	keystroke	u	n/a
272.2625	0.18	544525	keystroke	m	n/a
272.3975	0.225	544795	keystroke	e	n/a
272.4875	0.18	544975	keystroke	s	n/a
272.6075	0.165	545215	keystroke	Key.space	n/a
272.7875	0.09	545575	keystroke	e	n/a
272.9225	0.179	545845	keystroke	x	n/a
273.0425	0.12	546085	keystroke	p	n/a
273.1625	0.1355	546325	keystroke	e	n/a
273.267	0.151	546534	keystroke	n	n/a
273.4025	0.1955	546805	keystroke	s	n/a
273.4775	0.1345	546955	keystroke	e	n/a
273.582	0.1055	547164	keystroke	Key.space	n/a
273.7175	0.1345	547435	keystroke	c	n/a
273.8075	0.1195	547615	keystroke	o	n/a
273.883	0.1195	547766	keystroke	n	n/a
274.017	0.121	548034	keystroke	g	n/a
274.1225	0.0745	548245	keystroke	o	n/a
274.362	0.105	548724	keystroke	Key.enter	n/a
274.4725	5.082	548945	prompt	n/a	xanax lawrence prototype free\n
275.2625	0.1345	550525	keystroke	x	n/a
275.4425	0.075	550885	keystroke	a	n/a
275.5175	0.135	551035	keystroke	n	n/a
275.6225	0.21	551245	keystroke	a	n/a
275.818	0.179	551636	keystroke	x	n/a
276.012	0.12	552024	keystroke	Key.space	n/a
276.1025	0.135	552205	keystroke	l	n/a
276.192	0.1955	552384	keystroke	a	n/a
276.312	0.135	552624	keystroke	w	n/a
276.6275	0.075	553255	keystroke	r	n/a
276.6425	0.135	553285	keystroke	e	n/a
276.748	0.135	553496	keystroke	n	n/a
277.048	0.21	554096	keystroke	c	n/a
277.1975	0.135	554395	keystroke	e	n/a
277.2725	0.135	554545	keystroke	Key.space	n/a
277.4525	0.105	554905	keystroke	p	n/a
277.5575	0.1055	555115	keystroke	r	n/a
277.6475	0.15	555295	keystroke	o	n/a
277.7675	0.1205	555535	keystroke	t	n/a
277.9775	0.12	555955	keystroke	o	n/a
278.2325	0.09	556465	keystroke	t	n/a
278.4425	0.105	556885	keystroke	y	n/a
278.562	0.1205	557124	keystroke	p	n/a
278.667	0.135	557334	keystroke	e	n/a
278.742	0.135	557484	keystroke	Key.space	n/a
278.878	0.18	557756	keystroke	f	n/a
278.952	0.1505	557904	keystroke	r	n/a
279.058	0.089	558116	keystroke	e	n/a
279.2225	0.1055	558445	keystroke	e	n/a
279.4625	0.09	558925	keystroke	Key.enter	n/a
279.5585	6.0255	559117	prompt	n/a	chronicles separate hold birmingham\n
280.0635	0.1495	560127	keystroke	c	n/a
280.1525	0.09	560305	keystroke	o	n/a
280.4525	0.0745	560905	keystroke	Key.backspace	n/a
280.662	0.121	561324	keystroke	h	n/a
280.798	0.1195	561596	keystroke	r	n/a
280.8725	0.149	561745	keystroke	o	n/a
280.9625	0.135	561925	keystroke	n	n/a
281.1725	0.135	562345	keystroke	i	n/a
281.3075	0.1495	562615	keystroke	c	n/a
281.4275	0.1195	562855	keystroke	l	n/a
281.517	0.165	563034	keystroke	e	n/a
281.607	0.12	563214	keystroke	s	n/a
281.6675	0.1345	563335	keystroke	Key.space	n/a
281.8475	0.2105	563695	keystroke	s	n/a
281.982	0.1655	563964	keystroke	e	n/a
282.0875	0.1195	564175	keystroke	p	n/a
282.2375	0.1195	564475	keystroke	a	n/a
282.3425	0.1345	564685	keystroke	r	n/a
282.462	0.2245	564924	keystroke	a	n/a
282.6125	0.195	565225	keystroke	t	n/a
282.7325	0.15	565465	keystroke	e	n/a
282.822	0.135	565644	keystroke	Key.space	n/a
282.8975	0.1195	565795	keystroke	h	n/a
282.9725	0.0745	565945	keystroke	o	n/a
283.152	0.1205	566304	keystroke	l	n/a
283.242	0.1205	566484	keystroke	d	n/a
283.347	0.075	566694	keystroke	Key.space	n/a
283.467	0.15	566934	keystroke	b	n/a
283.7375	0.09	567475	keystroke	r	n/a
284.052	0.0755	568104	keystroke	Key.backspace	n/a
284.247	0.0905	568494	keystroke	i	n/a
284.367	0.1355	568734	keystroke	r	n/a
284.457	0.1655	568914	keystroke	m	n/a
284.7125	0.1505	569425	keystroke	i	n/a
284.788	0.1345	569576	keystroke	n	n/a
284.9075	0.1355	569815	keystroke	g	n/a
285.027	0.1055	570054	keystroke	h	n/a
285.1475	0.1205	570295	keystroke	a	n/a
285.2515	0.106	570503	keystroke	m	n/a
285.507	0.0755	571014	keystroke	Key.enter	n/a
285.588	5.3365	571176	prompt	n/a	modification ntsc winds consultation\n
286.2275	0.165	572455	keystroke	m	n/a
286.3025	0.12	572605	keystroke	o	n/a
286.4075	0.1355	572815	keystroke	d	n/a
286.527	0.09	573054	keystroke	i	n/a
286.7525	0.0445	573505	keystroke	f	n/a
286.813	0.09	573626	keystroke	i	n/a
286.917	0.121	573834	keystroke	c	n/a
287.0525	0.165	574105	keystroke	a	n/a
287.173	0.1345	574346	keystroke	t	n/a
287.2325	0.225	574465	keystroke	i	n/a
287.2925	0.15	574585	keystroke	o	n/a
287.3825	0.105	574765	keystroke	n	n/a
287.4575	0.104	574915	keystroke	Key.space	n/a
287.5775	0.135	575155	keystroke	n	n/a
287.653	0.1645	575306	keystroke	t	n/a
287.8765	0.227	575753	keystroke	s	n/a
288.0425	0.1945	576085	keystroke	c	n/a
288.2825	0.075	576565	keystroke	Key.space	n/a
288.3725	0.09	576745	keystroke	w	n/a
288.4325	0.1355	576865	keystroke	i	n/a
288.5075	0.15	577015	keystroke	n	n/a
288.5975	0.179	577195	keystroke	d	n/a
288.6875	0.15	577375	keystroke	s	n/a
288.822	0.105	577644	keystroke	Key.space	n/a
288.9425	0.1655	577885	keystroke	c	n/a
289.0325	0.135	578065	keystroke	o	n/a
289.1225	0.15	578245	keystroke	n	n/a
289.2575	0.09	578515	keystroke	s	n/a
289.737	0.18	579474	keystroke	u	n/a
289.828	0.135	579656	keystroke	l	n/a
290.0075	0.1795	580015	keystroke	t	n/a
290.2025	0.165	580405	keystroke	a	n/a
290.2925	0.1655	580585	keystroke	t	n/a
290.3825	0.21	580765	keystroke	i	n/a
290.443	0.1345	580886	keystroke	o	n/a
290.533	0.1195	581066	keystroke	n	n/a
290.8175	0.105	581635	keystroke	Key.enter	n/a
290.929	4.975	581858	prompt	n/a	adjustable sarah allowance engines\n
291.5225	0.15	583045	keystroke	a	n/a
291.5975	0.15	583195	keystroke	d	n/a
291.6875	0.165	583375	keystroke	j	n/a
291.7775	0.135	583555	keystroke	u	n/a
291.8975	0.1195	583795	keystroke	s	n/a
291.957	0.165	583914	keystroke	t	n/a
292.107	0.1505	584214	keystroke	a	n/a
292.243	0.1795	584486	keystroke	b	n/a
292.3475	0.12	584695	keystroke	l	n/a
292.4825	0.1345	584965	keystroke	e	n/a
292.5575	0.15	585115	keystroke	Key.space	n/a
292.872	0.18	585744	keystroke	s	n/a
293.067	0.12	586134	keystroke	a	n/a
293.172	0.196	586344	keystroke	r	n/a
293.307	0.1655	586614	keystroke	a	n/a
293.4875	0.1195	586975	keystroke	h	n/a
293.697	0.165	587394	keystroke	Key.space	n/a
293.9675	0.1045	587935	keystroke	a	n/a
294.0425	0.0745	588085	keystroke	l	n/a
294.178	0.1495	588356	keystroke	l	n/a
294.2525	0.1495	588505	keystroke	o	n/a
294.357	0.1505	588714	keystroke	w	n/a
294.508	0.1345	589016	keystroke	a	n/a
294.6275	0.105	589255	keystroke	n	n/a
294.688	0.2095	589376	keystroke	c	n/a
294.8225	0.075	589645	keystroke	e	n/a
294.8825	0.135	589765	keystroke	Key.space	n/a
295.0025	0.09	590005	keystroke	e	n/a
295.0775	0.105	590155	keystroke	n	n/a
295.1975	0.12	590395	keystroke	g	n/a
295.2875	0.15	590575	keystroke	i	n/a
295.3615	0.151	590723	keystroke	n	n/a
295.4515	0.136	590903	keystroke	e	n/a
295.558	0.0745	591116	keystroke	s	n/a
295.8115	0.091	591623	keystroke	Key.enter	n/a
295.9095	4.81	591819	prompt	n/a	installations problem vital sharp\n
296.4725	0.15	592945	keystroke	i	n/a
296.5475	0.135	593095	keystroke	n	n/a
296.6525	0.12	593305	keystroke	s	n/a
296.7575	0.135	593515	keystroke	t	n/a
296.8475	0.1195	593695	keystroke	a	n/a
296.848	0.0895	593696	keystroke	l	n/a
297.012	0.1055	594024	keystroke	l	n/a
297.1325	0.135	594265	keystroke	a	n/a
297.1925	0.165	594385	keystroke	t	n/a
297.2975	0.225	594595	keystroke	i	n/a
297.3435	0.134	594687	keystroke	o	n/a
297.4625	0.1355	594925	keystroke	n	n/a
297.5525	0.15	595105	keystroke	s	n/a
297.6275	0.135	595255	keystroke	Key.space	n/a
297.7475	0.09	595495	keystroke	p	n/a
297.8525	0.074	595705	keystroke	r	n/a
297.9565	0.0915	595913	keystroke	o	n/a
298.0315	0.121	596063	keystroke	b	n/a
298.1535	0.119	596307	keystroke	l	n/a
298.2575	0.1205	596515	keystroke	e	n/a
298.3625	0.1205	596725	keystroke	m	n/a
298.4365	0.105	596873	keystroke	Key.space	n/a
298.5575	0.135	597115	keystroke	v	n/a
298.693	0.1045	597386	keystroke	i	n/a
298.8275	0.18	597655	keystroke	t	n/a
298.9325	0.18	597865	keystroke	a	n/a
299.067	0.075	598134	keystroke	l	n/a
299.127	0.15	598254	keystroke	Key.space	n/a
299.217	0.136	598434	keystroke	s	n/a
299.307	0.1355	598614	keystroke	h	n/a
299.413	0.149	598826	keystroke	a	n/a
299.472	0.1655	598944	keystroke	r	n/a
299.607	0.1205	599214	keystroke	p	n/a
300.6125	0.1045	601225	keystroke	Key.enter	n/a
300.7235	6.716	601447	prompt	n/a	integer theatre confidence analyzed\n
301.5275	0.1195	603055	keystroke	i	n/a
301.5875	0.1495	603175	keystroke	n	n/a
301.707	0.135	603414	keystroke	t	n/a
301.843	0.135	603686	keystroke	e	n/a
302.0825	0.135	604165	keystroke	g	n/a
302.3225	0.18	604645	keystroke	e	n/a
302.3975	0.165	604795	keystroke	r	n/a
302.5175	0.134	605035	keystroke	Key.space	n/a
302.772	0.105	605544	keystroke	t	n/a
302.8325	0.1355	605665	keystroke	h	n/a
302.937	0.2405	605874	keystroke	e	n/a
303.072	0.195	606144	keystroke	a	n/a
303.2075	0.1345	606415	keystroke	t	n/a
303.4625	0.2255	606925	keystroke	r	n/a
303.703	0.149	607406	keystroke	e	n/a
304.437	0.12	608874	keystroke	Key.space	n/a
304.8275	0.105	609655	keystroke	c	n/a
304.8875	0.12	609775	keystroke	o	n/a
304.947	0.1205	609894	keystroke	n	n/a
305.053	0.1195	610106	keystroke	f	n/a
305.1425	0.105	610285	keystroke	i	n/a
305.2625	0.089	610525	keystroke	d	n/a
305.3225	0.1045	610645	keystroke	e	n/a
305.3975	0.12	610795	keystroke	n	n/a
305.4875	0.18	610975	keystroke	c	n/a
305.5925	0.1495	611185	keystroke	e	n/a
305.6965	0.136	611393	keystroke	Key.space	n/a
305.8025	0.12	611605	keystroke	a	n/a
305.9075	0.105	611815	keystroke	n	n/a
306.0275	0.09	612055	keystroke	a	n/a
306.0875	0.105	612175	keystroke	l	n/a
306.282	0.1205	612564	keystroke	y	n/a
306.403	0.2095	612806	keystroke	z	n/a
306.5375	0.195	613075	keystroke	e	n/a
306.6725	0.18	613345	keystroke	d	n/a
307.302	0.1355	614604	keystroke	Key.enter	n/a
307.4435	4.7355	614887	prompt	n/a	displayed technology snapshot present\n
308.083	0.134	616166	keystroke	d	n/a
308.187	0.105	616374	keystroke	i	n/a
308.2775	0.1195	616555	keystroke	s	n/a
308.382	0.166	616764	keystroke	p	n/a
308.487	0.15	616974	keystroke	l	n/a
308.562	0.1505	617124	keystroke	a	n/a
308.638	0.1195	617276	keystroke	y	n/a
308.8025	0.195	617605	keystroke	e	n/a
308.8925	0.15	617785	keystroke	d	n/a
308.9825	0.12	617965	keystroke	Key.space	n/a
309.1625	0.075	618325	keystroke	t	n/a
309.2225	0.15	618445	keystroke	e	n/a
309.3875	0.15	618775	keystroke	c	n/a
309.4325	0.09	618865	keystroke	h	n/a
309.6125	0.135	619225	keystroke	n	n/a
309.6875	0.105	619375	keystroke	o	n/a
309.8975	0.0745	619795	keystroke	l	n/a
310.0625	0.12	620125	keystroke	o	n/a
310.1225	0.105	620245	keystroke	g	n/a
310.3325	0.105	620665	keystroke	y	n/a
310.4225	0.1195	620845	keystroke	Key.space	n/a
310.5125	0.09	621025	keystroke	s	n/a
310.587	0.1205	621174	keystroke	n	n/a
310.6915	0.121	621383	keystroke	a	n/a
310.7825	0.0895	621565	keystroke	p	n/a
310.873	0.134	621746	keystroke	s	n/a
310.977	0.166	621954	keystroke	h	n/a
311.0675	0.105	622135	keystroke	o	n/a
311.157	0.1055	622314	keystroke	t	n/a
311.2325	0.1195	622465	keystroke	Key.space	n/a
311.3225	0.0905	622645	keystroke	p	n/a
311.413	0.149	622826	keystroke	r	n/a
311.457	0.12	622914	keystroke	e	n/a
311.533	0.209	623066	keystroke	s	n/a
311.6825	0.1345	623365	keystroke	e	n/a
311.757	0.105	623514	keystroke	n	n/a
311.877	0.105	623754	keystroke	t	n/a
312.057	0.1205	624114	keystroke	Key.enter	n/a
312.1855	8.4085	624371	prompt	n/a	elevation patio michelle mauritius\n
312.7025	0.105	625405	keystroke	e	n/a
312.8675	0.105	625735	keystroke	l	n/a
312.9875	0.105	625975	keystroke	e	n/a
313.108	0.1195	626216	keystroke	v	n/a
313.2275	0.1805	626455	keystroke	a	n/a
313.3475	0.135	626695	keystroke	t	n/a
313.4225	0.24	626845	keystroke	i	n/a
313.4975	0.15	626995	keystroke	o	n/a
313.603	0.1345	627206	keystroke	n	n/a
313.6775	0.12	627355	keystroke	Key.space	n/a
313.8125	0.09	627625	keystroke	p	n/a
313.8725	0.165	627745	keystroke	a	n/a
313.9475	0.149	627895	keystroke	t	n/a
314.1875	0.195	628375	keystroke	i	n/a
314.2775	0.1355	628555	keystroke	o	n/a
314.4725	0.135	628945	keystroke	Key.space	n/a
314.6825	0.21	629365	keystroke	m	n/a
314.8325	0.12	629665	keystroke	i	n/a
314.9525	0.1645	629905	keystroke	c	n/a
315.087	0.135	630174	keystroke	h	n/a
315.207	0.09	630414	keystroke	e	n/a
315.3125	0.0745	630625	keystroke	l	n/a
315.477	0.1205	630954	keystroke	l	n/a
315.6275	0.165	631255	keystroke	e	n/a
315.7775	0.105	631555	keystroke	Key.space	n/a
315.9275	0.135	631855	keystroke	m	n/a
316.0325	0.135	632065	keystroke	a	n/a
316.1075	0.165	632215	keystroke	r	n/a
316.2125	0.135	632425	keystroke	u	n/a
317.157	0.075	634314	keystroke	Key.backspace	n/a
317.3075	0.0745	634615	keystroke	Key.backspace	n/a
317.503	0.104	635006	keystroke	u	n/a
317.6225	0.1195	635245	keystroke	r	n/a
317.832	0.121	635664	keystroke	i	n/a
318.2525	0.105	636505	keystroke	t	n/a
318.3725	0.15	636745	keystroke	u	n/a
318.972	0.09	637944	keystroke	Key.backspace	n/a
319.167	0.075	638334	keystroke	i	n/a
319.3475	0.0745	638695	keystroke	u	n/a
319.452	0.1205	638904	keystroke	s	n/a
320.532	0.0605	641064	keystroke	Key.enter	n/a
320.599	10.6755	641198	prompt	n/a	reproductive regions pitch significance\n
321.5525	0.135	643105	keystroke	r	n/a
321.6275	0.12	643255	keystroke	e	n/a
321.718	0.1045	643436	keystroke	p	n/a
321.897	0.1205	643794	keystroke	r	n/a
322.0025	0.1195	644005	keystroke	o	n/a
322.227	0.09	644454	keystroke	d	n/a
322.3325	0.1045	644665	keystroke	u	n/a
322.422	0.12	644844	keystroke	c	n/a
322.6475	0.09	645295	keystroke	t	n/a
322.7675	0.12	645535	keystroke	i	n/a
322.8725	0.135	645745	keystroke	v	n/a
322.9175	0.165	645835	keystroke	e	n/a
323.0375	0.12	646075	keystroke	Key.space	n/a
323.1425	0.225	646285	keystroke	r	n/a
323.2775	0.105	646555	keystroke	e	n/a
323.3525	0.135	646705	keystroke	g	n/a
323.4125	0.255	646825	keystroke	i	n/a
323.4725	0.1495	646945	keystroke	o	n/a
323.592	0.1345	647184	keystroke	n	n/a
323.6825	0.134	647365	keystroke	s	n/a
323.7425	0.105	647485	keystroke	Key.space	n/a
323.8315	0.121	647663	keystroke	p	n/a
323.9215	0.135	647843	keystroke	i	n/a
323.9965	0.0755	647993	keystroke	t	n/a
324.7925	0.1795	649585	keystroke	c	n/a
324.9125	0.15	649825	keystroke	h	n/a
325.0475	0.12	650095	keystroke	Key.space	n/a
325.1225	0.1495	650245	keystroke	s	n/a
325.227	0.1205	650454	keystroke	i	n/a
325.333	0.1195	650666	keystroke	g	n/a
325.408	0.179	650816	keystroke	n	n/a
325.512	0.105	651024	keystroke	i	n/a
325.632	0.106	651264	keystroke	f	n/a
325.722	0.12	651444	keystroke	i	n/a
326.0225	0.1195	652045	keystroke	a	n/a
326.1575	0.15	652315	keystroke	n	n/a
326.292	0.2855	652584	keystroke	c	n/a
326.5475	0.0305	653095	keystroke	e	n/a
326.757	0.09	653514	keystroke	Key.backspace	n/a
326.923	0.074	653846	keystroke	Key.backspace	n/a
327.072	0.0305	654144	keystroke	Key.backspace	n/a
327.177	0.0755	654354	keystroke	Key.backspace	n/a
327.238	0.164	654476	keystroke	c	n/a
327.3875	0.1645	654775	keystroke	n	n/a
327.5375	0.1195	655075	keystroke	a	n/a
327.567	0.2405	655134	keystroke	c	n/a
327.732	0.1355	655464	keystroke	e	n/a
329.5765	0.075	659153	keystroke	Key.backspace	n/a
329.6965	0.09	659393	keystroke	Key.backspace	n/a
329.9825	0.104	659965	keystroke	Key.backspace	n/a
330.1625	0.1195	660325	keystroke	Key.backspace	n/a
330.5075	0.1495	661015	keystroke	a	n/a
330.597	0.12	661194	keystroke	n	n/a
330.702	0.165	661404	keystroke	c	n/a
330.792	0.135	661584	keystroke	e	n/a
331.167	0.105	662334	keystroke	Key.enter	n/a
331.278	4.5865	662556	prompt	n/a	dubai bureau finnish alignment\n
331.917	0.121	663834	keystroke	d	n/a
332.007	0.15	664014	keystroke	u	n/a
332.097	0.1495	664194	keystroke	b	n/a
332.2625	0.135	664525	keystroke	a	n/a
332.3675	0.12	664735	keystroke	i	n/a
332.4425	0.15	664885	keystroke	Key.space	n/a
332.6065	0.21	665213	keystroke	b	n/a
332.6965	0.166	665393	keystroke	u	n/a
332.9075	0.135	665815	keystroke	r	n/a
332.9975	0.2695	665995	keystroke	e	n/a
333.147	0.195	666294	keystroke	a	n/a
333.2825	0.1345	666565	keystroke	u	n/a
333.687	0.135	667374	keystroke	Key.space	n/a
333.867	0.1355	667734	keystroke	f	n/a
333.9575	0.135	667915	keystroke	i	n/a
334.0475	0.0895	668095	keystroke	n	n/a
334.212	0.1505	668424	keystroke	n	n/a
334.272	0.15	668544	keystroke	i	n/a
334.407	0.135	668814	keystroke	s	n/a
334.512	0.12	669024	keystroke	h	n/a
334.587	0.135	669174	keystroke	Key.space	n/a
334.6925	0.135	669385	keystroke	a	n/a
334.737	0.1655	669474	keystroke	l	n/a
334.812	0.1055	669624	keystroke	i	n/a
334.933	0.134	669866	keystroke	g	n/a
334.9925	0.1045	669985	keystroke	n	n/a
335.172	0.1055	670344	keystroke	m	n/a
335.247	0.1055	670494	keystroke	e	n/a
335.368	0.119	670736	keystroke	n	n/a
335.502	0.09	671004	keystroke	t	n/a
335.757	0.105	671514	keystroke	Key.enter	n/a
335.8695	5.619	671739	prompt	n/a	expansion wash effects uniprotkb\n
336.402	0.1055	672804	keystroke	e	n/a
336.597	0.12	673194	keystroke	x	n/a
336.702	0.075	673404	keystroke	p	n/a
336.792	0.106	673584	keystroke	a	n/a
336.8675	0.1195	673735	keystroke	n	n/a
336.9725	0.135	673945	keystroke	s	n/a
337.0625	0.225	674125	keystroke	i	n/a
337.123	0.1345	674246	keystroke	o	n/a
337.1975	0.1505	674395	keystroke	n	n/a
337.2425	0.18	674485	keystroke	Key.space	n/a
337.3775	0.12	674755	keystroke	w	n/a
337.4975	0.21	674995	keystroke	a	n/a
337.6175	0.15	675235	keystroke	s	n/a
337.7675	0.1205	675535	keystroke	h	n/a
337.7825	0.12	675565	keystroke	Key.space	n/a
337.9025	0.12	675805	keystroke	e	n/a
337.9925	0.075	675985	keystroke	f	n/a
338.1575	0.105	676315	keystroke	f	n/a
338.2175	0.195	676435	keystroke	e	n/a
338.3675	0.075	676735	keystroke	c	n/a
338.5925	0.15	677185	keystroke	t	n/a
338.6675	0.1345	677335	keystroke	s	n/a
338.757	0.1205	677514	keystroke	Key.space	n/a
338.803	0.119	677606	keystroke	u	n/a
338.862	0.1505	677724	keystroke	n	n/a
339.027	0.106	678054	keystroke	i	n/a
339.237	0.12	678474	keystroke	p	n/a
339.417	0.136	678834	keystroke	r	n/a
339.567	0.1505	679134	keystroke	o	n/a
339.702	0.1505	679404	keystroke	t	n/a
340.3025	0.12	680605	keystroke	k	n/a
340.4375	0.1195	680875	keystroke	b	n/a
341.397	0.09	682794	keystroke	Key.enter	n/a
341.4915	4.5125	682983	prompt	n/a	cnet trains caribbean surge\n
342.118	0.134	684236	keystroke	c	n/a
342.223	0.119	684446	keystroke	n	n/a
342.402	0.2255	684804	keystroke	e	n/a
342.657	0.1505	685314	keystroke	t	n/a
342.792	0.18	685584	keystroke	Key.space	n/a
343.002	0.18	686004	keystroke	t	n/a
343.062	0.24	686124	keystroke	r	n/a
343.152	0.1955	686304	keystroke	a	n/a
343.2875	0.18	686575	keystroke	i	n/a
343.4075	0.135	686815	keystroke	n	n/a
343.4975	0.15	686995	keystroke	s	n/a
343.5715	0.121	687143	keystroke	Key.space	n/a
343.6765	0.196	687353	keystroke	c	n/a
343.7975	0.15	687595	keystroke	a	n/a
343.9315	0.135	687863	keystroke	r	n/a
344.0215	0.09	688043	keystroke	i	n/a
344.2175	0.06	688435	keystroke	b	n/a
344.3375	0.105	688675	keystroke	b	n/a
344.4425	0.18	688885	keystroke	e	n/a
344.5475	0.1495	689095	keystroke	a	n/a
344.6825	0.135	689365	keystroke	n	n/a
344.907	0.135	689814	keystroke	Key.space	n/a
345.057	0.1205	690114	keystroke	s	n/a
345.147	0.1055	690294	keystroke	u	n/a
345.2075	0.075	690415	keystroke	r	n/a
345.432	0.1055	690864	keystroke	g	n/a
345.492	0.1055	690984	keystroke	e	n/a
345.8965	0.105	691793	keystroke	Key.enter	n/a
346.0085	5.245	692017	prompt	n/a	apparently stake netherlands meets\n
347.067	0.1495	694134	keystroke	a	n/a
347.1575	0.074	694315	keystroke	p	n/a
347.2925	0.119	694585	keystroke	p	n/a
347.3675	0.165	694735	keystroke	a	n/a
347.4875	0.165	694975	keystroke	r	n/a
347.6075	0.105	695215	keystroke	e	n/a
347.6815	0.136	695363	keystroke	n	n/a
347.802	0.0905	695604	keystroke	t	n/a
347.9065	0.106	695813	keystroke	l	n/a
348.0425	0.12	696085	keystroke	y	n/a
348.132	0.1795	696264	keystroke	Key.space	n/a
348.2675	0.1045	696535	keystroke	s	n/a
348.3565	0.181	696713	keystroke	t	n/a
348.477	0.18	696954	keystroke	a	n/a
348.6125	0.12	697225	keystroke	k	n/a
348.7175	0.1195	697435	keystroke	e	n/a
348.792	0.105	697584	keystroke	Key.space	n/a
348.9125	0.12	697825	keystroke	n	n/a
349.0025	0.18	698005	keystroke	e	n/a
349.3175	0.165	698635	keystroke	t	n/a
349.4975	0.1345	698995	keystroke	h	n/a
349.647	0.15	699294	keystroke	e	n/a
349.722	0.1205	699444	keystroke	r	n/a
349.827	0.105	699654	keystroke	l	n/a
349.9475	0.1345	699895	keystroke	a	n/a
350.0675	0.1045	700135	keystroke	n	n/a
350.1425	0.1645	700285	keystroke	d	n/a
350.2325	0.135	700465	keystroke	s	n/a
350.322	0.135	700644	keystroke	Key.space	n/a
350.442	0.09	700884	keystroke	m	n/a
350.4875	0.105	700975	keystroke	e	n/a
350.6825	0.1345	701365	keystroke	e	n/a
350.7875	0.149	701575	keystroke	t	n/a
350.9075	0.09	701815	keystroke	s	n/a
351.1475	0.104	702295	keystroke	Key.enter	n/a
351.2585	6.5055	702517	prompt	n/a	yorkshire striking demo headset\n
351.9875	0.12	703975	keystroke	y	n/a
352.1225	0.1055	704245	keystroke	o	n/a
352.1965	0.0765	704393	keystroke	r	n/a
352.2875	0.1345	704575	keystroke	k	n/a
352.407	0.1055	704814	keystroke	s	n/a
352.5725	0.165	705145	keystroke	h	n/a
352.6625	0.1195	705325	keystroke	i	n/a
352.827	0.15	705654	keystroke	r	n/a
352.8875	0.2095	705775	keystroke	e	n/a
353.082	0.135	706164	keystroke	Key.space	n/a
353.2925	0.135	706585	keystroke	s	n/a
353.367	0.18	706734	keystroke	t	n/a
353.5025	0.1195	707005	keystroke	r	n/a
353.5775	0.15	707155	keystroke	i	n/a
353.6825	0.15	707365	keystroke	k	n/a
353.8765	0.196	707753	keystroke	i	n/a
353.997	0.1505	707994	keystroke	n	n/a
354.087	0.1055	708174	keystroke	g	n/a
354.1775	0.1345	708355	keystroke	Key.space	n/a
354.3275	0.1495	708655	keystroke	d	n/a
354.402	0.1805	708804	keystroke	e	n/a
354.508	0.1945	709016	keystroke	m	n/a
354.6275	0.15	709255	keystroke	o	n/a
354.7325	0.105	709465	keystroke	Key.space	n/a
354.8675	0.225	709735	keystroke	e	n/a
354.8825	0.15	709765	keystroke	h	n/a
355.002	0.165	710004	keystroke	a	n/a
355.093	0.1945	710186	keystroke	d	n/a
355.602	0.06	711204	keystroke	Key.backspace	n/a
355.7375	0.0595	711475	keystroke	Key.backspace	n/a
355.857	0.0605	711714	keystroke	Key.backspace	n/a
355.962	0.106	711924	keystroke	Key.backspace	n/a
356.218	0.135	712436	keystroke	h	n/a
356.277	0.1355	712554	keystroke	e	n/a
356.337	0.2255	712674	keystroke	a	n/a
356.5015	0.2105	713003	keystroke	d	n/a
356.742	0.225	713484	keystroke	s	n/a
356.8625	0.2395	713725	keystroke	e	n/a
357.207	0.136	714414	keystroke	t	n/a
357.657	0.1055	715314	keystroke	Key.enter	n/a
357.769	4.06	715538	prompt	n/a	fabrics optional note satisfy\n
358.4375	0.195	716875	keystroke	f	n/a
358.5575	0.1795	717115	keystroke	a	n/a
358.6475	0.1195	717295	keystroke	b	n/a
358.752	0.135	717504	keystroke	r	n/a
358.872	0.12	717744	keystroke	i	n/a
358.962	0.1505	717924	keystroke	c	n/a
359.052	0.1355	718104	keystroke	s	n/a
359.142	0.1195	718284	keystroke	Key.space	n/a
359.2025	0.1205	718405	keystroke	o	n/a
359.2775	0.074	718555	keystroke	p	n/a
359.3675	0.119	718735	keystroke	t	n/a
359.457	0.2555	718914	keystroke	i	n/a
359.547	0.1055	719094	keystroke	o	n/a
359.6365	0.136	719273	keystroke	n	n/a
359.7875	0.15	719575	keystroke	a	n/a
359.893	0.0895	719786	keystroke	l	n/a
359.9975	0.105	719995	keystroke	Key.space	n/a
360.1775	0.2095	720355	keystroke	n	n/a
360.3125	0.1495	720625	keystroke	o	n/a
360.3575	0.2095	720715	keystroke	t	n/a
360.477	0.1505	720954	keystroke	e	n/a
360.552	0.1655	721104	keystroke	Key.space	n/a
360.7325	0.0455	721465	keystroke	s	n/a
360.793	0.1945	721586	keystroke	a	n/a
360.9275	0.135	721855	keystroke	t	n/a
361.0325	0.1205	722065	keystroke	i	n/a
361.1665	0.151	722333	keystroke	s	n/a
361.3025	0.15	722605	keystroke	f	n/a
361.4065	0.121	722813	keystroke	y	n/a
361.7365	0.091	723473	keystroke	Key.enter	n/a
361.8345	5.1695	723669	prompt	n/a	qualifying buddy kill julia\n
362.413	0.0745	724826	keystroke	q	n/a
362.502	0.136	725004	keystroke	u	n/a
362.7425	0.1495	725485	keystroke	a	n/a
362.8475	0.1495	725695	keystroke	l	n/a
363.0875	0.135	726175	keystroke	i	n/a
363.2515	0.106	726503	keystroke	t	n/a
363.7925	0.105	727585	keystroke	Key.backspace	n/a
364.198	0.1345	728396	keystroke	f	n/a
364.288	0.1195	728576	keystroke	y	n/a
364.6175	0.03	729235	keystroke	i	n/a
364.6325	0.18	729265	keystroke	n	n/a
364.6915	0.151	729383	keystroke	g	n/a
364.7815	0.135	729563	keystroke	Key.space	n/a
364.9025	0.1645	729805	keystroke	b	n/a
364.978	0.1035	729956	keystroke	u	n/a
365.0525	0.089	730105	keystroke	d	n/a
365.217	0.1495	730434	keystroke	d	n/a
365.2615	0.091	730523	keystroke	y	n/a
365.3825	0.134	730765	keystroke	Key.space	n/a
365.4865	0.181	730973	keystroke	k	n/a
365.6075	0.104	731215	keystroke	i	n/a
365.6675	0.075	731335	keystroke	l	n/a
365.8165	0.121	731633	keystroke	l	n/a
365.9515	0.106	731903	keystroke	Key.space	n/a
365.9975	0.1355	731995	keystroke	j	n/a
366.0725	0.135	732145	keystroke	u	n/a
366.2975	0.194	732595	keystroke	l	n/a
366.4025	0.135	732805	keystroke	i	n/a
366.598	0.1795	733196	keystroke	a	n/a
366.9125	0.09	733825	keystroke	Key.enter	n/a
367.0085	4.7655	734017	prompt	n/a	shortcuts peter report criticism\n
367.543	0.1495	735086	keystroke	s	n/a
367.647	0.1505	735294	keystroke	h	n/a
367.7225	0.1345	735445	keystroke	o	n/a
367.843	0.134	735686	keystroke	r	n/a
367.9175	0.09	735835	keystroke	t	n/a
368.142	0.1205	736284	keystroke	c	n/a
368.308	0.1195	736616	keystroke	u	n/a
368.4425	0.18	736885	keystroke	t	n/a
368.532	0.151	737064	keystroke	s	n/a
368.607	0.1345	737214	keystroke	Key.space	n/a
368.697	0.0905	737394	keystroke	p	n/a
368.8025	0.12	737605	keystroke	e	n/a
368.9375	0.135	737875	keystroke	t	n/a
369.0875	0.165	738175	keystroke	e	n/a
369.1775	0.135	738355	keystroke	r	n/a
369.2825	0.135	738565	keystroke	Key.space	n/a
369.4025	0.135	738805	keystroke	r	n/a
369.4625	0.135	738925	keystroke	e	n/a
369.612	0.1505	739224	keystroke	p	n/a
369.702	0.1205	739404	keystroke	o	n/a
369.732	0.195	739464	keystroke	r	n/a
369.807	0.1355	739614	keystroke	t	n/a
369.912	0.09	739824	keystroke	Key.space	n/a
370.0475	0.195	740095	keystroke	c	n/a
370.1825	0.135	740365	keystroke	r	n/a
370.2875	0.12	740575	keystroke	i	n/a
370.4075	0.09	740815	keystroke	t	n/a
370.9475	0.105	741895	keystroke	i	n/a
371.1125	0.165	742225	keystroke	c	n/a
371.2625	0.06	742525	keystroke	i	n/a
371.3825	0.06	742765	keystroke	s	n/a
371.4575	0.0895	742915	keystroke	m	n/a
371.6975	0.075	743395	keystroke	Key.enter	n/a
371.778	3.6705	743556	prompt	n/a	bored cure superb lynn\n
372.4325	0.15	744865	keystroke	b	n/a
372.5225	0.12	745045	keystroke	o	n/a
372.6125	0.135	745225	keystroke	r	n/a
372.7025	0.1945	745405	keystroke	e	n/a
372.852	0.121	745704	keystroke	d	n/a
372.9125	0.15	745825	keystroke	Key.space	n/a
373.077	0.105	746154	keystroke	c	n/a
373.137	0.12	746274	keystroke	u	n/a
373.317	0.1805	746634	keystroke	r	n/a
373.423	0.12	746846	keystroke	e	n/a
373.498	0.164	746996	keystroke	Key.space	n/a
373.647	0.1055	747294	keystroke	s	n/a
373.7675	0.2855	747535	keystroke	u	n/a
373.947	0.1355	747894	keystroke	p	n/a
374.1125	0.165	748225	keystroke	e	n/a
374.2325	0.15	748465	keystroke	r	n/a
374.353	0.134	748706	keystroke	b	n/a
374.5325	0.105	749065	keystroke	Key.space	n/a
374.6225	0.09	749245	keystroke	l	n/a
374.8175	0.075	749635	keystroke	y	n/a
375.0125	0.06	750025	keystroke	n	n/a
375.1625	0.09	750325	keystroke	n	n/a
375.3725	0.075	750745	keystroke	Key.enter	n/a
375.454	4.901	750908	prompt	n/a	heavy first agriculture celebrate\n
376.1675	0.12	752335	keystroke	h	n/a
376.2125	0.15	752425	keystroke	e	n/a
376.3325	0.165	752665	keystroke	a	n/a
376.4375	0.135	752875	keystroke	v	n/a
376.5425	0.105	753085	keystroke	y	n/a
376.6175	0.135	753235	keystroke	Key.space	n/a
376.7075	0.09	753415	keystroke	f	n/a
376.8125	0.09	753625	keystroke	i	n/a
376.9175	0.09	753835	keystroke	r	n/a
376.9475	0.1805	753895	keystroke	s	n/a
377.0975	0.135	754195	keystroke	t	n/a
377.1725	0.1645	754345	keystroke	Key.space	n/a
377.277	0.18	754554	keystroke	a	n/a
377.3975	0.18	754795	keystroke	g	n/a
377.5025	0.1495	755005	keystroke	r	n/a
377.607	0.106	755214	keystroke	i	n/a
377.892	0.1505	755784	keystroke	c	n/a
378.0275	0.1945	756055	keystroke	u	n/a
378.1475	0.105	756295	keystroke	l	n/a
378.282	0.1055	756564	keystroke	t	n/a
378.3425	0.15	756685	keystroke	u	n/a
378.507	0.135	757014	keystroke	r	n/a
378.5525	0.1495	757105	keystroke	e	n/a
378.657	0.1355	757314	keystroke	Key.space	n/a
378.8375	0.1345	757675	keystroke	c	n/a
378.913	0.104	757826	keystroke	e	n/a
378.957	0.106	757914	keystroke	l	n/a
379.1075	0.105	758215	keystroke	e	n/a
379.1675	0.135	758335	keystroke	b	n/a
379.332	0.1655	758664	keystroke	r	n/a
379.6925	0.195	759385	keystroke	a	n/a
379.8125	0.24	759625	keystroke	t	n/a
379.9775	0.15	759955	keystroke	e	n/a
380.2325	0.12	760465	keystroke	Key.enter	n/a
380.3585	4.676	760717	prompt	n/a	flights jacket terrorism classic\n
380.9675	0.135	761935	keystroke	f	n/a
381.132	0.181	762264	keystroke	l	n/a
381.237	0.136	762474	keystroke	i	n/a
381.343	0.1045	762686	keystroke	g	n/a
381.4775	0.1195	762955	keystroke	h	n/a
381.5675	0.165	763135	keystroke	t	n/a
381.627	0.151	763254	keystroke	s	n/a
381.717	0.1205	763434	keystroke	Key.space	n/a
381.808	0.1045	763616	keystroke	j	n/a
381.927	0.105	763854	keystroke	a	n/a
381.972	0.15	763944	keystroke	c	n/a
382.108	0.12	764216	keystroke	k	n/a
382.213	0.18	764426	keystroke	e	n/a
382.3175	0.15	764635	keystroke	t	n/a
382.4075	0.1645	764815	keystroke	Key.space	n/a
382.632	0.106	765264	keystroke	t	n/a
382.708	0.1645	765416	keystroke	e	n/a
382.827	0.09	765654	keystroke	r	n/a
382.977	0.12	765954	keystroke	r	n/a
383.0675	0.1045	766135	keystroke	o	n/a
383.187	0.1205	766374	keystroke	r	n/a
383.2925	0.0895	766585	keystroke	i	n/a
383.4275	0.15	766855	keystroke	s	n/a
383.6675	0.1055	767335	keystroke	m	n/a
383.832	0.135	767664	keystroke	Key.space	n/a
384.102	0.1355	768204	keystroke	c	n/a
384.177	0.12	768354	keystroke	l	n/a
384.267	0.1055	768534	keystroke	a	n/a
384.3425	0.1045	768685	keystroke	s	n/a
384.5375	0.105	769075	keystroke	s	n/a
384.6125	0.1345	769225	keystroke	i	n/a
384.7175	0.15	769435	keystroke	c	n/a
384.9275	0.105	769855	keystroke	Key.enter	n/a
