onset	duration	sample	value	key	prompt_text
5.608	7.992	11216	prompt	n/a	the quick brown fox jumps over a lazy dog\n
7.4605	0.0285	14921	keystroke_t	t	n/a
7.474	0.1345	14948	keystroke_h	h	n/a
7.579	0.0595	15158	keystroke_e	e	n/a
7.728	0.1355	15456	keystroke_Key.space	Key.space	n/a
7.983	0.091	15966	keystroke_q	q	n/a
8.0585	0.0905	16117	keystroke_u	u	n/a
8.1185	0.12	16237	keystroke_i	i	n/a
8.284	0.1195	16568	keystroke_c	c	n/a
8.3885	0.1055	16777	keystroke_k	k	n/a
8.5535	0.18	17107	keystroke_Key.space	Key.space	n/a
8.7485	0.075	17497	keystroke_b	b	n/a
8.9735	0.06	17947	keystroke_r	r	n/a
9.049	0.1195	18098	keystroke_o	o	n/a
9.184	0.1495	18368	keystroke_w	w	n/a
9.274	0.1195	18548	keystroke_n	n	n/a
9.4985	0.15	18997	keystroke_Key.space	Key.space	n/a
9.8135	0.12	19627	keystroke_f	f	n/a
9.918	0.0905	19836	keystroke_o	o	n/a
10.0685	0.09	20137	keystroke_x	x	n/a
10.174	0.1495	20348	keystroke_Key.space	Key.space	n/a
10.3235	0.1055	20647	keystroke_j	j	n/a
10.5335	0.075	21067	keystroke_u	u	n/a
10.7585	0.1055	21517	keystroke_m	m	n/a
10.939	0.0895	21878	keystroke_p	p	n/a
11.1785	0.1655	22357	keystroke_s	s	n/a
11.3735	0.1205	22747	keystroke_Key.space	Key.space	n/a
11.524	0.0895	23048	keystroke_o	o	n/a
11.5835	0.075	23167	keystroke_v	v	n/a
11.719	0.18	23438	keystroke_e	e	n/a
11.794	0.1195	23588	keystroke_r	r	n/a
11.9285	0.1055	23857	keystroke_Key.space	Key.space	n/a
12.0635	0.135	24127	keystroke_a	a	n/a
12.184	0.1195	24368	keystroke_Key.space	Key.space	n/a
12.4385	0.1355	24877	keystroke_l	l	n/a
12.5585	0.105	25117	keystroke_a	a	n/a
12.8135	0.135	25627	keystroke_z	z	n/a
12.918	0.106	25836	keystroke_y	y	n/a
13.1135	0.1205	26227	keystroke_Key.space	Key.space	n/a
13.174	0.12	26348	keystroke_d	d	n/a
13.279	0.135	26558	keystroke_o	o	n/a
13.399	0.06	26798	keystroke_g	g	n/a
13.5185	0.0745	27037	keystroke_Key.enter	Key.enter	n/a
13.6055	6.996	27211	prompt	n/a	left interactive fragrance diego\n
14.164	0.0895	28328	keystroke_t	t	n/a
14.524	0.06	29048	keystroke_Key.backspace	Key.backspace	n/a
14.9585	0.15	29917	keystroke_l	l	n/a
15.034	0.135	30068	keystroke_e	e	n/a
15.139	0.1195	30278	keystroke_f	f	n/a
15.379	0.0745	30758	keystroke_t	t	n/a
15.4985	0.15	30997	keystroke_Key.space	Key.space	n/a
15.7395	0.0595	31479	keystroke_i	i	n/a
15.8135	0.1505	31627	keystroke_n	n	n/a
15.9485	0.0755	31897	keystroke_t	t	n/a
16.0385	0.1655	32077	keystroke_e	e	n/a
16.1585	0.1055	32317	keystroke_r	r	n/a
16.6845	0.1195	33369	keystroke_a	a	n/a
16.9235	0.1645	33847	keystroke_c	c	n/a
17.179	0.09	34358	keystroke_t	t	n/a
17.2985	0.136	34597	keystroke_i	i	n/a
17.464	0.0895	34928	keystroke_v	v	n/a
17.569	0.0745	35138	keystroke_e	e	n/a
17.6585	0.1355	35317	keystroke_Key.space	Key.space	n/a
17.749	0.1495	35498	keystroke_f	f	n/a
18.1535	0.09	36307	keystroke_r	r	n/a
18.2585	0.1205	36517	keystroke_a	a	n/a
18.6185	0.075	37237	keystroke_g	g	n/a
18.8435	0.105	37687	keystroke_r	r	n/a
18.9335	0.15	37867	keystroke_a	a	n/a
19.0695	0.149	38139	keystroke_n	n	n/a
19.234	0.0745	38468	keystroke_c	c	n/a
19.429	0.09	38858	keystroke_e	e	n/a
19.5635	0.1355	39127	keystroke_Key.space	Key.space	n/a
19.669	0.12	39338	keystroke_d	d	n/a
19.804	0.1645	39608	keystroke_i	i	n/a
19.909	0.12	39818	keystroke_e	e	n/a
20.074	0.105	40148	keystroke_g	g	n/a
20.2685	0.1055	40537	keystroke_o	o	n/a
20.539	0.06	41078	keystroke_Key.enter	Key.enter	n/a
20.606	6.6405	41212	prompt	n/a	fixes ordered licensing common\n
21.6335	0.135	43267	keystroke_f	f	n/a
21.7385	0.1495	43477	keystroke_i	i	n/a
21.903	0.1205	43806	keystroke_x	x	n/a
22.1435	0.1505	44287	keystroke_e	e	n/a
22.249	0.1345	44498	keystroke_s	s	n/a
22.399	0.09	44798	keystroke_Key.space	Key.space	n/a
22.6535	0.0455	45307	keystroke_o	o	n/a
22.669	0.0745	45338	keystroke_r	r	n/a
22.7445	0.1335	45489	keystroke_d	d	n/a
22.9845	0.1495	45969	keystroke_e	e	n/a
23.104	0.1495	46208	keystroke_r	r	n/a
23.2385	0.135	46477	keystroke_e	e	n/a
23.5235	0.1205	47047	keystroke_d	d	n/a
23.779	0.1345	47558	keystroke_Key.space	Key.space	n/a
24.1235	0.151	48247	keystroke_l	l	n/a
24.2585	0.1205	48517	keystroke_i	i	n/a
24.3795	0.119	48759	keystroke_c	c	n/a
24.6335	0.1205	49267	keystroke_e	e	n/a
25.0085	0.165	50017	keystroke_n	n	n/a
25.7885	0.1355	51577	keystroke_s	s	n/a
25.8645	0.1195	51729	keystroke_i	i	n/a
25.9685	0.135	51937	keystroke_n	n	n/a
26.089	0.0595	52178	keystroke_g	g	n/a
26.194	0.15	52388	keystroke_Key.space	Key.space	n/a
26.4045	0.1045	52809	keystroke_c	c	n/a
26.449	0.0895	52898	keystroke_o	o	n/a
26.554	0.09	53108	keystroke_m	m	n/a
26.734	0.0895	53468	keystroke_m	m	n/a
26.899	0.06	53798	keystroke_o	o	n/a
26.9435	0.0905	53887	keystroke_n	n	n/a
27.1535	0.09	54307	keystroke_Key.enter	Key.enter	n/a
27.251	7.1805	54502	prompt	n/a	nickel homes specifies streaming\n
27.9495	0.059	55899	keystroke_n	n	n/a
28.039	0.135	56078	keystroke_i	i	n/a
28.159	0.135	56318	keystroke_c	c	n/a
28.279	0.15	56558	keystroke_k	k	n/a
28.444	0.1205	56888	keystroke_e	e	n/a
28.579	0.165	57158	keystroke_l	l	n/a
28.909	0.09	57818	keystroke_Key.space	Key.space	n/a
29.194	0.09	58388	keystroke_h	h	n/a
29.269	0.12	58538	keystroke_o	o	n/a
29.419	0.135	58838	keystroke_m	m	n/a
29.524	0.165	59048	keystroke_e	e	n/a
29.629	0.105	59258	keystroke_s	s	n/a
29.749	0.0745	59498	keystroke_Key.space	Key.space	n/a
29.884	0.105	59768	keystroke_s	s	n/a
29.929	0.075	59858	keystroke_p	p	n/a
30.334	0.09	60668	keystroke_e	e	n/a
30.604	0.0895	61208	keystroke_c	c	n/a
30.6945	0.104	61389	keystroke_i	i	n/a
31.084	0.135	62168	keystroke_f	f	n/a
31.174	0.15	62348	keystroke_i	i	n/a
31.279	0.1355	62558	keystroke_e	e	n/a
31.354	0.165	62708	keystroke_s	s	n/a
31.549	0.1345	63098	keystroke_Key.space	Key.space	n/a
31.849	0.165	63698	keystroke_s	s	n/a
31.984	0.12	63968	keystroke_t	t	n/a
32.059	0.12	64118	keystroke_e	e	n/a
32.119	0.1655	64238	keystroke_a	a	n/a
32.2685	0.12	64537	keystroke_m	m	n/a
32.8835	0.0305	65767	keystroke_Key.backspace	Key.backspace	n/a
33.049	0.045	66098	keystroke_Key.backspace	Key.backspace	n/a
33.214	0.075	66428	keystroke_Key.backspace	Key.backspace	n/a
33.6795	0.1045	67359	keystroke_r	r	n/a
33.739	0.1205	67478	keystroke_e	e	n/a
33.814	0.15	67628	keystroke_a	a	n/a
33.904	0.1045	67808	keystroke_m	m	n/a
34.0835	0.0755	68167	keystroke_i	i	n/a
34.1295	0.1195	68259	keystroke_n	n	n/a
34.2035	0.0755	68407	keystroke_g	g	n/a
34.3535	0.075	68707	keystroke_Key.enter	Key.enter	n/a
34.436	5.6355	68872	prompt	n/a	eating addressing reliance ridge\n
35.089	0.1195	70178	keystroke_e	e	n/a
35.374	0.15	70748	keystroke_a	a	n/a
35.539	0.09	71078	keystroke_t	t	n/a
35.6435	0.09	71287	keystroke_i	i	n/a
35.749	0.1195	71498	keystroke_n	n	n/a
35.8545	0.1045	71709	keystroke_g	g	n/a
36.019	0.12	72038	keystroke_Key.space	Key.space	n/a
36.274	0.18	72548	keystroke_a	a	n/a
36.439	0.09	72878	keystroke_d	d	n/a
36.634	0.1495	73268	keystroke_d	d	n/a
36.8445	0.1045	73689	keystroke_r	r	n/a
36.904	0.1345	73808	keystroke_e	e	n/a
37.024	0.09	74048	keystroke_s	s	n/a
37.2185	0.1355	74437	keystroke_s	s	n/a
37.369	0.09	74738	keystroke_i	i	n/a
37.444	0.15	74888	keystroke_n	n	n/a
37.564	0.075	75128	keystroke_g	g	n/a
37.714	0.135	75428	keystroke_Key.space	Key.space	n/a
37.819	0.09	75638	keystroke_r	r	n/a
37.864	0.135	75728	keystroke_e	e	n/a
38.089	0.165	76178	keystroke_l	l	n/a
38.254	0.12	76508	keystroke_a	a	n/a
38.554	0.1495	77108	keystroke_n	n	n/a
38.7495	0.104	77499	keystroke_c	c	n/a
38.974	0.1055	77948	keystroke_e	e	n/a
39.1085	0.105	78217	keystroke_Key.space	Key.space	n/a
39.3335	0.09	78667	keystroke_r	r	n/a
39.4085	0.15	78817	keystroke_i	i	n/a
39.544	0.1795	79088	keystroke_d	d	n/a
39.7095	0.1495	79419	keystroke_g	g	n/a
39.814	0.12	79628	keystroke_e	e	n/a
39.979	0.09	79958	keystroke_Key.enter	Key.enter	n/a
40.0775	5.5585	80155	prompt	n/a	you'll power morgan hitting\n
41.1035	0.166	82207	keystroke_y	y	n/a
41.1045	0.1045	82209	keystroke_o	o	n/a
41.989	0.12	83978	keystroke_u	u	n/a
42.304	0.18	84608	keystroke_'	'	n/a
42.439	0.12	84878	keystroke_l	l	n/a
42.664	0.12	85328	keystroke_l	l	n/a
42.8435	0.1055	85687	keystroke_Key.space	Key.space	n/a
43.0695	0.0745	86139	keystroke_p	p	n/a
43.2485	0.09	86497	keystroke_o	o	n/a
43.324	0.1805	86648	keystroke_w	w	n/a
43.4285	0.151	86857	keystroke_e	e	n/a
43.5185	0.1355	87037	keystroke_r	r	n/a
43.6835	0.12	87367	keystroke_Key.space	Key.space	n/a
43.819	0.0755	87638	keystroke_m	m	n/a
43.939	0.1195	87878	keystroke_o	o	n/a
44.0885	0.0905	88177	keystroke_r	r	n/a
44.299	0.0905	88598	keystroke_g	g	n/a
44.419	0.15	88838	keystroke_a	a	n/a
44.524	0.1205	89048	keystroke_n	n	n/a
44.7485	0.03	89497	keystroke_Key.space	Key.space	n/a
44.8235	0.1205	89647	keystroke_h	h	n/a
44.914	0.1345	89828	keystroke_i	i	n/a
45.0035	0.0755	90007	keystroke_t	t	n/a
45.1845	0.09	90369	keystroke_t	t	n/a
45.2595	0.1045	90519	keystroke_i	i	n/a
45.3645	0.1045	90729	keystroke_n	n	n/a
45.4235	0.0905	90847	keystroke_g	g	n/a
45.544	0.0895	91088	keystroke_Key.enter	Key.enter	n/a
45.645	6.006	91290	prompt	n/a	danger adults explorer even\n
46.294	0.1955	92588	keystroke_d	d	n/a
46.474	0.1345	92948	keystroke_a	a	n/a
46.5335	0.1355	93067	keystroke_n	n	n/a
46.6695	0.0745	93339	keystroke_g	g	n/a
46.804	0.1355	93608	keystroke_e	e	n/a
46.894	0.09	93788	keystroke_r	r	n/a
47.134	0.135	94268	keystroke_Key.space	Key.space	n/a
47.344	0.15	94688	keystroke_a	a	n/a
47.464	0.165	94928	keystroke_d	d	n/a
47.659	0.105	95318	keystroke_u	u	n/a
47.824	0.165	95648	keystroke_l	l	n/a
47.914	0.12	95828	keystroke_t	t	n/a
47.974	0.135	95948	keystroke_s	s	n/a
48.139	0.12	96278	keystroke_Key.space	Key.space	n/a
48.4845	0.0895	96969	keystroke_e	e	n/a
48.7395	0.134	97479	keystroke_x	x	n/a
49.1895	0.1495	98379	keystroke_p	p	n/a
49.3685	0.15	98737	keystroke_l	l	n/a
49.579	0.1345	99158	keystroke_o	o	n/a
49.8495	0.134	99699	keystroke_r	r	n/a
50.1935	0.165	100387	keystroke_e	e	n/a
50.2985	0.1955	100597	keystroke_r	r	n/a
50.674	0.1345	101348	keystroke_Key.space	Key.space	n/a
50.9895	0.119	101979	keystroke_e	e	n/a
51.1695	0.119	102339	keystroke_v	v	n/a
51.2745	0.134	102549	keystroke_e	e	n/a
51.3795	0.12	102759	keystroke_n	n	n/a
51.5745	0.074	103149	keystroke_Key.enter	Key.enter	n/a
51.655	7.4665	103310	prompt	n/a	toshiba involved especially empirical\n
52.519	0.12	105038	keystroke_t	t	n/a
52.624	0.0905	105248	keystroke_o	o	n/a
52.7745	0.1645	105549	keystroke_s	s	n/a
52.9245	0.1045	105849	keystroke_h	h	n/a
52.999	0.1205	105998	keystroke_i	i	n/a
53.134	0.09	106268	keystroke_b	b	n/a
53.254	0.105	106508	keystroke_a	a	n/a
53.374	0.12	106748	keystroke_Key.space	Key.space	n/a
53.539	0.105	107078	keystroke_i	i	n/a
53.659	0.12	107318	keystroke_n	n	n/a
53.794	0.105	107588	keystroke_v	v	n/a
53.914	0.09	107828	keystroke_o	o	n/a
54.154	0.1055	108308	keystroke_l	l	n/a
54.529	0.1345	109058	keystroke_v	v	n/a
54.6945	0.119	109389	keystroke_e	e	n/a
54.949	0.1355	109898	keystroke_d	d	n/a
55.1435	0.136	110287	keystroke_Key.space	Key.space	n/a
55.4295	0.21	110859	keystroke_e	e	n/a
55.5795	0.15	111159	keystroke_s	s	n/a
55.744	0.0755	111488	keystroke_p	p	n/a
55.8495	0.09	111699	keystroke_e	e	n/a
56.0745	0.119	112149	keystroke_c	c	n/a
56.1495	0.135	112299	keystroke_i	i	n/a
56.2535	0.15	112507	keystroke_a	a	n/a
56.3735	0.075	112747	keystroke_l	l	n/a
56.569	0.1205	113138	keystroke_l	l	n/a
56.854	0.1205	113708	keystroke_y	y	n/a
57.0935	0.12	114187	keystroke_Key.space	Key.space	n/a
57.304	0.1355	114608	keystroke_e	e	n/a
57.4545	0.12	114909	keystroke_m	m	n/a
57.635	0.1045	115270	keystroke_p	p	n/a
57.9335	0.1505	115867	keystroke_i	i	n/a
58.249	0.1205	116498	keystroke_r	r	n/a
58.414	0.165	116828	keystroke_i	i	n/a
58.669	0.1495	117338	keystroke_c	c	n/a
58.8045	0.12	117609	keystroke_a	a	n/a
58.8335	0.136	117667	keystroke_l	l	n/a
59.059	0.06	118118	keystroke_Key.enter	Key.enter	n/a
59.126	8.02	118252	prompt	n/a	albany electricity protest worm\n
59.8395	0.12	119679	keystroke_a	a	n/a
59.9435	0.136	119887	keystroke_l	l	n/a
60.0945	0.135	120189	keystroke_b	b	n/a
60.2595	0.1795	120519	keystroke_a	a	n/a
60.4535	0.15	120907	keystroke_n	n	n/a
60.7395	0.09	121479	keystroke_y	y	n/a
61.0085	0.1505	122017	keystroke_Key.space	Key.space	n/a
61.2035	0.12	122407	keystroke_e	e	n/a
61.3385	0.15	122677	keystroke_l	l	n/a
61.429	0.1205	122858	keystroke_e	e	n/a
61.699	0.105	123398	keystroke_c	c	n/a
61.894	0.06	123788	keystroke_t	t	n/a
62.089	0.075	124178	keystroke_r	r	n/a
62.209	0.135	124418	keystroke_i	i	n/a
62.689	0.105	125378	keystroke_c	c	n/a
62.809	0.105	125618	keystroke_i	i	n/a
63.0485	0.1355	126097	keystroke_t	t	n/a
63.2145	0.0895	126429	keystroke_y	y	n/a
63.424	0.1045	126848	keystroke_Key.space	Key.space	n/a
63.589	0.1045	127178	keystroke_p	p	n/a
63.7085	0.135	127417	keystroke_r	r	n/a
64.114	0.09	128228	keystroke_o	o	n/a
64.3845	0.165	128769	keystroke_r	r	n/a
64.4895	0.1495	128979	keystroke_e	e	n/a
64.579	0.1355	129158	keystroke_s	s	n/a
64.669	0.135	129338	keystroke_t	t	n/a
64.999	0.06	129998	keystroke_Key.backspace	Key.backspace	n/a
65.224	0.06	130448	keystroke_Key.backspace	Key.backspace	n/a
65.374	0.135	130748	keystroke_t	t	n/a
65.824	0.075	131648	keystroke_Key.backspace	Key.backspace	n/a
65.974	0.15	131948	keystroke_s	s	n/a
66.094	0.135	132188	keystroke_t	t	n/a
66.349	0.12	132698	keystroke_Key.space	Key.space	n/a
66.5885	0.1355	133177	keystroke_w	w	n/a
66.6485	0.12	133297	keystroke_o	o	n/a
66.7545	0.089	133509	keystroke_r	r	n/a
66.8595	0.104	133719	keystroke_m	m	n/a
67.0395	0.104	134079	keystroke_Key.enter	Key.enter	n/a
67.15	7.9615	134300	prompt	n/a	province commissioners periods specific\n
68.164	0.135	136328	keystroke_p	p	n/a
68.314	0.105	136628	keystroke_r	r	n/a
68.449	0.105	136898	keystroke_o	o	n/a
68.6885	0.135	137377	keystroke_v	v	n/a
68.8535	0.105	137707	keystroke_i	i	n/a
68.9735	0.135	137947	keystroke_n	n	n/a
69.0635	0.105	138127	keystroke_c	c	n/a
69.289	0.12	138578	keystroke_e	e	n/a
69.454	0.15	138908	keystroke_Key.space	Key.space	n/a
69.634	0.12	139268	keystroke_c	c	n/a
69.664	0.105	139328	keystroke_o	o	n/a
69.799	0.09	139598	keystroke_m	m	n/a
69.9945	0.0895	139989	keystroke_m	m	n/a
70.189	0.09	140378	keystroke_i	i	n/a
70.294	0.105	140588	keystroke_s	s	n/a
70.489	0.135	140978	keystroke_s	s	n/a
70.579	0.12	141158	keystroke_i	i	n/a
70.6695	0.105	141339	keystroke_o	o	n/a
70.759	0.105	141518	keystroke_n	n	n/a
71.104	0.2855	142208	keystroke_e	e	n/a
71.194	0.1645	142388	keystroke_r	r	n/a
71.314	0.15	142628	keystroke_s	s	n/a
71.5085	0.105	143017	keystroke_Key.space	Key.space	n/a
71.719	0.1045	143438	keystroke_p	p	n/a
71.7785	0.2105	143557	keystroke_e	e	n/a
71.869	0.151	143738	keystroke_r	r	n/a
72.1095	0.0905	144219	keystroke_i	i	n/a
72.184	0.165	144368	keystroke_o	o	n/a
72.813	0.271	145626	keystroke_d	d	n/a
72.994	0.1655	145988	keystroke_s	s	n/a
73.2195	0.134	146439	keystroke_Key.space	Key.space	n/a
73.3385	0.165	146677	keystroke_s	s	n/a
73.4735	0.105	146947	keystroke_p	p	n/a
73.5635	0.09	147127	keystroke_e	e	n/a
73.9845	0.135	147969	keystroke_c	c	n/a
74.1345	0.104	148269	keystroke_i	i	n/a
74.2235	0.106	148447	keystroke_f	f	n/a
74.3435	0.136	148687	keystroke_i	i	n/a
74.524	0.105	149048	keystroke_c	c	n/a
75.0195	0.09	150039	keystroke_Key.enter	Key.enter	n/a
75.117	7.314	150234	prompt	n/a	accountability hoping baking promotions\n
75.7535	0.076	151507	keystroke_a	a	n/a
75.9345	0.105	151869	keystroke_c	c	n/a
76.1595	0.105	152319	keystroke_c	c	n/a
76.2795	0.1495	152559	keystroke_o	o	n/a
76.399	0.0905	152798	keystroke_u	u	n/a
76.624	0.1355	153248	keystroke_n	n	n/a
76.714	0.09	153428	keystroke_t	t	n/a
76.864	0.18	153728	keystroke_a	a	n/a
77.224	0.1355	154448	keystroke_b	b	n/a
77.374	0.09	154748	keystroke_i	i	n/a
77.479	0.075	154958	keystroke_l	l	n/a
78.4845	0.15	156969	keystroke_i	i	n/a
78.6485	0.12	157297	keystroke_t	t	n/a
78.7845	0.06	157569	keystroke_y	y	n/a
78.9935	0.12	157987	keystroke_Key.space	Key.space	n/a
79.0995	0.12	158199	keystroke_h	h	n/a
79.1885	0.1505	158377	keystroke_o	o	n/a
79.2495	0.1345	158499	keystroke_p	p	n/a
79.3985	0.1505	158797	keystroke_i	i	n/a
79.5185	0.1655	159037	keystroke_n	n	n/a
79.669	0.105	159338	keystroke_g	g	n/a
79.8035	0.15	159607	keystroke_Key.space	Key.space	n/a
79.9695	0.09	159939	keystroke_b	b	n/a
80.0895	0.119	160179	keystroke_a	a	n/a
80.1345	0.0895	160269	keystroke_k	k	n/a
80.3135	0.135	160627	keystroke_i	i	n/a
80.434	0.1795	160868	keystroke_n	n	n/a
80.5535	0.1055	161107	keystroke_g	g	n/a
80.7635	0.1205	161527	keystroke_Key.space	Key.space	n/a
81.1545	0.105	162309	keystroke_p	p	n/a
81.2895	0.12	162579	keystroke_r	r	n/a
81.3945	0.105	162789	keystroke_o	o	n/a
81.5445	0.104	163089	keystroke_m	m	n/a
81.6645	0.09	163329	keystroke_o	o	n/a
81.7695	0.15	163539	keystroke_t	t	n/a
81.9345	0.1495	163869	keystroke_i	i	n/a
82.054	0.105	164108	keystroke_o	o	n/a
82.1445	0.09	164289	keystroke_n	n	n/a
82.204	0.12	164408	keystroke_s	s	n/a
82.3545	0.075	164709	keystroke_Key.enter	Key.enter	n/a
82.436	6.4305	164872	prompt	n/a	purchasing jesus fault necessary\n
83.2535	0.15	166507	keystroke_p	p	n/a
83.3895	0.1495	166779	keystroke_u	u	n/a
83.509	0.105	167018	keystroke_r	r	n/a
83.7935	0.076	167587	keystroke_c	c	n/a
83.854	0.105	167708	keystroke_h	h	n/a
84.0035	0.2105	168007	keystroke_a	a	n/a
84.1085	0.18	168217	keystroke_s	s	n/a
84.274	0.1045	168548	keystroke_i	i	n/a
84.394	0.12	168788	keystroke_n	n	n/a
84.484	0.075	168968	keystroke_g	g	n/a
84.6335	0.1055	169267	keystroke_Key.space	Key.space	n/a
84.694	0.195	169388	keystroke_j	j	n/a
84.769	0.1505	169538	keystroke_e	e	n/a
84.874	0.12	169748	keystroke_s	s	n/a
85.084	0.1355	170168	keystroke_u	u	n/a
85.2035	0.165	170407	keystroke_s	s	n/a
85.399	0.135	170798	keystroke_Key.space	Key.space	n/a
85.5935	0.12	171187	keystroke_f	f	n/a
85.759	0.2105	171518	keystroke_a	a	n/a
85.924	0.1045	171848	keystroke_u	u	n/a
86.0585	0.151	172117	keystroke_l	l	n/a
86.1485	0.121	172297	keystroke_t	t	n/a
86.3135	0.12	172627	keystroke_Key.space	Key.space	n/a
86.5835	0.1505	173167	keystroke_n	n	n/a
86.6595	0.089	173319	keystroke_e	e	n/a
86.9135	0.091	173827	keystroke_c	c	n/a
87.1545	0.135	174309	keystroke_e	e	n/a
87.3935	0.09	174787	keystroke_s	s	n/a
87.6345	0.0745	175269	keystroke_a	a	n/a
88.0395	0.089	176079	keystroke_Key.backspace	Key.backspace	n/a
88.1595	0.1645	176319	keystroke_s	s	n/a
88.354	0.1205	176708	keystroke_a	a	n/a
88.429	0.1055	176858	keystroke_r	r	n/a
88.5495	0.0595	177099	keystroke_y	y	n/a
88.789	0.0745	177578	keystroke_Key.enter	Key.enter	n/a
88.871	4.8245	177742	prompt	n/a	sitting fully conclusion wire\n
89.464	0.18	178928	keystroke_s	s	n/a
89.614	0.15	179228	keystroke_i	i	n/a
89.749	0.09	179498	keystroke_t	t	n/a
89.929	0.105	179858	keystroke_t	t	n/a
90.019	0.15	180038	keystroke_i	i	n/a
90.154	0.135	180308	keystroke_n	n	n/a
90.259	0.0905	180518	keystroke_g	g	n/a
90.4535	0.105	180907	keystroke_Key.space	Key.space	n/a
90.5435	0.165	181087	keystroke_f	f	n/a
90.6495	0.09	181299	keystroke_u	u	n/a
90.7835	0.105	181567	keystroke_l	l	n/a
90.9935	0.0905	181987	keystroke_l	l	n/a
91.1895	0.075	182379	keystroke_y	y	n/a
91.4135	0.135	182827	keystroke_Key.space	Key.space	n/a
91.579	0.15	183158	keystroke_c	c	n/a
91.699	0.105	183398	keystroke_o	o	n/a
91.864	0.165	183728	keystroke_n	n	n/a
92.074	0.15	184148	keystroke_c	c	n/a
92.254	0.1205	184508	keystroke_l	l	n/a
92.434	0.075	184868	keystroke_u	u	n/a
92.539	0.135	185078	keystroke_s	s	n/a
92.719	0.15	185438	keystroke_i	i	n/a
92.8545	0.0595	185709	keystroke_o	o	n/a
92.899	0.1355	185798	keystroke_n	n	n/a
93.109	0.12	186218	keystroke_Key.space	Key.space	n/a
93.199	0.165	186398	keystroke_w	w	n/a
93.289	0.135	186578	keystroke_i	i	n/a
93.379	0.135	186758	keystroke_r	r	n/a
93.469	0.12	186938	keystroke_e	e	n/a
93.604	0.0905	187208	keystroke_Key.enter	Key.enter	n/a
93.701	5.7395	187402	prompt	n/a	hate surrounded tones charles\n
94.369	0.12	188738	keystroke_h	h	n/a
94.459	0.135	188918	keystroke_a	a	n/a
94.549	0.12	189098	keystroke_t	t	n/a
94.624	0.105	189248	keystroke_e	e	n/a
94.759	0.1655	189518	keystroke_Key.space	Key.space	n/a
94.909	0.1355	189818	keystroke_s	s	n/a
95.059	0.09	190118	keystroke_u	u	n/a
95.164	0.06	190328	keystroke_r	r	n/a
95.329	0.075	190658	keystroke_r	r	n/a
95.434	0.105	190868	keystroke_i	i	n/a
95.524	0.135	191048	keystroke_o	o	n/a
95.9595	0.0445	191919	keystroke_Key.backspace	Key.backspace	n/a
96.109	0.09	192218	keystroke_Key.backspace	Key.backspace	n/a
96.364	0.135	192728	keystroke_o	o	n/a
96.4545	0.12	192909	keystroke_u	u	n/a
96.6045	0.134	193209	keystroke_s	s	n/a
97.0235	0.09	194047	keystroke_Key.backspace	Key.backspace	n/a
97.2945	0.119	194589	keystroke_n	n	n/a
97.399	0.1205	194798	keystroke_d	d	n/a
97.5935	0.09	195187	keystroke_e	e	n/a
97.7895	0.1345	195579	keystroke_d	d	n/a
97.9395	0.1345	195879	keystroke_Key.space	Key.space	n/a
98.044	0.1205	196088	keystroke_t	t	n/a
98.1185	0.076	196237	keystroke_o	o	n/a
98.209	0.1195	196418	keystroke_n	n	n/a
98.2385	0.1805	196477	keystroke_e	e	n/a
98.3435	0.09	196687	keystroke_s	s	n/a
98.464	0.1055	196928	keystroke_Key.space	Key.space	n/a
98.5835	0.106	197167	keystroke_c	c	n/a
98.6585	0.121	197317	keystroke_h	h	n/a
98.7645	0.135	197529	keystroke_a	a	n/a
98.8385	0.121	197677	keystroke_r	r	n/a
99.0195	0.18	198039	keystroke_l	l	n/a
99.1385	0.181	198277	keystroke_e	e	n/a
99.2295	0.15	198459	keystroke_s	s	n/a
99.3645	0.075	198729	keystroke_Key.enter	Key.enter	n/a
99.443	5.878	198886	prompt	n/a	loan myers webmasters you'll\n
100.084	0.105	200168	keystroke_l	l	n/a
100.294	0.135	200588	keystroke_o	o	n/a
100.399	0.1355	200798	keystroke_a	a	n/a
100.5195	0.135	201039	keystroke_n	n	n/a
100.7885	0.106	201577	keystroke_Key.space	Key.space	n/a
101.3295	0.0895	202659	keystroke_m	m	n/a
101.584	0.0605	203168	keystroke_y	y	n/a
102.0945	0.195	204189	keystroke_e	e	n/a
102.2145	0.15	204429	keystroke_r	r	n/a
102.4085	0.1355	204817	keystroke_s	s	n/a
102.5895	0.1195	205179	keystroke_Key.space	Key.space	n/a
102.724	0.12	205448	keystroke_w	w	n/a
102.7995	0.15	205599	keystroke_e	e	n/a
103.024	0.1205	206048	keystroke_b	b	n/a
103.3395	0.135	206679	keystroke_m	m	n/a
103.4745	0.1345	206949	keystroke_a	a	n/a
103.594	0.1505	207188	keystroke_s	s	n/a
103.7295	0.075	207459	keystroke_t	t	n/a
103.8345	0.225	207669	keystroke_e	e	n/a
103.939	0.105	207878	keystroke_r	r	n/a
104.014	0.1345	208028	keystroke_s	s	n/a
104.1785	0.0755	208357	keystroke_Key.space	Key.space	n/a
104.3585	0.091	208717	keystroke_y	y	n/a
104.4185	0.1955	208837	keystroke_o	o	n/a
104.539	0.09	209078	keystroke_u	u	n/a
104.7645	0.1045	209529	keystroke_'	'	n/a
104.8395	0.1195	209679	keystroke_l	l	n/a
105.049	0.12	210098	keystroke_l	l	n/a
105.259	0.0605	210518	keystroke_Key.enter	Key.enter	n/a
105.326	4.7055	210652	prompt	n/a	stood headline island label\n
105.9345	0.135	211869	keystroke_s	s	n/a
106.0845	0.09	212169	keystroke_t	t	n/a
106.1895	0.06	212379	keystroke_o	o	n/a
106.3545	0.09	212709	keystroke_o	o	n/a
106.4295	0.1495	212859	keystroke_d	d	n/a
106.5945	0.0895	213189	keystroke_Key.space	Key.space	n/a
106.714	0.1505	213428	keystroke_h	h	n/a
106.789	0.12	213578	keystroke_e	e	n/a
106.8495	0.165	213699	keystroke_a	a	n/a
106.999	0.075	213998	keystroke_l	l	n/a
107.359	0.0755	214718	keystroke_Key.backspace	Key.backspace	n/a
107.464	0.15	214928	keystroke_d	d	n/a
107.6895	0.1645	215379	keystroke_l	l	n/a
107.824	0.1055	215648	keystroke_i	i	n/a
107.944	0.12	215888	keystroke_n	n	n/a
108.0045	0.0745	216009	keystroke_e	e	n/a
108.2135	0.151	216427	keystroke_Key.space	Key.space	n/a
108.4095	0.15	216819	keystroke_i	i	n/a
108.5445	0.105	217089	keystroke_s	s	n/a
108.6495	0.18	217299	keystroke_l	l	n/a
108.7845	0.165	217569	keystroke_a	a	n/a
108.9045	0.1495	217809	keystroke_n	n	n/a
108.9645	0.1195	217929	keystroke_d	d	n/a
109.1295	0.119	218259	keystroke_Key.space	Key.space	n/a
109.2345	0.15	218469	keystroke_l	l	n/a
109.3995	0.105	218799	keystroke_a	a	n/a
109.5495	0.105	219099	keystroke_b	b	n/a
109.7285	0.105	219457	keystroke_e	e	n/a
109.7435	0.1505	219487	keystroke_l	l	n/a
109.9395	0.089	219879	keystroke_Key.enter	Key.enter	n/a
110.0355	7.5105	220071	prompt	n/a	nelson tunnel geographical orlando\n
110.7195	0.1045	221439	keystroke_n	n	n/a
110.854	0.15	221708	keystroke_e	e	n/a
111.214	0.1655	222428	keystroke_l	l	n/a
111.38	0.149	222760	keystroke_s	s	n/a
111.499	0.09	222998	keystroke_o	o	n/a
111.604	0.1055	223208	keystroke_n	n	n/a
111.7995	0.1345	223599	keystroke_Key.space	Key.space	n/a
111.964	0.1355	223928	keystroke_t	t	n/a
112.084	0.0905	224168	keystroke_u	u	n/a
112.4435	0.091	224887	keystroke_n	n	n/a
112.6235	0.091	225247	keystroke_n	n	n/a
112.7295	0.12	225459	keystroke_e	e	n/a
112.8945	0.12	225789	keystroke_l	l	n/a
113.119	0.1495	226238	keystroke_Key.space	Key.space	n/a
113.3745	0.09	226749	keystroke_g	g	n/a
113.4945	0.1495	226989	keystroke_e	e	n/a
113.719	0.1055	227438	keystroke_o	o	n/a
114.3185	0.121	228637	keystroke_p	p	n/a
114.7685	0.0605	229537	keystroke_Key.backspace	Key.backspace	n/a
114.9645	0.075	229929	keystroke_g	g	n/a
115.1595	0.0895	230319	keystroke_r	r	n/a
115.2495	0.195	230499	keystroke_a	a	n/a
115.4145	0.12	230829	keystroke_p	p	n/a
115.5945	0.135	231189	keystroke_h	h	n/a
115.7135	0.166	231427	keystroke_i	i	n/a
115.8335	0.121	231667	keystroke_c	c	n/a
115.94	0.1635	231880	keystroke_a	a	n/a
116.0295	0.149	232059	keystroke_l	l	n/a
116.2095	0.074	232419	keystroke_Key.space	Key.space	n/a
116.329	0.09	232658	keystroke_o	o	n/a
116.449	0.0755	232898	keystroke_r	r	n/a
116.614	0.135	233228	keystroke_l	l	n/a
116.719	0.12	233438	keystroke_a	a	n/a
116.84	0.134	233680	keystroke_n	n	n/a
116.884	0.12	233768	keystroke_d	d	n/a
117.124	0.1355	234248	keystroke_o	o	n/a
117.469	0.076	234938	keystroke_Key.enter	Key.enter	n/a
117.5535	6.3375	235107	prompt	n/a	intermediate media orbit crawford\n
118.2195	0.1045	236439	keystroke_i	i	n/a
118.325	0.149	236650	keystroke_n	n	n/a
118.354	0.105	236708	keystroke_t	t	n/a
118.519	0.1205	237038	keystroke_e	e	n/a
118.5945	0.105	237189	keystroke_r	r	n/a
118.79	0.1495	237580	keystroke_m	m	n/a
118.879	0.1345	237758	keystroke_e	e	n/a
119.149	0.1045	238298	keystroke_d	d	n/a
119.2235	0.136	238447	keystroke_i	i	n/a
119.3295	0.15	238659	keystroke_a	a	n/a
119.4495	0.12	238899	keystroke_t	t	n/a
119.5085	0.121	239017	keystroke_e	e	n/a
119.6885	0.12	239377	keystroke_Key.space	Key.space	n/a
119.9895	0.045	239979	keystroke_m	m	n/a
120.0045	0.06	240009	keystroke_e	e	n/a
120.1995	0.09	240399	keystroke_d	d	n/a
120.2595	0.15	240519	keystroke_i	i	n/a
120.3945	0.12	240789	keystroke_a	a	n/a
120.5445	0.1645	241089	keystroke_Key.space	Key.space	n/a
120.859	0.1055	241718	keystroke_b	b	n/a
121.249	0.0445	242498	keystroke_Key.backspace	Key.backspace	n/a
121.4745	0.1045	242949	keystroke_o	o	n/a
121.7295	0.105	243459	keystroke_r	r	n/a
122.0595	0.0595	244119	keystroke_b	b	n/a
122.314	0.135	244628	keystroke_i	i	n/a
122.419	0.0905	244838	keystroke_t	t	n/a
122.5395	0.1645	245079	keystroke_Key.space	Key.space	n/a
122.689	0.135	245378	keystroke_c	c	n/a
122.854	0.12	245708	keystroke_r	r	n/a
122.959	0.195	245918	keystroke_a	a	n/a
123.0795	0.15	246159	keystroke_w	w	n/a
123.349	0.1205	246698	keystroke_f	f	n/a
123.454	0.135	246908	keystroke_o	o	n/a
123.559	0.105	247118	keystroke_r	r	n/a
123.634	0.1355	247268	keystroke_d	d	n/a
123.799	0.09	247598	keystroke_Key.enter	Key.enter	n/a
123.896	5.3505	247792	prompt	n/a	leaf toolkit freelance hostel\n
124.534	0.135	249068	keystroke_l	l	n/a
124.564	0.12	249128	keystroke_e	e	n/a
124.654	0.1355	249308	keystroke_a	a	n/a
124.8045	0.1495	249609	keystroke_f	f	n/a
125.029	0.135	250058	keystroke_Key.space	Key.space	n/a
125.2995	0.0745	250599	keystroke_t	t	n/a
125.3595	0.0745	250719	keystroke_o	o	n/a
125.539	0.1055	251078	keystroke_o	o	n/a
125.7795	0.1645	251559	keystroke_l	l	n/a
126.094	0.09	252188	keystroke_k	k	n/a
126.274	0.1205	252548	keystroke_i	i	n/a
126.349	0.09	252698	keystroke_t	t	n/a
126.484	0.135	252968	keystroke_Key.space	Key.space	n/a
126.604	0.09	253208	keystroke_f	f	n/a
126.814	0.165	253628	keystroke_r	r	n/a
126.9495	0.1045	253899	keystroke_e	e	n/a
127.1285	0.121	254257	keystroke_e	e	n/a
127.309	0.1805	254618	keystroke_l	l	n/a
127.4445	0.135	254889	keystroke_a	a	n/a
127.5935	0.136	255187	keystroke_n	n	n/a
127.6995	0.074	255399	keystroke_c	c	n/a
127.8935	0.091	255787	keystroke_e	e	n/a
128.059	0.1345	256118	keystroke_Key.space	Key.space	n/a
128.4645	0.105	256929	keystroke_h	h	n/a
128.5845	0.1045	257169	keystroke_o	o	n/a
128.674	0.18	257348	keystroke_s	s	n/a
128.7945	0.194	257589	keystroke_t	t	n/a
128.9135	0.151	257827	keystroke_e	e	n/a
129.0035	0.105	258007	keystroke_l	l	n/a
129.1695	0.0745	258339	keystroke_Key.enter	Key.enter	n/a
129.2505	4.2105	258501	prompt	n/a	web hold lucas swap\n
129.8895	0.164	259779	keystroke_w	w	n/a
129.9645	0.135	259929	keystroke_e	e	n/a
130.1145	0.09	260229	keystroke_b	b	n/a
130.3535	0.1355	260707	keystroke_Key.space	Key.space	n/a
130.534	0.0605	261068	keystroke_d	d	n/a
130.5945	0.044	261189	keystroke_h	h	n/a
130.909	0.045	261818	keystroke_Key.backspace	Key.backspace	n/a
131.059	0.06	262118	keystroke_Key.backspace	Key.backspace	n/a
131.2995	0.105	262599	keystroke_h	h	n/a
131.4185	0.06	262837	keystroke_o	o	n/a
131.614	0.1505	263228	keystroke_l	l	n/a
131.689	0.12	263378	keystroke_d	d	n/a
131.824	0.12	263648	keystroke_Key.space	Key.space	n/a
131.974	0.1205	263948	keystroke_l	l	n/a
132.124	0.105	264248	keystroke_u	u	n/a
132.229	0.105	264458	keystroke_c	c	n/a
132.349	0.21	264698	keystroke_a	a	n/a
132.4695	0.1195	264939	keystroke_s	s	n/a
132.604	0.105	265208	keystroke_Key.space	Key.space	n/a
132.694	0.12	265388	keystroke_s	s	n/a
132.904	0.1505	265808	keystroke_w	w	n/a
133.0095	0.1795	266019	keystroke_a	a	n/a
133.159	0.06	266318	keystroke_p	p	n/a
133.3995	0.0595	266799	keystroke_Key.enter	Key.enter	n/a
133.466	8.11	266932	prompt	n/a	achievements pillow translated centuries\n
134.1645	0.1495	268329	keystroke_a	a	n/a
134.359	0.135	268718	keystroke_c	c	n/a
134.449	0.12	268898	keystroke_h	h	n/a
134.554	0.12	269108	keystroke_i	i	n/a
134.659	0.121	269318	keystroke_e	e	n/a
135.0045	0.1195	270009	keystroke_v	v	n/a
135.484	0.15	270968	keystroke_e	e	n/a
135.769	0.12	271538	keystroke_m	m	n/a
135.8745	0.12	271749	keystroke_e	e	n/a
136.009	0.135	272018	keystroke_n	n	n/a
136.054	0.135	272108	keystroke_t	t	n/a
136.159	0.135	272318	keystroke_s	s	n/a
136.324	0.09	272648	keystroke_Key.space	Key.space	n/a
136.594	0.1805	273188	keystroke_p	p	n/a
136.7445	0.135	273489	keystroke_i	i	n/a
136.9245	0.12	273849	keystroke_l	l	n/a
137.1495	0.09	274299	keystroke_l	l	n/a
137.329	0.1195	274658	keystroke_o	o	n/a
137.434	0.1205	274868	keystroke_w	w	n/a
137.569	0.1355	275138	keystroke_Key.space	Key.space	n/a
137.7195	0.0745	275439	keystroke_t	t	n/a
137.884	0.1355	275768	keystroke_r	r	n/a
138.034	0.195	276068	keystroke_a	a	n/a
138.244	0.15	276488	keystroke_n	n	n/a
138.559	0.1505	277118	keystroke_s	s	n/a
139.009	0.1655	278018	keystroke_l	l	n/a
139.084	0.165	278168	keystroke_a	a	n/a
139.2195	0.12	278439	keystroke_t	t	n/a
139.2945	0.12	278589	keystroke_e	e	n/a
139.5345	0.09	279069	keystroke_d	d	n/a
139.7145	0.135	279429	keystroke_Key.space	Key.space	n/a
140.014	0.015	280028	keystroke_c	c	n/a
140.1645	0.1495	280329	keystroke_e	e	n/a
140.2995	0.18	280599	keystroke_n	n	n/a
140.48	0.0895	280960	keystroke_t	t	n/a
140.6595	0.12	281319	keystroke_u	u	n/a
140.8095	0.09	281619	keystroke_r	r	n/a
141.2295	0.12	282459	keystroke_i	i	n/a
141.2885	0.165	282577	keystroke_e	e	n/a
141.379	0.1345	282758	keystroke_s	s	n/a
141.4985	0.0755	282997	keystroke_Key.enter	Key.enter	n/a
141.581	8.1845	283162	prompt	n/a	variation translations fundraising boston\n
142.414	0.105	284828	keystroke_v	v	n/a
142.549	0.21	285098	keystroke_a	a	n/a
142.774	0.105	285548	keystroke_r	r	n/a
142.9395	0.1345	285879	keystroke_i	i	n/a
143.075	0.164	286150	keystroke_a	a	n/a
143.225	0.104	286450	keystroke_t	t	n/a
143.344	0.0905	286688	keystroke_i	i	n/a
143.4195	0.1045	286839	keystroke_o	o	n/a
143.5095	0.15	287019	keystroke_n	n	n/a
143.749	0.12	287498	keystroke_Key.space	Key.space	n/a
143.989	0.09	287978	keystroke_t	t	n/a
144.199	0.105	288398	keystroke_r	r	n/a
144.289	0.165	288578	keystroke_a	a	n/a
144.438	0.1215	288876	keystroke_n	n	n/a
144.619	0.1655	289238	keystroke_s	s	n/a
145.1585	0.195	290317	keystroke_l	l	n/a
145.264	0.1345	290528	keystroke_a	a	n/a
145.4135	0.135	290827	keystroke_t	t	n/a
145.5345	0.105	291069	keystroke_i	i	n/a
145.609	0.135	291218	keystroke_o	o	n/a
145.729	0.1505	291458	keystroke_n	n	n/a
145.8045	0.12	291609	keystroke_s	s	n/a
145.9835	0.12	291967	keystroke_Key.space	Key.space	n/a
146.0735	0.1505	292147	keystroke_f	f	n/a
146.179	0.09	292358	keystroke_u	u	n/a
146.375	0.134	292750	keystroke_n	n	n/a
146.449	0.1505	292898	keystroke_d	d	n/a
147.004	0.105	294008	keystroke_r	r	n/a
147.11	0.164	294220	keystroke_a	a	n/a
147.244	0.151	294488	keystroke_i	i	n/a
147.3495	0.1345	294699	keystroke_s	s	n/a
147.7395	0.12	295479	keystroke_i	i	n/a
147.8445	0.1495	295689	keystroke_n	n	n/a
147.949	0.0755	295898	keystroke_g	g	n/a
148.099	0.135	296198	keystroke_Key.space	Key.space	n/a
148.279	0.1205	296558	keystroke_b	b	n/a
148.369	0.12	296738	keystroke_o	o	n/a
148.519	0.12	297038	keystroke_t	t	n/a
148.654	0.12	297308	keystroke_s	s	n/a
148.999	0.06	297998	keystroke_Key.backspace	Key.backspace	n/a
149.179	0.075	298358	keystroke_Key.backspace	Key.backspace	n/a
149.269	0.12	298538	keystroke_s	s	n/a
149.359	0.09	298718	keystroke_t	t	n/a
149.419	0.1055	298838	keystroke_o	o	n/a
149.5095	0.0895	299019	keystroke_n	n	n/a
149.6895	0.0745	299379	keystroke_Key.enter	Key.enter	n/a
149.7685	6.2375	299537	prompt	n/a	arrest loops example donated\n
150.3495	0.1645	300699	keystroke_a	a	n/a
150.4695	0.0895	300939	keystroke_r	r	n/a
150.6795	0.135	301359	keystroke_r	r	n/a
150.8735	0.226	301747	keystroke_e	e	n/a
150.9635	0.181	301927	keystroke_s	s	n/a
151.0845	0.135	302169	keystroke_t	t	n/a
151.2935	0.135	302587	keystroke_Key.space	Key.space	n/a
151.4295	0.12	302859	keystroke_l	l	n/a
151.6385	0.075	303277	keystroke_o	o	n/a
151.8185	0.195	303637	keystroke_o	o	n/a
151.9385	0.1055	303877	keystroke_p	p	n/a
152.059	0.135	304118	keystroke_s	s	n/a
152.224	0.09	304448	keystroke_Key.space	Key.space	n/a
152.464	0.105	304928	keystroke_e	e	n/a
152.7345	0.045	305469	keystroke_s	s	n/a
152.7495	0.09	305499	keystroke_x	x	n/a
153.244	0.06	306488	keystroke_Key.backspace	Key.backspace	n/a
153.424	0.105	306848	keystroke_Key.backspace	Key.backspace	n/a
153.604	0.1655	307208	keystroke_x	x	n/a
153.814	0.1655	307628	keystroke_a	a	n/a
153.9945	0.105	307989	keystroke_m	m	n/a
154.1895	0.06	308379	keystroke_p	p	n/a
154.2795	0.195	308559	keystroke_l	l	n/a
154.3845	0.12	308769	keystroke_e	e	n/a
154.5945	0.1495	309189	keystroke_Key.space	Key.space	n/a
155.1195	0.1345	310239	keystroke_d	d	n/a
155.179	0.076	310358	keystroke_o	o	n/a
155.269	0.135	310538	keystroke_n	n	n/a
155.3745	0.1795	310749	keystroke_a	a	n/a
155.524	0.105	311048	keystroke_t	t	n/a
155.5845	0.1195	311169	keystroke_e	e	n/a
155.824	0.1355	311648	keystroke_d	d	n/a
155.9445	0.059	311889	keystroke_Key.enter	Key.enter	n/a
156.01	5.681	312020	prompt	n/a	theory stem punch samba\n
156.724	0.12	313448	keystroke_t	t	n/a
156.859	0.105	313718	keystroke_h	h	n/a
156.934	0.135	313868	keystroke_e	e	n/a
157.084	0.12	314168	keystroke_o	o	n/a
157.2335	0.136	314467	keystroke_r	r	n/a
157.4595	0.074	314919	keystroke_y	y	n/a
157.6235	0.15	315247	keystroke_Key.space	Key.space	n/a
157.7435	0.1355	315487	keystroke_s	s	n/a
157.834	0.1355	315668	keystroke_t	t	n/a
157.9395	0.12	315879	keystroke_e	e	n/a
158.0285	0.106	316057	keystroke_m	m	n/a
158.509	0.09	317018	keystroke_p	p	n/a
158.8385	0.075	317677	keystroke_Key.backspace	Key.backspace	n/a
159.064	0.1045	318128	keystroke_Key.space	Key.space	n/a
159.2435	0.166	318487	keystroke_p	p	n/a
159.394	0.0895	318788	keystroke_u	u	n/a
159.6035	0.1205	319207	keystroke_n	n	n/a
159.7685	0.091	319537	keystroke_c	c	n/a
159.8745	0.12	319749	keystroke_h	h	n/a
160.0695	0.105	320139	keystroke_Key.space	Key.space	n/a
161.0595	0.1795	322119	keystroke_s	s	n/a
161.254	0.015	322508	keystroke_a	a	n/a
161.269	0.1655	322538	keystroke_m	m	n/a
161.4195	0.12	322839	keystroke_b	b	n/a
161.5245	0.15	323049	keystroke_a	a	n/a
161.6145	0.0745	323229	keystroke_Key.enter	Key.enter	n/a
161.6955	6.5955	323391	prompt	n/a	enquiries who'd category transfer\n
162.544	0.1355	325088	keystroke_e	e	n/a
162.694	0.1355	325388	keystroke_n	n	n/a
163.0085	0.076	326017	keystroke_q	q	n/a
163.1145	0.1195	326229	keystroke_u	u	n/a
163.219	0.1055	326438	keystroke_i	i	n/a
163.4445	0.135	326889	keystroke_r	r	n/a
163.5935	0.09	327187	keystroke_e	e	n/a
163.984	0.15	327968	keystroke_i	i	n/a
164.089	0.18	328178	keystroke_e	e	n/a
164.194	0.135	328388	keystroke_s	s	n/a
164.314	0.12	328628	keystroke_Key.space	Key.space	n/a
164.644	0.165	329288	keystroke_w	w	n/a
164.749	0.09	329498	keystroke_h	h	n/a
164.824	0.075	329648	keystroke_o	o	n/a
165.049	0.105	330098	keystroke_'	'	n/a
165.124	0.15	330248	keystroke_d	d	n/a
165.319	0.1195	330638	keystroke_Key.space	Key.space	n/a
165.5895	0.104	331179	keystroke_c	c	n/a
165.7095	0.18	331419	keystroke_a	a	n/a
165.8745	0.12	331749	keystroke_t	t	n/a
166.0235	0.1355	332047	keystroke_e	e	n/a
166.5495	0.12	333099	keystroke_g	g	n/a
166.6695	0.135	333339	keystroke_o	o	n/a
166.8195	0.0895	333639	keystroke_r	r	n/a
166.924	0.0755	333848	keystroke_y	y	n/a
167.1035	0.135	334207	keystroke_Key.space	Key.space	n/a
167.1945	0.075	334389	keystroke_t	t	n/a
167.3735	0.106	334747	keystroke_r	r	n/a
167.4495	0.164	334899	keystroke_a	a	n/a
167.5835	0.12	335167	keystroke_n	n	n/a
167.674	0.1055	335348	keystroke_s	s	n/a
167.839	0.105	335678	keystroke_f	f	n/a
167.9885	0.1355	335977	keystroke_e	e	n/a
168.0635	0.1055	336127	keystroke_r	r	n/a
168.1985	0.09	336397	keystroke_Key.enter	Key.enter	n/a
168.296	5.9945	336592	prompt	n/a	neck commissioners reflections robots\n
168.994	0.1205	337988	keystroke_n	n	n/a
169.099	0.09	338198	keystroke_e	e	n/a
169.3385	0.0905	338677	keystroke_c	c	n/a
169.369	0.15	338738	keystroke_k	k	n/a
169.549	0.105	339098	keystroke_Key.space	Key.space	n/a
169.609	0.15	339218	keystroke_c	c	n/a
169.7145	0.1045	339429	keystroke_o	o	n/a
169.834	0.105	339668	keystroke_m	m	n/a
170.029	0.12	340058	keystroke_m	m	n/a
170.21	0.1345	340420	keystroke_i	i	n/a
170.3145	0.119	340629	keystroke_s	s	n/a
170.4945	0.15	340989	keystroke_s	s	n/a
170.569	0.1205	341138	keystroke_i	i	n/a
170.6595	0.09	341319	keystroke_o	o	n/a
170.734	0.1355	341468	keystroke_n	n	n/a
171.0195	0.2995	342039	keystroke_e	e	n/a
171.1095	0.194	342219	keystroke_r	r	n/a
171.2445	0.1495	342489	keystroke_s	s	n/a
171.784	0.18	343568	keystroke_Key.space	Key.space	n/a
172.144	0.03	344288	keystroke_r	r	n/a
172.159	0.105	344318	keystroke_e	e	n/a
172.339	0.1645	344678	keystroke_f	f	n/a
172.489	0.1645	344978	keystroke_l	l	n/a
172.549	0.09	345098	keystroke_e	e	n/a
172.804	0.0605	345608	keystroke_c	c	n/a
172.9085	0.106	345817	keystroke_t	t	n/a
172.9835	0.0905	345967	keystroke_i	i	n/a
173.0445	0.119	346089	keystroke_o	o	n/a
173.149	0.135	346298	keystroke_n	n	n/a
173.2535	0.0905	346507	keystroke_s	s	n/a
173.3585	0.135	346717	keystroke_Key.space	Key.space	n/a
173.509	0.06	347018	keystroke_r	r	n/a
173.584	0.0905	347168	keystroke_o	o	n/a
173.719	0.09	347438	keystroke_b	b	n/a
173.824	0.135	347648	keystroke_o	o	n/a
173.989	0.12	347978	keystroke_t	t	n/a
174.094	0.135	348188	keystroke_s	s	n/a
174.1995	0.0895	348399	keystroke_Key.enter	Key.enter	n/a
174.296	7.075	348592	prompt	n/a	effectively printing dropped sells\n
174.8595	0.1045	349719	keystroke_e	e	n/a
175.0995	0.12	350199	keystroke_f	f	n/a
175.309	0.06	350618	keystroke_e	e	n/a
175.804	0.0895	351608	keystroke_Key.backspace	Key.backspace	n/a
175.9245	0.164	351849	keystroke_f	f	n/a
176.059	0.1055	352118	keystroke_e	e	n/a
176.3745	0.045	352749	keystroke_c	c	n/a
176.4945	0.09	352989	keystroke_t	t	n/a
176.5695	0.135	353139	keystroke_i	i	n/a
176.7795	0.15	353559	keystroke_v	v	n/a
176.8845	0.165	353769	keystroke_i	i	n/a
176.9895	0.135	353979	keystroke_e	e	n/a
177.1395	0.15	354279	keystroke_l	l	n/a
177.3945	0.075	354789	keystroke_y	y	n/a
177.6045	0.0595	355209	keystroke_Key.space	Key.space	n/a
177.6795	0.105	355359	keystroke_p	p	n/a
177.9035	0.1355	355807	keystroke_r	r	n/a
178.4285	0.121	356857	keystroke_i	i	n/a
178.5345	0.1345	357069	keystroke_n	n	n/a
178.6395	0.1195	357279	keystroke_t	t	n/a
178.729	0.12	357458	keystroke_i	i	n/a
178.834	0.1205	357668	keystroke_n	n	n/a
178.9995	0.105	357999	keystroke_g	g	n/a
179.224	0.09	358448	keystroke_Key.space	Key.space	n/a
179.539	0.1345	359078	keystroke_d	d	n/a
179.734	0.0905	359468	keystroke_r	r	n/a
179.7945	0.18	359589	keystroke_o	o	n/a
179.9145	0.09	359829	keystroke_p	p	n/a
180.0945	0.0895	360189	keystroke_p	p	n/a
180.139	0.0905	360278	keystroke_e	e	n/a
180.3345	0.1045	360669	keystroke_d	d	n/a
180.439	0.1505	360878	keystroke_Key.space	Key.space	n/a
180.5735	0.151	361147	keystroke_s	s	n/a
180.6945	0.105	361389	keystroke_e	e	n/a
180.7545	0.15	361509	keystroke_l	l	n/a
180.9645	0.165	361929	keystroke_l	l	n/a
181.0995	0.135	362199	keystroke_s	s	n/a
181.2645	0.105	362529	keystroke_Key.enter	Key.enter	n/a
181.376	6.3265	362752	prompt	n/a	ought mars carbon hadn't\n
182.0445	0.135	364089	keystroke_o	o	n/a
182.1495	0.12	364299	keystroke_u	u	n/a
182.2395	0.09	364479	keystroke_g	g	n/a
182.3595	0.135	364719	keystroke_h	h	n/a
182.4485	0.061	364897	keystroke_t	t	n/a
182.599	0.12	365198	keystroke_Key.space	Key.space	n/a
182.704	0.136	365408	keystroke_m	m	n/a
182.7795	0.1195	365559	keystroke_a	a	n/a
182.8695	0.1345	365739	keystroke_r	r	n/a
183.004	0.135	366008	keystroke_s	s	n/a
183.124	0.135	366248	keystroke_Key.space	Key.space	n/a
183.409	0.18	366818	keystroke_c	c	n/a
183.604	0.12	367208	keystroke_a	a	n/a
183.679	0.075	367358	keystroke_r	r	n/a
183.9195	0.1045	367839	keystroke_b	b	n/a
184.0385	0.0755	368077	keystroke_o	o	n/a
184.1285	0.1205	368257	keystroke_n	n	n/a
184.3685	0.1055	368737	keystroke_Key.space	Key.space	n/a
184.579	0.12	369158	keystroke_h	h	n/a
184.6695	0.1645	369339	keystroke_a	a	n/a
184.849	0.06	369698	keystroke_n	n	n/a
184.864	0.135	369728	keystroke_d	d	n/a
185.0445	0.1355	370089	keystroke_'	'	n/a
186.1845	0.0445	372369	keystroke_Key.backspace	Key.backspace	n/a
186.334	0.075	372668	keystroke_Key.backspace	Key.backspace	n/a
186.544	0.0595	373088	keystroke_Key.backspace	Key.backspace	n/a
186.9935	0.1205	373987	keystroke_d	d	n/a
187.129	0.1055	374258	keystroke_n	n	n/a
187.2935	0.1055	374587	keystroke_'	'	n/a
187.4145	0.104	374829	keystroke_t	t	n/a
187.564	0.1345	375128	keystroke_Key.enter	Key.enter	n/a
187.7085	4.207	375417	prompt	n/a	muze stroke finite adobe\n
188.464	0.105	376928	keystroke_m	m	n/a
188.7335	0.106	377467	keystroke_u	u	n/a
188.8085	0.136	377617	keystroke_z	z	n/a
188.929	0.12	377858	keystroke_e	e	n/a
189.109	0.1495	378218	keystroke_Key.space	Key.space	n/a
189.2735	0.1805	378547	keystroke_s	s	n/a
189.4695	0.06	378939	keystroke_t	t	n/a
189.6495	0.075	379299	keystroke_r	r	n/a
189.7245	0.134	379449	keystroke_o	o	n/a
189.829	0.165	379658	keystroke_k	k	n/a
189.9495	0.104	379899	keystroke_e	e	n/a
190.084	0.165	380168	keystroke_Key.space	Key.space	n/a
190.264	0.1345	380528	keystroke_f	f	n/a
190.354	0.105	380708	keystroke_i	i	n/a
190.489	0.135	380978	keystroke_n	n	n/a
190.6085	0.151	381217	keystroke_i	i	n/a
190.729	0.195	381458	keystroke_t	t	n/a
190.894	0.12	381788	keystroke_e	e	n/a
191.089	0.15	382178	keystroke_Key.space	Key.space	n/a
191.239	0.135	382478	keystroke_a	a	n/a
191.359	0.12	382718	keystroke_d	d	n/a
191.464	0.135	382928	keystroke_o	o	n/a
191.584	0.105	383168	keystroke_b	b	n/a
191.719	0.135	383438	keystroke_e	e	n/a
191.839	0.075	383678	keystroke_Key.enter	Key.enter	n/a
191.9205	8.53	383841	prompt	n/a	collaboration employees syracuse management\n
192.799	0.1495	385598	keystroke_c	c	n/a
192.889	0.0605	385778	keystroke_o	o	n/a
193.069	0.105	386138	keystroke_l	l	n/a
193.249	0.135	386498	keystroke_l	l	n/a
193.369	0.1805	386738	keystroke_a	a	n/a
193.639	0.12	387278	keystroke_b	b	n/a
193.879	0.1045	387758	keystroke_o	o	n/a
193.9985	0.1055	387997	keystroke_r	r	n/a
194.284	0.15	388568	keystroke_a	a	n/a
194.374	0.1195	388748	keystroke_t	t	n/a
194.509	0.09	389018	keystroke_i	i	n/a
194.584	0.12	389168	keystroke_o	o	n/a
194.674	0.1355	389348	keystroke_n	n	n/a
194.915	0.134	389830	keystroke_Key.space	Key.space	n/a
195.3035	0.1205	390607	keystroke_e	e	n/a
195.424	0.105	390848	keystroke_m	m	n/a
195.649	0.09	391298	keystroke_p	p	n/a
195.754	0.105	391508	keystroke_l	l	n/a
195.934	0.135	391868	keystroke_o	o	n/a
196.249	0.1195	392498	keystroke_y	y	n/a
196.4435	0.075	392887	keystroke_e	e	n/a
196.6235	0.136	393247	keystroke_e	e	n/a
196.819	0.1195	393638	keystroke_s	s	n/a
196.9685	0.135	393937	keystroke_Key.space	Key.space	n/a
197.1635	0.166	394327	keystroke_s	s	n/a
197.3895	0.105	394779	keystroke_y	y	n/a
198.154	0.1345	396308	keystroke_r	r	n/a
198.3035	0.075	396607	keystroke_a	a	n/a
198.5445	0.1045	397089	keystroke_c	c	n/a
198.679	0.105	397358	keystroke_u	u	n/a
198.814	0.1655	397628	keystroke_s	s	n/a
198.949	0.135	397898	keystroke_e	e	n/a
199.114	0.135	398228	keystroke_Key.space	Key.space	n/a
199.234	0.1355	398468	keystroke_m	m	n/a
199.324	0.1205	398648	keystroke_a	a	n/a
199.4895	0.119	398979	keystroke_n	n	n/a
199.5785	0.075	399157	keystroke_a	a	n/a
199.6985	0.135	399397	keystroke_g	g	n/a
199.8485	0.09	399697	keystroke_e	e	n/a
199.9095	0.1345	399819	keystroke_m	m	n/a
200.0585	0.106	400117	keystroke_e	e	n/a
200.1335	0.121	400267	keystroke_n	n	n/a
200.2845	0.074	400569	keystroke_t	t	n/a
200.389	0.06	400778	keystroke_Key.enter	Key.enter	n/a
200.4555	6.941	400911	prompt	n/a	recording anywhere transexual zambia\n
201.199	0.12	402398	keystroke_r	r	n/a
201.289	0.045	402578	keystroke_e	e	n/a
201.5595	0.1345	403119	keystroke_c	c	n/a
201.635	0.119	403270	keystroke_o	o	n/a
201.859	0.1205	403718	keystroke_r	r	n/a
201.98	0.1195	403960	keystroke_d	d	n/a
202.219	0.1205	404438	keystroke_i	i	n/a
202.34	0.149	404680	keystroke_n	n	n/a
202.399	0.1055	404798	keystroke_g	g	n/a
202.594	0.09	405188	keystroke_Key.space	Key.space	n/a
202.714	0.1795	405428	keystroke_a	a	n/a
202.8045	0.0745	405609	keystroke_n	n	n/a
203.1195	0.134	406239	keystroke_y	y	n/a
203.4945	0.1795	406989	keystroke_w	w	n/a
203.6145	0.1345	407229	keystroke_h	h	n/a
203.659	0.105	407318	keystroke_e	e	n/a
203.7345	0.1645	407469	keystroke_r	r	n/a
203.839	0.135	407678	keystroke_e	e	n/a
204.004	0.135	408008	keystroke_Key.space	Key.space	n/a
204.124	0.075	408248	keystroke_t	t	n/a
204.334	0.09	408668	keystroke_r	r	n/a
204.425	0.164	408850	keystroke_a	a	n/a
204.604	0.105	409208	keystroke_n	n	n/a
204.919	0.27	409838	keystroke_s	s	n/a
205.354	0.091	410708	keystroke_e	e	n/a
205.6835	0.06	411367	keystroke_x	x	n/a
205.7585	0.1055	411517	keystroke_u	u	n/a
205.8195	0.165	411639	keystroke_a	a	n/a
205.9395	0.1045	411879	keystroke_l	l	n/a
206.284	0.0145	412568	keystroke_Key.space	Key.space	n/a
206.3895	0.119	412779	keystroke_z	z	n/a
206.689	0.105	413378	keystroke_a	a	n/a
206.809	0.12	413618	keystroke_m	m	n/a
206.944	0.106	413888	keystroke_b	b	n/a
207.034	0.135	414068	keystroke_i	i	n/a
207.139	0.105	414278	keystroke_a	a	n/a
207.304	0.09	414608	keystroke_Key.enter	Key.enter	n/a
207.4005	7.301	414801	prompt	n/a	programming season karaoke coupon\n
208.1295	0.105	416259	keystroke_p	p	n/a
208.309	0.1205	416618	keystroke_r	r	n/a
208.4745	0.1495	416949	keystroke_o	o	n/a
208.6395	0.075	417279	keystroke_g	g	n/a
208.8335	0.091	417667	keystroke_r	r	n/a
208.939	0.165	417878	keystroke_a	a	n/a
209.044	0.075	418088	keystroke_m	m	n/a
209.209	0.09	418418	keystroke_m	m	n/a
209.375	0.104	418750	keystroke_i	i	n/a
209.4645	0.15	418929	keystroke_n	n	n/a
209.584	0.12	419168	keystroke_g	g	n/a
209.734	0.15	419468	keystroke_Key.space	Key.space	n/a
209.839	0.15	419678	keystroke_s	s	n/a
209.959	0.1205	419918	keystroke_e	e	n/a
210.034	0.1945	420068	keystroke_a	a	n/a
210.124	0.1495	420248	keystroke_s	s	n/a
210.2135	0.105	420427	keystroke_o	o	n/a
210.3035	0.15	420607	keystroke_n	n	n/a
210.5735	0.15	421147	keystroke_Key.space	Key.space	n/a
211.3545	0.149	422709	keystroke_k	k	n/a
211.759	0.165	423518	keystroke_a	a	n/a
212.089	0.151	424178	keystroke_r	r	n/a
212.254	0.135	424508	keystroke_a	a	n/a
212.8095	0.105	425619	keystroke_o	o	n/a
213.0495	0.1645	426099	keystroke_k	k	n/a
213.229	0.12	426458	keystroke_e	e	n/a
213.409	0.15	426818	keystroke_Key.space	Key.space	n/a
213.649	0.1355	427298	keystroke_c	c	n/a
213.709	0.15	427418	keystroke_o	o	n/a
213.799	0.1505	427598	keystroke_u	u	n/a
213.934	0.12	427868	keystroke_p	p	n/a
214.279	0.1205	428558	keystroke_o	o	n/a
214.4145	0.089	428829	keystroke_n	n	n/a
214.5935	0.1055	429187	keystroke_Key.enter	Key.enter	n/a
214.706	7.4195	429412	prompt	n/a	passengers limitation yield quarters\n
215.3445	0.1045	430689	keystroke_p	p	n/a
215.464	0.1645	430928	keystroke_a	a	n/a
215.5985	0.1055	431197	keystroke_s	s	n/a
215.794	0.1495	431588	keystroke_s	s	n/a
215.9885	0.12	431977	keystroke_e	e	n/a
216.1995	0.105	432399	keystroke_n	n	n/a
216.3795	0.089	432759	keystroke_g	g	n/a
216.5145	0.2395	433029	keystroke_e	e	n/a
216.6195	0.1345	433239	keystroke_r	r	n/a
216.709	0.15	433418	keystroke_s	s	n/a
216.889	0.1955	433778	keystroke_Key.space	Key.space	n/a
217.054	0.21	434108	keystroke_l	l	n/a
217.189	0.045	434378	keystroke_i	i	n/a
217.294	0.18	434588	keystroke_m	m	n/a
217.459	0.1645	434918	keystroke_i	i	n/a
218.1035	0.121	436207	keystroke_t	t	n/a
218.2395	0.165	436479	keystroke_a	a	n/a
218.3295	0.1495	436659	keystroke_t	t	n/a
218.4195	0.105	436839	keystroke_i	i	n/a
218.5095	0.0895	437019	keystroke_o	o	n/a
218.5845	0.1345	437169	keystroke_n	n	n/a
218.7795	0.0895	437559	keystroke_Key.space	Key.space	n/a
219.1395	0.105	438279	keystroke_y	y	n/a
219.2595	0.1495	438519	keystroke_i	i	n/a
219.424	0.1355	438848	keystroke_e	e	n/a
219.619	0.165	439238	keystroke_l	l	n/a
219.919	0.195	439838	keystroke_d	d	n/a
220.084	0.12	440168	keystroke_Key.space	Key.space	n/a
220.7295	0.089	441459	keystroke_q	q	n/a
220.8335	0.151	441667	keystroke_u	u	n/a
221.0295	0.2245	442059	keystroke_a	a	n/a
221.2095	0.1045	442419	keystroke_r	r	n/a
221.479	0.09	442958	keystroke_t	t	n/a
221.674	0.2105	443348	keystroke_e	e	n/a
221.749	0.15	443498	keystroke_r	r	n/a
221.869	0.15	443738	keystroke_s	s	n/a
222.034	0.09	444068	keystroke_Key.enter	Key.enter	n/a
222.1315	7.3325	444263	prompt	n/a	roads novelty predicted waterproof\n
222.889	0.105	445778	keystroke_r	r	n/a
222.979	0.15	445958	keystroke_o	o	n/a
223.084	0.15	446168	keystroke_a	a	n/a
223.204	0.165	446408	keystroke_d	d	n/a
223.354	0.12	446708	keystroke_Key.space	Key.space	n/a
223.834	0.03	447668	keystroke_Key.backspace	Key.backspace	n/a
224.0585	0.1655	448117	keystroke_s	s	n/a
224.2685	0.1505	448537	keystroke_Key.space	Key.space	n/a
224.6295	0.074	449259	keystroke_n	n	n/a
224.7195	0.119	449439	keystroke_o	o	n/a
224.8235	0.135	449647	keystroke_v	v	n/a
224.9745	0.1795	449949	keystroke_e	e	n/a
225.304	0.1655	450608	keystroke_l	l	n/a
225.499	0.1205	450998	keystroke_t	t	n/a
225.6495	0.105	451299	keystroke_y	y	n/a
225.6785	0.031	451357	keystroke_i	i	n/a
225.8885	0.1205	451777	keystroke_Key.space	Key.space	n/a
226.0545	0.1045	452109	keystroke_p	p	n/a
226.144	0.1205	452288	keystroke_r	r	n/a
226.234	0.12	452468	keystroke_e	e	n/a
226.489	0.106	452978	keystroke_d	d	n/a
226.595	0.1495	453190	keystroke_i	i	n/a
226.759	0.105	453518	keystroke_c	c	n/a
226.984	0.135	453968	keystroke_t	t	n/a
227.194	0.1205	454388	keystroke_e	e	n/a
227.419	0.12	454838	keystroke_d	d	n/a
227.524	0.12	455048	keystroke_Key.space	Key.space	n/a
227.659	0.165	455318	keystroke_w	w	n/a
227.794	0.21	455588	keystroke_a	a	n/a
227.884	0.09	455768	keystroke_t	t	n/a
227.989	0.165	455978	keystroke_e	e	n/a
228.094	0.135	456188	keystroke_r	r	n/a
228.634	0.1205	457268	keystroke_p	p	n/a
228.769	0.1195	457538	keystroke_r	r	n/a
228.8735	0.1055	457747	keystroke_o	o	n/a
229.069	0.1045	458138	keystroke_o	o	n/a
229.1895	0.15	458379	keystroke_f	f	n/a
229.3685	0.09	458737	keystroke_Key.enter	Key.enter	n/a
229.4685	6.5925	458937	prompt	n/a	performance after government ceremony\n
230.1495	0.12	460299	keystroke_p	p	n/a
230.2245	0.165	460449	keystroke_e	e	n/a
230.3295	0.1195	460659	keystroke_r	r	n/a
230.629	0.1055	461258	keystroke_f	f	n/a
230.854	0.105	461708	keystroke_o	o	n/a
230.9445	0.135	461889	keystroke_r	r	n/a
231.1245	0.1795	462249	keystroke_m	m	n/a
231.2745	0.1195	462549	keystroke_a	a	n/a
231.424	0.135	462848	keystroke_n	n	n/a
231.514	0.091	463028	keystroke_c	c	n/a
231.709	0.105	463418	keystroke_e	e	n/a
231.844	0.105	463688	keystroke_Key.space	Key.space	n/a
231.964	0.15	463928	keystroke_a	a	n/a
232.054	0.09	464108	keystroke_f	f	n/a
232.2345	0.0595	464469	keystroke_t	t	n/a
232.324	0.165	464648	keystroke_e	e	n/a
232.4295	0.1045	464859	keystroke_r	r	n/a
232.5785	0.1505	465157	keystroke_Key.space	Key.space	n/a
232.744	0.1055	465488	keystroke_g	g	n/a
232.8935	0.135	465787	keystroke_o	o	n/a
233.014	0.0745	466028	keystroke_v	v	n/a
233.164	0.1355	466328	keystroke_e	e	n/a
233.2235	0.1355	466447	keystroke_r	r	n/a
233.4495	0.104	466899	keystroke_n	n	n/a
233.7035	0.136	467407	keystroke_m	m	n/a
233.7495	0.15	467499	keystroke_e	e	n/a
233.9745	0.15	467949	keystroke_n	n	n/a
234.0045	0.105	468009	keystroke_t	t	n/a
234.2595	0.104	468519	keystroke_Key.space	Key.space	n/a
234.649	0.09	469298	keystroke_c	c	n/a
234.859	0.1505	469718	keystroke_e	e	n/a
234.949	0.1955	469898	keystroke_r	r	n/a
235.0835	0.166	470167	keystroke_e	e	n/a
235.2935	0.0905	470587	keystroke_m	m	n/a
235.444	0.075	470888	keystroke_o	o	n/a
235.504	0.12	471008	keystroke_n	n	n/a
235.744	0.075	471488	keystroke_y	y	n/a
235.999	0.06	471998	keystroke_Key.enter	Key.enter	n/a
236.0655	8.0655	472131	prompt	n/a	innovative carlo while happiness\n
236.809	0.09	473618	keystroke_i	i	n/a
236.929	0.075	473858	keystroke_n	n	n/a
237.109	0.09	474218	keystroke_n	n	n/a
237.259	0.105	474518	keystroke_o	o	n/a
237.9785	0.105	475957	keystroke_v	v	n/a
238.1135	0.1205	476227	keystroke_a	a	n/a
238.264	0.1195	476528	keystroke_t	t	n/a
238.4135	0.135	476827	keystroke_i	i	n/a
238.4295	0.0445	476859	keystroke_;	;	n/a
238.5335	0.1355	477067	keystroke_v	v	n/a
238.669	0.165	477338	keystroke_e	e	n/a
239.2535	0.106	478507	keystroke_Key.space	Key.space	n/a
239.5685	0.046	479137	keystroke_Key.backspace	Key.backspace	n/a
239.7335	0.03	479467	keystroke_Key.backspace	Key.backspace	n/a
239.8835	0.045	479767	keystroke_Key.backspace	Key.backspace	n/a
240.0195	0.104	480039	keystroke_Key.backspace	Key.backspace	n/a
240.1695	0.0745	480339	keystroke_v	v	n/a
240.4545	0.1345	480909	keystroke_e	e	n/a
240.694	0.135	481388	keystroke_Key.space	Key.space	n/a
240.965	0.119	481930	keystroke_c	c	n/a
241.085	0.119	482170	keystroke_a	a	n/a
241.159	0.12	482318	keystroke_r	r	n/a
241.294	0.105	482588	keystroke_l	l	n/a
241.489	0.09	482978	keystroke_o	o	n/a
241.639	0.135	483278	keystroke_Key.space	Key.space	n/a
241.819	0.15	483638	keystroke_w	w	n/a
241.894	0.09	483788	keystroke_h	h	n/a
241.939	0.135	483878	keystroke_i	i	n/a
242.059	0.12	484118	keystroke_l	l	n/a
242.134	0.105	484268	keystroke_e	e	n/a
242.299	0.09	484598	keystroke_Key.space	Key.space	n/a
242.494	0.105	484988	keystroke_h	h	n/a
242.629	0.1355	485258	keystroke_a	a	n/a
242.749	0.0595	485498	keystroke_p	p	n/a
242.9285	0.0615	485857	keystroke_p	p	n/a
243.29	0.104	486580	keystroke_i	i	n/a
243.529	0.135	487058	keystroke_n	n	n/a
243.589	0.18	487178	keystroke_e	e	n/a
243.724	0.075	487448	keystroke_s	s	n/a
243.904	0.135	487808	keystroke_s	s	n/a
244.054	0.075	488108	keystroke_Key.enter	Key.enter	n/a
244.134	7.303	488268	prompt	n/a	make phantom pregnant independently\n
244.8645	0.105	489729	keystroke_m	m	n/a
244.954	0.135	489908	keystroke_a	a	n/a
245.0435	0.15	490087	keystroke_k	k	n/a
245.1335	0.12	490267	keystroke_e	e	n/a
245.2835	0.09	490567	keystroke_Key.space	Key.space	n/a
245.4335	0.106	490867	keystroke_p	p	n/a
245.599	0.1195	491198	keystroke_a	a	n/a
245.704	0.0745	491408	keystroke_h	h	n/a
246.004	0.0595	492008	keystroke_Key.backspace	Key.backspace	n/a
246.139	0.06	492278	keystroke_Key.backspace	Key.backspace	n/a
246.3185	0.075	492637	keystroke_h	h	n/a
246.3945	0.1795	492789	keystroke_a	a	n/a
246.514	0.12	493028	keystroke_n	n	n/a
246.664	0.09	493328	keystroke_t	t	n/a
246.769	0.105	493538	keystroke_o	o	n/a
246.859	0.135	493718	keystroke_m	m	n/a
247.0685	0.12	494137	keystroke_Key.space	Key.space	n/a
247.2185	0.121	494437	keystroke_p	p	n/a
247.3245	0.135	494649	keystroke_r	r	n/a
247.4145	0.135	494829	keystroke_e	e	n/a
247.6845	0.089	495369	keystroke_g	g	n/a
248.3745	0.105	496749	keystroke_n	n	n/a
248.4645	0.1495	496929	keystroke_a	a	n/a
248.569	0.1495	497138	keystroke_n	n	n/a
248.6885	0.1055	497377	keystroke_t	t	n/a
248.854	0.135	497708	keystroke_Key.space	Key.space	n/a
248.974	0.12	497948	keystroke_i	i	n/a
249.079	0.166	498158	keystroke_n	n	n/a
249.154	0.105	498308	keystroke_d	d	n/a
249.349	0.12	498698	keystroke_e	e	n/a
249.619	0.09	499238	keystroke_p	p	n/a
249.739	0.1355	499478	keystroke_e	e	n/a
249.8885	0.135	499777	keystroke_n	n	n/a
249.9935	0.091	499987	keystroke_d	d	n/a
250.5045	0.1495	501009	keystroke_e	e	n/a
250.6385	0.1205	501277	keystroke_n	n	n/a
250.789	0.135	501578	keystroke_t	t	n/a
250.954	0.135	501908	keystroke_l	l	n/a
251.134	0.075	502268	keystroke_y	y	n/a
251.3745	0.0595	502749	keystroke_Key.enter	Key.enter	n/a
251.441	4.435	502882	prompt	n/a	watch informed aged potter\n
252.139	0.18	504278	keystroke_w	w	n/a
252.274	0.164	504548	keystroke_a	a	n/a
252.379	0.105	504758	keystroke_t	t	n/a
252.604	0.12	505208	keystroke_c	c	n/a
252.709	0.105	505418	keystroke_h	h	n/a
252.904	0.09	505808	keystroke_Key.space	Key.space	n/a
252.9795	0.1045	505959	keystroke_i	i	n/a
253.099	0.12	506198	keystroke_n	n	n/a
253.144	0.135	506288	keystroke_f	f	n/a
253.294	0.105	506588	keystroke_o	o	n/a
253.384	0.105	506768	keystroke_r	r	n/a
253.474	0.165	506948	keystroke_m	m	n/a
253.774	0.105	507548	keystroke_e	e	n/a
253.969	0.1345	507938	keystroke_d	d	n/a
254.1195	0.1195	508239	keystroke_Key.space	Key.space	n/a
254.2695	0.134	508539	keystroke_a	a	n/a
254.3895	0.1345	508779	keystroke_g	g	n/a
254.5095	0.1045	509019	keystroke_e	e	n/a
254.734	0.1355	509468	keystroke_d	d	n/a
254.854	0.045	509708	keystroke_Key.space	Key.space	n/a
254.944	0.0755	509888	keystroke_p	p	n/a
255.139	0.1345	510278	keystroke_o	o	n/a
255.2885	0.0605	510577	keystroke_t	t	n/a
255.439	0.06	510878	keystroke_t	t	n/a
255.559	0.1345	511118	keystroke_e	e	n/a
255.6345	0.105	511269	keystroke_r	r	n/a
255.784	0.09	511568	keystroke_Key.enter	Key.enter	n/a
255.884	5.482	511768	prompt	n/a	sent rentals integrating delete\n
256.684	0.1345	513368	keystroke_s	s	n/a
256.8045	0.12	513609	keystroke_e	e	n/a
256.9395	0.105	513879	keystroke_n	n	n/a
256.9985	0.105	513997	keystroke_t	t	n/a
257.179	0.12	514358	keystroke_Key.space	Key.space	n/a
257.4635	0.166	514927	keystroke_r	r	n/a
257.5985	0.105	515197	keystroke_e	e	n/a
257.7195	0.15	515439	keystroke_n	n	n/a
257.8385	0.105	515677	keystroke_t	t	n/a
257.9595	0.15	515919	keystroke_a	a	n/a
258.0635	0.166	516127	keystroke_l	l	n/a
258.1845	0.1495	516369	keystroke_s	s	n/a
258.3185	0.09	516637	keystroke_Key.space	Key.space	n/a
258.4695	0.104	516939	keystroke_i	i	n/a
258.589	0.15	517178	keystroke_n	n	n/a
258.6795	0.1345	517359	keystroke_t	t	n/a
258.769	0.135	517538	keystroke_e	e	n/a
259.0085	0.075	518017	keystroke_g	g	n/a
259.2195	0.09	518439	keystroke_r	r	n/a
259.324	0.195	518648	keystroke_a	a	n/a
259.579	0.105	519158	keystroke_t	t	n/a
259.744	0.135	519488	keystroke_i	i	n/a
259.8635	0.15	519727	keystroke_n	n	n/a
259.9695	0.09	519939	keystroke_g	g	n/a
260.1795	0.134	520359	keystroke_Key.space	Key.space	n/a
260.4345	0.075	520869	keystroke_d	d	n/a
260.614	0.09	521228	keystroke_e	e	n/a
260.749	0.15	521498	keystroke_l	l	n/a
260.854	0.165	521708	keystroke_e	e	n/a
261.004	0.135	522008	keystroke_t	t	n/a
261.094	0.135	522188	keystroke_e	e	n/a
261.274	0.09	522548	keystroke_Key.enter	Key.enter	n/a
261.369	7.7215	522738	prompt	n/a	made recreation letters gross\n
261.9945	0.1045	523989	keystroke_m	m	n/a
262.069	0.136	524138	keystroke_a	a	n/a
262.1895	0.0895	524379	keystroke_d	d	n/a
262.3545	0.1045	524709	keystroke_e	e	n/a
262.519	0.1495	525038	keystroke_Key.space	Key.space	n/a
262.6395	0.1195	525279	keystroke_c	c	n/a
263.104	0.06	526208	keystroke_Key.backspace	Key.backspace	n/a
263.2995	0.0145	526599	keystroke_Key.backspace	Key.backspace	n/a
263.524	0.105	527048	keystroke_r	r	n/a
264.154	0.0455	528308	keystroke_Key.backspace	Key.backspace	n/a
264.439	0.15	528878	keystroke_Key.space	Key.space	n/a
264.604	0.15	529208	keystroke_r	r	n/a
264.6935	0.136	529387	keystroke_e	e	n/a
265.0535	0.15	530107	keystroke_c	c	n/a
265.4735	0.241	530947	keystroke_r	r	n/a
265.624	0.1355	531248	keystroke_e	e	n/a
265.729	0.15	531458	keystroke_a	a	n/a
265.894	0.12	531788	keystroke_t	t	n/a
265.9995	0.135	531999	keystroke_i	i	n/a
266.119	0.1055	532238	keystroke_o	o	n/a
266.2095	0.12	532419	keystroke_n	n	n/a
266.4195	0.104	532839	keystroke_Key.space	Key.space	n/a
266.5095	0.15	533019	keystroke_l	l	n/a
266.554	0.1645	533108	keystroke_e	e	n/a
266.7195	0.075	533439	keystroke_t	t	n/a
266.8685	0.12	533737	keystroke_t	t	n/a
266.9895	0.254	533979	keystroke_e	e	n/a
267.1085	0.151	534217	keystroke_r	r	n/a
267.1845	0.1495	534369	keystroke_s	s	n/a
267.349	0.1345	534698	keystroke_Key.space	Key.space	n/a
267.6485	0.121	535297	keystroke_r	r	n/a
268.0685	0.045	536137	keystroke_Key.backspace	Key.backspace	n/a
268.2035	0.091	536407	keystroke_g	g	n/a
268.4285	0.121	536857	keystroke_r	r	n/a
268.5335	0.121	537067	keystroke_o	o	n/a
268.6695	0.12	537339	keystroke_s	s	n/a
268.8795	0.1195	537759	keystroke_s	s	n/a
269.014	0.075	538028	keystroke_Key.enter	Key.enter	n/a
269.0945	6.401	538189	prompt	n/a	extent concerns reduce publisher\n
269.7645	0.09	539529	keystroke_e	e	n/a
270.0335	0.0755	540067	keystroke_x	x	n/a
270.5745	0.149	541149	keystroke_t	t	n/a
270.7085	0.105	541417	keystroke_e	e	n/a
270.8285	0.211	541657	keystroke_n	n	n/a
271.024	0.1345	542048	keystroke_t	t	n/a
271.3235	0.1205	542647	keystroke_Key.space	Key.space	n/a
271.8645	0.1195	543729	keystroke_c	c	n/a
271.9685	0.0755	543937	keystroke_o	o	n/a
272.059	0.1355	544118	keystroke_n	n	n/a
272.134	0.105	544268	keystroke_c	c	n/a
272.374	0.1645	544748	keystroke_e	e	n/a
272.449	0.1505	544898	keystroke_r	r	n/a
272.659	0.15	545318	keystroke_n	n	n/a
272.779	0.165	545558	keystroke_s	s	n/a
272.944	0.18	545888	keystroke_Key.space	Key.space	n/a
273.094	0.15	546188	keystroke_r	r	n/a
273.199	0.105	546398	keystroke_e	e	n/a
273.4395	0.1045	546879	keystroke_d	d	n/a
273.604	0.105	547208	keystroke_u	u	n/a
273.754	0.1055	547508	keystroke_c	c	n/a
274.039	0.135	548078	keystroke_e	e	n/a
274.204	0.09	548408	keystroke_Key.space	Key.space	n/a
274.3995	0.0445	548799	keystroke_p	p	n/a
274.489	0.165	548978	keystroke_u	u	n/a
274.624	0.1195	549248	keystroke_b	b	n/a
274.774	0.18	549548	keystroke_l	l	n/a
274.9235	0.1205	549847	keystroke_i	i	n/a
274.969	0.135	549938	keystroke_s	s	n/a
275.134	0.105	550268	keystroke_h	h	n/a
275.179	0.135	550358	keystroke_e	e	n/a
275.269	0.1055	550538	keystroke_r	r	n/a
275.419	0.075	550838	keystroke_Key.enter	Key.enter	n/a
275.5005	5.2905	551001	prompt	n/a	home facilitate packs tract\n
276.2285	0.09	552457	keystroke_h	h	n/a
276.3035	0.136	552607	keystroke_o	o	n/a
276.4395	0.1345	552879	keystroke_m	m	n/a
276.514	0.105	553028	keystroke_e	e	n/a
276.7085	0.1505	553417	keystroke_Key.space	Key.space	n/a
276.8135	0.1505	553627	keystroke_f	f	n/a
276.949	0.1495	553898	keystroke_a	a	n/a
277.0845	0.0895	554169	keystroke_n	n	n/a
277.459	0.059	554918	keystroke_Key.backspace	Key.backspace	n/a
277.6095	0.134	555219	keystroke_c	c	n/a
277.714	0.1195	555428	keystroke_i	i	n/a
277.9685	0.1805	555937	keystroke_l	l	n/a
278.1045	0.18	556209	keystroke_i	i	n/a
278.509	0.1355	557018	keystroke_t	t	n/a
278.6295	0.164	557259	keystroke_a	a	n/a
278.7335	0.18	557467	keystroke_t	t	n/a
278.8385	0.151	557677	keystroke_e	e	n/a
279.019	0.09	558038	keystroke_Key.space	Key.space	n/a
279.1395	0.1195	558279	keystroke_p	p	n/a
279.2435	0.1055	558487	keystroke_a	a	n/a
279.3795	0.12	558759	keystroke_c	c	n/a
279.4685	0.165	558937	keystroke_k	k	n/a
279.5885	0.181	559177	keystroke_s	s	n/a
279.7095	0.165	559419	keystroke_Key.space	Key.space	n/a
279.844	0.0905	559688	keystroke_t	t	n/a
280.0545	0.105	560109	keystroke_r	r	n/a
280.1285	0.165	560257	keystroke_a	a	n/a
280.309	0.12	560618	keystroke_c	c	n/a
280.534	0.12	561068	keystroke_t	t	n/a
280.7135	0.0755	561427	keystroke_Key.enter	Key.enter	n/a
280.7945	4.556	561589	prompt	n/a	together autos carmen soccer\n
281.5085	0.075	563017	keystroke_t	t	n/a
281.599	0.1205	563198	keystroke_o	o	n/a
281.749	0.0755	563498	keystroke_g	g	n/a
281.884	0.135	563768	keystroke_e	e	n/a
281.974	0.1195	563948	keystroke_t	t	n/a
282.124	0.1355	564248	keystroke_h	h	n/a
282.184	0.12	564368	keystroke_e	e	n/a
282.2595	0.0895	564519	keystroke_r	r	n/a
282.364	0.1195	564728	keystroke_Key.space	Key.space	n/a
282.454	0.1955	564908	keystroke_a	a	n/a
282.574	0.1055	565148	keystroke_u	u	n/a
282.6945	0.134	565389	keystroke_t	t	n/a
282.8135	0.12	565627	keystroke_o	o	n/a
283.0385	0.136	566077	keystroke_s	s	n/a
283.1885	0.135	566377	keystroke_Key.space	Key.space	n/a
283.444	0.12	566888	keystroke_c	c	n/a
283.5645	0.15	567129	keystroke_a	a	n/a
283.6535	0.121	567307	keystroke_r	r	n/a
283.7745	0.1495	567549	keystroke_m	m	n/a
283.894	0.1495	567788	keystroke_e	e	n/a
284.0455	0.104	568091	keystroke_n	n	n/a
284.254	0.12	568508	keystroke_Key.space	Key.space	n/a
284.344	0.15	568688	keystroke_s	s	n/a
284.554	0.105	569108	keystroke_o	o	n/a
284.629	0.105	569258	keystroke_c	c	n/a
284.824	0.09	569648	keystroke_c	c	n/a
285.049	0.12	570098	keystroke_e	e	n/a
285.1095	0.134	570219	keystroke_r	r	n/a
285.289	0.0595	570578	keystroke_Key.enter	Key.enter	n/a
285.355	6.356	570710	prompt	n/a	outlook mining antibody everyone's\n
285.979	0.12	571958	keystroke_o	o	n/a
286.084	0.135	572168	keystroke_u	u	n/a
286.174	0.09	572348	keystroke_t	t	n/a
286.339	0.105	572678	keystroke_l	l	n/a
286.5645	0.0445	573129	keystroke_o	o	n/a
286.684	0.1205	573368	keystroke_o	o	n/a
286.789	0.165	573578	keystroke_k	k	n/a
286.984	0.15	573968	keystroke_Key.space	Key.space	n/a
287.179	0.135	574358	keystroke_m	m	n/a
287.464	0.12	574928	keystroke_i	i	n/a
287.569	0.12	575138	keystroke_n	n	n/a
287.749	0.12	575498	keystroke_i	i	n/a
287.854	0.15	575708	keystroke_n	n	n/a
288.019	0.1205	576038	keystroke_g	g	n/a
288.169	0.1195	576338	keystroke_Key.space	Key.space	n/a
288.4095	0.1045	576819	keystroke_a	a	n/a
288.499	0.1805	576998	keystroke_n	n	n/a
288.694	0.1195	577388	keystroke_t	t	n/a
288.784	0.105	577568	keystroke_i	i	n/a
289.1435	0.0905	578287	keystroke_b	b	n/a
289.219	0.105	578438	keystroke_o	o	n/a
289.3095	0.1785	578619	keystroke_d	d	n/a
289.474	0.0745	578948	keystroke_y	y	n/a
289.683	0.135	579366	keystroke_Key.space	Key.space	n/a
289.804	0.1495	579608	keystroke_e	e	n/a
290.1345	0.0895	580269	keystroke_v	v	n/a
290.254	0.164	580508	keystroke_e	e	n/a
290.344	0.12	580688	keystroke_r	r	n/a
290.4935	0.0605	580987	keystroke_y	y	n/a
290.7795	0.0895	581559	keystroke_o	o	n/a
290.959	0.18	581918	keystroke_n	n	n/a
291.124	0.12	582248	keystroke_e	e	n/a
291.289	0.151	582578	keystroke_'	'	n/a
291.424	0.1495	582848	keystroke_s	s	n/a
291.619	0.0895	583238	keystroke_Key.enter	Key.enter	n/a
291.7155	4.3605	583431	prompt	n/a	taylor distances parks life\n
292.3385	0.106	584677	keystroke_t	t	n/a
292.4595	0.194	584919	keystroke_a	a	n/a
292.5485	0.0905	585097	keystroke_y	y	n/a
292.744	0.105	585488	keystroke_l	l	n/a
292.924	0.12	585848	keystroke_o	o	n/a
293.059	0.075	586118	keystroke_r	r	n/a
293.164	0.12	586328	keystroke_Key.space	Key.space	n/a
293.239	0.1355	586478	keystroke_d	d	n/a
293.329	0.1345	586658	keystroke_i	i	n/a
293.4495	0.1495	586899	keystroke_s	s	n/a
293.929	0.135	587858	keystroke_t	t	n/a
294.079	0.135	588158	keystroke_a	a	n/a
294.229	0.135	588458	keystroke_n	n	n/a
294.3495	0.0745	588699	keystroke_c	c	n/a
294.559	0.1505	589118	keystroke_e	e	n/a
294.6345	0.179	589269	keystroke_s	s	n/a
294.799	0.0895	589598	keystroke_Key.space	Key.space	n/a
294.949	0.1045	589898	keystroke_p	p	n/a
295.0245	0.15	590049	keystroke_a	a	n/a
295.145	0.1345	590290	keystroke_r	r	n/a
295.2495	0.164	590499	keystroke_k	k	n/a
295.3395	0.15	590679	keystroke_s	s	n/a
295.4735	0.12	590947	keystroke_Key.space	Key.space	n/a
295.579	0.1045	591158	keystroke_l	l	n/a
295.6235	0.15	591247	keystroke_i	i	n/a
295.669	0.1495	591338	keystroke_f	f	n/a
295.7885	0.1355	591577	keystroke_e	e	n/a
295.969	0.105	591938	keystroke_Key.enter	Key.enter	n/a
296.0805	4.78	592161	prompt	n/a	rage sauce albany lyrics\n
296.7495	0.1345	593499	keystroke_r	r	n/a
296.8985	0.1205	593797	keystroke_a	a	n/a
296.9885	0.1355	593977	keystroke_g	g	n/a
297.1085	0.0905	594217	keystroke_e	e	n/a
297.199	0.135	594398	keystroke_Key.space	Key.space	n/a
297.3035	0.2105	594607	keystroke_s	s	n/a
297.4385	0.15	594877	keystroke_a	a	n/a
297.544	0.1345	595088	keystroke_u	u	n/a
297.7095	0.074	595419	keystroke_c	c	n/a
297.9045	0.119	595809	keystroke_e	e	n/a
298.0385	0.1495	596077	keystroke_Key.space	Key.space	n/a
298.204	0.09	596408	keystroke_a	a	n/a
298.309	0.1355	596618	keystroke_l	l	n/a
298.399	0.12	596798	keystroke_b	b	n/a
298.534	0.195	597068	keystroke_a	a	n/a
298.939	0.135	597878	keystroke_n	n	n/a
299.194	0.0755	598388	keystroke_y	y	n/a
299.374	0.135	598748	keystroke_Key.space	Key.space	n/a
299.554	0.09	599108	keystroke_l	l	n/a
299.884	0.1205	599768	keystroke_y	y	n/a
300.124	0.15	600248	keystroke_r	r	n/a
300.484	0.1655	600968	keystroke_i	i	n/a
300.5735	0.136	601147	keystroke_c	c	n/a
300.664	0.1355	601328	keystroke_s	s	n/a
300.7685	0.0905	601537	keystroke_Key.enter	Key.enter	n/a
300.865	6.281	601730	prompt	n/a	supply lexus stronger it's\n
301.58	0.149	603160	keystroke_s	s	n/a
301.7145	0.1045	603429	keystroke_u	u	n/a
301.8045	0.27	603609	keystroke_p	p	n/a
302.3135	0.105	604627	keystroke_p	p	n/a
302.7485	0.15	605497	keystroke_l	l	n/a
302.959	0.0745	605918	keystroke_y	y	n/a
303.154	0.165	606308	keystroke_Key.space	Key.space	n/a
303.259	0.18	606518	keystroke_l	l	n/a
303.304	0.12	606608	keystroke_e	e	n/a
303.739	0.1355	607478	keystroke_x	x	n/a
304.084	0.12	608168	keystroke_c	c	n/a
304.174	0.15	608348	keystroke_u	u	n/a
304.309	0.15	608618	keystroke_s	s	n/a
304.504	0.15	609008	keystroke_Key.space	Key.space	n/a
304.6995	0.18	609399	keystroke_s	s	n/a
304.909	0.089	609818	keystroke_t	t	n/a
305.119	0.0755	610238	keystroke_r	r	n/a
305.1795	0.0895	610359	keystroke_o	o	n/a
305.2835	0.135	610567	keystroke_n	n	n/a
305.359	0.09	610718	keystroke_g	g	n/a
305.5835	0.105	611167	keystroke_Key.space	Key.space	n/a
306.004	0.0745	612008	keystroke_Key.backspace	Key.backspace	n/a
306.2595	0.089	612519	keystroke_e	e	n/a
306.2735	0.121	612547	keystroke_r	r	n/a
306.3945	0.119	612789	keystroke_Key.space	Key.space	n/a
306.5295	0.1345	613059	keystroke_i	i	n/a
306.634	0.135	613268	keystroke_t	t	n/a
306.739	0.135	613478	keystroke_'	'	n/a
306.844	0.18	613688	keystroke_s	s	n/a
307.039	0.105	614078	keystroke_Key.enter	Key.enter	n/a
307.1495	6.701	614299	prompt	n/a	encountered bass delight achievement\n
307.909	0.0905	615818	keystroke_e	e	n/a
308.194	0.15	616388	keystroke_n	n	n/a
308.4045	0.15	616809	keystroke_c	c	n/a
308.5245	0.1495	617049	keystroke_o	o	n/a
308.629	0.075	617258	keystroke_u	u	n/a
308.8245	0.1195	617649	keystroke_n	n	n/a
308.899	0.105	617798	keystroke_t	t	n/a
309.0645	0.1645	618129	keystroke_e	e	n/a
309.169	0.165	618338	keystroke_r	r	n/a
309.289	0.135	618578	keystroke_e	e	n/a
309.544	0.09	619088	keystroke_d	d	n/a
309.694	0.1345	619388	keystroke_Key.space	Key.space	n/a
309.8145	0.12	619629	keystroke_b	b	n/a
309.9195	0.165	619839	keystroke_a	a	n/a
310.0095	0.12	620019	keystroke_s	s	n/a
310.2345	0.105	620469	keystroke_s	s	n/a
310.3235	0.181	620647	keystroke_Key.space	Key.space	n/a
310.4895	0.119	620979	keystroke_d	d	n/a
310.684	0.1345	621368	keystroke_e	e	n/a
310.8485	0.15	621697	keystroke_l	l	n/a
310.9835	0.1355	621967	keystroke_i	i	n/a
311.0735	0.0755	622147	keystroke_g	g	n/a
311.164	0.12	622328	keystroke_h	h	n/a
311.2995	0.105	622599	keystroke_t	t	n/a
311.4635	0.1205	622927	keystroke_Key.space	Key.space	n/a
311.944	0.165	623888	keystroke_c	c	n/a
312.379	0.045	624758	keystroke_Key.backspace	Key.backspace	n/a
312.5145	0.1495	625029	keystroke_a	a	n/a
312.6795	0.1345	625359	keystroke_c	c	n/a
312.7995	0.1195	625599	keystroke_h	h	n/a
312.904	0.12	625808	keystroke_i	i	n/a
313.0395	0.1195	626079	keystroke_v	v	n/a
313.144	0.135	626288	keystroke_e	e	n/a
313.309	0.135	626618	keystroke_m	m	n/a
313.399	0.1205	626798	keystroke_e	e	n/a
313.534	0.1355	627068	keystroke_n	n	n/a
313.639	0.105	627278	keystroke_t	t	n/a
313.759	0.0895	627518	keystroke_Key.enter	Key.enter	n/a
313.8565	6.4445	627713	prompt	n/a	zoloft sofa chairs adjustable\n
314.6595	0.1645	629319	keystroke_a	a	n/a
314.779	0.075	629558	keystroke_o	o	n/a
315.169	0.0605	630338	keystroke_Key.backspace	Key.backspace	n/a
315.319	0.075	630638	keystroke_Key.backspace	Key.backspace	n/a
315.694	0.135	631388	keystroke_z	z	n/a
315.754	0.075	631508	keystroke_o	o	n/a
316.025	0.089	632050	keystroke_l	l	n/a
316.2185	0.106	632437	keystroke_o	o	n/a
316.3385	0.136	632677	keystroke_f	f	n/a
316.564	0.09	633128	keystroke_t	t	n/a
316.684	0.165	633368	keystroke_Key.space	Key.space	n/a
316.8335	0.1205	633667	keystroke_s	s	n/a
316.924	0.1205	633848	keystroke_o	o	n/a
317.029	0.1645	634058	keystroke_f	f	n/a
317.164	0.1345	634328	keystroke_a	a	n/a
317.2835	0.1355	634567	keystroke_Key.space	Key.space	n/a
317.4785	0.0905	634957	keystroke_c	c	n/a
317.5245	0.1195	635049	keystroke_h	h	n/a
317.6295	0.195	635259	keystroke_a	a	n/a
317.734	0.135	635468	keystroke_i	i	n/a
317.8385	0.1655	635677	keystroke_r	r	n/a
317.9745	0.149	635949	keystroke_s	s	n/a
318.079	0.12	636158	keystroke_Key.space	Key.space	n/a
318.574	0.1645	637148	keystroke_a	a	n/a
318.7245	0.149	637449	keystroke_d	d	n/a
319.1735	0.075	638347	keystroke_j	j	n/a
319.339	0.135	638678	keystroke_u	u	n/a
319.489	0.135	638978	keystroke_s	s	n/a
319.5945	0.1345	639189	keystroke_t	t	n/a
319.744	0.1355	639488	keystroke_a	a	n/a
319.894	0.09	639788	keystroke_b	b	n/a
319.999	0.15	639998	keystroke_l	l	n/a
320.089	0.12	640178	keystroke_e	e	n/a
320.224	0.075	640448	keystroke_Key.enter	Key.enter	n/a
320.3055	7.331	640611	prompt	n/a	perception midnight factors feelings\n
321.2445	0.0895	642489	keystroke_p	p	n/a
321.335	0.179	642670	keystroke_e	e	n/a
321.4095	0.1645	642819	keystroke_r	r	n/a
321.949	0.135	643898	keystroke_c	c	n/a
322.3095	0.12	644619	keystroke_e	e	n/a
322.5045	0.0895	645009	keystroke_p	p	n/a
322.609	0.09	645218	keystroke_t	t	n/a
322.804	0.15	645608	keystroke_i	i	n/a
322.939	0.105	645878	keystroke_o	o	n/a
323.029	0.1655	646058	keystroke_n	n	n/a
323.329	0.12	646658	keystroke_Key.space	Key.space	n/a
323.6285	0.106	647257	keystroke_m	m	n/a
323.7495	0.15	647499	keystroke_i	i	n/a
323.8245	0.135	647649	keystroke_d	d	n/a
324.0945	0.075	648189	keystroke_l	l	n/a
324.4685	0.076	648937	keystroke_Key.backspace	Key.backspace	n/a
324.7685	0.075	649537	keystroke_n	n	n/a
324.9035	0.09	649807	keystroke_i	i	n/a
324.9795	0.1045	649959	keystroke_g	g	n/a
325.0695	0.164	650139	keystroke_h	h	n/a
325.219	0.075	650438	keystroke_t	t	n/a
325.339	0.1645	650678	keystroke_Key.space	Key.space	n/a
325.5935	0.1505	651187	keystroke_f	f	n/a
325.7295	0.089	651459	keystroke_a	a	n/a
325.8635	0.12	651727	keystroke_c	c	n/a
326.0445	0.135	652089	keystroke_t	t	n/a
326.1345	0.12	652269	keystroke_o	o	n/a
326.2695	0.12	652539	keystroke_r	r	n/a
326.3595	0.135	652719	keystroke_s	s	n/a
326.4795	0.1195	652959	keystroke_Key.space	Key.space	n/a
326.615	0.1945	653230	keystroke_f	f	n/a
326.764	0.0755	653528	keystroke_e	e	n/a
326.9445	0.12	653889	keystroke_e	e	n/a
327.0345	0.15	654069	keystroke_l	l	n/a
327.1995	0.09	654399	keystroke_i	i	n/a
327.2745	0.135	654549	keystroke_n	n	n/a
327.3345	0.135	654669	keystroke_g	g	n/a
327.4245	0.15	654849	keystroke_s	s	n/a
327.5445	0.09	655089	keystroke_Key.enter	Key.enter	n/a
327.6395	4.3165	655279	prompt	n/a	bless where'd switch constant\n
328.3845	0.1195	656769	keystroke_b	b	n/a
328.519	0.1655	657038	keystroke_l	l	n/a
328.5945	0.165	657189	keystroke_e	e	n/a
328.6995	0.09	657399	keystroke_s	s	n/a
328.879	0.12	657758	keystroke_s	s	n/a
328.9845	0.105	657969	keystroke_Key.space	Key.space	n/a
329.1045	0.165	658209	keystroke_w	w	n/a
329.194	0.1505	658388	keystroke_h	h	n/a
329.239	0.135	658478	keystroke_e	e	n/a
329.3145	0.195	658629	keystroke_r	r	n/a
329.4345	0.12	658869	keystroke_e	e	n/a
329.569	0.105	659138	keystroke_'	'	n/a
329.704	0.105	659408	keystroke_d	d	n/a
329.869	0.12	659738	keystroke_Key.space	Key.space	n/a
330.004	0.09	660008	keystroke_s	s	n/a
330.214	0.1205	660428	keystroke_w	w	n/a
330.3045	0.135	660609	keystroke_i	i	n/a
330.3635	0.091	660727	keystroke_t	t	n/a
330.574	0.09	661148	keystroke_c	c	n/a
330.679	0.1055	661358	keystroke_h	h	n/a
330.8745	0.0895	661749	keystroke_Key.space	Key.space	n/a
330.9795	0.119	661959	keystroke_c	c	n/a
331.0695	0.0595	662139	keystroke_o	o	n/a
331.1435	0.135	662287	keystroke_n	n	n/a
331.2645	0.165	662529	keystroke_s	s	n/a
331.3995	0.09	662799	keystroke_t	t	n/a
331.49	0.1795	662980	keystroke_a	a	n/a
331.6085	0.151	663217	keystroke_n	n	n/a
331.6235	0.12	663247	keystroke_t	t	n/a
331.879	0.075	663758	keystroke_Key.enter	Key.enter	n/a
331.96	6.326	663920	prompt	n/a	kingston specialties race postcards\n
332.629	0.0905	665258	keystroke_k	k	n/a
332.794	0.1055	665588	keystroke_i	i	n/a
332.914	0.12	665828	keystroke_n	n	n/a
332.959	0.1055	665918	keystroke_g	g	n/a
333.1545	0.134	666309	keystroke_s	s	n/a
333.2595	0.12	666519	keystroke_t	t	n/a
333.3645	0.135	666729	keystroke_o	o	n/a
333.4845	0.135	666969	keystroke_n	n	n/a
333.7395	0.134	667479	keystroke_Key.space	Key.space	n/a
333.8445	0.15	667689	keystroke_s	s	n/a
333.9645	0.075	667929	keystroke_p	p	n/a
334.0245	0.09	668049	keystroke_e	e	n/a
334.309	0.09	668618	keystroke_c	c	n/a
334.384	0.166	668768	keystroke_i	i	n/a
334.5355	0.1345	669071	keystroke_a	a	n/a
334.759	0.1505	669518	keystroke_l	l	n/a
334.879	0.1065	669758	keystroke_t	t	n/a
334.97	0.1345	669940	keystroke_i	i	n/a
335.0595	0.18	670119	keystroke_e	e	n/a
335.1645	0.12	670329	keystroke_s	s	n/a
335.2995	0.15	670599	keystroke_Key.space	Key.space	n/a
335.6145	0.1195	671229	keystroke_r	r	n/a
335.719	0.105	671438	keystroke_a	a	n/a
335.8545	0.1045	671709	keystroke_c	c	n/a
336.064	0.12	672128	keystroke_e	e	n/a
336.169	0.1205	672338	keystroke_Key.space	Key.space	n/a
336.2895	0.09	672579	keystroke_p	p	n/a
336.5145	0.074	673029	keystroke_o	o	n/a
336.529	0.1045	673058	keystroke_s	s	n/a
336.6045	0.1345	673209	keystroke_t	t	n/a
336.7535	0.12	673507	keystroke_Key.space	Key.space	n/a
336.859	0.1195	673718	keystroke_c	c	n/a
337.219	0.0455	674438	keystroke_Key.backspace	Key.backspace	n/a
337.354	0.0445	674708	keystroke_Key.backspace	Key.backspace	n/a
337.5335	0.166	675067	keystroke_c	c	n/a
337.6995	0.135	675399	keystroke_a	a	n/a
337.8045	0.12	675609	keystroke_r	r	n/a
337.8945	0.21	675789	keystroke_d	d	n/a
338.0445	0.135	676089	keystroke_s	s	n/a
338.1795	0.104	676359	keystroke_Key.enter	Key.enter	n/a
338.2905	5.3955	676581	prompt	n/a	painful easily quizzes expert\n
338.9895	0.075	677979	keystroke_p	p	n/a
339.094	0.1655	678188	keystroke_a	a	n/a
339.1685	0.136	678337	keystroke_i	i	n/a
339.289	0.135	678578	keystroke_n	n	n/a
339.4385	0.195	678877	keystroke_f	f	n/a
339.8895	0.104	679779	keystroke_u	u	n/a
340.0245	0.165	680049	keystroke_l	l	n/a
340.2335	0.15	680467	keystroke_Key.space	Key.space	n/a
340.3995	0.119	680799	keystroke_e	e	n/a
340.5045	0.1645	681009	keystroke_a	a	n/a
340.594	0.1805	681188	keystroke_s	s	n/a
340.7885	0.121	681577	keystroke_i	i	n/a
340.8945	0.12	681789	keystroke_l	l	n/a
341.104	0.075	682208	keystroke_y	y	n/a
341.3135	0.121	682627	keystroke_Key.space	Key.space	n/a
341.4645	0.1195	682929	keystroke_q	q	n/a
341.5995	0.12	683199	keystroke_u	u	n/a
341.7045	0.1195	683409	keystroke_i	i	n/a
341.809	0.1055	683618	keystroke_z	z	n/a
342.0345	0.119	684069	keystroke_z	z	n/a
342.169	0.1955	684338	keystroke_e	e	n/a
342.2885	0.196	684577	keystroke_s	s	n/a
342.514	0.15	685028	keystroke_Key.space	Key.space	n/a
342.7395	0.1045	685479	keystroke_e	e	n/a
342.994	0.09	685988	keystroke_x	x	n/a
343.069	0.09	686138	keystroke_p	p	n/a
343.174	0.1205	686348	keystroke_e	e	n/a
343.2495	0.1045	686499	keystroke_r	r	n/a
343.444	0.075	686888	keystroke_t	t	n/a
343.579	0.105	687158	keystroke_Key.enter	Key.enter	n/a
343.6905	6.116	687381	prompt	n/a	persian suspected reproduce flash\n
344.3595	0.105	688719	keystroke_p	p	n/a
344.4195	0.165	688839	keystroke_e	e	n/a
344.5095	0.12	689019	keystroke_r	r	n/a
344.7795	0.135	689559	keystroke_s	s	n/a
344.8985	0.136	689797	keystroke_i	i	n/a
345.0045	0.135	690009	keystroke_a	a	n/a
345.0795	0.12	690159	keystroke_n	n	n/a
345.2895	0.1495	690579	keystroke_Key.space	Key.space	n/a
345.3945	0.12	690789	keystroke_s	s	n/a
345.5285	0.106	691057	keystroke_u	u	n/a
345.6185	0.136	691237	keystroke_s	s	n/a
345.814	0.075	691628	keystroke_p	p	n/a
345.9345	0.075	691869	keystroke_e	e	n/a
346.1735	0.135	692347	keystroke_c	c	n/a
346.3235	0.151	692647	keystroke_t	t	n/a
346.4435	0.105	692887	keystroke_e	e	n/a
346.6695	0.09	693339	keystroke_d	d	n/a
346.7895	0.134	693579	keystroke_Key.space	Key.space	n/a
346.9845	0.15	693969	keystroke_r	r	n/a
347.0745	0.149	694149	keystroke_e	e	n/a
347.329	0.135	694658	keystroke_p	p	n/a
347.9745	0.12	695949	keystroke_r	r	n/a
348.1245	0.105	696249	keystroke_o	o	n/a
348.409	0.09	696818	keystroke_d	d	n/a
348.544	0.1205	697088	keystroke_u	u	n/a
348.6495	0.075	697299	keystroke_c	c	n/a
348.8595	0.09	697719	keystroke_e	e	n/a
349.0245	0.1195	698049	keystroke_Key.space	Key.space	n/a
349.159	0.1805	698318	keystroke_f	f	n/a
349.3095	0.15	698619	keystroke_l	l	n/a
349.3695	0.165	698739	keystroke_a	a	n/a
349.4445	0.135	698889	keystroke_s	s	n/a
349.5495	0.075	699099	keystroke_h	h	n/a
349.7445	0.06	699489	keystroke_Key.enter	Key.enter	n/a
349.811	5.6495	699622	prompt	n/a	summary fired folk approximate\n
350.419	0.165	700838	keystroke_s	s	n/a
350.569	0.075	701138	keystroke_u	u	n/a
350.7795	0.09	701559	keystroke_m	m	n/a
350.9445	0.1495	701889	keystroke_m	m	n/a
351.0485	0.151	702097	keystroke_a	a	n/a
351.154	0.1345	702308	keystroke_r	r	n/a
351.2735	0.061	702547	keystroke_y	y	n/a
351.4385	0.1355	702877	keystroke_Key.space	Key.space	n/a
351.514	0.12	703028	keystroke_f	f	n/a
351.589	0.15	703178	keystroke_i	i	n/a
351.724	0.12	703448	keystroke_r	r	n/a
351.799	0.1355	703598	keystroke_e	e	n/a
352.024	0.15	704048	keystroke_d	d	n/a
352.264	0.135	704528	keystroke_Key.space	Key.space	n/a
352.669	0.1505	705338	keystroke_f	f	n/a
352.8045	0.075	705609	keystroke_o	o	n/a
353.0145	0.15	706029	keystroke_l	l	n/a
353.1045	0.165	706209	keystroke_k	k	n/a
353.2835	0.1205	706567	keystroke_Key.space	Key.space	n/a
353.4195	0.149	706839	keystroke_a	a	n/a
353.539	0.1055	707078	keystroke_p	p	n/a
353.689	0.1505	707378	keystroke_p	p	n/a
354.1835	0.135	708367	keystroke_r	r	n/a
354.3335	0.1055	708667	keystroke_o	o	n/a
354.604	0.105	709208	keystroke_x	x	n/a
354.769	0.1055	709538	keystroke_i	i	n/a
354.979	0.1505	709958	keystroke_m	m	n/a
355.069	0.105	710138	keystroke_a	a	n/a
355.144	0.12	710288	keystroke_t	t	n/a
355.2195	0.1345	710439	keystroke_e	e	n/a
355.369	0.09	710738	keystroke_Key.enter	Key.enter	n/a
355.464	5.5465	710928	prompt	n/a	england climbing magazine diff\n
356.0445	0.105	712089	keystroke_e	e	n/a
356.1795	0.1195	712359	keystroke_n	n	n/a
356.2695	0.104	712539	keystroke_g	g	n/a
356.3885	0.15	712777	keystroke_l	l	n/a
356.5085	0.211	713017	keystroke_a	a	n/a
356.8245	0.119	713649	keystroke_n	n	n/a
356.9135	0.1355	713827	keystroke_d	d	n/a
357.1545	0.149	714309	keystroke_Key.space	Key.space	n/a
357.4395	0.1195	714879	keystroke_c	c	n/a
357.484	0.15	714968	keystroke_l	l	n/a
357.694	0.105	715388	keystroke_u	u	n/a
358.009	0.12	716018	keystroke_m	m	n/a
358.144	0.12	716288	keystroke_b	b	n/a
358.279	0.1205	716558	keystroke_i	i	n/a
358.384	0.1355	716768	keystroke_n	n	n/a
358.4895	0.075	716979	keystroke_g	g	n/a
358.624	0.135	717248	keystroke_Key.space	Key.space	n/a
358.729	0.1645	717458	keystroke_m	m	n/a
358.8495	0.1645	717699	keystroke_a	a	n/a
359.284	0.12	718568	keystroke_g	g	n/a
359.419	0.135	718838	keystroke_a	a	n/a
359.749	0.12	719498	keystroke_z	z	n/a
359.839	0.105	719678	keystroke_i	i	n/a
359.9445	0.1645	719889	keystroke_n	n	n/a
360.0795	0.1045	720159	keystroke_e	e	n/a
360.259	0.1345	720518	keystroke_Key.space	Key.space	n/a
360.3785	0.15	720757	keystroke_d	d	n/a
360.5435	0.1355	721087	keystroke_i	i	n/a
360.634	0.09	721268	keystroke_f	f	n/a
360.814	0.1055	721628	keystroke_f	f	n/a
360.934	0.075	721868	keystroke_Key.enter	Key.enter	n/a
361.0155	9.025	722031	prompt	n/a	pennsylvania character entrepreneurs strong\n
361.7145	0.0745	723429	keystroke_p	p	n/a
361.804	0.1055	723608	keystroke_e	e	n/a
361.9245	0.089	723849	keystroke_n	n	n/a
362.089	0.1195	724178	keystroke_n	n	n/a
362.194	0.1345	724388	keystroke_s	s	n/a
362.3435	0.0455	724687	keystroke_y	y	n/a
362.524	0.135	725048	keystroke_l	l	n/a
363.1395	0.135	726279	keystroke_v	v	n/a
363.2885	0.135	726577	keystroke_a	a	n/a
363.3935	0.0905	726787	keystroke_n	n	n/a
363.544	0.1655	727088	keystroke_i	i	n/a
363.6495	0.1495	727299	keystroke_a	a	n/a
363.7835	0.1355	727567	keystroke_Key.space	Key.space	n/a
363.994	0.1045	727988	keystroke_c	c	n/a
364.0545	0.1345	728109	keystroke_h	h	n/a
364.1435	0.1055	728287	keystroke_a	a	n/a
364.2185	0.1655	728437	keystroke_r	r	n/a
364.3545	0.119	728709	keystroke_a	a	n/a
364.5485	0.121	729097	keystroke_c	c	n/a
364.6845	0.09	729369	keystroke_t	t	n/a
364.8045	0.15	729609	keystroke_e	e	n/a
364.9095	0.105	729819	keystroke_r	r	n/a
365.1635	0.1055	730327	keystroke_Key.space	Key.space	n/a
365.449	0.1345	730898	keystroke_e	e	n/a
365.599	0.135	731198	keystroke_n	n	n/a
365.719	0.06	731438	keystroke_t	t	n/a
365.914	0.09	731828	keystroke_r	r	n/a
366.3935	0.1055	732787	keystroke_p	p	n/a
366.5445	0.1195	733089	keystroke_e	e	n/a
367.189	0.075	734378	keystroke_Key.backspace	Key.backspace	n/a
367.444	0.1655	734888	keystroke_r	r	n/a
367.5785	0.1655	735157	keystroke_e	e	n/a
367.7885	0.1505	735577	keystroke_n	n	n/a
368.584	0.15	737168	keystroke_e	e	n/a
368.764	0.12	737528	keystroke_u	u	n/a
368.869	0.18	737738	keystroke_r	r	n/a
369.019	0.135	738038	keystroke_s	s	n/a
369.139	0.165	738278	keystroke_Key.space	Key.space	n/a
369.2445	0.1645	738489	keystroke_s	s	n/a
369.41	0.104	738820	keystroke_t	t	n/a
369.604	0.105	739208	keystroke_r	r	n/a
369.664	0.09	739328	keystroke_o	o	n/a
369.755	0.119	739510	keystroke_n	n	n/a
369.844	0.075	739688	keystroke_g	g	n/a
369.964	0.075	739928	keystroke_Key.enter	Key.enter	n/a
370.0455	5.2315	740091	prompt	n/a	stake west blog sublime\n
370.774	0.1645	741548	keystroke_s	s	n/a
370.9245	0.075	741849	keystroke_t	t	n/a
371.0135	0.1655	742027	keystroke_a	a	n/a
371.104	0.18	742208	keystroke_t	t	n/a
371.584	0.045	743168	keystroke_Key.backspace	Key.backspace	n/a
371.809	0.15	743618	keystroke_k	k	n/a
371.899	0.12	743798	keystroke_e	e	n/a
372.079	0.1645	744158	keystroke_Key.space	Key.space	n/a
372.619	0.15	745238	keystroke_w	w	n/a
372.7095	0.1345	745419	keystroke_e	e	n/a
372.919	0.1505	745838	keystroke_s	s	n/a
373.1295	0.1045	746259	keystroke_t	t	n/a
373.294	0.1195	746588	keystroke_Key.space	Key.space	n/a
373.474	0.12	746948	keystroke_b	b	n/a
373.579	0.075	747158	keystroke_l	l	n/a
373.759	0.0895	747518	keystroke_o	o	n/a
373.8495	0.089	747699	keystroke_g	g	n/a
374.0435	0.135	748087	keystroke_Key.space	Key.space	n/a
374.2085	0.1655	748417	keystroke_s	s	n/a
374.3435	0.1355	748687	keystroke_u	u	n/a
374.494	0.105	748988	keystroke_b	b	n/a
374.6285	0.211	749257	keystroke_l	l	n/a
374.8085	0.121	749617	keystroke_i	i	n/a
374.9295	0.15	749859	keystroke_m	m	n/a
375.0195	0.105	750039	keystroke_e	e	n/a
375.1685	0.105	750337	keystroke_Key.enter	Key.enter	n/a
375.2835	4.058	750567	prompt	n/a	month fridge lack baths\n
376.0395	0.104	752079	keystroke_m	m	n/a
376.1895	0.0745	752379	keystroke_o	o	n/a
376.279	0.12	752558	keystroke_n	n	n/a
376.459	0.135	752918	keystroke_t	t	n/a
376.534	0.135	753068	keystroke_h	h	n/a
376.789	0.12	753578	keystroke_Key.space	Key.space	n/a
376.834	0.105	753668	keystroke_f	f	n/a
377.044	0.12	754088	keystroke_r	r	n/a
377.194	0.1655	754388	keystroke_i	i	n/a
377.3745	0.12	754749	keystroke_d	d	n/a
377.5095	0.15	755019	keystroke_g	g	n/a
377.6295	0.12	755259	keystroke_e	e	n/a
377.7635	0.1355	755527	keystroke_Key.space	Key.space	n/a
377.9595	0.165	755919	keystroke_l	l	n/a
378.0345	0.119	756069	keystroke_a	a	n/a
378.1995	0.09	756399	keystroke_c	c	n/a
378.2745	0.12	756549	keystroke_k	k	n/a
378.4385	0.12	756877	keystroke_Key.space	Key.space	n/a
378.6795	0.074	757359	keystroke_b	b	n/a
378.7995	0.105	757599	keystroke_a	a	n/a
378.8895	0.09	757779	keystroke_t	t	n/a
378.9645	0.15	757929	keystroke_h	h	n/a
379.0845	0.165	758169	keystroke_s	s	n/a
379.2635	0.076	758527	keystroke_Key.enter	Key.enter	n/a
379.3455	5.696	758691	prompt	n/a	specs framing conditions returns\n
380.149	0.165	760298	keystroke_s	s	n/a
380.299	0.09	760598	keystroke_p	p	n/a
380.359	0.1055	760718	keystroke_e	e	n/a
380.614	0.12	761228	keystroke_c	c	n/a
380.809	0.2105	761618	keystroke_s	s	n/a
381.004	0.12	762008	keystroke_Key.space	Key.space	n/a
381.1535	0.09	762307	keystroke_f	f	n/a
381.3645	0.074	762729	keystroke_r	r	n/a
381.4245	0.1645	762849	keystroke_a	a	n/a
381.5285	0.1205	763057	keystroke_m	m	n/a
381.7535	0.165	763507	keystroke_i	i	n/a
381.904	0.1505	763808	keystroke_n	n	n/a
382.039	0.0895	764078	keystroke_g	g	n/a
382.204	0.12	764408	keystroke_Key.space	Key.space	n/a
382.4435	0.1205	764887	keystroke_c	c	n/a
382.5945	0.075	765189	keystroke_o	o	n/a
382.6845	0.135	765369	keystroke_n	n	n/a
382.804	0.1205	765608	keystroke_d	d	n/a
382.9395	0.12	765879	keystroke_i	i	n/a
383.119	0.1195	766238	keystroke_t	t	n/a
383.2685	0.0915	766537	keystroke_i	i	n/a
383.3445	0.0895	766689	keystroke_o	o	n/a
383.404	0.165	766808	keystroke_n	n	n/a
383.554	0.1495	767108	keystroke_s	s	n/a
383.6885	0.1505	767377	keystroke_Key.space	Key.space	n/a
384.0195	0.1195	768039	keystroke_r	r	n/a
384.1095	0.12	768219	keystroke_e	e	n/a
384.259	0.12	768518	keystroke_t	t	n/a
384.394	0.105	768788	keystroke_u	u	n/a
384.5295	0.12	769059	keystroke_r	r	n/a
384.6785	0.1655	769357	keystroke_n	n	n/a
384.799	0.1505	769598	keystroke_s	s	n/a
384.9495	0.0895	769899	keystroke_Key.enter	Key.enter	n/a
385.0455	6.115	770091	prompt	n/a	markets heated distances citizen\n
386.014	0.12	772028	keystroke_m	m	n/a
386.089	0.18	772178	keystroke_a	a	n/a
386.254	0.0755	772508	keystroke_r	r	n/a
386.659	0.1655	773318	keystroke_k	k	n/a
386.7485	0.2855	773497	keystroke_e	e	n/a
386.869	0.1345	773738	keystroke_t	t	n/a
386.959	0.15	773918	keystroke_s	s	n/a
387.064	0.1345	774128	keystroke_Key.space	Key.space	n/a
387.2585	0.1055	774517	keystroke_h	h	n/a
387.3045	0.1495	774609	keystroke_e	e	n/a
387.4085	0.1505	774817	keystroke_a	a	n/a
387.544	0.135	775088	keystroke_t	t	n/a
387.649	0.1055	775298	keystroke_e	e	n/a
387.874	0.105	775748	keystroke_d	d	n/a
388.024	0.1355	776048	keystroke_Key.space	Key.space	n/a
388.1745	0.1195	776349	keystroke_d	d	n/a
388.279	0.135	776558	keystroke_i	i	n/a
388.369	0.12	776738	keystroke_s	s	n/a
388.744	0.09	777488	keystroke_t	t	n/a
388.924	0.1645	777848	keystroke_a	a	n/a
389.0745	0.149	778149	keystroke_n	n	n/a
389.209	0.0755	778418	keystroke_c	c	n/a
389.4185	0.135	778837	keystroke_e	e	n/a
389.4945	0.1345	778989	keystroke_s	s	n/a
389.6135	0.15	779227	keystroke_Key.space	Key.space	n/a
390.0195	0.105	780039	keystroke_c	c	n/a
390.1095	0.135	780219	keystroke_i	i	n/a
390.2585	0.1205	780517	keystroke_t	t	n/a
390.379	0.15	780758	keystroke_i	i	n/a
390.6935	0.12	781387	keystroke_z	z	n/a
390.8295	0.134	781659	keystroke_e	e	n/a
390.904	0.1045	781808	keystroke_n	n	n/a
391.0685	0.0905	782137	keystroke_Key.enter	Key.enter	n/a
391.1655	6.16	782331	prompt	n/a	clocks mixing patents engines\n
392.929	0.1205	785858	keystroke_c	c	n/a
393.139	0.075	786278	keystroke_l	l	n/a
393.3035	0.105	786607	keystroke_o	o	n/a
393.439	0.1055	786878	keystroke_c	c	n/a
393.5285	0.1655	787057	keystroke_k	k	n/a
393.6645	0.135	787329	keystroke_s	s	n/a
393.8135	0.1205	787627	keystroke_Key.space	Key.space	n/a
393.9945	0.1505	787989	keystroke_m	m	n/a
394.129	0.1355	788258	keystroke_i	i	n/a
394.235	0.104	788470	keystroke_x	x	n/a
394.384	0.165	788768	keystroke_i	i	n/a
394.534	0.1355	789068	keystroke_n	n	n/a
394.654	0.1195	789308	keystroke_g	g	n/a
394.7885	0.09	789577	keystroke_Key.space	Key.space	n/a
394.9085	0.105	789817	keystroke_p	p	n/a
395.2545	0.18	790509	keystroke_a	a	n/a
395.4345	0.06	790869	keystroke_t	t	n/a
395.6595	0.135	791319	keystroke_e	e	n/a
395.7795	0.165	791559	keystroke_n	n	n/a
395.8695	0.135	791739	keystroke_t	t	n/a
395.9745	0.12	791949	keystroke_s	s	n/a
396.0945	0.1345	792189	keystroke_Key.space	Key.space	n/a
396.2895	0.135	792579	keystroke_e	e	n/a
396.41	0.1345	792820	keystroke_n	n	n/a
396.5145	0.1345	793029	keystroke_g	g	n/a
396.619	0.135	793238	keystroke_i	i	n/a
396.709	0.1205	793418	keystroke_n	n	n/a
396.784	0.105	793568	keystroke_e	e	n/a
396.8745	0.1645	793749	keystroke_s	s	n/a
397.204	0.12	794408	keystroke_Key.enter	Key.enter	n/a
397.33	5.4105	794660	prompt	n/a	shelter received homepage senior\n
398.0895	0.135	796179	keystroke_s	s	n/a
398.1935	0.106	796387	keystroke_h	h	n/a
398.2685	0.0905	796537	keystroke_e	e	n/a
398.389	0.15	796778	keystroke_l	l	n/a
398.524	0.105	797048	keystroke_t	t	n/a
398.659	0.1505	797318	keystroke_e	e	n/a
398.749	0.105	797498	keystroke_r	r	n/a
398.884	0.18	797768	keystroke_Key.space	Key.space	n/a
399.109	0.1505	798218	keystroke_r	r	n/a
399.199	0.09	798398	keystroke_e	e	n/a
399.484	0.075	798968	keystroke_c	c	n/a
399.6945	0.1045	799389	keystroke_e	e	n/a
399.784	0.1345	799568	keystroke_i	i	n/a
399.9635	0.12	799927	keystroke_v	v	n/a
400.0685	0.0905	800137	keystroke_e	e	n/a
400.2795	0.104	800559	keystroke_d	d	n/a
400.3385	0.1205	800677	keystroke_Key.space	Key.space	n/a
400.4745	0.15	800949	keystroke_h	h	n/a
400.625	0.1645	801250	keystroke_o	o	n/a
400.8035	0.166	801607	keystroke_m	m	n/a
400.9845	0.1045	801969	keystroke_e	e	n/a
401.179	0.09	802358	keystroke_p	p	n/a
401.284	0.135	802568	keystroke_a	a	n/a
401.374	0.1205	802748	keystroke_g	g	n/a
401.449	0.105	802898	keystroke_e	e	n/a
401.599	0.135	803198	keystroke_Key.space	Key.space	n/a
401.7195	0.1495	803439	keystroke_s	s	n/a
401.839	0.135	803678	keystroke_e	e	n/a
401.989	0.165	803978	keystroke_n	n	n/a
402.229	0.15	804458	keystroke_i	i	n/a
402.349	0.1505	804698	keystroke_o	o	n/a
402.4995	0.105	804999	keystroke_r	r	n/a
402.6485	0.09	805297	keystroke_Key.enter	Key.enter	n/a
402.7445	8.1115	805489	prompt	n/a	military based backgrounds additionally\n
403.6245	0.1645	807249	keystroke_m	m	n/a
403.774	0.135	807548	keystroke_i	i	n/a
403.894	0.195	807788	keystroke_l	l	n/a
404.074	0.18	808148	keystroke_i	i	n/a
404.2095	0.135	808419	keystroke_t	t	n/a
404.359	0.1355	808718	keystroke_a	a	n/a
404.449	0.1345	808898	keystroke_r	r	n/a
404.5685	0.075	809137	keystroke_y	y	n/a
404.764	0.165	809528	keystroke_Key.space	Key.space	n/a
404.9135	0.09	809827	keystroke_b	b	n/a
405.0185	0.165	810037	keystroke_a	a	n/a
405.0935	0.1505	810187	keystroke_s	s	n/a
405.214	0.106	810428	keystroke_e	e	n/a
405.439	0.12	810878	keystroke_d	d	n/a
405.589	0.166	811178	keystroke_Key.space	Key.space	n/a
405.964	0.121	811928	keystroke_b	b	n/a
406.145	0.0745	812290	keystroke_a	a	n/a
406.279	0.06	812558	keystroke_c	c	n/a
406.4585	0.1205	812917	keystroke_k	k	n/a
406.699	0.075	813398	keystroke_g	g	n/a
406.909	0.1055	813818	keystroke_r	r	n/a
406.954	0.135	813908	keystroke_o	o	n/a
407.044	0.075	814088	keystroke_u	u	n/a
407.224	0.1505	814448	keystroke_n	n	n/a
407.284	0.1655	814568	keystroke_d	d	n/a
407.389	0.09	814778	keystroke_s	s	n/a
407.494	0.15	814988	keystroke_Key.space	Key.space	n/a
407.629	0.105	815258	keystroke_a	a	n/a
407.719	0.12	815438	keystroke_d	d	n/a
407.869	0.105	815738	keystroke_i	i	n/a
407.944	0.105	815888	keystroke_d	d	n/a
408.304	0.06	816608	keystroke_Key.backspace	Key.backspace	n/a
408.589	0.0755	817178	keystroke_Key.backspace	Key.backspace	n/a
408.905	0.164	817810	keystroke_d	d	n/a
409.039	0.135	818078	keystroke_i	i	n/a
409.204	0.0905	818408	keystroke_t	t	n/a
409.324	0.1655	818648	keystroke_i	i	n/a
409.474	0.1345	818948	keystroke_o	o	n/a
409.5935	0.136	819187	keystroke_n	n	n/a
409.9245	0.1495	819849	keystroke_a	a	n/a
410.0295	0.0745	820059	keystroke_l	l	n/a
410.1945	0.135	820389	keystroke_l	l	n/a
410.4045	0.104	820809	keystroke_y	y	n/a
410.6895	0.1645	821379	keystroke_Key.enter	Key.enter	n/a
410.8605	7.2255	821721	prompt	n/a	antivirus enough variety persistent\n
411.9045	0.18	823809	keystroke_a	a	n/a
412.0245	0.1645	824049	keystroke_n	n	n/a
412.1895	0.104	824379	keystroke_t	t	n/a
412.2795	0.1045	824559	keystroke_i	i	n/a
412.8195	0.104	825639	keystroke_v	v	n/a
412.909	0.12	825818	keystroke_i	i	n/a
413.0445	0.12	826089	keystroke_r	r	n/a
413.194	0.1055	826388	keystroke_u	u	n/a
413.329	0.105	826658	keystroke_s	s	n/a
413.449	0.15	826898	keystroke_Key.space	Key.space	n/a
413.5545	0.1195	827109	keystroke_e	e	n/a
413.6595	0.1195	827319	keystroke_n	n	n/a
413.764	0.18	827528	keystroke_o	o	n/a
413.884	0.1055	827768	keystroke_u	u	n/a
414.004	0.0905	828008	keystroke_g	g	n/a
414.064	0.105	828128	keystroke_h	h	n/a
414.259	0.1205	828518	keystroke_Key.space	Key.space	n/a
414.394	0.12	828788	keystroke_v	v	n/a
414.544	0.1645	829088	keystroke_a	a	n/a
414.6645	0.1345	829329	keystroke_r	r	n/a
414.829	0.165	829658	keystroke_i	i	n/a
414.904	0.18	829808	keystroke_e	e	n/a
415.009	0.135	830018	keystroke_t	t	n/a
415.6685	0.0755	831337	keystroke_y	y	n/a
415.9085	0.135	831817	keystroke_Key.space	Key.space	n/a
416.1795	0.135	832359	keystroke_p	p	n/a
416.315	0.104	832630	keystroke_e	e	n/a
416.6595	0.1195	833319	keystroke_r	r	n/a
416.9585	0.061	833917	keystroke_s	s	n/a
417.0345	0.15	834069	keystroke_i	i	n/a
417.1695	0.18	834339	keystroke_s	s	n/a
417.364	0.1495	834728	keystroke_t	t	n/a
417.484	0.1045	834968	keystroke_e	e	n/a
417.5735	0.1355	835147	keystroke_n	n	n/a
417.8445	0.104	835689	keystroke_t	t	n/a
418.0085	0.0755	836017	keystroke_Key.enter	Key.enter	n/a
418.0985	6.902	836197	prompt	n/a	stamps blair capable conflict\n
418.7135	0.1955	837427	keystroke_a	a	n/a
418.894	0.12	837788	keystroke_t	t	n/a
419.269	0.0595	838538	keystroke_Key.backspace	Key.backspace	n/a
419.4335	0.076	838867	keystroke_Key.backspace	Key.backspace	n/a
419.5995	0.149	839199	keystroke_s	s	n/a
419.7185	0.121	839437	keystroke_t	t	n/a
419.8245	0.1495	839649	keystroke_a	a	n/a
419.9435	0.09	839887	keystroke_m	m	n/a
420.064	0.0905	840128	keystroke_p	p	n/a
420.169	0.1355	840338	keystroke_s	s	n/a
420.3335	0.1505	840667	keystroke_Key.space	Key.space	n/a
420.649	0.1195	841298	keystroke_b	b	n/a
420.7385	0.18	841477	keystroke_l	l	n/a
420.8735	0.15	841747	keystroke_a	a	n/a
420.9785	0.1355	841957	keystroke_i	i	n/a
421.0995	0.104	842199	keystroke_r	r	n/a
421.2635	0.136	842527	keystroke_Key.space	Key.space	n/a
421.609	0.1195	843218	keystroke_c	c	n/a
421.7745	0.075	843549	keystroke_a	a	n/a
421.864	0.135	843728	keystroke_p	p	n/a
422.0145	0.15	844029	keystroke_a	a	n/a
422.2385	0.136	844477	keystroke_b	b	n/a
422.449	0.1345	844898	keystroke_l	l	n/a
422.5085	0.121	845017	keystroke_e	e	n/a
422.719	0.135	845438	keystroke_Key.space	Key.space	n/a
422.869	0.0905	845738	keystroke_c	c	n/a
422.929	0.09	845858	keystroke_o	o	n/a
423.034	0.15	846068	keystroke_n	n	n/a
423.109	0.12	846218	keystroke_f	f	n/a
423.259	0.03	846518	keystroke_i	i	n/a
423.3345	0.18	846669	keystroke_l	l	n/a
423.7395	0.06	847479	keystroke_Key.backspace	Key.backspace	n/a
423.9195	0.075	847839	keystroke_Key.backspace	Key.backspace	n/a
424.3385	0.1805	848677	keystroke_l	l	n/a
424.4745	0.165	848949	keystroke_i	i	n/a
424.64	0.1195	849280	keystroke_c	c	n/a
424.804	0.105	849608	keystroke_t	t	n/a
424.924	0.075	849848	keystroke_Key.enter	Key.enter	n/a
425.0045	5.516	850009	prompt	n/a	hotel trustees person nepal\n
425.5695	0.06	851139	keystroke_s	s	n/a
425.959	0.06	851918	keystroke_Key.backspace	Key.backspace	n/a
426.2295	0.1045	852459	keystroke_h	h	n/a
426.319	0.09	852638	keystroke_o	o	n/a
426.395	0.1195	852790	keystroke_t	t	n/a
426.4845	0.1345	852969	keystroke_e	e	n/a
426.6345	0.135	853269	keystroke_l	l	n/a
426.8595	0.1495	853719	keystroke_Key.space	Key.space	n/a
426.9785	0.076	853957	keystroke_t	t	n/a
427.175	0.1195	854350	keystroke_r	r	n/a
427.309	0.1205	854618	keystroke_u	u	n/a
427.4145	0.105	854829	keystroke_s	s	n/a
427.5335	0.1055	855067	keystroke_t	t	n/a
427.7735	0.106	855547	keystroke_e	e	n/a
427.9845	0.18	855969	keystroke_e	e	n/a
428.1485	0.166	856297	keystroke_s	s	n/a
428.2995	0.104	856599	keystroke_Key.space	Key.space	n/a
428.4195	0.1045	856839	keystroke_p	p	n/a
428.4795	0.2545	856959	keystroke_e	e	n/a
428.554	0.135	857108	keystroke_r	r	n/a
428.659	0.12	857318	keystroke_s	s	n/a
428.7045	0.1045	857409	keystroke_o	o	n/a
428.825	0.119	857650	keystroke_n	n	n/a
429.0495	0.119	858099	keystroke_Key.space	Key.space	n/a
429.4695	0.105	858939	keystroke_n	n	n/a
429.5595	0.12	859119	keystroke_e	e	n/a
429.9795	0.1045	859959	keystroke_p	p	n/a
430.144	0.15	860288	keystroke_a	a	n/a
430.1895	0.1645	860379	keystroke_l	l	n/a
