onset	duration	sample	value	key	prompt_text
3.921	14.1655	7842	prompt	n/a	the quick brown fox jumps over a lazy dog\n
6.926	0.0125	13852	keystroke_t	t	n/a
6.9675	0.091	13935	keystroke_h	h	n/a
7.0885	0.09	14177	keystroke_e	e	n/a
7.2085	0.104	14417	keystroke_Key.space	Key.space	n/a
8.242	0.046	16484	keystroke_q	q	n/a
8.5285	0.1345	17057	keystroke_u	u	n/a
8.633	0.134	17266	keystroke_i	i	n/a
8.783	0.09	17566	keystroke_c	c	n/a
8.918	0.165	17836	keystroke_k	k	n/a
9.067	0.1055	18134	keystroke_Key.space	Key.space	n/a
9.3685	0.0745	18737	keystroke_b	b	n/a
9.4885	0.09	18977	keystroke_r	r	n/a
9.6085	0.075	19217	keystroke_o	o	n/a
9.6985	0.09	19397	keystroke_w	w	n/a
9.8785	0.135	19757	keystroke_n	n	n/a
10.0275	0.106	20055	keystroke_Key.space	Key.space	n/a
10.7485	0.0905	21497	keystroke_f	f	n/a
11.0035	0.0605	22007	keystroke_o	o	n/a
11.634	0.06	23268	keystroke_x	x	n/a
11.7535	0.09	23507	keystroke_Key.space	Key.space	n/a
12.0085	0.0605	24017	keystroke_j	j	n/a
12.189	0.074	24378	keystroke_u	u	n/a
12.414	0.12	24828	keystroke_m	m	n/a
12.5485	0.1195	25097	keystroke_p	p	n/a
13.434	0.045	26868	keystroke_s	s	n/a
13.5085	0.0895	27017	keystroke_Key.space	Key.space	n/a
13.6885	0.0905	27377	keystroke_o	o	n/a
13.7935	0.0605	27587	keystroke_v	v	n/a
13.914	0.1645	27828	keystroke_e	e	n/a
14.0335	0.1055	28067	keystroke_r	r	n/a
14.1535	0.105	28307	keystroke_Key.space	Key.space	n/a
14.2735	0.1045	28547	keystroke_a	a	n/a
14.4085	0.0895	28817	keystroke_Key.space	Key.space	n/a
14.543	0.091	29086	keystroke_l	l	n/a
14.6485	0.09	29297	keystroke_a	a	n/a
15.459	0.0595	30918	keystroke_z	z	n/a
15.7585	0.18	31517	keystroke_y	y	n/a
15.893	0.121	31786	keystroke_Key.space	Key.space	n/a
16.164	0.104	32328	keystroke_d	d	n/a
16.299	0.075	32598	keystroke_o	o	n/a
16.389	0.09	32778	keystroke_g	g	n/a
17.9635	0.12	35927	keystroke_Key.enter	Key.enter	n/a
18.092	6.1585	36184	prompt	n/a	optics headset hotel sorry\n
19.629	0.0745	39258	keystroke_o	o	n/a
19.8385	0.075	39677	keystroke_p	p	n/a
20.0335	0.075	40067	keystroke_t	t	n/a
20.1235	0.135	40247	keystroke_i	i	n/a
20.3185	0.15	40637	keystroke_c	c	n/a
20.4535	0.105	40907	keystroke_s	s	n/a
20.6185	0.105	41237	keystroke_Key.space	Key.space	n/a
21.4285	0.105	42857	keystroke_h	h	n/a
21.6235	0.12	43247	keystroke_e	e	n/a
21.7285	0.075	43457	keystroke_a	a	n/a
21.9385	0.075	43877	keystroke_d	d	n/a
22.1185	0.1495	44237	keystroke_s	s	n/a
22.283	0.0605	44566	keystroke_e	e	n/a
22.4185	0.09	44837	keystroke_t	t	n/a
22.5385	0.105	45077	keystroke_Key.space	Key.space	n/a
22.7485	0.09	45497	keystroke_h	h	n/a
22.8835	0.0895	45767	keystroke_o	o	n/a
22.9885	0.075	45977	keystroke_t	t	n/a
23.1385	0.075	46277	keystroke_e	e	n/a
23.2435	0.165	46487	keystroke_l	l	n/a
23.363	0.1205	46726	keystroke_Key.space	Key.space	n/a
23.468	0.0755	46936	keystroke_s	s	n/a
23.5885	0.0895	47177	keystroke_o	o	n/a
23.7085	0.0595	47417	keystroke_r	r	n/a
23.843	0.0455	47686	keystroke_r	r	n/a
23.9185	0.104	47837	keystroke_y	y	n/a
24.1585	0.09	48317	keystroke_Key.enter	Key.enter	n/a
24.255	13.555	48510	prompt	n/a	acrylic contacts mississippi vids\n
25.0585	0.1045	50117	keystroke_a	a	n/a
25.5985	0.09	51197	keystroke_c	c	n/a
25.8235	0.075	51647	keystroke_r	r	n/a
26.0185	0.03	52037	keystroke_y	y	n/a
27.0835	0.135	54167	keystroke_l	l	n/a
27.1885	0.105	54377	keystroke_i	i	n/a
27.3985	0.12	54797	keystroke_c	c	n/a
27.7885	0.09	55577	keystroke_Key.space	Key.space	n/a
28.358	0.0895	56716	keystroke_c	c	n/a
28.478	0.1355	56956	keystroke_o	o	n/a
28.5675	0.136	57135	keystroke_n	n	n/a
28.718	0.09	57436	keystroke_t	t	n/a
28.853	0.061	57706	keystroke_a	a	n/a
28.973	0.1055	57946	keystroke_c	c	n/a
29.2135	0.075	58427	keystroke_t	t	n/a
29.363	0.105	58726	keystroke_s	s	n/a
29.4985	0.1195	58997	keystroke_Key.space	Key.space	n/a
29.633	0.12	59266	keystroke_m	m	n/a
29.7385	0.1045	59477	keystroke_i	i	n/a
29.9335	0.0595	59867	keystroke_s	s	n/a
30.0985	0.0445	60197	keystroke_s	s	n/a
30.2485	0.075	60497	keystroke_i	i	n/a
30.4735	0.104	60947	keystroke_s	s	n/a
30.6835	0.0595	61367	keystroke_s	s	n/a
32.453	0.06	64906	keystroke_i	i	n/a
32.708	0.0155	65416	keystroke_p	p	n/a
33.129	0.044	66258	keystroke_p	p	n/a
33.3835	0.0445	66767	keystroke_u	u	n/a
34.763	0.06	69526	keystroke_Key.backspace	Key.backspace	n/a
35.1535	0.12	70307	keystroke_i	i	n/a
35.2275	0.12	70455	keystroke_Key.space	Key.space	n/a
35.7685	0.075	71537	keystroke_v	v	n/a
35.8885	0.09	71777	keystroke_i	i	n/a
36.0385	0.104	72077	keystroke_d	d	n/a
36.1135	0.104	72227	keystroke_s	s	n/a
37.7035	0.105	75407	keystroke_Key.enter	Key.enter	n/a
37.814	9.7915	75628	prompt	n/a	fascinating examples seeking printer\n
39.5485	0.074	79097	keystroke_f	f	n/a
39.8785	0.105	79757	keystroke_a	a	n/a
41.259	0.0745	82518	keystroke_s	s	n/a
41.424	0.0895	82848	keystroke_c	c	n/a
41.5735	0.105	83147	keystroke_i	i	n/a
41.754	0.0895	83508	keystroke_n	n	n/a
41.8735	0.12	83747	keystroke_a	a	n/a
42.0085	0.075	84017	keystroke_t	t	n/a
42.0985	0.15	84197	keystroke_i	i	n/a
42.2335	0.105	84467	keystroke_n	n	n/a
42.3385	0.075	84677	keystroke_g	g	n/a
42.4735	0.105	84947	keystroke_Key.space	Key.space	n/a
43.748	0.12	87496	keystroke_e	e	n/a
44.048	0.045	88096	keystroke_x	x	n/a
44.2285	0.075	88457	keystroke_a	a	n/a
44.3785	0.12	88757	keystroke_m	m	n/a
44.5585	0.0595	89117	keystroke_p	p	n/a
44.768	0.075	89536	keystroke_l	l	n/a
44.8585	0.12	89717	keystroke_e	e	n/a
44.963	0.105	89926	keystroke_s	s	n/a
45.098	0.12	90196	keystroke_Key.space	Key.space	n/a
45.5335	0.0755	91067	keystroke_s	s	n/a
45.654	0.0745	91308	keystroke_e	e	n/a
45.818	0.09	91636	keystroke_e	e	n/a
46.013	0.075	92026	keystroke_k	k	n/a
46.193	0.135	92386	keystroke_i	i	n/a
46.268	0.12	92536	keystroke_n	n	n/a
46.3585	0.0895	92717	keystroke_g	g	n/a
46.4785	0.1045	92957	keystroke_Key.space	Key.space	n/a
46.6425	0.0915	93285	keystroke_p	p	n/a
46.7785	0.09	93557	keystroke_r	r	n/a
46.8835	0.135	93767	keystroke_i	i	n/a
47.0035	0.105	94007	keystroke_n	n	n/a
47.0935	0.075	94187	keystroke_t	t	n/a
47.2435	0.135	94487	keystroke_e	e	n/a
47.393	0.075	94786	keystroke_r	r	n/a
47.5285	0.075	95057	keystroke_Key.enter	Key.enter	n/a
47.611	5.319	95222	prompt	n/a	friend guide let's reset\n
48.3835	0.0595	96767	keystroke_f	f	n/a
48.5635	0.0895	97127	keystroke_r	r	n/a
48.683	0.1205	97366	keystroke_i	i	n/a
48.758	0.1055	97516	keystroke_e	e	n/a
48.8935	0.105	97787	keystroke_n	n	n/a
49.0435	0.09	98087	keystroke_d	d	n/a
49.2085	0.09	98417	keystroke_Key.space	Key.space	n/a
49.9285	0.09	99857	keystroke_g	g	n/a
50.1235	0.15	100247	keystroke_u	u	n/a
50.2285	0.135	100457	keystroke_i	i	n/a
50.7535	0.075	101507	keystroke_d	d	n/a
50.9335	0.0595	101867	keystroke_e	e	n/a
51.0535	0.1045	102107	keystroke_Key.space	Key.space	n/a
51.234	0.0895	102468	keystroke_l	l	n/a
51.338	0.075	102676	keystroke_e	e	n/a
51.488	0.09	102976	keystroke_t	t	n/a
51.668	0.09	103336	keystroke_'	'	n/a
51.818	0.0905	103636	keystroke_s	s	n/a
51.938	0.0905	103876	keystroke_Key.space	Key.space	n/a
52.103	0.105	104206	keystroke_r	r	n/a
52.1785	0.1045	104357	keystroke_e	e	n/a
52.3735	0.12	104747	keystroke_s	s	n/a
52.509	0.1045	105018	keystroke_e	e	n/a
52.6735	0.09	105347	keystroke_t	t	n/a
52.8685	0.06	105737	keystroke_Key.enter	Key.enter	n/a
52.934	9.702	105868	prompt	n/a	bang gotta logical entries\n
53.843	0.09	107686	keystroke_b	b	n/a
53.993	0.075	107986	keystroke_a	a	n/a
54.1285	0.0595	108257	keystroke_n	n	n/a
54.413	0.09	108826	keystroke_d	d	n/a
54.518	0.09	109036	keystroke_Key.space	Key.space	n/a
54.7285	0.0895	109457	keystroke_g	g	n/a
54.8335	0.0745	109667	keystroke_o	o	n/a
54.968	0.075	109936	keystroke_t	t	n/a
55.103	0.075	110206	keystroke_t	t	n/a
55.208	0.09	110416	keystroke_a	a	n/a
55.988	0.03	111976	keystroke_Key.backspace	Key.backspace	n/a
56.123	0.045	112246	keystroke_Key.backspace	Key.backspace	n/a
56.2735	0.03	112547	keystroke_Key.backspace	Key.backspace	n/a
56.408	0.0455	112816	keystroke_Key.backspace	Key.backspace	n/a
56.5585	0.045	113117	keystroke_Key.backspace	Key.backspace	n/a
56.7085	0.045	113417	keystroke_Key.backspace	Key.backspace	n/a
56.8735	0.03	113747	keystroke_Key.backspace	Key.backspace	n/a
57.6085	0.0595	115217	keystroke_g	g	n/a
57.7285	0.105	115457	keystroke_Key.space	Key.space	n/a
58.043	0.06	116086	keystroke_g	g	n/a
58.1335	0.0895	116267	keystroke_o	o	n/a
58.253	0.06	116506	keystroke_t	t	n/a
58.4035	0.0595	116807	keystroke_t	t	n/a
58.538	0.0755	117076	keystroke_a	a	n/a
58.643	0.1205	117286	keystroke_Key.space	Key.space	n/a
58.988	0.075	117976	keystroke_l	l	n/a
59.168	0.075	118336	keystroke_o	o	n/a
60.113	0.105	120226	keystroke_g	g	n/a
60.2785	0.12	120557	keystroke_i	i	n/a
60.413	0.12	120826	keystroke_c	c	n/a
60.518	0.105	121036	keystroke_a	a	n/a
60.638	0.1505	121276	keystroke_l	l	n/a
60.7735	0.12	121547	keystroke_Key.space	Key.space	n/a
60.9985	0.075	121997	keystroke_e	e	n/a
61.1185	0.105	122237	keystroke_n	n	n/a
61.2535	0.089	122507	keystroke_t	t	n/a
62.0185	0.075	124037	keystroke_r	r	n/a
62.1225	0.091	124245	keystroke_i	i	n/a
62.229	0.0745	124458	keystroke_e	e	n/a
62.3635	0.089	124727	keystroke_s	s	n/a
62.5735	0.06	125147	keystroke_Key.enter	Key.enter	n/a
62.6405	9.7	125281	prompt	n/a	improved trainer understanding nice\n
63.504	0.0445	127008	keystroke_i	i	n/a
63.9675	0.046	127935	keystroke_m	m	n/a
64.0575	0.076	128115	keystroke_p	p	n/a
64.2685	0.06	128537	keystroke_o	o	n/a
64.3585	0.0755	128717	keystroke_v	v	n/a
64.568	0.0905	129136	keystroke_e	e	n/a
64.7635	0.0745	129527	keystroke_d	d	n/a
64.8985	0.0745	129797	keystroke_Key.space	Key.space	n/a
65.933	0.03	131866	keystroke_Key.backspace	Key.backspace	n/a
66.068	0.045	132136	keystroke_Key.backspace	Key.backspace	n/a
66.188	0.075	132376	keystroke_Key.backspace	Key.backspace	n/a
66.353	0.0455	132706	keystroke_Key.backspace	Key.backspace	n/a
67.133	0.0605	134266	keystroke_Key.backspace	Key.backspace	n/a
67.2385	0.09	134477	keystroke_r	r	n/a
67.4035	0.1055	134807	keystroke_o	o	n/a
67.5535	0.075	135107	keystroke_v	v	n/a
67.6735	0.09	135347	keystroke_e	e	n/a
67.8685	0.06	135737	keystroke_d	d	n/a
67.9735	0.09	135947	keystroke_Key.space	Key.space	n/a
68.1835	0.075	136367	keystroke_t	t	n/a
68.3785	0.09	136757	keystroke_r	r	n/a
68.4835	0.075	136967	keystroke_a	a	n/a
68.5885	0.135	137177	keystroke_i	i	n/a
68.6635	0.1045	137327	keystroke_n	n	n/a
68.783	0.15	137566	keystroke_e	e	n/a
68.888	0.136	137776	keystroke_r	r	n/a
69.038	0.105	138076	keystroke_Key.space	Key.space	n/a
69.2035	0.09	138407	keystroke_u	u	n/a
69.3985	0.0895	138797	keystroke_n	n	n/a
69.533	0.03	139066	keystroke_d	d	n/a
69.668	0.12	139336	keystroke_e	e	n/a
69.743	0.105	139486	keystroke_r	r	n/a
70.0735	0.0605	140147	keystroke_s	s	n/a
70.1935	0.075	140387	keystroke_t	t	n/a
70.2835	0.06	140567	keystroke_a	a	n/a
70.6735	0.09	141347	keystroke_n	n	n/a
70.749	0.089	141498	keystroke_d	d	n/a
70.8685	0.134	141737	keystroke_i	i	n/a
70.958	0.1055	141916	keystroke_n	n	n/a
71.0785	0.074	142157	keystroke_g	g	n/a
71.5435	0.1045	143087	keystroke_Key.space	Key.space	n/a
71.7985	0.0895	143597	keystroke_n	n	n/a
71.918	0.091	143836	keystroke_i	i	n/a
72.023	0.1355	144046	keystroke_c	c	n/a
72.113	0.105	144226	keystroke_e	e	n/a
72.263	0.075	144526	keystroke_Key.enter	Key.enter	n/a
72.3475	6.6225	144695	prompt	n/a	allowed burton featured pick\n
72.983	0.06	145966	keystroke_a	a	n/a
73.118	0.06	146236	keystroke_l	l	n/a
73.268	0.06	146536	keystroke_l	l	n/a
73.4335	0.0595	146867	keystroke_o	o	n/a
73.538	0.046	147076	keystroke_w	w	n/a
73.568	0.135	147136	keystroke_e	e	n/a
73.8235	0.0745	147647	keystroke_d	d	n/a
73.913	0.09	147826	keystroke_Key.space	Key.space	n/a
74.093	0.075	148186	keystroke_b	b	n/a
74.303	0.076	148606	keystroke_u	u	n/a
74.409	0.059	148818	keystroke_r	r	n/a
74.573	0.0755	149146	keystroke_t	t	n/a
74.6335	0.1795	149267	keystroke_o	o	n/a
74.768	0.12	149536	keystroke_n	n	n/a
74.963	0.1205	149926	keystroke_Key.space	Key.space	n/a
75.788	0.061	151576	keystroke_f	f	n/a
75.923	0.12	151846	keystroke_e	e	n/a
76.029	0.089	152058	keystroke_a	a	n/a
76.343	0.075	152686	keystroke_t	t	n/a
76.479	0.089	152958	keystroke_u	u	n/a
76.5835	0.0905	153167	keystroke_r	r	n/a
76.6585	0.0595	153317	keystroke_e	e	n/a
76.8385	0.075	153677	keystroke_d	d	n/a
76.9275	0.105	153855	keystroke_Key.space	Key.space	n/a
77.048	0.1055	154096	keystroke_p	p	n/a
77.1985	0.074	154397	keystroke_r	r	n/a
77.2885	0.09	154577	keystroke_i	i	n/a
78.0235	0.044	156047	keystroke_Key.backspace	Key.backspace	n/a
78.173	0.0295	156346	keystroke_Key.backspace	Key.backspace	n/a
78.4135	0.045	156827	keystroke_i	i	n/a
78.549	0.0735	157098	keystroke_c	c	n/a
78.654	0.059	157308	keystroke_k	k	n/a
78.8785	0.0895	157757	keystroke_Key.enter	Key.enter	n/a
78.974	11.621	157948	prompt	n/a	monkey guarantee substitute formed\n
79.853	0.09	159706	keystroke_m	m	n/a
79.958	0.105	159916	keystroke_o	o	n/a
80.108	0.09	160216	keystroke_n	n	n/a
80.6335	0.0445	161267	keystroke_k	k	n/a
80.7085	0.0595	161417	keystroke_e	e	n/a
80.8585	0.09	161717	keystroke_y	y	n/a
81.008	0.12	162016	keystroke_Key.space	Key.space	n/a
82.043	0.075	164086	keystroke_g	g	n/a
82.253	0.06	164506	keystroke_u	u	n/a
83.2585	0.06	166517	keystroke_a	a	n/a
83.558	0.0755	167116	keystroke_r	r	n/a
83.693	0.0605	167386	keystroke_a	a	n/a
83.798	0.0755	167596	keystroke_n	n	n/a
83.9175	0.076	167835	keystroke_t	t	n/a
84.1435	0.06	168287	keystroke_e	e	n/a
84.279	0.0595	168558	keystroke_e	e	n/a
84.3835	0.075	168767	keystroke_Key.space	Key.space	n/a
84.5785	0.075	169157	keystroke_s	s	n/a
84.7585	0.075	169517	keystroke_u	u	n/a
85.4335	0.0745	170867	keystroke_b	b	n/a
85.643	0.075	171286	keystroke_s	s	n/a
86.7235	0.15	173447	keystroke_t	t	n/a
86.8885	0.045	173777	keystroke_i	i	n/a
87.923	0.0755	175846	keystroke_t	t	n/a
88.118	0.0905	176236	keystroke_u	u	n/a
88.658	0.0605	177316	keystroke_t	t	n/a
88.7935	0.075	177587	keystroke_e	e	n/a
89.0025	0.06	178005	keystroke_Key.space	Key.space	n/a
89.7085	0.09	179417	keystroke_f	f	n/a
89.8735	0.12	179747	keystroke_o	o	n/a
90.0085	0.09	180017	keystroke_r	r	n/a
90.113	0.0905	180226	keystroke_m	m	n/a
90.2185	0.09	180437	keystroke_e	e	n/a
90.413	0.0455	180826	keystroke_d	d	n/a
90.5335	0.06	181067	keystroke_Key.enter	Key.enter	n/a
90.5995	5.815	181199	prompt	n/a	trailers cost ensures follow\n
91.5085	0.075	183017	keystroke_t	t	n/a
91.6885	0.089	183377	keystroke_r	r	n/a
91.7925	0.075	183585	keystroke_a	a	n/a
91.9135	0.09	183827	keystroke_i	i	n/a
92.0925	0.075	184185	keystroke_l	l	n/a
92.1975	0.12	184395	keystroke_e	e	n/a
92.2875	0.121	184575	keystroke_r	r	n/a
92.8585	0.075	185717	keystroke_s	s	n/a
92.948	0.1055	185896	keystroke_Key.space	Key.space	n/a
93.068	0.09	186136	keystroke_c	c	n/a
93.2035	0.045	186407	keystroke_o	o	n/a
93.279	0.1185	186558	keystroke_s	s	n/a
93.4585	0.104	186917	keystroke_t	t	n/a
93.5935	0.105	187187	keystroke_Key.space	Key.space	n/a
94.2085	0.15	188417	keystroke_e	e	n/a
94.3735	0.075	188747	keystroke_n	n	n/a
94.5085	0.0905	189017	keystroke_s	s	n/a
94.718	0.075	189436	keystroke_u	u	n/a
94.823	0.1055	189646	keystroke_r	r	n/a
94.9135	0.105	189827	keystroke_e	e	n/a
95.1235	0.09	190247	keystroke_s	s	n/a
95.2585	0.075	190517	keystroke_Key.space	Key.space	n/a
95.3935	0.09	190787	keystroke_f	f	n/a
95.4685	0.075	190937	keystroke_o	o	n/a
95.6635	0.09	191327	keystroke_l	l	n/a
95.8135	0.06	191627	keystroke_l	l	n/a
96.0085	0.06	192017	keystroke_o	o	n/a
96.1135	0.075	192227	keystroke_w	w	n/a
96.3385	0.075	192677	keystroke_Key.enter	Key.enter	n/a
96.418	13.302	192836	prompt	n/a	clerk taste gauge gambling\n
97.3435	0.075	194687	keystroke_c	c	n/a
97.4485	0.075	194897	keystroke_l	l	n/a
97.5385	0.105	195077	keystroke_e	e	n/a
98.4685	0.075	196937	keystroke_r	r	n/a
98.9485	0.044	197897	keystroke_k	k	n/a
99.4875	0.105	198975	keystroke_Key.space	Key.space	n/a
99.6085	0.075	199217	keystroke_t	t	n/a
99.728	0.1195	199456	keystroke_a	a	n/a
99.9985	0.075	199997	keystroke_s	s	n/a
100.1025	0.091	200205	keystroke_t	t	n/a
100.2835	0.06	200567	keystroke_e	e	n/a
100.4335	0.104	200867	keystroke_Key.space	Key.space	n/a
101.108	0.0905	202216	keystroke_g	g	n/a
101.288	0.091	202576	keystroke_u	u	n/a
101.393	0.09	202786	keystroke_a	a	n/a
101.558	0.09	203116	keystroke_g	g	n/a
101.753	0.06	203506	keystroke_e	e	n/a
101.9335	0.0895	203867	keystroke_Key.space	Key.space	n/a
105.5955	0	211191	keystroke_Key.backspace	Key.backspace	n/a
105.6985	0.045	211397	keystroke_Key.backspace	Key.backspace	n/a
105.8635	0.03	211727	keystroke_Key.backspace	Key.backspace	n/a
106.0435	0.06	212087	keystroke_Key.backspace	Key.backspace	n/a
106.2385	0.03	212477	keystroke_Key.backspace	Key.backspace	n/a
106.4635	0.075	212927	keystroke_a	a	n/a
106.9585	0.06	213917	keystroke_u	u	n/a
107.0475	0.061	214095	keystroke_g	g	n/a
107.2135	0.06	214427	keystroke_e	e	n/a
107.3925	0.091	214785	keystroke_Key.space	Key.space	n/a
108.2785	0.075	216557	keystroke_g	g	n/a
108.3835	0.075	216767	keystroke_a	a	n/a
108.5035	0.075	217007	keystroke_m	m	n/a
108.8035	0.09	217607	keystroke_b	b	n/a
108.9685	0.105	217937	keystroke_l	l	n/a
109.1185	0.165	218237	keystroke_i	i	n/a
109.238	0.12	218476	keystroke_n	n	n/a
109.3735	0.06	218747	keystroke_g	g	n/a
109.6285	0.0895	219257	keystroke_Key.enter	Key.enter	n/a
109.7245	12.19	219449	prompt	n/a	mall occasions brand href\n
110.3935	0.09	220787	keystroke_m	m	n/a
110.5135	0.075	221027	keystroke_a	a	n/a
110.6185	0.075	221237	keystroke_l	l	n/a
110.7685	0.0895	221537	keystroke_l	l	n/a
110.9025	0.09	221805	keystroke_Key.space	Key.space	n/a
111.008	0.0905	222016	keystroke_o	o	n/a
111.2175	0.075	222435	keystroke_c	c	n/a
111.5785	0.075	223157	keystroke_a	a	n/a
111.7885	0.06	223577	keystroke_s	s	n/a
111.9385	0.06	223877	keystroke_s	s	n/a
112.0735	0.075	224147	keystroke_i	i	n/a
113.5125	0.03	227025	keystroke_Key.backspace	Key.backspace	n/a
113.6475	0.045	227295	keystroke_Key.backspace	Key.backspace	n/a
113.783	0.0595	227566	keystroke_Key.backspace	Key.backspace	n/a
113.9475	0.031	227895	keystroke_Key.backspace	Key.backspace	n/a
114.4875	0.105	228975	keystroke_c	c	n/a
114.713	0.0905	229426	keystroke_a	a	n/a
115.1785	0.0895	230357	keystroke_s	s	n/a
115.5685	0.1195	231137	keystroke_i	i	n/a
115.7035	0.1495	231407	keystroke_o	o	n/a
115.838	0.1055	231676	keystroke_n	n	n/a
116.033	0.0905	232066	keystroke_s	s	n/a
116.183	0.105	232366	keystroke_Key.space	Key.space	n/a
116.4075	0.0755	232815	keystroke_b	b	n/a
116.813	0.1355	233626	keystroke_r	r	n/a
116.933	0.0905	233866	keystroke_a	a	n/a
117.083	0.075	234166	keystroke_n	n	n/a
117.218	0.09	234436	keystroke_d	d	n/a
117.368	0.12	234736	keystroke_Key.space	Key.space	n/a
117.683	0.03	235366	keystroke_s	s	n/a
119.3335	0.075	238667	keystroke_Key.backspace	Key.backspace	n/a
119.8285	0.09	239657	keystroke_h	h	n/a
120.9375	0.091	241875	keystroke_r	r	n/a
121.0125	0.091	242025	keystroke_e	e	n/a
121.2235	0.105	242447	keystroke_f	f	n/a
121.838	0.075	243676	keystroke_Key.enter	Key.enter	n/a
121.9195	8.35	243839	prompt	n/a	form storage workout boutique\n
122.768	0.045	245536	keystroke_f	f	n/a
123.233	0.1055	246466	keystroke_o	o	n/a
123.353	0.0755	246706	keystroke_r	r	n/a
123.488	0.15	246976	keystroke_m	m	n/a
123.6985	0.0895	247397	keystroke_Key.space	Key.space	n/a
124.028	0.1205	248056	keystroke_s	s	n/a
124.4485	0.0895	248897	keystroke_t	t	n/a
124.628	0.0905	249256	keystroke_o	o	n/a
124.913	0.075	249826	keystroke_r	r	n/a
125.078	0.09	250156	keystroke_a	a	n/a
125.1535	0.1045	250307	keystroke_g	g	n/a
125.318	0.09	250636	keystroke_e	e	n/a
125.4535	0.104	250907	keystroke_Key.space	Key.space	n/a
126.2035	0.0895	252407	keystroke_w	w	n/a
126.353	0.105	252706	keystroke_o	o	n/a
126.4735	0.0595	252947	keystroke_r	r	n/a
126.548	0.075	253096	keystroke_k	k	n/a
126.728	0.12	253456	keystroke_o	o	n/a
126.818	0.12	253636	keystroke_u	u	n/a
126.9685	0.0895	253937	keystroke_t	t	n/a
127.103	0.1205	254206	keystroke_Key.space	Key.space	n/a
127.4035	0.09	254807	keystroke_b	b	n/a
128.1535	0.1345	256307	keystroke_o	o	n/a
128.3035	0.1045	256607	keystroke_u	u	n/a
128.513	0.075	257026	keystroke_t	t	n/a
128.678	0.0605	257356	keystroke_i	i	n/a
129.5935	0.105	259187	keystroke_q	q	n/a
129.7725	0.091	259545	keystroke_u	u	n/a
129.8935	0.105	259787	keystroke_e	e	n/a
130.2225	0.046	260445	keystroke_Key.enter	Key.enter	n/a
130.2735	8.3215	260547	prompt	n/a	paso imposed opinion comparable\n
131.7375	0.091	263475	keystroke_p	p	n/a
131.843	0.1045	263686	keystroke_a	a	n/a
132.5635	0.0745	265127	keystroke_s	s	n/a
132.773	0.1055	265546	keystroke_o	o	n/a
132.923	0.075	265846	keystroke_Key.space	Key.space	n/a
133.058	0.1045	266116	keystroke_i	i	n/a
133.2685	0.1045	266537	keystroke_m	m	n/a
133.388	0.0605	266776	keystroke_p	p	n/a
133.583	0.075	267166	keystroke_o	o	n/a
133.7035	0.09	267407	keystroke_s	s	n/a
133.7775	0.1055	267555	keystroke_e	e	n/a
133.9875	0.075	267975	keystroke_d	d	n/a
134.048	0.105	268096	keystroke_Key.space	Key.space	n/a
134.258	0.075	268516	keystroke_o	o	n/a
135.3235	0.075	270647	keystroke_p	p	n/a
135.6835	0.075	271367	keystroke_i	i	n/a
135.9385	0.105	271877	keystroke_n	n	n/a
136.118	0.1505	272236	keystroke_i	i	n/a
136.2835	0.074	272567	keystroke_o	o	n/a
136.3725	0.15	272745	keystroke_n	n	n/a
136.5675	0.09	273135	keystroke_Key.space	Key.space	n/a
136.7775	0.075	273555	keystroke_c	c	n/a
137.003	0.1055	274006	keystroke_o	o	n/a
137.1225	0.106	274245	keystroke_m	m	n/a
137.2725	0.075	274545	keystroke_p	p	n/a
137.5275	0.136	275055	keystroke_a	a	n/a
137.708	0.1195	275416	keystroke_r	r	n/a
137.8435	0.0895	275687	keystroke_a	a	n/a
137.9775	0.106	275955	keystroke_b	b	n/a
138.2185	0.029	276437	keystroke_l	l	n/a
138.2925	0.076	276585	keystroke_e	e	n/a
138.5325	0.06	277065	keystroke_Key.enter	Key.enter	n/a
138.599	10.2565	277198	prompt	n/a	outlets construct viewing distribute\n
139.463	0.165	278926	keystroke_o	o	n/a
139.598	0.12	279196	keystroke_u	u	n/a
139.733	0.075	279466	keystroke_t	t	n/a
139.928	0.075	279856	keystroke_l	l	n/a
140.033	0.1355	280066	keystroke_e	e	n/a
140.1535	0.09	280307	keystroke_t	t	n/a
140.333	0.0605	280666	keystroke_s	s	n/a
140.4985	0.0895	280997	keystroke_Key.space	Key.space	n/a
140.8135	0.075	281627	keystroke_c	c	n/a
140.9175	0.151	281835	keystroke_o	o	n/a
141.0235	0.104	282047	keystroke_n	n	n/a
141.4875	0.06	282975	keystroke_s	s	n/a
141.623	0.0745	283246	keystroke_t	t	n/a
141.8175	0.045	283635	keystroke_r	r	n/a
141.9685	0.059	283937	keystroke_u	u	n/a
142.0875	0.091	284175	keystroke_c	c	n/a
142.3125	0.15	284625	keystroke_Key.space	Key.space	n/a
142.9125	0.075	285825	keystroke_Key.backspace	Key.backspace	n/a
143.0485	0.12	286097	keystroke_t	t	n/a
143.3025	0.12	286605	keystroke_Key.space	Key.space	n/a
143.4375	0.075	286875	keystroke_v	v	n/a
143.5575	0.0755	287115	keystroke_i	i	n/a
143.6485	0.1345	287297	keystroke_e	e	n/a
143.798	0.1205	287596	keystroke_w	w	n/a
144.023	0.165	288046	keystroke_i	i	n/a
144.143	0.09	288286	keystroke_n	n	n/a
144.248	0.075	288496	keystroke_g	g	n/a
144.608	0.15	289216	keystroke_Key.space	Key.space	n/a
145.163	0.0605	290326	keystroke_d	d	n/a
145.283	0.12	290566	keystroke_i	i	n/a
145.358	0.09	290716	keystroke_s	s	n/a
146.3635	0.075	292727	keystroke_t	t	n/a
146.574	0.0435	293148	keystroke_r	r	n/a
146.708	0.09	293416	keystroke_i	i	n/a
147.053	0.0295	294106	keystroke_b	b	n/a
147.8185	0.09	295637	keystroke_u	u	n/a
147.9385	0.135	295877	keystroke_t	t	n/a
148.0885	0.075	296177	keystroke_e	e	n/a
148.7775	0.075	297555	keystroke_Key.enter	Key.enter	n/a
148.8595	11.155	297719	prompt	n/a	anaheim prefers dawn sport\n
149.8285	0.119	299657	keystroke_a	a	n/a
149.9625	0.106	299925	keystroke_n	n	n/a
150.1435	0.044	300287	keystroke_a	a	n/a
150.3825	0.09	300765	keystroke_h	h	n/a
150.6825	0.09	301365	keystroke_e	e	n/a
150.8925	0.09	301785	keystroke_i	i	n/a
151.6575	0.091	303315	keystroke_m	m	n/a
151.8225	0.06	303645	keystroke_Key.space	Key.space	n/a
152.8285	0.059	305657	keystroke_p	p	n/a
152.9185	0.135	305837	keystroke_e	e	n/a
152.9935	0.195	305987	keystroke_r	r	n/a
153.8475	0.015	307695	keystroke_Key.backspace	Key.backspace	n/a
153.9075	0.046	307815	keystroke_Key.backspace	Key.backspace	n/a
153.9835	0.09	307967	keystroke_r	r	n/a
154.1635	0.06	308327	keystroke_e	e	n/a
154.3885	0.09	308777	keystroke_f	f	n/a
154.5375	0.151	309075	keystroke_e	e	n/a
154.6735	0.075	309347	keystroke_r	r	n/a
154.8535	0.104	309707	keystroke_s	s	n/a
155.1975	0.121	310395	keystroke_Key.space	Key.space	n/a
155.7975	0.121	311595	keystroke_s	s	n/a
155.9785	0.104	311957	keystroke_a	a	n/a
156.4575	0.03	312915	keystroke_Key.backspace	Key.backspace	n/a
156.5625	0.031	313125	keystroke_Key.backspace	Key.backspace	n/a
156.608	0.1055	313216	keystroke_d	d	n/a
156.7135	0.075	313427	keystroke_a	a	n/a
156.9985	0.09	313997	keystroke_w	w	n/a
158.033	0.15	316066	keystroke_n	n	n/a
158.168	0.105	316336	keystroke_Key.space	Key.space	n/a
158.7825	0.121	317565	keystroke_s	s	n/a
159.0535	0.09	318107	keystroke_p	p	n/a
159.2935	0.1045	318587	keystroke_o	o	n/a
159.4135	0.09	318827	keystroke_r	r	n/a
159.6235	0.0595	319247	keystroke_t	t	n/a
159.938	0.075	319876	keystroke_Key.enter	Key.enter	n/a
160.018	13.4065	320036	prompt	n/a	brazilian cuts prefix translations\n
161.4535	0.075	322907	keystroke_b	b	n/a
161.5735	0.15	323147	keystroke_r	r	n/a
162.3985	0.074	324797	keystroke_z	z	n/a
163.343	0.0755	326686	keystroke_Key.backspace	Key.backspace	n/a
163.538	0.1055	327076	keystroke_a	a	n/a
164.618	0.03	329236	keystroke_z	z	n/a
164.798	0.075	329596	keystroke_i	i	n/a
165.983	0.075	331966	keystroke_l	l	n/a
166.118	0.12	332236	keystroke_i	i	n/a
166.2685	0.0895	332537	keystroke_a	a	n/a
166.388	0.1345	332776	keystroke_n	n	n/a
166.5685	0.0745	333137	keystroke_Key.space	Key.space	n/a
166.688	0.105	333376	keystroke_c	c	n/a
166.838	0.075	333676	keystroke_u	u	n/a
166.958	0.12	333916	keystroke_t	t	n/a
167.108	0.1205	334216	keystroke_s	s	n/a
167.693	0.09	335386	keystroke_Key.space	Key.space	n/a
167.9785	0.0895	335957	keystroke_p	p	n/a
168.113	0.12	336226	keystroke_r	r	n/a
168.218	0.0755	336436	keystroke_e	e	n/a
168.548	0.0745	337096	keystroke_i	i	n/a
169.0275	0.016	338055	keystroke_Key.backspace	Key.backspace	n/a
169.823	0.06	339646	keystroke_i	i	n/a
170.273	0.075	340546	keystroke_Key.backspace	Key.backspace	n/a
170.4685	0.075	340937	keystroke_f	f	n/a
170.603	0.09	341206	keystroke_i	i	n/a
170.738	0.105	341476	keystroke_x	x	n/a
171.353	0.105	342706	keystroke_Key.space	Key.space	n/a
171.653	0.0755	343306	keystroke_t	t	n/a
171.848	0.09	343696	keystroke_r	r	n/a
171.968	0.105	343936	keystroke_a	a	n/a
172.208	0.1055	344416	keystroke_n	n	n/a
172.463	0.09	344926	keystroke_s	s	n/a
172.5985	0.0895	345197	keystroke_l	l	n/a
172.7185	0.0895	345437	keystroke_a	a	n/a
172.7935	0.1045	345587	keystroke_t	t	n/a
172.913	0.09	345826	keystroke_i	i	n/a
172.988	0.12	345976	keystroke_o	o	n/a
173.063	0.1355	346126	keystroke_n	n	n/a
173.183	0.09	346366	keystroke_s	s	n/a
173.363	0.06	346726	keystroke_Key.enter	Key.enter	n/a
173.429	7.2555	346858	prompt	n/a	incorrect voting dans vermont\n
174.2785	0.014	348557	keystroke_i	i	n/a
174.3375	0.106	348675	keystroke_n	n	n/a
174.4875	0.09	348975	keystroke_c	c	n/a
174.5625	0.091	349125	keystroke_o	o	n/a
174.6825	0.091	349365	keystroke_r	r	n/a
174.938	0.09	349876	keystroke_r	r	n/a
174.983	0.135	349966	keystroke_e	e	n/a
176.183	0.1355	352366	keystroke_c	c	n/a
176.468	0.0895	352936	keystroke_t	t	n/a
176.6035	0.1195	353207	keystroke_Key.space	Key.space	n/a
176.843	0.1055	353686	keystroke_v	v	n/a
176.9625	0.105	353925	keystroke_o	o	n/a
177.1575	0.09	354315	keystroke_t	t	n/a
177.2625	0.15	354525	keystroke_i	i	n/a
177.3825	0.075	354765	keystroke_n	n	n/a
177.4725	0.0755	354945	keystroke_g	g	n/a
177.728	0.1345	355456	keystroke_Key.space	Key.space	n/a
178.223	0.1205	356446	keystroke_d	d	n/a
178.3575	0.075	356715	keystroke_a	a	n/a
178.493	0.0895	356986	keystroke_n	n	n/a
178.6125	0.1205	357225	keystroke_s	s	n/a
178.793	0.075	357586	keystroke_Key.space	Key.space	n/a
179.168	0.09	358336	keystroke_v	v	n/a
179.378	0.135	358756	keystroke_e	e	n/a
179.483	0.0905	358966	keystroke_r	r	n/a
179.738	0.075	359476	keystroke_m	m	n/a
179.843	0.135	359686	keystroke_o	o	n/a
180.218	0.075	360436	keystroke_n	n	n/a
180.338	0.0755	360676	keystroke_t	t	n/a
180.608	0.075	361216	keystroke_Key.enter	Key.enter	n/a
180.6905	11.229	361381	prompt	n/a	congressional setup mostly jeremy\n
181.763	0.09	363526	keystroke_c	c	n/a
181.928	0.135	363856	keystroke_o	o	n/a
182.048	0.105	364096	keystroke_n	n	n/a
183.353	0.09	366706	keystroke_g	g	n/a
183.608	0.105	367216	keystroke_r	r	n/a
183.758	0.0905	367516	keystroke_e	e	n/a
183.983	0.075	367966	keystroke_s	s	n/a
184.148	0.045	368296	keystroke_s	s	n/a
184.2685	0.1045	368537	keystroke_i	i	n/a
184.358	0.135	368716	keystroke_o	o	n/a
184.448	0.1205	368896	keystroke_n	n	n/a
184.613	0.06	369226	keystroke_a	a	n/a
184.763	0.165	369526	keystroke_l	l	n/a
184.8825	0.135	369765	keystroke_Key.space	Key.space	n/a
185.0325	0.0905	370065	keystroke_s	s	n/a
185.273	0.105	370546	keystroke_e	e	n/a
185.6925	0.0755	371385	keystroke_t	t	n/a
186.0975	0.0755	372195	keystroke_u	u	n/a
186.6985	0.06	373397	keystroke_p	p	n/a
186.9075	0.135	373815	keystroke_Key.space	Key.space	n/a
187.028	0.1045	374056	keystroke_m	m	n/a
187.1475	0.06	374295	keystroke_o	o	n/a
187.253	0.1045	374506	keystroke_s	s	n/a
187.4325	0.0905	374865	keystroke_t	t	n/a
187.628	0.0455	375256	keystroke_l	l	n/a
187.8525	0.0905	375705	keystroke_y	y	n/a
188.228	0.1345	376456	keystroke_Key.space	Key.space	n/a
189.4425	0.09	378885	keystroke_j	j	n/a
189.7125	0.15	379425	keystroke_e	e	n/a
189.923	0.15	379846	keystroke_r	r	n/a
190.0875	0.0905	380175	keystroke_e	e	n/a
190.2685	0.074	380537	keystroke_m	m	n/a
190.5225	0.0755	381045	keystroke_y	y	n/a
191.843	0.075	383686	keystroke_Key.enter	Key.enter	n/a
191.924	9.806	383848	prompt	n/a	processing literature diego implemented\n
192.6825	0.09	385365	keystroke_p	p	n/a
192.8325	0.105	385665	keystroke_r	r	n/a
192.9385	0.104	385877	keystroke_o	o	n/a
193.1025	0.105	386205	keystroke_c	c	n/a
193.2085	0.104	386417	keystroke_e	e	n/a
193.403	0.0905	386806	keystroke_s	s	n/a
193.553	0.075	387106	keystroke_s	s	n/a
193.6425	0.135	387285	keystroke_i	i	n/a
193.7475	0.075	387495	keystroke_n	n	n/a
193.8375	0.0905	387675	keystroke_g	g	n/a
193.9425	0.1055	387885	keystroke_Key.space	Key.space	n/a
194.0925	0.105	388185	keystroke_l	l	n/a
194.2275	0.0905	388455	keystroke_i	i	n/a
194.3325	0.075	388665	keystroke_t	t	n/a
194.4825	0.1205	388965	keystroke_e	e	n/a
194.587	0.136	389174	keystroke_r	r	n/a
194.7375	0.0905	389475	keystroke_a	a	n/a
194.8575	0.075	389715	keystroke_t	t	n/a
195.0375	0.105	390075	keystroke_u	u	n/a
195.1575	0.135	390315	keystroke_r	r	n/a
195.278	0.09	390556	keystroke_e	e	n/a
195.3825	0.075	390765	keystroke_Key.space	Key.space	n/a
195.6075	0.075	391215	keystroke_d	d	n/a
195.743	0.0895	391486	keystroke_i	i	n/a
196.0125	0.0905	392025	keystroke_e	e	n/a
196.613	0.0445	393226	keystroke_Key.backspace	Key.backspace	n/a
196.7325	0.0605	393465	keystroke_Key.backspace	Key.backspace	n/a
196.8075	0.061	393615	keystroke_e	e	n/a
197.648	0.0595	395296	keystroke_Key.backspace	Key.backspace	n/a
197.9325	0.075	395865	keystroke_i	i	n/a
198.0825	0.105	396165	keystroke_e	e	n/a
198.3375	0.0905	396675	keystroke_g	g	n/a
198.4875	0.09	396975	keystroke_o	o	n/a
199.118	0.0595	398236	keystroke_Key.space	Key.space	n/a
199.3575	0.091	398715	keystroke_i	i	n/a
199.8375	0.0905	399675	keystroke_m	m	n/a
200.003	0.06	400006	keystroke_p	p	n/a
200.2275	0.0755	400455	keystroke_l	l	n/a
200.7235	0.0295	401447	keystroke_e	e	n/a
200.858	0.074	401716	keystroke_m	m	n/a
200.978	0.105	401956	keystroke_e	e	n/a
201.113	0.075	402226	keystroke_n	n	n/a
201.218	0.0755	402436	keystroke_t	t	n/a
201.368	0.06	402736	keystroke_e	e	n/a
201.548	0.075	403096	keystroke_d	d	n/a
201.668	0.06	403336	keystroke_Key.enter	Key.enter	n/a
201.7345	11.56	403469	prompt	n/a	investigated journalism happened limitation\n
202.5825	0.075	405165	keystroke_i	i	n/a
202.7025	0.1205	405405	keystroke_n	n	n/a
202.8385	0.0745	405677	keystroke_v	v	n/a
202.9725	0.0905	405945	keystroke_e	e	n/a
203.153	0.0895	406306	keystroke_s	s	n/a
203.3625	0.0605	406725	keystroke_t	t	n/a
203.4675	0.09	406935	keystroke_i	i	n/a
203.753	0.075	407506	keystroke_g	g	n/a
203.918	0.0745	407836	keystroke_a	a	n/a
204.0375	0.075	408075	keystroke_t	t	n/a
204.218	0.0595	408436	keystroke_e	e	n/a
204.428	0.045	408856	keystroke_d	d	n/a
204.5175	0.09	409035	keystroke_Key.space	Key.space	n/a
204.848	0.1045	409696	keystroke_h	h	n/a
205.0125	0.1355	410025	keystroke_o	o	n/a
205.1325	0.09	410265	keystroke_u	u	n/a
205.2825	0.09	410565	keystroke_r	r	n/a
205.688	0.06	411376	keystroke_Key.backspace	Key.backspace	n/a
205.823	0.045	411646	keystroke_Key.backspace	Key.backspace	n/a
205.9575	0.045	411915	keystroke_Key.backspace	Key.backspace	n/a
206.0775	0.06	412155	keystroke_Key.backspace	Key.backspace	n/a
207.0675	0.0755	414135	keystroke_j	j	n/a
207.2625	0.195	414525	keystroke_o	o	n/a
207.8325	0.1045	415665	keystroke_u	u	n/a
208.2375	0.0905	416475	keystroke_r	r	n/a
208.3885	0.0735	416777	keystroke_n	n	n/a
208.493	0.075	416986	keystroke_a	a	n/a
208.7325	0.106	417465	keystroke_l	l	n/a
208.8235	0.12	417647	keystroke_i	i	n/a
208.9575	0.0905	417915	keystroke_s	s	n/a
209.1075	0.075	418215	keystroke_m	m	n/a
209.528	0.0895	419056	keystroke_Key.space	Key.space	n/a
209.9635	0.074	419927	keystroke_h	h	n/a
210.128	0.0145	420256	keystroke_a	a	n/a
210.1725	0.0755	420345	keystroke_p	p	n/a
210.3375	0.061	420675	keystroke_p	p	n/a
210.4425	0.106	420885	keystroke_e	e	n/a
210.5325	0.09	421065	keystroke_n	n	n/a
210.653	0.09	421306	keystroke_e	e	n/a
210.8775	0.0455	421755	keystroke_d	d	n/a
210.9375	0.075	421875	keystroke_Key.space	Key.space	n/a
211.0735	0.089	422147	keystroke_l	l	n/a
211.2075	0.075	422415	keystroke_i	i	n/a
211.3575	0.1205	422715	keystroke_m	m	n/a
211.493	0.0905	422986	keystroke_i	i	n/a
211.598	0.075	423196	keystroke_t	t	n/a
211.733	0.075	423466	keystroke_a	a	n/a
211.808	0.075	423616	keystroke_t	t	n/a
211.883	0.12	423766	keystroke_i	i	n/a
211.988	0.105	423976	keystroke_o	o	n/a
212.063	0.09	424126	keystroke_n	n	n/a
212.183	0.06	424366	keystroke_s	s	n/a
212.9025	0.06	425805	keystroke_Key.backspace	Key.backspace	n/a
213.2325	0.0605	426465	keystroke_Key.enter	Key.enter	n/a
213.299	14.5905	426598	prompt	n/a	francisco wrestling drivers couple\n
214.2385	0.074	428477	keystroke_f	f	n/a
214.418	0.1045	428836	keystroke_a	a	n/a
215.4375	0.075	430875	keystroke_Key.backspace	Key.backspace	n/a
215.5885	0.15	431177	keystroke_r	r	n/a
215.7385	0.09	431477	keystroke_a	a	n/a
215.9325	0.0605	431865	keystroke_n	n	n/a
217.5985	0.0895	435197	keystroke_c	c	n/a
217.823	0.0755	435646	keystroke_i	i	n/a
218.048	0.09	436096	keystroke_s	s	n/a
218.9775	0.09	437955	keystroke_c	c	n/a
219.113	0.1495	438226	keystroke_o	o	n/a
219.248	0.1045	438496	keystroke_Key.space	Key.space	n/a
219.413	0.06	438826	keystroke_r	r	n/a
219.8025	0.075	439605	keystroke_Key.backspace	Key.backspace	n/a
219.8925	0.1955	439785	keystroke_w	w	n/a
220.0435	0.164	440087	keystroke_e	e	n/a
220.5685	0.0745	441137	keystroke_Key.backspace	Key.backspace	n/a
220.6735	0.1495	441347	keystroke_r	r	n/a
220.778	0.15	441556	keystroke_e	e	n/a
221.033	0.105	442066	keystroke_s	s	n/a
221.228	0.105	442456	keystroke_t	t	n/a
221.348	0.1645	442696	keystroke_i	i	n/a
221.4375	0.135	442875	keystroke_n	n	n/a
221.5575	0.0605	443115	keystroke_g	g	n/a
221.9775	0.0455	443955	keystroke_Key.backspace	Key.backspace	n/a
222.3375	0.075	444675	keystroke_Key.backspace	Key.backspace	n/a
222.848	0.06	445696	keystroke_Key.backspace	Key.backspace	n/a
223.118	0.1505	446236	keystroke_l	l	n/a
223.253	0.15	446506	keystroke_i	i	n/a
223.358	0.105	446716	keystroke_n	n	n/a
223.478	0.0605	446956	keystroke_g	g	n/a
224.0325	0.06	448065	keystroke_Key.space	Key.space	n/a
225.323	0.12	450646	keystroke_d	d	n/a
226.1025	0.075	452205	keystroke_r	r	n/a
226.2225	0.12	452445	keystroke_i	i	n/a
226.3275	0.075	452655	keystroke_v	v	n/a
226.5525	0.12	453105	keystroke_e	e	n/a
226.6275	0.09	453255	keystroke_r	r	n/a
226.8075	0.105	453615	keystroke_s	s	n/a
226.9275	0.105	453855	keystroke_Key.space	Key.space	n/a
227.063	0.0895	454126	keystroke_c	c	n/a
227.1375	0.1355	454275	keystroke_o	o	n/a
227.2275	0.1205	454455	keystroke_u	u	n/a
227.3775	0.0905	454755	keystroke_p	p	n/a
227.5575	0.091	455115	keystroke_l	l	n/a
227.693	0.045	455386	keystroke_e	e	n/a
227.8275	0.06	455655	keystroke_Key.enter	Key.enter	n/a
227.896	14.543	455792	prompt	n/a	broadcasting proposals sentence take\n
228.6075	0.091	457215	keystroke_b	b	n/a
228.758	0.12	457516	keystroke_r	r	n/a
228.863	0.09	457726	keystroke_a	a	n/a
229.253	0.03	458506	keystroke_d	d	n/a
229.463	0.105	458926	keystroke_c	c	n/a
229.5825	0.1055	459165	keystroke_a	a	n/a
229.7325	0.091	459465	keystroke_s	s	n/a
229.898	0.0745	459796	keystroke_t	t	n/a
229.987	0.1355	459974	keystroke_i	i	n/a
230.077	0.105	460154	keystroke_n	n	n/a
230.257	0.136	460514	keystroke_g	g	n/a
230.753	0.09	461506	keystroke_Key.space	Key.space	n/a
230.948	0.09	461896	keystroke_p	p	n/a
231.083	0.09	462166	keystroke_r	r	n/a
231.203	0.09	462406	keystroke_o	o	n/a
232.943	0.045	465886	keystroke_Key.backspace	Key.backspace	n/a
233.108	0.045	466216	keystroke_Key.backspace	Key.backspace	n/a
235.2275	0.025	470455	keystroke_o	o	n/a
235.4025	0.09	470805	keystroke_a	a	n/a
235.7475	0.0755	471495	keystroke_d	d	n/a
236.0025	0.1205	472005	keystroke_c	c	n/a
236.1525	0.075	472305	keystroke_a	a	n/a
236.3635	0.0595	472727	keystroke_s	s	n/a
236.543	0.075	473086	keystroke_t	t	n/a
236.693	0.165	473386	keystroke_i	i	n/a
236.843	0.105	473686	keystroke_n	n	n/a
236.933	0.12	473866	keystroke_g	g	n/a
237.067	0.105	474134	keystroke_Key.space	Key.space	n/a
237.188	0.119	474376	keystroke_p	p	n/a
237.428	0.105	474856	keystroke_r	r	n/a
238.208	0.06	476416	keystroke_o	o	n/a
238.433	0.0605	476866	keystroke_p	p	n/a
238.6275	0.075	477255	keystroke_o	o	n/a
238.8075	0.09	477615	keystroke_s	s	n/a
238.9275	0.075	477855	keystroke_a	a	n/a
239.123	0.0745	478246	keystroke_l	l	n/a
239.513	0.09	479026	keystroke_s	s	n/a
239.618	0.12	479236	keystroke_Key.space	Key.space	n/a
240.023	0.075	480046	keystroke_s	s	n/a
240.173	0.105	480346	keystroke_e	e	n/a
240.293	0.09	480586	keystroke_n	n	n/a
240.428	0.09	480856	keystroke_t	t	n/a
241.043	0.0895	482086	keystroke_e	e	n/a
241.2375	0.09	482475	keystroke_n	n	n/a
241.3425	0.1205	482685	keystroke_c	c	n/a
241.4475	0.105	482895	keystroke_e	e	n/a
241.6275	0.105	483255	keystroke_Key.space	Key.space	n/a
241.8825	0.0905	483765	keystroke_t	t	n/a
241.987	0.1055	483974	keystroke_a	a	n/a
242.123	0.075	484246	keystroke_k	k	n/a
242.213	0.09	484426	keystroke_e	e	n/a
242.3625	0.0745	484725	keystroke_Key.enter	Key.enter	n/a
242.4445	7.5695	484889	prompt	n/a	modified london savage alternatives\n
243.113	0.0745	486226	keystroke_m	m	n/a
243.4425	0.06	486885	keystroke_o	o	n/a
243.6225	0.06	487245	keystroke_d	d	n/a
243.7425	0.075	487485	keystroke_i	i	n/a
244.013	0.074	488026	keystroke_f	f	n/a
244.117	0.106	488234	keystroke_i	i	n/a
244.268	0.119	488536	keystroke_e	e	n/a
244.492	0.06	488984	keystroke_d	d	n/a
244.613	0.089	489226	keystroke_Key.space	Key.space	n/a
244.823	0.09	489646	keystroke_l	l	n/a
245.002	0.135	490004	keystroke_o	o	n/a
245.107	0.106	490214	keystroke_n	n	n/a
245.602	0.091	491204	keystroke_d	d	n/a
245.782	0.15	491564	keystroke_o	o	n/a
245.917	0.075	491834	keystroke_n	n	n/a
246.323	0.1045	492646	keystroke_Key.space	Key.space	n/a
246.757	0.091	493514	keystroke_s	s	n/a
246.907	0.075	493814	keystroke_a	a	n/a
247.072	0.075	494144	keystroke_v	v	n/a
247.252	0.091	494504	keystroke_a	a	n/a
247.4775	0.075	494955	keystroke_g	g	n/a
247.613	0.0895	495226	keystroke_e	e	n/a
247.7625	0.105	495525	keystroke_Key.space	Key.space	n/a
247.9575	0.09	495915	keystroke_a	a	n/a
248.1075	0.0905	496215	keystroke_l	l	n/a
248.2575	0.06	496515	keystroke_t	t	n/a
248.423	0.1195	496846	keystroke_e	e	n/a
248.5425	0.075	497085	keystroke_r	r	n/a
248.6625	0.12	497325	keystroke_n	n	n/a
248.7675	0.09	497535	keystroke_a	a	n/a
248.8725	0.09	497745	keystroke_t	t	n/a
248.9925	0.09	497985	keystroke_i	i	n/a
249.1275	0.09	498255	keystroke_v	v	n/a
249.293	0.1045	498586	keystroke_e	e	n/a
249.7875	0.015	499575	keystroke_s	s	n/a
249.9525	0.06	499905	keystroke_Key.enter	Key.enter	n/a
250.018	6.146	500036	prompt	n/a	less vaccine prep honest\n
250.8825	0.0605	501765	keystroke_l	l	n/a
251.0775	0.09	502155	keystroke_e	e	n/a
251.2575	0.0755	502515	keystroke_s	s	n/a
251.4525	0.03	502905	keystroke_s	s	n/a
251.4975	0.105	502995	keystroke_Key.space	Key.space	n/a
251.633	0.1195	503266	keystroke_c	c	n/a
251.7825	0.12	503565	keystroke_a	a	n/a
252.533	0.045	505066	keystroke_Key.backspace	Key.backspace	n/a
252.653	0.06	505306	keystroke_Key.backspace	Key.backspace	n/a
252.698	0.12	505396	keystroke_v	v	n/a
252.848	0.104	505696	keystroke_a	a	n/a
253.102	0.076	506204	keystroke_c	c	n/a
253.3725	0.0755	506745	keystroke_c	c	n/a
253.5375	0.1205	507075	keystroke_i	i	n/a
253.643	0.105	507286	keystroke_n	n	n/a
253.793	0.105	507586	keystroke_e	e	n/a
254.423	0.1345	508846	keystroke_Key.space	Key.space	n/a
254.693	0.09	509386	keystroke_p	p	n/a
254.813	0.135	509626	keystroke_r	r	n/a
254.9325	0.075	509865	keystroke_e	e	n/a
255.0525	0.075	510105	keystroke_p	p	n/a
255.2475	0.09	510495	keystroke_Key.space	Key.space	n/a
255.3825	0.105	510765	keystroke_h	h	n/a
255.518	0.135	511036	keystroke_o	o	n/a
255.638	0.09	511276	keystroke_n	n	n/a
255.758	0.045	511516	keystroke_e	e	n/a
255.818	0.149	511636	keystroke_s	s	n/a
255.953	0.09	511906	keystroke_t	t	n/a
256.118	0.045	512236	keystroke_Key.enter	Key.enter	n/a
256.1685	11.351	512337	prompt	n/a	cingular songs included wales\n
257.888	0.06	515776	keystroke_c	c	n/a
258.082	0.106	516164	keystroke_i	i	n/a
258.667	0.061	517334	keystroke_n	n	n/a
259.507	0.075	519014	keystroke_g	g	n/a
261.248	0.075	522496	keystroke_u	u	n/a
261.458	0.09	522916	keystroke_l	l	n/a
261.608	0.165	523216	keystroke_a	a	n/a
261.818	0.075	523636	keystroke_r	r	n/a
261.968	0.12	523936	keystroke_Key.space	Key.space	n/a
262.133	0.105	524266	keystroke_s	s	n/a
262.2525	0.1205	524505	keystroke_o	o	n/a
262.3425	0.105	524685	keystroke_n	n	n/a
262.493	0.0295	524986	keystroke_g	g	n/a
263.0475	0.09	526095	keystroke_s	s	n/a
263.1525	0.0905	526305	keystroke_Key.space	Key.space	n/a
263.348	0.0895	526696	keystroke_i	i	n/a
263.5125	0.09	527025	keystroke_n	n	n/a
263.707	0.076	527414	keystroke_c	c	n/a
263.813	0.12	527626	keystroke_l	l	n/a
263.948	0.09	527896	keystroke_u	u	n/a
265.043	0.075	530086	keystroke_d	d	n/a
265.268	0.075	530536	keystroke_e	e	n/a
265.913	0.06	531826	keystroke_d	d	n/a
266.108	0.09	532216	keystroke_Key.space	Key.space	n/a
266.453	0.075	532906	keystroke_w	w	n/a
266.558	0.1055	533116	keystroke_a	a	n/a
266.798	0.105	533596	keystroke_l	l	n/a
266.918	0.06	533836	keystroke_e	e	n/a
267.113	0.09	534226	keystroke_s	s	n/a
267.458	0.06	534916	keystroke_Key.enter	Key.enter	n/a
267.5235	10.241	535047	prompt	n/a	wave blast compromise brother\n
268.508	0.09	537016	keystroke_w	w	n/a
268.717	0.046	537434	keystroke_a	a	n/a
268.808	0.074	537616	keystroke_v	v	n/a
269.077	0.106	538154	keystroke_e	e	n/a
269.332	0.1355	538664	keystroke_Key.space	Key.space	n/a
269.633	0.075	539266	keystroke_b	b	n/a
269.828	0.0445	539656	keystroke_a	a	n/a
269.903	0.104	539806	keystroke_l	l	n/a
270.038	0.119	540076	keystroke_s	s	n/a
270.232	0.075	540464	keystroke_t	t	n/a
270.802	0.0455	541604	keystroke_Key.backspace	Key.backspace	n/a
270.952	0.0455	541904	keystroke_Key.backspace	Key.backspace	n/a
271.087	0.045	542174	keystroke_Key.backspace	Key.backspace	n/a
271.328	0.089	542656	keystroke_l	l	n/a
271.672	0.045	543344	keystroke_Key.backspace	Key.backspace	n/a
271.852	0.015	543704	keystroke_Key.backspace	Key.backspace	n/a
272.078	0.09	544156	keystroke_l	l	n/a
272.213	0.15	544426	keystroke_a	a	n/a
272.318	0.105	544636	keystroke_s	s	n/a
272.528	0.09	545056	keystroke_t	t	n/a
272.707	0.075	545414	keystroke_Key.space	Key.space	n/a
273.398	0.104	546796	keystroke_c	c	n/a
273.518	0.135	547036	keystroke_o	o	n/a
273.623	0.134	547246	keystroke_m	m	n/a
273.862	0.076	547724	keystroke_p	p	n/a
274.0575	0.1055	548115	keystroke_r	r	n/a
274.2525	0.105	548505	keystroke_o	o	n/a
274.6125	0.1055	549225	keystroke_m	m	n/a
275.0475	0.09	550095	keystroke_i	i	n/a
275.183	0.1045	550366	keystroke_s	s	n/a
275.2725	0.0905	550545	keystroke_e	e	n/a
275.4975	0.09	550995	keystroke_Key.space	Key.space	n/a
276.8025	0.1055	553605	keystroke_b	b	n/a
277.013	0.09	554026	keystroke_r	r	n/a
277.133	0.09	554266	keystroke_o	o	n/a
277.238	0.06	554476	keystroke_t	t	n/a
277.328	0.12	554656	keystroke_h	h	n/a
277.463	0.089	554926	keystroke_e	e	n/a
277.538	0.074	555076	keystroke_r	r	n/a
277.672	0.09	555344	keystroke_Key.enter	Key.enter	n/a
277.769	6.565	555538	prompt	n/a	sound chest seattle continental\n
278.483	0.059	556966	keystroke_s	s	n/a
278.588	0.15	557176	keystroke_o	o	n/a
278.677	0.091	557354	keystroke_u	u	n/a
278.888	0.105	557776	keystroke_n	n	n/a
278.978	0.09	557956	keystroke_d	d	n/a
279.082	0.091	558164	keystroke_Key.space	Key.space	n/a
279.188	0.09	558376	keystroke_c	c	n/a
279.262	0.106	558524	keystroke_h	h	n/a
279.383	0.09	558766	keystroke_e	e	n/a
279.503	0.12	559006	keystroke_s	s	n/a
279.653	0.165	559306	keystroke_t	t	n/a
279.847	0.105	559694	keystroke_Key.space	Key.space	n/a
280.1475	0.0905	560295	keystroke_s	s	n/a
280.253	0.179	560506	keystroke_e	e	n/a
280.418	0.06	560836	keystroke_a	a	n/a
280.673	0.06	561346	keystroke_t	t	n/a
280.808	0.06	561616	keystroke_t	t	n/a
280.928	0.059	561856	keystroke_l	l	n/a
281.032	0.091	562064	keystroke_e	e	n/a
281.168	0.075	562336	keystroke_Key.space	Key.space	n/a
281.288	0.089	562576	keystroke_c	c	n/a
281.408	0.135	562816	keystroke_o	o	n/a
281.498	0.12	562996	keystroke_n	n	n/a
282.412	0.076	564824	keystroke_t	t	n/a
282.8625	0.105	565725	keystroke_i	i	n/a
283.088	0.075	566176	keystroke_n	n	n/a
283.4475	0.09	566895	keystroke_e	e	n/a
283.657	0.0905	567314	keystroke_n	n	n/a
283.8075	0.09	567615	keystroke_t	t	n/a
283.913	0.075	567826	keystroke_a	a	n/a
284.0475	0.075	568095	keystroke_l	l	n/a
284.2575	0.075	568515	keystroke_Key.enter	Key.enter	n/a
284.3385	6.9705	568677	prompt	n/a	answers heavy tablet marketing\n
284.9775	0.1055	569955	keystroke_a	a	n/a
285.1425	0.09	570285	keystroke_n	n	n/a
285.4425	0.06	570885	keystroke_s	s	n/a
285.638	0.1495	571276	keystroke_w	w	n/a
285.713	0.18	571426	keystroke_e	e	n/a
285.8625	0.1055	571725	keystroke_r	r	n/a
286.088	0.0745	572176	keystroke_s	s	n/a
286.193	0.1045	572386	keystroke_Key.space	Key.space	n/a
286.4325	0.09	572865	keystroke_h	h	n/a
286.5525	0.075	573105	keystroke_e	e	n/a
286.6125	0.09	573225	keystroke_a	a	n/a
286.7775	0.0905	573555	keystroke_v	v	n/a
287.4675	0.075	574935	keystroke_y	y	n/a
287.6475	0.075	575295	keystroke_Key.space	Key.space	n/a
287.9925	0.105	575985	keystroke_t	t	n/a
288.0985	0.0895	576197	keystroke_a	a	n/a
288.2175	0.09	576435	keystroke_b	b	n/a
288.4275	0.075	576855	keystroke_l	l	n/a
288.5475	0.075	577095	keystroke_e	e	n/a
288.8325	0.1055	577665	keystroke_t	t	n/a
288.9675	0.1205	577935	keystroke_Key.space	Key.space	n/a
289.208	0.0745	578416	keystroke_m	m	n/a
289.4625	0.1205	578925	keystroke_a	a	n/a
289.7175	0.0755	579435	keystroke_r	r	n/a
289.958	0.0745	579916	keystroke_k	k	n/a
290.063	0.1195	580126	keystroke_e	e	n/a
290.2725	0.0905	580545	keystroke_t	t	n/a
290.4525	0.135	580905	keystroke_i	i	n/a
290.5425	0.105	581085	keystroke_n	n	n/a
290.6775	0.09	581355	keystroke_g	g	n/a
291.233	0.0745	582466	keystroke_Key.enter	Key.enter	n/a
291.3135	6.776	582627	prompt	n/a	previous courtesy scale worried\n
291.9975	0.09	583995	keystroke_p	p	n/a
292.1625	0.1205	584325	keystroke_r	r	n/a
292.4775	0.075	584955	keystroke_e	e	n/a
292.688	0.0895	585376	keystroke_v	v	n/a
292.8375	0.09	585675	keystroke_i	i	n/a
292.9575	0.15	585915	keystroke_o	o	n/a
293.0925	0.0905	586185	keystroke_u	u	n/a
293.213	0.105	586426	keystroke_s	s	n/a
293.3775	0.1055	586755	keystroke_Key.space	Key.space	n/a
293.6175	0.0755	587235	keystroke_c	c	n/a
293.738	0.12	587476	keystroke_o	o	n/a
293.798	0.1495	587596	keystroke_u	u	n/a
294.8475	0.075	589695	keystroke_r	r	n/a
295.088	0.075	590176	keystroke_t	t	n/a
295.252	0.075	590504	keystroke_e	e	n/a
295.493	0.1045	590986	keystroke_s	s	n/a
295.718	0.0895	591436	keystroke_y	y	n/a
295.987	0.09	591974	keystroke_Key.space	Key.space	n/a
296.093	0.0895	592186	keystroke_s	s	n/a
296.242	0.1505	592484	keystroke_c	c	n/a
296.3775	0.075	592755	keystroke_a	a	n/a
296.5725	0.075	593145	keystroke_l	l	n/a
296.7075	0.09	593415	keystroke_e	e	n/a
296.8125	0.09	593625	keystroke_Key.space	Key.space	n/a
296.963	0.0895	593926	keystroke_w	w	n/a
297.0825	0.09	594165	keystroke_o	o	n/a
297.217	0.046	594434	keystroke_r	r	n/a
297.352	0.0605	594704	keystroke_r	r	n/a
297.457	0.105	594914	keystroke_i	i	n/a
297.5475	0.0595	595095	keystroke_e	e	n/a
297.758	0.09	595516	keystroke_d	d	n/a
298.013	0.075	596026	keystroke_Key.enter	Key.enter	n/a
298.096	11.933	596192	prompt	n/a	enhancements rare robust proud\n
298.957	0.045	597914	keystroke_e	e	n/a
299.0475	0.0905	598095	keystroke_n	n	n/a
299.3475	0.09	598695	keystroke_h	h	n/a
299.4825	0.075	598965	keystroke_a	a	n/a
299.6025	0.09	599205	keystroke_n	n	n/a
299.7975	0.075	599595	keystroke_c	c	n/a
299.9625	0.075	599925	keystroke_e	e	n/a
300.1875	0.075	600375	keystroke_m	m	n/a
300.293	0.12	600586	keystroke_e	e	n/a
300.4275	0.09	600855	keystroke_n	n	n/a
300.5325	0.0755	601065	keystroke_t	t	n/a
300.6975	0.075	601395	keystroke_s	s	n/a
301.2375	0.075	602475	keystroke_Key.space	Key.space	n/a
301.6275	0.09	603255	keystroke_r	r	n/a
301.7625	0.15	603525	keystroke_a	a	n/a
301.868	0.1045	603736	keystroke_t	t	n/a
302.0625	0.075	604125	keystroke_e	e	n/a
302.1825	0.105	604365	keystroke_Key.space	Key.space	n/a
302.4075	0.09	604815	keystroke_r	r	n/a
302.4975	0.075	604995	keystroke_o	o	n/a
302.6925	0.075	605385	keystroke_b	b	n/a
303.1725	0.03	606345	keystroke_Key.backspace	Key.backspace	n/a
303.2925	0.045	606585	keystroke_Key.backspace	Key.backspace	n/a
303.427	0.0605	606854	keystroke_Key.backspace	Key.backspace	n/a
303.5625	0.06	607125	keystroke_Key.backspace	Key.backspace	n/a
303.7275	0.06	607455	keystroke_Key.backspace	Key.backspace	n/a
304.2075	0.075	608415	keystroke_Key.backspace	Key.backspace	n/a
304.7025	0.06	609405	keystroke_r	r	n/a
304.8375	0.075	609675	keystroke_e	e	n/a
304.9575	0.09	609915	keystroke_Key.space	Key.space	n/a
305.1525	0.06	610305	keystroke_r	r	n/a
305.3475	0.075	610695	keystroke_o	o	n/a
305.7375	0.1055	611475	keystroke_b	b	n/a
305.9775	0.045	611955	keystroke_y	y	n/a
306.0825	0.105	612165	keystroke_s	s	n/a
306.8025	0.06	613605	keystroke_Key.backspace	Key.backspace	n/a
306.9525	0.06	613905	keystroke_Key.backspace	Key.backspace	n/a
307.8225	0.075	615645	keystroke_u	u	n/a
307.9575	0.105	615915	keystroke_s	s	n/a
308.1075	0.105	616215	keystroke_t	t	n/a
308.2425	0.09	616485	keystroke_Key.space	Key.space	n/a
308.4825	0.075	616965	keystroke_p	p	n/a
308.6175	0.075	617235	keystroke_r	r	n/a
308.7225	0.1795	617445	keystroke_o	o	n/a
308.903	0.104	617806	keystroke_u	u	n/a
309.083	0.0745	618166	keystroke_d	d	n/a
309.937	0.09	619874	keystroke_Key.enter	Key.enter	n/a
310.033	9.491	620066	prompt	n/a	vendors creates original drinks\n
312.265	0.001	624530	keystroke_v	v	n/a
313.3875	0.105	626775	keystroke_e	e	n/a
313.5525	0.09	627105	keystroke_n	n	n/a
313.9575	0.1195	627915	keystroke_d	d	n/a
314.107	0.0905	628214	keystroke_o	o	n/a
314.2425	0.1205	628485	keystroke_r	r	n/a
314.4525	0.09	628905	keystroke_s	s	n/a
314.558	0.1045	629116	keystroke_Key.space	Key.space	n/a
314.7975	0.075	629595	keystroke_c	c	n/a
315.008	0.105	630016	keystroke_r	r	n/a
315.0975	0.15	630195	keystroke_e	e	n/a
315.3675	0.06	630735	keystroke_t	t	n/a
315.9675	0.09	631935	keystroke_Key.backspace	Key.backspace	n/a
316.1025	0.105	632205	keystroke_a	a	n/a
316.4175	0.045	632835	keystroke_t	t	n/a
316.5675	0.105	633135	keystroke_e	e	n/a
316.7175	0.0905	633435	keystroke_s	s	n/a
316.867	0.135	633734	keystroke_Key.space	Key.space	n/a
317.152	0.1055	634304	keystroke_o	o	n/a
317.3175	0.0755	634635	keystroke_r	r	n/a
317.407	0.09	634814	keystroke_i	i	n/a
317.6025	0.0745	635205	keystroke_g	g	n/a
317.692	0.165	635384	keystroke_i	i	n/a
317.8425	0.1045	635685	keystroke_n	n	n/a
317.9625	0.0745	635925	keystroke_a	a	n/a
318.1125	0.165	636225	keystroke_l	l	n/a
318.232	0.1205	636464	keystroke_Key.space	Key.space	n/a
318.5025	0.075	637005	keystroke_d	d	n/a
318.6975	0.075	637395	keystroke_r	r	n/a
318.833	0.1045	637666	keystroke_i	i	n/a
318.9075	0.105	637815	keystroke_n	n	n/a
319.0575	0.105	638115	keystroke_k	k	n/a
319.208	0.075	638416	keystroke_s	s	n/a
319.4625	0.06	638925	keystroke_Key.enter	Key.enter	n/a
319.528	10.2855	639056	prompt	n/a	rare transportation seattle concentration\n
320.5725	0.105	641145	keystroke_r	r	n/a
320.7675	0.135	641535	keystroke_a	a	n/a
320.9475	0.105	641895	keystroke_r	r	n/a
321.2325	0.0605	642465	keystroke_Key.space	Key.space	n/a
321.2475	0.135	642495	keystroke_e	e	n/a
321.6375	0.044	643275	keystroke_Key.backspace	Key.backspace	n/a
321.7575	0.0605	643515	keystroke_Key.backspace	Key.backspace	n/a
321.833	0.0745	643666	keystroke_e	e	n/a
321.9975	0.075	643995	keystroke_Key.space	Key.space	n/a
322.0875	0.09	644175	keystroke_t	t	n/a
322.3275	0.1055	644655	keystroke_r	r	n/a
322.627	0.1205	645254	keystroke_a	a	n/a
322.8225	0.09	645645	keystroke_n	n	n/a
323.063	0.0745	646126	keystroke_s	s	n/a
323.1975	0.06	646395	keystroke_p	p	n/a
323.3925	0.075	646785	keystroke_o	o	n/a
323.4975	0.0905	646995	keystroke_r	r	n/a
323.6925	0.1505	647385	keystroke_a	a	n/a
323.8125	0.105	647625	keystroke_t	t	n/a
323.9475	0.135	647895	keystroke_i	i	n/a
324.0675	0.1355	648135	keystroke_o	o	n/a
324.158	0.1195	648316	keystroke_n	n	n/a
324.443	0.0745	648886	keystroke_Key.space	Key.space	n/a
325.177	0.1055	650354	keystroke_s	s	n/a
325.297	0.165	650594	keystroke_e	e	n/a
325.447	0.105	650894	keystroke_a	a	n/a
325.8375	0.0595	651675	keystroke_t	t	n/a
325.9875	0.0445	651975	keystroke_t	t	n/a
326.527	0.091	653054	keystroke_l	l	n/a
326.632	0.09	653264	keystroke_e	e	n/a
326.723	0.074	653446	keystroke_Key.space	Key.space	n/a
326.857	0.105	653714	keystroke_c	c	n/a
326.977	0.075	653954	keystroke_o	o	n/a
327.0375	0.12	654075	keystroke_n	n	n/a
327.2625	0.09	654525	keystroke_c	c	n/a
327.4125	0.12	654825	keystroke_e	e	n/a
327.5475	0.075	655095	keystroke_n	n	n/a
327.9825	0.075	655965	keystroke_t	t	n/a
328.1775	0.075	656355	keystroke_r	r	n/a
328.283	0.1045	656566	keystroke_a	a	n/a
328.4175	0.09	656835	keystroke_t	t	n/a
328.5525	0.1045	657105	keystroke_i	i	n/a
328.6425	0.12	657285	keystroke_o	o	n/a
328.718	0.104	657436	keystroke_n	n	n/a
329.722	0.09	659444	keystroke_Key.enter	Key.enter	n/a
329.817	5.8475	659634	prompt	n/a	villages anaheim commit and\n
330.697	0.075	661394	keystroke_v	v	n/a
330.8175	0.045	661635	keystroke_i	i	n/a
330.997	0.03	661994	keystroke_l	l	n/a
331.132	0.09	662264	keystroke_l	l	n/a
331.237	0.0455	662474	keystroke_a	a	n/a
331.297	0.09	662594	keystroke_g	g	n/a
331.447	0.15	662894	keystroke_e	e	n/a
331.582	0.1055	663164	keystroke_s	s	n/a
331.762	0.0755	663524	keystroke_Key.space	Key.space	n/a
331.913	0.0895	663826	keystroke_a	a	n/a
332.0625	0.09	664125	keystroke_n	n	n/a
332.1975	0.075	664395	keystroke_a	a	n/a
332.5275	0.105	665055	keystroke_h	h	n/a
332.797	0.0605	665594	keystroke_e	e	n/a
333.037	0.075	666074	keystroke_i	i	n/a
333.3375	0.075	666675	keystroke_m	m	n/a
334.0275	0.075	668055	keystroke_Key.space	Key.space	n/a
334.2825	0.075	668565	keystroke_c	c	n/a
334.3725	0.105	668745	keystroke_o	o	n/a
334.567	0.045	669134	keystroke_m	m	n/a
334.7025	0.105	669405	keystroke_m	m	n/a
334.853	0.0895	669706	keystroke_i	i	n/a
334.9575	0.1045	669915	keystroke_t	t	n/a
335.0925	0.059	670185	keystroke_Key.space	Key.space	n/a
335.1975	0.06	670395	keystroke_a	a	n/a
335.3015	0.061	670603	keystroke_n	n	n/a
335.3775	0.0755	670755	keystroke_d	d	n/a
335.5875	0.075	671175	keystroke_Key.enter	Key.enter	n/a
335.6685	10.0605	671337	prompt	n/a	protected apparel longitude nominations\n
336.487	0.075	672974	keystroke_p	p	n/a
336.668	0.0895	673336	keystroke_r	r	n/a
336.772	0.075	673544	keystroke_o	o	n/a
336.9075	0.045	673815	keystroke_t	t	n/a
337.012	0.09	674024	keystroke_e	e	n/a
337.2075	0.075	674415	keystroke_c	c	n/a
337.402	0.075	674804	keystroke_t	t	n/a
337.552	0.075	675104	keystroke_e	e	n/a
337.747	0.0605	675494	keystroke_d	d	n/a
337.822	0.0905	675644	keystroke_Key.space	Key.space	n/a
337.927	0.0905	675854	keystroke_a	a	n/a
338.047	0.061	676094	keystroke_p	p	n/a
338.227	0.06	676454	keystroke_p	p	n/a
338.8575	0.15	677715	keystroke_a	a	n/a
339.172	0.1205	678344	keystroke_r	r	n/a
339.3075	0.0895	678615	keystroke_e	e	n/a
339.502	0.075	679004	keystroke_l	l	n/a
339.727	0.075	679454	keystroke_Key.space	Key.space	n/a
340.0125	0.0595	680025	keystroke_l	l	n/a
340.1925	0.1345	680385	keystroke_o	o	n/a
340.297	0.105	680594	keystroke_n	n	n/a
341.1975	0.06	682395	keystroke_g	g	n/a
341.363	0.0745	682726	keystroke_i	i	n/a
341.767	0.09	683534	keystroke_t	t	n/a
341.962	0.09	683924	keystroke_u	u	n/a
343.3575	0.09	686715	keystroke_d	d	n/a
343.5525	0.06	687105	keystroke_e	e	n/a
343.672	0.075	687344	keystroke_Key.space	Key.space	n/a
344.002	0.0905	688004	keystroke_n	n	n/a
344.2125	0.09	688425	keystroke_o	o	n/a
344.4225	0.0905	688845	keystroke_m	m	n/a
344.5275	0.1655	689055	keystroke_i	i	n/a
344.677	0.075	689354	keystroke_n	n	n/a
344.7675	0.1205	689535	keystroke_a	a	n/a
344.872	0.091	689744	keystroke_t	t	n/a
344.977	0.075	689954	keystroke_i	i	n/a
345.0375	0.1355	690075	keystroke_o	o	n/a
345.143	0.12	690286	keystroke_n	n	n/a
345.2925	0.09	690585	keystroke_s	s	n/a
345.6515	0.075	691303	keystroke_Key.enter	Key.enter	n/a
345.7335	8.9205	691467	prompt	n/a	buses creates rely harris\n
346.6425	0.09	693285	keystroke_b	b	n/a
346.8675	0.075	693735	keystroke_u	u	n/a
347.033	0.1195	694066	keystroke_s	s	n/a
347.153	0.0895	694306	keystroke_e	e	n/a
347.347	0.075	694694	keystroke_s	s	n/a
347.452	0.0905	694904	keystroke_Key.space	Key.space	n/a
347.707	0.09	695414	keystroke_c	c	n/a
347.9175	0.12	695835	keystroke_r	r	n/a
348.0225	0.105	696045	keystroke_e	e	n/a
348.113	0.1045	696226	keystroke_a	a	n/a
348.233	0.1195	696466	keystroke_t	t	n/a
348.3825	0.105	696765	keystroke_e	e	n/a
348.9225	0.075	697845	keystroke_s	s	n/a
349.0575	0.09	698115	keystroke_Key.space	Key.space	n/a
349.3725	0.12	698745	keystroke_r	r	n/a
349.4475	0.1045	698895	keystroke_e	e	n/a
349.838	0.0745	699676	keystroke_p	p	n/a
350.047	0.075	700094	keystroke_l	l	n/a
350.272	0.166	700544	keystroke_y	y	n/a
350.977	0.0605	701954	keystroke_Key.backspace	Key.backspace	n/a
351.1425	0.075	702285	keystroke_Key.backspace	Key.backspace	n/a
351.9825	0.089	703965	keystroke_Key.backspace	Key.backspace	n/a
352.4925	0.09	704985	keystroke_l	l	n/a
352.807	0.135	705614	keystroke_y	y	n/a
352.927	0.1055	705854	keystroke_Key.space	Key.space	n/a
353.0625	0.1055	706125	keystroke_h	h	n/a
353.183	0.089	706366	keystroke_a	a	n/a
353.422	0.0455	706844	keystroke_r	r	n/a
353.633	0.075	707266	keystroke_i	i	n/a
354.172	0.015	708344	keystroke_Key.backspace	Key.backspace	n/a
354.203	0.059	708406	keystroke_r	r	n/a
354.2925	0.075	708585	keystroke_i	i	n/a
354.413	0.089	708826	keystroke_s	s	n/a
354.577	0.075	709154	keystroke_Key.enter	Key.enter	n/a
354.6585	8.081	709317	prompt	n/a	filled sort glossary reporter\n
355.388	0.075	710776	keystroke_f	f	n/a
355.4925	0.0895	710985	keystroke_i	i	n/a
355.6875	0.045	711375	keystroke_l	l	n/a
355.822	0.075	711644	keystroke_l	l	n/a
355.912	0.06	711824	keystroke_e	e	n/a
356.0625	0.0895	712125	keystroke_d	d	n/a
356.137	0.09	712274	keystroke_Key.space	Key.space	n/a
356.272	0.0905	712544	keystroke_s	s	n/a
356.3775	0.09	712755	keystroke_o	o	n/a
356.4825	0.075	712965	keystroke_r	r	n/a
356.6925	0.075	713385	keystroke_t	t	n/a
357.247	0.075	714494	keystroke_Key.space	Key.space	n/a
358.057	0.0755	716114	keystroke_g	g	n/a
358.1925	0.075	716385	keystroke_l	l	n/a
358.372	0.075	716744	keystroke_o	o	n/a
358.957	0.075	717914	keystroke_s	s	n/a
359.1075	0.09	718215	keystroke_s	s	n/a
359.2725	0.18	718545	keystroke_a	a	n/a
359.4375	0.105	718875	keystroke_r	r	n/a
359.6925	0.075	719385	keystroke_y	y	n/a
360.0975	0.09	720195	keystroke_Key.space	Key.space	n/a
360.563	0.1195	721126	keystroke_r	r	n/a
360.6975	0.075	721395	keystroke_e	e	n/a
360.8475	0.03	721695	keystroke_p	p	n/a
360.9975	0.0605	721995	keystroke_o	o	n/a
361.0875	0.12	722175	keystroke_r	r	n/a
362.182	0.06	724364	keystroke_t	t	n/a
362.347	0.0905	724694	keystroke_e	e	n/a
362.422	0.075	724844	keystroke_r	r	n/a
362.6615	0.076	725323	keystroke_Key.enter	Key.enter	n/a
362.743	8.831	725486	prompt	n/a	puzzles supply numbers korean\n
364.282	0.0605	728564	keystroke_p	p	n/a
364.447	0.075	728894	keystroke_u	u	n/a
364.8375	0.0745	729675	keystroke_z	z	n/a
365.0025	0.0755	730005	keystroke_z	z	n/a
365.1675	0.075	730335	keystroke_l	l	n/a
365.2875	0.1205	730575	keystroke_e	e	n/a
365.3775	0.105	730755	keystroke_s	s	n/a
365.5575	0.105	731115	keystroke_Key.space	Key.space	n/a
365.8575	0.075	731715	keystroke_s	s	n/a
365.9925	0.09	731985	keystroke_u	u	n/a
366.158	0.0745	732316	keystroke_p	p	n/a
366.307	0.0605	732614	keystroke_p	p	n/a
366.502	0.045	733004	keystroke_l	l	n/a
366.697	0.15	733394	keystroke_y	y	n/a
366.8325	0.1045	733665	keystroke_Key.space	Key.space	n/a
367.012	0.105	734024	keystroke_n	n	n/a
367.222	0.075	734444	keystroke_u	u	n/a
367.447	0.075	734894	keystroke_m	m	n/a
367.777	0.135	735554	keystroke_e	e	n/a
367.942	0.135	735884	keystroke_r	r	n/a
368.497	0.03	736994	keystroke_Key.backspace	Key.backspace	n/a
368.617	0.0445	737234	keystroke_Key.backspace	Key.backspace	n/a
369.0375	0.0905	738075	keystroke_b	b	n/a
369.202	0.135	738404	keystroke_e	e	n/a
369.292	0.105	738584	keystroke_r	r	n/a
369.4725	0.09	738945	keystroke_s	s	n/a
369.6825	0.075	739365	keystroke_Key.space	Key.space	n/a
370.283	0.119	740566	keystroke_k	k	n/a
370.477	0.075	740954	keystroke_o	o	n/a
370.6425	0.12	741285	keystroke_r	r	n/a
370.733	0.105	741466	keystroke_e	e	n/a
370.8525	0.09	741705	keystroke_a	a	n/a
371.0625	0.0745	742125	keystroke_n	n	n/a
371.4975	0.074	742995	keystroke_Key.enter	Key.enter	n/a
371.578	6.011	743156	prompt	n/a	events note dried brighton\n
372.2325	0.074	744465	keystroke_e	e	n/a
372.398	0.0595	744796	keystroke_v	v	n/a
372.562	0.0755	745124	keystroke_e	e	n/a
372.652	0.0755	745304	keystroke_n	n	n/a
372.7275	0.09	745455	keystroke_t	t	n/a
372.8625	0.105	745725	keystroke_s	s	n/a
373.0275	0.09	746055	keystroke_Key.space	Key.space	n/a
373.3575	0.135	746715	keystroke_n	n	n/a
373.5215	0.136	747043	keystroke_o	o	n/a
373.6725	0.09	747345	keystroke_t	t	n/a
373.7925	0.105	747585	keystroke_e	e	n/a
373.9125	0.105	747825	keystroke_Key.space	Key.space	n/a
374.1075	0.105	748215	keystroke_d	d	n/a
374.3325	0.12	748665	keystroke_r	r	n/a
374.5125	0.075	749025	keystroke_i	i	n/a
374.6175	0.104	749235	keystroke_e	e	n/a
374.8575	0.104	749715	keystroke_d	d	n/a
375.3215	0.1355	750643	keystroke_Key.space	Key.space	n/a
375.9515	0.075	751903	keystroke_b	b	n/a
376.4615	0.06	752923	keystroke_r	r	n/a
376.5965	0.105	753193	keystroke_i	i	n/a
376.8075	0.075	753615	keystroke_g	g	n/a
376.9275	0.105	753855	keystroke_h	h	n/a
377.0625	0.075	754125	keystroke_t	t	n/a
377.1675	0.135	754335	keystroke_o	o	n/a
377.2875	0.09	754575	keystroke_n	n	n/a
377.5275	0.06	755055	keystroke_Key.enter	Key.enter	n/a
377.5925	9.311	755185	prompt	n/a	interesting realize gourmet drilling\n
378.383	0.119	756766	keystroke_i	i	n/a
378.487	0.1205	756974	keystroke_n	n	n/a
378.622	0.0605	757244	keystroke_t	t	n/a
378.772	0.075	757544	keystroke_e	e	n/a
378.862	0.105	757724	keystroke_r	r	n/a
378.997	0.075	757994	keystroke_e	e	n/a
379.132	0.1055	758264	keystroke_s	s	n/a
379.252	0.12	758504	keystroke_t	t	n/a
379.387	0.135	758774	keystroke_i	i	n/a
379.477	0.12	758954	keystroke_n	n	n/a
379.6125	0.1045	759225	keystroke_g	g	n/a
379.792	0.1655	759584	keystroke_Key.space	Key.space	n/a
380.5125	0.15	761025	keystroke_r	r	n/a
380.6475	0.105	761295	keystroke_e	e	n/a
380.7375	0.09	761475	keystroke_a	a	n/a
380.9325	0.12	761865	keystroke_l	l	n/a
381.0375	0.105	762075	keystroke_i	i	n/a
381.2625	0.105	762525	keystroke_z	z	n/a
381.5625	0.09	763125	keystroke_Key.space	Key.space	n/a
381.9975	0.09	763995	keystroke_Key.backspace	Key.backspace	n/a
382.1025	0.075	764205	keystroke_e	e	n/a
382.3715	0.09	764743	keystroke_Key.space	Key.space	n/a
383.122	0.0605	766244	keystroke_g	g	n/a
383.6775	0.149	767355	keystroke_o	o	n/a
383.8425	0.1345	767685	keystroke_u	u	n/a
384.607	0.015	769214	keystroke_r	r	n/a
384.667	0.015	769334	keystroke_m	m	n/a
384.757	0.075	769514	keystroke_e	e	n/a
385.072	0.105	770144	keystroke_t	t	n/a
385.237	0.105	770474	keystroke_Key.space	Key.space	n/a
385.507	0.0905	771014	keystroke_d	d	n/a
385.6875	0.12	771375	keystroke_r	r	n/a
385.8375	0.09	771675	keystroke_i	i	n/a
386.0625	0.044	772125	keystroke_l	l	n/a
386.2275	0.045	772455	keystroke_l	l	n/a
386.3025	0.1495	772605	keystroke_i	i	n/a
386.407	0.12	772814	keystroke_n	n	n/a
386.542	0.0605	773084	keystroke_g	g	n/a
386.8275	0.0745	773655	keystroke_Key.enter	Key.enter	n/a
386.908	9.1605	773816	prompt	n/a	lookup peninsula chester comparative\n
387.817	0.075	775634	keystroke_l	l	n/a
388.0575	0.03	776115	keystroke_o	o	n/a
388.192	0.075	776384	keystroke_o	o	n/a
388.5525	0.0745	777105	keystroke_k	k	n/a
388.822	0.105	777644	keystroke_u	u	n/a
389.062	0.15	778124	keystroke_p	p	n/a
389.227	0.105	778454	keystroke_Key.space	Key.space	n/a
389.482	0.075	778964	keystroke_p	p	n/a
389.602	0.06	779204	keystroke_e	e	n/a
389.902	0.075	779804	keystroke_n	n	n/a
390.247	0.09	780494	keystroke_i	i	n/a
390.563	0.059	781126	keystroke_n	n	n/a
391.252	0.0605	782504	keystroke_s	s	n/a
391.402	0.075	782804	keystroke_u	u	n/a
391.852	0.09	783704	keystroke_l	l	n/a
392.032	0.075	784064	keystroke_a	a	n/a
392.152	0.105	784304	keystroke_Key.space	Key.space	n/a
392.7375	0.0745	785475	keystroke_c	c	n/a
392.827	0.075	785654	keystroke_h	h	n/a
392.917	0.105	785834	keystroke_e	e	n/a
393.067	0.12	786134	keystroke_s	s	n/a
393.217	0.09	786434	keystroke_t	t	n/a
393.4715	0.075	786943	keystroke_e	e	n/a
393.5625	0.12	787125	keystroke_r	r	n/a
393.712	0.12	787424	keystroke_Key.space	Key.space	n/a
393.847	0.12	787694	keystroke_c	c	n/a
393.9815	0.121	787963	keystroke_o	o	n/a
394.0715	0.121	788143	keystroke_m	m	n/a
394.237	0.0905	788474	keystroke_p	p	n/a
394.3865	0.1505	788773	keystroke_a	a	n/a
394.552	0.12	789104	keystroke_r	r	n/a
394.717	0.105	789434	keystroke_a	a	n/a
394.867	0.0905	789734	keystroke_t	t	n/a
395.017	0.1055	790034	keystroke_i	i	n/a
395.152	0.12	790304	keystroke_v	v	n/a
395.2875	0.09	790575	keystroke_e	e	n/a
395.9775	0.0895	791955	keystroke_Key.enter	Key.enter	n/a
396.076	10.6275	792152	prompt	n/a	zdnet employed version hewlett\n
398.724	0.013	797448	keystroke_z	z	n/a
399.7875	0.15	799575	keystroke_d	d	n/a
400.657	0.1055	801314	keystroke_n	n	n/a
401.152	0.1355	802304	keystroke_e	e	n/a
401.2725	0.0895	802545	keystroke_t	t	n/a
401.4075	0.12	802815	keystroke_Key.space	Key.space	n/a
401.8875	0.075	803775	keystroke_e	e	n/a
402.037	0.1055	804074	keystroke_m	m	n/a
402.202	0.075	804404	keystroke_p	p	n/a
402.412	0.0605	804824	keystroke_l	l	n/a
402.607	0.06	805214	keystroke_o	o	n/a
402.8175	0.105	805635	keystroke_y	y	n/a
403.0575	0.0895	806115	keystroke_e	e	n/a
403.5975	0.075	807195	keystroke_d	d	n/a
403.7625	0.09	807525	keystroke_Key.space	Key.space	n/a
404.0475	0.1045	808095	keystroke_v	v	n/a
404.242	0.1505	808484	keystroke_e	e	n/a
404.3775	0.09	808755	keystroke_r	r	n/a
404.5725	0.09	809145	keystroke_s	s	n/a
404.7075	0.12	809415	keystroke_i	i	n/a
404.8125	0.119	809625	keystroke_o	o	n/a
404.9175	0.165	809835	keystroke_n	n	n/a
405.0675	0.089	810135	keystroke_Key.space	Key.space	n/a
405.2325	0.045	810465	keystroke_h	h	n/a
405.3375	0.15	810675	keystroke_e	e	n/a
405.5325	0.165	811065	keystroke_w	w	n/a
405.8325	0.09	811665	keystroke_l	l	n/a
405.9665	0.135	811933	keystroke_e	e	n/a
406.267	0.0605	812534	keystroke_t	t	n/a
406.417	0.06	812834	keystroke_t	t	n/a
406.6125	0.0895	813225	keystroke_Key.enter	Key.enter	n/a
406.7065	5.397	813413	prompt	n/a	relevance rewards single web\n
407.452	0.1355	814904	keystroke_r	r	n/a
407.617	0.1205	815234	keystroke_e	e	n/a
407.917	0.105	815834	keystroke_l	l	n/a
408.037	0.0605	816074	keystroke_e	e	n/a
408.2025	0.09	816405	keystroke_v	v	n/a
408.3375	0.089	816675	keystroke_a	a	n/a
408.4425	0.075	816885	keystroke_n	n	n/a
408.5475	0.135	817095	keystroke_c	c	n/a
408.6675	0.1045	817335	keystroke_e	e	n/a
408.7875	0.09	817575	keystroke_Key.space	Key.space	n/a
408.952	0.1355	817904	keystroke_r	r	n/a
409.072	0.1195	818144	keystroke_e	e	n/a
409.2665	0.121	818533	keystroke_w	w	n/a
409.4175	0.15	818835	keystroke_a	a	n/a
409.5225	0.135	819045	keystroke_r	r	n/a
409.7025	0.165	819405	keystroke_d	d	n/a
409.8375	0.12	819675	keystroke_s	s	n/a
410.0025	0.0895	820005	keystroke_Key.space	Key.space	n/a
410.1825	0.0745	820365	keystroke_s	s	n/a
410.272	0.135	820544	keystroke_i	i	n/a
410.347	0.12	820694	keystroke_n	n	n/a
410.4525	0.0895	820905	keystroke_g	g	n/a
410.602	0.09	821204	keystroke_l	l	n/a
410.722	0.0905	821444	keystroke_e	e	n/a
410.842	0.09	821684	keystroke_Key.space	Key.space	n/a
411.067	0.15	822134	keystroke_w	w	n/a
411.187	0.105	822374	keystroke_e	e	n/a
411.4575	0.0595	822915	keystroke_b	b	n/a
411.997	0.1055	823994	keystroke_Key.enter	Key.enter	n/a
412.107	8.862	824214	prompt	n/a	professionals preview clinics consultants\n
412.9125	0.0895	825825	keystroke_p	p	n/a
413.047	0.12	826094	keystroke_r	r	n/a
413.152	0.075	826304	keystroke_o	o	n/a
413.287	0.0755	826574	keystroke_f	f	n/a
413.392	0.105	826784	keystroke_e	e	n/a
413.557	0.09	827114	keystroke_s	s	n/a
413.7375	0.0445	827475	keystroke_s	s	n/a
413.8125	0.15	827625	keystroke_i	i	n/a
413.947	0.075	827894	keystroke_o	o	n/a
413.977	0.1055	827954	keystroke_n	n	n/a
414.097	0.075	828194	keystroke_a	a	n/a
414.2025	0.0895	828405	keystroke_l	l	n/a
414.322	0.1355	828644	keystroke_s	s	n/a
414.5025	0.06	829005	keystroke_Key.space	Key.space	n/a
414.6365	0.091	829273	keystroke_p	p	n/a
414.7875	0.135	829575	keystroke_r	r	n/a
414.8925	0.09	829785	keystroke_e	e	n/a
415.1025	0.09	830205	keystroke_v	v	n/a
415.2225	0.06	830445	keystroke_i	i	n/a
415.2975	0.135	830595	keystroke_e	e	n/a
415.3875	0.135	830775	keystroke_w	w	n/a
415.9725	0.09	831945	keystroke_Key.space	Key.space	n/a
416.2275	0.075	832455	keystroke_c	c	n/a
416.317	0.105	832634	keystroke_l	l	n/a
416.4375	0.15	832875	keystroke_i	i	n/a
416.542	0.1205	833084	keystroke_n	n	n/a
416.692	0.12	833384	keystroke_i	i	n/a
417.037	0.09	834074	keystroke_c	c	n/a
417.172	0.09	834344	keystroke_s	s	n/a
417.547	0.1055	835094	keystroke_Key.space	Key.space	n/a
417.9375	0.105	835875	keystroke_c	c	n/a
418.0715	0.105	836143	keystroke_o	o	n/a
418.1315	0.106	836263	keystroke_n	n	n/a
418.867	0.105	837734	keystroke_s	s	n/a
419.1075	0.0595	838215	keystroke_u	u	n/a
419.272	0.0905	838544	keystroke_l	l	n/a
419.422	0.09	838844	keystroke_t	t	n/a
419.5575	0.12	839115	keystroke_a	a	n/a
419.767	0.0455	839534	keystroke_n	n	n/a
420.337	0.06	840674	keystroke_t	t	n/a
420.472	0.075	840944	keystroke_s	s	n/a
420.907	0.06	841814	keystroke_Key.enter	Key.enter	n/a
420.973	8.3375	841946	prompt	n/a	editor guru thunder woman\n
422.107	0.075	844214	keystroke_e	e	n/a
422.317	0.075	844634	keystroke_d	d	n/a
422.407	0.09	844814	keystroke_i	i	n/a
422.6165	0.09	845233	keystroke_t	t	n/a
422.7525	0.075	845505	keystroke_o	o	n/a
422.887	0.0755	845774	keystroke_r	r	n/a
423.0375	0.089	846075	keystroke_Key.space	Key.space	n/a
423.7715	0.0755	847543	keystroke_g	g	n/a
423.9815	0.061	847963	keystroke_u	u	n/a
424.207	0.0905	848414	keystroke_r	r	n/a
424.3275	0.0895	848655	keystroke_u	u	n/a
424.6275	0.09	849255	keystroke_Key.space	Key.space	n/a
424.8675	0.075	849735	keystroke_t	t	n/a
424.9275	0.075	849855	keystroke_h	h	n/a
425.1225	0.09	850245	keystroke_u	u	n/a
425.3925	0.09	850785	keystroke_n	n	n/a
425.5125	0.06	851025	keystroke_g	g	n/a
425.7525	0.165	851505	keystroke_e	e	n/a
425.8565	0.091	851713	keystroke_r	r	n/a
426.1575	0.059	852315	keystroke_Key.backspace	Key.backspace	n/a
426.3065	0.046	852613	keystroke_Key.backspace	Key.backspace	n/a
426.4265	0.075	852853	keystroke_Key.backspace	Key.backspace	n/a
426.6675	0.0745	853335	keystroke_d	d	n/a
427.2975	0.0445	854595	keystroke_r	r	n/a
427.402	0.105	854804	keystroke_e	e	n/a
427.792	0.06	855584	keystroke_Key.backspace	Key.backspace	n/a
427.9125	0.0595	855825	keystroke_Key.backspace	Key.backspace	n/a
427.957	0.09	855914	keystroke_e	e	n/a
428.017	0.075	856034	keystroke_r	r	n/a
428.272	0.105	856544	keystroke_Key.space	Key.space	n/a
428.6025	0.06	857205	keystroke_w	w	n/a
428.6925	0.12	857385	keystroke_o	o	n/a
428.827	0.0755	857654	keystroke_m	m	n/a
428.917	0.075	857834	keystroke_a	a	n/a
429.0525	0.0745	858105	keystroke_n	n	n/a
429.2625	0.0445	858525	keystroke_Key.enter	Key.enter	n/a
429.3145	11.3945	858629	prompt	n/a	slave dirt achieve stomach\n
430.1325	0.0895	860265	keystroke_s	s	n/a
430.2375	0.0895	860475	keystroke_l	l	n/a
430.342	0.09	860684	keystroke_a	a	n/a
430.507	0.06	861014	keystroke_v	v	n/a
430.5825	0.0895	861165	keystroke_e	e	n/a
430.687	0.09	861374	keystroke_Key.space	Key.space	n/a
430.897	0.105	861794	keystroke_d	d	n/a
431.017	0.075	862034	keystroke_i	i	n/a
431.227	0.076	862454	keystroke_r	r	n/a
431.692	0.06	863384	keystroke_t	t	n/a
431.9625	0.12	863925	keystroke_Key.space	Key.space	n/a
433.4315	0.136	866863	keystroke_s	s	n/a
433.6725	0.105	867345	keystroke_c	c	n/a
433.8075	0.09	867615	keystroke_h	h	n/a
433.9425	0.09	867885	keystroke_i	i	n/a
434.0925	0.0745	868185	keystroke_e	e	n/a
434.257	0.075	868514	keystroke_v	v	n/a
434.4525	0.0745	868905	keystroke_e	e	n/a
434.722	0.15	869444	keystroke_Key.space	Key.space	n/a
435.0225	0.0595	870045	keystroke_s	s	n/a
435.427	0.045	870854	keystroke_Key.backspace	Key.backspace	n/a
435.547	0.06	871094	keystroke_Key.backspace	Key.backspace	n/a
435.682	0.075	871364	keystroke_Key.backspace	Key.backspace	n/a
435.832	0.06	871664	keystroke_Key.backspace	Key.backspace	n/a
435.982	0.06	871964	keystroke_Key.backspace	Key.backspace	n/a
436.192	0.015	872384	keystroke_Key.backspace	Key.backspace	n/a
436.267	0.075	872534	keystroke_Key.backspace	Key.backspace	n/a
436.402	0.0755	872804	keystroke_Key.backspace	Key.backspace	n/a
436.567	0.045	873134	keystroke_Key.backspace	Key.backspace	n/a
437.677	0.075	875354	keystroke_a	a	n/a
438.037	0.075	876074	keystroke_c	c	n/a
438.2325	0.0895	876465	keystroke_h	h	n/a
438.397	0.12	876794	keystroke_i	i	n/a
438.548	0.089	877096	keystroke_e	e	n/a
438.697	0.105	877394	keystroke_v	v	n/a
438.877	0.075	877754	keystroke_e	e	n/a
439.012	0.105	878024	keystroke_Key.space	Key.space	n/a
439.612	0.045	879224	keystroke_s	s	n/a
439.792	0.075	879584	keystroke_t	t	n/a
439.927	0.165	879854	keystroke_o	o	n/a
440.047	0.12	880094	keystroke_m	m	n/a
440.182	0.1055	880364	keystroke_a	a	n/a
440.272	0.1045	880544	keystroke_c	c	n/a
440.4215	0.076	880843	keystroke_h	h	n/a
440.6325	0.074	881265	keystroke_Key.enter	Key.enter	n/a
440.7135	5.155	881427	prompt	n/a	phases fish rest vacation\n
441.3675	0.059	882735	keystroke_p	p	n/a
441.9825	0.074	883965	keystroke_h	h	n/a
442.1625	0.06	884325	keystroke_a	a	n/a
442.3875	0.089	884775	keystroke_s	s	n/a
442.4915	0.121	884983	keystroke_e	e	n/a
442.6725	0.0895	885345	keystroke_s	s	n/a
442.807	0.09	885614	keystroke_Key.space	Key.space	n/a
442.942	0.105	885884	keystroke_f	f	n/a
443.062	0.075	886124	keystroke_i	i	n/a
443.167	0.09	886334	keystroke_s	s	n/a
443.302	0.09	886604	keystroke_h	h	n/a
443.482	0.09	886964	keystroke_Key.space	Key.space	n/a
443.677	0.105	887354	keystroke_r	r	n/a
443.7665	0.0905	887533	keystroke_e	e	n/a
443.872	0.09	887744	keystroke_s	s	n/a
444.082	0.0895	888164	keystroke_t	t	n/a
444.187	0.1195	888374	keystroke_Key.space	Key.space	n/a
444.5475	0.0895	889095	keystroke_v	v	n/a
444.682	0.105	889364	keystroke_a	a	n/a
444.8615	0.105	889723	keystroke_c	c	n/a
444.9965	0.1055	889993	keystroke_a	a	n/a
445.2975	0.0895	890595	keystroke_t	t	n/a
445.402	0.0745	890804	keystroke_i	i	n/a
445.462	0.1205	890924	keystroke_o	o	n/a
445.5665	0.0905	891133	keystroke_n	n	n/a
445.7915	0.075	891583	keystroke_Key.enter	Key.enter	n/a
445.8725	14.216	891745	prompt	n/a	criterion transport prospective charlie\n
447.4725	0.0745	894945	keystroke_c	c	n/a
448.972	0.09	897944	keystroke_r	r	n/a
449.1525	0.074	898305	keystroke_i	i	n/a
449.287	0.06	898574	keystroke_t	t	n/a
449.452	0.135	898904	keystroke_e	e	n/a
449.6025	0.089	899205	keystroke_r	r	n/a
449.722	0.09	899444	keystroke_i	i	n/a
449.8275	0.1795	899655	keystroke_o	o	n/a
449.962	0.15	899924	keystroke_n	n	n/a
450.0965	0.1055	900193	keystroke_Key.space	Key.space	n/a
450.2465	0.105	900493	keystroke_t	t	n/a
450.4875	0.12	900975	keystroke_r	r	n/a
450.6215	0.075	901243	keystroke_a	a	n/a
450.757	0.09	901514	keystroke_n	n	n/a
450.922	0.09	901844	keystroke_s	s	n/a
451.057	0.06	902114	keystroke_p	p	n/a
451.237	0.0745	902474	keystroke_o	o	n/a
451.3265	0.105	902653	keystroke_r	r	n/a
451.567	0.045	903134	keystroke_t	t	n/a
451.672	0.12	903344	keystroke_Key.space	Key.space	n/a
452.5575	0.1195	905115	keystroke_p	p	n/a
452.722	0.12	905444	keystroke_r	r	n/a
452.872	0.09	905744	keystroke_o	o	n/a
453.067	0.09	906134	keystroke_s	s	n/a
453.277	0.045	906554	keystroke_e	e	n/a
453.8765	0.076	907753	keystroke_Key.backspace	Key.backspace	n/a
454.1025	0.105	908205	keystroke_p	p	n/a
454.2225	0.075	908445	keystroke_e	e	n/a
454.3875	0.0895	908775	keystroke_v	v	n/a
454.657	0.12	909314	keystroke_t	t	n/a
454.822	0.075	909644	keystroke_i	i	n/a
454.957	0.105	909914	keystroke_v	v	n/a
455.092	0.09	910184	keystroke_e	e	n/a
455.212	0.075	910424	keystroke_Key.space	Key.space	n/a
455.797	0.06	911594	keystroke_Key.backspace	Key.backspace	n/a
455.947	0.045	911894	keystroke_Key.backspace	Key.backspace	n/a
456.097	0.045	912194	keystroke_Key.backspace	Key.backspace	n/a
456.232	0.06	912464	keystroke_Key.backspace	Key.backspace	n/a
456.367	0.06	912734	keystroke_Key.backspace	Key.backspace	n/a
456.517	0.0595	913034	keystroke_Key.backspace	Key.backspace	n/a
456.667	0.06	913334	keystroke_Key.backspace	Key.backspace	n/a
457.7465	0.0905	915493	keystroke_e	e	n/a
457.9415	0.075	915883	keystroke_c	c	n/a
458.1665	0.075	916333	keystroke_t	t	n/a
458.287	0.0895	916574	keystroke_i	i	n/a
458.407	0.1195	916814	keystroke_v	v	n/a
458.5415	0.105	917083	keystroke_e	e	n/a
458.662	0.1345	917324	keystroke_Key.space	Key.space	n/a
459.0965	0.106	918193	keystroke_c	c	n/a
459.2325	0.075	918465	keystroke_h	h	n/a
459.3215	0.166	918643	keystroke_a	a	n/a
459.5175	0.09	919035	keystroke_r	r	n/a
459.6525	0.12	919305	keystroke_l	l	n/a
459.7415	0.106	919483	keystroke_i	i	n/a
459.8765	0.061	919753	keystroke_e	e	n/a
460.0265	0.0605	920053	keystroke_Key.enter	Key.enter	n/a
460.093	7.871	920186	prompt	n/a	chances sticks celebrity qualifications\n
460.9415	0.075	921883	keystroke_c	c	n/a
461.0465	0.0905	922093	keystroke_h	h	n/a
461.152	0.06	922304	keystroke_a	a	n/a
461.257	0.09	922514	keystroke_n	n	n/a
461.3765	0.09	922753	keystroke_c	c	n/a
461.452	0.1045	922904	keystroke_e	e	n/a
461.6025	0.089	923205	keystroke_s	s	n/a
461.7215	0.0905	923443	keystroke_Key.space	Key.space	n/a
461.8415	0.075	923683	keystroke_s	s	n/a
461.962	0.075	923924	keystroke_t	t	n/a
462.0525	0.1045	924105	keystroke_i	i	n/a
462.187	0.09	924374	keystroke_c	c	n/a
462.3215	0.075	924643	keystroke_k	k	n/a
462.4565	0.105	924913	keystroke_s	s	n/a
462.577	0.0745	925154	keystroke_Key.space	Key.space	n/a
463.162	0.0595	926324	keystroke_c	c	n/a
463.3565	0.0455	926713	keystroke_e	e	n/a
463.5365	0.0755	927073	keystroke_l	l	n/a
463.6565	0.09	927313	keystroke_e	e	n/a
463.8665	0.0605	927733	keystroke_b	b	n/a
463.987	0.09	927974	keystroke_r	r	n/a
464.1215	0.0755	928243	keystroke_i	i	n/a
464.227	0.06	928454	keystroke_t	t	n/a
464.362	0.09	928724	keystroke_y	y	n/a
464.587	0.09	929174	keystroke_Key.space	Key.space	n/a
465.487	0.06	930974	keystroke_q	q	n/a
465.637	0.09	931274	keystroke_u	u	n/a
465.757	0.075	931514	keystroke_a	a	n/a
465.877	0.09	931754	keystroke_l	l	n/a
465.952	0.12	931904	keystroke_i	i	n/a
466.102	0.09	932204	keystroke_f	f	n/a
466.237	0.105	932474	keystroke_i	i	n/a
466.867	0.0755	933734	keystroke_c	c	n/a
467.017	0.09	934034	keystroke_a	a	n/a
467.212	0.045	934424	keystroke_t	t	n/a
467.287	0.075	934574	keystroke_i	i	n/a
467.3475	0.1495	934695	keystroke_o	o	n/a
467.452	0.12	934904	keystroke_n	n	n/a
467.557	0.06	935114	keystroke_s	s	n/a
467.902	0.06	935804	keystroke_Key.enter	Key.enter	n/a
467.9685	7.345	935937	prompt	n/a	reduce missile mary dish\n
468.787	0.105	937574	keystroke_r	r	n/a
468.8775	0.074	937755	keystroke_e	e	n/a
469.0715	0.075	938143	keystroke_d	d	n/a
469.1915	0.091	938383	keystroke_u	u	n/a
469.2665	0.1655	938533	keystroke_c	c	n/a
469.402	0.1055	938804	keystroke_e	e	n/a
469.537	0.105	939074	keystroke_Key.space	Key.space	n/a
469.792	0.12	939584	keystroke_m	m	n/a
469.912	0.075	939824	keystroke_i	i	n/a
470.047	0.06	940094	keystroke_s	s	n/a
470.197	0.0605	940394	keystroke_s	s	n/a
470.7975	0.0745	941595	keystroke_i	i	n/a
470.962	0.075	941924	keystroke_l	l	n/a
471.082	0.0745	942164	keystroke_e	e	n/a
471.172	0.09	942344	keystroke_Key.space	Key.space	n/a
471.427	0.044	942854	keystroke_a	a	n/a
472.1765	0.0605	944353	keystroke_Key.backspace	Key.backspace	n/a
472.3865	0.09	944773	keystroke_m	m	n/a
472.552	0.0445	945104	keystroke_a	a	n/a
472.6265	0.06	945253	keystroke_r	r	n/a
472.717	0.15	945434	keystroke_y	y	n/a
472.852	0.135	945704	keystroke_Key.space	Key.space	n/a
474.142	0.06	948284	keystroke_d	d	n/a
474.727	0.074	949454	keystroke_i	i	n/a
474.8175	0.0745	949635	keystroke_s	s	n/a
474.937	0.06	949874	keystroke_h	h	n/a
475.2365	0.075	950473	keystroke_Key.enter	Key.enter	n/a
475.3175	6.9115	950635	prompt	n/a	risks cancel collection spencer\n
476.1665	0.075	952333	keystroke_r	r	n/a
476.287	0.0895	952574	keystroke_i	i	n/a
476.437	0.075	952874	keystroke_s	s	n/a
476.527	0.09	953054	keystroke_k	k	n/a
476.662	0.09	953324	keystroke_s	s	n/a
476.767	0.09	953534	keystroke_Key.space	Key.space	n/a
476.932	0.0905	953864	keystroke_c	c	n/a
477.082	0.06	954164	keystroke_a	a	n/a
477.1275	0.1045	954255	keystroke_n	n	n/a
477.322	0.09	954644	keystroke_c	c	n/a
477.397	0.075	954794	keystroke_e	e	n/a
477.8025	0.12	955605	keystroke_l	l	n/a
477.937	0.105	955874	keystroke_Key.space	Key.space	n/a
478.087	0.075	956174	keystroke_c	c	n/a
478.1775	0.0745	956355	keystroke_o	o	n/a
478.357	0.06	956714	keystroke_l	l	n/a
478.492	0.075	956984	keystroke_l	l	n/a
478.582	0.075	957164	keystroke_e	e	n/a
479.122	0.09	958244	keystroke_c	c	n/a
479.3325	0.045	958665	keystroke_t	t	n/a
479.392	0.105	958784	keystroke_i	i	n/a
479.482	0.12	958964	keystroke_o	o	n/a
479.572	0.15	959144	keystroke_n	n	n/a
479.707	0.09	959414	keystroke_Key.space	Key.space	n/a
479.842	0.09	959684	keystroke_s	s	n/a
479.947	0.0755	959894	keystroke_p	p	n/a
480.3665	0.15	960733	keystroke_e	e	n/a
480.5915	0.0905	961183	keystroke_n	n	n/a
480.727	0.105	961454	keystroke_c	c	n/a
481.8525	0.0745	963705	keystroke_e	e	n/a
481.897	0.09	963794	keystroke_r	r	n/a
482.137	0.09	964274	keystroke_Key.enter	Key.enter	n/a
482.233	6.551	964466	prompt	n/a	freedom attached hacker referenced\n
483.022	0.015	966044	keystroke_f	f	n/a
483.097	0.09	966194	keystroke_r	r	n/a
483.217	0.075	966434	keystroke_e	e	n/a
483.397	0.06	966794	keystroke_e	e	n/a
483.576	0.076	967152	keystroke_d	d	n/a
483.682	0.1505	967364	keystroke_o	o	n/a
483.847	0.12	967694	keystroke_m	m	n/a
483.9515	0.1055	967903	keystroke_Key.space	Key.space	n/a
484.087	0.06	968174	keystroke_a	a	n/a
484.312	0.06	968624	keystroke_t	t	n/a
484.432	0.09	968864	keystroke_t	t	n/a
484.5365	0.0905	969073	keystroke_a	a	n/a
485.152	0.075	970304	keystroke_c	c	n/a
485.257	0.0745	970514	keystroke_h	h	n/a
485.617	0.075	971234	keystroke_e	e	n/a
485.797	0.06	971594	keystroke_d	d	n/a
485.902	0.0895	971804	keystroke_Key.space	Key.space	n/a
486.157	0.0745	972314	keystroke_h	h	n/a
486.247	0.1195	972494	keystroke_a	a	n/a
486.4115	0.0905	972823	keystroke_c	c	n/a
486.5165	0.09	973033	keystroke_k	k	n/a
486.6515	0.1505	973303	keystroke_e	e	n/a
486.772	0.0895	973544	keystroke_r	r	n/a
486.832	0.09	973664	keystroke_Key.space	Key.space	n/a
486.9665	0.1355	973933	keystroke_r	r	n/a
487.1165	0.075	974233	keystroke_e	e	n/a
487.297	0.0745	974594	keystroke_f	f	n/a
487.4615	0.136	974923	keystroke_e	e	n/a
487.5825	0.119	975165	keystroke_r	r	n/a
487.7165	0.09	975433	keystroke_e	e	n/a
487.8365	0.09	975673	keystroke_n	n	n/a
487.9425	0.134	975885	keystroke_c	c	n/a
488.2425	0.074	976485	keystroke_e	e	n/a
488.4215	0.061	976843	keystroke_d	d	n/a
488.692	0.09	977384	keystroke_Key.enter	Key.enter	n/a
488.788	11.5005	977576	prompt	n/a	chocolate possibility charged birth\n
489.667	0.06	979334	keystroke_c	c	n/a
489.742	0.12	979484	keystroke_h	h	n/a
489.877	0.105	979754	keystroke_o	o	n/a
490.5515	0.06	981103	keystroke_Key.backspace	Key.backspace	n/a
491.512	0.06	983024	keystroke_o	o	n/a
491.6465	0.0905	983293	keystroke_c	c	n/a
491.797	0.075	983594	keystroke_o	o	n/a
491.977	0.075	983954	keystroke_l	l	n/a
492.081	0.091	984162	keystroke_a	a	n/a
492.202	0.1045	984404	keystroke_t	t	n/a
492.367	0.074	984734	keystroke_e	e	n/a
492.5465	0.0755	985093	keystroke_Key.space	Key.space	n/a
492.8615	0.06	985723	keystroke_p	p	n/a
493.072	0.0445	986144	keystroke_o	o	n/a
493.3115	0.0605	986623	keystroke_s	s	n/a
493.447	0.0745	986894	keystroke_s	s	n/a
493.5665	0.105	987133	keystroke_i	i	n/a
494.0165	0.106	988033	keystroke_b	b	n/a
494.182	0.075	988364	keystroke_i	i	n/a
494.3615	0.1205	988723	keystroke_l	l	n/a
494.4665	0.12	988933	keystroke_i	i	n/a
494.632	0.0755	989264	keystroke_t	t	n/a
494.752	0.12	989504	keystroke_y	y	n/a
494.9615	0.105	989923	keystroke_Key.space	Key.space	n/a
495.2465	0.0755	990493	keystroke_c	c	n/a
495.3365	0.0905	990673	keystroke_h	h	n/a
495.457	0.135	990914	keystroke_a	a	n/a
495.607	0.1045	991214	keystroke_r	r	n/a
498.609	0.028	997218	keystroke_g	g	n/a
499.057	0.0755	998114	keystroke_e	e	n/a
499.237	0.09	998474	keystroke_d	d	n/a
499.372	0.0895	998744	keystroke_Key.space	Key.space	n/a
499.582	0.075	999164	keystroke_b	b	n/a
499.7015	0.09	999403	keystroke_r	r	n/a
499.807	0.0755	999614	keystroke_i	i	n/a
499.9115	0.075	999823	keystroke_t	t	n/a
500.002	0.0745	1000004	keystroke_h	h	n/a
500.2115	0.075	1000423	keystroke_Key.enter	Key.enter	n/a
500.2945	8.349	1000589	prompt	n/a	crash researchers thanks alpha\n
501.322	0.075	1002644	keystroke_c	c	n/a
501.517	0.105	1003034	keystroke_r	r	n/a
501.607	0.105	1003214	keystroke_a	a	n/a
501.817	0.09	1003634	keystroke_s	s	n/a
501.9225	0.1345	1003845	keystroke_h	h	n/a
502.027	0.12	1004054	keystroke_Key.space	Key.space	n/a
502.192	0.1355	1004384	keystroke_r	r	n/a
502.3115	0.0905	1004623	keystroke_e	e	n/a
502.5075	0.134	1005015	keystroke_s	s	n/a
502.6265	0.12	1005253	keystroke_e	e	n/a
502.7315	0.135	1005463	keystroke_a	a	n/a
502.852	0.1045	1005704	keystroke_r	r	n/a
503.077	0.075	1006154	keystroke_c	c	n/a
503.1525	0.089	1006305	keystroke_h	h	n/a
503.3165	0.15	1006633	keystroke_e	e	n/a
503.3915	0.105	1006783	keystroke_r	r	n/a
503.557	0.09	1007114	keystroke_s	s	n/a
503.722	0.09	1007444	keystroke_Key.space	Key.space	n/a
503.857	0.0755	1007714	keystroke_t	t	n/a
503.947	0.12	1007894	keystroke_h	h	n/a
504.067	0.105	1008134	keystroke_a	a	n/a
504.142	0.12	1008284	keystroke_t	t	n/a
504.292	0.12	1008584	keystroke_n	n	n/a
504.802	0.0455	1009604	keystroke_k	k	n/a
505.1325	0.045	1010265	keystroke_Key.backspace	Key.backspace	n/a
505.2675	0.044	1010535	keystroke_Key.backspace	Key.backspace	n/a
505.3865	0.075	1010773	keystroke_Key.backspace	Key.backspace	n/a
506.662	0.09	1013324	keystroke_n	n	n/a
507.0965	0.0755	1014193	keystroke_k	k	n/a
507.2625	0.074	1014525	keystroke_s	s	n/a
507.4415	0.0905	1014883	keystroke_Key.space	Key.space	n/a
507.6065	0.0755	1015213	keystroke_a	a	n/a
507.7265	0.075	1015453	keystroke_l	l	n/a
508.0415	0.075	1016083	keystroke_p	p	n/a
508.2525	0.074	1016505	keystroke_h	h	n/a
508.3565	0.0755	1016713	keystroke_a	a	n/a
508.5515	0.0895	1017103	keystroke_Key.enter	Key.enter	n/a
508.648	8.9955	1017296	prompt	n/a	heater productive textbook concord\n
509.5865	0.09	1019173	keystroke_h	h	n/a
509.722	0.15	1019444	keystroke_e	e	n/a
509.857	0.1195	1019714	keystroke_a	a	n/a
510.0075	0.075	1020015	keystroke_t	t	n/a
510.217	0.0745	1020434	keystroke_e	e	n/a
510.2765	0.075	1020553	keystroke_r	r	n/a
510.3665	0.105	1020733	keystroke_Key.space	Key.space	n/a
510.7715	0.09	1021543	keystroke_p	p	n/a
510.9365	0.075	1021873	keystroke_r	r	n/a
511.0575	0.0745	1022115	keystroke_o	o	n/a
511.972	0.105	1023944	keystroke_d	d	n/a
512.212	0.06	1024424	keystroke_u	u	n/a
512.302	0.09	1024604	keystroke_c	c	n/a
512.527	0.09	1025054	keystroke_t	t	n/a
512.632	0.09	1025264	keystroke_i	i	n/a
513.697	0.075	1027394	keystroke_v	v	n/a
513.817	0.105	1027634	keystroke_e	e	n/a
513.952	0.135	1027904	keystroke_Key.space	Key.space	n/a
514.417	0.09	1028834	keystroke_t	t	n/a
514.605	0.082	1029210	keystroke_e	e	n/a
515.017	0.0755	1030034	keystroke_x	x	n/a
515.227	0.09	1030454	keystroke_t	t	n/a
515.557	0.075	1031114	keystroke_b	b	n/a
515.707	0.075	1031414	keystroke_o	o	n/a
515.857	0.12	1031714	keystroke_o	o	n/a
516.007	0.165	1032014	keystroke_k	k	n/a
516.157	0.09	1032314	keystroke_Key.space	Key.space	n/a
516.277	0.075	1032554	keystroke_c	c	n/a
516.367	0.105	1032734	keystroke_o	o	n/a
516.457	0.105	1032914	keystroke_n	n	n/a
516.622	0.09	1033244	keystroke_c	c	n/a
516.727	0.075	1033454	keystroke_o	o	n/a
516.877	0.09	1033754	keystroke_r	r	n/a
517.342	0.075	1034684	keystroke_d	d	n/a
517.567	0.075	1035134	keystroke_Key.enter	Key.enter	n/a
517.6475	12.986	1035295	prompt	n/a	brian amount consciousness trash\n
518.587	0.045	1037174	keystroke_b	b	n/a
519.292	0.075	1038584	keystroke_r	r	n/a
519.412	0.09	1038824	keystroke_i	i	n/a
519.5165	0.06	1039033	keystroke_a	a	n/a
519.667	0.0895	1039334	keystroke_n	n	n/a
519.877	0.12	1039754	keystroke_Key.space	Key.space	n/a
520.2815	0.075	1040563	keystroke_a	a	n/a
520.4165	0.0905	1040833	keystroke_m	m	n/a
520.5365	0.15	1041073	keystroke_o	o	n/a
520.6715	0.105	1041343	keystroke_u	u	n/a
520.8975	0.089	1041795	keystroke_n	n	n/a
521.1215	0.106	1042243	keystroke_t	t	n/a
521.332	0.1345	1042664	keystroke_Key.space	Key.space	n/a
522.6065	0.0755	1045213	keystroke_c	c	n/a
522.7575	0.134	1045515	keystroke_o	o	n/a
522.9515	0.091	1045903	keystroke_n	n	n/a
523.8815	0.0905	1047763	keystroke_s	s	n/a
524.092	0.0895	1048184	keystroke_c	c	n/a
524.2715	0.12	1048543	keystroke_i	i	n/a
526.222	0.105	1052444	keystroke_o	o	n/a
526.5365	0.0905	1053073	keystroke_u	u	n/a
527.6915	0.0905	1055383	keystroke_s	s	n/a
527.8415	0.0755	1055683	keystroke_n	n	n/a
527.947	0.105	1055894	keystroke_e	e	n/a
528.142	0.074	1056284	keystroke_s	s	n/a
528.277	0.044	1056554	keystroke_s	s	n/a
528.352	0.1045	1056704	keystroke_Key.space	Key.space	n/a
529.222	0.075	1058444	keystroke_t	t	n/a
529.822	0.09	1059644	keystroke_r	r	n/a
529.957	0.12	1059914	keystroke_a	a	n/a
530.167	0.105	1060334	keystroke_s	s	n/a
530.317	0.09	1060634	keystroke_h	h	n/a
530.557	0.075	1061114	keystroke_Key.enter	Key.enter	n/a
530.638	10.7355	1061276	prompt	n/a	technique workers accessibility regulation\n
531.577	0.09	1063154	keystroke_t	t	n/a
531.757	0.075	1063514	keystroke_e	e	n/a
531.936	0.091	1063872	keystroke_c	c	n/a
532.042	0.09	1064084	keystroke_h	h	n/a
532.267	0.135	1064534	keystroke_n	n	n/a
532.417	0.09	1064834	keystroke_i	i	n/a
533.197	0.075	1066394	keystroke_q	q	n/a
533.3775	0.0895	1066755	keystroke_u	u	n/a
533.482	0.1045	1066964	keystroke_e	e	n/a
533.707	0.1345	1067414	keystroke_Key.space	Key.space	n/a
534.1865	0.075	1068373	keystroke_w	w	n/a
534.486	0.121	1068972	keystroke_o	o	n/a
534.787	0.09	1069574	keystroke_r	r	n/a
535.1475	0.0745	1070295	keystroke_k	k	n/a
535.297	0.135	1070594	keystroke_e	e	n/a
535.372	0.119	1070744	keystroke_r	r	n/a
535.836	0.0905	1071672	keystroke_s	s	n/a
535.941	0.12	1071882	keystroke_Key.space	Key.space	n/a
536.122	0.105	1072244	keystroke_a	a	n/a
536.301	0.06	1072602	keystroke_c	c	n/a
536.466	0.061	1072932	keystroke_c	c	n/a
536.602	0.074	1073204	keystroke_e	e	n/a
536.796	0.076	1073592	keystroke_s	s	n/a
536.9465	0.0745	1073893	keystroke_s	s	n/a
537.067	0.105	1074134	keystroke_i	i	n/a
537.216	0.091	1074432	keystroke_b	b	n/a
537.382	0.089	1074764	keystroke_i	i	n/a
537.5465	0.1205	1075093	keystroke_l	l	n/a
537.637	0.104	1075274	keystroke_i	i	n/a
537.771	0.09	1075542	keystroke_t	t	n/a
537.891	0.121	1075782	keystroke_y	y	n/a
538.041	0.136	1076082	keystroke_Key.space	Key.space	n/a
538.312	0.134	1076624	keystroke_r	r	n/a
538.416	0.121	1076832	keystroke_e	e	n/a
539.6165	0.1055	1079233	keystroke_g	g	n/a
539.736	0.06	1079472	keystroke_u	u	n/a
539.886	0.105	1079772	keystroke_l	l	n/a
540.006	0.105	1080012	keystroke_a	a	n/a
540.096	0.106	1080192	keystroke_t	t	n/a
540.216	0.1055	1080432	keystroke_i	i	n/a
540.306	0.1505	1080612	keystroke_o	o	n/a
540.442	0.1195	1080884	keystroke_n	n	n/a
541.3115	0.0605	1082623	keystroke_Key.enter	Key.enter	n/a
541.3765	8.352	1082753	prompt	n/a	verizon graham apply typing\n
542.1515	0.09	1084303	keystroke_v	v	n/a
542.3915	0.1355	1084783	keystroke_e	e	n/a
542.497	0.105	1084994	keystroke_r	r	n/a
543.007	0.075	1086014	keystroke_i	i	n/a
543.442	0.09	1086884	keystroke_z	z	n/a
543.562	0.165	1087124	keystroke_o	o	n/a
543.892	0.075	1087784	keystroke_n	n	n/a
544.117	0.105	1088234	keystroke_Key.space	Key.space	n/a
544.8965	0.09	1089793	keystroke_g	g	n/a
545.826	0.09	1091652	keystroke_r	r	n/a
545.977	0.075	1091954	keystroke_a	a	n/a
546.202	0.089	1092404	keystroke_h	h	n/a
546.322	0.0895	1092644	keystroke_a	a	n/a
546.517	0.1195	1093034	keystroke_m	m	n/a
546.6515	0.09	1093303	keystroke_Key.space	Key.space	n/a
546.7565	0.075	1093513	keystroke_a	a	n/a
546.8465	0.06	1093693	keystroke_p	p	n/a
547.027	0.0145	1094054	keystroke_p	p	n/a
547.552	0.089	1095104	keystroke_l	l	n/a
547.7765	0.1645	1095553	keystroke_y	y	n/a
547.8965	0.135	1095793	keystroke_Key.space	Key.space	n/a
548.226	0.076	1096452	keystroke_t	t	n/a
548.3915	0.09	1096783	keystroke_y	y	n/a
548.992	0.075	1097984	keystroke_p	p	n/a
549.202	0.165	1098404	keystroke_i	i	n/a
549.307	0.135	1098614	keystroke_n	n	n/a
549.457	0.075	1098914	keystroke_g	g	n/a
549.667	0.06	1099334	keystroke_Key.enter	Key.enter	n/a
549.7325	9.7005	1099465	prompt	n/a	subscribe viking blair interactions\n
550.5815	0.075	1101163	keystroke_s	s	n/a
551.392	0.09	1102784	keystroke_u	u	n/a
551.632	0.075	1103264	keystroke_b	b	n/a
551.797	0.075	1103594	keystroke_s	s	n/a
551.977	0.075	1103954	keystroke_c	c	n/a
552.2025	0.0895	1104405	keystroke_r	r	n/a
552.307	0.09	1104614	keystroke_i	i	n/a
552.502	0.0895	1105004	keystroke_b	b	n/a
552.6665	0.0605	1105333	keystroke_e	e	n/a
552.772	0.105	1105544	keystroke_Key.space	Key.space	n/a
553.027	0.0755	1106054	keystroke_v	v	n/a
553.132	0.075	1106264	keystroke_i	i	n/a
553.342	0.06	1106684	keystroke_k	k	n/a
553.507	0.135	1107014	keystroke_i	i	n/a
553.597	0.12	1107194	keystroke_n	n	n/a
553.732	0.12	1107464	keystroke_g	g	n/a
553.912	0.105	1107824	keystroke_Key.space	Key.space	n/a
555.1715	0.1055	1110343	keystroke_b	b	n/a
555.4115	0.075	1110823	keystroke_l	l	n/a
556.252	0.0895	1112504	keystroke_a	a	n/a
556.5965	0.075	1113193	keystroke_i	i	n/a
556.7315	0.105	1113463	keystroke_r	r	n/a
556.8515	0.075	1113703	keystroke_Key.space	Key.space	n/a
556.9865	0.12	1113973	keystroke_i	i	n/a
557.0765	0.09	1114153	keystroke_n	n	n/a
557.1815	0.06	1114363	keystroke_t	t	n/a
557.3465	0.135	1114693	keystroke_e	e	n/a
557.452	0.12	1114904	keystroke_r	r	n/a
557.602	0.15	1115204	keystroke_a	a	n/a
557.947	0.0745	1115894	keystroke_t	t	n/a
558.3515	0.075	1116703	keystroke_Key.backspace	Key.backspace	n/a
558.4565	0.09	1116913	keystroke_c	c	n/a
558.6665	0.09	1117333	keystroke_t	t	n/a
558.7715	0.12	1117543	keystroke_i	i	n/a
558.8765	0.135	1117753	keystroke_o	o	n/a
558.9665	0.12	1117933	keystroke_n	n	n/a
559.0865	0.075	1118173	keystroke_s	s	n/a
559.3715	0.06	1118743	keystroke_Key.enter	Key.enter	n/a
559.437	8.4115	1118874	prompt	n/a	season undergraduate reviews circus\n
560.3015	0.06	1120603	keystroke_s	s	n/a
560.4065	0.135	1120813	keystroke_e	e	n/a
560.5265	0.09	1121053	keystroke_a	a	n/a
560.7365	0.1055	1121473	keystroke_s	s	n/a
560.9165	0.135	1121833	keystroke_o	o	n/a
561.0365	0.1355	1122073	keystroke_n	n	n/a
561.1565	0.105	1122313	keystroke_Key.space	Key.space	n/a
561.3365	0.0905	1122673	keystroke_u	u	n/a
561.5615	0.0905	1123123	keystroke_n	n	n/a
561.6815	0.0605	1123363	keystroke_d	d	n/a
561.8465	0.15	1123693	keystroke_e	e	n/a
561.9665	0.075	1123933	keystroke_r	r	n/a
562.971	0.075	1125942	keystroke_g	g	n/a
563.166	0.105	1126332	keystroke_r	r	n/a
563.286	0.0905	1126572	keystroke_a	a	n/a
563.4965	0.1055	1126993	keystroke_d	d	n/a
563.647	0.09	1127294	keystroke_u	u	n/a
564.217	0.12	1128434	keystroke_a	a	n/a
564.322	0.09	1128644	keystroke_t	t	n/a
564.4715	0.09	1128943	keystroke_e	e	n/a
564.652	0.119	1129304	keystroke_Key.space	Key.space	n/a
564.9665	0.1645	1129933	keystroke_r	r	n/a
565.116	0.076	1130232	keystroke_e	e	n/a
565.3265	0.0895	1130653	keystroke_v	v	n/a
565.4315	0.1045	1130863	keystroke_i	i	n/a
565.506	0.195	1131012	keystroke_e	e	n/a
565.642	0.104	1131284	keystroke_w	w	n/a
565.911	0.091	1131822	keystroke_s	s	n/a
566.0765	0.0895	1132153	keystroke_Key.space	Key.space	n/a
566.6915	0.105	1133383	keystroke_c	c	n/a
566.8415	0.105	1133683	keystroke_i	i	n/a
567.0065	0.0905	1134013	keystroke_r	r	n/a
567.2615	0.0905	1134523	keystroke_c	c	n/a
567.367	0.0595	1134734	keystroke_u	u	n/a
567.502	0.0905	1135004	keystroke_s	s	n/a
567.7715	0.075	1135543	keystroke_Key.enter	Key.enter	n/a
567.853	7.841	1135706	prompt	n/a	crew voting parliamentary trance\n
568.672	0.075	1137344	keystroke_c	c	n/a
568.8665	0.075	1137733	keystroke_r	r	n/a
568.9265	0.1805	1137853	keystroke_e	e	n/a
569.077	0.09	1138154	keystroke_w	w	n/a
569.302	0.12	1138604	keystroke_Key.space	Key.space	n/a
569.887	0.0905	1139774	keystroke_v	v	n/a
570.007	0.09	1140014	keystroke_o	o	n/a
570.142	0.09	1140284	keystroke_t	t	n/a
570.247	0.15	1140494	keystroke_i	i	n/a
570.337	0.105	1140674	keystroke_n	n	n/a
570.487	0.09	1140974	keystroke_g	g	n/a
570.6365	0.12	1141273	keystroke_Key.space	Key.space	n/a
571.1465	0.1055	1142293	keystroke_p	p	n/a
571.4765	0.105	1142953	keystroke_a	a	n/a
571.702	0.0895	1143404	keystroke_r	r	n/a
572.0615	0.105	1144123	keystroke_l	l	n/a
572.1965	0.1055	1144393	keystroke_i	i	n/a
572.5565	0.091	1145113	keystroke_a	a	n/a
572.8265	0.075	1145653	keystroke_m	m	n/a
572.9615	0.0905	1145923	keystroke_e	e	n/a
573.0815	0.075	1146163	keystroke_n	n	n/a
573.172	0.0895	1146344	keystroke_t	t	n/a
573.3365	0.1655	1146673	keystroke_a	a	n/a
573.4565	0.105	1146913	keystroke_r	r	n/a
573.6065	0.135	1147213	keystroke_y	y	n/a
573.7565	0.09	1147513	keystroke_Key.space	Key.space	n/a
574.7915	0.105	1149583	keystroke_t	t	n/a
574.9865	0.09	1149973	keystroke_r	r	n/a
575.107	0.089	1150214	keystroke_a	a	n/a
575.2415	0.0755	1150483	keystroke_n	n	n/a
575.3315	0.15	1150663	keystroke_c	c	n/a
575.452	0.0895	1150904	keystroke_e	e	n/a
575.602	0.0895	1151204	keystroke_Key.enter	Key.enter	n/a
575.698	8.47	1151396	prompt	n/a	miller packet partners exceptional\n
576.4115	0.09	1152823	keystroke_m	m	n/a
576.5615	0.0605	1153123	keystroke_i	i	n/a
576.876	0.09	1153752	keystroke_l	l	n/a
577.071	0.075	1154142	keystroke_l	l	n/a
577.3565	0.1355	1154713	keystroke_e	e	n/a
577.4465	0.1055	1154893	keystroke_r	r	n/a
577.5365	0.105	1155073	keystroke_Key.space	Key.space	n/a
577.672	0.0895	1155344	keystroke_p	p	n/a
577.7625	0.1045	1155525	keystroke_a	a	n/a
577.8965	0.09	1155793	keystroke_c	c	n/a
578.002	0.0895	1156004	keystroke_k	k	n/a
578.1515	0.165	1156303	keystroke_e	e	n/a
578.302	0.1045	1156604	keystroke_t	t	n/a
578.7065	0.09	1157413	keystroke_Key.space	Key.space	n/a
578.9615	0.105	1157923	keystroke_p	p	n/a
579.0965	0.165	1158193	keystroke_a	a	n/a
579.277	0.0895	1158554	keystroke_r	r	n/a
579.816	0.12	1159632	keystroke_t	t	n/a
580.672	0.0745	1161344	keystroke_n	n	n/a
580.8365	0.1355	1161673	keystroke_e	e	n/a
580.912	0.09	1161824	keystroke_r	r	n/a
581.1065	0.09	1162213	keystroke_s	s	n/a
581.2415	0.1195	1162483	keystroke_Key.space	Key.space	n/a
582.3515	0.09	1164703	keystroke_e	e	n/a
582.667	0.0745	1165334	keystroke_x	x	n/a
582.8615	0.075	1165723	keystroke_c	c	n/a
582.9815	0.12	1165963	keystroke_e	e	n/a
583.1165	0.105	1166233	keystroke_p	p	n/a
583.252	0.09	1166504	keystroke_t	t	n/a
583.327	0.135	1166654	keystroke_i	i	n/a
583.477	0.1795	1166954	keystroke_o	o	n/a
583.5965	0.135	1167193	keystroke_n	n	n/a
583.7765	0.06	1167553	keystroke_a	a	n/a
583.8965	0.0755	1167793	keystroke_l	l	n/a
584.121	0.045	1168242	keystroke_Key.enter	Key.enter	n/a
584.1715	13.2265	1168343	prompt	n/a	jeffrey voltage mozilla newbie\n
585.187	0.0895	1170374	keystroke_h	h	n/a
585.3815	0.1805	1170763	keystroke_e	e	n/a
585.5015	0.09	1171003	keystroke_r	r	n/a
585.652	0.0895	1171304	keystroke_r	r	n/a
586.0265	0.0455	1172053	keystroke_Key.backspace	Key.backspace	n/a
586.1765	0.045	1172353	keystroke_Key.backspace	Key.backspace	n/a
586.2965	0.03	1172593	keystroke_Key.backspace	Key.backspace	n/a
586.4315	0.03	1172863	keystroke_Key.backspace	Key.backspace	n/a
587.152	0.075	1174304	keystroke_j	j	n/a
587.3015	0.1505	1174603	keystroke_e	e	n/a
587.556	0.0605	1175112	keystroke_r	r	n/a
