onset	duration	sample	value	key	prompt_text
1.1865	5.188	2373	prompt	n/a	the quick brown fox jumps over a lazy dog\n
2.467	0.136	4934	keystroke_t	t	n/a
2.578	0.1285	5156	keystroke_h	h	n/a
2.7065	0.1285	5413	keystroke_e	e	n/a
2.7705	0.128	5541	keystroke_Key.space	Key.space	n/a
2.9065	0.0965	5813	keystroke_q	q	n/a
3.0165	0.122	6033	keystroke_u	u	n/a
3.091	0.0565	6182	keystroke_i	i	n/a
3.099	0.0965	6198	keystroke_c	c	n/a
3.227	0.15	6454	keystroke_k	k	n/a
3.3465	0.08	6693	keystroke_Key.space	Key.space	n/a
3.459	0.0555	6918	keystroke_b	b	n/a
3.6185	0.0725	7237	keystroke_r	r	n/a
3.6745	0.0955	7349	keystroke_o	o	n/a
3.771	0.104	7542	keystroke_w	w	n/a
3.835	0.104	7670	keystroke_n	n	n/a
3.882	0.0805	7764	keystroke_Key.space	Key.space	n/a
3.9785	0.0805	7957	keystroke_f	f	n/a
4.067	0.135	8134	keystroke_o	o	n/a
4.1945	0.1045	8389	keystroke_x	x	n/a
4.2665	0.0875	8533	keystroke_Key.space	Key.space	n/a
4.3705	0.0565	8741	keystroke_j	j	n/a
4.499	0.0555	8998	keystroke_u	u	n/a
4.659	0.136	9318	keystroke_m	m	n/a
4.6895	0.1375	9379	keystroke_p	p	n/a
4.787	0.0955	9574	keystroke_s	s	n/a
4.819	0.094	9638	keystroke_Key.space	Key.space	n/a
4.9465	0.128	9893	keystroke_o	o	n/a
5.019	0.064	10038	keystroke_v	v	n/a
5.1385	0.1285	10277	keystroke_e	e	n/a
5.2095	0.1045	10419	keystroke_r	r	n/a
5.243	0.04	10486	keystroke_Key.space	Key.space	n/a
5.315	0.12	10630	keystroke_a	a	n/a
5.411	0.072	10822	keystroke_Key.space	Key.space	n/a
5.547	0.096	11094	keystroke_l	l	n/a
5.626	0.057	11252	keystroke_a	a	n/a
5.763	0.135	11526	keystroke_z	z	n/a
5.851	0.103	11702	keystroke_y	y	n/a
5.906	0.073	11812	keystroke_Key.space	Key.space	n/a
5.9945	0.0805	11989	keystroke_d	d	n/a
6.083	0.088	12166	keystroke_o	o	n/a
6.179	0.0645	12358	keystroke_g	g	n/a
6.291	0.08	12582	keystroke_Key.enter	Key.enter	n/a
6.382	4.882	12764	prompt	n/a	representatives counties loss slots\n
6.891	0.119	13782	keystroke_r	r	n/a
6.963	0.08	13926	keystroke_e	e	n/a
7.067	0.103	14134	keystroke_p	p	n/a
7.139	0.104	14278	keystroke_r	r	n/a
7.202	0.088	14404	keystroke_e	e	n/a
7.267	0.1365	14534	keystroke_s	s	n/a
7.355	0.08	14710	keystroke_e	e	n/a
7.4435	0.096	14887	keystroke_n	n	n/a
7.5145	0.065	15029	keystroke_t	t	n/a
7.5635	0.12	15127	keystroke_a	a	n/a
7.668	0.0795	15336	keystroke_t	t	n/a
7.7795	0.1365	15559	keystroke_i	i	n/a
7.876	0.088	15752	keystroke_v	v	n/a
8.0115	0.104	16023	keystroke_e	e	n/a
8.0675	0.0875	16135	keystroke_s	s	n/a
8.0905	0.0895	16181	keystroke_Key.space	Key.space	n/a
8.2115	0.105	16423	keystroke_c	c	n/a
8.284	0.0895	16568	keystroke_o	o	n/a
8.3415	0.056	16683	keystroke_u	u	n/a
8.494	0.104	16988	keystroke_n	n	n/a
8.5725	0.0735	17145	keystroke_t	t	n/a
8.685	0.1455	17370	keystroke_i	i	n/a
8.7655	0.121	17531	keystroke_e	e	n/a
8.8385	0.08	17677	keystroke_s	s	n/a
8.8545	0.096	17709	keystroke_Key.space	Key.space	n/a
9.0065	0.048	18013	keystroke_l	l	n/a
9.1425	0.08	18285	keystroke_o	o	n/a
9.2065	0.064	18413	keystroke_s	s	n/a
9.334	0.0885	18668	keystroke_s	s	n/a
9.3905	0.0715	18781	keystroke_Key.space	Key.space	n/a
9.5265	0.048	19053	keystroke_l	l	n/a
9.5345	0.08	19069	keystroke_s	s	n/a
9.7185	0.08	19437	keystroke_o	o	n/a
9.8225	0.079	19645	keystroke_t	t	n/a
9.863	0.0785	19726	keystroke_s	s	n/a
10.0865	0.0475	20173	keystroke_Key.backspace	Key.backspace	n/a
10.1825	0.055	20365	keystroke_Key.backspace	Key.backspace	n/a
10.286	0.048	20572	keystroke_Key.backspace	Key.backspace	n/a
10.3895	0.065	20779	keystroke_Key.backspace	Key.backspace	n/a
10.518	0.072	21036	keystroke_Key.backspace	Key.backspace	n/a
10.678	0.0725	21356	keystroke_s	s	n/a
10.7585	0.0645	21517	keystroke_l	l	n/a
10.9025	0.096	21805	keystroke_o	o	n/a
10.9825	0.088	21965	keystroke_t	t	n/a
11.0225	0.104	22045	keystroke_s	s	n/a
11.198	0.064	22396	keystroke_Key.enter	Key.enter	n/a
11.268	3.86	22536	prompt	n/a	women wedding walked diploma\n
11.8465	0.088	23693	keystroke_w	w	n/a
11.9265	0.119	23853	keystroke_o	o	n/a
12.0225	0.088	24045	keystroke_m	m	n/a
12.094	0.089	24188	keystroke_e	e	n/a
12.1905	0.12	24381	keystroke_n	n	n/a
12.2465	0.0875	24493	keystroke_Key.space	Key.space	n/a
12.3495	0.089	24699	keystroke_w	w	n/a
12.4545	0.0715	24909	keystroke_e	e	n/a
12.6305	0.072	25261	keystroke_d	d	n/a
12.7585	0.0715	25517	keystroke_d	d	n/a
12.8775	0.049	25755	keystroke_i	i	n/a
12.9505	0.1435	25901	keystroke_n	n	n/a
13.0065	0.0715	26013	keystroke_g	g	n/a
13.038	0.088	26076	keystroke_Key.space	Key.space	n/a
13.1505	0.0795	26301	keystroke_w	w	n/a
13.302	0.088	26604	keystroke_a	a	n/a
13.3825	0.1115	26765	keystroke_l	l	n/a
13.4465	0.1745	26893	keystroke_k	k	n/a
13.55	0.04	27100	keystroke_e	e	n/a
13.6865	0.096	27373	keystroke_d	d	n/a
13.734	0.08	27468	keystroke_Key.space	Key.space	n/a
13.942	0.08	27884	keystroke_d	d	n/a
14.054	0.104	28108	keystroke_i	i	n/a
14.182	0.0955	28364	keystroke_p	p	n/a
14.3895	0.057	28779	keystroke_l	l	n/a
14.5345	0.071	29069	keystroke_o	o	n/a
14.654	0.104	29308	keystroke_m	m	n/a
14.95	0.0805	29900	keystroke_a	a	n/a
15.07	0.0555	30140	keystroke_Key.enter	Key.enter	n/a
15.1315	6.8845	30263	prompt	n/a	obligations societies luxembourg ranger\n
15.71	0.096	31420	keystroke_o	o	n/a
15.8775	0.0965	31755	keystroke_b	b	n/a
15.998	0.056	31996	keystroke_l	l	n/a
16.1265	0.103	32253	keystroke_i	i	n/a
16.198	0.096	32396	keystroke_g	g	n/a
16.278	0.088	32556	keystroke_a	a	n/a
16.398	0.104	32796	keystroke_t	t	n/a
16.478	0.1125	32956	keystroke_i	i	n/a
16.5185	0.1355	33037	keystroke_o	o	n/a
16.566	0.1355	33132	keystroke_n	n	n/a
16.622	0.0955	33244	keystroke_s	s	n/a
16.686	0.056	33372	keystroke_Key.space	Key.space	n/a
16.806	0.08	33612	keystroke_s	s	n/a
16.909	0.089	33818	keystroke_o	o	n/a
16.99	0.072	33980	keystroke_c	c	n/a
17.086	0.104	34172	keystroke_i	i	n/a
17.174	0.072	34348	keystroke_e	e	n/a
17.334	0.071	34668	keystroke_t	t	n/a
17.462	0.112	34924	keystroke_i	i	n/a
17.566	0.1115	35132	keystroke_e	e	n/a
17.6225	0.112	35245	keystroke_s	s	n/a
17.678	0.095	35356	keystroke_Key.space	Key.space	n/a
17.9335	0.0475	35867	keystroke_l	l	n/a
18.102	0.056	36204	keystroke_u	u	n/a
18.214	0.088	36428	keystroke_x	x	n/a
18.446	0.064	36892	keystroke_e	e	n/a
18.661	0.0975	37322	keystroke_m	m	n/a
19.7415	0.079	39483	keystroke_b	b	n/a
19.869	0.1445	39738	keystroke_o	o	n/a
19.9885	0.1045	39977	keystroke_u	u	n/a
20.085	0.0645	40170	keystroke_r	r	n/a
20.237	0.1125	40474	keystroke_g	g	n/a
20.3415	0.0875	40683	keystroke_Key.space	Key.space	n/a
20.4615	0.104	40923	keystroke_r	r	n/a
20.5255	0.0875	41051	keystroke_a	a	n/a
20.621	0.104	41242	keystroke_n	n	n/a
20.6935	0.056	41387	keystroke_g	g	n/a
20.7655	0.151	41531	keystroke_e	e	n/a
20.862	0.0875	41724	keystroke_r	r	n/a
21.9575	0.056	43915	keystroke_Key.enter	Key.enter	n/a
22.02	5.019	44040	prompt	n/a	supplement prev scoring government\n
22.6295	0.064	45259	keystroke_s	s	n/a
22.7645	0.0575	45529	keystroke_u	u	n/a
22.917	0.1845	45834	keystroke_p	p	n/a
23.773	0.0955	47546	keystroke_p	p	n/a
23.965	0.0805	47930	keystroke_l	l	n/a
24.0615	0.08	48123	keystroke_e	e	n/a
24.1655	0.087	48331	keystroke_m	m	n/a
24.2535	0.072	48507	keystroke_e	e	n/a
24.3335	0.128	48667	keystroke_n	n	n/a
24.413	0.0885	48826	keystroke_t	t	n/a
24.4855	0.063	48971	keystroke_Key.space	Key.space	n/a
24.5655	0.1125	49131	keystroke_p	p	n/a
24.6295	0.104	49259	keystroke_r	r	n/a
24.7175	0.056	49435	keystroke_e	e	n/a
24.8455	0.12	49691	keystroke_v	v	n/a
24.9735	0.088	49947	keystroke_Key.space	Key.space	n/a
25.0695	0.08	50139	keystroke_s	s	n/a
25.1895	0.072	50379	keystroke_c	c	n/a
25.285	0.0965	50570	keystroke_o	o	n/a
25.389	0.0805	50778	keystroke_r	r	n/a
25.4615	0.048	50923	keystroke_i	i	n/a
25.5575	0.1275	51115	keystroke_n	n	n/a
25.6055	0.0715	51211	keystroke_g	g	n/a
25.6455	0.08	51291	keystroke_Key.space	Key.space	n/a
25.8135	0.08	51627	keystroke_g	g	n/a
25.9095	0.111	51819	keystroke_o	o	n/a
25.9895	0.072	51979	keystroke_v	v	n/a
26.1175	0.12	52235	keystroke_e	e	n/a
26.206	0.088	52412	keystroke_r	r	n/a
26.2695	0.048	52539	keystroke_n	n	n/a
26.421	0.064	52842	keystroke_m	m	n/a
26.493	0.0805	52986	keystroke_e	e	n/a
26.581	0.0885	53162	keystroke_n	n	n/a
26.6705	0.063	53341	keystroke_t	t	n/a
26.957	0.0805	53914	keystroke_Key.enter	Key.enter	n/a
27.044	3.1155	54088	prompt	n/a	side soul permit spencer\n
27.6695	0.088	55339	keystroke_s	s	n/a
27.853	0.104	55706	keystroke_i	i	n/a
27.91	0.063	55820	keystroke_d	d	n/a
28.069	0.088	56138	keystroke_e	e	n/a
28.141	0.072	56282	keystroke_Key.space	Key.space	n/a
28.2535	0.08	56507	keystroke_s	s	n/a
28.3415	0.088	56683	keystroke_o	o	n/a
28.3975	0.072	56795	keystroke_u	u	n/a
28.5575	0.104	57115	keystroke_l	l	n/a
28.6055	0.104	57211	keystroke_Key.space	Key.space	n/a
28.7575	0.104	57515	keystroke_p	p	n/a
28.8215	0.12	57643	keystroke_e	e	n/a
28.901	0.0805	57802	keystroke_r	r	n/a
29.029	0.1445	58058	keystroke_m	m	n/a
29.1415	0.12	58283	keystroke_i	i	n/a
29.2375	0.08	58475	keystroke_t	t	n/a
29.2695	0.088	58539	keystroke_Key.space	Key.space	n/a
29.4295	0.072	58859	keystroke_s	s	n/a
29.5095	0.088	59019	keystroke_p	p	n/a
29.5895	0.0715	59179	keystroke_e	e	n/a
29.6775	0.12	59355	keystroke_n	n	n/a
29.7735	0.056	59547	keystroke_c	c	n/a
29.8695	0.1435	59739	keystroke_e	e	n/a
29.9735	0.072	59947	keystroke_r	r	n/a
30.0855	0.0715	60171	keystroke_Key.enter	Key.enter	n/a
30.1665	4.625	60333	prompt	n/a	cave flight revolutionary lovely\n
30.7325	0.0965	61465	keystroke_c	c	n/a
30.8205	0.08	61641	keystroke_a	a	n/a
30.9895	0.064	61979	keystroke_v	v	n/a
31.1245	0.1055	62249	keystroke_e	e	n/a
31.214	0.072	62428	keystroke_Key.space	Key.space	n/a
31.485	0.088	62970	keystroke_f	f	n/a
31.581	0.072	63162	keystroke_l	l	n/a
31.805	0.072	63610	keystroke_i	i	n/a
31.878	0.079	63756	keystroke_g	g	n/a
31.9895	0.135	63979	keystroke_h	h	n/a
32.0535	0.087	64107	keystroke_t	t	n/a
32.1165	0.088	64233	keystroke_Key.space	Key.space	n/a
32.2535	0.088	64507	keystroke_r	r	n/a
32.3005	0.08	64601	keystroke_e	e	n/a
32.4695	0.088	64939	keystroke_v	v	n/a
32.5815	0.0325	65163	keystroke_o	o	n/a
32.7175	0.0715	65435	keystroke_l	l	n/a
32.8535	0.0955	65707	keystroke_u	u	n/a
32.973	0.08	65946	keystroke_t	t	n/a
33.045	0.136	66090	keystroke_i	i	n/a
33.1255	0.1355	66251	keystroke_o	o	n/a
33.197	0.096	66394	keystroke_n	n	n/a
33.3575	0.088	66715	keystroke_a	a	n/a
33.4055	0.12	66811	keystroke_r	r	n/a
33.5655	0.112	67131	keystroke_y	y	n/a
33.6295	0.12	67259	keystroke_Key.space	Key.space	n/a
33.9255	0.072	67851	keystroke_l	l	n/a
34.0695	0.096	68139	keystroke_o	o	n/a
34.1495	0.072	68299	keystroke_v	v	n/a
34.2775	0.088	68555	keystroke_e	e	n/a
34.3815	0.064	68763	keystroke_l	l	n/a
34.5335	0.072	69067	keystroke_y	y	n/a
34.7095	0.08	69419	keystroke_Key.enter	Key.enter	n/a
34.798	6.609	69596	prompt	n/a	christmas rest firewall radiation\n
35.4615	0.064	70923	keystroke_c	c	n/a
35.533	0.112	71066	keystroke_h	h	n/a
35.6615	0.0875	71323	keystroke_r	r	n/a
35.789	0.096	71578	keystroke_i	i	n/a
35.8615	0.12	71723	keystroke_s	s	n/a
35.9565	0.096	71913	keystroke_t	t	n/a
36.157	0.112	72314	keystroke_m	m	n/a
36.277	0.12	72554	keystroke_a	a	n/a
36.341	0.1285	72682	keystroke_s	s	n/a
36.413	0.088	72826	keystroke_Key.space	Key.space	n/a
36.733	0.0965	73466	keystroke_r	r	n/a
36.7885	0.081	73577	keystroke_e	e	n/a
36.9495	0.119	73899	keystroke_s	s	n/a
37.0215	0.128	74043	keystroke_t	t	n/a
37.1165	0.105	74233	keystroke_Key.space	Key.space	n/a
37.2775	0.072	74555	keystroke_r	r	n/a
37.3335	0.056	74667	keystroke_e	e	n/a
37.5735	0.048	75147	keystroke_Key.backspace	Key.backspace	n/a
37.693	0.0405	75386	keystroke_Key.backspace	Key.backspace	n/a
37.781	0.0565	75562	keystroke_f	f	n/a
37.9015	0.104	75803	keystroke_i	i	n/a
37.9735	0.128	75947	keystroke_r	r	n/a
38.045	0.136	76090	keystroke_e	e	n/a
38.27	0.0795	76540	keystroke_w	w	n/a
38.4935	0.04	76987	keystroke_l	l	n/a
38.757	0.0485	77514	keystroke_Key.backspace	Key.backspace	n/a
38.845	0.0805	77690	keystroke_a	a	n/a
39.0375	0.048	78075	keystroke_l	l	n/a
39.4775	0.064	78955	keystroke_l	l	n/a
39.6375	0.0795	79275	keystroke_Key.space	Key.space	n/a
39.9015	0.0955	79803	keystroke_r	r	n/a
40.109	0.073	80218	keystroke_d	d	n/a
40.381	0.064	80762	keystroke_Key.backspace	Key.backspace	n/a
40.4285	0.088	80857	keystroke_a	a	n/a
40.5335	0.0875	81067	keystroke_d	d	n/a
40.6615	0.0875	81323	keystroke_i	i	n/a
40.774	0.087	81548	keystroke_a	a	n/a
40.8855	0.1035	81771	keystroke_t	t	n/a
40.981	0.128	81962	keystroke_i	i	n/a
41.021	0.144	82042	keystroke_o	o	n/a
41.077	0.12	82154	keystroke_n	n	n/a
41.309	0.096	82618	keystroke_Key.enter	Key.enter	n/a
41.4115	6.051	82823	prompt	n/a	continuous subscriptions learning calls\n
41.9885	0.089	83977	keystroke_c	c	n/a
42.0775	0.088	84155	keystroke_o	o	n/a
42.3495	0.072	84699	keystroke_n	n	n/a
42.4765	0.065	84953	keystroke_t	t	n/a
42.5415	0.0725	85083	keystroke_i	i	n/a
42.6455	0.08	85291	keystroke_n	n	n/a
42.861	0.0805	85722	keystroke_u	u	n/a
43.0775	0.119	86155	keystroke_o	o	n/a
43.229	0.1365	86458	keystroke_u	u	n/a
43.325	0.1205	86650	keystroke_s	s	n/a
43.397	0.0965	86794	keystroke_Key.space	Key.space	n/a
43.702	0.095	87404	keystroke_c	c	n/a
43.997	0.064	87994	keystroke_Key.backspace	Key.backspace	n/a
44.069	0.1115	88138	keystroke_s	s	n/a
44.1885	0.0885	88377	keystroke_u	u	n/a
44.2855	0.079	88571	keystroke_b	b	n/a
44.4285	0.0965	88857	keystroke_s	s	n/a
44.597	0.0645	89194	keystroke_c	c	n/a
44.7965	0.073	89593	keystroke_r	r	n/a
45.029	0.104	90058	keystroke_i	i	n/a
45.205	0.0965	90410	keystroke_p	p	n/a
45.365	0.08	90730	keystroke_t	t	n/a
45.453	0.0885	90906	keystroke_i	i	n/a
45.477	0.1435	90954	keystroke_o	o	n/a
45.5805	0.128	91161	keystroke_n	n	n/a
45.6605	0.0885	91321	keystroke_s	s	n/a
45.7095	0.071	91419	keystroke_Key.space	Key.space	n/a
46.125	0.1045	92250	keystroke_l	l	n/a
46.181	0.1515	92362	keystroke_e	e	n/a
46.2525	0.12	92505	keystroke_a	a	n/a
46.3805	0.1125	92761	keystroke_r	r	n/a
46.4765	0.0885	92953	keystroke_n	n	n/a
46.549	0.04	93098	keystroke_i	i	n/a
46.6685	0.1285	93337	keystroke_n	n	n/a
46.709	0.096	93418	keystroke_g	g	n/a
46.757	0.088	93514	keystroke_Key.space	Key.space	n/a
46.917	0.113	93834	keystroke_c	c	n/a
46.973	0.0795	93946	keystroke_a	a	n/a
47.0685	0.0565	94137	keystroke_l	l	n/a
47.1805	0.0645	94361	keystroke_l	l	n/a
47.2695	0.079	94539	keystroke_s	s	n/a
47.3805	0.08	94761	keystroke_Key.enter	Key.enter	n/a
47.4655	4.117	94931	prompt	n/a	peas exotic hydrogen gonna\n
48.0055	0.1115	96011	keystroke_p	p	n/a
48.0845	0.104	96169	keystroke_e	e	n/a
48.1485	0.152	96297	keystroke_a	a	n/a
48.2695	0.1275	96539	keystroke_s	s	n/a
48.357	0.096	96714	keystroke_Key.space	Key.space	n/a
48.477	0.0725	96954	keystroke_e	e	n/a
48.661	0.087	97322	keystroke_x	x	n/a
48.885	0.0885	97770	keystroke_o	o	n/a
49.101	0.08	98202	keystroke_t	t	n/a
49.237	0.128	98474	keystroke_i	i	n/a
49.349	0.104	98698	keystroke_c	c	n/a
49.413	0.096	98826	keystroke_Key.space	Key.space	n/a
49.733	0.0635	99466	keystroke_h	h	n/a
49.901	0.0795	99802	keystroke_y	y	n/a
49.9725	0.08	99945	keystroke_d	d	n/a
50.1725	0.0805	100345	keystroke_r	r	n/a
50.3	0.113	100600	keystroke_o	o	n/a
50.372	0.088	100744	keystroke_g	g	n/a
50.509	0.096	101018	keystroke_e	e	n/a
50.629	0.1285	101258	keystroke_n	n	n/a
50.7005	0.096	101401	keystroke_Key.space	Key.space	n/a
50.9325	0.0645	101865	keystroke_g	g	n/a
51.029	0.064	102058	keystroke_o	o	n/a
51.164	0.0575	102328	keystroke_n	n	n/a
51.277	0.08	102554	keystroke_n	n	n/a
51.3655	0.071	102731	keystroke_a	a	n/a
51.501	0.079	103002	keystroke_Key.enter	Key.enter	n/a
51.5875	3.9705	103175	prompt	n/a	most timber restriction reality\n
52.141	0.1035	104282	keystroke_m	m	n/a
52.2285	0.144	104457	keystroke_o	o	n/a
52.301	0.0875	104602	keystroke_s	s	n/a
52.3485	0.096	104697	keystroke_t	t	n/a
52.4285	0.112	104857	keystroke_Key.space	Key.space	n/a
52.549	0.064	105098	keystroke_t	t	n/a
52.588	0.049	105176	keystroke_i	i	n/a
52.725	0.12	105450	keystroke_m	m	n/a
52.837	0.072	105674	keystroke_b	b	n/a
53.013	0.1755	106026	keystroke_e	e	n/a
53.093	0.1605	106186	keystroke_r	r	n/a
53.2365	0.112	106473	keystroke_Key.space	Key.space	n/a
53.429	0.1435	106858	keystroke_r	r	n/a
53.501	0.104	107002	keystroke_e	e	n/a
53.6925	0.1195	107385	keystroke_s	s	n/a
53.7805	0.0805	107561	keystroke_t	t	n/a
53.9405	0.08	107881	keystroke_r	r	n/a
54.093	0.0795	108186	keystroke_i	i	n/a
54.2045	0.0645	108409	keystroke_c	c	n/a
54.3965	0.096	108793	keystroke_t	t	n/a
54.4525	0.1125	108905	keystroke_i	i	n/a
54.4935	0.143	108987	keystroke_o	o	n/a
54.5335	0.143	109067	keystroke_n	n	n/a
54.612	0.097	109224	keystroke_Key.space	Key.space	n/a
54.709	0.1515	109418	keystroke_r	r	n/a
54.7565	0.152	109513	keystroke_e	e	n/a
54.837	0.0795	109674	keystroke_a	a	n/a
54.9565	0.0885	109913	keystroke_l	l	n/a
55.0765	0.097	110153	keystroke_i	i	n/a
55.1885	0.096	110377	keystroke_t	t	n/a
55.2845	0.0805	110569	keystroke_y	y	n/a
55.461	0.0955	110922	keystroke_Key.enter	Key.enter	n/a
55.5605	6.638	111121	prompt	n/a	satisfactory readily algorithm spanish\n
56.1565	0.1205	112313	keystroke_s	s	n/a
56.261	0.095	112522	keystroke_a	a	n/a
56.476	0.08	112952	keystroke_t	t	n/a
56.6765	0.104	113353	keystroke_i	i	n/a
56.8285	0.0645	113657	keystroke_s	s	n/a
56.9885	0.096	113977	keystroke_f	f	n/a
57.1165	0.112	114233	keystroke_a	a	n/a
57.2845	0.072	114569	keystroke_c	c	n/a
57.6125	0.072	115225	keystroke_t	t	n/a
57.8125	0.112	115625	keystroke_o	o	n/a
58.1165	0.0805	116233	keystroke_r	r	n/a
58.2045	0.1125	116409	keystroke_y	y	n/a
58.3005	0.0875	116601	keystroke_Key.space	Key.space	n/a
58.5885	0.1285	117177	keystroke_r	r	n/a
58.6285	0.12	117257	keystroke_e	e	n/a
58.701	0.0795	117402	keystroke_a	a	n/a
58.845	0.1035	117690	keystroke_d	d	n/a
58.9725	0.096	117945	keystroke_i	i	n/a
59.1325	0.088	118265	keystroke_l	l	n/a
59.3005	0.1205	118601	keystroke_y	y	n/a
59.3725	0.104	118745	keystroke_Key.space	Key.space	n/a
59.5165	0.08	119033	keystroke_a	a	n/a
59.6445	0.096	119289	keystroke_l	l	n/a
59.7485	0.0635	119497	keystroke_g	g	n/a
59.853	0.104	119706	keystroke_o	o	n/a
60.005	0.071	120010	keystroke_r	r	n/a
60.1085	0.1035	120217	keystroke_i	i	n/a
60.2445	0.0885	120489	keystroke_t	t	n/a
60.341	0.071	120682	keystroke_h	h	n/a
60.5645	0.1205	121129	keystroke_m	m	n/a
61.125	0.119	122250	keystroke_Key.space	Key.space	n/a
61.445	0.088	122890	keystroke_s	s	n/a
61.549	0.072	123098	keystroke_p	p	n/a
61.613	0.095	123226	keystroke_a	a	n/a
61.7245	0.1045	123449	keystroke_n	n	n/a
61.8045	0.0565	123609	keystroke_i	i	n/a
61.853	0.095	123706	keystroke_s	s	n/a
61.9325	0.088	123865	keystroke_h	h	n/a
62.116	0.08	124232	keystroke_Key.enter	Key.enter	n/a
62.204	4.9065	124408	prompt	n/a	minerals harder increasing electronic\n
62.797	0.0635	125594	keystroke_m	m	n/a
62.916	0.048	125832	keystroke_i	i	n/a
63.0125	0.0875	126025	keystroke_n	n	n/a
63.116	0.16	126232	keystroke_e	e	n/a
63.1965	0.1195	126393	keystroke_r	r	n/a
63.2845	0.08	126569	keystroke_a	a	n/a
63.4125	0.12	126825	keystroke_l	l	n/a
63.4925	0.088	126985	keystroke_s	s	n/a
63.5405	0.064	127081	keystroke_Key.space	Key.space	n/a
63.7085	0.12	127417	keystroke_h	h	n/a
63.7885	0.128	127577	keystroke_a	a	n/a
63.9085	0.072	127817	keystroke_r	r	n/a
64.0445	0.08	128089	keystroke_d	d	n/a
64.197	0.1275	128394	keystroke_e	e	n/a
64.2605	0.104	128521	keystroke_r	r	n/a
64.3245	0.088	128649	keystroke_Key.space	Key.space	n/a
64.4285	0.048	128857	keystroke_i	i	n/a
64.548	0.1045	129096	keystroke_n	n	n/a
64.6605	0.064	129321	keystroke_c	c	n/a
64.8365	0.152	129673	keystroke_r	r	n/a
64.9085	0.0955	129817	keystroke_e	e	n/a
64.98	0.136	129960	keystroke_a	a	n/a
65.076	0.128	130152	keystroke_s	s	n/a
65.196	0.073	130392	keystroke_i	i	n/a
65.292	0.128	130584	keystroke_n	n	n/a
65.349	0.0875	130698	keystroke_g	g	n/a
65.396	0.0965	130792	keystroke_Key.space	Key.space	n/a
65.7245	0.0635	131449	keystroke_e	e	n/a
65.812	0.112	131624	keystroke_l	l	n/a
65.8765	0.064	131753	keystroke_e	e	n/a
66.0125	0.095	132025	keystroke_c	c	n/a
66.2365	0.071	132473	keystroke_t	t	n/a
66.396	0.0885	132792	keystroke_r	r	n/a
66.508	0.104	133016	keystroke_o	o	n/a
66.6525	0.1275	133305	keystroke_n	n	n/a
66.732	0.0805	133464	keystroke_i	i	n/a
66.852	0.112	133704	keystroke_c	c	n/a
67.0365	0.0715	134073	keystroke_Key.enter	Key.enter	n/a
67.1135	5.9965	134227	prompt	n/a	thomas consisting mali considerations\n
67.6845	0.096	135369	keystroke_t	t	n/a
67.7725	0.088	135545	keystroke_h	h	n/a
67.8365	0.08	135673	keystroke_o	o	n/a
67.9645	0.144	135929	keystroke_m	m	n/a
68.044	0.1045	136088	keystroke_a	a	n/a
68.0765	0.112	136153	keystroke_s	s	n/a
68.1325	0.096	136265	keystroke_Key.space	Key.space	n/a
68.364	0.096	136728	keystroke_c	c	n/a
68.436	0.112	136872	keystroke_o	o	n/a
68.4925	0.096	136985	keystroke_n	n	n/a
68.5965	0.0805	137193	keystroke_s	s	n/a
68.685	0.103	137370	keystroke_i	i	n/a
68.78	0.1365	137560	keystroke_s	s	n/a
68.892	0.096	137784	keystroke_t	t	n/a
69.02	0.0885	138040	keystroke_i	i	n/a
69.1085	0.1275	138217	keystroke_n	n	n/a
69.1805	0.088	138361	keystroke_g	g	n/a
69.2285	0.096	138457	keystroke_Key.space	Key.space	n/a
69.4845	0.048	138969	keystroke_g	g	n/a
69.628	0.096	139256	keystroke_m	m	n/a
69.884	0.048	139768	keystroke_Key.backspace	Key.backspace	n/a
69.98	0.0565	139960	keystroke_Key.backspace	Key.backspace	n/a
70.149	0.087	140298	keystroke_m	m	n/a
70.26	0.08	140520	keystroke_a	a	n/a
70.341	0.039	140682	keystroke_i	i	n/a
70.724	0.04	141448	keystroke_Key.backspace	Key.backspace	n/a
70.884	0.08	141768	keystroke_l	l	n/a
71.004	0.128	142008	keystroke_i	i	n/a
71.1	0.1125	142200	keystroke_Key.space	Key.space	n/a
71.253	0.0555	142506	keystroke_g	g	n/a
71.5955	0.056	143191	keystroke_Key.backspace	Key.backspace	n/a
71.6915	0.072	143383	keystroke_c	c	n/a
71.7885	0.127	143577	keystroke_o	o	n/a
71.8765	0.087	143753	keystroke_n	n	n/a
71.9725	0.072	143945	keystroke_s	s	n/a
72.0685	0.087	144137	keystroke_i	i	n/a
72.172	0.048	144344	keystroke_d	d	n/a
72.316	0.136	144632	keystroke_e	e	n/a
72.4045	0.1355	144809	keystroke_r	r	n/a
72.516	0.1035	145032	keystroke_a	a	n/a
72.6205	0.096	145241	keystroke_t	t	n/a
72.6995	0.128	145399	keystroke_i	i	n/a
72.7635	0.072	145527	keystroke_o	o	n/a
72.7875	0.081	145575	keystroke_n	n	n/a
72.8595	0.096	145719	keystroke_s	s	n/a
73.0115	0.097	146023	keystroke_Key.enter	Key.enter	n/a
73.1155	3.2745	146231	prompt	n/a	tale move tired yorkshire\n
73.6835	0.089	147367	keystroke_t	t	n/a
73.8525	0.072	147705	keystroke_a	a	n/a
73.9725	0.096	147945	keystroke_l	l	n/a
74.0525	0.12	148105	keystroke_e	e	n/a
74.124	0.0725	148248	keystroke_Key.space	Key.space	n/a
74.2835	0.121	148567	keystroke_m	m	n/a
74.3475	0.113	148695	keystroke_o	o	n/a
74.4195	0.072	148839	keystroke_v	v	n/a
74.5165	0.1035	149033	keystroke_e	e	n/a
74.5715	0.0885	149143	keystroke_Key.space	Key.space	n/a
74.732	0.064	149464	keystroke_t	t	n/a
74.852	0.112	149704	keystroke_i	i	n/a
74.916	0.096	149832	keystroke_r	r	n/a
74.9645	0.08	149929	keystroke_e	e	n/a
75.124	0.104	150248	keystroke_d	d	n/a
75.188	0.072	150376	keystroke_Key.space	Key.space	n/a
75.42	0.104	150840	keystroke_y	y	n/a
75.4685	0.1035	150937	keystroke_o	o	n/a
75.6045	0.056	151209	keystroke_r	r	n/a
75.7085	0.111	151417	keystroke_k	k	n/a
75.804	0.08	151608	keystroke_s	s	n/a
75.9405	0.1515	151881	keystroke_h	h	n/a
76.012	0.104	152024	keystroke_i	i	n/a
76.06	0.1045	152120	keystroke_r	r	n/a
76.108	0.096	152216	keystroke_e	e	n/a
76.292	0.0965	152584	keystroke_Key.enter	Key.enter	n/a
76.395	4.243	152790	prompt	n/a	particles strategic tank hairy\n
76.925	0.103	153850	keystroke_p	p	n/a
76.9965	0.1035	153993	keystroke_a	a	n/a
77.0765	0.1035	154153	keystroke_r	r	n/a
77.2365	0.072	154473	keystroke_t	t	n/a
77.3165	0.1035	154633	keystroke_i	i	n/a
77.436	0.0965	154872	keystroke_c	c	n/a
77.596	0.1365	155192	keystroke_l	l	n/a
77.66	0.136	155320	keystroke_e	e	n/a
77.724	0.104	155448	keystroke_s	s	n/a
77.78	0.104	155560	keystroke_Key.space	Key.space	n/a
77.924	0.104	155848	keystroke_s	s	n/a
78.004	0.072	156008	keystroke_t	t	n/a
78.1565	0.0885	156313	keystroke_r	r	n/a
78.204	0.128	156408	keystroke_a	a	n/a
78.3405	0.095	156681	keystroke_t	t	n/a
78.3955	0.0805	156791	keystroke_e	e	n/a
78.5565	0.0875	157113	keystroke_g	g	n/a
78.6765	0.1445	157353	keystroke_i	i	n/a
78.821	0.111	157642	keystroke_c	c	n/a
78.868	0.12	157736	keystroke_Key.space	Key.space	n/a
79.1075	0.1045	158215	keystroke_t	t	n/a
79.18	0.096	158360	keystroke_a	a	n/a
79.284	0.176	158568	keystroke_n	n	n/a
79.364	0.12	158728	keystroke_k	k	n/a
79.492	0.096	158984	keystroke_Key.space	Key.space	n/a
79.9635	0.096	159927	keystroke_h	h	n/a
80.0525	0.087	160105	keystroke_a	a	n/a
80.1635	0.096	160327	keystroke_i	i	n/a
80.2755	0.072	160551	keystroke_r	r	n/a
80.389	0.0705	160778	keystroke_y	y	n/a
80.556	0.08	161112	keystroke_Key.enter	Key.enter	n/a
80.642	4.6115	161284	prompt	n/a	calls codes validation exceed\n
81.2285	0.08	162457	keystroke_c	c	n/a
81.4205	0.055	162841	keystroke_a	a	n/a
81.5005	0.056	163001	keystroke_l	l	n/a
81.6205	0.0715	163241	keystroke_l	l	n/a
81.66	0.104	163320	keystroke_s	s	n/a
81.74	0.072	163480	keystroke_Key.space	Key.space	n/a
81.8445	0.0875	163689	keystroke_c	c	n/a
81.964	0.104	163928	keystroke_o	o	n/a
82.028	0.072	164056	keystroke_d	d	n/a
82.188	0.1205	164376	keystroke_e	e	n/a
82.252	0.1125	164504	keystroke_s	s	n/a
82.3005	0.08	164601	keystroke_Key.space	Key.space	n/a
82.468	0.04	164936	keystroke_c	c	n/a
83.0445	0.0635	166089	keystroke_Key.backspace	Key.backspace	n/a
83.084	0.096	166168	keystroke_v	v	n/a
83.2445	0.08	166489	keystroke_a	a	n/a
83.396	0.072	166792	keystroke_l	l	n/a
83.556	0.088	167112	keystroke_i	i	n/a
83.652	0.112	167304	keystroke_d	d	n/a
83.708	0.1125	167416	keystroke_a	a	n/a
83.8525	0.1035	167705	keystroke_t	t	n/a
83.9245	0.1195	167849	keystroke_i	i	n/a
83.9795	0.1445	167959	keystroke_o	o	n/a
84.0445	0.1035	168089	keystroke_n	n	n/a
84.0915	0.0885	168183	keystroke_Key.space	Key.space	n/a
84.2115	0.08	168423	keystroke_e	e	n/a
84.38	0.08	168760	keystroke_x	x	n/a
84.564	0.064	169128	keystroke_c	c	n/a
84.708	0.0645	169416	keystroke_e	e	n/a
84.8365	0.0715	169673	keystroke_e	e	n/a
85.0115	0.081	170023	keystroke_d	d	n/a
85.1795	0.0725	170359	keystroke_Key.enter	Key.enter	n/a
85.2595	2.938	170519	prompt	n/a	horn locate on insulation\n
85.7805	0.111	171561	keystroke_h	h	n/a
85.836	0.0875	171672	keystroke_o	o	n/a
85.9315	0.0805	171863	keystroke_r	r	n/a
86.0355	0.104	172071	keystroke_n	n	n/a
86.1	0.0555	172200	keystroke_Key.space	Key.space	n/a
86.2195	0.065	172439	keystroke_l	l	n/a
86.364	0.104	172728	keystroke_o	o	n/a
86.396	0.08	172792	keystroke_c	c	n/a
86.46	0.112	172920	keystroke_a	a	n/a
86.6115	0.145	173223	keystroke_t	t	n/a
86.6595	0.136	173319	keystroke_e	e	n/a
86.7315	0.08	173463	keystroke_Key.space	Key.space	n/a
86.8275	0.152	173655	keystroke_o	o	n/a
86.9075	0.104	173815	keystroke_n	n	n/a
86.9635	0.08	173927	keystroke_Key.space	Key.space	n/a
87.0995	0.064	174199	keystroke_i	i	n/a
87.2045	0.0805	174409	keystroke_n	n	n/a
87.2995	0.0805	174599	keystroke_s	s	n/a
87.4275	0.065	174855	keystroke_u	u	n/a
87.5555	0.097	175111	keystroke_l	l	n/a
87.6435	0.064	175287	keystroke_a	a	n/a
87.724	0.1045	175448	keystroke_t	t	n/a
87.804	0.104	175608	keystroke_i	i	n/a
87.852	0.1045	175704	keystroke_o	o	n/a
87.892	0.104	175784	keystroke_n	n	n/a
88.092	0.1045	176184	keystroke_Key.enter	Key.enter	n/a
88.2	5.4945	176400	prompt	n/a	deaths gamespot ebook read\n
88.7565	0.0635	177513	keystroke_d	d	n/a
88.908	0.1195	177816	keystroke_e	e	n/a
88.9645	0.127	177929	keystroke_a	a	n/a
89.1	0.1035	178200	keystroke_t	t	n/a
89.196	0.12	178392	keystroke_h	h	n/a
89.564	0.1035	179128	keystroke_s	s	n/a
89.6195	0.1045	179239	keystroke_Key.space	Key.space	n/a
89.8525	0.095	179705	keystroke_g	g	n/a
89.9395	0.081	179879	keystroke_a	a	n/a
90.0515	0.128	180103	keystroke_m	m	n/a
90.125	0.0795	180250	keystroke_e	e	n/a
90.276	0.0965	180552	keystroke_s	s	n/a
90.3955	0.081	180791	keystroke_p	p	n/a
90.5245	0.1355	181049	keystroke_o	o	n/a
90.6205	0.0955	181241	keystroke_t	t	n/a
90.676	0.088	181352	keystroke_Key.space	Key.space	n/a
90.9005	0.0875	181801	keystroke_e	e	n/a
91.132	0.064	182264	keystroke_b	b	n/a
91.26	0.073	182520	keystroke_o	o	n/a
91.38	0.064	182760	keystroke_o	o	n/a
91.5165	0.128	183033	keystroke_k	k	n/a
91.6205	0.08	183241	keystroke_Key.space	Key.space	n/a
91.8205	0.119	183641	keystroke_r	r	n/a
91.8835	0.113	183767	keystroke_e	e	n/a
91.9565	0.088	183913	keystroke_a	a	n/a
92.076	0.104	184152	keystroke_d	d	n/a
92.876	0.088	185752	keystroke_'	'	n/a
93.38	0.056	186760	keystroke_Key.backspace	Key.backspace	n/a
93.604	0.088	187208	keystroke_Key.enter	Key.enter	n/a
93.6975	3.156	187395	prompt	n/a	nose muscle adopt harper\n
94.3085	0.1435	188617	keystroke_n	n	n/a
94.388	0.136	188776	keystroke_o	o	n/a
94.46	0.1045	188920	keystroke_s	s	n/a
94.525	0.095	189050	keystroke_e	e	n/a
94.588	0.056	189176	keystroke_Key.space	Key.space	n/a
94.676	0.072	189352	keystroke_m	m	n/a
94.8525	0.096	189705	keystroke_u	u	n/a
94.9165	0.055	189833	keystroke_s	s	n/a
95.0205	0.1045	190041	keystroke_c	c	n/a
95.1255	0.143	190251	keystroke_l	l	n/a
95.205	0.0875	190410	keystroke_e	e	n/a
95.284	0.0715	190568	keystroke_Key.space	Key.space	n/a
95.4045	0.0805	190809	keystroke_a	a	n/a
95.5245	0.088	191049	keystroke_d	d	n/a
95.6285	0.127	191257	keystroke_o	o	n/a
95.8445	0.0795	191689	keystroke_p	p	n/a
95.9485	0.104	191897	keystroke_t	t	n/a
96.004	0.0805	192008	keystroke_Key.space	Key.space	n/a
96.1805	0.096	192361	keystroke_h	h	n/a
96.2445	0.08	192489	keystroke_a	a	n/a
96.3005	0.088	192601	keystroke_r	r	n/a
96.4525	0.104	192905	keystroke_p	p	n/a
96.5085	0.128	193017	keystroke_e	e	n/a
96.5885	0.0795	193177	keystroke_r	r	n/a
96.7715	0.081	193543	keystroke_Key.enter	Key.enter	n/a
96.8565	3.206	193713	prompt	n/a	nomination kits file investor\n
97.3245	0.079	194649	keystroke_n	n	n/a
97.4525	0.08	194905	keystroke_o	o	n/a
97.5715	0.1045	195143	keystroke_m	m	n/a
97.6675	0.025	195335	keystroke_i	i	n/a
97.7475	0.104	195495	keystroke_n	n	n/a
97.8445	0.1035	195689	keystroke_a	a	n/a
97.9235	0.096	195847	keystroke_t	t	n/a
98.0115	0.064	196023	keystroke_i	i	n/a
98.052	0.113	196104	keystroke_o	o	n/a
98.068	0.145	196136	keystroke_n	n	n/a
98.1805	0.056	196361	keystroke_Key.space	Key.space	n/a
98.316	0.057	196632	keystroke_k	k	n/a
98.452	0.096	196904	keystroke_i	i	n/a
98.54	0.1285	197080	keystroke_t	t	n/a
98.6045	0.12	197209	keystroke_s	s	n/a
98.6765	0.064	197353	keystroke_Key.space	Key.space	n/a
98.8045	0.088	197609	keystroke_f	f	n/a
98.8685	0.088	197737	keystroke_i	i	n/a
98.9645	0.088	197929	keystroke_l	l	n/a
99.0205	0.08	198041	keystroke_e	e	n/a
99.0605	0.064	198121	keystroke_Key.space	Key.space	n/a
99.1565	0.032	198313	keystroke_i	i	n/a
99.2285	0.144	198457	keystroke_n	n	n/a
99.3005	0.08	198601	keystroke_v	v	n/a
99.413	0.1275	198826	keystroke_e	e	n/a
99.5165	0.12	199033	keystroke_s	s	n/a
99.6055	0.071	199211	keystroke_t	t	n/a
99.7405	0.08	199481	keystroke_o	o	n/a
99.8045	0.08	199609	keystroke_r	r	n/a
99.9645	0.0955	199929	keystroke_Key.enter	Key.enter	n/a
100.066	3.94	200132	prompt	n/a	marking colonial penny meant\n
100.6765	0.104	201353	keystroke_m	m	n/a
100.7725	0.072	201545	keystroke_a	a	n/a
100.8285	0.112	201657	keystroke_r	r	n/a
100.9085	0.064	201817	keystroke_k	k	n/a
101.0445	0.064	202089	keystroke_i	i	n/a
101.1165	0.1435	202233	keystroke_n	n	n/a
101.1725	0.0965	202345	keystroke_g	g	n/a
101.22	0.088	202440	keystroke_Key.space	Key.space	n/a
101.388	0.1125	202776	keystroke_c	c	n/a
101.4605	0.048	202921	keystroke_o	o	n/a
101.6205	0.056	203241	keystroke_l	l	n/a
101.7405	0.064	203481	keystroke_o	o	n/a
101.821	0.1355	203642	keystroke_n	n	n/a
101.9005	0.0955	203801	keystroke_i	i	n/a
102.06	0.048	204120	keystroke_a	a	n/a
102.1245	0.0955	204249	keystroke_l	l	n/a
102.204	0.1045	204408	keystroke_Key.space	Key.space	n/a
102.341	0.1035	204682	keystroke_p	p	n/a
102.4925	0.056	204985	keystroke_e	e	n/a
102.5885	0.064	205177	keystroke_n	n	n/a
102.7085	0.056	205417	keystroke_n	n	n/a
102.9085	0.0635	205817	keystroke_y	y	n/a
103.188	0.056	206376	keystroke_Key.space	Key.space	n/a
103.3245	0.12	206649	keystroke_m	m	n/a
103.4525	0.1525	206905	keystroke_e	e	n/a
103.557	0.119	207114	keystroke_a	a	n/a
103.685	0.079	207370	keystroke_n	n	n/a
103.8045	0.0725	207609	keystroke_t	t	n/a
103.893	0.111	207786	keystroke_Key.enter	Key.enter	n/a
104.009	5.677	208018	prompt	n/a	historical brisbane hawaiian pest\n
104.6125	0.128	209225	keystroke_h	h	n/a
104.6845	0.072	209369	keystroke_i	i	n/a
104.7325	0.096	209465	keystroke_s	s	n/a
104.8045	0.072	209609	keystroke_t	t	n/a
104.8845	0.104	209769	keystroke_o	o	n/a
104.973	0.0635	209946	keystroke_r	r	n/a
105.0685	0.096	210137	keystroke_i	i	n/a
105.1645	0.1205	210329	keystroke_c	c	n/a
105.2685	0.064	210537	keystroke_a	a	n/a
105.3405	0.104	210681	keystroke_l	l	n/a
105.4125	0.0875	210825	keystroke_Key.space	Key.space	n/a
105.6205	0.056	211241	keystroke_b	b	n/a
105.9155	0.081	211831	keystroke_r	r	n/a
106.0605	0.12	212121	keystroke_i	i	n/a
106.1725	0.064	212345	keystroke_s	s	n/a
106.3245	0.095	212649	keystroke_b	b	n/a
106.4275	0.049	212855	keystroke_a	a	n/a
106.5645	0.1515	213129	keystroke_n	n	n/a
106.636	0.112	213272	keystroke_e	e	n/a
106.708	0.088	213416	keystroke_Key.space	Key.space	n/a
107.268	0.072	214536	keystroke_h	h	n/a
107.5085	0.088	215017	keystroke_a	a	n/a
107.7085	0.0795	215417	keystroke_w	w	n/a
107.9885	0.088	215977	keystroke_a	a	n/a
108.517	0.055	217034	keystroke_i	i	n/a
108.636	0.089	217272	keystroke_i	i	n/a
108.781	0.072	217562	keystroke_a	a	n/a
108.8765	0.128	217753	keystroke_n	n	n/a
108.972	0.08	217944	keystroke_Key.space	Key.space	n/a
109.157	0.111	218314	keystroke_p	p	n/a
109.244	0.113	218488	keystroke_e	e	n/a
109.372	0.121	218744	keystroke_s	s	n/a
109.453	0.088	218906	keystroke_t	t	n/a
109.588	0.096	219176	keystroke_Key.enter	Key.enter	n/a
109.701	4.4895	219402	prompt	n/a	bowl cursor office frontier\n
110.188	0.048	220376	keystroke_h	h	n/a
110.492	0.064	220984	keystroke_Key.backspace	Key.backspace	n/a
110.541	0.0635	221082	keystroke_b	b	n/a
110.692	0.065	221384	keystroke_o	o	n/a
110.797	0.071	221594	keystroke_w	w	n/a
110.8765	0.096	221753	keystroke_l	l	n/a
110.9805	0.08	221961	keystroke_Key.space	Key.space	n/a
111.2445	0.104	222489	keystroke_c	c	n/a
111.3485	0.072	222697	keystroke_u	u	n/a
111.5645	0.088	223129	keystroke_r	r	n/a
111.7005	0.096	223401	keystroke_s	s	n/a
111.8685	0.12	223737	keystroke_o	o	n/a
111.9645	0.1195	223929	keystroke_r	r	n/a
112.068	0.08	224136	keystroke_Key.space	Key.space	n/a
112.3405	0.08	224681	keystroke_o	o	n/a
112.4125	0.0715	224825	keystroke_f	f	n/a
112.5645	0.0565	225129	keystroke_f	f	n/a
112.669	0.1435	225338	keystroke_i	i	n/a
112.732	0.1045	225464	keystroke_c	c	n/a
112.8125	0.104	225625	keystroke_e	e	n/a
112.8605	0.079	225721	keystroke_Key.space	Key.space	n/a
113.2045	0.08	226409	keystroke_f	f	n/a
113.3805	0.1045	226761	keystroke_r	r	n/a
113.4685	0.1195	226937	keystroke_o	o	n/a
113.556	0.1195	227112	keystroke_n	n	n/a
113.6525	0.087	227305	keystroke_t	t	n/a
113.7725	0.152	227545	keystroke_i	i	n/a
113.8685	0.128	227737	keystroke_e	e	n/a
113.9165	0.096	227833	keystroke_r	r	n/a
114.0845	0.104	228169	keystroke_Key.enter	Key.enter	n/a
114.1945	4.981	228389	prompt	n/a	naturals expanded arab nervous\n
114.7805	0.08	229561	keystroke_n	n	n/a
114.8685	0.112	229737	keystroke_a	a	n/a
114.9565	0.08	229913	keystroke_t	t	n/a
115.0525	0.088	230105	keystroke_u	u	n/a
115.1485	0.0955	230297	keystroke_r	r	n/a
115.268	0.128	230536	keystroke_l	l	n/a
115.668	0.064	231336	keystroke_Key.backspace	Key.backspace	n/a
115.765	0.0795	231530	keystroke_a	a	n/a
115.868	0.1365	231736	keystroke_l	l	n/a
115.957	0.112	231914	keystroke_s	s	n/a
116.02	0.08	232040	keystroke_Key.space	Key.space	n/a
116.2365	0.0565	232473	keystroke_e	e	n/a
116.412	0.1205	232824	keystroke_x	x	n/a
116.749	0.104	233498	keystroke_p	p	n/a
116.884	0.072	233768	keystroke_a	a	n/a
116.988	0.112	233976	keystroke_n	n	n/a
117.068	0.08	234136	keystroke_d	d	n/a
117.237	0.048	234474	keystroke_e	e	n/a
117.3725	0.0875	234745	keystroke_d	d	n/a
117.436	0.072	234872	keystroke_Key.space	Key.space	n/a
117.557	0.104	235114	keystroke_a	a	n/a
117.644	0.073	235288	keystroke_r	r	n/a
117.781	0.12	235562	keystroke_a	a	n/a
117.9325	0.088	235865	keystroke_b	b	n/a
118.1645	0.0715	236329	keystroke_Key.space	Key.space	n/a
118.34	0.0885	236680	keystroke_n	n	n/a
118.404	0.104	236808	keystroke_e	e	n/a
118.476	0.057	236952	keystroke_r	r	n/a
118.6285	0.0795	237257	keystroke_v	v	n/a
118.716	0.088	237432	keystroke_o	o	n/a
118.764	0.112	237528	keystroke_u	u	n/a
118.9005	0.0715	237801	keystroke_s	s	n/a
119.076	0.096	238152	keystroke_Key.enter	Key.enter	n/a
119.18	4.571	238360	prompt	n/a	patent chapter periods bankruptcy\n
119.717	0.1115	239434	keystroke_p	p	n/a
119.885	0.104	239770	keystroke_a	a	n/a
120.06	0.0725	240120	keystroke_t	t	n/a
120.14	0.1045	240280	keystroke_e	e	n/a
120.2925	0.1045	240585	keystroke_n	n	n/a
120.3325	0.08	240665	keystroke_t	t	n/a
120.397	0.0715	240794	keystroke_Key.space	Key.space	n/a
120.5565	0.088	241113	keystroke_c	c	n/a
120.652	0.096	241304	keystroke_h	h	n/a
120.756	0.0885	241512	keystroke_a	a	n/a
120.884	0.089	241768	keystroke_p	p	n/a
120.924	0.072	241848	keystroke_t	t	n/a
121.052	0.16	242104	keystroke_e	e	n/a
121.124	0.128	242248	keystroke_r	r	n/a
121.22	0.072	242440	keystroke_Key.space	Key.space	n/a
121.4605	0.096	242921	keystroke_p	p	n/a
121.5725	0.104	243145	keystroke_e	e	n/a
121.6445	0.08	243289	keystroke_r	r	n/a
121.7485	0.168	243497	keystroke_i	i	n/a
121.8285	0.1445	243657	keystroke_o	o	n/a
121.9085	0.136	243817	keystroke_d	d	n/a
121.9645	0.1195	243929	keystroke_s	s	n/a
122.06	0.04	244120	keystroke_Key.space	Key.space	n/a
122.204	0.08	244408	keystroke_b	b	n/a
122.2925	0.0715	244585	keystroke_a	a	n/a
122.356	0.1685	244712	keystroke_n	n	n/a
122.516	0.1125	245032	keystroke_k	k	n/a
122.6685	0.072	245337	keystroke_r	r	n/a
122.796	0.1365	245592	keystroke_u	u	n/a
122.901	0.0635	245802	keystroke_p	p	n/a
123.1485	0.0795	246297	keystroke_t	t	n/a
123.3635	0.073	246727	keystroke_c	c	n/a
123.4605	0.064	246921	keystroke_y	y	n/a
123.668	0.0805	247336	keystroke_Key.enter	Key.enter	n/a
123.756	4.8505	247512	prompt	n/a	particularly case firewire dishes\n
124.188	0.1125	248376	keystroke_p	p	n/a
124.268	0.064	248536	keystroke_a	a	n/a
124.3725	0.0645	248745	keystroke_r	r	n/a
124.7005	0.088	249401	keystroke_t	t	n/a
124.8285	0.096	249657	keystroke_i	i	n/a
124.9405	0.072	249881	keystroke_c	c	n/a
125.0285	0.064	250057	keystroke_u	u	n/a
125.1725	0.104	250345	keystroke_l	l	n/a
125.3005	0.088	250601	keystroke_a	a	n/a
125.3565	0.104	250713	keystroke_r	r	n/a
125.4845	0.064	250969	keystroke_l	l	n/a
125.621	0.1275	251242	keystroke_y	y	n/a
125.7085	0.096	251417	keystroke_Key.space	Key.space	n/a
125.829	0.1275	251658	keystroke_c	c	n/a
125.901	0.168	251802	keystroke_a	a	n/a
125.9725	0.144	251945	keystroke_s	s	n/a
126.052	0.121	252104	keystroke_e	e	n/a
126.148	0.065	252296	keystroke_Key.space	Key.space	n/a
126.269	0.064	252538	keystroke_f	f	n/a
126.42	0.096	252840	keystroke_i	i	n/a
126.62	0.152	253240	keystroke_r	r	n/a
126.6925	0.12	253385	keystroke_e	e	n/a
126.9405	0.0875	253881	keystroke_w	w	n/a
127.148	0.088	254296	keystroke_i	i	n/a
127.4845	0.136	254969	keystroke_r	r	n/a
127.5325	0.112	255065	keystroke_e	e	n/a
127.6285	0.08	255257	keystroke_Key.space	Key.space	n/a
127.8285	0.064	255657	keystroke_d	d	n/a
127.9245	0.0885	255849	keystroke_i	i	n/a
128.053	0.095	256106	keystroke_s	s	n/a
128.196	0.1045	256392	keystroke_h	h	n/a
128.268	0.121	256536	keystroke_e	e	n/a
128.3485	0.104	256697	keystroke_s	s	n/a
128.5085	0.096	257017	keystroke_Key.enter	Key.enter	n/a
128.6115	5.5785	257223	prompt	n/a	automobiles kentucky implementation austin\n
129.2045	0.064	258409	keystroke_a	a	n/a
129.324	0.0885	258648	keystroke_u	u	n/a
129.436	0.0805	258872	keystroke_t	t	n/a
129.5005	0.08	259001	keystroke_o	o	n/a
129.652	0.0965	259304	keystroke_m	m	n/a
129.9005	0.0725	259801	keystroke_o	o	n/a
130.0285	0.0885	260057	keystroke_b	b	n/a
130.172	0.08	260344	keystroke_i	i	n/a
130.325	0.127	260650	keystroke_l	l	n/a
130.421	0.183	260842	keystroke_e	e	n/a
130.508	0.1275	261016	keystroke_s	s	n/a
130.596	0.0645	261192	keystroke_Key.space	Key.space	n/a
130.7235	0.081	261447	keystroke_k	k	n/a
130.837	0.0635	261674	keystroke_e	e	n/a
130.9725	0.063	261945	keystroke_n	n	n/a
131.093	0.0875	262186	keystroke_t	t	n/a
131.2045	0.088	262409	keystroke_u	u	n/a
131.3245	0.12	262649	keystroke_c	c	n/a
131.404	0.081	262808	keystroke_k	k	n/a
131.5805	0.0955	263161	keystroke_y	y	n/a
131.6605	0.104	263321	keystroke_Key.space	Key.space	n/a
131.8045	0.0725	263609	keystroke_i	i	n/a
131.9485	0.12	263897	keystroke_m	m	n/a
132.0365	0.088	264073	keystroke_p	p	n/a
132.2525	0.1125	264505	keystroke_l	l	n/a
132.381	0.0875	264762	keystroke_e	e	n/a
132.5245	0.088	265049	keystroke_m	m	n/a
132.604	0.1045	265208	keystroke_e	e	n/a
132.7165	0.096	265433	keystroke_n	n	n/a
132.82	0.096	265640	keystroke_t	t	n/a
132.901	0.119	265802	keystroke_a	a	n/a
132.9885	0.0955	265977	keystroke_t	t	n/a
133.076	0.112	266152	keystroke_i	i	n/a
133.125	0.127	266250	keystroke_o	o	n/a
133.164	0.1285	266328	keystroke_n	n	n/a
133.2445	0.088	266489	keystroke_Key.space	Key.space	n/a
133.4205	0.0805	266841	keystroke_a	a	n/a
133.5245	0.088	267049	keystroke_u	u	n/a
133.628	0.1445	267256	keystroke_s	s	n/a
133.741	0.0875	267482	keystroke_t	t	n/a
133.82	0.08	267640	keystroke_i	i	n/a
133.8925	0.0965	267785	keystroke_n	n	n/a
134.1085	0.08	268217	keystroke_Key.enter	Key.enter	n/a
134.1965	6.0175	268393	prompt	n/a	marketing reveals georgia pull\n
134.7325	0.1045	269465	keystroke_m	m	n/a
134.8045	0.0965	269609	keystroke_a	a	n/a
134.8925	0.064	269785	keystroke_r	r	n/a
134.9715	0.105	269943	keystroke_k	k	n/a
135.0445	0.0965	270089	keystroke_e	e	n/a
135.1645	0.088	270329	keystroke_t	t	n/a
135.1725	0.016	270345	keystroke_e	e	n/a
135.324	0.184	270648	keystroke_n	n	n/a
135.4835	0.072	270967	keystroke_g	g	n/a
135.5395	0.08	271079	keystroke_Key.space	Key.space	n/a
135.868	0.0565	271736	keystroke_Key.backspace	Key.backspace	n/a
135.964	0.0555	271928	keystroke_Key.backspace	Key.backspace	n/a
136.068	0.056	272136	keystroke_Key.backspace	Key.backspace	n/a
136.196	0.04	272392	keystroke_Key.backspace	Key.backspace	n/a
136.3965	0.0555	272793	keystroke_i	i	n/a
136.4685	0.1515	272937	keystroke_n	n	n/a
136.5565	0.096	273113	keystroke_g	g	n/a
136.636	0.0725	273272	keystroke_Key.space	Key.space	n/a
136.804	0.0805	273608	keystroke_r	r	n/a
136.8605	0.0635	273721	keystroke_e	e	n/a
137.004	0.0805	274008	keystroke_v	v	n/a
137.108	0.136	274216	keystroke_e	e	n/a
137.228	0.096	274456	keystroke_a	a	n/a
137.372	0.137	274744	keystroke_l	l	n/a
137.46	0.12	274920	keystroke_s	s	n/a
137.548	0.064	275096	keystroke_Key.space	Key.space	n/a
137.66	0.072	275320	keystroke_r	r	n/a
137.988	0.08	275976	keystroke_g	g	n/a
138.228	0.048	276456	keystroke_Key.backspace	Key.backspace	n/a
138.3555	0.04	276711	keystroke_Key.backspace	Key.backspace	n/a
138.397	0.0785	276794	keystroke_g	g	n/a
138.597	0.023	277194	keystroke_e	e	n/a
138.876	0.096	277752	keystroke_o	o	n/a
139.004	0.056	278008	keystroke_r	r	n/a
139.1485	0.112	278297	keystroke_g	g	n/a
139.308	0.1365	278616	keystroke_i	i	n/a
139.397	0.1115	278794	keystroke_a	a	n/a
139.4755	0.08	278951	keystroke_Key.space	Key.space	n/a
139.5955	0.0895	279191	keystroke_p	p	n/a
139.668	0.0805	279336	keystroke_u	u	n/a
139.8445	0.0555	279689	keystroke_l	l	n/a
139.948	0.08	279896	keystroke_l	l	n/a
140.124	0.088	280248	keystroke_Key.enter	Key.enter	n/a
140.2185	3.932	280437	prompt	n/a	baby points think nobody\n
140.7475	0.057	281495	keystroke_b	b	n/a
140.8445	0.12	281689	keystroke_a	a	n/a
140.9245	0.064	281849	keystroke_b	b	n/a
141.084	0.112	282168	keystroke_y	y	n/a
141.148	0.088	282296	keystroke_Key.space	Key.space	n/a
141.2765	0.1275	282553	keystroke_p	p	n/a
141.3805	0.1995	282761	keystroke_o	o	n/a
141.468	0.08	282936	keystroke_i	i	n/a
141.652	0.1445	283304	keystroke_t	t	n/a
141.732	0.0885	283464	keystroke_s	s	n/a
142.0125	0.048	284025	keystroke_Key.backspace	Key.backspace	n/a
142.116	0.064	284232	keystroke_Key.backspace	Key.backspace	n/a
142.3005	0.1595	284601	keystroke_n	n	n/a
142.3885	0.152	284777	keystroke_t	t	n/a
142.4525	0.1355	284905	keystroke_s	s	n/a
142.5075	0.096	285015	keystroke_Key.space	Key.space	n/a
142.748	0.089	285496	keystroke_t	t	n/a
142.804	0.1205	285608	keystroke_h	h	n/a
142.86	0.0725	285720	keystroke_i	i	n/a
143.0045	0.1595	286009	keystroke_n	n	n/a
143.052	0.1205	286104	keystroke_k	k	n/a
143.148	0.0725	286296	keystroke_Key.space	Key.space	n/a
143.276	0.096	286552	keystroke_n	n	n/a
143.46	0.088	286920	keystroke_o	o	n/a
143.556	0.0805	287112	keystroke_b	b	n/a
143.668	0.1045	287336	keystroke_o	o	n/a
143.7645	0.072	287529	keystroke_d	d	n/a
143.8845	0.072	287769	keystroke_y	y	n/a
144.0595	0.088	288119	keystroke_Key.enter	Key.enter	n/a
144.154	4.572	288308	prompt	n/a	discount natural forward arranged\n
144.676	0.105	289352	keystroke_d	d	n/a
145.0835	0.081	290167	keystroke_i	i	n/a
145.1795	0.0805	290359	keystroke_s	s	n/a
145.3005	0.1035	290601	keystroke_c	c	n/a
145.4125	0.103	290825	keystroke_o	o	n/a
145.4675	0.072	290935	keystroke_u	u	n/a
145.6525	0.135	291305	keystroke_n	n	n/a
145.7235	0.097	291447	keystroke_t	t	n/a
145.7955	0.0805	291591	keystroke_Key.space	Key.space	n/a
146.004	0.096	292008	keystroke_n	n	n/a
146.0845	0.103	292169	keystroke_a	a	n/a
146.1635	0.0725	292327	keystroke_t	t	n/a
146.284	0.096	292568	keystroke_u	u	n/a
146.3565	0.128	292713	keystroke_r	r	n/a
146.428	0.1125	292856	keystroke_a	a	n/a
146.4925	0.1355	292985	keystroke_l	l	n/a
146.6125	0.0715	293225	keystroke_Key.space	Key.space	n/a
146.772	0.065	293544	keystroke_f	f	n/a
146.868	0.1285	293736	keystroke_o	o	n/a
147.012	0.072	294024	keystroke_r	r	n/a
147.172	0.088	294344	keystroke_w	w	n/a
147.253	0.127	294506	keystroke_a	a	n/a
147.364	0.08	294728	keystroke_r	r	n/a
147.524	0.1125	295048	keystroke_d	d	n/a
147.612	0.064	295224	keystroke_Key.space	Key.space	n/a
147.7725	0.08	295545	keystroke_a	a	n/a
147.8925	0.064	295785	keystroke_r	r	n/a
148.0045	0.08	296009	keystroke_r	r	n/a
148.1245	0.112	296249	keystroke_a	a	n/a
148.2285	0.1195	296457	keystroke_n	n	n/a
148.2925	0.08	296585	keystroke_g	g	n/a
148.332	0.08	296664	keystroke_e	e	n/a
148.5	0.072	297000	keystroke_d	d	n/a
148.6445	0.0795	297289	keystroke_Key.enter	Key.enter	n/a
148.73	6.7085	297460	prompt	n/a	benefits furnishings kenya alter\n
149.3485	0.072	298697	keystroke_e	e	n/a
149.6595	0.0725	299319	keystroke_Key.backspace	Key.backspace	n/a
149.7085	0.064	299417	keystroke_b	b	n/a
149.8675	0.072	299735	keystroke_e	e	n/a
149.9405	0.1035	299881	keystroke_n	n	n/a
150.0205	0.087	300041	keystroke_e	e	n/a
150.1235	0.0805	300247	keystroke_f	f	n/a
150.2605	0.144	300521	keystroke_i	i	n/a
150.3315	0.1365	300663	keystroke_t	t	n/a
150.3885	0.12	300777	keystroke_s	s	n/a
150.4755	0.0565	300951	keystroke_Key.space	Key.space	n/a
150.732	0.089	301464	keystroke_f	f	n/a
150.884	0.1035	301768	keystroke_u	u	n/a
150.9805	0.0795	301961	keystroke_r	r	n/a
151.132	0.128	302264	keystroke_n	n	n/a
151.2365	0.056	302473	keystroke_i	i	n/a
151.3075	0.089	302615	keystroke_s	s	n/a
151.3875	0.105	302775	keystroke_h	h	n/a
151.4675	0.0565	302935	keystroke_i	i	n/a
151.596	0.136	303192	keystroke_n	n	n/a
151.652	0.096	303304	keystroke_g	g	n/a
151.716	0.072	303432	keystroke_Key.space	Key.space	n/a
152.628	0.0805	305256	keystroke_Key.backspace	Key.backspace	n/a
152.7005	0.111	305401	keystroke_s	s	n/a
152.7715	0.072	305543	keystroke_Key.space	Key.space	n/a
152.9	0.1115	305800	keystroke_k	k	n/a
153.0035	0.0725	306007	keystroke_e	e	n/a
153.1405	0.064	306281	keystroke_y	y	n/a
153.332	0.12	306664	keystroke_n	n	n/a
153.484	0.1125	306968	keystroke_a	a	n/a
153.556	0.0875	307112	keystroke_Key.space	Key.space	n/a
153.7965	0.048	307593	keystroke_Key.backspace	Key.backspace	n/a
153.8915	0.049	307783	keystroke_Key.backspace	Key.backspace	n/a
153.988	0.056	307976	keystroke_Key.backspace	Key.backspace	n/a
154.1	0.0565	308200	keystroke_Key.backspace	Key.backspace	n/a
154.26	0.08	308520	keystroke_n	n	n/a
154.4765	0.1435	308953	keystroke_y	y	n/a
154.556	0.1365	309112	keystroke_a	a	n/a
154.636	0.072	309272	keystroke_Key.space	Key.space	n/a
154.82	0.1045	309640	keystroke_a	a	n/a
154.9165	0.119	309833	keystroke_l	l	n/a
155.0285	0.055	310057	keystroke_t	t	n/a
155.132	0.128	310264	keystroke_e	e	n/a
155.2125	0.0875	310425	keystroke_r	r	n/a
155.348	0.088	310696	keystroke_Key.enter	Key.enter	n/a
155.443	7.1865	310886	prompt	n/a	precisely popularity represented description\n
156.0685	0.12	312137	keystroke_p	p	n/a
156.1405	0.104	312281	keystroke_r	r	n/a
156.2045	0.0955	312409	keystroke_e	e	n/a
156.388	0.0795	312776	keystroke_c	c	n/a
156.484	0.1285	312968	keystroke_i	i	n/a
156.5645	0.1125	313129	keystroke_s	s	n/a
156.6365	0.112	313273	keystroke_e	e	n/a
156.8045	0.072	313609	keystroke_l	l	n/a
156.9565	0.12	313913	keystroke_y	y	n/a
157.0445	0.088	314089	keystroke_Key.space	Key.space	n/a
157.204	0.08	314408	keystroke_p	p	n/a
157.332	0.112	314664	keystroke_o	o	n/a
157.404	0.064	314808	keystroke_p	p	n/a
157.492	0.096	314984	keystroke_u	u	n/a
157.6365	0.079	315273	keystroke_a	a	n/a
157.7235	0.12	315447	keystroke_l	l	n/a
158.036	0.048	316072	keystroke_Key.backspace	Key.backspace	n/a
158.4845	0.056	316969	keystroke_Key.backspace	Key.backspace	n/a
158.6845	0.096	317369	keystroke_l	l	n/a
158.7485	0.128	317497	keystroke_a	a	n/a
158.844	0.088	317688	keystroke_r	r	n/a
158.94	0.112	317880	keystroke_i	i	n/a
159.0845	0.128	318169	keystroke_t	t	n/a
159.2125	0.1195	318425	keystroke_y	y	n/a
159.276	0.096	318552	keystroke_Key.space	Key.space	n/a
159.5005	0.1035	319001	keystroke_r	r	n/a
159.54	0.104	319080	keystroke_e	e	n/a
159.684	0.112	319368	keystroke_p	p	n/a
159.764	0.096	319528	keystroke_r	r	n/a
159.82	0.096	319640	keystroke_e	e	n/a
159.9	0.1275	319800	keystroke_s	s	n/a
159.9795	0.096	319959	keystroke_e	e	n/a
160.0835	0.1365	320167	keystroke_n	n	n/a
160.1805	0.0955	320361	keystroke_t	t	n/a
160.229	0.071	320458	keystroke_e	e	n/a
160.396	0.0885	320792	keystroke_d	d	n/a
160.444	0.072	320888	keystroke_Key.space	Key.space	n/a
160.668	0.0475	321336	keystroke_d	d	n/a
160.8195	0.113	321639	keystroke_e	e	n/a
160.9085	0.1275	321817	keystroke_s	s	n/a
161.0205	0.0715	322041	keystroke_c	c	n/a
161.2035	0.081	322407	keystroke_r	r	n/a
161.3005	0.1195	322601	keystroke_i	i	n/a
161.564	0.112	323128	keystroke_p	p	n/a
161.724	0.0565	323448	keystroke_t	t	n/a
161.836	0.128	323672	keystroke_i	i	n/a
161.884	0.1525	323768	keystroke_o	o	n/a
161.956	0.096	323912	keystroke_n	n	n/a
162.524	0.104	325048	keystroke_Key.enter	Key.enter	n/a
162.6345	5.3155	325269	prompt	n/a	mind argument issues sand\n
163.2205	0.087	326441	keystroke_m	m	n/a
163.324	0.0405	326648	keystroke_i	i	n/a
163.5555	0.104	327111	keystroke_n	n	n/a
163.6275	0.088	327255	keystroke_d	d	n/a
163.6915	0.088	327383	keystroke_Key.space	Key.space	n/a
163.876	0.128	327752	keystroke_a	a	n/a
164.012	0.0725	328024	keystroke_r	r	n/a
164.172	0.0725	328344	keystroke_g	g	n/a
164.2765	0.056	328553	keystroke_u	u	n/a
164.4365	0.0875	328873	keystroke_m	m	n/a
164.5075	0.1365	329015	keystroke_e	e	n/a
164.6125	0.1195	329225	keystroke_n	n	n/a
164.628	0.12	329256	keystroke_t	t	n/a
164.716	0.064	329432	keystroke_Key.space	Key.space	n/a
164.844	0.072	329688	keystroke_i	i	n/a
164.932	0.088	329864	keystroke_s	s	n/a
165.044	0.096	330088	keystroke_s	s	n/a
165.348	0.072	330696	keystroke_s	s	n/a
165.548	0.088	331096	keystroke_u	u	n/a
165.612	0.136	331224	keystroke_e	e	n/a
165.6675	0.1285	331335	keystroke_s	s	n/a
165.74	0.064	331480	keystroke_Key.space	Key.space	n/a
166.2435	0.056	332487	keystroke_Key.backspace	Key.backspace	n/a
166.3395	0.048	332679	keystroke_Key.backspace	Key.backspace	n/a
166.4515	0.056	332903	keystroke_Key.backspace	Key.backspace	n/a
166.5555	0.056	333111	keystroke_Key.backspace	Key.backspace	n/a
166.6595	0.08	333319	keystroke_Key.backspace	Key.backspace	n/a
166.8915	0.096	333783	keystroke_u	u	n/a
166.9565	0.152	333913	keystroke_e	e	n/a
167.0205	0.112	334041	keystroke_s	s	n/a
167.0915	0.072	334183	keystroke_Key.space	Key.space	n/a
167.468	0.128	334936	keystroke_s	s	n/a
167.58	0.08	335160	keystroke_a	a	n/a
167.6515	0.081	335303	keystroke_n	n	n/a
167.7395	0.072	335479	keystroke_d	d	n/a
167.8835	0.064	335767	keystroke_Key.enter	Key.enter	n/a
167.954	3.5245	335908	prompt	n/a	block herb tried queries\n
168.4915	0.0805	336983	keystroke_b	b	n/a
168.62	0.0555	337240	keystroke_l	l	n/a
168.748	0.0715	337496	keystroke_o	o	n/a
168.8525	0.0635	337705	keystroke_c	c	n/a
168.9075	0.113	337815	keystroke_k	k	n/a
168.964	0.096	337928	keystroke_Key.space	Key.space	n/a
169.1645	0.111	338329	keystroke_h	h	n/a
169.2355	0.112	338471	keystroke_e	e	n/a
169.292	0.0805	338584	keystroke_r	r	n/a
169.4675	0.112	338935	keystroke_b	b	n/a
169.5955	0.0805	339191	keystroke_Key.space	Key.space	n/a
169.764	0.072	339528	keystroke_t	t	n/a
169.94	0.072	339880	keystroke_r	r	n/a
170.044	0.1365	340088	keystroke_i	i	n/a
170.1005	0.0645	340201	keystroke_e	e	n/a
170.236	0.1035	340472	keystroke_d	d	n/a
170.3075	0.072	340615	keystroke_Key.space	Key.space	n/a
170.5715	0.08	341143	keystroke_q	q	n/a
170.7075	0.089	341415	keystroke_u	u	n/a
170.78	0.1205	341560	keystroke_e	e	n/a
170.8835	0.089	341767	keystroke_r	r	n/a
171.0605	0.112	342121	keystroke_i	i	n/a
171.14	0.16	342280	keystroke_e	e	n/a
171.228	0.1285	342456	keystroke_s	s	n/a
171.38	0.096	342760	keystroke_Key.enter	Key.enter	n/a
171.4845	4.6255	342969	prompt	n/a	intro button categories amsterdam\n
172.044	0.072	344088	keystroke_i	i	n/a
172.172	0.12	344344	keystroke_n	n	n/a
172.244	0.0635	344488	keystroke_t	t	n/a
172.4205	0.0715	344841	keystroke_r	r	n/a
172.492	0.128	344984	keystroke_o	o	n/a
172.5475	0.1035	345095	keystroke_Key.space	Key.space	n/a
172.7245	0.0705	345449	keystroke_b	b	n/a
172.836	0.08	345672	keystroke_u	u	n/a
172.956	0.056	345912	keystroke_t	t	n/a
173.076	0.088	346152	keystroke_t	t	n/a
173.156	0.144	346312	keystroke_o	o	n/a
173.2365	0.103	346473	keystroke_n	n	n/a
173.275	0.089	346550	keystroke_Key.space	Key.space	n/a
173.483	0.113	346966	keystroke_c	c	n/a
173.5875	0.0885	347175	keystroke_a	a	n/a
173.74	0.072	347480	keystroke_t	t	n/a
173.804	0.0885	347608	keystroke_e	e	n/a
173.956	0.0715	347912	keystroke_g	g	n/a
174.084	0.104	348168	keystroke_o	o	n/a
174.164	0.0805	348328	keystroke_r	r	n/a
174.2845	0.151	348569	keystroke_i	i	n/a
174.3475	0.1445	348695	keystroke_e	e	n/a
174.4205	0.1045	348841	keystroke_s	s	n/a
174.4675	0.0805	348935	keystroke_Key.space	Key.space	n/a
174.6915	0.081	349383	keystroke_a	a	n/a
174.8045	0.103	349609	keystroke_m	m	n/a
175.044	0.1125	350088	keystroke_s	s	n/a
175.228	0.0635	350456	keystroke_t	t	n/a
175.3075	0.137	350615	keystroke_e	e	n/a
175.4125	0.064	350825	keystroke_r	r	n/a
175.5875	0.176	351175	keystroke_d	d	n/a
175.7075	0.1045	351415	keystroke_a	a	n/a
175.8515	0.064	351703	keystroke_m	m	n/a
176.0045	0.103	352009	keystroke_Key.enter	Key.enter	n/a
176.1135	5.1885	352227	prompt	n/a	exceptions hyundai posts balloon\n
176.66	0.056	353320	keystroke_e	e	n/a
176.82	0.064	353640	keystroke_x	x	n/a
176.988	0.088	353976	keystroke_c	c	n/a
177.1	0.072	354200	keystroke_e	e	n/a
177.348	0.096	354696	keystroke_p	p	n/a
177.468	0.096	354936	keystroke_t	t	n/a
177.58	0.1115	355160	keystroke_i	i	n/a
177.6275	0.168	355255	keystroke_o	o	n/a
177.6835	0.168	355367	keystroke_n	n	n/a
177.7725	0.111	355545	keystroke_s	s	n/a
177.8355	0.08	355671	keystroke_Key.space	Key.space	n/a
178.0525	0.063	356105	keystroke_h	h	n/a
178.2675	0.048	356535	keystroke_y	y	n/a
178.7555	0.088	357511	keystroke_u	u	n/a
178.948	0.12	357896	keystroke_n	n	n/a
179.052	0.175	358104	keystroke_d	d	n/a
179.172	0.096	358344	keystroke_a	a	n/a
179.332	0.1195	358664	keystroke_i	i	n/a
179.452	0.103	358904	keystroke_Key.space	Key.space	n/a
179.523	0.098	359046	keystroke_p	p	n/a
179.676	0.104	359352	keystroke_o	o	n/a
179.748	0.088	359496	keystroke_s	s	n/a
179.82	0.168	359640	keystroke_t	t	n/a
179.915	0.096	359830	keystroke_s	s	n/a
179.9555	0.0885	359911	keystroke_Key.space	Key.space	n/a
180.2835	0.0885	360567	keystroke_b	b	n/a
180.348	0.079	360696	keystroke_a	a	n/a
180.468	0.0555	360936	keystroke_l	l	n/a
180.58	0.064	361160	keystroke_l	l	n/a
180.731	0.064	361462	keystroke_o	o	n/a
180.851	0.065	361702	keystroke_o	o	n/a
180.988	0.088	361976	keystroke_n	n	n/a
181.2195	0.081	362439	keystroke_Key.enter	Key.enter	n/a
181.3055	5.86	362611	prompt	n/a	bracelets dozens diagnosis preference\n
181.8845	0.096	363769	keystroke_b	b	n/a
182.1075	0.0725	364215	keystroke_r	r	n/a
182.1875	0.0885	364375	keystroke_a	a	n/a
182.3565	0.063	364713	keystroke_c	c	n/a
182.4605	0.0795	364921	keystroke_e	e	n/a
182.604	0.0885	365208	keystroke_l	l	n/a
182.6515	0.08	365303	keystroke_e	e	n/a
182.8115	0.0485	365623	keystroke_t	t	n/a
183.0595	0.096	366119	keystroke_s	s	n/a
183.0995	0.0885	366199	keystroke_Key.space	Key.space	n/a
183.6685	0.104	367337	keystroke_d	d	n/a
183.8835	0.137	367767	keystroke_o	o	n/a
184.0115	0.0965	368023	keystroke_z	z	n/a
184.1875	0.0805	368375	keystroke_e	e	n/a
184.3075	0.16	368615	keystroke_n	n	n/a
184.38	0.1035	368760	keystroke_s	s	n/a
184.46	0.0715	368920	keystroke_Key.space	Key.space	n/a
184.6195	0.089	369239	keystroke_d	d	n/a
184.7235	0.129	369447	keystroke_i	i	n/a
184.8355	0.0885	369671	keystroke_a	a	n/a
184.9805	0.08	369961	keystroke_g	g	n/a
185.0765	0.1035	370153	keystroke_n	n	n/a
185.2035	0.112	370407	keystroke_o	o	n/a
185.3875	0.088	370775	keystroke_s	s	n/a
185.5235	0.144	371047	keystroke_i	i	n/a
185.6035	0.1205	371207	keystroke_s	s	n/a
185.708	0.0635	371416	keystroke_Key.space	Key.space	n/a
185.8275	0.1365	371655	keystroke_p	p	n/a
186.076	0.104	372152	keystroke_r	r	n/a
186.172	0.072	372344	keystroke_e	e	n/a
186.308	0.072	372616	keystroke_f	f	n/a
186.3805	0.0875	372761	keystroke_e	e	n/a
186.492	0.096	372984	keystroke_r	r	n/a
186.564	0.064	373128	keystroke_e	e	n/a
186.652	0.1035	373304	keystroke_n	n	n/a
186.724	0.1115	373448	keystroke_c	c	n/a
186.796	0.0875	373592	keystroke_e	e	n/a
187.0675	0.096	374135	keystroke_Key.enter	Key.enter	n/a
187.1705	4.6355	374341	prompt	n/a	powder fact nuts referenced\n
187.7635	0.056	375527	keystroke_b	b	n/a
187.8675	0.072	375735	keystroke_p	p	n/a
188.1075	0.0565	376215	keystroke_Key.backspace	Key.backspace	n/a
188.2035	0.0645	376407	keystroke_Key.backspace	Key.backspace	n/a
188.6435	0.088	377287	keystroke_p	p	n/a
188.7875	0.096	377575	keystroke_o	o	n/a
188.892	0.0955	377784	keystroke_w	w	n/a
189.124	0.088	378248	keystroke_d	d	n/a
189.284	0.1515	378568	keystroke_e	e	n/a
189.3555	0.112	378711	keystroke_r	r	n/a
189.4515	0.072	378903	keystroke_Key.space	Key.space	n/a
189.564	0.08	379128	keystroke_f	f	n/a
189.636	0.0795	379272	keystroke_a	a	n/a
189.7555	0.0805	379511	keystroke_c	c	n/a
189.94	0.103	379880	keystroke_t	t	n/a
189.995	0.072	379990	keystroke_Key.space	Key.space	n/a
190.116	0.064	380232	keystroke_n	n	n/a
190.292	0.1515	380584	keystroke_u	u	n/a
190.34	0.135	380680	keystroke_t	t	n/a
190.412	0.104	380824	keystroke_s	s	n/a
190.459	0.0805	380918	keystroke_Key.space	Key.space	n/a
190.691	0.096	381382	keystroke_r	r	n/a
190.756	0.079	381512	keystroke_e	e	n/a
190.899	0.064	381798	keystroke_f	f	n/a
190.98	0.087	381960	keystroke_e	e	n/a
191.0755	0.104	382151	keystroke_r	r	n/a
191.155	0.073	382310	keystroke_e	e	n/a
191.236	0.104	382472	keystroke_n	n	n/a
191.331	0.08	382662	keystroke_c	c	n/a
191.387	0.0725	382774	keystroke_e	e	n/a
191.5395	0.096	383079	keystroke_d	d	n/a
191.723	0.08	383446	keystroke_Key.enter	Key.enter	n/a
191.81	3.1235	383620	prompt	n/a	farmer heads inquiry stack\n
192.3235	0.0875	384647	keystroke_f	f	n/a
192.42	0.112	384840	keystroke_a	a	n/a
192.524	0.071	385048	keystroke_r	r	n/a
192.6115	0.1205	385223	keystroke_m	m	n/a
192.676	0.144	385352	keystroke_e	e	n/a
192.7635	0.0955	385527	keystroke_r	r	n/a
192.827	0.072	385654	keystroke_Key.space	Key.space	n/a
192.9555	0.128	385911	keystroke_h	h	n/a
193.004	0.088	386008	keystroke_e	e	n/a
193.076	0.079	386152	keystroke_a	a	n/a
193.179	0.232	386358	keystroke_d	d	n/a
193.324	0.1115	386648	keystroke_s	s	n/a
193.4035	0.064	386807	keystroke_Key.space	Key.space	n/a
193.5075	0.056	387015	keystroke_i	i	n/a
193.62	0.072	387240	keystroke_n	n	n/a
193.724	0.0885	387448	keystroke_q	q	n/a
193.8355	0.1205	387671	keystroke_u	u	n/a
193.892	0.087	387784	keystroke_i	i	n/a
193.9725	0.111	387945	keystroke_r	r	n/a
194.0915	0.1125	388183	keystroke_y	y	n/a
194.1395	0.1035	388279	keystroke_Key.space	Key.space	n/a
194.235	0.121	388470	keystroke_s	s	n/a
194.3315	0.104	388663	keystroke_t	t	n/a
194.4035	0.096	388807	keystroke_a	a	n/a
194.588	0.08	389176	keystroke_c	c	n/a
194.668	0.064	389336	keystroke_k	k	n/a
194.827	0.105	389654	keystroke_Key.enter	Key.enter	n/a
194.938	3.708	389876	prompt	n/a	decor intent potential argue\n
195.452	0.0635	390904	keystroke_d	d	n/a
195.62	0.0715	391240	keystroke_e	e	n/a
195.772	0.0715	391544	keystroke_c	c	n/a
195.8755	0.1125	391751	keystroke_o	o	n/a
195.9635	0.128	391927	keystroke_r	r	n/a
196.0675	0.0645	392135	keystroke_Key.space	Key.space	n/a
196.308	0.0555	392616	keystroke_i	i	n/a
196.4195	0.088	392839	keystroke_n	n	n/a
196.46	0.0795	392920	keystroke_t	t	n/a
196.5395	0.1275	393079	keystroke_e	e	n/a
196.6595	0.1115	393319	keystroke_n	n	n/a
196.731	0.089	393462	keystroke_t	t	n/a
196.7875	0.0965	393575	keystroke_Key.space	Key.space	n/a
196.875	0.073	393750	keystroke_p	p	n/a
196.9955	0.1045	393991	keystroke_o	o	n/a
197.1155	0.072	394231	keystroke_t	t	n/a
197.1395	0.1125	394279	keystroke_e	e	n/a
197.2435	0.088	394487	keystroke_n	n	n/a
197.3325	0.079	394665	keystroke_t	t	n/a
197.428	0.0795	394856	keystroke_i	i	n/a
197.5395	0.08	395079	keystroke_a	a	n/a
197.6195	0.1125	395239	keystroke_l	l	n/a
197.6675	0.104	395335	keystroke_Key.space	Key.space	n/a
197.8035	0.088	395607	keystroke_a	a	n/a
197.8675	0.0885	395735	keystroke_r	r	n/a
198.044	0.0715	396088	keystroke_g	g	n/a
198.164	0.0795	396328	keystroke_u	u	n/a
198.196	0.0555	396392	keystroke_e	e	n/a
198.579	0.0645	397158	keystroke_Key.enter	Key.enter	n/a
198.6515	5.554	397303	prompt	n/a	computation component threats administrators\n
199.292	0.0875	398584	keystroke_c	c	n/a
199.364	0.0555	398728	keystroke_o	o	n/a
199.46	0.0795	398920	keystroke_m	m	n/a
199.4995	0.088	398999	keystroke_p	p	n/a
199.6675	0.0965	399335	keystroke_u	u	n/a
199.7395	0.0725	399479	keystroke_t	t	n/a
199.8195	0.112	399639	keystroke_a	a	n/a
199.9075	0.0965	399815	keystroke_t	t	n/a
199.9875	0.104	399975	keystroke_i	i	n/a
200.0115	0.136	400023	keystroke_o	o	n/a
200.0595	0.12	400119	keystroke_n	n	n/a
200.1395	0.072	400279	keystroke_Key.space	Key.space	n/a
200.2675	0.096	400535	keystroke_c	c	n/a
200.3395	0.072	400679	keystroke_o	o	n/a
200.4275	0.1125	400855	keystroke_m	m	n/a
200.4835	0.0805	400967	keystroke_p	p	n/a
200.772	0.088	401544	keystroke_o	o	n/a
201.0195	0.072	402039	keystroke_n	n	n/a
201.1235	0.1045	402247	keystroke_e	e	n/a
201.2355	0.1285	402471	keystroke_n	n	n/a
201.348	0.104	402696	keystroke_t	t	n/a
201.4275	0.072	402855	keystroke_Key.space	Key.space	n/a
201.5475	0.08	403095	keystroke_t	t	n/a
201.6435	0.12	403287	keystroke_h	h	n/a
201.7315	0.1125	403463	keystroke_r	r	n/a
201.7875	0.121	403575	keystroke_e	e	n/a
201.8515	0.136	403703	keystroke_a	a	n/a
201.964	0.1995	403928	keystroke_t	t	n/a
202.0835	0.136	404167	keystroke_s	s	n/a
202.1315	0.104	404263	keystroke_Key.space	Key.space	n/a
202.356	0.096	404712	keystroke_a	a	n/a
202.452	0.1035	404904	keystroke_d	d	n/a
202.587	0.0725	405174	keystroke_m	m	n/a
202.6445	0.063	405289	keystroke_i	i	n/a
202.844	0.1115	405688	keystroke_n	n	n/a
202.8995	0.088	405799	keystroke_i	i	n/a
203.2045	0.103	406409	keystroke_s	s	n/a
203.2755	0.088	406551	keystroke_t	t	n/a
203.4755	0.096	406951	keystroke_r	r	n/a
203.5395	0.112	407079	keystroke_a	a	n/a
203.668	0.0875	407336	keystroke_t	t	n/a
203.812	0.096	407624	keystroke_o	o	n/a
203.876	0.104	407752	keystroke_r	r	n/a
203.932	0.096	407864	keystroke_s	s	n/a
204.147	0.056	408294	keystroke_Key.enter	Key.enter	n/a
204.21	4.1705	408420	prompt	n/a	guild ranges amplifier selections\n
204.8995	0.08	409799	keystroke_g	g	n/a
204.956	0.1515	409912	keystroke_u	u	n/a
205.0195	0.152	410039	keystroke_i	i	n/a
205.0675	0.153	410135	keystroke_l	l	n/a
205.1395	0.0875	410279	keystroke_d	d	n/a
205.203	0.072	410406	keystroke_Key.space	Key.space	n/a
205.3155	0.096	410631	keystroke_r	r	n/a
205.387	0.088	410774	keystroke_a	a	n/a
205.483	0.192	410966	keystroke_n	n	n/a
205.555	0.1605	411110	keystroke_g	g	n/a
205.611	0.1605	411222	keystroke_e	e	n/a
205.6835	0.104	411367	keystroke_s	s	n/a
205.723	0.088	411446	keystroke_Key.space	Key.space	n/a
205.8835	0.0795	411767	keystroke_a	a	n/a
205.9715	0.1285	411943	keystroke_m	m	n/a
206.0595	0.064	412119	keystroke_p	p	n/a
206.228	0.0875	412456	keystroke_l	l	n/a
206.3955	0.0955	412791	keystroke_i	i	n/a
206.5315	0.064	413063	keystroke_f	f	n/a
206.604	0.1195	413208	keystroke_i	i	n/a
206.6755	0.1605	413351	keystroke_e	e	n/a
206.7955	0.112	413591	keystroke_r	r	n/a
206.8915	0.072	413783	keystroke_Key.space	Key.space	n/a
207.1635	0.0885	414327	keystroke_s	s	n/a
207.3075	0.0805	414615	keystroke_e	e	n/a
207.4195	0.088	414839	keystroke_l	l	n/a
207.4755	0.0565	414951	keystroke_e	e	n/a
207.6275	0.072	415255	keystroke_c	c	n/a
207.828	0.0715	415656	keystroke_t	t	n/a
207.9005	0.119	415801	keystroke_i	i	n/a
207.9635	0.152	415927	keystroke_o	o	n/a
208.0115	0.136	416023	keystroke_n	n	n/a
208.1555	0.0795	416311	keystroke_s	s	n/a
208.291	0.0885	416582	keystroke_Key.enter	Key.enter	n/a
208.3835	5.342	416767	prompt	n/a	pursue norfolk wichita adventure\n
208.9155	0.071	417831	keystroke_p	p	n/a
209.0425	0.1055	418085	keystroke_u	u	n/a
209.148	0.0555	418296	keystroke_r	r	n/a
209.2915	0.0885	418583	keystroke_s	s	n/a
209.388	0.1355	418776	keystroke_u	u	n/a
209.428	0.1025	418856	keystroke_e	e	n/a
209.5065	0.081	419013	keystroke_Key.space	Key.space	n/a
209.6675	0.12	419335	keystroke_n	n	n/a
209.7555	0.104	419511	keystroke_o	o	n/a
209.8755	0.064	419751	keystroke_r	r	n/a
210.171	0.072	420342	keystroke_f	f	n/a
210.3315	0.072	420663	keystroke_o	o	n/a
210.507	0.08	421014	keystroke_l	l	n/a
210.6355	0.128	421271	keystroke_k	k	n/a
210.7555	0.064	421511	keystroke_Key.space	Key.space	n/a
210.9715	0.0645	421943	keystroke_w	w	n/a
211.0665	0.121	422133	keystroke_i	i	n/a
211.2435	0.104	422487	keystroke_c	c	n/a
211.4195	0.08	422839	keystroke_h	h	n/a
211.5875	0.1045	423175	keystroke_i	i	n/a
211.6835	0.1605	423367	keystroke_t	t	n/a
211.7555	0.111	423511	keystroke_a	a	n/a
211.8595	0.0795	423719	keystroke_Key.space	Key.space	n/a
212.1875	0.0555	424375	keystroke_d	d	n/a
212.5235	0.04	425047	keystroke_Key.backspace	Key.backspace	n/a
212.5315	0.08	425063	keystroke_a	a	n/a
212.643	0.088	425286	keystroke_d	d	n/a
212.755	0.0885	425510	keystroke_v	v	n/a
212.883	0.096	425766	keystroke_e	e	n/a
213.059	0.088	426118	keystroke_n	n	n/a
213.155	0.0725	426310	keystroke_t	t	n/a
213.3475	0.104	426695	keystroke_u	u	n/a
213.4355	0.112	426871	keystroke_r	r	n/a
213.4915	0.088	426983	keystroke_e	e	n/a
213.6195	0.104	427239	keystroke_Key.enter	Key.enter	n/a
213.7295	7.315	427459	prompt	n/a	immigration maritime biological mediterranean\n
214.3315	0.056	428663	keystroke_m	m	n/a
214.4755	0.048	428951	keystroke_i	i	n/a
214.6595	0.031	429319	keystroke_Key.backspace	Key.backspace	n/a
214.7625	0.048	429525	keystroke_Key.backspace	Key.backspace	n/a
214.9315	0.055	429863	keystroke_i	i	n/a
215.0675	0.064	430135	keystroke_m	m	n/a
215.1875	0.056	430375	keystroke_m	m	n/a
215.3225	0.097	430645	keystroke_i	i	n/a
215.3945	0.081	430789	keystroke_g	g	n/a
215.5635	0.104	431127	keystroke_r	r	n/a
215.612	0.1115	431224	keystroke_a	a	n/a
215.7545	0.112	431509	keystroke_t	t	n/a
215.8275	0.072	431655	keystroke_i	i	n/a
215.86	0.1195	431720	keystroke_o	o	n/a
215.875	0.1125	431750	keystroke_n	n	n/a
215.9625	0.073	431925	keystroke_Key.space	Key.space	n/a
216.115	0.097	432230	keystroke_m	m	n/a
216.195	0.096	432390	keystroke_a	a	n/a
216.2755	0.1035	432551	keystroke_r	r	n/a
216.387	0.1125	432774	keystroke_i	i	n/a
216.5555	0.088	433111	keystroke_t	t	n/a
216.7315	0.0475	433463	keystroke_i	i	n/a
216.827	0.16	433654	keystroke_m	m	n/a
216.9155	0.096	433831	keystroke_e	e	n/a
216.9795	0.0875	433959	keystroke_Key.space	Key.space	n/a
217.211	0.088	434422	keystroke_b	b	n/a
217.2755	0.1115	434551	keystroke_i	i	n/a
217.355	0.048	434710	keystroke_o	o	n/a
217.531	0.072	435062	keystroke_l	l	n/a
217.691	0.096	435382	keystroke_o	o	n/a
217.7555	0.0965	435511	keystroke_g	g	n/a
217.8675	0.1035	435735	keystroke_i	i	n/a
217.9875	0.12	435975	keystroke_c	c	n/a
218.0755	0.08	436151	keystroke_a	a	n/a
218.124	0.1195	436248	keystroke_l	l	n/a
218.2275	0.08	436455	keystroke_Key.space	Key.space	n/a
218.3955	0.112	436791	keystroke_m	m	n/a
218.4755	0.064	436951	keystroke_e	e	n/a
218.644	0.071	437288	keystroke_d	d	n/a
218.747	0.096	437494	keystroke_i	i	n/a
218.9075	0.0555	437815	keystroke_t	t	n/a
219.2035	0.08	438407	keystroke_e	e	n/a
219.507	0.064	439014	keystroke_Key.backspace	Key.backspace	n/a
219.835	0.072	439670	keystroke_e	e	n/a
220.027	0.048	440054	keystroke_r	r	n/a
220.1705	0.064	440341	keystroke_r	r	n/a
220.2745	0.089	440549	keystroke_a	a	n/a
220.4105	0.1045	440821	keystroke_n	n	n/a
220.4825	0.136	440965	keystroke_e	e	n/a
220.5785	0.0885	441157	keystroke_a	a	n/a
220.6595	0.0475	441319	keystroke_n	n	n/a
220.979	0.064	441958	keystroke_Key.enter	Key.enter	n/a
221.047	5.478	442094	prompt	n/a	championships italian activation process\n
221.5875	0.0875	443175	keystroke_c	c	n/a
221.6835	0.0635	443367	keystroke_h	h	n/a
221.755	0.104	443510	keystroke_a	a	n/a
221.8675	0.1195	443735	keystroke_m	m	n/a
221.923	0.0965	443846	keystroke_p	p	n/a
222.075	0.1045	444150	keystroke_i	i	n/a
222.1475	0.1275	444295	keystroke_o	o	n/a
222.244	0.079	444488	keystroke_n	n	n/a
222.331	0.096	444662	keystroke_s	s	n/a
222.451	0.216	444902	keystroke_h	h	n/a
222.539	0.104	445078	keystroke_i	i	n/a
222.603	0.12	445206	keystroke_p	p	n/a
222.6115	0.1035	445223	keystroke_s	s	n/a
222.675	0.08	445350	keystroke_Key.space	Key.space	n/a
223.0265	0.088	446053	keystroke_i	i	n/a
223.1305	0.105	446261	keystroke_t	t	n/a
223.2035	0.0795	446407	keystroke_a	a	n/a
223.2995	0.0475	446599	keystroke_l	l	n/a
223.387	0.0885	446774	keystroke_i	i	n/a
223.4675	0.1035	446935	keystroke_a	a	n/a
223.5875	0.104	447175	keystroke_n	n	n/a
223.6435	0.08	447287	keystroke_Key.space	Key.space	n/a
223.7155	0.064	447431	keystroke_a	a	n/a
223.9715	0.0875	447943	keystroke_c	c	n/a
224.187	0.072	448374	keystroke_t	t	n/a
224.331	0.096	448662	keystroke_i	i	n/a
224.459	0.096	448918	keystroke_v	v	n/a
224.755	0.096	449510	keystroke_a	a	n/a
224.859	0.088	449718	keystroke_t	t	n/a
224.98	0.1115	449960	keystroke_i	i	n/a
225.027	0.128	450054	keystroke_o	o	n/a
225.067	0.12	450134	keystroke_n	n	n/a
225.1395	0.064	450279	keystroke_Key.space	Key.space	n/a
225.291	0.072	450582	keystroke_p	p	n/a
225.3795	0.0715	450759	keystroke_r	r	n/a
225.491	0.1045	450982	keystroke_o	o	n/a
225.5715	0.08	451143	keystroke_c	c	n/a
225.747	0.064	451494	keystroke_e	e	n/a
225.923	0.072	451846	keystroke_s	s	n/a
226.0595	0.0795	452119	keystroke_s	s	n/a
226.411	0.1125	452822	keystroke_Key.enter	Key.enter	n/a
226.529	5.451	453058	prompt	n/a	showtimes poetry narrow spam\n
227.0595	0.079	454119	keystroke_s	s	n/a
227.1555	0.136	454311	keystroke_h	h	n/a
227.2195	0.103	454439	keystroke_o	o	n/a
227.283	0.0885	454566	keystroke_w	w	n/a
227.4265	0.097	454853	keystroke_t	t	n/a
227.5715	0.151	455143	keystroke_m	m	n/a
227.651	0.1365	455302	keystroke_e	e	n/a
227.716	0.1115	455432	keystroke_s	s	n/a
227.764	0.0705	455528	keystroke_Key.space	Key.space	n/a
227.8835	0.12	455767	keystroke_p	p	n/a
227.9865	0.073	455973	keystroke_e	e	n/a
228.139	0.0565	456278	keystroke_o	o	n/a
228.3555	0.0475	456711	keystroke_Key.backspace	Key.backspace	n/a
228.4595	0.0475	456919	keystroke_Key.backspace	Key.backspace	n/a
228.644	0.111	457288	keystroke_o	o	n/a
228.6835	0.0875	457367	keystroke_e	e	n/a
228.795	0.073	457590	keystroke_t	t	n/a
228.971	0.088	457942	keystroke_r	r	n/a
229.075	0.112	458150	keystroke_y	y	n/a
229.147	0.064	458294	keystroke_Key.space	Key.space	n/a
229.307	0.096	458614	keystroke_n	n	n/a
229.387	0.0725	458774	keystroke_a	a	n/a
229.5305	0.0645	459061	keystroke_r	r	n/a
229.6585	0.08	459317	keystroke_r	r	n/a
229.7785	0.048	459557	keystroke_a	a	n/a
229.883	0.0555	459766	keystroke_o	o	n/a
230.1065	0.056	460213	keystroke_Key.backspace	Key.backspace	n/a
230.4345	0.0805	460869	keystroke_o	o	n/a
230.659	0.064	461318	keystroke_Key.backspace	Key.backspace	n/a
230.778	0.048	461556	keystroke_Key.backspace	Key.backspace	n/a
230.9385	0.1045	461877	keystroke_o	o	n/a
231.027	0.0965	462054	keystroke_w	w	n/a
231.091	0.0875	462182	keystroke_Key.space	Key.space	n/a
231.3705	0.096	462741	keystroke_s	s	n/a
231.451	0.088	462902	keystroke_p	p	n/a
231.563	0.095	463126	keystroke_a	a	n/a
231.683	0.088	463366	keystroke_m	m	n/a
231.891	0.088	463782	keystroke_Key.enter	Key.enter	n/a
231.9825	3.8635	463965	prompt	n/a	dist girls yellow cinema\n
232.4835	0.048	464967	keystroke_s	s	n/a
232.7625	0.057	465525	keystroke_Key.backspace	Key.backspace	n/a
232.8585	0.0805	465717	keystroke_d	d	n/a
232.955	0.1115	465910	keystroke_i	i	n/a
233.0265	0.136	466053	keystroke_s	s	n/a
233.131	0.1205	466262	keystroke_t	t	n/a
233.2265	0.08	466453	keystroke_Key.space	Key.space	n/a
233.4115	0.0875	466823	keystroke_g	g	n/a
233.5145	0.105	467029	keystroke_i	i	n/a
233.6985	0.096	467397	keystroke_r	r	n/a
233.787	0.144	467574	keystroke_l	l	n/a
233.8755	0.1115	467751	keystroke_s	s	n/a
233.9555	0.0395	467911	keystroke_Key.space	Key.space	n/a
234.1555	0.0555	468311	keystroke_y	y	n/a
234.235	0.064	468470	keystroke_e	e	n/a
234.3235	0.0555	468647	keystroke_l	l	n/a
234.435	0.0635	468870	keystroke_l	l	n/a
234.5875	0.135	469175	keystroke_o	o	n/a
234.6435	0.095	469287	keystroke_w	w	n/a
234.707	0.0795	469414	keystroke_Key.space	Key.space	n/a
234.923	0.08	469846	keystroke_c	c	n/a
235.019	0.0645	470038	keystroke_i	i	n/a
235.171	0.08	470342	keystroke_n	n	n/a
235.403	0.08	470806	keystroke_e	e	n/a
235.499	0.104	470998	keystroke_m	m	n/a
235.611	0.08	471222	keystroke_a	a	n/a
235.755	0.088	471510	keystroke_Key.enter	Key.enter	n/a
235.8495	4.499	471699	prompt	n/a	surrey trance holidays moses\n
236.267	0.072	472534	keystroke_d	d	n/a
236.659	0.0645	473318	keystroke_Key.backspace	Key.backspace	n/a
236.7715	0.064	473543	keystroke_s	s	n/a
236.883	0.072	473766	keystroke_u	u	n/a
236.987	0.0635	473974	keystroke_r	r	n/a
237.123	0.096	474246	keystroke_r	r	n/a
237.2355	0.1435	474471	keystroke_e	e	n/a
237.331	0.112	474662	keystroke_y	y	n/a
237.387	0.072	474774	keystroke_Key.space	Key.space	n/a
237.659	0.0885	475318	keystroke_r	r	n/a
237.939	0.0715	475878	keystroke_Key.backspace	Key.backspace	n/a
237.963	0.08	475926	keystroke_t	t	n/a
238.123	0.112	476246	keystroke_r	r	n/a
238.1785	0.1125	476357	keystroke_a	a	n/a
238.283	0.136	476566	keystroke_n	n	n/a
238.395	0.112	476790	keystroke_c	c	n/a
238.475	0.112	476950	keystroke_e	e	n/a
238.555	0.056	477110	keystroke_Key.space	Key.space	n/a
238.7305	0.0965	477461	keystroke_h	h	n/a
238.795	0.063	477590	keystroke_o	o	n/a
238.9785	0.048	477957	keystroke_l	l	n/a
239.0595	0.144	478119	keystroke_i	i	n/a
239.123	0.144	478246	keystroke_d	d	n/a
239.21	0.0895	478420	keystroke_a	a	n/a
239.3635	0.135	478727	keystroke_y	y	n/a
239.419	0.1045	478838	keystroke_s	s	n/a
239.4505	0.1125	478901	keystroke_Key.space	Key.space	n/a
239.6665	0.113	479333	keystroke_m	m	n/a
239.7225	0.113	479445	keystroke_o	o	n/a
239.8035	0.079	479607	keystroke_s	s	n/a
239.9555	0.16	479911	keystroke_e	e	n/a
240.0745	0.121	480149	keystroke_s	s	n/a
240.2505	0.096	480501	keystroke_Key.enter	Key.enter	n/a
240.3535	6.475	480707	prompt	n/a	dietary tampa overseas tide\n
240.7705	0.088	481541	keystroke_s	s	n/a
241.0985	0.0325	482197	keystroke_Key.backspace	Key.backspace	n/a
241.307	0.088	482614	keystroke_d	d	n/a
241.5465	0.088	483093	keystroke_i	i	n/a
241.6425	0.104	483285	keystroke_e	e	n/a
241.8025	0.0885	483605	keystroke_t	t	n/a
241.891	0.128	483782	keystroke_a	a	n/a
242.011	0.104	484022	keystroke_r	r	n/a
242.139	0.112	484278	keystroke_y	y	n/a
242.187	0.104	484374	keystroke_Key.space	Key.space	n/a
242.307	0.128	484614	keystroke_t	t	n/a
242.387	0.088	484774	keystroke_a	a	n/a
242.523	0.12	485046	keystroke_p	p	n/a
242.667	0.112	485334	keystroke_a	a	n/a
242.755	0.064	485510	keystroke_Key.space	Key.space	n/a
243.235	0.032	486470	keystroke_Key.backspace	Key.backspace	n/a
243.323	0.056	486646	keystroke_Key.backspace	Key.backspace	n/a
243.603	0.048	487206	keystroke_Key.backspace	Key.backspace	n/a
243.747	0.128	487494	keystroke_m	m	n/a
243.803	0.1355	487606	keystroke_p	p	n/a
243.9145	0.12	487829	keystroke_a	a	n/a
244.091	0.1275	488182	keystroke_o	o	n/a
244.1635	0.0635	488327	keystroke_v	v	n/a
244.299	0.0555	488598	keystroke_e	e	n/a
244.483	0.0475	488966	keystroke_Key.backspace	Key.backspace	n/a
244.5865	0.064	489173	keystroke_Key.backspace	Key.backspace	n/a
244.6985	0.0645	489397	keystroke_Key.backspace	Key.backspace	n/a
244.7865	0.072	489573	keystroke_Key.space	Key.space	n/a
244.9225	0.129	489845	keystroke_o	o	n/a
244.9945	0.065	489989	keystroke_v	v	n/a
245.1075	0.151	490215	keystroke_e	e	n/a
245.2185	0.104	490437	keystroke_r	r	n/a
245.3635	0.111	490727	keystroke_s	s	n/a
245.4665	0.137	490933	keystroke_e	e	n/a
245.563	0.1205	491126	keystroke_a	a	n/a
245.6595	0.143	491319	keystroke_s	s	n/a
245.9865	0.096	491973	keystroke_Key.space	Key.space	n/a
246.2025	0.0805	492405	keystroke_t	t	n/a
246.2985	0.121	492597	keystroke_i	i	n/a
246.3955	0.0635	492791	keystroke_d	d	n/a
246.5545	0.081	493109	keystroke_e	e	n/a
246.746	0.081	493492	keystroke_Key.enter	Key.enter	n/a
246.8365	7.856	493673	prompt	n/a	town acknowledged frequently watches\n
247.547	0.04	495094	keystroke_t	t	n/a
247.651	0.1525	495302	keystroke_o	o	n/a
247.819	0.095	495638	keystroke_w	w	n/a
247.9475	0.1115	495895	keystroke_n	n	n/a
248.002	0.073	496004	keystroke_Key.space	Key.space	n/a
248.099	0.096	496198	keystroke_a	a	n/a
248.211	0.112	496422	keystroke_c	c	n/a
248.331	0.056	496662	keystroke_k	k	n/a
248.45	0.129	496900	keystroke_n	n	n/a
248.5145	0.1045	497029	keystroke_o	o	n/a
248.627	0.088	497254	keystroke_w	w	n/a
248.851	0.064	497702	keystroke_l	l	n/a
249.1065	0.0725	498213	keystroke_Key.backspace	Key.backspace	n/a
249.307	0.032	498614	keystroke_e	e	n/a
249.6345	0.0635	499269	keystroke_Key.backspace	Key.backspace	n/a
249.842	0.104	499684	keystroke_l	l	n/a
249.8665	0.0805	499733	keystroke_e	e	n/a
250.011	0.0955	500022	keystroke_d	d	n/a
250.1065	0.144	500213	keystroke_g	g	n/a
250.211	0.0635	500422	keystroke_e	e	n/a
250.2985	0.0165	500597	keystroke_e	e	n/a
250.3385	0.1125	500677	keystroke_d	d	n/a
250.4105	0.104	500821	keystroke_Key.space	Key.space	n/a
250.4905	0.0645	500981	keystroke_f	f	n/a
250.6425	0.104	501285	keystroke_r	r	n/a
250.6905	0.112	501381	keystroke_e	e	n/a
250.771	0.0875	501542	keystroke_q	q	n/a
250.8835	0.071	501767	keystroke_u	u	n/a
250.9795	0.095	501959	keystroke_e	e	n/a
251.0665	0.0885	502133	keystroke_n	n	n/a
251.1465	0.0885	502293	keystroke_t	t	n/a
251.251	0.072	502502	keystroke_l	l	n/a
251.403	0.0955	502806	keystroke_y	y	n/a
251.466	0.0725	502932	keystroke_Key.space	Key.space	n/a
251.5785	0.1115	503157	keystroke_e	e	n/a
251.667	0.1035	503334	keystroke_w	w	n/a
251.731	0.1355	503462	keystroke_a	a	n/a
251.85	0.0805	503700	keystroke_t	t	n/a
252.058	0.0485	504116	keystroke_Key.backspace	Key.backspace	n/a
252.1625	0.048	504325	keystroke_Key.backspace	Key.backspace	n/a
252.259	0.064	504518	keystroke_Key.backspace	Key.backspace	n/a
252.37	0.081	504740	keystroke_Key.backspace	Key.backspace	n/a
252.475	0.088	504950	keystroke_w	w	n/a
252.515	0.128	505030	keystroke_a	a	n/a
252.627	0.08	505254	keystroke_t	t	n/a
252.9465	0.096	505893	keystroke_h	h	n/a
253.0185	0.136	506037	keystroke_e	e	n/a
253.0825	0.12	506165	keystroke_s	s	n/a
253.49	0.0405	506980	keystroke_Key.backspace	Key.backspace	n/a
253.6985	0.072	507397	keystroke_Key.backspace	Key.backspace	n/a
253.8345	0.072	507669	keystroke_Key.backspace	Key.backspace	n/a
254.0825	0.1285	508165	keystroke_c	c	n/a
254.219	0.072	508438	keystroke_h	h	n/a
254.315	0.136	508630	keystroke_e	e	n/a
254.386	0.12	508772	keystroke_s	s	n/a
254.602	0.0885	509204	keystroke_Key.enter	Key.enter	n/a
254.6975	4.8905	509395	prompt	n/a	mini thumb airport fair\n
255.322	0.112	510644	keystroke_m	m	n/a
255.443	0.031	510886	keystroke_i	i	n/a
255.515	0.1275	511030	keystroke_n	n	n/a
255.5945	0.049	511189	keystroke_i	i	n/a
255.6505	0.064	511301	keystroke_Key.space	Key.space	n/a
255.9545	0.08	511909	keystroke_t	t	n/a
256.011	0.0475	512022	keystroke_h	h	n/a
256.1465	0.056	512293	keystroke_u	u	n/a
256.3065	0.0885	512613	keystroke_m	m	n/a
256.499	0.1195	512998	keystroke_n	n	n/a
256.995	0.072	513990	keystroke_Key.backspace	Key.backspace	n/a
257.163	0.112	514326	keystroke_b	b	n/a
257.275	0.088	514550	keystroke_Key.space	Key.space	n/a
257.4595	0.1115	514919	keystroke_a	a	n/a
257.579	0.088	515158	keystroke_i	i	n/a
257.787	0.056	515574	keystroke_p	p	n/a
258.147	0.064	516294	keystroke_Key.backspace	Key.backspace	n/a
258.2585	0.08	516517	keystroke_r	r	n/a
258.371	0.0875	516742	keystroke_p	p	n/a
258.531	0.095	517062	keystroke_o	o	n/a
258.619	0.072	517238	keystroke_r	r	n/a
258.722	0.113	517444	keystroke_t	t	n/a
258.819	0.08	517638	keystroke_Key.space	Key.space	n/a
258.931	0.112	517862	keystroke_f	f	n/a
259.003	0.096	518006	keystroke_a	a	n/a
259.123	0.0955	518246	keystroke_i	i	n/a
259.2265	0.0725	518453	keystroke_r	r	n/a
259.5305	0.056	519061	keystroke_Key.enter	Key.enter	n/a
259.592	3.9325	519184	prompt	n/a	amsterdam faith nation soon\n
260.154	0.129	520308	keystroke_a	a	n/a
260.3155	0.1105	520631	keystroke_m	m	n/a
260.555	0.0955	521110	keystroke_s	s	n/a
260.666	0.064	521332	keystroke_t	t	n/a
260.739	0.1435	521478	keystroke_e	e	n/a
260.8425	0.08	521685	keystroke_r	r	n/a
260.9945	0.112	521989	keystroke_d	d	n/a
261.051	0.112	522102	keystroke_a	a	n/a
261.1465	0.1445	522293	keystroke_m	m	n/a
261.251	0.096	522502	keystroke_Key.space	Key.space	n/a
261.355	0.096	522710	keystroke_f	f	n/a
261.466	0.049	522932	keystroke_a	a	n/a
261.594	0.112	523188	keystroke_i	i	n/a
261.699	0.088	523398	keystroke_t	t	n/a
261.802	0.105	523604	keystroke_h	h	n/a
261.907	0.071	523814	keystroke_Key.space	Key.space	n/a
262.027	0.112	524054	keystroke_n	n	n/a
262.091	0.104	524182	keystroke_a	a	n/a
262.171	0.096	524342	keystroke_t	t	n/a
262.243	0.0795	524486	keystroke_i	i	n/a
262.2905	0.12	524581	keystroke_o	o	n/a
262.331	0.12	524662	keystroke_n	n	n/a
262.4825	0.0795	524965	keystroke_Key.space	Key.space	n/a
262.9145	0.0805	525829	keystroke_s	s	n/a
263.043	0.0475	526086	keystroke_o	o	n/a
263.163	0.079	526326	keystroke_o	o	n/a
263.258	0.081	526516	keystroke_n	n	n/a
263.426	0.096	526852	keystroke_Key.enter	Key.enter	n/a
263.5285	4.923	527057	prompt	n/a	functioning category boxing survey\n
264.115	0.072	528230	keystroke_f	f	n/a
264.211	0.0555	528422	keystroke_u	u	n/a
264.3545	0.1125	528709	keystroke_n	n	n/a
264.435	0.048	528870	keystroke_c	c	n/a
264.5945	0.1205	529189	keystroke_t	t	n/a
264.659	0.104	529318	keystroke_i	i	n/a
264.731	0.088	529462	keystroke_o	o	n/a
264.771	0.1035	529542	keystroke_n	n	n/a
265.091	0.0715	530182	keystroke_i	i	n/a
265.187	0.1355	530374	keystroke_n	n	n/a
265.2345	0.1045	530469	keystroke_g	g	n/a
265.2985	0.088	530597	keystroke_Key.space	Key.space	n/a
265.499	0.087	530998	keystroke_c	c	n/a
265.554	0.128	531108	keystroke_a	a	n/a
265.722	0.0965	531444	keystroke_t	t	n/a
265.7945	0.0955	531589	keystroke_e	e	n/a
265.962	0.096	531924	keystroke_g	g	n/a
266.05	0.096	532100	keystroke_o	o	n/a
266.162	0.128	532324	keystroke_r	r	n/a
266.2425	0.1035	532485	keystroke_y	y	n/a
266.291	0.0875	532582	keystroke_Key.space	Key.space	n/a
266.4505	0.0965	532901	keystroke_b	b	n/a
266.554	0.104	533108	keystroke_o	o	n/a
266.707	0.1115	533414	keystroke_x	x	n/a
266.7625	0.08	533525	keystroke_i	i	n/a
266.8585	0.136	533717	keystroke_n	n	n/a
266.9625	0.088	533925	keystroke_g	g	n/a
267.0185	0.0875	534037	keystroke_Key.space	Key.space	n/a
267.146	0.096	534292	keystroke_s	s	n/a
267.2585	0.112	534517	keystroke_u	u	n/a
267.322	0.0565	534644	keystroke_r	r	n/a
267.866	0.097	535732	keystroke_v	v	n/a
268.019	0.0875	536038	keystroke_e	e	n/a
268.146	0.081	536292	keystroke_y	y	n/a
268.362	0.088	536724	keystroke_Key.enter	Key.enter	n/a
268.4545	4.262	536909	prompt	n/a	muslim typical firewire ntsc\n
268.995	0.0955	537990	keystroke_m	m	n/a
269.226	0.089	538452	keystroke_u	u	n/a
269.3705	0.103	538741	keystroke_s	s	n/a
269.5945	0.048	539189	keystroke_l	l	n/a
269.7065	0.072	539413	keystroke_i	i	n/a
269.8585	0.128	539717	keystroke_m	m	n/a
269.9545	0.079	539909	keystroke_Key.space	Key.space	n/a
270.0825	0.1445	540165	keystroke_t	t	n/a
270.2095	0.104	540419	keystroke_y	y	n/a
270.2745	0.1035	540549	keystroke_p	p	n/a
270.5055	0.105	541011	keystroke_i	i	n/a
270.595	0.1115	541190	keystroke_c	c	n/a
270.658	0.105	541316	keystroke_a	a	n/a
270.786	0.1365	541572	keystroke_l	l	n/a
270.874	0.0955	541748	keystroke_Key.space	Key.space	n/a
271.0425	0.0955	542085	keystroke_f	f	n/a
271.13	0.1365	542260	keystroke_i	i	n/a
271.2345	0.1195	542469	keystroke_r	r	n/a
271.331	0.055	542662	keystroke_e	e	n/a
271.458	0.04	542916	keystroke_w	w	n/a
271.682	0.12	543364	keystroke_i	i	n/a
271.778	0.104	543556	keystroke_r	r	n/a
271.8105	0.1195	543621	keystroke_e	e	n/a
271.8895	0.0485	543779	keystroke_Key.space	Key.space	n/a
272.026	0.105	544052	keystroke_n	n	n/a
272.179	0.1195	544358	keystroke_t	t	n/a
272.2905	0.0805	544581	keystroke_s	s	n/a
272.483	0.0955	544966	keystroke_c	c	n/a
272.6265	0.0875	545253	keystroke_Key.enter	Key.enter	n/a
272.7205	4.2835	545441	prompt	n/a	include convert faculty deutsch\n
273.3065	0.0565	546613	keystroke_i	i	n/a
273.426	0.072	546852	keystroke_n	n	n/a
273.4745	0.1035	546949	keystroke_c	c	n/a
273.594	0.072	547188	keystroke_l	l	n/a
273.69	0.1525	547380	keystroke_u	u	n/a
273.722	0.128	547444	keystroke_d	d	n/a
273.907	0.159	547814	keystroke_e	e	n/a
274.002	0.088	548004	keystroke_Key.space	Key.space	n/a
274.146	0.0885	548292	keystroke_c	c	n/a
274.1865	0.152	548373	keystroke_o	o	n/a
274.2495	0.121	548499	keystroke_n	n	n/a
274.339	0.08	548678	keystroke_v	v	n/a
274.4665	0.1765	548933	keystroke_e	e	n/a
274.5625	0.112	549125	keystroke_r	r	n/a
274.7545	0.112	549509	keystroke_t	t	n/a
274.8425	0.096	549685	keystroke_Key.space	Key.space	n/a
275.011	0.0875	550022	keystroke_f	f	n/a
275.0825	0.1045	550165	keystroke_a	a	n/a
275.2025	0.096	550405	keystroke_c	c	n/a
275.3625	0.072	550725	keystroke_u	u	n/a
275.4665	0.104	550933	keystroke_l	l	n/a
275.563	0.1195	551126	keystroke_t	t	n/a
275.6745	0.112	551349	keystroke_y	y	n/a
275.7305	0.112	551461	keystroke_Key.space	Key.space	n/a
275.8745	0.064	551749	keystroke_d	d	n/a
275.9865	0.08	551973	keystroke_e	e	n/a
276.1305	0.104	552261	keystroke_u	u	n/a
276.259	0.0955	552518	keystroke_t	t	n/a
276.4745	0.088	552949	keystroke_s	s	n/a
276.6025	0.096	553205	keystroke_c	c	n/a
276.7065	0.088	553413	keystroke_h	h	n/a
276.9065	0.0955	553813	keystroke_Key.enter	Key.enter	n/a
277.0075	3.908	554015	prompt	n/a	delight noon selection class\n
277.658	0.104	555316	keystroke_d	d	n/a
277.8905	0.0955	555781	keystroke_e	e	n/a
278.026	0.057	556052	keystroke_l	l	n/a
278.0985	0.0875	556197	keystroke_i	i	n/a
278.2025	0.081	556405	keystroke_g	g	n/a
278.3065	0.1115	556613	keystroke_h	h	n/a
278.3625	0.12	556725	keystroke_t	t	n/a
278.4345	0.064	556869	keystroke_Key.space	Key.space	n/a
278.578	0.0805	557156	keystroke_n	n	n/a
278.739	0.056	557478	keystroke_o	o	n/a
278.858	0.064	557716	keystroke_o	o	n/a
278.9705	0.128	557941	keystroke_n	n	n/a
279.0745	0.0555	558149	keystroke_Key.space	Key.space	n/a
279.1225	0.136	558245	keystroke_s	s	n/a
279.242	0.073	558484	keystroke_e	e	n/a
279.3625	0.08	558725	keystroke_l	l	n/a
279.3945	0.072	558789	keystroke_e	e	n/a
279.5305	0.08	559061	keystroke_c	c	n/a
279.7305	0.16	559461	keystroke_t	t	n/a
279.8265	0.104	559653	keystroke_i	i	n/a
279.875	0.1435	559750	keystroke_o	o	n/a
279.962	0.144	559924	keystroke_n	n	n/a
280.042	0.072	560084	keystroke_Key.space	Key.space	n/a
280.1865	0.0795	560373	keystroke_c	c	n/a
280.33	0.096	560660	keystroke_l	l	n/a
280.419	0.055	560838	keystroke_a	a	n/a
280.562	0.0565	561124	keystroke_s	s	n/a
280.6905	0.064	561381	keystroke_s	s	n/a
280.8185	0.096	561637	keystroke_Key.enter	Key.enter	n/a
280.9205	6.843	561841	prompt	n/a	multi excitement lovely chevrolet\n
281.5305	0.0635	563061	keystroke_m	m	n/a
281.722	0.072	563444	keystroke_u	u	n/a
281.882	0.056	563764	keystroke_t	t	n/a
281.906	0.064	563812	keystroke_l	l	n/a
282.61	0.064	565220	keystroke_Key.backspace	Key.backspace	n/a
282.698	0.064	565396	keystroke_Key.backspace	Key.backspace	n/a
283.1625	0.08	566325	keystroke_l	l	n/a
283.2585	0.088	566517	keystroke_t	t	n/a
283.3305	0.112	566661	keystroke_i	i	n/a
283.4665	0.056	566933	keystroke_Key.space	Key.space	n/a
283.562	0.0805	567124	keystroke_e	e	n/a
283.89	0.088	567780	keystroke_c	c	n/a
284.241	0.0735	568482	keystroke_Key.backspace	Key.backspace	n/a
284.3065	0.103	568613	keystroke_x	x	n/a
284.482	0.0965	568964	keystroke_c	c	n/a
284.6265	0.119	569253	keystroke_i	i	n/a
284.9385	0.072	569877	keystroke_t	t	n/a
285.0905	0.095	570181	keystroke_e	e	n/a
285.2415	0.073	570483	keystroke_m	m	n/a
285.3295	0.096	570659	keystroke_e	e	n/a
285.4335	0.1045	570867	keystroke_n	n	n/a
285.4665	0.095	570933	keystroke_t	t	n/a
285.5455	0.064	571091	keystroke_Key.space	Key.space	n/a
285.7695	0.065	571539	keystroke_l	l	n/a
285.922	0.1045	571844	keystroke_o	o	n/a
285.9945	0.055	571989	keystroke_v	v	n/a
286.0985	0.0955	572197	keystroke_e	e	n/a
286.21	0.048	572420	keystroke_l	l	n/a
286.338	0.112	572676	keystroke_y	y	n/a
286.402	0.088	572804	keystroke_Key.space	Key.space	n/a
286.546	0.088	573092	keystroke_c	c	n/a
286.6425	0.0955	573285	keystroke_h	h	n/a
286.73	0.0805	573460	keystroke_e	e	n/a
286.8975	0.08	573795	keystroke_v	v	n/a
287.082	0.0955	574164	keystroke_r	r	n/a
287.17	0.0645	574340	keystroke_o	o	n/a
287.3385	0.095	574677	keystroke_l	l	n/a
287.4095	0.0885	574819	keystroke_e	e	n/a
287.5375	0.08	575075	keystroke_t	t	n/a
287.6975	0.064	575395	keystroke_Key.enter	Key.enter	n/a
287.767	5.4605	575534	prompt	n/a	like persistent wiley techrepublic\n
288.282	0.072	576564	keystroke_l	l	n/a
288.4175	0.0565	576835	keystroke_i	i	n/a
288.5705	0.0955	577141	keystroke_k	k	n/a
288.6255	0.104	577251	keystroke_e	e	n/a
288.6735	0.072	577347	keystroke_Key.space	Key.space	n/a
288.7615	0.112	577523	keystroke_p	p	n/a
288.8415	0.096	577683	keystroke_e	e	n/a
288.9135	0.1045	577827	keystroke_r	r	n/a
289.0335	0.096	578067	keystroke_s	s	n/a
289.1215	0.104	578243	keystroke_i	i	n/a
289.2185	0.096	578437	keystroke_s	s	n/a
289.29	0.0875	578580	keystroke_t	t	n/a
289.3625	0.0875	578725	keystroke_e	e	n/a
289.522	0.136	579044	keystroke_n	n	n/a
289.666	0.072	579332	keystroke_Key.space	Key.space	n/a
290.0015	0.081	580003	keystroke_Key.backspace	Key.backspace	n/a
290.0985	0.111	580197	keystroke_t	t	n/a
290.17	0.0795	580340	keystroke_Key.space	Key.space	n/a
290.5455	0.104	581091	keystroke_w	w	n/a
290.7135	0.089	581427	keystroke_i	i	n/a
290.9215	0.096	581843	keystroke_l	l	n/a
291.0095	0.088	582019	keystroke_e	e	n/a
291.162	0.1115	582324	keystroke_y	y	n/a
291.2415	0.064	582483	keystroke_Key.space	Key.space	n/a
291.3615	0.1285	582723	keystroke_t	t	n/a
291.442	0.0965	582884	keystroke_e	e	n/a
291.634	0.088	583268	keystroke_c	c	n/a
291.6905	0.0795	583381	keystroke_h	h	n/a
292.1785	0.1515	584357	keystroke_r	r	n/a
292.274	0.096	584548	keystroke_e	e	n/a
292.4655	0.0805	584931	keystroke_p	p	n/a
292.57	0.096	585140	keystroke_u	u	n/a
292.674	0.096	585348	keystroke_b	b	n/a
292.794	0.04	585588	keystroke_l	l	n/a
292.8505	0.096	585701	keystroke_i	i	n/a
292.962	0.096	585924	keystroke_c	c	n/a
293.138	0.0875	586276	keystroke_Key.enter	Key.enter	n/a
293.232	4.053	586464	prompt	n/a	pics nylon remains traffic\n
293.8265	0.0475	587653	keystroke_p	p	n/a
293.938	0.1035	587876	keystroke_i	i	n/a
294.0255	0.128	588051	keystroke_c	c	n/a
294.1295	0.0805	588259	keystroke_Key.space	Key.space	n/a
294.4255	0.0725	588851	keystroke_Key.backspace	Key.backspace	n/a
294.4655	0.1045	588931	keystroke_s	s	n/a
294.522	0.08	589044	keystroke_Key.space	Key.space	n/a
294.8575	0.0965	589715	keystroke_n	n	n/a
295.0655	0.0645	590131	keystroke_y	y	n/a
295.2175	0.0645	590435	keystroke_l	l	n/a
295.3615	0.1125	590723	keystroke_o	o	n/a
295.418	0.1365	590836	keystroke_n	n	n/a
295.5295	0.04	591059	keystroke_Key.space	Key.space	n/a
295.5945	0.1035	591189	keystroke_r	r	n/a
295.65	0.088	591300	keystroke_e	e	n/a
295.7455	0.1045	591491	keystroke_m	m	n/a
295.8745	0.096	591749	keystroke_a	a	n/a
295.914	0.0715	591828	keystroke_i	i	n/a
295.9935	0.153	591987	keystroke_n	n	n/a
296.083	0.1035	592166	keystroke_s	s	n/a
296.1295	0.072	592259	keystroke_Key.space	Key.space	n/a
296.2735	0.0805	592547	keystroke_t	t	n/a
296.45	0.096	592900	keystroke_r	r	n/a
296.514	0.08	593028	keystroke_a	a	n/a
296.69	0.0725	593380	keystroke_f	f	n/a
296.8255	0.064	593651	keystroke_f	f	n/a
296.9145	0.112	593829	keystroke_i	i	n/a
297.01	0.0795	594020	keystroke_c	c	n/a
297.1935	0.089	594387	keystroke_Key.enter	Key.enter	n/a
297.2935	5.574	594587	prompt	n/a	context powerseller angela battle\n
297.89	0.096	595780	keystroke_c	c	n/a
297.962	0.1115	595924	keystroke_o	o	n/a
298.018	0.144	596036	keystroke_n	n	n/a
298.106	0.104	596212	keystroke_t	t	n/a
298.178	0.088	596356	keystroke_e	e	n/a
298.37	0.0805	596740	keystroke_x	x	n/a
298.586	0.096	597172	keystroke_t	t	n/a
298.674	0.064	597348	keystroke_Key.space	Key.space	n/a
298.882	0.064	597764	keystroke_p	p	n/a
299.018	0.1125	598036	keystroke_o	o	n/a
299.09	0.0875	598180	keystroke_w	w	n/a
299.1145	0.135	598229	keystroke_e	e	n/a
299.1865	0.087	598373	keystroke_r	r	n/a
299.418	0.1045	598836	keystroke_s	s	n/a
299.778	0.08	599556	keystroke_e	e	n/a
299.93	0.0475	599860	keystroke_l	l	n/a
300.042	0.0955	600084	keystroke_l	l	n/a
300.1295	0.1925	600259	keystroke_e	e	n/a
300.218	0.152	600436	keystroke_r	r	n/a
300.322	0.096	600644	keystroke_Key.space	Key.space	n/a
300.514	0.12	601028	keystroke_a	a	n/a
300.794	0.08	601588	keystroke_g	g	n/a
301.074	0.0635	602148	keystroke_Key.backspace	Key.backspace	n/a
301.242	0.128	602484	keystroke_n	n	n/a
301.329	0.073	602658	keystroke_g	g	n/a
301.362	0.119	602724	keystroke_e	e	n/a
301.521	0.121	603042	keystroke_l	l	n/a
301.6175	0.0885	603235	keystroke_a	a	n/a
301.698	0.055	603396	keystroke_Key.space	Key.space	n/a
301.89	0.088	603780	keystroke_b	b	n/a
302.1615	0.0725	604323	keystroke_a	a	n/a
302.306	0.064	604612	keystroke_t	t	n/a
302.434	0.064	604868	keystroke_t	t	n/a
302.538	0.104	605076	keystroke_l	l	n/a
302.618	0.063	605236	keystroke_e	e	n/a
302.794	0.0725	605588	keystroke_Key.enter	Key.enter	n/a
302.8705	4.5575	605741	prompt	n/a	portfolio anchor involved avoid\n
303.401	0.0645	606802	keystroke_p	p	n/a
303.546	0.1045	607092	keystroke_o	o	n/a
303.706	0.071	607412	keystroke_r	r	n/a
303.858	0.0795	607716	keystroke_t	t	n/a
304.0735	0.1115	608147	keystroke_f	f	n/a
304.17	0.056	608340	keystroke_o	o	n/a
304.322	0.0715	608644	keystroke_l	l	n/a
304.4655	0.144	608931	keystroke_i	i	n/a
304.5295	0.136	609059	keystroke_o	o	n/a
304.6815	0.0805	609363	keystroke_Key.space	Key.space	n/a
304.7695	0.08	609539	keystroke_a	a	n/a
304.89	0.096	609780	keystroke_n	n	n/a
305.0585	0.111	610117	keystroke_c	c	n/a
305.162	0.1115	610324	keystroke_h	h	n/a
305.4425	0.111	610885	keystroke_o	o	n/a
305.5295	0.128	611059	keystroke_r	r	n/a
305.6095	0.08	611219	keystroke_Key.space	Key.space	n/a
305.7855	0.0645	611571	keystroke_i	i	n/a
305.9145	0.0955	611829	keystroke_n	n	n/a
305.993	0.089	611986	keystroke_v	v	n/a
306.098	0.056	612196	keystroke_o	o	n/a
306.242	0.152	612484	keystroke_l	l	n/a
306.314	0.072	612628	keystroke_v	v	n/a
306.418	0.08	612836	keystroke_e	e	n/a
306.57	0.088	613140	keystroke_d	d	n/a
306.65	0.0795	613300	keystroke_Key.space	Key.space	n/a
306.7305	0.1355	613461	keystroke_a	a	n/a
306.8575	0.088	613715	keystroke_v	v	n/a
306.97	0.16	613940	keystroke_o	o	n/a
307.0335	0.1285	614067	keystroke_i	i	n/a
307.154	0.0715	614308	keystroke_d	d	n/a
307.3375	0.088	614675	keystroke_Key.enter	Key.enter	n/a
307.4315	9.6835	614863	prompt	n/a	constitutional similarly smoking newfoundland\n
308.0735	0.096	616147	keystroke_c	c	n/a
308.106	0.12	616212	keystroke_o	o	n/a
308.1775	0.097	616355	keystroke_n	n	n/a
308.242	0.104	616484	keystroke_s	s	n/a
308.386	0.1035	616772	keystroke_t	t	n/a
308.4815	0.072	616963	keystroke_i	i	n/a
308.578	0.08	617156	keystroke_t	t	n/a
308.65	0.088	617300	keystroke_u	u	n/a
308.754	0.096	617508	keystroke_t	t	n/a
308.8255	0.1035	617651	keystroke_i	i	n/a
308.8655	0.1275	617731	keystroke_o	o	n/a
308.938	0.0875	617876	keystroke_n	n	n/a
309.042	0.095	618084	keystroke_a	a	n/a
309.1615	0.0965	618323	keystroke_l	l	n/a
309.2175	0.104	618435	keystroke_Key.space	Key.space	n/a
309.345	0.104	618690	keystroke_s	s	n/a
309.417	0.064	618834	keystroke_i	i	n/a
309.57	0.1125	619140	keystroke_m	m	n/a
309.641	0.12	619282	keystroke_i	i	n/a
309.722	0.1195	619444	keystroke_l	l	n/a
309.89	0.119	619780	keystroke_r	r	n/a
309.906	0.023	619812	keystroke_a	a	n/a
310.0345	0.0635	620069	keystroke_l	l	n/a
310.186	0.136	620372	keystroke_y	y	n/a
310.242	0.12	620484	keystroke_Key.space	Key.space	n/a
310.418	0.096	620836	keystroke_s	s	n/a
310.546	0.096	621092	keystroke_m	m	n/a
310.634	0.096	621268	keystroke_o	o	n/a
310.9935	0.0565	621987	keystroke_Key.backspace	Key.backspace	n/a
311.0975	0.048	622195	keystroke_Key.backspace	Key.backspace	n/a
311.2095	0.048	622419	keystroke_Key.backspace	Key.backspace	n/a
311.3215	0.048	622643	keystroke_Key.backspace	Key.backspace	n/a
311.4335	0.048	622867	keystroke_Key.backspace	Key.backspace	n/a
311.5385	0.0715	623077	keystroke_Key.backspace	Key.backspace	n/a
312.0575	0.08	624115	keystroke_Key.backspace	Key.backspace	n/a
312.498	0.0315	624996	keystroke_Key.backspace	Key.backspace	n/a
312.594	0.103	625188	keystroke_a	a	n/a
312.6655	0.0875	625331	keystroke_r	r	n/a
312.9615	0.08	625923	keystroke_l	l	n/a
313.1615	0.128	626323	keystroke_y	y	n/a
313.2495	0.12	626499	keystroke_Key.space	Key.space	n/a
313.834	0.1115	627668	keystroke_s	s	n/a
313.9135	0.1205	627827	keystroke_m	m	n/a
313.994	0.0795	627988	keystroke_o	o	n/a
314.1615	0.0565	628323	keystroke_k	k	n/a
314.306	0.0395	628612	keystroke_i	i	n/a
314.362	0.136	628724	keystroke_n	n	n/a
314.4095	0.1205	628819	keystroke_g	g	n/a
314.618	0.1115	629236	keystroke_n	n	n/a
314.6575	0.152	629315	keystroke_e	e	n/a
314.7295	0.1045	629459	keystroke_w	w	n/a
315.178	0.063	630356	keystroke_Key.backspace	Key.backspace	n/a
315.282	0.056	630564	keystroke_Key.backspace	Key.backspace	n/a
315.393	0.0725	630786	keystroke_Key.backspace	Key.backspace	n/a
315.474	0.095	630948	keystroke_Key.space	Key.space	n/a
315.577	0.1285	631154	keystroke_n	n	n/a
315.6575	0.1365	631315	keystroke_e	e	n/a
315.7375	0.0795	631475	keystroke_w	w	n/a
315.913	0.112	631826	keystroke_f	f	n/a
315.9935	0.144	631987	keystroke_o	o	n/a
316.082	0.079	632164	keystroke_u	u	n/a
316.249	0.1045	632498	keystroke_n	n	n/a
316.3135	0.0955	632627	keystroke_d	d	n/a
316.465	0.089	632930	keystroke_l	l	n/a
316.554	0.0955	633108	keystroke_a	a	n/a
316.6175	0.088	633235	keystroke_n	n	n/a
316.8335	0.096	633667	keystroke_d	d	n/a
317.0415	0.0715	634083	keystroke_Key.enter	Key.enter	n/a
317.126	4.2055	634252	prompt	n/a	placed lawyer romance slowly\n
317.8095	0.056	635619	keystroke_p	p	n/a
317.929	0.176	635858	keystroke_l	l	n/a
318.002	0.104	636004	keystroke_a	a	n/a
318.081	0.0645	636162	keystroke_c	c	n/a
318.1855	0.0645	636371	keystroke_e	e	n/a
318.337	0.081	636674	keystroke_d	d	n/a
318.385	0.0565	636770	keystroke_Key.space	Key.space	n/a
318.5055	0.1125	637011	keystroke_l	l	n/a
318.5695	0.0885	637139	keystroke_a	a	n/a
318.762	0.088	637524	keystroke_w	w	n/a
318.898	0.12	637796	keystroke_y	y	n/a
318.962	0.176	637924	keystroke_e	e	n/a
319.058	0.104	638116	keystroke_r	r	n/a
319.129	0.073	638258	keystroke_Key.space	Key.space	n/a
319.258	0.104	638516	keystroke_r	r	n/a
319.37	0.127	638740	keystroke_o	o	n/a
319.826	0.1195	639652	keystroke_m	m	n/a
320.0015	0.096	640003	keystroke_a	a	n/a
320.1055	0.152	640211	keystroke_n	n	n/a
320.2015	0.104	640403	keystroke_c	c	n/a
320.2585	0.119	640517	keystroke_e	e	n/a
320.3615	0.08	640723	keystroke_Key.space	Key.space	n/a
320.5375	0.08	641075	keystroke_s	s	n/a
320.6015	0.057	641203	keystroke_l	l	n/a
320.7455	0.0555	641491	keystroke_o	o	n/a
320.8095	0.0795	641619	keystroke_w	w	n/a
320.913	0.073	641826	keystroke_l	l	n/a
321.082	0.064	642164	keystroke_y	y	n/a
321.25	0.08	642500	keystroke_Key.enter	Key.enter	n/a
321.3355	5.4365	642671	prompt	n/a	crazy transmit baker demand\n
322.0335	0.08	644067	keystroke_c	c	n/a
322.21	0.1115	644420	keystroke_r	r	n/a
322.2975	0.0645	644595	keystroke_a	a	n/a
322.53	0.0955	645060	keystroke_z	z	n/a
322.6495	0.096	645299	keystroke_y	y	n/a
322.738	0.08	645476	keystroke_Key.space	Key.space	n/a
322.9535	0.0645	645907	keystroke_t	t	n/a
323.0975	0.096	646195	keystroke_r	r	n/a
323.138	0.0795	646276	keystroke_a	a	n/a
323.2895	0.105	646579	keystroke_m	m	n/a
323.5935	0.089	647187	keystroke_s	s	n/a
323.937	0.032	647874	keystroke_Key.backspace	Key.backspace	n/a
