onset	duration	sample	value	key	prompt_text
1.342	8.8325	2684	prompt	n/a	the quick brown fox jumps over a lazy dog\n
3.437	0.042	6874	keystroke	t	n/a
3.464	0.09	6928	keystroke	h	n/a
3.569	0.12	7138	keystroke	e	n/a
3.659	0.105	7318	keystroke	Key.space	n/a
3.824	0.09	7648	keystroke	q	n/a
4.004	0.075	8008	keystroke	u	n/a
4.2445	0.045	8489	keystroke	i	n/a
4.3945	0.06	8789	keystroke	c	n/a
4.4995	0.09	8999	keystroke	k	n/a
4.5745	0.105	9149	keystroke	Key.space	n/a
4.8145	0.06	9629	keystroke	b	n/a
4.9795	0.0905	9959	keystroke	o	n/a
5.07	0.0895	10140	keystroke	r	n/a
5.625	0.045	11250	keystroke	Key.backspace	n/a
5.744	0.061	11488	keystroke	Key.backspace	n/a
5.82	0.075	11640	keystroke	r	n/a
5.998	0.076	11996	keystroke	o	n/a
6.103	0.091	12206	keystroke	w	n/a
6.224	0.0895	12448	keystroke	n	n/a
6.284	0.0895	12568	keystroke	Key.space	n/a
6.496	0.06	12992	keystroke	f	n/a
6.5705	0.06	13141	keystroke	o	n/a
6.75	0.091	13500	keystroke	x	n/a
6.8855	0.091	13771	keystroke	Key.space	n/a
7.0225	0.09	14045	keystroke	j	n/a
7.1575	0.06	14315	keystroke	u	n/a
7.307	0.075	14614	keystroke	m	n/a
7.412	0.1045	14824	keystroke	p	n/a
7.577	0.0745	15154	keystroke	s	n/a
7.6965	0.12	15393	keystroke	Key.space	n/a
8.0125	0.089	16025	keystroke	o	n/a
8.1765	0.09	16353	keystroke	v	n/a
8.2815	0.135	16563	keystroke	e	n/a
8.3715	0.121	16743	keystroke	r	n/a
8.477	0.0895	16954	keystroke	Key.space	n/a
8.6115	0.105	17223	keystroke	a	n/a
8.7765	0.0905	17553	keystroke	Key.space	n/a
8.957	0.09	17914	keystroke	l	n/a
9.092	0.09	18184	keystroke	a	n/a
9.302	0.075	18604	keystroke	z	n/a
9.407	0.105	18814	keystroke	y	n/a
9.497	0.075	18994	keystroke	Key.space	n/a
9.812	0.045	19624	keystroke	d	n/a
9.842	0.09	19684	keystroke	o	n/a
9.977	0.06	19954	keystroke	g	n/a
10.1115	0.06	20223	keystroke	Key.enter	n/a
10.179	8.1395	20358	prompt	n/a	who symposium diseases helicopter\n
11.012	0.0895	22024	keystroke	w	n/a
11.0715	0.136	22143	keystroke	h	n/a
11.1615	0.12	22323	keystroke	o	n/a
11.2515	0.105	22503	keystroke	Key.space	n/a
11.4165	0.076	22833	keystroke	s	n/a
11.5815	0.06	23163	keystroke	y	n/a
11.7765	0.076	23553	keystroke	m	n/a
11.9265	0.121	23853	keystroke	p	n/a
12.0315	0.075	24063	keystroke	o	n/a
12.182	0.0745	24364	keystroke	s	n/a
12.2865	0.1055	24573	keystroke	i	n/a
12.437	0.075	24874	keystroke	u	n/a
12.632	0.09	25264	keystroke	m	n/a
12.767	0.0755	25534	keystroke	Key.space	n/a
13.1275	0.089	26255	keystroke	d	n/a
13.2315	0.09	26463	keystroke	i	n/a
13.3815	0.09	26763	keystroke	s	n/a
13.5615	0.166	27123	keystroke	e	n/a
13.7425	0.149	27485	keystroke	a	n/a
14.162	0.1795	28324	keystroke	s	n/a
14.3115	0.105	28623	keystroke	e	n/a
14.4615	0.106	28923	keystroke	s	n/a
14.5825	0.105	29165	keystroke	Key.space	n/a
14.732	0.12	29464	keystroke	h	n/a
14.822	0.105	29644	keystroke	i	n/a
15.137	0.06	30274	keystroke	Key.backspace	n/a
15.257	0.075	30514	keystroke	e	n/a
15.377	0.135	30754	keystroke	l	n/a
15.482	0.09	30964	keystroke	i	n/a
15.887	0.075	31774	keystroke	c	n/a
16.2625	0.089	32525	keystroke	o	n/a
16.3975	0.089	32795	keystroke	p	n/a
16.6215	0.091	33243	keystroke	t	n/a
16.8325	0.119	33665	keystroke	e	n/a
16.9075	0.09	33815	keystroke	r	n/a
18.2425	0.074	36485	keystroke	Key.enter	n/a
18.3215	6.9575	36643	prompt	n/a	rica collections consistently fake\n
19.1275	0.0745	38255	keystroke	r	n/a
19.232	0.075	38464	keystroke	i	n/a
19.382	0.075	38764	keystroke	c	n/a
19.547	0.075	39094	keystroke	a	n/a
19.637	0.09	39274	keystroke	Key.space	n/a
19.817	0.06	39634	keystroke	c	n/a
19.892	0.075	39784	keystroke	o	n/a
20.072	0.06	40144	keystroke	l	n/a
20.207	0.06	40414	keystroke	l	n/a
20.282	0.09	40564	keystroke	e	n/a
20.4765	0.09	40953	keystroke	c	n/a
20.6865	0.03	41373	keystroke	t	n/a
20.7615	0.1205	41523	keystroke	i	n/a
20.8215	0.1355	41643	keystroke	o	n/a
20.912	0.12	41824	keystroke	n	n/a
21.302	0.0605	42604	keystroke	s	n/a
21.3775	0.075	42755	keystroke	Key.space	n/a
21.6925	0.075	43385	keystroke	c	n/a
21.7825	0.075	43565	keystroke	o	n/a
21.8425	0.09	43685	keystroke	n	n/a
21.9925	0.075	43985	keystroke	s	n/a
22.1115	0.0755	44223	keystroke	i	n/a
22.232	0.075	44464	keystroke	s	n/a
22.487	0.09	44974	keystroke	t	n/a
22.742	0.075	45484	keystroke	e	n/a
23.7925	0.075	47585	keystroke	n	n/a
24.0625	0.045	48125	keystroke	t	n/a
24.2275	0.135	48455	keystroke	l	n/a
24.3475	0.12	48695	keystroke	y	n/a
24.4825	0.045	48965	keystroke	Key.space	n/a
24.6475	0.09	49295	keystroke	f	n/a
24.7675	0.09	49535	keystroke	a	n/a
24.9475	0.075	49895	keystroke	k	n/a
25.0975	0.045	50195	keystroke	e	n/a
25.2315	0.045	50463	keystroke	Key.enter	n/a
25.2825	5.3065	50565	prompt	n/a	enemies partner electron mail\n
25.8475	0.089	51695	keystroke	e	n/a
25.9515	0.06	51903	keystroke	n	n/a
26.0565	0.106	52113	keystroke	e	n/a
26.2515	0.09	52503	keystroke	m	n/a
26.5215	0.075	53043	keystroke	i	n/a
26.7165	0.09	53433	keystroke	e	n/a
26.8815	0.09	53763	keystroke	s	n/a
26.9565	0.09	53913	keystroke	Key.space	n/a
27.1665	0.075	54333	keystroke	p	n/a
27.2565	0.105	54513	keystroke	a	n/a
27.407	0.0755	54814	keystroke	r	n/a
27.917	0.045	55834	keystroke	t	n/a
28.1575	0.075	56315	keystroke	n	n/a
28.2775	0.105	56555	keystroke	e	n/a
28.5925	0.06	57185	keystroke	r	n/a
28.6825	0.075	57365	keystroke	Key.space	n/a
28.8475	0.0445	57695	keystroke	e	n/a
28.967	0.0755	57934	keystroke	l	n/a
29.057	0.0755	58114	keystroke	e	n/a
29.2525	0.105	58505	keystroke	c	n/a
29.4625	0.045	58925	keystroke	t	n/a
29.5975	0.075	59195	keystroke	r	n/a
29.6875	0.12	59375	keystroke	o	n/a
29.7775	0.12	59555	keystroke	n	n/a
29.8675	0.09	59735	keystroke	Key.space	n/a
29.9875	0.12	59975	keystroke	m	n/a
30.0925	0.0895	60185	keystroke	a	n/a
30.2125	0.104	60425	keystroke	i	n/a
30.2875	0.12	60575	keystroke	l	n/a
30.5115	0.075	61023	keystroke	Key.enter	n/a
30.592	4.888	61184	prompt	n/a	compatible onto surrey haiti\n
31.2165	0.075	62433	keystroke	c	n/a
31.3215	0.18	62643	keystroke	o	n/a
31.4415	0.105	62883	keystroke	m	n/a
31.5615	0.12	63123	keystroke	p	n/a
31.7115	0.09	63423	keystroke	a	n/a
31.8615	0.061	63723	keystroke	t	n/a
31.9825	0.06	63965	keystroke	i	n/a
32.1925	0.045	64385	keystroke	b	n/a
32.3125	0.09	64625	keystroke	l	n/a
32.4325	0.06	64865	keystroke	e	n/a
32.5375	0.09	65075	keystroke	Key.space	n/a
32.6875	0.15	65375	keystroke	o	n/a
32.8225	0.09	65645	keystroke	n	n/a
33.0025	0.0595	66005	keystroke	t	n/a
33.122	0.09	66244	keystroke	o	n/a
33.242	0.075	66484	keystroke	Key.space	n/a
33.482	0.09	66964	keystroke	s	n/a
33.587	0.045	67174	keystroke	u	n/a
33.692	0.075	67384	keystroke	r	n/a
33.872	0.06	67744	keystroke	r	n/a
34.142	0.0595	68284	keystroke	e	n/a
34.2465	0.105	68493	keystroke	y	n/a
34.3525	0.059	68705	keystroke	Key.space	n/a
34.7265	0.06	69453	keystroke	h	n/a
34.8165	0.105	69633	keystroke	a	n/a
34.9665	0.06	69933	keystroke	i	n/a
35.1165	0.06	70233	keystroke	t	n/a
35.2065	0.075	70413	keystroke	i	n/a
35.4015	0.075	70803	keystroke	Key.enter	n/a
35.484	6.805	70968	prompt	n/a	survive referring garmin colleges\n
36.3025	0.045	72605	keystroke	s	n/a
36.4075	0.075	72815	keystroke	u	n/a
36.5275	0.06	73055	keystroke	r	n/a
36.8125	0.045	73625	keystroke	v	n/a
36.8875	0.06	73775	keystroke	i	n/a
37.217	0.06	74434	keystroke	v	n/a
37.322	0.0745	74644	keystroke	e	n/a
37.4565	0.09	74913	keystroke	Key.space	n/a
37.6665	0.135	75333	keystroke	r	n/a
37.7865	0.15	75573	keystroke	e	n/a
38.447	0.12	76894	keystroke	f	n/a
38.6425	0.105	77285	keystroke	e	n/a
38.7625	0.075	77525	keystroke	r	n/a
38.8975	0.075	77795	keystroke	r	n/a
38.9875	0.105	77975	keystroke	i	n/a
39.0625	0.105	78125	keystroke	n	n/a
39.1525	0.06	78305	keystroke	g	n/a
39.2575	0.075	78515	keystroke	Key.space	n/a
39.6625	0.03	79325	keystroke	h	n/a
39.962	0.0445	79924	keystroke	Key.backspace	n/a
40.037	0.0905	80074	keystroke	g	n/a
40.1575	0.15	80315	keystroke	a	n/a
40.2925	0.06	80585	keystroke	r	n/a
40.4275	0.075	80855	keystroke	m	n/a
40.5625	0.12	81125	keystroke	i	n/a
40.6675	0.105	81335	keystroke	n	n/a
40.7875	0.09	81575	keystroke	Key.space	n/a
41.1175	0.06	82235	keystroke	c	n/a
41.1925	0.09	82385	keystroke	o	n/a
41.3575	0.0745	82715	keystroke	l	n/a
41.492	0.075	82984	keystroke	l	n/a
41.537	0.1055	83074	keystroke	e	n/a
41.7025	0.1195	83405	keystroke	g	n/a
41.792	0.105	83584	keystroke	e	n/a
42.1075	0.075	84215	keystroke	s	n/a
42.2125	0.075	84425	keystroke	Key.enter	n/a
42.2965	7.1775	84593	prompt	n/a	camp diesel dynamic authorization\n
43.0375	0.075	86075	keystroke	c	n/a
43.1275	0.09	86255	keystroke	a	n/a
43.2325	0.105	86465	keystroke	m	n/a
43.3525	0.09	86705	keystroke	p	n/a
43.5175	0.09	87035	keystroke	Key.space	n/a
43.8475	0.09	87695	keystroke	d	n/a
44.1775	0.06	88355	keystroke	i	n/a
44.2975	0.09	88595	keystroke	e	n/a
44.4925	0.075	88985	keystroke	s	n/a
44.5975	0.09	89195	keystroke	e	n/a
44.8525	0.089	89705	keystroke	l	n/a
44.9715	0.075	89943	keystroke	Key.space	n/a
45.5415	0.09	91083	keystroke	d	n/a
45.7075	0.074	91415	keystroke	y	n/a
45.9325	0.075	91865	keystroke	n	n/a
46.0665	0.09	92133	keystroke	a	n/a
46.172	0.075	92344	keystroke	m	n/a
46.382	0.06	92764	keystroke	i	n/a
46.517	0.1045	93034	keystroke	c	n/a
46.6515	0.09	93303	keystroke	Key.space	n/a
46.9675	0.09	93935	keystroke	a	n/a
47.0875	0.06	94175	keystroke	u	n/a
47.2225	0.06	94445	keystroke	t	n/a
47.3425	0.09	94685	keystroke	h	n/a
47.4625	0.105	94925	keystroke	o	n/a
47.612	0.075	95224	keystroke	r	n/a
47.777	0.075	95554	keystroke	i	n/a
47.987	0.12	95974	keystroke	a	n/a
48.482	0.045	96964	keystroke	Key.backspace	n/a
48.602	0.09	97204	keystroke	z	n/a
48.782	0.075	97564	keystroke	a	n/a
48.917	0.06	97834	keystroke	t	n/a
49.007	0.135	98014	keystroke	i	n/a
49.112	0.12	98224	keystroke	o	n/a
49.187	0.09	98374	keystroke	n	n/a
49.382	0.0895	98764	keystroke	Key.enter	n/a
49.477	7.4815	98954	prompt	n/a	conscious insects commission regime\n
50.177	0.105	100354	keystroke	c	n/a
50.252	0.12	100504	keystroke	o	n/a
50.327	0.12	100654	keystroke	n	n/a
51.7675	0.075	103535	keystroke	s	n/a
52.0075	0.075	104015	keystroke	c	n/a
52.1575	0.12	104315	keystroke	i	n/a
52.2475	0.12	104495	keystroke	o	n/a
52.3375	0.105	104675	keystroke	u	n/a
52.4575	0.06	104915	keystroke	s	n/a
52.5625	0.105	105125	keystroke	Key.space	n/a
52.7275	0.105	105455	keystroke	i	n/a
52.7875	0.105	105575	keystroke	n	n/a
53.0425	0.104	106085	keystroke	s	n/a
53.1165	0.09	106233	keystroke	e	n/a
53.3715	0.1505	106743	keystroke	c	n/a
53.627	0.06	107254	keystroke	t	n/a
53.852	0.06	107704	keystroke	s	n/a
53.942	0.09	107884	keystroke	Key.space	n/a
54.2275	0.075	108455	keystroke	c	n/a
54.3465	0.075	108693	keystroke	o	n/a
54.3915	0.061	108783	keystroke	m	n/a
54.4975	0.075	108995	keystroke	m	n/a
54.6925	0.059	109385	keystroke	i	n/a
54.8125	0.06	109625	keystroke	s	n/a
54.9475	0.074	109895	keystroke	s	n/a
55.0365	0.09	110073	keystroke	i	n/a
55.1115	0.12	110223	keystroke	o	n/a
55.2025	0.1045	110405	keystroke	n	n/a
55.2915	0.0755	110583	keystroke	Key.space	n/a
55.802	0.06	111604	keystroke	r	n/a
55.967	0.105	111934	keystroke	e	n/a
56.3275	0.1045	112655	keystroke	g	n/a
56.582	0.09	113164	keystroke	i	n/a
56.627	0.105	113254	keystroke	m	n/a
56.717	0.075	113434	keystroke	e	n/a
56.897	0.06	113794	keystroke	Key.enter	n/a
56.9615	9.012	113923	prompt	n/a	physics answering satisfy ieee\n
57.7515	0.0905	115503	keystroke	p	n/a
57.992	0.045	115984	keystroke	h	n/a
58.1865	0.03	116373	keystroke	y	n/a
58.3515	0.06	116703	keystroke	s	n/a
58.502	0.045	117004	keystroke	i	n/a
58.5915	0.106	117183	keystroke	c	n/a
58.8025	0.06	117605	keystroke	s	n/a
58.9075	0.09	117815	keystroke	Key.space	n/a
59.1025	0.0745	118205	keystroke	a	n/a
59.207	0.075	118414	keystroke	n	n/a
59.372	0.075	118744	keystroke	s	n/a
59.537	0.18	119074	keystroke	e	n/a
59.762	0.105	119524	keystroke	r	n/a
60.122	0.06	120244	keystroke	Key.backspace	n/a
60.302	0.075	120604	keystroke	w	n/a
60.407	0.06	120814	keystroke	Key.backspace	n/a
60.5565	0.06	121113	keystroke	Key.backspace	n/a
60.6465	0.135	121293	keystroke	w	n/a
60.7975	0.074	121595	keystroke	r	n/a
61.1115	0.09	122223	keystroke	e	n/a
61.3515	0.045	122703	keystroke	Key.backspace	n/a
61.4725	0.06	122945	keystroke	Key.backspace	n/a
61.5475	0.12	123095	keystroke	e	n/a
61.6375	0.09	123275	keystroke	r	n/a
61.7725	0.105	123545	keystroke	i	n/a
61.8625	0.09	123725	keystroke	n	n/a
61.9675	0.06	123935	keystroke	g	n/a
62.0725	0.045	124145	keystroke	Key.space	n/a
62.7175	0.075	125435	keystroke	s	n/a
62.8375	0.12	125675	keystroke	a	n/a
63.3775	0.06	126755	keystroke	t	n/a
63.4525	0.075	126905	keystroke	i	n/a
63.5875	0.075	127175	keystroke	s	n/a
63.7375	0.06	127475	keystroke	y	n/a
64.0075	0.075	128015	keystroke	Key.backspace	n/a
64.1125	0.09	128225	keystroke	f	n/a
64.2625	0.06	128525	keystroke	y	n/a
64.5775	0.0595	129155	keystroke	Key.space	n/a
65.147	0.06	130294	keystroke	i	n/a
65.312	0.045	130624	keystroke	e	n/a
65.477	0.06	130954	keystroke	e	n/a
65.657	0.06	131314	keystroke	e	n/a
65.912	0.06	131824	keystroke	Key.enter	n/a
65.9775	7.271	131955	prompt	n/a	sean describe smart whether\n
66.812	0.06	133624	keystroke	s	n/a
66.917	0.135	133834	keystroke	e	n/a
67.037	0.09	134074	keystroke	a	n/a
67.247	0.09	134494	keystroke	n	n/a
67.337	0.09	134674	keystroke	Key.space	n/a
67.637	0.06	135274	keystroke	d	n/a
67.772	0.105	135544	keystroke	e	n/a
68.057	0.045	136114	keystroke	s	n/a
68.777	0.075	137554	keystroke	Key.backspace	n/a
69.272	0.105	138544	keystroke	s	n/a
69.497	0.09	138994	keystroke	c	n/a
69.797	0.075	139594	keystroke	r	n/a
69.992	0.09	139984	keystroke	i	n/a
70.262	0.06	140524	keystroke	b	n/a
70.367	0.09	140734	keystroke	e	n/a
70.472	0.09	140944	keystroke	Key.space	n/a
70.622	0.075	141244	keystroke	s	n/a
70.802	0.06	141604	keystroke	m	n/a
70.877	0.135	141754	keystroke	a	n/a
71.027	0.075	142054	keystroke	r	n/a
71.042	0.045	142084	keystroke	e	n/a
71.222	0.06	142444	keystroke	t	n/a
71.552	0.03	143104	keystroke	Key.backspace	n/a
71.657	0.0595	143314	keystroke	Key.backspace	n/a
71.8815	0.045	143763	keystroke	t	n/a
72.0315	0.075	144063	keystroke	Key.space	n/a
72.2715	0.105	144543	keystroke	w	n/a
72.3775	0.059	144755	keystroke	h	n/a
72.4815	0.1205	144963	keystroke	e	n/a
72.677	0.09	145354	keystroke	t	n/a
72.7815	0.09	145563	keystroke	h	n/a
72.9015	0.105	145803	keystroke	e	n/a
72.9765	0.075	145953	keystroke	r	n/a
73.187	0.06	146374	keystroke	Key.enter	n/a
73.2525	5.8315	146505	prompt	n/a	decline miracle television paragraphs\n
73.967	0.06	147934	keystroke	d	n/a
74.147	0.09	148294	keystroke	e	n/a
74.372	0.075	148744	keystroke	c	n/a
74.537	0.09	149074	keystroke	l	n/a
74.612	0.135	149224	keystroke	i	n/a
74.702	0.105	149404	keystroke	n	n/a
74.837	0.06	149674	keystroke	e	n/a
74.927	0.105	149854	keystroke	Key.space	n/a
75.077	0.09	150154	keystroke	m	n/a
75.212	0.075	150424	keystroke	i	n/a
75.332	0.09	150664	keystroke	r	n/a
75.482	0.1055	150964	keystroke	a	n/a
75.692	0.06	151384	keystroke	c	n/a
75.827	0.12	151654	keystroke	l	n/a
75.932	0.06	151864	keystroke	e	n/a
76.052	0.09	152104	keystroke	Key.space	n/a
76.2915	0.136	152583	keystroke	t	n/a
76.3825	0.105	152765	keystroke	e	n/a
76.5325	0.12	153065	keystroke	l	n/a
76.6215	0.091	153243	keystroke	e	n/a
76.8475	0.06	153695	keystroke	v	n/a
76.9225	0.0745	153845	keystroke	i	n/a
77.087	0.045	154174	keystroke	s	n/a
77.147	0.12	154294	keystroke	i	n/a
77.237	0.12	154474	keystroke	o	n/a
77.327	0.1055	154654	keystroke	n	n/a
77.417	0.09	154834	keystroke	Key.space	n/a
77.5965	0.09	155193	keystroke	p	n/a
77.7015	0.12	155403	keystroke	a	n/a
77.8065	0.105	155613	keystroke	r	n/a
77.957	0.0895	155914	keystroke	a	n/a
78.1065	0.0605	156213	keystroke	g	n/a
78.3015	0.09	156603	keystroke	r	n/a
78.4215	0.091	156843	keystroke	a	n/a
78.6615	0.091	157323	keystroke	p	n/a
78.7525	0.074	157505	keystroke	h	n/a
78.8715	0.045	157743	keystroke	s	n/a
79.0215	0.06	158043	keystroke	Key.enter	n/a
79.0885	5.455	158177	prompt	n/a	fraser shapes coin differential\n
79.7115	0.06	159423	keystroke	f	n/a
79.8615	0.09	159723	keystroke	r	n/a
79.9665	0.15	159933	keystroke	a	n/a
80.1765	0.03	160353	keystroke	s	n/a
80.2365	0.075	160473	keystroke	e	n/a
80.7765	0.06	161553	keystroke	r	n/a
80.8815	0.0755	161763	keystroke	Key.space	n/a
81.077	0.06	162154	keystroke	s	n/a
81.152	0.075	162304	keystroke	h	n/a
81.287	0.09	162574	keystroke	a	n/a
81.362	0.09	162724	keystroke	p	n/a
81.467	0.09	162934	keystroke	e	n/a
81.557	0.1055	163114	keystroke	s	n/a
81.6475	0.0895	163295	keystroke	Key.space	n/a
81.872	0.105	163744	keystroke	c	n/a
81.977	0.195	163954	keystroke	o	n/a
82.112	0.165	164224	keystroke	i	n/a
82.247	0.12	164494	keystroke	n	n/a
82.367	0.075	164734	keystroke	Key.space	n/a
82.577	0.06	165154	keystroke	d	n/a
82.847	0.06	165694	keystroke	i	n/a
82.952	0.09	165904	keystroke	f	n/a
83.087	0.105	166174	keystroke	f	n/a
83.237	0.165	166474	keystroke	e	n/a
83.387	0.09	166774	keystroke	r	n/a
83.612	0.075	167224	keystroke	e	n/a
83.7465	0.075	167493	keystroke	n	n/a
83.8665	0.06	167733	keystroke	t	n/a
83.9715	0.105	167943	keystroke	i	n/a
84.1065	0.09	168213	keystroke	a	n/a
84.2565	0.09	168513	keystroke	l	n/a
84.4515	0.09	168903	keystroke	Key.enter	n/a
84.5465	5.427	169093	prompt	n/a	pacific nursery arnold teddy\n
85.1415	0.075	170283	keystroke	p	n/a
85.2315	0.09	170463	keystroke	a	n/a
85.4265	0.06	170853	keystroke	c	n/a
85.5165	0.075	171033	keystroke	i	n/a
85.6965	0.06	171393	keystroke	f	n/a
85.8025	0.075	171605	keystroke	i	n/a
86.0125	0.06	172025	keystroke	c	n/a
86.0865	0.076	172173	keystroke	Key.space	n/a
86.2825	0.06	172565	keystroke	n	n/a
86.4475	0.045	172895	keystroke	u	n/a
86.5375	0.06	173075	keystroke	r	n/a
86.762	0.075	173524	keystroke	s	n/a
86.987	0.06	173974	keystroke	e	n/a
87.272	0.045	174544	keystroke	r	n/a
87.497	0.015	174994	keystroke	y	n/a
87.602	0.075	175204	keystroke	Key.space	n/a
87.737	0.1045	175474	keystroke	a	n/a
87.9165	0.046	175833	keystroke	n	n/a
88.2465	0.045	176493	keystroke	Key.backspace	n/a
88.3515	0.06	176703	keystroke	r	n/a
88.4865	0.105	176973	keystroke	n	n/a
88.6065	0.105	177213	keystroke	o	n/a
88.7865	0.09	177573	keystroke	l	n/a
88.9215	0.045	177843	keystroke	d	n/a
89.0115	0.06	178023	keystroke	Key.space	n/a
89.2065	0.105	178413	keystroke	t	n/a
89.2965	0.12	178593	keystroke	e	n/a
89.5215	0.045	179043	keystroke	d	n/a
89.6415	0.075	179283	keystroke	d	n/a
89.7315	0.06	179463	keystroke	y	n/a
89.8965	0.075	179793	keystroke	Key.enter	n/a
89.977	5.6065	179954	prompt	n/a	font default gilbert ronald\n
90.5415	0.075	181083	keystroke	f	n/a
90.6175	0.089	181235	keystroke	o	n/a
90.8415	0.09	181683	keystroke	n	n/a
91.1565	0.045	182313	keystroke	t	n/a
91.2465	0.06	182493	keystroke	Key.space	n/a
91.4415	0.06	182883	keystroke	d	n/a
91.6065	0.045	183213	keystroke	e	n/a
91.7565	0.075	183513	keystroke	f	n/a
91.8915	0.09	183783	keystroke	a	n/a
92.0265	0.06	184053	keystroke	u	n/a
92.1765	0.105	184353	keystroke	l	n/a
92.3115	0.06	184623	keystroke	t	n/a
92.3865	0.09	184773	keystroke	Key.space	n/a
92.9265	0.075	185853	keystroke	g	n/a
93.0765	0.075	186153	keystroke	i	n/a
93.2115	0.105	186423	keystroke	l	n/a
93.5265	0.045	187053	keystroke	b	n/a
93.7065	0.135	187413	keystroke	e	n/a
93.8115	0.09	187623	keystroke	r	n/a
94.0065	0.045	188013	keystroke	t	n/a
94.0965	0.1055	188193	keystroke	Key.space	n/a
94.487	0.075	188974	keystroke	r	n/a
94.577	0.09	189154	keystroke	o	n/a
94.772	0.045	189544	keystroke	n	n/a
94.862	0.105	189724	keystroke	a	n/a
94.997	0.09	189994	keystroke	l	n/a
95.357	0.03	190714	keystroke	d	n/a
95.507	0.075	191014	keystroke	Key.enter	n/a
95.586	4.0775	191172	prompt	n/a	strict rich unlike yard\n
96.137	0.075	192274	keystroke	s	n/a
96.302	0.06	192604	keystroke	t	n/a
96.422	0.0745	192844	keystroke	r	n/a
96.5265	0.075	193053	keystroke	i	n/a
96.6765	0.06	193353	keystroke	c	n/a
96.8425	0.059	193685	keystroke	t	n/a
96.9465	0.09	193893	keystroke	Key.space	n/a
97.2615	0.045	194523	keystroke	r	n/a
97.3815	0.075	194763	keystroke	i	n/a
97.5165	0.09	195033	keystroke	c	n/a
97.6365	0.075	195273	keystroke	h	n/a
97.6965	0.09	195393	keystroke	Key.space	n/a
97.8465	0.075	195693	keystroke	u	n/a
98.0265	0.075	196053	keystroke	n	n/a
98.1315	0.165	196263	keystroke	l	n/a
98.2815	0.09	196563	keystroke	i	n/a
98.4465	0.0755	196893	keystroke	k	n/a
98.537	0.06	197074	keystroke	e	n/a
98.627	0.1045	197254	keystroke	Key.space	n/a
98.7915	0.09	197583	keystroke	y	n/a
98.9265	0.12	197853	keystroke	a	n/a
99.1215	0.075	198243	keystroke	r	n/a
99.4065	0.09	198813	keystroke	d	n/a
99.5865	0.075	199173	keystroke	Key.enter	n/a
99.6665	4.782	199333	prompt	n/a	happy prophet plays computed\n
100.442	0.06	200884	keystroke	h	n/a
100.547	0.075	201094	keystroke	a	n/a
100.652	0.045	201304	keystroke	p	n/a
100.757	0.1045	201514	keystroke	p	n/a
100.8315	0.12	201663	keystroke	y	n/a
100.9215	0.09	201843	keystroke	Key.space	n/a
101.0715	0.105	202143	keystroke	p	n/a
101.2365	0.075	202473	keystroke	r	n/a
101.3415	0.076	202683	keystroke	o	n/a
101.6125	0.135	203225	keystroke	p	n/a
101.8225	0.06	203645	keystroke	h	n/a
101.9875	0.09	203975	keystroke	e	n/a
102.2125	0.0595	204425	keystroke	t	n/a
102.317	0.0755	204634	keystroke	Key.space	n/a
102.4525	0.105	204905	keystroke	p	n/a
102.6625	0.09	205325	keystroke	l	n/a
102.767	0.06	205534	keystroke	a	n/a
102.872	0.06	205744	keystroke	y	n/a
103.022	0.075	206044	keystroke	s	n/a
103.097	0.075	206194	keystroke	Key.space	n/a
103.292	0.075	206584	keystroke	c	n/a
103.382	0.165	206764	keystroke	o	n/a
103.532	0.105	207064	keystroke	m	n/a
103.697	0.12	207394	keystroke	p	n/a
103.847	0.075	207694	keystroke	u	n/a
103.952	0.1045	207904	keystroke	t	n/a
104.0715	0.1055	208143	keystroke	e	n/a
104.267	0.06	208534	keystroke	d	n/a
104.402	0.045	208804	keystroke	Key.enter	n/a
104.4555	7.8675	208911	prompt	n/a	for integrity suspended riders\n
105.137	0.075	210274	keystroke	f	n/a
105.227	0.06	210454	keystroke	o	n/a
105.302	0.09	210604	keystroke	r	n/a
105.392	0.135	210784	keystroke	Key.space	n/a
105.527	0.09	211054	keystroke	i	n/a
105.587	0.105	211174	keystroke	n	n/a
106.097	0.09	212194	keystroke	t	n/a
106.217	0.09	212434	keystroke	e	n/a
106.622	0.045	213244	keystroke	g	n/a
107.027	0.015	214054	keystroke	Key.backspace	n/a
107.4765	0.06	214953	keystroke	g	n/a
107.792	0.06	215584	keystroke	i	n/a
108.092	0.06	216184	keystroke	Key.backspace	n/a
108.2575	0.074	216515	keystroke	r	n/a
108.6465	0.06	217293	keystroke	i	n/a
108.7965	0.045	217593	keystroke	t	n/a
108.9165	0.09	217833	keystroke	y	n/a
108.9915	0.075	217983	keystroke	Key.space	n/a
109.6065	0.075	219213	keystroke	s	n/a
109.7115	0.0455	219423	keystroke	u	n/a
109.817	0.075	219634	keystroke	s	n/a
110.0565	0.075	220113	keystroke	p	n/a
110.282	0.06	220564	keystroke	e	n/a
110.447	0.045	220894	keystroke	n	n/a
110.552	0.06	221104	keystroke	d	n/a
110.687	0.075	221374	keystroke	e	n/a
110.852	0.075	221704	keystroke	d	n/a
110.942	0.1195	221884	keystroke	Key.space	n/a
111.1665	0.06	222333	keystroke	r	n/a
111.2715	0.06	222543	keystroke	i	n/a
111.5115	0.075	223023	keystroke	d	n/a
111.6775	0.105	223355	keystroke	e	n/a
111.7675	0.105	223535	keystroke	r	n/a
111.9325	0.09	223865	keystroke	s	n/a
112.262	0.06	224524	keystroke	Key.enter	n/a
112.326	6.6425	224652	prompt	n/a	nervous weed accepting presents\n
112.9215	0.075	225843	keystroke	n	n/a
113.0415	0.135	226083	keystroke	e	n/a
113.1615	0.0755	226323	keystroke	r	n/a
113.432	0.06	226864	keystroke	v	n/a
113.522	0.105	227044	keystroke	o	n/a
113.582	0.0905	227164	keystroke	u	n/a
113.687	0.075	227374	keystroke	s	n/a
113.777	0.105	227554	keystroke	Key.space	n/a
113.897	0.12	227794	keystroke	w	n/a
113.987	0.075	227974	keystroke	e	n/a
114.137	0.09	228274	keystroke	e	n/a
114.317	0.06	228634	keystroke	d	n/a
114.587	0.06	229174	keystroke	s	n/a
114.932	0.03	229864	keystroke	Key.backspace	n/a
115.067	0.105	230134	keystroke	a	n/a
115.487	0.09	230974	keystroke	Key.backspace	n/a
115.592	0.0595	231184	keystroke	Key.space	n/a
115.6825	0.089	231365	keystroke	a	n/a
115.9365	0.045	231873	keystroke	c	n/a
116.0565	0.06	232113	keystroke	c	n/a
116.2365	0.075	232473	keystroke	e	n/a
116.3265	0.09	232653	keystroke	p	n/a
116.5065	0.06	233013	keystroke	t	n/a
116.5825	0.104	233165	keystroke	i	n/a
116.6425	0.104	233285	keystroke	n	n/a
116.7615	0.06	233523	keystroke	g	n/a
116.8365	0.09	233673	keystroke	Key.space	n/a
117.1065	0.06	234213	keystroke	p	n/a
117.3015	0.15	234603	keystroke	r	n/a
117.4965	0.09	234993	keystroke	e	n/a
117.8425	0.105	235685	keystroke	s	n/a
118.082	0.045	236164	keystroke	e	n/a
118.187	0.0755	236374	keystroke	n	n/a
118.3075	0.06	236615	keystroke	t	n/a
118.6225	0.059	237245	keystroke	s	n/a
118.9065	0.061	237813	keystroke	Key.enter	n/a
118.9715	4.542	237943	prompt	n/a	up hollywood weird screen\n
119.567	0.15	239134	keystroke	u	n/a
119.702	0.075	239404	keystroke	p	n/a
119.792	0.105	239584	keystroke	Key.space	n/a
119.9865	0.09	239973	keystroke	h	n/a
120.0615	0.106	240123	keystroke	o	n/a
120.2715	0.06	240543	keystroke	l	n/a
120.3915	0.09	240783	keystroke	l	n/a
120.512	0.075	241024	keystroke	y	n/a
120.647	0.075	241294	keystroke	w	n/a
120.767	0.105	241534	keystroke	o	n/a
120.932	0.09	241864	keystroke	o	n/a
121.052	0.06	242104	keystroke	d	n/a
121.157	0.09	242314	keystroke	Key.space	n/a
121.322	0.09	242644	keystroke	w	n/a
121.547	0.075	243094	keystroke	e	n/a
121.757	0.06	243514	keystroke	i	n/a
121.892	0.075	243784	keystroke	r	n/a
122.132	0.075	244264	keystroke	d	n/a
122.267	0.075	244534	keystroke	Key.space	n/a
122.432	0.105	244864	keystroke	s	n/a
122.642	0.06	245284	keystroke	c	n/a
122.852	0.105	245704	keystroke	r	n/a
122.912	0.12	245824	keystroke	e	n/a
123.182	0.015	246364	keystroke	e	n/a
123.2565	0.06	246513	keystroke	n	n/a
123.4515	0.06	246903	keystroke	Key.enter	n/a
123.5165	8.727	247033	prompt	n/a	thanks houston consolidated turn\n
124.277	0.0745	248554	keystroke	t	n/a
124.3665	0.075	248733	keystroke	h	n/a
124.457	0.09	248914	keystroke	a	n/a
124.5615	0.09	249123	keystroke	n	n/a
124.6365	0.09	249273	keystroke	k	n/a
124.7275	0.074	249455	keystroke	s	n/a
124.8465	0.12	249693	keystroke	Key.space	n/a
124.9215	0.135	249843	keystroke	h	n/a
125.0265	0.136	250053	keystroke	o	n/a
125.1165	0.105	250233	keystroke	u	n/a
125.2365	0.105	250473	keystroke	s	n/a
125.3865	0.135	250773	keystroke	o	n/a
125.5065	0.12	251013	keystroke	n	n/a
125.8365	0.06	251673	keystroke	Key.space	n/a
126.7515	0.06	253503	keystroke	Key.backspace	n/a
126.8865	0.075	253773	keystroke	Key.backspace	n/a
127.0365	0.06	254073	keystroke	Key.backspace	n/a
127.1425	0.059	254285	keystroke	t	n/a
127.2915	0.09	254583	keystroke	o	n/a
127.3515	0.12	254703	keystroke	n	n/a
127.4865	0.06	254973	keystroke	Key.space	n/a
128.582	0.06	257164	keystroke	c	n/a
128.657	0.0895	257314	keystroke	o	n/a
128.7915	0.075	257583	keystroke	n	n/a
129.4665	0.0605	258933	keystroke	s	n/a
129.662	0.06	259324	keystroke	o	n/a
129.797	0.135	259594	keystroke	l	n/a
129.917	0.075	259834	keystroke	i	n/a
130.0965	0.06	260193	keystroke	d	n/a
130.2315	0.135	260463	keystroke	a	n/a
130.3965	0.09	260793	keystroke	t	n/a
130.4565	0.105	260913	keystroke	e	n/a
130.6815	0.045	261363	keystroke	d	n/a
130.8165	0.09	261633	keystroke	Key.space	n/a
131.5815	0.075	263163	keystroke	t	n/a
131.7015	0.075	263403	keystroke	u	n/a
131.8365	0.045	263673	keystroke	r	n/a
131.9265	0.076	263853	keystroke	n	n/a
132.1665	0.075	264333	keystroke	Key.enter	n/a
132.2465	4.9175	264493	prompt	n/a	safari retailers idaho font\n
132.887	0.075	265774	keystroke	s	n/a
132.977	0.105	265954	keystroke	a	n/a
133.157	0.075	266314	keystroke	f	n/a
133.262	0.1355	266524	keystroke	a	n/a
133.4275	0.06	266855	keystroke	r	n/a
133.5625	0.09	267125	keystroke	i	n/a
133.6665	0.075	267333	keystroke	Key.space	n/a
133.8925	0.105	267785	keystroke	r	n/a
133.9825	0.12	267965	keystroke	e	n/a
134.147	0.09	268294	keystroke	t	n/a
134.297	0.105	268594	keystroke	a	n/a
134.417	0.105	268834	keystroke	i	n/a
134.492	0.18	268984	keystroke	l	n/a
134.657	0.09	269314	keystroke	e	n/a
134.807	0.105	269614	keystroke	r	n/a
134.972	0.075	269944	keystroke	s	n/a
135.107	0.09	270214	keystroke	Key.space	n/a
135.467	0.06	270934	keystroke	i	n/a
135.812	0.09	271624	keystroke	d	n/a
135.932	0.15	271864	keystroke	a	n/a
136.2315	0.12	272463	keystroke	h	n/a
136.3065	0.12	272613	keystroke	o	n/a
136.4415	0.075	272883	keystroke	Key.space	n/a
136.6065	0.06	273213	keystroke	f	n/a
136.6675	0.089	273335	keystroke	o	n/a
136.7715	0.075	273543	keystroke	n	n/a
136.9215	0.045	273843	keystroke	t	n/a
137.1165	0.045	274233	keystroke	Key.enter	n/a
137.1685	5.065	274337	prompt	n/a	alliance editions clan accept\n
137.822	0.075	275644	keystroke	a	n/a
138.077	0.06	276154	keystroke	l	n/a
138.197	0.12	276394	keystroke	l	n/a
138.302	0.105	276604	keystroke	i	n/a
138.467	0.09	276934	keystroke	a	n/a
138.602	0.075	277204	keystroke	n	n/a
138.707	0.0755	277414	keystroke	c	n/a
138.8725	0.075	277745	keystroke	e	n/a
138.9765	0.076	277953	keystroke	Key.space	n/a
139.2175	0.06	278435	keystroke	e	n/a
139.3825	0.135	278765	keystroke	d	n/a
139.5475	0.074	279095	keystroke	i	n/a
139.6515	0.06	279303	keystroke	t	n/a
139.7565	0.12	279513	keystroke	i	n/a
139.8315	0.15	279663	keystroke	o	n/a
139.9215	0.1205	279843	keystroke	n	n/a
140.087	0.06	280174	keystroke	s	n/a
140.1765	0.09	280353	keystroke	Key.space	n/a
140.6565	0.09	281313	keystroke	c	n/a
140.8065	0.105	281613	keystroke	l	n/a
140.927	0.075	281854	keystroke	a	n/a
141.017	0.09	282034	keystroke	n	n/a
141.092	0.09	282184	keystroke	Key.space	n/a
141.212	0.09	282424	keystroke	a	n/a
141.407	0.06	282814	keystroke	c	n/a
141.5425	0.0745	283085	keystroke	c	n/a
141.752	0.045	283504	keystroke	e	n/a
141.872	0.06	283744	keystroke	p	n/a
141.947	0.075	283894	keystroke	t	n/a
142.157	0.075	284314	keystroke	Key.enter	n/a
142.2365	4.212	284473	prompt	n/a	profession were films roses\n
142.847	0.075	285694	keystroke	p	n/a
142.937	0.075	285874	keystroke	r	n/a
143.057	0.09	286114	keystroke	o	n/a
143.267	0.09	286534	keystroke	f	n/a
143.358	0.089	286716	keystroke	e	n/a
143.522	0.075	287044	keystroke	s	n/a
143.672	0.075	287344	keystroke	s	n/a
143.747	0.135	287494	keystroke	i	n/a
143.837	0.12	287674	keystroke	o	n/a
143.912	0.105	287824	keystroke	n	n/a
143.987	0.105	287974	keystroke	Key.space	n/a
144.167	0.135	288334	keystroke	w	n/a
144.377	0.09	288754	keystroke	e	n/a
144.482	0.105	288964	keystroke	r	n/a
144.542	0.105	289084	keystroke	e	n/a
144.692	0.09	289384	keystroke	Key.space	n/a
144.857	0.09	289714	keystroke	f	n/a
145.007	0.135	290014	keystroke	i	n/a
145.112	0.12	290224	keystroke	l	n/a
145.337	0.075	290674	keystroke	m	n/a
145.457	0.075	290914	keystroke	s	n/a
145.577	0.075	291154	keystroke	Key.space	n/a
145.727	0.075	291454	keystroke	r	n/a
145.817	0.09	291634	keystroke	o	n/a
145.937	0.135	291874	keystroke	s	n/a
146.042	0.18	292084	keystroke	e	n/a
146.192	0.105	292384	keystroke	s	n/a
146.387	0.0595	292774	keystroke	Key.enter	n/a
146.452	8.4115	292904	prompt	n/a	mysimon fiji funk polished\n
147.1225	0.105	294245	keystroke	m	n/a
147.3165	0.06	294633	keystroke	y	n/a
147.737	0.075	295474	keystroke	w	n/a
147.992	0.075	295984	keystroke	i	n/a
148.3665	0.06	296733	keystroke	Key.backspace	n/a
148.5165	0.06	297033	keystroke	Key.backspace	n/a
149.2365	0.06	298473	keystroke	s	n/a
149.3415	0.0905	298683	keystroke	i	n/a
149.417	0.105	298834	keystroke	m	n/a
149.6115	0.105	299223	keystroke	o	n/a
149.702	0.1045	299404	keystroke	n	n/a
149.8075	0.0895	299615	keystroke	Key.space	n/a
150.0915	0.06	300183	keystroke	f	n/a
150.1965	0.045	300393	keystroke	i	n/a
150.4065	0.15	300813	keystroke	j	n/a
150.4965	0.135	300993	keystroke	o	n/a
150.692	0.075	301384	keystroke	Key.space	n/a
151.532	0.045	303064	keystroke	Key.backspace	n/a
151.667	0.06	303334	keystroke	Key.backspace	n/a
151.877	0.06	303754	keystroke	i	n/a
151.967	0.075	303934	keystroke	Key.space	n/a
152.222	0.075	304444	keystroke	f	n/a
152.327	0.06	304654	keystroke	u	n/a
152.492	0.075	304984	keystroke	n	n/a
152.612	0.105	305224	keystroke	k	n/a
152.702	0.09	305404	keystroke	Key.space	n/a
152.987	0.105	305974	keystroke	p	n/a
153.077	0.075	306154	keystroke	o	n/a
153.3015	0.105	306603	keystroke	l	n/a
153.4075	0.075	306815	keystroke	i	n/a
153.5715	0.09	307143	keystroke	s	n/a
153.7215	0.061	307443	keystroke	h	n/a
153.8415	0.075	307683	keystroke	t	n/a
154.1265	0.076	308253	keystroke	e	n/a
154.3675	0.03	308735	keystroke	Key.backspace	n/a
154.4875	0.06	308975	keystroke	Key.backspace	n/a
154.5625	0.0595	309125	keystroke	e	n/a
154.697	0.09	309394	keystroke	d	n/a
154.802	0.06	309604	keystroke	Key.enter	n/a
154.867	6.3715	309734	prompt	n/a	debian spaces prostate sweden\n
155.7015	0.045	311403	keystroke	d	n/a
155.8515	0.06	311703	keystroke	e	n/a
156.0915	0.06	312183	keystroke	b	n/a
156.1965	0.121	312393	keystroke	i	n/a
156.3915	0.105	312783	keystroke	a	n/a
156.4815	0.106	312963	keystroke	n	n/a
156.5565	0.09	313113	keystroke	Key.space	n/a
156.8865	0.06	313773	keystroke	s	n/a
156.9915	0.076	313983	keystroke	p	n/a
157.0675	0.075	314135	keystroke	a	n/a
157.262	0.075	314524	keystroke	c	n/a
157.427	0.12	314854	keystroke	e	n/a
157.517	0.12	315034	keystroke	s	n/a
157.607	0.105	315214	keystroke	Key.space	n/a
157.742	0.135	315484	keystroke	p	n/a
157.922	0.075	315844	keystroke	r	n/a
158.042	0.075	316084	keystroke	o	n/a
158.3565	0.075	316713	keystroke	s	n/a
158.5215	0.045	317043	keystroke	t	n/a
158.5815	0.1355	317163	keystroke	a	n/a
158.672	0.15	317344	keystroke	t	n/a
158.807	0.105	317614	keystroke	e	n/a
159.002	0.09	318004	keystroke	Key.space	n/a
159.197	0.09	318394	keystroke	w	n/a
159.542	0.045	319084	keystroke	Key.backspace	n/a
159.632	0.075	319264	keystroke	s	n/a
159.782	0.12	319564	keystroke	w	n/a
159.887	0.15	319774	keystroke	e	n/a
160.172	0.09	320344	keystroke	d	n/a
160.322	0.075	320644	keystroke	e	n/a
160.5025	0.045	321005	keystroke	d	n/a
160.8175	0.03	321635	keystroke	Key.backspace	n/a
161.0125	0.06	322025	keystroke	n	n/a
161.1775	0.06	322355	keystroke	Key.enter	n/a
161.242	7.4665	322484	prompt	n/a	bouquet pichunter sustained displaying\n
161.9565	0.06	323913	keystroke	b	n/a
162.1215	0.0755	324243	keystroke	o	n/a
162.362	0.09	324724	keystroke	q	n/a
162.453	0.074	324906	keystroke	u	n/a
162.572	0.105	325144	keystroke	e	n/a
162.842	0.06	325684	keystroke	t	n/a
163.007	0.075	326014	keystroke	Key.space	n/a
163.277	0.09	326554	keystroke	p	n/a
163.442	0.06	326884	keystroke	i	n/a
163.817	0.075	327634	keystroke	c	n/a
163.9965	0.075	327993	keystroke	h	n/a
164.2215	0.0755	328443	keystroke	u	n/a
164.402	0.0745	328804	keystroke	n	n/a
164.672	0.0745	329344	keystroke	t	n/a
164.807	0.1195	329614	keystroke	e	n/a
164.8965	0.075	329793	keystroke	r	n/a
164.9865	0.0755	329973	keystroke	Key.space	n/a
165.152	0.09	330304	keystroke	s	n/a
165.257	0.06	330514	keystroke	u	n/a
165.377	0.09	330754	keystroke	s	n/a
165.557	0.075	331114	keystroke	t	n/a
165.662	0.105	331324	keystroke	a	n/a
165.812	0.105	331624	keystroke	i	n/a
165.887	0.105	331774	keystroke	n	n/a
166.007	0.06	332014	keystroke	e	n/a
166.187	0.075	332374	keystroke	d	n/a
166.277	0.075	332554	keystroke	Key.space	n/a
166.517	0.075	333034	keystroke	d	n/a
166.697	0.06	333394	keystroke	i	n/a
166.892	0.045	333784	keystroke	s	n/a
166.997	0.09	333994	keystroke	p	n/a
167.267	0.06	334534	keystroke	l	n/a
167.357	0.075	334714	keystroke	a	n/a
167.462	0.06	334924	keystroke	y	n/a
168.1365	0.09	336273	keystroke	i	n/a
168.1965	0.0905	336393	keystroke	n	n/a
168.302	0.0595	336604	keystroke	g	n/a
168.6465	0.0605	337293	keystroke	Key.enter	n/a
168.712	9.971	337424	prompt	n/a	flex sunglasses adjust generic\n
169.4715	0.09	338943	keystroke	f	n/a
169.6815	0.09	339363	keystroke	l	n/a
169.8165	0.045	339633	keystroke	e	n/a
170.057	0.075	340114	keystroke	x	n/a
170.162	0.09	340324	keystroke	Key.space	n/a
170.342	0.0445	340684	keystroke	s	n/a
170.4015	0.06	340803	keystroke	u	n/a
170.5515	0.0755	341103	keystroke	n	n/a
170.6715	0.0455	341343	keystroke	g	n/a
170.7765	0.09	341553	keystroke	l	n/a
170.927	0.18	341854	keystroke	a	n/a
171.077	0.075	342154	keystroke	s	n/a
171.227	0.075	342454	keystroke	s	n/a
171.347	0.09	342694	keystroke	e	n/a
171.482	0.105	342964	keystroke	s	n/a
171.602	0.09	343204	keystroke	Key.space	n/a
171.737	0.105	343474	keystroke	s	n/a
172.037	0.06	344074	keystroke	d	n/a
172.172	0.075	344344	keystroke	j	n/a
172.307	0.075	344614	keystroke	u	n/a
172.427	0.12	344854	keystroke	s	n/a
172.592	0.075	345184	keystroke	t	n/a
172.712	0.06	345424	keystroke	Key.space	n/a
172.967	0.075	345934	keystroke	g	n/a
173.072	0.09	346144	keystroke	e	n/a
173.207	0.06	346414	keystroke	n	n/a
173.327	0.165	346654	keystroke	e	n/a
173.462	0.105	346924	keystroke	r	n/a
173.7775	0.045	347555	keystroke	Key.backspace	n/a
173.912	0.06	347824	keystroke	Key.backspace	n/a
174.047	0.06	348094	keystroke	Key.backspace	n/a
174.2575	0.015	348515	keystroke	Key.backspace	n/a
174.3475	0.0595	348695	keystroke	Key.backspace	n/a
174.497	0.045	348994	keystroke	Key.backspace	n/a
174.617	0.06	349234	keystroke	Key.backspace	n/a
174.751	0.0765	349502	keystroke	Key.backspace	n/a
174.9025	0.059	349805	keystroke	Key.backspace	n/a
175.0365	0.076	350073	keystroke	Key.backspace	n/a
175.1865	0.06	350373	keystroke	Key.backspace	n/a
175.3065	0.075	350613	keystroke	Key.backspace	n/a
175.4725	0.074	350945	keystroke	a	n/a
175.7115	0.0605	351423	keystroke	d	n/a
176.3115	0.045	352623	keystroke	Key.backspace	n/a
176.6415	0.075	353283	keystroke	d	n/a
176.7915	0.1055	353583	keystroke	j	n/a
176.9415	0.075	353883	keystroke	u	n/a
177.032	0.1495	354064	keystroke	s	n/a
177.1665	0.045	354333	keystroke	t	n/a
177.2265	0.0905	354453	keystroke	Key.space	n/a
177.647	0.0595	355294	keystroke	g	n/a
177.737	0.1045	355474	keystroke	e	n/a
177.8865	0.075	355773	keystroke	n	n/a
177.9765	0.135	355953	keystroke	e	n/a
178.0815	0.105	356163	keystroke	r	n/a
178.3515	0.06	356703	keystroke	i	n/a
178.4715	0.075	356943	keystroke	c	n/a
178.6065	0.075	357213	keystroke	Key.enter	n/a
178.6885	4.825	357377	prompt	n/a	gabriel nikon grace drive\n
179.3865	0.09	358773	keystroke	g	n/a
179.4915	0.105	358983	keystroke	a	n/a
179.6865	0.075	359373	keystroke	b	n/a
179.9715	0.045	359943	keystroke	r	n/a
180.0615	0.045	360123	keystroke	i	n/a
180.1515	0.045	360303	keystroke	e	n/a
180.2865	0.105	360573	keystroke	l	n/a
180.3765	0.09	360753	keystroke	Key.space	n/a
180.7365	0.09	361473	keystroke	n	n/a
180.8265	0.075	361653	keystroke	i	n/a
181.0215	0.075	362043	keystroke	k	n/a
181.2015	0.09	362403	keystroke	o	n/a
181.3365	0.09	362673	keystroke	n	n/a
181.4715	0.075	362943	keystroke	Key.space	n/a
181.8765	0.06	363753	keystroke	g	n/a
182.0265	0.105	364053	keystroke	r	n/a
182.1465	0.075	364293	keystroke	a	n/a
182.3415	0.06	364683	keystroke	c	n/a
182.5065	0.06	365013	keystroke	e	n/a
182.5815	0.105	365163	keystroke	Key.space	n/a
182.7465	0.09	365493	keystroke	d	n/a
182.912	0.075	365824	keystroke	r	n/a
183.032	0.09	366064	keystroke	i	n/a
183.1515	0.105	366303	keystroke	v	n/a
183.242	0.1195	366484	keystroke	e	n/a
183.4215	0.09	366843	keystroke	Key.enter	n/a
183.516	12.0125	367032	prompt	n/a	flat decreased algebra recognized\n
184.397	0.075	368794	keystroke	f	n/a
184.532	0.075	369064	keystroke	l	n/a
184.652	0.135	369304	keystroke	a	n/a
184.802	0.06	369604	keystroke	t	n/a
184.907	0.09	369814	keystroke	Key.space	n/a
185.327	0.075	370654	keystroke	c	n/a
185.537	0.09	371074	keystroke	e	n/a
186.182	0.045	372364	keystroke	Key.backspace	n/a
186.332	0.045	372664	keystroke	Key.backspace	n/a
186.437	0.075	372874	keystroke	d	n/a
186.632	0.09	373264	keystroke	e	n/a
186.857	0.015	373714	keystroke	x	n/a
187.112	0.105	374224	keystroke	r	n/a
187.247	0.0445	374494	keystroke	e	n/a
187.3065	0.06	374613	keystroke	a	n/a
187.5315	0.06	375063	keystroke	Key.backspace	n/a
187.6665	0.06	375333	keystroke	Key.backspace	n/a
187.8015	0.06	375603	keystroke	Key.backspace	n/a
187.9515	0.075	375903	keystroke	Key.backspace	n/a
188.0115	0.09	376023	keystroke	c	n/a
188.282	0.09	376564	keystroke	r	n/a
188.342	0.1195	376684	keystroke	e	n/a
188.4765	0.045	376953	keystroke	q	n/a
188.7465	0.1055	377493	keystroke	s	n/a
188.897	0.12	377794	keystroke	e	n/a
189.422	0.075	378844	keystroke	Key.backspace	n/a
189.572	0.06	379144	keystroke	Key.backspace	n/a
189.7065	0.06	379413	keystroke	Key.backspace	n/a
189.8415	0.03	379683	keystroke	Key.backspace	n/a
189.9315	0.045	379863	keystroke	a	n/a
190.547	0.06	381094	keystroke	Key.backspace	n/a
190.667	0.105	381334	keystroke	e	n/a
190.787	0.21	381574	keystroke	a	n/a
190.982	0.09	381964	keystroke	s	n/a
191.267	0.06	382534	keystroke	e	n/a
191.4165	0.075	382833	keystroke	d	n/a
191.5065	0.075	383013	keystroke	Key.space	n/a
191.7615	0.105	383523	keystroke	a	n/a
191.8815	0.09	383763	keystroke	l	n/a
192.0015	0.075	384003	keystroke	g	n/a
192.0915	0.105	384183	keystroke	e	n/a
192.3765	0.06	384753	keystroke	b	n/a
192.5715	0.09	385143	keystroke	r	n/a
192.6915	0.105	385383	keystroke	a	n/a
192.7815	0.075	385563	keystroke	Key.space	n/a
193.0965	0.045	386193	keystroke	c	n/a
193.3515	0.06	386703	keystroke	Key.backspace	n/a
193.4415	0.09	386883	keystroke	r	n/a
193.5015	0.105	387003	keystroke	e	n/a
193.7265	0.0755	387453	keystroke	c	n/a
193.862	0.044	387724	keystroke	o	n/a
193.967	0.075	387934	keystroke	g	n/a
194.102	0.09	388204	keystroke	n	n/a
194.222	0.06	388444	keystroke	i	n/a
194.522	0.089	389044	keystroke	a	n/a
194.851	0.045	389702	keystroke	Key.backspace	n/a
194.912	0.1045	389824	keystroke	z	n/a
195.1675	0.0595	390335	keystroke	e	n/a
195.317	0.06	390634	keystroke	d	n/a
195.467	0.06	390934	keystroke	Key.enter	n/a
195.5335	5.9345	391067	prompt	n/a	amanda journalist implies payable\n
196.082	0.09	392164	keystroke	a	n/a
196.202	0.045	392404	keystroke	m	n/a
196.277	0.09	392554	keystroke	a	n/a
196.382	0.06	392764	keystroke	n	n/a
196.502	0.075	393004	keystroke	d	n/a
196.592	0.12	393184	keystroke	a	n/a
196.712	0.075	393424	keystroke	Key.space	n/a
196.892	0.105	393784	keystroke	j	n/a
197.012	0.165	394024	keystroke	o	n/a
197.312	0.075	394624	keystroke	u	n/a
197.567	0.0595	395134	keystroke	r	n/a
197.8665	0.06	395733	keystroke	n	n/a
198.0165	0.09	396033	keystroke	a	n/a
198.1215	0.105	396243	keystroke	l	n/a
198.2415	0.075	396483	keystroke	i	n/a
198.5565	0.105	397113	keystroke	s	n/a
198.7065	0.06	397413	keystroke	t	n/a
198.7965	0.075	397593	keystroke	Key.space	n/a
198.9165	0.135	397833	keystroke	i	n/a
199.0215	0.105	398043	keystroke	m	n/a
199.1275	0.104	398255	keystroke	p	n/a
199.2915	0.135	398583	keystroke	l	n/a
199.4415	0.09	398883	keystroke	i	n/a
199.5615	0.1355	399123	keystroke	e	n/a
199.682	0.15	399364	keystroke	s	n/a
199.832	0.06	399664	keystroke	Key.space	n/a
200.147	0.0895	400294	keystroke	p	n/a
200.2965	0.09	400593	keystroke	a	n/a
200.4015	0.075	400803	keystroke	y	n/a
200.7765	0.075	401553	keystroke	a	n/a
201.0015	0.06	402003	keystroke	b	n/a
201.1515	0.075	402303	keystroke	l	n/a
201.2715	0.06	402543	keystroke	e	n/a
201.3915	0.075	402783	keystroke	Key.enter	n/a
201.4705	5.683	402941	prompt	n/a	prepaid contact undo raises\n
202.127	0.0745	404254	keystroke	p	n/a
202.4115	0.15	404823	keystroke	r	n/a
202.5315	0.09	405063	keystroke	e	n/a
202.8765	0.075	405753	keystroke	a	n/a
202.9965	0.09	405993	keystroke	p	n/a
203.3115	0.03	406623	keystroke	Key.backspace	n/a
203.4315	0.03	406863	keystroke	Key.backspace	n/a
203.747	0.045	407494	keystroke	p	n/a
203.987	0.06	407974	keystroke	a	n/a
204.152	0.06	408304	keystroke	i	n/a
204.317	0.06	408634	keystroke	d	n/a
204.407	0.105	408814	keystroke	Key.space	n/a
204.692	0.0895	409384	keystroke	c	n/a
204.7665	0.09	409533	keystroke	o	n/a
204.8415	0.075	409683	keystroke	n	n/a
204.9765	0.12	409953	keystroke	t	n/a
205.1715	0.0605	410343	keystroke	a	n/a
205.352	0.09	410704	keystroke	c	n/a
205.547	0.045	411094	keystroke	t	n/a
205.622	0.06	411244	keystroke	Key.space	n/a
205.712	0.075	411424	keystroke	u	n/a
205.892	0.09	411784	keystroke	n	n/a
205.997	0.06	411994	keystroke	d	n/a
206.102	0.09	412204	keystroke	o	n/a
206.147	0.105	412294	keystroke	Key.space	n/a
206.357	0.0745	412714	keystroke	r	n/a
206.4465	0.105	412893	keystroke	a	n/a
206.5665	0.06	413133	keystroke	i	n/a
206.6865	0.105	413373	keystroke	s	n/a
206.8065	0.135	413613	keystroke	e	n/a
206.9265	0.105	413853	keystroke	s	n/a
207.0765	0.075	414153	keystroke	Key.enter	n/a
207.1565	6.8965	414313	prompt	n/a	gorgeous duration solo temperature\n
207.767	0.06	415534	keystroke	g	n/a
207.917	0.105	415834	keystroke	o	n/a
208.112	0.06	416224	keystroke	r	n/a
208.367	0.06	416734	keystroke	g	n/a
208.517	0.045	417034	keystroke	e	n/a
208.862	0.1195	417724	keystroke	o	n/a
209.5815	0.06	419163	keystroke	u	n/a
209.8815	0.075	419763	keystroke	s	n/a
210.0465	0.045	420093	keystroke	Key.space	n/a
210.6165	0.075	421233	keystroke	d	n/a
210.7365	0.075	421473	keystroke	u	n/a
210.8265	0.075	421653	keystroke	r	n/a
210.9765	0.135	421953	keystroke	a	n/a
211.0815	0.075	422163	keystroke	t	n/a
211.1865	0.135	422373	keystroke	i	n/a
211.2765	0.135	422553	keystroke	o	n/a
211.3665	0.09	422733	keystroke	n	n/a
211.4415	0.09	422883	keystroke	Key.space	n/a
211.6215	0.045	423243	keystroke	s	n/a
211.6675	0.089	423335	keystroke	o	n/a
211.8465	0.06	423693	keystroke	l	n/a
211.997	0.0595	423994	keystroke	o	n/a
212.0865	0.105	424173	keystroke	Key.space	n/a
212.2515	0.075	424503	keystroke	t	n/a
212.3715	0.12	424743	keystroke	e	n/a
212.5215	0.075	425043	keystroke	m	n/a
212.9265	0.075	425853	keystroke	p	n/a
213.0165	0.15	426033	keystroke	e	n/a
213.1365	0.105	426273	keystroke	r	n/a
213.2865	0.135	426573	keystroke	a	n/a
213.3915	0.06	426783	keystroke	t	n/a
213.5265	0.06	427053	keystroke	u	n/a
213.6465	0.12	427293	keystroke	r	n/a
213.7965	0.09	427593	keystroke	e	n/a
213.9765	0.075	427953	keystroke	Key.enter	n/a
214.0565	5.997	428113	prompt	n/a	furniture obvious disease cant\n
214.8615	0.09	429723	keystroke	f	n/a
214.9665	0.075	429933	keystroke	u	n/a
215.1015	0.075	430203	keystroke	r	n/a
215.2215	0.075	430443	keystroke	n	n/a
215.4315	0.06	430863	keystroke	i	n/a
215.5515	0.06	431103	keystroke	t	n/a
215.6565	0.075	431313	keystroke	u	n/a
215.7765	0.09	431553	keystroke	r	n/a
215.8365	0.12	431673	keystroke	e	n/a
216.0015	0.06	432003	keystroke	Key.space	n/a
216.182	0.09	432364	keystroke	o	n/a
216.332	0.06	432664	keystroke	b	n/a
216.527	0.045	433054	keystroke	i	n/a
216.812	0.045	433624	keystroke	Key.backspace	n/a
216.917	0.075	433834	keystroke	v	n/a
217.397	0.135	434794	keystroke	i	n/a
217.487	0.135	434974	keystroke	o	n/a
217.547	0.12	435094	keystroke	u	n/a
217.682	0.075	435364	keystroke	s	n/a
217.772	0.09	435544	keystroke	Key.space	n/a
218.207	0.06	436414	keystroke	d	n/a
218.342	0.075	436684	keystroke	i	n/a
218.627	0.105	437254	keystroke	s	n/a
218.732	0.165	437464	keystroke	e	n/a
218.882	0.135	437764	keystroke	a	n/a
219.077	0.12	438154	keystroke	s	n/a
219.182	0.105	438364	keystroke	e	n/a
219.332	0.075	438664	keystroke	Key.space	n/a
219.452	0.105	438904	keystroke	c	n/a
219.587	0.135	439174	keystroke	a	n/a
219.737	0.06	439474	keystroke	n	n/a
219.827	0.075	439654	keystroke	t	n/a
219.962	0.09	439924	keystroke	Key.enter	n/a
220.057	9.1615	440114	prompt	n/a	achievements singh guidance model\n
220.622	0.09	441244	keystroke	a	n/a
220.802	0.075	441604	keystroke	c	n/a
220.922	0.075	441844	keystroke	h	n/a
221.147	0.06	442294	keystroke	i	n/a
221.282	0.045	442564	keystroke	e	n/a
221.462	0.105	442924	keystroke	v	n/a
221.597	0.075	443194	keystroke	e	n/a
221.762	0.09	443524	keystroke	m	n/a
222.017	0.09	444034	keystroke	e	n/a
222.257	0.075	444514	keystroke	t	n/a
222.752	0.075	445504	keystroke	Key.backspace	n/a
222.977	0.045	445954	keystroke	n	n/a
223.082	0.09	446164	keystroke	t	n/a
223.262	0.09	446524	keystroke	s	n/a
223.457	0.045	446914	keystroke	Key.space	n/a
223.862	0.09	447724	keystroke	s	n/a
224.072	0.075	448144	keystroke	n	n/a
224.387	0.045	448774	keystroke	Key.backspace	n/a
224.612	0.075	449224	keystroke	i	n/a
224.657	0.075	449314	keystroke	n	n/a
224.777	0.06	449554	keystroke	g	n/a
224.972	0.045	449944	keystroke	h	n/a
225.107	0.075	450214	keystroke	Key.space	n/a
225.497	0.06	450994	keystroke	g	n/a
225.587	0.075	451174	keystroke	u	n/a
225.887	0.06	451774	keystroke	i	n/a
226.127	0.09	452254	keystroke	d	n/a
226.261	0.121	452522	keystroke	a	n/a
226.456	0.061	452912	keystroke	n	n/a
226.786	0.061	453572	keystroke	c	n/a
226.967	0.059	453934	keystroke	e	n/a
227.041	0.09	454082	keystroke	Key.space	n/a
227.357	0.104	454714	keystroke	m	n/a
227.447	0.074	454894	keystroke	o	n/a
227.567	0.0595	455134	keystroke	d	n/a
227.7315	0.045	455463	keystroke	e	n/a
227.8065	0.105	455613	keystroke	l	n/a
227.8965	0.075	455793	keystroke	Key.space	n/a
228.5115	0.06	457023	keystroke	Key.backspace	n/a
229.142	0.075	458284	keystroke	Key.enter	n/a
229.2215	5.4715	458443	prompt	n/a	refund nuts python phillips\n
230.222	0.1045	460444	keystroke	r	n/a
230.3115	0.12	460623	keystroke	e	n/a
230.5215	0.075	461043	keystroke	f	n/a
230.6115	0.075	461223	keystroke	u	n/a
230.7765	0.09	461553	keystroke	n	n/a
230.8965	0.09	461793	keystroke	d	n/a
230.9715	0.09	461943	keystroke	Key.space	n/a
231.1365	0.09	462273	keystroke	n	n/a
231.2865	0.075	462573	keystroke	u	n/a
231.3765	0.075	462753	keystroke	t	n/a
231.5415	0.06	463083	keystroke	s	n/a
231.5865	0.09	463173	keystroke	Key.space	n/a
231.7665	0.09	463533	keystroke	p	n/a
231.9015	0.075	463803	keystroke	y	n/a
232.3215	0.06	464643	keystroke	t	n/a
232.3965	0.09	464793	keystroke	h	n/a
232.4565	0.15	464913	keystroke	o	n/a
232.5765	0.135	465153	keystroke	n	n/a
232.6965	0.06	465393	keystroke	Key.space	n/a
232.9215	0.09	465843	keystroke	p	n/a
233.0865	0.09	466173	keystroke	h	n/a
233.2665	0.075	466533	keystroke	i	n/a
233.4015	0.075	466803	keystroke	l	n/a
233.5815	0.0455	467163	keystroke	l	n/a
234.032	0.105	468064	keystroke	i	n/a
234.332	0.09	468664	keystroke	p	n/a
234.482	0.075	468964	keystroke	s	n/a
234.602	0.09	469204	keystroke	Key.enter	n/a
234.6965	11.112	469393	prompt	n/a	instructions springs rational institutes\n
235.382	0.03	470764	keystroke	i	n/a
235.397	0.09	470794	keystroke	n	n/a
235.502	0.09	471004	keystroke	s	n/a
235.907	0.075	471814	keystroke	y	n/a
236.297	0.06	472594	keystroke	Key.backspace	n/a
236.462	0.06	472924	keystroke	y	n/a
236.957	0.075	473914	keystroke	Key.backspace	n/a
237.182	0.06	474364	keystroke	t	n/a
237.407	0.045	474814	keystroke	r	n/a
237.527	0.06	475054	keystroke	u	n/a
237.692	0.075	475384	keystroke	c	n/a
237.857	0.06	475714	keystroke	t	n/a
237.962	0.12	475924	keystroke	i	n/a
238.052	0.1195	476104	keystroke	o	n/a
238.127	0.105	476254	keystroke	n	n/a
238.247	0.075	476494	keystroke	s	n/a
238.352	0.09	476704	keystroke	Key.space	n/a
238.487	0.105	476974	keystroke	p	n/a
238.832	0.06	477664	keystroke	Key.backspace	n/a
238.952	0.09	477904	keystroke	s	n/a
239.087	0.075	478174	keystroke	p	n/a
239.207	0.075	478414	keystroke	r	n/a
239.357	0.09	478714	keystroke	i	n/a
239.432	0.09	478864	keystroke	n	n/a
239.717	0.075	479434	keystroke	g	n/a
239.912	0.06	479824	keystroke	s	n/a
240.017	0.075	480034	keystroke	Key.space	n/a
240.302	0.075	480604	keystroke	r	n/a
240.422	0.165	480844	keystroke	a	n/a
240.557	0.075	481114	keystroke	t	n/a
240.677	0.09	481354	keystroke	i	n/a
240.722	0.12	481444	keystroke	o	n/a
240.797	0.105	481594	keystroke	n	n/a
240.932	0.075	481864	keystroke	s	n/a
241.412	0.06	482824	keystroke	Key.backspace	n/a
241.517	0.09	483034	keystroke	a	n/a
241.682	0.105	483364	keystroke	l	n/a
241.787	0.075	483574	keystroke	Key.space	n/a
241.982	0.105	483964	keystroke	i	n/a
242.072	0.09	484144	keystroke	n	n/a
242.327	0.105	484654	keystroke	s	n/a
242.462	0.06	484924	keystroke	t	n/a
242.582	0.06	485164	keystroke	i	n/a
242.657	0.12	485314	keystroke	s	n/a
242.762	0.06	485524	keystroke	t	n/a
242.882	0.075	485764	keystroke	u	n/a
243.227	0.06	486454	keystroke	Key.backspace	n/a
243.362	0.075	486724	keystroke	Key.backspace	n/a
243.932	0.075	487864	keystroke	Key.backspace	n/a
244.832	0.06	489664	keystroke	t	n/a
244.997	0.075	489994	keystroke	u	n/a
245.297	0.09	490594	keystroke	t	n/a
245.372	0.105	490744	keystroke	e	n/a
245.522	0.105	491044	keystroke	s	n/a
245.717	0.09	491434	keystroke	Key.enter	n/a
245.812	6.7915	491624	prompt	n/a	wrestling extending grams mime\n
246.5725	0.104	493145	keystroke	w	n/a
246.7815	0.135	493563	keystroke	r	n/a
246.9015	0.09	493803	keystroke	e	n/a
247.3215	0.12	494643	keystroke	x	n/a
247.5165	0.075	495033	keystroke	t	n/a
247.9365	0.06	495873	keystroke	Key.backspace	n/a
248.0715	0.06	496143	keystroke	Key.backspace	n/a
248.1465	0.12	496293	keystroke	s	n/a
248.2365	0.105	496473	keystroke	t	n/a
248.5215	0.135	497043	keystroke	l	n/a
248.6115	0.165	497223	keystroke	i	n/a
248.7465	0.09	497493	keystroke	n	n/a
248.8665	0.06	497733	keystroke	g	n/a
248.9415	0.09	497883	keystroke	Key.space	n/a
249.2565	0.09	498513	keystroke	e	n/a
249.4815	0.075	498963	keystroke	x	n/a
249.7065	0.105	499413	keystroke	t	n/a
249.797	0.0895	499594	keystroke	e	n/a
250.0065	0.0605	500013	keystroke	n	n/a
250.1875	0.09	500375	keystroke	d	n/a
250.3065	0.09	500613	keystroke	i	n/a
250.3515	0.105	500703	keystroke	n	n/a
250.4415	0.06	500883	keystroke	g	n/a
250.5465	0.09	501093	keystroke	Key.space	n/a
250.7715	0.075	501543	keystroke	g	n/a
250.922	0.1045	501844	keystroke	r	n/a
251.0415	0.12	502083	keystroke	a	n/a
251.1315	0.105	502263	keystroke	m	n/a
251.2665	0.075	502533	keystroke	s	n/a
251.3565	0.105	502713	keystroke	Key.space	n/a
251.5365	0.09	503073	keystroke	m	n/a
251.6565	0.12	503313	keystroke	i	n/a
251.7465	0.06	503493	keystroke	n	n/a
252.1365	0.045	504273	keystroke	Key.backspace	n/a
252.3165	0.06	504633	keystroke	m	n/a
252.4065	0.045	504813	keystroke	e	n/a
252.5865	0.015	505173	keystroke	Key.enter	n/a
252.6065	5.0525	505213	prompt	n/a	hitting figures routers compliance\n
253.2015	0.09	506403	keystroke	h	n/a
253.2765	0.105	506553	keystroke	i	n/a
253.4115	0.06	506823	keystroke	t	n/a
253.5465	0.075	507093	keystroke	t	n/a
253.5915	0.12	507183	keystroke	i	n/a
253.6965	0.076	507393	keystroke	n	n/a
253.7875	0.089	507575	keystroke	g	n/a
253.8615	0.105	507723	keystroke	Key.space	n/a
254.0715	0.075	508143	keystroke	f	n/a
254.2065	0.076	508413	keystroke	i	n/a
254.3265	0.06	508653	keystroke	g	n/a
254.4165	0.075	508833	keystroke	u	n/a
254.5065	0.105	509013	keystroke	r	n/a
254.5965	0.12	509193	keystroke	e	n/a
254.6865	0.121	509373	keystroke	s	n/a
254.7915	0.105	509583	keystroke	Key.space	n/a
255.0165	0.075	510033	keystroke	r	n/a
255.1215	0.09	510243	keystroke	o	n/a
255.1665	0.075	510333	keystroke	u	n/a
255.3315	0.075	510663	keystroke	t	n/a
255.437	0.1495	510874	keystroke	e	n/a
255.5565	0.12	511113	keystroke	r	n/a
255.7365	0.105	511473	keystroke	s	n/a
255.9465	0.105	511893	keystroke	Key.space	n/a
256.247	0.075	512494	keystroke	c	n/a
256.442	0.1345	512884	keystroke	o	n/a
256.5615	0.105	513123	keystroke	m	n/a
256.6815	0.105	513363	keystroke	p	n/a
256.8615	0.105	513723	keystroke	l	n/a
256.9815	0.06	513963	keystroke	i	n/a
257.0265	0.075	514053	keystroke	a	n/a
257.1765	0.075	514353	keystroke	n	n/a
257.3115	0.09	514623	keystroke	c	n/a
257.5065	0.06	515013	keystroke	e	n/a
257.5965	0.06	515193	keystroke	Key.enter	n/a
257.667	3.5465	515334	prompt	n/a	goods onto whom'st colored\n
258.3025	0.045	516605	keystroke	g	n/a
258.3625	0.045	516725	keystroke	o	n/a
258.4825	0.074	516965	keystroke	o	n/a
258.5875	0.075	517175	keystroke	d	n/a
258.7225	0.12	517445	keystroke	s	n/a
258.9175	0.074	517835	keystroke	Key.space	n/a
259.0675	0.12	518135	keystroke	o	n/a
259.1425	0.09	518285	keystroke	n	n/a
259.2475	0.075	518495	keystroke	t	n/a
259.3525	0.12	518705	keystroke	o	n/a
259.4725	0.074	518945	keystroke	Key.space	n/a
259.652	0.09	519304	keystroke	w	n/a
259.802	0.1055	519604	keystroke	h	n/a
260.2075	0.12	520415	keystroke	m	n/a
260.6415	0.06	521283	keystroke	Key.backspace	n/a
260.8525	0.12	521705	keystroke	o	n/a
260.9425	0.09	521885	keystroke	m	n/a
261.1365	0.075	522273	keystroke	Key.enter	n/a
261.216	5.3375	522432	prompt	n/a	similarly names accessing we\n
262.5325	0.089	525065	keystroke	s	n/a
262.6365	0.075	525273	keystroke	i	n/a
262.7715	0.09	525543	keystroke	m	n/a
262.9215	0.075	525843	keystroke	i	n/a
263.1325	0.0595	526265	keystroke	l	n/a
263.282	0.135	526564	keystroke	a	n/a
263.432	0.075	526864	keystroke	r	n/a
263.747	0.09	527494	keystroke	l	n/a
263.897	0.105	527794	keystroke	y	n/a
263.987	0.075	527974	keystroke	Key.space	n/a
264.1815	0.075	528363	keystroke	n	n/a
264.2865	0.075	528573	keystroke	a	n/a
264.3765	0.075	528753	keystroke	m	n/a
264.4665	0.165	528933	keystroke	e	n/a
264.5715	0.12	529143	keystroke	s	n/a
264.6765	0.09	529353	keystroke	Key.space	n/a
264.7815	0.105	529563	keystroke	a	n/a
264.9765	0.045	529953	keystroke	c	n/a
265.1115	0.075	530223	keystroke	c	n/a
265.2915	0.135	530583	keystroke	e	n/a
265.3665	0.12	530733	keystroke	s	n/a
265.5765	0.075	531153	keystroke	s	n/a
265.6815	0.075	531363	keystroke	i	n/a
265.7265	0.105	531453	keystroke	n	n/a
265.8325	0.059	531665	keystroke	g	n/a
265.9065	0.09	531813	keystroke	Key.space	n/a
266.1165	0.09	532233	keystroke	w	n/a
266.2215	0.105	532443	keystroke	e	n/a
266.507	0.045	533014	keystroke	Key.enter	n/a
266.556	13.9625	533112	prompt	n/a	forgotten detective demand laughing\n
267.1515	0.075	534303	keystroke	f	n/a
267.2565	0.075	534513	keystroke	o	n/a
267.3315	0.06	534663	keystroke	r	n/a
267.527	0.0595	535054	keystroke	g	n/a
267.632	0.09	535264	keystroke	o	n/a
267.737	0.06	535474	keystroke	t	n/a
267.857	0.09	535714	keystroke	t	n/a
268.022	0.09	536044	keystroke	e	n/a
268.142	0.1045	536284	keystroke	n	n/a
268.2315	0.105	536463	keystroke	Key.space	n/a
268.4715	0.075	536943	keystroke	d	n/a
268.6215	0.075	537243	keystroke	e	n/a
268.8465	0.075	537693	keystroke	c	n/a
269.0415	0.105	538083	keystroke	t	n/a
269.1465	0.12	538293	keystroke	e	n/a
269.462	0.09	538924	keystroke	c	n/a
269.672	0.06	539344	keystroke	t	n/a
269.777	0.075	539554	keystroke	i	n/a
269.882	0.105	539764	keystroke	v	n/a
269.957	0.12	539914	keystroke	e	n/a
270.227	0.075	540454	keystroke	Key.space	n/a
270.722	0.075	541444	keystroke	d	n/a
270.902	0.06	541804	keystroke	e	n/a
270.992	0.09	541984	keystroke	m	n/a
271.142	0.09	542284	keystroke	a	n/a
271.277	0.075	542554	keystroke	n	n/a
271.412	0.06	542824	keystroke	d	n/a
271.517	0.06	543034	keystroke	Key.space	n/a
271.757	0.06	543514	keystroke	Key.backspace	n/a
271.922	0.06	543844	keystroke	Key.backspace	n/a
272.087	0.045	544174	keystroke	Key.backspace	n/a
272.222	0.06	544444	keystroke	Key.backspace	n/a
272.357	0.06	544714	keystroke	Key.backspace	n/a
272.492	0.075	544984	keystroke	Key.backspace	n/a
272.642	0.06	545284	keystroke	Key.backspace	n/a
272.777	0.075	545554	keystroke	Key.backspace	n/a
272.927	0.075	545854	keystroke	Key.backspace	n/a
273.077	0.075	546154	keystroke	Key.backspace	n/a
273.212	0.075	546424	keystroke	Key.backspace	n/a
273.347	0.075	546694	keystroke	Key.backspace	n/a
273.497	0.075	546994	keystroke	Key.backspace	n/a
273.647	0.06	547294	keystroke	Key.backspace	n/a
273.767	0.075	547534	keystroke	Key.backspace	n/a
273.932	0.06	547864	keystroke	Key.backspace	n/a
274.052	0.09	548104	keystroke	t	n/a
274.1865	0.075	548373	keystroke	e	n/a
274.4265	0.06	548853	keystroke	c	n/a
274.5765	0.075	549153	keystroke	t	n/a
274.7415	0.045	549483	keystroke	u	n/a
274.8315	0.12	549663	keystroke	v	n/a
274.9365	0.09	549873	keystroke	e	n/a
275.2065	0.045	550413	keystroke	Key.backspace	n/a
275.3115	0.09	550623	keystroke	Key.backspace	n/a
275.4615	0.075	550923	keystroke	Key.backspace	n/a
275.6865	0.045	551373	keystroke	i	n/a
275.8515	0.075	551703	keystroke	v	n/a
275.9115	0.12	551823	keystroke	e	n/a
276.0765	0.075	552153	keystroke	Key.space	n/a
276.497	0.045	552994	keystroke	d	n/a
276.602	0.075	553204	keystroke	e	n/a
276.707	0.075	553414	keystroke	m	n/a
276.827	0.105	553654	keystroke	a	n/a
276.932	0.06	553864	keystroke	n	n/a
277.037	0.075	554074	keystroke	d	n/a
277.126	0.075	554252	keystroke	Key.space	n/a
277.322	0.0895	554644	keystroke	l	n/a
277.3965	0.09	554793	keystroke	a	n/a
277.5165	0.06	555033	keystroke	u	n/a
277.6215	0.06	555243	keystroke	g	n/a
277.7565	0.075	555513	keystroke	h	n/a
277.8615	0.075	555723	keystroke	t	n/a
277.9665	0.105	555933	keystroke	i	n/a
278.0415	0.09	556083	keystroke	n	n/a
278.5515	0.06	557103	keystroke	Key.backspace	n/a
278.7015	0.06	557403	keystroke	Key.backspace	n/a
279.0315	0.06	558063	keystroke	i	n/a
279.3465	0.045	558693	keystroke	Key.backspace	n/a
279.4815	0.06	558963	keystroke	Key.backspace	n/a
279.707	0.06	559414	keystroke	i	n/a
279.737	0.09	559474	keystroke	n	n/a
279.842	0.045	559684	keystroke	g	n/a
280.457	0.06	560914	keystroke	Key.enter	n/a
280.522	6.1465	561044	prompt	n/a	bold none java casey\n
281.3415	0.06	562683	keystroke	b	n/a
281.4165	0.105	562833	keystroke	o	n/a
281.6115	0.075	563223	keystroke	l	n/a
281.7465	0.06	563493	keystroke	d	n/a
281.8365	0.12	563673	keystroke	Key.space	n/a
282.0765	0.09	564153	keystroke	n	n/a
282.1815	0.105	564363	keystroke	o	n/a
282.2715	0.09	564543	keystroke	n	n/a
282.6015	0.045	565203	keystroke	e	n/a
282.8715	0.09	565743	keystroke	Key.space	n/a
283.0665	0.06	566133	keystroke	j	n/a
283.1265	0.105	566253	keystroke	a	n/a
283.3965	0.09	566793	keystroke	v	n/a
283.6815	0.09	567363	keystroke	a	n/a
283.8465	0.075	567693	keystroke	Key.space	n/a
284.2065	0.06	568413	keystroke	c	n/a
284.2965	0.12	568593	keystroke	a	n/a
284.5815	0.075	569163	keystroke	w	n/a
285.1665	0.06	570333	keystroke	Key.backspace	n/a
285.3465	0.09	570693	keystroke	s	n/a
285.4965	0.075	570993	keystroke	e	n/a
285.6165	0.075	571233	keystroke	y	n/a
286.6065	0.06	573213	keystroke	Key.enter	n/a
286.671	5.0975	573342	prompt	n/a	dealers puts costume seafood\n
287.522	0.06	575044	keystroke	d	n/a
287.672	0.12	575344	keystroke	e	n/a
287.807	0.135	575614	keystroke	a	n/a
288.122	0.075	576244	keystroke	l	n/a
288.302	0.195	576604	keystroke	e	n/a
288.467	0.105	576934	keystroke	r	n/a
288.662	0.09	577324	keystroke	s	n/a
288.752	0.1045	577504	keystroke	Key.space	n/a
288.9165	0.0755	577833	keystroke	p	n/a
288.9765	0.075	577953	keystroke	u	n/a
289.112	0.09	578224	keystroke	t	n/a
289.232	0.12	578464	keystroke	s	n/a
289.352	0.09	578704	keystroke	Key.space	n/a
289.517	0.09	579034	keystroke	c	n/a
289.622	0.105	579244	keystroke	o	n/a
289.847	0.09	579694	keystroke	s	n/a
290.012	0.075	580024	keystroke	t	n/a
290.132	0.075	580264	keystroke	u	n/a
290.312	0.075	580624	keystroke	m	n/a
290.402	0.075	580804	keystroke	e	n/a
290.522	0.09	581044	keystroke	Key.space	n/a
290.792	0.12	581584	keystroke	s	n/a
290.897	0.105	581794	keystroke	e	n/a
291.047	0.105	582094	keystroke	a	n/a
291.212	0.075	582424	keystroke	f	n/a
291.317	0.075	582634	keystroke	o	n/a
291.467	0.09	582934	keystroke	o	n/a
291.572	0.06	583144	keystroke	d	n/a
291.707	0.06	583414	keystroke	Key.enter	n/a
291.7715	6.537	583543	prompt	n/a	triumph he'll deployment closely\n
292.397	0.075	584794	keystroke	t	n/a
292.607	0.045	585214	keystroke	r	n/a
292.802	0.075	585604	keystroke	i	n/a
292.982	0.059	585964	keystroke	u	n/a
293.147	0.074	586294	keystroke	m	n/a
293.312	0.075	586624	keystroke	p	n/a
293.492	0.06	586984	keystroke	h	n/a
293.596	0.091	587192	keystroke	Key.space	n/a
293.807	0.06	587614	keystroke	h	n/a
293.912	0.045	587824	keystroke	e	n/a
294.092	0.06	588184	keystroke	'	n/a
294.317	0.045	588634	keystroke	l	n/a
294.467	0.09	588934	keystroke	l	n/a
294.617	0.075	589234	keystroke	Key.space	n/a
294.977	0.045	589954	keystroke	e	n/a
295.247	0.045	590494	keystroke	Key.backspace	n/a
295.322	0.075	590644	keystroke	d	n/a
295.487	0.075	590974	keystroke	e	n/a
295.592	0.075	591184	keystroke	p	n/a
295.802	0.06	591604	keystroke	l	n/a
295.997	0.09	591994	keystroke	o	n/a
296.132	0.075	592264	keystroke	y	n/a
296.372	0.06	592744	keystroke	m	n/a
296.477	0.075	592954	keystroke	e	n/a
296.612	0.06	593224	keystroke	n	n/a
296.732	0.06	593464	keystroke	t	n/a
296.882	0.075	593764	keystroke	Key.space	n/a
297.032	0.09	594064	keystroke	c	n/a
297.212	0.075	594424	keystroke	l	n/a
297.377	0.06	594754	keystroke	o	n/a
297.557	0.105	595114	keystroke	s	n/a
297.677	0.09	595354	keystroke	e	n/a
297.887	0.075	595774	keystroke	l	n/a
298.007	0.075	596014	keystroke	y	n/a
298.232	0.075	596464	keystroke	Key.enter	n/a
298.3115	6.3575	596623	prompt	n/a	dispatch mario christ necessarily\n
298.982	0.075	597964	keystroke	d	n/a
299.117	0.06	598234	keystroke	i	n/a
299.237	0.075	598474	keystroke	s	n/a
299.372	0.09	598744	keystroke	p	n/a
299.507	0.075	599014	keystroke	a	n/a
299.807	0.045	599614	keystroke	t	n/a
300.017	0.075	600034	keystroke	c	n/a
300.122	0.105	600244	keystroke	h	n/a
300.212	0.09	600424	keystroke	Key.space	n/a
300.392	0.09	600784	keystroke	m	n/a
300.542	0.135	601084	keystroke	a	n/a
300.647	0.09	601294	keystroke	r	n/a
300.842	0.12	601684	keystroke	i	n/a
300.947	0.15	601894	keystroke	o	n/a
301.067	0.09	602134	keystroke	Key.space	n/a
301.367	0.075	602734	keystroke	c	n/a
301.577	0.06	603154	keystroke	h	n/a
301.742	0.06	603484	keystroke	r	n/a
301.892	0.06	603784	keystroke	i	n/a
302.012	0.195	604024	keystroke	s	n/a
302.192	0.09	604384	keystroke	t	n/a
302.312	0.09	604624	keystroke	Key.space	n/a
302.642	0.06	605284	keystroke	n	n/a
302.747	0.09	605494	keystroke	e	n/a
302.942	0.09	605884	keystroke	c	n/a
303.137	0.135	606274	keystroke	e	n/a
303.272	0.09	606544	keystroke	s	n/a
303.422	0.075	606844	keystroke	s	n/a
303.527	0.195	607054	keystroke	a	n/a
303.707	0.075	607414	keystroke	r	n/a
304.037	0.06	608074	keystroke	i	n/a
304.172	0.105	608344	keystroke	l	n/a
304.322	0.105	608644	keystroke	y	n/a
304.592	0.075	609184	keystroke	Key.enter	n/a
304.672	7.8565	609344	prompt	n/a	same institution twenty john\n
305.282	0.09	610564	keystroke	s	n/a
305.432	0.12	610864	keystroke	a	n/a
305.582	0.09	611164	keystroke	m	n/a
305.687	0.06	611374	keystroke	e	n/a
305.807	0.105	611614	keystroke	Key.space	n/a
305.927	0.105	611854	keystroke	i	n/a
306.047	0.09	612094	keystroke	s	n/a
306.152	0.09	612304	keystroke	n	n/a
306.422	0.044	612844	keystroke	Key.backspace	n/a
306.5415	0.045	613083	keystroke	Key.backspace	n/a
306.9615	0.045	613923	keystroke	n	n/a
307.1415	0.09	614283	keystroke	s	n/a
307.3515	0.06	614703	keystroke	t	n/a
307.4715	0.045	614943	keystroke	i	n/a
307.5615	0.075	615123	keystroke	t	n/a
307.7115	0.075	615423	keystroke	u	n/a
307.8465	0.075	615693	keystroke	t	n/a
307.9665	0.12	615933	keystroke	i	n/a
308.0415	0.135	616083	keystroke	o	n/a
308.1315	0.12	616263	keystroke	n	n/a
308.2365	0.075	616473	keystroke	Key.space	n/a
308.5065	0.075	617013	keystroke	t	n/a
308.6565	0.105	617313	keystroke	w	n/a
308.8065	0.105	617613	keystroke	e	n/a
308.9565	0.075	617913	keystroke	n	n/a
309.1515	0.06	618303	keystroke	t	n/a
309.2565	0.105	618513	keystroke	y	n/a
309.3315	0.075	618663	keystroke	Key.space	n/a
309.5715	0.06	619143	keystroke	k	n/a
309.5865	0.046	619173	keystroke	j	n/a
309.6465	0.105	619293	keystroke	o	n/a
309.7665	0.06	619533	keystroke	h	n/a
309.9015	0.075	619803	keystroke	n	n/a
310.2315	0.045	620463	keystroke	Key.backspace	n/a
310.3515	0.075	620703	keystroke	Key.backspace	n/a
310.4865	0.06	620973	keystroke	Key.backspace	n/a
310.6215	0.075	621243	keystroke	Key.backspace	n/a
310.7565	0.075	621513	keystroke	Key.backspace	n/a
310.9665	0.075	621933	keystroke	j	n/a
311.9565	0.105	623913	keystroke	o	n/a
312.1365	0.09	624273	keystroke	h	n/a
312.2865	0.09	624573	keystroke	n	n/a
312.4665	0.06	624933	keystroke	Key.enter	n/a
312.531	6.402	625062	prompt	n/a	canadian steel recommend ranges\n
313.2315	0.09	626463	keystroke	c	n/a
313.3965	0.06	626793	keystroke	n	n/a
313.7265	0.06	627453	keystroke	Key.backspace	n/a
313.8615	0.075	627723	keystroke	a	n/a
314.0115	0.06	628023	keystroke	n	n/a
314.1165	0.0745	628233	keystroke	a	n/a
314.326	0.075	628652	keystroke	d	n/a
314.446	0.075	628892	keystroke	i	n/a
314.551	0.09	629102	keystroke	a	n/a
314.671	0.09	629342	keystroke	n	n/a
314.731	0.09	629462	keystroke	Key.space	n/a
314.867	0.12	629734	keystroke	s	n/a
315.031	0.09	630062	keystroke	t	n/a
315.181	0.075	630362	keystroke	e	n/a
315.346	0.075	630692	keystroke	e	n/a
315.496	0.12	630992	keystroke	l	n/a
315.601	0.09	631202	keystroke	Key.space	n/a
315.811	0.135	631622	keystroke	r	n/a
315.931	0.09	631862	keystroke	e	n/a
316.276	0.09	632552	keystroke	c	n/a
316.7715	0.06	633543	keystroke	o	n/a
316.9065	0.06	633813	keystroke	m	n/a
317.0565	0.06	634113	keystroke	m	n/a
317.1315	0.09	634263	keystroke	e	n/a
317.2965	0.06	634593	keystroke	n	n/a
317.4165	0.06	634833	keystroke	d	n/a
317.8515	0.075	635703	keystroke	Key.space	n/a
318.0615	0.09	636123	keystroke	r	n/a
318.1965	0.105	636393	keystroke	a	n/a
318.3765	0.015	636753	keystroke	n	n/a
318.4215	0.135	636843	keystroke	g	n/a
318.5265	0.12	637053	keystroke	e	n/a
318.6765	0.12	637353	keystroke	s	n/a
318.857	0.0745	637714	keystroke	Key.enter	n/a
318.936	7.0705	637872	prompt	n/a	posting respiratory fitness menus\n
319.635	0.12	639270	keystroke	p	n/a
319.725	0.105	639450	keystroke	o	n/a
319.8595	0.12	639719	keystroke	s	n/a
319.9795	0.0895	639959	keystroke	t	n/a
320.0845	0.1045	640169	keystroke	i	n/a
320.144	0.105	640288	keystroke	n	n/a
320.279	0.06	640558	keystroke	g	n/a
320.339	0.1045	640678	keystroke	Key.space	n/a
320.5785	0.1045	641157	keystroke	r	n/a
320.653	0.135	641306	keystroke	e	n/a
320.833	0.1045	641666	keystroke	s	n/a
320.9975	0.1345	641995	keystroke	p	n/a
321.222	0.06	642444	keystroke	i	n/a
321.4465	0.075	642893	keystroke	t	n/a
321.6415	0.0595	643283	keystroke	r	n/a
322.061	0.0595	644122	keystroke	Key.backspace	n/a
322.3305	0.06	644661	keystroke	Key.backspace	n/a
322.4805	0.0895	644961	keystroke	r	n/a
322.66	0.135	645320	keystroke	a	n/a
322.78	0.0755	645560	keystroke	t	n/a
322.93	0.075	645860	keystroke	o	n/a
323.035	0.09	646070	keystroke	r	n/a
323.2295	0.09	646459	keystroke	y	n/a
323.3805	0.0895	646761	keystroke	Key.space	n/a
324.069	0.06	648138	keystroke	f	n/a
324.1745	0.09	648349	keystroke	i	n/a
324.505	0.0745	649010	keystroke	t	n/a
324.669	0.075	649338	keystroke	n	n/a
324.789	0.0595	649578	keystroke	e	n/a
324.9085	0.106	649817	keystroke	s	n/a
325.089	0.09	650178	keystroke	s	n/a
325.194	0.1045	650388	keystroke	Key.space	n/a
325.3285	0.09	650657	keystroke	m	n/a
325.4335	0.091	650867	keystroke	e	n/a
325.5395	0.06	651079	keystroke	n	n/a
325.6895	0.0595	651379	keystroke	u	n/a
325.779	0.075	651558	keystroke	s	n/a
325.929	0.0755	651858	keystroke	Key.enter	n/a
326.0095	6.0265	652019	prompt	n/a	html assistant realm certified\n
326.6645	0.0745	653329	keystroke	h	n/a
326.904	0.031	653808	keystroke	t	n/a
327.084	0.06	654168	keystroke	m	n/a
327.3385	0.075	654677	keystroke	l	n/a
327.518	0.03	655036	keystroke	Key.space	n/a
327.894	0.135	655788	keystroke	a	n/a
328.044	0.03	656088	keystroke	s	n/a
328.1795	0.0745	656359	keystroke	s	n/a
328.314	0.06	656628	keystroke	i	n/a
328.404	0.09	656808	keystroke	s	n/a
328.6285	0.076	657257	keystroke	t	n/a
328.7345	0.135	657469	keystroke	a	n/a
328.8705	0.059	657741	keystroke	n	n/a
329.004	0.06	658008	keystroke	t	n/a
329.1545	0.045	658309	keystroke	Key.space	n/a
329.544	0.12	659088	keystroke	r	n/a
329.68	0.1345	659360	keystroke	e	n/a
329.7995	0.12	659599	keystroke	a	n/a
329.9495	0.1195	659899	keystroke	l	n/a
330.174	0.06	660348	keystroke	m	n/a
330.309	0.075	660618	keystroke	Key.space	n/a
330.6085	0.06	661217	keystroke	c	n/a
330.8195	0.1045	661639	keystroke	e	n/a
330.894	0.105	661788	keystroke	r	n/a
331.104	0.06	662208	keystroke	t	n/a
331.2235	0.061	662447	keystroke	i	n/a
331.3745	0.075	662749	keystroke	f	n/a
331.4795	0.0745	662959	keystroke	i	n/a
331.569	0.09	663138	keystroke	e	n/a
331.7795	0.045	663559	keystroke	d	n/a
331.959	0.075	663918	keystroke	Key.enter	n/a
332.0485	7.0825	664097	prompt	n/a	definition italian susan quarters\n
332.8145	0.045	665629	keystroke	d	n/a
332.934	0.06	665868	keystroke	i	n/a
333.2635	0.045	666527	keystroke	Key.backspace	n/a
333.669	0.0745	667338	keystroke	e	n/a
333.879	0.09	667758	keystroke	f	n/a
334.014	0.09	668028	keystroke	i	n/a
334.194	0.0745	668388	keystroke	n	n/a
334.2835	0.106	668567	keystroke	i	n/a
334.4495	0.06	668899	keystroke	t	n/a
334.5245	0.1195	669049	keystroke	i	n/a
334.629	0.135	669258	keystroke	o	n/a
334.734	0.09	669468	keystroke	n	n/a
334.794	0.105	669588	keystroke	Key.space	n/a
335.0495	0.09	670099	keystroke	i	n/a
335.304	0.075	670608	keystroke	t	n/a
335.44	0.1045	670880	keystroke	a	n/a
335.5445	0.105	671089	keystroke	l	n/a
335.6645	0.1355	671329	keystroke	i	n/a
335.815	0.0885	671630	keystroke	a	n/a
335.9335	0.091	671867	keystroke	n	n/a
336.0095	0.09	672019	keystroke	Key.space	n/a
336.204	0.0755	672408	keystroke	s	n/a
336.3095	0.06	672619	keystroke	u	n/a
336.4145	0.1055	672829	keystroke	s	n/a
336.5795	0.135	673159	keystroke	a	n/a
336.7745	0.075	673549	keystroke	n	n/a
337.1345	0.06	674269	keystroke	Key.space	n/a
337.3745	0.0745	674749	keystroke	q	n/a
337.494	0.076	674988	keystroke	u	n/a
337.615	0.1645	675230	keystroke	a	n/a
337.7495	0.09	675499	keystroke	r	n/a
338.019	0.091	676038	keystroke	t	n/a
338.2295	0.09	676459	keystroke	e	n/a
338.2895	0.09	676579	keystroke	r	n/a
338.9195	0.06	677839	keystroke	s	n/a
339.0695	0.0605	678139	keystroke	Key.enter	n/a
339.1365	9.25	678273	prompt	n/a	motivation crime positioning engineers\n
340.0145	0.075	680029	keystroke	m	n/a
340.285	0.0595	680570	keystroke	o	n/a
340.4945	0.06	680989	keystroke	t	n/a
340.66	0.0895	681320	keystroke	i	n/a
340.8095	0.06	681619	keystroke	v	n/a
341.0195	0.1195	682039	keystroke	a	n/a
341.124	0.076	682248	keystroke	t	n/a
341.245	0.12	682490	keystroke	i	n/a
341.335	0.1345	682670	keystroke	o	n/a
341.4245	0.135	682849	keystroke	n	n/a
341.5445	0.075	683089	keystroke	Key.space	n/a
342.0095	0.075	684019	keystroke	c	n/a
342.2045	0.0605	684409	keystroke	r	n/a
342.325	0.0895	684650	keystroke	i	n/a
342.4895	0.09	684979	keystroke	m	n/a
342.6095	0.075	685219	keystroke	e	n/a
342.6995	0.0905	685399	keystroke	Key.space	n/a
342.94	0.1045	685880	keystroke	p	n/a
343.0445	0.09	686089	keystroke	o	n/a
343.1945	0.1355	686389	keystroke	s	n/a
343.585	0.045	687170	keystroke	t	n/a
343.69	0.045	687380	keystroke	i	n/a
343.9155	0.045	687831	keystroke	Key.backspace	n/a
344.035	0.06	688070	keystroke	Key.backspace	n/a
344.244	0.045	688488	keystroke	i	n/a
344.351	0.0745	688702	keystroke	t	n/a
344.5005	0.09	689001	keystroke	i	n/a
344.6645	0.1205	689329	keystroke	o	n/a
344.7695	0.091	689539	keystroke	n	n/a
345.0105	0.104	690021	keystroke	i	n/a
345.0845	0.1055	690169	keystroke	n	n/a
345.4	0.06	690800	keystroke	g	n/a
345.6245	0.015	691249	keystroke	Key.space	n/a
346.0605	0.0895	692121	keystroke	e	n/a
346.1805	0.059	692361	keystroke	n	n/a
346.2995	0.061	692599	keystroke	g	n/a
346.5245	0.12	693049	keystroke	i	n/a
346.6145	0.105	693229	keystroke	n	n/a
346.7495	0.075	693499	keystroke	e	n/a
346.8695	0.075	693739	keystroke	s	n/a
347.1995	0.06	694399	keystroke	Key.backspace	n/a
347.6495	0.165	695299	keystroke	e	n/a
347.7995	0.06	695599	keystroke	r	n/a
348.04	0.075	696080	keystroke	s	n/a
348.3245	0.06	696649	keystroke	Key.enter	n/a
348.3895	5.967	696779	prompt	n/a	puerto placement fully communist\n
349.585	0.09	699170	keystroke	p	n/a
349.81	0.0745	699620	keystroke	u	n/a
350.065	0.12	700130	keystroke	e	n/a
350.2	0.06	700400	keystroke	r	n/a
350.4095	0.06	700819	keystroke	t	n/a
350.485	0.1195	700970	keystroke	o	n/a
350.5745	0.105	701149	keystroke	Key.space	n/a
350.7695	0.09	701539	keystroke	p	n/a
350.9495	0.105	701899	keystroke	l	n/a
351.0395	0.075	702079	keystroke	a	n/a
351.1445	0.09	702289	keystroke	c	n/a
351.3395	0.075	702679	keystroke	e	n/a
351.3995	0.075	702799	keystroke	m	n/a
351.505	0.12	703010	keystroke	e	n/a
351.64	0.06	703280	keystroke	n	n/a
351.715	0.0745	703430	keystroke	t	n/a
351.8195	0.075	703639	keystroke	Key.space	n/a
351.9995	0.0605	703999	keystroke	f	n/a
352.09	0.075	704180	keystroke	u	n/a
352.255	0.06	704510	keystroke	l	n/a
352.39	0.135	704780	keystroke	l	n/a
352.54	0.135	705080	keystroke	y	n/a
352.66	0.045	705320	keystroke	Key.space	n/a
352.81	0.06	705620	keystroke	c	n/a
352.885	0.18	705770	keystroke	o	n/a
352.99	0.09	705980	keystroke	m	n/a
353.2	0.0595	706400	keystroke	m	n/a
353.3945	0.06	706789	keystroke	u	n/a
353.5595	0.075	707119	keystroke	n	n/a
353.6795	0.075	707359	keystroke	i	n/a
353.994	0.076	707988	keystroke	s	n/a
354.1	0.0895	708200	keystroke	t	n/a
354.2495	0.105	708499	keystroke	Key.enter	n/a
354.3595	4.7365	708719	prompt	n/a	adults was prices imperial\n
354.8795	0.09	709759	keystroke	a	n/a
355.0145	0.0755	710029	keystroke	d	n/a
355.135	0.075	710270	keystroke	u	n/a
355.285	0.09	710570	keystroke	l	n/a
355.48	0.0745	710960	keystroke	t	n/a
355.69	0.09	711380	keystroke	s	n/a
355.81	0.09	711620	keystroke	Key.space	n/a
355.99	0.03	711980	keystroke	w	n/a
356.3345	0.135	712669	keystroke	a	n/a
356.4395	0.12	712879	keystroke	s	n/a
356.6045	0.06	713209	keystroke	Key.space	n/a
356.6795	0.105	713359	keystroke	p	n/a
356.8295	0.06	713659	keystroke	r	n/a
356.9945	0.06	713989	keystroke	i	n/a
357.0845	0.09	714169	keystroke	c	n/a
357.2795	0.135	714559	keystroke	e	n/a
357.4145	0.075	714829	keystroke	s	n/a
357.5345	0.0745	715069	keystroke	Key.space	n/a
357.8345	0.09	715669	keystroke	i	n/a
357.9095	0.12	715819	keystroke	m	n/a
358.0595	0.105	716119	keystroke	p	n/a
358.1795	0.195	716359	keystroke	e	n/a
358.3445	0.09	716689	keystroke	r	n/a
358.5245	0.0755	717049	keystroke	i	n/a
358.6295	0.12	717259	keystroke	a	n/a
358.7945	0.09	717589	keystroke	l	n/a
359.0345	0.06	718069	keystroke	Key.enter	n/a
359.0995	9.566	718199	prompt	n/a	me yarn injured web\n
360.1895	0.06	720379	keystroke	m	n/a
360.2645	0.09	720529	keystroke	e	n/a
360.3995	0.0745	720799	keystroke	Key.space	n/a
361.5395	0.075	723079	keystroke	p	n/a
361.6145	0.135	723229	keystroke	a	n/a
361.7195	0.075	723439	keystroke	r	n/a
361.8545	0.075	723709	keystroke	n	n/a
361.9895	0.09	723979	keystroke	Key.space	n/a
362.1395	0.135	724279	keystroke	i	n/a
362.2445	0.0905	724489	keystroke	n	n/a
362.4395	0.03	724879	keystroke	j	n/a
363.654	0.06	727308	keystroke	Key.backspace	n/a
363.804	0.06	727608	keystroke	Key.backspace	n/a
363.955	0.045	727910	keystroke	Key.backspace	n/a
364.0895	0.06	728179	keystroke	Key.backspace	n/a
364.2245	0.06	728449	keystroke	Key.backspace	n/a
364.3595	0.06	728719	keystroke	Key.backspace	n/a
364.4935	0.075	728987	keystroke	Key.backspace	n/a
364.6435	0.075	729287	keystroke	Key.backspace	n/a
365.26	0.0745	730520	keystroke	y	n/a
365.3495	0.12	730699	keystroke	a	n/a
365.4545	0.0755	730909	keystroke	r	n/a
365.6945	0.075	731389	keystroke	n	n/a
365.8445	0.075	731689	keystroke	Key.space	n/a
366.745	0.09	733490	keystroke	i	n/a
366.805	0.105	733610	keystroke	n	n/a
366.985	0.0595	733970	keystroke	j	n/a
367.1195	0.0755	734239	keystroke	u	n/a
367.6295	0.1055	735259	keystroke	r	n/a
367.705	0.105	735410	keystroke	e	n/a
367.915	0.075	735830	keystroke	d	n/a
368.005	0.09	736010	keystroke	Key.space	n/a
368.11	0.1195	736220	keystroke	w	n/a
368.17	0.0895	736340	keystroke	e	n/a
368.3945	0.06	736789	keystroke	b	n/a
368.5895	0.075	737179	keystroke	Key.enter	n/a
368.668	3.779	737336	prompt	n/a	fort samba lately johnny\n
369.28	0.09	738560	keystroke	f	n/a
369.4	0.0895	738800	keystroke	o	n/a
369.475	0.0745	738950	keystroke	r	n/a
369.6095	0.075	739219	keystroke	Key.space	n/a
369.865	0.0745	739730	keystroke	s	n/a
370.015	0.09	740030	keystroke	a	n/a
370.12	0.0745	740240	keystroke	m	n/a
370.405	0.075	740810	keystroke	b	n/a
370.51	0.09	741020	keystroke	a	n/a
370.645	0.075	741290	keystroke	Key.space	n/a
370.795	0.0905	741590	keystroke	l	n/a
370.8705	0.09	741741	keystroke	a	n/a
370.9905	0.12	741981	keystroke	t	n/a
371.0955	0.0895	742191	keystroke	e	n/a
371.215	0.12	742430	keystroke	l	n/a
371.32	0.0905	742640	keystroke	y	n/a
371.3805	0.09	742761	keystroke	Key.space	n/a
371.5605	0.075	743121	keystroke	j	n/a
371.6055	0.105	743211	keystroke	o	n/a
371.74	0.06	743480	keystroke	h	n/a
371.8905	0.045	743781	keystroke	n	n/a
372.0105	0.06	744021	keystroke	n	n/a
372.1745	0.06	744349	keystroke	y	n/a
372.3695	0.0755	744739	keystroke	Key.enter	n/a
372.45	5.8015	744900	prompt	n/a	putting nevertheless slowly provider\n
373.1495	0.06	746299	keystroke	p	n/a
373.2395	0.075	746479	keystroke	u	n/a
373.3595	0.0605	746719	keystroke	t	n/a
373.51	0.075	747020	keystroke	t	n/a
373.615	0.105	747230	keystroke	i	n/a
373.705	0.0745	747410	keystroke	n	n/a
373.7945	0.075	747589	keystroke	g	n/a
373.8545	0.12	747709	keystroke	Key.space	n/a
374.0045	0.105	748009	keystroke	n	n/a
374.1245	0.075	748249	keystroke	e	n/a
374.2595	0.12	748519	keystroke	v	n/a
374.4095	0.15	748819	keystroke	e	n/a
374.5295	0.09	749059	keystroke	r	n/a
374.7695	0.045	749539	keystroke	t	n/a
374.8445	0.075	749689	keystroke	h	n/a
374.9495	0.0755	749899	keystroke	e	n/a
375.085	0.105	750170	keystroke	l	n/a
375.22	0.135	750440	keystroke	e	n/a
375.34	0.0895	750680	keystroke	s	n/a
375.5945	0.015	751189	keystroke	s	n/a
375.6245	0.06	751249	keystroke	Key.space	n/a
375.804	0.105	751608	keystroke	s	n/a
375.925	0.059	751850	keystroke	l	n/a
376.0605	0.0735	752121	keystroke	o	n/a
376.119	0.105	752238	keystroke	w	n/a
376.345	0.09	752690	keystroke	l	n/a
376.494	0.121	752988	keystroke	y	n/a
376.584	0.0755	753168	keystroke	Key.space	n/a
376.7195	0.091	753439	keystroke	p	n/a
376.9005	0.0745	753801	keystroke	r	n/a
377.005	0.074	754010	keystroke	o	n/a
377.1705	0.059	754341	keystroke	v	n/a
377.32	0.06	754640	keystroke	i	n/a
377.439	0.061	754878	keystroke	d	n/a
377.59	0.0745	755180	keystroke	e	n/a
377.95	0.045	755900	keystroke	r	n/a
378.205	0.045	756410	keystroke	Key.enter	n/a
378.254	6.4615	756508	prompt	n/a	lord till pockets displayed\n
378.9095	0.075	757819	keystroke	l	n/a
379.0595	0.075	758119	keystroke	o	n/a
379.1345	0.09	758269	keystroke	r	n/a
379.315	0.03	758630	keystroke	Key.space	n/a
379.6445	0.045	759289	keystroke	Key.backspace	n/a
379.7795	0.045	759559	keystroke	d	n/a
379.8845	0.075	759769	keystroke	Key.space	n/a
380.0945	0.06	760189	keystroke	t	n/a
380.1845	0.105	760369	keystroke	i	n/a
380.2595	0.0455	760519	keystroke	l	n/a
380.3495	0.135	760699	keystroke	l	n/a
380.4995	0.075	760999	keystroke	Key.space	n/a
380.6045	0.2405	761209	keystroke	p	n/a
380.8295	0.075	761659	keystroke	o	n/a
381.0395	0.06	762079	keystroke	c	n/a
381.1895	0.06	762379	keystroke	k	n/a
381.2645	0.15	762529	keystroke	e	n/a
381.3995	0.105	762799	keystroke	t	n/a
381.6545	0.075	763309	keystroke	Key.space	n/a
382.39	0.06	764780	keystroke	Key.backspace	n/a
382.51	0.06	765020	keystroke	s	n/a
382.599	0.076	765198	keystroke	Key.space	n/a
382.795	0.075	765590	keystroke	d	n/a
382.915	0.06	765830	keystroke	i	n/a
383.125	0.09	766250	keystroke	s	n/a
383.32	0.0895	766640	keystroke	p	n/a
383.5145	0.075	767029	keystroke	l	n/a
383.6345	0.074	767269	keystroke	a	n/a
383.7535	0.06	767507	keystroke	y	n/a
383.8585	0.135	767717	keystroke	e	n/a
383.9485	0.12	767897	keystroke	r	n/a
384.3835	0.06	768767	keystroke	Key.backspace	n/a
384.4885	0.0605	768977	keystroke	d	n/a
384.639	0.075	769278	keystroke	Key.enter	n/a
384.719	5.5475	769438	prompt	n/a	winds strict termination vast\n
385.344	0.09	770688	keystroke	w	n/a
385.449	0.105	770898	keystroke	i	n/a
385.584	0.09	771168	keystroke	n	n/a
385.839	0.045	771678	keystroke	g	n/a
386.109	0.0605	772218	keystroke	Key.backspace	n/a
386.1845	0.105	772369	keystroke	d	n/a
386.4395	0.075	772879	keystroke	s	n/a
386.5445	0.09	773089	keystroke	Key.space	n/a
386.755	0.09	773510	keystroke	s	n/a
386.95	0.044	773900	keystroke	t	n/a
387.069	0.061	774138	keystroke	r	n/a
387.174	0.075	774348	keystroke	i	n/a
387.295	0.075	774590	keystroke	c	n/a
387.519	0.06	775038	keystroke	t	n/a
387.61	0.089	775220	keystroke	Key.space	n/a
387.85	0.12	775700	keystroke	t	n/a
387.954	0.135	775908	keystroke	e	n/a
388.075	0.105	776150	keystroke	r	n/a
388.209	0.105	776418	keystroke	m	n/a
388.359	0.135	776718	keystroke	i	n/a
388.464	0.09	776928	keystroke	n	n/a
388.584	0.151	777168	keystroke	a	n/a
388.704	0.076	777408	keystroke	t	n/a
388.795	0.12	777590	keystroke	i	n/a
388.885	0.1205	777770	keystroke	o	n/a
388.93	0.15	777860	keystroke	n	n/a
389.065	0.09	778130	keystroke	Key.space	n/a
389.275	0.09	778550	keystroke	v	n/a
389.38	0.165	778760	keystroke	a	n/a
389.695	0.075	779390	keystroke	s	n/a
389.9505	0.0445	779901	keystroke	t	n/a
390.175	0.09	780350	keystroke	Key.enter	n/a
390.2695	6.387	780539	prompt	n/a	breeding playstation gonna collectors\n
390.8505	0.045	781701	keystroke	g	n/a
391.135	0.06	782270	keystroke	Key.backspace	n/a
391.21	0.075	782420	keystroke	b	n/a
391.4505	0.1495	782901	keystroke	r	n/a
391.585	0.09	783170	keystroke	e	n/a
391.735	0.075	783470	keystroke	e	n/a
391.93	0.06	783860	keystroke	d	n/a
392.005	0.12	784010	keystroke	i	n/a
392.065	0.105	784130	keystroke	n	n/a
392.155	0.075	784310	keystroke	g	n/a
392.245	0.09	784490	keystroke	Key.space	n/a
392.485	0.075	784970	keystroke	p	n/a
392.65	0.09	785300	keystroke	l	n/a
392.755	0.075	785510	keystroke	a	n/a
392.875	0.06	785750	keystroke	y	n/a
393.01	0.075	786020	keystroke	s	n/a
393.205	0.09	786410	keystroke	t	n/a
393.28	0.15	786560	keystroke	a	n/a
393.385	0.09	786770	keystroke	t	n/a
393.52	0.09	787040	keystroke	i	n/a
393.58	0.12	787160	keystroke	o	n/a
393.67	0.12	787340	keystroke	n	n/a
393.76	0.09	787520	keystroke	Key.space	n/a
393.94	0.045	787880	keystroke	g	n/a
394.03	0.105	788060	keystroke	o	n/a
394.12	0.075	788240	keystroke	n	n/a
394.255	0.06	788510	keystroke	n	n/a
394.6	0.075	789200	keystroke	a	n/a
394.78	0.06	789560	keystroke	Key.space	n/a
395.095	0.0605	790190	keystroke	c	n/a
395.2305	0.06	790461	keystroke	o	n/a
395.4105	0.03	790821	keystroke	l	n/a
395.5155	0.075	791031	keystroke	l	n/a
395.5755	0.075	791151	keystroke	e	n/a
395.7855	0.075	791571	keystroke	c	n/a
395.9355	0.09	791871	keystroke	t	n/a
396.0555	0.09	792111	keystroke	o	n/a
396.1755	0.075	792351	keystroke	r	n/a
396.3855	0.105	792771	keystroke	s	n/a
396.6105	0.045	793221	keystroke	Key.enter	n/a
396.6595	6.5375	793319	prompt	n/a	assists jewish porcelain highways\n
397.21	0.09	794420	keystroke	a	n/a
397.36	0.06	794720	keystroke	s	n/a
397.495	0.075	794990	keystroke	s	n/a
397.585	0.06	795170	keystroke	i	n/a
397.675	0.105	795350	keystroke	s	n/a
398.035	0.06	796070	keystroke	t	n/a
398.1995	0.12	796399	keystroke	s	n/a
398.3345	0.075	796669	keystroke	Key.space	n/a
398.5145	0.0755	797029	keystroke	j	n/a
398.62	0.12	797240	keystroke	e	n/a
398.845	0.09	797690	keystroke	w	n/a
399.07	0.09	798140	keystroke	i	n/a
399.2955	0.09	798591	keystroke	s	n/a
399.4605	0.12	798921	keystroke	h	n/a
399.5505	0.0895	799101	keystroke	Key.space	n/a
399.7605	0.09	799521	keystroke	p	n/a
400.42	0.075	800840	keystroke	o	n/a
400.51	0.075	801020	keystroke	r	n/a
400.795	0.075	801590	keystroke	c	n/a
400.99	0.06	801980	keystroke	e	n/a
401.08	0.105	802160	keystroke	l	n/a
401.2	0.09	802400	keystroke	a	n/a
401.305	0.105	802610	keystroke	i	n/a
401.38	0.105	802760	keystroke	n	n/a
401.455	0.105	802910	keystroke	Key.space	n/a
401.74	0.075	803480	keystroke	h	n/a
401.83	0.0905	803660	keystroke	i	n/a
401.9655	0.06	803931	keystroke	g	n/a
402.0555	0.09	804111	keystroke	h	n/a
402.2205	0.1045	804441	keystroke	w	n/a
402.3405	0.15	804681	keystroke	a	n/a
402.5355	0.06	805071	keystroke	y	n/a
402.7905	0.06	805581	keystroke	s	n/a
403.1205	0.075	806241	keystroke	Key.enter	n/a
403.2015	5.3195	806403	prompt	n/a	them operate rats specializing\n
403.885	0.075	807770	keystroke	t	n/a
403.945	0.075	807890	keystroke	h	n/a
404.065	0.075	808130	keystroke	e	n/a
404.14	0.12	808280	keystroke	m	n/a
404.275	0.09	808550	keystroke	Key.space	n/a
404.35	0.12	808700	keystroke	o	n/a
404.5	0.075	809000	keystroke	v	n/a
404.785	0.06	809570	keystroke	Key.backspace	n/a
405.01	0.09	810020	keystroke	p	n/a
405.07	0.15	810140	keystroke	e	n/a
405.19	0.0905	810380	keystroke	r	n/a
405.3255	0.1495	810651	keystroke	a	n/a
405.445	0.105	810890	keystroke	t	n/a
405.52	0.12	811040	keystroke	e	n/a
405.685	0.075	811370	keystroke	Key.space	n/a
405.865	0.09	811730	keystroke	r	n/a
406	0.12	812000	keystroke	a	n/a
406.09	0.09	812180	keystroke	t	n/a
406.3	0.075	812600	keystroke	s	n/a
406.42	0.09	812840	keystroke	Key.space	n/a
406.795	0.09	813590	keystroke	s	n/a
406.9	0.075	813800	keystroke	p	n/a
407.02	0.075	814040	keystroke	e	n/a
407.23	0.075	814460	keystroke	c	n/a
407.335	0.06	814670	keystroke	i	n/a
407.455	0.075	814910	keystroke	a	n/a
407.56	0.135	815120	keystroke	l	n/a
407.665	0.105	815330	keystroke	i	n/a
407.905	0.0745	815810	keystroke	z	n/a
408.0245	0.0605	816049	keystroke	i	n/a
408.055	0.09	816110	keystroke	n	n/a
408.205	0.045	816410	keystroke	g	n/a
408.46	0.06	816920	keystroke	Key.enter	n/a
408.524	10.7085	817048	prompt	n/a	bulletin resources starsmerchant timothy\n
409.285	0.06	818570	keystroke	b	n/a
409.4055	0.075	818811	keystroke	u	n/a
409.57	0.0605	819140	keystroke	l	n/a
409.7205	0.09	819441	keystroke	l	n/a
409.8255	0.15	819651	keystroke	e	n/a
410.0055	0.105	820011	keystroke	t	n/a
410.2155	0.09	820431	keystroke	i	n/a
410.2755	0.105	820551	keystroke	n	n/a
410.4405	0.075	820881	keystroke	Key.space	n/a
410.9505	0.105	821901	keystroke	r	n/a
411.1755	0.06	822351	keystroke	e	n/a
411.6095	0.0755	823219	keystroke	s	n/a
411.805	0.105	823610	keystroke	o	n/a
411.865	0.09	823730	keystroke	u	n/a
412	0.0895	824000	keystroke	r	n/a
412.4495	0.06	824899	keystroke	c	n/a
412.6295	0.135	825259	keystroke	e	n/a
412.7795	0.075	825559	keystroke	a	n/a
412.7945	0.045	825589	keystroke	s	n/a
412.8995	0.03	825799	keystroke	Key.space	n/a
413.1845	0.06	826369	keystroke	Key.backspace	n/a
413.3345	0.06	826669	keystroke	Key.backspace	n/a
413.4545	0.075	826909	keystroke	Key.backspace	n/a
413.6045	0.09	827209	keystroke	s	n/a
414.009	0.06	828018	keystroke	Key.space	n/a
414.7445	0.12	829489	keystroke	s	n/a
414.8945	0.075	829789	keystroke	t	n/a
415.0295	0.15	830059	keystroke	a	n/a
415.1195	0.12	830239	keystroke	r	n/a
415.3445	0.105	830689	keystroke	s	n/a
415.555	0.075	831110	keystroke	m	n/a
415.645	0.105	831290	keystroke	e	n/a
415.855	0.075	831710	keystroke	r	n/a
416.1105	0.09	832221	keystroke	c	n/a
416.2605	0.075	832521	keystroke	h	n/a
416.3655	0.09	832731	keystroke	a	n/a
416.4705	0.075	832941	keystroke	n	n/a
416.74	0.075	833480	keystroke	t	n/a
416.875	0.0605	833750	keystroke	Key.space	n/a
417.0705	0.06	834141	keystroke	t	n/a
417.295	0.0905	834590	keystroke	i	n/a
417.37	0.105	834740	keystroke	m	n/a
417.61	0.076	835220	keystroke	t	n/a
417.745	0.061	835490	keystroke	h	n/a
418.255	0.06	836510	keystroke	Key.backspace	n/a
418.39	0.06	836780	keystroke	Key.backspace	n/a
418.615	0.0755	837230	keystroke	o	n/a
418.7355	0.06	837471	keystroke	t	n/a
418.8255	0.06	837651	keystroke	h	n/a
418.9605	0.06	837921	keystroke	y	n/a
419.1705	0.06	838341	keystroke	Key.enter	n/a
419.2375	8.98	838475	prompt	n/a	peas recommendations translate suburban\n
419.921	0.075	839842	keystroke	p	n/a
420.056	0.09	840112	keystroke	e	n/a
420.191	0.1495	840382	keystroke	a	n/a
420.3555	0.09	840711	keystroke	s	n/a
420.4605	0.075	840921	keystroke	Key.space	n/a
420.7155	0.105	841431	keystroke	r	n/a
420.8055	0.09	841611	keystroke	e	n/a
421.0155	0.075	842031	keystroke	c	n/a
421.1055	0.09	842211	keystroke	o	n/a
421.1805	0.06	842361	keystroke	m	n/a
421.3155	0.075	842631	keystroke	m	n/a
421.4355	0.06	842871	keystroke	e	n/a
421.5405	0.06	843081	keystroke	n	n/a
421.6455	0.075	843291	keystroke	t	n/a
421.916	0.195	843832	keystroke	a	n/a
422.3955	0.03	844791	keystroke	Key.backspace	n/a
422.5005	0.075	845001	keystroke	Key.backspace	n/a
422.6655	0.105	845331	keystroke	d	n/a
422.7855	0.15	845571	keystroke	a	n/a
422.9055	0.075	845811	keystroke	t	n/a
423.0255	0.105	846051	keystroke	i	n/a
423.0855	0.12	846171	keystroke	o	n/a
423.1605	0.09	846321	keystroke	n	n/a
423.2655	0.09	846531	keystroke	s	n/a
423.4305	0.0755	846861	keystroke	Key.space	n/a
423.656	0.06	847312	keystroke	t	n/a
423.791	0.105	847582	keystroke	r	n/a
423.881	0.105	847762	keystroke	a	n/a
424.001	0.075	848002	keystroke	n	n/a
424.106	0.09	848212	keystroke	s	n/a
424.256	0.09	848512	keystroke	l	n/a
424.406	0.045	848812	keystroke	a	n/a
424.5555	0.135	849111	keystroke	t	n/a
424.6455	0.105	849291	keystroke	e	n/a
424.7955	0.075	849591	keystroke	Key.space	n/a
424.9305	0.09	849861	keystroke	s	n/a
425.0355	0.0605	850071	keystroke	u	n/a
425.6055	0.06	851211	keystroke	b	n/a
425.7855	0.045	851571	keystroke	u	n/a
426.3105	0.09	852621	keystroke	r	n/a
426.896	0.075	853792	keystroke	b	n/a
427.001	0.105	854002	keystroke	a	n/a
427.166	0.075	854332	keystroke	n	n/a
428.141	0.075	856282	keystroke	Key.enter	n/a
428.221	3.8965	856442	prompt	n/a	morris hall lounge judges\n
428.861	0.12	857722	keystroke	m	n/a
428.966	0.105	857932	keystroke	o	n/a
429.056	0.06	858112	keystroke	r	n/a
429.161	0.105	858322	keystroke	r	n/a
429.281	0.075	858562	keystroke	i	n/a
429.386	0.075	858772	keystroke	s	n/a
429.446	0.105	858892	keystroke	Key.space	n/a
429.611	0.075	859222	keystroke	h	n/a
429.701	0.09	859402	keystroke	a	n/a
429.806	0.06	859612	keystroke	l	n/a
429.941	0.09	859882	keystroke	l	n/a
430.046	0.105	860092	keystroke	Key.space	n/a
430.196	0.09	860392	keystroke	l	n/a
430.361	0.105	860722	keystroke	o	n/a
430.451	0.06	860902	keystroke	u	n/a
430.601	0.075	861202	keystroke	n	n/a
430.781	0.075	861562	keystroke	g	n/a
430.871	0.09	861742	keystroke	e	n/a
430.991	0.06	861982	keystroke	Key.space	n/a
431.141	0.075	862282	keystroke	j	n/a
431.291	0.075	862582	keystroke	u	n/a
431.411	0.06	862822	keystroke	d	n/a
431.651	0.12	863302	keystroke	g	n/a
431.741	0.12	863482	keystroke	e	n/a
431.876	0.12	863752	keystroke	s	n/a
432.041	0.075	864082	keystroke	Key.enter	n/a
432.12	3.612	864240	prompt	n/a	moment out reporting latter\n
432.686	0.075	865372	keystroke	m	n/a
432.836	0.1205	865672	keystroke	o	n/a
432.9265	0.09	865853	keystroke	m	n/a
433.0765	0.076	866153	keystroke	e	n/a
433.1815	0.045	866363	keystroke	n	n/a
433.3165	0.06	866633	keystroke	t	n/a
433.3915	0.089	866783	keystroke	Key.space	n/a
433.5105	0.12	867021	keystroke	o	n/a
433.5705	0.09	867141	keystroke	u	n/a
433.6905	0.075	867381	keystroke	t	n/a
433.7805	0.105	867561	keystroke	Key.space	n/a
433.9605	0.12	867921	keystroke	r	n/a
434.0655	0.09	868131	keystroke	e	n/a
434.1705	0.12	868341	keystroke	p	n/a
434.2755	0.135	868551	keystroke	o	n/a
434.3955	0.075	868791	keystroke	r	n/a
434.561	0.06	869122	keystroke	t	n/a
434.651	0.105	869302	keystroke	i	n/a
434.711	0.105	869422	keystroke	n	n/a
434.831	0.06	869662	keystroke	g	n/a
434.861	0.09	869722	keystroke	Key.space	n/a
434.996	0.105	869992	keystroke	l	n/a
435.086	0.135	870172	keystroke	a	n/a
435.176	0.075	870352	keystroke	t	n/a
435.326	0.135	870652	keystroke	t	n/a
435.446	0.12	870892	keystroke	e	n/a
435.521	0.09	871042	keystroke	r	n/a
435.641	0.09	871282	keystroke	Key.enter	n/a
435.735	4.8125	871470	prompt	n/a	sleeping complex slight hayes\n
436.436	0.09	872872	keystroke	s	n/a
436.511	0.09	873022	keystroke	l	n/a
436.616	0.06	873232	keystroke	e	n/a
436.781	0.075	873562	keystroke	e	n/a
436.886	0.165	873772	keystroke	p	n/a
437.036	0.135	874072	keystroke	i	n/a
437.141	0.09	874282	keystroke	n	n/a
437.201	0.06	874402	keystroke	g	n/a
437.291	0.105	874582	keystroke	Key.space	n/a
437.561	0.06	875122	keystroke	c	n/a
437.636	0.195	875272	keystroke	o	n/a
437.801	0.09	875602	keystroke	m	n/a
437.951	0.1195	875902	keystroke	p	n/a
438.0855	0.0905	876171	keystroke	l	n/a
438.176	0.09	876352	keystroke	e	n/a
438.431	0.075	876862	keystroke	x	n/a
438.536	0.089	877072	keystroke	Key.space	n/a
438.731	0.075	877462	keystroke	s	n/a
438.851	0.119	877702	keystroke	l	n/a
438.926	0.104	877852	keystroke	i	n/a
439.045	0.076	878090	keystroke	g	n/a
439.196	0.059	878392	keystroke	h	n/a
439.271	0.074	878542	keystroke	t	n/a
439.376	0.105	878752	keystroke	Key.space	n/a
439.511	0.0745	879022	keystroke	h	n/a
439.6155	0.0895	879231	keystroke	a	n/a
439.735	0.075	879470	keystroke	y	n/a
440.11	0.09	880220	keystroke	e	n/a
440.2905	0.09	880581	keystroke	s	n/a
440.4855	0.06	880971	keystroke	Key.enter	n/a
440.5505	5.997	881101	prompt	n/a	bases thereby wyoming trusts\n
441.1305	0.09	882261	keystroke	b	n/a
441.2505	0.105	882501	keystroke	a	n/a
441.4455	0.105	882891	keystroke	s	n/a
441.5205	0.0905	883041	keystroke	e	n/a
441.671	0.105	883342	keystroke	s	n/a
441.806	0.09	883612	keystroke	Key.space	n/a
442.031	0.075	884062	keystroke	t	n/a
442.151	0.045	884302	keystroke	h	n/a
442.211	0.18	884422	keystroke	e	n/a
442.361	0.105	884722	keystroke	r	n/a
442.841	0.075	885682	keystroke	e	n/a
443.126	0.045	886252	keystroke	b	n/a
443.261	0.09	886522	keystroke	y	n/a
443.426	0.0745	886852	keystroke	Key.space	n/a
443.7865	0.075	887573	keystroke	w	n/a
444.431	0.075	888862	keystroke	y	n/a
444.626	0.165	889252	keystroke	o	n/a
444.806	0.075	889612	keystroke	m	n/a
445.031	0.09	890062	keystroke	i	n/a
445.091	0.105	890182	keystroke	n	n/a
445.211	0.075	890422	keystroke	g	n/a
445.3	0.091	890600	keystroke	Key.space	n/a
445.526	0.06	891052	keystroke	t	n/a
445.691	0.075	891382	keystroke	r	n/a
445.796	0.06	891592	keystroke	u	n/a
445.901	0.18	891802	keystroke	s	n/a
446.051	0.09	892102	keystroke	t	n/a
446.171	0.1045	892342	keystroke	s	n/a
446.471	0.075	892942	keystroke	Key.enter	n/a
446.551	5.7715	893102	prompt	n/a	biblical assessing come dozen\n
447.116	0.105	894232	keystroke	b	n/a
447.266	0.075	894532	keystroke	i	n/a
447.401	0.06	894802	keystroke	b	n/a
447.551	0.105	895102	keystroke	l	n/a
447.641	0.09	895282	keystroke	i	n/a
447.821	0.075	895642	keystroke	c	n/a
448.001	0.105	896002	keystroke	a	n/a
448.166	0.12	896332	keystroke	l	n/a
448.421	0.0745	896842	keystroke	Key.space	n/a
448.9155	0.12	897831	keystroke	a	n/a
449.0205	0.075	898041	keystroke	s	n/a
449.1555	0.09	898311	keystroke	s	n/a
449.2605	0.105	898521	keystroke	e	n/a
449.3805	0.09	898761	keystroke	s	n/a
449.6655	0.075	899331	keystroke	s	n/a
449.9505	0.075	899901	keystroke	i	n/a
449.9955	0.09	899991	keystroke	n	n/a
450.1155	0.06	900231	keystroke	g	n/a
450.2055	0.09	900411	keystroke	Key.space	n/a
450.8055	0.12	901611	keystroke	c	n/a
450.9105	0.09	901821	keystroke	o	n/a
450.9555	0.09	901911	keystroke	m	n/a
451.0305	0.09	902061	keystroke	e	n/a
451.1355	0.075	902271	keystroke	Key.space	n/a
451.2705	0.09	902541	keystroke	d	n/a
451.3615	0.074	902723	keystroke	o	n/a
451.676	0.0905	903352	keystroke	z	n/a
451.8715	0.0595	903743	keystroke	e	n/a
452.0215	0.06	904043	keystroke	n	n/a
452.2765	0.045	904553	keystroke	Key.enter	n/a
452.3255	8.3825	904651	prompt	n/a	wallpapers singing oven countries\n
452.891	0.09	905782	keystroke	w	n/a
453.011	0.12	906022	keystroke	a	n/a
453.086	0.075	906172	keystroke	l	n/a
453.221	0.12	906442	keystroke	l	n/a
453.356	0.09	906712	keystroke	Key.space	n/a
453.461	0.09	906922	keystroke	p	n/a
453.566	0.12	907132	keystroke	w	n/a
453.671	0.18	907342	keystroke	a	n/a
453.746	0.075	907492	keystroke	p	n/a
454.016	0.059	908032	keystroke	Key.backspace	n/a
454.1665	0.06	908333	keystroke	Key.backspace	n/a
454.286	0.0755	908572	keystroke	Key.backspace	n/a
454.3915	0.0895	908783	keystroke	a	n/a
454.526	0.075	909052	keystroke	p	n/a
454.631	0.12	909262	keystroke	e	n/a
454.706	0.12	909412	keystroke	r	n/a
454.916	0.105	909832	keystroke	s	n/a
455.036	0.09	910072	keystroke	Key.space	n/a
455.276	0.105	910552	keystroke	s	n/a
455.396	0.12	910792	keystroke	i	n/a
455.471	0.09	910942	keystroke	n	n/a
455.621	0.06	911242	keystroke	g	n/a
455.726	0.105	911452	keystroke	i	n/a
455.786	0.105	911572	keystroke	n	n/a
455.876	0.06	911752	keystroke	g	n/a
455.981	0.09	911962	keystroke	Key.space	n/a
456.131	0.105	912262	keystroke	o	n/a
456.416	0.045	912832	keystroke	n	n/a
456.431	0.015	912862	keystroke	b	n/a
456.566	0.09	913132	keystroke	e	n/a
456.911	0.06	913822	keystroke	Key.backspace	n/a
457.031	0.09	914062	keystroke	Key.backspace	n/a
457.136	0.074	914272	keystroke	b	n/a
457.301	0.075	914602	keystroke	e	n/a
457.525	0.0605	915050	keystroke	Key.backspace	n/a
457.6455	0.09	915291	keystroke	Key.backspace	n/a
457.7805	0.09	915561	keystroke	Key.backspace	n/a
458.4855	0.105	916971	keystroke	v	n/a
458.6355	0.045	917271	keystroke	e	n/a
458.6955	0.09	917391	keystroke	n	n/a
458.7705	0.0905	917541	keystroke	Key.space	n/a
458.966	0.045	917932	keystroke	e	n/a
459.311	0.075	918622	keystroke	Key.backspace	n/a
459.476	0.075	918952	keystroke	c	n/a
459.566	0.105	919132	keystroke	o	n/a
459.641	0.06	919282	keystroke	u	n/a
459.776	0.0895	919552	keystroke	n	n/a
459.9405	0.06	919881	keystroke	t	n/a
460.1055	0.0905	920211	keystroke	r	n/a
460.211	0.06	920422	keystroke	i	n/a
460.286	0.0745	920572	keystroke	e	n/a
460.4505	0.0905	920901	keystroke	s	n/a
460.616	0.0905	921232	keystroke	Key.enter	n/a
460.7125	9.1605	921425	prompt	n/a	cashiers those're jewelry alternatives\n
461.5315	0.105	923063	keystroke	c	n/a
461.6515	0.12	923303	keystroke	a	n/a
461.9815	0.075	923963	keystroke	s	n/a
462.1315	0.119	924263	keystroke	h	n/a
462.2365	0.12	924473	keystroke	i	n/a
462.3415	0.1345	924683	keystroke	e	n/a
462.461	0.1355	924922	keystroke	s	n/a
463.015	0.045	926030	keystroke	Key.backspace	n/a
463.151	0.075	926302	keystroke	r	n/a
463.3455	0.09	926691	keystroke	s	n/a
463.4505	0.06	926901	keystroke	Key.space	n/a
463.7355	0.075	927471	keystroke	t	n/a
463.8255	0.105	927651	keystroke	h	n/a
463.9005	0.12	927801	keystroke	o	n/a
464.0355	0.06	928071	keystroke	s	n/a
464.3655	0.075	928731	keystroke	e	n/a
464.606	0.0745	929212	keystroke	'	n/a
465.0105	0.1355	930021	keystroke	r	n/a
465.116	0.09	930232	keystroke	e	n/a
465.251	0.075	930502	keystroke	Key.space	n/a
465.5055	0.075	931011	keystroke	j	n/a
465.6255	0.12	931251	keystroke	e	n/a
465.7455	0.1355	931491	keystroke	w	n/a
466.2105	0.075	932421	keystroke	e	n/a
466.4355	0.105	932871	keystroke	l	n/a
466.826	0.06	933652	keystroke	r	n/a
467.036	0.09	934072	keystroke	y	n/a
467.111	0.06	934222	keystroke	Key.space	n/a
467.381	0.09	934762	keystroke	a	n/a
467.456	0.1055	934912	keystroke	l	n/a
467.5765	0.09	935153	keystroke	t	n/a
467.6515	0.135	935303	keystroke	e	n/a
467.7565	0.09	935513	keystroke	r	n/a
