onset	duration	sample	value	key	prompt_text
4.4165	12.079	8833	prompt	n/a	the quick brown fox jumps over a lazy dog\n
5.9495	0.042	11899	keystroke	t	n/a
5.9615	0.061	11923	keystroke	h	n/a
6.1425	0.09	12285	keystroke	e	n/a
6.2465	0.09	12493	keystroke	Key.space	n/a
6.6075	0.0295	13215	keystroke	w	n/a
6.892	0.09	13784	keystroke	u	n/a
6.922	0.105	13844	keystroke	i	n/a
7.057	0.09	14114	keystroke	c	n/a
7.162	0.075	14324	keystroke	k	n/a
7.342	0.075	14684	keystroke	Key.space	n/a
7.522	0.075	15044	keystroke	b	n/a
7.642	0.0905	15284	keystroke	r	n/a
7.7475	0.09	15495	keystroke	o	n/a
7.8525	0.105	15705	keystroke	w	n/a
7.9725	0.06	15945	keystroke	n	n/a
8.1225	0.075	16245	keystroke	Key.space	n/a
8.4975	0.12	16995	keystroke	Key.backspace	n/a
9.2025	0.06	18405	keystroke	Key.backspace	n/a
9.3675	0.0595	18735	keystroke	Key.backspace	n/a
9.502	0.06	19004	keystroke	Key.backspace	n/a
9.622	0.06	19244	keystroke	Key.backspace	n/a
9.742	0.045	19484	keystroke	Key.backspace	n/a
9.832	0.06	19664	keystroke	Key.backspace	n/a
9.937	0.06	19874	keystroke	Key.backspace	n/a
10.042	0.06	20084	keystroke	Key.backspace	n/a
10.147	0.09	20294	keystroke	Key.backspace	n/a
10.297	0.075	20594	keystroke	Key.backspace	n/a
10.537	0.075	21074	keystroke	Key.backspace	n/a
11.6775	0.105	23355	keystroke	q	n/a
11.7975	0.09	23595	keystroke	u	n/a
11.8125	0.09	23625	keystroke	i	n/a
12.1275	0.09	24255	keystroke	c	n/a
12.2475	0.105	24495	keystroke	k	n/a
12.3525	0.105	24705	keystroke	Key.space	n/a
12.5475	0.09	25095	keystroke	b	n/a
12.6675	0.0745	25335	keystroke	r	n/a
12.757	0.0905	25514	keystroke	o	n/a
12.8625	0.0745	25725	keystroke	w	n/a
12.952	0.0755	25904	keystroke	n	n/a
13.1025	0.09	26205	keystroke	Key.space	n/a
13.2225	0.06	26445	keystroke	f	n/a
13.3125	0.075	26625	keystroke	o	n/a
13.4625	0.09	26925	keystroke	x	n/a
13.5675	0.075	27135	keystroke	Key.space	n/a
13.7925	0.075	27585	keystroke	j	n/a
13.972	0.045	27944	keystroke	u	n/a
14.152	0.075	28304	keystroke	m	n/a
14.407	0.015	28814	keystroke	p	n/a
14.437	0.075	28874	keystroke	s	n/a
14.513	0.059	29026	keystroke	Key.space	n/a
14.662	0.075	29324	keystroke	o	n/a
14.722	0.045	29444	keystroke	v	n/a
14.8875	0.09	29775	keystroke	e	n/a
14.9325	0.105	29865	keystroke	r	n/a
15.0225	0.075	30045	keystroke	Key.space	n/a
15.1125	0.09	30225	keystroke	a	n/a
15.1875	0.075	30375	keystroke	Key.space	n/a
15.3225	0.09	30645	keystroke	l	n/a
15.3675	0.1345	30735	keystroke	a	n/a
15.532	0.105	31064	keystroke	z	n/a
15.6975	0.075	31395	keystroke	y	n/a
15.8025	0.105	31605	keystroke	Key.space	n/a
16.0875	0.105	32175	keystroke	d	n/a
16.178	0.1045	32356	keystroke	o	n/a
16.2975	0.075	32595	keystroke	g	n/a
16.4325	0.06	32865	keystroke	Key.enter	n/a
16.5035	8.5855	33007	prompt	n/a	patrick openings ball contributors\n
17.273	0.105	34546	keystroke	p	n/a
17.347	0.106	34694	keystroke	a	n/a
17.438	0.074	34876	keystroke	r	n/a
17.932	0.0905	35864	keystroke	Key.backspace	n/a
18.0975	0.12	36195	keystroke	t	n/a
18.1575	0.09	36315	keystroke	r	n/a
18.5325	0.075	37065	keystroke	i	n/a
18.6375	0.09	37275	keystroke	c	n/a
18.7425	0.075	37485	keystroke	k	n/a
18.8325	0.075	37665	keystroke	Key.space	n/a
19.0425	0.135	38085	keystroke	o	n/a
19.1325	0.09	38265	keystroke	p	n/a
19.2975	0.105	38595	keystroke	e	n/a
19.3425	0.075	38685	keystroke	n	n/a
19.5225	0.075	39045	keystroke	i	n/a
19.5375	0.105	39075	keystroke	n	n/a
19.6275	0.09	39255	keystroke	g	n/a
19.7775	0.105	39555	keystroke	Key.space	n/a
19.8675	0.0905	39735	keystroke	s	n/a
20.018	0.074	40036	keystroke	Key.space	n/a
20.557	0.061	41114	keystroke	Key.backspace	n/a
20.723	0.06	41446	keystroke	Key.backspace	n/a
20.857	0.031	41714	keystroke	Key.backspace	n/a
20.933	0.059	41866	keystroke	Key.backspace	n/a
21.083	0.105	42166	keystroke	s	n/a
21.203	0.074	42406	keystroke	Key.space	n/a
22.117	0.075	44234	keystroke	b	n/a
22.208	0.09	44416	keystroke	a	n/a
22.312	0.06	44624	keystroke	l	n/a
22.433	0.09	44866	keystroke	l	n/a
22.507	0.106	45014	keystroke	Key.space	n/a
22.942	0.091	45884	keystroke	c	n/a
22.988	0.12	45976	keystroke	o	n/a
23.063	0.104	46126	keystroke	n	n/a
23.168	0.09	46336	keystroke	t	n/a
23.213	0.105	46426	keystroke	r	n/a
23.632	0.09	47264	keystroke	i	n/a
23.782	0.09	47564	keystroke	b	n/a
23.9325	0.03	47865	keystroke	u	n/a
24.0225	0.06	48045	keystroke	t	n/a
24.3075	0.135	48615	keystroke	o	n/a
24.4575	0.105	48915	keystroke	r	n/a
24.5775	0.105	49155	keystroke	s	n/a
24.9975	0.09	49995	keystroke	Key.enter	n/a
25.0925	7.1965	50185	prompt	n/a	just jazz selecting verizon\n
25.8825	0.0745	51765	keystroke	j	n/a
26.047	0.045	52094	keystroke	u	n/a
26.062	0.12	52124	keystroke	s	n/a
26.122	0.105	52244	keystroke	t	n/a
26.212	0.09	52424	keystroke	Key.space	n/a
26.407	0.06	52814	keystroke	j	n/a
26.482	0.15	52964	keystroke	a	n/a
27.157	0.075	54314	keystroke	z	n/a
27.307	0.105	54614	keystroke	z	n/a
27.413	0.104	54826	keystroke	Key.space	n/a
28.072	0.06	56144	keystroke	d	n/a
28.087	0.03	56174	keystroke	s	n/a
28.852	0.075	57704	keystroke	Key.backspace	n/a
29.018	0.029	58036	keystroke	Key.backspace	n/a
29.317	0.105	58634	keystroke	s	n/a
29.5425	0.06	59085	keystroke	e	n/a
29.6625	0.105	59325	keystroke	l	n/a
29.7525	0.135	59505	keystroke	e	n/a
30.2475	0.075	60495	keystroke	c	n/a
30.4575	0.06	60915	keystroke	t	n/a
30.5325	0.105	61065	keystroke	i	n/a
30.5775	0.0895	61155	keystroke	n	n/a
30.652	0.06	61304	keystroke	g	n/a
30.742	0.09	61484	keystroke	Key.space	n/a
31.0575	0.0595	62115	keystroke	v	n/a
31.282	0.09	62564	keystroke	e	n/a
31.312	0.09	62624	keystroke	r	n/a
31.462	0.09	62924	keystroke	i	n/a
31.657	0.09	63314	keystroke	z	n/a
31.852	0.15	63704	keystroke	o	n/a
31.9275	0.1045	63855	keystroke	n	n/a
32.197	0.09	64394	keystroke	Key.enter	n/a
32.292	11.997	64584	prompt	n/a	proteins volume helen nobody\n
32.9925	0.105	65985	keystroke	p	n/a
33.1275	0.09	66255	keystroke	r	n/a
33.4575	0.09	66915	keystroke	o	n/a
33.6075	0.075	67215	keystroke	t	n/a
33.8625	0.09	67725	keystroke	e	n/a
34.1775	0.075	68355	keystroke	i	n/a
34.5975	0.09	69195	keystroke	n	n/a
34.7175	0.105	69435	keystroke	s	n/a
34.8075	0.105	69615	keystroke	Key.space	n/a
35.467	0.06	70934	keystroke	v	n/a
35.482	0.12	70964	keystroke	o	n/a
35.677	0.075	71354	keystroke	l	n/a
35.917	0.061	71834	keystroke	u	n/a
36.1425	0.0755	72285	keystroke	m	n/a
36.2475	0.09	72495	keystroke	e	n/a
36.323	0.09	72646	keystroke	Key.space	n/a
36.983	0.09	73966	keystroke	h	n/a
37.0875	0.09	74175	keystroke	e	n/a
37.2075	0.105	74415	keystroke	l	n/a
37.268	0.09	74536	keystroke	e	n/a
37.523	0.09	75046	keystroke	n	n/a
37.628	0.09	75256	keystroke	Key.space	n/a
38.2125	0.12	76425	keystroke	n	n/a
38.3175	0.105	76635	keystroke	o	n/a
39.5625	0.09	79125	keystroke	b	n/a
39.8025	0.015	79605	keystroke	o	n/a
41.9345	0.013	83869	keystroke	d	n/a
41.9775	0.1195	83955	keystroke	o	n/a
42.0525	0.1055	84105	keystroke	y	n/a
42.997	0.075	85994	keystroke	Key.backspace	n/a
43.147	0.09	86294	keystroke	Key.backspace	n/a
44.093	0.0745	88186	keystroke	y	n/a
44.1975	0.09	88395	keystroke	Key.enter	n/a
44.292	7.587	88584	prompt	n/a	original contracting remember airplane\n
45.0675	0.09	90135	keystroke	o	n/a
45.1725	0.075	90345	keystroke	r	n/a
45.2925	0.105	90585	keystroke	i	n/a
45.4125	0.06	90825	keystroke	g	n/a
45.5025	0.09	91005	keystroke	i	n/a
45.5475	0.105	91095	keystroke	n	n/a
45.6825	0.09	91365	keystroke	a	n/a
45.7875	0.06	91575	keystroke	l	n/a
45.8925	0.075	91785	keystroke	Key.space	n/a
46.223	0.09	92446	keystroke	c	n/a
46.403	0.12	92806	keystroke	o	n/a
46.478	0.12	92956	keystroke	n	n/a
46.583	0.1045	93166	keystroke	t	n/a
46.6425	0.105	93285	keystroke	r	n/a
46.8675	0.09	93735	keystroke	a	n/a
46.9125	0.105	93825	keystroke	c	n/a
47.1225	0.06	94245	keystroke	t	n/a
47.1975	0.12	94395	keystroke	i	n/a
47.2575	0.09	94515	keystroke	n	n/a
47.3325	0.075	94665	keystroke	g	n/a
47.4375	0.105	94875	keystroke	Key.space	n/a
47.6325	0.06	95265	keystroke	r	n/a
47.6775	0.105	95355	keystroke	e	n/a
47.7675	0.075	95535	keystroke	m	n/a
47.8875	0.09	95775	keystroke	e	n/a
47.9025	0.09	95805	keystroke	m	n/a
48.0375	0.09	96075	keystroke	v	n/a
48.2475	0.075	96495	keystroke	e	n/a
48.2775	0.105	96555	keystroke	r	n/a
48.3675	0.105	96735	keystroke	Key.space	n/a
49.1325	0.09	98265	keystroke	Key.backspace	n/a
49.2825	0.06	98565	keystroke	Key.backspace	n/a
49.4025	0.12	98805	keystroke	Key.backspace	n/a
49.7925	0.015	99585	keystroke	Key.backspace	n/a
50.2125	0.0605	100425	keystroke	b	n/a
50.408	0.089	100816	keystroke	e	n/a
50.438	0.12	100876	keystroke	r	n/a
50.573	0.074	101146	keystroke	Key.space	n/a
50.708	0.075	101416	keystroke	a	n/a
50.842	0.06	101684	keystroke	i	n/a
50.962	0.091	101924	keystroke	r	n/a
51.113	0.164	102226	keystroke	p	n/a
51.232	0.135	102464	keystroke	l	n/a
51.383	0.135	102766	keystroke	a	n/a
51.578	0.06	103156	keystroke	n	n/a
51.683	0.075	103366	keystroke	e	n/a
51.803	0.075	103606	keystroke	Key.enter	n/a
51.8935	5.926	103787	prompt	n/a	thank humanities jeffrey regime\n
52.5675	0.09	105135	keystroke	t	n/a
52.6275	0.09	105255	keystroke	h	n/a
52.8375	0.105	105675	keystroke	a	n/a
52.8825	0.1045	105765	keystroke	n	n/a
53.017	0.09	106034	keystroke	k	n/a
53.197	0.12	106394	keystroke	Key.space	n/a
53.587	0.0755	107174	keystroke	h	n/a
53.6475	0.105	107295	keystroke	u	n/a
53.8575	0.1045	107715	keystroke	m	n/a
53.963	0.104	107926	keystroke	a	n/a
54.217	0.105	108434	keystroke	n	n/a
54.367	0.09	108734	keystroke	i	n/a
54.472	0.09	108944	keystroke	t	n/a
54.592	0.09	109184	keystroke	i	n/a
54.742	0.105	109484	keystroke	e	n/a
54.952	0.105	109904	keystroke	s	n/a
55.072	0.075	110144	keystroke	Key.space	n/a
55.507	0.075	111014	keystroke	j	n/a
55.612	0.135	111224	keystroke	e	n/a
55.687	0.105	111374	keystroke	f	n/a
55.882	0.1205	111764	keystroke	f	n/a
56.1375	0.12	112275	keystroke	r	n/a
56.1975	0.135	112395	keystroke	e	n/a
56.4375	0.06	112875	keystroke	y	n/a
56.6025	0.09	113205	keystroke	Key.space	n/a
57.0525	0.1045	114105	keystroke	r	n/a
57.112	0.09	114224	keystroke	e	n/a
57.307	0.06	114614	keystroke	g	n/a
57.412	0.15	114824	keystroke	i	n/a
57.517	0.105	115034	keystroke	m	n/a
57.592	0.105	115184	keystroke	e	n/a
57.727	0.09	115454	keystroke	Key.enter	n/a
57.8225	15.2815	115645	prompt	n/a	deemed inspection spyware providence\n
58.582	0.075	117164	keystroke	d	n/a
58.762	0.06	117524	keystroke	e	n/a
58.882	0.12	117764	keystroke	e	n/a
59.017	0.105	118034	keystroke	m	n/a
59.123	0.074	118246	keystroke	d	n/a
59.212	0.09	118424	keystroke	Key.space	n/a
59.392	0.09	118784	keystroke	i	n/a
59.422	0.12	118844	keystroke	n	n/a
59.527	0.09	119054	keystroke	s	n/a
59.662	0.075	119324	keystroke	p	n/a
59.8275	0.135	119655	keystroke	e	n/a
60.0825	0.075	120165	keystroke	c	n/a
60.2775	0.06	120555	keystroke	t	n/a
60.3525	0.09	120705	keystroke	i	n/a
60.3975	0.12	120795	keystroke	o	n/a
60.5475	0.075	121095	keystroke	n	n/a
60.7125	0.09	121425	keystroke	Key.space	n/a
61.237	0.09	122474	keystroke	s	n/a
61.387	0.105	122774	keystroke	p	n/a
61.927	0.075	123854	keystroke	Key.backspace	n/a
62.077	0.075	124154	keystroke	Key.backspace	n/a
62.227	0.06	124454	keystroke	Key.backspace	n/a
62.347	0.06	124694	keystroke	Key.backspace	n/a
62.452	0.045	124904	keystroke	Key.backspace	n/a
62.5575	0.06	125115	keystroke	Key.backspace	n/a
62.6775	0.03	125355	keystroke	Key.backspace	n/a
62.7675	0.075	125535	keystroke	Key.backspace	n/a
62.8725	0.045	125745	keystroke	Key.backspace	n/a
62.9625	0.075	125925	keystroke	Key.backspace	n/a
63.0825	0.06	126165	keystroke	Key.backspace	n/a
63.1725	0.06	126345	keystroke	Key.backspace	n/a
63.2925	0.06	126585	keystroke	Key.backspace	n/a
63.3825	0.075	126765	keystroke	Key.backspace	n/a
63.7125	0.06	127425	keystroke	Key.backspace	n/a
64.087	0.09	128174	keystroke	e	n/a
64.237	0.09	128474	keystroke	d	n/a
64.342	0.09	128684	keystroke	Key.space	n/a
64.957	0.105	129914	keystroke	i	n/a
65.002	0.105	130004	keystroke	n	n/a
65.137	0.075	130274	keystroke	s	n/a
65.8275	0.075	131655	keystroke	p	n/a
66.2775	0.135	132555	keystroke	e	n/a
66.3825	0.12	132765	keystroke	c	n/a
66.697	0.075	133394	keystroke	t	n/a
66.832	0.105	133664	keystroke	i	n/a
66.892	0.105	133784	keystroke	o	n/a
67.042	0.105	134084	keystroke	n	n/a
67.162	0.075	134324	keystroke	s	n/a
67.492	0.06	134984	keystroke	Key.backspace	n/a
67.657	0.045	135314	keystroke	Key.space	n/a
68.032	0.075	136064	keystroke	s	n/a
68.497	0.06	136994	keystroke	y	n/a
68.7825	0.075	137565	keystroke	Key.backspace	n/a
69.0075	0.06	138015	keystroke	p	n/a
69.2475	0.045	138495	keystroke	y	n/a
69.2625	0.015	138525	keystroke	u	n/a
69.8025	0.075	139605	keystroke	Key.backspace	n/a
70.207	0.12	140414	keystroke	w	n/a
70.297	0.09	140594	keystroke	a	n/a
70.492	0.105	140984	keystroke	r	n/a
70.537	0.12	141074	keystroke	e	n/a
70.672	0.12	141344	keystroke	Key.space	n/a
71.392	0.105	142784	keystroke	p	n/a
71.467	0.075	142934	keystroke	r	n/a
71.617	0.09	143234	keystroke	o	n/a
71.707	0.09	143414	keystroke	v	n/a
71.827	0.075	143654	keystroke	i	n/a
71.9325	0.09	143865	keystroke	d	n/a
72.1725	0.09	144345	keystroke	e	n/a
72.6825	0.09	145365	keystroke	n	n/a
72.7575	0.135	145515	keystroke	c	n/a
72.8325	0.09	145665	keystroke	e	n/a
73.0275	0.075	146055	keystroke	Key.enter	n/a
73.1085	5.5005	146217	prompt	n/a	cheat redeem shot formed\n
73.852	0.06	147704	keystroke	c	n/a
73.928	0.089	147856	keystroke	h	n/a
73.972	0.105	147944	keystroke	e	n/a
74.212	0.135	148424	keystroke	a	n/a
74.272	0.12	148544	keystroke	t	n/a
74.422	0.105	148844	keystroke	Key.space	n/a
74.573	0.104	149146	keystroke	r	n/a
75.517	0.106	151034	keystroke	e	n/a
75.757	0.075	151514	keystroke	d	n/a
75.952	0.046	151904	keystroke	e	n/a
76.057	0.09	152114	keystroke	e	n/a
76.1925	0.105	152385	keystroke	m	n/a
76.3125	0.075	152625	keystroke	Key.space	n/a
76.4925	0.09	152985	keystroke	s	n/a
76.5975	0.12	153195	keystroke	h	n/a
76.6875	0.105	153375	keystroke	o	n/a
76.7775	0.075	153555	keystroke	t	n/a
76.8825	0.12	153765	keystroke	Key.space	n/a
77.872	0.0755	155744	keystroke	f	n/a
77.9325	0.105	155865	keystroke	o	n/a
78.0525	0.09	156105	keystroke	r	n/a
78.1575	0.105	156315	keystroke	m	n/a
78.2775	0.075	156555	keystroke	e	n/a
78.3975	0.15	156795	keystroke	d	n/a
78.5025	0.105	157005	keystroke	Key.enter	n/a
78.6115	6.057	157223	prompt	n/a	jumping civilization president alien\n
79.432	0.06	158864	keystroke	j	n/a
79.582	0.09	159164	keystroke	u	n/a
79.792	0.09	159584	keystroke	m	n/a
79.927	0.135	159854	keystroke	p	n/a
80.182	0.075	160364	keystroke	i	n/a
80.227	0.075	160454	keystroke	n	n/a
80.287	0.06	160574	keystroke	g	n/a
80.362	0.105	160724	keystroke	Key.space	n/a
81.037	0.09	162074	keystroke	c	n/a
81.142	0.09	162284	keystroke	i	n/a
81.262	0.075	162524	keystroke	v	n/a
81.337	0.075	162674	keystroke	i	n/a
81.5325	0.059	163065	keystroke	l	n/a
81.6825	0.09	163365	keystroke	i	n/a
81.9525	0.135	163905	keystroke	z	n/a
82.1175	0.09	164235	keystroke	a	n/a
82.3575	0.09	164715	keystroke	t	n/a
82.4475	0.105	164895	keystroke	i	n/a
82.5075	0.12	165015	keystroke	o	n/a
82.6425	0.105	165285	keystroke	n	n/a
82.7325	0.06	165465	keystroke	Key.space	n/a
82.8825	0.06	165765	keystroke	p	n/a
82.9575	0.105	165915	keystroke	r	n/a
83.0175	0.075	166035	keystroke	e	n/a
83.1825	0.075	166365	keystroke	s	n/a
83.2575	0.09	166515	keystroke	i	n/a
83.3625	0.09	166725	keystroke	d	n/a
83.5275	0.075	167055	keystroke	e	n/a
83.6175	0.09	167235	keystroke	n	n/a
83.7225	0.06	167445	keystroke	t	n/a
83.7975	0.09	167595	keystroke	Key.space	n/a
83.9625	0.075	167925	keystroke	a	n/a
84.0525	0.06	168105	keystroke	l	n/a
84.2475	0.075	168495	keystroke	i	n/a
84.337	0.09	168674	keystroke	e	n/a
84.442	0.075	168884	keystroke	n	n/a
84.652	0.015	169304	keystroke	Key.enter	n/a
84.672	6.7165	169344	prompt	n/a	circle moderate read amendments\n
85.447	0.075	170894	keystroke	c	n/a
85.537	0.09	171074	keystroke	i	n/a
85.642	0.06	171284	keystroke	r	n/a
85.8525	0.075	171705	keystroke	c	n/a
85.987	0.09	171974	keystroke	l	n/a
86.107	0.09	172214	keystroke	e	n/a
86.212	0.075	172424	keystroke	Key.space	n/a
86.452	0.06	172904	keystroke	m	n/a
86.497	0.09	172994	keystroke	o	n/a
86.617	0.09	173234	keystroke	d	n/a
86.827	0.09	173654	keystroke	e	n/a
86.887	0.09	173774	keystroke	r	n/a
87.022	0.1055	174044	keystroke	a	n/a
87.0975	0.165	174195	keystroke	t	n/a
87.2475	0.09	174495	keystroke	e	n/a
87.3525	0.105	174705	keystroke	Key.space	n/a
87.4425	0.135	174885	keystroke	r	n/a
87.5325	0.135	175065	keystroke	e	n/a
87.7725	0.1795	175545	keystroke	a	n/a
87.8625	0.1195	175725	keystroke	d	n/a
88.342	0.1055	176684	keystroke	Key.space	n/a
88.702	0.09	177404	keystroke	a	n/a
88.852	0.06	177704	keystroke	n	n/a
89.152	0.045	178304	keystroke	Key.backspace	n/a
89.392	0.0595	178784	keystroke	m	n/a
89.4675	0.075	178935	keystroke	e	n/a
89.5865	0.076	179173	keystroke	n	n/a
89.7365	0.121	179473	keystroke	d	n/a
90.5175	0.075	181035	keystroke	m	n/a
90.5775	0.12	181155	keystroke	e	n/a
90.7265	0.075	181453	keystroke	n	n/a
90.9675	0.09	181935	keystroke	t	n/a
91.2075	0.075	182415	keystroke	s	n/a
91.3125	0.075	182625	keystroke	Key.enter	n/a
91.3915	5.292	182783	prompt	n/a	remain pathology causes tight\n
92.0475	0.09	184095	keystroke	r	n/a
92.0925	0.105	184185	keystroke	e	n/a
92.1825	0.075	184365	keystroke	m	n/a
92.2875	0.105	184575	keystroke	a	n/a
92.4075	0.105	184815	keystroke	i	n/a
92.4675	0.105	184935	keystroke	n	n/a
92.5575	0.09	185115	keystroke	Key.space	n/a
92.8725	0.09	185745	keystroke	p	n/a
92.9775	0.06	185955	keystroke	a	n/a
93.2025	0.09	186405	keystroke	t	n/a
93.2325	0.105	186465	keystroke	h	n/a
93.3225	0.06	186645	keystroke	o	n/a
93.4725	0.09	186945	keystroke	l	n/a
94.1025	0.075	188205	keystroke	o	n/a
94.342	0.0605	188684	keystroke	g	n/a
94.522	0.0605	189044	keystroke	y	n/a
94.6275	0.105	189255	keystroke	Key.space	n/a
94.9725	0.1195	189945	keystroke	c	n/a
95.047	0.1055	190094	keystroke	a	n/a
95.1525	0.09	190305	keystroke	u	n/a
95.2575	0.12	190515	keystroke	s	n/a
95.3775	0.15	190755	keystroke	e	n/a
95.497	0.1055	190994	keystroke	s	n/a
95.6325	0.1045	191265	keystroke	Key.space	n/a
96.1115	0.075	192223	keystroke	t	n/a
96.1875	0.089	192375	keystroke	i	n/a
96.3065	0.09	192613	keystroke	g	n/a
96.3975	0.09	192795	keystroke	h	n/a
96.5015	0.06	193003	keystroke	t	n/a
96.5765	0.105	193153	keystroke	Key.enter	n/a
96.686	7.4375	193372	prompt	n/a	hugo visiting carlos appear\n
97.462	0.135	194924	keystroke	h	n/a
97.582	0.045	195164	keystroke	i	n/a
97.672	0.06	195344	keystroke	g	n/a
98.1365	0.075	196273	keystroke	Key.backspace	n/a
98.6165	0.06	197233	keystroke	Key.backspace	n/a
98.8565	0.105	197713	keystroke	u	n/a
98.9765	0.09	197953	keystroke	g	n/a
99.1865	0.09	198373	keystroke	e	n/a
99.3065	0.1055	198613	keystroke	Key.space	n/a
99.712	0.06	199424	keystroke	Key.backspace	n/a
99.877	0.015	199754	keystroke	Key.backspace	n/a
100.267	0.075	200534	keystroke	o	n/a
100.447	0.09	200894	keystroke	Key.space	n/a
101.0325	0.075	202065	keystroke	v	n/a
101.1075	0.06	202215	keystroke	i	n/a
101.2125	0.105	202425	keystroke	s	n/a
101.3625	0.09	202725	keystroke	i	n/a
101.7525	0.075	203505	keystroke	t	n/a
101.9025	0.1195	203805	keystroke	i	n/a
101.962	0.075	203924	keystroke	n	n/a
101.992	0.09	203984	keystroke	g	n/a
102.127	0.105	204254	keystroke	Key.space	n/a
102.4425	0.089	204885	keystroke	c	n/a
102.6065	0.09	205213	keystroke	a	n/a
102.7275	0.075	205455	keystroke	r	n/a
102.8475	0.089	205695	keystroke	l	n/a
103.0565	0.09	206113	keystroke	o	n/a
103.1615	0.09	206323	keystroke	s	n/a
103.2665	0.09	206533	keystroke	Key.space	n/a
103.417	0.0895	206834	keystroke	a	n/a
103.5215	0.075	207043	keystroke	p	n/a
103.6265	0.075	207253	keystroke	p	n/a
103.6715	0.12	207343	keystroke	e	n/a
103.7615	0.15	207523	keystroke	a	n/a
103.8965	0.09	207793	keystroke	r	n/a
104.0315	0.09	208063	keystroke	Key.enter	n/a
104.128	7.7355	208256	prompt	n/a	scheduling sharp unlimited malaysia\n
105.022	0.12	210044	keystroke	s	n/a
105.097	0.09	210194	keystroke	c	n/a
105.202	0.09	210404	keystroke	h	n/a
105.307	0.045	210614	keystroke	e	n/a
105.442	0.075	210884	keystroke	d	n/a
105.532	0.075	211064	keystroke	u	n/a
105.727	0.075	211454	keystroke	l	n/a
105.922	0.0755	211844	keystroke	i	n/a
105.9675	0.06	211935	keystroke	n	n/a
105.9975	0.06	211995	keystroke	g	n/a
106.1175	0.089	212235	keystroke	Key.space	n/a
106.537	0.09	213074	keystroke	s	n/a
106.612	0.09	213224	keystroke	h	n/a
106.717	0.075	213434	keystroke	a	n/a
106.882	0.06	213764	keystroke	r	n/a
107.017	0.09	214034	keystroke	p	n/a
107.242	0.075	214484	keystroke	Key.space	n/a
107.497	0.0755	214994	keystroke	u	n/a
107.5575	0.105	215115	keystroke	n	n/a
108.3075	0.105	216615	keystroke	l	n/a
108.5625	0.135	217125	keystroke	i	n/a
108.6825	0.135	217365	keystroke	m	n/a
109.4775	0.075	218955	keystroke	i	n/a
109.5975	0.135	219195	keystroke	t	n/a
109.6875	0.105	219375	keystroke	e	n/a
109.8525	0.105	219705	keystroke	d	n/a
109.9725	0.105	219945	keystroke	Key.space	n/a
110.2125	0.0745	220425	keystroke	m	n/a
110.302	0.075	220604	keystroke	a	n/a
110.407	0.09	220814	keystroke	l	n/a
110.482	0.06	220964	keystroke	a	n/a
110.947	0.09	221894	keystroke	y	n/a
111.067	0.075	222134	keystroke	s	n/a
111.187	0.06	222374	keystroke	i	n/a
111.322	0.09	222644	keystroke	a	n/a
111.7875	0.075	223575	keystroke	Key.enter	n/a
111.8665	12.162	223733	prompt	n/a	expensive shan't combines prescription\n
112.642	0.06	225284	keystroke	e	n/a
112.852	0.09	225704	keystroke	x	n/a
112.9725	0.09	225945	keystroke	p	n/a
113.0925	0.06	226185	keystroke	e	n/a
113.1975	0.075	226395	keystroke	n	n/a
113.2875	0.075	226575	keystroke	s	n/a
113.4075	0.075	226815	keystroke	i	n/a
113.5275	0.105	227055	keystroke	v	n/a
113.6025	0.1345	227205	keystroke	e	n/a
113.797	0.12	227594	keystroke	Key.space	n/a
114.1125	0.09	228225	keystroke	s	n/a
114.1875	0.075	228375	keystroke	h	n/a
114.2775	0.09	228555	keystroke	a	n/a
114.4125	0.075	228825	keystroke	n	n/a
114.6825	0.09	229365	keystroke	;	n/a
114.8925	0.09	229785	keystroke	t	n/a
115.0125	0.075	230025	keystroke	Key.space	n/a
115.5515	0.076	231103	keystroke	Key.backspace	n/a
115.7025	0.045	231405	keystroke	Key.backspace	n/a
115.7915	0.091	231583	keystroke	Key.backspace	n/a
116.3625	0.105	232725	keystroke	'	n/a
116.6625	0.09	233325	keystroke	t	n/a
116.9775	0.074	233955	keystroke	Key.space	n/a
117.5315	0.076	235063	keystroke	c	n/a
117.6225	0.134	235245	keystroke	o	n/a
117.7425	0.074	235485	keystroke	m	n/a
117.9665	0.075	235933	keystroke	b	n/a
118.1015	0.15	236203	keystroke	i	n/a
118.1775	0.104	236355	keystroke	n	n/a
118.2365	0.075	236473	keystroke	e	n/a
118.3865	0.106	236773	keystroke	s	n/a
118.4765	0.09	236953	keystroke	Key.space	n/a
118.6715	0.075	237343	keystroke	p	n/a
118.9715	0.105	237943	keystroke	r	n/a
119.0315	0.076	238063	keystroke	e	n/a
119.1965	0.061	238393	keystroke	s	n/a
119.6015	0.09	239203	keystroke	c	n/a
119.8115	0.076	239623	keystroke	r	n/a
120.0825	0.089	240165	keystroke	i	n/a
120.4115	0.06	240823	keystroke	t	n/a
120.5315	0.136	241063	keystroke	o	n/a
121.1775	0.104	242355	keystroke	Key.backspace	n/a
122.2565	0.075	244513	keystroke	Key.backspace	n/a
122.902	0.06	245804	keystroke	p	n/a
123.022	0.09	246044	keystroke	t	n/a
123.157	0.105	246314	keystroke	i	n/a
123.232	0.105	246464	keystroke	o	n/a
123.367	0.105	246734	keystroke	n	n/a
123.487	0.09	246974	keystroke	Key.space	n/a
123.922	0.1045	247844	keystroke	Key.enter	n/a
124.0375	6.996	248075	prompt	n/a	systems organizations alternatives inter\n
124.7925	0.119	249585	keystroke	s	n/a
124.8965	0.09	249793	keystroke	y	n/a
124.9415	0.09	249883	keystroke	s	n/a
125.1365	0.105	250273	keystroke	t	n/a
125.2115	0.09	250423	keystroke	e	n/a
125.3615	0.106	250723	keystroke	m	n/a
125.4525	0.119	250905	keystroke	s	n/a
125.5865	0.075	251173	keystroke	Key.space	n/a
125.8565	0.06	251713	keystroke	o	n/a
125.9465	0.135	251893	keystroke	r	n/a
126.0365	0.09	252073	keystroke	g	n/a
126.1865	0.09	252373	keystroke	a	n/a
126.2915	0.075	252583	keystroke	n	n/a
126.4115	0.09	252823	keystroke	i	n/a
126.5315	0.105	253063	keystroke	z	n/a
126.6065	0.135	253213	keystroke	a	n/a
126.8165	0.09	253633	keystroke	t	n/a
126.9215	0.1205	253843	keystroke	i	n/a
126.9515	0.1055	253903	keystroke	o	n/a
127.147	0.105	254294	keystroke	n	n/a
127.192	0.09	254384	keystroke	Key.space	n/a
127.342	0.12	254684	keystroke	a	n/a
127.447	0.075	254894	keystroke	l	n/a
127.627	0.075	255254	keystroke	t	n/a
127.762	0.09	255524	keystroke	e	n/a
127.822	0.075	255644	keystroke	r	n/a
127.912	0.09	255824	keystroke	n	n/a
127.987	0.09	255974	keystroke	a	n/a
128.107	0.09	256214	keystroke	t	n/a
128.242	0.105	256484	keystroke	i	n/a
128.392	0.09	256784	keystroke	c	n/a
128.422	0.105	256844	keystroke	e	n/a
129.277	0.075	258554	keystroke	Key.backspace	n/a
129.577	0.03	259154	keystroke	Key.backspace	n/a
129.697	0.12	259394	keystroke	v	n/a
129.757	0.12	259514	keystroke	e	n/a
129.982	0.135	259964	keystroke	s	n/a
130.132	0.09	260264	keystroke	Key.space	n/a
130.4315	0.121	260863	keystroke	i	n/a
130.4915	0.1055	260983	keystroke	n	n/a
130.612	0.075	261224	keystroke	t	n/a
130.747	0.12	261494	keystroke	e	n/a
130.822	0.105	261644	keystroke	r	n/a
130.942	0.09	261884	keystroke	Key.enter	n/a
131.0385	8.38	262077	prompt	n/a	pupils nobody cleaning calculated\n
131.812	0.075	263624	keystroke	u	n/a
132.1415	0.105	264283	keystroke	Key.backspace	n/a
132.4715	0.06	264943	keystroke	p	n/a
132.6215	0.09	265243	keystroke	u	n/a
132.7865	0.075	265573	keystroke	p	n/a
133.2215	0.09	266443	keystroke	i	n/a
133.3865	0.09	266773	keystroke	l	n/a
133.5365	0.105	267073	keystroke	s	n/a
133.6265	0.075	267253	keystroke	Key.space	n/a
133.807	0.12	267614	keystroke	n	n/a
133.912	0.1045	267824	keystroke	o	n/a
134.317	0.06	268634	keystroke	b	n/a
134.407	0.09	268814	keystroke	o	n/a
135.457	0.06	270914	keystroke	d	n/a
135.8615	0.091	271723	keystroke	y	n/a
135.9825	0.09	271965	keystroke	Key.space	n/a
136.1925	0.075	272385	keystroke	c	n/a
136.2825	0.075	272565	keystroke	l	n/a
136.3875	0.075	272775	keystroke	e	n/a
136.5375	0.09	273075	keystroke	a	n/a
136.6875	0.09	273375	keystroke	n	n/a
136.897	0.135	273794	keystroke	i	n/a
137.017	0.075	274034	keystroke	n	n/a
137.077	0.105	274154	keystroke	g	n/a
137.197	0.075	274394	keystroke	Key.space	n/a
137.407	0.09	274814	keystroke	c	n/a
137.452	0.105	274904	keystroke	a	n/a
137.797	0.105	275594	keystroke	l	n/a
138.127	0.075	276254	keystroke	c	n/a
138.217	0.06	276434	keystroke	u	n/a
138.592	0.12	277184	keystroke	l	n/a
138.7415	0.15	277483	keystroke	a	n/a
138.9065	0.12	277813	keystroke	t	n/a
138.9965	0.09	277993	keystroke	e	n/a
139.1615	0.09	278323	keystroke	d	n/a
139.3565	0.06	278713	keystroke	Key.enter	n/a
139.421	8.5175	278842	prompt	n/a	newcastle ventures quality partition\n
140.2115	0.1055	280423	keystroke	n	n/a
140.332	0.135	280664	keystroke	e	n/a
140.407	0.09	280814	keystroke	w	n/a
140.602	0.135	281204	keystroke	c	n/a
140.722	0.165	281444	keystroke	a	n/a
140.842	0.09	281684	keystroke	s	n/a
141.412	0.09	282824	keystroke	t	n/a
141.562	0.09	283124	keystroke	l	n/a
141.652	0.105	283304	keystroke	e	n/a
141.802	0.105	283604	keystroke	Key.space	n/a
142.1615	0.12	284323	keystroke	v	n/a
142.2215	0.09	284443	keystroke	e	n/a
142.2965	0.105	284593	keystroke	n	n/a
142.432	0.075	284864	keystroke	t	n/a
142.552	0.075	285104	keystroke	u	n/a
142.612	0.12	285224	keystroke	r	n/a
142.657	0.09	285314	keystroke	e	n/a
142.837	0.12	285674	keystroke	s	n/a
142.942	0.09	285884	keystroke	Key.space	n/a
143.542	0.06	287084	keystroke	Key.backspace	n/a
144.0815	0.09	288163	keystroke	Key.space	n/a
144.7415	0.075	289483	keystroke	q	n/a
144.8315	0.06	289663	keystroke	u	n/a
144.9365	0.09	289873	keystroke	a	n/a
145.0715	0.06	290143	keystroke	l	n/a
145.2665	0.075	290533	keystroke	i	n/a
145.3265	0.105	290653	keystroke	t	n/a
145.4015	0.075	290803	keystroke	y	n/a
145.5065	0.09	291013	keystroke	Key.space	n/a
145.882	0.09	291764	keystroke	p	n/a
145.942	0.105	291884	keystroke	a	n/a
146.242	0.165	292484	keystroke	r	n/a
146.332	0.12	292664	keystroke	t	n/a
146.962	0.1345	293924	keystroke	i	n/a
147.3215	0.06	294643	keystroke	t	n/a
147.3965	0.105	294793	keystroke	i	n/a
147.4415	0.09	294883	keystroke	o	n/a
147.6365	0.09	295273	keystroke	n	n/a
147.8615	0.075	295723	keystroke	Key.enter	n/a
147.941	4.2125	295882	prompt	n/a	spaces negative share loops\n
148.552	0.09	297104	keystroke	s	n/a
148.627	0.105	297254	keystroke	p	n/a
148.7615	0.12	297523	keystroke	a	n/a
148.8665	0.135	297733	keystroke	c	n/a
148.9715	0.0905	297943	keystroke	e	n/a
149.1215	0.105	298243	keystroke	s	n/a
149.2115	0.09	298423	keystroke	Key.space	n/a
149.5115	0.105	299023	keystroke	n	n/a
149.6315	0.105	299263	keystroke	e	n/a
149.8265	0.09	299653	keystroke	g	n/a
149.932	0.105	299864	keystroke	a	n/a
150.052	0.045	300104	keystroke	t	n/a
150.142	0.105	300284	keystroke	i	n/a
150.262	0.09	300524	keystroke	v	n/a
150.307	0.12	300614	keystroke	e	n/a
150.457	0.075	300914	keystroke	Key.space	n/a
150.637	0.15	301274	keystroke	s	n/a
150.742	0.09	301484	keystroke	h	n/a
150.833	0.089	301666	keystroke	a	n/a
150.967	0.135	301934	keystroke	r	n/a
151.027	0.105	302054	keystroke	e	n/a
151.132	0.075	302264	keystroke	Key.space	n/a
151.342	0.06	302684	keystroke	l	n/a
151.567	0.06	303134	keystroke	o	n/a
151.717	0.06	303434	keystroke	o	n/a
151.882	0.09	303764	keystroke	p	n/a
151.987	0.075	303974	keystroke	s	n/a
152.077	0.075	304154	keystroke	Key.enter	n/a
152.1575	7.556	304315	prompt	n/a	equally aquarium breeding calgary\n
152.9475	0.1195	305895	keystroke	e	n/a
152.992	0.105	305984	keystroke	q	n/a
153.127	0.0895	306254	keystroke	u	n/a
153.607	0.105	307214	keystroke	a	n/a
153.772	0.105	307544	keystroke	l	n/a
153.937	0.12	307874	keystroke	l	n/a
154.042	0.09	308084	keystroke	y	n/a
154.192	0.1195	308384	keystroke	Key.space	n/a
154.747	0.09	309494	keystroke	a	n/a
155.062	0.105	310124	keystroke	q	n/a
155.2265	0.075	310453	keystroke	u	n/a
155.3165	0.0905	310633	keystroke	a	n/a
155.467	0.105	310934	keystroke	r	n/a
155.782	0.075	311564	keystroke	i	n/a
156.277	0.075	312554	keystroke	u	n/a
156.5775	0.0745	313155	keystroke	m	n/a
156.667	0.09	313334	keystroke	Key.space	n/a
157.552	0.075	315104	keystroke	b	n/a
157.628	0.119	315256	keystroke	r	n/a
157.687	0.09	315374	keystroke	e	n/a
157.837	0.105	315674	keystroke	e	n/a
158.0325	0.104	316065	keystroke	d	n/a
158.1215	0.12	316243	keystroke	i	n/a
158.1965	0.075	316393	keystroke	n	n/a
158.2875	0.075	316575	keystroke	g	n/a
158.3765	0.105	316753	keystroke	Key.space	n/a
158.6315	0.106	317263	keystroke	c	n/a
158.7075	0.104	317415	keystroke	a	n/a
158.8565	0.09	317713	keystroke	l	n/a
159.0225	0.074	318045	keystroke	g	n/a
159.1715	0.105	318343	keystroke	a	n/a
159.2465	0.1055	318493	keystroke	r	n/a
159.487	0.075	318974	keystroke	y	n/a
159.622	0.09	319244	keystroke	Key.enter	n/a
159.7165	6.102	319433	prompt	n/a	kong winners salad transaction\n
160.612	0.0895	321224	keystroke	k	n/a
160.8365	0.105	321673	keystroke	o	n/a
160.8965	0.075	321793	keystroke	n	n/a
160.9575	0.089	321915	keystroke	g	n/a
161.0765	0.105	322153	keystroke	Key.space	n/a
161.2415	0.091	322483	keystroke	w	n/a
161.3175	0.12	322635	keystroke	i	n/a
161.3915	0.06	322783	keystroke	n	n/a
161.5115	0.105	323023	keystroke	n	n/a
161.6015	0.105	323203	keystroke	e	n/a
161.6615	0.105	323323	keystroke	r	n/a
161.7965	0.105	323593	keystroke	s	n/a
161.9165	0.0755	323833	keystroke	Key.space	n/a
162.037	0.105	324074	keystroke	s	n/a
162.202	0.075	324404	keystroke	a	n/a
162.337	0.09	324674	keystroke	l	n/a
162.412	0.105	324824	keystroke	a	n/a
162.757	0.105	325514	keystroke	d	n/a
162.907	0.105	325814	keystroke	Key.space	n/a
163.4165	0.105	326833	keystroke	t	n/a
163.4315	0.12	326863	keystroke	r	n/a
163.6565	0.09	327313	keystroke	a	n/a
163.7615	0.0905	327523	keystroke	n	n/a
164.017	0.105	328034	keystroke	s	n/a
164.182	0.105	328364	keystroke	a	n/a
164.512	0.075	329024	keystroke	c	n/a
165.1115	0.06	330223	keystroke	t	n/a
165.1865	0.105	330373	keystroke	i	n/a
165.2475	0.089	330495	keystroke	o	n/a
165.3965	0.075	330793	keystroke	n	n/a
165.7565	0.06	331513	keystroke	Key.enter	n/a
165.821	7.6325	331642	prompt	n/a	million worked seventh mechanisms\n
166.597	0.105	333194	keystroke	m	n/a
166.762	0.075	333524	keystroke	i	n/a
166.972	0.075	333944	keystroke	l	n/a
167.092	0.075	334184	keystroke	l	n/a
167.287	0.105	334574	keystroke	i	n/a
167.362	0.105	334724	keystroke	o	n/a
167.512	0.075	335024	keystroke	n	n/a
167.662	0.105	335324	keystroke	Key.space	n/a
167.857	0.0895	335714	keystroke	w	n/a
167.9315	0.075	335863	keystroke	o	n/a
168.0515	0.09	336103	keystroke	r	n/a
168.1265	0.105	336253	keystroke	k	n/a
168.2615	0.075	336523	keystroke	e	n/a
168.3965	0.09	336793	keystroke	d	n/a
168.4715	0.105	336943	keystroke	Key.space	n/a
168.6815	0.015	337363	keystroke	s	n/a
169.087	0.09	338174	keystroke	e	n/a
169.552	0.1195	339104	keystroke	v	n/a
169.6415	0.12	339283	keystroke	e	n/a
169.7765	0.09	339553	keystroke	n	n/a
170.122	0.12	340244	keystroke	t	n/a
170.182	0.105	340364	keystroke	h	n/a
170.362	0.1045	340724	keystroke	Key.space	n/a
170.7675	0.059	341535	keystroke	m	n/a
170.8865	0.09	341773	keystroke	e	n/a
171.2625	0.104	342525	keystroke	c	n/a
171.4715	0.1205	342943	keystroke	h	n/a
171.712	0.09	343424	keystroke	a	n/a
171.862	0.09	343724	keystroke	n	n/a
172.012	0.075	344024	keystroke	i	n/a
172.372	0.09	344744	keystroke	s	n/a
172.492	0.09	344984	keystroke	m	n/a
173.1965	0.09	346393	keystroke	s	n/a
173.3465	0.105	346693	keystroke	Key.enter	n/a
173.456	6.0875	346912	prompt	n/a	crucial psychological says take\n
174.067	0.075	348134	keystroke	c	n/a
174.277	0.0295	348554	keystroke	r	n/a
174.3515	0.075	348703	keystroke	u	n/a
174.4275	0.074	348855	keystroke	c	n/a
174.577	0.09	349154	keystroke	i	n/a
174.742	0.075	349484	keystroke	a	n/a
174.862	0.09	349724	keystroke	l	n/a
174.982	0.09	349964	keystroke	Key.space	n/a
175.417	0.06	350834	keystroke	p	n/a
175.537	0.105	351074	keystroke	s	n/a
175.732	0.075	351464	keystroke	y	n/a
175.912	0.0895	351824	keystroke	c	n/a
176.0765	0.075	352153	keystroke	h	n/a
176.2715	0.09	352543	keystroke	o	n/a
176.4815	0.06	352963	keystroke	l	n/a
176.6465	0.075	353293	keystroke	o	n/a
177.4265	0.045	354853	keystroke	g	n/a
177.6065	0.045	355213	keystroke	i	n/a
177.6815	0.12	355363	keystroke	c	n/a
177.7415	0.12	355483	keystroke	a	n/a
177.9065	0.105	355813	keystroke	l	n/a
177.9665	0.075	355933	keystroke	Key.space	n/a
178.2515	0.09	356503	keystroke	s	n/a
178.402	0.12	356804	keystroke	a	n/a
178.552	0.075	357104	keystroke	y	n/a
178.612	0.09	357224	keystroke	s	n/a
178.747	0.1195	357494	keystroke	Key.space	n/a
178.8815	0.09	357763	keystroke	t	n/a
179.0615	0.075	358123	keystroke	a	n/a
179.2115	0.075	358423	keystroke	k	n/a
179.3015	0.105	358603	keystroke	e	n/a
179.4815	0.06	358963	keystroke	Key.enter	n/a
179.546	8.129	359092	prompt	n/a	dakota collectors suited villas\n
180.2165	0.06	360433	keystroke	a	n/a
180.5015	0.12	361003	keystroke	Key.backspace	n/a
180.6515	0.12	361303	keystroke	d	n/a
180.7265	0.105	361453	keystroke	a	n/a
180.8015	0.075	361603	keystroke	k	n/a
181.0115	0.045	362023	keystroke	o	n/a
181.582	0.09	363164	keystroke	t	n/a
181.807	0.075	363614	keystroke	a	n/a
181.9265	0.0755	363853	keystroke	Key.space	n/a
182.047	0.105	364094	keystroke	c	n/a
182.137	0.06	364274	keystroke	o	n/a
182.287	0.075	364574	keystroke	l	n/a
182.437	0.0895	364874	keystroke	l	n/a
182.4965	0.135	364993	keystroke	e	n/a
182.5715	0.12	365143	keystroke	c	n/a
183.4265	0.09	366853	keystroke	t	n/a
183.9815	0.075	367963	keystroke	o	n/a
184.2965	0.06	368593	keystroke	r	n/a
184.4315	0.105	368863	keystroke	s	n/a
184.5515	0.09	369103	keystroke	Key.space	n/a
184.8815	0.075	369763	keystroke	s	n/a
184.9865	0.09	369973	keystroke	u	n/a
185.0465	0.06	370093	keystroke	i	n/a
185.7815	0.105	371563	keystroke	t	n/a
185.8715	0.0905	371743	keystroke	e	n/a
186.022	0.105	372044	keystroke	d	n/a
186.142	0.09	372284	keystroke	Key.space	n/a
186.937	0.075	373874	keystroke	v	n/a
186.997	0.0595	373994	keystroke	i	n/a
187.2065	0.03	374413	keystroke	l	n/a
187.2965	0.09	374593	keystroke	l	n/a
187.3565	0.135	374713	keystroke	a	n/a
187.4465	0.12	374893	keystroke	s	n/a
187.5965	0.075	375193	keystroke	Key.enter	n/a
187.6865	6.7215	375373	prompt	n/a	usgs arab committee costs\n
188.4065	0.09	376813	keystroke	u	n/a
188.5115	0.09	377023	keystroke	s	n/a
188.7665	0.1055	377533	keystroke	g	n/a
188.917	0.105	377834	keystroke	s	n/a
189.036	0.12	378072	keystroke	Key.space	n/a
189.562	0.075	379124	keystroke	a	n/a
189.682	0.09	379364	keystroke	r	n/a
189.816	0.076	379632	keystroke	a	n/a
190.192	0.075	380384	keystroke	b	n/a
190.341	0.105	380682	keystroke	Key.space	n/a
190.522	0.074	381044	keystroke	c	n/a
190.597	0.149	381194	keystroke	o	n/a
191.421	0.075	382842	keystroke	m	n/a
191.557	0.044	383114	keystroke	m	n/a
192.3365	0.075	384673	keystroke	i	n/a
192.5465	0.09	385093	keystroke	t	n/a
192.6965	0.105	385393	keystroke	t	n/a
192.9965	0.075	385993	keystroke	e	n/a
193.1315	0.1205	386263	keystroke	e	n/a
193.5965	0.09	387193	keystroke	Key.space	n/a
193.7465	0.105	387493	keystroke	c	n/a
193.8365	0.0895	387673	keystroke	o	n/a
193.941	0.075	387882	keystroke	s	n/a
194.062	0.089	388124	keystroke	t	n/a
194.166	0.12	388332	keystroke	s	n/a
194.331	0.075	388662	keystroke	Key.enter	n/a
194.4105	6.7325	388821	prompt	n/a	bookstore kitty surgeons minds\n
195.411	0.06	390822	keystroke	b	n/a
195.486	0.091	390972	keystroke	o	n/a
195.651	0.106	391302	keystroke	o	n/a
195.786	0.12	391572	keystroke	k	n/a
195.891	0.121	391782	keystroke	s	n/a
196.087	0.075	392174	keystroke	t	n/a
196.372	0.105	392744	keystroke	o	n/a
196.432	0.135	392864	keystroke	r	n/a
196.507	0.105	393014	keystroke	e	n/a
196.627	0.075	393254	keystroke	Key.space	n/a
196.837	0.09	393674	keystroke	k	n/a
197.047	0.06	394094	keystroke	i	n/a
197.227	0.09	394454	keystroke	t	n/a
197.392	0.135	394784	keystroke	t	n/a
197.512	0.12	395024	keystroke	y	n/a
197.692	0.09	395384	keystroke	Key.space	n/a
197.902	0.12	395804	keystroke	s	n/a
198.007	0.09	396014	keystroke	u	n/a
198.247	0.03	396494	keystroke	t	n/a
198.262	0.03	396524	keystroke	r	n/a
198.952	0.075	397904	keystroke	Key.backspace	n/a
199.072	0.105	398144	keystroke	Key.backspace	n/a
199.192	0.105	398384	keystroke	r	n/a
199.252	0.09	398504	keystroke	g	n/a
199.9715	0.09	399943	keystroke	e	n/a
200.0765	0.1355	400153	keystroke	o	n/a
200.1665	0.0905	400333	keystroke	n	n/a
200.287	0.105	400574	keystroke	s	n/a
200.377	0.09	400754	keystroke	Key.space	n/a
200.557	0.09	401114	keystroke	m	n/a
200.737	0.12	401474	keystroke	i	n/a
200.797	0.09	401594	keystroke	n	n/a
200.872	0.105	401744	keystroke	d	n/a
200.917	0.105	401834	keystroke	s	n/a
201.082	0.06	402164	keystroke	Key.enter	n/a
201.148	7.315	402296	prompt	n/a	nirvana stability gregory objective\n
202.0265	0.09	404053	keystroke	n	n/a
202.1015	0.075	404203	keystroke	i	n/a
202.1915	0.075	404383	keystroke	r	n/a
202.4015	0.075	404803	keystroke	v	n/a
202.4915	0.075	404983	keystroke	a	n/a
202.5965	0.09	405193	keystroke	n	n/a
202.6715	0.105	405343	keystroke	a	n/a
202.8215	0.105	405643	keystroke	Key.space	n/a
203.1215	0.09	406243	keystroke	s	n/a
203.3165	0.09	406633	keystroke	t	n/a
203.4215	0.075	406843	keystroke	a	n/a
203.6015	0.075	407203	keystroke	b	n/a
203.6915	0.075	407383	keystroke	i	n/a
203.8715	0.0755	407743	keystroke	l	n/a
204.037	0.105	408074	keystroke	i	n/a
204.127	0.12	408254	keystroke	t	n/a
204.187	0.075	408374	keystroke	y	n/a
204.307	0.12	408614	keystroke	Key.space	n/a
204.952	0.135	409904	keystroke	g	n/a
205.027	0.105	410054	keystroke	r	n/a
205.267	0.12	410534	keystroke	e	n/a
205.537	0.075	411074	keystroke	g	n/a
205.642	0.09	411284	keystroke	o	n/a
205.807	0.105	411614	keystroke	r	n/a
205.9715	0.105	411943	keystroke	y	n/a
206.1215	0.105	412243	keystroke	Key.space	n/a
206.5415	0.105	413083	keystroke	o	n/a
206.7515	0.09	413503	keystroke	b	n/a
206.9465	0.0755	413893	keystroke	j	n/a
207.0515	0.135	414103	keystroke	e	n/a
207.1565	0.06	414313	keystroke	c	n/a
207.4115	0.06	414823	keystroke	t	n/a
207.5165	0.075	415033	keystroke	i	n/a
207.6665	0.18	415333	keystroke	v	n/a
207.7865	0.105	415573	keystroke	e	n/a
208.3565	0.105	416713	keystroke	Key.enter	n/a
208.469	5.154	416938	prompt	n/a	carlo lightning sorted figures\n
209.136	0.1055	418272	keystroke	c	n/a
209.1965	0.1045	418393	keystroke	a	n/a
209.3615	0.0895	418723	keystroke	r	n/a
209.452	0.0745	418904	keystroke	l	n/a
209.6315	0.09	419263	keystroke	o	n/a
209.7065	0.105	419413	keystroke	Key.space	n/a
209.9315	0.06	419863	keystroke	l	n/a
210.1265	0.075	420253	keystroke	i	n/a
210.2615	0.075	420523	keystroke	g	n/a
210.3665	0.105	420733	keystroke	h	n/a
210.5015	0.045	421003	keystroke	t	n/a
210.5615	0.09	421123	keystroke	n	n/a
210.6965	0.105	421393	keystroke	i	n/a
210.7565	0.075	421513	keystroke	n	n/a
210.8465	0.09	421693	keystroke	g	n/a
210.9515	0.09	421903	keystroke	Key.space	n/a
211.266	0.091	422532	keystroke	s	n/a
211.372	0.09	422744	keystroke	o	n/a
211.552	0.09	423104	keystroke	r	n/a
211.597	0.135	423194	keystroke	t	n/a
211.852	0.09	423704	keystroke	e	n/a
212.002	0.105	424004	keystroke	d	n/a
212.197	0.09	424394	keystroke	Key.space	n/a
212.5415	0.075	425083	keystroke	f	n/a
212.6015	0.09	425203	keystroke	i	n/a
212.7065	0.0595	425413	keystroke	r	n/a
212.871	0.045	425742	keystroke	g	n/a
212.931	0.075	425862	keystroke	u	n/a
213.051	0.12	426102	keystroke	r	n/a
213.096	0.121	426192	keystroke	e	n/a
213.291	0.105	426582	keystroke	s	n/a
213.531	0.09	427062	keystroke	Key.enter	n/a
213.626	10.617	427252	prompt	n/a	sponsorship tourist canyon senators\n
214.267	0.104	428534	keystroke	s	n/a
214.387	0.059	428774	keystroke	o	n/a
214.821	0.09	429642	keystroke	Key.backspace	n/a
215.077	0.089	430154	keystroke	p	n/a
215.6915	0.135	431383	keystroke	o	n/a
215.7815	0.105	431563	keystroke	n	n/a
216.1115	0.1055	432223	keystroke	s	n/a
216.277	0.105	432554	keystroke	h	n/a
216.367	0.105	432734	keystroke	e	n/a
216.442	0.075	432884	keystroke	r	n/a
216.832	0.0745	433664	keystroke	Key.backspace	n/a
216.9665	0.0605	433933	keystroke	Key.backspace	n/a
217.102	0.06	434204	keystroke	Key.backspace	n/a
217.222	0.075	434444	keystroke	Key.backspace	n/a
217.882	0.06	435764	keystroke	s	n/a
217.957	0.06	435914	keystroke	o	n/a
218.122	0.075	436244	keystroke	r	n/a
218.557	0.105	437114	keystroke	s	n/a
218.632	0.135	437264	keystroke	h	n/a
218.692	0.105	437384	keystroke	i	n/a
219.0065	0.075	438013	keystroke	p	n/a
219.172	0.105	438344	keystroke	Key.space	n/a
219.8165	0.0745	439633	keystroke	t	n/a
219.876	0.1205	439752	keystroke	o	n/a
219.9515	0.09	439903	keystroke	u	n/a
220.0265	0.075	440053	keystroke	r	n/a
220.1615	0.105	440323	keystroke	i	n/a
220.2815	0.075	440563	keystroke	s	n/a
220.4315	0.075	440863	keystroke	t	n/a
220.5365	0.09	441073	keystroke	Key.space	n/a
220.7765	0.09	441553	keystroke	c	n/a
220.9115	0.105	441823	keystroke	a	n/a
221.0315	0.0745	442063	keystroke	n	n/a
221.3615	0.075	442723	keystroke	y	n/a
221.4515	0.15	442903	keystroke	o	n/a
221.5415	0.075	443083	keystroke	n	n/a
221.7065	0.105	443413	keystroke	Key.space	n/a
222.066	0.0605	444132	keystroke	s	n/a
222.2465	0.0745	444493	keystroke	e	n/a
222.712	0.09	445424	keystroke	n	n/a
222.832	0.075	445664	keystroke	a	n/a
223.5815	0.075	447163	keystroke	t	n/a
223.6865	0.09	447373	keystroke	o	n/a
223.7915	0.105	447583	keystroke	r	n/a
223.9715	0.105	447943	keystroke	s	n/a
224.1365	0.105	448273	keystroke	Key.enter	n/a
224.2485	7.435	448497	prompt	n/a	prefix roulette brokers effective\n
224.8415	0.09	449683	keystroke	p	n/a
224.9165	0.09	449833	keystroke	r	n/a
224.9615	0.105	449923	keystroke	e	n/a
225.1115	0.105	450223	keystroke	f	n/a
225.2465	0.09	450493	keystroke	i	n/a
225.5165	0.015	451033	keystroke	x	n/a
225.5765	0.12	451153	keystroke	Key.space	n/a
226.386	0.09	452772	keystroke	r	n/a
226.431	0.105	452862	keystroke	o	n/a
227.016	0.075	454032	keystroke	u	n/a
227.721	0.105	455442	keystroke	l	n/a
227.841	0.151	455682	keystroke	e	n/a
228.096	0.075	456192	keystroke	t	n/a
228.246	0.105	456492	keystroke	t	n/a
228.381	0.091	456762	keystroke	e	n/a
228.502	0.09	457004	keystroke	Key.space	n/a
228.757	0.0895	457514	keystroke	b	n/a
228.8315	0.075	457663	keystroke	r	n/a
228.9665	0.195	457933	keystroke	o	n/a
229.0715	0.12	458143	keystroke	k	n/a
229.1765	0.09	458353	keystroke	e	n/a
229.2215	0.09	458443	keystroke	r	n/a
229.3565	0.105	458713	keystroke	s	n/a
229.4765	0.105	458953	keystroke	Key.space	n/a
229.6565	0.06	459313	keystroke	e	n/a
229.836	0.045	459672	keystroke	f	n/a
230.001	0.12	460002	keystroke	f	n/a
230.767	0.12	461534	keystroke	e	n/a
230.842	0.105	461684	keystroke	c	n/a
231.0815	0.0605	462163	keystroke	t	n/a
231.187	0.0895	462374	keystroke	i	n/a
231.3215	0.09	462643	keystroke	v	n/a
231.3815	0.105	462763	keystroke	e	n/a
231.5915	0.09	463183	keystroke	Key.enter	n/a
231.695	7.6975	463390	prompt	n/a	heard distribute pierce sprint\n
232.4315	0.09	464863	keystroke	h	n/a
232.4465	0.12	464893	keystroke	e	n/a
232.6115	0.15	465223	keystroke	a	n/a
232.8365	0.075	465673	keystroke	r	n/a
233.4215	0.09	466843	keystroke	d	n/a
233.5565	0.105	467113	keystroke	Key.space	n/a
234.0965	0.09	468193	keystroke	d	n/a
234.2015	0.0895	468403	keystroke	i	n/a
234.366	0.09	468732	keystroke	s	n/a
234.591	0.1205	469182	keystroke	t	n/a
234.6365	0.105	469273	keystroke	r	n/a
235.642	0.075	471284	keystroke	i	n/a
235.852	0.06	471704	keystroke	b	n/a
235.972	0.045	471944	keystroke	u	n/a
236.092	0.135	472184	keystroke	t	n/a
236.166	0.105	472332	keystroke	e	n/a
236.362	0.029	472724	keystroke	Key.space	n/a
236.6165	0.09	473233	keystroke	p	n/a
237.0515	0.0755	474103	keystroke	i	n/a
237.1715	0.0755	474343	keystroke	r	n/a
237.4865	0.075	474973	keystroke	Key.backspace	n/a
237.5915	0.104	475183	keystroke	e	n/a
238.0715	0.075	476143	keystroke	r	n/a
238.2965	0.135	476593	keystroke	c	n/a
238.3715	0.09	476743	keystroke	e	n/a
238.4915	0.105	476983	keystroke	Key.space	n/a
238.6565	0.105	477313	keystroke	s	n/a
238.7465	0.075	477493	keystroke	p	n/a
238.8965	0.09	477793	keystroke	r	n/a
239.0015	0.105	478003	keystroke	i	n/a
239.0615	0.09	478123	keystroke	n	n/a
239.1815	0.09	478363	keystroke	t	n/a
239.3315	0.06	478663	keystroke	Key.enter	n/a
239.397	10.181	478794	prompt	n/a	sculpture accepting rock extended\n
240.171	0.09	480342	keystroke	s	n/a
240.366	0.075	480732	keystroke	c	n/a
240.621	0.015	481242	keystroke	u	n/a
241.0415	0.075	482083	keystroke	l	n/a
241.2515	0.074	482503	keystroke	p	n/a
241.5065	0.045	483013	keystroke	u	n/a
241.5965	0.09	483193	keystroke	t	n/a
241.8065	0.135	483613	keystroke	e	n/a
241.8805	0.091	483761	keystroke	r	n/a
242.466	0.09	484932	keystroke	Key.backspace	n/a
242.631	0.09	485262	keystroke	Key.backspace	n/a
242.766	0.09	485532	keystroke	Key.backspace	n/a
242.901	0.075	485802	keystroke	Key.backspace	n/a
243.066	0.09	486132	keystroke	Key.backspace	n/a
244.221	0.076	488442	keystroke	p	n/a
244.311	0.075	488622	keystroke	t	n/a
244.491	0.09	488982	keystroke	u	n/a
244.567	0.119	489134	keystroke	r	n/a
244.611	0.12	489222	keystroke	e	n/a
244.731	0.105	489462	keystroke	Key.space	n/a
245.151	0.1055	490302	keystroke	a	n/a
245.2115	0.225	490423	keystroke	c	n/a
246.0965	0.135	492193	keystroke	c	n/a
246.2165	0.12	492433	keystroke	e	n/a
246.741	0.0905	493482	keystroke	p	n/a
246.906	0.105	493812	keystroke	t	n/a
247.026	0.135	494052	keystroke	i	n/a
247.116	0.09	494232	keystroke	n	n/a
247.191	0.09	494382	keystroke	g	n/a
247.311	0.105	494622	keystroke	Key.space	n/a
247.551	0.09	495102	keystroke	r	n/a
247.626	0.075	495252	keystroke	o	n/a
247.791	0.105	495582	keystroke	c	n/a
247.881	0.1055	495762	keystroke	k	n/a
248.0015	0.09	496003	keystroke	Key.space	n/a
248.1815	0.09	496363	keystroke	e	n/a
248.3915	0.12	496783	keystroke	x	n/a
248.6615	0.09	497323	keystroke	t	n/a
248.7215	0.105	497443	keystroke	e	n/a
248.8415	0.09	497683	keystroke	n	n/a
248.9315	0.09	497863	keystroke	d	n/a
249.2165	0.0745	498433	keystroke	e	n/a
249.366	0.075	498732	keystroke	d	n/a
249.486	0.09	498972	keystroke	Key.enter	n/a
249.581	6.552	499162	prompt	n/a	makes peer accessory berkeley\n
250.206	0.105	500412	keystroke	m	n/a
250.296	0.105	500592	keystroke	a	n/a
250.416	0.105	500832	keystroke	k	n/a
250.536	0.045	501072	keystroke	e	n/a
250.6565	0.105	501313	keystroke	s	n/a
250.7165	0.09	501433	keystroke	Key.space	n/a
250.9115	0.06	501823	keystroke	p	n/a
251.0165	0.06	502033	keystroke	e	n/a
251.1365	0.12	502273	keystroke	e	n/a
251.2715	0.09	502543	keystroke	r	n/a
251.4065	0.09	502813	keystroke	Key.space	n/a
251.5715	0.105	503143	keystroke	a	n/a
251.6315	0.075	503263	keystroke	c	n/a
251.7965	0.075	503593	keystroke	c	n/a
251.8865	0.06	503773	keystroke	e	n/a
252.0515	0.045	504103	keystroke	s	n/a
252.1565	0.09	504313	keystroke	s	n/a
252.3365	0.075	504673	keystroke	o	n/a
252.3965	0.09	504793	keystroke	r	n/a
252.6515	0.045	505303	keystroke	y	n/a
252.7565	0.09	505513	keystroke	Key.space	n/a
252.9665	0.06	505933	keystroke	m	n/a
253.2365	0.06	506473	keystroke	Key.backspace	n/a
253.476	0.105	506952	keystroke	b	n/a
253.656	0.12	507312	keystroke	e	n/a
253.731	0.12	507462	keystroke	r	n/a
253.866	0.105	507732	keystroke	k	n/a
253.956	0.1355	507912	keystroke	e	n/a
254.2265	0.075	508453	keystroke	l	n/a
254.5715	0.09	509143	keystroke	y	n/a
255.3965	0.09	510793	keystroke	Key.backspace	n/a
255.5165	0.15	511033	keystroke	e	n/a
255.6065	0.105	511213	keystroke	y	n/a
256.041	0.09	512082	keystroke	Key.enter	n/a
256.1375	7.7655	512275	prompt	n/a	belkin basis russia adapted\n
256.986	0.09	513972	keystroke	b	n/a
257.091	0.105	514182	keystroke	e	n/a
257.211	0.075	514422	keystroke	l	n/a
257.601	0.075	515202	keystroke	k	n/a
257.826	0.105	515652	keystroke	i	n/a
257.886	0.105	515772	keystroke	n	n/a
257.946	0.105	515892	keystroke	Key.space	n/a
258.351	0.09	516702	keystroke	b	n/a
258.426	0.12	516852	keystroke	a	n/a
258.486	0.09	516972	keystroke	s	n/a
258.651	0.09	517302	keystroke	s	n/a
258.756	0.09	517512	keystroke	i	n/a
258.906	0.09	517812	keystroke	s	n/a
259.041	0.12	518082	keystroke	Key.space	n/a
259.806	0.075	519612	keystroke	Key.backspace	n/a
259.971	0.045	519942	keystroke	Key.backspace	n/a
260.091	0.06	520182	keystroke	Key.backspace	n/a
260.226	0.045	520452	keystroke	Key.backspace	n/a
260.8415	0.06	521683	keystroke	i	n/a
260.9315	0.09	521863	keystroke	s	n/a
261.0665	0.045	522133	keystroke	Key.space	n/a
261.4415	0.09	522883	keystroke	r	n/a
261.7715	0.105	523543	keystroke	u	n/a
262.042	0.089	524084	keystroke	s	n/a
262.191	0.09	524382	keystroke	s	n/a
262.266	0.09	524532	keystroke	i	n/a
262.371	0.12	524742	keystroke	a	n/a
262.476	0.105	524952	keystroke	Key.space	n/a
262.851	0.1195	525702	keystroke	a	n/a
262.926	0.12	525852	keystroke	d	n/a
263.061	0.15	526122	keystroke	a	n/a
263.076	0.1645	526152	keystroke	p	n/a
263.3605	0.106	526721	keystroke	t	n/a
263.4365	0.09	526873	keystroke	e	n/a
263.6015	0.09	527203	keystroke	d	n/a
263.8115	0.09	527623	keystroke	Key.enter	n/a
263.909	7.7785	527818	prompt	n/a	harbor bumper bool robertson\n
264.8315	0.09	529663	keystroke	h	n/a
264.9065	0.105	529813	keystroke	a	n/a
264.9815	0.09	529963	keystroke	r	n/a
265.2215	0.09	530443	keystroke	b	n/a
265.3865	0.09	530773	keystroke	o	n/a
265.4915	0.06	530983	keystroke	r	n/a
265.5665	0.1045	531133	keystroke	Key.space	n/a
265.926	0.09	531852	keystroke	h	n/a
266.091	0.09	532182	keystroke	u	n/a
266.421	0.06	532842	keystroke	Key.backspace	n/a
266.571	0.075	533142	keystroke	Key.backspace	n/a
267.561	0.075	535122	keystroke	b	n/a
267.816	0.03	535632	keystroke	u	n/a
267.951	0.075	535902	keystroke	m	n/a
268.146	0.075	536292	keystroke	p	n/a
268.311	0.105	536622	keystroke	e	n/a
268.356	0.12	536712	keystroke	r	n/a
268.506	0.12	537012	keystroke	Key.space	n/a
268.971	0.12	537942	keystroke	b	n/a
269.181	0.06	538362	keystroke	o	n/a
269.301	0.09	538602	keystroke	o	n/a
269.481	0.105	538962	keystroke	l	n/a
269.571	0.09	539142	keystroke	Key.space	n/a
270.0815	0.09	540163	keystroke	r	n/a
270.1565	0.105	540313	keystroke	o	n/a
270.2765	0.09	540553	keystroke	v	n/a
270.6065	0.105	541213	keystroke	Key.backspace	n/a
270.6815	0.075	541363	keystroke	b	n/a
270.8765	0.09	541753	keystroke	e	n/a
270.9215	0.12	541843	keystroke	r	n/a
271.0715	0.105	542143	keystroke	s	n/a
271.2215	0.045	542443	keystroke	t	n/a
271.3265	0.165	542653	keystroke	o	n/a
271.4155	0.121	542831	keystroke	n	n/a
271.5965	0.089	543193	keystroke	Key.enter	n/a
271.694	7.9585	543388	prompt	n/a	jokes virginia affected literary\n
272.616	0.135	545232	keystroke	j	n/a
272.706	0.21	545412	keystroke	o	n/a
273.081	0.105	546162	keystroke	k	n/a
273.171	0.135	546342	keystroke	e	n/a
273.246	0.12	546492	keystroke	s	n/a
273.381	0.105	546762	keystroke	Key.space	n/a
273.921	0.075	547842	keystroke	v	n/a
274.0115	0.075	548023	keystroke	i	n/a
274.1015	0.09	548203	keystroke	r	n/a
274.3565	0.06	548713	keystroke	g	n/a
274.5215	0.135	549043	keystroke	i	n/a
274.5965	0.12	549193	keystroke	n	n/a
274.7465	0.105	549493	keystroke	i	n/a
274.9115	0.105	549823	keystroke	a	n/a
275.0465	0.12	550093	keystroke	Key.space	n/a
275.3305	0.09	550661	keystroke	a	n/a
275.8265	0.075	551653	keystroke	f	n/a
275.9455	0.136	551891	keystroke	f	n/a
276.0515	0.09	552103	keystroke	e	n/a
276.6065	0.075	553213	keystroke	x	n/a
277.2365	0.09	554473	keystroke	Key.backspace	n/a
277.5365	0.09	555073	keystroke	c	n/a
277.7765	0.105	555553	keystroke	t	n/a
277.8365	0.0895	555673	keystroke	e	n/a
277.971	0.09	555942	keystroke	d	n/a
278.091	0.105	556182	keystroke	Key.space	n/a
278.376	0.09	556752	keystroke	l	n/a
278.601	0.06	557202	keystroke	i	n/a
278.662	0.089	557324	keystroke	t	n/a
278.796	0.12	557592	keystroke	e	n/a
278.871	0.12	557742	keystroke	r	n/a
279.036	0.12	558072	keystroke	a	n/a
279.141	0.105	558282	keystroke	r	n/a
279.4415	0.075	558883	keystroke	y	n/a
279.5615	0.09	559123	keystroke	Key.enter	n/a
279.655	10.3325	559310	prompt	n/a	gnome probably muze pest\n
280.596	0.105	561192	keystroke	g	n/a
280.626	0.135	561252	keystroke	r	n/a
280.731	0.135	561462	keystroke	o	n/a
280.791	0.105	561582	keystroke	n	n/a
281.031	0.09	562062	keystroke	e	n/a
281.361	0.06	562722	keystroke	Key.backspace	n/a
281.631	0.105	563262	keystroke	m	n/a
281.781	0.105	563562	keystroke	e	n/a
282.006	0.015	564012	keystroke	Key.backspace	n/a
282.036	0.0605	564072	keystroke	Key.backspace	n/a
282.1715	0.075	564343	keystroke	Key.backspace	n/a
282.3065	0.045	564613	keystroke	Key.backspace	n/a
283.356	0.09	566712	keystroke	Key.backspace	n/a
283.656	0.1205	567312	keystroke	n	n/a
283.746	0.105	567492	keystroke	o	n/a
283.911	0.12	567822	keystroke	m	n/a
284.0465	0.09	568093	keystroke	e	n/a
284.1205	0.105	568241	keystroke	Key.space	n/a
284.721	0.09	569442	keystroke	r	n/a
284.736	0.045	569472	keystroke	p	n/a
285.7715	0.044	571543	keystroke	Key.backspace	n/a
285.8755	0.0905	571751	keystroke	Key.backspace	n/a
286.131	0.0895	572262	keystroke	p	n/a
286.2055	0.1055	572411	keystroke	r	n/a
286.341	0.0895	572682	keystroke	o	n/a
286.476	0.09	572952	keystroke	b	n/a
286.956	0.1055	573912	keystroke	a	n/a
287.0765	0.06	574153	keystroke	b	n/a
287.2115	0.105	574423	keystroke	l	n/a
287.3465	0.09	574693	keystroke	y	n/a
287.4515	0.0745	574903	keystroke	Key.space	n/a
287.631	0.09	575262	keystroke	m	n/a
287.886	0.075	575772	keystroke	u	n/a
287.991	0.12	575982	keystroke	z	n/a
288.201	0.09	576402	keystroke	e	n/a
288.381	0.105	576762	keystroke	Key.space	n/a
289.311	0.06	578622	keystroke	p	n/a
289.372	0.089	578744	keystroke	e	n/a
289.611	0.075	579222	keystroke	s	n/a
289.761	0.105	579522	keystroke	t	n/a
289.911	0.075	579822	keystroke	Key.enter	n/a
289.9905	7.527	579981	prompt	n/a	communist dispute begin beautifully\n
290.7065	0.09	581413	keystroke	c	n/a
290.7815	0.12	581563	keystroke	o	n/a
291.0365	0.0745	582073	keystroke	m	n/a
291.156	0.09	582312	keystroke	m	n/a
291.3965	0.0895	582793	keystroke	u	n/a
291.426	0.105	582852	keystroke	n	n/a
291.591	0.09	583182	keystroke	i	n/a
291.696	0.09	583392	keystroke	s	n/a
291.846	0.105	583692	keystroke	t	n/a
291.981	0.105	583962	keystroke	Key.space	n/a
292.251	0.105	584502	keystroke	d	n/a
292.341	0.09	584682	keystroke	i	n/a
292.446	0.09	584892	keystroke	s	n/a
292.581	0.195	585162	keystroke	p	n/a
292.761	0.09	585522	keystroke	u	n/a
292.821	0.12	585642	keystroke	t	n/a
292.896	0.135	585792	keystroke	e	n/a
293.016	0.09	586032	keystroke	Key.space	n/a
293.196	0.09	586392	keystroke	b	n/a
293.256	0.09	586512	keystroke	e	n/a
293.661	0.09	587322	keystroke	g	n/a
293.766	0.09	587532	keystroke	i	n/a
293.796	0.075	587592	keystroke	n	n/a
293.9765	0.0745	587953	keystroke	Key.space	n/a
294.156	0.075	588312	keystroke	b	n/a
294.216	0.1055	588432	keystroke	e	n/a
294.381	0.105	588762	keystroke	a	n/a
295.221	0.09	590442	keystroke	u	n/a
295.356	0.075	590712	keystroke	t	n/a
295.446	0.09	590892	keystroke	i	n/a
295.881	0.075	591762	keystroke	f	n/a
295.971	0.075	591942	keystroke	u	n/a
296.181	0.06	592362	keystroke	l	n/a
296.286	0.09	592572	keystroke	l	n/a
296.391	0.09	592782	keystroke	y	n/a
297.426	0.09	594852	keystroke	Key.enter	n/a
297.52	15.1785	595040	prompt	n/a	drug guide quote packed\n
298.416	0.075	596832	keystroke	d	n/a
298.611	0.045	597222	keystroke	r	n/a
298.701	0.105	597402	keystroke	u	n/a
298.911	0.12	597822	keystroke	g	n/a
298.971	0.105	597942	keystroke	e	n/a
299.436	0.075	598872	keystroke	Key.backspace	n/a
299.601	0.09	599202	keystroke	Key.space	n/a
301.6565	0.12	603313	keystroke	q	n/a
301.8665	0.1345	603733	keystroke	u	n/a
302.676	0.09	605352	keystroke	i	n/a
303.126	0.075	606252	keystroke	Key.backspace	n/a
303.276	0.06	606552	keystroke	Key.backspace	n/a
303.486	0.09	606972	keystroke	Key.backspace	n/a
303.936	0.09	607872	keystroke	f	n/a
304.3265	0.075	608653	keystroke	Key.backspace	n/a
304.5665	0.105	609133	keystroke	g	n/a
305.0615	0.1345	610123	keystroke	i	n/a
305.0765	0.1345	610153	keystroke	u	n/a
305.8115	0.044	611623	keystroke	Key.backspace	n/a
305.931	0.09	611862	keystroke	Key.backspace	n/a
306.411	0.075	612822	keystroke	u	n/a
306.456	0.0755	612912	keystroke	i	n/a
306.5465	0.15	613093	keystroke	d	n/a
306.6815	0.029	613363	keystroke	e	n/a
306.8765	0.089	613753	keystroke	Key.space	n/a
307.7015	0.105	615403	keystroke	q	n/a
307.9865	0.074	615973	keystroke	Key.backspace	n/a
308.1365	0.044	616273	keystroke	Key.backspace	n/a
308.2555	0.06	616511	keystroke	Key.backspace	n/a
308.3755	0.061	616751	keystroke	Key.backspace	n/a
308.4955	0.046	616991	keystroke	Key.backspace	n/a
309.621	0.075	619242	keystroke	i	n/a
309.681	0.06	619362	keystroke	d	n/a
309.831	0.09	619662	keystroke	e	n/a
309.951	0.09	619902	keystroke	Key.space	n/a
310.8505	0.075	621701	keystroke	q	n/a
310.9555	0.12	621911	keystroke	u	n/a
311.0605	0.075	622121	keystroke	o	n/a
311.2555	0.105	622511	keystroke	t	n/a
311.3305	0.09	622661	keystroke	e	n/a
311.5705	0.105	623141	keystroke	Key.space	n/a
311.946	0.105	623892	keystroke	p	n/a
312.111	0.105	624222	keystroke	a	n/a
312.171	0.135	624342	keystroke	c	n/a
312.246	0.12	624492	keystroke	k	n/a
312.351	0.075	624702	keystroke	e	n/a
312.486	0.09	624972	keystroke	d	n/a
312.591	0.105	625182	keystroke	Key.enter	n/a
312.716	8.5925	625432	prompt	n/a	worldcat swift million floyd\n
313.341	0.105	626682	keystroke	w	n/a
313.461	0.0755	626922	keystroke	o	n/a
313.5515	0.075	627103	keystroke	r	n/a
313.671	0.105	627342	keystroke	l	n/a
313.761	0.09	627522	keystroke	d	n/a
314.0615	0.075	628123	keystroke	c	n/a
314.1365	0.105	628273	keystroke	a	n/a
314.3465	0.075	628693	keystroke	t	n/a
314.4815	0.12	628963	keystroke	Key.space	n/a
314.8715	0.074	629743	keystroke	s	n/a
315.0965	0.015	630193	keystroke	w	n/a
315.3965	0.09	630793	keystroke	i	n/a
315.5015	0.089	631003	keystroke	f	n/a
315.6965	0.0595	631393	keystroke	t	n/a
315.801	0.0895	631602	keystroke	Key.space	n/a
317.121	0.09	634242	keystroke	m	n/a
317.271	0.075	634542	keystroke	i	n/a
317.5105	0.015	635021	keystroke	l	n/a
317.6155	0.045	635231	keystroke	l	n/a
317.7655	0.105	635531	keystroke	i	n/a
317.8855	0.0455	635771	keystroke	o	n/a
317.976	0.09	635952	keystroke	n	n/a
318.156	0.09	636312	keystroke	Key.space	n/a
318.636	0.045	637272	keystroke	f	n/a
318.696	0.075	637392	keystroke	l	n/a
318.816	0.06	637632	keystroke	l	n/a
319.056	0.015	638112	keystroke	o	n/a
319.086	0.06	638172	keystroke	r	n/a
319.266	0.06	638532	keystroke	d	n/a
319.536	0.06	639072	keystroke	Key.backspace	n/a
319.656	0.09	639312	keystroke	Key.backspace	n/a
319.806	0.1345	639612	keystroke	Key.backspace	n/a
320.451	0.105	640902	keystroke	Key.backspace	n/a
320.706	0.1045	641412	keystroke	o	n/a
320.9615	0.075	641923	keystroke	y	n/a
321.1105	0.075	642221	keystroke	d	n/a
321.2455	0.06	642491	keystroke	Key.enter	n/a
321.3195	10.353	642639	prompt	n/a	startup rays attributes collaboration\n
322.281	0.09	644562	keystroke	s	n/a
322.491	0.09	644982	keystroke	t	n/a
322.551	0.15	645102	keystroke	a	n/a
322.671	0.075	645342	keystroke	t	n/a
323.106	0.09	646212	keystroke	Key.backspace	n/a
323.556	0.135	647112	keystroke	r	n/a
323.616	0.105	647232	keystroke	t	n/a
323.886	0.1045	647772	keystroke	u	n/a
324.171	0.0895	648342	keystroke	Key.space	n/a
324.4705	0.105	648941	keystroke	Key.backspace	n/a
324.9355	0.0605	649871	keystroke	p	n/a
324.9805	0.0905	649961	keystroke	Key.space	n/a
325.221	0.105	650442	keystroke	r	n/a
325.281	0.105	650562	keystroke	a	n/a
325.491	0.075	650982	keystroke	y	n/a
325.611	0.105	651222	keystroke	s	n/a
325.731	0.0905	651462	keystroke	Key.space	n/a
326.031	0.075	652062	keystroke	a	n/a
326.226	0.075	652452	keystroke	t	n/a
326.391	0.06	652782	keystroke	t	n/a
326.631	0.09	653262	keystroke	r	n/a
326.856	0.075	653712	keystroke	i	n/a
326.991	0.09	653982	keystroke	b	n/a
327.096	0.075	654192	keystroke	u	n/a
327.216	0.135	654432	keystroke	t	n/a
327.306	0.105	654612	keystroke	e	n/a
327.516	0.09	655032	keystroke	s	n/a
327.591	0.105	655182	keystroke	Key.space	n/a
327.831	0.12	655662	keystroke	c	n/a
328.221	0.09	656442	keystroke	Key.backspace	n/a
328.566	0.105	657132	keystroke	c	n/a
328.686	0.06	657372	keystroke	o	n/a
328.851	0.045	657702	keystroke	l	n/a
328.956	0.075	657912	keystroke	l	n/a
329.046	0.0905	658092	keystroke	a	n/a
329.2565	0.105	658513	keystroke	b	n/a
329.6015	0.075	659203	keystroke	o	n/a
330.8915	0.06	661783	keystroke	r	n/a
330.9365	0.105	661873	keystroke	a	n/a
331.086	0.075	662172	keystroke	t	n/a
331.191	0.105	662382	keystroke	i	n/a
331.251	0.075	662502	keystroke	o	n/a
331.386	0.09	662772	keystroke	n	n/a
331.551	0.12	663102	keystroke	Key.enter	n/a
331.6765	10.6765	663353	prompt	n/a	promoting linux apartments cancellation\n
332.3305	0.091	664661	keystroke	p	n/a
332.451	0.075	664902	keystroke	r	n/a
332.571	0.045	665142	keystroke	o	n/a
332.616	0.12	665232	keystroke	m	n/a
332.766	0.06	665532	keystroke	o	n/a
332.871	0.075	665742	keystroke	t	n/a
332.976	0.105	665952	keystroke	i	n/a
333.036	0.075	666072	keystroke	n	n/a
333.081	0.09	666162	keystroke	g	n/a
333.201	0.09	666402	keystroke	Key.space	n/a
333.426	0.09	666852	keystroke	l	n/a
333.651	0.1495	667302	keystroke	i	n/a
333.756	0.0895	667512	keystroke	n	n/a
333.9955	0.09	667991	keystroke	u	n/a
334.2205	0.106	668441	keystroke	x	n/a
334.626	0.135	669252	keystroke	Key.space	n/a
335.091	0.135	670182	keystroke	a	n/a
335.241	0.075	670482	keystroke	p	n/a
335.286	0.105	670572	keystroke	a	n/a
335.526	0.09	671052	keystroke	r	n/a
335.556	0.105	671112	keystroke	t	n/a
335.676	0.09	671352	keystroke	m	n/a
335.796	0.0745	671592	keystroke	e	n/a
335.8865	0.09	671773	keystroke	n	n/a
335.9465	0.089	671893	keystroke	t	n/a
336.1115	0.089	672223	keystroke	s	n/a
336.2015	0.105	672403	keystroke	Key.space	n/a
336.3805	0.136	672761	keystroke	c	n/a
336.4705	0.106	672941	keystroke	o	n/a
336.5465	0.06	673093	keystroke	n	n/a
336.6515	0.09	673303	keystroke	n	n/a
336.7565	0.135	673513	keystroke	c	n/a
336.8165	0.105	673633	keystroke	e	n/a
337.116	0.075	674232	keystroke	Key.backspace	n/a
337.251	0.06	674502	keystroke	Key.backspace	n/a
337.371	0.06	674742	keystroke	Key.backspace	n/a
337.641	0.09	675282	keystroke	Key.backspace	n/a
337.806	0.075	675612	keystroke	Key.backspace	n/a
337.941	0.09	675882	keystroke	Key.backspace	n/a
338.841	0.105	677682	keystroke	c	n/a
338.916	0.105	677832	keystroke	a	n/a
339.051	0.06	678102	keystroke	n	n/a
339.261	0.105	678522	keystroke	c	n/a
339.321	0.12	678642	keystroke	e	n/a
339.486	0.06	678972	keystroke	l	n/a
339.636	0.075	679272	keystroke	l	n/a
339.771	0.075	679542	keystroke	t	n/a
339.9505	0.09	679901	keystroke	a	n/a
340.1155	0.075	680231	keystroke	t	n/a
340.4455	0.06	680891	keystroke	Key.backspace	n/a
340.5655	0.0605	681131	keystroke	Key.backspace	n/a
340.701	0.135	681402	keystroke	Key.backspace	n/a
341.181	0.075	682362	keystroke	a	n/a
341.376	0.06	682752	keystroke	t	n/a
341.466	0.105	682932	keystroke	i	n/a
341.541	0.09	683082	keystroke	o	n/a
341.676	0.105	683352	keystroke	n	n/a
342.2455	0.105	684491	keystroke	Key.enter	n/a
342.3645	10.983	684729	prompt	n/a	decorative pleased transfers australia\n
343.1155	0.09	686231	keystroke	d	n/a
343.3415	0.135	686683	keystroke	e	n/a
343.4615	0.09	686923	keystroke	c	n/a
343.5665	0.09	687133	keystroke	o	n/a
343.6865	0.075	687373	keystroke	r	n/a
343.8365	0.105	687673	keystroke	a	n/a
344.691	0.03	689382	keystroke	v	n/a
344.916	0.09	689832	keystroke	t	n/a
345.276	0.045	690552	keystroke	Key.backspace	n/a
345.396	0.075	690792	keystroke	Key.backspace	n/a
345.516	0.09	691032	keystroke	t	n/a
345.711	0.09	691422	keystroke	i	n/a
345.8155	0.121	691631	keystroke	v	n/a
345.8905	0.106	691781	keystroke	e	n/a
346.0115	0.105	692023	keystroke	Key.space	n/a
346.341	0.12	692682	keystroke	p	n/a
346.491	0.09	692982	keystroke	l	n/a
346.551	0.135	693102	keystroke	e	n/a
346.671	0.15	693342	keystroke	a	n/a
346.746	0.12	693492	keystroke	s	n/a
346.971	0.075	693942	keystroke	e	n/a
347.1355	0.076	694271	keystroke	d	n/a
347.2115	0.104	694423	keystroke	Key.space	n/a
347.601	0.12	695202	keystroke	t	n/a
347.661	0.105	695322	keystroke	r	n/a
347.826	0.09	695652	keystroke	n	n/a
347.856	0.105	695712	keystroke	a	n/a
348.156	0.105	696312	keystroke	s	n/a
348.291	0.12	696582	keystroke	f	n/a
348.471	0.105	696942	keystroke	e	n/a
348.546	0.075	697092	keystroke	r	n/a
348.666	0.105	697332	keystroke	s	n/a
348.7855	0.12	697571	keystroke	Key.space	n/a
349.3105	0.06	698621	keystroke	Key.backspace	n/a
349.4605	0.045	698921	keystroke	Key.backspace	n/a
349.5505	0.075	699101	keystroke	Key.backspace	n/a
349.6705	0.045	699341	keystroke	Key.backspace	n/a
349.7605	0.06	699521	keystroke	Key.backspace	n/a
349.8805	0.0605	699761	keystroke	Key.backspace	n/a
349.986	0.06	699972	keystroke	Key.backspace	n/a
350.106	0.045	700212	keystroke	Key.backspace	n/a
350.316	0.09	700632	keystroke	a	n/a
350.391	0.105	700782	keystroke	n	n/a
350.616	0.105	701232	keystroke	s	n/a
351.201	0.105	702402	keystroke	f	n/a
351.411	0.09	702822	keystroke	e	n/a
351.471	0.09	702942	keystroke	r	n/a
351.591	0.12	703182	keystroke	s	n/a
351.726	0.105	703452	keystroke	Key.space	n/a
351.951	0.09	703902	keystroke	a	n/a
352.251	0.09	704502	keystroke	u	n/a
352.356	0.075	704712	keystroke	s	n/a
352.536	0.12	705072	keystroke	t	n/a
352.596	0.09	705192	keystroke	r	n/a
352.791	0.09	705582	keystroke	a	n/a
352.896	0.075	705792	keystroke	l	n/a
353.076	0.075	706152	keystroke	i	n/a
353.166	0.1195	706332	keystroke	a	n/a
353.3005	0.0455	706601	keystroke	Key.enter	n/a
353.3515	10.9315	706703	prompt	n/a	phase large greenhouse communist\n
354.186	0.0905	708372	keystroke	p	n/a
354.4115	0.075	708823	keystroke	h	n/a
354.6215	0.15	709243	keystroke	a	n/a
354.696	0.09	709392	keystroke	s	n/a
354.906	0.1055	709812	keystroke	e	n/a
354.996	0.09	709992	keystroke	Key.space	n/a
355.176	0.075	710352	keystroke	l	n/a
355.176	0.12	710352	keystroke	a	n/a
355.341	0.0905	710682	keystroke	r	n/a
355.5815	0.12	711163	keystroke	g	n/a
355.641	0.135	711282	keystroke	e	n/a
355.821	0.09	711642	keystroke	Key.space	n/a
356.376	0.09	712752	keystroke	g	n/a
356.586	0.09	713172	keystroke	r	n/a
356.646	0.075	713292	keystroke	e	n/a
356.781	0.105	713562	keystroke	e	n/a
356.931	0.1055	713862	keystroke	n	n/a
357.411	0.09	714822	keystroke	h	n/a
357.5465	0.164	715093	keystroke	o	n/a
357.6515	0.104	715303	keystroke	u	n/a
357.966	0.06	715932	keystroke	Key.backspace	n/a
358.116	0.06	716232	keystroke	Key.backspace	n/a
358.251	0.06	716502	keystroke	Key.backspace	n/a
358.371	0.045	716742	keystroke	Key.backspace	n/a
358.461	0.06	716922	keystroke	Key.backspace	n/a
358.581	0.03	717162	keystroke	Key.backspace	n/a
358.671	0.06	717342	keystroke	Key.backspace	n/a
358.776	0.06	717552	keystroke	Key.backspace	n/a
358.881	0.06	717762	keystroke	Key.backspace	n/a
358.986	0.06	717972	keystroke	Key.backspace	n/a
359.091	0.06	718182	keystroke	Key.backspace	n/a
359.2105	0.15	718421	keystroke	Key.backspace	n/a
359.4505	0.105	718901	keystroke	Key.backspace	n/a
359.6305	0.1505	719261	keystroke	Key.backspace	n/a
360.216	0.105	720432	keystroke	l	n/a
360.306	0.15	720612	keystroke	a	n/a
360.366	0.105	720732	keystroke	r	n/a
360.576	0.105	721152	keystroke	g	n/a
360.621	0.12	721242	keystroke	e	n/a
360.726	0.105	721452	keystroke	Key.space	n/a
360.9205	0.09	721841	keystroke	g	n/a
361.131	0.105	722262	keystroke	r	n/a
361.191	0.075	722382	keystroke	e	n/a
361.326	0.09	722652	keystroke	e	n/a
361.446	0.09	722892	keystroke	n	n/a
361.626	0.075	723252	keystroke	h	n/a
361.746	0.135	723492	keystroke	o	n/a
361.821	0.1045	723642	keystroke	u	n/a
361.896	0.1195	723792	keystroke	s	n/a
361.9555	0.105	723911	keystroke	e	n/a
362.0755	0.12	724151	keystroke	Key.space	n/a
362.751	0.06	725502	keystroke	c	n/a
362.766	0.12	725532	keystroke	o	n/a
362.871	0.045	725742	keystroke	m	n/a
362.961	0.09	725922	keystroke	m	n/a
363.261	0.09	726522	keystroke	u	n/a
363.321	0.12	726642	keystroke	n	n/a
363.621	0.06	727242	keystroke	i	n/a
363.786	0.12	727572	keystroke	s	n/a
363.9205	0.075	727841	keystroke	t	n/a
364.206	0.075	728412	keystroke	Key.enter	n/a
364.2945	18.603	728589	prompt	n/a	roommates consists displaying departmental\n
364.986	0.09	729972	keystroke	r	n/a
365.121	0.0745	730242	keystroke	o	n/a
365.2705	0.09	730541	keystroke	o	n/a
365.3755	0.09	730751	keystroke	m	n/a
365.4955	0.12	730991	keystroke	a	n/a
365.6005	0.135	731201	keystroke	t	n/a
365.7205	0.06	731441	keystroke	e	n/a
365.8705	0.12	731741	keystroke	s	n/a
366.0055	0.075	732011	keystroke	Key.space	n/a
366.2005	0.075	732401	keystroke	c	n/a
366.2605	0.105	732521	keystroke	o	n/a
366.3205	0.105	732641	keystroke	n	n/a
366.4405	0.045	732881	keystroke	s	n/a
366.5305	0.09	733061	keystroke	i	n/a
366.5755	0.09	733151	keystroke	s	n/a
366.7555	0.09	733511	keystroke	t	n/a
366.8905	0.105	733781	keystroke	s	n/a
367.0255	0.105	734051	keystroke	Key.space	n/a
367.8955	0.09	735791	keystroke	Key.backspace	n/a
368.0605	0.06	736121	keystroke	Key.backspace	n/a
368.1955	0.09	736391	keystroke	Key.backspace	n/a
368.3455	0.075	736691	keystroke	Key.backspace	n/a
368.4805	0.045	736961	keystroke	Key.backspace	n/a
368.7055	0.06	737411	keystroke	Key.backspace	n/a
368.8555	0.03	737711	keystroke	Key.backspace	n/a
368.9755	0.03	737951	keystroke	Key.backspace	n/a
369.0655	0.075	738131	keystroke	Key.backspace	n/a
369.2005	0.06	738401	keystroke	Key.backspace	n/a
369.3205	0.045	738641	keystroke	Key.backspace	n/a
369.4555	0.06	738911	keystroke	Key.backspace	n/a
369.8305	0.075	739661	keystroke	Key.backspace	n/a
369.9805	0.09	739961	keystroke	Key.backspace	n/a
370.8205	0.09	741641	keystroke	m	n/a
370.8805	0.12	741761	keystroke	a	n/a
371.0455	0.135	742091	keystroke	t	n/a
371.1355	0.075	742271	keystroke	e	n/a
371.3155	0.09	742631	keystroke	s	n/a
371.4205	0.105	742841	keystroke	Key.space	n/a
372.095	0.09	744190	keystroke	c	n/a
372.17	0.12	744340	keystroke	o	n/a
372.215	0.105	744430	keystroke	n	n/a
372.276	0.09	744552	keystroke	c	n/a
372.3505	0.1055	744701	keystroke	s	n/a
372.8155	0.06	745631	keystroke	Key.backspace	n/a
372.935	0.0755	745870	keystroke	Key.backspace	n/a
373.206	0.09	746412	keystroke	s	n/a
373.28	0.1205	746560	keystroke	i	n/a
373.4155	0.105	746831	keystroke	s	n/a
373.7005	0.016	747401	keystroke	t	n/a
373.8065	0.089	747613	keystroke	s	n/a
373.926	0.105	747852	keystroke	Key.space	n/a
374.196	0.09	748392	keystroke	d	n/a
374.586	0.045	749172	keystroke	i	n/a
374.9755	0.075	749951	keystroke	s	n/a
375.1255	0.12	750251	keystroke	p	n/a
375.1855	0.12	750371	keystroke	l	n/a
375.3205	0.105	750641	keystroke	a	n/a
375.5755	0.075	751151	keystroke	y	n/a
375.8305	0.12	751661	keystroke	i	n/a
375.8905	0.105	751781	keystroke	n	n/a
376.0555	0.12	752111	keystroke	Key.space	n/a
376.8055	0.045	753611	keystroke	Key.backspace	n/a
376.9705	0.06	753941	keystroke	Key.backspace	n/a
377.1355	0.045	754271	keystroke	Key.backspace	n/a
377.9605	0.105	755921	keystroke	i	n/a
378.0055	0.09	756011	keystroke	n	n/a
378.0805	0.075	756161	keystroke	g	n/a
378.1705	0.09	756341	keystroke	Key.space	n/a
378.6955	0.105	757391	keystroke	d	n/a
378.8905	0.09	757781	keystroke	e	n/a
378.9955	0.075	757991	keystroke	p	n/a
379.1015	0.104	758203	keystroke	a	n/a
379.3555	0.135	758711	keystroke	e	n/a
379.3705	0.135	758741	keystroke	r	n/a
379.4755	0.06	758951	keystroke	t	n/a
379.8055	0.06	759611	keystroke	Key.backspace	n/a
379.941	0.075	759882	keystroke	Key.backspace	n/a
380.076	0.1045	760152	keystroke	Key.backspace	n/a
380.3155	0.105	760631	keystroke	Key.backspace	n/a
381.3055	0.09	762611	keystroke	a	n/a
381.5605	0.12	763121	keystroke	r	n/a
381.6205	0.12	763241	keystroke	t	n/a
381.801	0.1045	763602	keystroke	m	n/a
381.9205	0.09	763841	keystroke	e	n/a
382.0255	0.105	764051	keystroke	n	n/a
382.1155	0.075	764231	keystroke	t	n/a
382.3705	0.09	764741	keystroke	a	n/a
382.5055	0.06	765011	keystroke	l	n/a
382.6405	0.06	765281	keystroke	Key.space	n/a
382.8205	0.075	765641	keystroke	Key.enter	n/a
382.9085	6.604	765817	prompt	n/a	hebrew drinks recommendations more\n
383.7355	0.06	767471	keystroke	h	n/a
383.8405	0.1055	767681	keystroke	e	n/a
383.976	0.075	767952	keystroke	b	n/a
384.096	0.15	768192	keystroke	r	n/a
384.171	0.12	768342	keystroke	e	n/a
385.4155	0.09	770831	keystroke	w	n/a
385.4755	0.105	770951	keystroke	Key.space	n/a
385.7155	0.075	771431	keystroke	d	n/a
385.8955	0.0445	771791	keystroke	r	n/a
385.97	0.105	771940	keystroke	i	n/a
386.03	0.105	772060	keystroke	n	n/a
386.166	0.104	772332	keystroke	k	n/a
386.285	0.091	772570	keystroke	s	n/a
386.36	0.105	772720	keystroke	Key.space	n/a
386.6	0.09	773200	keystroke	r	n/a
386.661	0.089	773322	keystroke	e	n/a
386.825	0.091	773650	keystroke	c	n/a
387.306	0.105	774612	keystroke	o	n/a
387.381	0.059	774762	keystroke	m	n/a
387.501	0.089	775002	keystroke	m	n/a
387.726	0.09	775452	keystroke	e	n/a
388.085	0.091	776170	keystroke	n	n/a
388.191	0.105	776382	keystroke	d	n/a
388.401	0.105	776802	keystroke	a	n/a
388.551	0.075	777102	keystroke	t	n/a
388.656	0.075	777312	keystroke	i	n/a
388.701	0.105	777402	keystroke	o	n/a
388.836	0.09	777672	keystroke	n	n/a
388.94	0.091	777880	keystroke	s	n/a
389.001	0.09	778002	keystroke	Key.space	n/a
389.166	0.135	778332	keystroke	m	n/a
389.256	0.075	778512	keystroke	o	n/a
389.27	0.09	778540	keystroke	r	n/a
389.316	0.06	778632	keystroke	e	n/a
389.405	0.105	778810	keystroke	Key.enter	n/a
389.517	9.7005	779034	prompt	n/a	sides toolkit levitra babies\n
390.365	0.09	780730	keystroke	d	n/a
390.726	0.06	781452	keystroke	=	n/a
390.845	0.105	781690	keystroke	s	n/a
391.1755	0.075	782351	keystroke	Key.backspace	n/a
391.3105	0.06	782621	keystroke	Key.backspace	n/a
391.4455	0.045	782891	keystroke	Key.backspace	n/a
391.5505	0.06	783101	keystroke	Key.backspace	n/a
391.8505	0.09	783701	keystroke	s	n/a
392.0905	0.06	784181	keystroke	i	n/a
392.3605	0.09	784721	keystroke	d	n/a
392.57	0.06	785140	keystroke	e	n/a
392.661	0.089	785322	keystroke	s	n/a
392.795	0.105	785590	keystroke	Key.space	n/a
393.141	0.09	786282	keystroke	t	n/a
393.26	0.075	786520	keystroke	o	n/a
393.38	0.121	786760	keystroke	o	n/a
393.545	0.105	787090	keystroke	k	n/a
393.981	0.09	787962	keystroke	Key.backspace	n/a
394.311	0.09	788622	keystroke	l	n/a
394.596	0.03	789192	keystroke	l	n/a
394.956	0.105	789912	keystroke	Key.backspace	n/a
395.1955	0.09	790391	keystroke	k	n/a
395.961	0.09	791922	keystroke	i	n/a
396.066	0.09	792132	keystroke	t	n/a
396.216	0.105	792432	keystroke	Key.space	n/a
396.786	0.09	793572	keystroke	l	n/a
396.906	0.105	793812	keystroke	e	n/a
397.146	0.075	794292	keystroke	v	n/a
397.251	0.075	794502	keystroke	i	n/a
397.476	0.12	794952	keystroke	t	n/a
397.536	0.0895	795072	keystroke	r	n/a
397.7605	0.09	795521	keystroke	a	n/a
397.926	0.105	795852	keystroke	Key.space	n/a
398.436	0.075	796872	keystroke	b	n/a
398.481	0.075	796962	keystroke	a	n/a
398.601	0.06	797202	keystroke	b	n/a
398.706	0.09	797412	keystroke	i	n/a
398.811	0.075	797622	keystroke	e	n/a
398.961	0.105	797922	keystroke	s	n/a
399.126	0.09	798252	keystroke	Key.enter	n/a
399.229	8.283	798458	prompt	n/a	orleans configuration curves birmingham\n
400.0705	0.075	800141	keystroke	o	n/a
400.1605	0.09	800321	keystroke	r	n/a
400.2655	0.09	800531	keystroke	l	n/a
400.3855	0.09	800771	keystroke	e	n/a
400.581	0.09	801162	keystroke	a	n/a
400.686	0.075	801372	keystroke	n	n/a
400.776	0.09	801552	keystroke	s	n/a
400.851	0.1045	801702	keystroke	Key.space	n/a
401.1505	0.075	802301	keystroke	c	n/a
401.2105	0.135	802421	keystroke	o	n/a
401.2855	0.105	802571	keystroke	n	n/a
401.3755	0.075	802751	keystroke	f	n/a
401.4655	0.075	802931	keystroke	i	n/a
401.6755	0.09	803351	keystroke	g	n/a
401.7505	0.075	803501	keystroke	u	n/a
401.9305	0.1055	803861	keystroke	r	n/a
402.111	0.12	804222	keystroke	a	n/a
402.246	0.075	804492	keystroke	t	n/a
402.336	0.09	804672	keystroke	i	n/a
402.396	0.12	804792	keystroke	o	n/a
402.531	0.09	805062	keystroke	n	n/a
402.621	0.09	805242	keystroke	Key.space	n/a
402.876	0.09	805752	keystroke	c	n/a
403.116	0.104	806232	keystroke	u	n/a
403.236	0.045	806472	keystroke	r	n/a
403.476	0.105	806952	keystroke	v	n/a
403.521	0.105	807042	keystroke	e	n/a
403.7155	0.09	807431	keystroke	s	n/a
403.7905	0.105	807581	keystroke	Key.space	n/a
404.2405	0.09	808481	keystroke	b	n/a
404.3315	0.089	808663	keystroke	i	n/a
404.3905	0.09	808781	keystroke	r	n/a
405.3805	0.09	810761	keystroke	m	n/a
405.5605	0.09	811121	keystroke	i	n/a
405.6055	0.09	811211	keystroke	n	n/a
406.925	0.06	813850	keystroke	g	n/a
407.045	0.0755	814090	keystroke	h	n/a
407.1655	0.105	814331	keystroke	a	n/a
407.2555	0.09	814511	keystroke	m	n/a
407.4205	0.0895	814841	keystroke	Key.enter	n/a
407.515	11.0375	815030	prompt	n/a	douglas contemporary associate baseline\n
408.62	0.075	817240	keystroke	d	n/a
408.68	0.12	817360	keystroke	o	n/a
408.755	0.105	817510	keystroke	u	n/a
408.92	0.075	817840	keystroke	g	n/a
409.01	0.09	818020	keystroke	l	n/a
409.115	0.15	818230	keystroke	a	n/a
409.205	0.106	818410	keystroke	s	n/a
409.356	0.12	818712	keystroke	Key.space	n/a
409.731	0.09	819462	keystroke	c	n/a
409.776	0.15	819552	keystroke	o	n/a
409.866	0.105	819732	keystroke	n	n/a
410.016	0.1045	820032	keystroke	t	n/a
410.091	0.1195	820182	keystroke	e	n/a
410.2255	0.09	820451	keystroke	m	n/a
410.3605	0.12	820721	keystroke	p	n/a
410.4505	0.135	820901	keystroke	a	n/a
410.7955	0.105	821591	keystroke	o	n/a
411.0955	0.075	822191	keystroke	r	n/a
411.2005	0.075	822401	keystroke	y	n/a
411.786	0.075	823572	keystroke	Key.backspace	n/a
411.936	0.06	823872	keystroke	Key.backspace	n/a
412.056	0.09	824112	keystroke	Key.backspace	n/a
412.161	0.105	824322	keystroke	Key.backspace	n/a
413.016	0.075	826032	keystroke	o	n/a
413.226	0.105	826452	keystroke	r	n/a
413.691	0.075	827382	keystroke	a	n/a
414.006	0.075	828012	keystroke	r	n/a
414.126	0.075	828252	keystroke	y	n/a
414.276	0.09	828552	keystroke	Key.space	n/a
414.71	0.151	829420	keystroke	a	n/a
414.815	0.091	829630	keystroke	s	n/a
414.981	0.104	829962	keystroke	s	n/a
415.13	0.12	830260	keystroke	o	n/a
416.451	0.09	832902	keystroke	c	n/a
416.601	0.089	833202	keystroke	i	n/a
416.751	0.119	833502	keystroke	a	n/a
416.961	0.12	833922	keystroke	t	n/a
417.036	0.105	834072	keystroke	e	n/a
417.126	0.119	834252	keystroke	Key.space	n/a
417.441	0.075	834882	keystroke	b	n/a
417.485	0.136	834970	keystroke	a	n/a
417.56	0.076	835120	keystroke	s	n/a
417.756	0.09	835512	keystroke	e	n/a
417.906	0.1045	835812	keystroke	l	n/a
418.1605	0.12	836321	keystroke	i	n/a
418.2505	0.0755	836501	keystroke	n	n/a
418.31	0.09	836620	keystroke	e	n/a
418.505	0.045	837010	keystroke	Key.enter	n/a
418.565	9.4525	837130	prompt	n/a	carefully slave cheese alien\n
419.466	0.134	838932	keystroke	c	n/a
419.555	0.1055	839110	keystroke	a	n/a
419.7355	0.12	839471	keystroke	r	n/a
419.8105	0.09	839621	keystroke	e	n/a
419.93	0.106	839860	keystroke	f	n/a
420.005	0.0905	840010	keystroke	u	n/a
420.2305	0.045	840461	keystroke	l	n/a
420.3355	0.09	840671	keystroke	l	n/a
420.4105	0.075	840821	keystroke	y	n/a
420.5155	0.105	841031	keystroke	Key.space	n/a
420.7105	0.12	841421	keystroke	s	n/a
420.8455	0.105	841691	keystroke	l	n/a
420.9355	0.0895	841871	keystroke	a	n/a
421.325	0.135	842650	keystroke	c	n/a
421.415	0.12	842830	keystroke	e	n/a
421.565	0.105	843130	keystroke	Key.space	n/a
422.2105	0.075	844421	keystroke	c	n/a
422.2865	0.089	844573	keystroke	h	n/a
422.406	0.075	844812	keystroke	e	n/a
422.541	0.09	845082	keystroke	e	n/a
422.7355	0.06	845471	keystroke	s	n/a
422.9005	0.09	845801	keystroke	e	n/a
422.9915	0.1185	845983	keystroke	Key.space	n/a
423.455	0.075	846910	keystroke	Key.backspace	n/a
423.605	0.075	847210	keystroke	Key.backspace	n/a
423.7555	0.045	847511	keystroke	Key.backspace	n/a
423.8755	0.045	847751	keystroke	Key.backspace	n/a
423.9805	0.03	847961	keystroke	Key.backspace	n/a
424.1005	0.075	848201	keystroke	Key.backspace	n/a
424.2355	0.0595	848471	keystroke	Key.backspace	n/a
424.355	0.045	848710	keystroke	Key.backspace	n/a
424.46	0.06	848920	keystroke	Key.backspace	n/a
424.85	0.09	849700	keystroke	Key.backspace	n/a
425.5555	0.09	851111	keystroke	v	n/a
425.6005	0.12	851201	keystroke	e	n/a
425.7805	0.105	851561	keystroke	Key.space	n/a
426.1855	0.09	852371	keystroke	c	n/a
426.2605	0.06	852521	keystroke	h	n/a
426.3655	0.075	852731	keystroke	e	n/a
426.4855	0.1045	852971	keystroke	e	n/a
426.665	0.09	853330	keystroke	s	n/a
426.845	0.09	853690	keystroke	e	n/a
426.965	0.09	853930	keystroke	Key.space	n/a
427.145	0.105	854290	keystroke	a	n/a
427.295	0.03	854590	keystroke	l	n/a
427.46	0.075	854920	keystroke	i	n/a
427.55	0.075	855100	keystroke	e	n/a
427.626	0.089	855252	keystroke	n	n/a
427.94	0.075	855880	keystroke	Key.enter	n/a
428.0285	11.8845	856057	prompt	n/a	pills circular orchestra monitor\n
428.69	0.105	857380	keystroke	p	n/a
428.9	0.06	857800	keystroke	i	n/a
429.08	0.06	858160	keystroke	l	n/a
429.2	0.075	858400	keystroke	l	n/a
429.3205	0.09	858641	keystroke	s	n/a
429.3955	0.09	858791	keystroke	Key.space	n/a
429.5155	0.09	859031	keystroke	c	n/a
429.6505	0.0455	859301	keystroke	i	n/a
429.816	0.075	859632	keystroke	c	n/a
430.716	0.045	861432	keystroke	Key.backspace	n/a
430.836	0.075	861672	keystroke	Key.backspace	n/a
432.77	0.075	865540	keystroke	i	n/a
432.89	0.06	865780	keystroke	r	n/a
433.085	0.075	866170	keystroke	c	n/a
433.175	0.0755	866350	keystroke	u	n/a
433.4005	0.09	866801	keystroke	l	n/a
435.0205	0.075	870041	keystroke	Key.backspace	n/a
435.1705	0.09	870341	keystroke	Key.backspace	n/a
435.9805	0.09	871961	keystroke	u	n/a
436.2955	0.105	872591	keystroke	l	n/a
436.4755	0.135	872951	keystroke	a	n/a
436.5805	0.12	873161	keystroke	r	n/a
436.7155	0.09	873431	keystroke	Key.space	n/a
436.9855	0.09	873971	keystroke	o	n/a
437.2555	0.075	874511	keystroke	r	n/a
437.4505	0.075	874901	keystroke	c	n/a
437.5555	0.105	875111	keystroke	h	n/a
437.6455	0.06	875291	keystroke	e	n/a
437.8105	0.1205	875621	keystroke	s	n/a
438.066	0.135	876132	keystroke	t	n/a
438.111	0.12	876222	keystroke	r	n/a
438.336	0.105	876672	keystroke	a	n/a
438.486	0.075	876972	keystroke	Key.space	n/a
438.7105	0.0605	877421	keystroke	m	n/a
438.7555	0.1055	877511	keystroke	o	n/a
438.906	0.09	877812	keystroke	n	n/a
438.981	0.075	877962	keystroke	i	n/a
439.086	0.075	878172	keystroke	t	n/a
439.251	0.045	878502	keystroke	o	n/a
439.3705	0.105	878741	keystroke	r	n/a
439.8205	0.09	879641	keystroke	Key.enter	n/a
439.9235	6.8435	879847	prompt	n/a	massive talking frontier abandoned\n
440.5705	0.09	881141	keystroke	m	n/a
440.6455	0.105	881291	keystroke	a	n/a
440.8405	0.105	881681	keystroke	s	n/a
441.0055	0.105	882011	keystroke	s	n/a
441.1855	0.12	882371	keystroke	i	n/a
441.3205	0.135	882641	keystroke	v	n/a
441.3955	0.12	882791	keystroke	e	n/a
441.5605	0.105	883121	keystroke	Key.space	n/a
441.9055	0.0745	883811	keystroke	t	n/a
442.041	0.119	884082	keystroke	a	n/a
442.325	0.136	884650	keystroke	l	n/a
442.385	0.106	884770	keystroke	k	n/a
442.61	0.151	885220	keystroke	i	n/a
442.686	0.105	885372	keystroke	n	n/a
442.776	0.0745	885552	keystroke	g	n/a
442.8655	0.105	885731	keystroke	Key.space	n/a
443.3305	0.075	886661	keystroke	f	n/a
443.4805	0.09	886961	keystroke	r	n/a
443.5255	0.12	887051	keystroke	o	n/a
443.5855	0.12	887171	keystroke	n	n/a
443.6905	0.075	887381	keystroke	t	n/a
443.7955	0.09	887591	keystroke	i	n/a
443.945	0.135	887890	keystroke	e	n/a
444.035	0.091	888070	keystroke	r	n/a
444.155	0.105	888310	keystroke	Key.space	n/a
444.8005	0.075	889601	keystroke	a	n/a
444.9205	0.075	889841	keystroke	b	n/a
445.0855	0.135	890171	keystroke	o	n/a
445.1905	0.12	890381	keystroke	n	n/a
445.88	0.076	891760	keystroke	d	n/a
446.1355	0.15	892271	keystroke	o	n/a
446.2255	0.12	892451	keystroke	n	n/a
446.3305	0.09	892661	keystroke	e	n/a
446.4655	0.12	892931	keystroke	d	n/a
446.6755	0.09	893351	keystroke	Key.enter	n/a
446.771	9.267	893542	prompt	n/a	examinations wesley rick group\n
447.44	0.075	894880	keystroke	e	n/a
448.0855	0.135	896171	keystroke	x	n/a
448.1605	0.105	896321	keystroke	a	n/a
448.2805	0.105	896561	keystroke	m	n/a
449.451	0.135	898902	keystroke	i	n/a
449.526	0.105	899052	keystroke	n	n/a
449.766	0.09	899532	keystroke	a	n/a
449.961	0.06	899922	keystroke	t	n/a
450.051	0.105	900102	keystroke	i	n/a
450.111	0.09	900222	keystroke	o	n/a
450.261	0.075	900522	keystroke	n	n/a
450.351	0.09	900702	keystroke	s	n/a
450.441	0.09	900882	keystroke	Key.space	n/a
450.741	0.105	901482	keystroke	w	n/a
450.786	0.12	901572	keystroke	e	n/a
450.966	0.105	901932	keystroke	s	n/a
451.266	0.09	902532	keystroke	e	n/a
451.941	0.075	903882	keystroke	Key.backspace	n/a
452.196	0.105	904392	keystroke	l	n/a
452.616	0.105	905232	keystroke	e	n/a
452.706	0.075	905412	keystroke	y	n/a
452.811	0.12	905622	keystroke	Key.space	n/a
453.621	0.075	907242	keystroke	r	n/a
453.771	0.09	907542	keystroke	i	n/a
453.876	0.1345	907752	keystroke	c	n/a
454.0255	0.06	908051	keystroke	k	n/a
454.1155	0.075	908231	keystroke	Key.space	n/a
455.226	0.105	910452	keystroke	g	n/a
455.241	0.135	910482	keystroke	r	n/a
455.316	0.15	910632	keystroke	o	n/a
455.406	0.105	910812	keystroke	u	n/a
455.586	0.075	911172	keystroke	p	n/a
455.946	0.09	911892	keystroke	Key.enter	n/a
456.0485	7.5035	912097	prompt	n/a	strategy pale participate permitted\n
456.8005	0.105	913601	keystroke	s	n/a
457.1455	0.1205	914291	keystroke	t	n/a
457.1905	0.1655	914381	keystroke	r	n/a
457.865	0.09	915730	keystroke	a	n/a
458.015	0.12	916030	keystroke	t	n/a
458.15	0.165	916300	keystroke	e	n/a
458.841	0.0745	917682	keystroke	g	n/a
459.0205	0.075	918041	keystroke	y	n/a
459.1255	0.1195	918251	keystroke	Key.space	n/a
459.485	0.09	918970	keystroke	p	n/a
459.56	0.091	919120	keystroke	a	n/a
459.695	0.105	919390	keystroke	l	n/a
459.815	0.105	919630	keystroke	e	n/a
459.935	0.09	919870	keystroke	Key.space	n/a
460.25	0.12	920500	keystroke	p	n/a
460.325	0.075	920650	keystroke	a	n/a
460.535	0.105	921070	keystroke	r	n/a
460.595	0.105	921190	keystroke	t	n/a
460.701	0.089	921402	keystroke	i	n/a
460.896	0.074	921792	keystroke	c	n/a
461.001	0.074	922002	keystroke	i	n/a
461.12	0.105	922240	keystroke	a	n/a
461.27	0.075	922540	keystroke	p	n/a
461.375	0.12	922750	keystroke	t	n/a
461.466	0.089	922932	keystroke	e	n/a
461.66	0.105	923320	keystroke	Key.space	n/a
462.02	0.045	924040	keystroke	p	n/a
462.335	0.105	924670	keystroke	e	n/a
462.41	0.076	924820	keystroke	r	n/a
462.65	0.075	925300	keystroke	m	n/a
462.785	0.09	925570	keystroke	i	n/a
462.905	0.046	925810	keystroke	t	n/a
463.055	0.09	926110	keystroke	t	n/a
463.16	0.09	926320	keystroke	e	n/a
463.325	0.075	926650	keystroke	d	n/a
463.46	0.09	926920	keystroke	Key.enter	n/a
463.5585	7.914	927117	prompt	n/a	keyboards helena poison dump\n
464.795	0.09	929590	keystroke	k	n/a
464.9	0.075	929800	keystroke	e	n/a
465.035	0.06	930070	keystroke	y	n/a
465.23	0.09	930460	keystroke	b	n/a
465.455	0.075	930910	keystroke	o	n/a
465.575	0.105	931150	keystroke	a	n/a
465.71	0.09	931420	keystroke	r	n/a
465.905	0.106	931810	keystroke	d	n/a
465.965	0.1205	931930	keystroke	s	n/a
466.0705	0.09	932141	keystroke	Key.space	n/a
466.5955	0.075	933191	keystroke	h	n/a
466.6855	0.075	933371	keystroke	e	n/a
466.8205	0.105	933641	keystroke	l	n/a
466.9405	0.105	933881	keystroke	e	n/a
467.1355	0.075	934271	keystroke	n	n/a
467.8555	0.1045	935711	keystroke	a	n/a
467.961	0.104	935922	keystroke	Key.space	n/a
468.41	0.1505	936820	keystroke	p	n/a
468.5005	0.135	937001	keystroke	o	n/a
468.755	0.075	937510	keystroke	i	n/a
468.95	0.09	937900	keystroke	s	n/a
469.145	0.075	938290	keystroke	e	n/a
469.221	0.104	938442	keystroke	n	n/a
469.355	0.105	938710	keystroke	Key.space	n/a
469.91	0.0755	939820	keystroke	d	n/a
470.0755	0.075	940151	keystroke	u	n/a
470.2855	0.075	940571	keystroke	m	n/a
470.4205	0.09	940841	keystroke	p	n/a
471.3805	0.0905	942761	keystroke	Key.enter	n/a
471.483	16.1145	942966	prompt	n/a	triangle voltage shed jazz\n
472.371	0.105	944742	keystroke	t	n/a
472.401	0.12	944802	keystroke	r	n/a
472.566	0.09	945132	keystroke	i	n/a
472.686	0.075	945372	keystroke	a	n/a
472.806	0.0595	945612	keystroke	b	n/a
473.7505	0.075	947501	keystroke	g	n/a
473.8405	0.0905	947681	keystroke	l	n/a
473.946	0.105	947892	keystroke	e	n/a
474.081	0.06	948162	keystroke	Key.space	n/a
474.7255	0.06	949451	keystroke	v	n/a
474.7705	0.075	949541	keystroke	o	n/a
474.9505	0.075	949901	keystroke	l	n/a
474.9955	0.075	949991	keystroke	t	n/a
475.1755	0.075	950351	keystroke	a	n/a
475.3105	0.09	950621	keystroke	g	n/a
475.3555	0.105	950711	keystroke	e	n/a
475.4755	0.1045	950951	keystroke	Key.space	n/a
476.0305	0.09	952061	keystroke	s	n/a
476.1055	0.075	952211	keystroke	h	n/a
476.3005	0.075	952601	keystroke	e	n/a
476.5255	0.075	953051	keystroke	d	n/a
477.3205	0.09	954641	keystroke	Key.space	n/a
478.175	0.09	956350	keystroke	Key.backspace	n/a
478.37	0.06	956740	keystroke	Key.backspace	n/a
478.55	0.045	957100	keystroke	Key.backspace	n/a
478.745	0.03	957490	keystroke	Key.backspace	n/a
478.895	0.06	957790	keystroke	Key.backspace	n/a
479.015	0.075	958030	keystroke	Key.backspace	n/a
479.15	0.06	958300	keystroke	Key.backspace	n/a
479.36	0.39	958720	keystroke	Key.backspace	n/a
479.9	0.0305	959800	keystroke	Key.backspace	n/a
480.0505	0.03	960101	keystroke	Key.backspace	n/a
480.1555	0.045	960311	keystroke	Key.backspace	n/a
480.2905	0.03	960581	keystroke	Key.backspace	n/a
480.4105	0.03	960821	keystroke	Key.backspace	n/a
480.5005	0.06	961001	keystroke	Key.backspace	n/a
480.6055	0.075	961211	keystroke	Key.backspace	n/a
480.7255	0.06	961451	keystroke	Key.backspace	n/a
480.8305	0.075	961661	keystroke	Key.backspace	n/a
481.0405	0.1045	962081	keystroke	Key.backspace	n/a
481.9105	0.0895	963821	keystroke	n	n/a
482.03	0.075	964060	keystroke	g	n/a
482.12	0.075	964240	keystroke	l	n/a
482.225	0.09	964450	keystroke	e	n/a
482.33	0.0905	964660	keystroke	Key.space	n/a
482.6605	0.09	965321	keystroke	s	n/a
482.7655	0.06	965531	keystroke	h	n/a
482.8855	0.09	965771	keystroke	e	n/a
483.0505	0.09	966101	keystroke	d	n/a
483.2455	0.06	966491	keystroke	Key.backspace	n/a
483.3655	0.06	966731	keystroke	Key.backspace	n/a
483.5005	0.045	967001	keystroke	Key.backspace	n/a
483.5905	0.075	967181	keystroke	Key.backspace	n/a
484.2205	0.0745	968441	keystroke	v	n/a
484.296	0.059	968592	keystroke	o	n/a
484.43	0.105	968860	keystroke	l	n/a
484.52	0.075	969040	keystroke	t	n/a
484.625	0.09	969250	keystroke	a	n/a
484.7305	0.1195	969461	keystroke	g	n/a
484.805	0.105	969610	keystroke	e	n/a
484.925	0.09	969850	keystroke	Key.space	n/a
485.54	0.09	971080	keystroke	s	n/a
485.645	0.09	971290	keystroke	h	n/a
485.75	0.075	971500	keystroke	e	n/a
485.87	0.09	971740	keystroke	d	n/a
485.93	0.105	971860	keystroke	Key.space	n/a
486.17	0.075	972340	keystroke	j	n/a
486.26	0.135	972520	keystroke	a	n/a
487.1305	0.045	974261	keystroke	z	n/a
487.2505	0.09	974501	keystroke	z	n/a
487.5205	0.075	975041	keystroke	Key.enter	n/a
487.6085	6.228	975217	prompt	n/a	pitch sleeps delivery aging\n
488.3755	0.12	976751	keystroke	p	n/a
488.5105	0.06	977021	keystroke	t	n/a
488.8255	0.105	977651	keystroke	Key.backspace	n/a
489.0355	0.09	978071	keystroke	i	n/a
489.1105	0.075	978221	keystroke	t	n/a
489.3355	0.105	978671	keystroke	c	n/a
489.4555	0.06	978911	keystroke	h	n/a
489.6805	0.105	979361	keystroke	Key.space	n/a
489.9805	0.089	979961	keystroke	s	n/a
490.0995	0.075	980199	keystroke	l	n/a
490.2055	0.06	980411	keystroke	e	n/a
490.3405	0.075	980681	keystroke	e	n/a
490.4305	0.09	980861	keystroke	p	n/a
490.5505	0.09	981101	keystroke	s	n/a
490.6555	0.089	981311	keystroke	Key.space	n/a
491.195	0.09	982390	keystroke	d	n/a
491.42	0.09	982840	keystroke	e	n/a
491.555	0.09	983110	keystroke	l	n/a
491.765	0.06	983530	keystroke	i	n/a
491.81	0.1195	983620	keystroke	v	n/a
492.0355	0.104	984071	keystroke	e	n/a
492.1095	0.09	984219	keystroke	r	n/a
492.3195	0.075	984639	keystroke	y	n/a
492.4395	0.105	984879	keystroke	Key.space	n/a
492.7245	0.105	985449	keystroke	a	n/a
493.0095	0.09	986019	keystroke	g	n/a
493.1305	0.12	986261	keystroke	i	n/a
493.1895	0.075	986379	keystroke	n	n/a
493.2195	0.075	986439	keystroke	g	n/a
493.4745	0.06	986949	keystroke	Key.space	n/a
493.7595	0.075	987519	keystroke	Key.enter	n/a
493.839	6.313	987678	prompt	n/a	within portugal context orbit\n
494.4505	0.0895	988901	keystroke	w	n/a
494.585	0.06	989170	keystroke	i	n/a
494.705	0.105	989410	keystroke	t	n/a
494.765	0.075	989530	keystroke	h	n/a
494.8255	0.1195	989651	keystroke	i	n/a
494.9	0.075	989800	keystroke	n	n/a
495.02	0.105	990040	keystroke	Key.space	n/a
495.4255	0.0895	990851	keystroke	p	n/a
495.68	0.06	991360	keystroke	o	n/a
496.0845	0.12	992169	keystroke	r	n/a
496.1445	0.09	992289	keystroke	t	n/a
496.31	0.1045	992620	keystroke	u	n/a
496.55	0.075	993100	keystroke	g	n/a
496.73	0.075	993460	keystroke	a	n/a
496.835	0.105	993670	keystroke	l	n/a
496.955	0.105	993910	keystroke	Key.space	n/a
497.255	0.075	994510	keystroke	c	n/a
497.315	0.1205	994630	keystroke	o	n/a
497.3755	0.105	994751	keystroke	n	n/a
497.5705	0.075	995141	keystroke	t	n/a
497.6305	0.105	995261	keystroke	e	n/a
497.8705	0.0745	995741	keystroke	x	n/a
498.14	0.06	996280	keystroke	t	n/a
498.26	0.105	996520	keystroke	Key.space	n/a
499.19	0.075	998380	keystroke	o	n/a
499.475	0.09	998950	keystroke	r	n/a
499.745	0.09	999490	keystroke	b	n/a
499.85	0.075	999700	keystroke	i	n/a
499.94	0.06	999880	keystroke	t	n/a
500.06	0.09	1000120	keystroke	Key.enter	n/a
500.1575	10.2995	1000315	prompt	n/a	canvas nowhere coleman ladder\n
500.915	0.09	1001830	keystroke	c	n/a
501.065	0.12	1002130	keystroke	n	n/a
501.08	0.075	1002160	keystroke	a	n/a
501.995	0.075	1003990	keystroke	Key.backspace	n/a
502.145	0.06	1004290	keystroke	Key.backspace	n/a
502.2655	0.105	1004531	keystroke	a	n/a
502.3105	0.045	1004621	keystroke	Key.caps_lock	n/a
502.3555	0.105	1004711	keystroke	n	n/a
502.7905	0.06	1005581	keystroke	Key.backspace	n/a
503.0305	0.09	1006061	keystroke	Key.caps_lock	n/a
503.5105	0.075	1007021	keystroke	a	n/a
504.0055	0.075	1008011	keystroke	n	n/a
504.185	0.1055	1008370	keystroke	v	n/a
504.5905	0.09	1009181	keystroke	Key.backspace	n/a
504.7255	0.075	1009451	keystroke	Key.backspace	n/a
504.8755	0.06	1009751	keystroke	Key.backspace	n/a
505.1155	0.075	1010231	keystroke	n	n/a
505.2205	0.09	1010441	keystroke	v	n/a
505.5505	0.1945	1011101	keystroke	a	n/a
505.64	0.135	1011280	keystroke	s	n/a
505.85	0.0755	1011700	keystroke	Key.space	n/a
506.3755	0.105	1012751	keystroke	n	n/a
506.4355	0.09	1012871	keystroke	o	n/a
506.5555	0.105	1013111	keystroke	w	n/a
507.0655	0.0745	1014131	keystroke	h	n/a
507.26	0.15	1014520	keystroke	e	n/a
507.935	0.12	1015870	keystroke	r	n/a
507.995	0.12	1015990	keystroke	e	n/a
508.16	0.1055	1016320	keystroke	Key.space	n/a
508.7005	0.09	1017401	keystroke	c	n/a
508.7755	0.075	1017551	keystroke	o	n/a
508.9555	0.075	1017911	keystroke	l	n/a
509.0155	0.09	1018031	keystroke	e	n/a
509.1355	0.12	1018271	keystroke	m	n/a
509.2405	0.105	1018481	keystroke	a	n/a
509.3605	0.075	1018721	keystroke	n	n/a
509.5405	0.075	1019081	keystroke	Key.space	n/a
509.735	0.105	1019470	keystroke	l	n/a
509.78	0.135	1019560	keystroke	a	n/a
509.87	0.0905	1019740	keystroke	d	n/a
510.0205	0.105	1020041	keystroke	d	n/a
510.2005	0.12	1020401	keystroke	e	n/a
510.2605	0.12	1020521	keystroke	r	n/a
510.3655	0.09	1020731	keystroke	Key.enter	n/a
510.47	8.882	1020940	prompt	n/a	monitored eastern hugo pierce\n
511.295	0.075	1022590	keystroke	m	n/a
511.325	0.165	1022650	keystroke	o	n/a
511.505	0.105	1023010	keystroke	n	n/a
511.625	0.105	1023250	keystroke	o	n/a
512.0755	0.09	1024151	keystroke	Key.backspace	n/a
512.3305	0.075	1024661	keystroke	i	n/a
512.4505	0.09	1024901	keystroke	t	n/a
512.8555	0.135	1025711	keystroke	e	n/a
512.9305	0.15	1025861	keystroke	r	n/a
513.0505	0.105	1026101	keystroke	e	n/a
513.4555	0.045	1026911	keystroke	Key.backspace	n/a
513.6055	0.105	1027211	keystroke	Key.backspace	n/a
513.7705	0.06	1027541	keystroke	Key.backspace	n/a
513.95	0.075	1027900	keystroke	Key.backspace	n/a
514.6855	0.105	1029371	keystroke	t	n/a
514.8055	0.09	1029611	keystroke	o	n/a
514.9255	0.135	1029851	keystroke	r	n/a
515.0005	0.105	1030001	keystroke	e	n/a
515.1645	0.105	1030329	keystroke	d	n/a
515.2845	0.105	1030569	keystroke	Key.space	n/a
515.8395	0.105	1031679	keystroke	e	n/a
516.0345	0.09	1032069	keystroke	a	n/a
516.0655	0.104	1032131	keystroke	s	n/a
516.3195	0.075	1032639	keystroke	t	n/a
516.4245	0.1205	1032849	keystroke	e	n/a
516.5	0.105	1033000	keystroke	r	n/a
516.59	0.075	1033180	keystroke	n	n/a
516.74	0.105	1033480	keystroke	Key.space	n/a
517.2795	0.121	1034559	keystroke	h	n/a
517.3705	0.105	1034741	keystroke	u	n/a
517.5045	0.09	1035009	keystroke	g	n/a
517.6395	0.09	1035279	keystroke	o	n/a
517.82	0.09	1035640	keystroke	Key.space	n/a
518.1495	0.091	1036299	keystroke	p	n/a
518.3745	0.075	1036749	keystroke	i	n/a
518.5245	0.105	1037049	keystroke	e	n/a
518.8095	0.06	1037619	keystroke	r	n/a
519.0195	0.12	1038039	keystroke	c	n/a
519.0945	0.105	1038189	keystroke	e	n/a
519.2595	0.09	1038519	keystroke	Key.enter	n/a
519.363	7.639	1038726	prompt	n/a	medicines saved funeral meant\n
520.1895	0.091	1040379	keystroke	m	n/a
520.2655	0.089	1040531	keystroke	e	n/a
520.3995	0.105	1040799	keystroke	d	n/a
520.4905	0.074	1040981	keystroke	i	n/a
520.6095	0.12	1041219	keystroke	c	n/a
521.2705	0.104	1042541	keystroke	i	n/a
521.4645	0.075	1042929	keystroke	n	n/a
521.5545	0.075	1043109	keystroke	e	n/a
521.6895	0.121	1043379	keystroke	s	n/a
521.8395	0.09	1043679	keystroke	Key.space	n/a
522.2895	0.06	1044579	keystroke	s	n/a
522.6345	0.12	1045269	keystroke	a	n/a
522.8755	0.149	1045751	keystroke	v	n/a
522.9495	0.09	1045899	keystroke	e	n/a
523.1595	0.06	1046319	keystroke	d	n/a
523.2945	0.105	1046589	keystroke	Key.space	n/a
524.0455	0.074	1048091	keystroke	f	n/a
524.1645	0.12	1048329	keystroke	u	n/a
524.2095	0.18	1048419	keystroke	n	n/a
524.3755	0.0895	1048751	keystroke	u	n/a
525.275	0.105	1050550	keystroke	Key.backspace	n/a
525.515	0.105	1051030	keystroke	e	n/a
525.56	0.105	1051120	keystroke	r	n/a
525.725	0.09	1051450	keystroke	a	n/a
525.816	0.104	1051632	keystroke	l	n/a
525.9945	0.105	1051989	keystroke	Key.space	n/a
526.3545	0.091	1052709	keystroke	m	n/a
526.4145	0.105	1052829	keystroke	e	n/a
526.5495	0.12	1053099	keystroke	a	n/a
526.7145	0.105	1053429	keystroke	n	n/a
526.8045	0.075	1053609	keystroke	t	n/a
526.9245	0.0755	1053849	keystroke	Key.enter	n/a
527.0065	6.22	1054013	prompt	n/a	concern sweet attractions astrology\n
527.7355	0.0745	1055471	keystroke	c	n/a
527.7955	0.1045	1055591	keystroke	o	n/a
527.8555	0.1045	1055711	keystroke	n	n/a
527.93	0.105	1055860	keystroke	c	n/a
528.14	0.105	1056280	keystroke	e	n/a
528.185	0.105	1056370	keystroke	r	n/a
528.305	0.105	1056610	keystroke	n	n/a
528.44	0.075	1056880	keystroke	Key.space	n/a
529.01	0.09	1058020	keystroke	s	n/a
529.28	0.135	1058560	keystroke	w	n/a
529.355	0.1205	1058710	keystroke	e	n/a
529.5355	0.12	1059071	keystroke	e	n/a
529.7905	0.075	1059581	keystroke	t	n/a
529.9405	0.105	1059881	keystroke	Key.space	n/a
530.315	0.075	1060630	keystroke	a	n/a
530.54	0.045	1061080	keystroke	t	n/a
530.645	0.075	1061290	keystroke	t	n/a
530.825	0.09	1061650	keystroke	r	n/a
530.945	0.135	1061890	keystroke	a	n/a
531.05	0.105	1062100	keystroke	c	n/a
531.275	0.045	1062550	keystroke	t	n/a
531.38	0.0905	1062760	keystroke	i	n/a
531.425	0.0905	1062850	keystroke	o	n/a
531.5755	0.075	1063151	keystroke	n	n/a
531.6805	0.09	1063361	keystroke	s	n/a
531.7555	0.09	1063511	keystroke	Key.space	n/a
532.0405	0.15	1064081	keystroke	a	n/a
532.1155	0.105	1064231	keystroke	s	n/a
532.3405	0.135	1064681	keystroke	t	n/a
532.4455	0.105	1064891	keystroke	r	n/a
532.5055	0.09	1065011	keystroke	o	n/a
532.6705	0.075	1065341	keystroke	l	n/a
532.8195	0.106	1065639	keystroke	o	n/a
532.9105	0.075	1065821	keystroke	g	n/a
533.0905	0.075	1066181	keystroke	y	n/a
533.1505	0.074	1066301	keystroke	Key.enter	n/a
533.2295	11.2925	1066459	prompt	n/a	streets reservoir encouraged texts\n
533.945	0.105	1067890	keystroke	s	n/a
534.26	0.12	1068520	keystroke	t	n/a
534.29	0.15	1068580	keystroke	r	n/a
534.395	0.0905	1068790	keystroke	e	n/a
