onset	duration	sample	value	key	prompt_text
1.1275	5.084	2255	prompt	n/a	the quick brown fox jumps over a lazy dog\n
2.1425	0.136	4285	keystroke	t	n/a
2.2315	0.111	4463	keystroke	h	n/a
2.2875	0.1205	4575	keystroke	e	n/a
2.3515	0.08	4703	keystroke	Key.space	n/a
2.4465	0.097	4893	keystroke	q	n/a
2.551	0.1115	5102	keystroke	u	n/a
2.613	0.0585	5226	keystroke	i	n/a
2.631	0.1285	5262	keystroke	c	n/a
2.752	0.128	5504	keystroke	k	n/a
2.8235	0.087	5647	keystroke	Key.space	n/a
2.959	0.0725	5918	keystroke	b	n/a
3.1185	0.0815	6237	keystroke	r	n/a
3.168	0.096	6336	keystroke	o	n/a
3.2875	0.117	6575	keystroke	w	n/a
3.3355	0.1035	6671	keystroke	n	n/a
3.3755	0.0875	6751	keystroke	Key.space	n/a
3.5035	0.072	7007	keystroke	f	n/a
3.583	0.145	7166	keystroke	o	n/a
3.72	0.1115	7440	keystroke	x	n/a
3.791	0.085	7582	keystroke	Key.space	n/a
3.903	0.0645	7806	keystroke	j	n/a
4.0395	0.0455	8079	keystroke	u	n/a
4.1915	0.16	8383	keystroke	m	n/a
4.2795	0.1175	8559	keystroke	p	n/a
4.3345	0.105	8669	keystroke	s	n/a
4.3675	0.088	8735	keystroke	Key.space	n/a
4.519	0.1445	9038	keystroke	o	n/a
4.5675	0.056	9135	keystroke	v	n/a
4.68	0.1755	9360	keystroke	e	n/a
4.784	0.0925	9568	keystroke	r	n/a
4.815	0.096	9630	keystroke	Key.space	n/a
4.967	0.1125	9934	keystroke	a	n/a
5.039	0.0805	10078	keystroke	Key.space	n/a
5.279	0.1125	10558	keystroke	l	n/a
5.3985	0.025	10797	keystroke	a	n/a
5.5755	0.088	11151	keystroke	z	n/a
5.6545	0.105	11309	keystroke	y	n/a
5.7035	0.08	11407	keystroke	Key.space	n/a
5.8135	0.0815	11627	keystroke	d	n/a
5.9195	0.0805	11839	keystroke	o	n/a
6	0.0635	12000	keystroke	g	n/a
6.1275	0.08	12255	keystroke	Key.enter	n/a
6.218	5.2195	12436	prompt	n/a	sold italy texas harvard\n
6.704	0.104	13408	keystroke	s	n/a
6.776	0.0715	13552	keystroke	o	n/a
6.9355	0.072	13871	keystroke	l	n/a
7.159	0.065	14318	keystroke	i	n/a
7.2395	0.0895	14479	keystroke	d	n/a
7.305	0.072	14610	keystroke	Key.space	n/a
7.906	0.032	15812	keystroke	Key.backspace	n/a
8.0025	0.0475	16005	keystroke	Key.backspace	n/a
8.1785	0.12	16357	keystroke	d	n/a
8.2345	0.0795	16469	keystroke	Key.space	n/a
8.69	0.1205	17380	keystroke	i	n/a
8.8265	0.0955	17653	keystroke	t	n/a
8.891	0.0875	17782	keystroke	a	n/a
8.971	0.08	17942	keystroke	l	n/a
9.1305	0.112	18261	keystroke	y	n/a
9.202	0.081	18404	keystroke	Key.space	n/a
9.3145	0.112	18629	keystroke	t	n/a
9.403	0.0795	18806	keystroke	e	n/a
9.603	0.112	19206	keystroke	x	n/a
9.747	0.072	19494	keystroke	a	n/a
9.9075	0.104	19815	keystroke	s	n/a
9.9635	0.096	19927	keystroke	Key.space	n/a
10.2035	0.0875	20407	keystroke	h	n/a
10.251	0.113	20502	keystroke	a	n/a
10.348	0.064	20696	keystroke	r	n/a
10.547	0.112	21094	keystroke	a	n/a
10.8995	0.0485	21799	keystroke	Key.backspace	n/a
10.932	0.0645	21864	keystroke	v	n/a
10.9715	0.112	21943	keystroke	a	n/a
11.1155	0.0725	22231	keystroke	r	n/a
11.22	0.1035	22440	keystroke	d	n/a
11.3555	0.08	22711	keystroke	Key.enter	n/a
11.4425	4.259	22885	prompt	n/a	yeah warranties nearly indoor\n
12.044	0.0795	24088	keystroke	y	n/a
12.0915	0.168	24183	keystroke	e	n/a
12.1475	0.0955	24295	keystroke	a	n/a
12.467	0.1205	24934	keystroke	h	n/a
12.5795	0.08	25159	keystroke	Key.space	n/a
12.819	0.097	25638	keystroke	w	n/a
13.3635	0.1035	26727	keystroke	a	n/a
13.5315	0.064	27063	keystroke	r	n/a
13.675	0.1045	27350	keystroke	r	n/a
13.756	0.103	27512	keystroke	a	n/a
13.868	0.0955	27736	keystroke	n	n/a
13.9555	0.08	27911	keystroke	t	n/a
14.0755	0.1355	28151	keystroke	i	n/a
14.139	0.129	28278	keystroke	e	n/a
14.203	0.104	28406	keystroke	s	n/a
14.2435	0.0715	28487	keystroke	Key.space	n/a
14.3955	0.1115	28791	keystroke	n	n/a
14.452	0.151	28904	keystroke	e	n/a
14.515	0.097	29030	keystroke	a	n/a
14.587	0.1125	29174	keystroke	r	n/a
14.675	0.0645	29350	keystroke	l	n/a
14.803	0.1125	29606	keystroke	y	n/a
14.8675	0.072	29735	keystroke	Key.space	n/a
14.988	0.063	29976	keystroke	i	n/a
15.1155	0.0805	30231	keystroke	n	n/a
15.196	0.0715	30392	keystroke	d	n/a
15.299	0.057	30598	keystroke	o	n/a
15.403	0.104	30806	keystroke	o	n/a
15.515	0.0725	31030	keystroke	r	n/a
15.6505	0.0485	31301	keystroke	Key.enter	n/a
15.7065	4.29	31413	prompt	n/a	architectural muslim wrong rocky\n
16.236	0.0955	32472	keystroke	a	n/a
16.419	0.064	32838	keystroke	r	n/a
16.611	0.08	33222	keystroke	c	n/a
16.6515	0.1285	33303	keystroke	h	n/a
16.715	0.088	33430	keystroke	i	n/a
16.819	0.096	33638	keystroke	t	n/a
16.884	0.0875	33768	keystroke	e	n/a
17.0675	0.0805	34135	keystroke	c	n/a
17.2515	0.0795	34503	keystroke	t	n/a
17.4435	0.112	34887	keystroke	u	n/a
17.5315	0.1365	35063	keystroke	r	n/a
17.6035	0.0555	35207	keystroke	a	n/a
17.724	0.103	35448	keystroke	l	n/a
17.779	0.0805	35558	keystroke	Key.space	n/a
17.939	0.0795	35878	keystroke	m	n/a
18.1235	0.0795	36247	keystroke	u	n/a
18.187	0.088	36374	keystroke	s	n/a
18.2835	0.064	36567	keystroke	l	n/a
18.3795	0.0635	36759	keystroke	i	n/a
18.5395	0.1195	37079	keystroke	m	n/a
18.587	0.12	37174	keystroke	Key.space	n/a
18.723	0.0955	37446	keystroke	w	n/a
18.812	0.119	37624	keystroke	r	n/a
18.8915	0.136	37783	keystroke	o	n/a
18.9715	0.127	37943	keystroke	n	n/a
19.0515	0.072	38103	keystroke	g	n/a
19.091	0.0875	38182	keystroke	Key.space	n/a
19.2515	0.072	38503	keystroke	r	n/a
19.347	0.08	38694	keystroke	o	n/a
19.451	0.105	38902	keystroke	c	n/a
19.5395	0.0795	39079	keystroke	k	n/a
19.723	0.081	39446	keystroke	y	n/a
19.923	0.072	39846	keystroke	Key.enter	n/a
20.001	5.117	40002	prompt	n/a	palm manufactured junior thoughts\n
20.547	0.065	41094	keystroke	p	n/a
20.5955	0.1045	41191	keystroke	a	n/a
20.748	0.087	41496	keystroke	l	n/a
20.883	0.1205	41766	keystroke	m	n/a
20.995	0.072	41990	keystroke	Key.space	n/a
21.203	0.08	42406	keystroke	n	n/a
21.3145	0.0885	42629	keystroke	a	n/a
21.6275	0.0395	43255	keystroke	Key.backspace	n/a
21.7465	0.032	43493	keystroke	Key.backspace	n/a
21.891	0.0885	43782	keystroke	m	n/a
21.987	0.0565	43974	keystroke	a	n/a
22.0825	0.057	44165	keystroke	n	n/a
22.251	0.0725	44502	keystroke	u	n/a
22.299	0.097	44598	keystroke	f	n/a
22.387	0.0795	44774	keystroke	a	n/a
22.5395	0.072	45079	keystroke	c	n/a
22.7305	0.065	45461	keystroke	t	n/a
22.859	0.1605	45718	keystroke	u	n/a
22.924	0.103	45848	keystroke	r	n/a
22.987	0.088	45974	keystroke	e	n/a
23.123	0.1045	46246	keystroke	d	n/a
23.171	0.08	46342	keystroke	Key.space	n/a
23.323	0.056	46646	keystroke	j	n/a
23.451	0.08	46902	keystroke	u	n/a
23.6425	0.161	47285	keystroke	n	n/a
23.7145	0.153	47429	keystroke	i	n/a
23.787	0.152	47574	keystroke	o	n/a
23.891	0.0805	47782	keystroke	r	n/a
23.915	0.104	47830	keystroke	Key.space	n/a
24.2275	0.08	48455	keystroke	t	n/a
24.315	0.0875	48630	keystroke	h	n/a
24.4435	0.1515	48887	keystroke	o	n/a
24.5465	0.096	49093	keystroke	u	n/a
24.6355	0.087	49271	keystroke	g	n/a
24.755	0.112	49510	keystroke	h	n/a
24.8185	0.1205	49637	keystroke	t	n/a
24.883	0.1205	49766	keystroke	s	n/a
25.035	0.0805	50070	keystroke	Key.enter	n/a
25.1225	4.0185	50245	prompt	n/a	goal switches junction census\n
25.691	0.088	51382	keystroke	g	n/a
25.795	0.0565	51590	keystroke	o	n/a
25.8905	0.0645	51781	keystroke	a	n/a
25.963	0.1125	51926	keystroke	l	n/a
26.0505	0.0645	52101	keystroke	Key.space	n/a
26.147	0.048	52294	keystroke	s	n/a
26.307	0.064	52614	keystroke	w	n/a
26.403	0.12	52806	keystroke	i	n/a
26.467	0.064	52934	keystroke	t	n/a
26.651	0.0885	53302	keystroke	c	n/a
26.7315	0.127	53463	keystroke	h	n/a
26.7955	0.119	53591	keystroke	e	n/a
26.8665	0.0885	53733	keystroke	s	n/a
26.891	0.072	53782	keystroke	Key.space	n/a
27.035	0.048	54070	keystroke	j	n/a
27.1705	0.0325	54341	keystroke	u	n/a
27.331	0.12	54662	keystroke	n	n/a
27.388	0.087	54776	keystroke	c	n/a
27.603	0.144	55206	keystroke	t	n/a
27.659	0.08	55318	keystroke	i	n/a
27.739	0.08	55478	keystroke	o	n/a
27.755	0.144	55510	keystroke	n	n/a
27.827	0.12	55654	keystroke	Key.space	n/a
28.0265	0.056	56053	keystroke	s	n/a
28.283	0.071	56566	keystroke	Key.backspace	n/a
28.363	0.088	56726	keystroke	c	n/a
28.435	0.08	56870	keystroke	e	n/a
28.5155	0.104	57031	keystroke	n	n/a
28.635	0.08	57270	keystroke	s	n/a
28.771	0.1205	57542	keystroke	u	n/a
28.8115	0.088	57623	keystroke	s	n/a
29.0665	0.072	58133	keystroke	Key.enter	n/a
29.1495	4.505	58299	prompt	n/a	invitation tournament treasures approximate\n
29.715	0.056	59430	keystroke	i	n/a
29.8355	0.096	59671	keystroke	n	n/a
29.8985	0.072	59797	keystroke	v	n/a
30.0275	0.08	60055	keystroke	i	n/a
30.1155	0.079	60231	keystroke	t	n/a
30.1955	0.1115	60391	keystroke	a	n/a
30.2905	0.097	60581	keystroke	t	n/a
30.3555	0.056	60711	keystroke	i	n/a
30.4115	0.103	60823	keystroke	o	n/a
30.4355	0.1275	60871	keystroke	n	n/a
30.5155	0.071	61031	keystroke	Key.space	n/a
30.6185	0.0805	61237	keystroke	t	n/a
30.707	0.104	61414	keystroke	o	n/a
30.771	0.0795	61542	keystroke	u	n/a
30.8345	0.073	61669	keystroke	r	n/a
30.9635	0.063	61927	keystroke	n	n/a
31.059	0.0885	62118	keystroke	a	n/a
31.1475	0.0645	62295	keystroke	m	n/a
31.2435	0.096	62487	keystroke	e	n/a
31.3075	0.143	62615	keystroke	n	n/a
31.3785	0.113	62757	keystroke	t	n/a
31.475	0.0725	62950	keystroke	Key.space	n/a
31.7065	0.0645	63413	keystroke	t	n/a
31.891	0.12	63782	keystroke	r	n/a
31.947	0.096	63894	keystroke	e	n/a
32.012	0.0955	64024	keystroke	a	n/a
32.123	0.088	64246	keystroke	s	n/a
32.251	0.144	64502	keystroke	u	n/a
32.2995	0.128	64599	keystroke	r	n/a
32.3635	0.087	64727	keystroke	e	n/a
32.379	0.1125	64758	keystroke	s	n/a
32.4585	0.0725	64917	keystroke	Key.space	n/a
32.563	0.0805	65126	keystroke	a	n/a
32.6675	0.032	65335	keystroke	p	n/a
32.7875	0.063	65575	keystroke	p	n/a
32.8515	0.056	65703	keystroke	r	n/a
32.931	0.0965	65862	keystroke	o	n/a
33.0425	0.073	66085	keystroke	x	n/a
33.1235	0.031	66247	keystroke	i	n/a
33.2195	0.112	66439	keystroke	m	n/a
33.2915	0.088	66583	keystroke	a	n/a
33.3875	0.104	66775	keystroke	t	n/a
33.4355	0.096	66871	keystroke	e	n/a
33.579	0.0715	67158	keystroke	Key.enter	n/a
33.6605	4.36	67321	prompt	n/a	bottles nike devon personality\n
34.2275	0.072	68455	keystroke	b	n/a
34.307	0.0805	68614	keystroke	o	n/a
34.4355	0.056	68871	keystroke	t	n/a
34.579	0.04	69158	keystroke	t	n/a
34.643	0.128	69286	keystroke	l	n/a
34.699	0.136	69398	keystroke	e	n/a
34.763	0.088	69526	keystroke	s	n/a
34.803	0.049	69606	keystroke	Key.space	n/a
34.891	0.112	69782	keystroke	n	n/a
34.995	0.0325	69990	keystroke	i	n/a
35.163	0.104	70326	keystroke	k	n/a
35.203	0.08	70406	keystroke	e	n/a
35.267	0.08	70534	keystroke	Key.space	n/a
35.371	0.072	70742	keystroke	d	n/a
35.635	0.072	71270	keystroke	v	n/a
35.979	0.0475	71958	keystroke	Key.backspace	n/a
36.0665	0.121	72133	keystroke	e	n/a
36.2835	0.128	72567	keystroke	v	n/a
36.435	0.112	72870	keystroke	o	n/a
36.515	0.112	73030	keystroke	n	n/a
36.579	0.072	73158	keystroke	Key.space	n/a
36.683	0.096	73366	keystroke	p	n/a
36.7875	0.1515	73575	keystroke	e	n/a
36.891	0.096	73782	keystroke	r	n/a
36.931	0.1045	73862	keystroke	s	n/a
37.003	0.104	74006	keystroke	o	n/a
37.067	0.096	74134	keystroke	n	n/a
37.139	0.1045	74278	keystroke	a	n/a
37.275	0.1125	74550	keystroke	l	n/a
37.371	0.0885	74742	keystroke	i	n/a
37.427	0.104	74854	keystroke	t	n/a
37.547	0.0805	75094	keystroke	y	n/a
37.955	0.064	75910	keystroke	Key.enter	n/a
38.0255	4.323	76051	prompt	n/a	internship licence persons to\n
38.5875	0.0475	77175	keystroke	i	n/a
38.691	0.08	77382	keystroke	n	n/a
38.747	0.0485	77494	keystroke	t	n/a
38.8035	0.1435	77607	keystroke	e	n/a
38.915	0.088	77830	keystroke	r	n/a
38.995	0.064	77990	keystroke	n	n/a
39.067	0.104	78134	keystroke	s	n/a
39.147	0.1595	78294	keystroke	h	n/a
39.2675	0.1275	78535	keystroke	p	n/a
39.3145	0.0965	78629	keystroke	Key.space	n/a
39.819	0.056	79638	keystroke	Key.backspace	n/a
39.931	0.039	79862	keystroke	Key.backspace	n/a
40.083	0.096	80166	keystroke	i	n/a
40.1235	0.12	80247	keystroke	p	n/a
40.267	0.104	80534	keystroke	Key.space	n/a
40.427	0.048	80854	keystroke	l	n/a
40.5075	0.1125	81015	keystroke	i	n/a
40.627	0.072	81254	keystroke	c	n/a
40.707	0.072	81414	keystroke	e	n/a
40.843	0.1445	81686	keystroke	n	n/a
40.9235	0.1115	81847	keystroke	s	n/a
40.963	0.1205	81926	keystroke	e	n/a
41.036	0.087	82072	keystroke	Key.space	n/a
41.467	0.072	82934	keystroke	p	n/a
41.483	0.1285	82966	keystroke	e	n/a
41.555	0.1125	83110	keystroke	r	n/a
41.6115	0.1195	83223	keystroke	s	n/a
41.723	0.112	83446	keystroke	o	n/a
41.7795	0.1275	83559	keystroke	n	n/a
41.8515	0.0955	83703	keystroke	s	n/a
41.915	0.0555	83830	keystroke	Key.space	n/a
42.0355	0.08	84071	keystroke	t	n/a
42.1235	0.048	84247	keystroke	o	n/a
42.2595	0.088	84519	keystroke	Key.enter	n/a
42.3535	4.2925	84707	prompt	n/a	district defects needs cooking\n
42.8665	0.073	85733	keystroke	d	n/a
43.043	0.0725	86086	keystroke	i	n/a
43.0905	0.105	86181	keystroke	s	n/a
43.2035	0.088	86407	keystroke	t	n/a
43.371	0.072	86742	keystroke	r	n/a
43.5075	0.112	87015	keystroke	i	n/a
43.5955	0.0795	87191	keystroke	c	n/a
43.7875	0.0875	87575	keystroke	t	n/a
43.835	0.096	87670	keystroke	Key.space	n/a
44.051	0.0725	88102	keystroke	d	n/a
44.1875	0.0795	88375	keystroke	e	n/a
44.3315	0.0875	88663	keystroke	f	n/a
44.411	0.088	88822	keystroke	e	n/a
44.5955	0.056	89191	keystroke	c	n/a
44.755	0.144	89510	keystroke	t	n/a
44.835	0.104	89670	keystroke	s	n/a
44.875	0.072	89750	keystroke	Key.space	n/a
45.027	0.096	90054	keystroke	n	n/a
45.1385	0.0245	90277	keystroke	e	n/a
45.2425	0.056	90485	keystroke	e	n/a
45.3945	0.1205	90789	keystroke	d	n/a
45.451	0.096	90902	keystroke	s	n/a
45.491	0.0955	90982	keystroke	Key.space	n/a
45.6595	0.095	91319	keystroke	c	n/a
45.8105	0.064	91621	keystroke	o	n/a
45.9475	0.048	91895	keystroke	o	n/a
46.0675	0.064	92135	keystroke	k	n/a
46.203	0.072	92406	keystroke	i	n/a
46.323	0.112	92646	keystroke	n	n/a
46.427	0.064	92854	keystroke	g	n/a
46.571	0.071	93142	keystroke	Key.enter	n/a
46.6495	4.2275	93299	prompt	n/a	seminars agent posted cakes\n
47.1555	0.024	94311	keystroke	d	n/a
47.4985	0.056	94997	keystroke	Key.backspace	n/a
47.5795	0.12	95159	keystroke	s	n/a
47.7065	0.104	95413	keystroke	e	n/a
47.867	0.136	95734	keystroke	m	n/a
48.219	0.048	96438	keystroke	i	n/a
48.371	0.072	96742	keystroke	n	n/a
48.555	0.096	97110	keystroke	a	n/a
48.6275	0.1915	97255	keystroke	r	n/a
48.747	0.1285	97494	keystroke	s	n/a
48.827	0.072	97654	keystroke	Key.space	n/a
48.947	0.136	97894	keystroke	a	n/a
49.075	0.072	98150	keystroke	g	n/a
49.148	0.0875	98296	keystroke	e	n/a
49.2275	0.1515	98455	keystroke	n	n/a
49.363	0.104	98726	keystroke	t	n/a
49.419	0.08	98838	keystroke	Key.space	n/a
49.5555	0.0795	99111	keystroke	p	n/a
49.6915	0.096	99383	keystroke	o	n/a
49.7385	0.0805	99477	keystroke	s	n/a
49.8995	0.127	99799	keystroke	t	n/a
49.995	0.0485	99990	keystroke	e	n/a
50.1395	0.088	100279	keystroke	d	n/a
50.1875	0.0705	100375	keystroke	Key.space	n/a
50.307	0.088	100614	keystroke	c	n/a
50.387	0.032	100774	keystroke	a	n/a
50.475	0.12	100950	keystroke	k	n/a
50.579	0.1125	101158	keystroke	e	n/a
50.6505	0.0965	101301	keystroke	s	n/a
50.803	0.072	101606	keystroke	Key.enter	n/a
50.88	5.789	101760	prompt	n/a	klein textile reconstruction ranking\n
51.4995	0.1115	102999	keystroke	k	n/a
51.9155	0.0555	103831	keystroke	l	n/a
51.995	0.0715	103990	keystroke	e	n/a
52.139	0.0805	104278	keystroke	i	n/a
52.2585	0.1675	104517	keystroke	n	n/a
52.411	0.031	104822	keystroke	Key.space	n/a
52.547	0.1125	105094	keystroke	t	n/a
52.6265	0.0885	105253	keystroke	e	n/a
52.8435	0.064	105687	keystroke	x	n/a
53.1235	0.111	106247	keystroke	t	n/a
53.3625	0.0725	106725	keystroke	i	n/a
53.491	0.1435	106982	keystroke	l	n/a
53.5625	0.0965	107125	keystroke	e	n/a
53.619	0.0715	107238	keystroke	Key.space	n/a
53.883	0.088	107766	keystroke	r	n/a
53.947	0.072	107894	keystroke	e	n/a
54.115	0.104	108230	keystroke	c	n/a
54.155	0.144	108310	keystroke	o	n/a
54.243	0.088	108486	keystroke	n	n/a
54.315	0.1285	108630	keystroke	s	n/a
54.4435	0.0555	108887	keystroke	t	n/a
54.595	0.063	109190	keystroke	r	n/a
54.707	0.1205	109414	keystroke	u	n/a
54.851	0.072	109702	keystroke	c	n/a
55.043	0.096	110086	keystroke	t	n/a
55.123	0.096	110246	keystroke	i	n/a
55.163	0.136	110326	keystroke	o	n/a
55.211	0.1125	110422	keystroke	n	n/a
55.3145	0.0645	110629	keystroke	Key.space	n/a
55.8345	0.12	111669	keystroke	r	n/a
55.9065	0.0885	111813	keystroke	a	n/a
55.9785	0.112	111957	keystroke	n	n/a
56.0425	0.088	112085	keystroke	k	n/a
56.227	0.04	112454	keystroke	i	n/a
56.2985	0.088	112597	keystroke	n	n/a
56.3945	0.0805	112789	keystroke	g	n/a
56.5705	0.0965	113141	keystroke	Key.enter	n/a
56.674	5.2825	113348	prompt	n/a	remove to've font acknowledge\n
57.243	0.104	114486	keystroke	r	n/a
57.323	0.0715	114646	keystroke	e	n/a
57.4105	0.1445	114821	keystroke	m	n/a
57.475	0.128	114950	keystroke	o	n/a
57.555	0.064	115110	keystroke	v	n/a
57.611	0.104	115222	keystroke	e	n/a
57.659	0.063	115318	keystroke	Key.space	n/a
57.843	0.0715	115686	keystroke	t	n/a
57.8995	0.071	115799	keystroke	o	n/a
58.0585	0.104	116117	keystroke	'	n/a
58.211	0.0875	116422	keystroke	v	n/a
58.331	0.1275	116662	keystroke	e	n/a
58.435	0.0795	116870	keystroke	Key.space	n/a
58.9865	0.064	117973	keystroke	f	n/a
59.2915	0.1275	118583	keystroke	o	n/a
59.3785	0.1445	118757	keystroke	n	n/a
59.4585	0.0965	118917	keystroke	t	n/a
59.531	0.079	119062	keystroke	Key.space	n/a
59.6745	0.088	119349	keystroke	a	n/a
60.0585	0.0565	120117	keystroke	c	n/a
60.6585	0.1205	121317	keystroke	k	n/a
60.995	0.0955	121990	keystroke	n	n/a
61.0985	0.072	122197	keystroke	o	n/a
61.2105	0.08	122421	keystroke	w	n/a
61.3235	0.103	122647	keystroke	l	n/a
61.419	0.0805	122838	keystroke	e	n/a
61.563	0.0965	123126	keystroke	d	n/a
61.6665	0.12	123333	keystroke	g	n/a
61.7635	0.063	123527	keystroke	e	n/a
61.8585	0.096	123717	keystroke	Key.enter	n/a
61.9605	4.2045	123921	prompt	n/a	studies governor rays lean\n
62.571	0.128	125142	keystroke	s	n/a
62.667	0.048	125334	keystroke	t	n/a
62.755	0.104	125510	keystroke	u	n/a
62.819	0.08	125638	keystroke	d	n/a
62.971	0.072	125942	keystroke	e	n/a
63.123	0.104	126246	keystroke	i	n/a
63.419	0.048	126838	keystroke	Key.backspace	n/a
63.539	0.04	127078	keystroke	Key.backspace	n/a
63.691	0.1195	127382	keystroke	i	n/a
63.747	0.104	127494	keystroke	e	n/a
63.8025	0.0875	127605	keystroke	s	n/a
63.8265	0.08	127653	keystroke	Key.space	n/a
64.123	0.088	128246	keystroke	o	n/a
64.3865	0.048	128773	keystroke	Key.backspace	n/a
64.443	0.072	128886	keystroke	g	n/a
64.587	0.128	129174	keystroke	o	n/a
64.643	0.0555	129286	keystroke	v	n/a
64.7545	0.1115	129509	keystroke	e	n/a
64.843	0.0715	129686	keystroke	r	n/a
64.8825	0.112	129765	keystroke	n	n/a
65.0665	0.0885	130133	keystroke	o	n/a
65.1235	0.0715	130247	keystroke	r	n/a
65.1635	0.0795	130327	keystroke	Key.space	n/a
65.283	0.0875	130566	keystroke	r	n/a
65.331	0.0635	130662	keystroke	a	n/a
65.443	0.136	130886	keystroke	y	n/a
65.507	0.096	131014	keystroke	s	n/a
65.5705	0.056	131141	keystroke	Key.space	n/a
65.707	0.0955	131414	keystroke	l	n/a
65.747	0.1115	131494	keystroke	e	n/a
65.8105	0.096	131621	keystroke	a	n/a
65.8985	0.0805	131797	keystroke	n	n/a
66.09	0.073	132180	keystroke	Key.enter	n/a
66.169	4.7235	132338	prompt	n/a	tuesday perspective holders candy\n
66.939	0.104	133878	keystroke	t	n/a
67.051	0.119	134102	keystroke	u	n/a
67.123	0.112	134246	keystroke	e	n/a
67.1865	0.1045	134373	keystroke	s	n/a
67.3305	0.152	134661	keystroke	d	n/a
67.3945	0.0805	134789	keystroke	a	n/a
67.5225	0.112	135045	keystroke	y	n/a
67.5705	0.1045	135141	keystroke	Key.space	n/a
67.7145	0.1125	135429	keystroke	p	n/a
67.771	0.112	135542	keystroke	e	n/a
67.8425	0.096	135685	keystroke	r	n/a
67.9155	0.1275	135831	keystroke	s	n/a
68.123	0.0795	136246	keystroke	p	n/a
68.315	0.0795	136630	keystroke	e	n/a
68.4745	0.08	136949	keystroke	c	n/a
68.6905	0.056	137381	keystroke	t	n/a
68.8025	0.129	137605	keystroke	i	n/a
68.971	0.0795	137942	keystroke	v	n/a
69.115	0.103	138230	keystroke	e	n/a
69.1785	0.0955	138357	keystroke	Key.space	n/a
69.378	0.104	138756	keystroke	h	n/a
69.435	0.063	138870	keystroke	o	n/a
69.6025	0.112	139205	keystroke	l	n/a
69.643	0.079	139286	keystroke	d	n/a
69.8185	0.144	139637	keystroke	e	n/a
69.8985	0.152	139797	keystroke	r	n/a
69.9545	0.12	139909	keystroke	s	n/a
70.0265	0.088	140053	keystroke	Key.space	n/a
70.2425	0.112	140485	keystroke	c	n/a
70.3065	0.088	140613	keystroke	a	n/a
70.3865	0.104	140773	keystroke	n	n/a
70.5305	0.0715	141061	keystroke	d	n/a
70.6345	0.064	141269	keystroke	y	n/a
70.81	0.08	141620	keystroke	Key.enter	n/a
70.8985	5.4975	141797	prompt	n/a	musician genetic smoking mesh\n
71.4585	0.0725	142917	keystroke	m	n/a
71.626	0.081	143252	keystroke	u	n/a
71.707	0.079	143414	keystroke	s	n/a
71.802	0.0565	143604	keystroke	i	n/a
71.8825	0.08	143765	keystroke	c	n/a
71.9385	0.072	143877	keystroke	i	n/a
72.0425	0.104	144085	keystroke	a	n/a
72.1305	0.112	144261	keystroke	n	n/a
72.2025	0.072	144405	keystroke	Key.space	n/a
72.3465	0.064	144693	keystroke	g	n/a
72.4985	0.048	144997	keystroke	e	n/a
72.5305	0.088	145061	keystroke	n	n/a
73.115	0.096	146230	keystroke	e	n/a
73.25	0.088	146500	keystroke	t	n/a
73.3785	0.12	146757	keystroke	i	n/a
73.499	0.103	146998	keystroke	c	n/a
73.594	0.0485	147188	keystroke	Key.space	n/a
73.7225	0.056	147445	keystroke	s	n/a
73.7785	0.096	147557	keystroke	m	n/a
73.8265	0.096	147653	keystroke	o	n/a
73.9865	0.08	147973	keystroke	k	n/a
74.2585	0.12	148517	keystroke	n	n/a
74.3305	0.072	148661	keystroke	g	n/a
74.3625	0.064	148725	keystroke	Key.space	n/a
74.507	0.111	149014	keystroke	m	n/a
74.8105	0.0235	149621	keystroke	Key.backspace	n/a
74.8905	0.039	149781	keystroke	Key.backspace	n/a
74.9855	0.0575	149971	keystroke	Key.backspace	n/a
75.1055	0.0575	150211	keystroke	Key.backspace	n/a
75.298	0.0565	150596	keystroke	i	n/a
75.394	0.112	150788	keystroke	n	n/a
75.5145	0.0565	151029	keystroke	g	n/a
75.698	0.073	151396	keystroke	Key.space	n/a
75.883	0.103	151766	keystroke	m	n/a
75.9785	0.112	151957	keystroke	e	n/a
76.0505	0.112	152101	keystroke	s	n/a
76.1465	0.08	152293	keystroke	h	n/a
76.3225	0.072	152645	keystroke	Key.enter	n/a
76.4005	4.1645	152801	prompt	n/a	moderate table compute craig\n
76.914	0.056	153828	keystroke	m	n/a
77.043	0.1195	154086	keystroke	o	n/a
77.0985	0.072	154197	keystroke	d	n/a
77.2425	0.1525	154485	keystroke	e	n/a
77.3305	0.1115	154661	keystroke	r	n/a
77.426	0.137	154852	keystroke	a	n/a
77.5305	0.1115	155061	keystroke	t	n/a
77.579	0.0955	155158	keystroke	e	n/a
77.634	0.072	155268	keystroke	Key.space	n/a
77.8345	0.088	155669	keystroke	t	n/a
77.8905	0.0955	155781	keystroke	a	n/a
78.05	0.0645	156100	keystroke	b	n/a
78.147	0.104	156294	keystroke	l	n/a
78.1865	0.096	156373	keystroke	e	n/a
78.242	0.08	156484	keystroke	Key.space	n/a
78.362	0.113	156724	keystroke	c	n/a
78.427	0.0635	156854	keystroke	o	n/a
78.506	0.096	157012	keystroke	m	n/a
78.5705	0.12	157141	keystroke	p	n/a
78.763	0.12	157526	keystroke	u	n/a
78.866	0.065	157732	keystroke	t	n/a
78.9065	0.1115	157813	keystroke	e	n/a
79.458	0.112	158916	keystroke	Key.space	n/a
79.859	0.072	159718	keystroke	c	n/a
80.0505	0.1115	160101	keystroke	r	n/a
80.13	0.0965	160260	keystroke	a	n/a
80.251	0.1195	160502	keystroke	i	n/a
80.363	0.0635	160726	keystroke	g	n/a
80.4905	0.072	160981	keystroke	Key.enter	n/a
80.5725	5.159	161145	prompt	n/a	household june complications aircraft\n
81.154	0.072	162308	keystroke	h	n/a
81.218	0.1365	162436	keystroke	o	n/a
81.3305	0.096	162661	keystroke	u	n/a
81.41	0.1045	162820	keystroke	s	n/a
81.4825	0.088	162965	keystroke	e	n/a
81.5385	0.096	163077	keystroke	h	n/a
81.6025	0.064	163205	keystroke	o	n/a
81.7865	0.128	163573	keystroke	l	n/a
81.8185	0.088	163637	keystroke	d	n/a
81.8745	0.096	163749	keystroke	Key.space	n/a
82.4185	0.072	164837	keystroke	j	n/a
82.5945	0.04	165189	keystroke	u	n/a
82.7305	0.12	165461	keystroke	n	n/a
82.7945	0.0875	165589	keystroke	e	n/a
82.826	0.08	165652	keystroke	Key.space	n/a
82.986	0.097	165972	keystroke	c	n/a
83.059	0.08	166118	keystroke	o	n/a
83.1625	0.112	166325	keystroke	m	n/a
83.2585	0.112	166517	keystroke	p	n/a
83.4675	0.0545	166935	keystroke	l	n/a
83.5625	0.152	167125	keystroke	i	n/a
83.6585	0.0875	167317	keystroke	c	n/a
83.73	0.0965	167460	keystroke	a	n/a
83.8905	0.0955	167781	keystroke	t	n/a
83.962	0.065	167924	keystroke	i	n/a
83.986	0.1285	167972	keystroke	o	n/a
84.043	0.1345	168086	keystroke	n	n/a
84.1065	0.088	168213	keystroke	s	n/a
84.1545	0.088	168309	keystroke	Key.space	n/a
84.282	0.104	168564	keystroke	a	n/a
84.395	0.1275	168790	keystroke	i	n/a
84.498	0.064	168996	keystroke	r	n/a
84.6905	0.08	169381	keystroke	c	n/a
84.898	0.0965	169796	keystroke	r	n/a
85.026	0.128	170052	keystroke	a	n/a
85.138	0.097	170276	keystroke	f	n/a
85.371	0.079	170742	keystroke	t	n/a
85.642	0.0885	171284	keystroke	Key.enter	n/a
85.735	5.357	171470	prompt	n/a	transcript scoop hartford promotes\n
86.274	0.064	172548	keystroke	t	n/a
86.418	0.112	172836	keystroke	r	n/a
86.4825	0.0725	172965	keystroke	a	n/a
86.571	0.104	173142	keystroke	n	n/a
86.658	0.0725	173316	keystroke	s	n/a
86.778	0.08	173556	keystroke	c	n/a
86.9625	0.095	173925	keystroke	r	n/a
87.0255	0.153	174051	keystroke	i	n/a
87.1215	0.129	174243	keystroke	p	n/a
87.275	0.0945	174550	keystroke	t	n/a
87.4895	0.121	174979	keystroke	Key.space	n/a
87.811	0.072	175622	keystroke	s	n/a
87.922	0.089	175844	keystroke	c	n/a
88.059	0.079	176118	keystroke	o	n/a
88.186	0.072	176372	keystroke	o	n/a
88.346	0.0965	176692	keystroke	p	n/a
88.45	0.056	176900	keystroke	Key.space	n/a
88.594	0.0805	177188	keystroke	h	n/a
88.6825	0.1035	177365	keystroke	a	n/a
88.8345	0.0955	177669	keystroke	r	n/a
89.01	0.072	178020	keystroke	t	n/a
89.194	0.072	178388	keystroke	f	n/a
89.298	0.136	178596	keystroke	o	n/a
89.3945	0.0235	178789	keystroke	r	n/a
89.49	0.136	178980	keystroke	d	n/a
89.6745	0.152	179349	keystroke	p	n/a
90.042	0.064	180084	keystroke	Key.backspace	n/a
90.098	0.08	180196	keystroke	Key.space	n/a
90.242	0.096	180484	keystroke	p	n/a
90.355	0.104	180710	keystroke	r	n/a
90.4425	0.0715	180885	keystroke	o	n/a
90.57	0.144	181140	keystroke	m	n/a
90.65	0.12	181300	keystroke	o	n/a
90.7065	0.1915	181413	keystroke	t	n/a
90.7865	0.1355	181573	keystroke	e	n/a
90.842	0.1125	181684	keystroke	s	n/a
91.0105	0.08	182021	keystroke	Key.enter	n/a
91.0975	4.0345	182195	prompt	n/a	opponents ultimate spanish park\n
91.6505	0.064	183301	keystroke	o	n/a
91.794	0.0645	183588	keystroke	p	n/a
91.931	0.0555	183862	keystroke	p	n/a
92.05	0.072	184100	keystroke	o	n/a
92.171	0.0875	184342	keystroke	n	n/a
92.2265	0.104	184453	keystroke	e	n/a
92.3465	0.128	184693	keystroke	n	n/a
92.418	0.12	184836	keystroke	t	n/a
92.466	0.112	184932	keystroke	s	n/a
92.522	0.072	185044	keystroke	Key.space	n/a
92.722	0.064	185444	keystroke	u	n/a
93.01	0.072	186020	keystroke	l	n/a
93.242	0.08	186484	keystroke	t	n/a
93.3465	0.048	186693	keystroke	i	n/a
93.4735	0.185	186947	keystroke	m	n/a
93.5295	0.1045	187059	keystroke	a	n/a
93.5855	0.16	187171	keystroke	t	n/a
93.6495	0.105	187299	keystroke	e	n/a
93.6975	0.0965	187395	keystroke	Key.space	n/a
93.8655	0.097	187731	keystroke	s	n/a
93.9935	0.104	187987	keystroke	p	n/a
94.09	0.08	188180	keystroke	a	n/a
94.1775	0.113	188355	keystroke	n	n/a
94.2585	0.064	188517	keystroke	i	n/a
94.3145	0.1195	188629	keystroke	s	n/a
94.4265	0.111	188853	keystroke	h	n/a
94.4735	0.104	188947	keystroke	Key.space	n/a
94.6585	0.0715	189317	keystroke	p	n/a
94.6825	0.119	189365	keystroke	a	n/a
94.7855	0.096	189571	keystroke	r	n/a
94.8825	0.08	189765	keystroke	k	n/a
95.058	0.072	190116	keystroke	Key.enter	n/a
95.137	4.6505	190274	prompt	n/a	combining schools forbes remaining\n
95.7615	0.104	191523	keystroke	c	n/a
95.858	0.096	191716	keystroke	o	n/a
95.962	0.095	191924	keystroke	m	n/a
96.1055	0.072	192211	keystroke	b	n/a
96.1545	0.0795	192309	keystroke	i	n/a
96.305	0.0725	192610	keystroke	n	n/a
96.386	0.056	192772	keystroke	i	n/a
96.4895	0.1365	192979	keystroke	n	n/a
96.506	0.112	193012	keystroke	g	n/a
96.586	0.104	193172	keystroke	Key.space	n/a
96.77	0.104	193540	keystroke	s	n/a
96.89	0.08	193780	keystroke	c	n/a
96.971	0.055	193942	keystroke	h	n/a
97.106	0.056	194212	keystroke	o	n/a
97.226	0.04	194452	keystroke	o	n/a
97.362	0.12	194724	keystroke	l	n/a
97.418	0.088	194836	keystroke	s	n/a
97.45	0.12	194900	keystroke	Key.space	n/a
97.61	0.096	195220	keystroke	f	n/a
97.722	0.136	195444	keystroke	o	n/a
97.826	0.0555	195652	keystroke	r	n/a
97.986	0.064	195972	keystroke	b	n/a
98.218	0.136	196436	keystroke	e	n/a
98.282	0.088	196564	keystroke	s	n/a
98.322	0.072	196644	keystroke	Key.space	n/a
98.482	0.104	196964	keystroke	r	n/a
98.53	0.112	197060	keystroke	e	n/a
98.65	0.08	197300	keystroke	m	n/a
98.7465	0.0875	197493	keystroke	a	n/a
98.81	0.056	197620	keystroke	i	n/a
98.9135	0.081	197827	keystroke	n	n/a
99.0185	0.0635	198037	keystroke	i	n/a
99.0505	0.1035	198101	keystroke	n	n/a
99.186	0.088	198372	keystroke	g	n/a
99.7065	0.0795	199413	keystroke	Key.enter	n/a
99.7925	4.451	199585	prompt	n/a	reductions vitamins shop gzip\n
100.37	0.096	200740	keystroke	r	n/a
100.426	0.0875	200852	keystroke	e	n/a
100.6185	0.079	201237	keystroke	d	n/a
100.746	0.0965	201492	keystroke	u	n/a
100.8335	0.088	201667	keystroke	c	n/a
101.019	0.1115	202038	keystroke	t	n/a
101.0825	0.127	202165	keystroke	i	n/a
101.1695	0.12	202339	keystroke	o	n/a
101.2105	0.1435	202421	keystroke	n	n/a
101.2975	0.0805	202595	keystroke	s	n/a
101.3135	0.0965	202627	keystroke	Key.space	n/a
101.474	0.0885	202948	keystroke	v	n/a
101.5855	0.112	203171	keystroke	i	n/a
101.818	0.08	203636	keystroke	t	n/a
101.9385	0.0795	203877	keystroke	a	n/a
102.058	0.072	204116	keystroke	m	n/a
102.162	0.072	204324	keystroke	i	n/a
102.282	0.161	204564	keystroke	n	n/a
102.378	0.12	204756	keystroke	s	n/a
102.458	0.072	204916	keystroke	Key.space	n/a
102.618	0.0875	205236	keystroke	s	n/a
102.6825	0.16	205365	keystroke	h	n/a
102.7545	0.136	205509	keystroke	o	n/a
102.818	0.1285	205636	keystroke	p	n/a
102.93	0.0795	205860	keystroke	Key.space	n/a
103.506	0.08	207012	keystroke	g	n/a
103.794	0.088	207588	keystroke	z	n/a
103.89	0.144	207780	keystroke	i	n/a
103.986	0.072	207972	keystroke	p	n/a
104.178	0.064	208356	keystroke	Key.enter	n/a
104.248	6.492	208496	prompt	n/a	passes therapeutic investigations durable\n
104.866	0.064	209732	keystroke	p	n/a
104.954	0.056	209908	keystroke	a	n/a
105.1065	0.048	210213	keystroke	s	n/a
105.234	0.0715	210468	keystroke	s	n/a
105.4345	0.16	210869	keystroke	e	n/a
105.53	0.136	211060	keystroke	s	n/a
105.6255	0.072	211251	keystroke	Key.space	n/a
105.954	0.072	211908	keystroke	t	n/a
106.114	0.088	212228	keystroke	h	n/a
106.2025	0.0795	212405	keystroke	e	n/a
106.426	0.0805	212852	keystroke	r	n/a
106.5785	0.0635	213157	keystroke	e	n/a
106.93	0.0635	213860	keystroke	Key.backspace	n/a
107.018	0.088	214036	keystroke	a	n/a
107.154	0.112	214308	keystroke	p	n/a
107.338	0.08	214676	keystroke	e	n/a
107.514	0.0965	215028	keystroke	u	n/a
107.618	0.096	215236	keystroke	t	n/a
107.722	0.136	215444	keystroke	i	n/a
107.866	0.1115	215732	keystroke	c	n/a
107.946	0.0875	215892	keystroke	Key.space	n/a
108.298	0.0635	216596	keystroke	i	n/a
108.4175	0.1365	216835	keystroke	n	n/a
108.4735	0.096	216947	keystroke	v	n/a
108.602	0.119	217204	keystroke	e	n/a
108.7145	0.087	217429	keystroke	s	n/a
108.7775	0.0805	217555	keystroke	t	n/a
108.9055	0.12	217811	keystroke	i	n/a
108.994	0.0875	217988	keystroke	g	n/a
109.0895	0.104	218179	keystroke	a	n/a
109.2255	0.096	218451	keystroke	t	n/a
109.3225	0.0955	218645	keystroke	i	n/a
109.3695	0.104	218739	keystroke	o	n/a
109.4255	0.1365	218851	keystroke	n	n/a
109.498	0.096	218996	keystroke	s	n/a
109.5535	0.0725	219107	keystroke	Key.space	n/a
109.77	0.056	219540	keystroke	d	n/a
110.0105	0.103	220021	keystroke	u	n/a
110.1055	0.072	220211	keystroke	r	n/a
110.1855	0.0725	220371	keystroke	a	n/a
110.2975	0.072	220595	keystroke	b	n/a
110.418	0.0955	220836	keystroke	l	n/a
110.5215	0.056	221043	keystroke	e	n/a
110.642	0.0955	221284	keystroke	Key.enter	n/a
110.7445	4.6675	221489	prompt	n/a	instructions signup nutritional older\n
111.234	0.0715	222468	keystroke	i	n/a
111.37	0.12	222740	keystroke	n	n/a
111.4425	0.1035	222885	keystroke	s	n/a
111.522	0.056	223044	keystroke	t	n/a
111.6585	0.071	223317	keystroke	r	n/a
111.7625	0.1035	223525	keystroke	u	n/a
111.914	0.064	223828	keystroke	c	n/a
112.106	0.104	224212	keystroke	t	n/a
112.1625	0.1035	224325	keystroke	i	n/a
112.234	0.1195	224468	keystroke	o	n/a
112.282	0.152	224564	keystroke	n	n/a
112.3465	0.0955	224693	keystroke	s	n/a
112.3935	0.0805	224787	keystroke	Key.space	n/a
112.57	0.088	225140	keystroke	s	n/a
112.6585	0.127	225317	keystroke	i	n/a
112.7935	0.0645	225587	keystroke	g	n/a
112.89	0.056	225780	keystroke	n	n/a
113.0665	0.1835	226133	keystroke	u	n/a
113.17	0.12	226340	keystroke	p	n/a
113.234	0.112	226468	keystroke	Key.space	n/a
113.45	0.0645	226900	keystroke	n	n/a
113.6185	0.0955	227237	keystroke	u	n/a
113.706	0.064	227412	keystroke	t	n/a
113.883	0.079	227766	keystroke	r	n/a
113.978	0.072	227956	keystroke	i	n/a
114.09	0.0795	228180	keystroke	t	n/a
114.154	0.103	228308	keystroke	i	n/a
114.2265	0.088	228453	keystroke	o	n/a
114.258	0.1125	228516	keystroke	n	n/a
114.3625	0.08	228725	keystroke	a	n/a
114.4825	0.088	228965	keystroke	l	n/a
114.5215	0.096	229043	keystroke	Key.space	n/a
114.6825	0.0875	229365	keystroke	o	n/a
114.8655	0.112	229731	keystroke	l	n/a
114.9385	0.0875	229877	keystroke	d	n/a
115.0975	0.113	230195	keystroke	e	n/a
115.1775	0.097	230355	keystroke	r	n/a
115.33	0.08	230660	keystroke	Key.enter	n/a
115.415	4.5325	230830	prompt	n/a	luxury dare marie television\n
115.946	0.08	231892	keystroke	l	n/a
116.098	0.0885	232196	keystroke	u	n/a
116.21	0.096	232420	keystroke	x	n/a
116.338	0.064	232676	keystroke	u	n/a
116.474	0.103	232948	keystroke	r	n/a
116.586	0.104	233172	keystroke	y	n/a
116.658	0.08	233316	keystroke	Key.space	n/a
116.802	0.128	233604	keystroke	d	n/a
116.922	0.112	233844	keystroke	a	n/a
117.01	0.1595	234020	keystroke	r	n/a
117.0985	0.103	234197	keystroke	e	n/a
117.1615	0.0645	234323	keystroke	Key.space	n/a
117.282	0.12	234564	keystroke	m	n/a
117.3545	0.0955	234709	keystroke	a	n/a
117.426	0.088	234852	keystroke	r	n/a
117.5375	0.1285	235075	keystroke	i	n/a
117.6175	0.088	235235	keystroke	e	n/a
117.681	0.073	235362	keystroke	Key.space	n/a
117.818	0.1205	235636	keystroke	t	n/a
117.9215	0.0965	235843	keystroke	e	n/a
118.09	0.0795	236180	keystroke	e	n/a
118.0905	0.0875	236181	keystroke	l	n/a
118.6255	0.048	237251	keystroke	Key.backspace	n/a
118.7535	0.025	237507	keystroke	Key.backspace	n/a
118.9145	0.104	237829	keystroke	l	n/a
118.978	0.0555	237956	keystroke	e	n/a
119.1375	0.073	238275	keystroke	v	n/a
119.2825	0.087	238565	keystroke	i	n/a
119.4025	0.0955	238805	keystroke	s	n/a
119.49	0.1195	238980	keystroke	i	n/a
119.5305	0.1185	239061	keystroke	o	n/a
119.585	0.089	239170	keystroke	n	n/a
119.8815	0.0645	239763	keystroke	Key.enter	n/a
119.952	4.4355	239904	prompt	n/a	mailed adsl seasons to've\n
120.5545	0.0555	241109	keystroke	n	n/a
120.8015	0.04	241603	keystroke	Key.backspace	n/a
120.97	0.088	241940	keystroke	m	n/a
121.066	0.088	242132	keystroke	a	n/a
121.146	0.072	242292	keystroke	i	n/a
121.266	0.16	242532	keystroke	l	n/a
121.322	0.056	242644	keystroke	e	n/a
121.498	0.112	242996	keystroke	d	n/a
121.562	0.08	243124	keystroke	Key.space	n/a
121.786	0.056	243572	keystroke	a	n/a
121.906	0.072	243812	keystroke	d	n/a
122.1215	0.08	244243	keystroke	s	n/a
122.2895	0.12	244579	keystroke	l	n/a
122.4415	0.088	244883	keystroke	Key.space	n/a
122.6265	0.072	245253	keystroke	s	n/a
122.7135	0.1045	245427	keystroke	e	n/a
122.794	0.1195	245588	keystroke	a	n/a
122.8655	0.1125	245731	keystroke	s	n/a
122.962	0.1275	245924	keystroke	o	n/a
123.0255	0.144	246051	keystroke	n	n/a
123.1055	0.096	246211	keystroke	s	n/a
123.1775	0.072	246355	keystroke	Key.space	n/a
123.386	0.096	246772	keystroke	t	n/a
123.489	0.073	246978	keystroke	o	n/a
123.6425	0.1115	247285	keystroke	'	n/a
123.7465	0.0715	247493	keystroke	v	n/a
123.8665	0.079	247733	keystroke	e	n/a
124.2895	0.096	248579	keystroke	Key.enter	n/a
124.391	7.3005	248782	prompt	n/a	head peer dentists mexican\n
125.0175	0.1205	250035	keystroke	h	n/a
125.114	0.152	250228	keystroke	e	n/a
125.4505	0.039	250901	keystroke	a	n/a
125.7535	0.104	251507	keystroke	d	n/a
125.834	0.064	251668	keystroke	Key.space	n/a
126.002	0.064	252004	keystroke	p	n/a
126.1775	0.144	252355	keystroke	e	n/a
126.2985	0.0955	252597	keystroke	r	n/a
126.3775	0.04	252755	keystroke	Key.space	n/a
126.489	0.057	252978	keystroke	d	n/a
126.618	0.088	253236	keystroke	e	n/a
126.7465	0.0555	253493	keystroke	n	n/a
126.938	0.048	253876	keystroke	Key.backspace	n/a
127.034	0.048	254068	keystroke	Key.backspace	n/a
127.129	0.056	254258	keystroke	Key.backspace	n/a
127.242	0.056	254484	keystroke	Key.backspace	n/a
127.418	0.08	254836	keystroke	e	n/a
127.618	0.064	255236	keystroke	Key.backspace	n/a
127.746	0.056	255492	keystroke	Key.backspace	n/a
127.8335	0.1605	255667	keystroke	e	n/a
127.898	0.128	255796	keystroke	r	n/a
128.314	0.088	256628	keystroke	Key.space	n/a
128.7775	0.088	257555	keystroke	d	n/a
128.946	0.088	257892	keystroke	e	n/a
129.0825	0.0715	258165	keystroke	n	n/a
129.2095	0.0965	258419	keystroke	t	n/a
129.386	0.104	258772	keystroke	i	n/a
129.5295	0.104	259059	keystroke	s	n/a
129.722	0.12	259444	keystroke	t	n/a
130.034	0.112	260068	keystroke	s	n/a
130.114	0.08	260228	keystroke	Key.space	n/a
130.705	0.0895	261410	keystroke	m	n/a
130.8495	0.0795	261699	keystroke	e	n/a
131.026	0.088	262052	keystroke	x	n/a
131.146	0.119	262292	keystroke	i	n/a
131.234	0.112	262468	keystroke	c	n/a
131.314	0.088	262628	keystroke	a	n/a
131.402	0.071	262804	keystroke	n	n/a
131.617	0.072	263234	keystroke	Key.enter	n/a
131.698	3.1215	263396	prompt	n/a	fair lucky pretty reply\n
132.209	0.089	264418	keystroke	f	n/a
132.401	0.065	264802	keystroke	a	n/a
132.498	0.096	264996	keystroke	i	n/a
132.57	0.0955	265140	keystroke	r	n/a
132.617	0.073	265234	keystroke	Key.space	n/a
132.73	0.08	265460	keystroke	l	n/a
132.858	0.079	265716	keystroke	u	n/a
132.9535	0.1195	265907	keystroke	c	n/a
133.033	0.081	266066	keystroke	k	n/a
133.21	0.112	266420	keystroke	y	n/a
133.274	0.096	266548	keystroke	Key.space	n/a
133.394	0.12	266788	keystroke	p	n/a
133.498	0.088	266996	keystroke	r	n/a
133.57	0.0565	267140	keystroke	e	n/a
133.73	0.064	267460	keystroke	t	n/a
133.85	0.096	267700	keystroke	t	n/a
133.921	0.12	267842	keystroke	y	n/a
134.017	0.072	268034	keystroke	Key.space	n/a
134.129	0.1125	268258	keystroke	r	n/a
134.177	0.12	268354	keystroke	e	n/a
134.273	0.065	268546	keystroke	p	n/a
134.418	0.072	268836	keystroke	l	n/a
134.537	0.088	269074	keystroke	y	n/a
134.721	0.0965	269442	keystroke	Key.enter	n/a
134.823	2.981	269646	prompt	n/a	release weak rock crimes\n
135.378	0.12	270756	keystroke	r	n/a
135.45	0.072	270900	keystroke	e	n/a
135.578	0.1035	271156	keystroke	l	n/a
135.658	0.0875	271316	keystroke	e	n/a
135.7385	0.1675	271477	keystroke	a	n/a
135.817	0.113	271634	keystroke	s	n/a
135.889	0.105	271778	keystroke	e	n/a
135.954	0.088	271908	keystroke	Key.space	n/a
136.0975	0.112	272195	keystroke	w	n/a
136.1775	0.1605	272355	keystroke	e	n/a
136.2335	0.112	272467	keystroke	a	n/a
136.3775	0.104	272755	keystroke	k	n/a
136.4415	0.104	272883	keystroke	Key.space	n/a
136.5695	0.088	273139	keystroke	r	n/a
136.6655	0.072	273331	keystroke	o	n/a
136.7935	0.136	273587	keystroke	c	n/a
136.8575	0.1045	273715	keystroke	k	n/a
136.9375	0.0715	273875	keystroke	Key.space	n/a
137.034	0.0715	274068	keystroke	c	n/a
137.21	0.0875	274420	keystroke	r	n/a
137.2575	0.0805	274515	keystroke	i	n/a
137.3775	0.128	274755	keystroke	m	n/a
137.466	0.144	274932	keystroke	e	n/a
137.5375	0.12	275075	keystroke	s	n/a
137.7135	0.088	275427	keystroke	Key.enter	n/a
137.808	3.947	275616	prompt	n/a	galleries arrival concept double\n
138.434	0.128	276868	keystroke	g	n/a
138.546	0.063	277092	keystroke	a	n/a
138.674	0.048	277348	keystroke	l	n/a
138.7695	0.096	277539	keystroke	l	n/a
138.8585	0.119	277717	keystroke	e	n/a
138.9295	0.104	277859	keystroke	r	n/a
139.0975	0.1525	278195	keystroke	i	n/a
139.2015	0.136	278403	keystroke	e	n/a
139.266	0.119	278532	keystroke	s	n/a
139.306	0.103	278612	keystroke	Key.space	n/a
139.562	0.072	279124	keystroke	a	n/a
139.7065	0.0625	279413	keystroke	r	n/a
139.8335	0.0645	279667	keystroke	r	n/a
139.9295	0.0885	279859	keystroke	i	n/a
140.0095	0.1045	280019	keystroke	v	n/a
140.0655	0.0885	280131	keystroke	a	n/a
140.178	0.104	280356	keystroke	l	n/a
140.234	0.064	280468	keystroke	Key.space	n/a
140.3375	0.1045	280675	keystroke	c	n/a
140.409	0.129	280818	keystroke	o	n/a
140.506	0.096	281012	keystroke	n	n/a
140.57	0.072	281140	keystroke	c	n/a
140.674	0.104	281348	keystroke	e	n/a
140.794	0.12	281588	keystroke	p	n/a
140.882	0.08	281764	keystroke	t	n/a
140.937	0.072	281874	keystroke	Key.space	n/a
141.0665	0.0875	282133	keystroke	d	n/a
141.1615	0.08	282323	keystroke	o	n/a
141.2255	0.0885	282451	keystroke	u	n/a
141.3235	0.062	282647	keystroke	b	n/a
141.45	0.0795	282900	keystroke	l	n/a
141.5455	0.072	283091	keystroke	e	n/a
141.6815	0.0725	283363	keystroke	Key.enter	n/a
141.759	4.5165	283518	prompt	n/a	hide reconstruction greece asks\n
142.3375	0.1285	284675	keystroke	h	n/a
142.434	0.087	284868	keystroke	i	n/a
142.513	0.072	285026	keystroke	d	n/a
142.666	0.0875	285332	keystroke	e	n/a
142.7375	0.0555	285475	keystroke	Key.space	n/a
142.833	0.088	285666	keystroke	r	n/a
142.897	0.08	285794	keystroke	e	n/a
143.0655	0.0805	286131	keystroke	c	n/a
143.097	0.12	286194	keystroke	o	n/a
143.1855	0.1115	286371	keystroke	n	n/a
143.3775	0.096	286755	keystroke	s	n/a
143.498	0.071	286996	keystroke	t	n/a
143.6655	0.0805	287331	keystroke	r	n/a
143.8015	0.0965	287603	keystroke	u	n/a
143.905	0.065	287810	keystroke	c	n/a
144.097	0.096	288194	keystroke	t	n/a
144.177	0.112	288354	keystroke	i	n/a
144.201	0.152	288402	keystroke	o	n/a
144.273	0.121	288546	keystroke	n	n/a
144.337	0.0965	288674	keystroke	Key.space	n/a
144.505	0.064	289010	keystroke	g	n/a
144.697	0.056	289394	keystroke	r	n/a
144.9455	0.088	289891	keystroke	e	n/a
145.1695	0.08	290339	keystroke	e	n/a
145.3855	0.0965	290771	keystroke	c	n/a
145.4655	0.1045	290931	keystroke	e	n/a
145.553	0.08	291106	keystroke	Key.space	n/a
145.69	0.087	291380	keystroke	a	n/a
145.8015	0.088	291603	keystroke	s	n/a
145.9295	0.1195	291859	keystroke	k	n/a
146.0255	0.0795	292051	keystroke	s	n/a
146.1855	0.088	292371	keystroke	Key.enter	n/a
146.28	4.3475	292560	prompt	n/a	oxygen penetration cheaper viewed\n
146.866	0.112	293732	keystroke	o	n/a
147.001	0.104	294002	keystroke	x	n/a
147.1295	0.0955	294259	keystroke	y	n/a
147.257	0.113	294514	keystroke	g	n/a
147.353	0.144	294706	keystroke	e	n/a
147.449	0.129	294898	keystroke	n	n/a
147.5135	0.0955	295027	keystroke	Key.space	n/a
147.769	0.073	295538	keystroke	p	n/a
147.8175	0.0715	295635	keystroke	e	n/a
147.945	0.104	295890	keystroke	n	n/a
148.009	0.08	296018	keystroke	e	n/a
148.137	0.0645	296274	keystroke	t	n/a
148.2895	0.104	296579	keystroke	r	n/a
148.3615	0.104	296723	keystroke	a	n/a
148.4975	0.096	296995	keystroke	t	n/a
148.5695	0.088	297139	keystroke	i	n/a
148.6175	0.112	297235	keystroke	o	n/a
148.666	0.1035	297332	keystroke	n	n/a
148.7215	0.08	297443	keystroke	Key.space	n/a
148.8415	0.064	297683	keystroke	c	n/a
148.914	0.128	297828	keystroke	h	n/a
148.9935	0.1275	297987	keystroke	e	n/a
149.082	0.1035	298164	keystroke	a	n/a
149.2255	0.112	298451	keystroke	p	n/a
149.2975	0.168	298595	keystroke	e	n/a
149.3775	0.104	298755	keystroke	r	n/a
149.4575	0.0875	298915	keystroke	Key.space	n/a
149.698	0.0635	299396	keystroke	v	n/a
149.7855	0.152	299571	keystroke	i	n/a
149.8655	0.128	299731	keystroke	e	n/a
149.9455	0.104	299891	keystroke	w	n/a
150.0175	0.096	300035	keystroke	e	n/a
150.3775	0.0795	300755	keystroke	d	n/a
150.553	0.072	301106	keystroke	Key.enter	n/a
150.632	4.819	301264	prompt	n/a	album premiere existing therapist\n
151.1055	0.056	302211	keystroke	o	n/a
151.4255	0.048	302851	keystroke	Key.backspace	n/a
151.5135	0.0805	303027	keystroke	a	n/a
151.6175	0.096	303235	keystroke	l	n/a
151.81	0.08	303620	keystroke	b	n/a
151.921	0.065	303842	keystroke	u	n/a
152.09	0.104	304180	keystroke	m	n/a
152.169	0.0885	304338	keystroke	Key.space	n/a
152.2975	0.1125	304595	keystroke	p	n/a
152.3855	0.1285	304771	keystroke	r	n/a
152.458	0.103	304916	keystroke	e	n/a
152.61	0.0715	305220	keystroke	m	n/a
152.7535	0.152	305507	keystroke	i	n/a
152.818	0.144	305636	keystroke	e	n/a
152.9375	0.136	305875	keystroke	r	n/a
153.1135	0.1285	306227	keystroke	e	n/a
153.2175	0.08	306435	keystroke	Key.space	n/a
153.4335	0.056	306867	keystroke	e	n/a
153.5855	0.072	307171	keystroke	x	n/a
153.6815	0.112	307363	keystroke	i	n/a
153.8415	0.095	307683	keystroke	s	n/a
153.922	0.088	307844	keystroke	t	n/a
154.018	0.0715	308036	keystroke	i	n/a
154.1135	0.112	308227	keystroke	n	n/a
154.1535	0.064	308307	keystroke	g	n/a
154.186	0.0875	308372	keystroke	Key.space	n/a
154.386	0.0795	308772	keystroke	t	n/a
154.4735	0.096	308947	keystroke	h	n/a
154.5295	0.111	309059	keystroke	e	n/a
154.65	0.1275	309300	keystroke	r	n/a
154.754	0.088	309508	keystroke	a	n/a
154.89	0.0635	309780	keystroke	p	n/a
155.001	0.121	310002	keystroke	i	n/a
155.105	0.12	310210	keystroke	s	n/a
155.1935	0.0965	310387	keystroke	t	n/a
155.377	0.072	310754	keystroke	Key.enter	n/a
155.4555	4.2835	310911	prompt	n/a	hereby lasting ripe chassis\n
156.0735	0.0875	312147	keystroke	h	n/a
156.145	0.1285	312290	keystroke	e	n/a
156.289	0.072	312578	keystroke	r	n/a
156.497	0.08	312994	keystroke	e	n/a
156.681	0.0885	313362	keystroke	b	n/a
156.818	0.111	313636	keystroke	y	n/a
156.897	0.073	313794	keystroke	Key.space	n/a
157.089	0.065	314178	keystroke	l	n/a
157.129	0.064	314258	keystroke	a	n/a
157.505	0.129	315010	keystroke	s	n/a
157.5935	0.1195	315187	keystroke	t	n/a
157.7215	0.08	315443	keystroke	i	n/a
157.818	0.1265	315636	keystroke	n	n/a
157.8895	0.064	315779	keystroke	g	n/a
157.9365	0.08	315873	keystroke	Key.space	n/a
158.0735	0.08	316147	keystroke	r	n/a
158.202	0.0875	316404	keystroke	i	n/a
158.3455	0.096	316691	keystroke	p	n/a
158.4255	0.096	316851	keystroke	e	n/a
158.4895	0.08	316979	keystroke	Key.space	n/a
158.6975	0.072	317395	keystroke	c	n/a
158.7855	0.088	317571	keystroke	h	n/a
158.8655	0.0565	317731	keystroke	a	n/a
159.0015	0.072	318003	keystroke	s	n/a
159.1295	0.08	318259	keystroke	s	n/a
159.2895	0.088	318579	keystroke	i	n/a
159.4335	0.072	318867	keystroke	s	n/a
159.665	0.0715	319330	keystroke	Key.enter	n/a
159.744	4.339	319488	prompt	n/a	required alliance ain't crisis\n
160.298	0.1345	320596	keystroke	r	n/a
160.385	0.1115	320770	keystroke	e	n/a
160.4815	0.072	320963	keystroke	q	n/a
160.617	0.168	321234	keystroke	u	n/a
160.689	0.144	321378	keystroke	i	n/a
160.761	0.0405	321522	keystroke	r	n/a
160.77	0.047	321540	keystroke	e	n/a
160.905	0.08	321810	keystroke	d	n/a
160.945	0.096	321890	keystroke	Key.space	n/a
161.082	0.0795	322164	keystroke	a	n/a
161.201	0.0565	322402	keystroke	l	n/a
161.3205	0.048	322641	keystroke	l	n/a
161.4335	0.087	322867	keystroke	i	n/a
161.5135	0.104	323027	keystroke	a	n/a
161.633	0.1445	323266	keystroke	n	n/a
161.6805	0.073	323361	keystroke	c	n/a
161.7545	0.0545	323509	keystroke	e	n/a
161.793	0.0475	323586	keystroke	Key.space	n/a
161.8495	0.0955	323699	keystroke	a	n/a
161.953	0.072	323906	keystroke	i	n/a
162.0895	0.103	324179	keystroke	n	n/a
162.3365	0.105	324673	keystroke	'	n/a
162.4325	0.1125	324865	keystroke	t	n/a
162.529	0.0955	325058	keystroke	Key.space	n/a
162.8175	0.072	325635	keystroke	c	n/a
163.0175	0.072	326035	keystroke	r	n/a
163.1295	0.104	326259	keystroke	i	n/a
163.2175	0.079	326435	keystroke	s	n/a
163.3445	0.0565	326689	keystroke	i	n/a
163.777	0.064	327554	keystroke	s	n/a
164.017	0.064	328034	keystroke	Key.enter	n/a
164.087	3.8035	328174	prompt	n/a	downloads plate tests audit\n
164.6575	0.096	329315	keystroke	d	n/a
164.7615	0.12	329523	keystroke	o	n/a
164.9135	0.072	329827	keystroke	w	n/a
165.0175	0.071	330035	keystroke	n	n/a
165.1695	0.064	330339	keystroke	l	n/a
165.3295	0.1205	330659	keystroke	o	n/a
165.3855	0.088	330771	keystroke	a	n/a
165.4975	0.112	330995	keystroke	d	n/a
165.6495	0.119	331299	keystroke	s	n/a
165.7535	0.048	331507	keystroke	Key.space	n/a
165.8495	0.056	331699	keystroke	p	n/a
165.9615	0.135	331923	keystroke	l	n/a
166.0255	0.096	332051	keystroke	a	n/a
166.1135	0.136	332227	keystroke	t	n/a
166.1615	0.12	332323	keystroke	e	n/a
166.265	0.056	332530	keystroke	Key.space	n/a
166.5055	0.1115	333011	keystroke	t	n/a
166.626	0.1195	333252	keystroke	e	n/a
166.689	0.112	333378	keystroke	s	n/a
166.785	0.176	333570	keystroke	t	n/a
166.8735	0.104	333747	keystroke	s	n/a
166.921	0.104	333842	keystroke	Key.space	n/a
167.1775	0.096	334355	keystroke	a	n/a
167.3295	0.104	334659	keystroke	u	n/a
167.4095	0.096	334819	keystroke	d	n/a
167.5295	0.128	335059	keystroke	i	n/a
167.649	0.0725	335298	keystroke	t	n/a
167.8085	0.08	335617	keystroke	Key.enter	n/a
167.894	5.5095	335788	prompt	n/a	allergy sleeps republican radius\n
168.4655	0.0555	336931	keystroke	a	n/a
168.553	0.0405	337106	keystroke	l	n/a
168.6495	0.0965	337299	keystroke	l	n/a
168.714	0.111	337428	keystroke	e	n/a
168.778	0.087	337556	keystroke	r	n/a
168.929	0.112	337858	keystroke	g	n/a
169.017	0.112	338034	keystroke	y	n/a
169.097	0.08	338194	keystroke	Key.space	n/a
169.273	0.088	338546	keystroke	s	n/a
169.369	0.048	338738	keystroke	l	n/a
169.561	0.048	339122	keystroke	e	n/a
169.705	0.072	339410	keystroke	e	n/a
169.8495	0.072	339699	keystroke	p	n/a
169.961	0.12	339922	keystroke	s	n/a
170.041	0.0875	340082	keystroke	Key.space	n/a
170.3045	0.096	340609	keystroke	r	n/a
170.3605	0.096	340721	keystroke	e	n/a
170.4885	0.049	340977	keystroke	p	n/a
171.2255	0.088	342451	keystroke	u	n/a
171.3375	0.063	342675	keystroke	b	n/a
171.4565	0.0485	342913	keystroke	l	n/a
171.5685	0.1115	343137	keystroke	i	n/a
171.6325	0.1045	343265	keystroke	c	n/a
171.697	0.112	343394	keystroke	a	n/a
171.8565	0.073	343713	keystroke	Key.space	n/a
172.145	0.0635	344290	keystroke	Key.backspace	n/a
172.2965	0.1365	344593	keystroke	n	n/a
172.401	0.048	344802	keystroke	Key.space	n/a
172.4895	0.103	344979	keystroke	r	n/a
172.561	0.0715	345122	keystroke	a	n/a
172.6885	0.0885	345377	keystroke	d	n/a
172.7685	0.081	345537	keystroke	i	n/a
172.921	0.08	345842	keystroke	u	n/a
173.041	0.088	346082	keystroke	s	n/a
173.345	0.056	346690	keystroke	Key.enter	n/a
173.408	4.803	346816	prompt	n/a	biotechnology league weekends harris\n
174.009	0.0805	348018	keystroke	b	n/a
174.1365	0.136	348273	keystroke	i	n/a
174.2245	0.1125	348449	keystroke	o	n/a
174.393	0.088	348786	keystroke	t	n/a
174.4565	0.097	348913	keystroke	e	n/a
174.6495	0.087	349299	keystroke	c	n/a
174.721	0.0555	349442	keystroke	h	n/a
174.889	0.072	349778	keystroke	n	n/a
175.033	0.064	350066	keystroke	o	n/a
175.193	0.072	350386	keystroke	l	n/a
175.3695	0.0635	350739	keystroke	o	n/a
175.4575	0.1195	350915	keystroke	g	n/a
175.5295	0.1275	351059	keystroke	y	n/a
175.609	0.072	351218	keystroke	Key.space	n/a
175.7605	0.1365	351521	keystroke	l	n/a
175.8175	0.1275	351635	keystroke	e	n/a
175.905	0.12	351810	keystroke	a	n/a
176.041	0.0805	352082	keystroke	g	n/a
176.105	0.1595	352210	keystroke	u	n/a
176.2015	0.071	352403	keystroke	e	n/a
176.2325	0.0885	352465	keystroke	Key.space	n/a
176.3845	0.048	352769	keystroke	w	n/a
176.5045	0.065	353009	keystroke	e	n/a
176.6415	0.056	353283	keystroke	e	n/a
176.7205	0.08	353441	keystroke	k	n/a
176.8325	0.065	353665	keystroke	e	n/a
176.8895	0.1115	353779	keystroke	n	n/a
176.985	0.136	353970	keystroke	d	n/a
177.065	0.1355	354130	keystroke	s	n/a
177.1925	0.064	354385	keystroke	Key.space	n/a
177.441	0.08	354882	keystroke	h	n/a
177.529	0.0565	355058	keystroke	a	n/a
177.657	0.064	355314	keystroke	r	n/a
177.785	0.0725	355570	keystroke	r	n/a
177.889	0.096	355778	keystroke	i	n/a
177.9685	0.0805	355937	keystroke	s	n/a
178.137	0.071	356274	keystroke	Key.enter	n/a
178.2165	4.2815	356433	prompt	n/a	justify ever daddy indiana\n
178.745	0.048	357490	keystroke	b	n/a
178.841	0.048	357682	keystroke	j	n/a
179.041	0.04	358082	keystroke	Key.backspace	n/a
179.137	0.056	358274	keystroke	Key.backspace	n/a
179.2895	0.072	358579	keystroke	j	n/a
179.449	0.096	358898	keystroke	u	n/a
179.5605	0.056	359121	keystroke	s	n/a
179.5925	0.08	359185	keystroke	t	n/a
179.6895	0.096	359379	keystroke	i	n/a
179.801	0.112	359602	keystroke	f	n/a
179.873	0.1205	359746	keystroke	y	n/a
179.929	0.0715	359858	keystroke	Key.space	n/a
180.017	0.064	360034	keystroke	e	n/a
180.1535	0.0785	360307	keystroke	v	n/a
180.289	0.128	360578	keystroke	e	n/a
180.3615	0.0955	360723	keystroke	r	n/a
180.417	0.071	360834	keystroke	Key.space	n/a
180.537	0.088	361074	keystroke	d	n/a
180.609	0.064	361218	keystroke	a	n/a
180.761	0.0635	361522	keystroke	d	n/a
180.8895	0.0795	361779	keystroke	d	n/a
181.0005	0.113	362001	keystroke	y	n/a
181.0645	0.104	362129	keystroke	Key.space	n/a
181.2165	0.048	362433	keystroke	i	n/a
181.345	0.104	362690	keystroke	n	n/a
181.5285	0.081	363057	keystroke	d	n/a
181.649	0.104	363298	keystroke	i	n/a
181.7685	0.08	363537	keystroke	a	n/a
181.8805	0.0805	363761	keystroke	n	n/a
182.2725	0.056	364545	keystroke	a	n/a
182.4255	0.071	364851	keystroke	Key.enter	n/a
182.5015	3.333	365003	prompt	n/a	safely hosts inches href\n
183.033	0.096	366066	keystroke	s	n/a
183.185	0.112	366370	keystroke	a	n/a
183.305	0.064	366610	keystroke	f	n/a
183.385	0.096	366770	keystroke	e	n/a
183.569	0.08	367138	keystroke	l	n/a
183.745	0.112	367490	keystroke	y	n/a
183.84	0.0645	367680	keystroke	Key.space	n/a
183.985	0.088	367970	keystroke	h	n/a
184.0335	0.1115	368067	keystroke	o	n/a
184.0965	0.088	368193	keystroke	s	n/a
184.2085	0.152	368417	keystroke	t	n/a
184.2805	0.12	368561	keystroke	s	n/a
184.3445	0.0805	368689	keystroke	Key.space	n/a
184.433	0.0555	368866	keystroke	i	n/a
184.5365	0.088	369073	keystroke	n	n/a
184.6405	0.072	369281	keystroke	c	n/a
184.7285	0.144	369457	keystroke	h	n/a
184.825	0.1515	369650	keystroke	e	n/a
184.8965	0.12	369793	keystroke	s	n/a
184.961	0.0635	369922	keystroke	Key.space	n/a
185.105	0.088	370210	keystroke	h	n/a
185.328	0.137	370656	keystroke	r	n/a
185.409	0.104	370818	keystroke	e	n/a
185.577	0.096	371154	keystroke	f	n/a
185.769	0.064	371538	keystroke	Key.enter	n/a
185.838	5.8445	371676	prompt	n/a	graphics advocacy assembled registrar\n
186.4965	0.0635	372993	keystroke	g	n/a
186.656	0.096	373312	keystroke	r	n/a
186.713	0.072	373426	keystroke	a	n/a
186.7685	0.0565	373537	keystroke	p	n/a
186.841	0.152	373682	keystroke	h	n/a
186.913	0.1115	373826	keystroke	i	n/a
186.985	0.103	373970	keystroke	c	n/a
187.033	0.12	374066	keystroke	s	n/a
187.1445	0.0795	374289	keystroke	Key.space	n/a
187.2485	0.0955	374497	keystroke	a	n/a
187.353	0.064	374706	keystroke	d	n/a
187.504	0.08	375008	keystroke	v	n/a
187.664	0.1125	375328	keystroke	o	n/a
187.761	0.12	375522	keystroke	a	n/a
187.881	0.08	375762	keystroke	c	n/a
188.361	0.048	376722	keystroke	Key.backspace	n/a
188.473	0.064	376946	keystroke	Key.backspace	n/a
188.697	0.144	377394	keystroke	c	n/a
188.833	0.072	377666	keystroke	a	n/a
188.993	0.0955	377986	keystroke	c	n/a
189.1135	0.135	378227	keystroke	y	n/a
189.2165	0.088	378433	keystroke	Key.space	n/a
189.3445	0.056	378689	keystroke	a	n/a
189.553	0.064	379106	keystroke	s	n/a
189.697	0.0725	379394	keystroke	s	n/a
189.8405	0.08	379681	keystroke	e	n/a
189.9525	0.088	379905	keystroke	m	n/a
190.081	0.0635	380162	keystroke	b	n/a
190.161	0.1675	380322	keystroke	l	n/a
190.2485	0.056	380497	keystroke	e	n/a
190.3765	0.096	380753	keystroke	d	n/a
190.4485	0.1115	380897	keystroke	Key.space	n/a
190.569	0.104	381138	keystroke	r	n/a
190.625	0.088	381250	keystroke	e	n/a
190.785	0.0885	381570	keystroke	g	n/a
190.881	0.136	381762	keystroke	i	n/a
190.969	0.096	381938	keystroke	s	n/a
191.057	0.072	382114	keystroke	t	n/a
191.2255	0.0875	382451	keystroke	r	n/a
191.289	0.1195	382578	keystroke	a	n/a
191.4165	0.072	382833	keystroke	r	n/a
191.609	0.0715	383218	keystroke	Key.enter	n/a
191.686	5.3885	383372	prompt	n/a	refrigerator science millennium janet\n
192.225	0.111	384450	keystroke	r	n/a
192.297	0.096	384594	keystroke	e	n/a
192.505	0.087	385010	keystroke	f	n/a
192.872	0.081	385744	keystroke	r	n/a
193.0325	0.096	386065	keystroke	i	n/a
193.121	0.0715	386242	keystroke	g	n/a
193.241	0.136	386482	keystroke	e	n/a
193.345	0.1045	386690	keystroke	r	n/a
193.417	0.128	386834	keystroke	a	n/a
193.537	0.08	387074	keystroke	t	n/a
193.641	0.1355	387282	keystroke	o	n/a
193.737	0.0875	387474	keystroke	r	n/a
193.8005	0.096	387601	keystroke	Key.space	n/a
193.9045	0.112	387809	keystroke	s	n/a
194.025	0.088	388050	keystroke	c	n/a
194.1365	0.088	388273	keystroke	i	n/a
194.201	0.0955	388402	keystroke	e	n/a
194.3205	0.1525	388641	keystroke	n	n/a
194.385	0.0885	388770	keystroke	c	n/a
194.4735	0.063	388947	keystroke	e	n/a
194.4965	0.088	388993	keystroke	Key.space	n/a
194.7045	0.0885	389409	keystroke	m	n/a
194.8725	0.056	389745	keystroke	i	n/a
195.0325	0.04	390065	keystroke	l	n/a
195.1445	0.064	390289	keystroke	l	n/a
195.2805	0.072	390561	keystroke	e	n/a
195.4005	0.072	390801	keystroke	n	n/a
195.529	0.0715	391058	keystroke	n	n/a
195.7045	0.0805	391409	keystroke	i	n/a
195.8405	0.0645	391681	keystroke	u	n/a
196.017	0.112	392034	keystroke	m	n/a
196.121	0.08	392242	keystroke	Key.space	n/a
196.233	0.088	392466	keystroke	j	n/a
196.345	0.088	392690	keystroke	a	n/a
196.433	0.072	392866	keystroke	n	n/a
196.657	0.112	393314	keystroke	e	n/a
196.801	0.08	393602	keystroke	t	n/a
196.977	0.096	393954	keystroke	Key.enter	n/a
197.079	3.923	394158	prompt	n/a	touched influences bottles revised\n
197.6805	0.104	395361	keystroke	t	n/a
197.776	0.1205	395552	keystroke	o	n/a
197.824	0.097	395648	keystroke	u	n/a
197.9365	0.08	395873	keystroke	c	n/a
198.0325	0.144	396065	keystroke	h	n/a
198.073	0.0555	396146	keystroke	e	n/a
198.209	0.0875	396418	keystroke	d	n/a
198.2485	0.104	396497	keystroke	Key.space	n/a
198.336	0.0645	396672	keystroke	i	n/a
198.4325	0.1125	396865	keystroke	n	n/a
198.513	0.0795	397026	keystroke	f	n/a
198.633	0.088	397266	keystroke	l	n/a
198.729	0.08	397458	keystroke	u	n/a
198.817	0.088	397634	keystroke	e	n/a
198.921	0.1835	397842	keystroke	n	n/a
198.9925	0.1205	397985	keystroke	c	n/a
199.105	0.072	398210	keystroke	e	n/a
199.121	0.096	398242	keystroke	s	n/a
199.144	0.081	398288	keystroke	Key.space	n/a
199.3605	0.0325	398721	keystroke	b	n/a
199.4085	0.0965	398817	keystroke	o	n/a
199.576	0.04	399152	keystroke	t	n/a
199.688	0.081	399376	keystroke	t	n/a
199.809	0.136	399618	keystroke	l	n/a
199.864	0.129	399728	keystroke	e	n/a
199.945	0.0795	399890	keystroke	s	n/a
199.9765	0.088	399953	keystroke	Key.space	n/a
200.096	0.096	400192	keystroke	r	n/a
200.161	0.08	400322	keystroke	e	n/a
200.312	0.0725	400624	keystroke	v	n/a
200.4	0.145	400800	keystroke	i	n/a
200.473	0.119	400946	keystroke	s	n/a
200.56	0.08	401120	keystroke	e	n/a
200.728	0.089	401456	keystroke	d	n/a
200.921	0.079	401842	keystroke	Key.enter	n/a
201.0065	5.3315	402013	prompt	n/a	doctor advertisements perceived bond\n
201.4965	0.056	402993	keystroke	d	n/a
201.6325	0.08	403265	keystroke	o	n/a
201.7765	0.072	403553	keystroke	c	n/a
201.9685	0.0715	403937	keystroke	t	n/a
202.065	0.136	404130	keystroke	o	n/a
202.136	0.097	404272	keystroke	r	n/a
202.192	0.089	404384	keystroke	Key.space	n/a
202.304	0.073	404608	keystroke	a	n/a
202.464	0.08	404928	keystroke	d	n/a
202.624	0.0645	405248	keystroke	v	n/a
202.7525	0.1445	405505	keystroke	e	n/a
202.8725	0.056	405745	keystroke	r	n/a
203.0245	0.048	406049	keystroke	t	n/a
203.1445	0.0965	406289	keystroke	i	n/a
203.464	0.072	406928	keystroke	s	n/a
203.5685	0.0885	407137	keystroke	e	n/a
203.7685	0.1115	407537	keystroke	m	n/a
203.881	0.095	407762	keystroke	e	n/a
204.008	0.161	408016	keystroke	n	n/a
204.0805	0.1285	408161	keystroke	t	n/a
204.153	0.119	408306	keystroke	s	n/a
204.216	0.056	408432	keystroke	Key.space	n/a
204.3445	0.12	408689	keystroke	p	n/a
204.3845	0.136	408769	keystroke	e	n/a
204.4965	0.0635	408993	keystroke	r	n/a
204.712	0.0885	409424	keystroke	c	n/a
204.7845	0.1035	409569	keystroke	e	n/a
204.952	0.1445	409904	keystroke	i	n/a
205.072	0.097	410144	keystroke	v	n/a
205.3125	0.0715	410625	keystroke	e	n/a
205.5445	0.0885	411089	keystroke	d	n/a
205.6725	0.088	411345	keystroke	Key.space	n/a
205.8565	0.071	411713	keystroke	b	n/a
205.936	0.1285	411872	keystroke	o	n/a
205.9925	0.096	411985	keystroke	n	n/a
206.057	0.0865	412114	keystroke	d	n/a
206.2555	0.081	412511	keystroke	Key.enter	n/a
206.342	4.6225	412684	prompt	n/a	numerous chest judgment desktops\n
206.905	0.064	413810	keystroke	n	n/a
207.1445	0.048	414289	keystroke	u	n/a
207.3045	0.128	414609	keystroke	m	n/a
207.4005	0.128	414801	keystroke	e	n/a
207.4885	0.096	414977	keystroke	r	n/a
207.5925	0.071	415185	keystroke	o	n/a
207.6245	0.135	415249	keystroke	u	n/a
207.7285	0.096	415457	keystroke	s	n/a
207.7525	0.088	415505	keystroke	Key.space	n/a
207.9125	0.072	415825	keystroke	c	n/a
207.9925	0.144	415985	keystroke	h	n/a
208.0725	0.1115	416145	keystroke	e	n/a
208.1685	0.12	416337	keystroke	s	n/a
208.24	0.104	416480	keystroke	t	n/a
208.328	0.08	416656	keystroke	Key.space	n/a
208.4005	0.0885	416801	keystroke	j	n/a
208.5685	0.104	417137	keystroke	u	n/a
208.664	0.1045	417328	keystroke	d	n/a
208.832	0.081	417664	keystroke	g	n/a
209.0975	0.1105	418195	keystroke	m	n/a
209.2165	0.104	418433	keystroke	e	n/a
209.321	0.1275	418642	keystroke	n	n/a
209.3845	0.088	418769	keystroke	t	n/a
209.4405	0.088	418881	keystroke	Key.space	n/a
209.6485	0.064	419297	keystroke	d	n/a
209.7925	0.12	419585	keystroke	e	n/a
209.8885	0.08	419777	keystroke	s	n/a
210.041	0.1195	420082	keystroke	k	n/a
210.2325	0.08	420465	keystroke	t	n/a
210.4005	0.152	420801	keystroke	o	n/a
210.529	0.1195	421058	keystroke	p	n/a
210.7045	0.088	421409	keystroke	s	n/a
210.8885	0.072	421777	keystroke	Key.enter	n/a
210.9685	6.673	421937	prompt	n/a	routines disappointed sponsorship throughout\n
211.593	0.0635	423186	keystroke	n	n/a
211.848	0.056	423696	keystroke	Key.backspace	n/a
211.952	0.096	423904	keystroke	r	n/a
212.041	0.1035	424082	keystroke	o	n/a
212.112	0.0805	424224	keystroke	u	n/a
212.217	0.112	424434	keystroke	t	n/a
212.296	0.0725	424592	keystroke	i	n/a
212.3925	0.16	424785	keystroke	n	n/a
212.4725	0.136	424945	keystroke	e	n/a
212.5445	0.0805	425089	keystroke	s	n/a
212.5685	0.0955	425137	keystroke	Key.space	n/a
212.8725	0.072	425745	keystroke	d	n/a
212.9765	0.12	425953	keystroke	i	n/a
213.0645	0.088	426129	keystroke	s	n/a
213.2165	0.08	426433	keystroke	a	n/a
213.305	0.0635	426610	keystroke	p	n/a
213.4325	0.088	426865	keystroke	p	n/a
213.5595	0.145	427119	keystroke	o	n/a
213.6165	0.088	427233	keystroke	i	n/a
213.752	0.1365	427504	keystroke	n	n/a
213.8325	0.0875	427665	keystroke	t	n/a
213.88	0.072	427760	keystroke	e	n/a
214.016	0.1045	428032	keystroke	d	n/a
214.0805	0.0795	428161	keystroke	Key.space	n/a
214.248	0.064	428496	keystroke	s	n/a
214.48	0.0645	428960	keystroke	p	n/a
214.584	0.0965	429168	keystroke	o	n/a
214.712	0.104	429424	keystroke	n	n/a
214.824	0.088	429648	keystroke	s	n/a
214.936	0.113	429872	keystroke	o	n/a
215.0965	0.0795	430193	keystroke	r	n/a
215.2725	0.096	430545	keystroke	s	n/a
215.328	0.1765	430656	keystroke	h	n/a
215.4165	0.112	430833	keystroke	i	n/a
215.4805	0.1355	430961	keystroke	p	n/a
216.2165	0.072	432433	keystroke	Key.space	n/a
216.3765	0.08	432753	keystroke	t	n/a
216.4645	0.0955	432929	keystroke	h	n/a
216.584	0.072	433168	keystroke	r	n/a
216.656	0.128	433312	keystroke	o	n/a
216.744	0.056	433488	keystroke	u	n/a
216.816	0.096	433632	keystroke	g	n/a
216.92	0.056	433840	keystroke	h	n/a
217.001	0.103	434002	keystroke	o	n/a
217.088	0.1125	434176	keystroke	u	n/a
217.168	0.08	434336	keystroke	t	n/a
217.552	0.088	435104	keystroke	Key.enter	n/a
217.6445	5.1245	435289	prompt	n/a	twiki stud auburn relocation\n
218.3035	0.089	436607	keystroke	t	n/a
218.4405	0.064	436881	keystroke	w	n/a
218.6555	0.057	437311	keystroke	i	n/a
218.8155	0.0645	437631	keystroke	k	n/a
218.9515	0.105	437903	keystroke	i	n/a
219.0315	0.089	438063	keystroke	Key.space	n/a
219.1365	0.104	438273	keystroke	s	n/a
219.2165	0.072	438433	keystroke	t	n/a
219.3125	0.144	438625	keystroke	u	n/a
219.3915	0.089	438783	keystroke	d	n/a
219.4635	0.081	438927	keystroke	Key.space	n/a
219.5845	0.088	439169	keystroke	a	n/a
219.736	0.08	439472	keystroke	l	n/a
220.024	0.04	440048	keystroke	Key.backspace	n/a
220.176	0.088	440352	keystroke	u	n/a
220.248	0.048	440496	keystroke	d	n/a
220.4085	0.08	440817	keystroke	b	n/a
220.7355	0.0325	441471	keystroke	Key.backspace	n/a
220.8395	0.0645	441679	keystroke	Key.backspace	n/a
220.936	0.0725	441872	keystroke	b	n/a
221.0885	0.0875	442177	keystroke	u	n/a
221.184	0.1045	442368	keystroke	r	n/a
221.2955	0.137	442591	keystroke	n	n/a
221.3685	0.1355	442737	keystroke	Key.space	n/a
221.4955	0.12	442991	keystroke	r	n/a
221.5925	0.055	443185	keystroke	e	n/a
221.7285	0.0795	443457	keystroke	l	n/a
221.952	0.096	443904	keystroke	o	n/a
222.08	0.073	444160	keystroke	c	n/a
222.144	0.096	444288	keystroke	a	n/a
222.296	0.0965	444592	keystroke	t	n/a
222.3525	0.0875	444705	keystroke	i	n/a
222.36	0.1525	444720	keystroke	o	n/a
222.448	0.096	444896	keystroke	n	n/a
222.688	0.08	445376	keystroke	Key.enter	n/a
222.774	3.748	445548	prompt	n/a	mins fiscal romantic perry\n
223.4165	0.088	446833	keystroke	m	n/a
223.5445	0.0485	447089	keystroke	i	n/a
223.6565	0.1275	447313	keystroke	n	n/a
223.7285	0.072	447457	keystroke	s	n/a
223.7605	0.0715	447521	keystroke	Key.space	n/a
223.9125	0.0875	447825	keystroke	f	n/a
224.032	0.12	448064	keystroke	i	n/a
224.096	0.088	448192	keystroke	s	n/a
224.232	0.1205	448464	keystroke	c	n/a
224.32	0.088	448640	keystroke	a	n/a
224.448	0.1355	448896	keystroke	l	n/a
224.528	0.104	449056	keystroke	Key.space	n/a
224.84	0.088	449680	keystroke	r	n/a
224.912	0.144	449824	keystroke	o	n/a
225.008	0.104	450016	keystroke	m	n/a
225.096	0.104	450192	keystroke	a	n/a
225.24	0.104	450480	keystroke	n	n/a
225.3365	0.0875	450673	keystroke	t	n/a
225.488	0.096	450976	keystroke	i	n/a
225.6	0.088	451200	keystroke	c	n/a
225.6645	0.0875	451329	keystroke	Key.space	n/a
225.856	0.0885	451712	keystroke	p	n/a
225.9035	0.0645	451807	keystroke	e	n/a
226.048	0.064	452096	keystroke	r	n/a
226.176	0.08	452352	keystroke	r	n/a
226.2645	0.08	452529	keystroke	y	n/a
226.448	0.072	452896	keystroke	Key.enter	n/a
226.528	5.1935	453056	prompt	n/a	watershed separate parameters posting\n
227.136	0.072	454272	keystroke	w	n/a
227.272	0.104	454544	keystroke	a	n/a
227.368	0.0645	454736	keystroke	t	n/a
227.488	0.0805	454976	keystroke	e	n/a
227.801	0.1025	455602	keystroke	r	n/a
228.088	0.0715	456176	keystroke	s	n/a
228.2485	0.103	456497	keystroke	h	n/a
228.3285	0.047	456657	keystroke	e	n/a
228.472	0.0805	456944	keystroke	d	n/a
228.5275	0.073	457055	keystroke	Key.space	n/a
228.6725	0.0795	457345	keystroke	s	n/a
228.8	0.072	457600	keystroke	e	n/a
228.992	0.096	457984	keystroke	p	n/a
229.0485	0.0875	458097	keystroke	a	n/a
229.192	0.0965	458384	keystroke	r	n/a
229.28	0.12	458560	keystroke	a	n/a
229.392	0.12	458784	keystroke	t	n/a
229.456	0.096	458912	keystroke	e	n/a
229.504	0.072	459008	keystroke	Key.space	n/a
229.648	0.112	459296	keystroke	p	n/a
229.695	0.089	459390	keystroke	a	n/a
229.8	0.1125	459600	keystroke	r	n/a
229.8965	0.0875	459793	keystroke	a	n/a
230.0165	0.1115	460033	keystroke	m	n/a
230.168	0.096	460336	keystroke	e	n/a
230.32	0.104	460640	keystroke	t	n/a
230.456	0.152	460912	keystroke	e	n/a
230.576	0.1685	461152	keystroke	r	n/a
230.664	0.112	461328	keystroke	s	n/a
230.728	0.08	461456	keystroke	Key.space	n/a
230.888	0.064	461776	keystroke	p	n/a
230.9925	0.1195	461985	keystroke	o	n/a
231.064	0.096	462128	keystroke	s	n/a
231.1445	0.1115	462289	keystroke	t	n/a
231.24	0.0805	462480	keystroke	i	n/a
231.3275	0.1205	462655	keystroke	n	n/a
231.4395	0.081	462879	keystroke	g	n/a
231.6405	0.08	463281	keystroke	Key.enter	n/a
231.7245	5.0695	463449	prompt	n/a	compute websites william already\n
232.256	0.096	464512	keystroke	c	n/a
232.312	0.072	464624	keystroke	o	n/a
232.416	0.08	464832	keystroke	m	n/a
232.488	0.104	464976	keystroke	p	n/a
232.64	0.176	465280	keystroke	u	n/a
232.696	0.144	465392	keystroke	t	n/a
232.752	0.136	465504	keystroke	e	n/a
232.832	0.072	465664	keystroke	Key.space	n/a
233.1205	0.0795	466241	keystroke	w	n/a
233.184	0.08	466368	keystroke	e	n/a
233.36	0.08	466720	keystroke	b	n/a
233.496	0.0965	466992	keystroke	s	n/a
233.656	0.12	467312	keystroke	i	n/a
233.744	0.192	467488	keystroke	t	n/a
233.816	0.1355	467632	keystroke	e	n/a
233.88	0.0885	467760	keystroke	s	n/a
233.928	0.0875	467856	keystroke	Key.space	n/a
234.0725	0.0955	468145	keystroke	w	n/a
234.336	0.056	468672	keystroke	l	n/a
234.464	0.064	468928	keystroke	l	n/a
234.832	0.04	469664	keystroke	Key.backspace	n/a
234.936	0.064	469872	keystroke	Key.backspace	n/a
235.112	0.0715	470224	keystroke	i	n/a
235.256	0.064	470512	keystroke	l	n/a
235.3755	0.065	470751	keystroke	l	n/a
235.4875	0.072	470975	keystroke	i	n/a
235.6235	0.104	471247	keystroke	a	n/a
235.6725	0.143	471345	keystroke	m	n/a
235.7915	0.0725	471583	keystroke	Key.space	n/a
235.9605	0.104	471921	keystroke	a	n/a
236.0555	0.105	472111	keystroke	l	n/a
236.168	0.0805	472336	keystroke	r	n/a
236.1995	0.08	472399	keystroke	e	n/a
236.2555	0.064	472511	keystroke	a	n/a
236.3995	0.072	472799	keystroke	d	n/a
236.4955	0.0805	472991	keystroke	y	n/a
236.696	0.0955	473392	keystroke	Key.enter	n/a
236.7985	4.555	473597	prompt	n/a	trailer player corresponding licking\n
237.4245	0.0635	474849	keystroke	t	n/a
237.592	0.0485	475184	keystroke	r	n/a
237.927	0.072	475854	keystroke	a	n/a
238.04	0.055	476080	keystroke	i	n/a
238.168	0.128	476336	keystroke	l	n/a
238.28	0.112	476560	keystroke	e	n/a
238.328	0.112	476656	keystroke	r	n/a
238.383	0.097	476766	keystroke	Key.space	n/a
238.5285	0.0395	477057	keystroke	p	n/a
238.632	0.111	477264	keystroke	l	n/a
238.736	0.095	477472	keystroke	a	n/a
238.84	0.135	477680	keystroke	y	n/a
238.8885	0.1425	477777	keystroke	e	n/a
238.944	0.104	477888	keystroke	r	n/a
238.9765	0.0875	477953	keystroke	Key.space	n/a
239.1845	0.063	478369	keystroke	c	n/a
239.2565	0.1105	478513	keystroke	o	n/a
239.423	0.0415	478846	keystroke	r	n/a
239.536	0.112	479072	keystroke	r	n/a
239.624	0.1275	479248	keystroke	e	n/a
239.7115	0.121	479423	keystroke	s	n/a
239.8005	0.047	479601	keystroke	p	n/a
239.8235	0.1445	479647	keystroke	o	n/a
239.976	0.104	479952	keystroke	n	n/a
240.064	0.1045	480128	keystroke	d	n/a
240.1685	0.0555	480337	keystroke	i	n/a
240.232	0.144	480464	keystroke	n	n/a
240.288	0.0885	480576	keystroke	g	n/a
240.352	0.072	480704	keystroke	Key.space	n/a
240.512	0.048	481024	keystroke	l	n/a
240.592	0.064	481184	keystroke	i	n/a
240.68	0.0965	481360	keystroke	c	n/a
240.768	0.08	481536	keystroke	k	n/a
240.896	0.088	481792	keystroke	i	n/a
240.992	0.1035	481984	keystroke	n	n/a
241.064	0.0955	482128	keystroke	g	n/a
241.2715	0.08	482543	keystroke	Key.enter	n/a
241.3585	5.8905	482717	prompt	n/a	romantic msie delays shake\n
242.008	0.1115	484016	keystroke	r	n/a
242.0955	0.1205	484191	keystroke	o	n/a
242.184	0.08	484368	keystroke	m	n/a
242.2395	0.088	484479	keystroke	a	n/a
242.384	0.104	484768	keystroke	n	n/a
242.488	0.0875	484976	keystroke	t	n/a
242.6075	0.1275	485215	keystroke	i	n/a
242.744	0.0875	485488	keystroke	c	n/a
242.8	0.079	485600	keystroke	Key.space	n/a
243.08	0.096	486160	keystroke	m	n/a
243.263	0.08	486526	keystroke	s	n/a
243.4075	0.1045	486815	keystroke	i	n/a
243.464	0.087	486928	keystroke	e	n/a
243.5355	0.0875	487071	keystroke	Key.space	n/a
243.672	0.0555	487344	keystroke	d	n/a
243.7925	0.0715	487585	keystroke	e	n/a
243.9115	0.0885	487823	keystroke	l	n/a
244.0315	0.0805	488063	keystroke	a	n/a
244.1195	0.136	488239	keystroke	y	n/a
244.192	0.079	488384	keystroke	s	n/a
244.247	0.0805	488494	keystroke	Key.space	n/a
244.391	0.089	488782	keystroke	s	n/a
244.472	0.103	488944	keystroke	h	n/a
244.584	0.071	489168	keystroke	a	n/a
244.752	0.072	489504	keystroke	e	n/a
245.4955	0.08	490991	keystroke	Key.backspace	n/a
245.8155	0.072	491631	keystroke	e	n/a
246.143	0.048	492286	keystroke	Key.backspace	n/a
246.3595	0.0885	492719	keystroke	e	n/a
246.784	0.0555	493568	keystroke	Key.backspace	n/a
246.96	0.072	493920	keystroke	k	n/a
247.056	0.064	494112	keystroke	e	n/a
247.184	0.064	494368	keystroke	Key.enter	n/a
247.2535	4.492	494507	prompt	n/a	hills brief export deposits\n
247.864	0.0645	495728	keystroke	h	n/a
247.9995	0.056	495999	keystroke	i	n/a
248.144	0.0645	496288	keystroke	l	n/a
248.264	0.0955	496528	keystroke	l	n/a
248.3285	0.111	496657	keystroke	s	n/a
248.4	0.0715	496800	keystroke	Key.space	n/a
248.5995	0.056	497199	keystroke	b	n/a
248.7915	0.0725	497583	keystroke	r	n/a
248.8875	0.152	497775	keystroke	i	n/a
248.9675	0.097	497935	keystroke	e	n/a
249.104	0.1115	498208	keystroke	f	n/a
249.208	0.08	498416	keystroke	Key.space	n/a
249.3035	0.072	498607	keystroke	e	n/a
249.4635	0.088	498927	keystroke	x	n/a
249.6075	0.032	499215	keystroke	p	n/a
249.6955	0.1685	499391	keystroke	o	n/a
250.2	0.08	500400	keystroke	r	n/a
250.344	0.1205	500688	keystroke	t	n/a
250.4315	0.088	500863	keystroke	Key.space	n/a
250.6475	0.072	501295	keystroke	d	n/a
250.808	0.0795	501616	keystroke	e	n/a
250.968	0.0635	501936	keystroke	p	n/a
251.08	0.12	502160	keystroke	o	n/a
251.1755	0.088	502351	keystroke	s	n/a
251.2875	0.129	502575	keystroke	i	n/a
251.392	0.1275	502784	keystroke	t	n/a
251.448	0.1115	502896	keystroke	s	n/a
251.6555	0.088	503311	keystroke	Key.enter	n/a
251.751	4.8985	503502	prompt	n/a	what recreation expenditure yard\n
252.32	0.08	504640	keystroke	w	n/a
252.456	0.144	504912	keystroke	h	n/a
252.5045	0.1035	505009	keystroke	a	n/a
252.568	0.096	505136	keystroke	t	n/a
252.632	0.072	505264	keystroke	Key.space	n/a
252.776	0.112	505552	keystroke	r	n/a
252.848	0.095	505696	keystroke	e	n/a
253.4315	0.064	506863	keystroke	c	n/a
253.6395	0.128	507279	keystroke	r	n/a
253.712	0.1275	507424	keystroke	e	n/a
253.7995	0.1035	507599	keystroke	a	n/a
253.912	0.104	507824	keystroke	t	n/a
254.048	0.072	508096	keystroke	i	n/a
254.096	0.096	508192	keystroke	o	n/a
254.136	0.144	508272	keystroke	n	n/a
254.216	0.088	508432	keystroke	Key.space	n/a
254.352	0.0725	508704	keystroke	e	n/a
254.52	0.08	509040	keystroke	x	n/a
254.616	0.104	509232	keystroke	p	n/a
255.032	0.079	510064	keystroke	e	n/a
255.16	0.096	510320	keystroke	n	n/a
255.264	0.072	510528	keystroke	d	n/a
255.3915	0.1115	510783	keystroke	i	n/a
255.528	0.087	511056	keystroke	t	n/a
255.639	0.1365	511278	keystroke	u	n/a
255.727	0.192	511454	keystroke	r	n/a
255.824	0.128	511648	keystroke	e	n/a
255.911	0.056	511822	keystroke	Key.space	n/a
256.08	0.12	512160	keystroke	y	n/a
256.128	0.0875	512256	keystroke	a	n/a
256.1835	0.0965	512367	keystroke	r	n/a
256.36	0.08	512720	keystroke	d	n/a
256.5595	0.088	513119	keystroke	Key.enter	n/a
256.654	4.8675	513308	prompt	n/a	giving featuring email phrase\n
257.2	0.0795	514400	keystroke	g	n/a
257.2875	0.072	514575	keystroke	i	n/a
257.3995	0.064	514799	keystroke	v	n/a
257.4395	0.064	514879	keystroke	i	n/a
257.5515	0.136	515103	keystroke	n	n/a
257.5915	0.072	515183	keystroke	g	n/a
257.6475	0.08	515295	keystroke	Key.space	n/a
257.8795	0.072	515759	keystroke	f	n/a
258.0075	0.1275	516015	keystroke	e	n/a
258.079	0.129	516158	keystroke	a	n/a
258.224	0.088	516448	keystroke	t	n/a
258.328	0.088	516656	keystroke	u	n/a
258.431	0.096	516862	keystroke	r	n/a
258.5115	0.0245	517023	keystroke	i	n/a
258.583	0.1365	517166	keystroke	n	n/a
259.1355	0.104	518271	keystroke	g	n/a
259.2155	0.096	518431	keystroke	Key.space	n/a
259.3915	0.072	518783	keystroke	e	n/a
259.5755	0.08	519151	keystroke	a	n/a
259.9195	0.064	519839	keystroke	Key.backspace	n/a
260.096	0.095	520192	keystroke	m	n/a
260.208	0.072	520416	keystroke	a	n/a
260.271	0.057	520542	keystroke	i	n/a
260.4315	0.112	520863	keystroke	l	n/a
260.6555	0.088	521311	keystroke	Key.space	n/a
260.8155	0.0795	521631	keystroke	p	n/a
260.943	0.129	521886	keystroke	h	n/a
261.0395	0.0955	522079	keystroke	r	n/a
261.096	0.128	522192	keystroke	a	n/a
261.167	0.144	522334	keystroke	s	n/a
261.28	0.104	522560	keystroke	e	n/a
261.432	0.0875	522864	keystroke	Key.enter	n/a
261.5255	3.476	523051	prompt	n/a	nasa insider gamma faith\n
262.159	0.104	524318	keystroke	n	n/a
262.256	0.055	524512	keystroke	a	n/a
262.472	0.128	524944	keystroke	s	n/a
262.608	0.1355	525216	keystroke	a	n/a
262.7195	0.0725	525439	keystroke	Key.space	n/a
262.888	0.0555	525776	keystroke	i	n/a
262.9915	0.104	525983	keystroke	n	n/a
263.072	0.0795	526144	keystroke	s	n/a
263.1835	0.1355	526367	keystroke	i	n/a
263.232	0.096	526464	keystroke	d	n/a
263.4	0.1355	526800	keystroke	e	n/a
263.4485	0.127	526897	keystroke	r	n/a
263.5195	0.096	527039	keystroke	Key.space	n/a
263.6555	0.1045	527311	keystroke	g	n/a
263.752	0.0805	527504	keystroke	a	n/a
263.856	0.064	527712	keystroke	m	n/a
263.977	0.079	527954	keystroke	m	n/a
264.048	0.112	528096	keystroke	a	n/a
264.1115	0.0635	528223	keystroke	Key.space	n/a
264.207	0.097	528414	keystroke	f	n/a
264.272	0.12	528544	keystroke	a	n/a
264.448	0.096	528896	keystroke	i	n/a
264.536	0.096	529072	keystroke	t	n/a
264.648	0.119	529296	keystroke	h	n/a
264.887	0.112	529774	keystroke	Key.enter	n/a
265.006	5.307	530012	prompt	n/a	shared precision enquiries outlook\n
265.536	0.088	531072	keystroke	s	n/a
265.6955	0.128	531391	keystroke	h	n/a
265.7595	0.0885	531519	keystroke	a	n/a
265.8395	0.1035	531679	keystroke	r	n/a
265.896	0.088	531792	keystroke	e	n/a
266.0315	0.1275	532063	keystroke	d	n/a
266.103	0.065	532206	keystroke	Key.space	n/a
266.248	0.135	532496	keystroke	p	n/a
266.311	0.08	532622	keystroke	r	n/a
266.359	0.08	532718	keystroke	e	n/a
266.528	0.08	533056	keystroke	c	n/a
266.64	0.072	533280	keystroke	i	n/a
266.76	0.096	533520	keystroke	s	n/a
266.872	0.1035	533744	keystroke	i	n/a
266.944	0.1355	533888	keystroke	o	n/a
266.9915	0.1285	533983	keystroke	n	n/a
267.128	0.0635	534256	keystroke	Key.space	n/a
267.408	0.08	534816	keystroke	e	n/a
267.496	0.096	534992	keystroke	n	n/a
268.056	0.0955	536112	keystroke	q	n/a
268.2	0.08	536400	keystroke	u	n/a
268.408	0.104	536816	keystroke	i	n/a
268.608	0.072	537216	keystroke	r	n/a
268.72	0.1355	537440	keystroke	i	n/a
268.8155	0.1605	537631	keystroke	e	n/a
268.895	0.113	537790	keystroke	s	n/a
268.951	0.088	537902	keystroke	Key.space	n/a
269.224	0.087	538448	keystroke	o	n/a
269.264	0.111	538528	keystroke	u	n/a
269.368	0.088	538736	keystroke	t	n/a
269.488	0.056	538976	keystroke	l	n/a
269.6315	0.072	539263	keystroke	o	n/a
269.7195	0.088	539439	keystroke	o	n/a
270.032	0.088	540064	keystroke	k	n/a
270.2235	0.0885	540447	keystroke	Key.enter	n/a
270.3165	5.573	540633	prompt	n/a	stands obtaining ignore packed\n
270.816	0.088	541632	keystroke	s	n/a
270.952	0.12	541904	keystroke	t	n/a
271.04	0.08	542080	keystroke	a	n/a
271.128	0.1365	542256	keystroke	n	n/a
271.24	0.12	542480	keystroke	d	n/a
271.328	0.056	542656	keystroke	a	n/a
271.7355	0.0555	543471	keystroke	Key.backspace	n/a
271.776	0.1275	543552	keystroke	s	n/a
271.895	0.064	543790	keystroke	Key.space	n/a
272.0395	0.128	544079	keystroke	o	n/a
272.1595	0.0645	544319	keystroke	b	n/a
272.335	0.12	544670	keystroke	t	n/a
272.48	0.1035	544960	keystroke	i	n/a
272.84	0.055	545680	keystroke	Key.backspace	n/a
272.904	0.072	545808	keystroke	a	n/a
273.0075	0.08	546015	keystroke	i	n/a
273.1355	0.096	546271	keystroke	n	n/a
273.2395	0.04	546479	keystroke	i	n/a
273.311	0.121	546622	keystroke	n	n/a
273.392	0.095	546784	keystroke	g	n/a
273.4395	0.0885	546879	keystroke	Key.space	n/a
273.559	0.112	547118	keystroke	i	n/a
273.656	0.096	547312	keystroke	g	n/a
273.8155	0.1275	547631	keystroke	o	n/a
273.959	0.08	547918	keystroke	n	n/a
274.239	0.072	548478	keystroke	Key.backspace	n/a
274.344	0.103	548688	keystroke	Key.backspace	n/a
274.664	0.152	549328	keystroke	n	n/a
274.8235	0.1035	549647	keystroke	o	n/a
274.895	0.137	549790	keystroke	r	n/a
274.952	0.1115	549904	keystroke	e	n/a
275.015	0.0725	550030	keystroke	Key.space	n/a
275.1595	0.0805	550319	keystroke	p	n/a
275.2155	0.088	550431	keystroke	a	n/a
275.3195	0.088	550639	keystroke	c	n/a
275.416	0.1275	550832	keystroke	k	n/a
275.4635	0.064	550927	keystroke	e	n/a
275.6235	0.064	551247	keystroke	d	n/a
275.8475	0.0395	551695	keystroke	Key.enter	n/a
275.893	6.868	551786	prompt	n/a	meaning deborah microphone deutsche\n
276.647	0.113	553294	keystroke	m	n/a
276.751	0.128	553502	keystroke	e	n/a
276.815	0.089	553630	keystroke	a	n/a
276.8715	0.0965	553743	keystroke	n	n/a
276.9755	0.0555	553951	keystroke	i	n/a
277.0635	0.1195	554127	keystroke	n	n/a
277.151	0.081	554302	keystroke	g	n/a
277.191	0.081	554382	keystroke	Key.space	n/a
277.32	0.072	554640	keystroke	d	n/a
277.455	0.08	554910	keystroke	e	n/a
277.791	0.12	555582	keystroke	o	n/a
278.119	0.056	556238	keystroke	Key.backspace	n/a
278.1835	0.0805	556367	keystroke	b	n/a
278.359	0.128	556718	keystroke	o	n/a
278.455	0.128	556910	keystroke	r	n/a
278.5355	0.0955	557071	keystroke	a	n/a
278.687	0.0965	557374	keystroke	h	n/a
278.751	0.088	557502	keystroke	Key.space	n/a
279.031	0.0965	558062	keystroke	i	n/a
279.16	0.0875	558320	keystroke	c	n/a
279.4155	0.072	558831	keystroke	Key.backspace	n/a
279.5755	0.064	559151	keystroke	Key.backspace	n/a
279.7355	0.08	559471	keystroke	m	n/a
279.8875	0.088	559775	keystroke	i	n/a
280.1035	0.079	560207	keystroke	c	n/a
280.2865	0.089	560573	keystroke	r	n/a
280.392	0.1195	560784	keystroke	o	n/a
280.7915	0.088	561583	keystroke	p	n/a
280.9435	0.0885	561887	keystroke	h	n/a
281	0.0715	562000	keystroke	o	n/a
281.1195	0.136	562239	keystroke	n	n/a
281.1915	0.088	562383	keystroke	e	n/a
281.2315	0.0955	562463	keystroke	Key.space	n/a
281.4235	0.072	562847	keystroke	d	n/a
281.5755	0.08	563151	keystroke	e	n/a
281.7035	0.12	563407	keystroke	u	n/a
281.8315	0.096	563663	keystroke	t	n/a
282.0315	0.096	564063	keystroke	s	n/a
282.2315	0.064	564463	keystroke	c	n/a
282.3515	0.104	564703	keystroke	h	n/a
282.4635	0.064	564927	keystroke	e	n/a
282.6795	0.08	565359	keystroke	Key.enter	n/a
282.766	3.747	565532	prompt	n/a	threads rich structures gossip\n
283.295	0.08	566590	keystroke	t	n/a
283.3995	0.1285	566799	keystroke	h	n/a
283.495	0.12	566990	keystroke	r	n/a
283.535	0.097	567070	keystroke	e	n/a
283.591	0.088	567182	keystroke	a	n/a
283.7995	0.1675	567599	keystroke	d	n/a
283.8705	0.1535	567741	keystroke	s	n/a
283.9755	0.0555	567951	keystroke	Key.space	n/a
284.103	0.0805	568206	keystroke	r	n/a
284.175	0.089	568350	keystroke	i	n/a
284.312	0.1035	568624	keystroke	c	n/a
284.3515	0.1195	568703	keystroke	h	n/a
284.4235	0.0955	568847	keystroke	Key.space	n/a
284.52	0.1435	569040	keystroke	s	n/a
284.6395	0.072	569279	keystroke	t	n/a
284.792	0.071	569584	keystroke	r	n/a
284.9115	0.1205	569823	keystroke	u	n/a
285.016	0.071	570032	keystroke	c	n/a
285.208	0.064	570416	keystroke	t	n/a
285.295	0.1525	570590	keystroke	u	n/a
285.3675	0.1685	570735	keystroke	r	n/a
285.439	0.1205	570878	keystroke	e	n/a
285.471	0.104	570942	keystroke	s	n/a
285.536	0.055	571072	keystroke	Key.space	n/a
285.679	0.08	571358	keystroke	g	n/a
285.784	0.111	571568	keystroke	o	n/a
285.888	0.087	571776	keystroke	s	n/a
286.0235	0.096	572047	keystroke	s	n/a
286.1275	0.152	572255	keystroke	i	n/a
286.2235	0.088	572447	keystroke	p	n/a
286.431	0.0805	572862	keystroke	Key.enter	n/a
286.5165	4.949	573033	prompt	n/a	cardiff hamburg american floors\n
287.12	0.0875	574240	keystroke	c	n/a
287.2875	0.088	574575	keystroke	a	n/a
287.4485	0.055	574897	keystroke	r	n/a
287.6155	0.064	575231	keystroke	d	n/a
287.8075	0.0805	575615	keystroke	i	n/a
287.9115	0.0635	575823	keystroke	f	n/a
288.0305	0.096	576061	keystroke	f	n/a
288.1355	0.048	576271	keystroke	Key.space	n/a
288.2225	0.0815	576445	keystroke	h	n/a
288.383	0.0725	576766	keystroke	a	n/a
288.4475	0.119	576895	keystroke	m	n/a
288.6315	0.088	577263	keystroke	b	n/a
288.7835	0.1275	577567	keystroke	u	n/a
288.879	0.08	577758	keystroke	r	n/a
289.039	0.0965	578078	keystroke	g	n/a
289.1115	0.08	578223	keystroke	Key.space	n/a
289.2315	0.104	578463	keystroke	a	n/a
289.3275	0.112	578655	keystroke	m	n/a
289.4155	0.104	578831	keystroke	e	n/a
289.4715	0.08	578943	keystroke	r	n/a
289.5755	0.096	579151	keystroke	i	n/a
289.6555	0.104	579311	keystroke	c	n/a
289.7755	0.12	579551	keystroke	n	n/a
289.8555	0.096	579711	keystroke	Key.space	n/a
290.2715	0.048	580543	keystroke	Key.backspace	n/a
290.3915	0.04	580783	keystroke	Key.backspace	n/a
290.4875	0.12	580975	keystroke	a	n/a
290.5515	0.12	581103	keystroke	n	n/a
290.6235	0.0635	581247	keystroke	Key.space	n/a
290.735	0.08	581470	keystroke	f	n/a
290.823	0.056	581646	keystroke	l	n/a
290.9675	0.0395	581935	keystroke	o	n/a
291.063	0.104	582126	keystroke	o	n/a
291.167	0.104	582334	keystroke	r	n/a
291.223	0.096	582446	keystroke	s	n/a
291.3985	0.064	582797	keystroke	Key.enter	n/a
291.4695	4.2435	582939	prompt	n/a	implies owners genetics occasion\n
292.007	0.0645	584014	keystroke	i	n/a
292.135	0.1045	584270	keystroke	m	n/a
292.215	0.072	584430	keystroke	p	n/a
292.351	0.048	584702	keystroke	l	n/a
292.4635	0.0955	584927	keystroke	i	n/a
292.527	0.128	585054	keystroke	e	n/a
292.575	0.0965	585150	keystroke	s	n/a
292.615	0.08	585230	keystroke	Key.space	n/a
292.719	0.104	585438	keystroke	o	n/a
292.815	0.08	585630	keystroke	w	n/a
292.911	0.112	585822	keystroke	n	n/a
292.9835	0.1515	585967	keystroke	e	n/a
293.0795	0.1285	586159	keystroke	r	n/a
293.144	0.111	586288	keystroke	s	n/a
293.199	0.072	586398	keystroke	Key.space	n/a
293.319	0.0805	586638	keystroke	g	n/a
293.471	0.056	586942	keystroke	e	n/a
293.559	0.088	587118	keystroke	n	n/a
293.615	0.144	587230	keystroke	e	n/a
293.735	0.0725	587470	keystroke	t	n/a
293.839	0.1045	587678	keystroke	i	n/a
293.9505	0.113	587901	keystroke	c	n/a
294.024	0.1035	588048	keystroke	s	n/a
294.0945	0.0645	588189	keystroke	Key.space	n/a
294.2315	0.112	588463	keystroke	o	n/a
294.2955	0.0795	588591	keystroke	c	n/a
294.527	0.0805	589054	keystroke	c	n/a
294.831	0.024	589662	keystroke	a	n/a
295.039	0.08	590078	keystroke	s	n/a
295.2475	0.1195	590495	keystroke	i	n/a
295.3035	0.128	590607	keystroke	o	n/a
295.359	0.104	590718	keystroke	n	n/a
295.6305	0.08	591261	keystroke	Key.enter	n/a
295.72	4.249	591440	prompt	n/a	convention medicines goals calendar\n
296.311	0.0885	592622	keystroke	c	n/a
296.3995	0.1195	592799	keystroke	o	n/a
296.495	0.1045	592990	keystroke	n	n/a
296.5995	0.048	593199	keystroke	v	n/a
296.712	0.095	593424	keystroke	e	n/a
296.791	0.1035	593582	keystroke	n	n/a
296.92	0.087	593840	keystroke	t	n/a
296.999	0.104	593998	keystroke	i	n/a
297.055	0.1125	594110	keystroke	o	n/a
297.079	0.152	594158	keystroke	n	n/a
297.175	0.088	594350	keystroke	Key.space	n/a
297.407	0.0885	594814	keystroke	m	n/a
297.4475	0.064	594895	keystroke	e	n/a
297.5995	0.072	595199	keystroke	d	n/a
297.6955	0.0795	595391	keystroke	i	n/a
297.791	0.0805	595582	keystroke	c	n/a
297.8555	0.08	595711	keystroke	i	n/a
297.9675	0.1675	595935	keystroke	n	n/a
298.0625	0.1445	596125	keystroke	e	n/a
298.1275	0.1195	596255	keystroke	s	n/a
298.199	0.0635	596398	keystroke	Key.space	n/a
298.3835	0.088	596767	keystroke	g	n/a
298.5195	0.088	597039	keystroke	o	n/a
298.615	0.0805	597230	keystroke	a	n/a
298.719	0.1205	597438	keystroke	l	n/a
298.8075	0.095	597615	keystroke	s	n/a
298.8705	0.065	597741	keystroke	Key.space	n/a
298.9675	0.087	597935	keystroke	c	n/a
299.0475	0.096	598095	keystroke	a	n/a
299.175	0.1045	598350	keystroke	l	n/a
299.3115	0.088	598623	keystroke	e	n/a
299.439	0.1285	598878	keystroke	n	n/a
299.5265	0.1045	599053	keystroke	d	n/a
299.599	0.1045	599198	keystroke	a	n/a
299.735	0.0965	599470	keystroke	r	n/a
299.8635	0.1035	599727	keystroke	Key.enter	n/a
299.9725	6.204	599945	prompt	n/a	keno delegation what'll programme\n
300.535	0.08	601070	keystroke	k	n/a
300.6475	0.112	601295	keystroke	e	n/a
300.7275	0.1755	601455	keystroke	n	n/a
300.8555	0.1035	601711	keystroke	o	n/a
300.9425	0.089	601885	keystroke	Key.space	n/a
301.1435	0.087	602287	keystroke	d	n/a
301.3035	0.128	602607	keystroke	e	n/a
301.415	0.0725	602830	keystroke	l	n/a
301.6075	0.071	603215	keystroke	e	n/a
301.879	0.104	603758	keystroke	g	n/a
302.1745	0.129	604349	keystroke	a	n/a
302.2875	0.1035	604575	keystroke	t	n/a
302.383	0.072	604766	keystroke	i	n/a
302.415	0.12	604830	keystroke	o	n/a
302.471	0.1205	604942	keystroke	n	n/a
302.559	0.088	605118	keystroke	Key.space	n/a
302.639	0.088	605278	keystroke	w	n/a
302.743	0.128	605486	keystroke	h	n/a
302.824	0.071	605648	keystroke	a	n/a
302.887	0.1125	605774	keystroke	t	n/a
303.1275	0.127	606255	keystroke	'	n/a
303.3515	0.055	606703	keystroke	l	n/a
303.4705	0.064	606941	keystroke	l	n/a
303.6145	0.0885	607229	keystroke	Key.space	n/a
303.903	0.0795	607806	keystroke	p	n/a
303.9835	0.08	607967	keystroke	r	n/a
304.1425	0.144	608285	keystroke	o	n/a
304.4145	0.0645	608829	keystroke	g	n/a
304.583	0.0955	609166	keystroke	r	n/a
304.7515	0.063	609503	keystroke	m	n/a
305.0705	0.048	610141	keystroke	Key.backspace	n/a
305.1505	0.065	610301	keystroke	a	n/a
305.2545	0.065	610509	keystroke	m	n/a
305.3665	0.072	610733	keystroke	m	n/a
305.4555	0.072	610911	keystroke	e	n/a
306.1185	0.056	612237	keystroke	Key.enter	n/a
306.181	5.179	612362	prompt	n/a	policies younger jewelry directed\n
306.687	0.056	613374	keystroke	p	n/a
306.783	0.0395	613566	keystroke	o	n/a
306.9585	0.08	613917	keystroke	l	n/a
307.1825	0.072	614365	keystroke	i	n/a
307.3025	0.064	614605	keystroke	c	n/a
307.3835	0.119	614767	keystroke	i	n/a
307.4785	0.1205	614957	keystroke	e	n/a
307.5505	0.12	615101	keystroke	s	n/a
307.6065	0.065	615213	keystroke	Key.space	n/a
307.775	0.072	615550	keystroke	y	n/a
307.831	0.151	615662	keystroke	o	n/a
307.951	0.072	615902	keystroke	u	n/a
308.111	0.135	616222	keystroke	n	n/a
308.1675	0.056	616335	keystroke	g	n/a
308.2715	0.1435	616543	keystroke	e	n/a
308.351	0.088	616702	keystroke	r	n/a
308.367	0.096	616734	keystroke	Key.space	n/a
308.543	0.12	617086	keystroke	j	n/a
308.6475	0.0635	617295	keystroke	e	n/a
308.831	0.0805	617662	keystroke	w	n/a
309.1825	0.048	618365	keystroke	e	n/a
309.439	0.0955	618878	keystroke	l	n/a
309.6305	0.025	619261	keystroke	e	n/a
309.9185	0.057	619837	keystroke	Key.backspace	n/a
309.9915	0.1195	619983	keystroke	r	n/a
310.1355	0.111	620271	keystroke	y	n/a
310.1995	0.087	620399	keystroke	Key.space	n/a
310.3025	0.0805	620605	keystroke	d	n/a
310.4625	0.1205	620925	keystroke	i	n/a
310.519	0.072	621038	keystroke	r	n/a
310.567	0.072	621134	keystroke	e	n/a
310.727	0.072	621454	keystroke	c	n/a
310.911	0.0965	621822	keystroke	t	n/a
310.959	0.08	621918	keystroke	e	n/a
311.111	0.0795	622222	keystroke	d	n/a
311.294	0.0645	622588	keystroke	Key.enter	n/a
311.3635	3.829	622727	prompt	n/a	designers pointer usda blame\n
311.855	0.0555	623710	keystroke	d	n/a
312.0235	0.0955	624047	keystroke	e	n/a
312.0875	0.0875	624175	keystroke	s	n/a
312.191	0.1035	624382	keystroke	i	n/a
312.303	0.0715	624606	keystroke	g	n/a
312.407	0.1285	624814	keystroke	n	n/a
312.4785	0.1125	624957	keystroke	e	n/a
312.5585	0.16	625117	keystroke	r	n/a
312.639	0.1275	625278	keystroke	s	n/a
312.7265	0.064	625453	keystroke	Key.space	n/a
312.855	0.088	625710	keystroke	p	n/a
312.935	0.152	625870	keystroke	o	n/a
312.991	0.088	625982	keystroke	i	n/a
313.127	0.1115	626254	keystroke	n	n/a
313.199	0.0725	626398	keystroke	t	n/a
313.223	0.0715	626446	keystroke	e	n/a
313.3745	0.0805	626749	keystroke	d	n/a
313.4145	0.0885	626829	keystroke	Key.space	n/a
313.671	0.112	627342	keystroke	u	n/a
313.775	0.072	627550	keystroke	s	n/a
313.878	0.217	627756	keystroke	d	n/a
313.991	0.119	627982	keystroke	a	n/a
314.086	0.096	628172	keystroke	Key.space	n/a
314.327	0.08	628654	keystroke	b	n/a
314.4395	0.111	628879	keystroke	l	n/a
314.7345	0.0805	629469	keystroke	a	n/a
314.839	0.096	629678	keystroke	m	n/a
314.935	0.056	629870	keystroke	e	n/a
315.119	0.072	630238	keystroke	Key.enter	n/a
315.1975	4.227	630395	prompt	n/a	hyundai scan reason queens\n
315.791	0.12	631582	keystroke	d	n/a
316.0785	0.048	632157	keystroke	Key.backspace	n/a
316.247	0.0645	632494	keystroke	h	n/a
316.3825	0.0805	632765	keystroke	y	n/a
316.575	0.079	633150	keystroke	u	n/a
316.7425	0.1195	633485	keystroke	n	n/a
316.8235	0.1115	633647	keystroke	d	n/a
316.8945	0.0795	633789	keystroke	a	n/a
317.038	0.096	634076	keystroke	i	n/a
317.118	0.081	634236	keystroke	Key.space	n/a
317.238	0.0965	634476	keystroke	s	n/a
317.351	0.1355	634702	keystroke	c	n/a
317.463	0.0715	634926	keystroke	a	n/a
317.5585	0.112	635117	keystroke	n	n/a
317.6385	0.0875	635277	keystroke	Key.space	n/a
317.7985	0.12	635597	keystroke	r	n/a
317.8545	0.088	635709	keystroke	e	n/a
317.911	0.104	635822	keystroke	a	n/a
317.983	0.1115	635966	keystroke	s	n/a
318.078	0.1365	636156	keystroke	o	n/a
318.151	0.1195	636302	keystroke	n	n/a
318.254	0.08	636508	keystroke	Key.space	n/a
318.4785	0.096	636957	keystroke	q	n/a
318.6465	0.0645	637293	keystroke	u	n/a
318.815	0.064	637630	keystroke	e	n/a
318.95	0.0655	637900	keystroke	e	n/a
319.079	0.072	638158	keystroke	n	n/a
319.175	0.0875	638350	keystroke	s	n/a
319.342	0.08	638684	keystroke	Key.enter	n/a
319.428	3.4685	638856	prompt	n/a	sound amanda alleged fiber\n
319.879	0.08	639758	keystroke	s	n/a
319.983	0.095	639966	keystroke	o	n/a
320.047	0.056	640094	keystroke	u	n/a
320.191	0.128	640382	keystroke	n	n/a
320.247	0.096	640494	keystroke	d	n/a
320.303	0.072	640606	keystroke	Key.space	n/a
320.399	0.0955	640798	keystroke	a	n/a
320.503	0.0795	641006	keystroke	m	n/a
320.5985	0.088	641197	keystroke	a	n/a
320.678	0.112	641356	keystroke	n	n/a
320.759	0.159	641518	keystroke	d	n/a
320.847	0.1275	641694	keystroke	a	n/a
320.934	0.072	641868	keystroke	Key.space	n/a
321.095	0.072	642190	keystroke	a	n/a
321.19	0.048	642380	keystroke	l	n/a
321.311	0.088	642622	keystroke	l	n/a
321.543	0.08	643086	keystroke	e	n/a
321.711	0.072	643422	keystroke	g	n/a
321.823	0.08	643646	keystroke	e	n/a
321.983	0.096	643966	keystroke	d	n/a
322.055	0.071	644110	keystroke	Key.space	n/a
322.183	0.08	644366	keystroke	f	n/a
322.279	0.136	644558	keystroke	i	n/a
322.367	0.072	644734	keystroke	b	n/a
322.526	0.152	645052	keystroke	e	n/a
322.6305	0.096	645261	keystroke	r	n/a
322.822	0.0725	645644	keystroke	Key.enter	n/a
322.9005	4.8595	645801	prompt	n/a	uzbekistan exempt guys blast\n
323.583	0.104	647166	keystroke	u	n/a
323.8145	0.112	647629	keystroke	z	n/a
324.047	0.0555	648094	keystroke	b	n/a
324.2065	0.064	648413	keystroke	e	n/a
324.4465	0.112	648893	keystroke	k	n/a
324.774	0.0805	649548	keystroke	i	n/a
324.935	0.088	649870	keystroke	s	n/a
325.055	0.128	650110	keystroke	t	n/a
325.143	0.096	650286	keystroke	a	n/a
325.239	0.1355	650478	keystroke	n	n/a
325.3105	0.096	650621	keystroke	Key.space	n/a
325.599	0.064	651198	keystroke	e	n/a
325.7745	0.0795	651549	keystroke	x	n/a
325.95	0.0805	651900	keystroke	e	n/a
326.0785	0.1365	652157	keystroke	m	n/a
326.167	0.1275	652334	keystroke	p	n/a
326.247	0.12	652494	keystroke	t	n/a
326.343	0.063	652686	keystroke	Key.space	n/a
326.543	0.0955	653086	keystroke	g	n/a
326.6545	0.0725	653309	keystroke	u	n/a
326.815	0.12	653630	keystroke	y	n/a
326.87	0.104	653740	keystroke	s	n/a
326.895	0.095	653790	keystroke	Key.space	n/a
327.159	0.103	654318	keystroke	b	n/a
327.286	0.16	654572	keystroke	l	n/a
327.367	0.1435	654734	keystroke	a	n/a
327.4305	0.1515	654861	keystroke	s	n/a
327.542	0.0805	655084	keystroke	t	n/a
327.686	0.072	655372	keystroke	Key.enter	n/a
327.7655	9.3155	655531	prompt	n/a	followed subscription announcements temporary\n
328.4785	0.0725	656957	keystroke	f	n/a
328.551	0.048	657102	keystroke	o	n/a
328.6945	0.048	657389	keystroke	l	n/a
328.8065	0.064	657613	keystroke	l	n/a
328.9505	0.16	657901	keystroke	o	n/a
329.0465	0.056	658093	keystroke	w	n/a
329.0475	0.0955	658095	keystroke	e	n/a
329.2385	0.0965	658477	keystroke	d	n/a
329.2865	0.096	658573	keystroke	Key.space	n/a
329.4785	0.104	658957	keystroke	u	n/a
329.8305	0.0645	659661	keystroke	Key.backspace	n/a
329.9345	0.0875	659869	keystroke	s	n/a
330.0065	0.104	660013	keystroke	u	n/a
330.119	0.072	660238	keystroke	b	n/a
330.254	0.0965	660508	keystroke	s	n/a
330.454	0.0725	660908	keystroke	c	n/a
330.6465	0.0955	661293	keystroke	r	n/a
330.759	0.128	661518	keystroke	i	n/a
330.8705	0.1035	661741	keystroke	p	n/a
331.031	0.0955	662062	keystroke	t	n/a
331.1345	0.128	662269	keystroke	i	n/a
331.1745	0.152	662349	keystroke	o	n/a
331.2385	0.128	662477	keystroke	n	n/a
331.3185	0.072	662637	keystroke	Key.space	n/a
331.4385	0.088	662877	keystroke	s	n/a
331.614	0.064	663228	keystroke	n	n/a
331.8535	0.0725	663707	keystroke	Key.backspace	n/a
331.998	0.08	663996	keystroke	Key.backspace	n/a
332.126	0.0645	664252	keystroke	a	n/a
332.199	0.063	664398	keystroke	n	n/a
332.2865	0.088	664573	keystroke	n	n/a
332.687	0.0795	665374	keystroke	n	n/a
332.998	0.064	665996	keystroke	Key.backspace	n/a
333.191	0.112	666382	keystroke	o	n/a
333.271	0.064	666542	keystroke	u	n/a
333.431	0.0875	666862	keystroke	n	n/a
333.5105	0.064	667021	keystroke	c	n/a
333.6065	0.088	667213	keystroke	e	n/a
333.7905	0.056	667581	keystroke	m	n/a
333.8475	0.071	667695	keystroke	e	n/a
334.6465	0.12	669293	keystroke	n	n/a
334.7275	0.151	669455	keystroke	t	n/a
334.8065	0.136	669613	keystroke	s	n/a
334.8705	0.087	669741	keystroke	Key.space	n/a
335.2625	0.08	670525	keystroke	t	n/a
335.367	0.0795	670734	keystroke	e	n/a
335.4625	0.104	670925	keystroke	m	n/a
335.5505	0.08	671101	keystroke	p	n/a
335.695	0.055	671390	keystroke	r	n/a
335.79	0.104	671580	keystroke	o	n/a
336.166	0.032	672332	keystroke	Key.down	n/a
336.206	0.016	672412	keystroke	Key.backspace	n/a
336.2865	0.032	672573	keystroke	Key.backspace	n/a
336.4545	0.104	672909	keystroke	o	n/a
336.5265	0.08	673053	keystroke	r	n/a
336.6065	0.104	673213	keystroke	a	n/a
336.6785	0.104	673357	keystroke	r	n/a
336.7905	0.088	673581	keystroke	y	n/a
337.0225	0.056	674045	keystroke	Key.enter	n/a
337.0865	5.5455	674173	prompt	n/a	detect mississippi illegal beth\n
337.6065	0.1285	675213	keystroke	d	n/a
337.8225	0.088	675645	keystroke	e	n/a
337.959	0.08	675918	keystroke	t	n/a
338.047	0.136	676094	keystroke	e	n/a
338.327	0.064	676654	keystroke	c	n/a
338.511	0.096	677022	keystroke	t	n/a
338.582	0.065	677164	keystroke	Key.space	n/a
338.7335	0.0655	677467	keystroke	m	n/a
338.911	0.063	677822	keystroke	i	n/a
339.0055	0.041	678011	keystroke	s	n/a
339.1255	0.081	678251	keystroke	s	n/a
339.374	0.0885	678748	keystroke	i	n/a
339.534	0.065	679068	keystroke	s	n/a
339.6625	0.079	679325	keystroke	s	n/a
339.895	0.064	679790	keystroke	i	n/a
340.071	0.071	680142	keystroke	p	n/a
340.214	0.064	680428	keystroke	p	n/a
340.3425	0.0875	680685	keystroke	i	n/a
340.534	0.072	681068	keystroke	Key.space	n/a
340.67	0.0725	681340	keystroke	l	n/a
340.7905	0.056	681581	keystroke	e	n/a
341.238	0.04	682476	keystroke	Key.backspace	n/a
341.4145	0.104	682829	keystroke	l	n/a
341.4625	0.0485	682925	keystroke	e	n/a
341.5585	0.136	683117	keystroke	g	n/a
341.6385	0.088	683277	keystroke	a	n/a
341.7425	0.112	683485	keystroke	l	n/a
341.8305	0.0635	683661	keystroke	Key.space	n/a
342.022	0.0325	684044	keystroke	b	n/a
342.135	0.048	684270	keystroke	e	n/a
342.231	0.0875	684462	keystroke	t	n/a
342.342	0.104	684684	keystroke	h	n/a
342.574	0.0565	685148	keystroke	Key.enter	n/a
342.6365	4.2435	685273	prompt	n/a	booty cardiff monkey comments\n
343.4065	0.064	686813	keystroke	b	n/a
343.4625	0.064	686925	keystroke	o	n/a
343.5745	0.08	687149	keystroke	o	n/a
343.743	0.1275	687486	keystroke	t	n/a
343.8465	0.1115	687693	keystroke	y	n/a
343.894	0.096	687788	keystroke	Key.space	n/a
344.0465	0.0955	688093	keystroke	c	n/a
344.135	0.112	688270	keystroke	a	n/a
344.2705	0.0725	688541	keystroke	r	n/a
344.4225	0.072	688845	keystroke	d	n/a
344.5505	0.0965	689101	keystroke	i	n/a
344.702	0.064	689404	keystroke	f	n/a
344.83	0.1045	689660	keystroke	f	n/a
344.9585	0.056	689917	keystroke	Key.space	n/a
345.0865	0.096	690173	keystroke	m	n/a
345.1665	0.112	690333	keystroke	o	n/a
345.2705	0.096	690541	keystroke	n	n/a
345.4145	0.12	690829	keystroke	k	n/a
345.5505	0.072	691101	keystroke	e	n/a
345.7025	0.112	691405	keystroke	y	n/a
345.7985	0.088	691597	keystroke	Key.space	n/a
345.9985	0.072	691997	keystroke	c	n/a
346.0715	0.071	692143	keystroke	o	n/a
346.1995	0.055	692399	keystroke	m	n/a
346.319	0.0715	692638	keystroke	m	n/a
346.383	0.0955	692766	keystroke	e	n/a
346.4865	0.096	692973	keystroke	n	n/a
346.5665	0.104	693133	keystroke	t	n/a
346.6145	0.104	693229	keystroke	s	n/a
346.7905	0.088	693581	keystroke	Key.enter	n/a
346.8835	4.6445	693767	prompt	n/a	answer duck privacy enhance\n
347.462	0.0805	694924	keystroke	a	n/a
347.5585	0.1195	695117	keystroke	n	n/a
347.655	0.0715	695310	keystroke	s	n/a
347.815	0.1195	695630	keystroke	w	n/a
347.87	0.153	695740	keystroke	e	n/a
347.935	0.127	695870	keystroke	r	n/a
348.014	0.072	696028	keystroke	Key.space	n/a
348.198	0.0965	696396	keystroke	d	n/a
348.334	0.0885	696668	keystroke	u	n/a
348.446	0.112	696892	keystroke	c	n/a
348.559	0.1195	697118	keystroke	k	n/a
348.638	0.0965	697276	keystroke	Key.space	n/a
348.9025	0.096	697805	keystroke	p	n/a
348.9825	0.064	697965	keystroke	r	n/a
349.1345	0.08	698269	keystroke	i	n/a
349.2225	0.104	698445	keystroke	v	n/a
349.4225	0.112	698845	keystroke	a	n/a
349.5185	0.104	699037	keystroke	c	n/a
349.6385	0.096	699277	keystroke	y	n/a
349.7025	0.08	699405	keystroke	Key.space	n/a
349.8625	0.0715	699725	keystroke	e	n/a
349.9345	0.072	699869	keystroke	n	n/a
350.1095	0.073	700219	keystroke	h	n/a
