onset	duration	sample	value	key	prompt_text
3.129	14.585	6258	prompt	n/a	the quick brown fox jumps over a lazy dog\n
9.819	0.0735	19638	keystroke_t	t	n/a
9.8475	0.1055	19695	keystroke_h	h	n/a
9.983	0.12	19966	keystroke_e	e	n/a
10.073	0.12	20146	keystroke_Key.space	Key.space	n/a
10.2835	0.1195	20567	keystroke_q	q	n/a
10.463	0.2255	20926	keystroke_u	u	n/a
10.5835	0.2105	21167	keystroke_i	i	n/a
10.824	0.1655	21648	keystroke_c	c	n/a
11.0045	0.1955	22009	keystroke_k	k	n/a
11.125	0.1955	22250	keystroke_Key.space	Key.space	n/a
11.3355	0.091	22671	keystroke_b	b	n/a
11.4415	0.105	22883	keystroke_r	r	n/a
11.5765	0.1055	23153	keystroke_o	o	n/a
11.6965	0.1055	23393	keystroke_w	w	n/a
11.787	0.2105	23574	keystroke_n	n	n/a
11.922	0.1505	23844	keystroke_Key.space	Key.space	n/a
12.0575	0.075	24115	keystroke_f	f	n/a
12.0735	0.074	24147	keystroke_r	r	n/a
12.178	0.135	24356	keystroke_o	o	n/a
12.7795	0.0745	25559	keystroke_Key.backspace	Key.backspace	n/a
12.974	0.016	25948	keystroke_Key.backspace	Key.backspace	n/a
13.396	0.1055	26792	keystroke_o	o	n/a
13.5615	0.09	27123	keystroke_x	x	n/a
13.6515	0.211	27303	keystroke_Key.space	Key.space	n/a
13.772	0.1355	27544	keystroke_j	j	n/a
14.0125	0.09	28025	keystroke_u	u	n/a
14.253	0.09	28506	keystroke_m	m	n/a
14.403	0.12	28806	keystroke_p	p	n/a
14.508	0.1355	29016	keystroke_s	s	n/a
14.6285	0.1805	29257	keystroke_Key.space	Key.space	n/a
14.7795	0.1045	29559	keystroke_o	o	n/a
14.869	0.12	29738	keystroke_v	v	n/a
15.1245	0.1655	30249	keystroke_e	e	n/a
15.2295	0.1655	30459	keystroke_r	r	n/a
15.38	0.1355	30760	keystroke_Key.space	Key.space	n/a
15.696	0.1355	31392	keystroke_a	a	n/a
15.9215	0.15	31843	keystroke_Key.space	Key.space	n/a
16.102	0.1655	32204	keystroke_l	l	n/a
16.2525	0.12	32505	keystroke_a	a	n/a
16.5085	0.1645	33017	keystroke_z	z	n/a
16.719	0.2245	33438	keystroke_y	y	n/a
16.854	0.165	33708	keystroke_Key.space	Key.space	n/a
17.004	0.15	34008	keystroke_d	d	n/a
17.124	0.1655	34248	keystroke_o	o	n/a
17.3495	0.1205	34699	keystroke_g	g	n/a
17.62	0.0905	35240	keystroke_Key.enter	Key.enter	n/a
17.7185	8.9095	35437	prompt	n/a	virginia flickr alarm duke\n
18.6125	0.045	37225	keystroke_v	v	n/a
18.703	0.105	37406	keystroke_i	i	n/a
19.079	0.1205	38158	keystroke_r	r	n/a
19.455	0.09	38910	keystroke_g	g	n/a
19.7705	0.105	39541	keystroke_i	i	n/a
20.267	0.12	40534	keystroke_n	n	n/a
20.5525	0.1205	41105	keystroke_i	i	n/a
20.733	0.15	41466	keystroke_a	a	n/a
20.853	0.1355	41706	keystroke_Key.space	Key.space	n/a
21.575	0.1355	43150	keystroke_f	f	n/a
22.026	0.1955	44052	keystroke_l	l	n/a
22.191	0.1655	44382	keystroke_i	i	n/a
23.123	0.121	46246	keystroke_c	c	n/a
23.3335	0.151	46667	keystroke_k	k	n/a
23.83	0.1355	47660	keystroke_r	r	n/a
24.236	0.1355	48472	keystroke_Key.space	Key.space	n/a
24.476	0.1355	48952	keystroke_a	a	n/a
24.6865	0.1365	49373	keystroke_l	l	n/a
24.867	0.2255	49734	keystroke_a	a	n/a
25.0625	0.135	50125	keystroke_r	r	n/a
25.243	0.1805	50486	keystroke_m	m	n/a
25.3785	0.15	50757	keystroke_Key.space	Key.space	n/a
25.604	0.12	51208	keystroke_d	d	n/a
25.7545	0.12	51509	keystroke_u	u	n/a
26.07	0.091	52140	keystroke_k	k	n/a
26.2955	0.09	52591	keystroke_e	e	n/a
26.5365	0.09	53073	keystroke_Key.enter	Key.enter	n/a
26.631	12.1895	53262	prompt	n/a	restrictions script stickers amateur\n
27.349	0.15	54698	keystroke_r	r	n/a
27.424	0.1655	54848	keystroke_e	e	n/a
27.8145	0.1055	55629	keystroke_s	s	n/a
28.1295	0.1665	56259	keystroke_t	t	n/a
28.2205	0.1495	56441	keystroke_r	r	n/a
28.6415	0.1045	57283	keystroke_i	i	n/a
28.852	0.1205	57704	keystroke_c	c	n/a
29.1375	0.09	58275	keystroke_t	t	n/a
29.2425	0.2405	58485	keystroke_i	i	n/a
29.333	0.21	58666	keystroke_o	o	n/a
29.543	0.1055	59086	keystroke_s	s	n/a
29.6635	0.12	59327	keystroke_Key.space	Key.space	n/a
29.7985	0.136	59597	keystroke_s	s	n/a
30.37	0.0755	60740	keystroke_Key.backspace	Key.backspace	n/a
30.4905	0.0745	60981	keystroke_Key.backspace	Key.backspace	n/a
30.625	0.075	61250	keystroke_Key.backspace	Key.backspace	n/a
31.031	0.105	62062	keystroke_n	n	n/a
31.167	0.1505	62334	keystroke_s	s	n/a
31.347	0.135	62694	keystroke_Key.space	Key.space	n/a
31.437	0.136	62874	keystroke_s	s	n/a
31.662	0.0755	63324	keystroke_c	c	n/a
31.993	0.0605	63986	keystroke_t	t	n/a
32.565	0.06	65130	keystroke_Key.backspace	Key.backspace	n/a
32.67	0.105	65340	keystroke_r	r	n/a
33.031	0.135	66062	keystroke_i	i	n/a
33.316	0.1355	66632	keystroke_p	p	n/a
33.5115	0.12	67023	keystroke_t	t	n/a
33.782	0.1505	67564	keystroke_Key.space	Key.space	n/a
34.0225	0.105	68045	keystroke_s	s	n/a
34.293	0.1205	68586	keystroke_t	t	n/a
34.4585	0.105	68917	keystroke_i	i	n/a
34.744	0.0905	69488	keystroke_k	k	n/a
34.8645	0.105	69729	keystroke_e	e	n/a
35.135	0.075	70270	keystroke_Key.backspace	Key.backspace	n/a
35.27	0.0905	70540	keystroke_Key.backspace	Key.backspace	n/a
35.706	0.1205	71412	keystroke_c	c	n/a
35.947	0.1055	71894	keystroke_k	k	n/a
36.0825	0.1505	72165	keystroke_e	e	n/a
36.1575	0.151	72315	keystroke_r	r	n/a
36.4735	0.1505	72947	keystroke_s	s	n/a
36.669	0.1355	73338	keystroke_Key.space	Key.space	n/a
36.8345	0.135	73669	keystroke_a	a	n/a
37.0445	0.1355	74089	keystroke_m	m	n/a
37.21	0.1055	74420	keystroke_a	a	n/a
37.4655	0.09	74931	keystroke_t	t	n/a
38.0065	0.105	76013	keystroke_e	e	n/a
38.3065	0.106	76613	keystroke_u	u	n/a
38.4725	0.105	76945	keystroke_r	r	n/a
38.6825	0.136	77365	keystroke_Key.enter	Key.enter	n/a
38.8235	10.1715	77647	prompt	n/a	supplemental street lesson istanbul\n
39.5095	0.0905	79019	keystroke_s	s	n/a
39.7955	0.105	79591	keystroke_u	u	n/a
40.126	0.09	80252	keystroke_p	p	n/a
40.3065	0.09	80613	keystroke_p	p	n/a
40.682	0.12	81364	keystroke_l	l	n/a
43.0135	0.043	86027	keystroke_e	e	n/a
43.1615	0.136	86323	keystroke_m	m	n/a
43.3125	0.09	86625	keystroke_e	e	n/a
43.4925	0.09	86985	keystroke_n	n	n/a
43.6275	0.1205	87255	keystroke_t	t	n/a
43.8685	0.12	87737	keystroke_a	a	n/a
44.0185	0.1655	88037	keystroke_l	l	n/a
44.169	0.1655	88338	keystroke_Key.space	Key.space	n/a
44.47	0.044	88940	keystroke_s	s	n/a
44.71	0.1205	89420	keystroke_t	t	n/a
44.9955	0.09	89991	keystroke_r	r	n/a
45.1305	0.1355	90261	keystroke_e	e	n/a
45.341	0.1205	90682	keystroke_e	e	n/a
45.5065	0.1045	91013	keystroke_t	t	n/a
45.656	0.211	91312	keystroke_Key.space	Key.space	n/a
45.7765	0.1655	91553	keystroke_l	l	n/a
45.897	0.09	91794	keystroke_e	e	n/a
46.1975	0.0755	92395	keystroke_s	s	n/a
46.333	0.06	92666	keystroke_s	s	n/a
46.4235	0.21	92847	keystroke_o	o	n/a
46.5285	0.1805	93057	keystroke_n	n	n/a
46.6335	0.166	93267	keystroke_Key.space	Key.space	n/a
46.9195	0.135	93839	keystroke_i	i	n/a
47.3405	0.135	94681	keystroke_s	s	n/a
47.6105	0.1055	95221	keystroke_t	t	n/a
47.8365	0.12	95673	keystroke_a	a	n/a
47.9415	0.105	95883	keystroke_n	n	n/a
48.212	0.1055	96424	keystroke_b	b	n/a
48.4225	0.105	96845	keystroke_u	u	n/a
48.6325	0.1205	97265	keystroke_l	l	n/a
48.873	0.1205	97746	keystroke_Key.enter	Key.enter	n/a
48.998	8.4085	97996	prompt	n/a	oxide paragraphs twenty hundreds\n
49.82	0.104	99640	keystroke_o	o	n/a
50.1045	0.1505	100209	keystroke_x	x	n/a
50.556	0.106	101112	keystroke_i	i	n/a
50.707	0.194	101414	keystroke_d	d	n/a
50.826	0.1805	101652	keystroke_e	e	n/a
51.021	0.136	102042	keystroke_Key.space	Key.space	n/a
51.292	0.09	102584	keystroke_p	p	n/a
51.472	0.045	102944	keystroke_a	a	n/a
51.998	0.1055	103996	keystroke_r	r	n/a
52.1935	0.09	104387	keystroke_a	a	n/a
52.5995	0.09	105199	keystroke_g	g	n/a
52.8395	0.165	105679	keystroke_r	r	n/a
52.8995	0.1655	105799	keystroke_a	a	n/a
53.0505	0.211	106101	keystroke_p	p	n/a
53.1705	0.165	106341	keystroke_h	h	n/a
53.3365	0.1195	106673	keystroke_s	s	n/a
53.6515	0.1355	107303	keystroke_Key.space	Key.space	n/a
53.892	0.105	107784	keystroke_t	t	n/a
54.1925	0.21	108385	keystroke_w	w	n/a
54.3125	0.1655	108625	keystroke_e	e	n/a
54.523	0.1355	109046	keystroke_n	n	n/a
54.7035	0.105	109407	keystroke_t	t	n/a
54.9435	0.106	109887	keystroke_y	y	n/a
55.1395	0.135	110279	keystroke_Key.space	Key.space	n/a
55.3495	0.2255	110699	keystroke_h	h	n/a
55.4995	0.1655	110999	keystroke_u	u	n/a
55.8005	0.15	111601	keystroke_n	n	n/a
55.9055	0.1345	111811	keystroke_d	d	n/a
56.175	0.1955	112350	keystroke_r	r	n/a
56.2955	0.165	112591	keystroke_e	e	n/a
56.655	0.1195	113310	keystroke_d	d	n/a
56.97	0.1195	113940	keystroke_s	s	n/a
57.2695	0.135	114539	keystroke_Key.enter	Key.enter	n/a
57.2845	0.045	114569	keystroke_]	]	n/a
57.4095	8.7985	114819	prompt	n/a	memorial spam norfolk nicaragua\n
58.064	0.105	116128	keystroke_m	m	n/a
58.244	0.15	116488	keystroke_e	e	n/a
58.6485	0.135	117297	keystroke_m	m	n/a
58.8435	0.0895	117687	keystroke_o	o	n/a
59.608	0.105	119216	keystroke_r	r	n/a
59.788	0.1195	119576	keystroke_i	i	n/a
59.9675	0.135	119935	keystroke_a	a	n/a
60.0875	0.18	120175	keystroke_l	l	n/a
60.1925	0.1505	120385	keystroke_Key.space	Key.space	n/a
60.373	0.1345	120746	keystroke_s	s	n/a
60.5225	0.135	121045	keystroke_p	p	n/a
60.8675	0.12	121735	keystroke_a	a	n/a
60.9725	0.21	121945	keystroke_m	m	n/a
61.1075	0.165	122215	keystroke_Key.space	Key.space	n/a
61.542	0.0605	123084	keystroke_n	n	n/a
61.737	0.12	123474	keystroke_o	o	n/a
61.916	0.1205	123832	keystroke_r	r	n/a
62.3365	0.1195	124673	keystroke_f	f	n/a
62.516	0.121	125032	keystroke_o	o	n/a
62.7565	0.105	125513	keystroke_l	l	n/a
62.996	0.12	125992	keystroke_k	k	n/a
63.3265	0.105	126653	keystroke_Key.space	Key.space	n/a
63.6115	0.135	127223	keystroke_n	n	n/a
63.956	0.15	127912	keystroke_i	i	n/a
64.271	0.1345	128542	keystroke_c	c	n/a
64.6005	0.166	129201	keystroke_a	a	n/a
64.8865	0.1195	129773	keystroke_r	r	n/a
65.111	0.105	130222	keystroke_a	a	n/a
65.366	0.09	130732	keystroke_g	g	n/a
65.605	0.105	131210	keystroke_u	u	n/a
65.831	0.074	131662	keystroke_a	a	n/a
66.1	0.105	132200	keystroke_Key.enter	Key.enter	n/a
66.214	6.4395	132428	prompt	n/a	counters function access covered\n
67.0595	0.105	134119	keystroke_c	c	n/a
67.1945	0.2395	134389	keystroke_o	o	n/a
67.3595	0.1195	134719	keystroke_u	u	n/a
67.614	0.15	135228	keystroke_n	n	n/a
67.719	0.09	135438	keystroke_t	t	n/a
67.8985	0.165	135797	keystroke_e	e	n/a
68.0035	0.12	136007	keystroke_r	r	n/a
68.229	0.1195	136458	keystroke_s	s	n/a
68.3635	0.12	136727	keystroke_Key.space	Key.space	n/a
68.4685	0.105	136937	keystroke_f	f	n/a
68.6035	0.195	137207	keystroke_u	u	n/a
68.724	0.149	137448	keystroke_n	n	n/a
68.903	0.105	137806	keystroke_c	c	n/a
69.158	0.09	138316	keystroke_t	t	n/a
69.263	0.27	138526	keystroke_i	i	n/a
69.353	0.21	138706	keystroke_o	o	n/a
69.443	0.15	138886	keystroke_n	n	n/a
69.548	0.165	139096	keystroke_Key.space	Key.space	n/a
69.683	0.135	139366	keystroke_a	a	n/a
69.9525	0.09	139905	keystroke_c	c	n/a
70.1175	0.105	140235	keystroke_c	c	n/a
70.3575	0.09	140715	keystroke_e	e	n/a
70.5975	0.09	141195	keystroke_s	s	n/a
70.808	0.0895	141616	keystroke_s	s	n/a
70.9425	0.135	141885	keystroke_Key.space	Key.space	n/a
71.1225	0.135	142245	keystroke_c	c	n/a
71.2725	0.1345	142545	keystroke_o	o	n/a
71.497	0.119	142994	keystroke_v	v	n/a
71.752	0.18	143504	keystroke_e	e	n/a
71.887	0.165	143774	keystroke_r	r	n/a
72.021	0.196	144042	keystroke_e	e	n/a
72.261	0.1355	144522	keystroke_d	d	n/a
72.5015	0.15	145003	keystroke_Key.enter	Key.enter	n/a
72.661	6.588	145322	prompt	n/a	constraint cents openings others\n
73.2805	0.045	146561	keystroke_c	c	n/a
73.3405	0.225	146681	keystroke_o	o	n/a
73.4605	0.18	146921	keystroke_n	n	n/a
73.7305	0.1345	147461	keystroke_s	s	n/a
74.0455	0.105	148091	keystroke_t	t	n/a
74.2555	0.135	148511	keystroke_r	r	n/a
74.345	0.1655	148690	keystroke_a	a	n/a
74.5405	0.225	149081	keystroke_i	i	n/a
74.6755	0.165	149351	keystroke_n	n	n/a
74.7955	0.09	149591	keystroke_t	t	n/a
74.9605	0.15	149921	keystroke_Key.space	Key.space	n/a
75.1555	0.119	150311	keystroke_c	c	n/a
75.5445	0.12	151089	keystroke_e	e	n/a
75.7995	0.12	151599	keystroke_n	n	n/a
75.8895	0.1645	151779	keystroke_t	t	n/a
75.9795	0.1495	151959	keystroke_s	s	n/a
76.114	0.2245	152228	keystroke_Key.space	Key.space	n/a
76.265	0.224	152530	keystroke_o	o	n/a
76.3685	0.1505	152737	keystroke_p	p	n/a
76.564	0.105	153128	keystroke_e	e	n/a
76.729	0.195	153458	keystroke_n	n	n/a
76.894	0.225	153788	keystroke_i	i	n/a
77.029	0.195	154058	keystroke_n	n	n/a
77.5835	0.1045	155167	keystroke_g	g	n/a
77.7475	0.15	155495	keystroke_s	s	n/a
77.9425	0.15	155885	keystroke_Key.space	Key.space	n/a
78.2725	0.1355	156545	keystroke_o	o	n/a
78.408	0.09	156816	keystroke_t	t	n/a
78.573	0.12	157146	keystroke_h	h	n/a
78.648	0.135	157296	keystroke_e	e	n/a
78.753	0.1045	157506	keystroke_r	r	n/a
78.978	0.075	157956	keystroke_s	s	n/a
79.1125	0.135	158225	keystroke_Key.enter	Key.enter	n/a
79.252	8.1525	158504	prompt	n/a	killed findarticles synthetic riders\n
79.8915	0.105	159783	keystroke_k	k	n/a
80.1165	0.1505	160233	keystroke_i	i	n/a
80.207	0.12	160414	keystroke_l	l	n/a
80.4165	0.135	160833	keystroke_l	l	n/a
80.5215	0.1945	161043	keystroke_e	e	n/a
80.671	0.18	161342	keystroke_d	d	n/a
80.836	0.135	161672	keystroke_Key.space	Key.space	n/a
81.0915	0.105	162183	keystroke_f	f	n/a
81.301	0.225	162602	keystroke_i	i	n/a
81.421	0.21	162842	keystroke_n	n	n/a
81.751	0.12	163502	keystroke_d	d	n/a
82.1705	0.135	164341	keystroke_a	a	n/a
82.515	0.09	165030	keystroke_r	r	n/a
82.815	0.105	165630	keystroke_t	t	n/a
83.025	0.1195	166050	keystroke_i	i	n/a
83.1595	0.09	166319	keystroke_c	c	n/a
83.3695	0.135	166739	keystroke_l	l	n/a
83.5355	0.2695	167071	keystroke_e	e	n/a
83.67	0.18	167340	keystroke_s	s	n/a
83.97	0.135	167940	keystroke_Key.space	Key.space	n/a
84.165	0.105	168330	keystroke_s	s	n/a
84.33	0.105	168660	keystroke_y	y	n/a
84.675	0.12	169350	keystroke_n	n	n/a
84.9	0.12	169800	keystroke_t	t	n/a
85.1095	0.1045	170219	keystroke_h	h	n/a
85.244	0.09	170488	keystroke_e	e	n/a
85.409	0.12	170818	keystroke_t	t	n/a
85.544	0.1345	171088	keystroke_i	i	n/a
85.7085	0.12	171417	keystroke_c	c	n/a
85.8735	0.15	171747	keystroke_Key.space	Key.space	n/a
86.0835	0.0895	172167	keystroke_r	r	n/a
86.2785	0.135	172557	keystroke_i	i	n/a
86.4285	0.1195	172857	keystroke_d	d	n/a
86.653	0.135	173306	keystroke_e	e	n/a
86.743	0.12	173486	keystroke_r	r	n/a
87.028	0.105	174056	keystroke_s	s	n/a
87.298	0.105	174596	keystroke_Key.enter	Key.enter	n/a
87.4075	8.6025	174815	prompt	n/a	identification aquarium studied poster\n
88.063	0.12	176126	keystroke_i	i	n/a
88.168	0.209	176336	keystroke_d	d	n/a
88.288	0.179	176576	keystroke_e	e	n/a
88.527	0.1195	177054	keystroke_n	n	n/a
88.6615	0.15	177323	keystroke_t	t	n/a
88.8715	0.12	177743	keystroke_i	i	n/a
89.0365	0.105	178073	keystroke_f	f	n/a
89.1565	0.1055	178313	keystroke_i	i	n/a
89.307	0.135	178614	keystroke_c	c	n/a
89.846	0.1355	179692	keystroke_a	a	n/a
90.131	0.09	180262	keystroke_t	t	n/a
90.236	0.315	180472	keystroke_i	i	n/a
90.326	0.255	180652	keystroke_o	o	n/a
90.416	0.195	180832	keystroke_n	n	n/a
90.5205	0.2105	181041	keystroke_Key.space	Key.space	n/a
90.716	0.12	181432	keystroke_a	a	n/a
90.971	0.0745	181942	keystroke_q	q	n/a
91.42	0.09	182840	keystroke_u	u	n/a
91.9905	0.1495	183981	keystroke_a	a	n/a
92.26	0.075	184520	keystroke_r	r	n/a
92.395	0.27	184790	keystroke_i	i	n/a
92.575	0.135	185150	keystroke_u	u	n/a
92.875	0.12	185750	keystroke_m	m	n/a
93.175	0.1045	186350	keystroke_Key.space	Key.space	n/a
93.2645	0.12	186529	keystroke_s	s	n/a
93.5045	0.0895	187009	keystroke_t	t	n/a
93.639	0.12	187278	keystroke_u	u	n/a
93.849	0.1055	187698	keystroke_d	d	n/a
94.0745	0.105	188149	keystroke_i	i	n/a
94.1645	0.105	188329	keystroke_e	e	n/a
94.389	0.105	188778	keystroke_d	d	n/a
94.539	0.1355	189078	keystroke_Key.space	Key.space	n/a
94.8095	0.21	189619	keystroke_p	p	n/a
94.9445	0.1645	189889	keystroke_o	o	n/a
95.0645	0.1345	190129	keystroke_s	s	n/a
95.364	0.105	190728	keystroke_t	t	n/a
95.5585	0.165	191117	keystroke_e	e	n/a
95.6485	0.15	191297	keystroke_r	r	n/a
95.9185	0.0895	191837	keystroke_Key.enter	Key.enter	n/a
96.0135	11.046	192027	prompt	n/a	features it's anthropology becoming\n
96.638	0.09	193276	keystroke_f	f	n/a
96.908	0.09	193816	keystroke_e	e	n/a
97.043	0.135	194086	keystroke_a	a	n/a
97.313	0.075	194626	keystroke_t	t	n/a
97.493	0.1045	194986	keystroke_u	u	n/a
97.5675	0.24	195135	keystroke_r	r	n/a
97.6725	0.21	195345	keystroke_e	e	n/a
97.9125	0.135	195825	keystroke_Key.space	Key.space	n/a
98.5565	0.09	197113	keystroke_Key.backspace	Key.backspace	n/a
98.6615	0.165	197323	keystroke_s	s	n/a
98.8115	0.15	197623	keystroke_Key.space	Key.space	n/a
98.9765	0.1045	197953	keystroke_i	i	n/a
99.126	0.135	198252	keystroke_t	t	n/a
99.4115	0.09	198823	keystroke_/	/	n/a
99.696	0.09	199392	keystroke_s	s	n/a
99.966	0.075	199932	keystroke_Key.backspace	Key.backspace	n/a
100.101	0.075	200202	keystroke_Key.backspace	Key.backspace	n/a
100.417	0.1185	200834	keystroke_'	'	n/a
100.5955	0.12	201191	keystroke_s	s	n/a
101.0905	0.1645	202181	keystroke_Key.space	Key.space	n/a
101.451	0.15	202902	keystroke_a	a	n/a
101.616	0.135	203232	keystroke_n	n	n/a
101.856	0.12	203712	keystroke_t	t	n/a
102.0505	0.12	204101	keystroke_h	h	n/a
102.1855	0.075	204371	keystroke_r	r	n/a
102.425	0.09	204850	keystroke_o	o	n/a
102.68	0.12	205360	keystroke_p	p	n/a
102.83	0.1195	205660	keystroke_o	o	n/a
103.0695	0.09	206139	keystroke_l	l	n/a
103.2945	0.105	206589	keystroke_o	o	n/a
103.4445	0.105	206889	keystroke_g	g	n/a
103.67	0.18	207340	keystroke_y	y	n/a
103.775	0.135	207550	keystroke_Key.space	Key.space	n/a
103.9995	0.075	207999	keystroke_b	b	n/a
104.1045	0.135	208209	keystroke_e	e	n/a
104.4645	0.1345	208929	keystroke_c	c	n/a
104.734	0.105	209468	keystroke_o	o	n/a
105.049	0.09	210098	keystroke_m	m	n/a
105.873	0.105	211746	keystroke_i	i	n/a
106.053	0.12	212106	keystroke_n	n	n/a
106.188	0.106	212376	keystroke_g	g	n/a
106.953	0.105	213906	keystroke_Key.enter	Key.enter	n/a
107.0625	10.476	214125	prompt	n/a	volleyball portion travesti supervisor\n
107.943	0.1045	215886	keystroke_v	v	n/a
108.0775	0.105	216155	keystroke_o	o	n/a
108.317	0.075	216634	keystroke_l	l	n/a
108.467	0.105	216934	keystroke_l	l	n/a
108.587	0.09	217174	keystroke_e	e	n/a
108.752	0.09	217504	keystroke_y	y	n/a
109.112	0.105	218224	keystroke_b	b	n/a
109.412	0.0895	218824	keystroke_o	o	n/a
109.711	0.091	219422	keystroke_l	l	n/a
109.876	0.105	219752	keystroke_l	l	n/a
109.982	0.15	219964	keystroke_Key.space	Key.space	n/a
110.236	0.2105	220472	keystroke_p	p	n/a
110.3715	0.135	220743	keystroke_o	o	n/a
110.5065	0.135	221013	keystroke_r	r	n/a
110.7465	0.0895	221493	keystroke_t	t	n/a
110.851	0.2695	221702	keystroke_i	i	n/a
110.941	0.2845	221882	keystroke_o	o	n/a
111.0155	0.18	222031	keystroke_n	n	n/a
111.1355	0.2105	222271	keystroke_Key.space	Key.space	n/a
112.1555	0.105	224311	keystroke_t	t	n/a
112.4245	0.09	224849	keystroke_r	r	n/a
112.6795	0.1355	225359	keystroke_a	a	n/a
113.024	0.12	226048	keystroke_v	v	n/a
113.37	0.104	226740	keystroke_e	e	n/a
113.7445	0.0895	227489	keystroke_s	s	n/a
114.044	0.09	228088	keystroke_t	t	n/a
114.254	0.2245	228508	keystroke_i	i	n/a
114.389	0.1945	228778	keystroke_Key.space	Key.space	n/a
114.6435	0.105	229287	keystroke_s	s	n/a
114.8835	0.09	229767	keystroke_u	u	n/a
115.363	0.135	230726	keystroke_p	p	n/a
115.603	0.18	231206	keystroke_e	e	n/a
115.738	0.15	231476	keystroke_r	r	n/a
116.2175	0.12	232435	keystroke_v	v	n/a
116.6075	0.12	233215	keystroke_i	i	n/a
116.802	0.135	233604	keystroke_s	s	n/a
117.0425	0.1195	234085	keystroke_o	o	n/a
117.177	0.1055	234354	keystroke_r	r	n/a
117.417	0.12	234834	keystroke_Key.enter	Key.enter	n/a
117.542	7.8975	235084	prompt	n/a	haiti jennifer credit still\n
118.3765	0.015	236753	keystroke_h	h	n/a
118.4365	0.15	236873	keystroke_a	a	n/a
118.7515	0.105	237503	keystroke_i	i	n/a
119.036	0.135	238072	keystroke_t	t	n/a
119.201	0.225	238402	keystroke_i	i	n/a
119.321	0.195	238642	keystroke_Key.space	Key.space	n/a
119.726	0.135	239452	keystroke_j	j	n/a
120.026	0.075	240052	keystroke_e	e	n/a
120.221	0.075	240442	keystroke_n	n	n/a
120.386	0.09	240772	keystroke_n	n	n/a
120.6555	0.135	241311	keystroke_i	i	n/a
120.7755	0.12	241551	keystroke_f	f	n/a
120.9705	0.165	241941	keystroke_e	e	n/a
121.0605	0.135	242121	keystroke_r	r	n/a
121.2105	0.15	242421	keystroke_Key.space	Key.space	n/a
121.39	0.09	242780	keystroke_c	c	n/a
121.6445	0.18	243289	keystroke_r	r	n/a
121.7645	0.1505	243529	keystroke_e	e	n/a
122.2295	0.165	244459	keystroke_i	i	n/a
122.679	0.06	245358	keystroke_Key.backspace	Key.backspace	n/a
123.399	0.135	246798	keystroke_d	d	n/a
123.684	0.1795	247368	keystroke_i	i	n/a
123.8485	0.12	247697	keystroke_t	t	n/a
123.9985	0.15	247997	keystroke_Key.space	Key.space	n/a
124.1335	0.195	248267	keystroke_s	s	n/a
124.2535	0.15	248507	keystroke_t	t	n/a
124.3885	0.195	248777	keystroke_i	i	n/a
124.4635	0.165	248927	keystroke_l	l	n/a
124.7335	0.12	249467	keystroke_l	l	n/a
125.303	0.135	250606	keystroke_Key.enter	Key.enter	n/a
125.4425	6.519	250885	prompt	n/a	composition rosa methods conference\n
126.143	0.0895	252286	keystroke_c	c	n/a
126.2775	0.225	252555	keystroke_o	o	n/a
126.4125	0.15	252825	keystroke_m	m	n/a
126.7275	0.135	253455	keystroke_p	p	n/a
127.177	0.09	254354	keystroke_o	o	n/a
127.387	0.12	254774	keystroke_s	s	n/a
127.582	0.12	255164	keystroke_i	i	n/a
127.807	0.105	255614	keystroke_t	t	n/a
127.897	0.195	255794	keystroke_i	i	n/a
127.972	0.24	255944	keystroke_o	o	n/a
128.062	0.18	256124	keystroke_n	n	n/a
128.182	0.165	256364	keystroke_Key.space	Key.space	n/a
128.377	0.12	256754	keystroke_r	r	n/a
128.617	0.1195	257234	keystroke_o	o	n/a
128.7815	0.2545	257563	keystroke_s	s	n/a
128.9615	0.1645	257923	keystroke_a	a	n/a
129.081	0.15	258162	keystroke_Key.space	Key.space	n/a
129.336	0.105	258672	keystroke_m	m	n/a
129.426	0.105	258852	keystroke_e	e	n/a
129.621	0.09	259242	keystroke_t	t	n/a
129.726	0.2095	259452	keystroke_h	h	n/a
129.816	0.195	259632	keystroke_o	o	n/a
129.9505	0.166	259901	keystroke_d	d	n/a
130.0565	0.135	260113	keystroke_s	s	n/a
130.1765	0.1345	260353	keystroke_Key.space	Key.space	n/a
130.341	0.12	260682	keystroke_c	c	n/a
130.446	0.18	260892	keystroke_o	o	n/a
130.551	0.15	261102	keystroke_n	n	n/a
130.671	0.09	261342	keystroke_f	f	n/a
130.836	0.15	261672	keystroke_e	e	n/a
130.956	0.12	261912	keystroke_r	r	n/a
131.211	0.105	262422	keystroke_e	e	n/a
131.376	0.1645	262752	keystroke_n	n	n/a
131.5555	0.15	263111	keystroke_c	c	n/a
131.6455	0.15	263291	keystroke_e	e	n/a
131.8255	0.135	263651	keystroke_Key.enter	Key.enter	n/a
131.9655	5.6635	263931	prompt	n/a	waste seconds survivor plot\n
132.59	0.165	265180	keystroke_w	w	n/a
132.71	0.2095	265420	keystroke_a	a	n/a
132.8595	0.135	265719	keystroke_s	s	n/a
133.0995	0.15	266199	keystroke_t	t	n/a
133.1895	0.1495	266379	keystroke_e	e	n/a
133.369	0.18	266738	keystroke_Key.space	Key.space	n/a
133.504	0.105	267008	keystroke_s	s	n/a
133.714	0.06	267428	keystroke_e	e	n/a
133.909	0.09	267818	keystroke_c	c	n/a
134.044	0.225	268088	keystroke_o	o	n/a
134.179	0.165	268358	keystroke_n	n	n/a
134.284	0.1645	268568	keystroke_d	d	n/a
134.3735	0.135	268747	keystroke_s	s	n/a
134.5235	0.15	269047	keystroke_Key.space	Key.space	n/a
134.6885	0.135	269377	keystroke_s	s	n/a
134.9435	0.1205	269887	keystroke_u	u	n/a
135.094	0.105	270188	keystroke_r	r	n/a
135.379	0.105	270758	keystroke_v	v	n/a
135.634	0.105	271268	keystroke_i	i	n/a
135.813	0.1355	271626	keystroke_v	v	n/a
136.0835	0.134	272167	keystroke_o	o	n/a
136.2185	0.089	272437	keystroke_r	r	n/a
136.368	0.105	272736	keystroke_Key.space	Key.space	n/a
136.728	0.105	273456	keystroke_p	p	n/a
136.923	0.105	273846	keystroke_l	l	n/a
137.148	0.12	274296	keystroke_o	o	n/a
137.283	0.1495	274566	keystroke_t	t	n/a
137.5075	0.12	275015	keystroke_Key.enter	Key.enter	n/a
137.632	6.954	275264	prompt	n/a	suddenly journalism exemption nine\n
138.272	0.09	276544	keystroke_s	s	n/a
138.437	0.105	276874	keystroke_u	u	n/a
138.572	0.06	277144	keystroke_d	d	n/a
138.707	0.105	277414	keystroke_d	d	n/a
139.112	0.06	278224	keystroke_e	e	n/a
139.262	0.1195	278524	keystroke_n	n	n/a
139.457	0.1805	278914	keystroke_l	l	n/a
139.5925	0.239	279185	keystroke_y	y	n/a
139.7115	0.195	279423	keystroke_Key.space	Key.space	n/a
139.9965	0.12	279993	keystroke_j	j	n/a
140.132	0.224	280264	keystroke_o	o	n/a
140.251	0.151	280502	keystroke_u	u	n/a
140.387	0.074	280774	keystroke_r	r	n/a
140.566	0.12	281132	keystroke_n	n	n/a
140.731	0.105	281462	keystroke_a	a	n/a
140.8815	0.1495	281763	keystroke_l	l	n/a
140.986	0.18	281972	keystroke_i	i	n/a
141.166	0.09	282332	keystroke_s	s	n/a
141.301	0.165	282602	keystroke_m	m	n/a
141.406	0.21	282812	keystroke_Key.space	Key.space	n/a
141.601	0.105	283202	keystroke_e	e	n/a
142.306	0.1345	284612	keystroke_x	x	n/a
142.6055	0.09	285211	keystroke_e	e	n/a
142.7855	0.1045	285571	keystroke_m	m	n/a
142.9505	0.134	285901	keystroke_p	p	n/a
143.1145	0.105	286229	keystroke_t	t	n/a
143.2795	0.33	286559	keystroke_i	i	n/a
143.3395	0.285	286679	keystroke_o	o	n/a
143.4595	0.166	286919	keystroke_n	n	n/a
143.5645	0.1805	287129	keystroke_Key.space	Key.space	n/a
143.8495	0.165	287699	keystroke_n	n	n/a
143.9995	0.2545	287999	keystroke_i	i	n/a
144.149	0.15	288298	keystroke_n	n	n/a
144.269	0.105	288538	keystroke_e	e	n/a
144.4495	0.135	288899	keystroke_Key.enter	Key.enter	n/a
144.589	5.425	289178	prompt	n/a	cope backed profits receives\n
145.2745	0.105	290549	keystroke_c	c	n/a
145.4095	0.195	290819	keystroke_o	o	n/a
145.5145	0.15	291029	keystroke_p	p	n/a
145.6345	0.105	291269	keystroke_e	e	n/a
145.7545	0.1945	291509	keystroke_Key.space	Key.space	n/a
145.889	0.12	291778	keystroke_b	b	n/a
145.994	0.15	291988	keystroke_a	a	n/a
146.159	0.105	292318	keystroke_c	c	n/a
146.324	0.105	292648	keystroke_k	k	n/a
146.384	0.18	292768	keystroke_e	e	n/a
146.504	0.15	293008	keystroke_d	d	n/a
146.639	0.2245	293278	keystroke_Key.space	Key.space	n/a
146.759	0.1945	293518	keystroke_p	p	n/a
146.9385	0.105	293877	keystroke_r	r	n/a
147.0585	0.105	294117	keystroke_o	o	n/a
147.1785	0.09	294357	keystroke_f	f	n/a
147.359	0.1045	294718	keystroke_i	i	n/a
147.4335	0.1945	294867	keystroke_t	t	n/a
147.553	0.15	295106	keystroke_s	s	n/a
147.703	0.1495	295406	keystroke_Key.space	Key.space	n/a
147.9725	0.1955	295945	keystroke_r	r	n/a
148.1075	0.2105	296215	keystroke_e	e	n/a
148.603	0.03	297206	keystroke_c	c	n/a
148.918	0.1495	297836	keystroke_e	e	n/a
149.158	0.135	298316	keystroke_i	i	n/a
149.338	0.089	298676	keystroke_v	v	n/a
149.532	0.211	299064	keystroke_e	e	n/a
149.622	0.21	299244	keystroke_s	s	n/a
149.862	0.15	299724	keystroke_Key.enter	Key.enter	n/a
150.017	9.9075	300034	prompt	n/a	difficult desktop ended magnificent\n
150.987	0.045	301974	keystroke_i	i	n/a
151.242	0.0745	302484	keystroke_Key.backspace	Key.backspace	n/a
151.451	0.12	302902	keystroke_d	d	n/a
151.631	0.09	303262	keystroke_i	i	n/a
151.796	0.105	303592	keystroke_f	f	n/a
151.961	0.09	303922	keystroke_f	f	n/a
152.1415	0.135	304283	keystroke_i	i	n/a
152.3065	0.134	304613	keystroke_c	c	n/a
152.5015	0.075	305003	keystroke_u	u	n/a
153.521	0.134	307042	keystroke_l	l	n/a
153.64	0.136	307280	keystroke_t	t	n/a
153.806	0.149	307612	keystroke_Key.space	Key.space	n/a
154.1805	0.0895	308361	keystroke_d	d	n/a
154.36	0.2245	308720	keystroke_e	e	n/a
154.495	0.1645	308990	keystroke_s	s	n/a
154.6295	0.105	309259	keystroke_k	k	n/a
154.8245	0.12	309649	keystroke_t	t	n/a
154.9455	0.254	309891	keystroke_o	o	n/a
155.0645	0.195	310129	keystroke_p	p	n/a
155.1545	0.195	310309	keystroke_Key.space	Key.space	n/a
155.3345	0.0295	310669	keystroke_a	a	n/a
155.709	0.0605	311418	keystroke_Key.backspace	Key.backspace	n/a
155.8145	0.12	311629	keystroke_e	e	n/a
156.01	0.105	312020	keystroke_n	n	n/a
156.1295	0.21	312259	keystroke_d	d	n/a
156.2945	0.255	312589	keystroke_e	e	n/a
156.5045	0.12	313009	keystroke_d	d	n/a
156.7135	0.136	313427	keystroke_Key.space	Key.space	n/a
157.0145	0.12	314029	keystroke_m	m	n/a
157.1345	0.105	314269	keystroke_a	a	n/a
157.329	0.1045	314658	keystroke_g	g	n/a
157.6885	0.12	315377	keystroke_n	n	n/a
157.9435	0.12	315887	keystroke_i	i	n/a
158.213	0.165	316426	keystroke_f	f	n/a
158.5575	0.121	317115	keystroke_i	i	n/a
158.723	0.12	317446	keystroke_c	c	n/a
159.218	0.105	318436	keystroke_e	e	n/a
159.443	0.12	318886	keystroke_n	n	n/a
159.593	0.09	319186	keystroke_t	t	n/a
159.803	0.12	319606	keystroke_Key.enter	Key.enter	n/a
159.929	5.8135	319858	prompt	n/a	gloves index cedar joint\n
160.912	0.09	321824	keystroke_g	g	n/a
161.047	0.06	322094	keystroke_l	l	n/a
161.1965	0.135	322393	keystroke_o	o	n/a
161.2865	0.18	322573	keystroke_v	v	n/a
161.4065	0.18	322813	keystroke_e	e	n/a
161.4965	0.135	322993	keystroke_s	s	n/a
161.5565	0.195	323113	keystroke_Key.space	Key.space	n/a
161.6765	0.165	323353	keystroke_i	i	n/a
161.7525	0.179	323505	keystroke_n	n	n/a
161.8865	0.18	323773	keystroke_d	d	n/a
162.0065	0.1655	324013	keystroke_e	e	n/a
162.772	0.164	325544	keystroke_x	x	n/a
163.041	0.1505	326082	keystroke_Key.space	Key.space	n/a
163.371	0.135	326742	keystroke_c	c	n/a
163.761	0.105	327522	keystroke_e	e	n/a
164.016	0.1355	328032	keystroke_d	d	n/a
164.1515	0.24	328303	keystroke_a	a	n/a
164.3465	0.135	328693	keystroke_r	r	n/a
164.5115	0.15	329023	keystroke_Key.space	Key.space	n/a
164.7065	0.2095	329413	keystroke_j	j	n/a
164.871	0.3	329742	keystroke_o	o	n/a
165.051	0.24	330102	keystroke_i	i	n/a
165.186	0.15	330372	keystroke_n	n	n/a
165.351	0.105	330702	keystroke_t	t	n/a
165.606	0.135	331212	keystroke_Key.enter	Key.enter	n/a
165.745	6.9545	331490	prompt	n/a	immediate variable jamie achieving\n
166.431	0.1195	332862	keystroke_i	i	n/a
166.8495	0.106	333699	keystroke_m	m	n/a
167.2995	0.105	334599	keystroke_m	m	n/a
167.5845	0.09	335169	keystroke_e	e	n/a
167.7645	0.12	335529	keystroke_d	d	n/a
167.9295	0.135	335859	keystroke_i	i	n/a
167.9895	0.1205	335979	keystroke_a	a	n/a
168.155	0.164	336310	keystroke_t	t	n/a
168.275	0.12	336550	keystroke_e	e	n/a
168.35	0.134	336700	keystroke_Key.space	Key.space	n/a
168.529	0.106	337058	keystroke_v	v	n/a
168.74	0.1795	337480	keystroke_a	a	n/a
168.9045	0.105	337809	keystroke_r	r	n/a
169.0845	0.15	338169	keystroke_i	i	n/a
169.2355	0.0885	338471	keystroke_a	a	n/a
169.414	0.1795	338828	keystroke_b	b	n/a
169.534	0.1355	339068	keystroke_l	l	n/a
169.6385	0.09	339277	keystroke_e	e	n/a
169.7735	0.135	339547	keystroke_Key.space	Key.space	n/a
169.9835	0.105	339967	keystroke_j	j	n/a
170.1485	0.091	340297	keystroke_a	a	n/a
170.3285	0.15	340657	keystroke_m	m	n/a
170.4635	0.165	340927	keystroke_i	i	n/a
170.613	0.09	341226	keystroke_e	e	n/a
170.748	0.135	341496	keystroke_Key.space	Key.space	n/a
170.898	0.1205	341796	keystroke_a	a	n/a
171.0935	0.135	342187	keystroke_c	c	n/a
171.484	0.105	342968	keystroke_h	h	n/a
171.709	0.1195	343418	keystroke_i	i	n/a
171.8135	0.09	343627	keystroke_e	e	n/a
172.0085	0.105	344017	keystroke_v	v	n/a
172.1285	0.2095	344257	keystroke_i	i	n/a
172.248	0.1355	344496	keystroke_n	n	n/a
172.353	0.1055	344706	keystroke_g	g	n/a
172.5635	0.135	345127	keystroke_Key.enter	Key.enter	n/a
172.703	7.029	345406	prompt	n/a	complications profits selling rogers\n
173.3285	0.1045	346657	keystroke_c	c	n/a
173.463	0.135	346926	keystroke_o	o	n/a
173.553	0.105	347106	keystroke_m	m	n/a
173.763	0.18	347526	keystroke_p	p	n/a
173.853	0.105	347706	keystroke_l	l	n/a
174.093	0.105	348186	keystroke_i	i	n/a
174.138	0.165	348276	keystroke_c	c	n/a
174.243	0.165	348486	keystroke_a	a	n/a
174.468	0.105	348936	keystroke_t	t	n/a
174.543	0.2395	349086	keystroke_i	i	n/a
174.633	0.2095	349266	keystroke_o	o	n/a
174.708	0.1495	349416	keystroke_n	n	n/a
174.8125	0.105	349625	keystroke_s	s	n/a
174.9025	0.12	349805	keystroke_Key.space	Key.space	n/a
175.0525	0.12	350105	keystroke_p	p	n/a
175.1875	0.105	350375	keystroke_r	r	n/a
175.3075	0.1195	350615	keystroke_i	i	n/a
175.457	0.105	350914	keystroke_f	f	n/a
175.907	0.06	351814	keystroke_Key.backspace	Key.backspace	n/a
176.027	0.0595	352054	keystroke_Key.backspace	Key.backspace	n/a
176.2215	0.09	352443	keystroke_o	o	n/a
176.3875	0.119	352775	keystroke_f	f	n/a
176.6565	0.105	353313	keystroke_i	i	n/a
176.731	0.196	353462	keystroke_t	t	n/a
176.851	0.18	353702	keystroke_s	s	n/a
177.046	0.12	354092	keystroke_Key.space	Key.space	n/a
177.391	0.09	354782	keystroke_s	s	n/a
177.602	0.059	355204	keystroke_e	e	n/a
177.8565	0.074	355713	keystroke_l	l	n/a
178.021	0.1945	356042	keystroke_l	l	n/a
178.1405	0.195	356281	keystroke_i	i	n/a
178.2465	0.134	356493	keystroke_n	n	n/a
178.3505	0.075	356701	keystroke_g	g	n/a
178.4855	0.165	356971	keystroke_Key.space	Key.space	n/a
178.6365	0.089	357273	keystroke_r	r	n/a
178.7705	0.121	357541	keystroke_o	o	n/a
178.9065	0.0885	357813	keystroke_g	g	n/a
179.055	0.1655	358110	keystroke_e	e	n/a
179.1755	0.12	358351	keystroke_r	r	n/a
179.4455	0.12	358891	keystroke_s	s	n/a
179.6255	0.105	359251	keystroke_Key.enter	Key.enter	n/a
179.735	8.0945	359470	prompt	n/a	beads for profiles movie\n
180.5105	0.09	361021	keystroke_n	n	n/a
180.78	0.15	361560	keystroke_e	e	n/a
180.915	0.18	361830	keystroke_a	a	n/a
181.08	0.195	362160	keystroke_d	d	n/a
181.2	0.105	362400	keystroke_s	s	n/a
181.335	0.1645	362670	keystroke_Key.space	Key.space	n/a
181.5295	0.135	363059	keystroke_f	f	n/a
181.6945	0.1205	363389	keystroke_o	o	n/a
182.0845	0.075	364169	keystroke_Key.backspace	Key.backspace	n/a
182.2345	0.06	364469	keystroke_Key.backspace	Key.backspace	n/a
182.3545	0.06	364709	keystroke_Key.backspace	Key.backspace	n/a
182.5045	0.06	365009	keystroke_Key.backspace	Key.backspace	n/a
182.6395	0.06	365279	keystroke_Key.backspace	Key.backspace	n/a
182.7745	0.06	365549	keystroke_Key.backspace	Key.backspace	n/a
182.9095	0.075	365819	keystroke_Key.backspace	Key.backspace	n/a
183.1195	0.06	366239	keystroke_Key.backspace	Key.backspace	n/a
184.019	0.105	368038	keystroke_b	b	n/a
184.184	0.12	368368	keystroke_e	e	n/a
184.364	0.135	368728	keystroke_a	a	n/a
184.5735	0.1045	369147	keystroke_d	d	n/a
184.768	0.135	369536	keystroke_s	s	n/a
184.963	0.15	369926	keystroke_Key.space	Key.space	n/a
185.098	0.135	370196	keystroke_f	f	n/a
185.278	0.1355	370556	keystroke_o	o	n/a
185.3685	0.105	370737	keystroke_r	r	n/a
185.5035	0.12	371007	keystroke_Key.space	Key.space	n/a
185.8935	0.105	371787	keystroke_p	p	n/a
186.0885	0.09	372177	keystroke_r	r	n/a
186.2085	0.09	372417	keystroke_o	o	n/a
186.3435	0.1045	372687	keystroke_f	f	n/a
186.508	0.1945	373016	keystroke_i	i	n/a
186.598	0.1645	373196	keystroke_l	l	n/a
186.6875	0.1805	373375	keystroke_e	e	n/a
186.7475	0.1805	373495	keystroke_s	s	n/a
186.898	0.135	373796	keystroke_Key.space	Key.space	n/a
187.1525	0.166	374305	keystroke_m	m	n/a
187.2125	0.151	374425	keystroke_o	o	n/a
187.3635	0.09	374727	keystroke_v	v	n/a
187.4685	0.105	374937	keystroke_i	i	n/a
187.5885	0.0745	375177	keystroke_e	e	n/a
187.723	0.105	375446	keystroke_Key.enter	Key.enter	n/a
187.832	6.7595	375664	prompt	n/a	atmosphere jean beneath roughly\n
188.547	0.091	377094	keystroke_a	a	n/a
188.8925	0.075	377785	keystroke_t	t	n/a
189.1325	0.09	378265	keystroke_m	m	n/a
189.3575	0.075	378715	keystroke_o	o	n/a
189.4775	0.105	378955	keystroke_s	s	n/a
189.6425	0.105	379285	keystroke_p	p	n/a
190.0015	0.1055	380003	keystroke_h	h	n/a
190.227	0.15	380454	keystroke_e	e	n/a
190.347	0.165	380694	keystroke_r	r	n/a
190.482	0.1495	380964	keystroke_e	e	n/a
190.6465	0.1355	381293	keystroke_Key.space	Key.space	n/a
190.767	0.15	381534	keystroke_j	j	n/a
190.9315	0.1345	381863	keystroke_e	e	n/a
191.0065	0.1655	382013	keystroke_a	a	n/a
191.141	0.165	382282	keystroke_n	n	n/a
191.246	0.15	382492	keystroke_Key.space	Key.space	n/a
191.546	0.09	383092	keystroke_b	b	n/a
191.712	0.105	383424	keystroke_e	e	n/a
192.3565	0.105	384713	keystroke_n	n	n/a
192.5215	0.165	385043	keystroke_e	e	n/a
192.6115	0.15	385223	keystroke_a	a	n/a
192.8665	0.105	385733	keystroke_t	t	n/a
192.9565	0.2095	385913	keystroke_h	h	n/a
193.061	0.179	386122	keystroke_Key.space	Key.space	n/a
193.315	0.121	386630	keystroke_r	r	n/a
193.465	0.21	386930	keystroke_o	o	n/a
193.54	0.15	387080	keystroke_u	u	n/a
193.691	0.089	387382	keystroke_g	g	n/a
193.81	0.105	387620	keystroke_h	h	n/a
193.99	0.2405	387980	keystroke_l	l	n/a
194.1405	0.12	388281	keystroke_y	y	n/a
194.4855	0.105	388971	keystroke_Key.enter	Key.enter	n/a
194.5955	11.603	389191	prompt	n/a	wallpaper webpage documentation meter\n
195.2505	0.165	390501	keystroke_w	w	n/a
195.3555	0.195	390711	keystroke_a	a	n/a
195.5355	0.06	391071	keystroke_l	l	n/a
195.6555	0.09	391311	keystroke_l	l	n/a
196.015	0.105	392030	keystroke_[	[	n/a
196.135	0.1345	392270	keystroke_a	a	n/a
196.3295	0.105	392659	keystroke_[	[	n/a
196.6895	0.06	393379	keystroke_Key.backspace	Key.backspace	n/a
196.8245	0.075	393649	keystroke_Key.backspace	Key.backspace	n/a
196.9445	0.075	393889	keystroke_Key.backspace	Key.backspace	n/a
197.3645	0.105	394729	keystroke_p	p	n/a
197.589	0.135	395178	keystroke_a	a	n/a
197.844	0.12	395688	keystroke_p	p	n/a
198.039	0.15	396078	keystroke_e	e	n/a
198.129	0.195	396258	keystroke_r	r	n/a
198.339	0.105	396678	keystroke_Key.space	Key.space	n/a
198.459	0.2095	396918	keystroke_w	w	n/a
198.6085	0.15	397217	keystroke_e	e	n/a
198.9085	0.09	397817	keystroke_b	b	n/a
199.2385	0.06	398477	keystroke_[	[	n/a
199.674	0.06	399348	keystroke_Key.backspace	Key.backspace	n/a
199.914	0.1045	399828	keystroke_p	p	n/a
200.0035	0.12	400007	keystroke_a	a	n/a
200.2735	0.105	400547	keystroke_g	g	n/a
200.4985	0.1045	400997	keystroke_e	e	n/a
200.678	0.15	401356	keystroke_Key.space	Key.space	n/a
200.873	0.135	401746	keystroke_d	d	n/a
201.053	0.075	402106	keystroke_p	p	n/a
201.068	0.075	402136	keystroke_o	o	n/a
201.188	0.105	402376	keystroke_c	c	n/a
201.6375	0.06	403275	keystroke_Key.backspace	Key.backspace	n/a
201.7725	0.09	403545	keystroke_Key.backspace	Key.backspace	n/a
201.8775	0.1055	403755	keystroke_Key.backspace	Key.backspace	n/a
202.253	0.1045	404506	keystroke_o	o	n/a
202.3875	0.105	404775	keystroke_c	c	n/a
202.5075	0.135	405015	keystroke_c	c	n/a
202.8375	0.06	405675	keystroke_u	u	n/a
203.0775	0.045	406155	keystroke_Key.backspace	Key.backspace	n/a
203.1975	0.075	406395	keystroke_Key.backspace	Key.backspace	n/a
203.618	0.045	407236	keystroke_u	u	n/a
203.9325	0.1045	407865	keystroke_m	m	n/a
204.052	0.12	408104	keystroke_e	e	n/a
204.217	0.09	408434	keystroke_n	n	n/a
204.322	0.105	408644	keystroke_t	t	n/a
204.487	0.12	408974	keystroke_a	a	n/a
204.727	0.075	409454	keystroke_t	t	n/a
204.832	0.3005	409664	keystroke_i	i	n/a
204.907	0.2095	409814	keystroke_o	o	n/a
205.0115	0.181	410023	keystroke_n	n	n/a
205.1025	0.149	410205	keystroke_Key.space	Key.space	n/a
205.3725	0.104	410745	keystroke_m	m	n/a
205.4325	0.1195	410865	keystroke_e	e	n/a
205.672	0.089	411344	keystroke_t	t	n/a
205.822	0.179	411644	keystroke_e	e	n/a
205.941	0.135	411882	keystroke_r	r	n/a
206.091	0.105	412182	keystroke_Key.enter	Key.enter	n/a
206.2015	12.8785	412403	prompt	n/a	removing qatar alcohol inputs\n
206.946	0.06	413892	keystroke_e	e	n/a
207.291	0.06	414582	keystroke_Key.backspace	Key.backspace	n/a
207.381	0.135	414762	keystroke_r	r	n/a
207.456	0.135	414912	keystroke_e	e	n/a
207.7405	0.1945	415481	keystroke_o	o	n/a
208.1005	0.06	416201	keystroke_Key.backspace	Key.backspace	n/a
208.3555	0.18	416711	keystroke_m	m	n/a
208.4755	0.135	416951	keystroke_o	o	n/a
208.5955	0.09	417191	keystroke_v	v	n/a
208.7305	0.18	417461	keystroke_i	i	n/a
208.8205	0.15	417641	keystroke_n	n	n/a
208.9555	0.09	417911	keystroke_g	g	n/a
209.1205	0.15	418241	keystroke_Key.space	Key.space	n/a
209.8405	0.075	419681	keystroke_Key.backspace	Key.backspace	n/a
209.9455	0.12	419891	keystroke_w	w	n/a
210.3955	0.075	420791	keystroke_Key.backspace	Key.backspace	n/a
210.575	0.135	421150	keystroke_Key.space	Key.space	n/a
210.755	0.15	421510	keystroke_w	w	n/a
211.055	0.09	422110	keystroke_a	a	n/a
211.37	0.0745	422740	keystroke_Key.backspace	Key.backspace	n/a
211.5195	0.075	423039	keystroke_Key.backspace	Key.backspace	n/a
211.6995	0.09	423399	keystroke_q	q	n/a
212.0155	0.135	424031	keystroke_a	a	n/a
212.4055	0.12	424811	keystroke_t	t	n/a
212.7205	0.15	425441	keystroke_s	s	n/a
213.095	0.06	426190	keystroke_r	r	n/a
213.395	0.075	426790	keystroke_Key.backspace	Key.backspace	n/a
213.545	0.09	427090	keystroke_Key.backspace	Key.backspace	n/a
214.654	0.105	429308	keystroke_a	a	n/a
215.09	0.089	430180	keystroke_r	r	n/a
215.6735	0.151	431347	keystroke_Key.space	Key.space	n/a
215.9135	0.1055	431827	keystroke_a	a	n/a
216.139	0.135	432278	keystroke_l	l	n/a
216.5735	0.12	433147	keystroke_c	c	n/a
216.7535	0.12	433507	keystroke_o	o	n/a
216.9935	0.12	433987	keystroke_h	h	n/a
217.2035	0.105	434407	keystroke_o	o	n/a
217.413	0.105	434826	keystroke_l	l	n/a
217.608	0.12	435216	keystroke_Key.space	Key.space	n/a
217.758	0.255	435516	keystroke_i	i	n/a
217.938	0.135	435876	keystroke_n	n	n/a
218.3135	0.225	436627	keystroke_p	p	n/a
218.4185	0.165	436837	keystroke_u	u	n/a
218.5385	0.21	437077	keystroke_t	t	n/a
218.6735	0.165	437347	keystroke_s	s	n/a
218.9135	0.165	437827	keystroke_Key.enter	Key.enter	n/a
219.083	4.99	438166	prompt	n/a	pointed cancel bold exam\n
219.768	0.18	439536	keystroke_p	p	n/a
219.858	0.1495	439716	keystroke_o	o	n/a
220.1275	0.21	440255	keystroke_i	i	n/a
220.2325	0.165	440465	keystroke_n	n	n/a
220.3225	0.135	440645	keystroke_t	t	n/a
220.4275	0.2395	440855	keystroke_e	e	n/a
220.607	0.15	441214	keystroke_d	d	n/a
220.772	0.1655	441544	keystroke_Key.space	Key.space	n/a
220.9225	0.21	441845	keystroke_c	c	n/a
221.0575	0.135	442115	keystroke_a	a	n/a
221.357	0.18	442714	keystroke_n	n	n/a
221.522	0.18	443044	keystroke_c	c	n/a
221.642	0.18	443284	keystroke_e	e	n/a
221.807	0.18	443614	keystroke_l	l	n/a
221.927	0.195	443854	keystroke_Key.space	Key.space	n/a
222.092	0.24	444184	keystroke_b	b	n/a
222.272	0.18	444544	keystroke_o	o	n/a
222.557	0.12	445114	keystroke_l	l	n/a
222.662	0.1505	445324	keystroke_d	d	n/a
222.7975	0.1645	445595	keystroke_Key.space	Key.space	n/a
223.022	0.135	446044	keystroke_e	e	n/a
223.322	0.12	446644	keystroke_x	x	n/a
223.502	0.12	447004	keystroke_a	a	n/a
223.712	0.12	447424	keystroke_m	m	n/a
223.967	0.1045	447934	keystroke_Key.enter	Key.enter	n/a
224.042	0.0445	448084	keystroke_\	\	n/a
224.0765	9.8645	448153	prompt	n/a	combine thereof physicians conclude\n
224.8815	0.135	449763	keystroke_c	c	n/a
225.0015	0.18	450003	keystroke_o	o	n/a
225.0915	0.12	450183	keystroke_m	m	n/a
225.3915	0.09	450783	keystroke_b	b	n/a
225.5865	0.195	451173	keystroke_i	i	n/a
225.661	0.1655	451322	keystroke_n	n	n/a
225.8115	0.134	451623	keystroke_e	e	n/a
225.9755	0.135	451951	keystroke_Key.space	Key.space	n/a
226.2155	0.09	452431	keystroke_t	t	n/a
226.3505	0.1205	452701	keystroke_h	h	n/a
226.456	0.105	452912	keystroke_e	e	n/a
226.531	0.18	453062	keystroke_r	r	n/a
226.636	0.12	453272	keystroke_e	e	n/a
227.131	0.1495	454262	keystroke_o	o	n/a
227.4305	0.12	454861	keystroke_f	f	n/a
227.6105	0.12	455221	keystroke_Key.space	Key.space	n/a
227.8655	0.135	455731	keystroke_p	p	n/a
228.1655	0.105	456331	keystroke_h	h	n/a
228.4655	0.135	456931	keystroke_y	y	n/a
228.6905	0.1355	457381	keystroke_s	s	n/a
229.051	0.105	458102	keystroke_i	i	n/a
229.291	0.1345	458582	keystroke_c	c	n/a
229.4105	0.135	458821	keystroke_i	i	n/a
229.5755	0.135	459151	keystroke_a	a	n/a
229.6955	0.135	459391	keystroke_n	n	n/a
229.8605	0.0595	459721	keystroke_d	d	n/a
229.8755	0.0455	459751	keystroke_s	s	n/a
229.935	0.135	459870	keystroke_Key.space	Key.space	n/a
230.13	0.165	460260	keystroke_c	c	n/a
230.235	0.18	460470	keystroke_o	o	n/a
230.67	0.06	461340	keystroke_Key.backspace	Key.backspace	n/a
230.805	0.0595	461610	keystroke_Key.backspace	Key.backspace	n/a
230.9555	0.0745	461911	keystroke_Key.backspace	Key.backspace	n/a
231.105	0.105	462210	keystroke_Key.backspace	Key.backspace	n/a
231.405	0.075	462810	keystroke_Key.backspace	Key.backspace	n/a
232.2895	0.12	464579	keystroke_s	s	n/a
232.4545	0.165	464909	keystroke_Key.space	Key.space	n/a
232.6045	0.135	465209	keystroke_c	c	n/a
232.7245	0.18	465449	keystroke_o	o	n/a
232.8145	0.15	465629	keystroke_n	n	n/a
232.9795	0.09	465959	keystroke_c	c	n/a
233.1145	0.195	466229	keystroke_l	l	n/a
233.2195	0.15	466439	keystroke_u	u	n/a
233.3545	0.21	466709	keystroke_d	d	n/a
233.5045	0.165	467009	keystroke_e	e	n/a
233.8045	0.1345	467609	keystroke_Key.enter	Key.enter	n/a
233.9445	8.0195	467889	prompt	n/a	womens unwrap casa hudson\n
234.8095	0.104	469619	keystroke_w	w	n/a
234.8985	0.255	469797	keystroke_o	o	n/a
235.0335	0.165	470067	keystroke_m	m	n/a
235.2135	0.12	470427	keystroke_e	e	n/a
235.2285	0.075	470457	keystroke_r	r	n/a
235.3485	0.135	470697	keystroke_n	n	n/a
235.6935	0.1195	471387	keystroke_s	s	n/a
236.083	0.075	472166	keystroke_Key.space	Key.space	n/a
236.338	0.0455	472676	keystroke_Key.backspace	Key.backspace	n/a
236.4735	0.075	472947	keystroke_Key.backspace	Key.backspace	n/a
236.6235	0.09	473247	keystroke_Key.backspace	Key.backspace	n/a
237.178	0.06	474356	keystroke_Key.backspace	Key.backspace	n/a
237.553	0.09	475106	keystroke_n	n	n/a
237.7785	0.135	475557	keystroke_s	s	n/a
237.8985	0.135	475797	keystroke_Key.space	Key.space	n/a
238.1235	0.225	476247	keystroke_u	u	n/a
238.2435	0.15	476487	keystroke_n	n	n/a
238.4385	0.2245	476877	keystroke_w	w	n/a
238.618	0.165	477236	keystroke_r	r	n/a
238.888	0.15	477776	keystroke_a	a	n/a
239.053	0.225	478106	keystroke_p	p	n/a
239.188	0.195	478376	keystroke_Key.space	Key.space	n/a
239.443	0.12	478886	keystroke_c	c	n/a
239.6675	0.135	479335	keystroke_a	a	n/a
239.878	0.135	479756	keystroke_s	s	n/a
240.058	0.15	480116	keystroke_a	a	n/a
240.238	0.135	480476	keystroke_Key.space	Key.space	n/a
240.448	0.105	480896	keystroke_h	h	n/a
240.703	0.12	481406	keystroke_u	u	n/a
240.928	0.105	481856	keystroke_d	d	n/a
241.213	0.1345	482426	keystroke_s	s	n/a
241.3625	0.225	482725	keystroke_o	o	n/a
241.4975	0.15	482995	keystroke_n	n	n/a
241.8275	0.1345	483655	keystroke_Key.enter	Key.enter	n/a
241.969	7.7785	483938	prompt	n/a	pride rear logitech webshots\n
242.742	0.12	485484	keystroke_p	p	n/a
242.922	0.09	485844	keystroke_r	r	n/a
243.057	0.1355	486114	keystroke_i	i	n/a
243.2075	0.134	486415	keystroke_d	d	n/a
243.2975	0.15	486595	keystroke_e	e	n/a
243.5075	0.135	487015	keystroke_Key.space	Key.space	n/a
243.6715	0.1805	487343	keystroke_r	r	n/a
243.7615	0.1655	487523	keystroke_e	e	n/a
244.212	0.1505	488424	keystroke_a	a	n/a
244.827	0.105	489654	keystroke_r	r	n/a
244.991	0.106	489982	keystroke_Key.space	Key.space	n/a
245.232	0.089	490464	keystroke_l	l	n/a
245.441	0.121	490882	keystroke_o	o	n/a
245.8765	0.0905	491753	keystroke_g	g	n/a
246.4165	0.105	492833	keystroke_i	i	n/a
246.6115	0.09	493223	keystroke_t	t	n/a
246.8365	0.12	493673	keystroke_e	e	n/a
247.1515	0.1345	494303	keystroke_c	c	n/a
247.3765	0.21	494753	keystroke_h	h	n/a
247.4965	0.1945	494993	keystroke_Key.space	Key.space	n/a
247.676	0.135	495352	keystroke_w	w	n/a
247.9305	0.1355	495861	keystroke_e	e	n/a
248.276	0.105	496552	keystroke_b	b	n/a
248.516	0.12	497032	keystroke_s	s	n/a
248.7105	0.225	497421	keystroke_h	h	n/a
248.8455	0.195	497691	keystroke_o	o	n/a
248.9805	0.165	497961	keystroke_t	t	n/a
249.2955	0.135	498591	keystroke_s	s	n/a
249.611	0.135	499222	keystroke_Key.enter	Key.enter	n/a
249.752	8.7535	499504	prompt	n/a	texts remix remix notion\n
250.451	0.105	500902	keystroke_t	t	n/a
250.615	0.12	501230	keystroke_e	e	n/a
251.3955	0.135	502791	keystroke_x	x	n/a
251.9055	0.09	503811	keystroke_t	t	n/a
252.1455	0.105	504291	keystroke_s	s	n/a
252.3255	0.165	504651	keystroke_Key.space	Key.space	n/a
252.6255	0.2245	505251	keystroke_r	r	n/a
252.76	0.1955	505520	keystroke_e	e	n/a
253.03	0.255	506060	keystroke_m	m	n/a
253.21	0.18	506420	keystroke_i	i	n/a
253.375	0.09	506750	keystroke_x	x	n/a
253.555	0.165	507110	keystroke_Key.space	Key.space	n/a
254.29	0.24	508580	keystroke_r	r	n/a
254.44	0.165	508880	keystroke_e	e	n/a
254.62	0.2245	509240	keystroke_m	m	n/a
254.7245	0.195	509449	keystroke_i	i	n/a
254.9045	0.12	509809	keystroke_c	c	n/a
255.0845	0.15	510169	keystroke_Key.space	Key.space	n/a
255.55	0.165	511100	keystroke_n	n	n/a
255.88	0.0595	511760	keystroke_Key.backspace	Key.backspace	n/a
256.0445	0.06	512089	keystroke_Key.backspace	Key.backspace	n/a
256.1795	0.0895	512359	keystroke_Key.backspace	Key.backspace	n/a
256.329	0.15	512658	keystroke_c	c	n/a
256.884	0.0755	513768	keystroke_Key.backspace	Key.backspace	n/a
256.9745	0.12	513949	keystroke_x	x	n/a
257.1695	0.135	514339	keystroke_Key.space	Key.space	n/a
257.4545	0.1945	514909	keystroke_n	n	n/a
257.574	0.15	515148	keystroke_o	o	n/a
257.739	0.105	515478	keystroke_t	t	n/a
257.859	0.2845	515718	keystroke_i	i	n/a
257.979	0.2695	515958	keystroke_o	o	n/a
258.084	0.1795	516168	keystroke_n	n	n/a
258.3985	0.105	516797	keystroke_Key.enter	Key.enter	n/a
258.51	9.087	517020	prompt	n/a	adults jurisdiction assault clusters\n
259.1345	0.1795	518269	keystroke_a	a	n/a
259.284	0.165	518568	keystroke_d	d	n/a
259.479	0.225	518958	keystroke_u	u	n/a
259.599	0.225	519198	keystroke_l	l	n/a
259.779	0.195	519558	keystroke_t	t	n/a
259.899	0.165	519798	keystroke_s	s	n/a
260.049	0.15	520098	keystroke_Key.space	Key.space	n/a
260.289	0.06	520578	keystroke_j	j	n/a
260.469	0.105	520938	keystroke_u	u	n/a
260.634	0.0895	521268	keystroke_r	r	n/a
261.144	0.06	522288	keystroke_i	i	n/a
261.4885	0.135	522977	keystroke_s	s	n/a
263.378	0.1345	526756	keystroke_d	d	n/a
263.7225	0.1055	527445	keystroke_i	i	n/a
263.828	0.105	527656	keystroke_c	c	n/a
264.113	0.06	528226	keystroke_t	t	n/a
264.203	0.27	528406	keystroke_i	i	n/a
264.2925	0.285	528585	keystroke_o	o	n/a
264.368	0.1795	528736	keystroke_n	n	n/a
264.458	0.1945	528916	keystroke_Key.space	Key.space	n/a
264.6075	0.15	529215	keystroke_a	a	n/a
264.9225	0.0745	529845	keystroke_s	s	n/a
265.057	0.09	530114	keystroke_s	s	n/a
265.2225	0.135	530445	keystroke_a	a	n/a
265.3725	0.165	530745	keystroke_u	u	n/a
265.4475	0.165	530895	keystroke_l	l	n/a
265.5525	0.105	531105	keystroke_t	t	n/a
265.7175	0.1645	531435	keystroke_Key.space	Key.space	n/a
266.017	0.105	532034	keystroke_c	c	n/a
266.332	0.21	532664	keystroke_l	l	n/a
266.527	0.1495	533054	keystroke_u	u	n/a
266.6165	0.105	533233	keystroke_s	s	n/a
266.827	0.105	533654	keystroke_t	t	n/a
266.9615	0.15	533923	keystroke_e	e	n/a
267.0515	0.105	534103	keystroke_r	r	n/a
267.292	0.0895	534584	keystroke_s	s	n/a
267.4415	0.154	534883	keystroke_Key.enter	Key.enter	n/a
267.6	12.72	535200	prompt	n/a	myself should've locally surgeons\n
268.2825	0.075	536565	keystroke_m	m	n/a
268.5075	0.09	537015	keystroke_u	u	n/a
268.5825	0.0895	537165	keystroke_s	s	n/a
268.762	0.105	537524	keystroke_e	e	n/a
268.852	0.12	537704	keystroke_l	l	n/a
268.957	0.0895	537914	keystroke_f	f	n/a
269.0615	0.12	538123	keystroke_Key.space	Key.space	n/a
269.1965	0.105	538393	keystroke_s	s	n/a
269.2865	0.105	538573	keystroke_h	h	n/a
269.4215	0.135	538843	keystroke_o	o	n/a
269.781	0.06	539562	keystroke_Key.backspace	Key.backspace	n/a
269.946	0.045	539892	keystroke_Key.backspace	Key.backspace	n/a
270.066	0.075	540132	keystroke_Key.backspace	Key.backspace	n/a
270.216	0.06	540432	keystroke_Key.backspace	Key.backspace	n/a
270.351	0.0605	540702	keystroke_Key.backspace	Key.backspace	n/a
270.5015	0.045	541003	keystroke_Key.backspace	Key.backspace	n/a
270.6215	0.06	541243	keystroke_Key.backspace	Key.backspace	n/a
270.7715	0.075	541543	keystroke_Key.backspace	Key.backspace	n/a
270.9365	0.06	541873	keystroke_Key.backspace	Key.backspace	n/a
271.9105	0.0755	543821	keystroke_y	y	n/a
272.18	0.105	544360	keystroke_s	s	n/a
272.286	0.1035	544572	keystroke_h	h	n/a
272.4645	0.1345	544929	keystroke_e	e	n/a
272.629	0.1345	545258	keystroke_l	l	n/a
273.033	0.06	546066	keystroke_=	=	n/a
273.1975	0.06	546395	keystroke_Key.backspace	Key.backspace	n/a
273.347	0.075	546694	keystroke_Key.backspace	Key.backspace	n/a
273.5115	0.045	547023	keystroke_Key.backspace	Key.backspace	n/a
273.676	0.075	547352	keystroke_Key.backspace	Key.backspace	n/a
273.946	0.1195	547892	keystroke_e	e	n/a
274.1255	0.1045	548251	keystroke_l	l	n/a
274.274	0.105	548548	keystroke_f	f	n/a
274.4385	0.1645	548877	keystroke_Key.space	Key.space	n/a
274.5595	0.1185	549119	keystroke_s	s	n/a
274.693	0.1055	549386	keystroke_h	h	n/a
274.8135	0.1945	549627	keystroke_o	o	n/a
274.9485	0.1935	549897	keystroke_u	u	n/a
275.113	0.1495	550226	keystroke_l	l	n/a
275.487	0.1045	550974	keystroke_d	d	n/a
275.7565	0.104	551513	keystroke_'	'	n/a
275.965	0.105	551930	keystroke_v	v	n/a
276.2345	0.1345	552469	keystroke_e	e	n/a
276.5185	0.135	553037	keystroke_Key.space	Key.space	n/a
276.9075	0.09	553815	keystroke_l	l	n/a
277.117	0.09	554234	keystroke_o	o	n/a
277.237	0.1795	554474	keystroke_c	c	n/a
277.3565	0.1645	554713	keystroke_a	a	n/a
277.566	0.075	555132	keystroke_l	l	n/a
277.7155	0.1205	555431	keystroke_l	l	n/a
277.8805	0.224	555761	keystroke_y	y	n/a
278.015	0.1945	556030	keystroke_Key.space	Key.space	n/a
278.2545	0.1795	556509	keystroke_s	s	n/a
278.434	0.1045	556868	keystroke_u	u	n/a
278.7325	0.1055	557465	keystroke_r	r	n/a
279.227	0.0595	558454	keystroke_g	g	n/a
279.526	0.0745	559052	keystroke_e	e	n/a
279.6455	0.254	559291	keystroke_o	o	n/a
279.795	0.135	559590	keystroke_n	n	n/a
279.945	0.06	559890	keystroke_s	s	n/a
280.2295	0.0895	560459	keystroke_Key.enter	Key.enter	n/a
280.3235	4.9565	560647	prompt	n/a	teaching reasons mails gain\n
281.0225	0.1645	562045	keystroke_t	t	n/a
281.112	0.135	562224	keystroke_e	e	n/a
281.336	0.135	562672	keystroke_a	a	n/a
281.456	0.1495	562912	keystroke_c	c	n/a
281.5905	0.135	563181	keystroke_h	h	n/a
281.7105	0.2395	563421	keystroke_i	i	n/a
281.83	0.135	563660	keystroke_n	n	n/a
281.935	0.12	563870	keystroke_g	g	n/a
282.07	0.15	564140	keystroke_Key.space	Key.space	n/a
282.235	0.1495	564470	keystroke_r	r	n/a
282.28	0.1495	564560	keystroke_e	e	n/a
282.4895	0.195	564979	keystroke_a	a	n/a
282.609	0.1205	565218	keystroke_s	s	n/a
282.6995	0.18	565399	keystroke_o	o	n/a
282.805	0.1345	565610	keystroke_n	n	n/a
282.8945	0.09	565789	keystroke_s	s	n/a
283.059	0.12	566118	keystroke_Key.space	Key.space	n/a
283.2835	0.1055	566567	keystroke_m	m	n/a
283.6285	0.09	567257	keystroke_a	a	n/a
283.779	0.225	567558	keystroke_i	i	n/a
283.8695	0.1945	567739	keystroke_l	l	n/a
284.034	0.1195	568068	keystroke_s	s	n/a
284.2285	0.1505	568457	keystroke_Key.space	Key.space	n/a
284.424	0.12	568848	keystroke_g	g	n/a
284.6635	0.09	569327	keystroke_a	a	n/a
284.8295	0.1795	569659	keystroke_i	i	n/a
284.889	0.165	569778	keystroke_n	n	n/a
285.1585	0.12	570317	keystroke_Key.enter	Key.enter	n/a
285.283	4.5125	570566	prompt	n/a	advisory flying caused so\n
285.9385	0.045	571877	keystroke_a	a	n/a
286.0145	0.1345	572029	keystroke_d	d	n/a
286.2825	0.092	572565	keystroke_v	v	n/a
286.538	0.121	573076	keystroke_i	i	n/a
286.673	0.12	573346	keystroke_s	s	n/a
286.7775	0.121	573555	keystroke_o	o	n/a
286.9295	0.1045	573859	keystroke_r	r	n/a
287.094	0.195	574188	keystroke_y	y	n/a
287.2135	0.1505	574427	keystroke_Key.space	Key.space	n/a
287.409	0.09	574818	keystroke_f	f	n/a
287.5435	0.195	575087	keystroke_l	l	n/a
287.6785	0.1655	575357	keystroke_y	y	n/a
287.889	0.2095	575778	keystroke_i	i	n/a
288.024	0.1045	576048	keystroke_n	n	n/a
288.084	0.0895	576168	keystroke_g	g	n/a
288.2185	0.1355	576437	keystroke_Key.space	Key.space	n/a
288.369	0.15	576738	keystroke_c	c	n/a
288.489	0.1645	576978	keystroke_a	a	n/a
288.6835	0.151	577367	keystroke_u	u	n/a
288.7745	0.15	577549	keystroke_s	s	n/a
288.8795	0.1645	577759	keystroke_e	e	n/a
289.134	0.12	578268	keystroke_d	d	n/a
289.2695	0.1345	578539	keystroke_Key.space	Key.space	n/a
289.3595	0.1195	578719	keystroke_s	s	n/a
289.449	0.1345	578898	keystroke_o	o	n/a
289.688	0.106	579376	keystroke_Key.enter	Key.enter	n/a
289.7985	5.9225	579597	prompt	n/a	stands differ nissan cyprus\n
290.4085	0.15	580817	keystroke_s	s	n/a
290.663	0.076	581326	keystroke_t	t	n/a
290.814	0.1045	581628	keystroke_a	a	n/a
290.9335	0.15	581867	keystroke_n	n	n/a
291.0535	0.1345	582107	keystroke_d	d	n/a
291.143	0.136	582286	keystroke_s	s	n/a
291.264	0.12	582528	keystroke_Key.space	Key.space	n/a
291.399	0.1045	582798	keystroke_d	d	n/a
291.5185	0.1055	583037	keystroke_i	i	n/a
291.654	0.0755	583308	keystroke_f	f	n/a
291.8045	0.06	583609	keystroke_f	f	n/a
291.9095	0.12	583819	keystroke_e	e	n/a
291.9845	0.1195	583969	keystroke_r	r	n/a
292.119	0.106	584238	keystroke_Key.space	Key.space	n/a
292.2995	0.1945	584599	keystroke_n	n	n/a
292.4195	0.1645	584839	keystroke_i	i	n/a
292.554	0.09	585108	keystroke_s	s	n/a
292.7495	0.165	585499	keystroke_s	s	n/a
292.8695	0.1645	585739	keystroke_a	a	n/a
293.019	0.15	586038	keystroke_n	n	n/a
293.094	0.181	586188	keystroke_Key.space	Key.space	n/a
293.229	0.1355	586458	keystroke_c	c	n/a
293.4995	0.09	586999	keystroke_y	y	n/a
294.0695	0.0595	588139	keystroke_Key.backspace	Key.backspace	n/a
294.4895	0.0745	588979	keystroke_y	y	n/a
294.984	0.1045	589968	keystroke_p	p	n/a
295.1035	0.091	590207	keystroke_r	r	n/a
295.2245	0.1045	590449	keystroke_u	u	n/a
295.374	0.105	590748	keystroke_s	s	n/a
295.5985	0.1205	591197	keystroke_Key.enter	Key.enter	n/a
295.724	7.482	591448	prompt	n/a	casinos occurred maintained ringtone\n
296.4985	0.15	592997	keystroke_c	c	n/a
296.8135	0.121	593627	keystroke_a	a	n/a
297.024	0.135	594048	keystroke_s	s	n/a
297.174	0.2245	594348	keystroke_i	i	n/a
297.3245	0.224	594649	keystroke_n	n	n/a
297.5045	0.1495	595009	keystroke_o	o	n/a
297.655	0.0895	595310	keystroke_s	s	n/a
297.7585	0.135	595517	keystroke_Key.space	Key.space	n/a
297.9235	0.1205	595847	keystroke_o	o	n/a
298.044	0.105	596088	keystroke_c	c	n/a
298.2695	0.105	596539	keystroke_c	c	n/a
298.4785	0.0895	596957	keystroke_u	u	n/a
298.583	0.061	597166	keystroke_r	r	n/a
298.705	0.134	597410	keystroke_r	r	n/a
298.809	0.2395	597618	keystroke_e	e	n/a
298.989	0.134	597978	keystroke_d	d	n/a
299.184	0.2245	598368	keystroke_Key.space	Key.space	n/a
299.334	0.1495	598668	keystroke_m	m	n/a
299.4985	0.135	598997	keystroke_a	a	n/a
299.6035	0.181	599207	keystroke_i	i	n/a
299.694	0.1355	599388	keystroke_n	n	n/a
299.949	0.12	599898	keystroke_t	t	n/a
300.2045	0.075	600409	keystroke_a	a	n/a
300.2645	0.209	600529	keystroke_i	i	n/a
300.3395	0.194	600679	keystroke_n	n	n/a
300.4885	0.2105	600977	keystroke_e	e	n/a
300.6235	0.1955	601247	keystroke_d	d	n/a
300.789	0.165	601578	keystroke_Key.space	Key.space	n/a
300.984	0.1195	601968	keystroke_r	r	n/a
301.1185	0.2105	602237	keystroke_i	i	n/a
301.209	0.18	602418	keystroke_n	n	n/a
301.374	0.09	602748	keystroke_g	g	n/a
301.5685	0.1355	603137	keystroke_t	t	n/a
301.689	0.1805	603378	keystroke_o	o	n/a
301.9145	0.0895	603829	keystroke_e	e	n/a
302.484	0.075	604968	keystroke_Key.backspace	Key.backspace	n/a
302.7695	0.1045	605539	keystroke_n	n	n/a
302.979	0.09	605958	keystroke_e	e	n/a
303.084	0.1205	606168	keystroke_Key.enter	Key.enter	n/a
303.2085	8.1275	606417	prompt	n/a	familiar perfectly opponent japan\n
303.879	0.105	607758	keystroke_f	f	n/a
304.014	0.1355	608028	keystroke_a	a	n/a
304.2995	0.105	608599	keystroke_m	m	n/a
304.479	0.121	608958	keystroke_i	i	n/a
304.615	0.1945	609230	keystroke_l	l	n/a
304.7495	0.135	609499	keystroke_i	i	n/a
304.8395	0.135	609679	keystroke_a	a	n/a
304.9145	0.1345	609829	keystroke_r	r	n/a
305.064	0.1055	610128	keystroke_Key.space	Key.space	n/a
305.829	0.105	611658	keystroke_p	p	n/a
305.889	0.135	611778	keystroke_e	e	n/a
305.949	0.15	611898	keystroke_r	r	n/a
306.2345	0.0895	612469	keystroke_f	f	n/a
306.384	0.21	612768	keystroke_e	e	n/a
306.519	0.1205	613038	keystroke_c	c	n/a
306.7745	0.1045	613549	keystroke_t	t	n/a
306.909	0.195	613818	keystroke_l	l	n/a
307.044	0.136	614088	keystroke_y	y	n/a
307.059	0.03	614118	keystroke_u	u	n/a
307.119	0.1495	614238	keystroke_Key.space	Key.space	n/a
307.3735	0.136	614747	keystroke_o	o	n/a
307.779	0.045	615558	keystroke_Key.backspace	Key.backspace	n/a
307.9135	0.06	615827	keystroke_Key.backspace	Key.backspace	n/a
308.0635	0.06	616127	keystroke_Key.backspace	Key.backspace	n/a
308.5135	0.09	617027	keystroke_Key.space	Key.space	n/a
308.709	0.105	617418	keystroke_o	o	n/a
309.1595	0.075	618319	keystroke_p	p	n/a
309.3095	0.105	618619	keystroke_p	p	n/a
309.3695	0.1795	618739	keystroke_o	o	n/a
309.6995	0.1045	619399	keystroke_n	n	n/a
309.834	0.1495	619668	keystroke_e	e	n/a
309.9385	0.105	619877	keystroke_n	n	n/a
310.0445	0.1195	620089	keystroke_t	t	n/a
310.179	0.2105	620358	keystroke_Key.space	Key.space	n/a
310.3295	0.135	620659	keystroke_j	j	n/a
310.509	0.1505	621018	keystroke_a	a	n/a
310.6895	0.135	621379	keystroke_p	p	n/a
310.8095	0.1345	621619	keystroke_a	a	n/a
310.959	0.135	621918	keystroke_n	n	n/a
311.2295	0.105	622459	keystroke_Key.enter	Key.enter	n/a
311.339	6.762	622678	prompt	n/a	latest interest tree door\n
311.979	0.1205	623958	keystroke_l	l	n/a
312.039	0.12	624078	keystroke_a	a	n/a
312.5345	0.165	625069	keystroke_t	t	n/a
312.6695	0.165	625339	keystroke_e	e	n/a
312.7445	0.2545	625489	keystroke_s	s	n/a
312.969	0.12	625938	keystroke_t	t	n/a
313.104	0.15	626208	keystroke_Key.space	Key.space	n/a
313.21	0.18	626420	keystroke_i	i	n/a
313.299	0.1655	626598	keystroke_n	n	n/a
313.4345	0.105	626869	keystroke_t	t	n/a
313.5545	0.194	627109	keystroke_e	e	n/a
313.69	0.1795	627380	keystroke_r	r	n/a
313.8245	0.194	627649	keystroke_s	s	n/a
313.9735	0.15	627947	keystroke_t	t	n/a
314.1535	0.18	628307	keystroke_Key.space	Key.space	n/a
314.2895	0.104	628579	keystroke_t	t	n/a
314.498	0.2255	628996	keystroke_r	r	n/a
314.589	0.2255	629178	keystroke_e	e	n/a
314.9335	0.045	629867	keystroke_Key.backspace	Key.backspace	n/a
315.054	0.075	630108	keystroke_Key.backspace	Key.backspace	n/a
315.2045	0.075	630409	keystroke_Key.backspace	Key.backspace	n/a
315.3545	0.0595	630709	keystroke_Key.backspace	Key.backspace	n/a
315.489	0.0905	630978	keystroke_Key.backspace	Key.backspace	n/a
315.744	0.06	631488	keystroke_Key.backspace	Key.backspace	n/a
315.894	0.2405	631788	keystroke_e	e	n/a
316.0145	0.165	632029	keystroke_s	s	n/a
316.1045	0.1495	632209	keystroke_t	t	n/a
316.299	0.165	632598	keystroke_Key.space	Key.space	n/a
316.404	0.105	632808	keystroke_t	t	n/a
316.614	0.2245	633228	keystroke_r	r	n/a
316.7485	0.15	633497	keystroke_e	e	n/a
317.0035	0.1055	634007	keystroke_e	e	n/a
317.1545	0.15	634309	keystroke_Key.space	Key.space	n/a
317.2745	0.1795	634549	keystroke_d	d	n/a
317.439	0.09	634878	keystroke_o	o	n/a
317.6195	0.12	635239	keystroke_o	o	n/a
317.784	0.09	635568	keystroke_r	r	n/a
317.979	0.1205	635958	keystroke_Key.enter	Key.enter	n/a
318.104	6.2665	636208	prompt	n/a	gross query lady naturals\n
318.8345	0.09	637669	keystroke_g	g	n/a
319	0.1195	638000	keystroke_r	r	n/a
319.1795	0.12	638359	keystroke_o	o	n/a
319.3445	0.06	638689	keystroke_s	s	n/a
319.51	0.09	639020	keystroke_s	s	n/a
319.615	0.134	639230	keystroke_Key.space	Key.space	n/a
320.184	0.105	640368	keystroke_q	q	n/a
320.379	0.1205	640758	keystroke_u	u	n/a
320.5895	0.2095	641179	keystroke_e	e	n/a
320.724	0.21	641448	keystroke_r	r	n/a
321.099	0.1505	642198	keystroke_y	y	n/a
321.3535	0.1355	642707	keystroke_Key.space	Key.space	n/a
321.5645	0.12	643129	keystroke_l	l	n/a
321.6545	0.2395	643309	keystroke_a	a	n/a
321.834	0.165	643668	keystroke_d	d	n/a
322.014	0.21	644028	keystroke_y	y	n/a
322.134	0.18	644268	keystroke_Key.space	Key.space	n/a
322.509	0.12	645018	keystroke_n	n	n/a
322.599	0.12	645198	keystroke_a	a	n/a
322.839	0.105	645678	keystroke_t	t	n/a
323.064	0.12	646128	keystroke_u	u	n/a
323.5745	0.1345	647149	keystroke_r	r	n/a
323.7695	0.1345	647539	keystroke_a	a	n/a
323.9195	0.165	647839	keystroke_l	l	n/a
324.0695	0.135	648139	keystroke_s	s	n/a
324.2495	0.12	648499	keystroke_Key.enter	Key.enter	n/a
324.3755	4.2105	648751	prompt	n/a	tape card share string\n
325.3145	0.135	650629	keystroke_t	t	n/a
325.4945	0.12	650989	keystroke_a	a	n/a
325.5995	0.12	651199	keystroke_p	p	n/a
325.7345	0.105	651469	keystroke_e	e	n/a
325.8545	0.135	651709	keystroke_Key.space	Key.space	n/a
325.9745	0.18	651949	keystroke_c	c	n/a
326.1245	0.1945	652249	keystroke_a	a	n/a
326.304	0.105	652608	keystroke_r	r	n/a
326.559	0.135	653118	keystroke_d	d	n/a
326.709	0.135	653418	keystroke_Key.space	Key.space	n/a
326.814	0.1355	653628	keystroke_s	s	n/a
326.964	0.12	653928	keystroke_h	h	n/a
327.069	0.1355	654138	keystroke_a	a	n/a
327.2195	0.18	654439	keystroke_r	r	n/a
327.3095	0.1505	654619	keystroke_e	e	n/a
327.415	0.135	654830	keystroke_Key.space	Key.space	n/a
327.6695	0.105	655339	keystroke_s	s	n/a
327.925	0.1195	655850	keystroke_t	t	n/a
327.985	0.1345	655970	keystroke_r	r	n/a
328.1045	0.21	656209	keystroke_i	i	n/a
328.1945	0.15	656389	keystroke_n	n	n/a
328.3595	0.09	656719	keystroke_g	g	n/a
328.4795	0.105	656959	keystroke_Key.enter	Key.enter	n/a
328.5895	10.2415	657179	prompt	n/a	obesity prophet arising disclosure\n
329.514	0.105	659028	keystroke_o	o	n/a
329.709	0.105	659418	keystroke_b	b	n/a
329.8895	0.1045	659779	keystroke_e	e	n/a
330.144	0.15	660288	keystroke_s	s	n/a
330.7295	0.1205	661459	keystroke_i	i	n/a
330.895	0.135	661790	keystroke_t	t	n/a
331.12	0.1045	662240	keystroke_y	y	n/a
331.3	0.1495	662600	keystroke_Key.space	Key.space	n/a
331.5845	0.12	663169	keystroke_p	p	n/a
331.779	0.1055	663558	keystroke_t	t	n/a
332.5595	0.06	665119	keystroke_Key.backspace	Key.backspace	n/a
332.6795	0.1055	665359	keystroke_r	r	n/a
332.89	0.0895	665780	keystroke_o	o	n/a
333.1745	0.21	666349	keystroke_p	p	n/a
333.3245	0.15	666649	keystroke_h	h	n/a
333.4445	0.165	666889	keystroke_e	e	n/a
333.5345	0.135	667069	keystroke_t	t	n/a
333.6545	0.135	667309	keystroke_Key.space	Key.space	n/a
333.8495	0.165	667699	keystroke_a	a	n/a
334.0895	0.165	668179	keystroke_r	r	n/a
334.4795	0.09	668959	keystroke_i	i	n/a
334.9745	0.1195	669949	keystroke_s	s	n/a
335.109	0.2555	670218	keystroke_i	i	n/a
335.229	0.1805	670458	keystroke_n	n	n/a
335.3795	0.09	670759	keystroke_g	g	n/a
335.6795	0.1495	671359	keystroke_Key.space	Key.space	n/a
336.5795	0.09	673159	keystroke_d	d	n/a
336.7445	0.135	673489	keystroke_i	i	n/a
336.8645	0.105	673729	keystroke_s	s	n/a
337.3445	0.1345	674689	keystroke_c	c	n/a
337.9	0.1045	675800	keystroke_l	l	n/a
338.1245	0.09	676249	keystroke_o	o	n/a
338.275	0.12	676550	keystroke_s	s	n/a
338.38	0.12	676760	keystroke_u	u	n/a
338.53	0.1345	677060	keystroke_r	r	n/a
338.605	0.15	677210	keystroke_e	e	n/a
338.7095	0.12	677419	keystroke_Key.enter	Key.enter	n/a
338.8335	8.2325	677667	prompt	n/a	rock msgid purchase voters\n
339.6845	0.135	679369	keystroke_r	r	n/a
339.7895	0.15	679579	keystroke_o	o	n/a
339.9545	0.12	679909	keystroke_c	c	n/a
340.0595	0.2555	680119	keystroke_k	k	n/a
340.1945	0.1955	680389	keystroke_Key.space	Key.space	n/a
340.6145	0.135	681229	keystroke_m	m	n/a
341.4545	0.135	682909	keystroke_s	s	n/a
342.699	0.12	685398	keystroke_g	g	n/a
343.014	0.12	686028	keystroke_i	i	n/a
343.209	0.1205	686418	keystroke_d	d	n/a
343.7195	0.06	687439	keystroke_Key.space	Key.space	n/a
343.8695	0.105	687739	keystroke_p	p	n/a
344.274	0.135	688548	keystroke_u	u	n/a
344.454	0.09	688908	keystroke_r	r	n/a
344.739	0.06	689478	keystroke_c	c	n/a
344.829	0.135	689658	keystroke_h	h	n/a
344.934	0.18	689868	keystroke_a	a	n/a
345.069	0.21	690138	keystroke_s	s	n/a
345.249	0.1805	690498	keystroke_e	e	n/a
345.4445	0.18	690889	keystroke_Key.space	Key.space	n/a
345.7445	0.12	691489	keystroke_v	v	n/a
345.9695	0.12	691939	keystroke_o	o	n/a
346.1645	0.1055	692329	keystroke_t	t	n/a
346.345	0.1495	692690	keystroke_e	e	n/a
346.4495	0.135	692899	keystroke_r	r	n/a
346.7345	0.1505	693469	keystroke_s	s	n/a
346.945	0.1195	693890	keystroke_Key.enter	Key.enter	n/a
347.069	5.907	694138	prompt	n/a	iron classics nicholas violent\n
347.785	0.105	695570	keystroke_i	i	n/a
347.92	0.12	695840	keystroke_r	r	n/a
348.04	0.195	696080	keystroke_o	o	n/a
348.1295	0.18	696259	keystroke_n	n	n/a
348.2495	0.18	696499	keystroke_Key.space	Key.space	n/a
348.5495	0.1655	697099	keystroke_c	c	n/a
348.8945	0.12	697789	keystroke_l	l	n/a
349.0295	0.135	698059	keystroke_a	a	n/a
349.24	0.06	698480	keystroke_s	s	n/a
349.375	0.1045	698750	keystroke_s	s	n/a
349.5095	0.135	699019	keystroke_i	i	n/a
349.6295	0.1505	699259	keystroke_c	c	n/a
349.735	0.1495	699470	keystroke_s	s	n/a
349.855	0.1345	699710	keystroke_Key.space	Key.space	n/a
350.0795	0.21	700159	keystroke_n	n	n/a
350.2145	0.15	700429	keystroke_i	i	n/a
350.3795	0.135	700759	keystroke_c	c	n/a
350.4845	0.195	700969	keystroke_h	h	n/a
350.6045	0.12	701209	keystroke_o	o	n/a
350.799	0.135	701598	keystroke_l	l	n/a
350.919	0.12	701838	keystroke_a	a	n/a
350.979	0.21	701958	keystroke_s	s	n/a
351.129	0.18	702258	keystroke_Key.space	Key.space	n/a
351.6845	0.09	703369	keystroke_v	v	n/a
351.834	0.24	703668	keystroke_i	i	n/a
351.984	0.135	703968	keystroke_o	o	n/a
352.2245	0.135	704449	keystroke_l	l	n/a
352.3745	0.135	704749	keystroke_e	e	n/a
352.524	0.1505	705048	keystroke_n	n	n/a
352.6595	0.105	705319	keystroke_t	t	n/a
352.8395	0.135	705679	keystroke_Key.enter	Key.enter	n/a
352.9795	10.5415	705959	prompt	n/a	controversy settle neighborhood total\n
353.71	0.135	707420	keystroke_c	c	n/a
353.829	0.195	707658	keystroke_o	o	n/a
353.949	0.15	707898	keystroke_n	n	n/a
354.1	0.1505	708200	keystroke_t	t	n/a
354.1745	0.15	708349	keystroke_r	r	n/a
354.3095	0.1195	708619	keystroke_o	o	n/a
354.459	0.075	708918	keystroke_v	v	n/a
354.6545	0.105	709309	keystroke_e	e	n/a
354.7145	0.135	709429	keystroke_r	r	n/a
354.8645	0.165	709729	keystroke_y	y	n/a
354.9545	0.135	709909	keystroke_Key.space	Key.space	n/a
355.0445	0.09	710089	keystroke_s	s	n/a
355.27	0.165	710540	keystroke_e	e	n/a
355.42	0.105	710840	keystroke_t	t	n/a
355.93	0.06	711860	keystroke_Key.backspace	Key.backspace	n/a
356.08	0.0595	712160	keystroke_Key.backspace	Key.backspace	n/a
356.2595	0.075	712519	keystroke_Key.backspace	Key.backspace	n/a
356.439	0.061	712878	keystroke_Key.backspace	Key.backspace	n/a
356.65	0.075	713300	keystroke_Key.backspace	Key.backspace	n/a
356.95	0.12	713900	keystroke_s	s	n/a
357.2195	0.105	714439	keystroke_y	y	n/a
357.4445	0.135	714889	keystroke_Key.space	Key.space	n/a
357.7145	0.1195	715429	keystroke_s	s	n/a
357.97	0.075	715940	keystroke_e	e	n/a
358.209	0.121	716418	keystroke_t	t	n/a
358.405	0.12	716810	keystroke_t	t	n/a
358.569	0.151	717138	keystroke_l	l	n/a
358.734	0.09	717468	keystroke_e	e	n/a
358.855	0.134	717710	keystroke_Key.space	Key.space	n/a
359.064	0.1355	718128	keystroke_n	n	n/a
359.1845	0.0895	718369	keystroke_e	e	n/a
359.305	0.105	718610	keystroke_i	i	n/a
359.424	0.106	718848	keystroke_g	g	n/a
359.545	0.105	719090	keystroke_h	h	n/a
359.8295	0.09	719659	keystroke_b	b	n/a
360.0095	0.09	720019	keystroke_o	o	n/a
360.445	0.105	720890	keystroke_r	r	n/a
360.76	0.105	721520	keystroke_h	h	n/a
361	0.06	722000	keystroke_o	o	n/a
361.135	0.09	722270	keystroke_o	o	n/a
361.24	0.12	722480	keystroke_d	d	n/a
361.39	0.135	722780	keystroke_Key.space	Key.space	n/a
361.555	0.12	723110	keystroke_t	t	n/a
361.69	0.105	723380	keystroke_o	o	n/a
361.9	0.105	723800	keystroke_a	a	n/a
362.335	0.06	724670	keystroke_Key.backspace	Key.backspace	n/a
362.53	0.1345	725060	keystroke_t	t	n/a
362.845	0.12	725690	keystroke_a	a	n/a
363.085	0.135	726170	keystroke_l	l	n/a
363.4	0.12	726800	keystroke_Key.enter	Key.enter	n/a
363.524	6.027	727048	prompt	n/a	chicago tuner protein rivers\n
364.24	0.12	728480	keystroke_c	c	n/a
364.39	0.195	728780	keystroke_h	h	n/a
364.51	0.15	729020	keystroke_i	i	n/a
364.675	0.195	729350	keystroke_c	c	n/a
364.855	0.12	729710	keystroke_a	a	n/a
365.155	0.12	730310	keystroke_g	g	n/a
365.35	0.1955	730700	keystroke_o	o	n/a
365.47	0.165	730940	keystroke_Key.space	Key.space	n/a
365.77	0.105	731540	keystroke_t	t	n/a
365.965	0.12	731930	keystroke_u	u	n/a
366.22	0.1195	732440	keystroke_n	n	n/a
366.3845	0.165	732769	keystroke_e	e	n/a
366.4745	0.18	732949	keystroke_r	r	n/a
366.6095	0.12	733219	keystroke_Key.space	Key.space	n/a
366.7895	0.1345	733579	keystroke_p	p	n/a
366.939	0.105	733878	keystroke_r	r	n/a
367.059	0.1055	734118	keystroke_o	o	n/a
367.24	0.18	734480	keystroke_t	t	n/a
367.39	0.15	734780	keystroke_e	e	n/a
367.6155	0.24	735231	keystroke_i	i	n/a
367.7505	0.225	735501	keystroke_n	n	n/a
367.9305	0.18	735861	keystroke_Key.space	Key.space	n/a
368.3205	0.12	736641	keystroke_r	r	n/a
368.4855	0.12	736971	keystroke_i	i	n/a
368.6345	0.121	737269	keystroke_v	v	n/a
368.8595	0.136	737719	keystroke_e	e	n/a
368.9355	0.1335	737871	keystroke_r	r	n/a
369.205	0.134	738410	keystroke_s	s	n/a
369.505	0.044	739010	keystroke_Key.enter	Key.enter	n/a
369.5545	13.632	739109	prompt	n/a	middle typing sbjct ipaq\n
370.285	0.195	740570	keystroke_m	m	n/a
370.405	0.135	740810	keystroke_i	i	n/a
370.51	0.0895	741020	keystroke_d	d	n/a
370.6745	0.105	741349	keystroke_d	d	n/a
370.7945	0.1205	741589	keystroke_l	l	n/a
370.9	0.09	741800	keystroke_e	e	n/a
371.02	0.12	742040	keystroke_Key.space	Key.space	n/a
371.155	0.1645	742310	keystroke_t	t	n/a
371.7095	0.105	743419	keystroke_y	y	n/a
371.9195	0.1205	743839	keystroke_p	p	n/a
372.025	0.225	744050	keystroke_i	i	n/a
372.16	0.15	744320	keystroke_n	n	n/a
372.325	0.105	744650	keystroke_g	g	n/a
372.8945	0.15	745789	keystroke_Key.space	Key.space	n/a
373.2695	0.12	746539	keystroke_s	s	n/a
373.6455	0.09	747291	keystroke_j	j	n/a
374.26	0.014	748520	keystroke_Key.backspace	Key.backspace	n/a
374.41	0.0755	748820	keystroke_j	j	n/a
375.04	0.09	750080	keystroke_Key.backspace	Key.backspace	n/a
376.195	0.12	752390	keystroke_j	j	n/a
377.905	0.165	755810	keystroke_b	b	n/a
378.175	0.18	756350	keystroke_c	c	n/a
378.685	0.12	757370	keystroke_t	t	n/a
379.21	0.135	758420	keystroke_Key.space	Key.space	n/a
379.84	0.12	759680	keystroke_u	u	n/a
380.215	0.06	760430	keystroke_Key.backspace	Key.backspace	n/a
380.455	0.09	760910	keystroke_i	i	n/a
380.7995	0.075	761599	keystroke_p	p	n/a
381.2195	0.1505	762439	keystroke_a	a	n/a
382.5105	0.105	765021	keystroke_q	q	n/a
383.0655	0.12	766131	keystroke_Key.enter	Key.enter	n/a
383.1905	7.8115	766381	prompt	n/a	judge administrator carried danny\n
383.9055	0.104	767811	keystroke_j	j	n/a
384.1295	0.105	768259	keystroke_u	u	n/a
384.2495	0.136	768499	keystroke_d	d	n/a
384.5795	0.09	769159	keystroke_g	g	n/a
385.015	0.135	770030	keystroke_e	e	n/a
385.21	0.15	770420	keystroke_Key.space	Key.space	n/a
385.39	0.195	770780	keystroke_a	a	n/a
385.57	0.1345	771140	keystroke_d	d	n/a
385.8095	0.105	771619	keystroke_m	m	n/a
386.0495	0.106	772099	keystroke_i	i	n/a
386.3045	0.09	772609	keystroke_n	n	n/a
386.5145	0.0905	773029	keystroke_i	i	n/a
386.62	0.135	773240	keystroke_s	s	n/a
386.89	0.075	773780	keystroke_t	t	n/a
387.1905	0.074	774381	keystroke_r	r	n/a
387.4145	0.105	774829	keystroke_a	a	n/a
387.6555	0.089	775311	keystroke_t	t	n/a
387.85	0.135	775700	keystroke_o	o	n/a
387.955	0.105	775910	keystroke_r	r	n/a
388.075	0.135	776150	keystroke_Key.space	Key.space	n/a
388.255	0.12	776510	keystroke_c	c	n/a
388.48	0.1505	776960	keystroke_a	a	n/a
388.7505	0.06	777501	keystroke_r	r	n/a
388.8705	0.09	777741	keystroke_r	r	n/a
389.0955	0.1195	778191	keystroke_i	i	n/a
389.23	0.105	778460	keystroke_e	e	n/a
389.47	0.1195	778940	keystroke_d	d	n/a
389.6495	0.1805	779299	keystroke_Key.space	Key.space	n/a
389.86	0.21	779720	keystroke_d	d	n/a
389.995	0.27	779990	keystroke_a	a	n/a
390.175	0.105	780350	keystroke_n	n	n/a
390.355	0.075	780710	keystroke_n	n	n/a
390.595	0.105	781190	keystroke_y	y	n/a
390.85	0.15	781700	keystroke_Key.enter	Key.enter	n/a
391.0055	8.171	782011	prompt	n/a	licensing avenue deutschland mere\n
391.72	0.0905	783440	keystroke_l	l	n/a
391.8855	0.12	783771	keystroke_i	i	n/a
392.0505	0.149	784101	keystroke_c	c	n/a
392.1555	0.165	784311	keystroke_e	e	n/a
392.6055	0.105	785211	keystroke_n	n	n/a
393.1005	0.1345	786201	keystroke_s	s	n/a
393.385	0.195	786770	keystroke_i	i	n/a
393.46	0.18	786920	keystroke_n	n	n/a
393.625	0.09	787250	keystroke_g	g	n/a
393.745	0.165	787490	keystroke_Key.space	Key.space	n/a
394.105	0.12	788210	keystroke_a	a	n/a
394.435	0.06	788870	keystroke_v	v	n/a
394.6	0.105	789200	keystroke_e	e	n/a
394.72	0.195	789440	keystroke_n	n	n/a
394.84	0.18	789680	keystroke_u	u	n/a
395.005	0.075	790010	keystroke_e	e	n/a
395.14	0.1345	790280	keystroke_Key.space	Key.space	n/a
395.38	0.15	790760	keystroke_d	d	n/a
395.875	0.09	791750	keystroke_e	e	n/a
396.16	0.12	792320	keystroke_u	u	n/a
396.385	0.09	792770	keystroke_t	t	n/a
396.835	0.105	793670	keystroke_s	s	n/a
397.045	0.1205	794090	keystroke_c	c	n/a
397.1955	0.09	794391	keystroke_h	h	n/a
397.3605	0.134	794721	keystroke_l	l	n/a
397.4795	0.135	794959	keystroke_a	a	n/a
397.5995	0.106	795199	keystroke_n	n	n/a
397.6895	0.105	795379	keystroke_d	d	n/a
397.8255	0.12	795651	keystroke_Key.space	Key.space	n/a
398.0655	0.1045	796131	keystroke_m	m	n/a
398.455	0.09	796910	keystroke_e	e	n/a
398.695	0.105	797390	keystroke_r	r	n/a
398.89	0.12	797780	keystroke_e	e	n/a
399.085	0.09	798170	keystroke_Key.enter	Key.enter	n/a
399.1	0.09	798200	keystroke_]	]	n/a
399.181	5.8155	798362	prompt	n/a	vista nation inform separately\n
399.8355	0.075	799671	keystroke_v	v	n/a
400.1355	0.09	800271	keystroke_i	i	n/a
400.2705	0.12	800541	keystroke_s	s	n/a
400.4805	0.09	800961	keystroke_t	t	n/a
400.69	0.105	801380	keystroke_a	a	n/a
400.78	0.2545	801560	keystroke_Key.space	Key.space	n/a
400.9605	0.135	801921	keystroke_n	n	n/a
401.1405	0.12	802281	keystroke_a	a	n/a
401.4405	0.03	802881	keystroke_t	t	n/a
401.4555	0.2695	802911	keystroke_i	i	n/a
401.545	0.225	803090	keystroke_o	o	n/a
401.62	0.18	803240	keystroke_n	n	n/a
401.755	0.2105	803510	keystroke_Key.space	Key.space	n/a
401.9495	0.226	803899	keystroke_i	i	n/a
402.0855	0.165	804171	keystroke_n	n	n/a
402.2805	0.12	804561	keystroke_f	f	n/a
402.4305	0.12	804861	keystroke_o	o	n/a
402.5805	0.105	805161	keystroke_r	r	n/a
402.6695	0.165	805339	keystroke_m	m	n/a
402.7745	0.18	805549	keystroke_Key.space	Key.space	n/a
402.9395	0.105	805879	keystroke_s	s	n/a
403.1795	0.076	806359	keystroke_e	e	n/a
403.5695	0.105	807139	keystroke_p	p	n/a
403.7505	0.165	807501	keystroke_a	a	n/a
403.9305	0.1345	807861	keystroke_r	r	n/a
404.0355	0.12	808071	keystroke_a	a	n/a
404.2155	0.165	808431	keystroke_t	t	n/a
404.3205	0.1345	808641	keystroke_e	e	n/a
404.3955	0.1945	808791	keystroke_l	l	n/a
404.56	0.12	809120	keystroke_y	y	n/a
404.905	0.06	809810	keystroke_\	\	n/a
404.92	0.075	809840	keystroke_Key.enter	Key.enter	n/a
405.0005	5.6215	810001	prompt	n/a	broke place representing fell\n
405.685	0.105	811370	keystroke_b	b	n/a
405.91	0.075	811820	keystroke_r	r	n/a
406.045	0.225	812090	keystroke_o	o	n/a
406.21	0.105	812420	keystroke_k	k	n/a
406.3	0.09	812600	keystroke_e	e	n/a
406.405	0.15	812810	keystroke_Key.space	Key.space	n/a
406.57	0.105	813140	keystroke_p	p	n/a
406.8855	0.135	813771	keystroke_l	l	n/a
407.0655	0.15	814131	keystroke_a	a	n/a
407.3355	0.1795	814671	keystroke_c	c	n/a
407.47	0.12	814940	keystroke_e	e	n/a
407.575	0.105	815150	keystroke_Key.space	Key.space	n/a
407.7405	0.105	815481	keystroke_p	p	n/a
408.085	0.075	816170	keystroke_Key.backspace	Key.backspace	n/a
408.205	0.18	816410	keystroke_r	r	n/a
408.295	0.165	816590	keystroke_e	e	n/a
408.475	0.105	816950	keystroke_p	p	n/a
408.5945	0.135	817189	keystroke_r	r	n/a
408.6695	0.09	817339	keystroke_e	e	n/a
408.8795	0.076	817759	keystroke_s	s	n/a
409.0595	0.075	818119	keystroke_e	e	n/a
409.1645	0.105	818329	keystroke_n	n	n/a
409.3	0.105	818600	keystroke_t	t	n/a
409.42	0.15	818840	keystroke_i	i	n/a
409.48	0.12	818960	keystroke_n	n	n/a
409.585	0.075	819170	keystroke_g	g	n/a
409.69	0.135	819380	keystroke_Key.space	Key.space	n/a
409.855	0.195	819710	keystroke_f	f	n/a
409.945	0.15	819890	keystroke_e	e	n/a
410.155	0.075	820310	keystroke_l	l	n/a
410.305	0.09	820610	keystroke_l	l	n/a
410.53	0.09	821060	keystroke_Key.enter	Key.enter	n/a
410.626	7.916	821252	prompt	n/a	folder should've ahead distribution\n
411.295	0.09	822590	keystroke_f	f	n/a
411.43	0.105	822860	keystroke_o	o	n/a
411.655	0.12	823310	keystroke_l	l	n/a
411.745	0.135	823490	keystroke_d	d	n/a
411.895	0.195	823790	keystroke_e	e	n/a
412.015	0.1505	824030	keystroke_r	r	n/a
412.1805	0.135	824361	keystroke_Key.space	Key.space	n/a
412.3305	0.1205	824661	keystroke_s	s	n/a
412.421	0.09	824842	keystroke_h	h	n/a
412.541	0.15	825082	keystroke_o	o	n/a
412.661	0.18	825322	keystroke_u	u	n/a
412.796	0.1345	825592	keystroke_l	l	n/a
413.2755	0.09	826551	keystroke_d	d	n/a
413.545	0.105	827090	keystroke_'	'	n/a
413.8755	0.09	827751	keystroke_v	v	n/a
414.1005	0.135	828201	keystroke_e	e	n/a
414.2805	0.135	828561	keystroke_Key.space	Key.space	n/a
414.5955	0.105	829191	keystroke_a	a	n/a
414.7905	0.1345	829581	keystroke_h	h	n/a
414.91	0.135	829820	keystroke_e	e	n/a
415.165	0.195	830330	keystroke_a	a	n/a
415.3	0.1795	830600	keystroke_d	d	n/a
415.555	0.12	831110	keystroke_Key.space	Key.space	n/a
415.735	0.1355	831470	keystroke_d	d	n/a
415.9005	0.09	831801	keystroke_i	i	n/a
416.0055	0.105	832011	keystroke_s	s	n/a
416.6805	0.12	833361	keystroke_t	t	n/a
417.0405	0.105	834081	keystroke_r	r	n/a
417.3105	0.1195	834621	keystroke_i	i	n/a
417.55	0.0755	835100	keystroke_b	b	n/a
417.7605	0.075	835521	keystroke_u	u	n/a
417.925	0.1055	835850	keystroke_t	t	n/a
418.0155	0.225	836031	keystroke_i	i	n/a
418.0905	0.21	836181	keystroke_o	o	n/a
418.2105	0.12	836421	keystroke_n	n	n/a
418.4355	0.1045	836871	keystroke_Key.enter	Key.enter	n/a
418.5455	10.3315	837091	prompt	n/a	miscellaneous professionals cast maybe\n
419.2155	0.105	838431	keystroke_m	m	n/a
419.4255	0.12	838851	keystroke_i	i	n/a
419.4405	0.09	838881	keystroke_o	o	n/a
419.9355	0.075	839871	keystroke_Key.backspace	Key.backspace	n/a
420.2955	0.15	840591	keystroke_s	s	n/a
420.67	0.15	841340	keystroke_c	c	n/a
421.45	0.135	842900	keystroke_e	e	n/a
421.765	0.075	843530	keystroke_l	l	n/a
421.945	0.12	843890	keystroke_l	l	n/a
422.71	0.1355	845420	keystroke_a	a	n/a
423.385	0.105	846770	keystroke_n	n	n/a
423.595	0.105	847190	keystroke_e	e	n/a
423.67	0.225	847340	keystroke_o	o	n/a
423.79	0.135	847580	keystroke_u	u	n/a
423.91	0.1045	847820	keystroke_s	s	n/a
424.1045	0.12	848209	keystroke_Key.space	Key.space	n/a
424.315	0.1205	848630	keystroke_p	p	n/a
424.4505	0.105	848901	keystroke_r	r	n/a
424.7355	0.105	849471	keystroke_o	o	n/a
424.8705	0.1195	849741	keystroke_f	f	n/a
425.155	0.075	850310	keystroke_e	e	n/a
425.7555	0.06	851511	keystroke_s	s	n/a
425.9205	0.0745	851841	keystroke_s	s	n/a
425.98	0.225	851960	keystroke_i	i	n/a
426.085	0.195	852170	keystroke_o	o	n/a
426.19	0.1505	852380	keystroke_n	n	n/a
426.31	0.135	852620	keystroke_a	a	n/a
426.46	0.12	852920	keystroke_l	l	n/a
426.565	0.09	853130	keystroke_s	s	n/a
426.67	0.135	853340	keystroke_Key.space	Key.space	n/a
426.865	0.165	853730	keystroke_c	c	n/a
426.985	0.18	853970	keystroke_a	a	n/a
427.1355	0.1195	854271	keystroke_s	s	n/a
427.375	0.09	854750	keystroke_t	t	n/a
427.48	0.135	854960	keystroke_Key.space	Key.space	n/a
427.796	0.105	855592	keystroke_m	m	n/a
427.991	0.105	855982	keystroke_a	a	n/a
428.111	0.1195	856222	keystroke_y	y	n/a
428.4555	0.105	856911	keystroke_b	b	n/a
428.5905	0.105	857181	keystroke_e	e	n/a
428.755	0.1205	857510	keystroke_Key.enter	Key.enter	n/a
428.8795	9.0275	857759	prompt	n/a	campbell portland helps finish\n
429.8805	0.12	859761	keystroke_c	c	n/a
430.0755	0.12	860151	keystroke_a	a	n/a
430.5105	0.105	861021	keystroke_m	m	n/a
430.765	0.105	861530	keystroke_p	p	n/a
431.035	0.09	862070	keystroke_b	b	n/a
431.2455	0.09	862491	keystroke_e	e	n/a
431.4405	0.075	862881	keystroke_l	l	n/a
431.5905	0.105	863181	keystroke_l	l	n/a
431.86	0.105	863720	keystroke_Key.space	Key.space	n/a
432.04	0.27	864080	keystroke_p	p	n/a
432.19	0.165	864380	keystroke_o	o	n/a
432.34	0.135	864680	keystroke_r	r	n/a
432.61	0.105	865220	keystroke_t	t	n/a
433.12	0.1355	866240	keystroke_l	l	n/a
433.24	0.1355	866480	keystroke_a	a	n/a
433.3605	0.12	866721	keystroke_n	n	n/a
433.4955	0.15	866991	keystroke_d	d	n/a
433.601	0.1945	867202	keystroke_Key.space	Key.space	n/a
433.7505	0.105	867501	keystroke_h	h	n/a
433.901	0.1045	867802	keystroke_e	e	n/a
434.5305	0.1195	869061	keystroke_l	l	n/a
436.031	0.1345	872062	keystroke_p	p	n/a
436.2405	0.15	872481	keystroke_s	s	n/a
436.3595	0.1365	872719	keystroke_Key.space	Key.space	n/a
436.5395	0.1215	873079	keystroke_f	f	n/a
436.691	0.12	873382	keystroke_i	i	n/a
437.0205	0.105	874041	keystroke_n	n	n/a
437.2605	0.105	874521	keystroke_i	i	n/a
437.3805	0.105	874761	keystroke_s	s	n/a
437.5005	0.0905	875001	keystroke_h	h	n/a
437.7855	0.12	875571	keystroke_Key.enter	Key.enter	n/a
437.91	4.977	875820	prompt	n/a	karma know biggest offers\n
438.7455	0.075	877491	keystroke_k	k	n/a
438.8355	0.15	877671	keystroke_a	a	n/a
438.9555	0.12	877911	keystroke_r	r	n/a
439.1055	0.135	878211	keystroke_m	m	n/a
439.2705	0.15	878541	keystroke_a	a	n/a
439.3755	0.18	878751	keystroke_Key.space	Key.space	n/a
439.5405	0.21	879081	keystroke_k	k	n/a
439.6755	0.195	879351	keystroke_n	n	n/a
439.8105	0.165	879621	keystroke_o	o	n/a
439.9455	0.12	879891	keystroke_w	w	n/a
440.0805	0.1205	880161	keystroke_Key.space	Key.space	n/a
440.366	0.165	880732	keystroke_b	b	n/a
440.471	0.18	880942	keystroke_i	i	n/a
440.636	0.045	881272	keystroke_g	g	n/a
440.786	0.045	881572	keystroke_g	g	n/a
440.98	0.255	881960	keystroke_e	e	n/a
441.055	0.27	882110	keystroke_s	s	n/a
441.295	0.1055	882590	keystroke_t	t	n/a
441.61	0.1355	883220	keystroke_Key.space	Key.space	n/a
441.8655	0.135	883731	keystroke_o	o	n/a
441.9705	0.09	883941	keystroke_f	f	n/a
442.1505	0.06	884301	keystroke_f	f	n/a
442.2255	0.1795	884451	keystroke_e	e	n/a
442.3605	0.1045	884721	keystroke_r	r	n/a
442.601	0.134	885202	keystroke_s	s	n/a
442.75	0.135	885500	keystroke_Key.enter	Key.enter	n/a
442.89	7.572	885780	prompt	n/a	zdnet measures news radio\n
443.6505	0.135	887301	keystroke_s	s	n/a
444.5805	0.12	889161	keystroke_Key.backspace	Key.backspace	n/a
445.585	0.09	891170	keystroke_z	z	n/a
445.9905	0.105	891981	keystroke_d	d	n/a
446.7105	0.12	893421	keystroke_n	n	n/a
446.9055	0.1955	893811	keystroke_e	e	n/a
447.026	0.15	894052	keystroke_t	t	n/a
447.131	0.135	894262	keystroke_Key.space	Key.space	n/a
447.386	0.135	894772	keystroke_m	m	n/a
447.491	0.105	894982	keystroke_e	e	n/a
447.641	0.15	895282	keystroke_a	a	n/a
447.836	0.105	895672	keystroke_s	s	n/a
448.121	0.12	896242	keystroke_u	u	n/a
448.286	0.225	896572	keystroke_r	r	n/a
448.346	0.24	896692	keystroke_e	e	n/a
448.481	0.15	896962	keystroke_s	s	n/a
448.616	0.225	897232	keystroke_Key.space	Key.space	n/a
448.751	0.165	897502	keystroke_n	n	n/a
448.901	0.165	897802	keystroke_e	e	n/a
448.976	0.12	897952	keystroke_w	w	n/a
449.2305	0.12	898461	keystroke_s	s	n/a
449.3805	0.135	898761	keystroke_Key.space	Key.space	n/a
449.5305	0.18	899061	keystroke_r	r	n/a
449.6505	0.24	899301	keystroke_a	a	n/a
449.8455	0.12	899691	keystroke_d	d	n/a
449.9665	0.194	899933	keystroke_i	i	n/a
450.0405	0.18	900081	keystroke_o	o	n/a
450.3255	0.135	900651	keystroke_Key.enter	Key.enter	n/a
450.467	6.775	900934	prompt	n/a	containing palm lead dispatched\n
451.18	0.09	902360	keystroke_c	c	n/a
451.255	0.18	902510	keystroke_o	o	n/a
451.345	0.15	902690	keystroke_n	n	n/a
451.555	0.12	903110	keystroke_t	t	n/a
452.2155	0.1055	904431	keystroke_a	a	n/a
452.396	0.209	904792	keystroke_i	i	n/a
452.53	0.18	905060	keystroke_n	n	n/a
453.086	0.225	906172	keystroke_i	i	n/a
453.191	0.1795	906382	keystroke_n	n	n/a
453.3555	0.105	906711	keystroke_g	g	n/a
453.5055	0.12	907011	keystroke_Key.space	Key.space	n/a
453.6855	0.135	907371	keystroke_p	p	n/a
453.8805	0.12	907761	keystroke_a	a	n/a
454.0455	0.135	908091	keystroke_l	l	n/a
454.3005	0.1205	908601	keystroke_m	m	n/a
454.511	0.135	909022	keystroke_Key.space	Key.space	n/a
454.676	0.12	909352	keystroke_l	l	n/a
454.751	0.135	909502	keystroke_e	e	n/a
454.901	0.21	909802	keystroke_a	a	n/a
455.051	0.15	910102	keystroke_d	d	n/a
455.2305	0.135	910461	keystroke_Key.space	Key.space	n/a
455.4105	0.105	910821	keystroke_d	d	n/a
455.5455	0.12	911091	keystroke_i	i	n/a
455.6665	0.119	911333	keystroke_s	s	n/a
455.86	0.121	911720	keystroke_p	p	n/a
455.995	0.1205	911990	keystroke_a	a	n/a
456.2055	0.105	912411	keystroke_t	t	n/a
456.4905	0.09	912981	keystroke_c	c	n/a
456.6405	0.105	913281	keystroke_h	h	n/a
456.7305	0.165	913461	keystroke_e	e	n/a
456.7905	0.18	913581	keystroke_d	d	n/a
457.1055	0.1355	914211	keystroke_Key.enter	Key.enter	n/a
457.245	7.4225	914490	prompt	n/a	naples holding bali eligible\n
457.9155	0.105	915831	keystroke_n	n	n/a
458.1255	0.09	916251	keystroke_a	a	n/a
458.3055	0.09	916611	keystroke_p	p	n/a
458.5455	0.12	917091	keystroke_l	l	n/a
458.6205	0.195	917241	keystroke_e	e	n/a
458.7405	0.15	917481	keystroke_d	d	n/a
458.8755	0.15	917751	keystroke_Key.space	Key.space	n/a
458.9805	0.21	917961	keystroke_h	h	n/a
459.1005	0.135	918201	keystroke_o	o	n/a
459.4605	0.075	918921	keystroke_Key.backspace	Key.backspace	n/a
459.5955	0.06	919191	keystroke_Key.backspace	Key.backspace	n/a
459.7455	0.06	919491	keystroke_Key.backspace	Key.backspace	n/a
459.8955	0.075	919791	keystroke_Key.backspace	Key.backspace	n/a
460.0755	0.105	920151	keystroke_s	s	n/a
460.2255	0.135	920451	keystroke_Key.space	Key.space	n/a
460.3905	0.225	920781	keystroke_h	h	n/a
460.5555	0.12	921111	keystroke_o	o	n/a
460.7805	0.105	921561	keystroke_l	l	n/a
460.9605	0.135	921921	keystroke_d	d	n/a
461.1105	0.2095	922221	keystroke_i	i	n/a
461.2155	0.1345	922431	keystroke_n	n	n/a
461.351	0.104	922702	keystroke_g	g	n/a
461.47	0.135	922940	keystroke_Key.space	Key.space	n/a
461.651	0.104	923302	keystroke_b	b	n/a
461.8155	0.1345	923631	keystroke_a	a	n/a
462.025	0.1955	924050	keystroke_l	l	n/a
462.13	0.15	924260	keystroke_i	i	n/a
462.4005	0.135	924801	keystroke_Key.space	Key.space	n/a
462.8055	0.135	925611	keystroke_e	e	n/a
463.1355	0.12	926271	keystroke_l	l	n/a
463.3905	0.09	926781	keystroke_i	i	n/a
463.6005	0.105	927201	keystroke_g	g	n/a
463.7655	0.1195	927531	keystroke_i	i	n/a
463.9905	0.0755	927981	keystroke_b	b	n/a
464.1555	0.12	928311	keystroke_l	l	n/a
464.3205	0.12	928641	keystroke_e	e	n/a
464.5605	0.105	929121	keystroke_Key.enter	Key.enter	n/a
464.6705	9.357	929341	prompt	n/a	ringtone connector gift under\n
465.4905	0.105	930981	keystroke_r	r	n/a
465.6105	0.18	931221	keystroke_i	i	n/a
465.7005	0.15	931401	keystroke_n	n	n/a
465.8655	0.105	931731	keystroke_g	g	n/a
466.0905	0.075	932181	keystroke_t	t	n/a
466.1955	0.195	932391	keystroke_o	o	n/a
466.2855	0.12	932571	keystroke_n	n	n/a
466.4205	0.09	932841	keystroke_e	e	n/a
466.5255	0.135	933051	keystroke_Key.space	Key.space	n/a
466.7505	0.105	933501	keystroke_c	c	n/a
466.9005	0.225	933801	keystroke_o	o	n/a
467.321	0.1195	934642	keystroke_n	n	n/a
467.636	0.09	935272	keystroke_n	n	n/a
467.771	0.1345	935542	keystroke_e	e	n/a
468.3405	0.105	936681	keystroke_t	t	n/a
468.5055	0.165	937011	keystroke_o	o	n/a
468.6865	0.104	937373	keystroke_r	r	n/a
468.8955	0.15	937791	keystroke_Key.space	Key.space	n/a
469.4505	0.06	938901	keystroke_Key.backspace	Key.backspace	n/a
469.6155	0.075	939231	keystroke_Key.backspace	Key.backspace	n/a
469.8105	0.09	939621	keystroke_Key.backspace	Key.backspace	n/a
470.0055	0.09	940011	keystroke_Key.backspace	Key.backspace	n/a
470.1255	0.135	940251	keystroke_c	c	n/a
470.831	0.15	941662	keystroke_t	t	n/a
470.996	0.135	941992	keystroke_o	o	n/a
471.146	0.09	942292	keystroke_r	r	n/a
471.251	0.12	942502	keystroke_Key.space	Key.space	n/a
471.641	0.165	943282	keystroke_g	g	n/a
471.986	0.135	943972	keystroke_i	i	n/a
472.1805	0.15	944361	keystroke_f	f	n/a
472.5105	0.09	945021	keystroke_t	t	n/a
472.6455	0.135	945291	keystroke_Key.space	Key.space	n/a
472.8555	0.105	945711	keystroke_u	u	n/a
473.0655	0.105	946131	keystroke_n	n	n/a
473.1855	0.12	946371	keystroke_d	d	n/a
473.4105	0.1205	946821	keystroke_e	e	n/a
473.681	0.0895	947362	keystroke_r	r	n/a
473.9205	0.105	947841	keystroke_Key.enter	Key.enter	n/a
474.03	7.5875	948060	prompt	n/a	lonely glory sitting publishing\n
474.7615	0.1045	949523	keystroke_l	l	n/a
474.956	0.09	949912	keystroke_o	o	n/a
475.106	0.12	950212	keystroke_n	n	n/a
475.331	0.105	950662	keystroke_e	e	n/a
475.541	0.105	951082	keystroke_l	l	n/a
475.736	0.09	951472	keystroke_y	y	n/a
475.916	0.105	951832	keystroke_Key.space	Key.space	n/a
476.4405	0.12	952881	keystroke_g	g	n/a
476.7255	0.075	953451	keystroke_l	l	n/a
476.9205	0.09	953841	keystroke_o	o	n/a
477.0405	0.09	954081	keystroke_r	r	n/a
477.1905	0.21	954381	keystroke_y	y	n/a
477.3105	0.15	954621	keystroke_Key.space	Key.space	n/a
477.5055	0.135	955011	keystroke_s	s	n/a
477.7605	0.075	955521	keystroke_i	i	n/a
477.9255	0.075	955851	keystroke_t	t	n/a
478.0755	0.1055	956151	keystroke_t	t	n/a
478.196	0.255	956392	keystroke_i	i	n/a
478.331	0.165	956662	keystroke_n	n	n/a
478.466	0.075	956932	keystroke_g	g	n/a
478.601	0.135	957202	keystroke_Key.space	Key.space	n/a
478.796	0.18	957592	keystroke_p	p	n/a
478.946	0.105	957892	keystroke_u	u	n/a
479.2905	0.105	958581	keystroke_b	b	n/a
479.3055	0.075	958611	keystroke_Key.space	Key.space	n/a
479.936	0.165	959872	keystroke_Key.backspace	Key.backspace	n/a
480.251	0.105	960502	keystroke_l	l	n/a
480.476	0.12	960952	keystroke_i	i	n/a
480.671	0.12	961342	keystroke_s	s	n/a
480.806	0.165	961612	keystroke_h	h	n/a
480.941	0.24	961882	keystroke_i	i	n/a
481.091	0.12	962182	keystroke_n	n	n/a
481.256	0.12	962512	keystroke_g	g	n/a
481.496	0.12	962992	keystroke_Key.enter	Key.enter	n/a
481.6215	7.286	963243	prompt	n/a	perfectly divisions search honor\n
482.276	0.1195	964552	keystroke_p	p	n/a
482.3505	0.12	964701	keystroke_e	e	n/a
482.4405	0.12	964881	keystroke_r	r	n/a
482.681	0.135	965362	keystroke_f	f	n/a
482.801	0.18	965602	keystroke_e	e	n/a
483.101	0.075	966202	keystroke_c	c	n/a
483.701	0.1195	967402	keystroke_t	t	n/a
483.9855	0.195	967971	keystroke_l	l	n/a
484.1205	0.2405	968241	keystroke_y	y	n/a
484.2405	0.2555	968481	keystroke_Key.space	Key.space	n/a
484.526	0.105	969052	keystroke_d	d	n/a
484.661	0.09	969322	keystroke_i	i	n/a
484.946	0.12	969892	keystroke_v	v	n/a
485.426	0.09	970852	keystroke_i	i	n/a
485.681	0.1205	971362	keystroke_s	s	n/a
485.7855	0.196	971571	keystroke_i	i	n/a
485.8765	0.21	971753	keystroke_o	o	n/a
485.9515	0.149	971903	keystroke_n	n	n/a
486.1155	0.09	972231	keystroke_s	s	n/a
486.1915	0.134	972383	keystroke_Key.space	Key.space	n/a
486.3265	0.104	972653	keystroke_s	s	n/a
486.536	0.075	973072	keystroke_e	e	n/a
486.731	0.12	973462	keystroke_a	a	n/a
486.956	0.09	973912	keystroke_r	r	n/a
487.211	0.09	974422	keystroke_c	c	n/a
487.3905	0.2105	974781	keystroke_h	h	n/a
487.4955	0.18	974991	keystroke_Key.space	Key.space	n/a
488.0055	0.121	976011	keystroke_h	h	n/a
488.1715	0.18	976343	keystroke_o	o	n/a
488.3365	0.18	976673	keystroke_n	n	n/a
488.4565	0.135	976913	keystroke_o	o	n/a
488.6065	0.105	977213	keystroke_r	r	n/a
488.7865	0.12	977573	keystroke_Key.enter	Key.enter	n/a
488.911	7.137	977822	prompt	n/a	tourism walter stars holding\n
489.716	0.135	979432	keystroke_t	t	n/a
489.881	0.24	979762	keystroke_o	o	n/a
489.9865	0.165	979973	keystroke_u	u	n/a
490.091	0.0905	980182	keystroke_r	r	n/a
490.2865	0.165	980573	keystroke_i	i	n/a
490.5565	0.105	981113	keystroke_s	s	n/a
490.736	0.1805	981472	keystroke_m	m	n/a
490.856	0.1805	981712	keystroke_Key.space	Key.space	n/a
491.1115	0.195	982223	keystroke_w	w	n/a
491.1865	0.21	982373	keystroke_a	a	n/a
491.5165	0.15	983033	keystroke_l	l	n/a
491.7115	0.1495	983423	keystroke_t	t	n/a
491.891	0.15	983782	keystroke_e	e	n/a
491.981	0.135	983962	keystroke_r	r	n/a
492.326	0.15	984652	keystroke_Key.space	Key.space	n/a
492.506	0.1505	985012	keystroke_s	s	n/a
492.8965	0.12	985793	keystroke_t	t	n/a
493.2555	0.151	986511	keystroke_a	a	n/a
493.5565	0.12	987113	keystroke_r	r	n/a
494.276	0.1205	988552	keystroke_s	s	n/a
494.5455	0.135	989091	keystroke_Key.space	Key.space	n/a
494.7855	0.2405	989571	keystroke_h	h	n/a
494.9665	0.1345	989933	keystroke_o	o	n/a
495.1905	0.106	990381	keystroke_l	l	n/a
495.3115	0.135	990623	keystroke_d	d	n/a
495.4315	0.21	990863	keystroke_i	i	n/a
495.5365	0.135	991073	keystroke_n	n	n/a
495.7165	0.1045	991433	keystroke_g	g	n/a
495.911	0.135	991822	keystroke_Key.enter	Key.enter	n/a
496.052	14.3055	992104	prompt	n/a	mono leader complete haven't\n
496.7515	0.135	993503	keystroke_m	m	n/a
496.8715	0.165	993743	keystroke_o	o	n/a
497.0065	0.165	994013	keystroke_n	n	n/a
497.141	0.1205	994282	keystroke_o	o	n/a
497.2915	0.18	994583	keystroke_Key.space	Key.space	n/a
497.4115	0.15	994823	keystroke_l	l	n/a
497.5165	0.135	995033	keystroke_e	e	n/a
497.5765	0.1945	995153	keystroke_a	a	n/a
497.786	0.15	995572	keystroke_d	d	n/a
497.951	0.135	995902	keystroke_e	e	n/a
498.041	0.12	996082	keystroke_r	r	n/a
498.1915	0.1195	996383	keystroke_Key.space	Key.space	n/a
498.312	0.089	996624	keystroke_c	c	n/a
498.431	0.15	996862	keystroke_o	o	n/a
498.521	0.12	997042	keystroke_m	m	n/a
498.731	0.18	997462	keystroke_p	p	n/a
498.851	0.12	997702	keystroke_l	l	n/a
498.896	0.15	997792	keystroke_e	e	n/a
499.001	0.195	998002	keystroke_t	t	n/a
499.151	0.135	998302	keystroke_e	e	n/a
499.256	0.18	998512	keystroke_Key.space	Key.space	n/a
499.376	0.15	998752	keystroke_h	h	n/a
499.496	0.105	998992	keystroke_e	e	n/a
499.706	0.1505	999412	keystroke_v	v	n/a
499.8265	0.15	999653	keystroke_a	a	n/a
499.9615	0.12	999923	keystroke_n	n	n/a
500.4415	0.045	1000883	keystroke_Key.backspace	Key.backspace	n/a
500.5615	0.03	1001123	keystroke_Key.backspace	Key.backspace	n/a
500.906	0.06	1001812	keystroke_Key.backspace	Key.backspace	n/a
501.041	0.075	1002082	keystroke_Key.backspace	Key.backspace	n/a
501.206	0.135	1002412	keystroke_a	a	n/a
501.821	0.12	1003642	keystroke_v	v	n/a
501.911	0.15	1003822	keystroke_e	e	n/a
502.076	0.0895	1004152	keystroke_n	n	n/a
502.091	0.0595	1004182	keystroke_b	b	n/a
502.376	0.09	1004752	keystroke_;	;	n/a
502.751	0.0605	1005502	keystroke_Key.backspace	Key.backspace	n/a
502.9165	0.075	1005833	keystroke_Key.backspace	Key.backspace	n/a
503.2465	0.06	1006493	keystroke_Key.backspace	Key.backspace	n/a
504.3265	0.075	1008653	keystroke_n	n	n/a
504.8955	0.091	1009791	keystroke_;	;	n/a
505.2105	0.12	1010421	keystroke_t	t	n/a
505.5105	0.045	1011021	keystroke_Key.backspace	Key.backspace	n/a
505.6305	0.075	1011261	keystroke_Key.backspace	Key.backspace	n/a
506.201	0.09	1012402	keystroke_[	[	n/a
507.5505	0.0755	1015101	keystroke_Key.backspace	Key.backspace	n/a
509.5305	0.15	1019061	keystroke_'	'	n/a
509.7405	0.12	1019481	keystroke_t	t	n/a
510.2205	0.1355	1020441	keystroke_Key.enter	Key.enter	n/a
510.361	6.882	1020722	prompt	n/a	mesh arrivals wales declared\n
511.6605	0.12	1023321	keystroke_m	m	n/a
512.021	0.21	1024042	keystroke_e	e	n/a
512.126	0.1655	1024252	keystroke_s	s	n/a
512.396	0.21	1024792	keystroke_h	h	n/a
512.516	0.1805	1025032	keystroke_Key.space	Key.space	n/a
512.6815	0.165	1025363	keystroke_a	a	n/a
512.8315	0.09	1025663	keystroke_r	r	n/a
513.0115	0.105	1026023	keystroke_r	r	n/a
513.2065	0.12	1026413	keystroke_i	i	n/a
513.3865	0.195	1026773	keystroke_v	v	n/a
513.5215	0.135	1027043	keystroke_a	a	n/a
513.6865	0.12	1027373	keystroke_l	l	n/a
513.7915	0.12	1027583	keystroke_s	s	n/a
513.9265	0.12	1027853	keystroke_Key.space	Key.space	n/a
514.0615	0.195	1028123	keystroke_w	w	n/a
514.1515	0.18	1028303	keystroke_a	a	n/a
514.3465	0.135	1028693	keystroke_l	l	n/a
514.9315	0.2395	1029863	keystroke_e	e	n/a
515.021	0.21	1030042	keystroke_s	s	n/a
515.246	0.135	1030492	keystroke_Key.space	Key.space	n/a
515.351	0.225	1030702	keystroke_d	d	n/a
515.546	0.195	1031092	keystroke_e	e	n/a
515.9365	0.12	1031873	keystroke_c	c	n/a
516.236	0.1205	1032472	keystroke_l	l	n/a
516.4315	0.135	1032863	keystroke_a	a	n/a
516.5815	0.1355	1033163	keystroke_r	r	n/a
516.6715	0.18	1033343	keystroke_e	e	n/a
516.8665	0.135	1033733	keystroke_d	d	n/a
516.8815	0.015	1033763	keystroke_e	e	n/a
517.1215	0.12	1034243	keystroke_Key.enter	Key.enter	n/a
517.2465	10.8415	1034493	prompt	n/a	config iraqi curriculum kits\n
518.081	0.12	1036162	keystroke_c	c	n/a
518.591	0.1795	1037182	keystroke_o	o	n/a
518.666	0.21	1037332	keystroke_n	n	n/a
519.0415	0.1945	1038083	keystroke_f	f	n/a
519.326	0.135	1038652	keystroke_i	i	n/a
519.6565	0.0895	1039313	keystroke_g	g	n/a
520.3465	0.135	1040693	keystroke_Key.space	Key.space	n/a
520.6165	0.09	1041233	keystroke_i	i	n/a
520.8865	0.12	1041773	keystroke_r	r	n/a
521.1565	0.135	1042313	keystroke_a	a	n/a
521.5165	0.03	1043033	keystroke_q	q	n/a
521.936	0.09	1043872	keystroke_i	i	n/a
522.206	0.135	1044412	keystroke_Key.space	Key.space	n/a
522.551	0.105	1045102	keystroke_c	c	n/a
523.226	0.12	1046452	keystroke_u	u	n/a
524.111	0.105	1048222	keystroke_r	r	n/a
524.846	0.135	1049692	keystroke_r	r	n/a
525.116	0.1205	1050232	keystroke_i	i	n/a
525.851	0.105	1051702	keystroke_c	c	n/a
526.076	0.09	1052152	keystroke_u	u	n/a
526.391	0.105	1052782	keystroke_l	l	n/a
526.646	0.105	1053292	keystroke_u	u	n/a
526.931	0.12	1053862	keystroke_m	m	n/a
527.156	0.1195	1054312	keystroke_Key.space	Key.space	n/a
527.3655	0.09	1054731	keystroke_k	k	n/a
527.5755	0.09	1055151	keystroke_i	i	n/a
527.6505	0.181	1055301	keystroke_t	t	n/a
527.7865	0.15	1055573	keystroke_s	s	n/a
527.9515	0.135	1055903	keystroke_Key.enter	Key.enter	n/a
528.091	8.112	1056182	prompt	n/a	tanks bras piece providers\n
528.761	0.12	1057522	keystroke_t	t	n/a
528.941	0.135	1057882	keystroke_a	a	n/a
529.136	0.24	1058272	keystroke_n	n	n/a
529.301	0.15	1058602	keystroke_k	k	n/a
529.391	0.12	1058782	keystroke_s	s	n/a
529.526	0.21	1059052	keystroke_Key.space	Key.space	n/a
529.6765	0.1495	1059353	keystroke_b	b	n/a
529.8555	0.1505	1059711	keystroke_r	r	n/a
529.946	0.256	1059892	keystroke_a	a	n/a
530.126	0.1495	1060252	keystroke_s	s	n/a
530.2905	0.121	1060581	keystroke_Key.space	Key.space	n/a
530.4265	0.21	1060853	keystroke_p	p	n/a
530.5455	0.195	1061091	keystroke_i	i	n/a
530.6365	0.134	1061273	keystroke_e	e	n/a
530.922	0.119	1061844	keystroke_e	e	n/a
