onset	duration	sample	value	key	prompt_text
2.391	8.6085	4782	prompt	n/a	the quick brown fox jumps over a lazy dog\n
3.7835	0.0425	7567	keystroke_t	t	n/a
3.8555	0.09	7711	keystroke_h	h	n/a
4.351	0.09	8702	keystroke_e	e	n/a
4.4855	0.076	8971	keystroke_Key.space	Key.space	n/a
4.771	0.0895	9542	keystroke_q	q	n/a
4.9215	0.075	9843	keystroke_u	u	n/a
5.0865	0.09	10173	keystroke_i	i	n/a
5.1615	0.0455	10323	keystroke_c	c	n/a
5.341	0.031	10682	keystroke_k	k	n/a
5.5515	0.0865	11103	keystroke_Key.space	Key.space	n/a
5.7435	0.0595	11487	keystroke_Key.space	Key.space	n/a
5.909	0.089	11818	keystroke_r	r	n/a
6.298	0.0595	12596	keystroke_Key.backspace	Key.backspace	n/a
6.448	0.1045	12896	keystroke_Key.backspace	Key.backspace	n/a
6.583	0.0915	13166	keystroke_b	b	n/a
6.825	0.1045	13650	keystroke_r	r	n/a
6.9155	0.074	13831	keystroke_o	o	n/a
7.0655	0.12	14131	keystroke_w	w	n/a
7.1995	0.046	14399	keystroke_n	n	n/a
7.35	0.0595	14700	keystroke_Key.space	Key.space	n/a
7.4255	0.074	14851	keystroke_f	f	n/a
7.5455	0.06	15091	keystroke_o	o	n/a
7.6645	0.09	15329	keystroke_x	x	n/a
7.8	0.0745	15600	keystroke_Key.space	Key.space	n/a
7.9945	0.061	15989	keystroke_j	j	n/a
8.1155	0.075	16231	keystroke_u	u	n/a
8.295	0.0605	16590	keystroke_m	m	n/a
8.49	0.0595	16980	keystroke_p	p	n/a
8.5645	0.091	17129	keystroke_s	s	n/a
8.6695	0.091	17339	keystroke_Key.space	Key.space	n/a
8.8805	0.044	17761	keystroke_o	o	n/a
8.9105	0.089	17821	keystroke_v	v	n/a
8.9845	0.1505	17969	keystroke_e	e	n/a
9.09	0.1055	18180	keystroke_r	r	n/a
9.1805	0.074	18361	keystroke_Key.space	Key.space	n/a
9.2855	0.105	18571	keystroke_a	a	n/a
9.345	0.0745	18690	keystroke_Key.space	Key.space	n/a
9.5555	0.044	19111	keystroke_l	l	n/a
9.9455	0.06	19891	keystroke_a	a	n/a
10.1255	0.1045	20251	keystroke_z	z	n/a
10.2605	0.105	20521	keystroke_y	y	n/a
10.3795	0.075	20759	keystroke_Key.space	Key.space	n/a
10.5305	0.1045	21061	keystroke_d	d	n/a
10.68	0.0745	21360	keystroke_o	o	n/a
10.7695	0.061	21539	keystroke_g	g	n/a
10.8895	0.1055	21779	keystroke_Key.enter	Key.enter	n/a
11.006	7.9425	22012	prompt	n/a	official immediately transferred disclosure\n
11.5505	0.09	23101	keystroke_o	o	n/a
11.625	0.075	23250	keystroke_f	f	n/a
11.7605	0.09	23521	keystroke_f	f	n/a
11.88	0.061	23760	keystroke_i	i	n/a
11.9555	0.0895	23911	keystroke_c	c	n/a
12.06	0.0605	24120	keystroke_i	i	n/a
12.091	0.074	24182	keystroke_a	a	n/a
12.24	0.0905	24480	keystroke_l	l	n/a
12.45	0.0595	24900	keystroke_Key.space	Key.space	n/a
12.63	0.045	25260	keystroke_i	i	n/a
12.7645	0.076	25529	keystroke_m	m	n/a
12.975	0.0745	25950	keystroke_m	m	n/a
13.1405	0.075	26281	keystroke_e	e	n/a
13.29	0.0755	26580	keystroke_d	d	n/a
13.455	0.0605	26910	keystroke_i	i	n/a
13.5445	0.106	27089	keystroke_a	a	n/a
13.9055	0.0895	27811	keystroke_t	t	n/a
14.0105	0.09	28021	keystroke_e	e	n/a
14.22	0.09	28440	keystroke_y	y	n/a
14.4455	0.075	28891	keystroke_Key.backspace	Key.backspace	n/a
14.595	0.105	29190	keystroke_l	l	n/a
14.685	0.0755	29370	keystroke_y	y	n/a
14.8955	0.09	29791	keystroke_Key.space	Key.space	n/a
15.5105	0.075	31021	keystroke_t	t	n/a
15.6755	0.09	31351	keystroke_r	r	n/a
15.7655	0.09	31531	keystroke_a	a	n/a
15.8405	0.075	31681	keystroke_n	n	n/a
16.0055	0.09	32011	keystroke_s	s	n/a
16.2155	0.09	32431	keystroke_f	f	n/a
16.365	0.09	32730	keystroke_e	e	n/a
16.5	0.06	33000	keystroke_r	r	n/a
17.1605	0.105	34321	keystroke_r	r	n/a
17.2355	0.12	34471	keystroke_e	e	n/a
17.4	0.0755	34800	keystroke_d	d	n/a
17.49	0.09	34980	keystroke_Key.space	Key.space	n/a
17.67	0.0755	35340	keystroke_d	d	n/a
17.79	0.075	35580	keystroke_i	i	n/a
17.8505	0.0895	35701	keystroke_s	s	n/a
17.955	0.09	35910	keystroke_c	c	n/a
18.1055	0.0745	36211	keystroke_l	l	n/a
18.3305	0.06	36661	keystroke_o	o	n/a
18.4345	0.1055	36869	keystroke_s	s	n/a
18.5705	0.0745	37141	keystroke_u	u	n/a
18.66	0.1055	37320	keystroke_r	r	n/a
18.72	0.1055	37440	keystroke_e	e	n/a
18.84	0.1055	37680	keystroke_Key.enter	Key.enter	n/a
18.954	5.154	37908	prompt	n/a	native ranks senior slovenia\n
19.6205	0.09	39241	keystroke_n	n	n/a
19.711	0.119	39422	keystroke_a	a	n/a
19.7555	0.09	39511	keystroke_t	t	n/a
19.86	0.06	39720	keystroke_i	i	n/a
19.965	0.105	39930	keystroke_v	v	n/a
20.0405	0.1045	40081	keystroke_e	e	n/a
20.16	0.0755	40320	keystroke_Key.space	Key.space	n/a
20.31	0.136	40620	keystroke_r	r	n/a
20.447	0.058	40894	keystroke_a	a	n/a
20.475	0.06	40950	keystroke_n	n	n/a
20.641	0.0745	41282	keystroke_k	k	n/a
20.701	0.0895	41402	keystroke_s	s	n/a
20.8055	0.09	41611	keystroke_Key.space	Key.space	n/a
20.9255	0.09	41851	keystroke_e	e	n/a
21.0755	0.06	42151	keystroke_n	n	n/a
21.63	0.075	43260	keystroke_Key.backspace	Key.backspace	n/a
21.7655	0.1045	43531	keystroke_Key.backspace	Key.backspace	n/a
21.885	0.0605	43770	keystroke_s	s	n/a
22.0505	0.075	44101	keystroke_e	e	n/a
22.231	0.0595	44462	keystroke_n	n	n/a
22.575	0.0455	45150	keystroke_i	i	n/a
22.74	0.045	45480	keystroke_o	o	n/a
22.801	0.06	45602	keystroke_r	r	n/a
22.9045	0.0755	45809	keystroke_Key.space	Key.space	n/a
23.0255	0.09	46051	keystroke_s	s	n/a
23.1305	0.045	46261	keystroke_o	o	n/a
23.2655	0.09	46531	keystroke_l	l	n/a
23.3405	0.135	46681	keystroke_v	v	n/a
23.4605	0.09	46921	keystroke_e	e	n/a
23.5355	0.075	47071	keystroke_n	n	n/a
23.806	0.0445	47612	keystroke_i	i	n/a
23.8805	0.105	47761	keystroke_a	a	n/a
24.0005	0.105	48001	keystroke_Key.enter	Key.enter	n/a
24.1125	4.7045	48225	prompt	n/a	employed beverages urge swiss\n
24.721	0.0895	49442	keystroke_e	e	n/a
24.7945	0.076	49589	keystroke_m	m	n/a
25.0055	0.06	50011	keystroke_p	p	n/a
25.1705	0.06	50341	keystroke_l	l	n/a
25.3055	0.0895	50611	keystroke_o	o	n/a
25.3805	0.09	50761	keystroke_y	y	n/a
25.44	0.09	50880	keystroke_e	e	n/a
25.6055	0.0745	51211	keystroke_d	d	n/a
25.71	0.0755	51420	keystroke_Key.space	Key.space	n/a
25.815	0.0905	51630	keystroke_b	b	n/a
25.9205	0.135	51841	keystroke_e	e	n/a
26.37	0.166	52740	keystroke_v	v	n/a
26.5055	0.1495	53011	keystroke_e	e	n/a
26.64	0.105	53280	keystroke_r	r	n/a
26.7605	0.12	53521	keystroke_a	a	n/a
26.895	0.09	53790	keystroke_g	g	n/a
26.9705	0.075	53941	keystroke_e	e	n/a
27.12	0.091	54240	keystroke_s	s	n/a
27.211	0.0745	54422	keystroke_Key.space	Key.space	n/a
27.435	0.06	54870	keystroke_u	u	n/a
27.48	0.0905	54960	keystroke_r	r	n/a
27.676	0.104	55352	keystroke_g	g	n/a
27.735	0.106	55470	keystroke_e	e	n/a
27.87	0.09	55740	keystroke_Key.space	Key.space	n/a
28.005	0.061	56010	keystroke_s	s	n/a
28.1705	0.075	56341	keystroke_w	w	n/a
28.2755	0.074	56551	keystroke_i	i	n/a
28.456	0.059	56912	keystroke_s	s	n/a
28.6055	0.0755	57211	keystroke_s	s	n/a
28.7105	0.105	57421	keystroke_Key.enter	Key.enter	n/a
28.822	4.5555	57644	prompt	n/a	vampire teeth jail employers\n
29.416	0.0895	58832	keystroke_v	v	n/a
29.506	0.089	59012	keystroke_a	a	n/a
29.58	0.0755	59160	keystroke_m	m	n/a
29.8055	0.06	59611	keystroke_p	p	n/a
30.001	0.06	60002	keystroke_i	i	n/a
30.225	0.136	60450	keystroke_r	r	n/a
30.3	0.106	60600	keystroke_e	e	n/a
30.435	0.09	60870	keystroke_Key.space	Key.space	n/a
30.601	0.0895	61202	keystroke_t	t	n/a
30.675	0.06	61350	keystroke_e	e	n/a
30.8105	0.0905	61621	keystroke_e	e	n/a
30.931	0.0745	61862	keystroke_t	t	n/a
31.0355	0.09	62071	keystroke_h	h	n/a
31.2155	0.075	62431	keystroke_Key.space	Key.space	n/a
31.4105	0.0605	62821	keystroke_j	j	n/a
31.4855	0.075	62971	keystroke_a	a	n/a
31.5755	0.075	63151	keystroke_i	i	n/a
31.756	0.0745	63512	keystroke_l	l	n/a
31.9355	0.0745	63871	keystroke_Key.space	Key.space	n/a
32.0255	0.1345	64051	keystroke_e	e	n/a
32.1455	0.0455	64291	keystroke_m	m	n/a
32.326	0.045	64652	keystroke_p	p	n/a
32.476	0.0745	64952	keystroke_l	l	n/a
32.6255	0.09	65251	keystroke_o	o	n/a
32.7005	0.1045	65401	keystroke_y	y	n/a
32.865	0.121	65730	keystroke_e	e	n/a
32.971	0.1345	65942	keystroke_r	r	n/a
33.1205	0.0905	66241	keystroke_s	s	n/a
33.2705	0.104	66541	keystroke_Key.enter	Key.enter	n/a
33.383	5.7705	66766	prompt	n/a	shadows component mention stuck\n
33.945	0.106	67890	keystroke_s	s	n/a
34.14	0.061	68280	keystroke_h	h	n/a
34.485	0.0755	68970	keystroke_a	a	n/a
34.651	0.09	69302	keystroke_d	d	n/a
34.7705	0.075	69541	keystroke_o	o	n/a
34.8905	0.12	69781	keystroke_w	w	n/a
35.1605	0.075	70321	keystroke_s	s	n/a
35.2805	0.0595	70561	keystroke_Key.space	Key.space	n/a
35.4905	0.075	70981	keystroke_c	c	n/a
35.9105	0.0605	71821	keystroke_o	o	n/a
36.0755	0.075	72151	keystroke_m	m	n/a
36.3005	0.06	72601	keystroke_p	p	n/a
36.4805	0.075	72961	keystroke_o	o	n/a
36.6755	0.075	73351	keystroke_n	n	n/a
36.765	0.1055	73530	keystroke_e	e	n/a
36.855	0.075	73710	keystroke_n	n	n/a
36.9755	0.0595	73951	keystroke_t	t	n/a
37.05	0.06	74100	keystroke_Key.space	Key.space	n/a
37.23	0.075	74460	keystroke_m	m	n/a
37.32	0.1055	74640	keystroke_e	e	n/a
37.44	0.076	74880	keystroke_n	n	n/a
37.53	0.09	75060	keystroke_t	t	n/a
37.665	0.06	75330	keystroke_i	i	n/a
37.816	0.074	75632	keystroke_o	o	n/a
37.86	0.075	75720	keystroke_n	n	n/a
38.055	0.0755	76110	keystroke_Key.space	Key.space	n/a
38.16	0.105	76320	keystroke_s	s	n/a
38.28	0.075	76560	keystroke_t	t	n/a
38.4155	0.06	76831	keystroke_u	u	n/a
38.4905	0.06	76981	keystroke_c	c	n/a
38.671	0.029	77342	keystroke_k	k	n/a
39.0455	0.105	78091	keystroke_Key.enter	Key.enter	n/a
39.16	5.7825	78320	prompt	n/a	growing followed opinions adam\n
39.735	0.09	79470	keystroke_g	g	n/a
39.915	0.0905	79830	keystroke_r	r	n/a
40.02	0.0755	80040	keystroke_o	o	n/a
40.11	0.105	80220	keystroke_w	w	n/a
40.2305	0.0595	80461	keystroke_i	i	n/a
40.426	0.059	80852	keystroke_n	n	n/a
40.5155	0.0745	81031	keystroke_g	g	n/a
40.591	0.089	81182	keystroke_Key.space	Key.space	n/a
40.815	0.09	81630	keystroke_f	f	n/a
40.921	0.0745	81842	keystroke_o	o	n/a
41.13	0.06	82260	keystroke_l	l	n/a
41.2655	0.0595	82531	keystroke_l	l	n/a
41.4305	0.075	82861	keystroke_o	o	n/a
41.551	0.165	83102	keystroke_w	w	n/a
41.776	0.089	83552	keystroke_e	e	n/a
41.9705	0.06	83941	keystroke_d	d	n/a
42.045	0.0755	84090	keystroke_Key.space	Key.space	n/a
42.856	0.0295	85712	keystroke_o	o	n/a
43.0055	0.06	86011	keystroke_p	p	n/a
43.1855	0.06	86371	keystroke_i	i	n/a
43.3505	0.0745	86701	keystroke_n	n	n/a
43.56	0.03	87120	keystroke_i	i	n/a
43.711	0.0745	87422	keystroke_o	o	n/a
43.7705	0.075	87541	keystroke_n	n	n/a
43.9505	0.09	87901	keystroke_s	s	n/a
44.0555	0.06	88111	keystroke_Key.space	Key.space	n/a
44.251	0.0745	88502	keystroke_a	a	n/a
44.4005	0.12	88801	keystroke_d	d	n/a
44.5355	0.12	89071	keystroke_a	a	n/a
44.6705	0.045	89341	keystroke_m	m	n/a
44.851	0.089	89702	keystroke_Key.enter	Key.enter	n/a
44.9495	6.4275	89899	prompt	n/a	peers subcommittee victory determined\n
45.5705	0.0595	91141	keystroke_p	p	n/a
45.645	0.075	91290	keystroke_e	e	n/a
45.81	0.09	91620	keystroke_e	e	n/a
45.915	0.105	91830	keystroke_r	r	n/a
46.036	0.0595	92072	keystroke_s	s	n/a
46.1105	0.075	92221	keystroke_Key.space	Key.space	n/a
46.3655	0.09	92731	keystroke_s	s	n/a
46.5605	0.06	93121	keystroke_u	u	n/a
46.6505	0.06	93301	keystroke_b	b	n/a
46.8905	0.075	93781	keystroke_c	c	n/a
46.9805	0.075	93961	keystroke_o	o	n/a
47.1605	0.06	94321	keystroke_m	m	n/a
47.2955	0.075	94591	keystroke_m	m	n/a
47.5055	0.0595	95011	keystroke_i	i	n/a
47.58	0.075	95160	keystroke_t	t	n/a
47.88	0.105	95760	keystroke_t	t	n/a
48.0905	0.0595	96181	keystroke_e	e	n/a
48.225	0.0905	96450	keystroke_e	e	n/a
48.45	0.075	96900	keystroke_Key.space	Key.space	n/a
48.6005	0.075	97201	keystroke_v	v	n/a
48.7355	0.06	97471	keystroke_i	i	n/a
48.8105	0.06	97621	keystroke_c	c	n/a
48.9905	0.06	97981	keystroke_t	t	n/a
49.0805	0.1045	98161	keystroke_o	o	n/a
49.17	0.075	98340	keystroke_r	r	n/a
49.365	0.06	98730	keystroke_y	y	n/a
49.485	0.075	98970	keystroke_Key.space	Key.space	n/a
49.665	0.105	99330	keystroke_d	d	n/a
49.785	0.121	99570	keystroke_e	e	n/a
49.92	0.106	99840	keystroke_t	t	n/a
50.041	0.12	100082	keystroke_e	e	n/a
50.146	0.09	100292	keystroke_r	r	n/a
50.3555	0.0605	100711	keystroke_m	m	n/a
50.5355	0.045	101071	keystroke_i	i	n/a
50.6855	0.09	101371	keystroke_n	n	n/a
50.7455	0.12	101491	keystroke_e	e	n/a
51.0005	0.075	102001	keystroke_d	d	n/a
51.2705	0.105	102541	keystroke_Key.enter	Key.enter	n/a
51.3815	7.8705	102763	prompt	n/a	arch mcdonald meanwhile roads\n
51.9605	0.09	103921	keystroke_a	a	n/a
52.1255	0.015	104251	keystroke_c	c	n/a
52.5295	0.091	105059	keystroke_Key.backspace	Key.backspace	n/a
52.8305	0.075	105661	keystroke_r	r	n/a
53.0405	0.0595	106081	keystroke_c	c	n/a
53.0855	0.075	106171	keystroke_h	h	n/a
53.49	0.0755	106980	keystroke_Key.space	Key.space	n/a
53.686	0.059	107372	keystroke_m	m	n/a
53.8655	0.09	107731	keystroke_c	c	n/a
54.1505	0.045	108301	keystroke_d	d	n/a
54.2255	0.06	108451	keystroke_o	o	n/a
54.405	0.075	108810	keystroke_n	n	n/a
54.4955	0.09	108991	keystroke_a	a	n/a
54.6	0.075	109200	keystroke_l	l	n/a
54.705	0.061	109410	keystroke_d	d	n/a
54.795	0.0755	109590	keystroke_Key.space	Key.space	n/a
54.9755	0.075	109951	keystroke_m	m	n/a
55.0355	0.09	110071	keystroke_e	e	n/a
55.2305	0.09	110461	keystroke_a	a	n/a
55.3355	0.0755	110671	keystroke_n	n	n/a
55.59	0.045	111180	keystroke_h	h	n/a
55.83	0.075	111660	keystroke_Key.backspace	Key.backspace	n/a
55.936	0.089	111872	keystroke_w	w	n/a
56.01	0.075	112020	keystroke_h	h	n/a
56.19	0.061	112380	keystroke_i	i	n/a
56.385	0.046	112770	keystroke_k	k	n/a
56.4	0.016	112800	keystroke_l	l	n/a
56.445	0.06	112890	keystroke_e	e	n/a
56.985	0.0905	113970	keystroke_Key.backspace	Key.backspace	n/a
57.1655	0.09	114331	keystroke_Key.backspace	Key.backspace	n/a
57.6005	0.12	115201	keystroke_Key.backspace	Key.backspace	n/a
58.3355	0.09	116671	keystroke_l	l	n/a
58.44	0.09	116880	keystroke_e	e	n/a
58.545	0.075	117090	keystroke_Key.space	Key.space	n/a
58.681	0.104	117362	keystroke_r	r	n/a
58.8	0.06	117600	keystroke_o	o	n/a
58.8455	0.135	117691	keystroke_a	a	n/a
58.9505	0.1495	117901	keystroke_d	d	n/a
59.04	0.105	118080	keystroke_s	s	n/a
59.13	0.12	118260	keystroke_Key.enter	Key.enter	n/a
59.2565	6.493	118513	prompt	n/a	mortality ongoing alpha contamination\n
59.85	0.075	119700	keystroke_m	m	n/a
60.045	0.06	120090	keystroke_o	o	n/a
60.12	0.0755	120240	keystroke_r	r	n/a
60.271	0.089	120542	keystroke_t	t	n/a
60.375	0.091	120750	keystroke_a	a	n/a
60.466	0.075	120932	keystroke_t	t	n/a
60.81	0.075	121620	keystroke_Key.backspace	Key.backspace	n/a
60.991	0.059	121982	keystroke_l	l	n/a
61.1705	0.06	122341	keystroke_i	i	n/a
61.2155	0.06	122431	keystroke_t	t	n/a
61.3505	0.0905	122701	keystroke_y	y	n/a
61.4555	0.075	122911	keystroke_Key.space	Key.space	n/a
61.6505	0.06	123301	keystroke_o	o	n/a
61.8455	0.045	123691	keystroke_n	n	n/a
61.9205	0.09	123841	keystroke_g	g	n/a
62.0255	0.06	124051	keystroke_o	o	n/a
62.1905	0.074	124381	keystroke_i	i	n/a
62.2955	0.1355	124591	keystroke_n	n	n/a
62.3705	0.105	124741	keystroke_g	g	n/a
62.4895	0.075	124979	keystroke_Key.space	Key.space	n/a
62.611	0.1045	125222	keystroke_a	a	n/a
62.7305	0.06	125461	keystroke_l	l	n/a
62.896	0.074	125792	keystroke_p	p	n/a
62.985	0.0905	125970	keystroke_h	h	n/a
63.1505	0.1045	126301	keystroke_a	a	n/a
63.24	0.075	126480	keystroke_Key.space	Key.space	n/a
63.5255	0.09	127051	keystroke_c	c	n/a
63.6005	0.06	127201	keystroke_o	o	n/a
63.7645	0.076	127529	keystroke_n	n	n/a
63.826	0.1045	127652	keystroke_t	t	n/a
63.9905	0.06	127981	keystroke_a	a	n/a
64.0805	0.09	128161	keystroke_m	m	n/a
64.815	0.0605	129630	keystroke_i	i	n/a
64.9805	0.075	129961	keystroke_n	n	n/a
65.0705	0.1205	130141	keystroke_a	a	n/a
65.175	0.0905	130350	keystroke_t	t	n/a
65.2655	0.045	130531	keystroke_i	i	n/a
65.415	0.091	130830	keystroke_o	o	n/a
65.491	0.104	130982	keystroke_n	n	n/a
65.625	0.12	131250	keystroke_Key.enter	Key.enter	n/a
65.7555	4.7015	131511	prompt	n/a	copper auctions madrid snow\n
66.361	0.104	132722	keystroke_c	c	n/a
66.48	0.046	132960	keystroke_o	o	n/a
66.6455	0.06	133291	keystroke_p	p	n/a
66.7805	0.0745	133561	keystroke_p	p	n/a
66.871	0.104	133742	keystroke_e	e	n/a
66.9305	0.09	133861	keystroke_r	r	n/a
67.035	0.09	134070	keystroke_Key.space	Key.space	n/a
67.155	0.075	134310	keystroke_a	a	n/a
67.2755	0.0445	134551	keystroke_u	u	n/a
67.6655	0.09	135331	keystroke_c	c	n/a
67.8455	0.09	135691	keystroke_t	t	n/a
67.9205	0.045	135841	keystroke_i	i	n/a
68.0705	0.075	136141	keystroke_o	o	n/a
68.131	0.0745	136262	keystroke_n	n	n/a
68.3105	0.09	136621	keystroke_s	s	n/a
68.4155	0.075	136831	keystroke_Key.space	Key.space	n/a
68.6105	0.06	137221	keystroke_m	m	n/a
68.6855	0.0895	137371	keystroke_a	a	n/a
68.805	0.0905	137610	keystroke_d	d	n/a
69.031	0.074	138062	keystroke_r	r	n/a
69.33	0.06	138660	keystroke_i	i	n/a
69.4055	0.09	138811	keystroke_d	d	n/a
69.645	0.0605	139290	keystroke_Key.space	Key.space	n/a
69.885	0.105	139770	keystroke_s	s	n/a
69.9755	0.0745	139951	keystroke_n	n	n/a
70.185	0.075	140370	keystroke_o	o	n/a
70.2905	0.1045	140581	keystroke_w	w	n/a
70.3505	0.1045	140701	keystroke_Key.enter	Key.enter	n/a
70.463	4.1345	140926	prompt	n/a	sometimes eagles medium logic\n
71.011	0.0895	142022	keystroke_s	s	n/a
71.1155	0.06	142231	keystroke_o	o	n/a
71.281	0.09	142562	keystroke_m	m	n/a
71.355	0.09	142710	keystroke_e	e	n/a
71.43	0.105	142860	keystroke_t	t	n/a
71.5505	0.0595	143101	keystroke_i	i	n/a
71.7	0.075	143400	keystroke_m	m	n/a
71.7455	0.0745	143491	keystroke_e	e	n/a
71.9405	0.0745	143881	keystroke_s	s	n/a
71.9555	0.09	143911	keystroke_Key.space	Key.space	n/a
72.121	0.104	144242	keystroke_e	e	n/a
72.2405	0.09	144481	keystroke_a	a	n/a
72.3605	0.0755	144721	keystroke_g	g	n/a
72.4655	0.09	144931	keystroke_l	l	n/a
72.5405	0.06	145081	keystroke_e	e	n/a
72.6905	0.0905	145381	keystroke_s	s	n/a
72.7645	0.0605	145529	keystroke_Key.space	Key.space	n/a
72.93	0.0755	145860	keystroke_m	m	n/a
72.9905	0.075	145981	keystroke_e	e	n/a
73.11	0.0755	146220	keystroke_d	d	n/a
73.231	0.0895	146462	keystroke_i	i	n/a
73.425	0.06	146850	keystroke_u	u	n/a
73.5905	0.075	147181	keystroke_m	m	n/a
73.6955	0.0745	147391	keystroke_Key.space	Key.space	n/a
73.8455	0.0755	147691	keystroke_l	l	n/a
73.995	0.0755	147990	keystroke_o	o	n/a
74.055	0.09	148110	keystroke_g	g	n/a
74.205	0.075	148410	keystroke_i	i	n/a
74.3105	0.1045	148621	keystroke_c	c	n/a
74.475	0.1205	148950	keystroke_Key.enter	Key.enter	n/a
74.6025	5.5005	149205	prompt	n/a	supplier seeing feof producer\n
75.165	0.075	150330	keystroke_s	s	n/a
75.3	0.0455	150600	keystroke_u	u	n/a
75.511	0.074	151022	keystroke_p	p	n/a
75.69	0.03	151380	keystroke_p	p	n/a
76.141	0.074	152282	keystroke_l	l	n/a
76.35	0.0755	152700	keystroke_i	i	n/a
76.56	0.105	153120	keystroke_e	e	n/a
76.6505	0.09	153301	keystroke_r	r	n/a
76.8	0.0895	153600	keystroke_Key.space	Key.space	n/a
76.9955	0.059	153991	keystroke_s	s	n/a
77.1445	0.06	154289	keystroke_e	e	n/a
77.2655	0.074	154531	keystroke_e	e	n/a
77.3705	0.0595	154741	keystroke_i	i	n/a
77.535	0.09	155070	keystroke_n	n	n/a
77.61	0.09	155220	keystroke_g	g	n/a
77.7305	0.0745	155461	keystroke_Key.space	Key.space	n/a
78.0155	0.135	156031	keystroke_f	f	n/a
78.1955	0.075	156391	keystroke_e	e	n/a
78.3155	0.075	156631	keystroke_o	o	n/a
78.4955	0.105	156991	keystroke_f	f	n/a
78.63	0.0755	157260	keystroke_Key.space	Key.space	n/a
78.9155	0.06	157831	keystroke_p	p	n/a
78.9605	0.075	157921	keystroke_r	r	n/a
79.1105	0.075	158221	keystroke_o	o	n/a
79.2755	0.105	158551	keystroke_d	d	n/a
79.5005	0.06	159001	keystroke_u	u	n/a
79.5755	0.075	159151	keystroke_c	c	n/a
79.7405	0.135	159481	keystroke_e	e	n/a
79.8605	0.105	159721	keystroke_r	r	n/a
79.995	0.105	159990	keystroke_Key.enter	Key.enter	n/a
80.1075	6.5795	160215	prompt	n/a	wound minerals harris prevention\n
80.7005	0.045	161401	keystroke_w	w	n/a
80.7755	0.09	161551	keystroke_o	o	n/a
80.9695	0.0755	161939	keystroke_u	u	n/a
81.1645	0.061	162329	keystroke_n	n	n/a
81.2255	0.06	162451	keystroke_d	d	n/a
81.33	0.0595	162660	keystroke_Key.space	Key.space	n/a
81.4805	0.06	162961	keystroke_m	m	n/a
81.6605	0.045	163321	keystroke_i	i	n/a
81.825	0.075	163650	keystroke_n	n	n/a
81.885	0.12	163770	keystroke_e	e	n/a
81.96	0.105	163920	keystroke_r	r	n/a
82.095	0.075	164190	keystroke_a	a	n/a
82.185	0.0605	164370	keystroke_l	l	n/a
82.29	0.09	164580	keystroke_s	s	n/a
82.455	0.075	164910	keystroke_Key.space	Key.space	n/a
82.9055	0.0745	165811	keystroke_h	h	n/a
83.0245	0.106	166049	keystroke_a	a	n/a
83.175	0.0755	166350	keystroke_r	r	n/a
83.2805	0.0895	166561	keystroke_r	r	n/a
83.3995	0.061	166799	keystroke_i	i	n/a
83.505	0.09	167010	keystroke_s	s	n/a
83.6105	0.0745	167221	keystroke_Key.space	Key.space	n/a
83.895	0.06	167790	keystroke_p	p	n/a
83.97	0.09	167940	keystroke_r	r	n/a
84.045	0.09	168090	keystroke_e	e	n/a
84.195	0.1205	168390	keystroke_v	v	n/a
84.2855	0.105	168571	keystroke_e	e	n/a
84.435	0.075	168870	keystroke_n	n	n/a
84.555	0.09	169110	keystroke_t	t	n/a
84.81	0.0755	169620	keystroke_o	o	n/a
84.855	0.0755	169710	keystroke_n	n	n/a
85.5155	0.09	171031	keystroke_Key.backspace	Key.backspace	n/a
85.965	0.1195	171930	keystroke_Key.backspace	Key.backspace	n/a
86.235	0.0455	172470	keystroke_i	i	n/a
86.3845	0.076	172769	keystroke_o	o	n/a
86.4305	0.089	172861	keystroke_n	n	n/a
86.5795	0.105	173159	keystroke_Key.enter	Key.enter	n/a
86.6915	7.2405	173383	prompt	n/a	subjects missed instructors exhaust\n
87.27	0.0755	174540	keystroke_s	s	n/a
87.375	0.0605	174750	keystroke_u	u	n/a
87.4505	0.0745	174901	keystroke_b	b	n/a
87.69	0.0605	175380	keystroke_j	j	n/a
87.765	0.105	175530	keystroke_e	e	n/a
87.9155	0.09	175831	keystroke_c	c	n/a
88.08	0.1055	176160	keystroke_t	t	n/a
88.2	0.075	176400	keystroke_s	s	n/a
88.4105	0.0595	176821	keystroke_m	m	n/a
88.83	0.09	177660	keystroke_Key.backspace	Key.backspace	n/a
89.31	0.075	178620	keystroke_Key.space	Key.space	n/a
89.4	0.075	178800	keystroke_m	m	n/a
89.6105	0.0295	179221	keystroke_i	i	n/a
89.7	0.0595	179400	keystroke_s	s	n/a
89.8645	0.09	179729	keystroke_s	s	n/a
90.12	0.105	180240	keystroke_e	e	n/a
90.2705	0.0745	180541	keystroke_d	d	n/a
90.36	0.075	180720	keystroke_Key.space	Key.space	n/a
90.6305	0.0295	181261	keystroke_i	i	n/a
90.7805	0.075	181561	keystroke_n	n	n/a
90.8855	0.075	181771	keystroke_s	s	n/a
91.0055	0.09	182011	keystroke_t	t	n/a
91.185	0.0745	182370	keystroke_r	r	n/a
91.2745	0.076	182549	keystroke_u	u	n/a
91.4255	0.075	182851	keystroke_c	c	n/a
91.6055	0.075	183211	keystroke_t	t	n/a
91.785	0.0755	183570	keystroke_o	o	n/a
91.8145	0.166	183629	keystroke_r	r	n/a
91.9655	0.104	183931	keystroke_s	s	n/a
92.0545	0.075	184109	keystroke_Key.space	Key.space	n/a
92.2945	0.075	184589	keystroke_e	e	n/a
92.4905	0.09	184981	keystroke_x	x	n/a
92.73	0.0455	185460	keystroke_a	a	n/a
93.015	0.09	186030	keystroke_Key.backspace	Key.backspace	n/a
93.2405	0.0745	186481	keystroke_h	h	n/a
93.345	0.075	186690	keystroke_a	a	n/a
93.4505	0.06	186901	keystroke_u	u	n/a
93.5705	0.0745	187141	keystroke_s	s	n/a
93.675	0.105	187350	keystroke_t	t	n/a
93.8405	0.0895	187681	keystroke_Key.enter	Key.enter	n/a
93.9385	4.5985	187877	prompt	n/a	accused cathedral bottle adware\n
94.5005	0.09	189001	keystroke_a	a	n/a
94.6655	0.06	189331	keystroke_c	c	n/a
94.7855	0.09	189571	keystroke_c	c	n/a
94.935	0.06	189870	keystroke_u	u	n/a
95.025	0.045	190050	keystroke_s	s	n/a
95.1605	0.1045	190321	keystroke_e	e	n/a
95.3105	0.0595	190621	keystroke_d	d	n/a
95.385	0.075	190770	keystroke_Key.space	Key.space	n/a
95.58	0.075	191160	keystroke_c	c	n/a
95.67	0.075	191340	keystroke_a	a	n/a
95.79	0.075	191580	keystroke_t	t	n/a
95.895	0.075	191790	keystroke_h	h	n/a
96.0005	0.1045	192001	keystroke_e	e	n/a
96.21	0.09	192420	keystroke_d	d	n/a
96.4355	0.09	192871	keystroke_r	r	n/a
96.5405	0.09	193081	keystroke_a	a	n/a
96.6455	0.075	193291	keystroke_l	l	n/a
96.765	0.105	193530	keystroke_Key.space	Key.space	n/a
96.99	0.0745	193980	keystroke_b	b	n/a
97.0795	0.075	194159	keystroke_o	o	n/a
97.2005	0.06	194401	keystroke_t	t	n/a
97.32	0.075	194640	keystroke_t	t	n/a
97.4245	0.0755	194849	keystroke_l	l	n/a
97.5145	0.09	195029	keystroke_e	e	n/a
97.6195	0.075	195239	keystroke_Key.space	Key.space	n/a
97.74	0.1055	195480	keystroke_a	a	n/a
97.8305	0.0895	195661	keystroke_d	d	n/a
98.0255	0.1345	196051	keystroke_w	w	n/a
98.175	0.09	196350	keystroke_a	a	n/a
98.235	0.15	196470	keystroke_r	r	n/a
98.34	0.1045	196680	keystroke_e	e	n/a
98.4595	0.075	196919	keystroke_Key.enter	Key.enter	n/a
98.542	6.8955	197084	prompt	n/a	chargers gabriel beside flexibility\n
99.1945	0.0755	198389	keystroke_c	c	n/a
99.3295	0.0755	198659	keystroke_h	h	n/a
99.3895	0.105	198779	keystroke_a	a	n/a
99.465	0.0755	198930	keystroke_r	r	n/a
99.6445	0.091	199289	keystroke_g	g	n/a
99.6895	0.105	199379	keystroke_e	e	n/a
99.9145	0.106	199829	keystroke_r	r	n/a
100.1105	0.0895	200221	keystroke_s	s	n/a
100.215	0.0745	200430	keystroke_Key.space	Key.space	n/a
100.56	0.075	201120	keystroke_g	g	n/a
100.725	0.09	201450	keystroke_a	a	n/a
100.965	0.0745	201930	keystroke_b	b	n/a
101.2355	0.075	202471	keystroke_r	r	n/a
101.3545	0.061	202709	keystroke_i	i	n/a
101.445	0.0895	202890	keystroke_e	e	n/a
101.5495	0.075	203099	keystroke_l	l	n/a
101.7745	0.075	203549	keystroke_Key.space	Key.space	n/a
102.1655	0.0595	204331	keystroke_b	b	n/a
102.21	0.0745	204420	keystroke_e	e	n/a
102.945	0.105	205890	keystroke_s	s	n/a
103.0955	0.0595	206191	keystroke_i	i	n/a
103.29	0.1655	206580	keystroke_d	d	n/a
103.4405	0.105	206881	keystroke_e	e	n/a
103.5605	0.0745	207121	keystroke_Key.space	Key.space	n/a
103.74	0.12	207480	keystroke_f	f	n/a
103.9355	0.104	207871	keystroke_l	l	n/a
104.0705	0.089	208141	keystroke_e	e	n/a
104.3245	0.091	208649	keystroke_x	x	n/a
104.46	0.0745	208920	keystroke_i	i	n/a
104.5945	0.091	209189	keystroke_b	b	n/a
104.7	0.045	209400	keystroke_i	i	n/a
104.85	0.075	209700	keystroke_l	l	n/a
105.015	0.075	210030	keystroke_i	i	n/a
105.075	0.0605	210150	keystroke_t	t	n/a
105.21	0.0755	210420	keystroke_y	y	n/a
105.315	0.12	210630	keystroke_Key.enter	Key.enter	n/a
105.4425	6.6095	210885	prompt	n/a	compromise magazine banana trusts\n
106.05	0.045	212100	keystroke_c	c	n/a
106.065	0.0755	212130	keystroke_o	o	n/a
106.245	0.075	212490	keystroke_m	m	n/a
106.4405	0.0595	212881	keystroke_p	p	n/a
106.56	0.06	213120	keystroke_r	r	n/a
106.605	0.075	213210	keystroke_o	o	n/a
106.8005	0.074	213601	keystroke_m	m	n/a
106.995	0.0745	213990	keystroke_i	i	n/a
107.0545	0.0755	214109	keystroke_s	s	n/a
107.2205	0.104	214441	keystroke_e	e	n/a
107.3395	0.0455	214679	keystroke_Key.space	Key.space	n/a
107.535	0.06	215070	keystroke_m	m	n/a
107.6255	0.105	215251	keystroke_a	a	n/a
107.745	0.075	215490	keystroke_g	g	n/a
107.865	0.09	215730	keystroke_a	a	n/a
108.27	0.09	216540	keystroke_z	z	n/a
108.3755	0.0595	216751	keystroke_i	i	n/a
108.555	0.0605	217110	keystroke_n	n	n/a
108.6	0.0905	217200	keystroke_e	e	n/a
108.72	0.0745	217440	keystroke_Key.space	Key.space	n/a
108.9145	0.0605	217829	keystroke_b	b	n/a
109.08	0.0905	218160	keystroke_b	b	n/a
109.185	0.075	218370	keystroke_a	a	n/a
109.725	0.06	219450	keystroke_Key.backspace	Key.backspace	n/a
109.8595	0.105	219719	keystroke_Key.backspace	Key.backspace	n/a
110.01	0.0745	220020	keystroke_a	a	n/a
110.16	0.075	220320	keystroke_n	n	n/a
110.28	0.0905	220560	keystroke_a	a	n/a
110.6405	0.0745	221281	keystroke_n	n	n/a
110.76	0.09	221520	keystroke_a	a	n/a
110.895	0.075	221790	keystroke_Key.space	Key.space	n/a
111.15	0.0605	222300	keystroke_t	t	n/a
111.315	0.075	222630	keystroke_r	r	n/a
111.495	0.0905	222990	keystroke_u	u	n/a
111.6305	0.105	223261	keystroke_s	s	n/a
111.7505	0.12	223501	keystroke_t	t	n/a
111.8555	0.089	223711	keystroke_s	s	n/a
111.9605	0.09	223921	keystroke_Key.enter	Key.enter	n/a
112.057	5.32	224114	prompt	n/a	room ratio lawsuit shall\n
112.6355	0.09	225271	keystroke_r	r	n/a
112.7405	0.0595	225481	keystroke_o	o	n/a
112.845	0.0755	225690	keystroke_o	o	n/a
113.04	0.0605	226080	keystroke_m	m	n/a
113.19	0.09	226380	keystroke_Key.space	Key.space	n/a
113.2955	0.0895	226591	keystroke_r	r	n/a
113.4	0.105	226800	keystroke_a	a	n/a
113.49	0.075	226980	keystroke_t	t	n/a
113.58	0.06	227160	keystroke_i	i	n/a
113.745	0.06	227490	keystroke_o	o	n/a
113.79	0.0595	227580	keystroke_n	n	n/a
113.94	0.0745	227880	keystroke_Key.space	Key.space	n/a
114.1495	0.031	228299	keystroke_l	l	n/a
114.2105	0.134	228421	keystroke_a	a	n/a
114.5395	0.105	229079	keystroke_w	w	n/a
114.8095	0.091	229619	keystroke_t	t	n/a
115.1705	0.119	230341	keystroke_Key.backspace	Key.backspace	n/a
115.3955	0.074	230791	keystroke_s	s	n/a
115.6955	0.0745	231391	keystroke_u	u	n/a
115.89	0.105	231780	keystroke_i	i	n/a
115.9805	0.0745	231961	keystroke_t	t	n/a
116.13	0.075	232260	keystroke_Key.space	Key.space	n/a
116.385	0.06	232770	keystroke_h	h	n/a
116.625	0.09	233250	keystroke_Key.backspace	Key.backspace	n/a
116.716	0.0885	233432	keystroke_s	s	n/a
116.8195	0.076	233639	keystroke_h	h	n/a
116.9405	0.09	233881	keystroke_a	a	n/a
117.0155	0.059	234031	keystroke_l	l	n/a
117.1355	0.105	234271	keystroke_l	l	n/a
117.2555	0.119	234511	keystroke_Key.enter	Key.enter	n/a
117.3835	3.7285	234767	prompt	n/a	horn gays manor lance\n
118.0355	0.044	236071	keystroke_h	h	n/a
118.2445	0.061	236489	keystroke_o	o	n/a
118.3645	0.091	236729	keystroke_r	r	n/a
118.515	0.075	237030	keystroke_n	n	n/a
118.6805	0.074	237361	keystroke_Key.space	Key.space	n/a
118.8005	0.09	237601	keystroke_g	g	n/a
118.9205	0.105	237841	keystroke_a	a	n/a
119.0855	0.09	238171	keystroke_y	y	n/a
119.2805	0.09	238561	keystroke_s	s	n/a
119.5055	0.059	239011	keystroke_Key.space	Key.space	n/a
119.775	0.0755	239550	keystroke_m	m	n/a
119.8955	0.105	239791	keystroke_a	a	n/a
120.0155	0.044	240031	keystroke_n	n	n/a
120.1945	0.0605	240389	keystroke_o	o	n/a
120.2705	0.0745	240541	keystroke_r	r	n/a
120.3895	0.0605	240779	keystroke_Key.space	Key.space	n/a
120.5705	0.0605	241141	keystroke_l	l	n/a
120.6605	0.09	241321	keystroke_a	a	n/a
120.765	0.075	241530	keystroke_n	n	n/a
120.855	0.12	241710	keystroke_c	c	n/a
120.915	0.1205	241830	keystroke_e	e	n/a
121.005	0.105	242010	keystroke_Key.enter	Key.enter	n/a
121.1165	4.1355	242233	prompt	n/a	year every keeping friendly\n
121.8005	0.09	243601	keystroke_y	y	n/a
122.0105	0.105	244021	keystroke_e	e	n/a
122.1005	0.12	244201	keystroke_a	a	n/a
122.2055	0.09	244411	keystroke_r	r	n/a
122.3245	0.075	244649	keystroke_Key.space	Key.space	n/a
122.4605	0.12	244921	keystroke_e	e	n/a
122.6105	0.104	245221	keystroke_v	v	n/a
122.7005	0.1345	245401	keystroke_e	e	n/a
122.8045	0.09	245609	keystroke_r	r	n/a
122.9845	0.06	245969	keystroke_y	y	n/a
123.075	0.0745	246150	keystroke_Key.space	Key.space	n/a
123.3005	0.0445	246601	keystroke_k	k	n/a
123.3755	0.0745	246751	keystroke_e	e	n/a
123.5245	0.075	247049	keystroke_e	e	n/a
123.6155	0.044	247231	keystroke_p	p	n/a
123.795	0.0605	247590	keystroke_i	i	n/a
123.87	0.075	247740	keystroke_n	n	n/a
123.9	0.09	247800	keystroke_g	g	n/a
124.02	0.09	248040	keystroke_Key.space	Key.space	n/a
124.155	0.105	248310	keystroke_f	f	n/a
124.335	0.105	248670	keystroke_r	r	n/a
124.44	0.0605	248880	keystroke_i	i	n/a
124.5155	0.1195	249031	keystroke_e	e	n/a
124.605	0.0905	249210	keystroke_n	n	n/a
124.74	0.045	249480	keystroke_d	d	n/a
124.845	0.075	249690	keystroke_l	l	n/a
124.9655	0.09	249931	keystroke_y	y	n/a
125.1455	0.104	250291	keystroke_Key.enter	Key.enter	n/a
125.258	5.349	250516	prompt	n/a	operates steps punch joel\n
125.82	0.075	251640	keystroke_o	o	n/a
126.0005	0.0895	252001	keystroke_p	p	n/a
126.0755	0.1045	252151	keystroke_e	e	n/a
126.15	0.135	252300	keystroke_r	r	n/a
126.286	0.104	252572	keystroke_a	a	n/a
126.36	0.1205	252720	keystroke_t	t	n/a
126.4655	0.089	252931	keystroke_e	e	n/a
126.6155	0.074	253231	keystroke_d	d	n/a
126.7045	0.09	253409	keystroke_Key.space	Key.space	n/a
126.825	0.075	253650	keystroke_s	s	n/a
126.9455	0.119	253891	keystroke_t	t	n/a
127.035	0.09	254070	keystroke_e	e	n/a
127.14	0.105	254280	keystroke_p	p	n/a
127.29	0.09	254580	keystroke_h	h	n/a
127.77	0.09	255540	keystroke_Key.backspace	Key.backspace	n/a
127.875	0.1345	255750	keystroke_s	s	n/a
128.115	0.075	256230	keystroke_Key.space	Key.space	n/a
128.91	0.0755	257820	keystroke_p	p	n/a
129.15	0.045	258300	keystroke_u	u	n/a
129.315	0.09	258630	keystroke_n	n	n/a
129.435	0.075	258870	keystroke_c	c	n/a
129.525	0.075	259050	keystroke_h	h	n/a
129.72	0.075	259440	keystroke_Key.space	Key.space	n/a
129.96	0.046	259920	keystroke_j	j	n/a
130.14	0.045	260280	keystroke_o	o	n/a
130.2605	0.0895	260521	keystroke_e	e	n/a
130.32	0.09	260640	keystroke_l	l	n/a
130.47	0.135	260940	keystroke_Key.enter	Key.enter	n/a
130.612	4.179	261224	prompt	n/a	stories later allen naval\n
131.175	0.09	262350	keystroke_s	s	n/a
131.355	0.0755	262710	keystroke_t	t	n/a
131.445	0.105	262890	keystroke_o	o	n/a
131.535	0.09	263070	keystroke_r	r	n/a
131.655	0.09	263310	keystroke_i	i	n/a
131.715	0.0755	263430	keystroke_e	e	n/a
131.8805	0.0745	263761	keystroke_s	s	n/a
131.94	0.0895	263880	keystroke_Key.space	Key.space	n/a
132.1355	0.075	264271	keystroke_l	l	n/a
132.1805	0.12	264361	keystroke_a	a	n/a
132.2855	0.09	264571	keystroke_t	t	n/a
132.3455	0.1495	264691	keystroke_e	e	n/a
132.4795	0.106	264959	keystroke_r	r	n/a
132.6155	0.075	265231	keystroke_Key.space	Key.space	n/a
132.8395	0.0605	265679	keystroke_a	a	n/a
132.915	0.075	265830	keystroke_l	l	n/a
133.035	0.105	266070	keystroke_l	l	n/a
133.185	0.105	266370	keystroke_e	e	n/a
133.2605	0.0595	266521	keystroke_n	n	n/a
133.425	0.06	266850	keystroke_Key.space	Key.space	n/a
133.5605	0.0745	267121	keystroke_n	n	n/a
133.68	0.09	267360	keystroke_a	a	n/a
134.2655	0.119	268531	keystroke_v	v	n/a
134.3545	0.106	268709	keystroke_a	a	n/a
134.4455	0.075	268891	keystroke_l	l	n/a
134.6695	0.12	269339	keystroke_Key.enter	Key.enter	n/a
134.7945	6.358	269589	prompt	n/a	patches pros answers accessibility\n
135.4645	0.076	270929	keystroke_p	p	n/a
135.5545	0.1045	271109	keystroke_a	a	n/a
135.6905	0.0745	271381	keystroke_t	t	n/a
136.1695	0.0605	272339	keystroke_c	c	n/a
136.2905	0.0745	272581	keystroke_h	h	n/a
136.335	0.09	272670	keystroke_e	e	n/a
136.515	0.09	273030	keystroke_s	s	n/a
136.56	0.09	273120	keystroke_Key.space	Key.space	n/a
136.7855	0.06	273571	keystroke_p	p	n/a
136.86	0.0745	273720	keystroke_r	r	n/a
136.9645	0.076	273929	keystroke_o	o	n/a
137.1	0.0745	274200	keystroke_s	s	n/a
137.19	0.075	274380	keystroke_Key.space	Key.space	n/a
137.3105	0.0895	274621	keystroke_a	a	n/a
137.5645	0.076	275129	keystroke_n	n	n/a
137.7145	0.136	275429	keystroke_s	s	n/a
137.9705	0.134	275941	keystroke_w	w	n/a
138.0595	0.135	276119	keystroke_e	e	n/a
138.2705	0.104	276541	keystroke_r	r	n/a
138.3595	0.0755	276719	keystroke_s	s	n/a
138.4795	0.061	276959	keystroke_Key.space	Key.space	n/a
138.6905	0.1045	277381	keystroke_a	a	n/a
138.87	0.06	277740	keystroke_c	c	n/a
138.99	0.1055	277980	keystroke_c	c	n/a
139.17	0.105	278340	keystroke_e	e	n/a
139.3805	0.0595	278761	keystroke_s	s	n/a
139.4995	0.1055	278999	keystroke_s	s	n/a
139.7405	0.0595	279481	keystroke_i	i	n/a
139.8305	0.0745	279661	keystroke_b	b	n/a
140.355	0.06	280710	keystroke_i	i	n/a
140.5505	0.0895	281101	keystroke_l	l	n/a
140.73	0.075	281460	keystroke_i	i	n/a
140.775	0.075	281550	keystroke_t	t	n/a
140.9255	0.105	281851	keystroke_y	y	n/a
141.0605	0.09	282121	keystroke_Key.enter	Key.enter	n/a
141.1575	4.899	282315	prompt	n/a	gaps recorded approval sudden\n
141.7205	0.104	283441	keystroke_g	g	n/a
141.8255	0.105	283651	keystroke_a	a	n/a
141.9145	0.105	283829	keystroke_p	p	n/a
142.0355	0.105	284071	keystroke_s	s	n/a
142.1705	0.089	284341	keystroke_Key.space	Key.space	n/a
142.2745	0.1055	284549	keystroke_r	r	n/a
142.3655	0.1045	284731	keystroke_e	e	n/a
142.5145	0.075	285029	keystroke_c	c	n/a
142.62	0.0905	285240	keystroke_o	o	n/a
142.6945	0.06	285389	keystroke_r	r	n/a
142.8445	0.075	285689	keystroke_d	d	n/a
143.025	0.135	286050	keystroke_e	e	n/a
143.1895	0.09	286379	keystroke_d	d	n/a
143.31	0.0745	286620	keystroke_Key.space	Key.space	n/a
143.4905	0.074	286981	keystroke_a	a	n/a
143.5945	0.061	287189	keystroke_p	p	n/a
143.73	0.075	287460	keystroke_p	p	n/a
143.91	0.075	287820	keystroke_o	o	n/a
144.3	0.1045	288600	keystroke_Key.backspace	Key.backspace	n/a
144.4195	0.0755	288839	keystroke_r	r	n/a
144.51	0.0905	289020	keystroke_o	o	n/a
144.765	0.0755	289530	keystroke_v	v	n/a
144.8845	0.1055	289769	keystroke_a	a	n/a
144.9745	0.0755	289949	keystroke_l	l	n/a
145.08	0.105	290160	keystroke_Key.space	Key.space	n/a
145.2605	0.0895	290521	keystroke_s	s	n/a
145.395	0.045	290790	keystroke_u	u	n/a
145.4695	0.06	290939	keystroke_d	d	n/a
145.5905	0.135	291181	keystroke_d	d	n/a
145.695	0.1055	291390	keystroke_e	e	n/a
145.755	0.105	291510	keystroke_n	n	n/a
145.965	0.09	291930	keystroke_Key.enter	Key.enter	n/a
146.061	5.4555	292122	prompt	n/a	polls border necessary tonight\n
146.9395	0.0455	293879	keystroke_p	p	n/a
147.12	0.075	294240	keystroke_o	o	n/a
147.3155	0.0745	294631	keystroke_l	l	n/a
147.45	0.075	294900	keystroke_l	l	n/a
147.57	0.09	295140	keystroke_s	s	n/a
147.705	0.075	295410	keystroke_Key.space	Key.space	n/a
147.945	0.075	295890	keystroke_b	b	n/a
148.035	0.075	296070	keystroke_o	o	n/a
148.155	0.09	296310	keystroke_r	r	n/a
148.365	0.12	296730	keystroke_d	d	n/a
148.5	0.1045	297000	keystroke_e	e	n/a
148.5595	0.09	297119	keystroke_r	r	n/a
148.6645	0.0605	297329	keystroke_Key.space	Key.space	n/a
148.86	0.075	297720	keystroke_n	n	n/a
148.92	0.075	297840	keystroke_e	e	n/a
149.04	0.12	298080	keystroke_c	c	n/a
149.1905	0.1045	298381	keystroke_e	e	n/a
149.4	0.0755	298800	keystroke_s	s	n/a
149.5655	0.12	299131	keystroke_s	s	n/a
149.7145	0.1355	299429	keystroke_a	a	n/a
149.8955	0.015	299791	keystroke_r	r	n/a
150.2545	0.09	300509	keystroke_y	y	n/a
150.45	0.0895	300900	keystroke_Key.space	Key.space	n/a
150.645	0.0595	301290	keystroke_t	t	n/a
150.7195	0.0605	301439	keystroke_o	o	n/a
150.885	0.06	301770	keystroke_n	n	n/a
151.05	0.075	302100	keystroke_i	i	n/a
151.14	0.075	302280	keystroke_g	g	n/a
151.23	0.06	302460	keystroke_h	h	n/a
151.305	0.09	302610	keystroke_t	t	n/a
151.41	0.105	302820	keystroke_Key.enter	Key.enter	n/a
151.521	7.0755	303042	prompt	n/a	checks complicated terrorists maritime\n
152.1	0.0745	304200	keystroke_c	c	n/a
152.235	0.0745	304470	keystroke_h	h	n/a
152.2805	0.1495	304561	keystroke_e	e	n/a
152.415	0.09	304830	keystroke_c	c	n/a
152.49	0.075	304980	keystroke_k	k	n/a
152.61	0.1055	305220	keystroke_s	s	n/a
152.73	0.0895	305460	keystroke_Key.space	Key.space	n/a
153.0145	0.09	306029	keystroke_c	c	n/a
153.075	0.0745	306150	keystroke_o	o	n/a
153.2545	0.0755	306509	keystroke_m	m	n/a
153.45	0.0595	306900	keystroke_p	p	n/a
153.5995	0.0605	307199	keystroke_l	l	n/a
153.78	0.0455	307560	keystroke_i	i	n/a
153.8255	0.089	307651	keystroke_c	c	n/a
153.8995	0.151	307799	keystroke_a	a	n/a
154.035	0.075	308070	keystroke_t	t	n/a
154.0945	0.09	308189	keystroke_e	e	n/a
154.2295	0.0905	308459	keystroke_d	d	n/a
154.3045	0.09	308609	keystroke_Key.space	Key.space	n/a
154.4545	0.105	308909	keystroke_t	t	n/a
154.5445	0.105	309089	keystroke_e	e	n/a
154.6795	0.09	309359	keystroke_r	r	n/a
154.8145	0.0905	309629	keystroke_r	r	n/a
154.95	0.0895	309900	keystroke_o	o	n/a
155.0245	0.09	310049	keystroke_r	r	n/a
155.235	0.0755	310470	keystroke_i	i	n/a
155.355	0.135	310710	keystroke_s	s	n/a
155.475	0.1355	310950	keystroke_t	t	n/a
155.6105	0.075	311221	keystroke_s	s	n/a
155.835	0.075	311670	keystroke_Key.space	Key.space	n/a
156.15	0.075	312300	keystroke_m	m	n/a
156.24	0.09	312480	keystroke_a	a	n/a
156.3	0.0905	312600	keystroke_r	r	n/a
156.495	0.075	312990	keystroke_i	i	n/a
156.6605	0.0295	313321	keystroke_t	t	n/a
157.395	0.06	314790	keystroke_i	i	n/a
157.544	0.09	315088	keystroke_m	m	n/a
157.619	0.0765	315238	keystroke_e	e	n/a
157.8	0.0745	315600	keystroke_s	s	n/a
158.31	0.075	316620	keystroke_Key.backspace	Key.backspace	n/a
158.535	0.06	317070	keystroke_Key.enter	Key.enter	n/a
158.602	5.53	317204	prompt	n/a	puerto can't were appeals\n
159.315	0.045	318630	keystroke_p	p	n/a
159.96	0.0455	319920	keystroke_u	u	n/a
160.08	0.135	320160	keystroke_e	e	n/a
160.2	0.0755	320400	keystroke_r	r	n/a
160.3805	0.0595	320761	keystroke_t	t	n/a
160.47	0.06	320940	keystroke_o	o	n/a
160.6795	0.09	321359	keystroke_Key.space	Key.space	n/a
160.7995	0.105	321599	keystroke_w	w	n/a
161.1	0.09	322200	keystroke_Key.backspace	Key.backspace	n/a
161.205	0.0905	322410	keystroke_c	c	n/a
161.28	0.075	322560	keystroke_a	a	n/a
161.34	0.075	322680	keystroke_n	n	n/a
161.64	0.0755	323280	keystroke_'	'	n/a
161.7605	0.0745	323521	keystroke_t	t	n/a
162.089	0.061	324178	keystroke_Key.space	Key.space	n/a
162.285	0.135	324570	keystroke_w	w	n/a
162.3755	0.0895	324751	keystroke_e	e	n/a
162.54	0.15	325080	keystroke_r	r	n/a
162.645	0.09	325290	keystroke_e	e	n/a
162.7645	0.0755	325529	keystroke_Key.space	Key.space	n/a
162.87	0.06	325740	keystroke_a	a	n/a
163.05	0.0605	326100	keystroke_p	p	n/a
163.185	0.0905	326370	keystroke_p	p	n/a
163.2905	0.1195	326581	keystroke_e	e	n/a
163.3805	0.1045	326761	keystroke_a	a	n/a
163.5	0.03	327000	keystroke_l	l	n/a
163.605	0.105	327210	keystroke_s	s	n/a
164.025	0.1045	328050	keystroke_Key.enter	Key.enter	n/a
164.138	5.9485	328276	prompt	n/a	remedy california august summit\n
164.7	0.1195	329400	keystroke_r	r	n/a
164.7745	0.1205	329549	keystroke_e	e	n/a
164.9705	0.0745	329941	keystroke_m	m	n/a
165.0605	0.0895	330121	keystroke_e	e	n/a
165.21	0.0895	330420	keystroke_d	d	n/a
165.5995	0.075	331199	keystroke_y	y	n/a
165.78	0.0745	331560	keystroke_Key.space	Key.space	n/a
165.915	0.1195	331830	keystroke_c	c	n/a
166.05	0.075	332100	keystroke_a	a	n/a
166.155	0.09	332310	keystroke_l	l	n/a
166.35	0.06	332700	keystroke_i	i	n/a
166.425	0.09	332850	keystroke_f	f	n/a
166.56	0.075	333120	keystroke_o	o	n/a
166.62	0.09	333240	keystroke_r	r	n/a
166.7545	0.076	333509	keystroke_n	n	n/a
166.9495	0.045	333899	keystroke_i	i	n/a
167.459	0.075	334918	keystroke_a	a	n/a
167.579	0.075	335158	keystroke_Key.space	Key.space	n/a
167.865	0.0895	335730	keystroke_a	a	n/a
167.9845	0.105	335969	keystroke_u	u	n/a
168.345	0.075	336690	keystroke_g	g	n/a
168.495	0.074	336990	keystroke_u	u	n/a
168.585	0.075	337170	keystroke_s	s	n/a
168.674	0.09	337348	keystroke_t	t	n/a
168.794	0.091	337588	keystroke_Key.space	Key.space	n/a
169.11	0.12	338220	keystroke_s	s	n/a
169.305	0.075	338610	keystroke_u	u	n/a
169.5	0.06	339000	keystroke_m	m	n/a
169.62	0.075	339240	keystroke_m	m	n/a
169.785	0.075	339570	keystroke_i	i	n/a
169.845	0.09	339690	keystroke_t	t	n/a
169.9645	0.12	339929	keystroke_Key.enter	Key.enter	n/a
170.0915	5.125	340183	prompt	n/a	lucas forecast myth ford\n
170.64	0.09	341280	keystroke_l	l	n/a
170.8645	0.06	341729	keystroke_u	u	n/a
170.94	0.09	341880	keystroke_c	c	n/a
171.015	0.1945	342030	keystroke_a	a	n/a
171.1495	0.0755	342299	keystroke_s	s	n/a
171.1945	0.075	342389	keystroke_Key.space	Key.space	n/a
171.4045	0.0905	342809	keystroke_f	f	n/a
171.525	0.0745	343050	keystroke_o	o	n/a
171.615	0.0745	343230	keystroke_r	r	n/a
172.26	0.075	344520	keystroke_e	e	n/a
172.4995	0.1055	344999	keystroke_c	c	n/a
172.71	0.105	345420	keystroke_a	a	n/a
173.0995	0.121	346199	keystroke_s	s	n/a
173.31	0.0895	346620	keystroke_t	t	n/a
173.4905	0.074	346981	keystroke_Key.space	Key.space	n/a
173.6855	0.0595	347371	keystroke_m	m	n/a
173.775	0.0755	347550	keystroke_y	y	n/a
173.94	0.0895	347880	keystroke_t	t	n/a
174.3745	0.0605	348749	keystroke_h	h	n/a
174.5545	0.0755	349109	keystroke_Key.space	Key.space	n/a
174.6445	0.09	349289	keystroke_f	f	n/a
174.7795	0.0755	349559	keystroke_o	o	n/a
174.8245	0.075	349649	keystroke_r	r	n/a
175.005	0.105	350010	keystroke_d	d	n/a
175.095	0.12	350190	keystroke_Key.enter	Key.enter	n/a
175.222	4.9755	350444	prompt	n/a	realistic generate lender casio\n
175.8305	0.1335	351661	keystroke_r	r	n/a
175.9945	0.135	351989	keystroke_e	e	n/a
176.144	0.076	352288	keystroke_a	a	n/a
176.234	0.09	352468	keystroke_l	l	n/a
176.43	0.074	352860	keystroke_i	i	n/a
176.6245	0.0895	353249	keystroke_s	s	n/a
176.8505	0.0745	353701	keystroke_t	t	n/a
177	0.0745	354000	keystroke_i	i	n/a
177.0895	0.09	354179	keystroke_c	c	n/a
177.2395	0.09	354479	keystroke_Key.space	Key.space	n/a
177.3445	0.1355	354689	keystroke_g	g	n/a
177.4495	0.105	354899	keystroke_e	e	n/a
177.57	0.1045	355140	keystroke_n	n	n/a
177.6895	0.1205	355379	keystroke_e	e	n/a
177.765	0.135	355530	keystroke_r	r	n/a
177.885	0.1195	355770	keystroke_a	a	n/a
177.99	0.1045	355980	keystroke_t	t	n/a
178.0655	0.104	356131	keystroke_e	e	n/a
178.155	0.075	356310	keystroke_Key.space	Key.space	n/a
178.5	0.06	357000	keystroke_l	l	n/a
178.8	0.0745	357600	keystroke_e	e	n/a
178.9345	0.076	357869	keystroke_n	n	n/a
179.0245	0.12	358049	keystroke_d	d	n/a
179.1455	0.1345	358291	keystroke_e	e	n/a
179.2345	0.09	358469	keystroke_r	r	n/a
179.34	0.0745	358680	keystroke_Key.space	Key.space	n/a
179.46	0.0895	358920	keystroke_c	c	n/a
179.5505	0.149	359101	keystroke_a	a	n/a
179.64	0.1045	359280	keystroke_s	s	n/a
179.7605	0.0595	359521	keystroke_i	i	n/a
179.9245	0.076	359849	keystroke_o	o	n/a
180.0745	0.12	360149	keystroke_Key.enter	Key.enter	n/a
180.202	7.9895	360404	prompt	n/a	manage paradise separately authors\n
180.81	0.075	361620	keystroke_m	m	n/a
180.915	0.105	361830	keystroke_a	a	n/a
181.004	0.076	362008	keystroke_n	n	n/a
181.155	0.12	362310	keystroke_a	a	n/a
181.29	0.135	362580	keystroke_g	g	n/a
181.395	0.1055	362790	keystroke_e	e	n/a
181.5295	0.0755	363059	keystroke_Key.space	Key.space	n/a
181.83	0.06	363660	keystroke_p	p	n/a
181.905	0.09	363810	keystroke_a	a	n/a
181.9805	0.1495	363961	keystroke_r	r	n/a
182.115	0.12	364230	keystroke_a	a	n/a
182.265	0.06	364530	keystroke_g	g	n/a
182.625	0.105	365250	keystroke_Key.backspace	Key.backspace	n/a
182.7605	0.089	365521	keystroke_d	d	n/a
182.895	0.0745	365790	keystroke_i	i	n/a
183	0.1055	366000	keystroke_s	s	n/a
183.1645	0.12	366329	keystroke_e	e	n/a
183.3295	0.075	366659	keystroke_Key.space	Key.space	n/a
183.6895	0.091	367379	keystroke_s	s	n/a
183.8245	0.0455	367649	keystroke_p	p	n/a
184.05	0.09	368100	keystroke_Key.backspace	Key.backspace	n/a
184.185	0.105	368370	keystroke_e	e	n/a
184.305	0.06	368610	keystroke_p	p	n/a
184.74	0.12	369480	keystroke_a	a	n/a
184.89	0.1355	369780	keystroke_r	r	n/a
185.0855	0.089	370171	keystroke_a	a	n/a
186.015	0.135	372030	keystroke_t	t	n/a
186.105	0.135	372210	keystroke_e	e	n/a
186.225	0.135	372450	keystroke_l	l	n/a
186.345	0.09	372690	keystroke_y	y	n/a
186.6295	0.09	373259	keystroke_Key.space	Key.space	n/a
186.7345	0.0905	373469	keystroke_a	a	n/a
186.8705	0.0745	373741	keystroke_u	u	n/a
186.96	0.105	373920	keystroke_t	t	n/a
187.11	0.075	374220	keystroke_h	h	n/a
187.23	0.075	374460	keystroke_r	r	n/a
187.335	0.075	374670	keystroke_o	o	n/a
187.455	0.09	374910	keystroke_s	s	n/a
187.844	0.0905	375688	keystroke_Key.backspace	Key.backspace	n/a
187.9205	0.12	375841	keystroke_r	r	n/a
187.9955	0.104	375991	keystroke_s	s	n/a
188.085	0.1045	376170	keystroke_Key.enter	Key.enter	n/a
188.1975	5.846	376395	prompt	n/a	divine rogers spread showing\n
188.9405	0.074	377881	keystroke_d	d	n/a
189.0905	0.059	378181	keystroke_i	i	n/a
189.1655	0.09	378331	keystroke_v	v	n/a
189.285	0.0905	378570	keystroke_i	i	n/a
189.5255	0.074	379051	keystroke_n	n	n/a
189.6145	0.09	379229	keystroke_g	g	n/a
190.035	0.074	380070	keystroke_Key.backspace	Key.backspace	n/a
190.1405	0.104	380281	keystroke_e	e	n/a
190.2745	0.1055	380549	keystroke_Key.space	Key.space	n/a
190.62	0.09	381240	keystroke_r	r	n/a
190.7395	0.075	381479	keystroke_o	o	n/a
190.8605	0.044	381721	keystroke_g	g	n/a
190.9195	0.1205	381839	keystroke_e	e	n/a
191.025	0.1645	382050	keystroke_r	r	n/a
191.3095	0.06	382619	keystroke_Key.space	Key.space	n/a
191.715	0.0895	383430	keystroke_Key.backspace	Key.backspace	n/a
191.8645	0.1055	383729	keystroke_s	s	n/a
191.9845	0.0755	383969	keystroke_Key.space	Key.space	n/a
192.285	0.1345	384570	keystroke_s	s	n/a
192.4345	0.075	384869	keystroke_p	p	n/a
192.4945	0.105	384989	keystroke_r	r	n/a
192.7045	0.106	385409	keystroke_e	e	n/a
192.8105	0.164	385621	keystroke_a	a	n/a
192.915	0.0895	385830	keystroke_d	d	n/a
193.0195	0.075	386039	keystroke_Key.space	Key.space	n/a
193.1695	0.061	386339	keystroke_s	s	n/a
193.3045	0.0755	386609	keystroke_h	h	n/a
193.4095	0.091	386819	keystroke_o	o	n/a
193.4545	0.12	386909	keystroke_w	w	n/a
193.59	0.0595	387180	keystroke_i	i	n/a
193.77	0.075	387540	keystroke_n	n	n/a
193.83	0.075	387660	keystroke_g	g	n/a
193.935	0.104	387870	keystroke_Key.enter	Key.enter	n/a
194.0485	11.453	388097	prompt	n/a	breaking butler articles parts\n
199.201	0.001	398402	keystroke_b	b	n/a
199.7255	0.074	399451	keystroke_r	r	n/a
199.905	0.09	399810	keystroke_e	e	n/a
199.965	0.075	399930	keystroke_a	a	n/a
200.055	0.0605	400110	keystroke_k	k	n/a
200.2505	0.03	400501	keystroke_i	i	n/a
200.4455	0.075	400891	keystroke_g	g	n/a
200.5495	0.09	401099	keystroke_Key.space	Key.space	n/a
201.18	0.0745	402360	keystroke_Key.backspace	Key.backspace	n/a
201.33	0.0745	402660	keystroke_Key.backspace	Key.backspace	n/a
201.5405	0.075	403081	keystroke_n	n	n/a
201.6745	0.09	403349	keystroke_g	g	n/a
201.7655	0.089	403531	keystroke_Key.space	Key.space	n/a
201.9155	0.089	403831	keystroke_b	b	n/a
202.0345	0.061	404069	keystroke_u	u	n/a
202.1405	0.089	404281	keystroke_t	t	n/a
202.3355	0.074	404671	keystroke_l	l	n/a
202.395	0.1655	404790	keystroke_e	e	n/a
202.4855	0.105	404971	keystroke_r	r	n/a
202.6345	0.06	405269	keystroke_Key.space	Key.space	n/a
202.755	0.1505	405510	keystroke_a	a	n/a
203.145	0.09	406290	keystroke_r	r	n/a
203.295	0.075	406590	keystroke_t	t	n/a
203.43	0.0755	406860	keystroke_i	i	n/a
203.535	0.0605	407070	keystroke_c	c	n/a
203.715	0.09	407430	keystroke_l	l	n/a
203.7905	0.0895	407581	keystroke_e	e	n/a
203.9705	0.0895	407941	keystroke_s	s	n/a
204.0755	0.0895	408151	keystroke_Key.space	Key.space	n/a
204.36	0.046	408720	keystroke_p	p	n/a
204.4205	0.1345	408841	keystroke_a	a	n/a
204.525	0.045	409050	keystroke_r	r	n/a
205.1095	0.105	410219	keystroke_t	t	n/a
205.2755	0.104	410551	keystroke_s	s	n/a
205.365	0.1345	410730	keystroke_Key.enter	Key.enter	n/a
205.5065	5.32	411013	prompt	n/a	taught randy inspections shareware\n
206.1305	0.119	412261	keystroke_t	t	n/a
206.265	0.12	412530	keystroke_a	a	n/a
206.37	0.0895	412740	keystroke_u	u	n/a
206.55	0.0745	413100	keystroke_g	g	n/a
206.6095	0.076	413219	keystroke_h	h	n/a
206.73	0.0895	413460	keystroke_t	t	n/a
206.8355	0.089	413671	keystroke_Key.space	Key.space	n/a
207.1355	0.1345	414271	keystroke_r	r	n/a
207.255	0.12	414510	keystroke_a	a	n/a
207.345	0.06	414690	keystroke_n	n	n/a
207.495	0.0905	414990	keystroke_t	t	n/a
207.63	0.075	415260	keystroke_Key.space	Key.space	n/a
208.02	0.09	416040	keystroke_i	i	n/a
208.215	0.09	416430	keystroke_n	n	n/a
208.32	0.075	416640	keystroke_s	s	n/a
208.47	0.09	416940	keystroke_p	p	n/a
208.5	0.09	417000	keystroke_e	e	n/a
208.6355	0.105	417271	keystroke_c	c	n/a
208.83	0.0755	417660	keystroke_t	t	n/a
208.845	0.0755	417690	keystroke_i	i	n/a
209.0255	0.0895	418051	keystroke_o	o	n/a
209.1005	0.06	418201	keystroke_n	n	n/a
209.28	0.105	418560	keystroke_s	s	n/a
209.4	0.09	418800	keystroke_Key.space	Key.space	n/a
209.535	0.105	419070	keystroke_s	s	n/a
209.6555	0.0745	419311	keystroke_h	h	n/a
209.7605	0.1045	419521	keystroke_a	a	n/a
209.97	0.1655	419940	keystroke_r	r	n/a
210.06	0.105	420120	keystroke_e	e	n/a
210.27	0.18	420540	keystroke_w	w	n/a
210.42	0.12	420840	keystroke_a	a	n/a
210.4805	0.1645	420961	keystroke_r	r	n/a
210.5855	0.1195	421171	keystroke_e	e	n/a
210.72	0.1045	421440	keystroke_Key.enter	Key.enter	n/a
210.831	4.811	421662	prompt	n/a	peeing lake printable adverse\n
211.5005	0.089	423001	keystroke_p	p	n/a
211.5745	0.06	423149	keystroke_e	e	n/a
211.7105	0.09	423421	keystroke_e	e	n/a
211.785	0.0595	423570	keystroke_i	i	n/a
211.9495	0.0755	423899	keystroke_n	n	n/a
211.995	0.0905	423990	keystroke_g	g	n/a
212.0995	0.0605	424199	keystroke_Key.space	Key.space	n/a
212.2795	0.0755	424559	keystroke_l	l	n/a
212.37	0.0895	424740	keystroke_a	a	n/a
212.475	0.0755	424950	keystroke_k	k	n/a
212.5795	0.09	425159	keystroke_e	e	n/a
212.6995	0.0605	425399	keystroke_Key.space	Key.space	n/a
212.9245	0.06	425849	keystroke_p	p	n/a
213.0155	0.075	426031	keystroke_r	r	n/a
213.1205	0.059	426241	keystroke_i	i	n/a
213.2855	0.074	426571	keystroke_n	n	n/a
213.3605	0.105	426721	keystroke_t	t	n/a
213.4495	0.136	426899	keystroke_a	a	n/a
213.5855	0.105	427171	keystroke_b	b	n/a
213.6755	0.0745	427351	keystroke_l	l	n/a
214.1405	0.09	428281	keystroke_e	e	n/a
214.32	0.06	428640	keystroke_Key.space	Key.space	n/a
214.5905	0.105	429181	keystroke_a	a	n/a
214.755	0.06	429510	keystroke_d	d	n/a
214.9205	0.1045	429841	keystroke_v	v	n/a
215.0105	0.1495	430021	keystroke_e	e	n/a
215.13	0.12	430260	keystroke_r	r	n/a
215.265	0.09	430530	keystroke_s	s	n/a
215.46	0.06	430920	keystroke_e	e	n/a
215.52	0.12	431040	keystroke_Key.enter	Key.enter	n/a
215.6475	6.4745	431295	prompt	n/a	household population rick studies\n
216.2855	0.09	432571	keystroke_h	h	n/a
216.3755	0.074	432751	keystroke_o	o	n/a
216.57	0.06	433140	keystroke_u	u	n/a
216.72	0.1045	433440	keystroke_s	s	n/a
216.945	0.0905	433890	keystroke_e	e	n/a
217.1105	0.1045	434221	keystroke_p	p	n/a
217.335	0.09	434670	keystroke_Key.backspace	Key.backspace	n/a
217.4405	0.0895	434881	keystroke_h	h	n/a
217.515	0.075	435030	keystroke_o	o	n/a
217.68	0.09	435360	keystroke_l	l	n/a
217.7855	0.0745	435571	keystroke_d	d	n/a
218.655	0.075	437310	keystroke_Key.space	Key.space	n/a
218.9405	0.104	437881	keystroke_p	p	n/a
219.315	0.0595	438630	keystroke_o	o	n/a
219.4795	0.09	438959	keystroke_p	p	n/a
219.7645	0.0455	439529	keystroke_u	u	n/a
219.9305	0.104	439861	keystroke_l	l	n/a
220.0205	0.105	440041	keystroke_a	a	n/a
220.0805	0.075	440161	keystroke_t	t	n/a
220.1395	0.06	440279	keystroke_i	i	n/a
220.2905	0.09	440581	keystroke_o	o	n/a
220.395	0.0605	440790	keystroke_n	n	n/a
220.53	0.0895	441060	keystroke_Key.space	Key.space	n/a
220.7545	0.09	441509	keystroke_r	r	n/a
220.875	0.075	441750	keystroke_i	i	n/a
220.965	0.0595	441930	keystroke_c	c	n/a
221.04	0.0895	442080	keystroke_k	k	n/a
221.2195	0.12	442439	keystroke_Key.space	Key.space	n/a
221.3255	0.104	442651	keystroke_s	s	n/a
221.3845	0.09	442769	keystroke_t	t	n/a
221.5045	0.075	443009	keystroke_u	u	n/a
221.5805	0.089	443161	keystroke_d	d	n/a
221.7145	0.091	443429	keystroke_i	i	n/a
221.7905	0.074	443581	keystroke_e	e	n/a
221.94	0.09	443880	keystroke_s	s	n/a
222.015	0.105	444030	keystroke_Key.enter	Key.enter	n/a
222.127	8.2895	444254	prompt	n/a	yukon possession applications that're\n
223.0795	0.1055	446159	keystroke_y	y	n/a
223.2155	0.0745	446431	keystroke_u	u	n/a
223.395	0.075	446790	keystroke_k	k	n/a
223.56	0.06	447120	keystroke_o	o	n/a
223.7555	0.044	447511	keystroke_n	n	n/a
223.89	0.0755	447780	keystroke_Key.space	Key.space	n/a
224.1	0.0755	448200	keystroke_p	p	n/a
224.28	0.09	448560	keystroke_o	o	n/a
224.4	0.06	448800	keystroke_s	s	n/a
224.52	0.105	449040	keystroke_s	s	n/a
224.73	0.0755	449460	keystroke_i	i	n/a
225.8395	0.135	451679	keystroke_Key.backspace	Key.backspace	n/a
225.9905	0.12	451981	keystroke_e	e	n/a
226.155	0.0755	452310	keystroke_s	s	n/a
226.305	0.12	452610	keystroke_s	s	n/a
226.6945	0.0755	453389	keystroke_i	i	n/a
226.89	0.0905	453780	keystroke_o	o	n/a
226.9815	0.089	453963	keystroke_n	n	n/a
227.1745	0.09	454349	keystroke_Key.space	Key.space	n/a
227.4005	0.09	454801	keystroke_a	a	n/a
227.475	0.075	454950	keystroke_p	p	n/a
227.6705	0.06	455341	keystroke_l	l	n/a
227.805	0.0755	455610	keystroke_l	l	n/a
228	0.075	456000	keystroke_i	i	n/a
228.06	0.105	456120	keystroke_c	c	n/a
228.15	0.135	456300	keystroke_a	a	n/a
228.27	0.06	456540	keystroke_t	t	n/a
228.3	0.045	456600	keystroke_i	i	n/a
228.48	0.045	456960	keystroke_o	o	n/a
228.54	0.0755	457080	keystroke_n	n	n/a
228.7205	0.0895	457441	keystroke_s	s	n/a
228.795	0.1045	457590	keystroke_Key.space	Key.space	n/a
228.9145	0.0755	457829	keystroke_t	t	n/a
229.0205	0.0745	458041	keystroke_h	h	n/a
229.1105	0.134	458221	keystroke_a	a	n/a
229.23	0.1045	458460	keystroke_t	t	n/a
229.455	0.1055	458910	keystroke_r	r	n/a
229.799	0.0905	459598	keystroke_Key.backspace	Key.backspace	n/a
229.98	0.104	459960	keystroke_'	'	n/a
230.0405	0.12	460081	keystroke_r	r	n/a
230.115	0.1055	460230	keystroke_e	e	n/a
230.31	0.105	460620	keystroke_Key.enter	Key.enter	n/a
230.4215	4.9305	460843	prompt	n/a	versus ruth cooling mixer\n
231.0605	0.0895	462121	keystroke_v	v	n/a
231.165	0.12	462330	keystroke_e	e	n/a
231.255	0.12	462510	keystroke_r	r	n/a
231.405	0.1055	462810	keystroke_s	s	n/a
231.5405	0.0745	463081	keystroke_u	u	n/a
231.63	0.105	463260	keystroke_s	s	n/a
231.764	0.091	463528	keystroke_Key.space	Key.space	n/a
231.87	0.1055	463740	keystroke_r	r	n/a
232.035	0.075	464070	keystroke_u	u	n/a
232.064	0.091	464128	keystroke_t	t	n/a
232.3055	0.0595	464611	keystroke_h	h	n/a
232.59	0.075	465180	keystroke_Key.space	Key.space	n/a
233.2645	0.061	466529	keystroke_c	c	n/a
233.34	0.0745	466680	keystroke_o	o	n/a
233.475	0.0745	466950	keystroke_o	o	n/a
233.6395	0.0755	467279	keystroke_l	l	n/a
233.7895	0.076	467579	keystroke_i	i	n/a
233.8505	0.12	467701	keystroke_n	n	n/a
233.9555	0.059	467911	keystroke_g	g	n/a
234.0295	0.075	468059	keystroke_Key.space	Key.space	n/a
234.209	0.061	468418	keystroke_m	m	n/a
234.389	0.046	468778	keystroke_i	i	n/a
234.435	0.075	468870	keystroke_x	x	n/a
234.6145	0.0595	469229	keystroke_e	e	n/a
235.1095	0.1195	470219	keystroke_r	r	n/a
235.245	0.105	470490	keystroke_Key.enter	Key.enter	n/a
235.3565	6.685	470713	prompt	n/a	join acids requests enter\n
235.9505	0.09	471901	keystroke_j	j	n/a
236.145	0.0445	472290	keystroke_o	o	n/a
236.2645	0.09	472529	keystroke_i	i	n/a
236.31	0.09	472620	keystroke_n	n	n/a
236.52	0.0745	473040	keystroke_Key.space	Key.space	n/a
236.835	0.1355	473670	keystroke_a	a	n/a
236.9995	0.1055	473999	keystroke_c	c	n/a
237.1505	0.0595	474301	keystroke_i	i	n/a
237.225	0.09	474450	keystroke_s	s	n/a
238.005	0.06	476010	keystroke_Key.backspace	Key.backspace	n/a
238.065	0.1205	476130	keystroke_d	d	n/a
238.14	0.105	476280	keystroke_s	s	n/a
238.26	0.0745	476520	keystroke_Key.space	Key.space	n/a
238.785	0.165	477570	keystroke_r	r	n/a
238.889	0.121	477778	keystroke_e	e	n/a
239.6095	0.0605	479219	keystroke_u	u	n/a
239.865	0.0445	479730	keystroke_Key.backspace	Key.backspace	n/a
239.9705	0.0745	479941	keystroke_q	q	n/a
240.4945	0.0905	480989	keystroke_u	u	n/a
240.6445	0.105	481289	keystroke_e	e	n/a
240.8395	0.0755	481679	keystroke_s	s	n/a
240.93	0.1205	481860	keystroke_t	t	n/a
241.0345	0.075	482069	keystroke_s	s	n/a
241.17	0.06	482340	keystroke_Key.space	Key.space	n/a
241.305	0.105	482610	keystroke_e	e	n/a
241.395	0.075	482790	keystroke_n	n	n/a
241.65	0.12	483300	keystroke_t	t	n/a
241.785	0.105	483570	keystroke_e	e	n/a
241.845	0.12	483690	keystroke_r	r	n/a
241.935	0.105	483870	keystroke_Key.enter	Key.enter	n/a
242.046	7.1205	484092	prompt	n/a	madagascar interactions forbes cabinet\n
242.9555	0.09	485911	keystroke_m	m	n/a
243.0605	0.1045	486121	keystroke_a	a	n/a
243.2405	0.119	486481	keystroke_d	d	n/a
243.39	0.1345	486780	keystroke_a	a	n/a
243.7195	0.105	487439	keystroke_g	g	n/a
243.8555	0.1945	487711	keystroke_a	a	n/a
243.9595	0.1205	487919	keystroke_s	s	n/a
244.1405	0.12	488281	keystroke_c	c	n/a
244.2745	0.1355	488549	keystroke_a	a	n/a
244.3795	0.105	488759	keystroke_r	r	n/a
244.5455	0.074	489091	keystroke_Key.space	Key.space	n/a
244.755	0.045	489510	keystroke_i	i	n/a
244.89	0.0755	489780	keystroke_n	n	n/a
244.95	0.075	489900	keystroke_t	t	n/a
245.0105	0.1345	490021	keystroke_e	e	n/a
245.115	0.12	490230	keystroke_r	r	n/a
245.265	0.12	490530	keystroke_a	a	n/a
245.6255	0.0895	491251	keystroke_c	c	n/a
245.8355	0.0745	491671	keystroke_t	t	n/a
245.9245	0.06	491849	keystroke_i	i	n/a
246.075	0.075	492150	keystroke_o	o	n/a
246.135	0.0755	492270	keystroke_n	n	n/a
246.3145	0.091	492629	keystroke_s	s	n/a
246.3895	0.0755	492779	keystroke_Key.space	Key.space	n/a
246.51	0.15	493020	keystroke_f	f	n/a
246.6605	0.0595	493321	keystroke_o	o	n/a
246.765	0.12	493530	keystroke_r	r	n/a
247.035	0.135	494070	keystroke_b	b	n/a
247.14	0.105	494280	keystroke_e	e	n/a
247.32	0.1055	494640	keystroke_s	s	n/a
247.59	0.0305	495180	keystroke_c	c	n/a
247.92	0.075	495840	keystroke_Key.backspace	Key.backspace	n/a
248.04	0.104	496080	keystroke_Key.space	Key.space	n/a
248.1005	0.1345	496201	keystroke_c	c	n/a
248.205	0.135	496410	keystroke_a	a	n/a
248.43	0.06	496860	keystroke_b	b	n/a
248.55	0.059	497100	keystroke_i	i	n/a
248.73	0.0745	497460	keystroke_n	n	n/a
248.8345	0.135	497669	keystroke_e	e	n/a
248.9395	0.1055	497879	keystroke_t	t	n/a
249.0595	0.105	498119	keystroke_Key.enter	Key.enter	n/a
249.1705	4.976	498341	prompt	n/a	appreciated death passive sandy\n
249.7045	0.105	499409	keystroke_a	a	n/a
249.8105	0.0895	499621	keystroke_p	p	n/a
249.945	0.1055	499890	keystroke_p	p	n/a
250.02	0.12	500040	keystroke_r	r	n/a
250.1245	0.1055	500249	keystroke_e	e	n/a
250.26	0.075	500520	keystroke_c	c	n/a
250.455	0.045	500910	keystroke_i	i	n/a
250.5445	0.105	501089	keystroke_a	a	n/a
250.665	0.104	501330	keystroke_t	t	n/a
250.754	0.09	501508	keystroke_e	e	n/a
250.905	0.09	501810	keystroke_d	d	n/a
250.9795	0.0755	501959	keystroke_Key.space	Key.space	n/a
251.145	0.06	502290	keystroke_d	d	n/a
251.31	0.09	502620	keystroke_e	e	n/a
251.37	0.135	502740	keystroke_a	a	n/a
251.49	0.09	502980	keystroke_t	t	n/a
251.5655	0.0745	503131	keystroke_h	h	n/a
251.745	0.09	503490	keystroke_Key.space	Key.space	n/a
251.9845	0.0605	503969	keystroke_p	p	n/a
252.0145	0.1355	504029	keystroke_a	a	n/a
252.194	0.046	504388	keystroke_s	s	n/a
252.3	0.1045	504600	keystroke_s	s	n/a
252.4955	0.0595	504991	keystroke_i	i	n/a
252.57	0.12	505140	keystroke_v	v	n/a
252.66	0.1045	505320	keystroke_e	e	n/a
252.78	0.0895	505560	keystroke_Key.space	Key.space	n/a
253.004	0.196	506008	keystroke_s	s	n/a
253.1545	0.105	506309	keystroke_a	a	n/a
253.245	0.059	506490	keystroke_n	n	n/a
253.32	0.09	506640	keystroke_d	d	n/a
253.5	0.09	507000	keystroke_l	l	n/a
253.86	0.0445	507720	keystroke_Key.backspace	Key.backspace	n/a
253.9345	0.0605	507869	keystroke_y	y	n/a
254.0395	0.105	508079	keystroke_Key.enter	Key.enter	n/a
254.1545	4.897	508309	prompt	n/a	process nodes pubs dimension\n
254.7	0.09	509400	keystroke_p	p	n/a
254.8205	0.09	509641	keystroke_r	r	n/a
254.925	0.09	509850	keystroke_o	o	n/a
255.044	0.151	510088	keystroke_c	c	n/a
255.149	0.105	510298	keystroke_e	e	n/a
255.36	0.044	510720	keystroke_s	s	n/a
255.465	0.09	510930	keystroke_s	s	n/a
255.584	0.091	511168	keystroke_Key.space	Key.space	n/a
255.794	0.0455	511588	keystroke_n	n	n/a
255.9745	0.076	511949	keystroke_o	o	n/a
256.065	0.135	512130	keystroke_d	d	n/a
256.14	0.105	512280	keystroke_e	e	n/a
256.3345	0.091	512669	keystroke_s	s	n/a
256.395	0.09	512790	keystroke_Key.space	Key.space	n/a
256.635	0.075	513270	keystroke_p	p	n/a
256.8295	0.0895	513659	keystroke_u	u	n/a
256.9045	0.0905	513809	keystroke_b	b	n/a
257.055	0.12	514110	keystroke_s	s	n/a
257.19	0.075	514380	keystroke_Key.space	Key.space	n/a
257.4745	0.0755	514949	keystroke_d	d	n/a
257.535	0.075	515070	keystroke_i	i	n/a
257.7005	0.074	515401	keystroke_m	m	n/a
257.8045	0.09	515609	keystroke_e	e	n/a
257.8955	0.074	515791	keystroke_n	n	n/a
258.285	0.075	516570	keystroke_s	s	n/a
258.3745	0.06	516749	keystroke_i	i	n/a
258.54	0.0745	517080	keystroke_o	o	n/a
258.5995	0.09	517199	keystroke_n	n	n/a
258.9595	0.09	517919	keystroke_Key.enter	Key.enter	n/a
259.056	7.0155	518112	prompt	n/a	sponsor faces paraguay minimize\n
259.6195	0.1055	519239	keystroke_s	s	n/a
259.9655	0.0895	519931	keystroke_p	p	n/a
260.16	0.075	520320	keystroke_o	o	n/a
260.505	0.0445	521010	keystroke_s	s	n/a
260.76	0.09	521520	keystroke_Key.backspace	Key.backspace	n/a
260.97	0.075	521940	keystroke_n	n	n/a
261.33	0.105	522660	keystroke_s	s	n/a
261.48	0.0595	522960	keystroke_o	o	n/a
261.5845	0.09	523169	keystroke_r	r	n/a
261.7195	0.075	523439	keystroke_Key.space	Key.space	n/a
261.99	0.0895	523980	keystroke_a	a	n/a
262.32	0.0895	524640	keystroke_Key.backspace	Key.backspace	n/a
262.395	0.1045	524790	keystroke_f	f	n/a
262.485	0.1495	524970	keystroke_a	a	n/a
262.6195	0.1505	525239	keystroke_c	c	n/a
262.7095	0.105	525419	keystroke_e	e	n/a
262.9045	0.06	525809	keystroke_s	s	n/a
262.9795	0.0905	525959	keystroke_Key.space	Key.space	n/a
263.2505	0.0435	526501	keystroke_p	p	n/a
263.325	0.12	526650	keystroke_a	a	n/a
263.414	0.15	526828	keystroke_r	r	n/a
263.549	0.136	527098	keystroke_a	a	n/a
263.7295	0.09	527459	keystroke_g	g	n/a
263.91	0.06	527820	keystroke_u	u	n/a
263.985	0.1195	527970	keystroke_a	a	n/a
264.1945	0.0905	528389	keystroke_y	y	n/a
264.389	0.076	528778	keystroke_Key.space	Key.space	n/a
264.615	0.045	529230	keystroke_m	m	n/a
264.7645	0.0455	529529	keystroke_i	i	n/a
264.93	0.045	529860	keystroke_n	n	n/a
265.095	0.03	530190	keystroke_i	i	n/a
265.245	0.075	530490	keystroke_m	m	n/a
265.41	0.0605	530820	keystroke_i	i	n/a
265.5	0.225	531000	keystroke_z	z	n/a
265.6795	0.105	531359	keystroke_e	e	n/a
265.95	0.12	531900	keystroke_Key.enter	Key.enter	n/a
266.076	4.4505	532152	prompt	n/a	locally skating lovers pioneer\n
266.669	0.075	533338	keystroke_l	l	n/a
266.8345	0.0755	533669	keystroke_o	o	n/a
266.9245	0.105	533849	keystroke_c	c	n/a
266.9995	0.105	533999	keystroke_a	a	n/a
267.09	0.0595	534180	keystroke_l	l	n/a
267.2095	0.075	534419	keystroke_l	l	n/a
267.2995	0.09	534599	keystroke_y	y	n/a
267.4195	0.075	534839	keystroke_Key.space	Key.space	n/a
267.555	0.1195	535110	keystroke_s	s	n/a
267.6595	0.075	535319	keystroke_k	k	n/a
267.7795	0.1055	535559	keystroke_a	a	n/a
267.8545	0.09	535709	keystroke_t	t	n/a
267.99	0.0595	535980	keystroke_i	i	n/a
268.1545	0.0745	536309	keystroke_n	n	n/a
268.245	0.074	536490	keystroke_g	g	n/a
268.334	0.06	536668	keystroke_Key.space	Key.space	n/a
268.514	0.0615	537028	keystroke_l	l	n/a
268.68	0.075	537360	keystroke_o	o	n/a
268.694	0.121	537388	keystroke_v	v	n/a
268.815	0.105	537630	keystroke_e	e	n/a
268.9045	0.1205	537809	keystroke_r	r	n/a
269.04	0.0895	538080	keystroke_s	s	n/a
269.1145	0.075	538229	keystroke_Key.space	Key.space	n/a
269.34	0.06	538680	keystroke_p	p	n/a
269.5345	0.09	539069	keystroke_i	i	n/a
269.744	0.09	539488	keystroke_o	o	n/a
269.9695	0.0605	539939	keystroke_n	n	n/a
270.0745	0.075	540149	keystroke_e	e	n/a
270.239	0.106	540478	keystroke_e	e	n/a
270.33	0.105	540660	keystroke_r	r	n/a
270.435	0.089	540870	keystroke_Key.enter	Key.enter	n/a
270.531	4.812	541062	prompt	n/a	goto freelance decline tells\n
271.035	0.09	542070	keystroke_g	g	n/a
271.14	0.09	542280	keystroke_o	o	n/a
271.245	0.075	542490	keystroke_t	t	n/a
271.335	0.075	542670	keystroke_o	o	n/a
272.04	0.1195	544080	keystroke_Key.space	Key.space	n/a
272.3095	0.0905	544619	keystroke_f	f	n/a
272.49	0.09	544980	keystroke_r	r	n/a
272.61	0.075	545220	keystroke_e	e	n/a
272.745	0.0745	545490	keystroke_e	e	n/a
272.8645	0.0755	545729	keystroke_l	l	n/a
272.9845	0.0755	545969	keystroke_a	a	n/a
273.0745	0.0905	546149	keystroke_n	n	n/a
273.165	0.1045	546330	keystroke_c	c	n/a
273.24	0.09	546480	keystroke_e	e	n/a
273.315	0.0595	546630	keystroke_Key.space	Key.space	n/a
273.4645	0.105	546929	keystroke_d	d	n/a
273.5545	0.105	547109	keystroke_e	e	n/a
273.705	0.105	547410	keystroke_c	c	n/a
274.1095	0.09	548219	keystroke_l	l	n/a
274.29	0.0595	548580	keystroke_i	i	n/a
274.47	0.0745	548940	keystroke_n	n	n/a
274.5595	0.105	549119	keystroke_e	e	n/a
274.6495	0.075	549299	keystroke_Key.space	Key.space	n/a
274.74	0.1345	549480	keystroke_t	t	n/a
274.8595	0.0605	549719	keystroke_e	e	n/a
274.935	0.0595	549870	keystroke_l	l	n/a
275.0545	0.0755	550109	keystroke_l	l	n/a
275.115	0.09	550230	keystroke_s	s	n/a
275.2345	0.105	550469	keystroke_Key.enter	Key.enter	n/a
275.3485	7.028	550697	prompt	n/a	medicine rachel strings muslim\n
275.97	0.075	551940	keystroke_m	m	n/a
276.165	0.06	552330	keystroke_e	e	n/a
276.36	0.075	552720	keystroke_d	d	n/a
276.54	0.0605	553080	keystroke_i	i	n/a
276.614	0.12	553228	keystroke_c	c	n/a
276.75	0.06	553500	keystroke_a	a	n/a
276.764	0.06	553528	keystroke_i	i	n/a
277.244	0.076	554488	keystroke_Key.backspace	Key.backspace	n/a
277.364	0.106	554728	keystroke_Key.backspace	Key.backspace	n/a
277.515	0.074	555030	keystroke_i	i	n/a
277.694	0.091	555388	keystroke_n	n	n/a
277.769	0.0755	555538	keystroke_e	e	n/a
277.8895	0.0745	555779	keystroke_Key.space	Key.space	n/a
278.054	0.09	556108	keystroke_r	r	n/a
278.1595	0.0895	556319	keystroke_a	a	n/a
278.2795	0.0745	556559	keystroke_c	c	n/a
278.4	0.09	556800	keystroke_h	h	n/a
278.504	0.0905	557008	keystroke_e	e	n/a
278.624	0.075	557248	keystroke_l	l	n/a
278.819	0.0755	557638	keystroke_Key.space	Key.space	n/a
278.91	0.0895	557820	keystroke_s	s	n/a
279.015	0.0745	558030	keystroke_t	t	n/a
279.1495	0.105	558299	keystroke_r	r	n/a
279.2555	0.0595	558511	keystroke_i	i	n/a
279.4195	0.0605	558839	keystroke_n	n	n/a
279.4495	0.075	558899	keystroke_g	g	n/a
279.5695	0.0905	559139	keystroke_s	s	n/a
279.6295	0.0755	559259	keystroke_Key.space	Key.space	n/a
279.8095	0.0605	559619	keystroke_m	m	n/a
279.99	0.0595	559980	keystroke_u	u	n/a
280.0645	0.0905	560129	keystroke_s	s	n/a
281.7295	0.06	563459	keystroke_l	l	n/a
281.8945	0.0605	563789	keystroke_i	i	n/a
282.0745	0.09	564149	keystroke_m	m	n/a
282.254	0.121	564508	keystroke_Key.enter	Key.enter	n/a
282.3805	6.5055	564761	prompt	n/a	cancel feature screw bracelet\n
283.755	0.1195	567510	keystroke_c	c	n/a
283.86	0.135	567720	keystroke_a	a	n/a
283.935	0.0895	567870	keystroke_n	n	n/a
284.04	0.12	568080	keystroke_c	c	n/a
284.1295	0.09	568259	keystroke_e	e	n/a
284.25	0.0745	568500	keystroke_l	l	n/a
284.43	0.09	568860	keystroke_Key.space	Key.space	n/a
284.58	0.105	569160	keystroke_f	f	n/a
284.775	0.1045	569550	keystroke_e	e	n/a
284.8645	0.12	569729	keystroke_a	a	n/a
284.9695	0.075	569939	keystroke_t	t	n/a
285.1195	0.0755	570239	keystroke_u	u	n/a
285.1645	0.121	570329	keystroke_r	r	n/a
285.2545	0.09	570509	keystroke_e	e	n/a
285.3595	0.075	570719	keystroke_Key.space	Key.space	n/a
285.48	0.105	570960	keystroke_s	s	n/a
285.6	0.1045	571200	keystroke_c	c	n/a
285.8095	0.0755	571619	keystroke_r	r	n/a
285.99	0.135	571980	keystroke_e	e	n/a
286.05	0.15	572100	keystroke_w	w	n/a
286.469	0.09	572938	keystroke_Key.space	Key.space	n/a
286.89	0.06	573780	keystroke_b	b	n/a
287.0705	0.1035	574141	keystroke_r	r	n/a
287.16	0.12	574320	keystroke_a	a	n/a
287.2945	0.135	574589	keystroke_c	c	n/a
287.3995	0.1055	574799	keystroke_e	e	n/a
288.45	0.09	576900	keystroke_l	l	n/a
288.5695	0.12	577139	keystroke_e	e	n/a
288.63	0.1195	577260	keystroke_t	t	n/a
288.78	0.1045	577560	keystroke_Key.enter	Key.enter	n/a
288.891	6.5655	577782	prompt	n/a	cambridge athletic carnival calling\n
289.515	0.0745	579030	keystroke_c	c	n/a
289.755	0.0895	579510	keystroke_a	a	n/a
289.935	0.0745	579870	keystroke_m	m	n/a
290.07	0.09	580140	keystroke_b	b	n/a
290.264	0.076	580528	keystroke_r	r	n/a
290.399	0.061	580798	keystroke_i	i	n/a
290.4745	0.0755	580949	keystroke_d	d	n/a
290.64	0.12	581280	keystroke_g	g	n/a
290.729	0.106	581458	keystroke_e	e	n/a
290.82	0.105	581640	keystroke_Key.space	Key.space	n/a
290.94	0.135	581880	keystroke_a	a	n/a
291.045	0.12	582090	keystroke_t	t	n/a
291.195	0.09	582390	keystroke_h	h	n/a
291.405	0.0895	582810	keystroke_l	l	n/a
291.5095	0.105	583019	keystroke_e	e	n/a
291.585	0.09	583170	keystroke_t	t	n/a
291.72	0.089	583440	keystroke_i	i	n/a
291.811	0.074	583622	keystroke_c	c	n/a
291.945	0.09	583890	keystroke_Key.space	Key.space	n/a
292.065	0.1045	584130	keystroke_c	c	n/a
292.1545	0.15	584309	keystroke_a	a	n/a
292.2595	0.09	584519	keystroke_r	r	n/a
292.695	0.029	585390	keystroke_n	n	n/a
292.9645	0.045	585929	keystroke_i	i	n/a
293.0245	0.1055	586049	keystroke_c	c	n/a
293.189	0.105	586378	keystroke_a	a	n/a
293.654	0.075	587308	keystroke_Key.backspace	Key.backspace	n/a
293.819	0.0755	587638	keystroke_Key.backspace	Key.backspace	n/a
293.9845	0.0755	587969	keystroke_v	v	n/a
294.3145	0.0605	588629	keystroke_a	a	n/a
294.4045	0.0755	588809	keystroke_l	l	n/a
294.5245	0.0905	589049	keystroke_Key.space	Key.space	n/a
294.6895	0.105	589379	keystroke_c	c	n/a
294.7795	0.0755	589559	keystroke_a	a	n/a
294.8245	0.0755	589649	keystroke_l	l	n/a
294.9595	0.0755	589919	keystroke_l	l	n/a
295.1395	0.06	590279	keystroke_i	i	n/a
295.1545	0.135	590309	keystroke_n	n	n/a
295.2445	0.09	590489	keystroke_g	g	n/a
295.3195	0.135	590639	keystroke_Key.enter	Key.enter	n/a
295.461	4.8105	590922	prompt	n/a	cause richardson guinea deserve\n
296.07	0.104	592140	keystroke_c	c	n/a
296.16	0.119	592320	keystroke_a	a	n/a
296.2645	0.0755	592529	keystroke_u	u	n/a
296.3545	0.0745	592709	keystroke_s	s	n/a
296.5045	0.105	593009	keystroke_e	e	n/a
296.58	0.0745	593160	keystroke_Key.space	Key.space	n/a
296.7295	0.105	593459	keystroke_r	r	n/a
296.8795	0.06	593759	keystroke_i	i	n/a
296.9845	0.0755	593969	keystroke_c	c	n/a
297.0895	0.105	594179	keystroke_h	h	n/a
297.1795	0.12	594359	keystroke_a	a	n/a
297.2545	0.075	594509	keystroke_r	r	n/a
297.4345	0.06	594869	keystroke_d	d	n/a
297.57	0.0745	595140	keystroke_o	o	n/a
297.5845	0.0755	595169	keystroke_s	s	n/a
297.795	0.0595	595590	keystroke_n	n	n/a
297.9595	0.06	595919	keystroke_Key.space	Key.space	n/a
298.26	0.089	596520	keystroke_g	g	n/a
298.395	0.044	596790	keystroke_u	u	n/a
298.544	0.0605	597088	keystroke_i	i	n/a
298.7095	0.09	597419	keystroke_n	n	n/a
298.845	0.1345	597690	keystroke_e	e	n/a
298.965	0.1045	597930	keystroke_a	a	n/a
299.0845	0.075	598169	keystroke_Key.space	Key.space	n/a
299.2645	0.15	598529	keystroke_d	d	n/a
299.3995	0.105	598799	keystroke_e	e	n/a
299.58	0.0895	599160	keystroke_s	s	n/a
299.744	0.12	599488	keystroke_e	e	n/a
299.8055	0.089	599611	keystroke_r	r	n/a
299.9995	0.1045	599999	keystroke_v	v	n/a
300.075	0.09	600150	keystroke_e	e	n/a
300.179	0.091	600358	keystroke_Key.enter	Key.enter	n/a
300.2765	6.5195	600553	prompt	n/a	horse sunrise cigarette automobiles\n
300.9895	0.0755	601979	keystroke_h	h	n/a
301.095	0.0895	602190	keystroke_o	o	n/a
301.2145	0.1355	602429	keystroke_r	r	n/a
301.3645	0.0905	602729	keystroke_s	s	n/a
301.53	0.0745	603060	keystroke_e	e	n/a
301.6495	0.0905	603299	keystroke_Key.space	Key.space	n/a
301.815	0.105	603630	keystroke_s	s	n/a
301.9205	0.059	603841	keystroke_u	u	n/a
302.0845	0.075	604169	keystroke_n	n	n/a
302.22	0.09	604440	keystroke_r	r	n/a
302.5345	0.0755	605069	keystroke_i	i	n/a
302.6245	0.0755	605249	keystroke_s	s	n/a
302.8195	0.1045	605639	keystroke_e	e	n/a
302.909	0.09	605818	keystroke_Key.space	Key.space	n/a
303.134	0.09	606268	keystroke_c	c	n/a
303.284	0.061	606568	keystroke_i	i	n/a
303.465	0.119	606930	keystroke_g	g	n/a
303.614	0.151	607228	keystroke_a	a	n/a
303.78	0.105	607560	keystroke_r	r	n/a
303.96	0.075	607920	keystroke_r	r	n/a
304.305	0.09	608610	keystroke_Key.backspace	Key.backspace	n/a
304.41	0.12	608820	keystroke_e	e	n/a
304.65	0.06	609300	keystroke_t	t	n/a
304.785	0.0895	609570	keystroke_t	t	n/a
304.86	0.1045	609720	keystroke_e	e	n/a
304.995	0.0895	609990	keystroke_Key.space	Key.space	n/a
305.1145	0.1205	610229	keystroke_a	a	n/a
305.2645	0.0455	610529	keystroke_u	u	n/a
305.3395	0.075	610679	keystroke_t	t	n/a
305.505	0.075	611010	keystroke_o	o	n/a
305.745	0.06	611490	keystroke_m	m	n/a
305.94	0.06	611880	keystroke_o	o	n/a
306.12	0.06	612240	keystroke_b	b	n/a
306.21	0.06	612420	keystroke_i	i	n/a
306.39	0.06	612780	keystroke_l	l	n/a
306.4645	0.0605	612929	keystroke_e	e	n/a
306.6295	0.075	613259	keystroke_s	s	n/a
306.6895	0.105	613379	keystroke_Key.enter	Key.enter	n/a
306.807	5.4495	613614	prompt	n/a	door scoop gamecube colors\n
307.3345	0.09	614669	keystroke_d	d	n/a
307.4395	0.075	614879	keystroke_o	o	n/a
307.5295	0.105	615059	keystroke_o	o	n/a
307.665	0.06	615330	keystroke_r	r	n/a
308.0095	0.09	616019	keystroke_Key.backspace	Key.backspace	n/a
308.4595	0.075	616919	keystroke_r	r	n/a
308.6245	0.075	617249	keystroke_Key.space	Key.space	n/a
308.79	0.09	617580	keystroke_s	s	n/a
308.985	0.06	617970	keystroke_c	c	n/a
309.09	0.0895	618180	keystroke_o	o	n/a
309.2395	0.0755	618479	keystroke_o	o	n/a
309.4195	0.0595	618839	keystroke_p	p	n/a
309.4945	0.09	618989	keystroke_Key.space	Key.space	n/a
309.6745	0.12	619349	keystroke_g	g	n/a
309.7795	0.1055	619559	keystroke_a	a	n/a
309.914	0.076	619828	keystroke_m	m	n/a
310.0045	0.0745	620009	keystroke_e	e	n/a
310.245	0.059	620490	keystroke_b	b	n/a
310.514	0.09	621028	keystroke_Key.backspace	Key.backspace	n/a
310.62	0.09	621240	keystroke_c	c	n/a
310.754	0.076	621508	keystroke_u	u	n/a
310.874	0.09	621748	keystroke_b	b	n/a
311.0845	0.09	622169	keystroke_e	e	n/a
311.4145	0.09	622829	keystroke_Key.space	Key.space	n/a
311.5495	0.105	623099	keystroke_c	c	n/a
311.67	0.0445	623340	keystroke_o	o	n/a
311.8045	0.06	623609	keystroke_l	l	n/a
311.94	0.0895	623880	keystroke_o	o	n/a
312.0445	0.075	624089	keystroke_r	r	n/a
312.1045	0.0905	624209	keystroke_s	s	n/a
312.1795	0.0745	624359	keystroke_Key.enter	Key.enter	n/a
312.262	9.954	624524	prompt	n/a	introduced patrol section scheduled\n
312.8395	0.06	625679	keystroke_i	i	n/a
313.019	0.075	626038	keystroke_n	n	n/a
313.2745	0.0605	626549	keystroke_t	t	n/a
313.4095	0.09	626819	keystroke_r	r	n/a
313.5295	0.09	627059	keystroke_o	o	n/a
313.785	0.0595	627570	keystroke_d	d	n/a
313.9195	0.075	627839	keystroke_u	u	n/a
313.98	0.1495	627960	keystroke_c	c	n/a
314.0845	0.12	628169	keystroke_e	e	n/a
314.25	0.1045	628500	keystroke_d	d	n/a
314.3845	0.075	628769	keystroke_Key.space	Key.space	n/a
314.6395	0.045	629279	keystroke_p	p	n/a
314.7295	0.0905	629459	keystroke_a	a	n/a
314.835	0.0745	629670	keystroke_t	t	n/a
314.969	0.106	629938	keystroke_r	r	n/a
315.06	0.06	630120	keystroke_o	o	n/a
315.225	0.09	630450	keystroke_l	l	n/a
315.2545	0.12	630509	keystroke_Key.space	Key.space	n/a
315.4495	0.09	630899	keystroke_s	s	n/a
315.6445	0.075	631289	keystroke_e	e	n/a
315.8695	0.105	631739	keystroke_c	c	n/a
316.1095	0.0605	632219	keystroke_t	t	n/a
316.1845	0.06	632369	keystroke_i	i	n/a
316.3495	0.09	632699	keystroke_o	o	n/a
316.3945	0.075	632789	keystroke_n	n	n/a
316.5595	0.075	633119	keystroke_Key.space	Key.space	n/a
316.6645	0.1505	633329	keystroke_d	d	n/a
317.039	0.105	634078	keystroke_Key.backspace	Key.backspace	n/a
317.1595	0.1495	634319	keystroke_s	s	n/a
317.324	0.0905	634648	keystroke_c	c	n/a
317.82	0.105	635640	keystroke_g	g	n/a
317.985	0.105	635970	keystroke_e	e	n/a
318.674	0.1055	637348	keystroke_Key.backspace	Key.backspace	n/a
318.7945	0.1195	637589	keystroke_Key.backspace	Key.backspace	n/a
318.975	0.075	637950	keystroke_Key.backspace	Key.backspace	n/a
319.71	0.09	639420	keystroke_c	c	n/a
319.8595	0.075	639719	keystroke_h	h	n/a
319.9495	0.0905	639899	keystroke_e	e	n/a
320.0995	0.09	640199	keystroke_d	d	n/a
320.2045	0.06	640409	keystroke_u	u	n/a
320.3995	0.0605	640799	keystroke_k	k	n/a
320.4745	0.06	640949	keystroke_e	e	n/a
320.9995	0.06	641999	keystroke_Key.backspace	Key.backspace	n/a
321.1345	0.06	642269	keystroke_Key.backspace	Key.backspace	n/a
321.75	0.075	643500	keystroke_l	l	n/a
321.855	0.15	643710	keystroke_e	e	n/a
321.989	0.0905	643978	keystroke_d	d	n/a
322.0945	0.12	644189	keystroke_Key.enter	Key.enter	n/a
322.222	5.514	644444	prompt	n/a	turtle something's valve wesley\n
322.844	0.0905	645688	keystroke_t	t	n/a
323.009	0.0755	646018	keystroke_u	u	n/a
323.099	0.0755	646198	keystroke_r	r	n/a
323.2945	0.0755	646589	keystroke_t	t	n/a
323.399	0.075	646798	keystroke_h	h	n/a
323.6095	0.0745	647219	keystroke_Key.space	Key.space	n/a
323.7445	0.0905	647489	keystroke_s	s	n/a
323.8495	0.0605	647699	keystroke_o	o	n/a
324.0295	0.075	648059	keystroke_m	m	n/a
324.105	0.105	648210	keystroke_e	e	n/a
324.1645	0.0905	648329	keystroke_t	t	n/a
324.36	0.06	648720	keystroke_h	h	n/a
324.495	0.075	648990	keystroke_i	i	n/a
324.54	0.135	649080	keystroke_n	n	n/a
324.66	0.03	649320	keystroke_g	g	n/a
325.0195	0.075	650039	keystroke_'	'	n/a
325.14	0.0895	650280	keystroke_s	s	n/a
325.2745	0.105	650549	keystroke_Key.space	Key.space	n/a
325.4395	0.1355	650879	keystroke_v	v	n/a
325.5755	0.104	651151	keystroke_a	a	n/a
325.695	0.074	651390	keystroke_l	l	n/a
325.7545	0.1645	651509	keystroke_v	v	n/a
325.8895	0.1045	651779	keystroke_e	e	n/a
326.039	0.075	652078	keystroke_Key.space	Key.space	n/a
326.8345	0.135	653669	keystroke_w	w	n/a
326.9245	0.1495	653849	keystroke_e	e	n/a
327.0895	0.0755	654179	keystroke_l	l	n/a
327.15	0.074	654300	keystroke_s	s	n/a
327.314	0.105	654628	keystroke_e	e	n/a
327.434	0.121	654868	keystroke_y	y	n/a
327.6295	0.1045	655259	keystroke_Key.enter	Key.enter	n/a
327.7405	8.563	655481	prompt	n/a	musician reproductive passed floral\n
328.305	0.104	656610	keystroke_m	m	n/a
328.4245	0.06	656849	keystroke_e	e	n/a
328.799	0.1205	657598	keystroke_Key.backspace	Key.backspace	n/a
329.0545	0.0605	658109	keystroke_u	u	n/a
329.1295	0.105	658259	keystroke_s	s	n/a
329.31	0.0745	658620	keystroke_i	i	n/a
329.4	0.0745	658800	keystroke_c	c	n/a
329.5345	0.06	659069	keystroke_i	i	n/a
329.6095	0.075	659219	keystroke_a	a	n/a
329.744	0.045	659488	keystroke_l	l	n/a
330.044	0.1055	660088	keystroke_Key.backspace	Key.backspace	n/a
330.329	0.075	660658	keystroke_n	n	n/a
330.4345	0.105	660869	keystroke_Key.space	Key.space	n/a
330.7645	0.1045	661529	keystroke_r	r	n/a
330.8095	0.1045	661619	keystroke_e	e	n/a
330.974	0.0905	661948	keystroke_p	p	n/a
331.1545	0.09	662309	keystroke_o	o	n/a
331.2295	0.09	662459	keystroke_r	r	n/a
331.785	0.1045	663570	keystroke_u	u	n/a
332.2645	0.0895	664529	keystroke_Key.backspace	Key.backspace	n/a
332.4295	0.1945	664859	keystroke_Key.backspace	Key.backspace	n/a
332.7595	0.09	665519	keystroke_Key.backspace	Key.backspace	n/a
332.9245	0.09	665849	keystroke_r	r	n/a
333.0145	0.09	666029	keystroke_o	o	n/a
333.2395	0.06	666479	keystroke_d	d	n/a
333.4045	0.06	666809	keystroke_u	u	n/a
333.4645	0.06	666929	keystroke_c	c	n/a
333.6595	0.045	667319	keystroke_t	t	n/a
333.72	0.0745	667440	keystroke_i	i	n/a
334.11	0.134	668220	keystroke_v	v	n/a
334.1695	0.12	668339	keystroke_e	e	n/a
334.319	0.075	668638	keystroke_Key.space	Key.space	n/a
334.575	0.0595	669150	keystroke_p	p	n/a
334.649	0.1205	669298	keystroke_a	a	n/a
334.7395	0.06	669479	keystroke_s	s	n/a
334.8595	0.1055	669719	keystroke_s	s	n/a
335.04	0.1045	670080	keystroke_e	e	n/a
335.2045	0.075	670409	keystroke_d	d	n/a
335.2495	0.09	670499	keystroke_Key.space	Key.space	n/a
335.3995	0.09	670799	keystroke_f	f	n/a
335.5045	0.105	671009	keystroke_l	l	n/a
335.6845	0.09	671369	keystroke_o	o	n/a
335.7595	0.105	671519	keystroke_r	r	n/a
335.8645	0.0905	671729	keystroke_a	a	n/a
336.0145	0.075	672029	keystroke_l	l	n/a
336.1645	0.135	672329	keystroke_Key.enter	Key.enter	n/a
336.3095	4.6265	672619	prompt	n/a	wiki contest wayne existence\n
337.02	0.119	674040	keystroke_w	w	n/a
337.124	0.0605	674248	keystroke_i	i	n/a
337.289	0.0605	674578	keystroke_k	k	n/a
337.409	0.06	674818	keystroke_i	i	n/a
337.514	0.105	675028	keystroke_Key.space	Key.space	n/a
337.724	0.0905	675448	keystroke_Key.space	Key.space	n/a
337.8745	0.105	675749	keystroke_c	c	n/a
337.9795	0.06	675959	keystroke_o	o	n/a
338.1445	0.0905	676289	keystroke_n	n	n/a
338.2495	0.09	676499	keystroke_t	t	n/a
338.325	0.0745	676650	keystroke_e	e	n/a
338.505	0.09	677010	keystroke_s	s	n/a
338.5795	0.09	677159	keystroke_t	t	n/a
338.6845	0.0755	677369	keystroke_Key.space	Key.space	n/a
338.9245	0.1345	677849	keystroke_w	w	n/a
339.03	0.0895	678060	keystroke_a	a	n/a
339.179	0.0905	678358	keystroke_y	y	n/a
339.374	0.076	678748	keystroke_n	n	n/a
339.45	0.0895	678900	keystroke_e	e	n/a
339.584	0.09	679168	keystroke_Key.space	Key.space	n/a
339.8245	0.0745	679649	keystroke_e	e	n/a
340.034	0.0755	680068	keystroke_x	x	n/a
340.1695	0.0445	680339	keystroke_i	i	n/a
340.229	0.1205	680458	keystroke_s	s	n/a
340.38	0.1045	680760	keystroke_t	t	n/a
340.47	0.1045	680940	keystroke_e	e	n/a
340.6045	0.09	681209	keystroke_n	n	n/a
340.71	0.0745	681420	keystroke_c	c	n/a
340.7545	0.105	681509	keystroke_e	e	n/a
340.8295	0.105	681659	keystroke_Key.enter	Key.enter	n/a
340.941	5.2605	681882	prompt	n/a	chester syndrome begun notre\n
341.565	0.0895	683130	keystroke_c	c	n/a
341.685	0.0745	683370	keystroke_h	h	n/a
341.744	0.0905	683488	keystroke_e	e	n/a
341.909	0.09	683818	keystroke_s	s	n/a
342.0145	0.1055	684029	keystroke_t	t	n/a
342.104	0.105	684208	keystroke_e	e	n/a
342.194	0.09	684388	keystroke_r	r	n/a
342.269	0.09	684538	keystroke_Key.space	Key.space	n/a
342.554	0.0755	685108	keystroke_s	s	n/a
342.704	0.0905	685408	keystroke_y	y	n/a
342.8545	0.0745	685709	keystroke_n	n	n/a
343.0795	0.0745	686159	keystroke_d	d	n/a
343.2595	0.0605	686519	keystroke_r	r	n/a
343.3345	0.0745	686669	keystroke_o	o	n/a
343.5295	0.0595	687059	keystroke_m	m	n/a
343.634	0.0755	687268	keystroke_e	e	n/a
343.739	0.09	687478	keystroke_Key.space	Key.space	n/a
344.07	0.104	688140	keystroke_b	b	n/a
344.159	0.1055	688318	keystroke_e	e	n/a
344.384	0.015	688768	keystroke_g	g	n/a
344.429	0.105	688858	keystroke_u	u	n/a
345.1045	0.0455	690209	keystroke_n	n	n/a
345.254	0.0755	690508	keystroke_Key.space	Key.space	n/a
345.449	0.06	690898	keystroke_n	n	n/a
345.644	0.0755	691288	keystroke_o	o	n/a
345.734	0.0755	691468	keystroke_t	t	n/a
345.914	0.1355	691828	keystroke_r	r	n/a
346.0045	0.1045	692009	keystroke_e	e	n/a
346.0795	0.1195	692159	keystroke_Key.enter	Key.enter	n/a
346.2065	6.8045	692413	prompt	n/a	randy management featuring thumbnails\n
346.949	0.1355	693898	keystroke_r	r	n/a
347.054	0.12	694108	keystroke_a	a	n/a
347.144	0.075	694288	keystroke_n	n	n/a
347.234	0.09	694468	keystroke_d	d	n/a
347.459	0.06	694918	keystroke_y	y	n/a
347.564	0.09	695128	keystroke_Key.space	Key.space	n/a
347.76	0.06	695520	keystroke_m	m	n/a
347.865	0.089	695730	keystroke_a	a	n/a
347.939	0.076	695878	keystroke_n	n	n/a
348.059	0.12	696118	keystroke_a	a	n/a
348.164	0.1205	696328	keystroke_g	g	n/a
348.254	0.12	696508	keystroke_e	e	n/a
348.495	0.09	696990	keystroke_m	m	n/a
348.6145	0.1195	697229	keystroke_e	e	n/a
348.719	0.061	697438	keystroke_n	n	n/a
348.78	0.105	697560	keystroke_t	t	n/a
348.899	0.09	697798	keystroke_Key.space	Key.space	n/a
349.094	0.061	698188	keystroke_g	g	n/a
349.7245	0.0895	699449	keystroke_Key.backspace	Key.backspace	n/a
349.8295	0.1045	699659	keystroke_f	f	n/a
350.039	0.0905	700078	keystroke_e	e	n/a
350.1145	0.1045	700229	keystroke_a	a	n/a
350.249	0.0905	700498	keystroke_t	t	n/a
350.399	0.0755	700798	keystroke_u	u	n/a
350.49	0.1195	700980	keystroke_r	r	n/a
350.6245	0.075	701249	keystroke_i	i	n/a
350.804	0.075	701608	keystroke_n	n	n/a
350.864	0.0755	701728	keystroke_g	g	n/a
350.969	0.105	701938	keystroke_Key.space	Key.space	n/a
351.0895	0.0895	702179	keystroke_t	t	n/a
351.225	0.0745	702450	keystroke_h	h	n/a
351.4045	0.0595	702809	keystroke_u	u	n/a
351.584	0.091	703168	keystroke_m	m	n/a
351.69	0.0445	703380	keystroke_b	b	n/a
352.289	0.06	704578	keystroke_n	n	n/a
352.3945	0.1045	704789	keystroke_a	a	n/a
352.53	0.0595	705060	keystroke_i	i	n/a
352.709	0.076	705418	keystroke_l	l	n/a
352.799	0.076	705598	keystroke_s	s	n/a
352.904	0.1055	705808	keystroke_Key.enter	Key.enter	n/a
353.016	6.507	706032	prompt	n/a	cells titled occur components\n
353.655	0.0745	707310	keystroke_e	e	n/a
353.9845	0.09	707969	keystroke_Key.backspace	Key.backspace	n/a
354.1495	0.105	708299	keystroke_c	c	n/a
354.2245	0.105	708449	keystroke_e	e	n/a
354.315	0.075	708630	keystroke_l	l	n/a
354.4495	0.09	708899	keystroke_l	l	n/a
354.794	0.0605	709588	keystroke_s	s	n/a
354.9135	0.075	709827	keystroke_Key.space	Key.space	n/a
355.079	0.0755	710158	keystroke_t	t	n/a
355.2145	0.0595	710429	keystroke_i	i	n/a
355.619	0.105	711238	keystroke_t	t	n/a
355.86	0.104	711720	keystroke_l	l	n/a
356.129	0.09	712258	keystroke_e	e	n/a
356.294	0.09	712588	keystroke_d	d	n/a
356.4595	0.0755	712919	keystroke_Key.space	Key.space	n/a
356.6095	0.0745	713219	keystroke_c	c	n/a
356.7145	0.0595	713429	keystroke_o	o	n/a
356.9845	0.0745	713969	keystroke_Key.backspace	Key.backspace	n/a
357.134	0.09	714268	keystroke_Key.backspace	Key.backspace	n/a
357.2695	0.0895	714539	keystroke_o	o	n/a
357.374	0.045	714748	keystroke_c	c	n/a
357.4945	0.0905	714989	keystroke_c	c	n/a
357.644	0.0755	715288	keystroke_u	u	n/a
357.704	0.09	715408	keystroke_r	r	n/a
357.854	0.0905	715708	keystroke_Key.space	Key.space	n/a
357.989	0.06	715978	keystroke_c	c	n/a
358.079	0.061	716158	keystroke_o	o	n/a
358.2445	0.06	716489	keystroke_m	m	n/a
358.4395	0.075	716879	keystroke_p	p	n/a
358.5895	0.0755	717179	keystroke_o	o	n/a
358.785	0.09	717570	keystroke_n	n	n/a
358.8895	0.105	717779	keystroke_e	e	n/a
358.9955	0.089	717991	keystroke_n	n	n/a
359.0995	0.135	718199	keystroke_t	t	n/a
359.22	0.0895	718440	keystroke_s	s	n/a
359.4145	0.1045	718829	keystroke_Key.enter	Key.enter	n/a
359.528	5.2435	719056	prompt	n/a	prepare sport substantially logo\n
360.0895	0.09	720179	keystroke_p	p	n/a
360.1645	0.12	720329	keystroke_r	r	n/a
360.255	0.0895	720510	keystroke_e	e	n/a
360.3745	0.09	720749	keystroke_p	p	n/a
360.5095	0.135	721019	keystroke_a	a	n/a
360.6295	0.135	721259	keystroke_r	r	n/a
360.7195	0.105	721439	keystroke_e	e	n/a
360.884	0.0755	721768	keystroke_Key.space	Key.space	n/a
361.064	0.09	722128	keystroke_s	s	n/a
361.169	0.0905	722338	keystroke_p	p	n/a
361.365	0.089	722730	keystroke_o	o	n/a
361.439	0.06	722878	keystroke_r	r	n/a
361.574	0.0755	723148	keystroke_t	t	n/a
361.6945	0.105	723389	keystroke_Key.space	Key.space	n/a
361.874	0.09	723748	keystroke_s	s	n/a
362.009	0.075	724018	keystroke_u	u	n/a
362.159	0.09	724318	keystroke_b	b	n/a
362.6095	0.1345	725219	keystroke_s	s	n/a
362.759	0.09	725518	keystroke_t	t	n/a
362.864	0.1055	725728	keystroke_a	a	n/a
363.0145	0.075	726029	keystroke_n	n	n/a
363.134	0.0895	726268	keystroke_t	t	n/a
363.285	0.0595	726570	keystroke_i	i	n/a
363.3745	0.075	726749	keystroke_a	a	n/a
363.4945	0.06	726989	keystroke_l	l	n/a
363.629	0.075	727258	keystroke_l	l	n/a
363.689	0.105	727378	keystroke_y	y	n/a
363.8995	0.09	727799	keystroke_Key.space	Key.space	n/a
364.2	0.059	728400	keystroke_l	l	n/a
364.349	0.061	728698	keystroke_o	o	n/a
364.439	0.09	728878	keystroke_g	g	n/a
364.5	0.104	729000	keystroke_o	o	n/a
364.619	0.1505	729238	keystroke_Key.enter	Key.enter	n/a
364.778	6.1135	729556	prompt	n/a	tools celebrities occupied suite\n
365.279	0.105	730558	keystroke_t	t	n/a
365.369	0.0605	730738	keystroke_o	o	n/a
365.505	0.0745	731010	keystroke_o	o	n/a
365.654	0.09	731308	keystroke_l	l	n/a
365.7595	0.0895	731519	keystroke_s	s	n/a
365.8645	0.0745	731729	keystroke_Key.space	Key.space	n/a
365.9845	0.12	731969	keystroke_c	c	n/a
366.0745	0.09	732149	keystroke_e	e	n/a
366.1945	0.1045	732389	keystroke_l	l	n/a
366.285	0.075	732570	keystroke_e	e	n/a
366.404	0.0755	732808	keystroke_b	b	n/a
366.5995	0.09	733199	keystroke_r	r	n/a
366.7345	0.075	733469	keystroke_i	i	n/a
366.8245	0.075	733649	keystroke_t	t	n/a
366.9445	0.105	733889	keystroke_i	i	n/a
367.0345	0.09	734069	keystroke_e	e	n/a
367.1995	0.09	734399	keystroke_s	s	n/a
367.2735	0.091	734547	keystroke_Key.space	Key.space	n/a
367.4995	0.045	734999	keystroke_o	o	n/a
367.56	0.0745	735120	keystroke_c	c	n/a
367.6945	0.06	735389	keystroke_c	c	n/a
368.2645	0.075	736529	keystroke_o	o	n/a
368.7745	0.09	737549	keystroke_Key.backspace	Key.backspace	n/a
369.0145	0.075	738029	keystroke_u	u	n/a
369.284	0.075	738568	keystroke_p	p	n/a
369.51	0.074	739020	keystroke_i	i	n/a
369.84	0.0745	739680	keystroke_e	e	n/a
370.02	0.0745	740040	keystroke_d	d	n/a
370.1095	0.075	740219	keystroke_Key.space	Key.space	n/a
370.2745	0.12	740549	keystroke_s	s	n/a
370.4245	0.045	740849	keystroke_u	u	n/a
370.6045	0.09	741209	keystroke_i	i	n/a
370.6795	0.09	741359	keystroke_t	t	n/a
370.8145	0.0745	741629	keystroke_Key.enter	Key.enter	n/a
370.896	6.205	741792	prompt	n/a	question acres participating depending\n
371.61	0.089	743220	keystroke_q	q	n/a
371.729	0.0605	743458	keystroke_u	u	n/a
371.88	0.105	743760	keystroke_e	e	n/a
371.954	0.165	743908	keystroke_s	s	n/a
372.554	0.105	745108	keystroke_t	t	n/a
372.6745	0.0745	745349	keystroke_i	i	n/a
372.8545	0.075	745709	keystroke_o	o	n/a
372.9145	0.06	745829	keystroke_n	n	n/a
373.0795	0.06	746159	keystroke_Key.space	Key.space	n/a
373.17	0.1195	746340	keystroke_a	a	n/a
373.334	0.1205	746668	keystroke_c	c	n/a
373.5745	0.15	747149	keystroke_r	r	n/a
373.6945	0.12	747389	keystroke_e	e	n/a
373.92	0.1045	747840	keystroke_s	s	n/a
374.0535	0.0905	748107	keystroke_Key.space	Key.space	n/a
374.3095	0.0755	748619	keystroke_p	p	n/a
374.385	0.105	748770	keystroke_a	a	n/a
374.4595	0.09	748919	keystroke_r	r	n/a
374.639	0.075	749278	keystroke_t	t	n/a
374.819	0.06	749638	keystroke_i	i	n/a
374.909	0.075	749818	keystroke_c	c	n/a
375.03	0.059	750060	keystroke_i	i	n/a
375.24	0.0745	750480	keystroke_p	p	n/a
375.33	0.1195	750660	keystroke_a	a	n/a
375.4945	0.105	750989	keystroke_t	t	n/a
375.5845	0.09	751169	keystroke_e	e	n/a
375.734	0.0755	751468	keystroke_d	d	n/a
375.8545	0.0745	751709	keystroke_Key.space	Key.space	n/a
375.99	0.134	751980	keystroke_d	d	n/a
376.094	0.12	752188	keystroke_e	e	n/a
376.199	0.0905	752398	keystroke_p	p	n/a
376.334	0.075	752668	keystroke_e	e	n/a
376.454	0.075	752908	keystroke_n	n	n/a
376.5145	0.0895	753029	keystroke_d	d	n/a
376.664	0.061	753328	keystroke_i	i	n/a
376.8295	0.075	753659	keystroke_n	n	n/a
376.8895	0.075	753779	keystroke_g	g	n/a
376.9945	0.104	753989	keystroke_Key.enter	Key.enter	n/a
377.1065	5.2295	754213	prompt	n/a	descriptions howdy collar albania\n
377.6545	0.165	755309	keystroke_d	d	n/a
377.7445	0.12	755489	keystroke_e	e	n/a
377.9545	0.09	755909	keystroke_s	s	n/a
378.0745	0.105	756149	keystroke_c	c	n/a
378.2845	0.0745	756569	keystroke_r	r	n/a
378.344	0.075	756688	keystroke_i	i	n/a
378.554	0.075	757108	keystroke_p	p	n/a
378.599	0.1055	757198	keystroke_t	t	n/a
378.7795	0.0755	757559	keystroke_i	i	n/a
378.9445	0.0595	757889	keystroke_o	o	n/a
379.109	0.09	758218	keystroke_n	n	n/a
379.214	0.09	758428	keystroke_s	s	n/a
379.305	0.089	758610	keystroke_Key.space	Key.space	n/a
379.5145	0.0595	759029	keystroke_h	h	n/a
379.62	0.089	759240	keystroke_o	o	n/a
379.679	0.105	759358	keystroke_w	w	n/a
379.844	0.1055	759688	keystroke_d	d	n/a
380.0845	0.075	760169	keystroke_y	y	n/a
380.189	0.075	760378	keystroke_Key.space	Key.space	n/a
380.324	0.09	760648	keystroke_c	c	n/a
380.429	0.061	760858	keystroke_o	o	n/a
380.609	0.06	761218	keystroke_l	l	n/a
380.729	0.075	761458	keystroke_l	l	n/a
380.789	0.12	761578	keystroke_a	a	n/a
380.849	0.09	761698	keystroke_r	r	n/a
380.954	0.0605	761908	keystroke_Key.space	Key.space	n/a
381.105	0.0895	762210	keystroke_a	a	n/a
381.269	0.09	762538	keystroke_l	l	n/a
381.464	0.09	762928	keystroke_b	b	n/a
381.734	0.0605	763468	keystroke_a	a	n/a
381.8395	0.0745	763679	keystroke_n	n	n/a
382.065	0.029	764130	keystroke_i	i	n/a
382.1095	0.0595	764219	keystroke_a	a	n/a
382.2145	0.1195	764429	keystroke_Key.enter	Key.enter	n/a
382.3405	5.0205	764681	prompt	n/a	adult bradley grande expert\n
382.844	0.12	765688	keystroke_a	a	n/a
383.054	0.075	766108	keystroke_d	d	n/a
383.174	0.091	766348	keystroke_u	u	n/a
383.4295	0.0745	766859	keystroke_l	l	n/a
383.519	0.09	767038	keystroke_t	t	n/a
383.744	0.0595	767488	keystroke_Key.space	Key.space	n/a
384.045	0.074	768090	keystroke_b	b	n/a
384.269	0.09	768538	keystroke_r	r	n/a
384.36	0.179	768720	keystroke_a	a	n/a
384.479	0.105	768958	keystroke_d	d	n/a
384.6745	0.075	769349	keystroke_l	l	n/a
384.869	0.135	769738	keystroke_e	e	n/a
384.989	0.0755	769978	keystroke_y	y	n/a
385.109	0.075	770218	keystroke_Key.space	Key.space	n/a
385.319	0.09	770638	keystroke_g	g	n/a
385.5145	0.1055	771029	keystroke_r	r	n/a
385.6045	0.12	771209	keystroke_a	a	n/a
385.7395	0.0755	771479	keystroke_n	n	n/a
385.8	0.1345	771600	keystroke_d	d	n/a
385.9195	0.09	771839	keystroke_e	e	n/a
386.0245	0.075	772049	keystroke_Key.space	Key.space	n/a
386.2495	0.075	772499	keystroke_e	e	n/a
386.4445	0.075	772889	keystroke_x	x	n/a
386.5795	0.09	773159	keystroke_p	p	n/a
386.6545	0.135	773309	keystroke_e	e	n/a
386.7745	0.075	773549	keystroke_r	r	n/a
387.0295	0.105	774059	keystroke_t	t	n/a
387.2545	0.105	774509	keystroke_Key.enter	Key.enter	n/a
387.366	7.465	774732	prompt	n/a	electoral tribunal stephanie traveller\n
388.0045	0.1205	776009	keystroke_e	e	n/a
388.4395	0.12	776879	keystroke_l	l	n/a
388.53	0.1495	777060	keystroke_e	e	n/a
388.6645	0.09	777329	keystroke_c	c	n/a
388.8595	0.075	777719	keystroke_t	t	n/a
389.054	0.0905	778108	keystroke_o	o	n/a
389.085	0.0895	778170	keystroke_r	r	n/a
389.8495	0.105	779699	keystroke_a	a	n/a
389.9395	0.075	779879	keystroke_l	l	n/a
390.0295	0.12	780059	keystroke_Key.space	Key.space	n/a
390.2995	0.135	780599	keystroke_t	t	n/a
390.6595	0.1045	781319	keystroke_r	r	n/a
390.8245	0.1055	781649	keystroke_i	i	n/a
390.9445	0.075	781889	keystroke_b	b	n/a
391.079	0.0755	782158	keystroke_u	u	n/a
391.454	0.0755	782908	keystroke_n	n	n/a
391.619	0.075	783238	keystroke_a	a	n/a
391.724	0.09	783448	keystroke_l	l	n/a
391.9495	0.0745	783899	keystroke_Key.space	Key.space	n/a
392.399	0.075	784798	keystroke_s	s	n/a
392.504	0.12	785008	keystroke_t	t	n/a
392.5945	0.0895	785189	keystroke_e	e	n/a
392.714	0.0755	785428	keystroke_p	p	n/a
392.8045	0.075	785609	keystroke_h	h	n/a
392.909	0.1055	785818	keystroke_a	a	n/a
393.044	0.0605	786088	keystroke_n	n	n/a
393.224	0.06	786448	keystroke_i	i	n/a
393.314	0.09	786628	keystroke_e	e	n/a
393.419	0.075	786838	keystroke_Key.space	Key.space	n/a
393.524	0.1055	787048	keystroke_t	t	n/a
393.7045	0.1195	787409	keystroke_r	r	n/a
393.839	0.135	787678	keystroke_a	a	n/a
393.9595	0.1345	787919	keystroke_v	v	n/a
394.079	0.09	788158	keystroke_e	e	n/a
394.275	0.074	788550	keystroke_l	l	n/a
394.409	0.105	788818	keystroke_l	l	n/a
394.529	0.1355	789058	keystroke_e	e	n/a
394.604	0.105	789208	keystroke_r	r	n/a
394.724	0.1055	789448	keystroke_Key.enter	Key.enter	n/a
394.837	10.9445	789674	prompt	n/a	montgomery beliefs bucks poor\n
395.384	0.0455	790768	keystroke_m	m	n/a
395.654	0.075	791308	keystroke_Key.backspace	Key.backspace	n/a
396.18	0.059	792360	keystroke_m	m	n/a
396.4345	0.045	792869	keystroke_o	o	n/a
396.6445	0.06	793289	keystroke_n	n	n/a
396.779	0.1055	793558	keystroke_t	t	n/a
396.9295	0.06	793859	keystroke_o	o	n/a
397.125	0.0595	794250	keystroke_n	n	n/a
397.8745	0.075	795749	keystroke_Key.backspace	Key.backspace	n/a
398.1145	0.045	796229	keystroke_m	m	n/a
398.3395	0.105	796679	keystroke_g	g	n/a
398.8195	0.09	797639	keystroke_Key.backspace	Key.backspace	n/a
398.9395	0.1505	797879	keystroke_e	e	n/a
399.0285	0.12	798057	keystroke_r	r	n/a
399.27	0.0745	798540	keystroke_y	y	n/a
399.4645	0.06	798929	keystroke_Key.space	Key.space	n/a
400.0495	0.105	800099	keystroke_b	b	n/a
400.1395	0.09	800279	keystroke_e	e	n/a
400.2895	0.09	800579	keystroke_l	l	n/a
400.4095	0.075	800819	keystroke_e	e	n/a
400.5145	0.045	801029	keystroke_i	i	n/a
400.845	0.134	801690	keystroke_f	f	n/a
400.949	0.105	801898	keystroke_s	s	n/a
401.114	0.0755	802228	keystroke_Key.space	Key.space	n/a
402.6895	0.075	805379	keystroke_Key.backspace	Key.backspace	n/a
402.929	0.06	805858	keystroke_Key.backspace	Key.backspace	n/a
403.1085	0.075	806217	keystroke_Key.backspace	Key.backspace	n/a
403.2745	0.06	806549	keystroke_Key.backspace	Key.backspace	n/a
403.4245	0.0895	806849	keystroke_Key.backspace	Key.backspace	n/a
403.6645	0.06	807329	keystroke_i	i	n/a
403.7395	0.105	807479	keystroke_e	e	n/a
403.8595	0.15	807719	keystroke_f	f	n/a
403.9935	0.106	807987	keystroke_s	s	n/a
404.1135	0.075	808227	keystroke_Key.space	Key.space	n/a
404.4145	0.059	808829	keystroke_b	b	n/a
404.534	0.0755	809068	keystroke_u	u	n/a
404.6245	0.075	809249	keystroke_c	c	n/a
404.7445	0.0745	809489	keystroke_k	k	n/a
404.8345	0.12	809669	keystroke_s	s	n/a
404.9395	0.0745	809879	keystroke_Key.space	Key.space	n/a
405.179	0.0455	810358	keystroke_p	p	n/a
405.345	0.0595	810690	keystroke_o	o	n/a
405.464	0.075	810928	keystroke_o	o	n/a
405.554	0.105	811108	keystroke_r	r	n/a
405.674	0.1055	811348	keystroke_Key.enter	Key.enter	n/a
405.7875	5.559	811575	prompt	n/a	bundle link fortune rochester\n
406.3495	0.075	812699	keystroke_b	b	n/a
406.4695	0.06	812939	keystroke_u	u	n/a
406.6495	0.075	813299	keystroke_n	n	n/a
406.7085	0.09	813417	keystroke_d	d	n/a
406.9195	0.075	813839	keystroke_l	l	n/a
407.0545	0.075	814109	keystroke_e	e	n/a
407.1595	0.075	814319	keystroke_Key.space	Key.space	n/a
407.594	0.0755	815188	keystroke_l	l	n/a
407.7895	0.045	815579	keystroke_i	i	n/a
407.9395	0.06	815879	keystroke_n	n	n/a
408.1195	0.0595	816239	keystroke_k	k	n/a
408.194	0.075	816388	keystroke_Key.space	Key.space	n/a
408.3445	0.09	816689	keystroke_f	f	n/a
408.4195	0.09	816839	keystroke_o	o	n/a
408.5245	0.105	817049	keystroke_r	r	n/a
408.6895	0.0595	817379	keystroke_u	u	n/a
408.7645	0.0595	817529	keystroke_t	t	n/a
409.379	0.0455	818758	keystroke_Key.backspace	Key.backspace	n/a
409.484	0.105	818968	keystroke_Key.backspace	Key.backspace	n/a
409.604	0.1195	819208	keystroke_t	t	n/a
409.7395	0.0745	819479	keystroke_u	u	n/a
409.9045	0.075	819809	keystroke_n	n	n/a
409.9945	0.0595	819989	keystroke_e	e	n/a
410.099	0.0755	820198	keystroke_Key.space	Key.space	n/a
410.2945	0.075	820589	keystroke_r	r	n/a
410.4295	0.03	820859	keystroke_o	o	n/a
410.4745	0.075	820949	keystroke_c	c	n/a
410.6095	0.075	821219	keystroke_h	h	n/a
410.6695	0.09	821339	keystroke_e	e	n/a
410.8345	0.0895	821669	keystroke_s	s	n/a
410.9545	0.1195	821909	keystroke_t	t	n/a
411.059	0.105	822118	keystroke_e	e	n/a
411.1495	0.1045	822299	keystroke_r	r	n/a
411.239	0.1055	822478	keystroke_Key.enter	Key.enter	n/a
411.3515	7.2995	822703	prompt	n/a	outlook depend dried provide\n
411.9145	0.09	823829	keystroke_o	o	n/a
412.1545	0.03	824309	keystroke_u	u	n/a
412.1995	0.09	824399	keystroke_t	t	n/a
412.3645	0.12	824729	keystroke_l	l	n/a
