onset	duration	sample	value	key	prompt_text
8.96	19.2445	17920	prompt	n/a	the quick brown fox jumps over a lazy dog\n
11.0485	0.056	22097	keystroke_t	t	n/a
11.1685	0.056	22337	keystroke_h	h	n/a
11.4325	0.048	22865	keystroke_e	e	n/a
11.5285	0.088	23057	keystroke_Key.space	Key.space	n/a
11.8645	0.064	23729	keystroke_q	q	n/a
12.0405	0.064	24081	keystroke_u	u	n/a
12.1765	0.056	24353	keystroke_i	i	n/a
12.3205	0.048	24641	keystroke_c	c	n/a
12.5605	0.072	25121	keystroke_k	k	n/a
12.761	0.056	25522	keystroke_Key.space	Key.space	n/a
12.969	0.048	25938	keystroke_b	b	n/a
13.129	0.048	26258	keystroke_r	r	n/a
13.305	0.08	26610	keystroke_o	o	n/a
13.497	0.072	26994	keystroke_w	w	n/a
13.665	0.048	27330	keystroke_n	n	n/a
13.825	0.064	27650	keystroke_Key.space	Key.space	n/a
14.001	0.056	28002	keystroke_f	f	n/a
14.137	0.024	28274	keystroke_o	o	n/a
15.4725	0.048	30945	keystroke_x	x	n/a
15.5285	0.08	31057	keystroke_Key.space	Key.space	n/a
15.8645	0.0635	31729	keystroke_j	j	n/a
16.033	0.056	32066	keystroke_u	u	n/a
16.248	0.0485	32496	keystroke_m	m	n/a
16.4645	0.0805	32929	keystroke_o	o	n/a
16.9525	0.072	33905	keystroke_s	s	n/a
17.1045	0.08	34209	keystroke_Key.space	Key.space	n/a
17.9605	0.0715	35921	keystroke_=	=	n/a
18.16	0.08	36320	keystroke_=	=	n/a
18.352	0.072	36704	keystroke_=	=	n/a
19.0405	0.096	38081	keystroke_Key.backspace	Key.backspace	n/a
19.2485	0.072	38497	keystroke_Key.backspace	Key.backspace	n/a
19.4325	0.08	38865	keystroke_Key.backspace	Key.backspace	n/a
19.6805	0.088	39361	keystroke_Key.backspace	Key.backspace	n/a
19.8725	0.072	39745	keystroke_Key.backspace	Key.backspace	n/a
20.0565	0.056	40113	keystroke_Key.backspace	Key.backspace	n/a
20.817	0.047	41634	keystroke_o	o	n/a
21.9045	0.096	43809	keystroke_Key.backspace	Key.backspace	n/a
22.3605	0.08	44721	keystroke_p	p	n/a
22.4805	0.072	44961	keystroke_s	s	n/a
22.5925	0.064	45185	keystroke_Key.space	Key.space	n/a
24.4965	0.056	48993	keystroke_o	o	n/a
24.7205	0.032	49441	keystroke_v	v	n/a
24.913	0.1355	49826	keystroke_e	e	n/a
24.9925	0.088	49985	keystroke_r	r	n/a
25.1445	0.072	50289	keystroke_Key.space	Key.space	n/a
25.2645	0.096	50529	keystroke_a	a	n/a
25.3615	0.079	50723	keystroke_Key.space	Key.space	n/a
26.017	0.08	52034	keystroke_l	l	n/a
26.145	0.096	52290	keystroke_a	a	n/a
26.345	0.088	52690	keystroke_z	z	n/a
26.641	0.072	53282	keystroke_y	y	n/a
26.745	0.08	53490	keystroke_Key.space	Key.space	n/a
27.0805	0.056	54161	keystroke_d	d	n/a
27.1765	0.096	54353	keystroke_o	o	n/a
27.3205	0.064	54641	keystroke_g	g	n/a
28.097	0.104	56194	keystroke_Key.enter	Key.enter	n/a
28.2105	15.7355	56421	prompt	n/a	colombia affiliation weddings reaction\n
29.4245	0.064	58849	keystroke_c	c	n/a
29.624	0.088	59248	keystroke_o	o	n/a
29.8965	0.088	59793	keystroke_l	l	n/a
30.1045	0.064	60209	keystroke_o	o	n/a
30.3045	0.056	60609	keystroke_m	m	n/a
30.7365	0.12	61473	keystroke_b	b	n/a
30.8485	0.096	61697	keystroke_i	i	n/a
31.1125	0.096	62225	keystroke_a	a	n/a
31.2565	0.08	62513	keystroke_Key.space	Key.space	n/a
31.5765	0.096	63153	keystroke_a	a	n/a
32.2485	0.064	64497	keystroke_f	f	n/a
32.4325	0.08	64865	keystroke_i	i	n/a
32.6245	0.128	65249	keystroke_l	l	n/a
32.7285	0.096	65457	keystroke_i	i	n/a
33.0645	0.12	66129	keystroke_a	a	n/a
34.0645	0.056	68129	keystroke_t	t	n/a
34.456	0.16	68912	keystroke_i	i	n/a
34.56	0.12	69120	keystroke_o	o	n/a
34.856	0.128	69712	keystroke_n	n	n/a
35.128	0.088	70256	keystroke_Key.space	Key.space	n/a
35.904	0.088	71808	keystroke_w	w	n/a
36.08	0.056	72160	keystroke_e	e	n/a
36.272	0.056	72544	keystroke_d	d	n/a
36.384	0.048	72768	keystroke_d	d	n/a
36.52	0.136	73040	keystroke_i	i	n/a
36.608	0.096	73216	keystroke_n	n	n/a
37.1605	0.064	74321	keystroke_h	h	n/a
38.089	0.104	76178	keystroke_=	=	n/a
38.568	0.08	77136	keystroke_Key.backspace	Key.backspace	n/a
38.72	0.104	77440	keystroke_Key.backspace	Key.backspace	n/a
38.905	0.079	77810	keystroke_g	g	n/a
39.104	0.0965	78208	keystroke_s	s	n/a
39.592	0.088	79184	keystroke_Key.space	Key.space	n/a
40.5685	0.152	81137	keystroke_r	r	n/a
40.641	0.112	81282	keystroke_e	e	n/a
40.849	0.136	81698	keystroke_a	a	n/a
40.921	0.096	81842	keystroke_c	c	n/a
41.185	0.064	82370	keystroke_t	t	n/a
41.289	0.104	82578	keystroke_i	i	n/a
41.353	0.104	82706	keystroke_o	o	n/a
41.521	0.072	83042	keystroke_n	n	n/a
43.8245	0.12	87649	keystroke_Key.enter	Key.enter	n/a
43.9495	9.7255	87899	prompt	n/a	reproductive highlights finance pike\n
44.8485	0.12	89697	keystroke_r	r	n/a
44.9285	0.08	89857	keystroke_e	e	n/a
45.48	0.08	90960	keystroke_p	p	n/a
45.656	0.064	91312	keystroke_r	r	n/a
45.76	0.088	91520	keystroke_o	o	n/a
45.992	0.048	91984	keystroke_d	d	n/a
46.2	0.064	92400	keystroke_u	u	n/a
46.376	0.072	92752	keystroke_c	c	n/a
46.664	0.032	93328	keystroke_t	t	n/a
46.92	0.096	93840	keystroke_i	i	n/a
47.072	0.16	94144	keystroke_v	v	n/a
47.192	0.096	94384	keystroke_e	e	n/a
47.4	0.088	94800	keystroke_Key.space	Key.space	n/a
48.104	0.048	96208	keystroke_h	h	n/a
48.24	0.08	96480	keystroke_i	i	n/a
48.408	0.064	96816	keystroke_g	g	n/a
48.464	0.088	96928	keystroke_h	h	n/a
48.728	0.096	97456	keystroke_l	l	n/a
48.768	0.112	97536	keystroke_i	i	n/a
49	0.08	98000	keystroke_g	g	n/a
49.088	0.096	98176	keystroke_h	h	n/a
49.2	0.072	98400	keystroke_t	t	n/a
49.368	0.08	98736	keystroke_s	s	n/a
49.6	0.104	99200	keystroke_Key.space	Key.space	n/a
50.464	0.056	100928	keystroke_f	f	n/a
50.608	0.12	101216	keystroke_i	i	n/a
50.704	0.08	101408	keystroke_n	n	n/a
50.9365	0.104	101873	keystroke_a	a	n/a
51.0485	0.08	102097	keystroke_n	n	n/a
51.2005	0.16	102401	keystroke_c	c	n/a
51.3125	0.08	102625	keystroke_e	e	n/a
51.4165	0.088	102833	keystroke_Key.space	Key.space	n/a
52.5125	0.088	105025	keystroke_p	p	n/a
52.6645	0.08	105329	keystroke_i	i	n/a
52.8885	0.08	105777	keystroke_k	k	n/a
53.376	0.08	106752	keystroke_e	e	n/a
53.6	0.072	107200	keystroke_Key.enter	Key.enter	n/a
53.6795	9.2905	107359	prompt	n/a	modems integral easy mount\n
54.8005	0.096	109601	keystroke_m	m	n/a
54.8975	0.103	109795	keystroke_o	o	n/a
55.2805	0.072	110561	keystroke_d	d	n/a
55.4805	0.064	110961	keystroke_e	e	n/a
55.8005	0.088	111601	keystroke_m	m	n/a
55.9845	0.08	111969	keystroke_s	s	n/a
56.1765	0.088	112353	keystroke_Key.space	Key.space	n/a
56.7445	0.096	113489	keystroke_i	i	n/a
56.8085	0.0795	113617	keystroke_n	n	n/a
56.992	0.104	113984	keystroke_t	t	n/a
57.192	0.072	114384	keystroke_e	e	n/a
57.392	0.064	114784	keystroke_g	g	n/a
57.568	0.104	115136	keystroke_r	r	n/a
57.848	0.04	115696	keystroke_l	l	n/a
58.168	0.12	116336	keystroke_Key.backspace	Key.backspace	n/a
58.392	0.08	116784	keystroke_a	a	n/a
58.48	0.088	116960	keystroke_l	l	n/a
58.704	0.096	117408	keystroke_Key.space	Key.space	n/a
59.5685	0.072	119137	keystroke_e	e	n/a
59.8085	0.072	119617	keystroke_a	a	n/a
59.8485	0.072	119697	keystroke_s	s	n/a
60.1205	0.064	120241	keystroke_y	y	n/a
60.2245	0.064	120449	keystroke_Key.space	Key.space	n/a
60.8805	0.08	121761	keystroke_m	m	n/a
61.1285	0.112	122257	keystroke_o	o	n/a
61.1925	0.088	122385	keystroke_u	u	n/a
61.3925	0.088	122785	keystroke_n	n	n/a
61.5525	0.032	123105	keystroke_y	y	n/a
62.4165	0.072	124833	keystroke_Key.backspace	Key.backspace	n/a
62.6245	0.072	125249	keystroke_t	t	n/a
62.8805	0.088	125761	keystroke_Key.enter	Key.enter	n/a
62.9725	9.6695	125945	prompt	n/a	pride announcements continues boston\n
63.9525	0.056	127905	keystroke_p	p	n/a
64.0485	0.072	128097	keystroke_r	r	n/a
64.2005	0.08	128401	keystroke_i	i	n/a
64.6405	0.104	129281	keystroke_d	d	n/a
64.8405	0.104	129681	keystroke_e	e	n/a
64.9925	0.072	129985	keystroke_Key.space	Key.space	n/a
66.3605	0.088	132721	keystroke_a	a	n/a
66.7285	0.056	133457	keystroke_n	n	n/a
66.8565	0.0795	133713	keystroke_n	n	n/a
67.04	0.12	134080	keystroke_o	o	n/a
67.112	0.088	134224	keystroke_u	u	n/a
67.304	0.064	134608	keystroke_n	n	n/a
67.4	0.112	134800	keystroke_c	c	n/a
67.496	0.08	134992	keystroke_e	e	n/a
67.624	0.072	135248	keystroke_m	m	n/a
67.7445	0.088	135489	keystroke_e	e	n/a
67.8645	0.096	135729	keystroke_n	n	n/a
67.9765	0.064	135953	keystroke_t	t	n/a
68.104	0.088	136208	keystroke_s	s	n/a
68.24	0.072	136480	keystroke_Key.space	Key.space	n/a
68.824	0.072	137648	keystroke_c	c	n/a
68.992	0.112	137984	keystroke_o	o	n/a
69.136	0.096	138272	keystroke_n	n	n/a
69.36	0.056	138720	keystroke_t	t	n/a
69.44	0.12	138880	keystroke_i	i	n/a
69.528	0.104	139056	keystroke_n	n	n/a
69.704	0.112	139408	keystroke_u	u	n/a
69.904	0.072	139808	keystroke_e	e	n/a
70.08	0.072	140160	keystroke_s	s	n/a
70.184	0.088	140368	keystroke_Key.space	Key.space	n/a
71.3125	0.08	142625	keystroke_b	b	n/a
71.5275	0.096	143055	keystroke_o	o	n/a
71.6645	0.079	143329	keystroke_s	s	n/a
71.9605	0.08	143921	keystroke_t	t	n/a
72.0485	0.095	144097	keystroke_o	o	n/a
72.1195	0.065	144239	keystroke_n	n	n/a
72.5595	0.08	145119	keystroke_Key.enter	Key.enter	n/a
72.645	10.765	145290	prompt	n/a	stupid organisms macromedia helmet\n
73.7045	0.071	147409	keystroke_s	s	n/a
73.9205	0.071	147841	keystroke_t	t	n/a
74.0805	0.072	148161	keystroke_u	u	n/a
74.2725	0.112	148545	keystroke_p	p	n/a
74.5355	0.081	149071	keystroke_i	i	n/a
74.7195	0.08	149439	keystroke_d	d	n/a
74.8795	0.0645	149759	keystroke_Key.space	Key.space	n/a
75.608	0.072	151216	keystroke_o	o	n/a
75.736	0.064	151472	keystroke_r	r	n/a
75.944	0.048	151888	keystroke_g	g	n/a
76.104	0.08	152208	keystroke_a	a	n/a
76.216	0.064	152432	keystroke_n	n	n/a
76.408	0.04	152816	keystroke_s	s	n/a
76.448	0.112	152896	keystroke_i	i	n/a
77.896	0.08	155792	keystroke_Key.backspace	Key.backspace	n/a
78.064	0.064	156128	keystroke_Key.backspace	Key.backspace	n/a
78.44	0.072	156880	keystroke_i	i	n/a
78.552	0.056	157104	keystroke_s	s	n/a
78.704	0.08	157408	keystroke_m	m	n/a
78.92	0.064	157840	keystroke_s	s	n/a
79.032	0.088	158064	keystroke_Key.space	Key.space	n/a
79.672	0.096	159344	keystroke_m	m	n/a
80.056	0.096	160112	keystroke_a	a	n/a
80.32	0.064	160640	keystroke_c	c	n/a
80.512	0.0395	161024	keystroke_r	r	n/a
80.6235	0.088	161247	keystroke_o	o	n/a
80.8155	0.081	161631	keystroke_m	m	n/a
80.9275	0.057	161855	keystroke_e	e	n/a
81.0885	0.08	162177	keystroke_d	d	n/a
81.1845	0.104	162369	keystroke_i	i	n/a
81.3365	0.08	162673	keystroke_a	a	n/a
81.4805	0.072	162961	keystroke_Key.space	Key.space	n/a
81.952	0.064	163904	keystroke_h	h	n/a
82.104	0.056	164208	keystroke_e	e	n/a
82.232	0.08	164464	keystroke_l	l	n/a
82.44	0.072	164880	keystroke_m	m	n/a
82.592	0.032	165184	keystroke_e	e	n/a
82.808	0.072	165616	keystroke_t	t	n/a
83.312	0.096	166624	keystroke_Key.enter	Key.enter	n/a
83.4135	9.6515	166827	prompt	n/a	immigration canon laos reconstruction\n
84.152	0.08	168304	keystroke_i	i	n/a
84.368	0.048	168736	keystroke_m	m	n/a
84.4875	0.072	168975	keystroke_m	m	n/a
84.6475	0.104	169295	keystroke_i	i	n/a
84.888	0.0555	169776	keystroke_g	g	n/a
85.0715	0.072	170143	keystroke_r	r	n/a
85.5435	0.112	171087	keystroke_a	a	n/a
85.6635	0.064	171327	keystroke_t	t	n/a
85.7835	0.12	171567	keystroke_i	i	n/a
85.8555	0.096	171711	keystroke_o	o	n/a
86.0075	0.096	172015	keystroke_n	n	n/a
86.2075	0.08	172415	keystroke_Key.space	Key.space	n/a
86.8155	0.1195	173631	keystroke_c	c	n/a
86.927	0.104	173854	keystroke_a	a	n/a
87.119	0.104	174238	keystroke_n	n	n/a
87.255	0.128	174510	keystroke_o	o	n/a
87.359	0.105	174718	keystroke_n	n	n/a
87.608	0.072	175216	keystroke_Key.space	Key.space	n/a
88.376	0.08	176752	keystroke_l	l	n/a
88.504	0.0795	177008	keystroke_a	a	n/a
88.9675	0.096	177935	keystroke_o	o	n/a
89.1035	0.08	178207	keystroke_s	s	n/a
89.2475	0.064	178495	keystroke_Key.space	Key.space	n/a
90.3595	0.112	180719	keystroke_r	r	n/a
90.4315	0.08	180863	keystroke_e	e	n/a
90.6155	0.072	181231	keystroke_c	c	n/a
90.7115	0.096	181423	keystroke_o	o	n/a
90.912	0.088	181824	keystroke_n	n	n/a
91.064	0.064	182128	keystroke_s	s	n/a
91.2635	0.04	182527	keystroke_t	t	n/a
91.4075	0.064	182815	keystroke_r	r	n/a
91.5515	0.072	183103	keystroke_u	u	n/a
91.6795	0.048	183359	keystroke_c	c	n/a
91.8475	0.072	183695	keystroke_t	t	n/a
91.9355	0.104	183871	keystroke_i	i	n/a
91.9915	0.112	183983	keystroke_o	o	n/a
92.1595	0.08	184319	keystroke_n	n	n/a
92.975	0.088	185950	keystroke_Key.enter	Key.enter	n/a
93.07	9.723	186140	prompt	n/a	multiple whats eagle records\n
93.992	0.064	187984	keystroke_m	m	n/a
94.3355	0.088	188671	keystroke_u	u	n/a
94.5675	0.08	189135	keystroke_l	l	n/a
94.7115	0.056	189423	keystroke_t	t	n/a
94.8235	0.104	189647	keystroke_i	i	n/a
95.079	0.12	190158	keystroke_p	p	n/a
95.151	0.105	190302	keystroke_l	l	n/a
95.943	0.08	191886	keystroke_e	e	n/a
96.055	0.088	192110	keystroke_Key.space	Key.space	n/a
96.607	0.088	193214	keystroke_w	w	n/a
96.775	0.08	193550	keystroke_h	h	n/a
96.943	0.12	193886	keystroke_a	a	n/a
97.031	0.04	194062	keystroke_t	t	n/a
97.559	0.088	195118	keystroke_s	s	n/a
97.671	0.096	195342	keystroke_Key.space	Key.space	n/a
98.383	0.072	196766	keystroke_e	e	n/a
98.599	0.136	197198	keystroke_a	a	n/a
98.992	0.0635	197984	keystroke_g	g	n/a
99.104	0.1035	198208	keystroke_l	l	n/a
99.3355	0.072	198671	keystroke_e	e	n/a
99.4475	0.056	198895	keystroke_Key.space	Key.space	n/a
100.151	0.12	200302	keystroke_r	r	n/a
100.223	0.096	200446	keystroke_e	e	n/a
100.4395	0.072	200879	keystroke_c	c	n/a
100.5275	0.1035	201055	keystroke_o	o	n/a
100.695	0.072	201390	keystroke_r	r	n/a
100.952	0.136	201904	keystroke_d	d	n/a
101.024	0.112	202048	keystroke_s	s	n/a
102.7035	0.088	205407	keystroke_Key.enter	Key.enter	n/a
102.796	7.741	205592	prompt	n/a	tells contained guest attacks\n
104.391	0.064	208782	keystroke_t	t	n/a
104.559	0.088	209118	keystroke_e	e	n/a
104.743	0.064	209486	keystroke_l	l	n/a
104.887	0.0885	209774	keystroke_l	l	n/a
105.0075	0.088	210015	keystroke_s	s	n/a
105.1195	0.072	210239	keystroke_Key.space	Key.space	n/a
105.9595	0.072	211919	keystroke_c	c	n/a
106.1835	0.12	212367	keystroke_o	o	n/a
106.2795	0.088	212559	keystroke_n	n	n/a
106.4075	0.056	212815	keystroke_t	t	n/a
106.5595	0.088	213119	keystroke_a	a	n/a
106.6235	0.12	213247	keystroke_i	i	n/a
106.7035	0.104	213407	keystroke_n	n	n/a
106.8475	0.0715	213695	keystroke_e	e	n/a
106.999	0.104	213998	keystroke_d	d	n/a
107.111	0.072	214222	keystroke_Key.space	Key.space	n/a
107.871	0.048	215742	keystroke_g	g	n/a
107.983	0.08	215966	keystroke_u	u	n/a
108.1755	0.088	216351	keystroke_e	e	n/a
108.3835	0.064	216767	keystroke_s	s	n/a
108.5755	0.056	217151	keystroke_t	t	n/a
108.6795	0.08	217359	keystroke_Key.space	Key.space	n/a
108.9355	0.104	217871	keystroke_a	a	n/a
109.2795	0.064	218559	keystroke_t	t	n/a
109.4075	0.064	218815	keystroke_t	t	n/a
109.5835	0.12	219167	keystroke_a	a	n/a
109.6715	0.064	219343	keystroke_c	c	n/a
109.8235	0.104	219647	keystroke_k	k	n/a
110.0155	0.088	220031	keystroke_s	s	n/a
110.439	0.096	220878	keystroke_Key.enter	Key.enter	n/a
110.54	9.909	221080	prompt	n/a	salaries maldives inspections owners\n
111.511	0.088	223022	keystroke_s	s	n/a
111.688	0.087	223376	keystroke_a	a	n/a
111.855	0.08	223710	keystroke_l	l	n/a
111.999	0.088	223998	keystroke_a	a	n/a
112.191	0.056	224382	keystroke_r	r	n/a
112.335	0.104	224670	keystroke_i	i	n/a
112.447	0.072	224894	keystroke_e	e	n/a
112.631	0.08	225262	keystroke_s	s	n/a
112.735	0.064	225470	keystroke_Key.space	Key.space	n/a
113.511	0.056	227022	keystroke_m	m	n/a
113.631	0.104	227262	keystroke_a	a	n/a
114.183	0.096	228366	keystroke_l	l	n/a
114.415	0.0645	228830	keystroke_d	d	n/a
114.5755	0.104	229151	keystroke_i	i	n/a
114.7515	0.064	229503	keystroke_v	v	n/a
115.168	0.095	230336	keystroke_e	e	n/a
115.392	0.08	230784	keystroke_s	s	n/a
115.511	0.088	231022	keystroke_Key.space	Key.space	n/a
115.7995	0.144	231599	keystroke_i	i	n/a
115.8875	0.096	231775	keystroke_n	n	n/a
116.2395	0.08	232479	keystroke_s	s	n/a
116.3275	0.088	232655	keystroke_p	p	n/a
116.4715	0.16	232943	keystroke_e	e	n/a
116.5835	0.072	233167	keystroke_c	c	n/a
116.8315	0.056	233663	keystroke_t	t	n/a
116.9755	0.12	233951	keystroke_i	i	n/a
117.0475	0.088	234095	keystroke_o	o	n/a
117.199	0.112	234398	keystroke_n	n	n/a
117.343	0.096	234686	keystroke_s	s	n/a
117.9435	0.072	235887	keystroke_Key.space	Key.space	n/a
118.7595	0.064	237519	keystroke_o	o	n/a
119.3995	0.056	238799	keystroke_w	w	n/a
119.7355	0.072	239471	keystroke_n	n	n/a
119.8395	0.1195	239679	keystroke_e	e	n/a
119.935	0.073	239870	keystroke_r	r	n/a
120.112	0.096	240224	keystroke_s	s	n/a
120.359	0.088	240718	keystroke_Key.enter	Key.enter	n/a
120.4515	7.2155	240903	prompt	n/a	begun shelter fires ecological\n
121.272	0.071	242544	keystroke_b	b	n/a
121.383	0.072	242766	keystroke_e	e	n/a
121.663	0.048	243326	keystroke_g	g	n/a
121.7755	0.088	243551	keystroke_u	u	n/a
122.0395	0.072	244079	keystroke_n	n	n/a
122.2315	0.08	244463	keystroke_Key.space	Key.space	n/a
122.7035	0.08	245407	keystroke_s	s	n/a
122.8555	0.072	245711	keystroke_h	h	n/a
123.0395	0.064	246079	keystroke_e	e	n/a
123.1515	0.088	246303	keystroke_l	l	n/a
123.3435	0.048	246687	keystroke_t	t	n/a
123.4635	0.12	246927	keystroke_e	e	n/a
123.5675	0.064	247135	keystroke_r	r	n/a
123.7195	0.088	247439	keystroke_Key.space	Key.space	n/a
124.5515	0.048	249103	keystroke_f	f	n/a
124.6555	0.088	249311	keystroke_i	i	n/a
124.8075	0.128	249615	keystroke_r	r	n/a
124.8875	0.088	249775	keystroke_e	e	n/a
125.0795	0.072	250159	keystroke_s	s	n/a
125.1995	0.072	250399	keystroke_Key.space	Key.space	n/a
125.6635	0.072	251327	keystroke_e	e	n/a
125.9035	0.056	251807	keystroke_c	c	n/a
125.9835	0.088	251967	keystroke_o	o	n/a
126.2315	0.072	252463	keystroke_l	l	n/a
126.4155	0.088	252831	keystroke_o	o	n/a
126.7355	0.056	253471	keystroke_g	g	n/a
126.8395	0.095	253679	keystroke_i	i	n/a
127.0315	0.0795	254063	keystroke_c	c	n/a
127.103	0.104	254206	keystroke_a	a	n/a
127.223	0.104	254446	keystroke_l	l	n/a
127.551	0.112	255102	keystroke_Key.enter	Key.enter	n/a
127.671	8.2575	255342	prompt	n/a	document regulated exceptional attach\n
128.591	0.088	257182	keystroke_d	d	n/a
128.807	0.0875	257614	keystroke_o	o	n/a
128.9505	0.088	257901	keystroke_c	c	n/a
129.0945	0.064	258189	keystroke_u	u	n/a
129.3025	0.056	258605	keystroke_m	m	n/a
129.4145	0.089	258829	keystroke_e	e	n/a
129.5435	0.072	259087	keystroke_n	n	n/a
129.679	0.056	259358	keystroke_t	t	n/a
129.7755	0.0715	259551	keystroke_Key.space	Key.space	n/a
130.463	0.128	260926	keystroke_r	r	n/a
130.551	0.0885	261102	keystroke_e	e	n/a
130.719	0.0805	261438	keystroke_g	g	n/a
130.8635	0.072	261727	keystroke_u	u	n/a
131.0555	0.08	262111	keystroke_l	l	n/a
131.1755	0.088	262351	keystroke_a	a	n/a
131.3675	0.104	262735	keystroke_t	t	n/a
131.4155	0.088	262831	keystroke_e	e	n/a
131.5915	0.1035	263183	keystroke_d	d	n/a
131.711	0.064	263422	keystroke_Key.space	Key.space	n/a
132.055	0.072	264110	keystroke_e	e	n/a
132.3995	0.096	264799	keystroke_x	x	n/a
132.615	0.064	265230	keystroke_c	c	n/a
132.791	0.0885	265582	keystroke_e	e	n/a
132.8875	0.112	265775	keystroke_p	p	n/a
133.0955	0.064	266191	keystroke_t	t	n/a
133.1675	0.112	266335	keystroke_i	i	n/a
133.2475	0.088	266495	keystroke_o	o	n/a
133.3995	0.072	266799	keystroke_n	n	n/a
133.4875	0.096	266975	keystroke_a	a	n/a
133.6155	0.096	267231	keystroke_l	l	n/a
133.8235	0.064	267647	keystroke_Key.space	Key.space	n/a
134.6155	0.104	269231	keystroke_a	a	n/a
134.9505	0.057	269901	keystroke_t	t	n/a
135.1835	0.152	270367	keystroke_a	a	n/a
135.3115	0.072	270623	keystroke_c	c	n/a
135.4235	0.072	270847	keystroke_h	h	n/a
135.8395	0.087	271679	keystroke_Key.enter	Key.enter	n/a
135.9315	9.413	271863	prompt	n/a	xhtml scientist maintain leader\n
137.5825	0.0805	275165	keystroke_x	x	n/a
138.7195	0.056	277439	keystroke_h	h	n/a
138.8555	0.056	277711	keystroke_t	t	n/a
139.055	0.072	278110	keystroke_m	m	n/a
139.3275	0.112	278655	keystroke_l	l	n/a
139.7835	0.08	279567	keystroke_Key.space	Key.space	n/a
140.4555	0.064	280911	keystroke_s	s	n/a
140.6235	0.072	281247	keystroke_c	c	n/a
140.7355	0.088	281471	keystroke_i	i	n/a
140.8945	0.08	281789	keystroke_e	e	n/a
141.023	0.0635	282046	keystroke_n	n	n/a
141.1505	0.096	282301	keystroke_t	t	n/a
141.3105	0.1205	282621	keystroke_i	i	n/a
141.479	0.072	282958	keystroke_s	s	n/a
141.703	0.0645	283406	keystroke_t	t	n/a
141.9035	0.072	283807	keystroke_Key.space	Key.space	n/a
142.5595	0.064	285119	keystroke_m	m	n/a
142.6715	0.064	285343	keystroke_a	a	n/a
142.8075	0.136	285615	keystroke_i	i	n/a
142.9195	0.072	285839	keystroke_n	n	n/a
143.127	0.072	286254	keystroke_t	t	n/a
143.319	0.0885	286638	keystroke_a	a	n/a
143.4395	0.112	286879	keystroke_i	i	n/a
143.5035	0.088	287007	keystroke_n	n	n/a
143.6945	0.089	287389	keystroke_Key.space	Key.space	n/a
144.0795	0.0715	288159	keystroke_l	l	n/a
144.223	0.072	288446	keystroke_e	e	n/a
144.407	0.088	288814	keystroke_a	a	n/a
144.599	0.072	289198	keystroke_d	d	n/a
144.799	0.128	289598	keystroke_e	e	n/a
144.895	0.104	289790	keystroke_r	r	n/a
145.231	0.112	290462	keystroke_Key.enter	Key.enter	n/a
145.347	6.6295	290694	prompt	n/a	maternity logs delivery gift\n
146.2785	0.072	292557	keystroke_m	m	n/a
146.3665	0.08	292733	keystroke_a	a	n/a
146.5185	0.064	293037	keystroke_t	t	n/a
146.6785	0.105	293357	keystroke_e	e	n/a
146.8385	0.0565	293677	keystroke_r	r	n/a
147.055	0.064	294110	keystroke_n	n	n/a
147.1985	0.104	294397	keystroke_i	i	n/a
147.3345	0.064	294669	keystroke_t	t	n/a
147.4945	0.088	294989	keystroke_y	y	n/a
147.6225	0.064	295245	keystroke_Key.space	Key.space	n/a
147.9035	0.088	295807	keystroke_l	l	n/a
148.0955	0.08	296191	keystroke_o	o	n/a
148.319	0.0485	296638	keystroke_g	g	n/a
148.5355	0.072	297071	keystroke_s	s	n/a
148.6875	0.056	297375	keystroke_Key.space	Key.space	n/a
149.3195	0.064	298639	keystroke_d	d	n/a
149.4955	0.048	298991	keystroke_e	e	n/a
149.6155	0.12	299231	keystroke_l	l	n/a
149.6795	0.096	299359	keystroke_i	i	n/a
149.8155	0.056	299631	keystroke_v	v	n/a
149.943	0.128	299886	keystroke_e	e	n/a
150.039	0.072	300078	keystroke_r	r	n/a
150.223	0.08	300446	keystroke_y	y	n/a
150.351	0.072	300702	keystroke_Key.space	Key.space	n/a
151.159	0.056	302318	keystroke_g	g	n/a
151.255	0.08	302510	keystroke_i	i	n/a
151.3835	0.056	302767	keystroke_f	f	n/a
151.5585	0.089	303117	keystroke_t	t	n/a
151.8785	0.097	303757	keystroke_Key.enter	Key.enter	n/a
151.9795	8.685	303959	prompt	n/a	coastal lies american creativity\n
152.767	0.072	305534	keystroke_c	c	n/a
152.9025	0.08	305805	keystroke_o	o	n/a
153.0385	0.072	306077	keystroke_a	a	n/a
153.3345	0.064	306669	keystroke_s	s	n/a
153.5185	0.064	307037	keystroke_t	t	n/a
153.6945	0.12	307389	keystroke_a	a	n/a
153.8225	0.08	307645	keystroke_l	l	n/a
154.031	0.064	308062	keystroke_Key.space	Key.space	n/a
154.319	0.128	308638	keystroke_l	l	n/a
154.399	0.096	308798	keystroke_i	i	n/a
154.615	0.064	309230	keystroke_e	e	n/a
154.783	0.072	309566	keystroke_s	s	n/a
154.8865	0.072	309773	keystroke_Key.space	Key.space	n/a
155.3265	0.088	310653	keystroke_a	a	n/a
155.5265	0.072	311053	keystroke_m	m	n/a
155.6545	0.08	311309	keystroke_e	e	n/a
156.2305	0.064	312461	keystroke_r	r	n/a
156.4145	0.0645	312829	keystroke_i	i	n/a
156.6465	0.064	313293	keystroke_c	c	n/a
156.8305	0.088	313661	keystroke_a	a	n/a
156.9585	0.072	313917	keystroke_n	n	n/a
157.3665	0.072	314733	keystroke_Key.space	Key.space	n/a
157.903	0.056	315806	keystroke_c	c	n/a
158.6465	0.16	317293	keystroke_r	r	n/a
158.7425	0.112	317485	keystroke_e	e	n/a
158.9275	0.1025	317855	keystroke_a	a	n/a
159.055	0.112	318110	keystroke_t	t	n/a
159.679	0.08	319358	keystroke_i	i	n/a
159.815	0.072	319630	keystroke_v	v	n/a
159.895	0.128	319790	keystroke_i	i	n/a
160.031	0.088	320062	keystroke_t	t	n/a
160.231	0.096	320462	keystroke_y	y	n/a
160.567	0.096	321134	keystroke_Key.enter	Key.enter	n/a
160.6675	7.7245	321335	prompt	n/a	list hartford heavy encouraged\n
161.4145	0.136	322829	keystroke_l	l	n/a
161.4945	0.112	322989	keystroke_i	i	n/a
161.6385	0.12	323277	keystroke_s	s	n/a
161.8545	0.104	323709	keystroke_t	t	n/a
161.9985	0.096	323997	keystroke_Key.space	Key.space	n/a
162.791	0.064	325582	keystroke_h	h	n/a
162.887	0.12	325774	keystroke_a	a	n/a
162.991	0.064	325982	keystroke_r	r	n/a
163.215	0.08	326430	keystroke_t	t	n/a
163.415	0.08	326830	keystroke_f	f	n/a
163.503	0.112	327006	keystroke_o	o	n/a
163.807	0.08	327614	keystroke_r	r	n/a
164.015	0.064	328030	keystroke_d	d	n/a
164.143	0.08	328286	keystroke_Key.space	Key.space	n/a
164.607	0.064	329214	keystroke_h	h	n/a
164.663	0.08	329326	keystroke_e	e	n/a
164.855	0.1515	329710	keystroke_a	a	n/a
165.1985	0.064	330397	keystroke_v	v	n/a
165.4545	0.08	330909	keystroke_y	y	n/a
165.9585	0.088	331917	keystroke_Key.space	Key.space	n/a
166.559	0.088	333118	keystroke_e	e	n/a
166.83	0.0725	333660	keystroke_n	n	n/a
167.0305	0.064	334061	keystroke_c	c	n/a
167.1345	0.104	334269	keystroke_o	o	n/a
167.1905	0.104	334381	keystroke_u	u	n/a
167.3425	0.056	334685	keystroke_r	r	n/a
167.5185	0.072	335037	keystroke_a	a	n/a
167.7185	0.104	335437	keystroke_g	g	n/a
167.8065	0.072	335613	keystroke_e	e	n/a
167.9825	0.08	335965	keystroke_d	d	n/a
168.3025	0.088	336605	keystroke_Key.enter	Key.enter	n/a
168.3955	8.581	336791	prompt	n/a	grocery nicaragua lion biological\n
169.3025	0.048	338605	keystroke_g	g	n/a
169.4865	0.032	338973	keystroke_r	r	n/a
169.5905	0.072	339181	keystroke_o	o	n/a
169.7985	0.048	339597	keystroke_c	c	n/a
169.9345	0.112	339869	keystroke_e	e	n/a
170.0225	0.064	340045	keystroke_r	r	n/a
170.2065	0.072	340413	keystroke_y	y	n/a
170.3185	0.0965	340637	keystroke_Key.space	Key.space	n/a
171.135	0.064	342270	keystroke_n	n	n/a
171.311	0.088	342622	keystroke_i	i	n/a
171.479	0.072	342958	keystroke_c	c	n/a
171.655	0.088	343310	keystroke_a	a	n/a
171.863	0.056	343726	keystroke_r	r	n/a
172.039	0.08	344078	keystroke_a	a	n/a
172.271	0.064	344542	keystroke_g	g	n/a
172.407	0.088	344814	keystroke_u	u	n/a
172.551	0.088	345102	keystroke_a	a	n/a
172.679	0.088	345358	keystroke_Key.space	Key.space	n/a
173.335	0.12	346670	keystroke_l	l	n/a
173.431	0.112	346862	keystroke_i	i	n/a
173.655	0.096	347310	keystroke_o	o	n/a
173.871	0.08	347742	keystroke_n	n	n/a
174.071	0.072	348142	keystroke_Key.space	Key.space	n/a
175.0385	0.064	350077	keystroke_b	b	n/a
175.2385	0.08	350477	keystroke_i	i	n/a
175.4545	0.072	350909	keystroke_o	o	n/a
175.6625	0.088	351325	keystroke_l	l	n/a
175.8625	0.064	351725	keystroke_o	o	n/a
175.9825	0.056	351965	keystroke_g	g	n/a
176.0865	0.088	352173	keystroke_i	i	n/a
176.2305	0.0955	352461	keystroke_c	c	n/a
176.318	0.088	352636	keystroke_a	a	n/a
176.462	0.096	352924	keystroke_l	l	n/a
176.862	0.113	353724	keystroke_Key.enter	Key.enter	n/a
176.9795	9.5325	353959	prompt	n/a	confirm lessons malta lounge\n
177.695	0.095	355390	keystroke_c	c	n/a
177.839	0.136	355678	keystroke_o	o	n/a
177.935	0.096	355870	keystroke_n	n	n/a
178.079	0.08	356158	keystroke_f	f	n/a
178.199	0.064	356398	keystroke_i	i	n/a
178.206	0.057	356412	keystroke_o	o	n/a
178.35	0.08	356700	keystroke_r	r	n/a
179.4785	0.064	358957	keystroke_Key.backspace	Key.backspace	n/a
179.638	0.064	359276	keystroke_Key.backspace	Key.backspace	n/a
179.9185	0.072	359837	keystroke_r	r	n/a
180.0065	0.072	360013	keystroke_m	m	n/a
180.2065	0.072	360413	keystroke_Key.space	Key.space	n/a
181.1905	0.072	362381	keystroke_l	l	n/a
181.2945	0.08	362589	keystroke_e	e	n/a
181.4945	0.04	362989	keystroke_s	s	n/a
181.6145	0.08	363229	keystroke_s	s	n/a
181.8465	0.12	363693	keystroke_o	o	n/a
181.9505	0.08	363901	keystroke_n	n	n/a
182.0625	0.064	364125	keystroke_s	s	n/a
182.1825	0.08	364365	keystroke_Key.space	Key.space	n/a
183.3105	0.064	366621	keystroke_m	m	n/a
183.5185	0.12	367037	keystroke_a	a	n/a
183.6545	0.112	367309	keystroke_l	l	n/a
183.8705	0.056	367741	keystroke_t	t	n/a
184.0705	0.072	368141	keystroke_a	a	n/a
184.1985	0.072	368397	keystroke_Key.space	Key.space	n/a
185.1745	0.08	370349	keystroke_l	l	n/a
185.3905	0.136	370781	keystroke_o	o	n/a
185.4945	0.08	370989	keystroke_u	u	n/a
185.7105	0.072	371421	keystroke_n	n	n/a
185.9745	0.064	371949	keystroke_g	g	n/a
186.1345	0.096	372269	keystroke_e	e	n/a
186.4305	0.08	372861	keystroke_Key.enter	Key.enter	n/a
186.5165	7.1075	373033	prompt	n/a	dental gordon similar gear\n
187.3825	0.064	374765	keystroke_d	d	n/a
187.5505	0.072	375101	keystroke_e	e	n/a
187.6465	0.08	375293	keystroke_n	n	n/a
187.7665	0.048	375533	keystroke_t	t	n/a
187.9105	0.096	375821	keystroke_a	a	n/a
188.0225	0.0875	376045	keystroke_l	l	n/a
188.254	0.08	376508	keystroke_Key.space	Key.space	n/a
189.0625	0.056	378125	keystroke_g	g	n/a
189.1985	0.08	378397	keystroke_o	o	n/a
189.3425	0.048	378685	keystroke_r	r	n/a
189.7265	0.064	379453	keystroke_d	d	n/a
189.8305	0.088	379661	keystroke_o	o	n/a
190.0545	0.064	380109	keystroke_n	n	n/a
190.2625	0.064	380525	keystroke_Key.space	Key.space	n/a
190.6625	0.072	381325	keystroke_s	s	n/a
190.7905	0.08	381581	keystroke_i	i	n/a
191.0065	0.072	382013	keystroke_m	m	n/a
191.198	0.073	382396	keystroke_i	i	n/a
191.383	0.064	382766	keystroke_l	l	n/a
191.494	0.12	382988	keystroke_a	a	n/a
191.582	0.08	383164	keystroke_r	r	n/a
191.734	0.072	383468	keystroke_Key.space	Key.space	n/a
192.8065	0.064	385613	keystroke_g	g	n/a
192.9665	0.088	385933	keystroke_e	e	n/a
193.1665	0.1365	386333	keystroke_a	a	n/a
193.287	0.08	386574	keystroke_r	r	n/a
193.526	0.096	387052	keystroke_Key.enter	Key.enter	n/a
193.627	14.1325	387254	prompt	n/a	happening advertisement confidence symphony\n
194.5425	0.072	389085	keystroke_h	h	n/a
194.6465	0.072	389293	keystroke_a	a	n/a
194.8065	0.04	389613	keystroke_p	p	n/a
194.9505	0.064	389901	keystroke_p	p	n/a
195.8785	0.072	391757	keystroke_e	e	n/a
195.9825	0.056	391965	keystroke_n	n	n/a
196.1185	0.12	392237	keystroke_i	i	n/a
196.1985	0.08	392397	keystroke_n	n	n/a
196.2945	0.064	392589	keystroke_g	g	n/a
196.4065	0.08	392813	keystroke_Key.space	Key.space	n/a
196.91	0.096	393820	keystroke_a	a	n/a
197.134	0.072	394268	keystroke_d	d	n/a
197.542	0.072	395084	keystroke_v	v	n/a
197.718	0.096	395436	keystroke_e	e	n/a
197.7975	0.0565	395595	keystroke_r	r	n/a
197.9575	0.048	395915	keystroke_t	t	n/a
198.1345	0.095	396269	keystroke_i	i	n/a
198.2855	0.048	396571	keystroke_s	s	n/a
198.438	0.0805	396876	keystroke_e	e	n/a
198.5825	0.08	397165	keystroke_m	m	n/a
198.7265	0.064	397453	keystroke_e	e	n/a
198.8465	0.08	397693	keystroke_n	n	n/a
198.9505	0.08	397901	keystroke_t	t	n/a
199.0545	0.072	398109	keystroke_Key.space	Key.space	n/a
199.4945	0.064	398989	keystroke_c	c	n/a
199.598	0.08	399196	keystroke_o	o	n/a
199.766	0.072	399532	keystroke_n	n	n/a
199.99	0.072	399980	keystroke_f	f	n/a
200.078	0.096	400156	keystroke_i	i	n/a
200.542	0.0795	401084	keystroke_e	e	n/a
200.75	0.088	401500	keystroke_n	n	n/a
200.8865	0.128	401773	keystroke_c	c	n/a
200.9505	0.096	401901	keystroke_e	e	n/a
201.1185	0.088	402237	keystroke_Key.space	Key.space	n/a
201.758	0.12	403516	keystroke_Key.backspace	Key.backspace	n/a
202.182	0.064	404364	keystroke_Key.backspace	Key.backspace	n/a
202.3345	0.064	404669	keystroke_Key.backspace	Key.backspace	n/a
202.5025	0.072	405005	keystroke_Key.backspace	Key.backspace	n/a
202.6705	0.064	405341	keystroke_Key.backspace	Key.backspace	n/a
203.3425	0.056	406685	keystroke_d	d	n/a
203.5185	0.056	407037	keystroke_e	e	n/a
203.662	0.08	407324	keystroke_n	n	n/a
203.774	0.12	407548	keystroke_c	c	n/a
203.862	0.08	407724	keystroke_e	e	n/a
203.982	0.096	407964	keystroke_Key.space	Key.space	n/a
204.758	0.08	409516	keystroke_s	s	n/a
205.11	0.064	410220	keystroke_y	y	n/a
205.374	0.064	410748	keystroke_m	m	n/a
205.67	0.08	411340	keystroke_p	p	n/a
205.966	0.064	411932	keystroke_h	h	n/a
206.67	0.096	413340	keystroke_o	o	n/a
206.926	0.08	413852	keystroke_n	n	n/a
207.134	0.072	414268	keystroke_y	y	n/a
207.67	0.088	415340	keystroke_Key.enter	Key.enter	n/a
207.763	9.9165	415526	prompt	n/a	removing wanna influenced grill\n
208.8695	0.104	417739	keystroke_r	r	n/a
208.9255	0.088	417851	keystroke_e	e	n/a
209.0615	0.072	418123	keystroke_m	m	n/a
209.2535	0.088	418507	keystroke_o	o	n/a
209.5495	0.104	419099	keystroke_v	v	n/a
209.7175	0.144	419435	keystroke_i	i	n/a
209.8055	0.0885	419611	keystroke_n	n	n/a
209.918	0.072	419836	keystroke_g	g	n/a
210.014	0.0875	420028	keystroke_Key.space	Key.space	n/a
210.5255	0.072	421051	keystroke_w	w	n/a
210.7095	0.096	421419	keystroke_a	a	n/a
210.926	0.056	421852	keystroke_n	n	n/a
211.0465	0.088	422093	keystroke_n	n	n/a
211.1825	0.0715	422365	keystroke_a	a	n/a
211.278	0.096	422556	keystroke_Key.space	Key.space	n/a
211.918	0.128	423836	keystroke_i	i	n/a
212.022	0.08	424044	keystroke_n	n	n/a
212.278	0.072	424556	keystroke_f	f	n/a
212.462	0.12	424924	keystroke_l	l	n/a
212.558	0.0885	425116	keystroke_u	u	n/a
212.7745	0.08	425549	keystroke_e	e	n/a
212.894	0.072	425788	keystroke_n	n	n/a
213.014	0.128	426028	keystroke_c	c	n/a
213.11	0.072	426220	keystroke_e	e	n/a
213.294	0.08	426588	keystroke_d	d	n/a
213.39	0.08	426780	keystroke_Key.space	Key.space	n/a
214.198	0.056	428396	keystroke_d	d	n/a
214.742	0.064	429484	keystroke_=	=	n/a
215.5815	0.056	431163	keystroke_Key.backspace	Key.backspace	n/a
215.7175	0.088	431435	keystroke_Key.backspace	Key.backspace	n/a
215.8295	0.0965	431659	keystroke_g	g	n/a
216.518	0.048	433036	keystroke_r	r	n/a
216.806	0.072	433612	keystroke_i	i	n/a
217.11	0.072	434220	keystroke_l	l	n/a
217.246	0.08	434492	keystroke_l	l	n/a
217.582	0.096	435164	keystroke_Key.enter	Key.enter	n/a
217.6825	8.477	435365	prompt	n/a	caroline pools tutorials prev\n
218.5335	0.0885	437067	keystroke_c	c	n/a
218.678	0.056	437356	keystroke_a	a	n/a
218.798	0.088	437596	keystroke_r	r	n/a
218.998	0.088	437996	keystroke_o	o	n/a
219.262	0.1435	438524	keystroke_l	l	n/a
219.35	0.1035	438700	keystroke_i	i	n/a
219.5895	0.072	439179	keystroke_n	n	n/a
219.7095	0.088	439419	keystroke_e	e	n/a
219.8135	0.08	439627	keystroke_Key.space	Key.space	n/a
220.4615	0.072	440923	keystroke_p	p	n/a
220.6375	0.072	441275	keystroke_o	o	n/a
220.7815	0.08	441563	keystroke_o	o	n/a
221.0215	0.112	442043	keystroke_l	l	n/a
221.2215	0.088	442443	keystroke_s	s	n/a
221.5495	0.096	443099	keystroke_Key.space	Key.space	n/a
222.2945	0.072	444589	keystroke_t	t	n/a
222.4455	0.073	444891	keystroke_u	u	n/a
222.5585	0.079	445117	keystroke_t	t	n/a
222.718	0.072	445436	keystroke_o	o	n/a
222.918	0.064	445836	keystroke_r	r	n/a
223.43	0.08	446860	keystroke_i	i	n/a
223.582	0.08	447164	keystroke_a	a	n/a
223.718	0.08	447436	keystroke_l	l	n/a
223.894	0.072	447788	keystroke_s	s	n/a
224.366	0.064	448732	keystroke_Key.space	Key.space	n/a
224.8855	0.08	449771	keystroke_p	p	n/a
225.0935	0.16	450187	keystroke_r	r	n/a
225.2055	0.112	450411	keystroke_e	e	n/a
225.6855	0.088	451371	keystroke_v	v	n/a
226.0615	0.096	452123	keystroke_Key.enter	Key.enter	n/a
226.163	6.98	452326	prompt	n/a	legally bobby currency piece\n
227.062	0.072	454124	keystroke_l	l	n/a
227.19	0.08	454380	keystroke_e	e	n/a
227.43	0.08	454860	keystroke_g	g	n/a
227.59	0.088	455180	keystroke_a	a	n/a
227.702	0.056	455404	keystroke_l	l	n/a
227.838	0.096	455676	keystroke_l	l	n/a
227.966	0.088	455932	keystroke_y	y	n/a
228.142	0.056	456284	keystroke_Key.space	Key.space	n/a
228.702	0.064	457404	keystroke_b	b	n/a
228.902	0.112	457804	keystroke_o	o	n/a
229.294	0.08	458588	keystroke_b	b	n/a
229.446	0.096	458892	keystroke_b	b	n/a
229.622	0.096	459244	keystroke_y	y	n/a
229.87	0.072	459740	keystroke_Key.space	Key.space	n/a
230.142	0.096	460284	keystroke_c	c	n/a
230.4375	0.104	460875	keystroke_u	u	n/a
230.5735	0.056	461147	keystroke_r	r	n/a
230.6935	0.08	461387	keystroke_r	r	n/a
230.8695	0.056	461739	keystroke_e	e	n/a
230.9415	0.08	461883	keystroke_n	n	n/a
231.1015	0.08	462203	keystroke_c	c	n/a
231.3415	0.072	462683	keystroke_y	y	n/a
231.4455	0.088	462891	keystroke_Key.space	Key.space	n/a
232.206	0.136	464412	keystroke_p	p	n/a
232.278	0.096	464556	keystroke_i	i	n/a
232.534	0.096	465068	keystroke_e	e	n/a
232.726	0.136	465452	keystroke_c	c	n/a
232.822	0.096	465644	keystroke_e	e	n/a
233.046	0.096	466092	keystroke_Key.enter	Key.enter	n/a
233.1465	10.6285	466293	prompt	n/a	reality unknown constructed ending\n
234.0055	0.152	468011	keystroke_r	r	n/a
234.1175	0.096	468235	keystroke_e	e	n/a
234.2695	0.096	468539	keystroke_a	a	n/a
234.4215	0.144	468843	keystroke_l	l	n/a
234.5095	0.096	469019	keystroke_i	i	n/a
234.6615	0.072	469323	keystroke_t	t	n/a
234.8615	0.0885	469723	keystroke_y	y	n/a
234.997	0.065	469994	keystroke_Key.space	Key.space	n/a
235.517	0.073	471034	keystroke_u	u	n/a
235.71	0.063	471420	keystroke_n	n	n/a
235.885	0.088	471770	keystroke_k	k	n/a
236.189	0.073	472378	keystroke_n	n	n/a
236.43	0.104	472860	keystroke_o	o	n/a
236.598	0.088	473196	keystroke_w	w	n/a
236.71	0.072	473420	keystroke_n	n	n/a
236.8855	0.08	473771	keystroke_Key.space	Key.space	n/a
237.181	0.064	474362	keystroke_c	c	n/a
237.293	0.128	474586	keystroke_o	o	n/a
237.397	0.08	474794	keystroke_n	n	n/a
237.573	0.064	475146	keystroke_s	s	n/a
237.75	0.048	475500	keystroke_t	t	n/a
237.894	0.056	475788	keystroke_r	r	n/a
238.022	0.072	476044	keystroke_u	u	n/a
238.126	0.0555	476252	keystroke_c	c	n/a
238.3575	0.136	476715	keystroke_t	t	n/a
238.4455	0.104	476891	keystroke_e	e	n/a
238.6455	0.088	477291	keystroke_d	d	n/a
238.7815	0.072	477563	keystroke_Key.space	Key.space	n/a
239.2775	0.0795	478555	keystroke_e	e	n/a
239.397	0.064	478794	keystroke_n	n	n/a
239.4935	0.064	478987	keystroke_d	d	n/a
239.677	0.064	479354	keystroke_g	g	n/a
239.742	0.143	479484	keystroke_i	i	n/a
239.821	0.112	479642	keystroke_n	n	n/a
240.525	0.08	481050	keystroke_=	=	n/a
241.085	0.0885	482170	keystroke_Key.backspace	Key.backspace	n/a
241.262	0.072	482524	keystroke_Key.backspace	Key.backspace	n/a
241.422	0.08	482844	keystroke_Key.backspace	Key.backspace	n/a
241.59	0.064	483180	keystroke_Key.backspace	Key.backspace	n/a
243.062	0.112	486124	keystroke_i	i	n/a
243.126	0.096	486252	keystroke_n	n	n/a
243.206	0.064	486412	keystroke_g	g	n/a
243.6855	0.088	487371	keystroke_Key.enter	Key.enter	n/a
243.778	8.965	487556	prompt	n/a	aerospace originally species seriously\n
244.7095	0.12	489419	keystroke_a	a	n/a
244.918	0.08	489836	keystroke_e	e	n/a
245.093	0.065	490186	keystroke_r	r	n/a
245.222	0.1115	490444	keystroke_o	o	n/a
245.4055	0.072	490811	keystroke_s	s	n/a
245.5335	0.088	491067	keystroke_p	p	n/a
245.6615	0.088	491323	keystroke_a	a	n/a
245.8775	0.12	491755	keystroke_c	c	n/a
245.9415	0.112	491883	keystroke_e	e	n/a
246.0935	0.096	492187	keystroke_Key.space	Key.space	n/a
246.8055	0.1035	493611	keystroke_o	o	n/a
246.933	0.081	493866	keystroke_r	r	n/a
247.045	0.072	494090	keystroke_i	i	n/a
247.158	0.095	494316	keystroke_g	g	n/a
247.221	0.144	494442	keystroke_i	i	n/a
247.325	0.08	494650	keystroke_n	n	n/a
247.413	0.08	494826	keystroke_a	a	n/a
247.541	0.065	495082	keystroke_l	l	n/a
247.677	0.104	495354	keystroke_l	l	n/a
247.766	0.095	495532	keystroke_y	y	n/a
247.909	0.072	495818	keystroke_Key.space	Key.space	n/a
248.4695	0.08	496939	keystroke_s	s	n/a
248.5815	0.0795	497163	keystroke_p	p	n/a
248.725	0.056	497450	keystroke_e	e	n/a
248.909	0.064	497818	keystroke_c	c	n/a
249.021	0.096	498042	keystroke_i	i	n/a
249.357	0.08	498714	keystroke_e	e	n/a
249.549	0.0645	499098	keystroke_s	s	n/a
249.7575	0.088	499515	keystroke_Key.space	Key.space	n/a
251.1735	0.072	502347	keystroke_s	s	n/a
251.3575	0.104	502715	keystroke_e	e	n/a
251.4455	0.08	502891	keystroke_r	r	n/a
251.5975	0.072	503195	keystroke_i	i	n/a
251.749	0.1365	503498	keystroke_o	o	n/a
251.837	0.088	503674	keystroke_u	u	n/a
251.9415	0.072	503883	keystroke_s	s	n/a
252.0295	0.128	504059	keystroke_l	l	n/a
252.269	0.064	504538	keystroke_y	y	n/a
252.661	0.08	505322	keystroke_Key.enter	Key.enter	n/a
252.746	7.261	505492	prompt	n/a	movers cumulative hours bermuda\n
253.5975	0.056	507195	keystroke_m	m	n/a
253.7415	0.104	507483	keystroke_o	o	n/a
253.8775	0.048	507755	keystroke_v	v	n/a
254.1175	0.152	508235	keystroke_e	e	n/a
254.2215	0.08	508443	keystroke_r	r	n/a
254.5095	0.08	509019	keystroke_s	s	n/a
254.6455	0.056	509291	keystroke_Key.space	Key.space	n/a
255.0935	0.088	510187	keystroke_c	c	n/a
255.3015	0.08	510603	keystroke_u	u	n/a
255.5415	0.064	511083	keystroke_m	m	n/a
255.7175	0.064	511435	keystroke_u	u	n/a
255.9015	0.088	511803	keystroke_l	l	n/a
255.9975	0.08	511995	keystroke_a	a	n/a
256.1815	0.0635	512363	keystroke_t	t	n/a
256.253	0.096	512506	keystroke_i	i	n/a
256.421	0.112	512842	keystroke_v	v	n/a
256.509	0.096	513018	keystroke_e	e	n/a
256.669	0.088	513338	keystroke_Key.space	Key.space	n/a
257.189	0.064	514378	keystroke_h	h	n/a
257.365	0.144	514730	keystroke_o	o	n/a
257.461	0.088	514922	keystroke_u	u	n/a
257.6375	0.072	515275	keystroke_r	r	n/a
257.7975	0.08	515595	keystroke_s	s	n/a
257.9015	0.096	515803	keystroke_Key.space	Key.space	n/a
258.4215	0.064	516843	keystroke_b	b	n/a
258.4935	0.1355	516987	keystroke_e	e	n/a
258.5975	0.0715	517195	keystroke_r	r	n/a
258.965	0.072	517930	keystroke_m	m	n/a
259.181	0.088	518362	keystroke_u	u	n/a
259.437	0.104	518874	keystroke_d	d	n/a
259.629	0.096	519258	keystroke_a	a	n/a
259.917	0.088	519834	keystroke_Key.enter	Key.enter	n/a
260.01	14.8925	520020	prompt	n/a	politicians mating champion easter\n
261.429	0.064	522858	keystroke_p	p	n/a
261.597	0.0885	523194	keystroke_o	o	n/a
261.8055	0.128	523611	keystroke_l	l	n/a
262.4615	0.063	524923	keystroke_i	i	n/a
262.6295	0.072	525259	keystroke_t	t	n/a
262.7095	0.103	525419	keystroke_i	i	n/a
262.9495	0.056	525899	keystroke_c	c	n/a
263.021	0.112	526042	keystroke_i	i	n/a
263.221	0.12	526442	keystroke_a	a	n/a
263.6365	0.0965	527273	keystroke_n	n	n/a
263.7645	0.096	527529	keystroke_s	s	n/a
263.8765	0.088	527753	keystroke_Key.space	Key.space	n/a
264.5245	0.072	529049	keystroke_c	c	n/a
264.725	0.0635	529450	keystroke_h	h	n/a
264.845	0.0795	529690	keystroke_a	a	n/a
264.9655	0.087	529931	keystroke_m	m	n/a
265.397	0.104	530794	keystroke_p	p	n/a
265.773	0.096	531546	keystroke_i	i	n/a
266.029	0.128	532058	keystroke_o	o	n/a
266.325	0.081	532650	keystroke_n	n	n/a
266.533	0.072	533066	keystroke_Key.space	Key.space	n/a
268.237	0.064	536474	keystroke_Key.backspace	Key.backspace	n/a
268.389	0.048	536778	keystroke_Key.backspace	Key.backspace	n/a
268.533	0.072	537066	keystroke_Key.backspace	Key.backspace	n/a
268.693	0.072	537386	keystroke_Key.backspace	Key.backspace	n/a
268.845	0.08	537690	keystroke_Key.backspace	Key.backspace	n/a
269.005	0.072	538010	keystroke_Key.backspace	Key.backspace	n/a
269.149	0.072	538298	keystroke_Key.backspace	Key.backspace	n/a
269.301	0.072	538602	keystroke_Key.backspace	Key.backspace	n/a
269.453	0.088	538906	keystroke_Key.backspace	Key.backspace	n/a
270.0375	0.063	540075	keystroke_m	m	n/a
270.117	0.072	540234	keystroke_a	a	n/a
270.357	0.08	540714	keystroke_t	t	n/a
270.493	0.128	540986	keystroke_i	i	n/a
270.581	0.064	541162	keystroke_n	n	n/a
270.685	0.064	541370	keystroke_g	g	n/a
270.773	0.072	541546	keystroke_Key.space	Key.space	n/a
271.517	0.064	543034	keystroke_c	c	n/a
271.733	0.056	543466	keystroke_h	h	n/a
271.861	0.08	543722	keystroke_a	a	n/a
272.0455	0.064	544091	keystroke_m	m	n/a
272.2845	0.089	544569	keystroke_p	p	n/a
272.597	0.08	545194	keystroke_i	i	n/a
272.741	0.08	545482	keystroke_o	o	n/a
272.9565	0.096	545913	keystroke_n	n	n/a
273.1725	0.072	546345	keystroke_Key.space	Key.space	n/a
273.6365	0.088	547273	keystroke_e	e	n/a
273.8205	0.104	547641	keystroke_a	a	n/a
273.8925	0.0885	547785	keystroke_s	s	n/a
274.1095	0.072	548219	keystroke_t	t	n/a
274.245	0.1285	548490	keystroke_e	e	n/a
274.3495	0.104	548699	keystroke_r	r	n/a
274.8215	0.0795	549643	keystroke_Key.enter	Key.enter	n/a
274.905	9.2455	549810	prompt	n/a	indiana complex chuck guitars\n
275.757	0.072	551514	keystroke_i	i	n/a
275.949	0.056	551898	keystroke_n	n	n/a
276.357	0.072	552714	keystroke_d	d	n/a
276.469	0.088	552938	keystroke_i	i	n/a
276.589	0.096	553178	keystroke_a	a	n/a
276.709	0.088	553418	keystroke_n	n	n/a
277.0935	0.08	554187	keystroke_a	a	n/a
277.2055	0.088	554411	keystroke_Key.space	Key.space	n/a
277.493	0.072	554986	keystroke_c	c	n/a
277.821	0.12	555642	keystroke_o	o	n/a
277.933	0.1045	555866	keystroke_m	m	n/a
278.909	0.056	557818	keystroke_p	p	n/a
279.077	0.08	558154	keystroke_l	l	n/a
279.253	0.064	558506	keystroke_e	e	n/a
279.733	0.08	559466	keystroke_x	x	n/a
279.861	0.064	559722	keystroke_Key.space	Key.space	n/a
280.5085	0.096	561017	keystroke_c	c	n/a
280.7005	0.072	561401	keystroke_h	h	n/a
280.9645	0.072	561929	keystroke_u	u	n/a
281.1485	0.08	562297	keystroke_c	c	n/a
281.589	0.072	563178	keystroke_k	k	n/a
281.765	0.08	563530	keystroke_Key.space	Key.space	n/a
282.5645	0.072	565129	keystroke_g	g	n/a
282.741	0.0875	565482	keystroke_u	u	n/a
282.853	0.096	565706	keystroke_i	i	n/a
283.0125	0.129	566025	keystroke_t	t	n/a
283.3015	0.136	566603	keystroke_a	a	n/a
283.3895	0.088	566779	keystroke_r	r	n/a
283.6695	0.079	567339	keystroke_s	s	n/a
284.0605	0.088	568121	keystroke_Key.enter	Key.enter	n/a
284.1535	12.277	568307	prompt	n/a	notion hanging capabilities photographers\n
285.1405	0.057	570281	keystroke_n	n	n/a
285.3245	0.08	570649	keystroke_o	o	n/a
285.4445	0.057	570889	keystroke_t	t	n/a
285.5885	0.113	571177	keystroke_i	i	n/a
285.6695	0.095	571339	keystroke_o	o	n/a
285.8605	0.08	571721	keystroke_n	n	n/a
286.0365	0.088	572073	keystroke_Key.space	Key.space	n/a
286.549	0.072	573098	keystroke_h	h	n/a
286.653	0.088	573306	keystroke_a	a	n/a
286.773	0.08	573546	keystroke_n	n	n/a
286.9965	0.056	573993	keystroke_g	g	n/a
287.1325	0.128	574265	keystroke_i	i	n/a
287.1965	0.096	574393	keystroke_n	n	n/a
287.3565	0.056	574713	keystroke_g	g	n/a
287.4445	0.088	574889	keystroke_Key.space	Key.space	n/a
287.9965	0.096	575993	keystroke_c	c	n/a
288.1965	0.104	576393	keystroke_a	a	n/a
288.3405	0.064	576681	keystroke_p	p	n/a
288.4765	0.088	576953	keystroke_a	a	n/a
290.4365	0.064	580873	keystroke_b	b	n/a
290.7245	0.08	581449	keystroke_i	i	n/a
290.9495	0.079	581899	keystroke_l	l	n/a
291.1645	0.096	582329	keystroke_i	i	n/a
291.7015	0.071	583403	keystroke_t	t	n/a
291.7885	0.08	583577	keystroke_i	i	n/a
291.9725	0.064	583945	keystroke_e	e	n/a
292.1565	0.064	584313	keystroke_s	s	n/a
292.2845	0.08	584569	keystroke_Key.space	Key.space	n/a
293.2045	0.064	586409	keystroke_p	p	n/a
293.5405	0.056	587081	keystroke_h	h	n/a
293.725	0.072	587450	keystroke_o	o	n/a
293.909	0.064	587818	keystroke_t	t	n/a
294.021	0.104	588042	keystroke_o	o	n/a
294.269	0.064	588538	keystroke_g	g	n/a
294.7325	0.064	589465	keystroke_r	r	n/a
294.9085	0.072	589817	keystroke_a	a	n/a
295.0685	0.096	590137	keystroke_p	p	n/a
295.2925	0.072	590585	keystroke_h	h	n/a
295.3965	0.0805	590793	keystroke_e	e	n/a
295.565	0.088	591130	keystroke_r	r	n/a
295.733	0.096	591466	keystroke_s	s	n/a
296.349	0.08	592698	keystroke_Key.enter	Key.enter	n/a
296.435	12.019	592870	prompt	n/a	vietnamese iron specialties searches\n
297.3805	0.04	594761	keystroke_v	v	n/a
297.6045	0.08	595209	keystroke_i	i	n/a
298.46	0.08	596920	keystroke_e	e	n/a
299.0925	0.064	598185	keystroke_t	t	n/a
299.2525	0.064	598505	keystroke_n	n	n/a
299.4685	0.112	598937	keystroke_a	a	n/a
299.949	0.072	599898	keystroke_m	m	n/a
300.173	0.088	600346	keystroke_e	e	n/a
300.373	0.064	600746	keystroke_s	s	n/a
300.549	0.088	601098	keystroke_e	e	n/a
300.653	0.08	601306	keystroke_Key.space	Key.space	n/a
301.4685	0.072	602937	keystroke_i	i	n/a
301.5965	0.072	603193	keystroke_r	r	n/a
301.7165	0.096	603433	keystroke_o	o	n/a
301.9245	0.072	603849	keystroke_n	n	n/a
302.1005	0.08	604201	keystroke_Key.space	Key.space	n/a
302.3805	0.064	604761	keystroke_s	s	n/a
302.5085	0.088	605017	keystroke_p	p	n/a
302.6605	0.088	605321	keystroke_e	e	n/a
302.8605	0.08	605721	keystroke_c	c	n/a
302.9725	0.096	605945	keystroke_i	i	n/a
303.2125	0.072	606425	keystroke_a	a	n/a
304.4845	0.096	608969	keystroke_l	l	n/a
305.108	0.056	610216	keystroke_t	t	n/a
305.18	0.088	610360	keystroke_i	i	n/a
305.4045	0.064	610809	keystroke_e	e	n/a
305.5965	0.072	611193	keystroke_s	s	n/a
305.7565	0.064	611513	keystroke_Key.space	Key.space	n/a
306.5085	0.064	613017	keystroke_s	s	n/a
306.6845	0.056	613369	keystroke_e	e	n/a
306.8685	0.1205	613737	keystroke_a	a	n/a
306.965	0.056	613930	keystroke_r	r	n/a
307.165	0.08	614330	keystroke_c	c	n/a
307.261	0.088	614522	keystroke_h	h	n/a
307.373	0.136	614746	keystroke_e	e	n/a
307.484	0.056	614968	keystroke_r	r	n/a
307.941	0.12	615882	keystroke_Key.backspace	Key.backspace	n/a
308.085	0.079	616170	keystroke_s	s	n/a
308.364	0.089	616728	keystroke_Key.enter	Key.enter	n/a
308.4575	7.7005	616915	prompt	n/a	drill saves removing glasgow\n
309.4525	0.064	618905	keystroke_d	d	n/a
309.6365	0.064	619273	keystroke_r	r	n/a
309.7725	0.096	619545	keystroke_i	i	n/a
310.0285	0.048	620057	keystroke_l	l	n/a
310.1565	0.064	620313	keystroke_l	l	n/a
310.3485	0.072	620697	keystroke_Key.space	Key.space	n/a
310.4685	0.064	620937	keystroke_s	s	n/a
310.7165	0.088	621433	keystroke_a	a	n/a
310.9485	0.072	621897	keystroke_v	v	n/a
311.1085	0.072	622217	keystroke_e	e	n/a
311.2925	0.08	622585	keystroke_s	s	n/a
311.3805	0.072	622761	keystroke_Key.space	Key.space	n/a
311.876	0.104	623752	keystroke_r	r	n/a
311.948	0.088	623896	keystroke_e	e	n/a
312.1325	0.064	624265	keystroke_m	m	n/a
312.3165	0.096	624633	keystroke_o	o	n/a
312.4685	0.088	624937	keystroke_v	v	n/a
312.6045	0.12	625209	keystroke_i	i	n/a
312.6845	0.08	625369	keystroke_n	n	n/a
312.7565	0.08	625513	keystroke_g	g	n/a
312.884	0.088	625768	keystroke_Key.space	Key.space	n/a
313.676	0.048	627352	keystroke_g	g	n/a
313.788	0.072	627576	keystroke_l	l	n/a
313.948	0.088	627896	keystroke_a	a	n/a
314.172	0.08	628344	keystroke_s	s	n/a
315.0365	0.064	630073	keystroke_g	g	n/a
315.2525	0.088	630505	keystroke_o	o	n/a
315.5565	0.08	631113	keystroke_w	w	n/a
316.0835	0.073	632167	keystroke_Key.enter	Key.enter	n/a
316.1605	7.8215	632321	prompt	n/a	ranked segments average formatting\n
317.1965	0.056	634393	keystroke_r	r	n/a
317.3565	0.088	634713	keystroke_a	a	n/a
317.5005	0.072	635001	keystroke_n	n	n/a
317.724	0.088	635448	keystroke_k	k	n/a
317.828	0.064	635656	keystroke_e	e	n/a
317.996	0.08	635992	keystroke_d	d	n/a
318.092	0.08	636184	keystroke_Key.space	Key.space	n/a
318.964	0.08	637928	keystroke_s	s	n/a
319.132	0.08	638264	keystroke_e	e	n/a
319.332	0.04	638664	keystroke_g	g	n/a
319.42	0.088	638840	keystroke_m	m	n/a
319.564	0.064	639128	keystroke_e	e	n/a
319.668	0.08	639336	keystroke_n	n	n/a
319.764	0.072	639528	keystroke_t	t	n/a
319.948	0.096	639896	keystroke_s	s	n/a
320.092	0.08	640184	keystroke_Key.space	Key.space	n/a
320.788	0.096	641576	keystroke_a	a	n/a
321.0365	0.064	642073	keystroke_v	v	n/a
321.1965	0.12	642393	keystroke_e	e	n/a
321.2765	0.072	642553	keystroke_r	r	n/a
321.4445	0.096	642889	keystroke_a	a	n/a
321.676	0.096	643352	keystroke_g	g	n/a
321.852	0.088	643704	keystroke_e	e	n/a
321.9955	0.0725	643991	keystroke_Key.space	Key.space	n/a
322.5885	0.071	645177	keystroke_f	f	n/a
322.7165	0.064	645433	keystroke_o	o	n/a
322.7965	0.063	645593	keystroke_r	r	n/a
322.9085	0.072	645817	keystroke_m	m	n/a
323.0045	0.088	646009	keystroke_a	a	n/a
323.1805	0.056	646361	keystroke_t	t	n/a
323.2925	0.088	646585	keystroke_t	t	n/a
323.3885	0.136	646777	keystroke_i	i	n/a
323.4765	0.088	646953	keystroke_n	n	n/a
323.5325	0.088	647065	keystroke_g	g	n/a
323.8845	0.096	647769	keystroke_Key.enter	Key.enter	n/a
323.9845	6.621	647969	prompt	n/a	since babes filing pledge\n
324.756	0.072	649512	keystroke_s	s	n/a
324.868	0.128	649736	keystroke_i	i	n/a
324.956	0.088	649912	keystroke_n	n	n/a
325.052	0.129	650104	keystroke_c	c	n/a
325.148	0.096	650296	keystroke_e	e	n/a
325.388	0.096	650776	keystroke_Key.space	Key.space	n/a
325.996	0.072	651992	keystroke_b	b	n/a
326.084	0.128	652168	keystroke_a	a	n/a
326.18	0.088	652360	keystroke_b	b	n/a
326.38	0.056	652760	keystroke_e	e	n/a
326.564	0.08	653128	keystroke_s	s	n/a
326.645	0.087	653290	keystroke_Key.space	Key.space	n/a
327.9805	0.064	655961	keystroke_f	f	n/a
328.0925	0.064	656185	keystroke_i	i	n/a
328.2845	0.08	656569	keystroke_l	l	n/a
328.4925	0.104	656985	keystroke_i	i	n/a
328.5645	0.08	657129	keystroke_n	n	n/a
328.6845	0.064	657369	keystroke_g	g	n/a
328.7645	0.072	657529	keystroke_Key.space	Key.space	n/a
329.4125	0.096	658825	keystroke_p	p	n/a
329.5645	0.104	659129	keystroke_l	l	n/a
329.6925	0.072	659385	keystroke_e	e	n/a
329.892	0.064	659784	keystroke_d	d	n/a
330.076	0.072	660152	keystroke_g	g	n/a
330.236	0.088	660472	keystroke_e	e	n/a
330.532	0.072	661064	keystroke_Key.enter	Key.enter	n/a
330.6085	6.373	661217	prompt	n/a	selecting sims cause directed\n
331.452	0.064	662904	keystroke_s	s	n/a
331.628	0.0725	663256	keystroke_e	e	n/a
331.7645	0.08	663529	keystroke_l	l	n/a
331.8765	0.088	663753	keystroke_e	e	n/a
331.9965	0.072	663993	keystroke_c	c	n/a
332.1965	0.08	664393	keystroke_t	t	n/a
332.3405	0.12	664681	keystroke_i	i	n/a
332.4205	0.08	664841	keystroke_n	n	n/a
332.5165	0.056	665033	keystroke_g	g	n/a
332.612	0.08	665224	keystroke_Key.space	Key.space	n/a
332.804	0.08	665608	keystroke_s	s	n/a
332.9	0.072	665800	keystroke_i	i	n/a
333.044	0.096	666088	keystroke_m	m	n/a
333.316	0.08	666632	keystroke_s	s	n/a
333.444	0.104	666888	keystroke_Key.space	Key.space	n/a
333.804	0.1205	667608	keystroke_c	c	n/a
333.9485	0.103	667897	keystroke_a	a	n/a
334.3085	0.096	668617	keystroke_u	u	n/a
334.4125	0.048	668825	keystroke_s	s	n/a
334.5725	0.088	669145	keystroke_e	e	n/a
334.6685	0.088	669337	keystroke_Key.space	Key.space	n/a
335.6675	0.056	671335	keystroke_d	d	n/a
335.7795	0.088	671559	keystroke_i	i	n/a
335.8845	0.063	671769	keystroke_r	r	n/a
336.0515	0.136	672103	keystroke_e	e	n/a
336.1475	0.064	672295	keystroke_c	c	n/a
336.3245	0.119	672649	keystroke_t	t	n/a
336.4115	0.073	672823	keystroke_e	e	n/a
336.5805	0.095	673161	keystroke_d	d	n/a
336.8995	0.08	673799	keystroke_Key.enter	Key.enter	n/a
336.9845	5.8295	673969	prompt	n/a	floors trails bacon the\n
337.9635	0.072	675927	keystroke_f	f	n/a
338.1075	0.056	676215	keystroke_l	l	n/a
338.3315	0.056	676663	keystroke_o	o	n/a
338.4675	0.08	676935	keystroke_o	o	n/a
338.6595	0.064	677319	keystroke_r	r	n/a
338.8675	0.096	677735	keystroke_s	s	n/a
338.9875	0.08	677975	keystroke_Key.space	Key.space	n/a
339.4595	0.064	678919	keystroke_t	t	n/a
339.6035	0.064	679207	keystroke_r	r	n/a
339.7395	0.089	679479	keystroke_a	a	n/a
339.8435	0.08	679687	keystroke_i	i	n/a
340.0355	0.08	680071	keystroke_l	l	n/a
340.1635	0.072	680327	keystroke_s	s	n/a
340.2675	0.064	680535	keystroke_Key.space	Key.space	n/a
340.9475	0.072	681895	keystroke_b	b	n/a
341.0355	0.104	682071	keystroke_a	a	n/a
341.1475	0.072	682295	keystroke_c	c	n/a
341.5155	0.12	683031	keystroke_o	o	n/a
341.5955	0.08	683191	keystroke_n	n	n/a
341.7795	0.096	683559	keystroke_Key.space	Key.space	n/a
342.1795	0.064	684359	keystroke_t	t	n/a
342.2595	0.08	684519	keystroke_h	h	n/a
342.3635	0.096	684727	keystroke_e	e	n/a
342.7315	0.08	685463	keystroke_Key.enter	Key.enter	n/a
342.817	8.3165	685634	prompt	n/a	study greek contribution impose\n
343.7085	0.0795	687417	keystroke_s	s	n/a
343.884	0.072	687768	keystroke_t	t	n/a
344.076	0.104	688152	keystroke_u	u	n/a
344.236	0.064	688472	keystroke_d	d	n/a
344.444	0.072	688888	keystroke_y	y	n/a
344.548	0.072	689096	keystroke_Key.space	Key.space	n/a
345.3	0.056	690600	keystroke_g	g	n/a
345.468	0.072	690936	keystroke_r	r	n/a
345.636	0.056	691272	keystroke_e	e	n/a
345.756	0.088	691512	keystroke_e	e	n/a
346.0195	0.072	692039	keystroke_k	k	n/a
346.2115	0.088	692423	keystroke_Key.space	Key.space	n/a
346.9715	0.056	693943	keystroke_c	c	n/a
347.1645	0.119	694329	keystroke_o	o	n/a
347.2595	0.08	694519	keystroke_n	n	n/a
347.4115	0.041	694823	keystroke_t	t	n/a
347.5475	0.072	695095	keystroke_r	r	n/a
347.6515	0.104	695303	keystroke_i	i	n/a
347.8995	0.12	695799	keystroke_b	b	n/a
348.0435	0.105	696087	keystroke_u	u	n/a
348.3405	0.063	696681	keystroke_t	t	n/a
348.4685	0.119	696937	keystroke_i	i	n/a
348.5235	0.12	697047	keystroke_o	o	n/a
348.7475	0.072	697495	keystroke_n	n	n/a
348.9235	0.088	697847	keystroke_Key.space	Key.space	n/a
349.54	0.12	699080	keystroke_i	i	n/a
349.636	0.088	699272	keystroke_m	m	n/a
349.844	0.168	699688	keystroke_p	p	n/a
349.932	0.12	699864	keystroke_o	o	n/a
350.108	0.072	700216	keystroke_s	s	n/a
350.2835	0.088	700567	keystroke_e	e	n/a
351.0355	0.096	702071	keystroke_Key.enter	Key.enter	n/a
351.136	6.9655	702272	prompt	n/a	races instruments reported carpet\n
352.084	0.072	704168	keystroke_r	r	n/a
352.252	0.08	704504	keystroke_a	a	n/a
352.476	0.08	704952	keystroke_c	c	n/a
352.676	0.072	705352	keystroke_e	e	n/a
352.86	0.072	705720	keystroke_s	s	n/a
352.948	0.08	705896	keystroke_Key.space	Key.space	n/a
353.2035	0.12	706407	keystroke_i	i	n/a
353.2755	0.072	706551	keystroke_n	n	n/a
353.5315	0.088	707063	keystroke_s	s	n/a
353.7315	0.0725	707463	keystroke_t	t	n/a
353.94	0.056	707880	keystroke_r	r	n/a
354.147	0.072	708294	keystroke_u	u	n/a
354.364	0.056	708728	keystroke_m	m	n/a
354.452	0.088	708904	keystroke_e	e	n/a
354.58	0.08	709160	keystroke_n	n	n/a
354.668	0.056	709336	keystroke_t	t	n/a
354.796	0.096	709592	keystroke_s	s	n/a
354.948	0.072	709896	keystroke_Key.space	Key.space	n/a
355.548	0.12	711096	keystroke_r	r	n/a
355.628	0.096	711256	keystroke_e	e	n/a
355.756	0.128	711512	keystroke_p	p	n/a
355.828	0.112	711656	keystroke_o	o	n/a
355.972	0.064	711944	keystroke_r	r	n/a
356.148	0.12	712296	keystroke_t	t	n/a
356.22	0.096	712440	keystroke_e	e	n/a
356.42	0.088	712840	keystroke_d	d	n/a
356.532	0.08	713064	keystroke_Key.space	Key.space	n/a
357.084	0.0795	714168	keystroke_c	c	n/a
357.2035	0.096	714407	keystroke_a	a	n/a
357.3395	0.072	714679	keystroke_r	r	n/a
357.4915	0.088	714983	keystroke_p	p	n/a
357.6275	0.112	715255	keystroke_e	e	n/a
357.7075	0.088	715415	keystroke_t	t	n/a
357.9955	0.104	715991	keystroke_Key.enter	Key.enter	n/a
358.105	8.268	716210	prompt	n/a	imports roughly pocket throwing\n
358.9875	0.064	717975	keystroke_i	i	n/a
359.1955	0.072	718391	keystroke_m	m	n/a
359.4035	0.128	718807	keystroke_p	p	n/a
359.4835	0.096	718967	keystroke_o	o	n/a
359.5955	0.064	719191	keystroke_r	r	n/a
359.7555	0.056	719511	keystroke_t	t	n/a
359.9235	0.08	719847	keystroke_s	s	n/a
360.0115	0.096	720023	keystroke_Key.space	Key.space	n/a
360.6355	0.064	721271	keystroke_r	r	n/a
360.7795	0.128	721559	keystroke_o	o	n/a
360.8435	0.096	721687	keystroke_u	u	n/a
361.1235	0.0805	722247	keystroke_g	g	n/a
361.22	0.072	722440	keystroke_h	h	n/a
361.612	0.104	723224	keystroke_l	l	n/a
361.708	0.088	723416	keystroke_y	y	n/a
361.86	0.072	723720	keystroke_Key.space	Key.space	n/a
362.692	0.128	725384	keystroke_p	p	n/a
362.764	0.096	725528	keystroke_o	o	n/a
363.1315	0.08	726263	keystroke_c	c	n/a
363.3555	0.08	726711	keystroke_k	k	n/a
363.4755	0.088	726951	keystroke_e	e	n/a
363.6915	0.088	727383	keystroke_t	t	n/a
363.8275	0.088	727655	keystroke_Key.space	Key.space	n/a
364.636	0.056	729272	keystroke_t	t	n/a
364.732	0.064	729464	keystroke_h	h	n/a
364.9155	0.072	729831	keystroke_r	r	n/a
365.1235	0.096	730247	keystroke_o	o	n/a
365.2595	0.064	730519	keystroke_w	w	n/a
365.5475	0.16	731095	keystroke_i	i	n/a
365.6515	0.104	731303	keystroke_n	n	n/a
365.6995	0.096	731399	keystroke_g	g	n/a
366.2915	0.08	732583	keystroke_Key.enter	Key.enter	n/a
366.385	10.9	732770	prompt	n/a	carey fairly edinburgh junior\n
367.411	0.073	734822	keystroke_c	c	n/a
367.579	0.081	735158	keystroke_a	a	n/a
367.787	0.136	735574	keystroke_r	r	n/a
367.875	0.104	735750	keystroke_e	e	n/a
368.107	0.088	736214	keystroke_y	y	n/a
368.259	0.112	736518	keystroke_Key.space	Key.space	n/a
368.867	0.08	737734	keystroke_f	f	n/a
369.011	0.088	738022	keystroke_a	a	n/a
369.163	0.112	738326	keystroke_i	i	n/a
369.4275	0.112	738855	keystroke_t	t	n/a
370.0675	0.096	740135	keystroke_Key.backspace	Key.backspace	n/a
370.9155	0.072	741831	keystroke_r	r	n/a
371.0355	0.088	742071	keystroke_l	l	n/a
371.331	0.072	742662	keystroke_y	y	n/a
371.491	0.072	742982	keystroke_Key.space	Key.space	n/a
372.275	0.064	744550	keystroke_e	e	n/a
372.9395	0.08	745879	keystroke_d	d	n/a
373.099	0.12	746198	keystroke_i	i	n/a
373.211	0.08	746422	keystroke_n	n	n/a
373.627	0.088	747254	keystroke_b	b	n/a
373.891	0.096	747782	keystroke_u	u	n/a
373.995	0.064	747990	keystroke_r	r	n/a
374.163	0.088	748326	keystroke_g	g	n/a
374.267	0.08	748534	keystroke_h	h	n/a
374.9955	0.064	749991	keystroke_Key.space	Key.space	n/a
375.5235	0.064	751047	keystroke_j	j	n/a
375.6755	0.072	751351	keystroke_u	u	n/a
375.8995	0.08	751799	keystroke_n	n	n/a
376.0915	0.0795	752183	keystroke_i	i	n/a
376.387	0.096	752774	keystroke_o	o	n/a
376.499	0.088	752998	keystroke_r	r	n/a
377.1795	0.104	754359	keystroke_Key.enter	Key.enter	n/a
377.29	14.9065	754580	prompt	n/a	flexible kentucky christianity reflected\n
378.235	0.048	756470	keystroke_f	f	n/a
378.443	0.072	756886	keystroke_l	l	n/a
378.579	0.048	757158	keystroke_r	r	n/a
379.4835	0.072	758967	keystroke_=	=	n/a
380.0115	0.088	760023	keystroke_Key.backspace	Key.backspace	n/a
380.1955	0.096	760391	keystroke_Key.backspace	Key.backspace	n/a
380.803	0.048	761606	keystroke_e	e	n/a
381.02	0.072	762040	keystroke_x	x	n/a
381.228	0.087	762456	keystroke_i	i	n/a
381.443	0.073	762886	keystroke_b	b	n/a
381.8035	0.104	763607	keystroke_l	l	n/a
381.9155	0.0875	763831	keystroke_e	e	n/a
382.035	0.088	764070	keystroke_Key.space	Key.space	n/a
382.931	0.072	765862	keystroke_k	k	n/a
383.059	0.056	766118	keystroke_e	e	n/a
383.155	0.072	766310	keystroke_n	n	n/a
383.291	0.056	766582	keystroke_t	t	n/a
383.443	0.072	766886	keystroke_u	u	n/a
383.867	0.064	767734	keystroke_c	c	n/a
384.091	0.088	768182	keystroke_k	k	n/a
384.227	0.072	768454	keystroke_y	y	n/a
384.371	0.08	768742	keystroke_Key.space	Key.space	n/a
385.0355	0.072	770071	keystroke_c	c	n/a
385.2515	0.072	770503	keystroke_h	h	n/a
385.4355	0.064	770871	keystroke_r	r	n/a
385.5635	0.088	771127	keystroke_i	i	n/a
385.763	0.064	771526	keystroke_s	s	n/a
386.315	0.064	772630	keystroke_t	t	n/a
386.4595	0.088	772919	keystroke_i	i	n/a
386.6675	0.096	773335	keystroke_a	a	n/a
386.8195	0.064	773639	keystroke_n	n	n/a
387.1555	0.096	774311	keystroke_i	i	n/a
387.2595	0.064	774519	keystroke_t	t	n/a
387.4275	0.08	774855	keystroke_y	y	n/a
387.6035	0.08	775207	keystroke_Key.space	Key.space	n/a
388.6515	0.128	777303	keystroke_r	r	n/a
388.7395	0.088	777479	keystroke_e	e	n/a
389.659	0.08	779318	keystroke_f	f	n/a
389.9235	0.064	779847	keystroke_l	l	n/a
390.2025	0.168	780405	keystroke_e	e	n/a
390.5385	0.112	781077	keystroke_c	c	n/a
391.2355	0.056	782471	keystroke_t	t	n/a
391.4745	0.081	782949	keystroke_e	e	n/a
391.6825	0.113	783365	keystroke_d	d	n/a
392.1065	0.088	784213	keystroke_Key.enter	Key.enter	n/a
392.1995	8.373	784399	prompt	n/a	recreation drops prev workplace\n
393.0755	0.12	786151	keystroke_r	r	n/a
393.2355	0.088	786471	keystroke_e	e	n/a
393.4355	0.072	786871	keystroke_c	c	n/a
393.6115	0.072	787223	keystroke_r	r	n/a
393.7475	0.072	787495	keystroke_e	e	n/a
393.9395	0.096	787879	keystroke_a	a	n/a
394.0435	0.048	788087	keystroke_t	t	n/a
394.1475	0.104	788295	keystroke_i	i	n/a
394.2035	0.12	788407	keystroke_o	o	n/a
394.3875	0.0875	788775	keystroke_n	n	n/a
394.651	0.064	789302	keystroke_Key.space	Key.space	n/a
395.043	0.064	790086	keystroke_d	d	n/a
395.235	0.0485	790470	keystroke_r	r	n/a
395.3705	0.121	790741	keystroke_o	o	n/a
395.4585	0.112	790917	keystroke_p	p	n/a
395.6665	0.072	791333	keystroke_s	s	n/a
395.7625	0.072	791525	keystroke_Key.space	Key.space	n/a
396.0825	0.088	792165	keystroke_p	p	n/a
396.1865	0.112	792373	keystroke_r	r	n/a
396.2515	0.1115	792503	keystroke_e	e	n/a
396.7625	0.072	793525	keystroke_v	v	n/a
396.8665	0.08	793733	keystroke_Key.space	Key.space	n/a
397.4585	0.064	794917	keystroke_w	w	n/a
397.6185	0.088	795237	keystroke_o	o	n/a
397.7385	0.08	795477	keystroke_r	r	n/a
397.9225	0.0805	795845	keystroke_k	k	n/a
398.219	0.144	796438	keystroke_p	p	n/a
398.515	0.08	797030	keystroke_l	l	n/a
398.683	0.096	797366	keystroke_a	a	n/a
398.9555	0.168	797911	keystroke_c	c	n/a
399.1075	0.08	798215	keystroke_e	e	n/a
400.491	0.08	800982	keystroke_Key.enter	Key.enter	n/a
400.5755	10.925	801151	prompt	n/a	stripes voluntary courts giants\n
401.451	0.08	802902	keystroke_s	s	n/a
401.619	0.056	803238	keystroke_t	t	n/a
401.803	0.032	803606	keystroke_r	r	n/a
401.875	0.096	803750	keystroke_i	i	n/a
402.123	0.104	804246	keystroke_p	p	n/a
402.203	0.048	804406	keystroke_e	e	n/a
402.379	0.056	804758	keystroke_s	s	n/a
402.467	0.064	804934	keystroke_Key.space	Key.space	n/a
403.547	0.088	807094	keystroke_v	v	n/a
403.771	0.096	807542	keystroke_o	o	n/a
404.019	0.112	808038	keystroke_l	l	n/a
404.227	0.088	808454	keystroke_u	u	n/a
404.4265	0.072	808853	keystroke_n	n	n/a
405.3865	0.08	810773	keystroke_t	t	n/a
405.5945	0.168	811189	keystroke_a	a	n/a
405.7145	0.112	811429	keystroke_r	r	n/a
405.9545	0.088	811909	keystroke_y	y	n/a
406.1715	0.071	812343	keystroke_Key.space	Key.space	n/a
407.011	0.072	814022	keystroke_c	c	n/a
407.163	0.128	814326	keystroke_o	o	n/a
407.227	0.096	814454	keystroke_u	u	n/a
407.483	0.088	814966	keystroke_r	r	n/a
407.675	0.056	815350	keystroke_t	t	n/a
407.835	0.072	815670	keystroke_s	s	n/a
407.939	0.08	815878	keystroke_Key.space	Key.space	n/a
408.499	0.064	816998	keystroke_f	f	n/a
408.8985	0.064	817797	keystroke_Key.backspace	Key.backspace	n/a
409.2985	0.088	818597	keystroke_g	g	n/a
409.867	0.056	819734	keystroke_i	i	n/a
410.147	0.1035	820294	keystroke_a	a	n/a
410.2985	0.064	820597	keystroke_n	n	n/a
410.8505	0.08	821701	keystroke_t	t	n/a
410.9785	0.08	821957	keystroke_s	s	n/a
411.4185	0.08	822837	keystroke_Key.enter	Key.enter	n/a
411.503	13.8135	823006	prompt	n/a	islam techrepublic representing bookmarks\n
412.675	0.08	825350	keystroke_i	i	n/a
412.859	0.056	825718	keystroke_s	s	n/a
412.979	0.064	825958	keystroke_l	l	n/a
413.083	0.088	826166	keystroke_a	a	n/a
413.371	0.056	826742	keystroke_m	m	n/a
413.539	0.08	827078	keystroke_Key.space	Key.space	n/a
414.467	0.064	828934	keystroke_t	t	n/a
414.635	0.08	829270	keystroke_e	e	n/a
414.8745	0.0725	829749	keystroke_c	c	n/a
415.187	0.064	830374	keystroke_h	h	n/a
415.491	0.056	830982	keystroke_r	r	n/a
415.7785	0.08	831557	keystroke_e	e	n/a
416.0345	0.088	832069	keystroke_p	p	n/a
416.3145	0.0805	832629	keystroke_u	u	n/a
416.659	0.064	833318	keystroke_b	b	n/a
416.8905	0.1445	833781	keystroke_l	l	n/a
417.003	0.0955	834006	keystroke_i	i	n/a
417.4585	0.105	834917	keystroke_c	c	n/a
417.6195	0.096	835239	keystroke_Key.space	Key.space	n/a
418.9875	0.112	837975	keystroke_r	r	n/a
419.0835	0.112	838167	keystroke_e	e	n/a
419.459	0.064	838918	keystroke_p	p	n/a
419.979	0.184	839958	keystroke_r	r	n/a
420.115	0.096	840230	keystroke_e	e	n/a
420.347	0.064	840694	keystroke_s	s	n/a
420.635	0.08	841270	keystroke_e	e	n/a
420.811	0.08	841622	keystroke_n	n	n/a
420.939	0.104	841878	keystroke_t	t	n/a
421.075	0.136	842150	keystroke_i	i	n/a
421.163	0.096	842326	keystroke_n	n	n/a
421.683	0.08	843366	keystroke_g	g	n/a
422.075	0.12	844150	keystroke_Key.space	Key.space	n/a
422.843	0.072	845686	keystroke_b	b	n/a
423.067	0.056	846134	keystroke_o	o	n/a
423.211	0.104	846422	keystroke_o	o	n/a
423.315	0.056	846630	keystroke_k	k	n/a
423.499	0.064	846998	keystroke_m	m	n/a
423.651	0.096	847302	keystroke_a	a	n/a
423.923	0.1355	847846	keystroke_r	r	n/a
424.595	0.08	849190	keystroke_k	k	n/a
424.835	0.072	849670	keystroke_s	s	n/a
425.219	0.096	850438	keystroke_Key.enter	Key.enter	n/a
425.319	7.1735	850638	prompt	n/a	camping laptops stake stephen\n
426.1705	0.104	852341	keystroke_c	c	n/a
426.2665	0.096	852533	keystroke_a	a	n/a
426.3785	0.088	852757	keystroke_m	m	n/a
426.6185	0.128	853237	keystroke_p	p	n/a
426.7545	0.104	853509	keystroke_i	i	n/a
427.0105	0.096	854021	keystroke_n	n	n/a
427.1145	0.096	854229	keystroke_g	g	n/a
427.2185	0.0885	854437	keystroke_Key.space	Key.space	n/a
427.971	0.072	855942	keystroke_l	l	n/a
428.067	0.088	856134	keystroke_a	a	n/a
428.227	0.096	856454	keystroke_p	p	n/a
428.435	0.072	856870	keystroke_t	t	n/a
428.547	0.112	857094	keystroke_o	o	n/a
428.643	0.112	857286	keystroke_p	p	n/a
428.891	0.08	857782	keystroke_s	s	n/a
429.01	0.089	858020	keystroke_Key.space	Key.space	n/a
429.651	0.088	859302	keystroke_s	s	n/a
429.811	0.072	859622	keystroke_t	t	n/a
429.987	0.096	859974	keystroke_a	a	n/a
430.211	0.088	860422	keystroke_k	k	n/a
430.331	0.08	860662	keystroke_e	e	n/a
430.426	0.073	860852	keystroke_Key.space	Key.space	n/a
431.0105	0.072	862021	keystroke_s	s	n/a
431.3145	0.056	862629	keystroke_t	t	n/a
431.4745	0.088	862949	keystroke_e	e	n/a
431.5785	0.088	863157	keystroke_p	p	n/a
431.81	0.08	863620	keystroke_h	h	n/a
431.938	0.088	863876	keystroke_e	e	n/a
432.034	0.0805	864068	keystroke_n	n	n/a
432.3945	0.096	864789	keystroke_Key.enter	Key.enter	n/a
432.4955	11.197	864991	prompt	n/a	correspondence entire promotional patrick\n
433.3385	0.104	866677	keystroke_c	c	n/a
433.5465	0.088	867093	keystroke_o	o	n/a
433.7145	0.048	867429	keystroke_r	r	n/a
433.8185	0.096	867637	keystroke_r	r	n/a
433.9785	0.072	867957	keystroke_e	e	n/a
434.1625	0.048	868325	keystroke_s	s	n/a
434.2665	0.112	868533	keystroke_p	p	n/a
434.3465	0.088	868693	keystroke_o	o	n/a
434.658	0.088	869316	keystroke_n	n	n/a
435.234	0.064	870468	keystroke_d	d	n/a
435.4185	0.0635	870837	keystroke_e	e	n/a
435.5145	0.08	871029	keystroke_n	n	n/a
435.802	0.136	871604	keystroke_c	c	n/a
435.922	0.08	871844	keystroke_e	e	n/a
436.058	0.096	872116	keystroke_Key.space	Key.space	n/a
436.498	0.064	872996	keystroke_e	e	n/a
436.602	0.0645	873204	keystroke_n	n	n/a
436.7385	0.048	873477	keystroke_t	t	n/a
436.834	0.0965	873668	keystroke_i	i	n/a
436.97	0.128	873940	keystroke_r	r	n/a
437.058	0.088	874116	keystroke_e	e	n/a
437.1705	0.08	874341	keystroke_Key.space	Key.space	n/a
437.642	0.0965	875284	keystroke_p	p	n/a
437.8825	0.072	875765	keystroke_r	r	n/a
437.9785	0.064	875957	keystroke_o	o	n/a
438.1705	0.0715	876341	keystroke_m	m	n/a
438.338	0.0885	876676	keystroke_o	o	n/a
438.49	0.072	876980	keystroke_t	t	n/a
438.7465	0.1035	877493	keystroke_i	i	n/a
438.9065	0.1195	877813	keystroke_o	o	n/a
439.1065	0.08	878213	keystroke_n	n	n/a
439.274	0.0885	878548	keystroke_a	a	n/a
439.3785	0.1125	878757	keystroke_l	l	n/a
439.611	0.072	879222	keystroke_Key.space	Key.space	n/a
440.267	0.072	880534	keystroke_p	p	n/a
440.507	0.136	881014	keystroke_a	a	n/a
440.595	0.08	881190	keystroke_r	r	n/a
440.827	0.04	881654	keystroke_t	t	n/a
441.059	0.08	882118	keystroke_Key.backspace	Key.backspace	n/a
441.235	0.08	882470	keystroke_Key.backspace	Key.backspace	n/a
441.9385	0.064	883877	keystroke_t	t	n/a
442.1225	0.064	884245	keystroke_r	r	n/a
442.2265	0.08	884453	keystroke_i	i	n/a
443.1145	0.08	886229	keystroke_c	c	n/a
443.2025	0.072	886405	keystroke_k	k	n/a
443.5945	0.096	887189	keystroke_Key.enter	Key.enter	n/a
443.6965	9.06	887393	prompt	n/a	ghana conferences training washing\n
445.0345	0.056	890069	keystroke_g	g	n/a
445.1545	0.056	890309	keystroke_h	h	n/a
445.2985	0.072	890597	keystroke_a	a	n/a
445.4905	0.064	890981	keystroke_n	n	n/a
445.6745	0.072	891349	keystroke_a	a	n/a
446.1785	0.072	892357	keystroke_Key.space	Key.space	n/a
446.7305	0.064	893461	keystroke_c	c	n/a
446.8505	0.128	893701	keystroke_o	o	n/a
446.9465	0.096	893893	keystroke_n	n	n/a
447.1625	0.048	894325	keystroke_v	v	n/a
447.5705	0.096	895141	keystroke_Key.backspace	Key.backspace	n/a
447.7225	0.072	895445	keystroke_f	f	n/a
447.8985	0.112	895797	keystroke_e	e	n/a
448.0105	0.064	896021	keystroke_r	r	n/a
448.1705	0.064	896341	keystroke_e	e	n/a
448.2745	0.088	896549	keystroke_n	n	n/a
448.4825	0.128	896965	keystroke_c	c	n/a
448.5785	0.072	897157	keystroke_e	e	n/a
448.7865	0.072	897573	keystroke_s	s	n/a
448.922	0.088	897844	keystroke_Key.space	Key.space	n/a
449.6025	0.064	899205	keystroke_t	t	n/a
449.7705	0.064	899541	keystroke_r	r	n/a
449.9705	0.08	899941	keystroke_a	a	n/a
450.0825	0.128	900165	keystroke_i	i	n/a
450.1865	0.088	900373	keystroke_n	n	n/a
450.3705	0.128	900741	keystroke_i	i	n/a
450.4585	0.104	900917	keystroke_n	n	n/a
450.5465	0.08	901093	keystroke_g	g	n/a
450.6745	0.08	901349	keystroke_Key.space	Key.space	n/a
451.3465	0.056	902693	keystroke_w	w	n/a
451.515	0.088	903030	keystroke_a	a	n/a
451.6105	0.056	903221	keystroke_s	s	n/a
451.827	0.08	903654	keystroke_h	h	n/a
451.9545	0.152	903909	keystroke_i	i	n/a
452.0745	0.104	904149	keystroke_n	n	n/a
452.2185	0.08	904437	keystroke_g	g	n/a
452.6745	0.08	905349	keystroke_Key.enter	Key.enter	n/a
452.7595	6.8285	905519	prompt	n/a	feed cumulative assumes trim\n
453.65	0.08	907300	keystroke_f	f	n/a
453.834	0.0485	907668	keystroke_e	e	n/a
453.9385	0.064	907877	keystroke_e	e	n/a
454.0905	0.096	908181	keystroke_d	d	n/a
454.2025	0.08	908405	keystroke_Key.space	Key.space	n/a
454.5145	0.08	909029	keystroke_c	c	n/a
454.7145	0.072	909429	keystroke_u	u	n/a
454.9465	0.064	909893	keystroke_m	m	n/a
455.1385	0.064	910277	keystroke_u	u	n/a
455.314	0.08	910628	keystroke_l	l	n/a
455.426	0.112	910852	keystroke_a	a	n/a
455.602	0.08	911204	keystroke_t	t	n/a
455.73	0.088	911460	keystroke_i	i	n/a
455.93	0.08	911860	keystroke_v	v	n/a
456.106	0.08	912212	keystroke_e	e	n/a
456.234	0.072	912468	keystroke_Key.space	Key.space	n/a
456.578	0.0885	913156	keystroke_a	a	n/a
456.7705	0.056	913541	keystroke_s	s	n/a
456.8745	0.0795	913749	keystroke_s	s	n/a
456.986	0.08	913972	keystroke_u	u	n/a
457.21	0.064	914420	keystroke_m	m	n/a
457.282	0.056	914564	keystroke_e	e	n/a
457.467	0.095	914934	keystroke_s	s	n/a
457.594	0.08	915188	keystroke_Key.space	Key.space	n/a
458.5785	0.08	917157	keystroke_t	t	n/a
458.7855	0.0805	917571	keystroke_r	r	n/a
458.954	0.08	917908	keystroke_i	i	n/a
459.138	0.08	918276	keystroke_m	m	n/a
459.498	0.088	918996	keystroke_Key.enter	Key.enter	n/a
459.591	6.8925	919182	prompt	n/a	determines lived valentine press\n
460.5135	0.072	921027	keystroke_d	d	n/a
460.9465	0.072	921893	keystroke_e	e	n/a
461.1465	0.064	922293	keystroke_t	t	n/a
461.3145	0.104	922629	keystroke_e	e	n/a
461.5145	0.08	923029	keystroke_r	r	n/a
461.7705	0.056	923541	keystroke_m	m	n/a
461.9465	0.12	923893	keystroke_i	i	n/a
462.0345	0.088	924069	keystroke_n	n	n/a
462.266	0.056	924532	keystroke_e	e	n/a
462.442	0.088	924884	keystroke_s	s	n/a
462.626	0.08	925252	keystroke_Key.space	Key.space	n/a
463.258	0.056	926516	keystroke_v	v	n/a
463.418	0.072	926836	keystroke_a	a	n/a
463.514	0.096	927028	keystroke_l	l	n/a
463.658	0.064	927316	keystroke_e	e	n/a
463.786	0.064	927572	keystroke_n	n	n/a
463.938	0.12	927876	keystroke_t	t	n/a
464.626	0.064	929252	keystroke_i	i	n/a
464.834	0.0805	929668	keystroke_n	n	n/a
465.1305	0.08	930261	keystroke_e	e	n/a
465.3065	0.072	930613	keystroke_Key.space	Key.space	n/a
465.5865	0.104	931173	keystroke_p	p	n/a
465.7145	0.12	931429	keystroke_r	r	n/a
465.7865	0.095	931573	keystroke_e	e	n/a
466.0185	0.048	932037	keystroke_s	s	n/a
466.122	0.0885	932244	keystroke_s	s	n/a
466.3865	0.096	932773	keystroke_Key.enter	Key.enter	n/a
466.4865	8.8855	932973	prompt	n/a	universities courier surplus maiden\n
467.906	0.072	935812	keystroke_u	u	n/a
468.09	0.072	936180	keystroke_n	n	n/a
468.234	0.08	936468	keystroke_i	i	n/a
468.554	0.056	937108	keystroke_v	v	n/a
468.698	0.096	937396	keystroke_e	e	n/a
468.77	0.08	937540	keystroke_r	r	n/a
468.9705	0.071	937941	keystroke_s	s	n/a
469.0745	0.088	938149	keystroke_i	i	n/a
469.2175	0.065	938435	keystroke_t	t	n/a
469.2985	0.112	938597	keystroke_i	i	n/a
469.4185	0.072	938837	keystroke_e	e	n/a
469.6185	0.064	939237	keystroke_s	s	n/a
469.6975	0.073	939395	keystroke_Key.space	Key.space	n/a
470.0905	0.08	940181	keystroke_c	c	n/a
470.29	0.136	940580	keystroke_o	o	n/a
470.37	0.112	940740	keystroke_u	u	n/a
470.602	0.064	941204	keystroke_r	r	n/a
470.73	0.104	941460	keystroke_i	i	n/a
470.866	0.064	941732	keystroke_e	e	n/a
471.058	0.08	942116	keystroke_r	r	n/a
471.178	0.088	942356	keystroke_Key.space	Key.space	n/a
471.7295	0.064	943459	keystroke_s	s	n/a
471.858	0.072	943716	keystroke_u	u	n/a
472.114	0.0635	944228	keystroke_r	r	n/a
472.3775	0.112	944755	keystroke_p	p	n/a
472.6175	0.096	945235	keystroke_l	l	n/a
472.8335	0.088	945667	keystroke_u	u	n/a
473.1135	0.0725	946227	keystroke_s	s	n/a
473.2735	0.072	946547	keystroke_Key.space	Key.space	n/a
474.0255	0.0805	948051	keystroke_m	m	n/a
474.1295	0.08	948259	keystroke_a	a	n/a
474.394	0.096	948788	keystroke_i	i	n/a
474.658	0.064	949316	keystroke_d	d	n/a
474.842	0.08	949684	keystroke_e	e	n/a
474.946	0.0795	949892	keystroke_n	n	n/a
475.2975	0.072	950595	keystroke_Key.enter	Key.enter	n/a
475.3745	7.645	950749	prompt	n/a	rely howdy warning versions\n
476.306	0.128	952612	keystroke_r	r	n/a
476.378	0.096	952756	keystroke_e	e	n/a
476.538	0.104	953076	keystroke_l	l	n/a
476.674	0.088	953348	keystroke_y	y	n/a
476.8425	0.0795	953685	keystroke_Key.space	Key.space	n/a
477.4745	0.056	954949	keystroke_h	h	n/a
477.634	0.104	955268	keystroke_o	o	n/a
477.7865	0.064	955573	keystroke_w	w	n/a
478.0825	0.0955	956165	keystroke_d	d	n/a
478.346	0.0725	956692	keystroke_y	y	n/a
478.4665	0.08	956933	keystroke_Key.space	Key.space	n/a
479.242	0.1205	958484	keystroke_w	w	n/a
479.5705	0.096	959141	keystroke_a	a	n/a
480.3625	0.055	960725	keystroke_r	r	n/a
480.5465	0.056	961093	keystroke_n	n	n/a
480.6985	0.136	961397	keystroke_i	i	n/a
480.7865	0.0875	961573	keystroke_n	n	n/a
480.9215	0.064	961843	keystroke_g	g	n/a
481.0175	0.08	962035	keystroke_Key.space	Key.space	n/a
481.8335	0.065	963667	keystroke_v	v	n/a
481.9935	0.08	963987	keystroke_e	e	n/a
482.0495	0.072	964099	keystroke_r	r	n/a
482.2265	0.071	964453	keystroke_s	s	n/a
482.3295	0.112	964659	keystroke_i	i	n/a
482.4095	0.112	964819	keystroke_o	o	n/a
482.5855	0.088	965171	keystroke_n	n	n/a
482.6975	0.072	965395	keystroke_s	s	n/a
482.9215	0.096	965843	keystroke_Key.enter	Key.enter	n/a
483.0245	11.931	966049	prompt	n/a	entities tube implications minneapolis\n
483.946	0.08	967892	keystroke_e	e	n/a
484.194	0.0635	968388	keystroke_n	n	n/a
484.3535	0.073	968707	keystroke_t	t	n/a
484.4665	0.079	968933	keystroke_i	i	n/a
484.6015	0.08	969203	keystroke_t	t	n/a
484.994	0.088	969988	keystroke_i	i	n/a
485.154	0.064	970308	keystroke_e	e	n/a
485.346	0.088	970692	keystroke_s	s	n/a
485.45	0.072	970900	keystroke_Key.space	Key.space	n/a
486.226	0.072	972452	keystroke_t	t	n/a
486.322	0.08	972644	keystroke_u	u	n/a
486.554	0.088	973108	keystroke_b	b	n/a
486.714	0.064	973428	keystroke_e	e	n/a
486.786	0.064	973572	keystroke_Key.space	Key.space	n/a
486.97	0.12	973940	keystroke_i	i	n/a
487.066	0.096	974132	keystroke_m	m	n/a
487.3055	0.104	974611	keystroke_p	p	n/a
487.3615	0.105	974723	keystroke_l	l	n/a
487.5855	0.0885	975171	keystroke_i	i	n/a
487.8015	0.064	975603	keystroke_c	c	n/a
487.8735	0.088	975747	keystroke_a	a	n/a
488.0575	0.064	976115	keystroke_t	t	n/a
488.1775	0.032	976355	keystroke_i	i	n/a
488.1935	0.096	976387	keystroke_o	o	n/a
489.4655	0.097	978931	keystroke_n	n	n/a
489.5945	0.096	979189	keystroke_s	s	n/a
489.7055	0.08	979411	keystroke_Key.space	Key.space	n/a
490.6255	0.064	981251	keystroke_m	m	n/a
490.8175	0.072	981635	keystroke_i	i	n/a
491.0415	0.048	982083	keystroke_n	n	n/a
491.1545	0.087	982309	keystroke_n	n	n/a
491.2815	0.081	982563	keystroke_e	e	n/a
491.4745	0.079	982949	keystroke_a	a	n/a
492.05	0.104	984100	keystroke_p	p	n/a
492.274	0.088	984548	keystroke_o	o	n/a
492.482	0.08	984964	keystroke_i	i	n/a
493.186	0.104	986372	keystroke_Key.backspace	Key.backspace	n/a
493.6975	0.088	987395	keystroke_l	l	n/a
493.9305	0.087	987861	keystroke_i	i	n/a
494.0735	0.081	988147	keystroke_s	s	n/a
494.8895	0.064	989779	keystroke_Key.enter	Key.enter	n/a
494.9585	9.3165	989917	prompt	n/a	chicago inspection oklahoma cards\n
495.9535	0.064	991907	keystroke_c	c	n/a
496.0495	0.064	992099	keystroke_h	h	n/a
496.1935	0.08	992387	keystroke_i	i	n/a
496.3375	0.08	992675	keystroke_c	c	n/a
496.4975	0.096	992995	keystroke_a	a	n/a
496.7535	0.12	993507	keystroke_g	g	n/a
496.9535	0.096	993907	keystroke_o	o	n/a
497.186	0.064	994372	keystroke_Key.space	Key.space	n/a
497.386	0.112	994772	keystroke_i	i	n/a
497.474	0.064	994948	keystroke_n	n	n/a
497.586	0.08	995172	keystroke_s	s	n/a
497.738	0.072	995476	keystroke_p	p	n/a
497.906	0.064	995812	keystroke_e	e	n/a
498.018	0.08	996036	keystroke_c	c	n/a
498.314	0.072	996628	keystroke_t	t	n/a
498.45	0.12	996900	keystroke_i	i	n/a
498.538	0.104	997076	keystroke_o	o	n/a
498.698	0.08	997396	keystroke_n	n	n/a
498.89	0.088	997780	keystroke_Key.space	Key.space	n/a
500.5215	0.088	1001043	keystroke_o	o	n/a
501.1775	0.072	1002355	keystroke_k	k	n/a
501.3855	0.064	1002771	keystroke_l	l	n/a
501.586	0.096	1003172	keystroke_a	a	n/a
501.81	0.064	1003620	keystroke_h	h	n/a
501.97	0.096	1003940	keystroke_o	o	n/a
502.178	0.072	1004356	keystroke_m	m	n/a
502.3455	0.08	1004691	keystroke_a	a	n/a
502.4735	0.072	1004947	keystroke_Key.space	Key.space	n/a
503.0815	0.088	1006163	keystroke_c	c	n/a
503.3295	0.072	1006659	keystroke_a	a	n/a
503.6895	0.056	1007379	keystroke_r	r	n/a
503.8815	0.152	1007763	keystroke_d	d	n/a
503.9855	0.104	1007971	keystroke_s	s	n/a
504.1935	0.08	1008387	keystroke_Key.enter	Key.enter	n/a
504.278	8.389	1008556	prompt	n/a	josh piece wide leaf\n
505.3215	0.064	1010643	keystroke_j	j	n/a
505.4735	0.096	1010947	keystroke_o	o	n/a
506.162	0.088	1012324	keystroke_s	s	n/a
506.242	0.088	1012484	keystroke_h	h	n/a
506.45	0.08	1012900	keystroke_Key.space	Key.space	n/a
506.906	0.1515	1013812	keystroke_p	p	n/a
508.0975	0.08	1016195	keystroke_i	i	n/a
508.2575	0.08	1016515	keystroke_e	e	n/a
508.4735	0.12	1016947	keystroke_c	c	n/a
508.6015	0.08	1017203	keystroke_e	e	n/a
508.7615	0.088	1017523	keystroke_Key.space	Key.space	n/a
509.1055	0.064	1018211	keystroke_w	w	n/a
509.7055	0.104	1019411	keystroke_a	a	n/a
510.3935	0.104	1020787	keystroke_Key.backspace	Key.backspace	n/a
510.6095	0.088	1021219	keystroke_i	i	n/a
510.9135	0.088	1021827	keystroke_d	d	n/a
511.0895	0.088	1022179	keystroke_e	e	n/a
511.2015	0.064	1022403	keystroke_Key.space	Key.space	n/a
511.9295	0.064	1023859	keystroke_l	l	n/a
512.0175	0.08	1024035	keystroke_e	e	n/a
512.2175	0.096	1024435	keystroke_a	a	n/a
512.4175	0.0715	1024835	keystroke_f	f	n/a
512.577	0.088	1025154	keystroke_Key.enter	Key.enter	n/a
512.67	9.325	1025340	prompt	n/a	belgium door districts opponent\n
513.833	0.056	1027666	keystroke_b	b	n/a
513.977	0.072	1027954	keystroke_e	e	n/a
514.177	0.088	1028354	keystroke_l	l	n/a
514.657	0.0645	1029314	keystroke_g	g	n/a
514.8015	0.0725	1029603	keystroke_i	i	n/a
514.986	0.072	1029972	keystroke_u	u	n/a
515.2095	0.064	1030419	keystroke_m	m	n/a
515.4255	0.072	1030851	keystroke_Key.space	Key.space	n/a
516.2415	0.096	1032483	keystroke_d	d	n/a
516.3855	0.056	1032771	keystroke_o	o	n/a
516.5135	0.096	1033027	keystroke_o	o	n/a
516.6495	0.072	1033299	keystroke_r	r	n/a
516.7775	0.064	1033555	keystroke_Key.space	Key.space	n/a
517.4575	0.072	1034915	keystroke_d	d	n/a
517.5535	0.064	1035107	keystroke_i	i	n/a
517.6815	0.08	1035363	keystroke_s	s	n/a
517.8815	0.0475	1035763	keystroke_t	t	n/a
518.0335	0.048	1036067	keystroke_r	r	n/a
518.1455	0.088	1036291	keystroke_i	i	n/a
518.2975	0.056	1036595	keystroke_c	c	n/a
518.5375	0.064	1037075	keystroke_t	t	n/a
518.7375	0.096	1037475	keystroke_s	s	n/a
518.9055	0.088	1037811	keystroke_Key.space	Key.space	n/a
519.553	0.0805	1039106	keystroke_o	o	n/a
519.7535	0.048	1039507	keystroke_p	p	n/a
519.8735	0.096	1039747	keystroke_p	p	n/a
519.9935	0.088	1039987	keystroke_o	o	n/a
520.2495	0.04	1040499	keystroke_n	n	n/a
520.8735	0.0875	1041747	keystroke_e	e	n/a
521.033	0.088	1042066	keystroke_n	n	n/a
521.137	0.08	1042274	keystroke_t	t	n/a
521.873	0.12	1043746	keystroke_Key.enter	Key.enter	n/a
521.9995	9.827	1043999	prompt	n/a	references writes boxing claim\n
522.945	0.128	1045890	keystroke_r	r	n/a
523.065	0.088	1046130	keystroke_e	e	n/a
523.249	0.064	1046498	keystroke_f	f	n/a
523.361	0.1125	1046722	keystroke_e	e	n/a
523.4655	0.072	1046931	keystroke_r	r	n/a
523.6095	0.088	1047219	keystroke_n	n	n/a
524.5055	0.096	1049011	keystroke_Key.backspace	Key.backspace	n/a
524.8895	0.096	1049779	keystroke_e	e	n/a
525.0015	0.096	1050003	keystroke_n	n	n/a
525.1695	0.136	1050339	keystroke_c	c	n/a
525.2655	0.08	1050531	keystroke_e	e	n/a
525.4655	0.128	1050931	keystroke_s	s	n/a
525.5855	0.088	1051171	keystroke_Key.space	Key.space	n/a
526.3695	0.08	1052739	keystroke_w	w	n/a
526.5375	0.088	1053075	keystroke_r	r	n/a
526.689	0.072	1053378	keystroke_i	i	n/a
526.785	0.1125	1053570	keystroke_t	t	n/a
526.873	0.0875	1053746	keystroke_e	e	n/a
527.0815	0.087	1054163	keystroke_s	s	n/a
527.1765	0.072	1054353	keystroke_Key.space	Key.space	n/a
528.081	0.0805	1056162	keystroke_b	b	n/a
529.1215	0.0715	1058243	keystroke_o	o	n/a
529.457	0.104	1058914	keystroke_x	x	n/a
529.681	0.136	1059362	keystroke_i	i	n/a
529.769	0.08	1059538	keystroke_n	n	n/a
529.857	0.064	1059714	keystroke_g	g	n/a
529.977	0.08	1059954	keystroke_Key.space	Key.space	n/a
530.721	0.08	1061442	keystroke_c	c	n/a
530.857	0.0635	1061714	keystroke_l	l	n/a
531.0485	0.0645	1062097	keystroke_a	a	n/a
531.185	0.104	1062370	keystroke_i	i	n/a
531.297	0.104	1062594	keystroke_m	m	n/a
531.745	0.08	1063490	keystroke_Key.enter	Key.enter	n/a
531.8295	10.485	1063659	prompt	n/a	current generated who's beside\n
532.633	0.104	1065266	keystroke_c	c	n/a
532.833	0.088	1065666	keystroke_u	u	n/a
532.985	0.048	1065970	keystroke_r	r	n/a
533.089	0.088	1066178	keystroke_r	r	n/a
533.249	0.088	1066498	keystroke_e	e	n/a
533.377	0.08	1066754	keystroke_n	n	n/a
534.3055	0.0795	1068611	keystroke_t	t	n/a
534.561	0.08	1069122	keystroke_Key.space	Key.space	n/a
535.265	0.064	1070530	keystroke_g	g	n/a
535.449	0.056	1070898	keystroke_e	e	n/a
535.561	0.064	1071122	keystroke_n	n	n/a
535.641	0.104	1071282	keystroke_e	e	n/a
535.729	0.088	1071458	keystroke_r	r	n/a
535.889	0.096	1071778	keystroke_a	a	n/a
536.049	0.112	1072098	keystroke_t	t	n/a
536.145	0.056	1072290	keystroke_e	e	n/a
536.313	0.1115	1072626	keystroke_d	d	n/a
536.4405	0.08	1072881	keystroke_Key.space	Key.space	n/a
537.0245	0.073	1074049	keystroke_w	w	n/a
537.2805	0.121	1074561	keystroke_h	h	n/a
537.3365	0.129	1074673	keystroke_o	o	n/a
537.7765	0.056	1075553	keystroke_;	;	n/a
538.497	0.072	1076994	keystroke_s	s	n/a
538.857	0.072	1077714	keystroke_Key.backspace	Key.backspace	n/a
539.025	0.088	1078050	keystroke_Key.backspace	Key.backspace	n/a
539.8005	0.088	1079601	keystroke_'	'	n/a
540.0805	0.096	1080161	keystroke_s	s	n/a
540.3205	0.072	1080641	keystroke_Key.space	Key.space	n/a
541.081	0.0555	1082162	keystroke_b	b	n/a
541.1605	0.056	1082321	keystroke_e	e	n/a
541.3525	0.08	1082705	keystroke_s	s	n/a
541.4965	0.08	1082993	keystroke_i	i	n/a
541.5525	0.08	1083105	keystroke_d	d	n/a
541.7205	0.072	1083441	keystroke_e	e	n/a
542.241	0.072	1084482	keystroke_Key.enter	Key.enter	n/a
542.3175	7.389	1084635	prompt	n/a	mods lawrence laos you'll\n
543.1685	0.112	1086337	keystroke_m	m	n/a
543.2565	0.104	1086513	keystroke_o	o	n/a
543.5765	0.144	1087153	keystroke_d	d	n/a
543.6645	0.128	1087329	keystroke_s	s	n/a
543.8565	0.08	1087713	keystroke_Key.space	Key.space	n/a
544.1765	0.096	1088353	keystroke_l	l	n/a
544.3045	0.08	1088609	keystroke_a	a	n/a
544.5605	0.072	1089121	keystroke_w	w	n/a
544.8085	0.0645	1089617	keystroke_r	r	n/a
544.985	0.072	1089970	keystroke_e	e	n/a
545.089	0.072	1090178	keystroke_n	n	n/a
545.2805	0.136	1090561	keystroke_c	c	n/a
545.3685	0.097	1090737	keystroke_e	e	n/a
545.5365	0.096	1091073	keystroke_Key.space	Key.space	n/a
546.5605	0.088	1093121	keystroke_l	l	n/a
546.7445	0.088	1093489	keystroke_a	a	n/a
546.9365	0.12	1093873	keystroke_o	o	n/a
547.6405	0.088	1095281	keystroke_s	s	n/a
547.7685	0.088	1095537	keystroke_Key.space	Key.space	n/a
548.377	0.0795	1096754	keystroke_y	y	n/a
548.4575	0.135	1096915	keystroke_o	o	n/a
548.5365	0.12	1097073	keystroke_u	u	n/a
548.8485	0.112	1097697	keystroke_'	'	n/a
549.1045	0.072	1098209	keystroke_l	l	n/a
549.2405	0.096	1098481	keystroke_l	l	n/a
549.6325	0.0725	1099265	keystroke_Key.enter	Key.enter	n/a
549.709	7.7175	1099418	prompt	n/a	edit woods essays burlington\n
550.577	0.056	1101154	keystroke_e	e	n/a
550.737	0.08	1101474	keystroke_d	d	n/a
550.833	0.0875	1101666	keystroke_i	i	n/a
550.9925	0.104	1101985	keystroke_t	t	n/a
551.1445	0.056	1102289	keystroke_Key.space	Key.space	n/a
551.497	0.12	1102994	keystroke_w	w	n/a
551.657	0.072	1103314	keystroke_o	o	n/a
551.809	0.096	1103618	keystroke_o	o	n/a
552.3205	0.144	1104641	keystroke_d	d	n/a
552.4165	0.104	1104833	keystroke_s	s	n/a
552.6005	0.088	1105201	keystroke_Key.space	Key.space	n/a
553.2965	0.072	1106593	keystroke_e	e	n/a
553.489	0.056	1106978	keystroke_s	s	n/a
553.593	0.064	1107186	keystroke_s	s	n/a
553.745	0.104	1107490	keystroke_a	a	n/a
553.977	0.072	1107954	keystroke_y	y	n/a
554.257	0.08	1108514	keystroke_s	s	n/a
554.593	0.064	1109186	keystroke_Key.space	Key.space	n/a
555.209	0.064	1110418	keystroke_b	b	n/a
555.425	0.088	1110850	keystroke_u	u	n/a
555.7125	0.0885	1111425	keystroke_r	r	n/a
555.881	0.08	1111762	keystroke_l	l	n/a
556.1045	0.072	1112209	keystroke_i	i	n/a
556.3445	0.056	1112689	keystroke_n	n	n/a
556.4885	0.072	1112977	keystroke_g	g	n/a
556.7125	0.088	1113425	keystroke_t	t	n/a
556.8165	0.112	1113633	keystroke_o	o	n/a
556.9205	0.0795	1113841	keystroke_n	n	n/a
557.3205	0.104	1114641	keystroke_Key.enter	Key.enter	n/a
557.4305	10.0015	1114861	prompt	n/a	christine disable plaza removable\n
558.2565	0.08	1116513	keystroke_c	c	n/a
558.4325	0.072	1116865	keystroke_h	h	n/a
558.6085	0.072	1117217	keystroke_r	r	n/a
558.7365	0.072	1117473	keystroke_i	i	n/a
558.9445	0.064	1117889	keystroke_s	s	n/a
559.1525	0.048	1118305	keystroke_t	t	n/a
559.2645	0.144	1118529	keystroke_i	i	n/a
559.3685	0.112	1118737	keystroke_n	n	n/a
559.5925	0.072	1119185	keystroke_e	e	n/a
559.6725	0.0805	1119345	keystroke_Key.space	Key.space	n/a
561.577	0.064	1123154	keystroke_d	d	n/a
561.649	0.072	1123298	keystroke_i	i	n/a
561.761	0.064	1123522	keystroke_s	s	n/a
561.945	0.104	1123890	keystroke_a	a	n/a
562.089	0.072	1124178	keystroke_b	b	n/a
562.313	0.104	1124626	keystroke_l	l	n/a
562.417	0.08	1124834	keystroke_e	e	n/a
562.593	0.064	1125186	keystroke_Key.space	Key.space	n/a
563.1845	0.08	1126369	keystroke_p	p	n/a
563.4165	0.096	1126833	keystroke_l	l	n/a
563.5925	0.096	1127185	keystroke_a	a	n/a
563.9925	0.096	1127985	keystroke_z	z	n/a
564.2165	0.0965	1128433	keystroke_a	a	n/a
564.569	0.104	1129138	keystroke_Key.space	Key.space	n/a
565.241	0.12	1130482	keystroke_r	r	n/a
565.329	0.08	1130658	keystroke_e	e	n/a
565.473	0.072	1130946	keystroke_m	m	n/a
565.601	0.104	1131202	keystroke_o	o	n/a
566.225	0.056	1132450	keystroke_v	v	n/a
566.465	0.064	1132930	keystroke_a	a	n/a
566.641	0.056	1133282	keystroke_b	b	n/a
566.841	0.096	1133682	keystroke_l	l	n/a
566.953	0.0715	1133906	keystroke_e	e	n/a
567.3365	0.088	1134673	keystroke_Key.enter	Key.enter	n/a
567.436	6.9665	1134872	prompt	n/a	signature switched instances lived\n
568.2805	0.064	1136561	keystroke_s	s	n/a
568.3925	0.08	1136785	keystroke_i	i	n/a
568.5605	0.048	1137121	keystroke_g	g	n/a
568.6485	0.064	1137297	keystroke_n	n	n/a
568.8245	0.08	1137649	keystroke_a	a	n/a
569.0325	0.064	1138065	keystroke_t	t	n/a
569.1445	0.104	1138289	keystroke_u	u	n/a
569.3125	0.152	1138625	keystroke_r	r	n/a
569.4005	0.112	1138801	keystroke_e	e	n/a
569.5205	0.088	1139041	keystroke_Key.space	Key.space	n/a
569.8725	0.072	1139745	keystroke_s	s	n/a
570.1045	0.048	1140209	keystroke_w	w	n/a
570.2005	0.096	1140401	keystroke_i	i	n/a
570.3285	0.072	1140657	keystroke_t	t	n/a
570.5605	0.064	1141121	keystroke_c	c	n/a
570.6565	0.072	1141313	keystroke_h	h	n/a
570.7845	0.08	1141569	keystroke_e	e	n/a
570.968	0.088	1141936	keystroke_d	d	n/a
571.4165	0.072	1142833	keystroke_Key.space	Key.space	n/a
571.6885	0.112	1143377	keystroke_i	i	n/a
571.7605	0.08	1143521	keystroke_n	n	n/a
571.8885	0.064	1143777	keystroke_s	s	n/a
572.0485	0.056	1144097	keystroke_t	t	n/a
572.2325	0.08	1144465	keystroke_a	a	n/a
572.3445	0.072	1144689	keystroke_n	n	n/a
572.4805	0.112	1144961	keystroke_c	c	n/a
572.5605	0.08	1145121	keystroke_e	e	n/a
572.7605	0.064	1145521	keystroke_s	s	n/a
572.8405	0.088	1145681	keystroke_Key.space	Key.space	n/a
573.4005	0.144	1146801	keystroke_l	l	n/a
573.4885	0.12	1146977	keystroke_i	i	n/a
573.8005	0.072	1147601	keystroke_v	v	n/a
573.9445	0.08	1147889	keystroke_e	e	n/a
574.1205	0.104	1148241	keystroke_d	d	n/a
574.3125	0.088	1148625	keystroke_Key.enter	Key.enter	n/a
574.4055	8.9965	1148811	prompt	n/a	velocity shed punishment constructed\n
575.2725	0.064	1150545	keystroke_v	v	n/a
575.4725	0.072	1150945	keystroke_e	e	n/a
575.6245	0.08	1151249	keystroke_l	l	n/a
575.9205	0.08	1151841	keystroke_o	o	n/a
576.2165	0.056	1152433	keystroke_c	c	n/a
576.3525	0.08	1152705	keystroke_i	i	n/a
576.4645	0.072	1152929	keystroke_t	t	n/a
576.6405	0.088	1153281	keystroke_y	y	n/a
576.7525	0.064	1153505	keystroke_Key.space	Key.space	n/a
577.168	0.072	1154336	keystroke_s	s	n/a
577.648	0.096	1155296	keystroke_h	h	n/a
577.808	0.064	1155616	keystroke_e	e	n/a
577.9845	0.088	1155969	keystroke_d	d	n/a
578.0885	0.088	1156177	keystroke_Key.space	Key.space	n/a
578.8565	0.128	1157713	keystroke_p	p	n/a
578.9525	0.0875	1157905	keystroke_u	u	n/a
579.168	0.064	1158336	keystroke_n	n	n/a
579.2965	0.096	1158593	keystroke_i	i	n/a
579.4885	0.072	1158977	keystroke_s	s	n/a
579.6325	0.08	1159265	keystroke_h	h	n/a
579.8165	0.064	1159633	keystroke_m	m	n/a
579.9125	0.072	1159825	keystroke_e	e	n/a
580.0245	0.08	1160049	keystroke_n	n	n/a
580.1285	0.08	1160257	keystroke_t	t	n/a
580.2485	0.08	1160497	keystroke_Key.space	Key.space	n/a
581.1045	0.064	1162209	keystroke_c	c	n/a
581.3205	0.1275	1162641	keystroke_o	o	n/a
581.4245	0.0795	1162849	keystroke_n	n	n/a
581.8405	0.079	1163681	keystroke_s	s	n/a
581.9925	0.072	1163985	keystroke_t	t	n/a
582.1605	0.0635	1164321	keystroke_r	r	n/a
582.28	0.0885	1164560	keystroke_u	u	n/a
582.4165	0.0715	1164833	keystroke_c	c	n/a
582.624	0.112	1165248	keystroke_t	t	n/a
582.728	0.088	1165456	keystroke_e	e	n/a
582.92	0.08	1165840	keystroke_d	d	n/a
583.336	0.064	1166672	keystroke_Key.enter	Key.enter	n/a
583.4065	8.6435	1166813	prompt	n/a	workers willing whereas parliament\n
584.152	0.072	1168304	keystroke_w	w	n/a
584.24	0.096	1168480	keystroke_o	o	n/a
584.352	0.08	1168704	keystroke_r	r	n/a
584.536	0.12	1169072	keystroke_k	k	n/a
584.76	0.072	1169520	keystroke_e	e	n/a
584.968	0.072	1169936	keystroke_r	r	n/a
585.144	0.088	1170288	keystroke_s	s	n/a
585.264	0.088	1170528	keystroke_Key.space	Key.space	n/a
586.456	0.088	1172912	keystroke_w	w	n/a
586.552	0.072	1173104	keystroke_i	i	n/a
586.752	0.056	1173504	keystroke_l	l	n/a
586.864	0.0565	1173728	keystroke_l	l	n/a
587.0565	0.096	1174113	keystroke_i	i	n/a
587.1205	0.072	1174241	keystroke_n	n	n/a
587.2165	0.056	1174433	keystroke_g	g	n/a
587.2965	0.08	1174593	keystroke_Key.space	Key.space	n/a
587.4965	0.072	1174993	keystroke_w	w	n/a
587.6165	0.08	1175233	keystroke_h	h	n/a
587.7365	0.12	1175473	keystroke_e	e	n/a
587.8645	0.152	1175729	keystroke_r	r	n/a
588.0005	0.104	1176001	keystroke_e	e	n/a
588.2725	0.104	1176545	keystroke_a	a	n/a
588.8965	0.072	1177793	keystroke_s	s	n/a
589.016	0.072	1178032	keystroke_Key.space	Key.space	n/a
589.904	0.088	1179808	keystroke_p	p	n/a
590.2965	0.08	1180593	keystroke_a	a	n/a
590.4805	0.064	1180961	keystroke_r	r	n/a
590.6085	0.136	1181217	keystroke_l	l	n/a
590.6965	0.088	1181393	keystroke_i	i	n/a
590.88	0.072	1181760	keystroke_a	a	n/a
591	0.064	1182000	keystroke_m	m	n/a
591.24	0.112	1182480	keystroke_e	e	n/a
591.36	0.08	1182720	keystroke_n	n	n/a
591.465	0.1035	1182930	keystroke_t	t	n/a
591.9525	0.096	1183905	keystroke_Key.enter	Key.enter	n/a
592.0525	6.293	1184105	prompt	n/a	regard compact essay text\n
592.944	0.112	1185888	keystroke_r	r	n/a
593	0.096	1186000	keystroke_e	e	n/a
593.192	0.072	1186384	keystroke_g	g	n/a
593.368	0.104	1186736	keystroke_a	a	n/a
593.432	0.072	1186864	keystroke_r	r	n/a
593.608	0.104	1187216	keystroke_d	d	n/a
593.768	0.08	1187536	keystroke_Key.space	Key.space	n/a
594.3125	0.087	1188625	keystroke_c	c	n/a
594.4715	0.112	1188943	keystroke_o	o	n/a
594.5595	0.072	1189119	keystroke_m	m	n/a
594.7285	0.095	1189457	keystroke_p	p	n/a
594.8885	0.087	1189777	keystroke_a	a	n/a
595.0475	0.08	1190095	keystroke_c	c	n/a
595.2955	0.088	1190591	keystroke_t	t	n/a
595.4475	0.064	1190895	keystroke_Key.space	Key.space	n/a
595.9675	0.088	1191935	keystroke_e	e	n/a
596.1835	0.057	1192367	keystroke_s	s	n/a
596.2875	0.08	1192575	keystroke_s	s	n/a
596.4315	0.104	1192863	keystroke_a	a	n/a
596.6635	0.1205	1193327	keystroke_y	y	n/a
596.96	0.0635	1193920	keystroke_Key.space	Key.space	n/a
597.3835	0.088	1194767	keystroke_t	t	n/a
597.4555	0.0965	1194911	keystroke_e	e	n/a
597.776	0.0885	1195552	keystroke_x	x	n/a
598	0.096	1196000	keystroke_t	t	n/a
598.248	0.096	1196496	keystroke_Key.enter	Key.enter	n/a
598.349	8.573	1196698	prompt	n/a	nail rendering photograph alias\n
599.28	0.064	1198560	keystroke_m	m	n/a
599.64	0.096	1199280	keystroke_Key.backspace	Key.backspace	n/a
599.9045	0.072	1199809	keystroke_n	n	n/a
600.0245	0.0875	1200049	keystroke_a	a	n/a
600.112	0.08	1200224	keystroke_i	i	n/a
600.296	0.08	1200592	keystroke_l	l	n/a
600.488	0.072	1200976	keystroke_Key.space	Key.space	n/a
601.072	0.0725	1202144	keystroke_r	r	n/a
601.2085	0.096	1202417	keystroke_e	e	n/a
601.4645	0.08	1202929	keystroke_n	n	n/a
602.312	0.064	1204624	keystroke_d	d	n/a
602.4965	0.112	1204993	keystroke_e	e	n/a
602.5915	0.08	1205183	keystroke_r	r	n/a
602.7115	0.136	1205423	keystroke_i	i	n/a
602.7915	0.104	1205583	keystroke_n	n	n/a
602.9125	0.1035	1205825	keystroke_g	g	n/a
603.032	0.08	1206064	keystroke_Key.space	Key.space	n/a
603.424	0.096	1206848	keystroke_p	p	n/a
603.704	0.072	1207408	keystroke_h	h	n/a
603.896	0.104	1207792	keystroke_o	o	n/a
604.112	0.056	1208224	keystroke_t	t	n/a
604.208	0.104	1208416	keystroke_o	o	n/a
604.464	0.048	1208928	keystroke_g	g	n/a
604.624	0.04	1209248	keystroke_r	r	n/a
604.784	0.088	1209568	keystroke_a	a	n/a
604.888	0.096	1209776	keystroke_p	p	n/a
605.104	0.0795	1210208	keystroke_h	h	n/a
605.3275	0.072	1210655	keystroke_Key.space	Key.space	n/a
605.6235	0.089	1211247	keystroke_a	a	n/a
605.7915	0.144	1211583	keystroke_l	l	n/a
605.8645	0.103	1211729	keystroke_i	i	n/a
606.0955	0.08	1212191	keystroke_a	a	n/a
606.3195	0.08	1212639	keystroke_s	s	n/a
606.8395	0.081	1213679	keystroke_Key.enter	Key.enter	n/a
606.9245	8.413	1213849	prompt	n/a	resulted owned excited guidance\n
607.7285	0.096	1215457	keystroke_r	r	n/a
607.7925	0.056	1215585	keystroke_e	e	n/a
607.976	0.056	1215952	keystroke_s	s	n/a
608.0715	0.064	1216143	keystroke_u	u	n/a
608.216	0.104	1216432	keystroke_l	l	n/a
608.3435	0.0725	1216687	keystroke_t	t	n/a
608.512	0.032	1217024	keystroke_e	e	n/a
608.664	0.064	1217328	keystroke_d	d	n/a
608.76	0.08	1217520	keystroke_Key.space	Key.space	n/a
609.248	0.088	1218496	keystroke_o	o	n/a
609.544	0.072	1219088	keystroke_w	w	n/a
609.736	0.0725	1219472	keystroke_n	n	n/a
609.8555	0.081	1219711	keystroke_e	e	n/a
610.0555	0.089	1220111	keystroke_d	d	n/a
610.1675	0.088	1220335	keystroke_Key.space	Key.space	n/a
611.712	0.072	1223424	keystroke_e	e	n/a
611.912	0.072	1223824	keystroke_x	x	n/a
612.072	0.08	1224144	keystroke_c	c	n/a
612.192	0.096	1224384	keystroke_i	i	n/a
612.376	0.112	1224752	keystroke_t	t	n/a
612.432	0.08	1224864	keystroke_e	e	n/a
612.616	0.08	1225232	keystroke_d	d	n/a
612.752	0.072	1225504	keystroke_Key.space	Key.space	n/a
613.7035	0.128	1227407	keystroke_g	g	n/a
613.7675	0.112	1227535	keystroke_u	u	n/a
613.9835	0.096	1227967	keystroke_i	i	n/a
614.1195	0.072	1228239	keystroke_d	d	n/a
614.3115	0.072	1228623	keystroke_a	a	n/a
614.4235	0.064	1228847	keystroke_n	n	n/a
614.5355	0.145	1229071	keystroke_c	c	n/a
614.6395	0.128	1229279	keystroke_e	e	n/a
615.2635	0.072	1230527	keystroke_Key.enter	Key.enter	n/a
615.34	7.0375	1230680	prompt	n/a	bottles then tone cliff\n
616.1835	0.056	1232367	keystroke_b	b	n/a
616.3595	0.096	1232719	keystroke_o	o	n/a
616.5515	0.064	1233103	keystroke_t	t	n/a
616.6555	0.096	1233311	keystroke_t	t	n/a
616.7915	0.1125	1233583	keystroke_l	l	n/a
616.896	0.08	1233792	keystroke_e	e	n/a
617.376	0.056	1234752	keystroke_s	s	n/a
617.48	0.088	1234960	keystroke_Key.space	Key.space	n/a
618	0.056	1236000	keystroke_t	t	n/a
618.104	0.096	1236208	keystroke_h	h	n/a
618.216	0.088	1236432	keystroke_e	e	n/a
618.32	0.08	1236640	keystroke_n	n	n/a
618.496	0.088	1236992	keystroke_Key.space	Key.space	n/a
619.576	0.024	1239152	keystroke_t	t	n/a
619.624	0.088	1239248	keystroke_o	o	n/a
619.824	0.08	1239648	keystroke_n	n	n/a
619.952	0.048	1239904	keystroke_e	e	n/a
620.024	0.0805	1240048	keystroke_Key.space	Key.space	n/a
620.216	0.072	1240432	keystroke_c	c	n/a
620.328	0.096	1240656	keystroke_l	l	n/a
620.544	0.1195	1241088	keystroke_i	i	n/a
620.6955	0.088	1241391	keystroke_p	p	n/a
621.04	0.12	1242080	keystroke_Key.backspace	Key.backspace	n/a
621.808	0.048	1243616	keystroke_f	f	n/a
621.936	0.088	1243872	keystroke_f	f	n/a
622.296	0.08	1244592	keystroke_Key.enter	Key.enter	n/a
622.38	7.6935	1244760	prompt	n/a	finder consent configure paragraphs\n
623.352	0.08	1246704	keystroke_f	f	n/a
623.472	0.112	1246944	keystroke_i	i	n/a
623.552	0.08	1247104	keystroke_n	n	n/a
623.76	0.08	1247520	keystroke_d	d	n/a
623.96	0.096	1247920	keystroke_e	e	n/a
624.048	0.088	1248096	keystroke_r	r	n/a
624.16	0.0955	1248320	keystroke_Key.space	Key.space	n/a
624.7515	0.08	1249503	keystroke_c	c	n/a
624.8555	0.112	1249711	keystroke_o	o	n/a
624.9355	0.072	1249871	keystroke_n	n	n/a
625.1275	0.056	1250255	keystroke_s	s	n/a
625.3115	0.088	1250623	keystroke_e	e	n/a
625.4235	0.072	1250847	keystroke_n	n	n/a
625.5195	0.088	1251039	keystroke_t	t	n/a
625.6475	0.088	1251295	keystroke_Key.space	Key.space	n/a
626.3275	0.08	1252655	keystroke_c	c	n/a
626.4315	0.104	1252863	keystroke_o	o	n/a
