onset	duration	sample	value	key	prompt_text
21.1755	14.003	42351	prompt	n/a	the quick brown fox jumps over a lazy dog\n
23.719	0.087	47438	keystroke_t	t	n/a
23.821	0.135	47642	keystroke_h	h	n/a
23.941	0.134	47882	keystroke_e	e	n/a
24.091	0.119	48182	keystroke_Key.space	Key.space	n/a
24.3755	0.135	48751	keystroke_q	q	n/a
24.4955	0.165	48991	keystroke_u	u	n/a
24.5855	0.105	49171	keystroke_i	i	n/a
24.736	0.135	49472	keystroke_c	c	n/a
24.856	0.18	49712	keystroke_k	k	n/a
24.991	0.09	49982	keystroke_Key.space	Key.space	n/a
25.9505	0.09	51901	keystroke_b	b	n/a
26.206	0.1055	52412	keystroke_r	r	n/a
26.371	0.119	52742	keystroke_o	o	n/a
26.476	0.074	52952	keystroke_w	w	n/a
26.6855	0.1505	53371	keystroke_n	n	n/a
26.866	0.1195	53732	keystroke_Key.space	Key.space	n/a
27.0315	0.105	54063	keystroke_f	f	n/a
27.1805	0.151	54361	keystroke_o	o	n/a
27.3155	0.1355	54631	keystroke_x	x	n/a
27.496	0.1195	54992	keystroke_Key.space	Key.space	n/a
27.8565	0.104	55713	keystroke_j	j	n/a
28.0815	0.075	56163	keystroke_u	u	n/a
28.3055	0.105	56611	keystroke_m	m	n/a
28.3805	0.15	56761	keystroke_p	p	n/a
28.5455	0.105	57091	keystroke_s	s	n/a
28.7555	0.09	57511	keystroke_Key.space	Key.space	n/a
28.9655	0.135	57931	keystroke_o	o	n/a
29.0855	0.135	58171	keystroke_v	v	n/a
29.2355	0.165	58471	keystroke_e	e	n/a
29.3555	0.135	58711	keystroke_r	r	n/a
29.5955	0.105	59191	keystroke_Key.space	Key.space	n/a
29.9705	0.135	59941	keystroke_l	l	n/a
30.1205	0.09	60241	keystroke_a	a	n/a
30.436	0.15	60872	keystroke_z	z	n/a
30.9005	0.075	61801	keystroke_Key.backspace	Key.backspace	n/a
31.0505	0.09	62101	keystroke_Key.backspace	Key.backspace	n/a
31.216	0.1045	62432	keystroke_Key.backspace	Key.backspace	n/a
31.621	0.105	63242	keystroke_a	a	n/a
31.906	0.105	63812	keystroke_Key.space	Key.space	n/a
32.281	0.15	64562	keystroke_l	l	n/a
32.476	0.09	64952	keystroke_a	a	n/a
32.716	0.135	65432	keystroke_z	z	n/a
32.866	0.15	65732	keystroke_y	y	n/a
32.9705	0.1055	65941	keystroke_Key.space	Key.space	n/a
33.316	0.12	66632	keystroke_d	d	n/a
33.421	0.135	66842	keystroke_o	o	n/a
33.631	0.09	67262	keystroke_g	g	n/a
35.041	0.135	70082	keystroke_Key.enter	Key.enter	n/a
35.1855	5.7975	70371	prompt	n/a	lodge playing pose up\n
36.091	0.135	72182	keystroke_l	l	n/a
36.331	0.18	72662	keystroke_o	o	n/a
36.496	0.12	72992	keystroke_d	d	n/a
36.916	0.15	73832	keystroke_g	g	n/a
37.8905	0.105	75781	keystroke_e	e	n/a
38.0405	0.1355	76081	keystroke_Key.space	Key.space	n/a
38.131	0.135	76262	keystroke_p	p	n/a
38.371	0.12	76742	keystroke_l	l	n/a
38.491	0.165	76982	keystroke_a	a	n/a
38.611	0.09	77222	keystroke_y	y	n/a
38.836	0.1795	77672	keystroke_i	i	n/a
38.911	0.1495	77822	keystroke_n	n	n/a
39.0305	0.105	78061	keystroke_g	g	n/a
39.1505	0.105	78301	keystroke_Key.space	Key.space	n/a
39.3005	0.15	78601	keystroke_p	p	n/a
39.3755	0.18	78751	keystroke_o	o	n/a
39.5705	0.15	79141	keystroke_s	s	n/a
39.6905	0.135	79381	keystroke_e	e	n/a
39.8705	0.135	79741	keystroke_Key.space	Key.space	n/a
39.9905	0.15	79981	keystroke_u	u	n/a
40.0805	0.135	80161	keystroke_p	p	n/a
40.8755	0.105	81751	keystroke_Key.enter	Key.enter	n/a
40.988	8.0495	81976	prompt	n/a	finite cellular sensitive fired\n
41.926	0.135	83852	keystroke_f	f	n/a
42.046	0.15	84092	keystroke_i	i	n/a
42.166	0.18	84332	keystroke_n	n	n/a
42.316	0.165	84632	keystroke_i	i	n/a
42.541	0.18	85082	keystroke_t	t	n/a
42.706	0.135	85412	keystroke_e	e	n/a
42.901	0.12	85802	keystroke_Key.space	Key.space	n/a
43.231	0.12	86462	keystroke_c	c	n/a
43.471	0.105	86942	keystroke_e	e	n/a
43.591	0.09	87182	keystroke_l	l	n/a
43.7705	0.135	87541	keystroke_l	l	n/a
43.951	0.15	87902	keystroke_u	u	n/a
44.131	0.135	88262	keystroke_l	l	n/a
44.326	0.15	88652	keystroke_a	a	n/a
44.446	0.135	88892	keystroke_r	r	n/a
44.791	0.015	89582	keystroke_Key.space	Key.space	n/a
44.911	0.12	89822	keystroke_s	s	n/a
45.001	0.15	90002	keystroke_e	e	n/a
45.181	0.1195	90362	keystroke_n	n	n/a
45.5405	0.09	91081	keystroke_e	e	n/a
45.8855	0.0755	91771	keystroke_Key.backspace	Key.backspace	n/a
45.946	0.12	91892	keystroke_s	s	n/a
46.096	0.12	92192	keystroke_i	i	n/a
46.291	0.105	92582	keystroke_t	t	n/a
46.411	0.12	92822	keystroke_i	i	n/a
46.681	0.06	93362	keystroke_e	e	n/a
47.101	0.075	94202	keystroke_Key.backspace	Key.backspace	n/a
47.206	0.135	94412	keystroke_v	v	n/a
47.326	0.12	94652	keystroke_e	e	n/a
47.491	0.105	94982	keystroke_Key.space	Key.space	n/a
47.686	0.1195	95372	keystroke_f	f	n/a
47.9255	0.15	95851	keystroke_i	i	n/a
48.2115	0.1195	96423	keystroke_r	r	n/a
48.361	0.09	96722	keystroke_e	e	n/a
48.571	0.105	97142	keystroke_d	d	n/a
48.8855	0.15	97771	keystroke_Key.enter	Key.enter	n/a
49.0435	11.0345	98087	prompt	n/a	transaction regional consciousness bargains\n
50.0405	0.0755	100081	keystroke_t	t	n/a
50.221	0.135	100442	keystroke_r	r	n/a
50.326	0.12	100652	keystroke_a	a	n/a
50.476	0.135	100952	keystroke_n	n	n/a
50.8655	0.1055	101731	keystroke_s	s	n/a
51.211	0.06	102422	keystroke_a	a	n/a
51.376	0.105	102752	keystroke_c	c	n/a
51.616	0.09	103232	keystroke_t	t	n/a
51.691	0.1495	103382	keystroke_i	i	n/a
51.7955	0.21	103591	keystroke_o	o	n/a
51.8855	0.09	103771	keystroke_n	n	n/a
52.1105	0.135	104221	keystroke_Key.space	Key.space	n/a
52.4705	0.12	104941	keystroke_r	r	n/a
52.5455	0.135	105091	keystroke_e	e	n/a
52.8155	0.12	105631	keystroke_g	g	n/a
52.9805	0.165	105961	keystroke_i	i	n/a
53.0855	0.15	106171	keystroke_o	o	n/a
53.1465	0.164	106293	keystroke_n	n	n/a
53.2955	0.12	106591	keystroke_a	a	n/a
53.4305	0.1655	106861	keystroke_l	l	n/a
53.536	0.105	107072	keystroke_Key.space	Key.space	n/a
54.1655	0.135	108331	keystroke_c	c	n/a
54.2255	0.181	108451	keystroke_o	o	n/a
54.3015	0.149	108603	keystroke_n	n	n/a
54.5865	0.134	109173	keystroke_s	s	n/a
55.2005	0.135	110401	keystroke_c	c	n/a
55.3205	0.12	110641	keystroke_i	i	n/a
55.606	0.165	111212	keystroke_o	o	n/a
55.741	0.12	111482	keystroke_u	u	n/a
55.9205	0.135	111841	keystroke_s	s	n/a
56.4755	0.12	112951	keystroke_n	n	n/a
56.6105	0.075	113221	keystroke_e	e	n/a
56.8055	0.075	113611	keystroke_s	s	n/a
56.9855	0.105	113971	keystroke_s	s	n/a
57.1505	0.1355	114301	keystroke_Key.space	Key.space	n/a
57.466	0.1495	114932	keystroke_b	b	n/a
57.7505	0.135	115501	keystroke_a	a	n/a
57.8255	0.135	115651	keystroke_r	r	n/a
59.071	0.12	118142	keystroke_g	g	n/a
59.176	0.18	118352	keystroke_a	a	n/a
59.341	0.195	118682	keystroke_i	i	n/a
59.416	0.15	118832	keystroke_n	n	n/a
59.581	0.135	119162	keystroke_s	s	n/a
59.9555	0.12	119911	keystroke_Key.enter	Key.enter	n/a
60.083	21.445	120166	prompt	n/a	imagination ozone specialist residence\n
60.8565	0.2095	121713	keystroke_i	i	n/a
61.171	0.135	122342	keystroke_m	m	n/a
61.621	0.135	123242	keystroke_a	a	n/a
62.0555	0.12	124111	keystroke_g	g	n/a
62.2065	0.209	124413	keystroke_i	i	n/a
62.2955	0.195	124591	keystroke_n	n	n/a
62.6405	0.1055	125281	keystroke_a	a	n/a
62.8655	0.135	125731	keystroke_t	t	n/a
62.9865	0.134	125973	keystroke_i	i	n/a
63.0905	0.21	126181	keystroke_o	o	n/a
63.1505	0.18	126301	keystroke_n	n	n/a
63.3455	0.1205	126691	keystroke_Key.space	Key.space	n/a
63.706	0.135	127412	keystroke_o	o	n/a
64.006	0.12	128012	keystroke_z	z	n/a
64.636	0.134	129272	keystroke_o	o	n/a
64.74	0.135	129480	keystroke_n	n	n/a
64.876	0.105	129752	keystroke_e	e	n/a
65.085	0.1055	130170	keystroke_Key.space	Key.space	n/a
65.941	0.105	131882	keystroke_s	s	n/a
66.061	0.12	132122	keystroke_p	p	n/a
66.182	0.059	132364	keystroke_e	e	n/a
66.316	0.105	132632	keystroke_i	i	n/a
66.451	0.09	132902	keystroke_c	c	n/a
66.841	0.24	133682	keystroke_l	l	n/a
67.036	0.1495	134072	keystroke_i	i	n/a
67.3655	0.06	134731	keystroke_Key.backspace	Key.backspace	n/a
67.5005	0.09	135001	keystroke_Key.backspace	Key.backspace	n/a
67.6355	0.135	135271	keystroke_a	a	n/a
67.7555	0.1655	135511	keystroke_l	l	n/a
67.861	0.15	135722	keystroke_i	i	n/a
68.086	0.15	136172	keystroke_s	s	n/a
68.251	0.1345	136502	keystroke_t	t	n/a
68.701	0.2095	137402	keystroke_Key.space	Key.space	n/a
69.3755	0.0895	138751	keystroke_Key.backspace	Key.backspace	n/a
69.57	0.09	139140	keystroke_Key.backspace	Key.backspace	n/a
69.765	0.06	139530	keystroke_Key.backspace	Key.backspace	n/a
70.1855	0.12	140371	keystroke_Key.backspace	Key.backspace	n/a
70.6055	0.09	141211	keystroke_Key.backspace	Key.backspace	n/a
71.4	0.06	142800	keystroke_Key.backspace	Key.backspace	n/a
71.671	0.09	143342	keystroke_i	i	n/a
71.851	0.1795	143702	keystroke_a	a	n/a
72.556	0.165	145112	keystroke_l	l	n/a
73.081	0.12	146162	keystroke_i	i	n/a
73.156	0.164	146312	keystroke_s	s	n/a
73.306	0.12	146612	keystroke_t	t	n/a
73.47	0.105	146940	keystroke_Key.space	Key.space	n/a
73.681	0.134	147362	keystroke_r	r	n/a
73.77	0.1365	147540	keystroke_e	e	n/a
74.6255	0.0755	149251	keystroke_Key.backspace	Key.backspace	n/a
74.7905	0.09	149581	keystroke_Key.backspace	Key.backspace	n/a
75.0005	0.09	150001	keystroke_Key.backspace	Key.backspace	n/a
75.2105	0.105	150421	keystroke_Key.backspace	Key.backspace	n/a
77.5075	0.043	155015	keystroke_Key.backspace	Key.backspace	n/a
77.6555	0.075	155311	keystroke_Key.backspace	Key.backspace	n/a
77.8355	0.0755	155671	keystroke_Key.backspace	Key.backspace	n/a
78.016	0.075	156032	keystroke_Key.backspace	Key.backspace	n/a
78.211	0.075	156422	keystroke_Key.backspace	Key.backspace	n/a
78.361	0.1045	156722	keystroke_Key.backspace	Key.backspace	n/a
78.5555	0.075	157111	keystroke_Key.backspace	Key.backspace	n/a
78.7205	0.136	157441	keystroke_c	c	n/a
78.8405	0.105	157681	keystroke_i	i	n/a
79.0055	0.151	158011	keystroke_a	a	n/a
79.1105	0.165	158221	keystroke_l	l	n/a
79.2155	0.15	158431	keystroke_i	i	n/a
79.3505	0.165	158701	keystroke_s	s	n/a
79.5165	0.134	159033	keystroke_t	t	n/a
79.6805	0.135	159361	keystroke_Key.space	Key.space	n/a
79.8315	0.1335	159663	keystroke_r	r	n/a
79.92	0.105	159840	keystroke_e	e	n/a
80.325	0.106	160650	keystroke_s	s	n/a
80.445	0.105	160890	keystroke_i	i	n/a
80.52	0.091	161040	keystroke_d	d	n/a
80.7155	0.075	161431	keystroke_e	e	n/a
80.8205	0.135	161641	keystroke_n	n	n/a
80.9855	0.12	161971	keystroke_c	c	n/a
81.2405	0.105	162481	keystroke_e	e	n/a
81.3905	0.135	162781	keystroke_Key.enter	Key.enter	n/a
81.534	5.469	163068	prompt	n/a	friend stationery styles doom\n
82.216	0.075	164432	keystroke_f	f	n/a
82.396	0.105	164792	keystroke_r	r	n/a
82.516	0.1045	165032	keystroke_i	i	n/a
82.606	0.0745	165212	keystroke_e	e	n/a
82.771	0.12	165542	keystroke_n	n	n/a
82.801	0.12	165602	keystroke_d	d	n/a
82.995	0.135	165990	keystroke_Key.space	Key.space	n/a
83.2515	0.089	166503	keystroke_d	d	n/a
83.5955	0.09	167191	keystroke_Key.backspace	Key.backspace	n/a
83.6705	0.105	167341	keystroke_s	s	n/a
83.8205	0.135	167641	keystroke_t	t	n/a
83.9255	0.15	167851	keystroke_a	a	n/a
84.0605	0.12	168121	keystroke_t	t	n/a
84.1655	0.12	168331	keystroke_i	i	n/a
84.2405	0.18	168481	keystroke_o	o	n/a
84.3005	0.181	168601	keystroke_n	n	n/a
84.6905	0.15	169381	keystroke_e	e	n/a
84.8255	0.1195	169651	keystroke_r	r	n/a
84.991	0.149	169982	keystroke_y	y	n/a
85.095	0.121	170190	keystroke_Key.space	Key.space	n/a
85.35	0.12	170700	keystroke_s	s	n/a
85.456	0.12	170912	keystroke_t	t	n/a
85.62	0.136	171240	keystroke_y	y	n/a
85.681	0.15	171362	keystroke_l	l	n/a
85.785	0.166	171570	keystroke_e	e	n/a
85.9355	0.0905	171871	keystroke_s	s	n/a
86.085	0.12	172170	keystroke_Key.space	Key.space	n/a
86.25	0.181	172500	keystroke_d	d	n/a
86.416	0.09	172832	keystroke_o	o	n/a
86.595	0.151	173190	keystroke_o	o	n/a
86.701	0.1495	173402	keystroke_m	m	n/a
86.9255	0.075	173851	keystroke_Key.enter	Key.enter	n/a
87.0085	7.599	174017	prompt	n/a	hong daughter boxed japanese\n
87.6905	0.105	175381	keystroke_h	h	n/a
87.7505	0.1805	175501	keystroke_o	o	n/a
87.9005	0.1505	175801	keystroke_n	n	n/a
88.081	0.12	176162	keystroke_g	g	n/a
88.186	0.12	176372	keystroke_Key.space	Key.space	n/a
89.461	0.15	178922	keystroke_d	d	n/a
89.686	0.105	179372	keystroke_a	a	n/a
89.881	0.134	179762	keystroke_u	u	n/a
90.195	0.121	180390	keystroke_g	g	n/a
90.556	0.12	181112	keystroke_h	h	n/a
90.81	0.1355	181620	keystroke_t	t	n/a
90.991	0.1645	181982	keystroke_e	e	n/a
91.1105	0.105	182221	keystroke_r	r	n/a
91.3355	0.12	182671	keystroke_Key.space	Key.space	n/a
91.6055	0.105	183211	keystroke_b	b	n/a
91.7115	0.1635	183423	keystroke_o	o	n/a
91.89	0.1805	183780	keystroke_x	x	n/a
92.3555	0.075	184711	keystroke_e	e	n/a
92.5505	0.12	185101	keystroke_d	d	n/a
92.7155	0.105	185431	keystroke_Key.space	Key.space	n/a
92.9705	0.105	185941	keystroke_j	j	n/a
93.0755	0.105	186151	keystroke_a	a	n/a
93.3455	0.1045	186691	keystroke_p	p	n/a
93.495	0.075	186990	keystroke_a	a	n/a
93.63	0.135	187260	keystroke_n	n	n/a
93.945	0.12	187890	keystroke_e	e	n/a
94.05	0.15	188100	keystroke_s	s	n/a
94.17	0.15	188340	keystroke_e	e	n/a
94.5	0.105	189000	keystroke_Key.enter	Key.enter	n/a
94.615	6.0375	189230	prompt	n/a	sterling respect cork exhibit\n
95.3105	0.135	190621	keystroke_s	s	n/a
95.461	0.12	190922	keystroke_t	t	n/a
95.566	0.18	191132	keystroke_e	e	n/a
95.701	0.105	191402	keystroke_r	r	n/a
95.836	0.15	191672	keystroke_l	l	n/a
95.956	0.165	191912	keystroke_i	i	n/a
96.061	0.165	192122	keystroke_n	n	n/a
96.196	0.09	192392	keystroke_g	g	n/a
96.315	0.136	192630	keystroke_Key.space	Key.space	n/a
96.721	0.135	193442	keystroke_r	r	n/a
96.811	0.12	193622	keystroke_e	e	n/a
97.1705	0.1205	194341	keystroke_s	s	n/a
97.321	0.12	194642	keystroke_p	p	n/a
97.441	0.135	194882	keystroke_e	e	n/a
97.741	0.12	195482	keystroke_c	c	n/a
97.9655	0.075	195931	keystroke_t	t	n/a
98.1005	0.12	196201	keystroke_Key.space	Key.space	n/a
98.3405	0.0905	196681	keystroke_c	c	n/a
98.445	0.12	196890	keystroke_o	o	n/a
98.566	0.104	197132	keystroke_r	r	n/a
98.7	0.15	197400	keystroke_k	k	n/a
98.79	0.135	197580	keystroke_Key.space	Key.space	n/a
99.001	0.089	198002	keystroke_e	e	n/a
99.241	0.12	198482	keystroke_x	x	n/a
99.406	0.135	198812	keystroke_h	h	n/a
99.496	0.165	198992	keystroke_i	i	n/a
99.931	0.135	199862	keystroke_b	b	n/a
100.081	0.105	200162	keystroke_i	i	n/a
100.201	0.105	200402	keystroke_t	t	n/a
100.546	0.104	201092	keystroke_Key.enter	Key.enter	n/a
100.6575	6.07	201315	prompt	n/a	branch spaces lamp colored\n
101.3555	0.075	202711	keystroke_b	b	n/a
101.5655	0.12	203131	keystroke_r	r	n/a
101.6705	0.1045	203341	keystroke_a	a	n/a
101.851	0.1345	203702	keystroke_n	n	n/a
102.016	0.105	204032	keystroke_d	d	n/a
102.405	0.09	204810	keystroke_Key.backspace	Key.backspace	n/a
102.481	0.135	204962	keystroke_c	c	n/a
102.6905	0.135	205381	keystroke_h	h	n/a
102.7655	0.1345	205531	keystroke_Key.space	Key.space	n/a
103.0955	0.105	206191	keystroke_s	s	n/a
103.1855	0.12	206371	keystroke_p	p	n/a
103.3205	0.075	206641	keystroke_a	a	n/a
103.516	0.105	207032	keystroke_c	c	n/a
103.756	0.12	207512	keystroke_e	e	n/a
103.846	0.12	207692	keystroke_s	s	n/a
104.04	0.12	208080	keystroke_Key.space	Key.space	n/a
104.2655	0.105	208531	keystroke_l	l	n/a
104.3555	0.12	208711	keystroke_a	a	n/a
104.5955	0.105	209191	keystroke_m	m	n/a
104.7605	0.12	209521	keystroke_p	p	n/a
104.9855	0.135	209971	keystroke_Key.space	Key.space	n/a
105.3605	0.165	210721	keystroke_c	c	n/a
105.4655	0.105	210931	keystroke_o	o	n/a
105.6755	0.09	211351	keystroke_l	l	n/a
105.9755	0.12	211951	keystroke_e	e	n/a
106.0805	0.1345	212161	keystroke_r	r	n/a
106.2605	0.09	212521	keystroke_e	e	n/a
106.4855	0.135	212971	keystroke_d	d	n/a
106.6355	0.09	213271	keystroke_Key.enter	Key.enter	n/a
106.7315	13.2555	213463	prompt	n/a	edinburgh coordination potential thank\n
107.685	0.09	215370	keystroke_e	e	n/a
107.79	0.105	215580	keystroke_n	n	n/a
108.1955	0.0745	216391	keystroke_Key.backspace	Key.backspace	n/a
108.285	0.12	216570	keystroke_d	d	n/a
108.435	0.2105	216870	keystroke_i	i	n/a
108.5405	0.1505	217081	keystroke_n	n	n/a
109.245	0.09	218490	keystroke_b	b	n/a
109.381	0.12	218762	keystroke_u	u	n/a
109.53	0.09	219060	keystroke_r	r	n/a
109.845	0.136	219690	keystroke_g	g	n/a
110.2055	0.1045	220411	keystroke_h	h	n/a
110.43	0.12	220860	keystroke_Key.space	Key.space	n/a
110.7155	0.15	221431	keystroke_c	c	n/a
110.8505	0.075	221701	keystroke_o	o	n/a
111.0305	0.135	222061	keystroke_o	o	n/a
115.248	0.133	230496	keystroke_r	r	n/a
115.65	0.075	231300	keystroke_Key.backspace	Key.backspace	n/a
115.77	0.135	231540	keystroke_Key.backspace	Key.backspace	n/a
116.281	0.165	232562	keystroke_o	o	n/a
116.416	0.1495	232832	keystroke_r	r	n/a
116.925	0.135	233850	keystroke_d	d	n/a
117	0.15	234000	keystroke_i	i	n/a
117.075	0.15	234150	keystroke_n	n	n/a
117.24	0.12	234480	keystroke_a	a	n/a
117.315	0.12	234630	keystroke_t	t	n/a
117.39	0.165	234780	keystroke_i	i	n/a
117.495	0.18	234990	keystroke_o	o	n/a
117.54	0.165	235080	keystroke_n	n	n/a
117.66	0.15	235320	keystroke_Key.space	Key.space	n/a
117.825	0.15	235650	keystroke_p	p	n/a
117.915	0.135	235830	keystroke_o	o	n/a
118.1555	0.135	236311	keystroke_t	t	n/a
118.2455	0.135	236491	keystroke_e	e	n/a
118.3505	0.12	236701	keystroke_n	n	n/a
118.5155	0.09	237031	keystroke_t	t	n/a
118.6355	0.12	237271	keystroke_i	i	n/a
118.8005	0.105	237601	keystroke_a	a	n/a
118.8755	0.18	237751	keystroke_l	l	n/a
118.9805	0.12	237961	keystroke_Key.space	Key.space	n/a
119.1455	0.105	238291	keystroke_t	t	n/a
119.2355	0.105	238471	keystroke_h	h	n/a
119.3705	0.12	238741	keystroke_a	a	n/a
119.4755	0.15	238951	keystroke_n	n	n/a
119.5805	0.165	239161	keystroke_k	k	n/a
119.8955	0.09	239791	keystroke_Key.enter	Key.enter	n/a
119.9925	8.4695	239985	prompt	n/a	labs hoping directly techrepublic\n
120.5855	0.1655	241171	keystroke_l	l	n/a
120.7055	0.1045	241411	keystroke_a	a	n/a
121.246	0.074	242492	keystroke_d	d	n/a
121.576	0.105	243152	keystroke_Key.backspace	Key.backspace	n/a
121.666	0.12	243332	keystroke_b	b	n/a
121.815	0.1655	243630	keystroke_s	s	n/a
121.9955	0.1345	243991	keystroke_Key.space	Key.space	n/a
122.16	0.15	244320	keystroke_h	h	n/a
122.251	0.105	244502	keystroke_o	o	n/a
122.46	0.1355	244920	keystroke_p	p	n/a
122.8055	0.195	245611	keystroke_i	i	n/a
122.8955	0.135	245791	keystroke_n	n	n/a
123.0155	0.09	246031	keystroke_g	g	n/a
123.1205	0.1355	246241	keystroke_Key.space	Key.space	n/a
123.406	0.15	246812	keystroke_d	d	n/a
123.541	0.1045	247082	keystroke_i	i	n/a
123.6605	0.0755	247321	keystroke_r	r	n/a
123.706	0.09	247412	keystroke_e	e	n/a
123.915	0.075	247830	keystroke_c	c	n/a
124.111	0.12	248222	keystroke_t	t	n/a
124.216	0.15	248432	keystroke_l	l	n/a
124.291	0.165	248582	keystroke_y	y	n/a
124.396	0.15	248792	keystroke_Key.space	Key.space	n/a
125.086	0.12	250172	keystroke_t	t	n/a
125.146	0.12	250292	keystroke_e	e	n/a
125.4155	0.15	250831	keystroke_c	c	n/a
125.6105	0.1195	251221	keystroke_h	h	n/a
126.346	0.12	252692	keystroke_r	r	n/a
126.421	0.15	252842	keystroke_e	e	n/a
126.616	0.135	253232	keystroke_p	p	n/a
127.2155	0.12	254431	keystroke_u	u	n/a
127.7255	0.12	255451	keystroke_b	b	n/a
127.8605	0.1795	255721	keystroke_l	l	n/a
128.01	0.1205	256020	keystroke_i	i	n/a
128.085	0.1655	256170	keystroke_c	c	n/a
128.3705	0.09	256741	keystroke_Key.enter	Key.enter	n/a
128.4675	4.8695	256935	prompt	n/a	clear online books decide\n
129.2255	0.105	258451	keystroke_c	c	n/a
129.3005	0.165	258601	keystroke_l	l	n/a
129.4805	0.1205	258961	keystroke_e	e	n/a
129.5705	0.12	259141	keystroke_a	a	n/a
129.6305	0.1355	259261	keystroke_r	r	n/a
129.796	0.12	259592	keystroke_Key.space	Key.space	n/a
130.066	0.135	260132	keystroke_o	o	n/a
130.17	0.151	260340	keystroke_n	n	n/a
130.29	0.196	260580	keystroke_l	l	n/a
130.365	0.211	260730	keystroke_i	i	n/a
130.47	0.15	260940	keystroke_n	n	n/a
130.56	0.105	261120	keystroke_e	e	n/a
130.74	0.135	261480	keystroke_Key.space	Key.space	n/a
131.2355	0.12	262471	keystroke_b	b	n/a
131.3855	0.06	262771	keystroke_o	o	n/a
131.5355	0.135	263071	keystroke_o	o	n/a
131.6105	0.15	263221	keystroke_k	k	n/a
131.7455	0.09	263491	keystroke_s	s	n/a
131.8655	0.12	263731	keystroke_Key.space	Key.space	n/a
132.166	0.1045	264332	keystroke_d	d	n/a
132.3605	0.0445	264721	keystroke_e	e	n/a
132.57	0.135	265140	keystroke_c	c	n/a
132.75	0.135	265500	keystroke_i	i	n/a
132.856	0.089	265712	keystroke_d	d	n/a
133.065	0.12	266130	keystroke_e	e	n/a
133.23	0.105	266460	keystroke_Key.enter	Key.enter	n/a
133.342	7.93	266684	prompt	n/a	tablet individuals wheel assault\n
134.1605	0.12	268321	keystroke_t	t	n/a
134.2655	0.165	268531	keystroke_a	a	n/a
134.4455	0.105	268891	keystroke_b	b	n/a
134.5955	0.12	269191	keystroke_l	l	n/a
134.7005	0.1345	269401	keystroke_e	e	n/a
134.895	0.135	269790	keystroke_t	t	n/a
135.3005	0.1495	270601	keystroke_Key.space	Key.space	n/a
135.645	0.165	271290	keystroke_i	i	n/a
135.72	0.1655	271440	keystroke_n	n	n/a
135.9005	0.0745	271801	keystroke_d	d	n/a
135.99	0.135	271980	keystroke_i	i	n/a
136.62	0.1055	273240	keystroke_v	v	n/a
136.68	0.135	273360	keystroke_i	i	n/a
137.386	0.105	274772	keystroke_d	d	n/a
137.521	0.105	275042	keystroke_u	u	n/a
137.686	0.105	275372	keystroke_a	a	n/a
137.821	0.165	275642	keystroke_l	l	n/a
137.956	0.105	275912	keystroke_s	s	n/a
138.271	0.014	276542	keystroke_Key.space	Key.space	n/a
138.465	0.136	276930	keystroke_w	w	n/a
138.586	0.12	277172	keystroke_h	h	n/a
138.736	0.105	277472	keystroke_e	e	n/a
139.111	0.105	278222	keystroke_e	e	n/a
139.246	0.194	278492	keystroke_l	l	n/a
139.365	0.135	278730	keystroke_Key.space	Key.space	n/a
139.7855	0.09	279571	keystroke_a	a	n/a
139.9655	0.075	279931	keystroke_s	s	n/a
140.1605	0.1505	280321	keystroke_s	s	n/a
140.5505	0.135	281101	keystroke_a	a	n/a
140.7005	0.1345	281401	keystroke_u	u	n/a
140.806	0.134	281612	keystroke_l	l	n/a
140.925	0.1355	281850	keystroke_t	t	n/a
141.166	0.104	282332	keystroke_Key.enter	Key.enter	n/a
141.277	7.7345	282554	prompt	n/a	restructuring remaining folding invest\n
142.065	0.1655	284130	keystroke_r	r	n/a
142.2005	0.225	284401	keystroke_e	e	n/a
142.4105	0.1655	284821	keystroke_s	s	n/a
142.876	0.075	285752	keystroke_t	t	n/a
143.056	0.104	286112	keystroke_r	r	n/a
143.265	0.1355	286530	keystroke_u	u	n/a
143.4905	0.105	286981	keystroke_c	c	n/a
143.7905	0.09	287581	keystroke_t	t	n/a
144.0455	0.105	288091	keystroke_u	u	n/a
144.1515	0.119	288303	keystroke_r	r	n/a
144.3155	0.195	288631	keystroke_i	i	n/a
144.3905	0.165	288781	keystroke_n	n	n/a
144.4955	0.135	288991	keystroke_g	g	n/a
144.6605	0.15	289321	keystroke_Key.space	Key.space	n/a
144.8405	0.15	289681	keystroke_r	r	n/a
144.9455	0.15	289891	keystroke_e	e	n/a
145.1855	0.1805	290371	keystroke_m	m	n/a
145.4555	0.135	290911	keystroke_a	a	n/a
145.561	0.15	291122	keystroke_i	i	n/a
145.666	0.135	291332	keystroke_n	n	n/a
145.846	0.165	291692	keystroke_i	i	n/a
145.9355	0.1495	291871	keystroke_n	n	n/a
146.07	0.106	292140	keystroke_g	g	n/a
146.2055	0.1355	292411	keystroke_Key.space	Key.space	n/a
146.97	0.165	293940	keystroke_f	f	n/a
147.12	0.09	294240	keystroke_o	o	n/a
147.345	0.105	294690	keystroke_l	l	n/a
147.465	0.12	294930	keystroke_d	d	n/a
147.645	0.15	295290	keystroke_i	i	n/a
147.72	0.135	295440	keystroke_n	n	n/a
147.825	0.12	295650	keystroke_g	g	n/a
147.9305	0.1345	295861	keystroke_Key.space	Key.space	n/a
148.14	0.1805	296280	keystroke_i	i	n/a
148.2155	0.15	296431	keystroke_n	n	n/a
148.3355	0.18	296671	keystroke_v	v	n/a
148.4705	0.165	296941	keystroke_e	e	n/a
148.6205	0.15	297241	keystroke_s	s	n/a
148.7255	0.18	297451	keystroke_t	t	n/a
148.8905	0.12	297781	keystroke_Key.enter	Key.enter	n/a
149.0165	25.6455	298033	prompt	n/a	austria accountability physicians denial\n
149.6705	0.15	299341	keystroke_a	a	n/a
149.8055	0.135	299611	keystroke_u	u	n/a
150.0305	0.135	300061	keystroke_s	s	n/a
150.1655	0.0745	300331	keystroke_t	t	n/a
150.36	0.15	300720	keystroke_r	r	n/a
150.495	0.15	300990	keystroke_i	i	n/a
150.631	0.1345	301262	keystroke_a	a	n/a
150.7805	0.15	301561	keystroke_Key.space	Key.space	n/a
151.0655	0.09	302131	keystroke_a	a	n/a
151.3805	0.1055	302761	keystroke_c	c	n/a
151.575	0.09	303150	keystroke_c	c	n/a
151.68	0.121	303360	keystroke_o	o	n/a
151.741	0.119	303482	keystroke_u	u	n/a
151.995	0.075	303990	keystroke_n	n	n/a
152.356	0.089	304712	keystroke_Key.backspace	Key.backspace	n/a
152.461	0.105	304922	keystroke_t	t	n/a
152.551	0.15	305102	keystroke_a	a	n/a
152.716	0.03	305432	keystroke_a	a	n/a
152.731	0.135	305462	keystroke_b	b	n/a
152.911	0.165	305822	keystroke_l	l	n/a
153.136	0.105	306272	keystroke_i	i	n/a
153.361	0.105	306722	keystroke_l	l	n/a
153.421	0.15	306842	keystroke_i	i	n/a
153.601	0.119	307202	keystroke_t	t	n/a
153.735	0.166	307470	keystroke_y	y	n/a
153.856	0.179	307712	keystroke_Key.space	Key.space	n/a
154.38	0.06	308760	keystroke_Key.backspace	Key.backspace	n/a
154.515	0.09	309030	keystroke_Key.backspace	Key.backspace	n/a
154.695	0.06	309390	keystroke_Key.backspace	Key.backspace	n/a
154.875	0.0605	309750	keystroke_Key.backspace	Key.backspace	n/a
155.01	0.075	310020	keystroke_Key.backspace	Key.backspace	n/a
155.175	0.2555	310350	keystroke_Key.backspace	Key.backspace	n/a
155.6555	0.075	311311	keystroke_Key.backspace	Key.backspace	n/a
155.8805	0.105	311761	keystroke_i	i	n/a
156.15	0.135	312300	keystroke_l	l	n/a
156.24	0.1205	312480	keystroke_i	i	n/a
156.465	0.075	312930	keystroke_i	i	n/a
156.495	0.1505	312990	keystroke_t	t	n/a
156.75	0.1205	313500	keystroke_y	y	n/a
157.0655	0.06	314131	keystroke_Key.backspace	Key.backspace	n/a
157.2	0.0905	314400	keystroke_Key.backspace	Key.backspace	n/a
157.38	0.075	314760	keystroke_Key.backspace	Key.backspace	n/a
157.545	0.075	315090	keystroke_Key.backspace	Key.backspace	n/a
158.07	0.135	316140	keystroke_i	i	n/a
158.34	0.106	316680	keystroke_t	t	n/a
158.49	0.135	316980	keystroke_y	y	n/a
158.61	0.1205	317220	keystroke_Key.space	Key.space	n/a
158.9855	0.135	317971	keystroke_p	p	n/a
159.1215	0.104	318243	keystroke_h	h	n/a
159.4505	0.135	318901	keystroke_y	y	n/a
160.095	0.09	320190	keystroke_Key.backspace	Key.backspace	n/a
160.29	0.09	320580	keystroke_Key.backspace	Key.backspace	n/a
160.47	0.105	320940	keystroke_Key.backspace	Key.backspace	n/a
160.65	0.105	321300	keystroke_Key.backspace	Key.backspace	n/a
160.83	0.1055	321660	keystroke_Key.backspace	Key.backspace	n/a
161.0095	0.105	322019	keystroke_Key.backspace	Key.backspace	n/a
161.1895	0.106	322379	keystroke_Key.backspace	Key.backspace	n/a
161.3695	0.091	322739	keystroke_Key.backspace	Key.backspace	n/a
161.5505	0.075	323101	keystroke_Key.backspace	Key.backspace	n/a
161.7155	0.105	323431	keystroke_Key.backspace	Key.backspace	n/a
161.9405	0.0755	323881	keystroke_Key.backspace	Key.backspace	n/a
162.091	0.1045	324182	keystroke_b	b	n/a
162.27	0.181	324540	keystroke_l	l	n/a
162.42	0.181	324840	keystroke_i	i	n/a
162.99	0.06	325980	keystroke_Key.backspace	Key.backspace	n/a
163.095	0.075	326190	keystroke_Key.backspace	Key.backspace	n/a
163.32	0.105	326640	keystroke_i	i	n/a
163.41	0.18	326820	keystroke_l	l	n/a
163.561	0.104	327122	keystroke_i	i	n/a
163.695	0.135	327390	keystroke_t	t	n/a
163.815	0.12	327630	keystroke_y	y	n/a
163.995	0.135	327990	keystroke_Key.space	Key.space	n/a
164.2805	0.105	328561	keystroke_p	p	n/a
164.3705	0.12	328741	keystroke_h	h	n/a
165.0905	0.165	330181	keystroke_y	y	n/a
167.445	0.09	334890	keystroke_Key.backspace	Key.backspace	n/a
167.956	0.134	335912	keystroke_n	n	n/a
168.315	0.136	336630	keystroke_t	t	n/a
168.436	0.149	336872	keystroke_a	a	n/a
168.9155	0.1345	337831	keystroke_b	b	n/a
169.08	0.15	338160	keystroke_l	l	n/a
169.17	0.12	338340	keystroke_i	i	n/a
169.86	0.196	339720	keystroke_Key.backspace	Key.backspace	n/a
170.3555	0.045	340711	keystroke_Key.backspace	Key.backspace	n/a
170.5505	0.105	341101	keystroke_i	i	n/a
170.6855	0.1795	341371	keystroke_l	l	n/a
170.805	0.12	341610	keystroke_i	i	n/a
170.9555	0.105	341911	keystroke_t	t	n/a
171.0755	0.1355	342151	keystroke_y	y	n/a
171.1805	0.1355	342361	keystroke_Key.space	Key.space	n/a
171.4055	0.1805	342811	keystroke_p	p	n/a
171.5255	0.1205	343051	keystroke_h	h	n/a
171.766	0.09	343532	keystroke_y	y	n/a
172.006	0.09	344012	keystroke_s	s	n/a
172.171	0.134	344342	keystroke_i	i	n/a
172.5605	0.12	345121	keystroke_c	c	n/a
172.7105	0.12	345421	keystroke_i	i	n/a
172.8605	0.1195	345721	keystroke_a	a	n/a
172.995	0.105	345990	keystroke_n	n	n/a
173.13	0.105	346260	keystroke_s	s	n/a
173.28	0.15	346560	keystroke_Key.space	Key.space	n/a
173.55	0.09	347100	keystroke_d	d	n/a
173.7455	0.075	347491	keystroke_e	e	n/a
173.9855	0.15	347971	keystroke_n	n	n/a
174.0605	0.15	348121	keystroke_i	i	n/a
174.2255	0.15	348451	keystroke_a	a	n/a
174.3455	0.105	348691	keystroke_l	l	n/a
174.5705	0.09	349141	keystroke_Key.enter	Key.enter	n/a
174.668	6.1295	349336	prompt	n/a	compounds routing cabin guests\n
175.4705	0.18	350941	keystroke_c	c	n/a
175.5605	0.105	351121	keystroke_o	o	n/a
175.5905	0.15	351181	keystroke_m	m	n/a
175.7555	0.135	351511	keystroke_p	p	n/a
175.8755	0.135	351751	keystroke_u	u	n/a
176.5055	0.06	353011	keystroke_Key.backspace	Key.backspace	n/a
176.7005	0.1345	353401	keystroke_o	o	n/a
176.805	0.075	353610	keystroke_u	u	n/a
177.0145	0.076	354029	keystroke_n	n	n/a
177.1055	0.165	354211	keystroke_d	d	n/a
177.2555	0.1205	354511	keystroke_s	s	n/a
177.451	0.1345	354902	keystroke_Key.space	Key.space	n/a
177.7505	0.1345	355501	keystroke_r	r	n/a
177.855	0.105	355710	keystroke_o	o	n/a
177.915	0.135	355830	keystroke_u	u	n/a
178.065	0.09	356130	keystroke_t	t	n/a
178.2	0.18	356400	keystroke_i	i	n/a
178.29	0.135	356580	keystroke_n	n	n/a
178.395	0.09	356790	keystroke_g	g	n/a
178.53	0.15	357060	keystroke_Key.space	Key.space	n/a
178.9205	0.105	357841	keystroke_c	c	n/a
178.9955	0.1355	357991	keystroke_a	a	n/a
179.176	0.135	358352	keystroke_b	b	n/a
179.326	0.164	358652	keystroke_i	i	n/a
179.37	0.181	358740	keystroke_n	n	n/a
179.535	0.135	359070	keystroke_Key.space	Key.space	n/a
179.806	0.104	359612	keystroke_g	g	n/a
179.926	0.119	359852	keystroke_u	u	n/a
180.061	0.119	360122	keystroke_e	e	n/a
180.135	0.135	360270	keystroke_s	s	n/a
180.255	0.12	360510	keystroke_t	t	n/a
180.495	0.09	360990	keystroke_s	s	n/a
180.69	0.1045	361380	keystroke_Key.enter	Key.enter	n/a
180.803	13.5395	361606	prompt	n/a	motivation excess mysimon correspondence\n
181.68	0.15	363360	keystroke_m	m	n/a
181.785	0.1495	363570	keystroke_o	o	n/a
181.921	0.105	363842	keystroke_t	t	n/a
182.0545	0.1205	364109	keystroke_i	i	n/a
182.19	0.136	364380	keystroke_v	v	n/a
182.31	0.135	364620	keystroke_a	a	n/a
182.46	0.12	364920	keystroke_t	t	n/a
182.55	0.12	365100	keystroke_i	i	n/a
182.625	0.21	365250	keystroke_o	o	n/a
182.7	0.165	365400	keystroke_n	n	n/a
182.97	0.135	365940	keystroke_Key.space	Key.space	n/a
183.24	0.09	366480	keystroke_e	e	n/a
183.45	0.105	366900	keystroke_x	x	n/a
183.66	0.105	367320	keystroke_c	c	n/a
183.8855	0.09	367771	keystroke_e	e	n/a
184.0955	0.06	368191	keystroke_s	s	n/a
184.2305	0.1495	368461	keystroke_s	s	n/a
184.3655	0.1495	368731	keystroke_Key.space	Key.space	n/a
184.485	0.121	368970	keystroke_m	m	n/a
184.755	0.105	369510	keystroke_y	y	n/a
184.905	0.135	369810	keystroke_s	s	n/a
185.37	0.135	370740	keystroke_i	i	n/a
185.625	0.151	371250	keystroke_m	m	n/a
185.835	0.15	371670	keystroke_o	o	n/a
185.986	0.135	371972	keystroke_n	n	n/a
186.225	0.1505	372450	keystroke_Key.space	Key.space	n/a
186.6005	0.12	373201	keystroke_c	c	n/a
186.7055	0.15	373411	keystroke_o	o	n/a
186.9145	0.061	373829	keystroke_r	r	n/a
187.0955	0.105	374191	keystroke_r	r	n/a
187.1545	0.121	374309	keystroke_e	e	n/a
188.115	0.06	376230	keystroke_Key.backspace	Key.backspace	n/a
188.295	0.075	376590	keystroke_Key.backspace	Key.backspace	n/a
188.46	0.091	376920	keystroke_Key.backspace	Key.backspace	n/a
188.6555	0.075	377311	keystroke_Key.backspace	Key.backspace	n/a
188.8355	0.0895	377671	keystroke_Key.backspace	Key.backspace	n/a
189.045	0.15	378090	keystroke_Key.backspace	Key.backspace	n/a
190.92	0.1355	381840	keystroke_Key.space	Key.space	n/a
191.79	0.12	383580	keystroke_c	c	n/a
191.895	0.12	383790	keystroke_o	o	n/a
192.075	0.09	384150	keystroke_r	r	n/a
192.2555	0.1495	384511	keystroke_r	r	n/a
192.3455	0.1495	384691	keystroke_e	e	n/a
192.631	0.149	385262	keystroke_s	s	n/a
193.0055	0.06	386011	keystroke_p	p	n/a
193.0205	0.12	386041	keystroke_o	o	n/a
193.0805	0.15	386161	keystroke_n	n	n/a
193.3205	0.09	386641	keystroke_d	d	n/a
193.5155	0.09	387031	keystroke_e	e	n/a
193.6205	0.12	387241	keystroke_n	n	n/a
193.7405	0.105	387481	keystroke_c	c	n/a
193.9795	0.105	387959	keystroke_e	e	n/a
194.25	0.09	388500	keystroke_Key.enter	Key.enter	n/a
194.348	22.2545	388696	prompt	n/a	university decor brunswick causing\n
195.765	0.105	391530	keystroke_u	u	n/a
196.02	0.165	392040	keystroke_n	n	n/a
196.125	0.15	392250	keystroke_i	i	n/a
196.276	0.119	392552	keystroke_v	v	n/a
196.38	0.165	392760	keystroke_e	e	n/a
196.515	0.09	393030	keystroke_r	r	n/a
196.74	0.105	393480	keystroke_s	s	n/a
196.83	0.12	393660	keystroke_i	i	n/a
196.95	0.12	393900	keystroke_t	t	n/a
197.085	0.12	394170	keystroke_y	y	n/a
197.175	0.135	394350	keystroke_Key.space	Key.space	n/a
197.37	0.075	394740	keystroke_d	d	n/a
197.55	0.045	395100	keystroke_e	e	n/a
197.745	0.105	395490	keystroke_c	c	n/a
197.865	0.135	395730	keystroke_o	o	n/a
197.985	0.105	395970	keystroke_r	r	n/a
198.21	0.1795	396420	keystroke_Key.space	Key.space	n/a
198.435	0.075	396870	keystroke_b	b	n/a
198.646	0.119	397292	keystroke_r	r	n/a
198.751	0.0745	397502	keystroke_u	u	n/a
198.9755	0.105	397951	keystroke_n	n	n/a
199.1555	0.135	398311	keystroke_c	c	n/a
199.3505	0.105	398701	keystroke_h	h	n/a
200.88	0.09	401760	keystroke_w	w	n/a
200.985	0.135	401970	keystroke_i	i	n/a
201.15	0.165	402300	keystroke_c	c	n/a
201.4805	0.165	402961	keystroke_k	k	n/a
201.5855	0.135	403171	keystroke_Key.space	Key.space	n/a
202.1105	0.105	404221	keystroke_c	c	n/a
202.1855	0.12	404371	keystroke_a	a	n/a
202.2905	0.12	404581	keystroke_u	u	n/a
202.4255	0.105	404851	keystroke_s	s	n/a
202.5755	0.15	405151	keystroke_i	i	n/a
202.6645	0.15	405329	keystroke_n	n	n/a
202.7845	0.136	405569	keystroke_g	g	n/a
205.473	0.027	410946	keystroke_Key.backspace	Key.backspace	n/a
206.475	0.105	412950	keystroke_Key.backspace	Key.backspace	n/a
206.6855	0.0895	413371	keystroke_Key.backspace	Key.backspace	n/a
206.895	0.12	413790	keystroke_Key.backspace	Key.backspace	n/a
207.705	0.09	415410	keystroke_Key.backspace	Key.backspace	n/a
208.3955	0.105	416791	keystroke_s	s	n/a
209.295	0.15	418590	keystroke_w	w	n/a
209.43	0.03	418860	keystroke_i	i	n/a
209.475	0.015	418950	keystroke_c	c	n/a
209.505	0.1345	419010	keystroke_h	h	n/a
209.5795	0.15	419159	keystroke_Key.space	Key.space	n/a
210.075	0.135	420150	keystroke_c	c	n/a
210.15	0.135	420300	keystroke_a	a	n/a
210.315	0.12	420630	keystroke_u	u	n/a
210.45	0.09	420900	keystroke_s	s	n/a
210.615	0.1355	421230	keystroke_i	i	n/a
210.6595	0.1665	421319	keystroke_n	n	n/a
210.7805	0.1495	421561	keystroke_g	g	n/a
212.0995	0.09	424199	keystroke_Key.backspace	Key.backspace	n/a
212.295	0.075	424590	keystroke_Key.backspace	Key.backspace	n/a
212.46	0.09	424920	keystroke_Key.backspace	Key.backspace	n/a
212.6395	0.075	425279	keystroke_Key.backspace	Key.backspace	n/a
212.88	0.015	425760	keystroke_Key.backspace	Key.backspace	n/a
212.971	0.089	425942	keystroke_Key.backspace	Key.backspace	n/a
213.15	0.076	426300	keystroke_Key.backspace	Key.backspace	n/a
213.3305	0.075	426661	keystroke_Key.backspace	Key.backspace	n/a
213.5105	0.075	427021	keystroke_Key.backspace	Key.backspace	n/a
213.8255	0.165	427651	keystroke_k	k	n/a
213.9305	0.135	427861	keystroke_Key.space	Key.space	n/a
214.1255	0.075	428251	keystroke_c	c	n/a
214.1555	0.12	428311	keystroke_a	a	n/a
214.2605	0.1195	428521	keystroke_u	u	n/a
214.395	0.075	428790	keystroke_s	s	n/a
214.5005	0.1495	429001	keystroke_i	i	n/a
214.5755	0.1495	429151	keystroke_n	n	n/a
214.68	0.15	429360	keystroke_g	g	n/a
216.4655	0.1345	432931	keystroke_Key.enter	Key.enter	n/a
216.6085	5.3185	433217	prompt	n/a	lovers shops room spyware\n
217.2315	0.089	434463	keystroke_l	l	n/a
217.4255	0.151	434851	keystroke_o	o	n/a
217.5155	0.075	435031	keystroke_v	v	n/a
217.5605	0.18	435121	keystroke_e	e	n/a
217.7255	0.09	435451	keystroke_r	r	n/a
217.8305	0.135	435661	keystroke_s	s	n/a
218.0705	0.105	436141	keystroke_Key.space	Key.space	n/a
218.2805	0.135	436561	keystroke_s	s	n/a
218.3555	0.15	436711	keystroke_h	h	n/a
218.4305	0.12	436861	keystroke_o	o	n/a
218.6555	0.12	437311	keystroke_p	p	n/a
218.7455	0.12	437491	keystroke_s	s	n/a
218.8955	0.135	437791	keystroke_Key.space	Key.space	n/a
219.1205	0.135	438241	keystroke_r	r	n/a
219.2255	0.105	438451	keystroke_o	o	n/a
219.4205	0.225	438841	keystroke_o	o	n/a
219.5105	0.165	439021	keystroke_m	m	n/a
219.6605	0.1345	439321	keystroke_Key.space	Key.space	n/a
219.975	0.135	439950	keystroke_s	s	n/a
220.095	0.135	440190	keystroke_p	p	n/a
220.245	0.12	440490	keystroke_y	y	n/a
220.7255	0.15	441451	keystroke_w	w	n/a
220.8605	0.0895	441721	keystroke_a	a	n/a
220.9205	0.1195	441841	keystroke_r	r	n/a
221.07	0.225	442140	keystroke_d	d	n/a
221.52	0.09	443040	keystroke_Key.backspace	Key.backspace	n/a
221.625	0.12	443250	keystroke_e	e	n/a
221.775	0.15	443550	keystroke_Key.enter	Key.enter	n/a
221.9355	9.232	443871	prompt	n/a	pulling seriously spirituality must've\n
222.585	0.18	445170	keystroke_p	p	n/a
222.766	0.119	445532	keystroke_u	u	n/a
222.915	0.12	445830	keystroke_l	l	n/a
223.095	0.18	446190	keystroke_l	l	n/a
223.215	0.165	446430	keystroke_i	i	n/a
223.305	0.135	446610	keystroke_n	n	n/a
223.41	0.105	446820	keystroke_g	g	n/a
223.53	0.12	447060	keystroke_Key.space	Key.space	n/a
223.77	0.105	447540	keystroke_s	s	n/a
223.935	0.15	447870	keystroke_e	e	n/a
224.055	0.15	448110	keystroke_r	r	n/a
224.22	0.135	448440	keystroke_i	i	n/a
224.28	0.15	448560	keystroke_o	o	n/a
224.385	0.135	448770	keystroke_u	u	n/a
224.58	0.135	449160	keystroke_s	s	n/a
224.7	0.195	449400	keystroke_l	l	n/a
224.82	0.135	449640	keystroke_y	y	n/a
224.91	0.135	449820	keystroke_Key.space	Key.space	n/a
225.375	0.151	450750	keystroke_s	s	n/a
225.51	0.165	451020	keystroke_p	p	n/a
226.171	0.134	452342	keystroke_i	i	n/a
226.455	0.12	452910	keystroke_r	r	n/a
226.59	0.135	453180	keystroke_i	i	n/a
226.965	0.09	453930	keystroke_t	t	n/a
227.07	0.09	454140	keystroke_u	u	n/a
227.19	0.1645	454380	keystroke_a	a	n/a
227.3695	0.195	454739	keystroke_l	l	n/a
227.88	0.1355	455760	keystroke_l	l	n/a
228.2245	0.075	456449	keystroke_Key.backspace	Key.backspace	n/a
228.4205	0.089	456841	keystroke_i	i	n/a
228.57	0.09	457140	keystroke_t	t	n/a
228.93	0.135	457860	keystroke_y	y	n/a
229.035	0.135	458070	keystroke_Key.space	Key.space	n/a
229.365	0.09	458730	keystroke_m	m	n/a
229.59	0.09	459180	keystroke_u	u	n/a
229.755	0.135	459510	keystroke_s	s	n/a
229.875	0.12	459750	keystroke_t	t	n/a
230.055	0.135	460110	keystroke_'	'	n/a
230.385	0.165	460770	keystroke_v	v	n/a
230.535	0.1655	461070	keystroke_e	e	n/a
231.045	0.12	462090	keystroke_Key.enter	Key.enter	n/a
231.172	29.695	462344	prompt	n/a	feeds chronic liechtenstein pension\n
231.795	0.105	463590	keystroke_f	f	n/a
231.87	0.105	463740	keystroke_e	e	n/a
232.05	0.09	464100	keystroke_e	e	n/a
232.26	0.12	464520	keystroke_d	d	n/a
232.755	0.12	465510	keystroke_s	s	n/a
233.7	0.12	467400	keystroke_Key.space	Key.space	n/a
233.9245	0.151	467849	keystroke_c	c	n/a
234.0605	0.135	468121	keystroke_h	h	n/a
234.1505	0.165	468301	keystroke_o	o	n/a
234.3305	0.1345	468661	keystroke_r	r	n/a
234.63	0.21	469260	keystroke_n	n	n/a
234.795	0.15	469590	keystroke_i	i	n/a
235.365	0.12	470730	keystroke_c	c	n/a
235.53	0.15	471060	keystroke_Key.space	Key.space	n/a
235.83	0.195	471660	keystroke_l	l	n/a
235.995	0.135	471990	keystroke_i	i	n/a
236.4755	0.12	472951	keystroke_e	e	n/a
239.2685	0	478537	keystroke_Key.backspace	Key.backspace	n/a
239.3545	0.09	478709	keystroke_Key.backspace	Key.backspace	n/a
239.5345	0.06	479069	keystroke_Key.backspace	Key.backspace	n/a
239.7145	0.045	479429	keystroke_Key.backspace	Key.backspace	n/a
239.8645	0.075	479729	keystroke_Key.backspace	Key.backspace	n/a
240.0295	0.09	480059	keystroke_Key.backspace	Key.backspace	n/a
240.195	0.075	480390	keystroke_Key.backspace	Key.backspace	n/a
240.375	0.06	480750	keystroke_Key.backspace	Key.backspace	n/a
240.54	0.0755	481080	keystroke_Key.backspace	Key.backspace	n/a
240.6895	0.136	481379	keystroke_r	r	n/a
240.8405	0.1345	481681	keystroke_o	o	n/a
240.9155	0.1945	481831	keystroke_n	n	n/a
241.05	0.165	482100	keystroke_i	i	n/a
241.155	0.12	482310	keystroke_c	c	n/a
241.3955	0.089	482791	keystroke_e	e	n/a
241.5905	0.15	483181	keystroke_Key.space	Key.space	n/a
241.9355	0.06	483871	keystroke_Key.backspace	Key.backspace	n/a
242.0855	0.105	484171	keystroke_Key.backspace	Key.backspace	n/a
242.2055	0.15	484411	keystroke_Key.space	Key.space	n/a
242.7455	0.134	485491	keystroke_l	l	n/a
242.8045	0.196	485609	keystroke_i	i	n/a
243.0595	0.106	486119	keystroke_e	e	n/a
243.4955	0.119	486991	keystroke_c	c	n/a
243.5845	0.1205	487169	keystroke_h	h	n/a
243.75	0.105	487500	keystroke_e	e	n/a
244.035	0.12	488070	keystroke_t	t	n/a
244.17	0.12	488340	keystroke_e	e	n/a
244.305	0.135	488610	keystroke_n	n	n/a
244.485	0.18	488970	keystroke_s	s	n/a
245.025	0.165	490050	keystroke_t	t	n/a
245.205	0.1655	490410	keystroke_e	e	n/a
245.6255	0.165	491251	keystroke_i	i	n/a
245.7305	0.18	491461	keystroke_n	n	n/a
246.15	0.015	492300	keystroke_Key.space	Key.space	n/a
246.33	0.105	492660	keystroke_p	p	n/a
246.435	0.1045	492870	keystroke_e	e	n/a
246.555	0.105	493110	keystroke_n	n	n/a
246.675	0.135	493350	keystroke_s	s	n/a
246.795	0.15	493590	keystroke_i	i	n/a
246.885	0.165	493770	keystroke_o	o	n/a
246.96	0.195	493920	keystroke_n	n	n/a
251.2795	0.09	502559	keystroke_Key.backspace	Key.backspace	n/a
251.4745	0.09	502949	keystroke_Key.backspace	Key.backspace	n/a
251.6545	0.075	503309	keystroke_Key.backspace	Key.backspace	n/a
251.8345	0.0905	503669	keystroke_Key.backspace	Key.backspace	n/a
252	0.1205	504000	keystroke_t	t	n/a
252.0605	0.165	504121	keystroke_e	e	n/a
252.3455	0.15	504691	keystroke_n	n	n/a
253.065	0.21	506130	keystroke_s	s	n/a
253.395	0.21	506790	keystroke_t	t	n/a
254.175	0.105	508350	keystroke_e	e	n/a
254.295	0.15	508590	keystroke_i	i	n/a
254.355	0.18	508710	keystroke_n	n	n/a
254.625	0.1495	509250	keystroke_Key.space	Key.space	n/a
255	0.09	510000	keystroke_p	p	n/a
255.105	0.09	510210	keystroke_e	e	n/a
255.21	0.12	510420	keystroke_n	n	n/a
255.39	0.12	510780	keystroke_s	s	n/a
255.465	0.165	510930	keystroke_i	i	n/a
255.5855	0.1345	511171	keystroke_o	o	n/a
255.615	0.195	511230	keystroke_n	n	n/a
260.7625	0.102	521525	keystroke_Key.enter	Key.enter	n/a
260.873	5.3485	521746	prompt	n/a	sent decide pixel expand\n
261.6755	0.165	523351	keystroke_s	s	n/a
261.7955	0.12	523591	keystroke_e	e	n/a
261.8855	0.135	523771	keystroke_n	n	n/a
262.0215	0.104	524043	keystroke_t	t	n/a
262.1405	0.15	524281	keystroke_Key.space	Key.space	n/a
262.2755	0.105	524551	keystroke_d	d	n/a
262.4405	0.075	524881	keystroke_e	e	n/a
262.6805	0.0895	525361	keystroke_c	c	n/a
262.8	0.12	525600	keystroke_i	i	n/a
262.86	0.105	525720	keystroke_d	d	n/a
263.085	0.09	526170	keystroke_e	e	n/a
263.16	0.12	526320	keystroke_Key.space	Key.space	n/a
263.325	0.135	526650	keystroke_p	p	n/a
263.385	0.165	526770	keystroke_i	i	n/a
263.565	0.12	527130	keystroke_x	x	n/a
263.895	0.15	527790	keystroke_l	l	n/a
264.2395	0.06	528479	keystroke_Key.backspace	Key.backspace	n/a
264.2845	0.15	528569	keystroke_e	e	n/a
264.4645	0.18	528929	keystroke_l	l	n/a
264.5995	0.12	529199	keystroke_Key.space	Key.space	n/a
264.915	0.105	529830	keystroke_e	e	n/a
265.2	0.135	530400	keystroke_x	x	n/a
265.59	0.12	531180	keystroke_p	p	n/a
265.725	0.105	531450	keystroke_a	a	n/a
265.845	0.1195	531690	keystroke_n	n	n/a
265.92	0.165	531840	keystroke_d	d	n/a
266.145	0.075	532290	keystroke_Key.enter	Key.enter	n/a
266.2255	17.3965	532451	prompt	n/a	banner amenities mirror positions\n
266.9705	0.165	533941	keystroke_b	b	n/a
267.1205	0.1195	534241	keystroke_a	a	n/a
267.21	0.075	534420	keystroke_n	n	n/a
267.36	0.09	534720	keystroke_n	n	n/a
267.51	0.09	535020	keystroke_e	e	n/a
267.57	0.135	535140	keystroke_r	r	n/a
267.84	0.1195	535680	keystroke_Key.space	Key.space	n/a
268.05	0.135	536100	keystroke_a	a	n/a
268.17	0.135	536340	keystroke_m	m	n/a
268.59	0.1205	537180	keystroke_e	e	n/a
268.7105	0.134	537421	keystroke_n	n	n/a
269.2945	0.09	538589	keystroke_t	t	n/a
269.4145	0.135	538829	keystroke_i	i	n/a
269.6995	0.105	539399	keystroke_t	t	n/a
269.88	0.12	539760	keystroke_i	i	n/a
270.03	0.15	540060	keystroke_e	e	n/a
270.15	0.135	540300	keystroke_s	s	n/a
270.375	0.135	540750	keystroke_Key.space	Key.space	n/a
270.81	0.1945	541620	keystroke_m	m	n/a
270.9895	0.121	541979	keystroke_i	i	n/a
271.1395	0.075	542279	keystroke_r	r	n/a
271.3345	0.0905	542669	keystroke_r	r	n/a
271.41	0.135	542820	keystroke_o	o	n/a
272.205	0.105	544410	keystroke_r	r	n/a
272.49	0.12	544980	keystroke_Key.space	Key.space	n/a
272.76	0.1495	545520	keystroke_p	p	n/a
272.8345	0.18	545669	keystroke_o	o	n/a
273.3455	0.105	546691	keystroke_s	s	n/a
273.4805	0.104	546961	keystroke_i	i	n/a
273.615	0.12	547230	keystroke_t	t	n/a
273.675	0.15	547350	keystroke_i	i	n/a
273.795	0.15	547590	keystroke_o	o	n/a
273.84	0.15	547680	keystroke_n	n	n/a
273.96	0.12	547920	keystroke_s	s	n/a
276.6295	0.105	553259	keystroke_Key.backspace	Key.backspace	n/a
276.84	0.12	553680	keystroke_Key.backspace	Key.backspace	n/a
277.08	0.105	554160	keystroke_Key.backspace	Key.backspace	n/a
277.305	0.1195	554610	keystroke_Key.backspace	Key.backspace	n/a
277.6195	0.121	555239	keystroke_Key.backspace	Key.backspace	n/a
277.9495	0.121	555899	keystroke_Key.backspace	Key.backspace	n/a
278.2805	0.165	556561	keystroke_i	i	n/a
278.4745	0.136	556949	keystroke_t	t	n/a
278.6245	0.135	557249	keystroke_i	i	n/a
279.1955	0.179	558391	keystroke_t	t	n/a
279.4795	0.195	558959	keystroke_e	e	n/a
279.8405	0.044	559681	keystroke_Key.backspace	Key.backspace	n/a
279.9595	0.12	559919	keystroke_Key.backspace	Key.backspace	n/a
280.0655	0.12	560131	keystroke_e	e	n/a
280.1555	0.1645	560311	keystroke_s	s	n/a
280.455	0.165	560910	keystroke_Key.space	Key.space	n/a
280.725	0.1505	561450	keystroke_m	m	n/a
280.8155	0.1345	561631	keystroke_i	i	n/a
280.995	0.075	561990	keystroke_r	r	n/a
281.16	0.105	562320	keystroke_r	r	n/a
281.25	0.135	562500	keystroke_o	o	n/a
282.015	0.135	564030	keystroke_r	r	n/a
282.21	0.135	564420	keystroke_Key.space	Key.space	n/a
282.42	0.1495	564840	keystroke_p	p	n/a
282.51	0.1195	565020	keystroke_o	o	n/a
282.6155	0.105	565231	keystroke_s	s	n/a
282.7655	0.0895	565531	keystroke_i	i	n/a
282.84	0.09	565680	keystroke_t	t	n/a
282.9595	0.1355	565919	keystroke_i	i	n/a
283.0195	0.1655	566039	keystroke_o	o	n/a
283.08	0.15	566160	keystroke_n	n	n/a
283.2	0.105	566400	keystroke_s	s	n/a
283.515	0.105	567030	keystroke_Key.enter	Key.enter	n/a
283.627	6.474	567254	prompt	n/a	changing thick dubai restore\n
284.4155	0.135	568831	keystroke_c	c	n/a
284.5355	0.09	569071	keystroke_h	h	n/a
284.6255	0.12	569251	keystroke_a	a	n/a
284.7605	0.119	569521	keystroke_n	n	n/a
285.1195	0.12	570239	keystroke_g	g	n/a
285.2245	0.18	570449	keystroke_i	i	n/a
285.2845	0.15	570569	keystroke_n	n	n/a
285.4495	0.09	570899	keystroke_g	g	n/a
285.5245	0.15	571049	keystroke_Key.space	Key.space	n/a
285.7495	0.105	571499	keystroke_t	t	n/a
285.8095	0.196	571619	keystroke_h	h	n/a
285.9305	0.165	571861	keystroke_i	i	n/a
286.3055	0.135	572611	keystroke_c	c	n/a
286.4105	0.165	572821	keystroke_k	k	n/a
286.5295	0.136	573059	keystroke_Key.space	Key.space	n/a
287.055	0.03	574110	keystroke_b	b	n/a
287.415	0.075	574830	keystroke_Key.backspace	Key.backspace	n/a
287.46	0.12	574920	keystroke_d	d	n/a
287.61	0.09	575220	keystroke_u	u	n/a
287.76	0.135	575520	keystroke_b	b	n/a
287.865	0.165	575730	keystroke_a	a	n/a
288.045	0.165	576090	keystroke_i	i	n/a
288.211	0.164	576422	keystroke_Key.space	Key.space	n/a
288.765	0.1355	577530	keystroke_r	r	n/a
288.8555	0.165	577711	keystroke_e	e	n/a
289.0045	0.15	578009	keystroke_s	s	n/a
289.1405	0.12	578281	keystroke_t	t	n/a
289.4255	0.15	578851	keystroke_o	o	n/a
289.5755	0.135	579151	keystroke_r	r	n/a
289.6495	0.166	579299	keystroke_e	e	n/a
289.9955	0.104	579991	keystroke_Key.enter	Key.enter	n/a
290.106	8.5605	580212	prompt	n/a	most lucas mailman irrigation\n
290.8055	0.1495	581611	keystroke_m	m	n/a
290.91	0.15	581820	keystroke_o	o	n/a
290.97	0.135	581940	keystroke_s	s	n/a
291.075	0.105	582150	keystroke_t	t	n/a
291.195	0.12	582390	keystroke_Key.space	Key.space	n/a
291.36	0.15	582720	keystroke_l	l	n/a
291.465	0.135	582930	keystroke_u	u	n/a
291.705	0.135	583410	keystroke_c	c	n/a
291.825	0.1345	583650	keystroke_a	a	n/a
291.9745	0.21	583949	keystroke_s	s	n/a
292.2905	0.119	584581	keystroke_Key.space	Key.space	n/a
292.6955	0.119	585391	keystroke_m	m	n/a
293.1145	0.1505	586229	keystroke_a	a	n/a
293.25	0.18	586500	keystroke_i	i	n/a
293.355	0.255	586710	keystroke_l	l	n/a
294.825	0.1055	589650	keystroke_m	m	n/a
295.0505	0.1795	590101	keystroke_a	a	n/a
295.2145	0.136	590429	keystroke_n	n	n/a
295.6655	0.119	591331	keystroke_Key.space	Key.space	n/a
295.9195	0.1355	591839	keystroke_i	i	n/a
296.1	0.06	592200	keystroke_r	r	n/a
296.28	0.12	592560	keystroke_r	r	n/a
296.61	0.015	593220	keystroke_i	i	n/a
296.715	0.0755	593430	keystroke_g	g	n/a
297.1195	0.121	594239	keystroke_a	a	n/a
297.2545	0.121	594509	keystroke_t	t	n/a
297.3905	0.15	594781	keystroke_i	i	n/a
297.4955	0.15	594991	keystroke_o	o	n/a
297.5695	0.196	595139	keystroke_n	n	n/a
298.545	0.12	597090	keystroke_Key.enter	Key.enter	n/a
298.6715	7.8405	597343	prompt	n/a	guards lens florida apartments\n
299.4	0.105	598800	keystroke_g	g	n/a
299.49	0.12	598980	keystroke_u	u	n/a
299.655	0.12	599310	keystroke_a	a	n/a
299.73	0.105	599460	keystroke_r	r	n/a
299.895	0.165	599790	keystroke_d	d	n/a
300.165	0.1345	600330	keystroke_s	s	n/a
300.4195	0.1205	600839	keystroke_Key.space	Key.space	n/a
300.555	0.135	601110	keystroke_l	l	n/a
300.7945	0.09	601589	keystroke_e	e	n/a
300.915	0.1045	601830	keystroke_n	n	n/a
301.0205	0.119	602041	keystroke_d	d	n/a
301.1405	0.149	602281	keystroke_s	s	n/a
301.845	0.06	603690	keystroke_Key.backspace	Key.backspace	n/a
301.965	0.1045	603930	keystroke_Key.backspace	Key.backspace	n/a
302.01	0.1495	604020	keystroke_s	s	n/a
302.2045	0.1505	604409	keystroke_Key.space	Key.space	n/a
302.8795	0.1205	605759	keystroke_f	f	n/a
302.97	0.09	605940	keystroke_l	l	n/a
303.15	0.12	606300	keystroke_o	o	n/a
303.3	0.09	606600	keystroke_r	r	n/a
303.405	0.12	606810	keystroke_i	i	n/a
303.69	0.1345	607380	keystroke_d	d	n/a
303.7955	0.15	607591	keystroke_a	a	n/a
304.1845	0.135	608369	keystroke_Key.space	Key.space	n/a
304.4855	0.119	608971	keystroke_a	a	n/a
304.6495	0.121	609299	keystroke_p	p	n/a
304.7845	0.106	609569	keystroke_a	a	n/a
304.8595	0.09	609719	keystroke_r	r	n/a
305.0695	0.09	610139	keystroke_t	t	n/a
305.55	0.09	611100	keystroke_m	m	n/a
305.61	0.12	611220	keystroke_e	e	n/a
305.79	0.105	611580	keystroke_n	n	n/a
305.88	0.105	611760	keystroke_t	t	n/a
306.06	0.12	612120	keystroke_s	s	n/a
306.39	0.12	612780	keystroke_Key.enter	Key.enter	n/a
306.5165	12.071	613033	prompt	n/a	tournament could've individual drama\n
307.7095	0.09	615419	keystroke_t	t	n/a
307.7545	0.21	615509	keystroke_o	o	n/a
307.8445	0.1505	615689	keystroke_u	u	n/a
308.5205	0.105	617041	keystroke_r	r	n/a
308.7155	0.119	617431	keystroke_n	n	n/a
308.8495	0.135	617699	keystroke_a	a	n/a
309.3295	0.165	618659	keystroke_m	m	n/a
309.4495	0.12	618899	keystroke_o	o	n/a
309.6595	0.09	619319	keystroke_e	e	n/a
309.8395	0.06	619679	keystroke_Key.backspace	Key.backspace	n/a
309.9745	0.105	619949	keystroke_Key.backspace	Key.backspace	n/a
310.0955	0.105	620191	keystroke_e	e	n/a
310.26	0.105	620520	keystroke_n	n	n/a
310.41	0.12	620820	keystroke_t	t	n/a
310.635	0.135	621270	keystroke_Key.space	Key.space	n/a
310.92	0.1345	621840	keystroke_c	c	n/a
310.9945	0.135	621989	keystroke_o	o	n/a
311.0705	0.135	622141	keystroke_u	u	n/a
311.4305	0.1495	622861	keystroke_l	l	n/a
312.8695	0.15	625739	keystroke_'	'	n/a
313.47	0.09	626940	keystroke_Key.backspace	Key.backspace	n/a
313.575	0.165	627150	keystroke_d	d	n/a
313.815	0.1505	627630	keystroke_'	'	n/a
314.2495	0.15	628499	keystroke_v	v	n/a
314.3855	0.134	628771	keystroke_e	e	n/a
314.5645	0.12	629129	keystroke_Key.space	Key.space	n/a
314.8645	0.15	629729	keystroke_i	i	n/a
314.9395	0.12	629879	keystroke_n	n	n/a
315.0445	0.09	630089	keystroke_d	d	n/a
315.1645	0.136	630329	keystroke_i	i	n/a
315.2545	0.121	630509	keystroke_s	s	n/a
315.945	0.0745	631890	keystroke_Key.backspace	Key.backspace	n/a
316.0345	0.135	632069	keystroke_v	v	n/a
316.1545	0.12	632309	keystroke_i	i	n/a
316.4545	0.12	632909	keystroke_d	d	n/a
316.5595	0.105	633119	keystroke_u	u	n/a
316.7245	0.135	633449	keystroke_s	s	n/a
317.235	0.075	634470	keystroke_Key.backspace	Key.backspace	n/a
317.325	0.165	634650	keystroke_a	a	n/a
317.475	0.15	634950	keystroke_l	l	n/a
317.58	0.135	635160	keystroke_Key.space	Key.space	n/a
317.805	0.105	635610	keystroke_d	d	n/a
318.015	0.12	636030	keystroke_r	r	n/a
318.12	0.15	636240	keystroke_a	a	n/a
318.21	0.195	636420	keystroke_m	m	n/a
318.435	0.1495	636870	keystroke_Key.enter	Key.enter	n/a
318.5925	6.9245	637185	prompt	n/a	wouldn't pressure without holy\n
319.7705	0.149	639541	keystroke_w	w	n/a
319.8305	0.149	639661	keystroke_o	o	n/a
319.9345	0.091	639869	keystroke_u	u	n/a
320.0845	0.135	640169	keystroke_l	l	n/a
320.2045	0.12	640409	keystroke_d	d	n/a
320.4445	0.12	640889	keystroke_n	n	n/a
320.5795	0.105	641159	keystroke_'	'	n/a
320.7	0.0895	641400	keystroke_t	t	n/a
320.8495	0.165	641699	keystroke_Key.space	Key.space	n/a
321.2245	0.135	642449	keystroke_p	p	n/a
321.3295	0.121	642659	keystroke_r	r	n/a
321.4045	0.1205	642809	keystroke_e	e	n/a
321.615	0.09	643230	keystroke_s	s	n/a
321.795	0.09	643590	keystroke_s	s	n/a
321.885	0.12	643770	keystroke_u	u	n/a
322.02	0.075	644040	keystroke_r	r	n/a
322.05	0.12	644100	keystroke_e	e	n/a
322.184	0.0905	644368	keystroke_Key.space	Key.space	n/a
322.2895	0.09	644579	keystroke_w	w	n/a
322.4245	0.135	644849	keystroke_i	i	n/a
322.785	0.09	645570	keystroke_t	t	n/a
322.86	0.12	645720	keystroke_h	h	n/a
322.95	0.225	645900	keystroke_o	o	n/a
323.115	0.15	646230	keystroke_u	u	n/a
323.565	0.09	647130	keystroke_t	t	n/a
323.79	0.105	647580	keystroke_Key.space	Key.space	n/a
324.03	0.105	648060	keystroke_h	h	n/a
324.075	0.1195	648150	keystroke_o	o	n/a
324.2845	0.165	648569	keystroke_l	l	n/a
324.4195	0.15	648839	keystroke_y	y	n/a
325.38	0.135	650760	keystroke_Key.enter	Key.enter	n/a
325.522	10.39	651044	prompt	n/a	chains relatives how're wrapped\n
326.475	0.1205	652950	keystroke_c	c	n/a
326.565	0.105	653130	keystroke_h	h	n/a
326.715	0.15	653430	keystroke_a	a	n/a
326.85	0.1795	653700	keystroke_i	i	n/a
326.97	0.1495	653940	keystroke_n	n	n/a
327.1345	0.12	654269	keystroke_s	s	n/a
327.3295	0.12	654659	keystroke_Key.space	Key.space	n/a
328.9945	0.12	657989	keystroke_r	r	n/a
329.0695	0.15	658139	keystroke_e	e	n/a
329.2795	0.165	658559	keystroke_l	l	n/a
329.4145	0.195	658829	keystroke_a	a	n/a
329.7295	0.075	659459	keystroke_t	t	n/a
329.8645	0.135	659729	keystroke_i	i	n/a
329.9695	0.151	659939	keystroke_v	v	n/a
330.1045	0.105	660209	keystroke_e	e	n/a
330.3445	0.12	660689	keystroke_s	s	n/a
330.5395	0.12	661079	keystroke_Key.space	Key.space	n/a
330.795	0.1345	661590	keystroke_h	h	n/a
330.885	0.12	661770	keystroke_o	o	n/a
330.96	0.1045	661920	keystroke_w	w	n/a
331.1395	0.165	662279	keystroke_'	'	n/a
331.2905	0.104	662581	keystroke_s	s	n/a
331.6195	0.075	663239	keystroke_Key.backspace	Key.backspace	n/a
331.7695	0.09	663539	keystroke_Key.backspace	Key.backspace	n/a
332.1445	0.165	664289	keystroke_'	'	n/a
332.8045	0.135	665609	keystroke_r	r	n/a
332.9095	0.1205	665819	keystroke_e	e	n/a
333.09	0.135	666180	keystroke_Key.space	Key.space	n/a
333.375	0.21	666750	keystroke_w	w	n/a
333.54	0.15	667080	keystroke_a	a	n/a
333.586	0.149	667172	keystroke_r	r	n/a
334.3645	0.15	668729	keystroke_Key.backspace	Key.backspace	n/a
334.5295	0.03	669059	keystroke_Key.backspace	Key.backspace	n/a
334.5445	0.045	669089	keystroke_r	r	n/a
334.5745	0.06	669149	keystroke_a	a	n/a
334.6495	0.075	669299	keystroke_p	p	n/a
334.8145	0.12	669629	keystroke_p	p	n/a
335.3695	0.091	670739	keystroke_e	e	n/a
335.5795	0.15	671159	keystroke_d	d	n/a
335.8045	0.105	671609	keystroke_Key.enter	Key.enter	n/a
335.923	11.733	671846	prompt	n/a	stuart expenditure cooperative exterior\n
336.6745	0.135	673349	keystroke_s	s	n/a
336.7945	0.1055	673589	keystroke_t	t	n/a
337.05	0.105	674100	keystroke_u	u	n/a
337.23	0.1345	674460	keystroke_a	a	n/a
337.4245	0.12	674849	keystroke_r	r	n/a
337.6495	0.09	675299	keystroke_t	t	n/a
337.8895	0.15	675779	keystroke_Key.space	Key.space	n/a
338.0995	0.09	676199	keystroke_e	e	n/a
338.3095	0.135	676619	keystroke_x	x	n/a
338.4595	0.105	676919	keystroke_p	p	n/a
338.5945	0.12	677189	keystroke_e	e	n/a
338.7295	0.135	677459	keystroke_n	n	n/a
338.9095	0.1205	677819	keystroke_d	d	n/a
339.24	0.135	678480	keystroke_i	i	n/a
339.48	0.075	678960	keystroke_t	t	n/a
339.615	0.135	679230	keystroke_u	u	n/a
339.735	0.12	679470	keystroke_r	r	n/a
339.81	0.18	679620	keystroke_e	e	n/a
341.9695	0.15	683939	keystroke_Key.space	Key.space	n/a
342.3295	0.1355	684659	keystroke_c	c	n/a
342.435	0.119	684870	keystroke_o	o	n/a
342.6905	0.104	685381	keystroke_o	o	n/a
343.05	0.1195	686100	keystroke_p	p	n/a
343.2295	0.181	686459	keystroke_e	e	n/a
343.6345	0.165	687269	keystroke_r	r	n/a
343.7855	0.134	687571	keystroke_a	a	n/a
343.9045	0.105	687809	keystroke_t	t	n/a
344.0545	0.136	688109	keystroke_i	i	n/a
344.2045	0.136	688409	keystroke_v	v	n/a
344.3245	0.12	688649	keystroke_e	e	n/a
344.4455	0.134	688891	keystroke_Key.space	Key.space	n/a
344.5945	0.075	689189	keystroke_e	e	n/a
344.8045	0.105	689609	keystroke_x	x	n/a
344.9995	0.12	689999	keystroke_t	t	n/a
345.1045	0.195	690209	keystroke_e	e	n/a
345.3145	0.1205	690629	keystroke_r	r	n/a
346.005	0.089	692010	keystroke_Key.backspace	Key.backspace	n/a
346.23	0.119	692460	keystroke_i	i	n/a
346.724	0.075	693448	keystroke_Key.backspace	Key.backspace	n/a
346.905	0.135	693810	keystroke_r	r	n/a
347.04	0.1195	694080	keystroke_i	i	n/a
347.1745	0.1355	694349	keystroke_o	o	n/a
347.325	0.15	694650	keystroke_r	r	n/a
347.55	0.105	695100	keystroke_Key.enter	Key.enter	n/a
347.6605	9.2205	695321	prompt	n/a	helicopter chosen structured jazz\n
348.3895	0.0905	696779	keystroke_h	h	n/a
348.4945	0.135	696989	keystroke_e	e	n/a
348.5995	0.165	697199	keystroke_l	l	n/a
348.7795	0.15	697559	keystroke_i	i	n/a
349.0945	0.1505	698189	keystroke_c	c	n/a
349.185	0.12	698370	keystroke_o	o	n/a
349.5	0.165	699000	keystroke_p	p	n/a
349.95	0.12	699900	keystroke_t	t	n/a
350.115	0.165	700230	keystroke_e	e	n/a
350.235	0.1045	700470	keystroke_r	r	n/a
350.3845	0.12	700769	keystroke_Key.space	Key.space	n/a
350.5945	0.1355	701189	keystroke_c	c	n/a
350.6845	0.1355	701369	keystroke_h	h	n/a
350.7595	0.15	701519	keystroke_o	o	n/a
351.105	0.3	702210	keystroke_s	s	n/a
351.435	0.165	702870	keystroke_e	e	n/a
351.615	0.165	703230	keystroke_n	n	n/a
351.795	0.1345	703590	keystroke_Key.space	Key.space	n/a
352.0645	0.135	704129	keystroke_s	s	n/a
352.2005	0.074	704401	keystroke_t	t	n/a
352.365	0.1195	704730	keystroke_r	r	n/a
352.4395	0.15	704879	keystroke_a	a	n/a
352.77	0.12	705540	keystroke_c	c	n/a
353.04	0.075	706080	keystroke_t	t	n/a
353.295	0.06	706590	keystroke_Key.backspace	Key.backspace	n/a
353.4445	0.075	706889	keystroke_Key.backspace	Key.backspace	n/a
353.5795	0.12	707159	keystroke_Key.backspace	Key.backspace	n/a
353.6245	0.15	707249	keystroke_c	c	n/a
353.8195	0.135	707639	keystroke_u	u	n/a
354.1045	0.075	708209	keystroke_Key.backspace	Key.backspace	n/a
354.2395	0.09	708479	keystroke_Key.backspace	Key.backspace	n/a
354.4195	0.105	708839	keystroke_u	u	n/a
354.4795	0.12	708959	keystroke_c	c	n/a
354.7205	0.089	709441	keystroke_t	t	n/a
354.8405	0.119	709681	keystroke_u	u	n/a
354.9445	0.09	709889	keystroke_r	r	n/a
354.9895	0.12	709979	keystroke_e	e	n/a
355.2295	0.15	710459	keystroke_d	d	n/a
355.4695	0.15	710939	keystroke_Key.space	Key.space	n/a
355.6345	0.1205	711269	keystroke_l	l	n/a
355.9195	0.09	711839	keystroke_Key.backspace	Key.backspace	n/a
356.1145	0.105	712229	keystroke_j	j	n/a
356.2045	0.09	712409	keystroke_a	a	n/a
356.4445	0.091	712889	keystroke_z	z	n/a
356.6245	0.15	713249	keystroke_z	z	n/a
356.7595	0.12	713519	keystroke_Key.enter	Key.enter	n/a
356.885	9.641	713770	prompt	n/a	thunder combines logical broker\n
357.6595	0.1055	715319	keystroke_h	h	n/a
357.7795	0.09	715559	keystroke_t	t	n/a
358.1095	0.06	716219	keystroke_Key.backspace	Key.backspace	n/a
358.2445	0.075	716489	keystroke_Key.backspace	Key.backspace	n/a
358.3495	0.09	716699	keystroke_t	t	n/a
358.4405	0.1045	716881	keystroke_h	h	n/a
358.575	0.105	717150	keystroke_r	r	n/a
358.8745	0.075	717749	keystroke_u	u	n/a
359.0845	0.0895	718169	keystroke_Key.backspace	Key.backspace	n/a
359.219	0.106	718438	keystroke_Key.backspace	Key.backspace	n/a
359.415	0.075	718830	keystroke_u	u	n/a
359.6245	0.075	719249	keystroke_n	n	n/a
359.7005	0.089	719401	keystroke_d	d	n/a
359.91	0.1195	719820	keystroke_e	e	n/a
359.9845	0.15	719969	keystroke_r	r	n/a
360.15	0.135	720300	keystroke_Key.space	Key.space	n/a
360.6605	0.134	721321	keystroke_c	c	n/a
360.7645	0.12	721529	keystroke_o	o	n/a
360.8395	0.15	721679	keystroke_m	m	n/a
361.5445	0.09	723089	keystroke_b	b	n/a
361.6795	0.165	723359	keystroke_i	i	n/a
361.7545	0.18	723509	keystroke_n	n	n/a
361.9645	0.12	723929	keystroke_e	e	n/a
362.204	0.106	724408	keystroke_s	s	n/a
362.5195	0.135	725039	keystroke_Key.space	Key.space	n/a
362.8495	0.12	725699	keystroke_l	l	n/a
363.0595	0.1055	726119	keystroke_o	o	n/a
363.165	0.09	726330	keystroke_g	g	n/a
363.285	0.105	726570	keystroke_i	i	n/a
363.45	0.135	726900	keystroke_c	c	n/a
363.735	0.18	727470	keystroke_l	l	n/a
363.84	0.12	727680	keystroke_a	a	n/a
364.125	0.06	728250	keystroke_Key.backspace	Key.backspace	n/a
364.245	0.105	728490	keystroke_Key.backspace	Key.backspace	n/a
364.35	0.135	728700	keystroke_a	a	n/a
364.5	0.135	729000	keystroke_l	l	n/a
364.575	0.15	729150	keystroke_Key.space	Key.space	n/a
365.1595	0.075	730319	keystroke_b	b	n/a
365.3695	0.165	730739	keystroke_r	r	n/a
365.804	0.106	731608	keystroke_o	o	n/a
366.0145	0.12	732029	keystroke_k	k	n/a
366.1195	0.135	732239	keystroke_e	e	n/a
366.2245	0.135	732449	keystroke_r	r	n/a
366.4495	0.075	732899	keystroke_Key.enter	Key.enter	n/a
366.5315	6.4895	733063	prompt	n/a	membership stroke spank outlet\n
367.185	0.104	734370	keystroke_m	m	n/a
367.304	0.105	734608	keystroke_e	e	n/a
367.439	0.135	734878	keystroke_m	m	n/a
367.56	0.1345	735120	keystroke_e	e	n/a
368.0995	0.075	736199	keystroke_Key.backspace	Key.backspace	n/a
368.2495	0.06	736499	keystroke_b	b	n/a
368.5645	0.135	737129	keystroke_e	e	n/a
368.6395	0.12	737279	keystroke_r	r	n/a
368.9095	0.165	737819	keystroke_s	s	n/a
369.0145	0.1955	738029	keystroke_h	h	n/a
369.0895	0.2255	738179	keystroke_i	i	n/a
369.225	0.165	738450	keystroke_p	p	n/a
369.33	0.15	738660	keystroke_Key.space	Key.space	n/a
369.7345	0.135	739469	keystroke_s	s	n/a
369.8545	0.06	739709	keystroke_t	t	n/a
370.0195	0.12	740039	keystroke_r	r	n/a
370.1245	0.12	740249	keystroke_o	o	n/a
370.3195	0.135	740639	keystroke_k	k	n/a
370.4695	0.09	740939	keystroke_e	e	n/a
370.6195	0.15	741239	keystroke_Key.space	Key.space	n/a
370.7845	0.1355	741569	keystroke_s	s	n/a
370.934	0.106	741868	keystroke_p	p	n/a
371.054	0.121	742108	keystroke_a	a	n/a
371.175	0.1345	742350	keystroke_n	n	n/a
371.3845	0.195	742769	keystroke_k	k	n/a
371.6545	0.1205	743309	keystroke_Key.space	Key.space	n/a
372.0905	0.134	744181	keystroke_o	o	n/a
372.1795	0.136	744359	keystroke_u	u	n/a
372.3295	0.075	744659	keystroke_t	t	n/a
372.4355	0.164	744871	keystroke_l	l	n/a
372.5695	0.15	745139	keystroke_e	e	n/a
372.7345	0.12	745469	keystroke_t	t	n/a
372.9295	0.09	745859	keystroke_Key.enter	Key.enter	n/a
373.0255	7.211	746051	prompt	n/a	madness robin recovery granted\n
373.6345	0.135	747269	keystroke_m	m	n/a
373.7545	0.105	747509	keystroke_a	a	n/a
373.9045	0.12	747809	keystroke_d	d	n/a
374.1745	0.12	748349	keystroke_n	n	n/a
374.2795	0.09	748559	keystroke_e	e	n/a
374.4745	0.075	748949	keystroke_s	s	n/a
374.6405	0.119	749281	keystroke_s	s	n/a
374.8195	0.105	749639	keystroke_Key.space	Key.space	n/a
375.0445	0.09	750089	keystroke_r	r	n/a
375.1495	0.135	750299	keystroke_o	o	n/a
375.3595	0.09	750719	keystroke_b	b	n/a
375.4645	0.135	750929	keystroke_i	i	n/a
375.7195	0.18	751439	keystroke_n	n	n/a
375.9145	0.135	751829	keystroke_Key.space	Key.space	n/a
376.2155	0.119	752431	keystroke_r	r	n/a
376.2895	0.12	752579	keystroke_e	e	n/a
376.8595	0.045	753719	keystroke_c	c	n/a
376.9195	0.09	753839	keystroke_o	o	n/a
377.2195	0.12	754439	keystroke_v	v	n/a
377.3695	0.18	754739	keystroke_e	e	n/a
377.5045	0.15	755009	keystroke_r	r	n/a
377.7295	0.18	755459	keystroke_y	y	n/a
377.8945	0.135	755789	keystroke_Key.space	Key.space	n/a
378.3295	0.075	756659	keystroke_g	g	n/a
378.5245	0.09	757049	keystroke_r	r	n/a
378.5545	0.165	757109	keystroke_a	a	n/a
378.7495	0.165	757499	keystroke_t	t	n/a
378.9295	0.135	757859	keystroke_n	n	n/a
379.29	0.06	758580	keystroke_Key.backspace	Key.backspace	n/a
379.41	0.09	758820	keystroke_Key.backspace	Key.backspace	n/a
379.62	0.0905	759240	keystroke_n	n	n/a
379.665	0.0895	759330	keystroke_t	t	n/a
379.7245	0.09	759449	keystroke_e	e	n/a
379.9195	0.135	759839	keystroke_d	d	n/a
380.0995	0.135	760199	keystroke_Key.enter	Key.enter	n/a
380.2415	7.1045	760483	prompt	n/a	tale willing lift sequences\n
381.1795	0.1195	762359	keystroke_t	t	n/a
381.36	0.119	762720	keystroke_a	a	n/a
381.494	0.151	762988	keystroke_l	l	n/a
381.63	0.12	763260	keystroke_e	e	n/a
381.8995	0.12	763799	keystroke_Key.space	Key.space	n/a
382.1245	0.1195	764249	keystroke_w	w	n/a
382.215	0.135	764430	keystroke_i	i	n/a
382.304	0.075	764608	keystroke_l	l	n/a
382.469	0.135	764938	keystroke_l	l	n/a
382.559	0.195	765118	keystroke_i	i	n/a
382.649	0.151	765298	keystroke_n	n	n/a
382.74	0.104	765480	keystroke_g	g	n/a
382.8745	0.1195	765749	keystroke_Key.space	Key.space	n/a
383.085	0.2695	766170	keystroke_l	l	n/a
383.3095	0.15	766619	keystroke_i	i	n/a
383.4295	0.106	766859	keystroke_f	f	n/a
383.6845	0.09	767369	keystroke_t	t	n/a
383.9995	0.135	767999	keystroke_Key.space	Key.space	n/a
384.4345	0.09	768869	keystroke_r	r	n/a
384.705	0.105	769410	keystroke_Key.backspace	Key.backspace	n/a
384.765	0.165	769530	keystroke_s	s	n/a
384.855	0.135	769710	keystroke_e	e	n/a
385.11	0.135	770220	keystroke_q	q	n/a
385.23	0.15	770460	keystroke_u	u	n/a
385.7545	0.105	771509	keystroke_e	e	n/a
385.8745	0.1355	771749	keystroke_n	n	n/a
386.024	0.121	772048	keystroke_c	c	n/a
386.385	0.0895	772770	keystroke_e	e	n/a
387.105	0.06	774210	keystroke_s	s	n/a
387.24	0.1045	774480	keystroke_Key.enter	Key.enter	n/a
387.3535	7.793	774707	prompt	n/a	handy pete edge abstracts\n
387.9895	0.09	775979	keystroke_h	h	n/a
388.0645	0.12	776129	keystroke_a	a	n/a
388.1995	0.12	776399	keystroke_n	n	n/a
388.2895	0.1205	776579	keystroke_d	d	n/a
388.515	0.134	777030	keystroke_y	y	n/a
388.604	0.135	777208	keystroke_Key.space	Key.space	n/a
388.8905	0.135	777781	keystroke_p	p	n/a
388.9955	0.164	777991	keystroke_e	e	n/a
389.34	0.134	778680	keystroke_t	t	n/a
389.49	0.179	778980	keystroke_e	e	n/a
389.879	0.12	779758	keystroke_Key.space	Key.space	n/a
390.194	0.075	780388	keystroke_d	d	n/a
390.42	0.0295	780840	keystroke_e	e	n/a
390.5695	0.09	781139	keystroke_Key.backspace	Key.backspace	n/a
390.8695	0.075	781739	keystroke_Key.backspace	Key.backspace	n/a
391.1395	0.09	782279	keystroke_e	e	n/a
391.4095	0.1355	782819	keystroke_d	d	n/a
391.92	0.12	783840	keystroke_g	g	n/a
392.01	0.1645	784020	keystroke_e	e	n/a
392.2945	0.105	784589	keystroke_Key.space	Key.space	n/a
392.5345	0.135	785069	keystroke_a	a	n/a
392.7745	0.09	785549	keystroke_b	b	n/a
393.2545	0.12	786509	keystroke_s	s	n/a
393.4195	0.09	786839	keystroke_t	t	n/a
393.6145	0.09	787229	keystroke_r	r	n/a
393.6595	0.135	787319	keystroke_a	a	n/a
393.8845	0.135	787769	keystroke_c	c	n/a
394.2445	0.12	788489	keystroke_t	t	n/a
394.62	0.135	789240	keystroke_s	s	n/a
395.0095	0.135	790019	keystroke_Key.enter	Key.enter	n/a
395.1665	7.99	790333	prompt	n/a	wisdom regular obviously others\n
395.82	0.09	791640	keystroke_w	w	n/a
395.9395	0.15	791879	keystroke_i	i	n/a
396.1045	0.18	792209	keystroke_s	s	n/a
396.6595	0.165	793319	keystroke_d	d	n/a
396.8095	0.18	793619	keystroke_o	o	n/a
397.0795	0.135	794159	keystroke_m	m	n/a
397.3195	0.1195	794639	keystroke_Key.space	Key.space	n/a
397.74	0.104	795480	keystroke_r	r	n/a
397.814	0.135	795628	keystroke_e	e	n/a
398.0545	0.12	796109	keystroke_g	g	n/a
398.1895	0.12	796379	keystroke_u	u	n/a
398.2645	0.165	796529	keystroke_l	l	n/a
398.3845	0.135	796769	keystroke_a	a	n/a
398.4895	0.12	796979	keystroke_r	r	n/a
398.7295	0.1355	797459	keystroke_Key.space	Key.space	n/a
399.33	0.075	798660	keystroke_o	o	n/a
399.42	0.12	798840	keystroke_b	b	n/a
400.499	0.0905	800998	keystroke_i	i	n/a
400.7845	0.06	801569	keystroke_Key.backspace	Key.backspace	n/a
400.8595	0.1205	801719	keystroke_v	v	n/a
400.995	0.1195	801990	keystroke_i	i	n/a
401.055	0.1495	802110	keystroke_o	o	n/a
401.1595	0.12	802319	keystroke_u	u	n/a
401.2345	0.18	802469	keystroke_s	s	n/a
401.3545	0.18	802709	keystroke_l	l	n/a
401.5045	0.12	803009	keystroke_y	y	n/a
401.5795	0.12	803159	keystroke_Key.space	Key.space	n/a
402.2695	0.135	804539	keystroke_o	o	n/a
402.3745	0.09	804749	keystroke_t	t	n/a
402.4645	0.105	804929	keystroke_h	h	n/a
402.5545	0.105	805109	keystroke_e	e	n/a
402.6445	0.12	805289	keystroke_r	r	n/a
402.7655	0.134	805531	keystroke_s	s	n/a
403.0345	0.12	806069	keystroke_Key.enter	Key.enter	n/a
403.161	6.9705	806322	prompt	n/a	poison send korea href\n
403.785	0.15	807570	keystroke_p	p	n/a
403.904	0.12	807808	keystroke_o	o	n/a
404.069	0.165	808138	keystroke_s	s	n/a
404.5645	0.075	809129	keystroke_Key.backspace	Key.backspace	n/a
404.7745	0.075	809549	keystroke_i	i	n/a
404.8195	0.18	809639	keystroke_s	s	n/a
405.0445	0.2695	810089	keystroke_o	o	n/a
405.1795	0.1795	810359	keystroke_n	n	n/a
405.81	0.119	811620	keystroke_Key.space	Key.space	n/a
406.0645	0.165	812129	keystroke_s	s	n/a
406.1995	0.136	812399	keystroke_e	e	n/a
406.3195	0.12	812639	keystroke_n	n	n/a
406.4545	0.135	812909	keystroke_d	d	n/a
406.6045	0.12	813209	keystroke_Key.space	Key.space	n/a
407.2945	0.1955	814589	keystroke_k	k	n/a
407.46	0.18	814920	keystroke_o	o	n/a
407.55	0.105	815100	keystroke_r	r	n/a
407.595	0.18	815190	keystroke_e	e	n/a
407.7	0.195	815400	keystroke_a	a	n/a
408.104	0.135	816208	keystroke_Key.space	Key.space	n/a
408.4645	0.09	816929	keystroke_h	h	n/a
408.6595	0.075	817319	keystroke_e	e	n/a
408.9295	0.09	817859	keystroke_Key.backspace	Key.backspace	n/a
408.9895	0.12	817979	keystroke_r	r	n/a
409.394	0.1205	818788	keystroke_e	e	n/a
409.6195	0.135	819239	keystroke_f	f	n/a
410.024	0.105	820048	keystroke_Key.enter	Key.enter	n/a
410.1355	11.981	820271	prompt	n/a	origin batteries benz clone\n
410.8945	0.12	821789	keystroke_o	o	n/a
411.0295	0.105	822059	keystroke_r	r	n/a
411.1495	0.105	822299	keystroke_i	i	n/a
411.3145	0.1205	822629	keystroke_g	g	n/a
411.419	0.166	822838	keystroke_i	i	n/a
411.48	0.164	822960	keystroke_n	n	n/a
411.615	0.1795	823230	keystroke_a	a	n/a
411.7645	0.15	823529	keystroke_Key.space	Key.space	n/a
412.184	0.076	824368	keystroke_b	b	n/a
412.289	0.075	824578	keystroke_a	a	n/a
412.5595	0.105	825119	keystroke_t	t	n/a
412.949	0.075	825898	keystroke_Key.backspace	Key.backspace	n/a
413.13	0.059	826260	keystroke_Key.backspace	Key.backspace	n/a
413.294	0.075	826588	keystroke_Key.backspace	Key.backspace	n/a
413.46	0.074	826920	keystroke_Key.backspace	Key.backspace	n/a
413.609	0.09	827218	keystroke_Key.backspace	Key.backspace	n/a
413.759	0.135	827518	keystroke_Key.space	Key.space	n/a
414.014	0.09	828028	keystroke_b	b	n/a
414.119	0.12	828238	keystroke_a	a	n/a
414.344	0.105	828688	keystroke_t	t	n/a
414.554	0.075	829108	keystroke_t	t	n/a
414.63	0.1645	829260	keystroke_e	e	n/a
414.7495	0.105	829499	keystroke_r	r	n/a
414.8995	0.135	829799	keystroke_i	i	n/a
415.724	0.12	831448	keystroke_r	r	n/a
416.099	0.105	832198	keystroke_Key.backspace	Key.backspace	n/a
416.174	0.136	832348	keystroke_e	e	n/a
416.354	0.076	832708	keystroke_s	s	n/a
416.489	0.135	832978	keystroke_Key.space	Key.space	n/a
417.359	0.0905	834718	keystroke_b	b	n/a
417.4795	0.15	834959	keystroke_e	e	n/a
417.9445	0.12	835889	keystroke_n	n	n/a
418.2445	0.15	836489	keystroke_z	z	n/a
418.8145	0.1195	837629	keystroke_Key.space	Key.space	n/a
419.189	0.135	838378	keystroke_l	l	n/a
419.279	0.106	838558	keystroke_c	c	n/a
419.5495	0.06	839099	keystroke_Key.backspace	Key.backspace	n/a
419.6695	0.09	839339	keystroke_Key.backspace	Key.backspace	n/a
419.7295	0.15	839459	keystroke_x	x	n/a
419.8945	0.075	839789	keystroke_l	l	n/a
420.0745	0.18	840149	keystroke_o	o	n/a
420.1795	0.15	840359	keystroke_n	n	n/a
420.4795	0.06	840959	keystroke_Key.backspace	Key.backspace	n/a
420.6295	0.075	841259	keystroke_Key.backspace	Key.backspace	n/a
420.7945	0.075	841589	keystroke_Key.backspace	Key.backspace	n/a
420.96	0.059	841920	keystroke_Key.backspace	Key.backspace	n/a
420.99	0.12	841980	keystroke_c	c	n/a
421.23	0.1045	842460	keystroke_l	l	n/a
421.4395	0.1805	842879	keystroke_o	o	n/a
421.53	0.135	843060	keystroke_n	n	n/a
421.695	0.165	843390	keystroke_e	e	n/a
422.01	0.105	844020	keystroke_Key.enter	Key.enter	n/a
422.124	13.0715	844248	prompt	n/a	revolution guyana jurisdiction agreed\n
422.865	0.105	845730	keystroke_r	r	n/a
422.94	0.15	845880	keystroke_e	e	n/a
423.2545	0.165	846509	keystroke_v	v	n/a
423.5395	0.03	847079	keystroke_l	l	n/a
423.8845	0.06	847769	keystroke_Key.backspace	Key.backspace	n/a
424.079	0.106	848158	keystroke_o	o	n/a
424.319	0.105	848638	keystroke_l	l	n/a
424.394	0.135	848788	keystroke_u	u	n/a
424.6495	0.12	849299	keystroke_t	t	n/a
424.8145	0.135	849629	keystroke_i	i	n/a
424.9045	0.195	849809	keystroke_o	o	n/a
425.0095	0.15	850019	keystroke_n	n	n/a
425.4145	0.12	850829	keystroke_Key.space	Key.space	n/a
425.8195	0.1055	851639	keystroke_g	g	n/a
425.925	0.1045	851850	keystroke_u	u	n/a
426.3445	0.12	852689	keystroke_y	y	n/a
426.4945	0.15	852989	keystroke_a	a	n/a
427.3945	0.12	854789	keystroke_n	n	n/a
427.6195	0.1355	855239	keystroke_a	a	n/a
427.8895	0.135	855779	keystroke_Key.space	Key.space	n/a
428.2495	0.09	856499	keystroke_j	j	n/a
428.4745	0.0905	856949	keystroke_u	u	n/a
428.6845	0.09	857369	keystroke_r	r	n/a
428.7895	0.135	857579	keystroke_i	i	n/a
429.1345	0.135	858269	keystroke_s	s	n/a
430.005	0.089	860010	keystroke_d	d	n/a
430.124	0.166	860248	keystroke_i	i	n/a
430.23	0.105	860460	keystroke_s	s	n/a
430.9495	0.09	861899	keystroke_Key.backspace	Key.backspace	n/a
431.0245	0.105	862049	keystroke_c	c	n/a
431.2645	0.075	862529	keystroke_t	t	n/a
431.3545	0.12	862709	keystroke_i	i	n/a
431.4445	0.1945	862889	keystroke_o	o	n/a
431.549	0.195	863098	keystroke_n	n	n/a
431.729	0.135	863458	keystroke_Key.space	Key.space	n/a
432.014	0.12	864028	keystroke_a	a	n/a
432.179	0.09	864358	keystroke_g	g	n/a
432.4195	0.105	864839	keystroke_r	r	n/a
432.4945	0.105	864989	keystroke_e	e	n/a
433.5295	0.12	867059	keystroke_e	e	n/a
433.784	0.181	867568	keystroke_d	d	n/a
435.0595	0.135	870119	keystroke_Key.enter	Key.enter	n/a
435.1995	7.6785	870399	prompt	n/a	queue prospective venue unified\n
436.005	0.119	872010	keystroke_q	q	n/a
436.064	0.135	872128	keystroke_u	u	n/a
436.139	0.18	872278	keystroke_o	o	n/a
436.334	0.18	872668	keystroke_e	e	n/a
436.649	0.06	873298	keystroke_Key.backspace	Key.backspace	n/a
436.769	0.105	873538	keystroke_Key.backspace	Key.backspace	n/a
436.829	0.15	873658	keystroke_e	e	n/a
437.024	0.136	874048	keystroke_u	u	n/a
437.144	0.105	874288	keystroke_e	e	n/a
437.3695	0.135	874739	keystroke_Key.space	Key.space	n/a
437.654	0.121	875308	keystroke_p	p	n/a
437.789	0.1055	875578	keystroke_r	r	n/a
438.1495	0.1345	876299	keystroke_o	o	n/a
438.479	0.135	876958	keystroke_s	s	n/a
438.644	0.1355	877288	keystroke_p	p	n/a
438.7645	0.09	877529	keystroke_e	e	n/a
438.989	0.105	877978	keystroke_c	c	n/a
439.2	0.06	878400	keystroke_t	t	n/a
439.305	0.135	878610	keystroke_i	i	n/a
439.425	0.119	878850	keystroke_v	v	n/a
439.515	0.1495	879030	keystroke_e	e	n/a
439.6345	0.15	879269	keystroke_Key.space	Key.space	n/a
440.339	0.09	880678	keystroke_v	v	n/a
440.4145	0.1345	880829	keystroke_e	e	n/a
440.564	0.09	881128	keystroke_n	n	n/a
440.7745	0.105	881549	keystroke_u	u	n/a
440.9695	0.12	881939	keystroke_e	e	n/a
441.1645	0.135	882329	keystroke_Key.space	Key.space	n/a
441.509	0.1055	883018	keystroke_u	u	n/a
441.7345	0.12	883469	keystroke_n	n	n/a
441.7945	0.15	883589	keystroke_i	i	n/a
442.0045	0.105	884009	keystroke_f	f	n/a
442.1395	0.12	884279	keystroke_i	i	n/a
442.3045	0.075	884609	keystroke_e	e	n/a
442.5295	0.12	885059	keystroke_d	d	n/a
442.7545	0.1195	885509	keystroke_Key.enter	Key.enter	n/a
442.8845	12.3215	885769	prompt	n/a	floral filing conspiracy experiment\n
443.61	0.105	887220	keystroke_f	f	n/a
443.76	0.12	887520	keystroke_l	l	n/a
443.969	0.106	887938	keystroke_o	o	n/a
444.12	0.119	888240	keystroke_r	r	n/a
444.6	0.149	889200	keystroke_a	a	n/a
444.734	0.18	889468	keystroke_l	l	n/a
444.825	0.134	889650	keystroke_Key.space	Key.space	n/a
445.094	0.106	890188	keystroke_f	f	n/a
445.214	0.135	890428	keystroke_i	i	n/a
445.335	0.179	890670	keystroke_l	l	n/a
445.469	0.2405	890938	keystroke_i	i	n/a
445.6795	0.15	891359	keystroke_n	n	n/a
445.8145	0.1195	891629	keystroke_g	g	n/a
445.9495	0.1345	891899	keystroke_Key.space	Key.space	n/a
446.31	0.149	892620	keystroke_c	c	n/a
446.429	0.135	892858	keystroke_o	o	n/a
446.519	0.151	893038	keystroke_n	n	n/a
446.714	0.1505	893428	keystroke_s	s	n/a
448.499	0.15	896998	keystroke_p	p	n/a
449.0395	0.135	898079	keystroke_i	i	n/a
449.2945	0.21	898589	keystroke_r	r	n/a
449.6845	0.165	899369	keystroke_a	a	n/a
449.9395	0.12	899879	keystroke_r	r	n/a
450.6295	0.09	901259	keystroke_Key.backspace	Key.backspace	n/a
450.7345	0.15	901469	keystroke_c	c	n/a
450.8695	0.1495	901739	keystroke_y	y	n/a
450.944	0.15	901888	keystroke_Key.space	Key.space	n/a
451.214	0.09	902428	keystroke_e	e	n/a
451.424	0.12	902848	keystroke_x	x	n/a
451.529	0.1055	903058	keystroke_p	p	n/a
451.71	0.1645	903420	keystroke_e	e	n/a
451.9945	0.12	903989	keystroke_r	r	n/a
452.0995	0.135	904199	keystroke_i	i	n/a
452.5345	0.075	905069	keystroke_e	e	n/a
452.6695	0.135	905339	keystroke_m	m	n/a
452.9545	0.075	905909	keystroke_Key.backspace	Key.backspace	n/a
453.0895	0.0895	906179	keystroke_Key.backspace	Key.backspace	n/a
453.2995	0.105	906599	keystroke_m	m	n/a
453.3895	0.1345	906779	keystroke_e	e	n/a
453.554	0.106	907108	keystroke_n	n	n/a
453.674	0.12	907348	keystroke_t	t	n/a
454.2895	0.12	908579	keystroke_Key.space	Key.space	n/a
454.8595	0.09	909719	keystroke_Key.backspace	Key.backspace	n/a
455.0845	0.12	910169	keystroke_Key.enter	Key.enter	n/a
455.214	10.613	910428	prompt	n/a	websites regulations episode considered\n
455.94	0.134	911880	keystroke_w	w	n/a
456.03	0.104	912060	keystroke_e	e	n/a
456.239	0.105	912478	keystroke_b	b	n/a
456.449	0.105	912898	keystroke_s	s	n/a
456.569	0.1205	913138	keystroke_i	i	n/a
456.674	0.12	913348	keystroke_t	t	n/a
456.7495	0.1345	913499	keystroke_e	e	n/a
456.9295	0.1195	913859	keystroke_s	s	n/a
457.124	0.12	914248	keystroke_Key.space	Key.space	n/a
457.5145	0.105	915029	keystroke_r	r	n/a
457.5745	0.135	915149	keystroke_e	e	n/a
457.7995	0.12	915599	keystroke_g	g	n/a
457.9495	0.135	915899	keystroke_u	u	n/a
458.0395	0.165	916079	keystroke_l	l	n/a
458.2495	0.15	916499	keystroke_a	a	n/a
458.4145	0.12	916829	keystroke_r	r	n/a
459.509	0.105	919018	keystroke_Key.backspace	Key.backspace	n/a
460.515	0.09	921030	keystroke_t	t	n/a
460.619	0.15	921238	keystroke_i	i	n/a
460.71	0.195	921420	keystroke_o	o	n/a
460.785	0.1795	921570	keystroke_n	n	n/a
460.934	0.1355	921868	keystroke_s	s	n/a
461.1895	0.135	922379	keystroke_Key.space	Key.space	n/a
461.6545	0.1345	923309	keystroke_e	e	n/a
462.3295	0.195	924659	keystroke_p	p	n/a
462.4795	0.18	924959	keystroke_i	i	n/a
462.9895	0.12	925979	keystroke_s	s	n/a
463.0945	0.105	926189	keystroke_o	o	n/a
463.1695	0.09	926339	keystroke_d	d	n/a
463.3645	0.075	926729	keystroke_e	e	n/a
463.4695	0.12	926939	keystroke_Key.space	Key.space	n/a
463.7545	0.165	927509	keystroke_c	c	n/a
463.8745	0.18	927749	keystroke_o	o	n/a
463.9345	0.15	927869	keystroke_n	n	n/a
464.0695	0.1205	928139	keystroke_s	s	n/a
464.22	0.12	928440	keystroke_i	i	n/a
464.295	0.104	928590	keystroke_d	d	n/a
464.535	0.105	929070	keystroke_e	e	n/a
464.61	0.12	929220	keystroke_r	r	n/a
464.999	0.09	929998	keystroke_e	e	n/a
465.4045	0.12	930809	keystroke_d	d	n/a
465.7045	0.1195	931409	keystroke_Key.enter	Key.enter	n/a
465.8315	9.55	931663	prompt	n/a	jobs continuing pantyhose places\n
466.5295	0.165	933059	keystroke_j	j	n/a
466.6345	0.12	933269	keystroke_o	o	n/a
466.7245	0.09	933449	keystroke_b	b	n/a
466.9195	0.12	933839	keystroke_s	s	n/a
467.0545	0.12	934109	keystroke_Key.space	Key.space	n/a
467.609	0.1505	935218	keystroke_c	c	n/a
467.6995	0.165	935399	keystroke_o	o	n/a
467.8045	0.105	935609	keystroke_n	n	n/a
468.1345	0.045	936269	keystroke_t	t	n/a
468.4795	0.09	936959	keystroke_i	i	n/a
468.9445	0.105	937889	keystroke_n	n	n/a
469.1995	0.1055	938399	keystroke_u	u	n/a
469.589	0.195	939178	keystroke_i	i	n/a
469.68	0.134	939360	keystroke_n	n	n/a
469.799	0.105	939598	keystroke_g	g	n/a
469.934	0.135	939868	keystroke_Key.space	Key.space	n/a
470.2795	0.12	940559	keystroke_p	p	n/a
470.5795	0.1795	941159	keystroke_a	a	n/a
470.729	0.1055	941458	keystroke_n	n	n/a
470.9395	0.105	941879	keystroke_t	t	n/a
471.585	0.1495	943170	keystroke_y	y	n/a
472.4845	0.12	944969	keystroke_h	h	n/a
472.56	0.1495	945120	keystroke_o	o	n/a
472.6645	0.15	945329	keystroke_s	s	n/a
472.7695	0.15	945539	keystroke_e	e	n/a
473.0545	0.09	946109	keystroke_Key.space	Key.space	n/a
473.684	0.1055	947368	keystroke_p	p	n/a
473.8945	0.12	947789	keystroke_l	l	n/a
474.359	0.09	948718	keystroke_a	a	n/a
474.584	0.09	949168	keystroke_c	c	n/a
474.809	0.1055	949618	keystroke_e	e	n/a
474.8995	0.1495	949799	keystroke_s	s	n/a
475.2595	0.1195	950519	keystroke_Key.enter	Key.enter	n/a
475.3855	7.916	950771	prompt	n/a	amounts dare collective camel\n
475.9795	0.105	951959	keystroke_a	a	n/a
476.0695	0.15	952139	keystroke_m	m	n/a
476.2045	0.1645	952409	keystroke_o	o	n/a
476.339	0.105	952678	keystroke_u	u	n/a
476.579	0.12	953158	keystroke_n	n	n/a
476.88	0.1195	953760	keystroke_t	t	n/a
477.1495	0.12	954299	keystroke_Key.space	Key.space	n/a
477.4795	0.105	954959	keystroke_Key.backspace	Key.backspace	n/a
477.5545	0.135	955109	keystroke_s	s	n/a
477.7045	0.1195	955409	keystroke_Key.space	Key.space	n/a
477.9	0.1045	955800	keystroke_d	d	n/a
478.1545	0.135	956309	keystroke_a	a	n/a
478.2445	0.15	956489	keystroke_r	r	n/a
478.4695	0.12	956939	keystroke_e	e	n/a
478.7245	0.12	957449	keystroke_Key.space	Key.space	n/a
479.0995	0.09	958199	keystroke_c	c	n/a
479.1595	0.105	958319	keystroke_o	o	n/a
479.3545	0.06	958709	keystroke_l	l	n/a
479.5045	0.12	959009	keystroke_l	l	n/a
479.5645	0.075	959129	keystroke_e	e	n/a
479.7745	0.074	959549	keystroke_c	c	n/a
479.9695	0.045	959939	keystroke_t	t	n/a
480.0745	0.135	960149	keystroke_i	i	n/a
480.1935	0.1205	960387	keystroke_v	v	n/a
480.269	0.165	960538	keystroke_e	e	n/a
480.419	0.12	960838	keystroke_Key.space	Key.space	n/a
480.749	0.1505	961498	keystroke_c	c	n/a
480.8545	0.1045	961709	keystroke_a	a	n/a
481.199	0.09	962398	keystroke_Key.backspace	Key.backspace	n/a
481.304	0.12	962608	keystroke_e	e	n/a
482.249	0.1055	964498	keystroke_Key.backspace	Key.backspace	n/a
482.34	0.1195	964680	keystroke_a	a	n/a
482.5045	0.12	965009	keystroke_m	m	n/a
482.6695	0.12	965339	keystroke_e	e	n/a
482.8045	0.15	965609	keystroke_l	l	n/a
483.1945	0.105	966389	keystroke_Key.enter	Key.enter	n/a
483.3065	14.4405	966613	prompt	n/a	marketplace origin throwing pacific\n
483.9295	0.1195	967859	keystroke_m	m	n/a
484.064	0.105	968128	keystroke_a	a	n/a
484.214	0.135	968428	keystroke_k	k	n/a
484.304	0.1055	968608	keystroke_r	r	n/a
484.499	0.165	968998	keystroke_e	e	n/a
484.604	0.12	969208	keystroke_t	t	n/a
484.694	0.21	969388	keystroke_i	i	n/a
485.3695	0.0895	970739	keystroke_Key.backspace	Key.backspace	n/a
485.6995	0.09	971399	keystroke_p	p	n/a
485.8945	0.12	971789	keystroke_l	l	n/a
485.9695	0.105	971939	keystroke_a	a	n/a
486.1645	0.105	972329	keystroke_c	c	n/a
486.3595	0.09	972719	keystroke_e	e	n/a
486.464	0.12	972928	keystroke_Key.space	Key.space	n/a
486.554	0.135	973108	keystroke_o	o	n/a
486.705	0.104	973410	keystroke_r	r	n/a
486.944	0.09	973888	keystroke_i	i	n/a
487.049	0.09	974098	keystroke_g	g	n/a
487.154	0.21	974308	keystroke_i	i	n/a
487.244	0.165	974488	keystroke_n	n	n/a
487.424	0.15	974848	keystroke_a	a	n/a
489.5095	0.105	979019	keystroke_r	r	n/a
489.854	0.09	979708	keystroke_Key.backspace	Key.backspace	n/a
489.915	0.135	979830	keystroke_a	a	n/a
489.975	0.105	979950	keystroke_r	r	n/a
490.139	0.135	980278	keystroke_k	k	n/a
490.23	0.1195	980460	keystroke_e	e	n/a
490.2895	0.135	980579	keystroke_t	t	n/a
490.6795	0.105	981359	keystroke_p	p	n/a
490.8745	0.1195	981749	keystroke_l	l	n/a
490.9195	0.0895	981839	keystroke_a	a	n/a
491.114	0.091	982228	keystroke_c	c	n/a
491.31	0.104	982620	keystroke_e	e	n/a
491.519	0.105	983038	keystroke_Key.space	Key.space	n/a
491.8045	0.135	983609	keystroke_o	o	n/a
491.9845	0.09	983969	keystroke_r	r	n/a
492.1945	0.09	984389	keystroke_i	i	n/a
492.3295	0.12	984659	keystroke_g	g	n/a
492.4345	0.195	984869	keystroke_i	i	n/a
492.5095	0.195	985019	keystroke_n	n	n/a
493.0345	0.105	986069	keystroke_Key.space	Key.space	n/a
493.4245	0.09	986849	keystroke_t	t	n/a
493.4995	0.09	986999	keystroke_h	h	n/a
493.6195	0.1045	987239	keystroke_r	r	n/a
493.739	0.2105	987478	keystroke_o	o	n/a
493.9795	0.12	987959	keystroke_w	w	n/a
494.1745	0.15	988349	keystroke_i	i	n/a
494.2495	0.165	988499	keystroke_n	n	n/a
494.3845	0.09	988769	keystroke_g	g	n/a
494.5045	0.135	989009	keystroke_Key.space	Key.space	n/a
495.0745	0.1345	990149	keystroke_p	p	n/a
495.194	0.06	990388	keystroke_a	a	n/a
495.359	0.12	990718	keystroke_c	c	n/a
495.509	0.105	991018	keystroke_i	i	n/a
495.659	0.0905	991318	keystroke_c	c	n/a
496.4085	0.09	992817	keystroke_Key.backspace	Key.backspace	n/a
496.5445	0.119	993089	keystroke_f	f	n/a
496.6945	0.12	993389	keystroke_i	i	n/a
496.8295	0.15	993659	keystroke_c	c	n/a
497.639	0.106	995278	keystroke_Key.enter	Key.enter	n/a
497.754	8.422	995508	prompt	n/a	located numbers examination outdoors\n
498.524	0.12	997048	keystroke_l	l	n/a
498.719	0.15	997438	keystroke_o	o	n/a
499.064	0.105	998128	keystroke_c	c	n/a
499.139	0.135	998278	keystroke_a	a	n/a
499.304	0.12	998608	keystroke_t	t	n/a
499.394	0.12	998788	keystroke_e	e	n/a
499.649	0.075	999298	keystroke_d	d	n/a
499.829	0.135	999658	keystroke_Key.space	Key.space	n/a
500.219	0.12	1000438	keystroke_m	m	n/a
500.609	0.0905	1001218	keystroke_Key.backspace	Key.backspace	n/a
500.8045	0.075	1001609	keystroke_n	n	n/a
500.9995	0.075	1001999	keystroke_u	u	n/a
501.1945	0.105	1002389	keystroke_m	m	n/a
501.3295	0.06	1002659	keystroke_b	b	n/a
501.4045	0.15	1002809	keystroke_e	e	n/a
501.5395	0.119	1003079	keystroke_r	r	n/a
501.6435	0.136	1003287	keystroke_s	s	n/a
501.8245	0.1345	1003649	keystroke_Key.space	Key.space	n/a
502.169	0.091	1004338	keystroke_e	e	n/a
502.38	0.135	1004760	keystroke_x	x	n/a
502.695	0.164	1005390	keystroke_a	a	n/a
502.905	0.1345	1005810	keystroke_m	m	n/a
503.7295	0.18	1007459	keystroke_i	i	n/a
503.8945	0.1495	1007789	keystroke_n	n	n/a
504.074	0.135	1008148	keystroke_a	a	n/a
504.179	0.135	1008358	keystroke_t	t	n/a
504.299	0.15	1008598	keystroke_i	i	n/a
504.404	0.195	1008808	keystroke_o	o	n/a
504.464	0.165	1008928	keystroke_n	n	n/a
504.554	0.15	1009108	keystroke_Key.space	Key.space	n/a
504.7645	0.165	1009529	keystroke_o	o	n/a
504.8695	0.12	1009739	keystroke_u	u	n/a
505.0045	0.075	1010009	keystroke_t	t	n/a
505.349	0.135	1010698	keystroke_d	d	n/a
505.469	0.075	1010938	keystroke_o	o	n/a
505.619	0.1355	1011238	keystroke_o	o	n/a
505.6945	0.105	1011389	keystroke_r	r	n/a
505.8295	0.15	1011659	keystroke_s	s	n/a
506.0695	0.104	1012139	keystroke_Key.enter	Key.enter	n/a
506.181	8.2895	1012362	prompt	n/a	tale tariff pulse life\n
507.104	0.09	1014208	keystroke_t	t	n/a
507.149	0.12	1014298	keystroke_a	a	n/a
507.284	0.15	1014568	keystroke_l	l	n/a
507.404	0.135	1014808	keystroke_e	e	n/a
507.9585	0.106	1015917	keystroke_Key.space	Key.space	n/a
508.4845	0.134	1016969	keystroke_t	t	n/a
508.6345	0.2095	1017269	keystroke_a	a	n/a
508.994	0.09	1017988	keystroke_r	r	n/a
509.204	0.09	1018408	keystroke_r	r	n/a
509.339	0.135	1018678	keystroke_i	i	n/a
509.459	0.135	1018918	keystroke_f	f	n/a
509.759	0.135	1019518	keystroke_Key.space	Key.space	n/a
510.194	0.075	1020388	keystroke_Key.backspace	Key.backspace	n/a
510.3585	0.0755	1020717	keystroke_Key.backspace	Key.backspace	n/a
510.509	0.105	1021018	keystroke_Key.backspace	Key.backspace	n/a
510.9595	0.09	1021919	keystroke_Key.backspace	Key.backspace	n/a
511.1995	0.09	1022399	keystroke_i	i	n/a
511.3195	0.09	1022639	keystroke_f	f	n/a
511.4995	0.12	1022999	keystroke_f	f	n/a
511.6645	0.135	1023329	keystroke_Key.space	Key.space	n/a
511.964	0.165	1023928	keystroke_p	p	n/a
512.084	0.135	1024168	keystroke_u	u	n/a
512.264	0.166	1024528	keystroke_l	l	n/a
512.474	0.12	1024948	keystroke_s	s	n/a
512.804	0.195	1025608	keystroke_e	e	n/a
513.134	0.135	1026268	keystroke_Key.space	Key.space	n/a
513.479	0.15	1026958	keystroke_l	l	n/a
513.569	0.1505	1027138	keystroke_i	i	n/a
513.6745	0.1345	1027349	keystroke_f	f	n/a
513.794	0.1205	1027588	keystroke_e	e	n/a
514.3645	0.105	1028729	keystroke_Key.enter	Key.enter	n/a
514.474	9.6415	1028948	prompt	n/a	uniprotkb energy promotes keen\n
515.2645	0.105	1030529	keystroke_u	u	n/a
515.5345	0.105	1031069	keystroke_n	n	n/a
515.7745	0.12	1031549	keystroke_i	i	n/a
516.119	0.09	1032238	keystroke_p	p	n/a
516.224	0.105	1032448	keystroke_r	r	n/a
516.344	0.105	1032688	keystroke_o	o	n/a
516.899	0.105	1033798	keystroke_t	t	n/a
517.124	0.135	1034248	keystroke_k	k	n/a
517.9495	0.12	1035899	keystroke_b	b	n/a
518.2485	0.121	1036497	keystroke_Key.space	Key.space	n/a
518.9685	0.09	1037937	keystroke_e	e	n/a
519.3435	0.18	1038687	keystroke_x	x	n/a
519.7035	0.091	1039407	keystroke_Key.backspace	Key.backspace	n/a
519.8995	0.06	1039799	keystroke_n	n	n/a
519.9745	0.135	1039949	keystroke_e	e	n/a
520.0495	0.135	1040099	keystroke_r	r	n/a
520.3495	0.12	1040699	keystroke_g	g	n/a
520.5145	0.165	1041029	keystroke_y	y	n/a
520.6945	0.119	1041389	keystroke_Key.space	Key.space	n/a
521.009	0.1045	1042018	keystroke_p	p	n/a
521.1435	0.091	1042287	keystroke_r	r	n/a
521.2045	0.119	1042409	keystroke_o	o	n/a
521.3385	0.15	1042677	keystroke_m	m	n/a
521.4445	0.149	1042889	keystroke_o	o	n/a
521.5795	0.105	1043159	keystroke_t	t	n/a
521.6535	0.12	1043307	keystroke_e	e	n/a
522.4345	0.09	1044869	keystroke_s	s	n/a
522.5535	0.135	1045107	keystroke_Key.space	Key.space	n/a
523.0185	0.136	1046037	keystroke_k	k	n/a
523.1395	0.09	1046279	keystroke_e	e	n/a
523.3185	0.136	1046637	keystroke_e	e	n/a
523.4395	0.135	1046879	keystroke_n	n	n/a
524.009	0.105	1048018	keystroke_Key.enter	Key.enter	n/a
524.1245	7.086	1048249	prompt	n/a	nicole avatar arise suitable\n
525.104	0.15	1050208	keystroke_n	n	n/a
525.299	0.15	1050598	keystroke_i	i	n/a
525.464	0.15	1050928	keystroke_c	c	n/a
525.644	0.075	1051288	keystroke_o	o	n/a
525.824	0.1205	1051648	keystroke_l	l	n/a
525.959	0.105	1051918	keystroke_e	e	n/a
526.169	0.15	1052338	keystroke_Key.space	Key.space	n/a
526.454	0.1205	1052908	keystroke_a	a	n/a
527.1745	0.135	1054349	keystroke_v	v	n/a
527.2945	0.09	1054589	keystroke_a	a	n/a
527.6095	0.135	1055219	keystroke_t	t	n/a
527.9095	0.134	1055819	keystroke_a	a	n/a
527.9995	0.105	1055999	keystroke_r	r	n/a
528.3135	0.12	1056627	keystroke_Key.space	Key.space	n/a
528.5535	0.121	1057107	keystroke_a	a	n/a
528.6435	0.105	1057287	keystroke_r	r	n/a
528.7945	0.1195	1057589	keystroke_i	i	n/a
528.974	0.12	1057948	keystroke_s	s	n/a
529.049	0.15	1058098	keystroke_e	e	n/a
529.244	0.135	1058488	keystroke_Key.space	Key.space	n/a
529.7245	0.09	1059449	keystroke_s	s	n/a
529.8745	0.18	1059749	keystroke_u	u	n/a
529.9645	0.165	1059929	keystroke_i	i	n/a
530.1145	0.104	1060229	keystroke_t	t	n/a
530.2045	0.134	1060409	keystroke_a	a	n/a
530.3845	0.104	1060769	keystroke_b	b	n/a
530.5185	0.166	1061037	keystroke_l	l	n/a
530.729	0.1805	1061458	keystroke_e	e	n/a
531.104	0.105	1062208	keystroke_Key.enter	Key.enter	n/a
531.2155	8.861	1062431	prompt	n/a	prayers covers collectible parents\n
531.9295	0.1345	1063859	keystroke_p	p	n/a
532.1995	0.135	1064399	keystroke_r	r	n/a
532.3195	0.149	1064639	keystroke_a	a	n/a
532.4845	0.1045	1064969	keystroke_y	y	n/a
532.694	0.1355	1065388	keystroke_e	e	n/a
532.7995	0.105	1065599	keystroke_r	r	n/a
533.6545	0.12	1067309	keystroke_s	s	n/a
533.8045	0.135	1067609	keystroke_Key.space	Key.space	n/a
534.089	0.12	1068178	keystroke_c	c	n/a
534.21	0.104	1068420	keystroke_o	o	n/a
534.33	0.105	1068660	keystroke_v	v	n/a
534.435	0.164	1068870	keystroke_e	e	n/a
534.584	0.09	1069168	keystroke_r	r	n/a
534.704	0.15	1069408	keystroke_s	s	n/a
535.004	0.135	1070008	keystroke_Key.space	Key.space	n/a
535.499	0.135	1070998	keystroke_c	c	n/a
535.604	0.09	1071208	keystroke_o	o	n/a
535.799	0.045	1071598	keystroke_l	l	n/a
535.9495	0.105	1071899	keystroke_l	l	n/a
535.9795	0.09	1071959	keystroke_e	e	n/a
536.1895	0.075	1072379	keystroke_c	c	n/a
536.3845	0.12	1072769	keystroke_t	t	n/a
536.5795	0.12	1073159	keystroke_i	i	n/a
536.9695	0.09	1073939	keystroke_b	b	n/a
537.1645	0.12	1074329	keystroke_l	l	n/a
537.3145	0.12	1074629	keystroke_e	e	n/a
537.4935	0.12	1074987	keystroke_Key.space	Key.space	n/a
537.7645	0.105	1075529	keystroke_p	p	n/a
537.9145	0.15	1075829	keystroke_r	r	n/a
538.0495	0.134	1076099	keystroke_a	a	n/a
538.3485	0.09	1076697	keystroke_Key.backspace	Key.backspace	n/a
538.754	0.075	1077508	keystroke_Key.backspace	Key.backspace	n/a
538.859	0.105	1077718	keystroke_a	a	n/a
538.935	0.134	1077870	keystroke_r	r	n/a
539.099	0.135	1078198	keystroke_e	e	n/a
539.249	0.135	1078498	keystroke_n	n	n/a
539.429	0.105	1078858	keystroke_t	t	n/a
539.579	0.15	1079158	keystroke_s	s	n/a
539.984	0.09	1079968	keystroke_Key.enter	Key.enter	n/a
540.0825	7.703	1080165	prompt	n/a	disks sources manor constantly\n
540.809	0.09	1081618	keystroke_d	d	n/a
540.9585	0.12	1081917	keystroke_i	i	n/a
541.0185	0.12	1082037	keystroke_s	s	n/a
541.3495	0.15	1082699	keystroke_k	k	n/a
541.604	0.105	1083208	keystroke_s	s	n/a
541.964	0.1355	1083928	keystroke_Key.space	Key.space	n/a
542.624	0.1805	1085248	keystroke_s	s	n/a
542.744	0.1655	1085488	keystroke_o	o	n/a
542.8495	0.12	1085699	keystroke_u	u	n/a
542.9845	0.075	1085969	keystroke_r	r	n/a
543.1945	0.105	1086389	keystroke_c	c	n/a
543.4195	0.12	1086839	keystroke_e	e	n/a
543.5695	0.12	1087139	keystroke_s	s	n/a
543.9435	0.1205	1087887	keystroke_Key.space	Key.space	n/a
544.2445	0.1195	1088489	keystroke_m	m	n/a
544.484	0.165	1088968	keystroke_a	a	n/a
544.62	0.149	1089240	keystroke_n	n	n/a
544.709	0.195	1089418	keystroke_o	o	n/a
545.039	0.09	1090078	keystroke_r	r	n/a
545.249	0.12	1090498	keystroke_Key.space	Key.space	n/a
545.759	0.091	1091518	keystroke_c	c	n/a
545.834	0.195	1091668	keystroke_o	o	n/a
545.9245	0.1195	1091849	keystroke_n	n	n/a
546.0145	0.1195	1092029	keystroke_s	s	n/a
546.554	0.12	1093108	keystroke_t	t	n/a
546.674	0.12	1093348	keystroke_a	a	n/a
546.794	0.12	1093588	keystroke_n	n	n/a
546.944	0.105	1093888	keystroke_t	t	n/a
547.094	0.195	1094188	keystroke_l	l	n/a
547.244	0.12	1094488	keystroke_y	y	n/a
547.6795	0.105	1095359	keystroke_Key.enter	Key.enter	n/a
547.7915	6.9845	1095583	prompt	n/a	holders west sounds statutory\n
548.4295	0.1195	1096859	keystroke_h	h	n/a
548.504	0.105	1097008	keystroke_o	o	n/a
548.699	0.15	1097398	keystroke_l	l	n/a
548.774	0.0905	1097548	keystroke_d	d	n/a
548.9845	0.09	1097969	keystroke_e	e	n/a
549.0445	0.12	1098089	keystroke_r	r	n/a
549.1795	0.1045	1098359	keystroke_s	s	n/a
549.359	0.12	1098718	keystroke_Key.space	Key.space	n/a
549.554	0.135	1099108	keystroke_w	w	n/a
549.659	0.135	1099318	keystroke_e	e	n/a
549.809	0.135	1099618	keystroke_s	s	n/a
549.929	0.105	1099858	keystroke_t	t	n/a
550.0635	0.135	1100127	keystroke_Key.space	Key.space	n/a
550.319	0.135	1100638	keystroke_s	s	n/a
550.409	0.135	1100818	keystroke_o	o	n/a
550.484	0.0905	1100968	keystroke_u	u	n/a
550.6945	0.12	1101389	keystroke_n	n	n/a
550.7845	0.12	1101569	keystroke_d	d	n/a
550.8595	0.135	1101719	keystroke_s	s	n/a
551.0395	0.1345	1102079	keystroke_Key.space	Key.space	n/a
551.279	0.12	1102558	keystroke_s	s	n/a
551.414	0.135	1102828	keystroke_t	t	n/a
551.534	0.15	1103068	keystroke_a	a	n/a
552.0595	0.1045	1104119	keystroke_u	u	n/a
552.599	0.1205	1105198	keystroke_Key.backspace	Key.backspace	n/a
552.7345	0.09	1105469	keystroke_t	t	n/a
552.8385	0.091	1105677	keystroke_u	u	n/a
553.5745	0.105	1107149	keystroke_o	o	n/a
553.6345	0.12	1107269	keystroke_t	t	n/a
553.9195	0.074	1107839	keystroke_Key.backspace	Key.backspace	n/a
554.0535	0.075	1108107	keystroke_Key.backspace	Key.backspace	n/a
554.1445	0.09	1108289	keystroke_t	t	n/a
554.2495	0.1195	1108499	keystroke_o	o	n/a
554.354	0.165	1108708	keystroke_r	r	n/a
554.489	0.09	1108978	keystroke_y	y	n/a
554.669	0.105	1109338	keystroke_Key.enter	Key.enter	n/a
554.7805	6.221	1109561	prompt	n/a	rock basically lesser poems\n
555.419	0.105	1110838	keystroke_r	r	n/a
555.494	0.12	1110988	keystroke_o	o	n/a
555.644	0.09	1111288	keystroke_a	a	n/a
555.959	0.09	1111918	keystroke_Key.backspace	Key.backspace	n/a
556.0635	0.1365	1112127	keystroke_c	c	n/a
556.214	0.15	1112428	keystroke_k	k	n/a
556.304	0.12	1112608	keystroke_Key.space	Key.space	n/a
556.829	0.105	1113658	keystroke_b	b	n/a
556.919	0.12	1113838	keystroke_a	a	n/a
557.114	0.09	1114228	keystroke_s	s	n/a
557.249	0.105	1114498	keystroke_i	i	n/a
557.354	0.135	1114708	keystroke_c	c	n/a
557.444	0.1505	1114888	keystroke_a	a	n/a
557.5795	0.075	1115159	keystroke_l	l	n/a
557.759	0.135	1115518	keystroke_l	l	n/a
557.864	0.1195	1115728	keystroke_y	y	n/a
557.9385	0.12	1115877	keystroke_Key.space	Key.space	n/a
558.1495	0.119	1116299	keystroke_l	l	n/a
558.2385	0.12	1116477	keystroke_e	e	n/a
558.4495	0.0595	1116899	keystroke_s	s	n/a
558.599	0.18	1117198	keystroke_s	s	n/a
558.794	0.12	1117588	keystroke_e	e	n/a
558.884	0.12	1117768	keystroke_r	r	n/a
559.109	0.1045	1118218	keystroke_Key.space	Key.space	n/a
559.2745	0.119	1118549	keystroke_p	p	n/a
559.6635	0.1055	1119327	keystroke_o	o	n/a
559.77	0.164	1119540	keystroke_e	e	n/a
559.98	0.164	1119960	keystroke_m	m	n/a
560.444	0.135	1120888	keystroke_s	s	n/a
560.9085	0.0905	1121817	keystroke_Key.enter	Key.enter	n/a
561.0065	10.5105	1122013	prompt	n/a	fraud authorization followed orientation\n
562.1695	0.105	1124339	keystroke_f	f	n/a
562.3935	0.106	1124787	keystroke_r	r	n/a
562.4845	0.15	1124969	keystroke_a	a	n/a
562.814	0.12	1125628	keystroke_u	u	n/a
562.979	0.135	1125958	keystroke_d	d	n/a
563.3245	0.134	1126649	keystroke_Key.space	Key.space	n/a
563.6695	0.105	1127339	keystroke_a	a	n/a
563.7595	0.105	1127519	keystroke_u	u	n/a
563.9095	0.12	1127819	keystroke_t	t	n/a
564.0145	0.1045	1128029	keystroke_h	h	n/a
564.479	0.105	1128958	keystroke_o	o	n/a
564.734	0.105	1129468	keystroke_r	r	n/a
564.824	0.105	1129648	keystroke_i	i	n/a
566.024	0.1055	1132048	keystroke_z	z	n/a
566.2635	0.106	1132527	keystroke_a	a	n/a
566.3845	0.12	1132769	keystroke_t	t	n/a
566.5195	0.105	1133039	keystroke_i	i	n/a
566.5795	0.225	1133159	keystroke_o	o	n/a
566.654	0.1655	1133308	keystroke_n	n	n/a
566.7735	0.15	1133547	keystroke_Key.space	Key.space	n/a
567.104	0.135	1134208	keystroke_f	f	n/a
567.224	0.09	1134448	keystroke_o	o	n/a
567.404	0.075	1134808	keystroke_l	l	n/a
567.569	0.075	1135138	keystroke_l	l	n/a
567.719	0.135	1135438	keystroke_o	o	n/a
567.899	0.09	1135798	keystroke_w	w	n/a
567.974	0.1955	1135948	keystroke_e	e	n/a
568.5145	0.18	1137029	keystroke_d	d	n/a
568.7395	0.1195	1137479	keystroke_Key.space	Key.space	n/a
568.979	0.12	1137958	keystroke_o	o	n/a
569.114	0.105	1138228	keystroke_r	r	n/a
569.234	0.09	1138468	keystroke_i	i	n/a
569.684	0.12	1139368	keystroke_t	t	n/a
569.804	0.09	1139608	keystroke_a	a	n/a
569.909	0.12	1139818	keystroke_t	t	n/a
570.014	0.105	1140028	keystroke_i	i	n/a
570.074	0.1945	1140148	keystroke_o	o	n/a
570.194	0.1355	1140388	keystroke_n	n	n/a
570.389	0.091	1140778	keystroke_s	s	n/a
570.8235	0.091	1141647	keystroke_Key.backspace	Key.backspace	n/a
571.3935	0.12	1142787	keystroke_Key.enter	Key.enter	n/a
571.5225	13.328	1143045	prompt	n/a	attachments wanted workshop governing\n
573.089	0.135	1146178	keystroke_a	a	n/a
573.3295	0.06	1146659	keystroke_t	t	n/a
573.4945	0.105	1146989	keystroke_t	t	n/a
573.5545	0.195	1147109	keystroke_a	a	n/a
574.9495	0.1495	1149899	keystroke_c	c	n/a
575.114	0.1195	1150228	keystroke_h	h	n/a
575.2635	0.09	1150527	keystroke_e	e	n/a
575.5635	0.136	1151127	keystroke_m	m	n/a
575.9085	0.0755	1151817	keystroke_Key.backspace	Key.backspace	n/a
576.059	0.09	1152118	keystroke_Key.backspace	Key.backspace	n/a
576.584	0.09	1153168	keystroke_m	m	n/a
576.704	0.12	1153408	keystroke_e	e	n/a
576.839	0.105	1153678	keystroke_n	n	n/a
576.929	0.0905	1153858	keystroke_t	t	n/a
577.0345	0.1495	1154069	keystroke_s	s	n/a
577.334	0.135	1154668	keystroke_Key.space	Key.space	n/a
578.129	0.12	1156258	keystroke_e	e	n/a
578.489	0.105	1156978	keystroke_Key.backspace	Key.backspace	n/a
578.534	0.135	1157068	keystroke_w	w	n/a
578.639	0.105	1157278	keystroke_a	a	n/a
578.714	0.09	1157428	keystroke_t	t	n/a
578.789	0.12	1157578	keystroke_n	n	n/a
