onset	duration	sample	value	key	prompt_text
6.258	10.565	12516	prompt	n/a	the quick brown fox jumps over a lazy dog\n
7.852	0.027	15704	keystroke_t	t	n/a
7.969	0.09	15938	keystroke_h	h	n/a
8.044	0.09	16088	keystroke_e	e	n/a
8.194	0.09	16388	keystroke_Key.space	Key.space	n/a
9.0495	0.1045	18099	keystroke_q	q	n/a
9.3045	0.119	18609	keystroke_u	u	n/a
9.3645	0.1345	18729	keystroke_i	i	n/a
9.5135	0.0905	19027	keystroke_c	c	n/a
9.649	0.1645	19298	keystroke_k	k	n/a
9.7985	0.075	19597	keystroke_Key.space	Key.space	n/a
9.9335	0.046	19867	keystroke_b	b	n/a
10.909	0.0745	21818	keystroke_r	r	n/a
10.9995	0.1795	21999	keystroke_o	o	n/a
11.1945	0.0745	22389	keystroke_w	w	n/a
11.3145	0.105	22629	keystroke_n	n	n/a
11.509	0.09	23018	keystroke_Key.space	Key.space	n/a
11.8245	0.074	23649	keystroke_f	f	n/a
12.019	0.1205	24038	keystroke_o	o	n/a
12.1245	0.135	24249	keystroke_x	x	n/a
12.3645	0.075	24729	keystroke_Key.space	Key.space	n/a
12.53	0.074	25060	keystroke_j	j	n/a
12.7095	0.0755	25419	keystroke_u	u	n/a
12.9195	0.105	25839	keystroke_m	m	n/a
13.129	0.1055	26258	keystroke_p	p	n/a
13.2945	0.074	26589	keystroke_s	s	n/a
13.4585	0.0755	26917	keystroke_Key.space	Key.space	n/a
13.6395	0.105	27279	keystroke_o	o	n/a
13.819	0.0915	27638	keystroke_v	v	n/a
13.9995	0.0895	27999	keystroke_e	e	n/a
14.1945	0.09	28389	keystroke_r	r	n/a
14.2995	0.105	28599	keystroke_Key.space	Key.space	n/a
14.4345	0.135	28869	keystroke_a	a	n/a
14.5545	0.089	29109	keystroke_Key.space	Key.space	n/a
14.7195	0.1195	29439	keystroke_l	l	n/a
14.8245	0.1045	29649	keystroke_a	a	n/a
15.1095	0.1055	30219	keystroke_z	z	n/a
15.259	0.0905	30518	keystroke_y	y	n/a
15.4535	0.106	30907	keystroke_Key.space	Key.space	n/a
15.7385	0.046	31477	keystroke_f	f	n/a
16.099	0.0745	32198	keystroke_Key.backspace	Key.backspace	n/a
16.2045	0.075	32409	keystroke_d	d	n/a
16.3545	0.18	32709	keystroke_o	o	n/a
16.489	0.1055	32978	keystroke_g	g	n/a
16.744	0.075	33488	keystroke_Key.enter	Key.enter	n/a
16.83	8.5115	33660	prompt	n/a	poll expects receiver atlanta\n
17.4945	0.09	34989	keystroke_p	p	n/a
17.7345	0.12	35469	keystroke_o	o	n/a
17.9595	0.075	35919	keystroke_l	l	n/a
18.1095	0.12	36219	keystroke_l	l	n/a
18.2145	0.0895	36429	keystroke_Key.space	Key.space	n/a
18.3645	0.09	36729	keystroke_e	e	n/a
18.6045	0.12	37209	keystroke_x	x	n/a
18.6945	0.105	37389	keystroke_p	p	n/a
19.5795	0.059	39159	keystroke_e	e	n/a
19.8345	0.09	39669	keystroke_c	c	n/a
20.1335	0.076	40267	keystroke_t	t	n/a
20.3585	0.09	40717	keystroke_s	s	n/a
20.6745	0.0745	41349	keystroke_Key.space	Key.space	n/a
21.4845	0.105	42969	keystroke_r	r	n/a
21.605	0.0895	43210	keystroke_e	e	n/a
21.859	0.06	43718	keystroke_c	c	n/a
22.0985	0.046	44197	keystroke_e	e	n/a
22.3095	0.1195	44619	keystroke_i	i	n/a
23.0895	0.0445	46179	keystroke_v	v	n/a
23.1945	0.1045	46389	keystroke_e	e	n/a
23.4195	0.09	46839	keystroke_r	r	n/a
23.6145	0.104	47229	keystroke_Key.space	Key.space	n/a
24.0045	0.12	48009	keystroke_a	a	n/a
24.2445	0.09	48489	keystroke_t	t	n/a
24.3635	0.136	48727	keystroke_l	l	n/a
24.484	0.135	48968	keystroke_a	a	n/a
24.6045	0.15	49209	keystroke_n	n	n/a
24.8145	0.105	49629	keystroke_t	t	n/a
25.0695	0.0905	50139	keystroke_a	a	n/a
25.264	0.075	50528	keystroke_Key.enter	Key.enter	n/a
25.349	11.7525	50698	prompt	n/a	answers boring cordless services\n
26.449	0.09	52898	keystroke_a	a	n/a
26.6895	0.105	53379	keystroke_n	n	n/a
27.5145	0.06	55029	keystroke_w	w	n/a
28.069	0.09	56138	keystroke_Key.backspace	Key.backspace	n/a
28.144	0.0755	56288	keystroke_s	s	n/a
29.134	0.0905	58268	keystroke_w	w	n/a
29.314	0.09	58628	keystroke_e	e	n/a
29.9745	0.0745	59949	keystroke_r	r	n/a
30.2145	0.09	60429	keystroke_s	s	n/a
30.3945	0.105	60789	keystroke_Key.space	Key.space	n/a
30.9645	0.075	61929	keystroke_b	b	n/a
31.3995	0.105	62799	keystroke_o	o	n/a
31.774	0.0755	63548	keystroke_r	r	n/a
31.835	0.0895	63670	keystroke_i	i	n/a
31.999	0.1205	63998	keystroke_n	n	n/a
32.1495	0.09	64299	keystroke_g	g	n/a
32.3895	0.09	64779	keystroke_Key.space	Key.space	n/a
32.9435	0.046	65887	keystroke_c	c	n/a
33.0335	0.121	66067	keystroke_o	o	n/a
33.2745	0.075	66549	keystroke_r	r	n/a
33.4845	0.09	66969	keystroke_d	d	n/a
33.7845	0.12	67569	keystroke_l	l	n/a
33.9045	0.075	67809	keystroke_e	e	n/a
34.1295	0.0895	68259	keystroke_s	s	n/a
34.31	0.09	68620	keystroke_s	s	n/a
34.4745	0.075	68949	keystroke_Key.space	Key.space	n/a
34.6545	0.0895	69309	keystroke_s	s	n/a
34.849	0.09	69698	keystroke_e	e	n/a
35.1195	0.015	70239	keystroke_r	r	n/a
35.719	0.0755	71438	keystroke_v	v	n/a
35.869	0.105	71738	keystroke_i	i	n/a
36.0045	0.075	72009	keystroke_c	c	n/a
36.244	0.0755	72488	keystroke_e	e	n/a
36.4695	0.0895	72939	keystroke_s	s	n/a
37.0095	0.09	74019	keystroke_Key.enter	Key.enter	n/a
37.106	8.5455	74212	prompt	n/a	diploma tomato mistake bacterial\n
37.789	0.061	75578	keystroke_d	d	n/a
37.94	0.104	75880	keystroke_i	i	n/a
38.179	0.06	76358	keystroke_m	m	n/a
38.8395	0.089	77679	keystroke_Key.backspace	Key.backspace	n/a
39.1695	0.1205	78339	keystroke_p	p	n/a
39.5895	0.0895	79179	keystroke_l	l	n/a
39.7995	0.1055	79599	keystroke_o	o	n/a
40.025	0.164	80050	keystroke_m	m	n/a
40.174	0.09	80348	keystroke_a	a	n/a
40.3545	0.09	80709	keystroke_Key.space	Key.space	n/a
40.7145	0.105	81429	keystroke_t	t	n/a
40.8045	0.105	81609	keystroke_o	o	n/a
40.9695	0.195	81939	keystroke_m	m	n/a
41.0895	0.105	82179	keystroke_a	a	n/a
41.3895	0.09	82779	keystroke_t	t	n/a
41.5845	0.15	83169	keystroke_o	o	n/a
41.7045	0.0895	83409	keystroke_Key.space	Key.space	n/a
41.9	0.104	83800	keystroke_m	m	n/a
42.125	0.104	84250	keystroke_i	i	n/a
42.3195	0.09	84639	keystroke_s	s	n/a
42.604	0.09	85208	keystroke_t	t	n/a
42.799	0.1055	85598	keystroke_a	a	n/a
43.129	0.1055	86258	keystroke_k	k	n/a
43.264	0.0755	86528	keystroke_e	e	n/a
43.3995	0.09	86799	keystroke_Key.space	Key.space	n/a
43.5795	0.105	87159	keystroke_b	b	n/a
43.76	0.075	87520	keystroke_a	a	n/a
43.9695	0.0755	87939	keystroke_c	c	n/a
44.3445	0.0895	88689	keystroke_t	t	n/a
44.539	0.09	89078	keystroke_e	e	n/a
44.764	0.105	89528	keystroke_r	r	n/a
44.8845	0.1195	89769	keystroke_i	i	n/a
45.0195	0.1495	90039	keystroke_a	a	n/a
45.289	0.106	90578	keystroke_l	l	n/a
45.574	0.075	91148	keystroke_Key.enter	Key.enter	n/a
45.657	10.104	91314	prompt	n/a	generally measured doctrine friend\n
46.3995	0.075	92799	keystroke_g	g	n/a
46.654	0.09	93308	keystroke_e	e	n/a
46.9245	0.1195	93849	keystroke_n	n	n/a
46.9995	0.105	93999	keystroke_e	e	n/a
47.2695	0.0895	94539	keystroke_r	r	n/a
47.465	0.119	94930	keystroke_a	a	n/a
47.6445	0.0595	95289	keystroke_l	l	n/a
47.794	0.0755	95588	keystroke_l	l	n/a
48.0345	0.09	96069	keystroke_y	y	n/a
48.184	0.09	96368	keystroke_Key.space	Key.space	n/a
48.6345	0.0745	97269	keystroke_m	m	n/a
48.739	0.09	97478	keystroke_e	e	n/a
48.919	0.1205	97838	keystroke_a	a	n/a
49.4595	0.075	98919	keystroke_s	s	n/a
49.5945	0.105	99189	keystroke_u	u	n/a
49.954	0.12	99908	keystroke_r	r	n/a
50.134	0.09	100268	keystroke_e	e	n/a
50.3595	0.0595	100719	keystroke_d	d	n/a
50.4795	0.105	100959	keystroke_Key.space	Key.space	n/a
50.7645	0.09	101529	keystroke_d	d	n/a
51.0345	0.06	102069	keystroke_c	c	n/a
51.1545	0.12	102309	keystroke_o	o	n/a
51.485	0.0745	102970	keystroke_t	t	n/a
51.7095	0.09	103419	keystroke_r	r	n/a
51.86	0.1195	103720	keystroke_i	i	n/a
52.0845	0.1345	104169	keystroke_n	n	n/a
52.279	0.09	104558	keystroke_e	e	n/a
52.414	0.105	104828	keystroke_Key.space	Key.space	n/a
52.684	0.0595	105368	keystroke_f	f	n/a
53.9145	0.075	107829	keystroke_r	r	n/a
54.064	0.151	108128	keystroke_i	i	n/a
54.169	0.09	108338	keystroke_e	e	n/a
55.3095	0.1195	110619	keystroke_n	n	n/a
55.4	0.074	110800	keystroke_d	d	n/a
55.669	0.09	111338	keystroke_Key.enter	Key.enter	n/a
55.765	8.3225	111530	prompt	n/a	criterion attended anatomy plants\n
56.5545	0.09	113109	keystroke_c	c	n/a
56.8545	0.0755	113709	keystroke_r	r	n/a
57.0045	0.12	114009	keystroke_i	i	n/a
57.1545	0.105	114309	keystroke_t	t	n/a
57.3795	0.105	114759	keystroke_e	e	n/a
57.6495	0.09	115299	keystroke_r	r	n/a
57.86	0.1645	115720	keystroke_i	i	n/a
57.9495	0.1655	115899	keystroke_o	o	n/a
58.1895	0.12	116379	keystroke_n	n	n/a
58.4145	0.075	116829	keystroke_Key.space	Key.space	n/a
58.6545	0.105	117309	keystroke_a	a	n/a
58.9245	0.075	117849	keystroke_t	t	n/a
59.059	0.09	118118	keystroke_t	t	n/a
59.3445	0.0595	118689	keystroke_e	e	n/a
59.599	0.121	119198	keystroke_n	n	n/a
59.764	0.075	119528	keystroke_d	d	n/a
59.9745	0.0745	119949	keystroke_e	e	n/a
60.215	0.09	120430	keystroke_d	d	n/a
60.3495	0.105	120699	keystroke_Key.space	Key.space	n/a
60.5	0.1045	121000	keystroke_a	a	n/a
60.6195	0.105	121239	keystroke_n	n	n/a
60.7695	0.12	121539	keystroke_a	a	n/a
61.1895	0.105	122379	keystroke_t	t	n/a
61.3095	0.105	122619	keystroke_o	o	n/a
61.4745	0.1045	122949	keystroke_m	m	n/a
61.7745	0.09	123549	keystroke_y	y	n/a
61.9545	0.121	123909	keystroke_Key.space	Key.space	n/a
62.194	0.09	124388	keystroke_p	p	n/a
62.4645	0.1195	124929	keystroke_l	l	n/a
62.6	0.089	125200	keystroke_a	a	n/a
63.259	0.06	126518	keystroke_n	n	n/a
63.4395	0.0905	126879	keystroke_t	t	n/a
63.7095	0.12	127419	keystroke_s	s	n/a
64.0095	0.0745	128019	keystroke_Key.enter	Key.enter	n/a
64.0925	11.8435	128185	prompt	n/a	trades honda shooting query\n
64.7595	0.09	129519	keystroke_t	t	n/a
64.985	0.075	129970	keystroke_r	r	n/a
65.2695	0.1045	130539	keystroke_a	a	n/a
65.54	0.074	131080	keystroke_d	d	n/a
65.7795	0.0595	131559	keystroke_e	e	n/a
66.004	0.09	132008	keystroke_s	s	n/a
66.199	0.1055	132398	keystroke_Key.space	Key.space	n/a
66.44	0.105	132880	keystroke_h	h	n/a
66.4845	0.1795	132969	keystroke_o	o	n/a
66.8885	0.076	133777	keystroke_d	d	n/a
67.669	0.0595	135338	keystroke_Key.backspace	Key.backspace	n/a
68.2245	0.045	136449	keystroke_n	n	n/a
68.284	0.1805	136568	keystroke_d	d	n/a
68.4195	0.135	136839	keystroke_a	a	n/a
68.6745	0.09	137349	keystroke_Key.space	Key.space	n/a
68.9595	0.0745	137919	keystroke_s	s	n/a
69.094	0.12	138188	keystroke_h	h	n/a
69.3335	0.1205	138667	keystroke_o	o	n/a
69.604	0.1205	139208	keystroke_o	o	n/a
70.339	0.09	140678	keystroke_t	t	n/a
70.4595	0.1045	140919	keystroke_i	i	n/a
70.6545	0.12	141309	keystroke_n	n	n/a
70.865	0.0895	141730	keystroke_g	g	n/a
71.1645	0.075	142329	keystroke_Key.space	Key.space	n/a
71.4495	0.09	142899	keystroke_q	q	n/a
71.48	0.0145	142960	keystroke_w	w	n/a
71.6295	0.135	143259	keystroke_u	u	n/a
71.8545	0.09	143709	keystroke_e	e	n/a
72.919	0.0905	145838	keystroke_Key.backspace	Key.backspace	n/a
73.084	0.09	146168	keystroke_Key.backspace	Key.backspace	n/a
73.294	0.12	146588	keystroke_Key.backspace	Key.backspace	n/a
73.9095	0.09	147819	keystroke_u	u	n/a
74.2245	0.075	148449	keystroke_e	e	n/a
74.8395	0.09	149679	keystroke_r	r	n/a
74.99	0.119	149980	keystroke_y	y	n/a
75.844	0.09	151688	keystroke_Key.enter	Key.enter	n/a
75.944	10.192	151888	prompt	n/a	civic expo responses heard\n
76.7445	0.1345	153489	keystroke_c	c	n/a
76.894	0.06	153788	keystroke_i	i	n/a
77.059	0.091	154118	keystroke_v	v	n/a
77.165	0.135	154330	keystroke_i	i	n/a
77.6895	0.0755	155379	keystroke_c	c	n/a
77.869	0.09	155738	keystroke_Key.space	Key.space	n/a
78.1095	0.0745	156219	keystroke_e	e	n/a
78.364	0.105	156728	keystroke_x	x	n/a
79.085	0.119	158170	keystroke_p	p	n/a
79.4145	0.015	158829	keystroke_o	o	n/a
80.314	0.0895	160628	keystroke_Key.space	Key.space	n/a
80.629	0.1505	161258	keystroke_r	r	n/a
80.7645	0.12	161529	keystroke_e	e	n/a
81.2595	0.059	162519	keystroke_s	s	n/a
81.934	0.1655	163868	keystroke_p	p	n/a
81.9945	0.2095	163989	keystroke_o	o	n/a
82.714	0.076	165428	keystroke_n	n	n/a
83.4345	0.089	166869	keystroke_s	s	n/a
83.629	0.09	167258	keystroke_e	e	n/a
83.87	0.0895	167740	keystroke_s	s	n/a
84.1685	0.0765	168337	keystroke_Key.space	Key.space	n/a
84.5445	0.1205	169089	keystroke_h	h	n/a
84.7845	0.105	169569	keystroke_e	e	n/a
85.0085	0.1065	170017	keystroke_a	a	n/a
85.414	0.06	170828	keystroke_r	r	n/a
85.6545	0.09	171309	keystroke_d	d	n/a
86.0595	0.0745	172119	keystroke_Key.enter	Key.enter	n/a
86.1405	10.24	172281	prompt	n/a	untitled manually reported ncaa\n
86.915	0.0895	173830	keystroke_u	u	n/a
87.1395	0.105	174279	keystroke_n	n	n/a
87.3635	0.106	174727	keystroke_t	t	n/a
87.4545	0.135	174909	keystroke_i	i	n/a
87.7245	0.09	175449	keystroke_t	t	n/a
87.8295	0.1505	175659	keystroke_l	l	n/a
87.9345	0.105	175869	keystroke_e	e	n/a
88.2045	0.09	176409	keystroke_d	d	n/a
88.3245	0.105	176649	keystroke_Key.space	Key.space	n/a
88.5495	0.105	177099	keystroke_m	m	n/a
88.7145	0.1195	177429	keystroke_a	a	n/a
88.8795	0.0895	177759	keystroke_n	n	n/a
89.134	0.09	178268	keystroke_u	u	n/a
89.375	0.089	178750	keystroke_a	a	n/a
89.8395	0.09	179679	keystroke_l	l	n/a
90.049	0.0905	180098	keystroke_l	l	n/a
90.3045	0.12	180609	keystroke_y	y	n/a
90.5295	0.075	181059	keystroke_Key.space	Key.space	n/a
90.7545	0.1495	181509	keystroke_r	r	n/a
90.859	0.165	181718	keystroke_e	e	n/a
91.2345	0.165	182469	keystroke_p	p	n/a
91.3245	0.165	182649	keystroke_o	o	n/a
91.5945	0.104	183189	keystroke_r	r	n/a
91.8045	0.105	183609	keystroke_t	t	n/a
92.0295	0.09	184059	keystroke_e	e	n/a
92.2545	0.09	184509	keystroke_d	d	n/a
92.4035	0.076	184807	keystroke_Key.space	Key.space	n/a
92.5995	0.105	185199	keystroke_n	n	n/a
95.2105	0.014	190421	keystroke_c	c	n/a
95.825	0.0745	191650	keystroke_a	a	n/a
96.0195	0.105	192039	keystroke_a	a	n/a
96.2895	0.09	192579	keystroke_Key.enter	Key.enter	n/a
96.3845	9.9565	192769	prompt	n/a	belongs nitrogen nearby everybody\n
97.0845	0.0745	194169	keystroke_b	b	n/a
97.2795	0.1045	194559	keystroke_o	o	n/a
97.504	0.0755	195008	keystroke_l	l	n/a
97.6845	0.105	195369	keystroke_o	o	n/a
98.044	0.075	196088	keystroke_Key.backspace	Key.backspace	n/a
98.194	0.09	196388	keystroke_Key.backspace	Key.backspace	n/a
98.374	0.075	196748	keystroke_Key.backspace	Key.backspace	n/a
98.7045	0.06	197409	keystroke_e	e	n/a
98.81	0.1045	197620	keystroke_l	l	n/a
99.0345	0.09	198069	keystroke_o	o	n/a
99.1695	0.15	198339	keystroke_n	n	n/a
99.3345	0.09	198669	keystroke_g	g	n/a
99.575	0.104	199150	keystroke_s	s	n/a
99.7545	0.089	199509	keystroke_Key.space	Key.space	n/a
100.04	0.0595	200080	keystroke_n	n	n/a
100.1745	0.105	200349	keystroke_i	i	n/a
100.4595	0.0745	200919	keystroke_t	t	n/a
100.6845	0.0895	201369	keystroke_r	r	n/a
100.834	0.1355	201668	keystroke_o	o	n/a
101.179	0.09	202358	keystroke_g	g	n/a
101.3735	0.091	202747	keystroke_e	e	n/a
101.5395	0.135	203079	keystroke_n	n	n/a
101.6745	0.089	203349	keystroke_Key.space	Key.space	n/a
101.869	0.1055	203738	keystroke_n	n	n/a
101.989	0.075	203978	keystroke_e	e	n/a
102.1995	0.0755	204399	keystroke_r	r	n/a
102.7385	0.076	205477	keystroke_Key.backspace	Key.backspace	n/a
102.8445	0.0745	205689	keystroke_a	a	n/a
103.1895	0.0595	206379	keystroke_r	r	n/a
103.4145	0.0745	206829	keystroke_b	b	n/a
104.0885	0.09	208177	keystroke_y	y	n/a
104.2535	0.105	208507	keystroke_Key.space	Key.space	n/a
104.479	0.0745	208958	keystroke_e	e	n/a
104.6595	0.105	209319	keystroke_v	v	n/a
104.824	0.1045	209648	keystroke_e	e	n/a
105.0635	0.091	210127	keystroke_r	r	n/a
105.2895	0.105	210579	keystroke_y	y	n/a
105.5445	0.105	211089	keystroke_b	b	n/a
105.6645	0.135	211329	keystroke_o	o	n/a
105.8145	0.105	211629	keystroke_d	d	n/a
105.9645	0.105	211929	keystroke_y	y	n/a
106.2495	0.0895	212499	keystroke_Key.enter	Key.enter	n/a
106.345	8.0805	212690	prompt	n/a	dating dramatically newbie error\n
106.984	0.165	213968	keystroke_d	d	n/a
107.1345	0.1195	214269	keystroke_a	a	n/a
107.435	0.0895	214870	keystroke_t	t	n/a
107.5695	0.12	215139	keystroke_i	i	n/a
107.795	0.1345	215590	keystroke_n	n	n/a
107.9895	0.105	215979	keystroke_g	g	n/a
108.2135	0.091	216427	keystroke_Key.space	Key.space	n/a
108.7695	0.0745	217539	keystroke_d	d	n/a
109.039	0.1205	218078	keystroke_r	r	n/a
109.174	0.1505	218348	keystroke_a	a	n/a
109.309	0.1805	218618	keystroke_m	m	n/a
109.4595	0.105	218919	keystroke_a	a	n/a
109.7445	0.105	219489	keystroke_t	t	n/a
109.864	0.1805	219728	keystroke_i	i	n/a
110.0595	0.075	220119	keystroke_c	c	n/a
110.3145	0.105	220629	keystroke_a	a	n/a
110.4645	0.09	220929	keystroke_l	l	n/a
110.644	0.0905	221288	keystroke_l	l	n/a
110.914	0.1055	221828	keystroke_y	y	n/a
111.124	0.09	222248	keystroke_Key.space	Key.space	n/a
111.364	0.105	222728	keystroke_n	n	n/a
111.5295	0.1045	223059	keystroke_e	e	n/a
111.769	0.09	223538	keystroke_w	w	n/a
112.0545	0.074	224109	keystroke_b	b	n/a
112.1435	0.165	224287	keystroke_i	i	n/a
112.2795	0.089	224559	keystroke_e	e	n/a
112.9095	0.0745	225819	keystroke_Key.space	Key.space	n/a
113.2845	0.075	226569	keystroke_e	e	n/a
113.524	0.0605	227048	keystroke_r	r	n/a
113.6745	0.0895	227349	keystroke_r	r	n/a
113.899	0.1355	227798	keystroke_o	o	n/a
114.109	0.09	228218	keystroke_r	r	n/a
114.334	0.09	228668	keystroke_Key.enter	Key.enter	n/a
114.429	10.257	228858	prompt	n/a	indonesia adaptation graphics avoiding\n
115.0395	0.0895	230079	keystroke_i	i	n/a
115.219	0.135	230438	keystroke_n	n	n/a
115.339	0.075	230678	keystroke_d	d	n/a
115.504	0.1055	231008	keystroke_o	o	n/a
115.714	0.1205	231428	keystroke_n	n	n/a
115.8795	0.0745	231759	keystroke_e	e	n/a
116.134	0.105	232268	keystroke_s	s	n/a
116.329	0.105	232658	keystroke_i	i	n/a
116.479	0.12	232958	keystroke_a	a	n/a
116.659	0.09	233318	keystroke_Key.space	Key.space	n/a
116.914	0.09	233828	keystroke_a	a	n/a
117.0945	0.165	234189	keystroke_d	d	n/a
117.2445	0.1345	234489	keystroke_a	a	n/a
117.469	0.1205	234938	keystroke_p	p	n/a
117.7845	0.075	235569	keystroke_t	t	n/a
118.114	0.09	236228	keystroke_a	a	n/a
118.4295	0.09	236859	keystroke_t	t	n/a
118.699	0.18	237398	keystroke_i	i	n/a
118.819	0.1655	237638	keystroke_o	o	n/a
119.029	0.135	238058	keystroke_n	n	n/a
119.239	0.09	238478	keystroke_Key.space	Key.space	n/a
119.4645	0.0595	238929	keystroke_g	g	n/a
119.675	0.104	239350	keystroke_r	r	n/a
119.884	0.12	239768	keystroke_a	a	n/a
120.2445	0.1045	240489	keystroke_p	p	n/a
120.454	0.135	240908	keystroke_h	h	n/a
120.5595	0.1645	241119	keystroke_i	i	n/a
120.799	0.0905	241598	keystroke_c	c	n/a
121.055	0.104	242110	keystroke_s	s	n/a
121.399	0.0905	242798	keystroke_Key.space	Key.space	n/a
121.6395	0.119	243279	keystroke_a	a	n/a
122.1935	0.0915	244387	keystroke_v	v	n/a
122.3135	0.121	244627	keystroke_o	o	n/a
123.0795	0.06	246159	keystroke_i	i	n/a
123.8895	0.09	247779	keystroke_d	d	n/a
123.964	0.12	247928	keystroke_i	i	n/a
124.174	0.136	248348	keystroke_n	n	n/a
124.369	0.09	248738	keystroke_g	g	n/a
124.609	0.075	249218	keystroke_Key.enter	Key.enter	n/a
124.691	9.626	249382	prompt	n/a	modification shopping everybody bold\n
125.389	0.1205	250778	keystroke_m	m	n/a
125.5695	0.1195	251139	keystroke_o	o	n/a
125.749	0.0455	251498	keystroke_d	d	n/a
125.8395	0.105	251679	keystroke_i	i	n/a
126.184	0.075	252368	keystroke_f	f	n/a
126.304	0.12	252608	keystroke_i	i	n/a
126.529	0.09	253058	keystroke_c	c	n/a
126.7235	0.106	253447	keystroke_a	a	n/a
127.009	0.09	254018	keystroke_t	t	n/a
127.1895	0.18	254379	keystroke_i	i	n/a
127.2945	0.1645	254589	keystroke_o	o	n/a
127.5195	0.15	255039	keystroke_n	n	n/a
127.654	0.09	255308	keystroke_Key.space	Key.space	n/a
127.864	0.075	255728	keystroke_s	s	n/a
127.984	0.15	255968	keystroke_h	h	n/a
128.074	0.1655	256148	keystroke_i	i	n/a
129.049	0.0755	258098	keystroke_Key.backspace	Key.backspace	n/a
129.3045	0.09	258609	keystroke_o	o	n/a
129.6495	0.045	259299	keystroke_p	p	n/a
129.7845	0.105	259569	keystroke_p	p	n/a
129.9195	0.09	259839	keystroke_i	i	n/a
130.1145	0.1045	260229	keystroke_n	n	n/a
130.264	0.09	260528	keystroke_g	g	n/a
130.399	0.09	260798	keystroke_Key.space	Key.space	n/a
130.624	0.075	261248	keystroke_e	e	n/a
130.8645	0.1195	261729	keystroke_v	v	n/a
131.075	0.0895	262150	keystroke_e	e	n/a
131.284	0.09	262568	keystroke_r	r	n/a
131.5695	0.09	263139	keystroke_y	y	n/a
131.9745	0.075	263949	keystroke_b	b	n/a
132.1545	0.15	264309	keystroke_o	o	n/a
132.964	0.06	265928	keystroke_d	d	n/a
133.039	0.1055	266078	keystroke_y	y	n/a
133.1745	0.1045	266349	keystroke_Key.space	Key.space	n/a
133.43	0.074	266860	keystroke_b	b	n/a
133.535	0.1345	267070	keystroke_o	o	n/a
133.8185	0.166	267637	keystroke_l	l	n/a
134.0295	0.074	268059	keystroke_d	d	n/a
134.224	0.09	268448	keystroke_Key.enter	Key.enter	n/a
134.3215	7.33	268643	prompt	n/a	staffing web star beaches\n
135.0335	0.076	270067	keystroke_s	s	n/a
135.2895	0.0905	270579	keystroke_t	t	n/a
135.514	0.1205	271028	keystroke_a	a	n/a
136.339	0.06	272678	keystroke_f	f	n/a
136.4595	0.089	272919	keystroke_f	f	n/a
136.5795	0.105	273159	keystroke_i	i	n/a
136.774	0.135	273548	keystroke_n	n	n/a
136.954	0.09	273908	keystroke_g	g	n/a
137.179	0.075	274358	keystroke_Key.space	Key.space	n/a
137.554	0.0755	275108	keystroke_w	w	n/a
138.4395	0.0755	276879	keystroke_e	e	n/a
138.6495	0.075	277299	keystroke_b	b	n/a
138.7995	0.0745	277599	keystroke_Key.space	Key.space	n/a
138.919	0.12	277838	keystroke_s	s	n/a
139.1895	0.09	278379	keystroke_t	t	n/a
139.3995	0.1045	278799	keystroke_a	a	n/a
139.7445	0.09	279489	keystroke_r	r	n/a
139.9235	0.0905	279847	keystroke_Key.space	Key.space	n/a
140.164	0.0605	280328	keystroke_b	b	n/a
140.344	0.0905	280688	keystroke_e	e	n/a
140.4945	0.1045	280989	keystroke_a	a	n/a
140.75	0.074	281500	keystroke_c	c	n/a
140.884	0.15	281768	keystroke_h	h	n/a
141.019	0.09	282038	keystroke_e	e	n/a
141.2595	0.0895	282519	keystroke_s	s	n/a
141.559	0.09	283118	keystroke_Key.enter	Key.enter	n/a
141.656	8.53	283312	prompt	n/a	ears street ending tower\n
142.3085	0.0755	284617	keystroke_e	e	n/a
142.5185	0.12	285037	keystroke_a	a	n/a
142.7885	0.09	285577	keystroke_r	r	n/a
143.0445	0.105	286089	keystroke_s	s	n/a
143.2245	0.075	286449	keystroke_Key.space	Key.space	n/a
143.3595	0.0895	286719	keystroke_s	s	n/a
143.6145	0.0895	287229	keystroke_t	t	n/a
143.8395	0.1045	287679	keystroke_r	r	n/a
144.094	0.0615	288188	keystroke_e	e	n/a
144.2445	0.09	288489	keystroke_e	e	n/a
144.529	0.09	289058	keystroke_t	t	n/a
144.844	0.09	289688	keystroke_Key.space	Key.space	n/a
145.219	0.09	290438	keystroke_e	e	n/a
145.339	0.105	290678	keystroke_m	m	n/a
146.119	0.09	292238	keystroke_Key.backspace	Key.backspace	n/a
146.479	0.1055	292958	keystroke_n	n	n/a
146.824	0.0605	293648	keystroke_d	d	n/a
146.929	0.105	293858	keystroke_i	i	n/a
147.139	0.1055	294278	keystroke_n	n	n/a
147.4245	0.0895	294849	keystroke_g	g	n/a
147.649	0.12	295298	keystroke_Key.space	Key.space	n/a
147.9635	0.09	295927	keystroke_t	t	n/a
148.2185	0.136	296437	keystroke_o	o	n/a
148.609	0.045	297218	keystroke_w	w	n/a
148.7595	0.06	297519	keystroke_e	e	n/a
149.0145	0.075	298029	keystroke_r	r	n/a
150.094	0.09	300188	keystroke_Key.enter	Key.enter	n/a
150.1905	9.416	300381	prompt	n/a	blood ethernet travesti fields\n
151.0995	0.0895	302199	keystroke_b	b	n/a
151.294	0.0905	302588	keystroke_l	l	n/a
151.5195	0.06	303039	keystroke_o	o	n/a
151.6545	0.119	303309	keystroke_o	o	n/a
151.9235	0.091	303847	keystroke_d	d	n/a
152.0435	0.106	304087	keystroke_Key.space	Key.space	n/a
152.435	0.074	304870	keystroke_e	e	n/a
152.7045	0.09	305409	keystroke_t	t	n/a
152.8545	0.1495	305709	keystroke_h	h	n/a
152.944	0.0905	305888	keystroke_e	e	n/a
153.184	0.09	306368	keystroke_r	r	n/a
153.349	0.1655	306698	keystroke_n	n	n/a
153.484	0.0755	306968	keystroke_e	e	n/a
153.7395	0.105	307479	keystroke_t	t	n/a
153.919	0.09	307838	keystroke_Key.space	Key.space	n/a
154.2045	0.075	308409	keystroke_t	t	n/a
154.3995	0.089	308799	keystroke_r	r	n/a
155.0435	0.106	310087	keystroke_a	a	n/a
155.2695	0.0745	310539	keystroke_v	v	n/a
155.4785	0.0755	310957	keystroke_e	e	n/a
155.689	0.106	311378	keystroke_s	s	n/a
156.154	0.0745	312308	keystroke_t	t	n/a
156.874	0.106	313748	keystroke_i	i	n/a
157.054	0.1055	314108	keystroke_Key.space	Key.space	n/a
157.34	0.089	314680	keystroke_f	f	n/a
157.459	0.1355	314918	keystroke_i	i	n/a
157.5795	0.0895	315159	keystroke_e	e	n/a
158.0745	0.0445	316149	keystroke_l	l	n/a
158.1345	0.0745	316269	keystroke_d	d	n/a
158.3895	0.09	316779	keystroke_s	s	n/a
159.5145	0.0895	319029	keystroke_Key.enter	Key.enter	n/a
159.6115	9.099	319223	prompt	n/a	platinum ashley advance phase\n
160.2795	0.105	320559	keystroke_p	p	n/a
160.5195	0.15	321039	keystroke_l	l	n/a
160.6395	0.105	321279	keystroke_a	a	n/a
160.9545	0.105	321909	keystroke_t	t	n/a
161.1345	0.12	322269	keystroke_i	i	n/a
161.4345	0.09	322869	keystroke_n	n	n/a
161.7495	0.06	323499	keystroke_u	u	n/a
161.7645	0.03	323529	keystroke_y	y	n/a
161.989	0.1195	323978	keystroke_m	m	n/a
162.6785	0.0755	325357	keystroke_Key.backspace	Key.backspace	n/a
162.8285	0.1205	325657	keystroke_Key.backspace	Key.backspace	n/a
163.099	0.1195	326198	keystroke_m	m	n/a
163.3235	0.075	326647	keystroke_Key.space	Key.space	n/a
163.7895	0.105	327579	keystroke_a	a	n/a
164.0445	0.09	328089	keystroke_s	s	n/a
164.1645	0.1195	328329	keystroke_h	h	n/a
165.274	0.15	330548	keystroke_l	l	n/a
165.409	0.0745	330818	keystroke_e	e	n/a
165.619	0.1505	331238	keystroke_y	y	n/a
165.7835	0.076	331567	keystroke_Key.space	Key.space	n/a
165.994	0.105	331988	keystroke_a	a	n/a
166.2045	0.09	332409	keystroke_d	d	n/a
166.444	0.18	332888	keystroke_v	v	n/a
166.579	0.15	333158	keystroke_a	a	n/a
166.759	0.1355	333518	keystroke_n	n	n/a
166.864	0.09	333728	keystroke_c	c	n/a
167.1345	0.0895	334269	keystroke_e	e	n/a
167.2695	0.1045	334539	keystroke_Key.space	Key.space	n/a
167.494	0.1055	334988	keystroke_p	p	n/a
167.7345	0.105	335469	keystroke_h	h	n/a
167.8995	0.12	335799	keystroke_a	a	n/a
168.1695	0.09	336339	keystroke_s	s	n/a
168.4085	0.0755	336817	keystroke_e	e	n/a
168.619	0.09	337238	keystroke_Key.enter	Key.enter	n/a
168.7155	14.3805	337431	prompt	n/a	shorts pastor physics purchase\n
169.4295	0.104	338859	keystroke_s	s	n/a
169.6085	0.136	339217	keystroke_h	h	n/a
169.6995	0.15	339399	keystroke_o	o	n/a
169.8335	0.075	339667	keystroke_r	r	n/a
170.044	0.075	340088	keystroke_t	t	n/a
170.2835	0.121	340567	keystroke_s	s	n/a
170.4635	0.106	340927	keystroke_Key.space	Key.space	n/a
170.6585	0.135	341317	keystroke_p	p	n/a
170.7795	0.09	341559	keystroke_a	a	n/a
171.3195	0.089	342639	keystroke_s	s	n/a
171.5595	0.0745	343119	keystroke_t	t	n/a
172.0235	0.135	344047	keystroke_o	o	n/a
172.1435	0.09	344287	keystroke_r	r	n/a
172.2935	0.105	344587	keystroke_Key.space	Key.space	n/a
172.4895	0.105	344979	keystroke_p	p	n/a
172.714	0.1355	345428	keystroke_h	h	n/a
172.804	0.1655	345608	keystroke_i	i	n/a
173.0735	0.1055	346147	keystroke_s	s	n/a
173.1645	0.1345	346329	keystroke_i	i	n/a
173.314	0.09	346628	keystroke_c	c	n/a
173.554	0.1055	347108	keystroke_s	s	n/a
173.764	0.09	347528	keystroke_Key.space	Key.space	n/a
174.019	0.105	348038	keystroke_p	p	n/a
174.154	0.1345	348308	keystroke_u	u	n/a
174.3795	0.09	348759	keystroke_r	r	n/a
175.129	0.0755	350258	keystroke_c	c	n/a
176.539	0.075	353078	keystroke_Key.backspace	Key.backspace	n/a
176.704	0.09	353408	keystroke_Key.backspace	Key.backspace	n/a
176.884	0.09	353768	keystroke_Key.backspace	Key.backspace	n/a
177.079	0.075	354158	keystroke_Key.backspace	Key.backspace	n/a
177.289	0.075	354578	keystroke_Key.backspace	Key.backspace	n/a
177.4995	0.074	354999	keystroke_Key.backspace	Key.backspace	n/a
177.7235	0.09	355447	keystroke_Key.backspace	Key.backspace	n/a
177.9635	0.091	355927	keystroke_Key.backspace	Key.backspace	n/a
178.2495	0.1045	356499	keystroke_Key.backspace	Key.backspace	n/a
178.834	0.075	357668	keystroke_Key.backspace	Key.backspace	n/a
179.734	0.09	359468	keystroke_y	y	n/a
180.544	0.0605	361088	keystroke_s	s	n/a
180.6485	0.1205	361297	keystroke_i	i	n/a
180.8145	0.0895	361629	keystroke_c	c	n/a
181.0835	0.075	362167	keystroke_s	s	n/a
181.3085	0.1055	362617	keystroke_Key.space	Key.space	n/a
181.5335	0.106	363067	keystroke_p	p	n/a
181.6835	0.105	363367	keystroke_u	u	n/a
181.8335	0.09	363667	keystroke_r	r	n/a
182.089	0.0905	364178	keystroke_c	c	n/a
182.1795	0.119	364359	keystroke_h	h	n/a
182.3435	0.105	364687	keystroke_a	a	n/a
182.5695	0.105	365139	keystroke_s	s	n/a
182.794	0.06	365588	keystroke_e	e	n/a
183.004	0.09	366008	keystroke_Key.enter	Key.enter	n/a
183.1065	10.0245	366213	prompt	n/a	extensions skins isolated hour\n
183.7545	0.0895	367509	keystroke_e	e	n/a
183.9795	0.104	367959	keystroke_x	x	n/a
184.3385	0.09	368677	keystroke_t	t	n/a
184.5035	0.09	369007	keystroke_e	e	n/a
184.6685	0.09	369337	keystroke_n	n	n/a
184.8635	0.09	369727	keystroke_s	s	n/a
185.1785	0.121	370357	keystroke_i	i	n/a
185.2385	0.166	370477	keystroke_o	o	n/a
185.4645	0.1345	370929	keystroke_n	n	n/a
185.6135	0.0755	371227	keystroke_s	s	n/a
185.8235	0.0905	371647	keystroke_Key.space	Key.space	n/a
186.199	0.09	372398	keystroke_s	s	n/a
186.2735	0.075	372547	keystroke_k	k	n/a
186.469	0.0745	372938	keystroke_i	i	n/a
186.6185	0.12	373237	keystroke_n	n	n/a
186.9495	0.09	373899	keystroke_s	s	n/a
187.1145	0.089	374229	keystroke_Key.space	Key.space	n/a
187.4295	0.105	374859	keystroke_i	i	n/a
188.314	0.06	376628	keystroke_s	s	n/a
189.019	0.09	378038	keystroke_o	o	n/a
189.259	0.12	378518	keystroke_l	l	n/a
189.394	0.09	378788	keystroke_a	a	n/a
189.679	0.075	379358	keystroke_t	t	n/a
189.844	0.09	379688	keystroke_e	e	n/a
190.069	0.09	380138	keystroke_d	d	n/a
190.174	0.105	380348	keystroke_Key.space	Key.space	n/a
190.384	0.1655	380768	keystroke_o	o	n/a
190.534	0.18	381068	keystroke_u	u	n/a
190.864	0.075	381728	keystroke_r	r	n/a
191.254	0.06	382508	keystroke_Key.backspace	Key.backspace	n/a
191.404	0.09	382808	keystroke_Key.backspace	Key.backspace	n/a
191.614	0.105	383228	keystroke_Key.backspace	Key.backspace	n/a
192.0795	0.0895	384159	keystroke_h	h	n/a
192.1995	0.1495	384399	keystroke_o	o	n/a
192.319	0.12	384638	keystroke_u	u	n/a
192.724	0.09	385448	keystroke_r	r	n/a
193.099	0.03	386198	keystroke_Key.enter	Key.enter	n/a
193.1365	10.9895	386273	prompt	n/a	advertise phpbb signing violin\n
194.2395	0.074	388479	keystroke_a	a	n/a
194.419	0.0895	388838	keystroke_d	d	n/a
195.2435	0.075	390487	keystroke_v	v	n/a
195.3935	0.106	390787	keystroke_e	e	n/a
195.6045	0.059	391209	keystroke_r	r	n/a
195.7545	0.09	391509	keystroke_t	t	n/a
195.9045	0.135	391809	keystroke_i	i	n/a
196.0245	0.105	392049	keystroke_s	s	n/a
196.2935	0.06	392587	keystroke_e	e	n/a
196.5035	0.091	393007	keystroke_Key.space	Key.space	n/a
196.7745	0.105	393549	keystroke_p	p	n/a
197.2685	0.105	394537	keystroke_h	h	n/a
199.656	0.058	399312	keystroke_p	p	n/a
199.819	0.0755	399638	keystroke_b	b	n/a
199.9695	0.0895	399939	keystroke_b	b	n/a
200.2695	0.119	400539	keystroke_Key.space	Key.space	n/a
200.5395	0.075	401079	keystroke_s	s	n/a
200.6445	0.12	401289	keystroke_i	i	n/a
201.0645	0.075	402129	keystroke_g	g	n/a
201.619	0.09	403238	keystroke_n	n	n/a
201.7995	0.105	403599	keystroke_i	i	n/a
201.9785	0.1205	403957	keystroke_n	n	n/a
202.129	0.1055	404258	keystroke_g	g	n/a
202.324	0.1195	404648	keystroke_Key.space	Key.space	n/a
202.609	0.075	405218	keystroke_v	v	n/a
202.744	0.15	405488	keystroke_i	i	n/a
202.834	0.1355	405668	keystroke_o	o	n/a
203.0885	0.091	406177	keystroke_l	l	n/a
203.2545	0.1045	406509	keystroke_i	i	n/a
203.449	0.12	406898	keystroke_n	n	n/a
204.034	0.09	408068	keystroke_Key.enter	Key.enter	n/a
204.132	13.2835	408264	prompt	n/a	spouse november thought logged\n
204.754	0.0745	409508	keystroke_a	a	n/a
205.4885	0.1205	410977	keystroke_Key.backspace	Key.backspace	n/a
205.669	0.0745	411338	keystroke_s	s	n/a
205.819	0.165	411638	keystroke_p	p	n/a
205.939	0.15	411878	keystroke_o	o	n/a
206.149	0.12	412298	keystroke_u	u	n/a
206.374	0.075	412748	keystroke_s	s	n/a
206.5995	0.075	413199	keystroke_e	e	n/a
207.124	0.105	414248	keystroke_Key.space	Key.space	n/a
207.409	0.105	414818	keystroke_n	n	n/a
207.529	0.15	415058	keystroke_o	o	n/a
208.234	0.045	416468	keystroke_b	b	n/a
208.6985	0.06	417397	keystroke_Key.backspace	Key.backspace	n/a
208.7595	0.074	417519	keystroke_v	v	n/a
208.9385	0.09	417877	keystroke_e	e	n/a
209.044	0.1195	418088	keystroke_m	m	n/a
209.284	0.0745	418568	keystroke_t	t	n/a
209.629	0.12	419258	keystroke_Key.backspace	Key.backspace	n/a
209.734	0.075	419468	keystroke_b	b	n/a
209.9295	0.09	419859	keystroke_e	e	n/a
210.1985	0.075	420397	keystroke_r	r	n/a
210.6185	0.105	421237	keystroke_Key.space	Key.space	n/a
211.4145	0.1045	422829	keystroke_t	t	n/a
211.594	0.195	423188	keystroke_o	o	n/a
212.179	0.09	424358	keystroke_Key.backspace	Key.backspace	n/a
212.4195	0.1045	424839	keystroke_h	h	n/a
212.509	0.1345	425018	keystroke_o	o	n/a
212.6885	0.091	425377	keystroke_u	u	n/a
213.7235	0.075	427447	keystroke_g	g	n/a
213.8435	0.12	427687	keystroke_h	h	n/a
215.014	0.075	430028	keystroke_t	t	n/a
215.569	0.105	431138	keystroke_Key.space	Key.space	n/a
215.7795	0.0895	431559	keystroke_l	l	n/a
215.989	0.12	431978	keystroke_o	o	n/a
216.409	0.075	432818	keystroke_g	g	n/a
216.544	0.105	433088	keystroke_g	g	n/a
216.784	0.075	433568	keystroke_e	e	n/a
217.0235	0.076	434047	keystroke_d	d	n/a
217.324	0.09	434648	keystroke_Key.enter	Key.enter	n/a
217.4195	6.896	434839	prompt	n/a	radio retro tablet diesel\n
218.1935	0.1205	436387	keystroke_r	r	n/a
218.329	0.135	436658	keystroke_a	a	n/a
218.554	0.075	437108	keystroke_d	d	n/a
218.8395	0.1795	437679	keystroke_i	i	n/a
218.9435	0.1955	437887	keystroke_o	o	n/a
219.1835	0.1205	438367	keystroke_Key.space	Key.space	n/a
219.514	0.09	439028	keystroke_r	r	n/a
219.724	0.12	439448	keystroke_e	e	n/a
219.979	0.0905	439958	keystroke_t	t	n/a
220.204	0.105	440408	keystroke_r	r	n/a
220.414	0.1355	440828	keystroke_o	o	n/a
220.609	0.105	441218	keystroke_Key.space	Key.space	n/a
220.834	0.1045	441668	keystroke_t	t	n/a
220.9835	0.166	441967	keystroke_a	a	n/a
221.2395	0.105	442479	keystroke_b	b	n/a
221.7195	0.1195	443439	keystroke_l	l	n/a
221.884	0.09	443768	keystroke_e	e	n/a
222.3935	0.061	444787	keystroke_t	t	n/a
222.5435	0.09	445087	keystroke_Key.space	Key.space	n/a
222.7085	0.0755	445417	keystroke_d	d	n/a
222.9495	0.119	445899	keystroke_i	i	n/a
223.129	0.1055	446258	keystroke_e	e	n/a
223.399	0.09	446798	keystroke_s	s	n/a
223.6085	0.0905	447217	keystroke_e	e	n/a
223.864	0.1645	447728	keystroke_l	l	n/a
224.2235	0.09	448447	keystroke_Key.enter	Key.enter	n/a
224.3185	7.692	448637	prompt	n/a	tomatoes received plane contacts\n
225.034	0.0895	450068	keystroke_t	t	n/a
225.139	0.105	450278	keystroke_o	o	n/a
225.334	0.15	450668	keystroke_m	m	n/a
225.424	0.1045	450848	keystroke_a	a	n/a
225.7235	0.105	451447	keystroke_t	t	n/a
225.9635	0.135	451927	keystroke_o	o	n/a
226.1885	0.0755	452377	keystroke_e	e	n/a
226.4285	0.0755	452857	keystroke_s	s	n/a
226.5635	0.09	453127	keystroke_Key.space	Key.space	n/a
226.8035	0.12	453607	keystroke_r	r	n/a
226.9245	0.089	453849	keystroke_e	e	n/a
227.179	0.06	454358	keystroke_c	c	n/a
227.4035	0.0605	454807	keystroke_e	e	n/a
227.5535	0.136	455107	keystroke_i	i	n/a
227.6595	0.104	455319	keystroke_v	v	n/a
227.8845	0.074	455769	keystroke_e	e	n/a
228.1245	0.0745	456249	keystroke_d	d	n/a
228.364	0.1045	456728	keystroke_Key.space	Key.space	n/a
228.5895	0.1045	457179	keystroke_p	p	n/a
228.7835	0.15	457567	keystroke_l	l	n/a
228.9035	0.1055	457807	keystroke_a	a	n/a
229.024	0.15	458048	keystroke_n	n	n/a
229.219	0.075	458438	keystroke_e	e	n/a
229.399	0.105	458798	keystroke_Key.space	Key.space	n/a
229.534	0.09	459068	keystroke_c	c	n/a
229.654	0.135	459308	keystroke_o	o	n/a
230.1935	0.076	460387	keystroke_n	n	n/a
230.569	0.075	461138	keystroke_t	t	n/a
230.839	0.045	461678	keystroke_a	a	n/a
231.1845	0.0745	462369	keystroke_c	c	n/a
231.454	0.0755	462908	keystroke_t	t	n/a
231.694	0.075	463388	keystroke_s	s	n/a
231.9485	0.0605	463897	keystroke_Key.enter	Key.enter	n/a
232.016	7.209	464032	prompt	n/a	farming warrior london mardi\n
233.164	0.12	466328	keystroke_f	f	n/a
233.239	0.1505	466478	keystroke_a	a	n/a
233.479	0.105	466958	keystroke_r	r	n/a
233.599	0.09	467198	keystroke_m	m	n/a
233.7635	0.1205	467527	keystroke_i	i	n/a
233.959	0.1195	467918	keystroke_n	n	n/a
234.199	0.0895	468398	keystroke_g	g	n/a
234.4085	0.09	468817	keystroke_Key.space	Key.space	n/a
234.724	0.09	469448	keystroke_w	w	n/a
234.934	0.1055	469868	keystroke_a	a	n/a
235.204	0.06	470408	keystroke_r	r	n/a
235.324	0.12	470648	keystroke_r	r	n/a
235.5795	0.1645	471159	keystroke_i	i	n/a
235.669	0.1795	471338	keystroke_o	o	n/a
235.9085	0.0905	471817	keystroke_r	r	n/a
236.119	0.09	472238	keystroke_Key.space	Key.space	n/a
236.2995	0.0735	472599	keystroke_l	l	n/a
236.464	0.1055	472928	keystroke_o	o	n/a
236.644	0.12	473288	keystroke_n	n	n/a
236.9285	0.0755	473857	keystroke_d	d	n/a
237.094	0.119	474188	keystroke_o	o	n/a
237.379	0.09	474758	keystroke_n	n	n/a
237.7245	0.0745	475449	keystroke_Key.space	Key.space	n/a
238.084	0.135	476168	keystroke_m	m	n/a
238.1885	0.105	476377	keystroke_a	a	n/a
238.504	0.075	477008	keystroke_r	r	n/a
238.7135	0.09	477427	keystroke_d	d	n/a
238.8635	0.12	477727	keystroke_i	i	n/a
239.1335	0.09	478267	keystroke_Key.enter	Key.enter	n/a
239.229	8.2475	478458	prompt	n/a	baths kinda intensive adsl\n
240.2295	0.1495	480459	keystroke_b	b	n/a
240.334	0.135	480668	keystroke_a	a	n/a
240.619	0.1045	481238	keystroke_t	t	n/a
240.7085	0.15	481417	keystroke_h	h	n/a
240.9335	0.1355	481867	keystroke_s	s	n/a
241.159	0.0895	482318	keystroke_Key.space	Key.space	n/a
241.3835	0.1055	482767	keystroke_k	k	n/a
241.924	0.1045	483848	keystroke_i	i	n/a
242.1185	0.12	484237	keystroke_n	n	n/a
242.2985	0.0755	484597	keystroke_d	d	n/a
242.5685	0.121	485137	keystroke_a	a	n/a
242.7485	0.0905	485497	keystroke_Key.space	Key.space	n/a
242.9435	0.09	485887	keystroke_i	i	n/a
243.0935	0.12	486187	keystroke_n	n	n/a
243.2885	0.1055	486577	keystroke_t	t	n/a
243.5295	0.0895	487059	keystroke_e	e	n/a
243.7535	0.075	487507	keystroke_n	n	n/a
244.1595	0.074	488319	keystroke_s	s	n/a
244.3085	0.12	488617	keystroke_i	i	n/a
244.4585	0.075	488917	keystroke_c	c	n/a
244.9835	0.1055	489967	keystroke_Key.backspace	Key.backspace	n/a
245.074	0.0745	490148	keystroke_v	v	n/a
245.239	0.075	490478	keystroke_e	e	n/a
245.479	0.075	490958	keystroke_Key.space	Key.space	n/a
245.959	0.0745	491918	keystroke_a	a	n/a
246.2285	0.075	492457	keystroke_d	d	n/a
246.7835	0.0755	493567	keystroke_s	s	n/a
247.0235	0.09	494047	keystroke_l	l	n/a
247.384	0.09	494768	keystroke_Key.enter	Key.enter	n/a
247.4805	10.36	494961	prompt	n/a	treasury martial bristol tool\n
248.5995	0.074	497199	keystroke_t	t	n/a
248.8085	0.1655	497617	keystroke_r	r	n/a
248.9585	0.15	497917	keystroke_e	e	n/a
249.1835	0.105	498367	keystroke_a	a	n/a
249.4535	0.09	498907	keystroke_s	s	n/a
249.619	0.12	499238	keystroke_u	u	n/a
249.889	0.1055	499778	keystroke_r	r	n/a
250.099	0.09	500198	keystroke_y	y	n/a
250.339	0.075	500678	keystroke_Key.space	Key.space	n/a
250.564	0.105	501128	keystroke_m	m	n/a
250.729	0.09	501458	keystroke_a	a	n/a
251.059	0.044	502118	keystroke_a	a	n/a
251.269	0.075	502538	keystroke_r	r	n/a
251.509	0.09	503018	keystroke_t	t	n/a
252.289	0.0595	504578	keystroke_Key.backspace	Key.backspace	n/a
252.4235	0.12	504847	keystroke_Key.backspace	Key.backspace	n/a
252.994	0.0745	505988	keystroke_Key.backspace	Key.backspace	n/a
253.5035	0.06	507007	keystroke_r	r	n/a
253.684	0.0895	507368	keystroke_t	t	n/a
253.8035	0.15	507607	keystroke_i	i	n/a
253.9095	0.104	507819	keystroke_a	a	n/a
254.179	0.105	508358	keystroke_l	l	n/a
254.373	0.0905	508746	keystroke_Key.space	Key.space	n/a
254.629	0.06	509258	keystroke_b	b	n/a
255.379	0.075	510758	keystroke_r	r	n/a
255.469	0.1195	510938	keystroke_i	i	n/a
255.604	0.105	511208	keystroke_s	s	n/a
255.9045	0.0745	511809	keystroke_t	t	n/a
256.084	0.1195	512168	keystroke_o	o	n/a
256.339	0.12	512678	keystroke_l	l	n/a
256.609	0.0745	513218	keystroke_Key.space	Key.space	n/a
256.9985	0.0755	513997	keystroke_t	t	n/a
257.089	0.0905	514178	keystroke_o	o	n/a
257.2535	0.12	514507	keystroke_o	o	n/a
257.5085	0.09	515017	keystroke_l	l	n/a
257.764	0.0745	515528	keystroke_Key.enter	Key.enter	n/a
257.845	8.2755	515690	prompt	n/a	audience lodge translate contents\n
258.5895	0.0745	517179	keystroke_a	a	n/a
258.7535	0.106	517507	keystroke_u	u	n/a
258.9335	0.0745	517867	keystroke_d	d	n/a
259.098	0.121	518196	keystroke_i	i	n/a
259.3085	0.09	518617	keystroke_a	a	n/a
259.4735	0.105	518947	keystroke_n	n	n/a
259.6085	0.075	519217	keystroke_c	c	n/a
259.8485	0.075	519697	keystroke_e	e	n/a
260.059	0.09	520118	keystroke_Key.space	Key.space	n/a
260.448	0.0765	520896	keystroke_l	l	n/a
260.629	0.1195	521258	keystroke_o	o	n/a
260.899	0.0745	521798	keystroke_d	d	n/a
261.1085	0.0905	522217	keystroke_g	g	n/a
261.3195	0.104	522639	keystroke_e	e	n/a
261.4535	0.09	522907	keystroke_Key.space	Key.space	n/a
261.6785	0.091	523357	keystroke_t	t	n/a
261.889	0.09	523778	keystroke_r	r	n/a
262.069	0.12	524138	keystroke_a	a	n/a
262.2635	0.1055	524527	keystroke_n	n	n/a
262.414	0.09	524828	keystroke_s	s	n/a
262.534	0.12	525068	keystroke_l	l	n/a
262.684	0.1195	525368	keystroke_a	a	n/a
262.9835	0.106	525967	keystroke_t	t	n/a
263.1935	0.105	526387	keystroke_e	e	n/a
263.3735	0.0905	526747	keystroke_Key.space	Key.space	n/a
263.9585	0.0455	527917	keystroke_c	c	n/a
264.019	0.0145	528038	keystroke_o	o	n/a
264.1385	0.105	528277	keystroke_n	n	n/a
264.514	0.075	529028	keystroke_t	t	n/a
264.709	0.09	529418	keystroke_e	e	n/a
264.919	0.1195	529838	keystroke_n	n	n/a
265.0985	0.0905	530197	keystroke_t	t	n/a
265.459	0.09	530918	keystroke_s	s	n/a
266.044	0.0745	532088	keystroke_Key.enter	Key.enter	n/a
266.125	9.1005	532250	prompt	n/a	guys alert advisory residence\n
267.228	0.076	534456	keystroke_g	g	n/a
267.3485	0.09	534697	keystroke_u	u	n/a
267.559	0.09	535118	keystroke_y	y	n/a
267.8285	0.075	535657	keystroke_s	s	n/a
268.0085	0.0905	536017	keystroke_Key.space	Key.space	n/a
268.3095	0.089	536619	keystroke_a	a	n/a
268.4135	0.105	536827	keystroke_l	l	n/a
268.579	0.09	537158	keystroke_e	e	n/a
268.8335	0.0755	537667	keystroke_r	r	n/a
269.074	0.075	538148	keystroke_t	t	n/a
269.614	0.105	539228	keystroke_Key.space	Key.space	n/a
269.869	0.09	539738	keystroke_a	a	n/a
270.079	0.06	540158	keystroke_d	d	n/a
270.274	0.09	540548	keystroke_v	v	n/a
270.424	0.105	540848	keystroke_i	i	n/a
270.604	0.105	541208	keystroke_s	s	n/a
270.784	0.12	541568	keystroke_o	o	n/a
270.919	0.106	541838	keystroke_r	r	n/a
271.069	0.135	542138	keystroke_y	y	n/a
271.159	0.135	542318	keystroke_Key.space	Key.space	n/a
271.459	0.15	542918	keystroke_r	r	n/a
271.594	0.12	543188	keystroke_e	e	n/a
271.879	0.104	543758	keystroke_s	s	n/a
272.044	0.12	544088	keystroke_i	i	n/a
272.2085	0.0755	544417	keystroke_c	c	n/a
272.479	0.0745	544958	keystroke_e	e	n/a
272.6135	0.195	545227	keystroke_n	n	n/a
273.4535	0.075	546907	keystroke_Key.backspace	Key.backspace	n/a
273.634	0.0745	547268	keystroke_Key.backspace	Key.backspace	n/a
273.7835	0.1055	547567	keystroke_Key.backspace	Key.backspace	n/a
274.0835	0.0455	548167	keystroke_d	d	n/a
274.2645	0.0745	548529	keystroke_e	e	n/a
274.5035	0.105	549007	keystroke_n	n	n/a
274.6385	0.0755	549277	keystroke_c	c	n/a
274.9385	0.0605	549877	keystroke_e	e	n/a
275.1335	0.0905	550267	keystroke_Key.enter	Key.enter	n/a
275.2295	12.116	550459	prompt	n/a	consultants injury denial surplus\n
275.929	0.09	551858	keystroke_c	c	n/a
276.034	0.105	552068	keystroke_o	o	n/a
276.244	0.135	552488	keystroke_n	n	n/a
276.409	0.105	552818	keystroke_s	s	n/a
276.7395	0.0745	553479	keystroke_u	u	n/a
277.3535	0.09	554707	keystroke_l	l	n/a
277.4585	0.09	554917	keystroke_a	a	n/a
277.774	0.09	555548	keystroke_t	t	n/a
278.0135	0.0905	556027	keystroke_a	a	n/a
278.8235	0.06	557647	keystroke_Key.backspace	Key.backspace	n/a
278.989	0.1045	557978	keystroke_Key.backspace	Key.backspace	n/a
279.3035	0.12	558607	keystroke_Key.backspace	Key.backspace	n/a
279.8885	0.1805	559777	keystroke_t	t	n/a
280.0235	0.195	560047	keystroke_a	a	n/a
280.204	0.1645	560408	keystroke_n	n	n/a
280.384	0.0745	560768	keystroke_t	t	n/a
280.609	0.09	561218	keystroke_s	s	n/a
281.4635	0.09	562927	keystroke_Key.space	Key.space	n/a
281.7035	0.0755	563407	keystroke_i	i	n/a
281.8535	0.0905	563707	keystroke_n	n	n/a
282.0635	0.0755	564127	keystroke_j	j	n/a
282.2585	0.0905	564517	keystroke_u	u	n/a
283.084	0.09	566168	keystroke_r	r	n/a
283.189	0.105	566378	keystroke_y	y	n/a
283.444	0.0745	566888	keystroke_Key.space	Key.space	n/a
283.8035	0.0755	567607	keystroke_d	d	n/a
284.0135	0.0755	568027	keystroke_e	e	n/a
284.3285	0.06	568657	keystroke_n	n	n/a
284.5085	0.12	569017	keystroke_i	i	n/a
284.6735	0.091	569347	keystroke_a	a	n/a
284.8085	0.1205	569617	keystroke_l	l	n/a
284.988	0.1055	569976	keystroke_Key.space	Key.space	n/a
285.1835	0.09	570367	keystroke_s	s	n/a
285.2885	0.09	570577	keystroke_u	u	n/a
286.0235	0.075	572047	keystroke_r	r	n/a
286.219	0.135	572438	keystroke_p	p	n/a
286.519	0.12	573038	keystroke_l	l	n/a
286.789	0.135	573578	keystroke_u	u	n/a
286.9835	0.0595	573967	keystroke_s	s	n/a
287.253	0.0905	574506	keystroke_Key.enter	Key.enter	n/a
287.3505	6.04	574701	prompt	n/a	child loans nursing sees\n
288.2735	0.06	576547	keystroke_c	c	n/a
288.3185	0.1055	576637	keystroke_h	h	n/a
288.3945	0.119	576789	keystroke_i	i	n/a
289.023	0.106	578046	keystroke_l	l	n/a
289.1435	0.075	578287	keystroke_d	d	n/a
289.2785	0.105	578557	keystroke_Key.space	Key.space	n/a
289.459	0.0745	578918	keystroke_l	l	n/a
289.654	0.104	579308	keystroke_o	o	n/a
289.879	0.105	579758	keystroke_a	a	n/a
290.283	0.105	580566	keystroke_n	n	n/a
290.5535	0.0755	581107	keystroke_s	s	n/a
290.7185	0.09	581437	keystroke_Key.space	Key.space	n/a
290.8835	0.0755	581767	keystroke_n	n	n/a
291.079	0.0745	582158	keystroke_u	u	n/a
291.319	0.0745	582638	keystroke_r	r	n/a
291.544	0.0895	583088	keystroke_s	s	n/a
291.6485	0.1055	583297	keystroke_i	i	n/a
291.8445	0.119	583689	keystroke_n	n	n/a
292.083	0.0905	584166	keystroke_g	g	n/a
292.2785	0.09	584557	keystroke_Key.space	Key.space	n/a
292.4285	0.0905	584857	keystroke_s	s	n/a
292.639	0.0595	585278	keystroke_e	e	n/a
292.7895	0.089	585579	keystroke_e	e	n/a
293.044	0.075	586088	keystroke_d	d	n/a
293.2985	0.09	586597	keystroke_Key.enter	Key.enter	n/a
293.398	16.6875	586796	prompt	n/a	jerry specifics superintendent governments\n
294.348	0.1205	588696	keystroke_j	j	n/a
294.499	0.1045	588998	keystroke_e	e	n/a
294.784	0.0745	589568	keystroke_r	r	n/a
294.9335	0.075	589867	keystroke_r	r	n/a
295.069	0.12	590138	keystroke_y	y	n/a
295.2035	0.12	590407	keystroke_Key.space	Key.space	n/a
295.3835	0.1055	590767	keystroke_s	s	n/a
295.4585	0.1505	590917	keystroke_p	p	n/a
295.6535	0.045	591307	keystroke_e	e	n/a
296.1635	0.045	592327	keystroke_c	c	n/a
296.2535	0.12	592507	keystroke_i	i	n/a
296.509	0.0745	593018	keystroke_f	f	n/a
296.6135	0.135	593227	keystroke_i	i	n/a
296.8095	0.074	593619	keystroke_c	c	n/a
297.0635	0.06	594127	keystroke_s	s	n/a
297.2735	0.0755	594547	keystroke_Key.space	Key.space	n/a
297.633	0.075	595266	keystroke_s	s	n/a
297.889	0.1045	595778	keystroke_u	u	n/a
298.159	0.12	596318	keystroke_p	p	n/a
298.339	0.09	596678	keystroke_e	e	n/a
298.564	0.0745	597128	keystroke_r	r	n/a
298.7435	0.105	597487	keystroke_i	i	n/a
299.359	0.09	598718	keystroke_n	n	n/a
299.599	0.09	599198	keystroke_t	t	n/a
299.7945	0.074	599589	keystroke_e	e	n/a
300.0185	0.1055	600037	keystroke_n	n	n/a
300.4085	0.061	600817	keystroke_d	d	n/a
300.589	0.0605	601178	keystroke_e	e	n/a
300.814	0.1195	601628	keystroke_n	n	n/a
301.0835	0.0745	602167	keystroke_t	t	n/a
301.3235	0.09	602647	keystroke_Key.space	Key.space	n/a
301.6235	0.061	603247	keystroke_f	f	n/a
301.7135	0.12	603427	keystroke_o	o	n/a
302.509	0.059	605018	keystroke_Key.backspace	Key.backspace	n/a
302.659	0.0895	605318	keystroke_Key.backspace	Key.backspace	n/a
302.8095	0.0595	605619	keystroke_f	f	n/a
303.1535	0.09	606307	keystroke_Key.backspace	Key.backspace	n/a
303.3345	0.074	606669	keystroke_g	g	n/a
303.9635	0.075	607927	keystroke_Key.backspace	Key.backspace	n/a
305.5985	0.0605	611197	keystroke_g	g	n/a
305.749	0.105	611498	keystroke_o	o	n/a
305.9745	0.044	611949	keystroke_v	v	n/a
306.139	0.06	612278	keystroke_e	e	n/a
306.334	0.06	612668	keystroke_r	r	n/a
306.7835	0.0745	613567	keystroke_n	n	n/a
308.539	0.104	617078	keystroke_m	m	n/a
308.674	0.075	617348	keystroke_e	e	n/a
308.899	0.09	617798	keystroke_n	n	n/a
309.199	0.0895	618398	keystroke_t	t	n/a
309.4535	0.0755	618907	keystroke_s	s	n/a
310.0235	0.06	620047	keystroke_Key.enter	Key.enter	n/a
310.0905	10.045	620181	prompt	n/a	deserve font retirement florist\n
310.8335	0.061	621667	keystroke_d	d	n/a
310.9985	0.091	621997	keystroke_e	e	n/a
311.2235	0.105	622447	keystroke_s	s	n/a
311.4485	0.09	622897	keystroke_e	e	n/a
311.659	0.1045	623318	keystroke_r	r	n/a
311.944	0.0745	623888	keystroke_v	v	n/a
312.1835	0.0755	624367	keystroke_e	e	n/a
313.114	0.119	626228	keystroke_Key.space	Key.space	n/a
313.3535	0.09	626707	keystroke_f	f	n/a
313.4595	0.12	626919	keystroke_o	o	n/a
313.7435	0.15	627487	keystroke_n	n	n/a
313.9985	0.075	627997	keystroke_t	t	n/a
314.2385	0.0905	628477	keystroke_Key.space	Key.space	n/a
314.749	0.0895	629498	keystroke_r	r	n/a
314.8995	0.1195	629799	keystroke_e	e	n/a
315.169	0.09	630338	keystroke_t	t	n/a
315.319	0.12	630638	keystroke_i	i	n/a
316.053	0.151	632106	keystroke_r	r	n/a
316.158	0.1215	632316	keystroke_e	e	n/a
316.3695	0.134	632739	keystroke_m	m	n/a
316.4885	0.09	632977	keystroke_e	e	n/a
316.6985	0.1205	633397	keystroke_n	n	n/a
316.9385	0.0905	633877	keystroke_t	t	n/a
317.8235	0.105	635647	keystroke_Key.space	Key.space	n/a
318.244	0.075	636488	keystroke_f	f	n/a
318.469	0.105	636938	keystroke_l	l	n/a
318.709	0.09	637418	keystroke_o	o	n/a
319.234	0.09	638468	keystroke_r	r	n/a
319.3685	0.135	638737	keystroke_i	i	n/a
319.5185	0.105	639037	keystroke_s	s	n/a
319.789	0.0895	639578	keystroke_t	t	n/a
320.0435	0.09	640087	keystroke_Key.enter	Key.enter	n/a
320.1385	10.5115	640277	prompt	n/a	tuner prozac beneath budgets\n
321.1095	0.0595	642219	keystroke_t	t	n/a
321.199	0.09	642398	keystroke_n	n	n/a
321.454	0.09	642908	keystroke_u	u	n/a
321.694	0.0755	643388	keystroke_e	e	n/a
322.159	0.059	644318	keystroke_Key.backspace	Key.backspace	n/a
322.323	0.076	644646	keystroke_Key.backspace	Key.backspace	n/a
322.5185	0.12	645037	keystroke_Key.backspace	Key.backspace	n/a
322.954	0.0745	645908	keystroke_u	u	n/a
323.164	0.105	646328	keystroke_n	n	n/a
323.314	0.075	646628	keystroke_e	e	n/a
323.554	0.09	647108	keystroke_r	r	n/a
323.674	0.105	647348	keystroke_Key.space	Key.space	n/a
323.899	0.105	647798	keystroke_p	p	n/a
324.109	0.09	648218	keystroke_r	r	n/a
324.229	0.135	648458	keystroke_o	o	n/a
324.799	0.09	649598	keystroke_z	z	n/a
325.054	0.0905	650108	keystroke_a	a	n/a
325.293	0.076	650586	keystroke_c	c	n/a
325.563	0.0755	651126	keystroke_Key.space	Key.space	n/a
325.9235	0.0755	651847	keystroke_b	b	n/a
326.6285	0.075	653257	keystroke_e	e	n/a
327.4535	0.165	654907	keystroke_n	n	n/a
327.5735	0.0905	655147	keystroke_e	e	n/a
327.7985	0.12	655597	keystroke_a	a	n/a
328.069	0.105	656138	keystroke_t	t	n/a
328.219	0.1345	656438	keystroke_h	h	n/a
328.3685	0.105	656737	keystroke_Key.space	Key.space	n/a
328.6095	0.0745	657219	keystroke_b	b	n/a
328.729	0.12	657458	keystroke_u	u	n/a
328.954	0.075	657908	keystroke_d	d	n/a
329.224	0.074	658448	keystroke_g	g	n/a
329.434	0.09	658868	keystroke_e	e	n/a
329.9585	0.0605	659917	keystroke_t	t	n/a
330.214	0.09	660428	keystroke_s	s	n/a
330.573	0.076	661146	keystroke_Key.enter	Key.enter	n/a
330.6535	5.6225	661307	prompt	n/a	seal dies chips london\n
331.369	0.075	662738	keystroke_s	s	n/a
331.5635	0.0755	663127	keystroke_e	e	n/a
331.864	0.09	663728	keystroke_a	a	n/a
332.134	0.105	664268	keystroke_l	l	n/a
332.298	0.105	664596	keystroke_Key.space	Key.space	n/a
332.5535	0.0755	665107	keystroke_d	d	n/a
332.764	0.105	665528	keystroke_i	i	n/a
333.124	0.06	666248	keystroke_e	e	n/a
333.379	0.075	666758	keystroke_s	s	n/a
333.5885	0.0755	667177	keystroke_Key.space	Key.space	n/a
333.934	0.074	667868	keystroke_c	c	n/a
334.024	0.105	668048	keystroke_h	h	n/a
334.2185	0.09	668437	keystroke_i	i	n/a
334.399	0.1345	668798	keystroke_p	p	n/a
334.609	0.075	669218	keystroke_s	s	n/a
334.7435	0.09	669487	keystroke_Key.space	Key.space	n/a
334.9085	0.0605	669817	keystroke_l	l	n/a
335.074	0.09	670148	keystroke_o	o	n/a
335.254	0.135	670508	keystroke_n	n	n/a
335.479	0.06	670958	keystroke_d	d	n/a
335.629	0.15	671258	keystroke_o	o	n/a
335.884	0.105	671768	keystroke_n	n	n/a
336.184	0.09	672368	keystroke_Key.enter	Key.enter	n/a
336.2805	8.6675	672561	prompt	n/a	named eggs purchases forum\n
337.099	0.09	674198	keystroke_n	n	n/a
337.368	0.076	674736	keystroke_a	a	n/a
337.594	0.105	675188	keystroke_m	m	n/a
337.744	0.045	675488	keystroke_e	e	n/a
337.9685	0.0755	675937	keystroke_d	d	n/a
338.104	0.105	676208	keystroke_Key.space	Key.space	n/a
338.3735	0.105	676747	keystroke_a	a	n/a
338.779	0.1045	677558	keystroke_Key.backspace	Key.backspace	n/a
338.8985	0.075	677797	keystroke_e	e	n/a
339.1385	0.075	678277	keystroke_g	g	n/a
339.289	0.075	678578	keystroke_g	g	n/a
339.5585	0.09	679117	keystroke_s	s	n/a
339.724	0.105	679448	keystroke_Key.space	Key.space	n/a
340.039	0.09	680078	keystroke_p	p	n/a
340.234	0.105	680468	keystroke_u	u	n/a
340.474	0.075	680948	keystroke_r	r	n/a
341.239	0.06	682478	keystroke_c	c	n/a
341.329	0.105	682658	keystroke_h	h	n/a
341.7335	0.09	683467	keystroke_a	a	n/a
342.049	0.075	684098	keystroke_s	s	n/a
342.274	0.0745	684548	keystroke_e	e	n/a
342.5135	0.09	685027	keystroke_s	s	n/a
342.8585	0.0755	685717	keystroke_Key.space	Key.space	n/a
343.4135	0.045	686827	keystroke_f	f	n/a
343.5635	0.121	687127	keystroke_o	o	n/a
343.863	0.09	687726	keystroke_r	r	n/a
344.2235	0.105	688447	keystroke_u	u	n/a
344.569	0.0745	689138	keystroke_m	m	n/a
344.869	0.0745	689738	keystroke_Key.enter	Key.enter	n/a
344.9525	7.163	689905	prompt	n/a	onion spyware boat oliver\n
345.6635	0.12	691327	keystroke_o	o	n/a
345.9035	0.0905	691807	keystroke_n	n	n/a
346.0535	0.1195	692107	keystroke_i	i	n/a
346.293	0.136	692586	keystroke_o	o	n/a
346.548	0.105	693096	keystroke_n	n	n/a
346.818	0.075	693636	keystroke_Key.space	Key.space	n/a
347.1195	0.074	694239	keystroke_s	s	n/a
347.194	0.0895	694388	keystroke_p	p	n/a
347.403	0.0905	694806	keystroke_y	y	n/a
347.779	0.09	695558	keystroke_w	w	n/a
347.9885	0.105	695977	keystroke_a	a	n/a
348.319	0.0895	696638	keystroke_r	r	n/a
348.5135	0.105	697027	keystroke_e	e	n/a
348.6635	0.1055	697327	keystroke_Key.space	Key.space	n/a
348.9485	0.0605	697897	keystroke_b	b	n/a
349.218	0.031	698436	keystroke_o	o	n/a
349.234	0.105	698468	keystroke_a	a	n/a
349.564	0.12	699128	keystroke_t	t	n/a
349.789	0.09	699578	keystroke_Key.space	Key.space	n/a
349.939	0.12	699878	keystroke_l	l	n/a
350.5235	0.075	701047	keystroke_Key.backspace	Key.backspace	n/a
350.7785	0.105	701557	keystroke_o	o	n/a
350.9885	0.09	701977	keystroke_l	l	n/a
351.1535	0.12	702307	keystroke_i	i	n/a
351.2885	0.0905	702577	keystroke_v	v	n/a
351.514	0.075	703028	keystroke_e	e	n/a
351.7535	0.0905	703507	keystroke_r	r	n/a
352.009	0.105	704018	keystroke_Key.enter	Key.enter	n/a
352.119	15.101	704238	prompt	n/a	medication encryption photoshop game\n
353.2385	0.1655	706477	keystroke_m	m	n/a
353.3585	0.075	706717	keystroke_e	e	n/a
353.5985	0.105	707197	keystroke_d	d	n/a
353.779	0.0905	707558	keystroke_i	i	n/a
356.4795	0.029	712959	keystroke_c	c	n/a
356.5985	0.09	713197	keystroke_a	a	n/a
356.8835	0.075	713767	keystroke_t	t	n/a
357.1235	0.165	714247	keystroke_i	i	n/a
357.2285	0.165	714457	keystroke_o	o	n/a
357.4835	0.09	714967	keystroke_n	n	n/a
357.7385	0.09	715477	keystroke_Key.space	Key.space	n/a
358.1895	0.119	716379	keystroke_i	i	n/a
358.8035	0.105	717607	keystroke_Key.backspace	Key.backspace	n/a
359.0435	0.06	718087	keystroke_e	e	n/a
359.1635	0.105	718327	keystroke_n	n	n/a
359.748	0.075	719496	keystroke_c	c	n/a
360.094	0.0745	720188	keystroke_r	r	n/a
360.319	0.104	720638	keystroke_y	y	n/a
360.589	0.09	721178	keystroke_p	p	n/a
362.329	0.09	724658	keystroke_t	t	n/a
362.464	0.164	724928	keystroke_i	i	n/a
362.554	0.165	725108	keystroke_o	o	n/a
362.794	0.1205	725588	keystroke_n	n	n/a
363.048	0.105	726096	keystroke_Key.space	Key.space	n/a
363.379	0.105	726758	keystroke_p	p	n/a
363.633	0.1205	727266	keystroke_h	h	n/a
363.708	0.1505	727416	keystroke_o	o	n/a
363.9935	0.1055	727987	keystroke_t	t	n/a
364.114	0.12	728228	keystroke_o	o	n/a
364.4285	0.0905	728857	keystroke_s	s	n/a
364.5335	0.135	729067	keystroke_h	h	n/a
364.594	0.119	729188	keystroke_o	o	n/a
364.773	0.15	729546	keystroke_p	p	n/a
364.788	0.031	729576	keystroke_o	o	n/a
365.8385	0.12	731677	keystroke_Key.backspace	Key.backspace	n/a
366.0935	0.09	732187	keystroke_Key.space	Key.space	n/a
366.4835	0.12	732967	keystroke_g	g	n/a
366.5735	0.1355	733147	keystroke_a	a	n/a
366.7535	0.15	733507	keystroke_m	m	n/a
366.9485	0.06	733897	keystroke_e	e	n/a
367.1285	0.09	734257	keystroke_Key.enter	Key.enter	n/a
367.224	7.332	734448	prompt	n/a	timely one extras appeal\n
368.043	0.076	736086	keystroke_t	t	n/a
368.103	0.1055	736206	keystroke_i	i	n/a
368.313	0.12	736626	keystroke_m	m	n/a
368.5085	0.105	737017	keystroke_e	e	n/a
368.599	0.135	737198	keystroke_l	l	n/a
368.883	0.1055	737766	keystroke_y	y	n/a
369.033	0.1055	738066	keystroke_Key.space	Key.space	n/a
369.2585	0.1045	738517	keystroke_o	o	n/a
369.484	0.1195	738968	keystroke_n	n	n/a
369.663	0.0905	739326	keystroke_e	e	n/a
369.7835	0.105	739567	keystroke_Key.space	Key.space	n/a
370.0535	0.075	740107	keystroke_e	e	n/a
370.3085	0.075	740617	keystroke_x	x	n/a
370.729	0.089	741458	keystroke_t	t	n/a
370.938	0.0905	741876	keystroke_r	r	n/a
371.148	0.106	742296	keystroke_a	a	n/a
371.418	0.0905	742836	keystroke_s	s	n/a
371.6135	0.105	743227	keystroke_Key.space	Key.space	n/a
371.8235	0.12	743647	keystroke_p	p	n/a
372.2585	0.0895	744517	keystroke_Key.backspace	Key.backspace	n/a
372.4085	0.12	744817	keystroke_a	a	n/a
372.573	0.06	745146	keystroke_p	p	n/a
372.753	0.076	745506	keystroke_p	p	n/a
373.3535	0.0895	746707	keystroke_e	e	n/a
373.998	0.046	747996	keystroke_a	a	n/a
374.089	0.134	748178	keystroke_l	l	n/a
374.463	0.09	748926	keystroke_Key.enter	Key.enter	n/a
374.5605	7.4505	749121	prompt	n/a	tamil eddie hook springer\n
375.379	0.104	750758	keystroke_t	t	n/a
375.498	0.136	750996	keystroke_a	a	n/a
375.664	0.105	751328	keystroke_m	m	n/a
375.889	0.09	751778	keystroke_i	i	n/a
376.098	0.12	752196	keystroke_l	l	n/a
376.2785	0.09	752557	keystroke_Key.space	Key.space	n/a
376.6535	0.06	753307	keystroke_e	e	n/a
376.864	0.0745	753728	keystroke_d	d	n/a
377.0585	0.135	754117	keystroke_i	i	n/a
377.7335	0.12	755467	keystroke_Key.backspace	Key.backspace	n/a
377.9435	0.06	755887	keystroke_d	d	n/a
378.0635	0.1055	756127	keystroke_i	i	n/a
378.2585	0.0755	756517	keystroke_e	e	n/a
378.5735	0.09	757147	keystroke_Key.space	Key.space	n/a
379.1435	0.075	758287	keystroke_h	h	n/a
379.294	0.0745	758588	keystroke_o	o	n/a
379.4585	0.12	758917	keystroke_o	o	n/a
379.7135	0.1355	759427	keystroke_k	k	n/a
379.8935	0.09	759787	keystroke_Key.space	Key.space	n/a
380.1935	0.0895	760387	keystroke_s	s	n/a
380.313	0.12	760626	keystroke_p	p	n/a
380.5685	0.0895	761137	keystroke_r	r	n/a
380.778	0.135	761556	keystroke_i	i	n/a
381.0185	0.1195	762037	keystroke_n	n	n/a
381.289	0.074	762578	keystroke_g	g	n/a
381.558	0.015	763116	keystroke_e	e	n/a
381.708	0.09	763416	keystroke_r	r	n/a
381.933	0.075	763866	keystroke_Key.enter	Key.enter	n/a
382.0155	13.84	764031	prompt	n/a	conferencing purchases sticky choices\n
383.029	0.0745	766058	keystroke_c	c	n/a
383.1935	0.12	766387	keystroke_o	o	n/a
383.884	0.09	767768	keystroke_n	n	n/a
384.048	0.09	768096	keystroke_v	v	n/a
384.468	0.1205	768936	keystroke_Key.backspace	Key.backspace	n/a
384.6185	0.0905	769237	keystroke_f	f	n/a
384.7535	0.1055	769507	keystroke_e	e	n/a
384.979	0.165	769958	keystroke_r	r	n/a
385.084	0.135	770168	keystroke_e	e	n/a
385.309	0.135	770618	keystroke_n	n	n/a
385.9835	0.075	771967	keystroke_c	c	n/a
386.0735	0.105	772147	keystroke_i	i	n/a
386.2685	0.1355	772537	keystroke_n	n	n/a
386.4785	0.105	772957	keystroke_g	g	n/a
386.6585	0.1055	773317	keystroke_Key.space	Key.space	n/a
387.0185	0.105	774037	keystroke_p	p	n/a
387.244	0.09	774488	keystroke_u	u	n/a
387.484	0.09	774968	keystroke_r	r	n/a
387.859	0.075	775718	keystroke_c	c	n/a
387.979	0.119	775958	keystroke_h	h	n/a
388.129	0.09	776258	keystroke_a	a	n/a
388.7435	0.0905	777487	keystroke_s	s	n/a
388.9535	0.075	777907	keystroke_e	e	n/a
389.1785	0.09	778357	keystroke_s	s	n/a
389.4035	0.09	778807	keystroke_Key.space	Key.space	n/a
389.7185	0.1055	779437	keystroke_s	s	n/a
390.3335	0.075	780667	keystroke_t	t	n/a
390.9485	0.105	781897	keystroke_i	i	n/a
391.309	0.0745	782618	keystroke_c	c	n/a
391.429	0.1045	782858	keystroke_k	k	n/a
391.758	0.1055	783516	keystroke_y	y	n/a
391.998	0.0905	783996	keystroke_Key.space	Key.space	n/a
392.329	0.074	784658	keystroke_s	s	n/a
392.823	0.091	785646	keystroke_Key.backspace	Key.backspace	n/a
392.989	0.104	785978	keystroke_c	c	n/a
393.154	0.15	786308	keystroke_h	h	n/a
393.274	0.135	786548	keystroke_o	o	n/a
393.604	0.105	787208	keystroke_i	i	n/a
393.874	0.0745	787748	keystroke_s	s	n/a
394.5935	0.1195	789187	keystroke_Key.backspace	Key.backspace	n/a
394.654	0.089	789308	keystroke_c	c	n/a
394.893	0.075	789786	keystroke_e	e	n/a
395.4635	0.06	790927	keystroke_s	s	n/a
395.7635	0.09	791527	keystroke_Key.enter	Key.enter	n/a
395.8635	7.672	791727	prompt	n/a	china hole airport enhancement\n
396.7085	0.0755	793417	keystroke_c	c	n/a
396.8285	0.105	793657	keystroke_h	h	n/a
396.8885	0.15	793777	keystroke_i	i	n/a
397.114	0.1645	794228	keystroke_n	n	n/a
397.324	0.0895	794648	keystroke_e	e	n/a
397.489	0.1345	794978	keystroke_Key.space	Key.space	n/a
397.7735	0.15	795547	keystroke_h	h	n/a
397.8785	0.1205	795757	keystroke_o	o	n/a
398.1185	0.135	796237	keystroke_l	l	n/a
398.2685	0.06	796537	keystroke_e	e	n/a
398.3585	0.09	796717	keystroke_Key.space	Key.space	n/a
398.6285	0.09	797257	keystroke_a	a	n/a
398.7635	0.135	797527	keystroke_i	i	n/a
398.9735	0.075	797947	keystroke_r	r	n/a
399.154	0.15	798308	keystroke_p	p	n/a
399.2285	0.195	798457	keystroke_o	o	n/a
399.694	0.06	799388	keystroke_r	r	n/a
399.888	0.091	799776	keystroke_t	t	n/a
400.4135	0.09	800827	keystroke_Key.space	Key.space	n/a
401.134	0.06	802268	keystroke_e	e	n/a
401.224	0.0895	802448	keystroke_n	n	n/a
401.464	0.104	802928	keystroke_h	h	n/a
401.584	0.12	803168	keystroke_a	a	n/a
401.899	0.09	803798	keystroke_n	n	n/a
402.138	0.061	804276	keystroke_c	c	n/a
402.3635	0.0755	804727	keystroke_e	e	n/a
402.558	0.1205	805116	keystroke_m	m	n/a
402.6635	0.075	805327	keystroke_e	e	n/a
402.829	0.1195	805658	keystroke_n	n	n/a
403.0535	0.0905	806107	keystroke_t	t	n/a
403.4885	0.0445	806977	keystroke_Key.enter	Key.enter	n/a
403.54	8.455	807080	prompt	n/a	connector that'll mods premiere\n
404.449	0.104	808898	keystroke_c	c	n/a
404.658	0.1055	809316	keystroke_o	o	n/a
404.8685	0.075	809737	keystroke_n	n	n/a
405.0185	0.105	810037	keystroke_n	n	n/a
405.2585	0.06	810517	keystroke_e	e	n/a
405.5735	0.0755	811147	keystroke_c	c	n/a
406.1435	0.075	812287	keystroke_t	t	n/a
406.4735	0.1205	812947	keystroke_o	o	n/a
406.6085	0.09	813217	keystroke_r	r	n/a
406.8185	0.105	813637	keystroke_Key.space	Key.space	n/a
407.1785	0.09	814357	keystroke_t	t	n/a
407.284	0.3445	814568	keystroke_h	h	n/a
407.4185	0.105	814837	keystroke_a	a	n/a
407.7485	0.105	815497	keystroke_t	t	n/a
408.1235	0.06	816247	keystroke_'	'	n/a
408.5585	0.045	817117	keystroke_l	l	n/a
408.6485	0.12	817297	keystroke_l	l	n/a
408.9185	0.105	817837	keystroke_Key.space	Key.space	n/a
409.099	0.135	818198	keystroke_m	m	n/a
409.249	0.12	818498	keystroke_o	o	n/a
409.983	0.0755	819966	keystroke_d	d	n/a
410.2085	0.0905	820417	keystroke_s	s	n/a
410.3435	0.1195	820687	keystroke_Key.space	Key.space	n/a
410.584	0.105	821168	keystroke_p	p	n/a
410.794	0.134	821588	keystroke_r	r	n/a
410.869	0.15	821738	keystroke_e	e	n/a
411.019	0.075	822038	keystroke_m	m	n/a
411.228	0.136	822456	keystroke_i	i	n/a
411.349	0.0895	822698	keystroke_e	e	n/a
411.5285	0.135	823057	keystroke_r	r	n/a
411.6785	0.1205	823357	keystroke_e	e	n/a
411.889	0.104	823778	keystroke_Key.enter	Key.enter	n/a
411.9995	11.3505	823999	prompt	n/a	extremely argue interracial powerful\n
412.669	0.075	825338	keystroke_e	e	n/a
412.9235	0.0755	825847	keystroke_x	x	n/a
414.1985	0.045	828397	keystroke_t	t	n/a
414.3635	0.165	828727	keystroke_r	r	n/a
414.483	0.1205	828966	keystroke_e	e	n/a
414.6335	0.165	829267	keystroke_m	m	n/a
414.7985	0.09	829597	keystroke_e	e	n/a
415.0535	0.12	830107	keystroke_l	l	n/a
415.3385	0.0905	830677	keystroke_y	y	n/a
415.4435	0.12	830887	keystroke_Key.space	Key.space	n/a
415.759	0.09	831518	keystroke_a	a	n/a
416.013	0.0905	832026	keystroke_r	r	n/a
416.6135	0.1055	833227	keystroke_g	g	n/a
416.733	0.135	833466	keystroke_u	u	n/a
417.0635	0.075	834127	keystroke_e	e	n/a
417.2435	0.134	834487	keystroke_Key.space	Key.space	n/a
417.649	0.09	835298	keystroke_i	i	n/a
417.814	0.1195	835628	keystroke_n	n	n/a
418.0385	0.09	836077	keystroke_t	t	n/a
418.249	0.0895	836498	keystroke_e	e	n/a
418.5335	0.0905	837067	keystroke_r	r	n/a
419.044	0.074	838088	keystroke_r	r	n/a
419.269	0.09	838538	keystroke_a	a	n/a
419.703	0.0605	839406	keystroke_c	c	n/a
419.824	0.1345	839648	keystroke_i	i	n/a
420.0035	0.105	840007	keystroke_a	a	n/a
420.214	0.1345	840428	keystroke_l	l	n/a
420.3935	0.1055	840787	keystroke_Key.space	Key.space	n/a
420.574	0.1495	841148	keystroke_p	p	n/a
420.6635	0.165	841327	keystroke_o	o	n/a
421.0385	0.0905	842077	keystroke_w	w	n/a
421.954	0.075	843908	keystroke_e	e	n/a
422.164	0.074	844328	keystroke_r	r	n/a
422.4485	0.075	844897	keystroke_f	f	n/a
422.629	0.105	845258	keystroke_u	u	n/a
422.899	0.12	845798	keystroke_l	l	n/a
423.273	0.075	846546	keystroke_Key.enter	Key.enter	n/a
423.354	16.7815	846708	prompt	n/a	recorded samba volunteer azerbaijan\n
424.3835	0.1655	848767	keystroke_r	r	n/a
424.5035	0.1055	849007	keystroke_e	e	n/a
424.804	0.0895	849608	keystroke_c	c	n/a
424.9835	0.1045	849967	keystroke_o	o	n/a
426.0335	0.09	852067	keystroke_r	r	n/a
426.4685	0.075	852937	keystroke_d	d	n/a
426.6485	0.09	853297	keystroke_e	e	n/a
426.889	0.09	853778	keystroke_d	d	n/a
428.928	0.0905	857856	keystroke_Key.space	Key.space	n/a
429.318	0.075	858636	keystroke_s	s	n/a
429.363	0.1955	858726	keystroke_a	a	n/a
429.5285	0.15	859057	keystroke_m	m	n/a
429.6935	0.09	859387	keystroke_b	b	n/a
429.934	0.075	859868	keystroke_e	e	n/a
430.159	0.0895	860318	keystroke_Key.space	Key.space	n/a
430.6375	0.0615	861275	keystroke_v	v	n/a
431.029	0.149	862058	keystroke_o	o	n/a
431.628	0.106	863256	keystroke_l	l	n/a
431.868	0.075	863736	keystroke_u	u	n/a
432.0785	0.1195	864157	keystroke_n	n	n/a
432.274	0.03	864548	keystroke_e	e	n/a
432.6775	0.106	865355	keystroke_Key.backspace	Key.backspace	n/a
432.8135	0.09	865627	keystroke_t	t	n/a
433.054	0.0595	866108	keystroke_e	e	n/a
433.2775	0.091	866555	keystroke_r	r	n/a
433.9835	0.105	867967	keystroke_Key.backspace	Key.backspace	n/a
434.434	0.0595	868868	keystroke_e	e	n/a
434.7035	0.09	869407	keystroke_r	r	n/a
434.9135	0.0905	869827	keystroke_Key.space	Key.space	n/a
435.334	0.06	870668	keystroke_a	a	n/a
435.798	0.1055	871596	keystroke_z	z	n/a
436.204	0.0745	872408	keystroke_e	e	n/a
436.548	0.09	873096	keystroke_r	r	n/a
437.3885	0.1045	874777	keystroke_b	b	n/a
437.6735	0.1055	875347	keystroke_a	a	n/a
438.138	0.106	876276	keystroke_i	i	n/a
438.978	0.12	877956	keystroke_j	j	n/a
439.353	0.09	878706	keystroke_a	a	n/a
439.458	0.135	878916	keystroke_n	n	n/a
440.0285	0.1045	880057	keystroke_Key.enter	Key.enter	n/a
440.1405	17.2	880281	prompt	n/a	bridge person copy focus\n
448.8495	0	897699	keystroke_b	b	n/a
449.3135	0.09	898627	keystroke_r	r	n/a
449.4795	0.104	898959	keystroke_i	i	n/a
449.6285	0.09	899257	keystroke_d	d	n/a
451.398	0.076	902796	keystroke_g	g	n/a
451.564	0.0745	903128	keystroke_e	e	n/a
451.744	0.104	903488	keystroke_Key.space	Key.space	n/a
452.359	0.15	904718	keystroke_p	p	n/a
452.583	0.076	905166	keystroke_e	e	n/a
452.764	0.09	905528	keystroke_r	r	n/a
453.034	0.075	906068	keystroke_s	s	n/a
453.1245	0.1485	906249	keystroke_o	o	n/a
453.334	0.15	906668	keystroke_n	n	n/a
453.468	0.1205	906936	keystroke_Key.space	Key.space	n/a
453.784	0.1045	907568	keystroke_c	c	n/a
453.949	0.179	907898	keystroke_o	o	n/a
454.084	0.134	908168	keystroke_p	p	n/a
454.324	0.09	908648	keystroke_y	y	n/a
454.533	0.09	909066	keystroke_Key.space	Key.space	n/a
454.8635	0.075	909727	keystroke_f	f	n/a
454.9535	0.135	909907	keystroke_o	o	n/a
455.119	0.0895	910238	keystroke_c	c	n/a
455.284	0.105	910568	keystroke_u	u	n/a
455.299	0.074	910598	keystroke_y	y	n/a
455.524	0.06	911048	keystroke_s	s	n/a
455.898	0.075	911796	keystroke_Key.backspace	Key.backspace	n/a
456.063	0.1355	912126	keystroke_Key.backspace	Key.backspace	n/a
456.8135	0.0605	913627	keystroke_s	s	n/a
457.249	0.0895	914498	keystroke_Key.enter	Key.enter	n/a
457.345	11.3055	914690	prompt	n/a	arctic livestock salvador elder\n
458.0585	0.0905	916117	keystroke_a	a	n/a
458.3295	0.044	916659	keystroke_r	r	n/a
459.0185	0.0605	918037	keystroke_c	c	n/a
459.3035	0.0905	918607	keystroke_t	t	n/a
459.454	0.12	918908	keystroke_i	i	n/a
459.679	0.075	919358	keystroke_c	c	n/a
459.903	0.075	919806	keystroke_Key.space	Key.space	n/a
460.099	0.105	920198	keystroke_l	l	n/a
460.249	0.12	920498	keystroke_i	i	n/a
460.354	0.09	920708	keystroke_v	v	n/a
460.579	0.09	921158	keystroke_e	e	n/a
460.819	0.0905	921638	keystroke_s	s	n/a
461.299	0.075	922598	keystroke_t	t	n/a
461.419	0.15	922838	keystroke_o	o	n/a
461.6135	0.075	923227	keystroke_c	c	n/a
461.8085	0.18	923617	keystroke_k	k	n/a
461.9735	0.09	923947	keystroke_Key.space	Key.space	n/a
462.1685	0.105	924337	keystroke_s	s	n/a
462.364	0.1495	924728	keystroke_a	a	n/a
462.4995	0.119	924999	keystroke_l	l	n/a
462.7085	0.09	925417	keystroke_b	b	n/a
463.234	0.1045	926468	keystroke_Key.backspace	Key.backspace	n/a
463.6095	0.1335	927219	keystroke_v	v	n/a
463.698	0.121	927396	keystroke_a	a	n/a
463.939	0.09	927878	keystroke_d	d	n/a
464.073	0.136	928146	keystroke_o	o	n/a
464.299	0.09	928598	keystroke_r	r	n/a
464.478	0.0905	928956	keystroke_Key.space	Key.space	n/a
464.884	0.135	929768	keystroke_l	l	n/a
465.079	0.075	930158	keystroke_e	e	n/a
465.9935	0.0595	931987	keystroke_Key.backspace	Key.backspace	n/a
466.144	0.09	932288	keystroke_Key.backspace	Key.backspace	n/a
466.459	0.06	932918	keystroke_e	e	n/a
466.564	0.27	933128	keystroke_l	l	n/a
467.898	0.06	935796	keystroke_d	d	n/a
468.094	0.075	936188	keystroke_e	e	n/a
468.348	0.075	936696	keystroke_r	r	n/a
468.5585	0.09	937117	keystroke_Key.enter	Key.enter	n/a
468.6545	9.971	937309	prompt	n/a	he's statutory franchise reset\n
469.384	0.135	938768	keystroke_h	h	n/a
469.533	0.076	939066	keystroke_e	e	n/a
469.743	0.121	939486	keystroke_'	'	n/a
469.954	0.074	939908	keystroke_s	s	n/a
470.1785	0.0905	940357	keystroke_Key.space	Key.space	n/a
470.493	0.075	940986	keystroke_a	a	n/a
471.3935	0.1345	942787	keystroke_Key.backspace	Key.backspace	n/a
471.499	0.06	942998	keystroke_s	s	n/a
471.5135	0.0595	943027	keystroke_d	d	n/a
472.0535	0.12	944107	keystroke_Key.backspace	Key.backspace	n/a
472.6535	0.09	945307	keystroke_t	t	n/a
472.8335	0.105	945667	keystroke_a	a	n/a
473.104	0.089	946208	keystroke_t	t	n/a
473.224	0.104	946448	keystroke_u	u	n/a
473.614	0.075	947228	keystroke_t	t	n/a
473.719	0.105	947438	keystroke_o	o	n/a
473.914	0.09	947828	keystroke_r	r	n/a
474.124	0.09	948248	keystroke_y	y	n/a
474.349	0.09	948698	keystroke_Key.space	Key.space	n/a
474.709	0.0895	949418	keystroke_f	f	n/a
475.4585	0.15	950917	keystroke_r	r	n/a
475.594	0.135	951188	keystroke_a	a	n/a
475.758	0.106	951516	keystroke_n	n	n/a
475.939	0.075	951878	keystroke_c	c	n/a
476.119	0.105	952238	keystroke_h	h	n/a
476.164	0.165	952328	keystroke_i	i	n/a
477.049	0.105	954098	keystroke_s	s	n/a
477.2885	0.0755	954577	keystroke_e	e	n/a
477.408	0.091	954816	keystroke_Key.space	Key.space	n/a
477.559	0.1345	955118	keystroke_r	r	n/a
477.664	0.135	955328	keystroke_e	e	n/a
477.904	0.09	955808	keystroke_s	s	n/a
478.129	0.075	956258	keystroke_e	e	n/a
478.354	0.075	956708	keystroke_t	t	n/a
478.533	0.0905	957066	keystroke_Key.enter	Key.enter	n/a
478.63	14.0355	957260	prompt	n/a	correction offering representatives complex\n
479.554	0.0745	959108	keystroke_c	c	n/a
479.704	0.1195	959408	keystroke_o	o	n/a
479.9735	0.075	959947	keystroke_r	r	n/a
480.124	0.0895	960248	keystroke_r	r	n/a
480.3335	0.0755	960667	keystroke_e	e	n/a
480.5735	0.075	961147	keystroke_c	c	n/a
481.2935	0.0905	962587	keystroke_t	t	n/a
481.519	0.195	963038	keystroke_i	i	n/a
481.624	0.165	963248	keystroke_o	o	n/a
481.894	0.12	963788	keystroke_n	n	n/a
482.149	0.09	964298	keystroke_Key.space	Key.space	n/a
482.374	0.075	964748	keystroke_e	e	n/a
482.599	0.06	965198	keystroke_f	f	n/a
482.734	0.105	965468	keystroke_f	f	n/a
483.1985	0.09	966397	keystroke_Key.backspace	Key.backspace	n/a
483.394	0.0745	966788	keystroke_Key.backspace	Key.backspace	n/a
483.5885	0.105	967177	keystroke_Key.backspace	Key.backspace	n/a
483.9335	0.0905	967867	keystroke_o	o	n/a
484.339	0.045	968678	keystroke_f	f	n/a
484.429	0.09	968858	keystroke_f	f	n/a
484.6245	0.0895	969249	keystroke_e	e	n/a
484.849	0.09	969698	keystroke_r	r	n/a
485.9285	0.105	971857	keystroke_i	i	n/a
486.1685	0.12	972337	keystroke_n	n	n/a
486.349	0.0755	972698	keystroke_g	g	n/a
487.0835	0.09	974167	keystroke_Key.space	Key.space	n/a
487.4595	0.1495	974919	keystroke_r	r	n/a
487.5785	0.1205	975157	keystroke_e	e	n/a
487.8185	0.12	975637	keystroke_p	p	n/a
488.0135	0.165	976027	keystroke_r	r	n/a
488.1485	0.12	976297	keystroke_e	e	n/a
488.644	0.09	977288	keystroke_s	s	n/a
488.9135	0.06	977827	keystroke_e	e	n/a
489.1235	0.0905	978247	keystroke_n	n	n/a
489.3485	0.105	978697	keystroke_t	t	n/a
489.5285	0.12	979057	keystroke_a	a	n/a
489.844	0.0905	979688	keystroke_t	t	n/a
489.9935	0.135	979987	keystroke_i	i	n/a
490.3385	0.09	980677	keystroke_v	v	n/a
490.5635	0.075	981127	keystroke_e	e	n/a
490.8035	0.0745	981607	keystroke_s	s	n/a
490.953	0.106	981906	keystroke_Key.space	Key.space	n/a
491.163	0.09	982326	keystroke_c	c	n/a
491.238	0.12	982476	keystroke_o	o	n/a
491.418	0.12	982836	keystroke_m	m	n/a
491.598	0.09	983196	keystroke_p	p	n/a
491.8685	0.1195	983737	keystroke_l	l	n/a
492.1385	0.0905	984277	keystroke_e	e	n/a
492.379	0.074	984758	keystroke_s	s	n/a
492.589	0.074	985178	keystroke_Key.enter	Key.enter	n/a
492.67	12.5205	985340	prompt	n/a	rocket outline grill children\n
493.384	0.15	986768	keystroke_r	r	n/a
493.474	0.12	986948	keystroke_e	e	n/a
494.2985	0.0755	988597	keystroke_Key.backspace	Key.backspace	n/a
494.5545	0.0885	989109	keystroke_o	o	n/a
494.9445	0.09	989889	keystroke_c	c	n/a
495.049	0.119	990098	keystroke_k	k	n/a
495.243	0.0615	990486	keystroke_e	e	n/a
495.468	0.076	990936	keystroke_t	t	n/a
495.919	0.09	991838	keystroke_Key.space	Key.space	n/a
496.159	0.119	992318	keystroke_o	o	n/a
496.339	0.105	992678	keystroke_u	u	n/a
496.624	0.09	993248	keystroke_t	t	n/a
496.699	0.09	993398	keystroke_l	l	n/a
496.849	0.075	993698	keystroke_k	k	n/a
496.864	0.075	993728	keystroke_i	i	n/a
497.0285	0.1205	994057	keystroke_n	n	n/a
497.2085	0.0755	994417	keystroke_e	e	n/a
497.4335	0.09	994867	keystroke_Key.space	Key.space	n/a
497.9285	0.075	995857	keystroke_Key.backspace	Key.backspace	n/a
498.0935	0.0905	996187	keystroke_Key.backspace	Key.backspace	n/a
498.2885	0.075	996577	keystroke_Key.backspace	Key.backspace	n/a
498.499	0.0595	996998	keystroke_Key.backspace	Key.backspace	n/a
498.6935	0.075	997387	keystroke_Key.backspace	Key.backspace	n/a
500.554	0.1045	1001108	keystroke_i	i	n/a
500.734	0.1345	1001468	keystroke_n	n	n/a
500.899	0.0745	1001798	keystroke_e	e	n/a
501.0935	0.105	1002187	keystroke_Key.space	Key.space	n/a
501.5735	0.075	1003147	keystroke_g	g	n/a
501.814	0.0745	1003628	keystroke_r	r	n/a
501.904	0.1195	1003808	keystroke_i	i	n/a
502.144	0.1045	1004288	keystroke_l	l	n/a
502.3685	0.09	1004737	keystroke_l	l	n/a
502.7135	0.075	1005427	keystroke_Key.space	Key.space	n/a
503.389	0.075	1006778	keystroke_c	c	n/a
503.524	0.1345	1007048	keystroke_h	h	n/a
503.5835	0.1355	1007167	keystroke_i	i	n/a
503.809	0.12	1007618	keystroke_l	l	n/a
504.079	0.075	1008158	keystroke_d	d	n/a
504.3935	0.105	1008787	keystroke_r	r	n/a
504.619	0.09	1009238	keystroke_e	e	n/a
504.829	0.1045	1009658	keystroke_n	n	n/a
505.1135	0.075	1010227	keystroke_Key.enter	Key.enter	n/a
505.1945	9.791	1010389	prompt	n/a	tone drawing begun momentum\n
505.909	0.075	1011818	keystroke_t	t	n/a
506.164	0.09	1012328	keystroke_o	o	n/a
506.329	0.105	1012658	keystroke_n	n	n/a
506.479	0.075	1012958	keystroke_e	e	n/a
506.584	0.09	1013168	keystroke_Key.space	Key.space	n/a
506.764	0.075	1013528	keystroke_d	d	n/a
507.004	0.09	1014008	keystroke_r	r	n/a
507.214	0.09	1014428	keystroke_e	e	n/a
508.174	0.105	1016348	keystroke_Key.backspace	Key.backspace	n/a
508.384	0.1045	1016768	keystroke_a	a	n/a
508.6845	0.0745	1017369	keystroke_w	w	n/a
508.803	0.121	1017606	keystroke_i	i	n/a
509.014	0.1355	1018028	keystroke_n	n	n/a
509.224	0.0905	1018448	keystroke_g	g	n/a
509.493	0.075	1018986	keystroke_Key.space	Key.space	n/a
510.483	0.09	1020966	keystroke_b	b	n/a
510.679	0.09	1021358	keystroke_e	e	n/a
510.979	0.074	1021958	keystroke_g	g	n/a
511.084	0.135	1022168	keystroke_u	u	n/a
511.3535	0.105	1022707	keystroke_n	n	n/a
511.5485	0.09	1023097	keystroke_Key.space	Key.space	n/a
511.7585	0.12	1023517	keystroke_m	m	n/a
511.9385	0.12	1023877	keystroke_o	o	n/a
512.464	0.1045	1024928	keystroke_m	m	n/a
512.614	0.0595	1025228	keystroke_e	e	n/a
512.7935	0.0755	1025587	keystroke_n	n	n/a
513.0185	0.0605	1026037	keystroke_j	j	n/a
513.2135	0.075	1026427	keystroke_t	t	n/a
513.5435	0.1055	1027087	keystroke_Key.backspace	Key.backspace	n/a
513.753	0.121	1027506	keystroke_Key.backspace	Key.backspace	n/a
514.2645	0.1045	1028529	keystroke_t	t	n/a
514.384	0.0895	1028768	keystroke_u	u	n/a
514.639	0.1045	1029278	keystroke_m	m	n/a
514.8935	0.09	1029787	keystroke_Key.enter	Key.enter	n/a
514.989	10.8265	1029978	prompt	n/a	performing economic tiger aluminium\n
515.839	0.135	1031678	keystroke_p	p	n/a
516.004	0.09	1032008	keystroke_r	r	n/a
516.754	0.105	1033508	keystroke_Key.backspace	Key.backspace	n/a
516.994	0.06	1033988	keystroke_e	e	n/a
517.2495	0.0745	1034499	keystroke_r	r	n/a
517.954	0.075	1035908	keystroke_f	f	n/a
518.059	0.12	1036118	keystroke_o	o	n/a
518.3285	0.09	1036657	keystroke_r	r	n/a
518.4035	0.1055	1036807	keystroke_m	m	n/a
518.5835	0.106	1037167	keystroke_i	i	n/a
518.7485	0.1205	1037497	keystroke_n	n	n/a
518.974	0.1045	1037948	keystroke_g	g	n/a
519.1385	0.09	1038277	keystroke_Key.space	Key.space	n/a
519.4395	0.0745	1038879	keystroke_e	e	n/a
519.694	0.075	1039388	keystroke_c	c	n/a
519.934	0.104	1039868	keystroke_o	o	n/a
520.113	0.136	1040226	keystroke_n	n	n/a
520.219	0.135	1040438	keystroke_o	o	n/a
520.593	0.105	1041186	keystroke_i	i	n/a
520.819	0.075	1041638	keystroke_c	c	n/a
521.0135	0.09	1042027	keystroke_Key.space	Key.space	n/a
521.3285	0.09	1042657	keystroke_t	t	n/a
521.404	0.1195	1042808	keystroke_i	i	n/a
522.139	0.06	1044278	keystroke_g	g	n/a
522.288	0.106	1044576	keystroke_e	e	n/a
522.558	0.106	1045116	keystroke_r	r	n/a
522.783	0.106	1045566	keystroke_Key.space	Key.space	n/a
523.203	0.0905	1046406	keystroke_a	a	n/a
523.2785	0.1195	1046557	keystroke_l	l	n/a
523.5335	0.0755	1047067	keystroke_u	u	n/a
523.758	0.0905	1047516	keystroke_m	m	n/a
523.969	0.0905	1047938	keystroke_i	i	n/a
524.1335	0.1205	1048267	keystroke_n	n	n/a
524.268	0.121	1048536	keystroke_i	i	n/a
524.8535	0.1055	1049707	keystroke_u	u	n/a
525.409	0.105	1050818	keystroke_m	m	n/a
525.709	0.105	1051418	keystroke_Key.enter	Key.enter	n/a
525.82	7.4955	1051640	prompt	n/a	asin nikon remains wound\n
526.684	0.09	1053368	keystroke_a	a	n/a
527.374	0.075	1054748	keystroke_s	s	n/a
527.479	0.12	1054958	keystroke_i	i	n/a
527.719	0.12	1055438	keystroke_n	n	n/a
527.959	0.105	1055918	keystroke_Key.space	Key.space	n/a
528.184	0.105	1056368	keystroke_n	n	n/a
528.319	0.12	1056638	keystroke_i	i	n/a
528.5735	0.165	1057147	keystroke_k	k	n/a
528.6945	0.149	1057389	keystroke_o	o	n/a
528.9485	0.1205	1057897	keystroke_n	n	n/a
529.173	0.076	1058346	keystroke_Key.space	Key.space	n/a
530.029	0.1795	1060058	keystroke_r	r	n/a
530.164	0.105	1060328	keystroke_e	e	n/a
530.3135	0.1505	1060627	keystroke_m	m	n/a
530.509	0.12	1061018	keystroke_a	a	n/a
530.689	0.12	1061378	keystroke_i	i	n/a
530.899	0.105	1061798	keystroke_n	n	n/a
531.244	0.075	1062488	keystroke_s	s	n/a
531.469	0.075	1062938	keystroke_Key.space	Key.space	n/a
532.189	0.0895	1064378	keystroke_w	w	n/a
532.324	0.18	1064648	keystroke_o	o	n/a
532.444	0.135	1064888	keystroke_u	u	n/a
532.714	0.18	1065428	keystroke_n	n	n/a
532.9685	0.0605	1065937	keystroke_d	d	n/a
533.224	0.0895	1066448	keystroke_Key.enter	Key.enter	n/a
533.3225	12.563	1066645	prompt	n/a	pointer contributing flyer completion\n
534.1535	0.12	1068307	keystroke_p	p	n/a
534.3785	0.106	1068757	keystroke_o	o	n/a
534.589	0.09	1069178	keystroke_i	i	n/a
534.784	0.104	1069568	keystroke_n	n	n/a
535.039	0.09	1070078	keystroke_t	t	n/a
535.249	0.09	1070498	keystroke_e	e	n/a
535.519	0.09	1071038	keystroke_r	r	n/a
535.669	0.12	1071338	keystroke_Key.space	Key.space	n/a
535.9085	0.06	1071817	keystroke_c	c	n/a
536.029	0.135	1072058	keystroke_o	o	n/a
536.269	0.1045	1072538	keystroke_n	n	n/a
536.5235	0.0755	1073047	keystroke_t	t	n/a
536.734	0.0895	1073468	keystroke_r	r	n/a
536.914	0.1345	1073828	keystroke_i	i	n/a
537.1685	0.0755	1074337	keystroke_b	b	n/a
537.2735	0.105	1074547	keystroke_u	u	n/a
537.7685	0.075	1075537	keystroke_t	t	n/a
537.9185	0.135	1075837	keystroke_i	i	n/a
538.549	0.1045	1077098	keystroke_n	n	n/a
538.9685	0.075	1077937	keystroke_g	g	n/a
539.1785	0.105	1078357	keystroke_Key.space	Key.space	n/a
539.869	0.105	1079738	keystroke_f	f	n/a
539.958	0.106	1079916	keystroke_l	l	n/a
540.244	0.105	1080488	keystroke_y	y	n/a
540.409	0.09	1080818	keystroke_e	e	n/a
540.664	0.09	1081328	keystroke_r	r	n/a
541.233	0.1205	1082466	keystroke_Key.space	Key.space	n/a
541.459	0.09	1082918	keystroke_c	c	n/a
541.5335	0.15	1083067	keystroke_o	o	n/a
541.7285	0.1055	1083457	keystroke_m	m	n/a
541.909	0.1045	1083818	keystroke_p	p	n/a
542.569	0.1345	1085138	keystroke_l	l	n/a
542.7185	0.06	1085437	keystroke_e	e	n/a
542.9885	0.0905	1085977	keystroke_t	t	n/a
543.3185	0.1055	1086637	keystroke_i	i	n/a
543.694	0.09	1087388	keystroke_t	t	n/a
544.939	0.165	1089878	keystroke_i	i	n/a
545.059	0.15	1090118	keystroke_o	o	n/a
545.299	0.105	1090598	keystroke_n	n	n/a
545.793	0.0905	1091586	keystroke_Key.enter	Key.enter	n/a
545.896	10.8965	1091792	prompt	n/a	taxation earth knowledge drugs\n
546.7835	0.09	1093567	keystroke_t	t	n/a
546.9785	0.1055	1093957	keystroke_a	a	n/a
547.4735	0.09	1094947	keystroke_x	x	n/a
547.6835	0.09	1095367	keystroke_z	z	n/a
548.5835	0.09	1097167	keystroke_Key.backspace	Key.backspace	n/a
548.704	0.09	1097408	keystroke_a	a	n/a
549.109	0.0895	1098218	keystroke_t	t	n/a
549.3185	0.18	1098637	keystroke_i	i	n/a
549.4385	0.15	1098877	keystroke_o	o	n/a
549.6785	0.1205	1099357	keystroke_n	n	n/a
550.0085	0.0905	1100017	keystroke_Key.space	Key.space	n/a
550.324	0.074	1100648	keystroke_e	e	n/a
550.5185	0.12	1101037	keystroke_a	a	n/a
550.804	0.074	1101608	keystroke_r	r	n/a
551.509	0.105	1103018	keystroke_t	t	n/a
551.644	0.12	1103288	keystroke_h	h	n/a
551.868	0.091	1103736	keystroke_Key.space	Key.space	n/a
552.349	0.1045	1104698	keystroke_k	k	n/a
552.529	0.1195	1105058	keystroke_n	n	n/a
552.6035	0.165	1105207	keystroke_o	o	n/a
552.7835	0.0755	1105567	keystroke_w	w	n/a
553.2035	0.105	1106407	keystroke_l	l	n/a
553.474	0.0745	1106948	keystroke_e	e	n/a
554.1635	0.0905	1108327	keystroke_d	d	n/a
554.3585	0.075	1108717	keystroke_g	g	n/a
554.6885	0.0605	1109377	keystroke_e	e	n/a
554.988	0.09	1109976	keystroke_Key.space	Key.space	n/a
555.634	0.075	1111268	keystroke_d	d	n/a
555.874	0.09	1111748	keystroke_r	r	n/a
556.024	0.165	1112048	keystroke_u	u	n/a
556.219	0.1055	1112438	keystroke_g	g	n/a
556.459	0.0895	1112918	keystroke_s	s	n/a
556.699	0.0895	1113398	keystroke_Key.enter	Key.enter	n/a
556.797	6.0685	1113594	prompt	n/a	drainage flux town peas\n
557.5685	0.0745	1115137	keystroke_d	d	n/a
557.809	0.1645	1115618	keystroke_r	r	n/a
557.944	0.1645	1115888	keystroke_a	a	n/a
558.094	0.105	1116188	keystroke_i	i	n/a
558.274	0.195	1116548	keystroke_n	n	n/a
558.454	0.1045	1116908	keystroke_a	a	n/a
558.679	0.09	1117358	keystroke_g	g	n/a
558.904	0.075	1117808	keystroke_e	e	n/a
559.114	0.105	1118228	keystroke_Key.space	Key.space	n/a
559.384	0.075	1118768	keystroke_f	f	n/a
559.429	0.105	1118858	keystroke_l	l	n/a
559.639	0.12	1119278	keystroke_u	u	n/a
560.104	0.075	1120208	keystroke_x	x	n/a
560.314	0.105	1120628	keystroke_Key.space	Key.space	n/a
560.599	0.0895	1121198	keystroke_t	t	n/a
560.6885	0.135	1121377	keystroke_o	o	n/a
560.8685	0.0755	1121737	keystroke_w	w	n/a
561.0485	0.1355	1122097	keystroke_n	n	n/a
561.2885	0.09	1122577	keystroke_Key.space	Key.space	n/a
561.5285	0.105	1123057	keystroke_p	p	n/a
562.069	0.075	1124138	keystroke_e	e	n/a
562.279	0.105	1124558	keystroke_a	a	n/a
562.549	0.075	1125098	keystroke_s	s	n/a
562.774	0.09	1125548	keystroke_Key.enter	Key.enter	n/a
562.87	8.665	1125740	prompt	n/a	increasingly bidding can't paxil\n
563.793	0.015	1127586	keystroke_i	i	n/a
563.8235	0.12	1127647	keystroke_n	n	n/a
563.913	0.0755	1127826	keystroke_c	c	n/a
564.1835	0.105	1128367	keystroke_r	r	n/a
564.844	0.0595	1129688	keystroke_e	e	n/a
565.038	0.106	1130076	keystroke_a	a	n/a
565.3085	0.0905	1130617	keystroke_s	s	n/a
565.4135	0.12	1130827	keystroke_i	i	n/a
565.8185	0.105	1131637	keystroke_n	n	n/a
566.0735	0.09	1132147	keystroke_g	g	n/a
566.1785	0.09	1132357	keystroke_l	l	n/a
566.464	0.1045	1132928	keystroke_y	y	n/a
566.6735	0.09	1133347	keystroke_Key.space	Key.space	n/a
567.378	0.0905	1134756	keystroke_b	b	n/a
567.5285	0.12	1135057	keystroke_i	i	n/a
567.8735	0.0455	1135747	keystroke_d	d	n/a
568.0085	0.09	1136017	keystroke_d	d	n/a
568.234	0.1045	1136468	keystroke_i	i	n/a
568.4435	0.12	1136887	keystroke_n	n	n/a
568.609	0.1045	1137218	keystroke_g	g	n/a
568.7585	0.105	1137517	keystroke_Key.space	Key.space	n/a
568.9235	0.105	1137847	keystroke_c	c	n/a
569.1185	0.1055	1138237	keystroke_a	a	n/a
569.2535	0.1055	1138507	keystroke_n	n	n/a
569.4635	0.12	1138927	keystroke_'	'	n/a
569.7335	0.075	1139467	keystroke_t	t	n/a
569.929	0.09	1139858	keystroke_Key.space	Key.space	n/a
570.169	0.105	1140338	keystroke_p	p	n/a
570.304	0.105	1140608	keystroke_a	a	n/a
570.679	0.075	1141358	keystroke_x	x	n/a
570.9045	0.1045	1141809	keystroke_i	i	n/a
571.144	0.119	1142288	keystroke_l	l	n/a
571.4435	0.09	1142887	keystroke_Key.enter	Key.enter	n/a
571.54	8.7855	1143080	prompt	n/a	within metric antonio cooper\n
572.343	0.06	1144686	keystroke_w	w	n/a
572.8235	0.0905	1145647	keystroke_i	i	n/a
573.1235	0.12	1146247	keystroke_t	t	n/a
573.2585	0.21	1146517	keystroke_h	h	n/a
573.4235	0.135	1146847	keystroke_i	i	n/a
573.6635	0.135	1147327	keystroke_n	n	n/a
574.2035	0.09	1148407	keystroke_Key.space	Key.space	n/a
574.3985	0.135	1148797	keystroke_m	m	n/a
574.5485	0.0755	1149097	keystroke_e	e	n/a
574.7735	0.12	1149547	keystroke_t	t	n/a
575.494	0.1045	1150988	keystroke_r	r	n/a
575.6735	0.1205	1151347	keystroke_i	i	n/a
575.8985	0.075	1151797	keystroke_c	c	n/a
576.1385	0.09	1152277	keystroke_Key.space	Key.space	n/a
576.8285	0.075	1153657	keystroke_a	a	n/a
576.934	0.1045	1153868	keystroke_n	n	n/a
577.3535	0.09	1154707	keystroke_t	t	n/a
577.5335	0.12	1155067	keystroke_o	o	n/a
577.774	0.09	1155548	keystroke_n	n	n/a
577.953	0.12	1155906	keystroke_i	i	n/a
578.6435	0.135	1157287	keystroke_o	o	n/a
578.8235	0.105	1157647	keystroke_Key.space	Key.space	n/a
578.9885	0.075	1157977	keystroke_c	c	n/a
579.138	0.0905	1158276	keystroke_o	o	n/a
579.3785	0.105	1158757	keystroke_o	o	n/a
579.5885	0.12	1159177	keystroke_p	p	n/a
579.799	0.0745	1159598	keystroke_e	e	n/a
580.0385	0.09	1160077	keystroke_r	r	n/a
580.2335	0.09	1160467	keystroke_Key.enter	Key.enter	n/a
580.33	12.0255	1160660	prompt	n/a	mississippi saddam samba comprehensive\n
581.119	0.1045	1162238	keystroke_m	m	n/a
581.5985	0.12	1163197	keystroke_i	i	n/a
581.9735	0.06	1163947	keystroke_s	s	n/a
582.1535	0.09	1164307	keystroke_s	s	n/a
582.4535	0.105	1164907	keystroke_i	i	n/a
582.934	0.075	1165868	keystroke_s	s	n/a
583.1135	0.104	1166227	keystroke_s	s	n/a
583.3985	0.1045	1166797	keystroke_i	i	n/a
583.7435	0.0905	1167487	keystroke_p	p	n/a
583.923	0.1065	1167846	keystroke_p	p	n/a
584.2235	0.1045	1168447	keystroke_i	i	n/a
584.808	0.075	1169616	keystroke_Key.space	Key.space	n/a
585.1535	0.12	1170307	keystroke_s	s	n/a
585.3635	0.09	1170727	keystroke_a	a	n/a
585.6485	0.06	1171297	keystroke_d	d	n/a
585.7835	0.105	1171567	keystroke_d	d	n/a
586.0535	0.075	1172107	keystroke_a	a	n/a
586.3235	0.09	1172647	keystroke_m	m	n/a
586.4435	0.09	1172887	keystroke_Key.space	Key.space	n/a
586.714	0.1795	1173428	keystroke_s	s	n/a
586.8035	0.195	1173607	keystroke_a	a	n/a
587.0435	0.135	1174087	keystroke_m	m	n/a
587.344	0.105	1174688	keystroke_b	b	n/a
587.539	0.105	1175078	keystroke_a	a	n/a
587.689	0.119	1175378	keystroke_Key.space	Key.space	n/a
587.929	0.09	1175858	keystroke_c	c	n/a
588.019	0.135	1176038	keystroke_o	o	n/a
588.214	0.12	1176428	keystroke_m	m	n/a
588.724	0.105	1177448	keystroke_p	p	n/a
589.1435	0.12	1178287	keystroke_r	r	n/a
589.773	0.076	1179546	keystroke_e	e	n/a
590.2985	0.105	1180597	keystroke_h	h	n/a
590.3735	0.09	1180747	keystroke_e	e	n/a
590.569	0.1195	1181138	keystroke_n	n	n/a
590.929	0.0745	1181858	keystroke_s	s	n/a
591.0785	0.1355	1182157	keystroke_i	i	n/a
591.228	0.06	1182456	keystroke_c	c	n/a
591.6935	0.12	1183387	keystroke_Key.backspace	Key.backspace	n/a
591.799	0.075	1183598	keystroke_v	v	n/a
592.0235	0.075	1184047	keystroke_e	e	n/a
592.2635	0.09	1184527	keystroke_Key.enter	Key.enter	n/a
592.3605	10.9595	1184721	prompt	n/a	humanity counts lung tennessee\n
593.359	0.0745	1186718	keystroke_h	h	n/a
593.5385	0.0905	1187077	keystroke_u	u	n/a
593.5535	0.045	1187107	keystroke_y	y	n/a
593.7935	0.135	1187587	keystroke_m	m	n/a
593.9135	0.09	1187827	keystroke_a	a	n/a
594.2735	0.075	1188547	keystroke_Key.backspace	Key.backspace	n/a
594.4235	0.09	1188847	keystroke_Key.backspace	Key.backspace	n/a
594.5735	0.135	1189147	keystroke_Key.backspace	Key.backspace	n/a
595.714	0.119	1191428	keystroke_m	m	n/a
595.893	0.091	1191786	keystroke_a	a	n/a
596.253	0.105	1192506	keystroke_n	n	n/a
596.9285	0.1355	1193857	keystroke_i	i	n/a
597.124	0.089	1194248	keystroke_t	t	n/a
597.2585	0.105	1194517	keystroke_y	y	n/a
597.9935	0.1045	1195987	keystroke_Key.space	Key.space	n/a
598.188	0.091	1196376	keystroke_c	c	n/a
598.234	0.134	1196468	keystroke_o	o	n/a
598.338	0.1055	1196676	keystroke_u	u	n/a
598.594	0.105	1197188	keystroke_n	n	n/a
598.9385	0.0905	1197877	keystroke_t	t	n/a
599.449	0.0595	1198898	keystroke_s	s	n/a
599.568	0.105	1199136	keystroke_Key.space	Key.space	n/a
599.734	0.104	1199468	keystroke_l	l	n/a
599.943	0.0905	1199886	keystroke_u	u	n/a
600.1835	0.105	1200367	keystroke_n	n	n/a
600.3635	0.0905	1200727	keystroke_g	g	n/a
600.6335	0.09	1201267	keystroke_Key.space	Key.space	n/a
600.9935	0.09	1201987	keystroke_t	t	n/a
601.174	0.089	1202348	keystroke_e	e	n/a
601.413	0.0605	1202826	keystroke_n	n	n/a
601.548	0.105	1203096	keystroke_n	n	n/a
601.743	0.09	1203486	keystroke_e	e	n/a
602.253	0.06	1204506	keystroke_s	s	n/a
602.388	0.09	1204776	keystroke_s	s	n/a
602.6885	0.06	1205377	keystroke_e	e	n/a
602.8385	0.0905	1205677	keystroke_e	e	n/a
603.2285	0.09	1206457	keystroke_Key.enter	Key.enter	n/a
603.3245	9.4775	1206649	prompt	n/a	living simulation rugs voluntary\n
603.9935	0.09	1207987	keystroke_l	l	n/a
604.1285	0.12	1208257	keystroke_i	i	n/a
604.7585	0.075	1209517	keystroke_v	v	n/a
604.8485	0.105	1209697	keystroke_i	i	n/a
605.0435	0.1205	1210087	keystroke_n	n	n/a
605.2385	0.09	1210477	keystroke_g	g	n/a
605.463	0.105	1210926	keystroke_Key.space	Key.space	n/a
605.748	0.06	1211496	keystroke_s	s	n/a
605.853	0.121	1211706	keystroke_i	i	n/a
606.0785	0.0905	1212157	keystroke_m	m	n/a
606.3345	0.0895	1212669	keystroke_u	u	n/a
606.9335	0.135	1213867	keystroke_l	l	n/a
607.0535	0.09	1214107	keystroke_a	a	n/a
607.3835	0.091	1214767	keystroke_t	t	n/a
607.594	0.195	1215188	keystroke_i	i	n/a
607.7135	0.1655	1215427	keystroke_o	o	n/a
607.939	0.1345	1215878	keystroke_n	n	n/a
608.2385	0.105	1216477	keystroke_Key.space	Key.space	n/a
608.8385	0.09	1217677	keystroke_r	r	n/a
608.9435	0.135	1217887	keystroke_u	u	n/a
609.1985	0.075	1218397	keystroke_g	g	n/a
609.468	0.091	1218936	keystroke_s	s	n/a
609.7535	0.09	1219507	keystroke_Key.space	Key.space	n/a
610.338	0.0455	1220676	keystroke_v	v	n/a
610.458	0.1205	1220916	keystroke_o	o	n/a
610.668	0.121	1221336	keystroke_l	l	n/a
610.894	0.089	1221788	keystroke_u	u	n/a
611.1935	0.1205	1222387	keystroke_n	n	n/a
611.494	0.09	1222988	keystroke_t	t	n/a
611.673	0.106	1223346	keystroke_a	a	n/a
612.139	0.09	1224278	keystroke_r	r	n/a
612.274	0.1345	1224548	keystroke_y	y	n/a
612.7235	0.0745	1225447	keystroke_Key.enter	Key.enter	n/a
612.8065	9.4735	1225613	prompt	n/a	florida effectiveness europe second\n
613.7285	0.0755	1227457	keystroke_f	f	n/a
613.8335	0.105	1227667	keystroke_l	l	n/a
614.0885	0.09	1228177	keystroke_o	o	n/a
614.3435	0.09	1228687	keystroke_r	r	n/a
614.584	0.1345	1229168	keystroke_i	i	n/a
614.6585	0.09	1229317	keystroke_d	d	n/a
614.9135	0.09	1229827	keystroke_e	e	n/a
615.0635	0.1195	1230127	keystroke_Key.space	Key.space	n/a
615.3185	0.0755	1230637	keystroke_e	e	n/a
615.5435	0.075	1231087	keystroke_f	f	n/a
615.6785	0.105	1231357	keystroke_f	f	n/a
615.903	0.075	1231806	keystroke_e	e	n/a
616.459	0.06	1232918	keystroke_c	c	n/a
616.7735	0.09	1233547	keystroke_t	t	n/a
616.9085	0.135	1233817	keystroke_i	i	n/a
617.073	0.0905	1234146	keystroke_v	v	n/a
617.343	0.061	1234686	keystroke_e	e	n/a
617.5685	0.135	1235137	keystroke_n	n	n/a
617.7485	0.09	1235497	keystroke_e	e	n/a
618.0185	0.0745	1236037	keystroke_s	s	n/a
618.183	0.09	1236366	keystroke_s	s	n/a
618.393	0.1055	1236786	keystroke_Key.space	Key.space	n/a
618.7835	0.045	1237567	keystroke_e	e	n/a
619.2335	0.09	1238467	keystroke_u	u	n/a
619.5485	0.075	1239097	keystroke_r	r	n/a
619.6835	0.12	1239367	keystroke_o	o	n/a
619.8345	0.149	1239669	keystroke_p	p	n/a
620.104	0.075	1240208	keystroke_e	e	n/a
620.253	0.1505	1240506	keystroke_Key.space	Key.space	n/a
620.539	0.074	1241078	keystroke_s	s	n/a
620.7185	0.0745	1241437	keystroke_e	e	n/a
620.988	0.076	1241976	keystroke_c	c	n/a
621.109	0.12	1242218	keystroke_o	o	n/a
621.333	0.135	1242666	keystroke_n	n	n/a
622.129	0.014	1244258	keystroke_d	d	n/a
622.174	0.104	1244348	keystroke_Key.enter	Key.enter	n/a
622.283	16.7825	1244566	prompt	n/a	restrictions gave queens minimize\n
623.1935	0.09	1246387	keystroke_r	r	n/a
623.3435	0.0905	1246687	keystroke_e	e	n/a
623.5535	0.105	1247107	keystroke_s	s	n/a
623.8085	0.09	1247617	keystroke_t	t	n/a
624.0335	0.09	1248067	keystroke_r	r	n/a
624.229	0.104	1248458	keystroke_i	i	n/a
624.4685	0.06	1248937	keystroke_c	c	n/a
624.6035	0.12	1249207	keystroke_k	k	n/a
624.6185	0.0155	1249237	keystroke_i	i	n/a
625.579	0.089	1251158	keystroke_t	t	n/a
625.7735	0.165	1251547	keystroke_k	k	n/a
625.9535	0.1355	1251907	keystroke_o	o	n/a
626.1935	0.1055	1252387	keystroke_n	n	n/a
626.4035	0.075	1252807	keystroke_s	s	n/a
627.258	0.09	1254516	keystroke_Key.backspace	Key.backspace	n/a
627.438	0.135	1254876	keystroke_Key.backspace	Key.backspace	n/a
628.909	0.029	1257818	keystroke_Key.backspace	Key.backspace	n/a
629.043	0.105	1258086	keystroke_Key.backspace	Key.backspace	n/a
629.239	0.134	1258478	keystroke_Key.backspace	Key.backspace	n/a
629.464	0.134	1258928	keystroke_Key.backspace	Key.backspace	n/a
629.688	0.105	1259376	keystroke_Key.backspace	Key.backspace	n/a
631.0085	0.09	1262017	keystroke_t	t	n/a
631.1585	0.1805	1262317	keystroke_i	i	n/a
631.2635	0.1805	1262527	keystroke_o	o	n/a
631.489	0.18	1262978	keystroke_n	n	n/a
631.6535	0.075	1263307	keystroke_s	s	n/a
632.2235	0.074	1264447	keystroke_Key.space	Key.space	n/a
632.869	0.045	1265738	keystroke_f	f	n/a
633.318	0.105	1266636	keystroke_Key.backspace	Key.backspace	n/a
633.438	0.195	1266876	keystroke_g	g	n/a
633.603	0.121	1267206	keystroke_a	a	n/a
633.9335	0.0755	1267867	keystroke_v	v	n/a
634.1435	0.0595	1268287	keystroke_e	e	n/a
634.278	0.1205	1268556	keystroke_Key.space	Key.space	n/a
634.6535	0.0745	1269307	keystroke_q	q	n/a
634.9835	0.1045	1269967	keystroke_u	u	n/a
635.358	0.0755	1270716	keystroke_e	e	n/a
636.273	0.075	1272546	keystroke_e	e	n/a
636.4235	0.1205	1272847	keystroke_n	n	n/a
636.573	0.1055	1273146	keystroke_s	s	n/a
636.7385	0.12	1273477	keystroke_Key.space	Key.space	n/a
637.024	0.0895	1274048	keystroke_m	m	n/a
637.2485	0.12	1274497	keystroke_i	i	n/a
637.4435	0.1655	1274887	keystroke_n	n	n/a
637.5785	0.135	1275157	keystroke_i	i	n/a
637.864	0.1195	1275728	keystroke_m	m	n/a
638.133	0.1055	1276266	keystroke_i	i	n/a
638.494	0.0895	1276988	keystroke_z	z	n/a
638.7785	0.06	1277557	keystroke_e	e	n/a
638.9885	0.0755	1277977	keystroke_Key.enter	Key.enter	n/a
639.07	10	1278140	prompt	n/a	draws color security brunswick\n
639.739	0.075	1279478	keystroke_d	d	n/a
640.0835	0.09	1280167	keystroke_r	r	n/a
640.3835	0.105	1280767	keystroke_a	a	n/a
640.7135	0.0755	1281427	keystroke_w	w	n/a
640.999	0.0745	1281998	keystroke_a	a	n/a
641.4785	0.09	1282957	keystroke_Key.backspace	Key.backspace	n/a
641.539	0.0745	1283078	keystroke_s	s	n/a
641.748	0.09	1283496	keystroke_Key.space	Key.space	n/a
642.318	0.0755	1284636	keystroke_c	c	n/a
642.5135	0.0895	1285027	keystroke_o	o	n/a
642.7235	0.0905	1285447	keystroke_l	l	n/a
642.9195	0.119	1285839	keystroke_o	o	n/a
643.1285	0.09	1286257	keystroke_r	r	n/a
643.233	0.09	1286466	keystroke_Key.space	Key.space	n/a
643.3985	0.1045	1286797	keystroke_s	s	n/a
643.623	0.075	1287246	keystroke_e	e	n/a
643.8335	0.09	1287667	keystroke_c	c	n/a
643.9685	0.1345	1287937	keystroke_u	u	n/a
644.163	0.0905	1288326	keystroke_r	r	n/a
644.8535	0.1195	1289707	keystroke_i	i	n/a
644.9885	0.105	1289977	keystroke_t	t	n/a
645.154	0.1205	1290308	keystroke_y	y	n/a
645.3635	0.105	1290727	keystroke_Key.space	Key.space	n/a
646.0385	0.075	1292077	keystroke_b	b	n/a
646.339	0.09	1292678	keystroke_r	r	n/a
646.459	0.104	1292918	keystroke_u	u	n/a
646.699	0.12	1293398	keystroke_n	n	n/a
647.208	0.076	1294416	keystroke_s	s	n/a
647.6285	0.0605	1295257	keystroke_w	w	n/a
647.8385	0.1205	1295677	keystroke_i	i	n/a
648.2285	0.06	1296457	keystroke_c	c	n/a
648.6485	0.1045	1297297	keystroke_k	k	n/a
648.9785	0.09	1297957	keystroke_Key.enter	Key.enter	n/a
649.078	8.842	1298156	prompt	n/a	download radiation storm junk\n
651.275	0.0135	1302550	keystroke_d	d	n/a
651.3335	0.135	1302667	keystroke_o	o	n/a
651.619	0.0895	1303238	keystroke_w	w	n/a
651.7385	0.09	1303477	keystroke_n	n	n/a
652.0535	0.075	1304107	keystroke_l	l	n/a
652.264	0.105	1304528	keystroke_o	o	n/a
652.4585	0.105	1304917	keystroke_a	a	n/a
652.6985	0.075	1305397	keystroke_d	d	n/a
652.953	0.0755	1305906	keystroke_Key.space	Key.space	n/a
653.314	0.0895	1306628	keystroke_r	r	n/a
653.463	0.1055	1306926	keystroke_a	a	n/a
653.703	0.075	1307406	keystroke_d	d	n/a
653.808	0.1205	1307616	keystroke_i	i	n/a
653.9135	0.1205	1307827	keystroke_a	a	n/a
654.228	0.091	1308456	keystroke_t	t	n/a
654.4385	0.1795	1308877	keystroke_i	i	n/a
654.558	0.165	1309116	keystroke_o	o	n/a
654.7985	0.12	1309597	keystroke_n	n	n/a
655.0385	0.09	1310077	keystroke_Key.space	Key.space	n/a
655.488	0.09	1310976	keystroke_s	s	n/a
655.758	0.061	1311516	keystroke_t	t	n/a
656.148	0.135	1312296	keystroke_o	o	n/a
656.433	0.09	1312866	keystroke_r	r	n/a
656.539	0.134	1313078	keystroke_m	m	n/a
656.778	0.0905	1313556	keystroke_Key.space	Key.space	n/a
656.9585	0.045	1313917	keystroke_j	j	n/a
657.1085	0.09	1314217	keystroke_u	u	n/a
657.363	0.0905	1314726	keystroke_n	n	n/a
657.574	0.1045	1315148	keystroke_k	k	n/a
657.8285	0.0895	1315657	keystroke_Key.enter	Key.enter	n/a
657.9245	8.9965	1315849	prompt	n/a	secure heel latter take\n
658.774	0.06	1317548	keystroke_c	c	n/a
659.029	0.075	1318058	keystroke_e	e	n/a
659.2985	0.1045	1318597	keystroke_r	r	n/a
659.418	0.1055	1318836	keystroke_u	u	n/a
659.9885	0.135	1319977	keystroke_Key.backspace	Key.backspace	n/a
660.1385	0.0905	1320277	keystroke_Key.backspace	Key.backspace	n/a
660.3185	0.075	1320637	keystroke_Key.backspace	Key.backspace	n/a
660.483	0.0755	1320966	keystroke_Key.backspace	Key.backspace	n/a
660.663	0.1055	1321326	keystroke_Key.backspace	Key.backspace	n/a
660.963	0.0755	1321926	keystroke_s	s	n/a
661.1435	0.06	1322287	keystroke_e	e	n/a
661.368	0.09	1322736	keystroke_c	c	n/a
661.519	0.0895	1323038	keystroke_u	u	n/a
661.7285	0.1045	1323457	keystroke_r	r	n/a
661.938	0.09	1323876	keystroke_e	e	n/a
662.448	0.075	1324896	keystroke_Key.space	Key.space	n/a
662.778	0.09	1325556	keystroke_h	h	n/a
663.048	0.075	1326096	keystroke_e	e	n/a
663.199	0.09	1326398	keystroke_e	e	n/a
663.423	0.105	1326846	keystroke_l	l	n/a
663.693	0.09	1327386	keystroke_Key.space	Key.space	n/a
664.3835	0.12	1328767	keystroke_l	l	n/a
664.4885	0.09	1328977	keystroke_a	a	n/a
665.0285	0.075	1330057	keystroke_t	t	n/a
665.179	0.075	1330358	keystroke_t	t	n/a
665.3885	0.104	1330777	keystroke_e	e	n/a
665.6435	0.09	1331287	keystroke_r	r	n/a
665.749	0.089	1331498	keystroke_Key.space	Key.space	n/a
666.094	0.0885	1332188	keystroke_t	t	n/a
666.289	0.1045	1332578	keystroke_a	a	n/a
666.4225	0.1365	1332845	keystroke_k	k	n/a
666.618	0.0755	1333236	keystroke_e	e	n/a
666.8435	0.075	1333687	keystroke_Key.enter	Key.enter	n/a
666.9255	11.4395	1333851	prompt	n/a	presenting transformation hunger judgment\n
667.8185	0.12	1335637	keystroke_p	p	n/a
