onset	duration	sample	value	key	prompt_text
5.8195	15.8665	11639	prompt	n/a	the quick brown fox jumps over a lazy dog\n
9.5355	0.028	19071	keystroke_t	t	n/a
9.548	0.1345	19096	keystroke_h	h	n/a
9.593	0.135	19186	keystroke_e	e	n/a
9.742	0.09	19484	keystroke_Key.space	Key.space	n/a
10.0125	0.09	20025	keystroke_q	q	n/a
10.1175	0.1045	20235	keystroke_u	u	n/a
10.252	0.1355	20504	keystroke_i	i	n/a
10.4325	0.0745	20865	keystroke_c	c	n/a
10.612	0.1205	21224	keystroke_k	k	n/a
10.7475	0.075	21495	keystroke_Key.space	Key.space	n/a
11.1225	0.075	22245	keystroke_b	b	n/a
11.812	0.1955	23624	keystroke_r	r	n/a
12.023	0.0295	24046	keystroke_o	o	n/a
12.037	0.0755	24074	keystroke_w	w	n/a
12.1135	0.1185	24227	keystroke_n	n	n/a
12.2475	0.09	24495	keystroke_Key.space	Key.space	n/a
12.4875	0.075	24975	keystroke_f	f	n/a
12.563	0.1055	25126	keystroke_o	o	n/a
12.727	0.0905	25454	keystroke_x	x	n/a
12.8475	0.09	25695	keystroke_Key.space	Key.space	n/a
13.043	0.059	26086	keystroke_j	j	n/a
13.178	0.0895	26356	keystroke_u	u	n/a
13.4775	0.1655	26955	keystroke_p	p	n/a
14.092	0.1055	28184	keystroke_Key.backspace	Key.backspace	n/a
14.812	0.105	29624	keystroke_m	m	n/a
17.2595	0.089	34519	keystroke_p	p	n/a
17.3625	0.09	34725	keystroke_s	s	n/a
17.468	0.089	34936	keystroke_Key.space	Key.space	n/a
17.8275	0.105	35655	keystroke_o	o	n/a
17.902	0.091	35804	keystroke_v	v	n/a
18.0375	0.1055	36075	keystroke_e	e	n/a
18.112	0.151	36224	keystroke_r	r	n/a
18.2325	0.12	36465	keystroke_Key.space	Key.space	n/a
18.4125	0.1055	36825	keystroke_a	a	n/a
18.623	0.1205	37246	keystroke_l	l	n/a
18.8485	0.059	37697	keystroke_Key.space	Key.space	n/a
19.522	0.0755	39044	keystroke_Key.backspace	Key.backspace	n/a
19.777	0.015	39554	keystroke_Key.backspace	Key.backspace	n/a
19.8975	0.075	39795	keystroke_Key.space	Key.space	n/a
20.228	0.1045	40456	keystroke_l	l	n/a
20.408	0.104	40816	keystroke_a	a	n/a
20.692	0.1055	41384	keystroke_z	z	n/a
20.8125	0.105	41625	keystroke_y	y	n/a
20.9185	0.074	41837	keystroke_Key.space	Key.space	n/a
21.188	0.12	42376	keystroke_d	d	n/a
21.277	0.121	42554	keystroke_o	o	n/a
21.442	0.0755	42884	keystroke_g	g	n/a
21.5775	0.105	43155	keystroke_Key.enter	Key.enter	n/a
21.693	9.3815	43386	prompt	n/a	platinum eligible payroll airfare\n
22.838	0.09	45676	keystroke_p	p	n/a
23.047	0.1205	46094	keystroke_l	l	n/a
23.2415	0.121	46483	keystroke_a	a	n/a
23.602	0.0905	47204	keystroke_t	t	n/a
23.7075	0.0745	47415	keystroke_i	i	n/a
24.2175	0.0295	48435	keystroke_u	u	n/a
24.728	0.0745	49456	keystroke_Key.backspace	Key.backspace	n/a
24.9675	0.0895	49935	keystroke_n	n	n/a
25.177	0.0605	50354	keystroke_u	u	n/a
25.3725	0.0605	50745	keystroke_m	m	n/a
25.5675	0.0445	51135	keystroke_Key.space	Key.space	n/a
25.762	0.0605	51524	keystroke_e	e	n/a
25.8365	0.121	51673	keystroke_l	l	n/a
27.0825	0.075	54165	keystroke_i	i	n/a
27.3375	0.0755	54675	keystroke_g	g	n/a
27.427	0.0905	54854	keystroke_i	i	n/a
27.6985	0.0895	55397	keystroke_b	b	n/a
27.8625	0.1205	55725	keystroke_l	l	n/a
27.953	0.075	55906	keystroke_e	e	n/a
28.072	0.0755	56144	keystroke_Key.space	Key.space	n/a
28.2825	0.1055	56565	keystroke_p	p	n/a
28.4175	0.1055	56835	keystroke_a	a	n/a
28.5375	0.0905	57075	keystroke_y	y	n/a
28.9725	0.075	57945	keystroke_r	r	n/a
29.1075	0.09	58215	keystroke_o	o	n/a
29.453	0.074	58906	keystroke_l	l	n/a
29.588	0.1055	59176	keystroke_l	l	n/a
29.7525	0.1045	59505	keystroke_a	a	n/a
29.9325	0.0905	59865	keystroke_i	i	n/a
30.0825	0.105	60165	keystroke_r	r	n/a
30.352	0.09	60704	keystroke_f	f	n/a
30.488	0.119	60976	keystroke_a	a	n/a
30.577	0.135	61154	keystroke_r	r	n/a
30.7275	0.09	61455	keystroke_e	e	n/a
30.9675	0.1045	61935	keystroke_Key.enter	Key.enter	n/a
31.088	5.7315	62176	prompt	n/a	nonprofit feeding wells suitable\n
31.7475	0.06	63495	keystroke_n	n	n/a
31.852	0.106	63704	keystroke_o	o	n/a
32.002	0.105	64004	keystroke_n	n	n/a
32.273	0.09	64546	keystroke_p	p	n/a
32.392	0.09	64784	keystroke_r	r	n/a
32.497	0.0905	64994	keystroke_o	o	n/a
32.8575	0.09	65715	keystroke_f	f	n/a
32.9775	0.09	65955	keystroke_i	i	n/a
33.0975	0.075	66195	keystroke_t	t	n/a
33.247	0.0605	66494	keystroke_Key.space	Key.space	n/a
33.4725	0.075	66945	keystroke_f	f	n/a
33.6225	0.075	67245	keystroke_e	e	n/a
33.8765	0.0765	67753	keystroke_e	e	n/a
34.1025	0.1045	68205	keystroke_d	d	n/a
34.312	0.151	68624	keystroke_i	i	n/a
34.388	0.21	68776	keystroke_n	n	n/a
34.493	0.119	68986	keystroke_g	g	n/a
34.582	0.0905	69164	keystroke_Key.space	Key.space	n/a
34.778	0.089	69556	keystroke_w	w	n/a
34.942	0.075	69884	keystroke_e	e	n/a
35.107	0.06	70214	keystroke_l	l	n/a
35.258	0.089	70516	keystroke_l	l	n/a
35.332	0.1055	70664	keystroke_s	s	n/a
35.4675	0.075	70935	keystroke_Key.space	Key.space	n/a
35.633	0.1045	71266	keystroke_s	s	n/a
35.7525	0.09	71505	keystroke_u	u	n/a
35.9325	0.0755	71865	keystroke_i	i	n/a
36.0525	0.075	72105	keystroke_t	t	n/a
36.1875	0.135	72375	keystroke_a	a	n/a
36.3075	0.09	72615	keystroke_b	b	n/a
36.4425	0.135	72885	keystroke_l	l	n/a
36.5475	0.075	73095	keystroke_e	e	n/a
36.7425	0.075	73485	keystroke_Key.enter	Key.enter	n/a
36.824	5.6505	73648	prompt	n/a	best largely ringtone baskets\n
37.463	0.045	74926	keystroke_b	b	n/a
37.5675	0.09	75135	keystroke_e	e	n/a
37.7025	0.135	75405	keystroke_s	s	n/a
37.8525	0.0895	75705	keystroke_t	t	n/a
37.972	0.06	75944	keystroke_Key.space	Key.space	n/a
38.137	0.12	76274	keystroke_l	l	n/a
38.2425	0.1055	76485	keystroke_a	a	n/a
38.3025	0.1055	76605	keystroke_r	r	n/a
38.512	0.076	77024	keystroke_g	g	n/a
38.603	0.089	77206	keystroke_e	e	n/a
38.798	0.1345	77596	keystroke_l	l	n/a
38.9175	0.1195	77835	keystroke_y	y	n/a
39.0515	0.061	78103	keystroke_Key.space	Key.space	n/a
39.2325	0.09	78465	keystroke_r	r	n/a
39.3375	0.09	78675	keystroke_i	i	n/a
39.473	0.0745	78946	keystroke_g	g	n/a
40.0125	0.0755	80025	keystroke_n	n	n/a
40.402	0.075	80804	keystroke_t	t	n/a
40.507	0.136	81014	keystroke_o	o	n/a
40.5975	0.18	81195	keystroke_n	n	n/a
40.763	0.075	81526	keystroke_e	e	n/a
40.943	0.059	81886	keystroke_Key.space	Key.space	n/a
41.153	0.0595	82306	keystroke_b	b	n/a
41.258	0.12	82516	keystroke_a	a	n/a
41.453	0.135	82906	keystroke_s	s	n/a
41.8125	0.09	83625	keystroke_k	k	n/a
41.932	0.09	83864	keystroke_e	e	n/a
42.022	0.0755	84044	keystroke_t	t	n/a
42.202	0.1055	84404	keystroke_s	s	n/a
42.367	0.105	84734	keystroke_Key.enter	Key.enter	n/a
42.479	5.9805	84958	prompt	n/a	toner controversy tunnel linked\n
43.1475	0.06	86295	keystroke_t	t	n/a
43.2375	0.135	86475	keystroke_o	o	n/a
43.3275	0.165	86655	keystroke_n	n	n/a
43.4625	0.105	86925	keystroke_e	e	n/a
43.553	0.149	87106	keystroke_r	r	n/a
43.687	0.075	87374	keystroke_Key.space	Key.space	n/a
43.883	0.089	87766	keystroke_c	c	n/a
43.973	0.165	87946	keystroke_o	o	n/a
44.062	0.196	88124	keystroke_n	n	n/a
44.4975	0.075	88995	keystroke_t	t	n/a
44.7075	0.075	89415	keystroke_r	r	n/a
44.9175	0.09	89835	keystroke_o	o	n/a
45.1575	0.09	90315	keystroke_v	v	n/a
45.3525	0.075	90705	keystroke_e	e	n/a
45.4125	0.1055	90825	keystroke_r	r	n/a
45.652	0.105	91304	keystroke_s	s	n/a
45.8025	0.09	91605	keystroke_y	y	n/a
45.9515	0.046	91903	keystroke_Key.space	Key.space	n/a
46.5075	0.059	93015	keystroke_t	t	n/a
46.5825	0.06	93165	keystroke_u	u	n/a
46.7775	0.075	93555	keystroke_n	n	n/a
46.9125	0.0905	93825	keystroke_n	n	n/a
47.0175	0.0745	94035	keystroke_e	e	n/a
47.153	0.104	94306	keystroke_l	l	n/a
47.287	0.075	94574	keystroke_Key.space	Key.space	n/a
47.542	0.1205	95084	keystroke_l	l	n/a
47.6325	0.1645	95265	keystroke_i	i	n/a
47.752	0.151	95504	keystroke_n	n	n/a
47.9325	0.135	95865	keystroke_k	k	n/a
48.0525	0.0905	96105	keystroke_e	e	n/a
48.2175	0.0905	96435	keystroke_d	d	n/a
48.3525	0.105	96705	keystroke_Key.enter	Key.enter	n/a
48.465	11.6805	96930	prompt	n/a	literally consultant understanding initiatives\n
49.2225	0.09	98445	keystroke_l	l	n/a
49.3725	0.105	98745	keystroke_i	i	n/a
49.5825	0.075	99165	keystroke_t	t	n/a
49.7175	0.1195	99435	keystroke_e	e	n/a
49.8075	0.12	99615	keystroke_r	r	n/a
50.062	0.1355	100124	keystroke_a	a	n/a
50.167	0.09	100334	keystroke_l	l	n/a
50.317	0.105	100634	keystroke_l	l	n/a
50.437	0.075	100874	keystroke_Key.space	Key.space	n/a
50.662	0.075	101324	keystroke_c	c	n/a
50.722	0.1505	101444	keystroke_o	o	n/a
50.8275	0.164	101655	keystroke_n	n	n/a
51.412	0.045	102824	keystroke_Key.backspace	Key.backspace	n/a
51.5465	0.06	103093	keystroke_Key.backspace	Key.backspace	n/a
51.7125	0.059	103425	keystroke_Key.backspace	Key.backspace	n/a
51.8775	0.0745	103755	keystroke_Key.backspace	Key.backspace	n/a
52.313	0.074	104626	keystroke_y	y	n/a
52.492	0.0755	104984	keystroke_Key.space	Key.space	n/a
52.7475	0.0745	105495	keystroke_c	c	n/a
52.823	0.15	105646	keystroke_o	o	n/a
52.9275	0.1495	105855	keystroke_n	n	n/a
53.063	0.104	106126	keystroke_s	s	n/a
53.6325	0.0745	107265	keystroke_u	u	n/a
53.917	0.105	107834	keystroke_l	l	n/a
54.128	0.0895	108256	keystroke_t	t	n/a
54.3375	0.105	108675	keystroke_a	a	n/a
54.5475	0.09	109095	keystroke_n	n	n/a
54.6525	0.105	109305	keystroke_t	t	n/a
54.7725	0.075	109545	keystroke_Key.space	Key.space	n/a
54.9525	0.06	109905	keystroke_u	u	n/a
55.1175	0.105	110235	keystroke_n	n	n/a
55.2375	0.09	110475	keystroke_d	d	n/a
55.4165	0.091	110833	keystroke_e	e	n/a
55.5375	0.12	111075	keystroke_r	r	n/a
55.9725	0.09	111945	keystroke_s	s	n/a
56.1075	0.09	112215	keystroke_t	t	n/a
56.273	0.1045	112546	keystroke_a	a	n/a
56.677	0.12	113354	keystroke_n	n	n/a
56.947	0.075	113894	keystroke_d	d	n/a
57.1575	0.165	114315	keystroke_i	i	n/a
57.2475	0.165	114495	keystroke_n	n	n/a
57.3075	0.12	114615	keystroke_g	g	n/a
57.4275	0.074	114855	keystroke_Key.space	Key.space	n/a
57.683	0.1195	115366	keystroke_i	i	n/a
57.7565	0.151	115513	keystroke_n	n	n/a
58.283	0.074	116566	keystroke_i	i	n/a
58.673	0.089	117346	keystroke_t	t	n/a
58.823	0.09	117646	keystroke_i	i	n/a
59.092	0.12	118184	keystroke_a	a	n/a
59.3475	0.074	118695	keystroke_t	t	n/a
59.453	0.1045	118906	keystroke_i	i	n/a
59.572	0.0605	119144	keystroke_v	v	n/a
59.6775	0.105	119355	keystroke_e	e	n/a
59.888	0.074	119776	keystroke_s	s	n/a
60.052	0.0905	120104	keystroke_Key.enter	Key.enter	n/a
60.15	7.344	120300	prompt	n/a	protective ghost filing medal\n
60.8925	0.0905	121785	keystroke_p	p	n/a
61.012	0.076	122024	keystroke_r	r	n/a
61.1325	0.1045	122265	keystroke_o	o	n/a
61.417	0.0755	122834	keystroke_t	t	n/a
61.567	0.075	123134	keystroke_e	e	n/a
61.837	0.09	123674	keystroke_c	c	n/a
62.632	0.091	125264	keystroke_t	t	n/a
62.737	0.1055	125474	keystroke_i	i	n/a
62.858	0.0595	125716	keystroke_v	v	n/a
62.9475	0.1055	125895	keystroke_e	e	n/a
63.0975	0.0595	126195	keystroke_Key.space	Key.space	n/a
63.6225	0.0605	127245	keystroke_g	g	n/a
64.0575	0.075	128115	keystroke_h	h	n/a
64.403	0.1045	128806	keystroke_o	o	n/a
64.5675	0.09	129135	keystroke_s	s	n/a
64.687	0.09	129374	keystroke_t	t	n/a
64.822	0.0755	129644	keystroke_Key.space	Key.space	n/a
65.077	0.075	130154	keystroke_f	f	n/a
65.1675	0.0745	130335	keystroke_i	i	n/a
65.3475	0.1055	130695	keystroke_l	l	n/a
65.828	0.1345	131656	keystroke_i	i	n/a
65.8875	0.21	131775	keystroke_n	n	n/a
66.0075	0.105	132015	keystroke_g	g	n/a
66.173	0.074	132346	keystroke_Key.space	Key.space	n/a
66.517	0.136	133034	keystroke_m	m	n/a
66.6375	0.0745	133275	keystroke_e	e	n/a
66.832	0.075	133664	keystroke_d	d	n/a
66.968	0.119	133936	keystroke_a	a	n/a
67.1325	0.1195	134265	keystroke_l	l	n/a
67.402	0.09	134804	keystroke_Key.enter	Key.enter	n/a
67.502	5.392	135004	prompt	n/a	twin reserved ncaa band\n
68.183	0.0745	136366	keystroke_t	t	n/a
68.422	0.0905	136844	keystroke_w	w	n/a
68.5725	0.075	137145	keystroke_i	i	n/a
68.693	0.149	137386	keystroke_n	n	n/a
68.827	0.0755	137654	keystroke_Key.space	Key.space	n/a
69.0825	0.09	138165	keystroke_r	r	n/a
69.2025	0.09	138405	keystroke_e	e	n/a
69.443	0.1045	138886	keystroke_s	s	n/a
69.6075	0.09	139215	keystroke_e	e	n/a
69.6825	0.12	139365	keystroke_r	r	n/a
69.953	0.075	139906	keystroke_v	v	n/a
70.088	0.0745	140176	keystroke_e	e	n/a
70.2525	0.0755	140505	keystroke_d	d	n/a
70.3575	0.09	140715	keystroke_Key.space	Key.space	n/a
70.5825	0.12	141165	keystroke_n	n	n/a
71.168	0.0295	142336	keystroke_c	c	n/a
71.3765	0.121	142753	keystroke_a	a	n/a
71.692	0.0905	143384	keystroke_a	a	n/a
71.902	0.0905	143804	keystroke_Key.space	Key.space	n/a
72.1275	0.06	144255	keystroke_b	b	n/a
72.368	0.0895	144736	keystroke_a	a	n/a
72.5025	0.12	145005	keystroke_n	n	n/a
72.6075	0.1055	145215	keystroke_d	d	n/a
72.7875	0.105	145575	keystroke_Key.enter	Key.enter	n/a
72.899	5.0345	145798	prompt	n/a	liked ranks ncaa loves\n
73.612	0.09	147224	keystroke_l	l	n/a
73.732	0.0905	147464	keystroke_i	i	n/a
73.972	0.09	147944	keystroke_k	k	n/a
74.092	0.09	148184	keystroke_e	e	n/a
74.272	0.09	148544	keystroke_d	d	n/a
74.4065	0.0915	148813	keystroke_Key.space	Key.space	n/a
74.723	0.0895	149446	keystroke_r	r	n/a
74.9175	0.09	149835	keystroke_a	a	n/a
75.097	0.105	150194	keystroke_n	n	n/a
75.2925	0.1045	150585	keystroke_k	k	n/a
75.502	0.0905	151004	keystroke_s	s	n/a
75.637	0.0755	151274	keystroke_Key.space	Key.space	n/a
75.9375	0.105	151875	keystroke_n	n	n/a
76.253	0.0735	152506	keystroke_c	c	n/a
76.6875	0.015	153375	keystroke_a	a	n/a
76.7625	0.06	153525	keystroke_a	a	n/a
76.9275	0.0595	153855	keystroke_Key.space	Key.space	n/a
77.1075	0.0745	154215	keystroke_l	l	n/a
77.272	0.09	154544	keystroke_o	o	n/a
77.347	0.0905	154694	keystroke_v	v	n/a
77.482	0.0905	154964	keystroke_e	e	n/a
77.648	0.105	155296	keystroke_s	s	n/a
77.8275	0.104	155655	keystroke_Key.enter	Key.enter	n/a
77.9465	5.7775	155893	prompt	n/a	laundry holder ebay power\n
78.7125	0.09	157425	keystroke_l	l	n/a
78.8175	0.12	157635	keystroke_a	a	n/a
78.983	0.1045	157966	keystroke_u	u	n/a
79.4175	0.09	158835	keystroke_n	n	n/a
79.6425	0.075	159285	keystroke_d	d	n/a
80.0025	0.09	160005	keystroke_r	r	n/a
80.1675	0.105	160335	keystroke_y	y	n/a
80.3475	0.075	160695	keystroke_Key.space	Key.space	n/a
80.5875	0.061	161175	keystroke_h	h	n/a
80.7225	0.105	161445	keystroke_o	o	n/a
80.9325	0.105	161865	keystroke_l	l	n/a
81.0375	0.09	162075	keystroke_d	d	n/a
81.2625	0.104	162525	keystroke_e	e	n/a
81.3675	0.1055	162735	keystroke_r	r	n/a
81.5175	0.0445	163035	keystroke_Key.space	Key.space	n/a
81.6975	0.0745	163395	keystroke_e	e	n/a
81.9225	0.0745	163845	keystroke_b	b	n/a
82.342	0.106	164684	keystroke_a	a	n/a
82.462	0.0905	164924	keystroke_y	y	n/a
82.6725	0.06	165345	keystroke_Key.space	Key.space	n/a
82.8825	0.09	165765	keystroke_p	p	n/a
83.0775	0.09	166155	keystroke_o	o	n/a
83.1825	0.09	166365	keystroke_w	w	n/a
83.3325	0.075	166665	keystroke_e	e	n/a
83.393	0.1195	166786	keystroke_r	r	n/a
83.6325	0.09	167265	keystroke_Key.enter	Key.enter	n/a
83.735	6.094	167470	prompt	n/a	clip surgery trustees remix\n
84.4725	0.0745	168945	keystroke_c	c	n/a
84.547	0.12	169094	keystroke_l	l	n/a
84.6375	0.12	169275	keystroke_i	i	n/a
84.8775	0.09	169755	keystroke_p	p	n/a
85.0725	0.0595	170145	keystroke_Key.space	Key.space	n/a
85.2675	0.09	170535	keystroke_s	s	n/a
85.4015	0.076	170803	keystroke_u	u	n/a
85.5225	0.075	171045	keystroke_r	r	n/a
85.7175	0.06	171435	keystroke_g	g	n/a
85.838	0.0885	171676	keystroke_e	e	n/a
86.0625	0.09	172125	keystroke_r	r	n/a
86.1675	0.09	172335	keystroke_y	y	n/a
86.2865	0.076	172573	keystroke_Key.space	Key.space	n/a
86.513	0.075	173026	keystroke_t	t	n/a
86.6925	0.09	173385	keystroke_r	r	n/a
86.902	0.09	173804	keystroke_u	u	n/a
87.187	0.09	174374	keystroke_s	s	n/a
87.442	0.091	174884	keystroke_t	t	n/a
87.743	0.014	175486	keystroke_e	e	n/a
87.877	0.06	175754	keystroke_e	e	n/a
88.1625	0.1045	176325	keystroke_s	s	n/a
88.597	0.075	177194	keystroke_Key.space	Key.space	n/a
88.8675	0.075	177735	keystroke_r	r	n/a
89.033	0.06	178066	keystroke_e	e	n/a
89.197	0.076	178394	keystroke_m	m	n/a
89.317	0.106	178634	keystroke_i	i	n/a
89.513	0.09	179026	keystroke_x	x	n/a
89.737	0.09	179474	keystroke_Key.enter	Key.enter	n/a
89.837	7.402	179674	prompt	n/a	program desperate vessels magazines\n
90.623	0.1045	181246	keystroke_p	p	n/a
90.7575	0.074	181515	keystroke_r	r	n/a
90.8615	0.09	181723	keystroke_o	o	n/a
91.0875	0.075	182175	keystroke_g	g	n/a
91.268	0.0745	182536	keystroke_r	r	n/a
91.4025	0.1045	182805	keystroke_a	a	n/a
91.522	0.1055	183044	keystroke_m	m	n/a
91.672	0.075	183344	keystroke_Key.space	Key.space	n/a
91.972	0.075	183944	keystroke_d	d	n/a
92.1665	0.0315	184333	keystroke_e	e	n/a
92.3175	0.09	184635	keystroke_s	s	n/a
92.573	0.1045	185146	keystroke_p	p	n/a
92.7225	0.09	185445	keystroke_e	e	n/a
92.8725	0.075	185745	keystroke_r	r	n/a
92.9925	0.12	185985	keystroke_a	a	n/a
93.1275	0.09	186255	keystroke_t	t	n/a
93.2775	0.09	186555	keystroke_e	e	n/a
93.4125	0.075	186825	keystroke_Key.space	Key.space	n/a
93.6375	0.09	187275	keystroke_v	v	n/a
93.8025	0.075	187605	keystroke_e	e	n/a
94.0125	0.06	188025	keystroke_s	s	n/a
94.163	0.0745	188326	keystroke_s	s	n/a
94.3275	0.06	188655	keystroke_e	e	n/a
94.4775	0.105	188955	keystroke_l	l	n/a
94.6125	0.09	189225	keystroke_s	s	n/a
94.8525	0.06	189705	keystroke_Key.space	Key.space	n/a
95.0475	0.1205	190095	keystroke_m	m	n/a
95.183	0.0895	190366	keystroke_a	a	n/a
95.348	0.075	190696	keystroke_g	g	n/a
95.453	0.104	190906	keystroke_a	a	n/a
95.798	0.1195	191596	keystroke_z	z	n/a
95.9025	0.1355	191805	keystroke_i	i	n/a
95.978	0.2095	191956	keystroke_n	n	n/a
96.113	0.0895	192226	keystroke_e	e	n/a
96.7425	0.1495	193485	keystroke_s	s	n/a
97.1325	0.105	194265	keystroke_Key.enter	Key.enter	n/a
97.244	6.745	194488	prompt	n/a	towers graph sticker species\n
97.9125	0.0745	195825	keystroke_t	t	n/a
98.1075	0.074	196215	keystroke_o	o	n/a
98.228	0.105	196456	keystroke_w	w	n/a
98.6775	0.105	197355	keystroke_e	e	n/a
98.7675	0.09	197535	keystroke_r	r	n/a
99.007	0.076	198014	keystroke_s	s	n/a
99.128	0.0895	198256	keystroke_Key.space	Key.space	n/a
99.307	0.076	198614	keystroke_g	g	n/a
99.488	0.059	198976	keystroke_r	r	n/a
99.622	0.1055	199244	keystroke_a	a	n/a
99.847	0.075	199694	keystroke_p	p	n/a
99.9675	0.1045	199935	keystroke_h	h	n/a
100.2975	0.06	200595	keystroke_Key.space	Key.space	n/a
100.5075	0.075	201015	keystroke_s	s	n/a
100.6575	0.075	201315	keystroke_t	t	n/a
101.3325	0.135	202665	keystroke_i	i	n/a
101.7825	0.0155	203565	keystroke_c	c	n/a
101.872	0.105	203744	keystroke_k	k	n/a
102.023	0.075	204046	keystroke_e	e	n/a
102.099	0.1035	204198	keystroke_r	r	n/a
102.2315	0.09	204463	keystroke_Key.space	Key.space	n/a
102.4575	0.1045	204915	keystroke_s	s	n/a
102.6225	0.105	205245	keystroke_p	p	n/a
102.7875	0.09	205575	keystroke_e	e	n/a
103.2525	0.0755	206505	keystroke_c	c	n/a
103.3725	0.0745	206745	keystroke_i	i	n/a
103.5675	0.0745	207135	keystroke_e	e	n/a
103.7025	0.1045	207405	keystroke_s	s	n/a
103.8825	0.1045	207765	keystroke_Key.enter	Key.enter	n/a
103.993	5.3965	207986	prompt	n/a	alone lenses placement hills\n
104.6625	0.12	209325	keystroke_a	a	n/a
104.7675	0.09	209535	keystroke_l	l	n/a
104.9325	0.105	209865	keystroke_o	o	n/a
105.0225	0.1805	210045	keystroke_n	n	n/a
105.2475	0.06	210495	keystroke_e	e	n/a
105.3825	0.09	210765	keystroke_Key.space	Key.space	n/a
105.623	0.09	211246	keystroke_l	l	n/a
105.7425	0.09	211485	keystroke_e	e	n/a
105.8925	0.105	211785	keystroke_n	n	n/a
106.1325	0.105	212265	keystroke_s	s	n/a
106.2525	0.1045	212505	keystroke_e	e	n/a
106.418	0.119	212836	keystroke_s	s	n/a
106.6725	0.0305	213345	keystroke_Key.space	Key.space	n/a
106.8525	0.09	213705	keystroke_p	p	n/a
107.0475	0.1055	214095	keystroke_l	l	n/a
107.1675	0.075	214335	keystroke_a	a	n/a
107.318	0.09	214636	keystroke_c	c	n/a
107.6175	0.0905	215235	keystroke_m	m	n/a
107.7375	0.075	215475	keystroke_e	e	n/a
107.828	0.104	215656	keystroke_n	n	n/a
107.9025	0.0895	215805	keystroke_t	t	n/a
108.2025	0.06	216405	keystroke_Key.space	Key.space	n/a
108.3975	0.09	216795	keystroke_h	h	n/a
108.4875	0.12	216975	keystroke_i	i	n/a
108.743	0.0735	217486	keystroke_l	l	n/a
108.8915	0.091	217783	keystroke_l	l	n/a
108.9825	0.09	217965	keystroke_s	s	n/a
109.2825	0.105	218565	keystroke_Key.enter	Key.enter	n/a
109.4005	8.7935	218801	prompt	n/a	apparel explorer warranty chaos\n
110.0325	0.1205	220065	keystroke_a	a	n/a
110.1975	0.12	220395	keystroke_p	p	n/a
110.3475	0.1355	220695	keystroke_a	a	n/a
110.513	0.0745	221026	keystroke_r	r	n/a
110.9775	0.075	221955	keystroke_Key.backspace	Key.backspace	n/a
111.1425	0.0745	222285	keystroke_Key.backspace	Key.backspace	n/a
111.458	0.09	222916	keystroke_p	p	n/a
111.7725	0.121	223545	keystroke_a	a	n/a
112.178	0.09	224356	keystroke_r	r	n/a
112.328	0.075	224656	keystroke_e	e	n/a
112.463	0.12	224926	keystroke_l	l	n/a
112.597	0.0755	225194	keystroke_Key.space	Key.space	n/a
112.777	0.075	225554	keystroke_e	e	n/a
112.987	0.1205	225974	keystroke_x	x	n/a
113.1375	0.0905	226275	keystroke_p	p	n/a
113.393	0.0895	226786	keystroke_l	l	n/a
113.633	0.075	227266	keystroke_o	o	n/a
114.0075	0.09	228015	keystroke_r	r	n/a
114.2625	0.12	228525	keystroke_e	e	n/a
114.3975	0.075	228795	keystroke_r	r	n/a
114.6525	0.06	229305	keystroke_Key.space	Key.space	n/a
114.833	0.09	229666	keystroke_w	w	n/a
115.043	0.105	230086	keystroke_a	a	n/a
115.298	0.0745	230596	keystroke_r	r	n/a
115.462	0.061	230924	keystroke_r	r	n/a
115.777	0.1055	231554	keystroke_a	a	n/a
116.0625	0.12	232125	keystroke_n	n	n/a
116.303	0.0895	232606	keystroke_t	t	n/a
116.4375	0.0895	232875	keystroke_y	y	n/a
116.5575	0.06	233115	keystroke_Key.space	Key.space	n/a
116.8425	0.06	233685	keystroke_c	c	n/a
117.0825	0.06	234165	keystroke_h	h	n/a
117.488	0.105	234976	keystroke_a	a	n/a
117.668	0.105	235336	keystroke_o	o	n/a
117.8925	0.09	235785	keystroke_s	s	n/a
118.0875	0.105	236175	keystroke_Key.enter	Key.enter	n/a
118.2025	5.992	236405	prompt	n/a	thinks output zoning herein\n
118.8525	0.06	237705	keystroke_t	t	n/a
118.9425	0.09	237885	keystroke_h	h	n/a
119.1825	0.075	238365	keystroke_i	i	n/a
119.348	0.119	238696	keystroke_n	n	n/a
119.603	0.075	239206	keystroke_k	k	n/a
119.888	0.09	239776	keystroke_s	s	n/a
120.098	0.074	240196	keystroke_Key.space	Key.space	n/a
120.322	0.061	240644	keystroke_o	o	n/a
120.442	0.105	240884	keystroke_u	u	n/a
120.563	0.074	241126	keystroke_t	t	n/a
120.863	0.06	241726	keystroke_p	p	n/a
121.013	0.0895	242026	keystroke_u	u	n/a
121.163	0.06	242326	keystroke_t	t	n/a
121.267	0.076	242534	keystroke_Key.space	Key.space	n/a
121.6725	0.12	243345	keystroke_z	z	n/a
121.838	0.0895	243676	keystroke_o	o	n/a
122.0025	0.09	244005	keystroke_n	n	n/a
122.2425	0.1355	244485	keystroke_i	i	n/a
122.3175	0.181	244635	keystroke_n	n	n/a
122.408	0.1195	244816	keystroke_g	g	n/a
122.5125	0.09	245025	keystroke_Key.space	Key.space	n/a
122.7825	0.0905	245565	keystroke_h	h	n/a
122.9325	0.12	245865	keystroke_e	e	n/a
123.0975	0.1355	246195	keystroke_r	r	n/a
123.5475	0.105	247095	keystroke_e	e	n/a
123.6975	0.075	247395	keystroke_i	i	n/a
123.8025	0.1655	247605	keystroke_n	n	n/a
124.102	0.09	248204	keystroke_Key.enter	Key.enter	n/a
124.2015	7.748	248403	prompt	n/a	hypothetical namibia lead gospel\n
124.973	0.06	249946	keystroke_h	h	n/a
125.198	0.06	250396	keystroke_y	y	n/a
125.467	0.076	250934	keystroke_p	p	n/a
125.663	0.06	251326	keystroke_o	o	n/a
125.813	0.059	251626	keystroke_t	t	n/a
125.918	0.105	251836	keystroke_h	h	n/a
126.053	0.09	252106	keystroke_e	e	n/a
126.3375	0.0755	252675	keystroke_t	t	n/a
126.458	0.0895	252916	keystroke_i	i	n/a
126.6385	0.074	253277	keystroke_c	c	n/a
126.923	0.1055	253846	keystroke_a	a	n/a
127.118	0.105	254236	keystroke_l	l	n/a
127.268	0.075	254536	keystroke_Key.space	Key.space	n/a
127.523	0.0895	255046	keystroke_n	n	n/a
127.9135	0.104	255827	keystroke_a	a	n/a
128.1525	0.12	256305	keystroke_m	m	n/a
128.7075	0.09	257415	keystroke_i	i	n/a
129.022	0.0755	258044	keystroke_b	b	n/a
129.128	0.0895	258256	keystroke_i	i	n/a
129.218	0.12	258436	keystroke_a	a	n/a
129.443	0.074	258886	keystroke_Key.space	Key.space	n/a
129.6825	0.1055	259365	keystroke_l	l	n/a
129.8025	0.075	259605	keystroke_e	e	n/a
129.9075	0.12	259815	keystroke_a	a	n/a
130.1035	0.0595	260207	keystroke_d	d	n/a
130.2675	0.0745	260535	keystroke_Key.space	Key.space	n/a
130.7325	0.0745	261465	keystroke_g	g	n/a
130.837	0.09	261674	keystroke_o	o	n/a
130.973	0.104	261946	keystroke_s	s	n/a
131.228	0.12	262456	keystroke_p	p	n/a
131.363	0.0755	262726	keystroke_e	e	n/a
131.587	0.0905	263174	keystroke_l	l	n/a
131.8575	0.0905	263715	keystroke_Key.enter	Key.enter	n/a
131.9555	7.148	263911	prompt	n/a	kate custody velvet kazakhstan\n
132.653	0.0895	265306	keystroke_k	k	n/a
132.727	0.136	265454	keystroke_a	a	n/a
132.848	0.089	265696	keystroke_t	t	n/a
132.9525	0.09	265905	keystroke_e	e	n/a
133.0735	0.074	266147	keystroke_Key.space	Key.space	n/a
133.4025	0.075	266805	keystroke_c	c	n/a
133.5375	0.09	267075	keystroke_u	u	n/a
133.6875	0.0755	267375	keystroke_s	s	n/a
133.8825	0.075	267765	keystroke_t	t	n/a
134.0025	0.0905	268005	keystroke_o	o	n/a
134.1975	0.09	268395	keystroke_d	d	n/a
134.333	0.0895	268666	keystroke_y	y	n/a
134.467	0.045	268934	keystroke_Key.space	Key.space	n/a
134.813	0.075	269626	keystroke_v	v	n/a
135.0075	0.0755	270015	keystroke_e	e	n/a
135.232	0.09	270464	keystroke_l	l	n/a
135.622	0.091	271244	keystroke_v	v	n/a
135.803	0.0595	271606	keystroke_e	e	n/a
135.9225	0.09	271845	keystroke_t	t	n/a
136.1175	0.045	272235	keystroke_Key.space	Key.space	n/a
136.418	0.074	272836	keystroke_k	k	n/a
136.5385	0.1185	273077	keystroke_a	a	n/a
136.838	0.09	273676	keystroke_z	z	n/a
137.062	0.105	274124	keystroke_a	a	n/a
137.4375	0.0905	274875	keystroke_k	k	n/a
137.978	0.0895	275956	keystroke_h	h	n/a
138.203	0.089	276406	keystroke_s	s	n/a
138.3975	0.06	276795	keystroke_t	t	n/a
138.5025	0.105	277005	keystroke_a	a	n/a
138.6225	0.1205	277245	keystroke_n	n	n/a
139.0125	0.09	278025	keystroke_Key.enter	Key.enter	n/a
139.116	5.7635	278232	prompt	n/a	gore offer browse prove\n
140.0625	0.105	280125	keystroke_g	g	n/a
140.2425	0.075	280485	keystroke_o	o	n/a
140.4375	0.09	280875	keystroke_r	r	n/a
140.5575	0.09	281115	keystroke_e	e	n/a
140.7525	0.075	281505	keystroke_Key.space	Key.space	n/a
140.9325	0.075	281865	keystroke_o	o	n/a
141.0675	0.06	282135	keystroke_f	f	n/a
141.232	0.0605	282464	keystroke_f	f	n/a
141.367	0.12	282734	keystroke_e	e	n/a
141.532	0.075	283064	keystroke_r	r	n/a
141.6375	0.0595	283275	keystroke_Key.space	Key.space	n/a
141.8925	0.06	283785	keystroke_b	b	n/a
142.0725	0.0755	284145	keystroke_r	r	n/a
142.2675	0.09	284535	keystroke_o	o	n/a
142.3875	0.105	284775	keystroke_w	w	n/a
142.508	0.12	285016	keystroke_n	n	n/a
143.1825	0.075	286365	keystroke_Key.backspace	Key.backspace	n/a
143.4675	0.09	286935	keystroke_s	s	n/a
143.6925	0.075	287385	keystroke_e	e	n/a
143.812	0.0905	287624	keystroke_Key.space	Key.space	n/a
144.038	0.089	288076	keystroke_p	p	n/a
144.112	0.09	288224	keystroke_r	r	n/a
144.248	0.09	288496	keystroke_o	o	n/a
144.354	0.074	288708	keystroke_v	v	n/a
144.518	0.06	289036	keystroke_e	e	n/a
144.787	0.09	289574	keystroke_Key.enter	Key.enter	n/a
144.889	8.285	289778	prompt	n/a	abraham routine dimensional automobile\n
145.822	0.106	291644	keystroke_a	a	n/a
146.033	0.089	292066	keystroke_b	b	n/a
146.302	0.075	292604	keystroke_r	r	n/a
146.483	0.09	292966	keystroke_a	a	n/a
146.827	0.091	293654	keystroke_h	h	n/a
146.963	0.105	293926	keystroke_a	a	n/a
147.143	0.104	294286	keystroke_m	m	n/a
147.278	0.074	294556	keystroke_Key.space	Key.space	n/a
147.682	0.076	295364	keystroke_r	r	n/a
147.788	0.12	295576	keystroke_o	o	n/a
147.863	0.135	295726	keystroke_u	u	n/a
148.178	0.059	296356	keystroke_t	t	n/a
148.297	0.165	296594	keystroke_i	i	n/a
148.387	0.1965	296774	keystroke_n	n	n/a
148.567	0.091	297134	keystroke_e	e	n/a
148.702	0.09	297404	keystroke_Key.space	Key.space	n/a
149.077	0.09	298154	keystroke_d	d	n/a
149.198	0.074	298396	keystroke_i	i	n/a
149.393	0.09	298786	keystroke_m	m	n/a
149.527	0.0755	299054	keystroke_e	e	n/a
149.647	0.1055	299294	keystroke_n	n	n/a
149.827	0.1055	299654	keystroke_s	s	n/a
150.0225	0.165	300045	keystroke_i	i	n/a
150.1575	0.1355	300315	keystroke_o	o	n/a
150.247	0.1805	300494	keystroke_n	n	n/a
150.398	0.1045	300796	keystroke_s	s	n/a
150.5175	0.135	301035	keystroke_a	a	n/a
150.6535	0.1195	301307	keystroke_l	l	n/a
150.8625	0.06	301725	keystroke_Key.space	Key.space	n/a
151.298	0.015	302596	keystroke_a	a	n/a
151.343	0.09	302686	keystroke_u	u	n/a
151.643	0.075	303286	keystroke_t	t	n/a
151.763	0.09	303526	keystroke_o	o	n/a
151.9725	0.0905	303945	keystroke_m	m	n/a
152.198	0.09	304396	keystroke_o	o	n/a
152.453	0.075	304906	keystroke_b	b	n/a
152.573	0.09	305146	keystroke_i	i	n/a
152.738	0.12	305476	keystroke_l	l	n/a
152.873	0.075	305746	keystroke_e	e	n/a
153.082	0.0905	306164	keystroke_Key.enter	Key.enter	n/a
153.1795	7.3595	306359	prompt	n/a	drew parties swaziland stress\n
153.9225	0.0755	307845	keystroke_d	d	n/a
154.0735	0.089	308147	keystroke_r	r	n/a
154.2375	0.09	308475	keystroke_e	e	n/a
154.5375	0.09	309075	keystroke_w	w	n/a
154.6875	0.105	309375	keystroke_Key.space	Key.space	n/a
154.9575	0.09	309915	keystroke_p	p	n/a
155.0625	0.12	310125	keystroke_a	a	n/a
155.1525	0.105	310305	keystroke_r	r	n/a
155.5575	0.09	311115	keystroke_t	t	n/a
155.707	0.0755	311414	keystroke_i	i	n/a
155.9175	0.0905	311835	keystroke_e	e	n/a
156.1125	0.09	312225	keystroke_s	s	n/a
156.262	0.075	312524	keystroke_Key.space	Key.space	n/a
156.562	0.075	313124	keystroke_s	s	n/a
156.937	0.091	313874	keystroke_w	w	n/a
157.283	0.1195	314566	keystroke_a	a	n/a
157.7475	0.1355	315495	keystroke_z	z	n/a
158.1075	0.075	316215	keystroke_i	i	n/a
158.3925	0.09	316785	keystroke_l	l	n/a
158.4975	0.105	316995	keystroke_a	a	n/a
158.6185	0.134	317237	keystroke_n	n	n/a
158.7075	0.09	317415	keystroke_d	d	n/a
158.8275	0.09	317655	keystroke_Key.space	Key.space	n/a
159.0225	0.09	318045	keystroke_s	s	n/a
159.1425	0.09	318285	keystroke_t	t	n/a
159.338	0.0745	318676	keystroke_r	r	n/a
159.637	0.091	319274	keystroke_e	e	n/a
159.997	0.076	319994	keystroke_s	s	n/a
160.1475	0.0905	320295	keystroke_s	s	n/a
160.4325	0.1045	320865	keystroke_Key.enter	Key.enter	n/a
160.545	8.949	321090	prompt	n/a	provincial parallel spain prozac\n
161.213	0.105	322426	keystroke_p	p	n/a
161.303	0.075	322606	keystroke_r	r	n/a
161.423	0.0895	322846	keystroke_o	o	n/a
161.6325	0.09	323265	keystroke_v	v	n/a
161.917	0.0755	323834	keystroke_i	i	n/a
162.3975	0.1045	324795	keystroke_n	n	n/a
162.8325	0.075	325665	keystroke_c	c	n/a
162.952	0.076	325904	keystroke_i	i	n/a
163.072	0.1055	326144	keystroke_a	a	n/a
163.1925	0.135	326385	keystroke_l	l	n/a
163.3275	0.0745	326655	keystroke_Key.space	Key.space	n/a
163.6275	0.12	327255	keystroke_p	p	n/a
163.7625	0.089	327525	keystroke_a	a	n/a
163.9425	0.06	327885	keystroke_r	r	n/a
164.093	0.06	328186	keystroke_r	r	n/a
164.228	0.1195	328456	keystroke_a	a	n/a
164.483	0.104	328966	keystroke_l	l	n/a
164.872	0.09	329744	keystroke_l	l	n/a
165.187	0.0755	330374	keystroke_e	e	n/a
165.4725	0.105	330945	keystroke_l	l	n/a
165.833	0.105	331666	keystroke_s	s	n/a
166.432	0.0155	332864	keystroke_Key.backspace	Key.backspace	n/a
166.507	0.075	333014	keystroke_Key.space	Key.space	n/a
166.7625	0.09	333525	keystroke_s	s	n/a
167.0025	0.105	334005	keystroke_p	p	n/a
167.228	0.1045	334456	keystroke_a	a	n/a
167.3775	0.15	334755	keystroke_i	i	n/a
167.4675	0.18	334935	keystroke_n	n	n/a
167.6325	0.045	335265	keystroke_Key.space	Key.space	n/a
167.932	0.09	335864	keystroke_p	p	n/a
168.0825	0.0745	336165	keystroke_r	r	n/a
168.1725	0.105	336345	keystroke_o	o	n/a
168.607	0.09	337214	keystroke_z	z	n/a
168.817	0.09	337634	keystroke_a	a	n/a
169.1625	0.075	338325	keystroke_c	c	n/a
169.4025	0.09	338805	keystroke_Key.enter	Key.enter	n/a
169.497	7.2415	338994	prompt	n/a	surrounded garage trademark incomplete\n
170.212	0.075	340424	keystroke_s	s	n/a
170.333	0.09	340666	keystroke_u	u	n/a
170.662	0.061	341324	keystroke_r	r	n/a
170.8125	0.0595	341625	keystroke_r	r	n/a
170.888	0.1345	341776	keystroke_o	o	n/a
170.9775	0.09	341955	keystroke_u	u	n/a
171.142	0.1205	342284	keystroke_n	n	n/a
171.2775	0.06	342555	keystroke_d	d	n/a
171.443	0.0595	342886	keystroke_e	e	n/a
171.6075	0.06	343215	keystroke_d	d	n/a
171.7125	0.075	343425	keystroke_Key.space	Key.space	n/a
171.9075	0.075	343815	keystroke_g	g	n/a
172.042	0.12	344084	keystroke_a	a	n/a
172.132	0.105	344264	keystroke_r	r	n/a
172.477	0.106	344954	keystroke_a	a	n/a
172.733	0.075	345466	keystroke_g	g	n/a
172.868	0.074	345736	keystroke_e	e	n/a
172.987	0.075	345974	keystroke_Key.space	Key.space	n/a
173.242	0.06	346484	keystroke_t	t	n/a
173.4075	0.0745	346815	keystroke_r	r	n/a
173.557	0.0905	347114	keystroke_a	a	n/a
173.7375	0.0755	347475	keystroke_d	d	n/a
173.9625	0.016	347925	keystroke_e	e	n/a
174.0825	0.105	348165	keystroke_m	m	n/a
174.1575	0.105	348315	keystroke_a	a	n/a
174.2475	0.105	348495	keystroke_r	r	n/a
174.3975	0.12	348795	keystroke_k	k	n/a
174.578	0.0595	349156	keystroke_Key.space	Key.space	n/a
174.8475	0.119	349695	keystroke_i	i	n/a
174.9225	0.149	349845	keystroke_n	n	n/a
175.1475	0.075	350295	keystroke_c	c	n/a
175.2675	0.075	350535	keystroke_o	o	n/a
175.3275	0.1345	350655	keystroke_m	m	n/a
175.942	0.09	351884	keystroke_p	p	n/a
176.153	0.089	352306	keystroke_l	l	n/a
176.227	0.091	352454	keystroke_e	e	n/a
176.333	0.089	352666	keystroke_t	t	n/a
176.453	0.075	352906	keystroke_e	e	n/a
176.633	0.104	353266	keystroke_Key.enter	Key.enter	n/a
176.7425	7.6315	353485	prompt	n/a	canvas replacing attacks took\n
177.982	0.075	355964	keystroke_c	c	n/a
178.252	0.121	356504	keystroke_a	a	n/a
178.387	0.106	356774	keystroke_n	n	n/a
178.612	0.0605	357224	keystroke_v	v	n/a
178.7325	0.1055	357465	keystroke_a	a	n/a
178.958	0.105	357916	keystroke_s	s	n/a
179.092	0.075	358184	keystroke_Key.space	Key.space	n/a
179.303	0.089	358606	keystroke_r	r	n/a
179.408	0.0745	358816	keystroke_e	e	n/a
179.542	0.076	359084	keystroke_p	p	n/a
179.678	0.1345	359356	keystroke_l	l	n/a
179.752	0.0905	359504	keystroke_a	a	n/a
179.9175	0.09	359835	keystroke_c	c	n/a
180.0375	0.1655	360075	keystroke_i	i	n/a
180.128	0.1645	360256	keystroke_n	n	n/a
180.2175	0.12	360435	keystroke_g	g	n/a
180.3225	0.075	360645	keystroke_Key.space	Key.space	n/a
180.443	0.15	360886	keystroke_a	a	n/a
180.548	0.105	361096	keystroke_t	t	n/a
180.757	0.076	361514	keystroke_t	t	n/a
180.9825	0.1045	361965	keystroke_a	a	n/a
181.3575	0.09	362715	keystroke_c	c	n/a
181.522	0.1055	363044	keystroke_h	h	n/a
182.7525	0.0745	365505	keystroke_Key.backspace	Key.backspace	n/a
183.007	0.09	366014	keystroke_k	k	n/a
183.218	0.1035	366436	keystroke_s	s	n/a
183.3675	0.075	366735	keystroke_Key.space	Key.space	n/a
183.5475	0.0895	367095	keystroke_t	t	n/a
183.667	0.09	367334	keystroke_o	o	n/a
183.8775	0.0745	367755	keystroke_o	o	n/a
184.057	0.1055	368114	keystroke_k	k	n/a
184.282	0.0905	368564	keystroke_Key.enter	Key.enter	n/a
184.3785	9.626	368757	prompt	n/a	desperate taught assured actress\n
185.003	0.074	370006	keystroke_d	d	n/a
185.182	0.075	370364	keystroke_e	e	n/a
185.7675	0.09	371535	keystroke_s	s	n/a
185.9775	0.075	371955	keystroke_e	e	n/a
186.2025	0.105	372405	keystroke_p	p	n/a
187.3725	0.06	374745	keystroke_Key.backspace	Key.backspace	n/a
187.5525	0.09	375105	keystroke_Key.backspace	Key.backspace	n/a
188.183	0.09	376366	keystroke_p	p	n/a
188.513	0.0745	377026	keystroke_e	e	n/a
188.6325	0.089	377265	keystroke_r	r	n/a
188.7975	0.105	377595	keystroke_a	a	n/a
188.8875	0.09	377775	keystroke_t	t	n/a
189.0825	0.075	378165	keystroke_e	e	n/a
189.233	0.0435	378466	keystroke_Key.space	Key.space	n/a
189.458	0.1045	378916	keystroke_t	t	n/a
189.6525	0.105	379305	keystroke_a	a	n/a
189.8025	0.0895	379605	keystroke_u	u	n/a
190.043	0.075	380086	keystroke_g	g	n/a
190.162	0.09	380324	keystroke_h	h	n/a
190.2375	0.0595	380475	keystroke_t	t	n/a
190.3575	0.06	380715	keystroke_Key.space	Key.space	n/a
190.5375	0.1055	381075	keystroke_a	a	n/a
190.7625	0.06	381525	keystroke_s	s	n/a
190.8975	0.1055	381795	keystroke_s	s	n/a
191.122	0.09	382244	keystroke_u	u	n/a
191.2575	0.09	382515	keystroke_r	r	n/a
191.453	0.0745	382906	keystroke_e	e	n/a
191.6325	0.0745	383265	keystroke_d	d	n/a
191.767	0.045	383534	keystroke_Key.space	Key.space	n/a
191.873	0.119	383746	keystroke_a	a	n/a
192.1125	0.0755	384225	keystroke_c	c	n/a
192.368	0.059	384736	keystroke_t	t	n/a
192.578	0.074	385156	keystroke_r	r	n/a
193.328	0.074	386656	keystroke_e	e	n/a
193.5975	0.06	387195	keystroke_s	s	n/a
193.778	0.06	387556	keystroke_s	s	n/a
193.898	0.1045	387796	keystroke_Key.enter	Key.enter	n/a
194.0095	5.5445	388019	prompt	n/a	choice friends list paperback\n
194.753	0.0895	389506	keystroke_c	c	n/a
194.8575	0.06	389715	keystroke_h	h	n/a
195.0075	0.1055	390015	keystroke_o	o	n/a
195.1425	0.105	390285	keystroke_i	i	n/a
195.2325	0.09	390465	keystroke_c	c	n/a
195.413	0.0745	390826	keystroke_e	e	n/a
195.5475	0.075	391095	keystroke_Key.space	Key.space	n/a
195.697	0.091	391394	keystroke_f	f	n/a
195.893	0.045	391786	keystroke_r	r	n/a
196.1025	0.075	392205	keystroke_i	i	n/a
196.297	0.075	392594	keystroke_e	e	n/a
196.3575	0.1345	392715	keystroke_n	n	n/a
196.5075	0.0595	393015	keystroke_d	d	n/a
196.628	0.0745	393256	keystroke_s	s	n/a
196.762	0.075	393524	keystroke_Key.space	Key.space	n/a
196.972	0.0905	393944	keystroke_l	l	n/a
197.078	0.1195	394156	keystroke_i	i	n/a
197.1825	0.09	394365	keystroke_s	s	n/a
197.2875	0.09	394575	keystroke_t	t	n/a
197.4225	0.06	394845	keystroke_Key.space	Key.space	n/a
197.6175	0.105	395235	keystroke_p	p	n/a
197.7235	0.119	395447	keystroke_a	a	n/a
197.858	0.1045	395716	keystroke_p	p	n/a
197.9625	0.09	395925	keystroke_e	e	n/a
198.038	0.1195	396076	keystroke_r	r	n/a
198.1725	0.045	396345	keystroke_Key.space	Key.space	n/a
198.592	0.09	397184	keystroke_Key.backspace	Key.backspace	n/a
198.773	0.074	397546	keystroke_b	b	n/a
198.893	0.119	397786	keystroke_a	a	n/a
199.132	0.0915	398264	keystroke_c	c	n/a
199.238	0.12	398476	keystroke_k	k	n/a
199.448	0.1045	398896	keystroke_Key.enter	Key.enter	n/a
199.557	5.442	399114	prompt	n/a	aluminum assisted sims door\n
200.243	0.1195	400486	keystroke_a	a	n/a
200.3625	0.076	400725	keystroke_l	l	n/a
200.557	0.091	401114	keystroke_u	u	n/a
200.903	0.075	401806	keystroke_m	m	n/a
201.038	0.105	402076	keystroke_i	i	n/a
201.203	0.089	402406	keystroke_n	n	n/a
201.473	0.0895	402946	keystroke_u	u	n/a
201.6525	0.1055	403305	keystroke_m	m	n/a
201.848	0.09	403696	keystroke_Key.space	Key.space	n/a
202.043	0.1045	404086	keystroke_a	a	n/a
202.238	0.0745	404476	keystroke_s	s	n/a
202.387	0.075	404774	keystroke_s	s	n/a
202.522	0.0915	405044	keystroke_i	i	n/a
202.8375	0.075	405675	keystroke_t	t	n/a
203.0175	0.075	406035	keystroke_e	e	n/a
203.2125	0.075	406425	keystroke_d	d	n/a
203.3475	0.06	406695	keystroke_Key.space	Key.space	n/a
203.558	0.105	407116	keystroke_s	s	n/a
203.693	0.075	407386	keystroke_i	i	n/a
203.813	0.134	407626	keystroke_m	m	n/a
204.0075	0.09	408015	keystroke_s	s	n/a
204.1875	0.06	408375	keystroke_Key.space	Key.space	n/a
204.3835	0.0895	408767	keystroke_d	d	n/a
204.5025	0.075	409005	keystroke_o	o	n/a
204.6525	0.0905	409305	keystroke_o	o	n/a
204.773	0.0745	409546	keystroke_r	r	n/a
204.907	0.0905	409814	keystroke_Key.enter	Key.enter	n/a
205.0055	9.8345	410011	prompt	n/a	possibly vertical technical exchange\n
205.6585	0.09	411317	keystroke_p	p	n/a
205.8375	0.09	411675	keystroke_o	o	n/a
205.973	0.0745	411946	keystroke_s	s	n/a
206.138	0.059	412276	keystroke_s	s	n/a
206.257	0.09	412514	keystroke_i	i	n/a
206.5425	0.0755	413085	keystroke_b	b	n/a
206.948	0.075	413896	keystroke_y	y	n/a
207.533	0.074	415066	keystroke_Key.backspace	Key.backspace	n/a
207.803	0.06	415606	keystroke_l	l	n/a
207.9375	0.09	415875	keystroke_y	y	n/a
208.088	0.0595	416176	keystroke_Key.space	Key.space	n/a
208.4325	0.075	416865	keystroke_v	v	n/a
208.5525	0.075	417105	keystroke_i	i	n/a
208.6425	0.09	417285	keystroke_e	e	n/a
208.7175	0.09	417435	keystroke_r	r	n/a
209.213	0.075	418426	keystroke_t	t	n/a
209.3475	0.075	418695	keystroke_i	i	n/a
209.438	0.075	418876	keystroke_c	c	n/a
209.543	0.1345	419086	keystroke_a	a	n/a
209.693	0.1195	419386	keystroke_l	l	n/a
209.7975	0.06	419595	keystroke_Key.space	Key.space	n/a
210.037	0.075	420074	keystroke_t	t	n/a
210.2775	0.09	420555	keystroke_t	t	n/a
210.772	0.075	421544	keystroke_Key.backspace	Key.backspace	n/a
211.043	0.0745	422086	keystroke_e	e	n/a
211.3725	0.075	422745	keystroke_c	c	n/a
211.493	0.075	422986	keystroke_h	h	n/a
212.0625	0.06	424125	keystroke_n	n	n/a
212.198	0.0745	424396	keystroke_i	i	n/a
212.3775	0.0755	424755	keystroke_c	c	n/a
212.483	0.105	424966	keystroke_a	a	n/a
212.603	0.105	425206	keystroke_l	l	n/a
212.723	0.075	425446	keystroke_Key.space	Key.space	n/a
212.9025	0.0755	425805	keystroke_e	e	n/a
213.1125	0.09	426225	keystroke_x	x	n/a
213.4125	0.09	426825	keystroke_a	a	n/a
213.848	0.0745	427696	keystroke_Key.backspace	Key.backspace	n/a
214.013	0.075	428026	keystroke_c	c	n/a
214.178	0.045	428356	keystroke_h	h	n/a
214.2375	0.1055	428475	keystroke_a	a	n/a
214.358	0.1195	428716	keystroke_n	n	n/a
214.4625	0.0905	428925	keystroke_g	g	n/a
214.568	0.09	429136	keystroke_e	e	n/a
214.7175	0.1205	429435	keystroke_Key.enter	Key.enter	n/a
214.8615	4.958	429723	prompt	n/a	share remark payroll hotel\n
215.4975	0.0895	430995	keystroke_s	s	n/a
215.6025	0.0755	431205	keystroke_h	h	n/a
215.7225	0.1045	431445	keystroke_a	a	n/a
215.7975	0.135	431595	keystroke_r	r	n/a
215.9025	0.12	431805	keystroke_e	e	n/a
216.053	0.0745	432106	keystroke_Key.space	Key.space	n/a
216.278	0.1045	432556	keystroke_r	r	n/a
216.3975	0.09	432795	keystroke_e	e	n/a
216.638	0.1045	433276	keystroke_m	m	n/a
216.6975	0.135	433395	keystroke_a	a	n/a
216.7725	0.15	433545	keystroke_r	r	n/a
216.998	0.1045	433996	keystroke_k	k	n/a
217.1625	0.045	434325	keystroke_Key.space	Key.space	n/a
217.3575	0.075	434715	keystroke_p	p	n/a
217.448	0.1045	434896	keystroke_a	a	n/a
217.538	0.105	435076	keystroke_y	y	n/a
217.8225	0.0905	435645	keystroke_r	r	n/a
217.943	0.09	435886	keystroke_o	o	n/a
218.198	0.0595	436396	keystroke_l	l	n/a
218.333	0.09	436666	keystroke_l	l	n/a
218.4525	0.075	436905	keystroke_Key.space	Key.space	n/a
218.6325	0.0755	437265	keystroke_h	h	n/a
218.7975	0.0905	437595	keystroke_o	o	n/a
219.128	0.105	438256	keystroke_t	t	n/a
219.382	0.0755	438764	keystroke_e	e	n/a
219.533	0.105	439066	keystroke_l	l	n/a
219.7275	0.0895	439455	keystroke_Key.enter	Key.enter	n/a
219.827	5.873	439654	prompt	n/a	finance bound essays spatial\n
220.553	0.09	441106	keystroke_f	f	n/a
220.658	0.075	441316	keystroke_i	i	n/a
220.838	0.104	441676	keystroke_n	n	n/a
220.988	0.105	441976	keystroke_a	a	n/a
221.423	0.09	442846	keystroke_n	n	n/a
221.603	0.0905	443206	keystroke_c	c	n/a
221.7975	0.0905	443595	keystroke_e	e	n/a
221.9475	0.06	443895	keystroke_Key.space	Key.space	n/a
222.2475	0.06	444495	keystroke_b	b	n/a
222.3375	0.12	444675	keystroke_o	o	n/a
222.3975	0.105	444795	keystroke_u	u	n/a
222.593	0.12	445186	keystroke_n	n	n/a
222.698	0.1345	445396	keystroke_d	d	n/a
222.8475	0.075	445695	keystroke_Key.space	Key.space	n/a
223.027	0.09	446054	keystroke_e	e	n/a
223.2675	0.0605	446535	keystroke_s	s	n/a
223.418	0.074	446836	keystroke_s	s	n/a
223.553	0.105	447106	keystroke_a	a	n/a
223.748	0.0895	447496	keystroke_y	y	n/a
223.8825	0.09	447765	keystroke_s	s	n/a
224.032	0.0755	448064	keystroke_Key.space	Key.space	n/a
224.2575	0.105	448515	keystroke_s	s	n/a
224.422	0.105	448844	keystroke_p	p	n/a
224.588	0.1045	449176	keystroke_a	a	n/a
224.9625	0.06	449925	keystroke_t	t	n/a
225.052	0.091	450104	keystroke_i	i	n/a
225.158	0.1195	450316	keystroke_a	a	n/a
225.3075	0.1355	450615	keystroke_l	l	n/a
225.622	0.0755	451244	keystroke_Key.enter	Key.enter	n/a
225.708	7.521	451416	prompt	n/a	constructed uniform tramadol style\n
226.613	0.059	453226	keystroke_c	c	n/a
226.6875	0.15	453375	keystroke_o	o	n/a
226.7775	0.1655	453555	keystroke_n	n	n/a
226.898	0.09	453796	keystroke_s	s	n/a
227.018	0.0895	454036	keystroke_t	t	n/a
227.558	0.0745	455116	keystroke_r	r	n/a
227.7525	0.0755	455505	keystroke_u	u	n/a
227.887	0.076	455774	keystroke_c	c	n/a
228.053	0.075	456106	keystroke_t	t	n/a
228.233	0.075	456466	keystroke_e	e	n/a
228.398	0.089	456796	keystroke_d	d	n/a
228.5175	0.0895	457035	keystroke_Key.space	Key.space	n/a
228.728	0.059	457456	keystroke_u	u	n/a
228.893	0.075	457786	keystroke_n	n	n/a
229.103	0.075	458206	keystroke_i	i	n/a
229.358	0.075	458716	keystroke_f	f	n/a
229.493	0.074	458986	keystroke_o	o	n/a
229.582	0.09	459164	keystroke_r	r	n/a
229.733	0.105	459466	keystroke_m	m	n/a
229.897	0.06	459794	keystroke_Key.space	Key.space	n/a
230.137	0.061	460274	keystroke_t	t	n/a
230.287	0.076	460574	keystroke_r	r	n/a
230.438	0.12	460876	keystroke_a	a	n/a
230.873	0.075	461746	keystroke_m	m	n/a
231.008	0.104	462016	keystroke_a	a	n/a
231.233	0.075	462466	keystroke_d	d	n/a
231.368	0.089	462736	keystroke_o	o	n/a
231.608	0.09	463216	keystroke_l	l	n/a
231.772	0.061	463544	keystroke_Key.space	Key.space	n/a
232.1325	0.1055	464265	keystroke_s	s	n/a
232.373	0.06	464746	keystroke_t	t	n/a
232.493	0.06	464986	keystroke_y	y	n/a
232.718	0.135	465436	keystroke_l	l	n/a
232.913	0.09	465826	keystroke_e	e	n/a
233.1525	0.0745	466305	keystroke_Key.enter	Key.enter	n/a
233.234	8.8155	466468	prompt	n/a	whatever columnists cheque delhi\n
234.143	0.09	468286	keystroke_w	w	n/a
234.218	0.09	468436	keystroke_h	h	n/a
234.338	0.135	468676	keystroke_a	a	n/a
234.443	0.12	468886	keystroke_t	t	n/a
234.6835	0.1045	469367	keystroke_e	e	n/a
234.758	0.149	469516	keystroke_r	r	n/a
235.313	0.104	470626	keystroke_Key.backspace	Key.backspace	n/a
235.448	0.075	470896	keystroke_v	v	n/a
235.583	0.12	471166	keystroke_e	e	n/a
235.688	0.12	471376	keystroke_r	r	n/a
235.822	0.076	471644	keystroke_Key.space	Key.space	n/a
236.108	0.105	472216	keystroke_s	s	n/a
236.243	0.074	472486	keystroke_o	o	n/a
236.438	0.06	472876	keystroke_l	l	n/a
236.573	0.105	473146	keystroke_u	u	n/a
236.768	0.105	473536	keystroke_m	m	n/a
238.073	0.09	476146	keystroke_n	n	n/a
238.643	0.075	477286	keystroke_i	i	n/a
238.763	0.12	477526	keystroke_s	s	n/a
238.898	0.075	477796	keystroke_t	t	n/a
239.063	0.105	478126	keystroke_s	s	n/a
239.243	0.045	478486	keystroke_Key.space	Key.space	n/a
239.453	0.0905	478906	keystroke_c	c	n/a
239.588	0.09	479176	keystroke_h	h	n/a
239.768	0.075	479536	keystroke_e	e	n/a
240.0525	0.105	480105	keystroke_q	q	n/a
240.2025	0.09	480405	keystroke_u	u	n/a
240.353	0.0745	480706	keystroke_e	e	n/a
240.5325	0.06	481065	keystroke_Key.space	Key.space	n/a
240.773	0.09	481546	keystroke_d	d	n/a
240.9675	0.0755	481935	keystroke_e	e	n/a
241.1625	0.105	482325	keystroke_l	l	n/a
241.4925	0.075	482985	keystroke_h	h	n/a
241.643	0.0895	483286	keystroke_i	i	n/a
241.9425	0.105	483885	keystroke_Key.enter	Key.enter	n/a
242.068	6.431	484136	prompt	n/a	gratuit first vast trance\n
242.9625	0.075	485925	keystroke_g	g	n/a
243.1275	0.0605	486255	keystroke_r	r	n/a
243.4875	0.105	486975	keystroke_a	a	n/a
244.1775	0.075	488355	keystroke_t	t	n/a
244.418	0.0595	488836	keystroke_u	u	n/a
244.5675	0.0905	489135	keystroke_i	i	n/a
244.7175	0.09	489435	keystroke_t	t	n/a
244.9125	0.045	489825	keystroke_Key.space	Key.space	n/a
245.213	0.0745	490426	keystroke_f	f	n/a
245.4525	0.0755	490905	keystroke_i	i	n/a
245.5725	0.06	491145	keystroke_r	r	n/a
245.7525	0.105	491505	keystroke_s	s	n/a
245.9025	0.06	491805	keystroke_t	t	n/a
246.0075	0.075	492015	keystroke_Key.space	Key.space	n/a
246.2475	0.06	492495	keystroke_v	v	n/a
246.4275	0.105	492855	keystroke_a	a	n/a
246.6825	0.075	493365	keystroke_s	s	n/a
246.8025	0.0905	493605	keystroke_t	t	n/a
246.9525	0.06	493905	keystroke_Key.space	Key.space	n/a
247.5075	0.06	495015	keystroke_t	t	n/a
247.6575	0.075	495315	keystroke_r	r	n/a
247.7925	0.105	495585	keystroke_a	a	n/a
247.9575	0.135	495915	keystroke_n	n	n/a
248.0475	0.0755	496095	keystroke_c	c	n/a
248.2425	0.06	496485	keystroke_e	e	n/a
248.3925	0.105	496785	keystroke_Key.enter	Key.enter	n/a
248.5045	7.2395	497009	prompt	n/a	nail home increased subjective\n
249.3525	0.0745	498705	keystroke_n	n	n/a
249.428	0.119	498856	keystroke_a	a	n/a
249.5625	0.0595	499125	keystroke_i	i	n/a
249.712	0.106	499424	keystroke_l	l	n/a
249.802	0.075	499604	keystroke_Key.space	Key.space	n/a
250.0125	0.045	500025	keystroke_h	h	n/a
250.1325	0.151	500265	keystroke_o	o	n/a
250.2525	0.135	500505	keystroke_m	m	n/a
250.3575	0.105	500715	keystroke_e	e	n/a
250.4775	0.06	500955	keystroke_Key.space	Key.space	n/a
250.658	0.0895	501316	keystroke_i	i	n/a
250.7625	0.135	501525	keystroke_n	n	n/a
250.9425	0.0905	501885	keystroke_c	c	n/a
251.138	0.09	502276	keystroke_r	r	n/a
251.2725	0.075	502545	keystroke_e	e	n/a
251.408	0.1495	502816	keystroke_a	a	n/a
251.618	0.105	503236	keystroke_s	s	n/a
251.7825	0.09	503565	keystroke_e	e	n/a
251.9775	0.0905	503955	keystroke_d	d	n/a
252.112	0.06	504224	keystroke_Key.space	Key.space	n/a
252.3675	0.0905	504735	keystroke_s	s	n/a
252.488	0.105	504976	keystroke_u	u	n/a
252.6525	0.06	505305	keystroke_b	b	n/a
253.2075	0.0755	506415	keystroke_e	e	n/a
253.9425	0.075	507885	keystroke_Key.backspace	Key.backspace	n/a
254.5425	0.09	509085	keystroke_j	j	n/a
254.6175	0.09	509235	keystroke_e	e	n/a
254.8125	0.075	509625	keystroke_c	c	n/a
255.0075	0.075	510015	keystroke_t	t	n/a
255.1725	0.075	510345	keystroke_i	i	n/a
255.263	0.0745	510526	keystroke_v	v	n/a
255.397	0.0605	510794	keystroke_e	e	n/a
255.6375	0.105	511275	keystroke_Key.enter	Key.enter	n/a
255.749	6.025	511498	prompt	n/a	appearing cardiff rhythm kelly\n
256.3725	0.105	512745	keystroke_a	a	n/a
256.538	0.0445	513076	keystroke_p	p	n/a
256.6725	0.0905	513345	keystroke_p	p	n/a
256.7635	0.0895	513527	keystroke_e	e	n/a
256.853	0.1345	513706	keystroke_a	a	n/a
256.9425	0.1355	513885	keystroke_r	r	n/a
257.2575	0.135	514515	keystroke_i	i	n/a
257.318	0.2095	514636	keystroke_n	n	n/a
257.4225	0.1355	514845	keystroke_g	g	n/a
257.5275	0.0895	515055	keystroke_Key.space	Key.space	n/a
257.768	0.0895	515536	keystroke_c	c	n/a
257.9925	0.1195	515985	keystroke_a	a	n/a
258.188	0.089	516376	keystroke_r	r	n/a
258.413	0.105	516826	keystroke_d	d	n/a
258.5925	0.09	517185	keystroke_i	i	n/a
258.788	0.0745	517576	keystroke_f	f	n/a
258.9525	0.075	517905	keystroke_f	f	n/a
259.0575	0.0745	518115	keystroke_Key.space	Key.space	n/a
259.282	0.075	518564	keystroke_r	r	n/a
259.6425	0.075	519285	keystroke_h	h	n/a
259.838	0.075	519676	keystroke_y	y	n/a
260.1525	0.0745	520305	keystroke_t	t	n/a
260.257	0.09	520514	keystroke_h	h	n/a
260.498	0.105	520996	keystroke_m	m	n/a
260.6475	0.0745	521295	keystroke_Key.space	Key.space	n/a
260.918	0.09	521836	keystroke_k	k	n/a
261.038	0.074	522076	keystroke_e	e	n/a
261.1875	0.0745	522375	keystroke_l	l	n/a
261.338	0.089	522676	keystroke_l	l	n/a
261.4725	0.0895	522945	keystroke_y	y	n/a
261.697	0.075	523394	keystroke_Key.enter	Key.enter	n/a
261.778	7.271	523556	prompt	n/a	watts jewelry pmid might\n
262.6125	0.075	525225	keystroke_w	w	n/a
262.7335	0.1045	525467	keystroke_a	a	n/a
262.8385	0.119	525677	keystroke_t	t	n/a
263.123	0.075	526246	keystroke_t	t	n/a
263.3475	0.09	526695	keystroke_s	s	n/a
263.4825	0.075	526965	keystroke_Key.space	Key.space	n/a
263.7825	0.09	527565	keystroke_j	j	n/a
263.918	0.0895	527836	keystroke_e	e	n/a
264.1575	0.09	528315	keystroke_w	w	n/a
264.338	0.075	528676	keystroke_e	e	n/a
264.878	0.1045	529756	keystroke_l	l	n/a
265.253	0.0745	530506	keystroke_r	r	n/a
265.3575	0.105	530715	keystroke_y	y	n/a
265.4915	0.061	530983	keystroke_Key.space	Key.space	n/a
266.4975	0.045	532995	keystroke_p	p	n/a
266.7065	0.0915	533413	keystroke_m	m	n/a
266.843	0.0895	533686	keystroke_i	i	n/a
266.9925	0.09	533985	keystroke_d	d	n/a
268.0125	0.06	536025	keystroke_Key.space	Key.space	n/a
268.2525	0.09	536505	keystroke_m	m	n/a
268.4025	0.0905	536805	keystroke_i	i	n/a
268.5075	0.075	537015	keystroke_g	g	n/a
268.5975	0.105	537195	keystroke_h	h	n/a
268.7035	0.075	537407	keystroke_t	t	n/a
268.9575	0.09	537915	keystroke_Key.enter	Key.enter	n/a
269.0635	8.9855	538127	prompt	n/a	distance support slovakia interracial\n
269.962	0.0755	539924	keystroke_d	d	n/a
270.052	0.09	540104	keystroke_i	i	n/a
270.157	0.1045	540314	keystroke_s	s	n/a
270.368	0.06	540736	keystroke_t	t	n/a
270.4875	0.121	540975	keystroke_a	a	n/a
270.6225	0.0905	541245	keystroke_n	n	n/a
270.728	0.0895	541456	keystroke_c	c	n/a
270.9225	0.075	541845	keystroke_e	e	n/a
271.0425	0.09	542085	keystroke_Key.space	Key.space	n/a
271.1925	0.09	542385	keystroke_s	s	n/a
271.2975	0.09	542595	keystroke_u	u	n/a
271.4925	0.09	542985	keystroke_p	p	n/a
271.6275	0.09	543255	keystroke_p	p	n/a
271.7925	0.091	543585	keystroke_o	o	n/a
271.8675	0.075	543735	keystroke_r	r	n/a
272.047	0.061	544094	keystroke_t	t	n/a
272.152	0.045	544304	keystroke_Key.space	Key.space	n/a
272.407	0.091	544814	keystroke_s	s	n/a
272.7975	0.09	545595	keystroke_l	l	n/a
273.008	0.089	546016	keystroke_o	o	n/a
273.2935	0.089	546587	keystroke_v	v	n/a
273.4425	0.12	546885	keystroke_a	a	n/a
273.7425	0.0745	547485	keystroke_k	k	n/a
273.9225	0.0745	547845	keystroke_i	i	n/a
274.0575	0.0295	548115	keystroke_s	s	n/a
274.1025	0.2245	548205	keystroke_a	a	n/a
274.567	0.075	549134	keystroke_Key.backspace	Key.backspace	n/a
274.7175	0.09	549435	keystroke_Key.backspace	Key.backspace	n/a
275.257	0.105	550514	keystroke_a	a	n/a
275.497	0.075	550994	keystroke_Key.space	Key.space	n/a
275.842	0.0745	551684	keystroke_i	i	n/a
275.9625	0.1645	551925	keystroke_n	n	n/a
276.038	0.104	552076	keystroke_t	t	n/a
276.187	0.105	552374	keystroke_e	e	n/a
276.277	0.105	552554	keystroke_r	r	n/a
276.682	0.075	553364	keystroke_r	r	n/a
276.9525	0.105	553905	keystroke_a	a	n/a
277.2825	0.075	554565	keystroke_c	c	n/a
277.4025	0.09	554805	keystroke_i	i	n/a
277.522	0.0905	555044	keystroke_a	a	n/a
277.627	0.1355	555254	keystroke_l	l	n/a
277.957	0.09	555914	keystroke_Key.enter	Key.enter	n/a
278.056	7.2675	556112	prompt	n/a	programmer refinance milk ugly\n
278.752	0.0895	557504	keystroke_p	p	n/a
278.8725	0.075	557745	keystroke_r	r	n/a
278.9775	0.09	557955	keystroke_o	o	n/a
279.3075	0.09	558615	keystroke_g	g	n/a
279.5175	0.0755	559035	keystroke_r	r	n/a
279.713	0.119	559426	keystroke_a	a	n/a
280.223	0.0745	560446	keystroke_m	m	n/a
280.387	0.06	560774	keystroke_m	m	n/a
280.447	0.0905	560894	keystroke_e	e	n/a
280.5225	0.1355	561045	keystroke_r	r	n/a
280.6725	0.074	561345	keystroke_Key.space	Key.space	n/a
280.9575	0.089	561915	keystroke_r	r	n/a
281.0615	0.091	562123	keystroke_e	e	n/a
281.3175	0.059	562635	keystroke_f	f	n/a
281.4225	0.135	562845	keystroke_i	i	n/a
281.5125	0.225	563025	keystroke_n	n	n/a
282.322	0.045	564644	keystroke_a	a	n/a
282.382	0.1055	564764	keystroke_n	n	n/a
282.4725	0.075	564945	keystroke_c	c	n/a
282.6525	0.06	565305	keystroke_e	e	n/a
282.7715	0.076	565543	keystroke_Key.space	Key.space	n/a
283.1325	0.0755	566265	keystroke_m	m	n/a
283.2525	0.104	566505	keystroke_i	i	n/a
283.4325	0.134	566865	keystroke_l	l	n/a
283.7025	0.075	567405	keystroke_k	k	n/a
283.8825	0.0595	567765	keystroke_Key.space	Key.space	n/a
284.063	0.0745	568126	keystroke_u	u	n/a
284.422	0.0755	568844	keystroke_g	g	n/a
284.7685	0.0735	569537	keystroke_l	l	n/a
284.932	0.075	569864	keystroke_y	y	n/a
285.232	0.09	570464	keystroke_Key.enter	Key.enter	n/a
285.33	7.4495	570660	prompt	n/a	cindy recipe attract numeric\n
286.1775	0.0745	572355	keystroke_c	c	n/a
286.2825	0.0745	572565	keystroke_i	i	n/a
286.402	0.1195	572804	keystroke_n	n	n/a
286.6275	0.09	573255	keystroke_d	d	n/a
286.792	0.09	573584	keystroke_y	y	n/a
286.957	0.0605	573914	keystroke_Key.space	Key.space	n/a
287.288	0.104	574576	keystroke_r	r	n/a
287.377	0.0905	574754	keystroke_e	e	n/a
287.6625	0.0745	575325	keystroke_c	c	n/a
287.827	0.09	575654	keystroke_i	i	n/a
288.217	0.091	576434	keystroke_p	p	n/a
288.3675	0.1045	576735	keystroke_e	e	n/a
288.532	0.06	577064	keystroke_Key.space	Key.space	n/a
288.727	0.15	577454	keystroke_a	a	n/a
288.892	0.076	577784	keystroke_t	t	n/a
289.043	0.0745	578086	keystroke_t	t	n/a
289.3115	0.1355	578623	keystroke_a	a	n/a
289.792	0.0755	579584	keystroke_Key.backspace	Key.backspace	n/a
289.9425	0.0755	579885	keystroke_r	r	n/a
290.092	0.09	580184	keystroke_a	a	n/a
290.3175	0.0895	580635	keystroke_c	c	n/a
290.512	0.075	581024	keystroke_t	t	n/a
290.632	0.075	581264	keystroke_Key.space	Key.space	n/a
290.8725	0.075	581745	keystroke_n	n	n/a
291.067	0.076	582134	keystroke_u	u	n/a
291.337	0.0905	582674	keystroke_m	m	n/a
291.8025	0.045	583605	keystroke_e	e	n/a
292.2665	0.015	584533	keystroke_r	r	n/a
292.297	0.0905	584594	keystroke_i	i	n/a
292.4025	0.0745	584805	keystroke_c	c	n/a
292.687	0.0905	585374	keystroke_Key.enter	Key.enter	n/a
292.787	8.033	585574	prompt	n/a	systematic requests points history\n
293.4825	0.09	586965	keystroke_s	s	n/a
293.647	0.09	587294	keystroke_y	y	n/a
293.7825	0.1045	587565	keystroke_s	s	n/a
293.9915	0.09	587983	keystroke_t	t	n/a
294.157	0.0755	588314	keystroke_e	e	n/a
294.2915	0.1055	588583	keystroke_m	m	n/a
294.6375	0.105	589275	keystroke_a	a	n/a
294.9665	0.091	589933	keystroke_t	t	n/a
295.0875	0.075	590175	keystroke_i	i	n/a
295.642	0.0895	591284	keystroke_c	c	n/a
295.882	0.0595	591764	keystroke_Key.space	Key.space	n/a
296.3315	0.091	592663	keystroke_r	r	n/a
296.4365	0.0905	592873	keystroke_e	e	n/a
296.632	0.0895	593264	keystroke_q	q	n/a
296.752	0.0905	593504	keystroke_u	u	n/a
296.933	0.0745	593866	keystroke_e	e	n/a
297.053	0.1045	594106	keystroke_s	s	n/a
297.1725	0.09	594345	keystroke_t	t	n/a
297.352	0.106	594704	keystroke_s	s	n/a
297.502	0.075	595004	keystroke_Key.space	Key.space	n/a
297.743	0.09	595486	keystroke_p	p	n/a
297.9215	0.0755	595843	keystroke_o	o	n/a
298.0725	0.135	596145	keystroke_i	i	n/a
298.1765	0.1665	596353	keystroke_n	n	n/a
298.3125	0.075	596625	keystroke_t	t	n/a
298.477	0.1045	596954	keystroke_s	s	n/a
298.6725	0.09	597345	keystroke_Key.space	Key.space	n/a
299.0915	0.06	598183	keystroke_h	h	n/a
299.1975	0.105	598395	keystroke_i	i	n/a
299.3175	0.105	598635	keystroke_s	s	n/a
299.4675	0.09	598935	keystroke_t	t	n/a
299.6325	0.09	599265	keystroke_o	o	n/a
300.127	0.075	600254	keystroke_r	r	n/a
300.2775	0.06	600555	keystroke_y	y	n/a
300.727	0.09	601454	keystroke_Key.enter	Key.enter	n/a
300.8305	9.333	601661	prompt	n/a	tourist characteristic executive perth\n
301.747	0.0755	603494	keystroke_t	t	n/a
301.837	0.136	603674	keystroke_o	o	n/a
301.942	0.135	603884	keystroke_u	u	n/a
302.287	0.09	604574	keystroke_r	r	n/a
302.6625	0.105	605325	keystroke_s	s	n/a
302.9175	0.105	605835	keystroke_i	i	n/a
303.3675	0.0595	606735	keystroke_Key.backspace	Key.backspace	n/a
303.4875	0.0895	606975	keystroke_Key.backspace	Key.backspace	n/a
303.697	0.1045	607394	keystroke_i	i	n/a
303.7875	0.104	607575	keystroke_s	s	n/a
303.9075	0.1045	607815	keystroke_t	t	n/a
304.252	0.045	608504	keystroke_Key.space	Key.space	n/a
304.448	0.0895	608896	keystroke_c	c	n/a
304.552	0.09	609104	keystroke_h	h	n/a
304.6275	0.12	609255	keystroke_a	a	n/a
304.8075	0.0895	609615	keystroke_r	r	n/a
304.9875	0.105	609975	keystroke_a	a	n/a
305.2275	0.059	610455	keystroke_c	c	n/a
305.4375	0.075	610875	keystroke_t	t	n/a
305.6325	0.0895	611265	keystroke_e	e	n/a
305.707	0.1055	611414	keystroke_r	r	n/a
305.978	0.104	611956	keystroke_i	i	n/a
306.113	0.089	612226	keystroke_s	s	n/a
306.2625	0.0755	612525	keystroke_t	t	n/a
306.5775	0.0905	613155	keystroke_i	i	n/a
306.7125	0.09	613425	keystroke_c	c	n/a
306.8915	0.075	613783	keystroke_Key.space	Key.space	n/a
307.1175	0.0745	614235	keystroke_e	e	n/a
307.3575	0.09	614715	keystroke_x	x	n/a
307.687	0.09	615374	keystroke_e	e	n/a
308.062	0.075	616124	keystroke_c	c	n/a
308.212	0.105	616424	keystroke_u	u	n/a
308.482	0.09	616964	keystroke_t	t	n/a
308.6025	0.105	617205	keystroke_i	i	n/a
308.7525	0.045	617505	keystroke_c	c	n/a
308.843	0.1035	617686	keystroke_e	e	n/a
308.9615	0.075	617923	keystroke_Key.space	Key.space	n/a
309.1575	0.105	618315	keystroke_p	p	n/a
309.2775	0.09	618555	keystroke_e	e	n/a
309.353	0.0895	618706	keystroke_r	r	n/a
309.6675	0.075	619335	keystroke_t	t	n/a
309.7125	0.075	619425	keystroke_h	h	n/a
310.0875	0.0745	620175	keystroke_Key.enter	Key.enter	n/a
310.177	8.057	620354	prompt	n/a	loved cameroon ultra remind\n
311.0025	0.075	622005	keystroke_l	l	n/a
311.1675	0.075	622335	keystroke_o	o	n/a
311.2575	0.075	622515	keystroke_v	v	n/a
311.3925	0.09	622785	keystroke_e	e	n/a
311.5725	0.075	623145	keystroke_d	d	n/a
311.6765	0.091	623353	keystroke_Key.space	Key.space	n/a
312.0535	0.073	624107	keystroke_c	c	n/a
312.2175	0.105	624435	keystroke_a	a	n/a
312.4275	0.1195	624855	keystroke_m	m	n/a
312.5915	0.0765	625183	keystroke_e	e	n/a
312.817	0.0605	625634	keystroke_r	r	n/a
312.9825	0.06	625965	keystroke_r	r	n/a
313.1325	0.09	626265	keystroke_o	o	n/a
313.2975	0.075	626595	keystroke_n	n	n/a
313.8975	0.044	627795	keystroke_Key.backspace	Key.backspace	n/a
314.0475	0.09	628095	keystroke_Key.backspace	Key.backspace	n/a
314.632	0.075	629264	keystroke_Key.backspace	Key.backspace	n/a
315.0825	0.075	630165	keystroke_o	o	n/a
315.247	0.0605	630494	keystroke_o	o	n/a
315.3375	0.105	630675	keystroke_n	n	n/a
315.4865	0.0605	630973	keystroke_Key.space	Key.space	n/a
315.8175	0.09	631635	keystroke_u	u	n/a
316.1325	0.09	632265	keystroke_l	l	n/a
316.3575	0.074	632715	keystroke_t	t	n/a
316.5825	0.0755	633165	keystroke_r	r	n/a
316.7325	0.104	633465	keystroke_a	a	n/a
316.9125	0.104	633825	keystroke_Key.space	Key.space	n/a
317.1815	0.106	634363	keystroke_r	r	n/a
317.3025	0.09	634605	keystroke_e	e	n/a
317.5125	0.0755	635025	keystroke_m	m	n/a
317.632	0.165	635264	keystroke_i	i	n/a
317.752	0.165	635504	keystroke_n	n	n/a
317.8865	0.106	635773	keystroke_d	d	n/a
318.1275	0.105	636255	keystroke_Key.enter	Key.enter	n/a
318.244	8.167	636488	prompt	n/a	excluded delete smith offensive\n
318.892	0.075	637784	keystroke_e	e	n/a
319.1175	0.105	638235	keystroke_x	x	n/a
319.568	0.09	639136	keystroke_c	c	n/a
319.688	0.1035	639376	keystroke_l	l	n/a
319.8065	0.121	639613	keystroke_u	u	n/a
320.002	0.09	640004	keystroke_e	e	n/a
320.6775	0.075	641355	keystroke_Key.backspace	Key.backspace	n/a
320.887	0.091	641774	keystroke_d	d	n/a
321.2925	0.09	642585	keystroke_e	e	n/a
321.4725	0.09	642945	keystroke_d	d	n/a
321.6375	0.09	643275	keystroke_Key.space	Key.space	n/a
321.8325	0.0895	643665	keystroke_d	d	n/a
322.027	0.0605	644054	keystroke_e	e	n/a
322.2225	0.1045	644445	keystroke_l	l	n/a
322.342	0.076	644684	keystroke_e	e	n/a
322.478	0.0895	644956	keystroke_t	t	n/a
322.6725	0.075	645345	keystroke_e	e	n/a
322.8675	0.06	645735	keystroke_Key.space	Key.space	n/a
323.3475	0.104	646695	keystroke_s	s	n/a
323.5575	0.075	647115	keystroke_m	m	n/a
323.7075	0.09	647415	keystroke_i	i	n/a
323.978	0.09	647956	keystroke_t	t	n/a
324.0825	0.104	648165	keystroke_h	h	n/a
324.1725	0.0745	648345	keystroke_Key.space	Key.space	n/a
324.413	0.089	648826	keystroke_o	o	n/a
324.577	0.0605	649154	keystroke_f	f	n/a
324.7275	0.0745	649455	keystroke_f	f	n/a
324.892	0.075	649784	keystroke_e	e	n/a
325.448	0.105	650896	keystroke_n	n	n/a
325.763	0.09	651526	keystroke_s	s	n/a
325.868	0.09	651736	keystroke_i	i	n/a
325.942	0.091	651884	keystroke_v	v	n/a
326.0625	0.105	652125	keystroke_e	e	n/a
326.3025	0.105	652605	keystroke_Key.enter	Key.enter	n/a
326.438	5.266	652876	prompt	n/a	ship centers planner custom\n
327.113	0.1045	654226	keystroke_s	s	n/a
327.1875	0.0755	654375	keystroke_h	h	n/a
327.2635	0.119	654527	keystroke_i	i	n/a
327.4275	0.0905	654855	keystroke_p	p	n/a
327.563	0.0735	655126	keystroke_Key.space	Key.space	n/a
327.787	0.121	655574	keystroke_c	c	n/a
328.0275	0.0605	656055	keystroke_e	e	n/a
328.3575	0.09	656715	keystroke_n	n	n/a
328.5525	0.0905	657105	keystroke_t	t	n/a
328.7175	0.09	657435	keystroke_e	e	n/a
328.7925	0.09	657585	keystroke_r	r	n/a
328.988	0.104	657976	keystroke_s	s	n/a
329.137	0.06	658274	keystroke_Key.space	Key.space	n/a
329.3025	0.09	658605	keystroke_p	p	n/a
329.4825	0.12	658965	keystroke_l	l	n/a
329.6175	0.105	659235	keystroke_a	a	n/a
329.873	0.0595	659746	keystroke_n	n	n/a
330.0075	0.075	660015	keystroke_n	n	n/a
330.0525	0.09	660105	keystroke_e	e	n/a
330.1275	0.134	660255	keystroke_r	r	n/a
330.2475	0.09	660495	keystroke_Key.space	Key.space	n/a
330.6225	0.0905	661245	keystroke_c	c	n/a
330.7575	0.0905	661515	keystroke_u	u	n/a
330.922	0.09	661844	keystroke_s	s	n/a
331.073	0.075	662146	keystroke_t	t	n/a
331.193	0.1345	662386	keystroke_o	o	n/a
331.313	0.119	662626	keystroke_m	m	n/a
331.5975	0.1045	663195	keystroke_Key.enter	Key.enter	n/a
331.709	6.5365	663418	prompt	n/a	pork citizenship bicycle blood\n
332.317	0.105	664634	keystroke_p	p	n/a
332.4975	0.09	664995	keystroke_o	o	n/a
332.6025	0.09	665205	keystroke_r	r	n/a
332.7825	0.0755	665565	keystroke_t	t	n/a
333.142	0.0755	666284	keystroke_Key.backspace	Key.backspace	n/a
333.3825	0.089	666765	keystroke_k	k	n/a
333.532	0.0745	667064	keystroke_Key.space	Key.space	n/a
333.803	0.089	667606	keystroke_c	c	n/a
333.938	0.104	667876	keystroke_i	i	n/a
334.118	0.089	668236	keystroke_t	t	n/a
334.238	0.1045	668476	keystroke_i	i	n/a
334.567	0.1055	669134	keystroke_z	z	n/a
334.762	0.075	669524	keystroke_e	e	n/a
334.883	0.09	669766	keystroke_n	n	n/a
335.063	0.105	670126	keystroke_s	s	n/a
335.153	0.074	670306	keystroke_h	h	n/a
335.2425	0.105	670485	keystroke_i	i	n/a
335.378	0.105	670756	keystroke_p	p	n/a
335.497	0.0605	670994	keystroke_Key.space	Key.space	n/a
335.6625	0.06	671325	keystroke_b	b	n/a
335.7535	0.1035	671507	keystroke_i	i	n/a
336.037	0.076	672074	keystroke_c	c	n/a
336.173	0.089	672346	keystroke_y	y	n/a
336.743	0.089	673486	keystroke_c	c	n/a
336.8775	0.1055	673755	keystroke_l	l	n/a
336.998	0.075	673996	keystroke_e	e	n/a
337.1175	0.0745	674235	keystroke_Key.space	Key.space	n/a
337.4025	0.075	674805	keystroke_b	b	n/a
337.5375	0.09	675075	keystroke_l	l	n/a
337.7025	0.075	675405	keystroke_o	o	n/a
337.8675	0.09	675735	keystroke_o	o	n/a
337.988	0.0895	675976	keystroke_d	d	n/a
338.1375	0.105	676275	keystroke_Key.enter	Key.enter	n/a
338.2545	8.0595	676509	prompt	n/a	modular hyundai equity transition\n
339.2325	0.09	678465	keystroke_m	m	n/a
339.368	0.1055	678736	keystroke_o	o	n/a
339.8325	0.0755	679665	keystroke_d	d	n/a
339.938	0.0895	679876	keystroke_u	u	n/a
340.163	0.1195	680326	keystroke_l	l	n/a
340.253	0.1195	680506	keystroke_a	a	n/a
340.3425	0.105	680685	keystroke_r	r	n/a
340.5375	0.0745	681075	keystroke_Key.space	Key.space	n/a
340.747	0.075	681494	keystroke_h	h	n/a
340.958	0.075	681916	keystroke_y	y	n/a
342.037	0.076	684074	keystroke_u	u	n/a
342.2625	0.0905	684525	keystroke_n	n	n/a
342.5325	0.09	685065	keystroke_d	d	n/a
342.6825	0.12	685365	keystroke_a	a	n/a
342.8175	0.0905	685635	keystroke_i	i	n/a
343.0725	0.06	686145	keystroke_Key.space	Key.space	n/a
343.4025	0.0905	686805	keystroke_e	e	n/a
343.673	0.0745	687346	keystroke_q	q	n/a
343.7625	0.0605	687525	keystroke_u	u	n/a
344.0175	0.014	688035	keystroke_i	i	n/a
344.1825	0.0755	688365	keystroke_t	t	n/a
344.273	0.09	688546	keystroke_y	y	n/a
344.377	0.075	688754	keystroke_Key.space	Key.space	n/a
344.738	0.0595	689476	keystroke_t	t	n/a
344.873	0.075	689746	keystroke_r	r	n/a
345.023	0.105	690046	keystroke_a	a	n/a
345.173	0.104	690346	keystroke_n	n	n/a
345.413	0.089	690826	keystroke_s	s	n/a
345.532	0.075	691064	keystroke_i	i	n/a
345.622	0.0755	691244	keystroke_t	t	n/a
345.7125	0.12	691425	keystroke_i	i	n/a
345.8025	0.1645	691605	keystroke_o	o	n/a
345.9075	0.18	691815	keystroke_n	n	n/a
346.207	0.1055	692414	keystroke_Key.enter	Key.enter	n/a
346.3255	4.9235	692651	prompt	n/a	folk first quoted hungry\n
347.0025	0.105	694005	keystroke_f	f	n/a
347.1225	0.09	694245	keystroke_o	o	n/a
347.2875	0.105	694575	keystroke_l	l	n/a
347.573	0.06	695146	keystroke_k	k	n/a
347.722	0.0755	695444	keystroke_Key.space	Key.space	n/a
347.9185	0.0895	695837	keystroke_f	f	n/a
348.023	0.0895	696046	keystroke_i	i	n/a
348.1265	0.061	696253	keystroke_r	r	n/a
348.2325	0.105	696465	keystroke_s	s	n/a
348.3525	0.1205	696705	keystroke_t	t	n/a
348.5025	0.075	697005	keystroke_Key.space	Key.space	n/a
348.8625	0.09	697725	keystroke_q	q	n/a
348.967	0.0755	697934	keystroke_u	u	n/a
349.1475	0.1045	698295	keystroke_o	o	n/a
349.267	0.0745	698534	keystroke_t	t	n/a
349.3875	0.075	698775	keystroke_e	e	n/a
349.5825	0.075	699165	keystroke_d	d	n/a
349.6865	0.0755	699373	keystroke_Key.space	Key.space	n/a
350.1225	0.075	700245	keystroke_h	h	n/a
350.302	0.06	700604	keystroke_u	u	n/a
350.467	0.105	700934	keystroke_n	n	n/a
350.6325	0.0755	701265	keystroke_g	g	n/a
350.7975	0.075	701595	keystroke_r	r	n/a
350.932	0.0755	701864	keystroke_y	y	n/a
351.142	0.105	702284	keystroke_Key.enter	Key.enter	n/a
351.2535	6.732	702507	prompt	n/a	watts suggested poem ceiling\n
352.1475	0.075	704295	keystroke_w	w	n/a
352.2825	0.105	704565	keystroke_a	a	n/a
352.432	0.091	704864	keystroke_t	t	n/a
352.598	0.075	705196	keystroke_t	t	n/a
352.733	0.1195	705466	keystroke_s	s	n/a
352.882	0.045	705764	keystroke_Key.space	Key.space	n/a
353.033	0.105	706066	keystroke_s	s	n/a
353.182	0.09	706364	keystroke_u	u	n/a
353.3325	0.045	706665	keystroke_g	g	n/a
353.497	0.09	706994	keystroke_g	g	n/a
353.618	0.089	707236	keystroke_e	e	n/a
353.722	0.1055	707444	keystroke_s	s	n/a
353.8125	0.105	707625	keystroke_t	t	n/a
354.008	0.0895	708016	keystroke_e	e	n/a
354.2025	0.091	708405	keystroke_d	d	n/a
354.3375	0.06	708675	keystroke_Key.space	Key.space	n/a
354.533	0.0895	709066	keystroke_p	p	n/a
354.7125	0.0905	709425	keystroke_o	o	n/a
354.9075	0.075	709815	keystroke_e	e	n/a
355.103	0.089	710206	keystroke_m	m	n/a
355.237	0.06	710474	keystroke_Key.space	Key.space	n/a
355.4175	0.1045	710835	keystroke_c	c	n/a
355.537	0.0905	711074	keystroke_i	i	n/a
355.972	0.091	711944	keystroke_e	e	n/a
356.408	0.0595	712816	keystroke_Key.backspace	Key.backspace	n/a
356.557	0.075	713114	keystroke_Key.backspace	Key.backspace	n/a
356.737	0.075	713474	keystroke_e	e	n/a
356.8875	0.09	713775	keystroke_i	i	n/a
357.263	0.0885	714526	keystroke_l	l	n/a
357.4875	0.1355	714975	keystroke_i	i	n/a
357.5625	0.18	715125	keystroke_n	n	n/a
357.6525	0.1045	715305	keystroke_g	g	n/a
357.892	0.0905	715784	keystroke_Key.enter	Key.enter	n/a
357.9905	6.683	715981	prompt	n/a	guide nationally candles meditation\n
358.8975	0.06	717795	keystroke_g	g	n/a
358.9875	0.06	717975	keystroke_u	u	n/a
359.1375	0.09	718275	keystroke_i	i	n/a
359.258	0.0745	718516	keystroke_d	d	n/a
359.4225	0.076	718845	keystroke_e	e	n/a
359.5875	0.075	719175	keystroke_Key.space	Key.space	n/a
359.7675	0.105	719535	keystroke_n	n	n/a
359.8875	0.12	719775	keystroke_a	a	n/a
360.0525	0.09	720105	keystroke_t	t	n/a
360.1575	0.105	720315	keystroke_i	i	n/a
360.233	0.1495	720466	keystroke_o	o	n/a
360.323	0.1495	720646	keystroke_n	n	n/a
360.4275	0.12	720855	keystroke_a	a	n/a
360.5925	0.09	721185	keystroke_l	l	n/a
360.7565	0.091	721513	keystroke_l	l	n/a
360.8925	0.089	721785	keystroke_y	y	n/a
361.0575	0.06	722115	keystroke_Key.space	Key.space	n/a
361.6115	0.06	723223	keystroke_c	c	n/a
361.7025	0.1045	723405	keystroke_a	a	n/a
361.837	0.1205	723674	keystroke_n	n	n/a
361.987	0.106	723974	keystroke_d	d	n/a
362.1525	0.12	724305	keystroke_l	l	n/a
362.2725	0.074	724545	keystroke_e	e	n/a
362.422	0.09	724844	keystroke_s	s	n/a
362.5575	0.06	725115	keystroke_Key.space	Key.space	n/a
362.992	0.09	725984	keystroke_m	m	n/a
363.127	0.0755	726254	keystroke_e	e	n/a
363.337	0.076	726674	keystroke_d	d	n/a
363.472	0.075	726944	keystroke_i	i	n/a
363.6825	0.09	727365	keystroke_t	t	n/a
363.8325	0.1045	727665	keystroke_a	a	n/a
363.938	0.105	727876	keystroke_t	t	n/a
364.058	0.119	728116	keystroke_i	i	n/a
364.147	0.166	728294	keystroke_o	o	n/a
364.2525	0.18	728505	keystroke_n	n	n/a
364.5965	0.075	729193	keystroke_Key.enter	Key.enter	n/a
364.677	5.787	729354	prompt	n/a	blocks issn possibly find\n
365.438	0.075	730876	keystroke_b	b	n/a
365.514	0.089	731028	keystroke_l	l	n/a
365.707	0.061	731414	keystroke_o	o	n/a
365.797	0.09	731594	keystroke_c	c	n/a
365.902	0.1055	731804	keystroke_k	k	n/a
366.082	0.105	732164	keystroke_s	s	n/a
366.2475	0.0745	732495	keystroke_Key.space	Key.space	n/a
366.548	0.089	733096	keystroke_i	i	n/a
366.7875	0.0605	733575	keystroke_s	s	n/a
366.922	0.0755	733844	keystroke_s	s	n/a
367.0575	0.1045	734115	keystroke_n	n	n/a
367.252	0.06	734504	keystroke_Key.space	Key.space	n/a
367.553	0.075	735106	keystroke_p	p	n/a
367.747	0.105	735494	keystroke_o	o	n/a
367.973	0.0745	735946	keystroke_s	s	n/a
368.1075	0.09	736215	keystroke_s	s	n/a
368.242	0.0905	736484	keystroke_i	i	n/a
368.5575	0.09	737115	keystroke_b	b	n/a
368.7375	0.1045	737475	keystroke_l	l	n/a
369.1425	0.06	738285	keystroke_y	y	n/a
369.6075	0.06	739215	keystroke_Key.space	Key.space	n/a
369.817	0.0755	739634	keystroke_f	f	n/a
369.907	0.135	739814	keystroke_i	i	n/a
369.997	0.1655	739994	keystroke_n	n	n/a
370.1175	0.09	740235	keystroke_d	d	n/a
370.3575	0.1045	740715	keystroke_Key.enter	Key.enter	n/a
370.473	8.376	740946	prompt	n/a	misc agreements participant nodes\n
371.287	0.0755	742574	keystroke_m	m	n/a
371.407	0.09	742814	keystroke_i	i	n/a
371.6175	0.0895	743235	keystroke_s	s	n/a
371.827	0.09	743654	keystroke_c	c	n/a
372.022	0.075	744044	keystroke_Key.space	Key.space	n/a
372.2175	0.1045	744435	keystroke_a	a	n/a
372.442	0.075	744884	keystroke_g	g	n/a
372.682	0.1055	745364	keystroke_r	r	n/a
372.8625	0.09	745725	keystroke_e	e	n/a
373.042	0.075	746084	keystroke_e	e	n/a
373.192	0.09	746384	keystroke_m	m	n/a
373.297	0.06	746594	keystroke_e	e	n/a
373.387	0.105	746774	keystroke_n	n	n/a
373.477	0.075	746954	keystroke_t	t	n/a
373.642	0.09	747284	keystroke_s	s	n/a
373.777	0.06	747554	keystroke_Key.space	Key.space	n/a
374.003	0.105	748006	keystroke_p	p	n/a
374.123	0.105	748246	keystroke_a	a	n/a
374.183	0.119	748366	keystroke_r	r	n/a
374.483	0.074	748966	keystroke_t	t	n/a
374.6175	0.105	749235	keystroke_i	i	n/a
376.688	0.2395	753376	keystroke_c	c	n/a
377.092	0.061	754184	keystroke_i	i	n/a
377.317	0.09	754634	keystroke_p	p	n/a
377.437	0.105	754874	keystroke_a	a	n/a
377.5275	0.1355	755055	keystroke_n	n	n/a
377.633	0.0895	755266	keystroke_t	t	n/a
377.7825	0.075	755565	keystroke_Key.space	Key.space	n/a
378.023	0.0445	756046	keystroke_n	n	n/a
378.158	0.09	756316	keystroke_o	o	n/a
378.278	0.075	756556	keystroke_d	d	n/a
378.442	0.06	756884	keystroke_e	e	n/a
378.578	0.105	757156	keystroke_s	s	n/a
378.7575	0.0895	757515	keystroke_Key.enter	Key.enter	n/a
378.8545	6.4745	757709	prompt	n/a	commissioner logo vertical seasons\n
379.703	0.0895	759406	keystroke_c	c	n/a
379.8075	0.1195	759615	keystroke_o	o	n/a
379.883	0.119	759766	keystroke_m	m	n/a
380.1225	0.0755	760245	keystroke_m	m	n/a
380.332	0.076	760664	keystroke_i	i	n/a
380.513	0.09	761026	keystroke_s	s	n/a
380.662	0.105	761324	keystroke_s	s	n/a
380.768	0.12	761536	keystroke_i	i	n/a
380.873	0.1495	761746	keystroke_o	o	n/a
380.9775	0.1645	761955	keystroke_n	n	n/a
381.412	0.09	762824	keystroke_e	e	n/a
381.4875	0.1205	762975	keystroke_r	r	n/a
381.697	0.0755	763394	keystroke_Key.space	Key.space	n/a
381.8925	0.09	763785	keystroke_l	l	n/a
382.1025	0.075	764205	keystroke_o	o	n/a
382.2225	0.105	764445	keystroke_g	g	n/a
382.3575	0.0895	764715	keystroke_o	o	n/a
382.597	0.045	765194	keystroke_Key.space	Key.space	n/a
382.8375	0.075	765675	keystroke_v	v	n/a
383.0175	0.091	766035	keystroke_e	e	n/a
383.0925	0.105	766185	keystroke_r	r	n/a
383.318	0.0595	766636	keystroke_t	t	n/a
383.4225	0.09	766845	keystroke_i	i	n/a
383.5425	0.105	767085	keystroke_c	c	n/a
383.6625	0.1195	767325	keystroke_a	a	n/a
383.813	0.105	767626	keystroke_l	l	n/a
383.918	0.075	767836	keystroke_Key.space	Key.space	n/a
384.113	0.105	768226	keystroke_s	s	n/a
384.248	0.075	768496	keystroke_e	e	n/a
384.368	0.1195	768736	keystroke_a	a	n/a
384.6375	0.09	769275	keystroke_s	s	n/a
384.758	0.1495	769516	keystroke_o	o	n/a
384.8475	0.1805	769695	keystroke_n	n	n/a
384.9835	0.1195	769967	keystroke_s	s	n/a
385.2225	0.1045	770445	keystroke_Key.enter	Key.enter	n/a
385.351	6.9675	770702	prompt	n/a	powerful tourism salary safari\n
386.0025	0.09	772005	keystroke_p	p	n/a
386.1825	0.09	772365	keystroke_o	o	n/a
386.3025	0.105	772605	keystroke_w	w	n/a
386.498	0.09	772996	keystroke_e	e	n/a
386.573	0.134	773146	keystroke_r	r	n/a
386.857	0.0905	773714	keystroke_f	f	n/a
386.9625	0.0595	773925	keystroke_u	u	n/a
387.128	0.135	774256	keystroke_l	l	n/a
387.232	0.06	774464	keystroke_Key.space	Key.space	n/a
387.667	0.015	775334	keystroke_t	t	n/a
387.728	0.1045	775456	keystroke_o	o	n/a
387.8025	0.135	775605	keystroke_u	u	n/a
388.073	0.0895	776146	keystroke_r	r	n/a
388.807	0.075	777614	keystroke_i	i	n/a
389.003	0.089	778006	keystroke_s	s	n/a
389.107	0.106	778214	keystroke_m	m	n/a
389.227	0.09	778454	keystroke_Key.space	Key.space	n/a
389.467	0.075	778934	keystroke_s	s	n/a
389.5875	0.1045	779175	keystroke_a	a	n/a
389.812	0.091	779624	keystroke_l	l	n/a
390.0225	0.105	780045	keystroke_a	a	n/a
390.2925	0.0755	780585	keystroke_r	r	n/a
390.4125	0.09	780825	keystroke_y	y	n/a
390.5475	0.06	781095	keystroke_Key.space	Key.space	n/a
390.7875	0.075	781575	keystroke_s	s	n/a
390.9075	0.105	781815	keystroke_a	a	n/a
391.1625	0.09	782325	keystroke_f	f	n/a
391.4625	0.1205	782925	keystroke_a	a	n/a
391.6875	0.09	783375	keystroke_r	r	n/a
391.883	0.089	783766	keystroke_i	i	n/a
392.212	0.1055	784424	keystroke_Key.enter	Key.enter	n/a
392.327	8.557	784654	prompt	n/a	sims grave resort asian\n
394.193	0.0885	788386	keystroke_s	s	n/a
394.267	0.0905	788534	keystroke_i	i	n/a
394.3875	0.1655	788775	keystroke_m	m	n/a
394.567	0.091	789134	keystroke_e	e	n/a
394.748	0.104	789496	keystroke_s	s	n/a
394.897	0.045	789794	keystroke_Key.space	Key.space	n/a
395.032	0.0755	790064	keystroke_g	g	n/a
395.212	0.061	790424	keystroke_r	r	n/a
395.542	0.075	791084	keystroke_Key.backspace	Key.backspace	n/a
395.707	0.075	791414	keystroke_Key.backspace	Key.backspace	n/a
395.873	0.059	791746	keystroke_Key.backspace	Key.backspace	n/a
396.0375	0.0895	792075	keystroke_Key.backspace	Key.backspace	n/a
396.3975	0.075	792795	keystroke_Key.backspace	Key.backspace	n/a
396.848	0.014	793696	keystroke_s	s	n/a
396.938	0.0595	793876	keystroke_Key.space	Key.space	n/a
397.103	0.06	794206	keystroke_g	g	n/a
397.268	0.059	794536	keystroke_r	r	n/a
397.403	0.089	794806	keystroke_a	a	n/a
397.688	0.0895	795376	keystroke_v	v	n/a
397.9275	0.0595	795855	keystroke_e	e	n/a
398.063	0.089	796126	keystroke_Key.space	Key.space	n/a
398.363	0.0745	796726	keystroke_r	r	n/a
398.498	0.074	796996	keystroke_e	e	n/a
398.707	0.0905	797414	keystroke_s	s	n/a
399.0375	0.105	798075	keystroke_o	o	n/a
399.1575	0.075	798315	keystroke_r	r	n/a
399.3225	0.09	798645	keystroke_t	t	n/a
399.4725	0.06	798945	keystroke_Key.space	Key.space	n/a
399.8025	0.121	799605	keystroke_a	a	n/a
400.027	0.075	800054	keystroke_s	s	n/a
400.313	0.0745	800626	keystroke_i	i	n/a
400.4025	0.12	800805	keystroke_a	a	n/a
400.5075	0.1355	801015	keystroke_n	n	n/a
400.7775	0.105	801555	keystroke_Key.enter	Key.enter	n/a
400.8935	6.7555	801787	prompt	n/a	except trip tips division\n
401.632	0.0915	803264	keystroke_e	e	n/a
401.857	0.1055	803714	keystroke_x	x	n/a
402.4875	0.045	804975	keystroke_c	c	n/a
402.5925	0.0445	805185	keystroke_e	e	n/a
402.7425	0.0895	805485	keystroke_p	p	n/a
403.4625	0.0755	806925	keystroke_t	t	n/a
403.7315	0.061	807463	keystroke_Key.space	Key.space	n/a
404.0475	0.0595	808095	keystroke_t	t	n/a
404.197	0.0745	808394	keystroke_r	r	n/a
404.3025	0.105	808605	keystroke_i	i	n/a
404.4225	0.105	808845	keystroke_p	p	n/a
404.5425	0.06	809085	keystroke_Key.space	Key.space	n/a
404.7225	0.075	809445	keystroke_t	t	n/a
404.8425	0.1055	809685	keystroke_i	i	n/a
404.9775	0.12	809955	keystroke_p	p	n/a
405.1135	0.1195	810227	keystroke_s	s	n/a
405.2615	0.076	810523	keystroke_Key.space	Key.space	n/a
406.043	0.059	812086	keystroke_d	d	n/a
406.192	0.075	812384	keystroke_i	i	n/a
406.342	0.075	812684	keystroke_v	v	n/a
406.447	0.12	812894	keystroke_i	i	n/a
406.8825	0.1045	813765	keystroke_s	s	n/a
406.9725	0.105	813945	keystroke_i	i	n/a
407.062	0.1655	814124	keystroke_o	o	n/a
407.167	0.196	814334	keystroke_n	n	n/a
407.542	0.105	815084	keystroke_Key.enter	Key.enter	n/a
407.6615	9.1075	815323	prompt	n/a	forced perceived motivated continuously\n
408.4875	0.075	816975	keystroke_f	f	n/a
408.6225	0.0895	817245	keystroke_o	o	n/a
408.743	0.0895	817486	keystroke_r	r	n/a
409.4925	0.09	818985	keystroke_c	c	n/a
409.7175	0.075	819435	keystroke_e	e	n/a
409.8975	0.105	819795	keystroke_d	d	n/a
410.092	0.06	820184	keystroke_Key.space	Key.space	n/a
410.407	0.0905	820814	keystroke_p	p	n/a
410.527	0.075	821054	keystroke_e	e	n/a
410.587	0.1055	821174	keystroke_r	r	n/a
410.902	0.0755	821804	keystroke_c	c	n/a
411.0815	0.075	822163	keystroke_e	e	n/a
411.2015	0.091	822403	keystroke_i	i	n/a
411.3975	0.045	822795	keystroke_v	v	n/a
411.5475	0.089	823095	keystroke_e	e	n/a
411.7425	0.09	823485	keystroke_d	d	n/a
411.8775	0.059	823755	keystroke_Key.space	Key.space	n/a
412.192	0.075	824384	keystroke_m	m	n/a
412.2975	0.1195	824595	keystroke_o	o	n/a
412.507	0.075	825014	keystroke_t	t	n/a
412.6125	0.105	825225	keystroke_i	i	n/a
413.4975	0.1045	826995	keystroke_v	v	n/a
414.0525	0.135	828105	keystroke_a	a	n/a
414.1725	0.09	828345	keystroke_t	t	n/a
414.277	0.105	828554	keystroke_e	e	n/a
414.4575	0.0895	828915	keystroke_d	d	n/a
414.577	0.0755	829154	keystroke_Key.space	Key.space	n/a
414.803	0.074	829606	keystroke_c	c	n/a
414.8925	0.1505	829785	keystroke_o	o	n/a
414.982	0.135	829964	keystroke_n	n	n/a
415.148	0.075	830296	keystroke_t	t	n/a
415.253	0.1195	830506	keystroke_i	i	n/a
415.3425	0.12	830685	keystroke_n	n	n/a
415.5825	0.075	831165	keystroke_u	u	n/a
415.8675	0.121	831735	keystroke_o	o	n/a
415.9575	0.135	831915	keystroke_u	u	n/a
416.078	0.105	832156	keystroke_s	s	n/a
416.258	0.1795	832516	keystroke_l	l	n/a
416.3925	0.135	832785	keystroke_y	y	n/a
416.677	0.09	833354	keystroke_Key.enter	Key.enter	n/a
416.7745	9.2945	833549	prompt	n/a	received catholic refurbished potter\n
417.503	0.06	835006	keystroke_r	r	n/a
417.5775	0.0745	835155	keystroke_e	e	n/a
417.847	0.0905	835694	keystroke_c	c	n/a
418.0575	0.045	836115	keystroke_e	e	n/a
418.1925	0.09	836385	keystroke_i	i	n/a
419.0325	0.165	838065	keystroke_v	v	n/a
419.528	0.089	839056	keystroke_e	e	n/a
419.7075	0.1045	839415	keystroke_d	d	n/a
419.842	0.076	839684	keystroke_Key.space	Key.space	n/a
420.2625	0.0905	840525	keystroke_c	c	n/a
420.368	0.119	840736	keystroke_a	a	n/a
420.547	0.0905	841094	keystroke_t	t	n/a
420.652	0.1055	841304	keystroke_h	h	n/a
420.907	0.105	841814	keystroke_o	o	n/a
421.2975	0.09	842595	keystroke_l	l	n/a
421.4025	0.1195	842805	keystroke_i	i	n/a
421.5075	0.105	843015	keystroke_c	c	n/a
421.6575	0.075	843315	keystroke_Key.space	Key.space	n/a
421.9575	0.09	843915	keystroke_r	r	n/a
422.0325	0.09	844065	keystroke_e	e	n/a
422.4525	0.09	844905	keystroke_f	f	n/a
422.6325	0.076	845265	keystroke_u	u	n/a
422.7675	0.0895	845535	keystroke_r	r	n/a
423.157	0.045	846314	keystroke_b	b	n/a
423.263	0.0895	846526	keystroke_i	i	n/a
424.327	0.076	848654	keystroke_s	s	n/a
424.403	0.0895	848806	keystroke_h	h	n/a
424.508	0.0895	849016	keystroke_e	e	n/a
424.6875	0.09	849375	keystroke_d	d	n/a
424.7775	0.09	849555	keystroke_Key.space	Key.space	n/a
424.9725	0.09	849945	keystroke_p	p	n/a
425.167	0.09	850334	keystroke_o	o	n/a
425.2875	0.0745	850575	keystroke_t	t	n/a
425.467	0.0605	850934	keystroke_t	t	n/a
425.602	0.1055	851204	keystroke_e	e	n/a
425.692	0.106	851384	keystroke_r	r	n/a
425.9775	0.089	851955	keystroke_Key.enter	Key.enter	n/a
426.0745	6.579	852149	prompt	n/a	convicted steve odds nascar\n
426.7725	0.075	853545	keystroke_c	c	n/a
426.8475	0.1505	853695	keystroke_o	o	n/a
426.9525	0.165	853905	keystroke_n	n	n/a
427.2525	0.075	854505	keystroke_v	v	n/a
427.5675	0.0605	855135	keystroke_i	i	n/a
427.9875	0.0895	855975	keystroke_c	c	n/a
428.228	0.074	856456	keystroke_t	t	n/a
428.3925	0.09	856785	keystroke_e	e	n/a
428.572	0.075	857144	keystroke_d	d	n/a
428.707	0.0755	857414	keystroke_Key.space	Key.space	n/a
428.9475	0.09	857895	keystroke_s	s	n/a
429.0965	0.076	858193	keystroke_t	t	n/a
429.2475	0.1055	858495	keystroke_e	e	n/a
429.4575	0.09	858915	keystroke_v	v	n/a
429.5925	0.075	859185	keystroke_e	e	n/a
429.7725	0.06	859545	keystroke_Key.space	Key.space	n/a
429.968	0.119	859936	keystroke_o	o	n/a
430.147	0.075	860294	keystroke_d	d	n/a
430.327	0.075	860654	keystroke_d	d	n/a
430.478	0.0895	860956	keystroke_s	s	n/a
430.627	0.061	861254	keystroke_Key.space	Key.space	n/a
430.972	0.09	861944	keystroke_n	n	n/a
431.197	0.105	862394	keystroke_a	a	n/a
431.5725	0.105	863145	keystroke_s	s	n/a
431.9775	0.104	863955	keystroke_c	c	n/a
432.1725	0.105	864345	keystroke_a	a	n/a
432.2465	0.106	864493	keystroke_r	r	n/a
432.5615	0.09	865123	keystroke_Key.enter	Key.enter	n/a
432.6645	8.3595	865329	prompt	n/a	webcams mpeg postcards topic\n
433.4625	0.075	866925	keystroke_w	w	n/a
433.5825	0.075	867165	keystroke_e	e	n/a
433.7925	0.09	867585	keystroke_b	b	n/a
434.422	0.0755	868844	keystroke_c	c	n/a
434.527	0.12	869054	keystroke_a	a	n/a
434.7525	0.09	869505	keystroke_m	m	n/a
434.8875	0.075	869775	keystroke_e	e	n/a
435.1425	0.09	870285	keystroke_s	s	n/a
435.3375	0.075	870675	keystroke_Key.space	Key.space	n/a
435.9375	0.0905	871875	keystroke_m	m	n/a
436.2525	0.09	872505	keystroke_p	p	n/a
436.4925	0.06	872985	keystroke_e	e	n/a
436.6725	0.06	873345	keystroke_g	g	n/a
436.8075	0.0595	873615	keystroke_Key.space	Key.space	n/a
437.0775	0.075	874155	keystroke_p	p	n/a
437.227	0.105	874454	keystroke_o	o	n/a
437.347	0.09	874694	keystroke_s	s	n/a
437.618	0.089	875236	keystroke_t	t	n/a
438.082	0.0905	876164	keystroke_c	c	n/a
438.2625	0.105	876525	keystroke_a	a	n/a
438.3375	0.12	876675	keystroke_r	r	n/a
438.5625	0.105	877125	keystroke_d	d	n/a
438.7575	0.09	877515	keystroke_s	s	n/a
438.9075	0.06	877815	keystroke_Key.space	Key.space	n/a
439.0875	0.075	878175	keystroke_t	t	n/a
439.1925	0.09	878385	keystroke_o	o	n/a
439.3265	0.106	878653	keystroke_p	p	n/a
439.8975	0.075	879795	keystroke_c	c	n/a
440.3925	0.059	880785	keystroke_Key.backspace	Key.backspace	n/a
440.6025	0.089	881205	keystroke_i	i	n/a
440.6925	0.0895	881385	keystroke_c	c	n/a
440.932	0.09	881864	keystroke_Key.enter	Key.enter	n/a
441.0315	7.522	882063	prompt	n/a	religious candy paso affiliate\n
441.757	0.09	883514	keystroke_r	r	n/a
441.892	0.0745	883784	keystroke_e	e	n/a
442.3435	0.089	884687	keystroke_l	l	n/a
442.4925	0.09	884985	keystroke_i	i	n/a
442.7775	0.0755	885555	keystroke_g	g	n/a
442.898	0.089	885796	keystroke_i	i	n/a
443.2125	0.1055	886425	keystroke_o	o	n/a
443.2875	0.1505	886575	keystroke_u	u	n/a
443.423	0.119	886846	keystroke_s	s	n/a
443.617	0.0905	887234	keystroke_Key.space	Key.space	n/a
443.8275	0.09	887655	keystroke_c	c	n/a
443.9325	0.1195	887865	keystroke_a	a	n/a
444.1275	0.1195	888255	keystroke_n	n	n/a
444.6375	0.0895	889275	keystroke_d	d	n/a
444.802	0.0755	889604	keystroke_y	y	n/a
444.997	0.0605	889994	keystroke_Key.space	Key.space	n/a
445.3875	0.1055	890775	keystroke_p	p	n/a
445.537	0.105	891074	keystroke_a	a	n/a
445.973	0.0745	891946	keystroke_s	s	n/a
446.0925	0.12	892185	keystroke_o	o	n/a
446.2575	0.075	892515	keystroke_Key.space	Key.space	n/a
446.7525	0.12	893505	keystroke_a	a	n/a
446.9925	0.0595	893985	keystroke_f	f	n/a
447.142	0.075	894284	keystroke_f	f	n/a
447.3825	0.075	894765	keystroke_i	i	n/a
447.652	0.091	895304	keystroke_l	l	n/a
447.818	0.074	895636	keystroke_i	i	n/a
447.922	0.1355	895844	keystroke_a	a	n/a
448.042	0.1055	896084	keystroke_t	t	n/a
448.162	0.106	896324	keystroke_e	e	n/a
448.477	0.075	896954	keystroke_Key.enter	Key.enter	n/a
448.559	9.28	897118	prompt	n/a	legitimate grocery recruitment analytical\n
449.602	0.03	899204	keystroke_l	l	n/a
449.648	0.074	899296	keystroke_e	e	n/a
449.888	0.1045	899776	keystroke_g	g	n/a
450.0675	0.0755	900135	keystroke_i	i	n/a
450.5325	0.0745	901065	keystroke_t	t	n/a
450.6825	0.075	901365	keystroke_i	i	n/a
450.8475	0.105	901695	keystroke_m	m	n/a
450.9215	0.1215	901843	keystroke_a	a	n/a
451.013	0.12	902026	keystroke_t	t	n/a
451.1625	0.105	902325	keystroke_e	e	n/a
451.2825	0.074	902565	keystroke_Key.space	Key.space	n/a
451.553	0.0895	903106	keystroke_g	g	n/a
451.7475	0.059	903495	keystroke_r	r	n/a
451.883	0.089	903766	keystroke_o	o	n/a
452.0475	0.105	904095	keystroke_c	c	n/a
452.258	0.059	904516	keystroke_e	e	n/a
452.362	0.105	904724	keystroke_r	r	n/a
452.5275	0.0895	905055	keystroke_y	y	n/a
452.662	0.075	905324	keystroke_Key.space	Key.space	n/a
452.857	0.12	905714	keystroke_r	r	n/a
452.992	0.076	905984	keystroke_e	e	n/a
453.308	0.0745	906616	keystroke_c	c	n/a
453.532	0.06	907064	keystroke_r	r	n/a
453.7125	0.0745	907425	keystroke_u	u	n/a
454.042	0.0905	908084	keystroke_i	i	n/a
454.4025	0.0745	908805	keystroke_t	t	n/a
454.688	0.089	909376	keystroke_m	m	n/a
454.792	0.0905	909584	keystroke_e	e	n/a
454.897	0.105	909794	keystroke_n	n	n/a
454.987	0.09	909974	keystroke_t	t	n/a
455.107	0.06	910214	keystroke_Key.space	Key.space	n/a
455.273	0.104	910546	keystroke_a	a	n/a
455.422	0.12	910844	keystroke_n	n	n/a
455.542	0.105	911084	keystroke_a	a	n/a
455.8875	0.09	911775	keystroke_l	l	n/a
456.0975	0.06	912195	keystroke_y	y	n/a
456.4125	0.075	912825	keystroke_t	t	n/a
456.5325	0.105	913065	keystroke_i	i	n/a
456.6825	0.09	913365	keystroke_c	c	n/a
457.1625	0.105	914325	keystroke_a	a	n/a
457.4625	0.0895	914925	keystroke_l	l	n/a
457.747	0.0905	915494	keystroke_Key.enter	Key.enter	n/a
457.8435	6.13	915687	prompt	n/a	receiver lucia wired dump\n
458.827	0.09	917654	keystroke_r	r	n/a
458.947	0.075	917894	keystroke_e	e	n/a
459.173	0.089	918346	keystroke_c	c	n/a
459.3675	0.0595	918735	keystroke_e	e	n/a
459.487	0.0755	918974	keystroke_i	i	n/a
459.6075	0.0745	919215	keystroke_v	v	n/a
459.727	0.106	919454	keystroke_e	e	n/a
459.847	0.09	919694	keystroke_r	r	n/a
459.952	0.0755	919904	keystroke_Key.space	Key.space	n/a
460.3115	0.091	920623	keystroke_l	l	n/a
460.5075	0.075	921015	keystroke_u	u	n/a
460.7765	0.0905	921553	keystroke_c	c	n/a
460.8975	0.09	921795	keystroke_i	i	n/a
461.0025	0.1195	922005	keystroke_a	a	n/a
461.182	0.06	922364	keystroke_Key.space	Key.space	n/a
461.542	0.075	923084	keystroke_w	w	n/a
461.917	0.075	923834	keystroke_i	i	n/a
462.0525	0.12	924105	keystroke_r	r	n/a
462.472	0.0455	924944	keystroke_e	e	n/a
462.6225	0.09	925245	keystroke_d	d	n/a
462.757	0.06	925514	keystroke_Key.space	Key.space	n/a
463.042	0.0755	926084	keystroke_d	d	n/a
463.132	0.091	926264	keystroke_u	u	n/a
463.327	0.105	926654	keystroke_m	m	n/a
463.582	0.0905	927164	keystroke_p	p	n/a
463.882	0.09	927764	keystroke_Key.enter	Key.enter	n/a
463.983	6.051	927966	prompt	n/a	resorts renewal lanes kenny\n
464.663	0.09	929326	keystroke_r	r	n/a
464.754	0.103	929508	keystroke_e	e	n/a
465.023	0.1035	930046	keystroke_s	s	n/a
465.2475	0.089	930495	keystroke_o	o	n/a
465.3825	0.09	930765	keystroke_r	r	n/a
465.578	0.059	931156	keystroke_t	t	n/a
465.7125	0.09	931425	keystroke_s	s	n/a
465.8625	0.06	931725	keystroke_Key.space	Key.space	n/a
466.133	0.089	932266	keystroke_r	r	n/a
466.252	0.105	932504	keystroke_e	e	n/a
466.538	0.089	933076	keystroke_n	n	n/a
466.747	0.0755	933494	keystroke_e	e	n/a
467.0925	0.075	934185	keystroke_w	w	n/a
467.2425	0.105	934485	keystroke_a	a	n/a
467.3775	0.12	934755	keystroke_l	l	n/a
467.5275	0.06	935055	keystroke_Key.space	Key.space	n/a
467.7975	0.105	935595	keystroke_l	l	n/a
467.9175	0.105	935835	keystroke_a	a	n/a
468.0525	0.0895	936105	keystroke_n	n	n/a
468.382	0.075	936764	keystroke_e	e	n/a
468.607	0.105	937214	keystroke_s	s	n/a
468.787	0.075	937574	keystroke_Key.space	Key.space	n/a
469.0275	0.09	938055	keystroke_k	k	n/a
469.1625	0.09	938325	keystroke_e	e	n/a
469.3275	0.075	938655	keystroke_n	n	n/a
469.4775	0.075	938955	keystroke_n	n	n/a
469.6575	0.06	939315	keystroke_y	y	n/a
469.942	0.09	939884	keystroke_Key.enter	Key.enter	n/a
470.039	8.7845	940078	prompt	n/a	broadcasting west chris risk\n
470.828	0.0745	941656	keystroke_b	b	n/a
471.022	0.06	942044	keystroke_r	r	n/a
471.518	0.0895	943036	keystroke_o	o	n/a
471.952	0.075	943904	keystroke_Key.backspace	Key.backspace	n/a
472.133	0.0895	944266	keystroke_a	a	n/a
472.327	0.0905	944654	keystroke_o	o	n/a
473.3625	0.075	946725	keystroke_Key.backspace	Key.backspace	n/a
473.5125	0.075	947025	keystroke_Key.backspace	Key.backspace	n/a
473.7675	0.09	947535	keystroke_o	o	n/a
473.9025	0.12	947805	keystroke_a	a	n/a
474.2325	0.0905	948465	keystroke_d	d	n/a
474.7575	0.09	949515	keystroke_c	c	n/a
474.9075	0.105	949815	keystroke_a	a	n/a
475.133	0.089	950266	keystroke_s	s	n/a
475.387	0.0605	950774	keystroke_t	t	n/a
475.5375	0.1195	951075	keystroke_i	i	n/a
475.597	0.195	951194	keystroke_n	n	n/a
475.687	0.12	951374	keystroke_g	g	n/a
475.7775	0.09	951555	keystroke_Key.space	Key.space	n/a
475.9425	0.105	951885	keystroke_w	w	n/a
476.0925	0.09	952185	keystroke_e	e	n/a
476.2725	0.06	952545	keystroke_s	s	n/a
476.3625	0.09	952725	keystroke_t	t	n/a
476.5125	0.06	953025	keystroke_Key.space	Key.space	n/a
476.7825	0.09	953565	keystroke_c	c	n/a
476.9025	0.09	953805	keystroke_h	h	n/a
477.068	0.075	954136	keystroke_r	r	n/a
477.2175	0.09	954435	keystroke_i	i	n/a
477.3675	0.09	954735	keystroke_s	s	n/a
477.5165	0.061	955033	keystroke_Key.space	Key.space	n/a
477.7275	0.09	955455	keystroke_r	r	n/a
477.908	0.0905	955816	keystroke_i	i	n/a
478.0725	0.1045	956145	keystroke_s	s	n/a
478.1925	0.09	956385	keystroke_h	h	n/a
478.477	0.09	956954	keystroke_k	k	n/a
478.7325	0.09	957465	keystroke_Key.enter	Key.enter	n/a
478.8325	10.672	957665	prompt	n/a	prostate significant placed stopped\n
479.738	0.106	959476	keystroke_p	p	n/a
479.813	0.104	959626	keystroke_r	r	n/a
479.947	0.1055	959894	keystroke_o	o	n/a
481.0875	0.09	962175	keystroke_s	s	n/a
481.508	0.0895	963016	keystroke_t	t	n/a
481.6265	0.1365	963253	keystroke_a	a	n/a
481.748	0.09	963496	keystroke_t	t	n/a
481.912	0.1055	963824	keystroke_e	e	n/a
482.107	0.0755	964214	keystroke_Key.space	Key.space	n/a
482.437	0.09	964874	keystroke_s	s	n/a
482.557	0.0905	965114	keystroke_i	i	n/a
482.662	0.076	965324	keystroke_g	g	n/a
482.992	0.075	965984	keystroke_n	n	n/a
483.188	0.06	966376	keystroke_i	i	n/a
483.9075	0.09	967815	keystroke_f	f	n/a
484.057	0.075	968114	keystroke_i	i	n/a
484.2375	0.0595	968475	keystroke_c	c	n/a
484.328	0.134	968656	keystroke_a	a	n/a
484.432	0.0905	968864	keystroke_t	t	n/a
484.642	0.1055	969284	keystroke_n	n	n/a
485.4675	0.06	970935	keystroke_Key.backspace	Key.backspace	n/a
485.6025	0.075	971205	keystroke_Key.backspace	Key.backspace	n/a
485.8425	0.09	971685	keystroke_n	n	n/a
485.993	0.074	971986	keystroke_t	t	n/a
486.367	0.06	972734	keystroke_Key.space	Key.space	n/a
486.7275	0.075	973455	keystroke_p	p	n/a
486.8765	0.151	973753	keystroke_l	l	n/a
487.013	0.09	974026	keystroke_a	a	n/a
487.1775	0.074	974355	keystroke_c	c	n/a
487.3575	0.075	974715	keystroke_e	e	n/a
487.5075	0.09	975015	keystroke_d	d	n/a
487.612	0.0745	975224	keystroke_Key.space	Key.space	n/a
487.883	0.0745	975766	keystroke_s	s	n/a
488.407	0.075	976814	keystroke_t	t	n/a
488.617	0.09	977234	keystroke_o	o	n/a
488.8275	0.076	977655	keystroke_p	p	n/a
488.977	0.105	977954	keystroke_p	p	n/a
489.067	0.0755	978134	keystroke_e	e	n/a
489.2175	0.09	978435	keystroke_d	d	n/a
489.4125	0.09	978825	keystroke_Key.enter	Key.enter	n/a
489.511	9.9085	979022	prompt	n/a	warrant politicians extraordinary hurt\n
490.207	0.0905	980414	keystroke_w	w	n/a
490.372	0.1205	980744	keystroke_a	a	n/a
490.627	0.0605	981254	keystroke_r	r	n/a
490.777	0.075	981554	keystroke_r	r	n/a
490.9125	0.12	981825	keystroke_a	a	n/a
491.077	0.15	982154	keystroke_n	n	n/a
491.212	0.075	982424	keystroke_t	t	n/a
491.317	0.0445	982634	keystroke_Key.space	Key.space	n/a
491.5275	0.0905	983055	keystroke_p	p	n/a
491.7225	0.0745	983445	keystroke_o	o	n/a
491.9625	0.075	983925	keystroke_l	l	n/a
492.143	0.0745	984286	keystroke_i	i	n/a
493.2375	0.09	986475	keystroke_t	t	n/a
493.3875	0.09	986775	keystroke_i	i	n/a
493.6725	0.0905	987345	keystroke_c	c	n/a
493.807	0.09	987614	keystroke_i	i	n/a
493.9425	0.135	987885	keystroke_a	a	n/a
494.0625	0.1195	988125	keystroke_n	n	n/a
494.318	0.0745	988636	keystroke_s	s	n/a
494.4675	0.0755	988935	keystroke_Key.space	Key.space	n/a
494.722	0.075	989444	keystroke_e	e	n/a
494.963	0.105	989926	keystroke_x	x	n/a
495.308	0.075	990616	keystroke_t	t	n/a
495.4725	0.0905	990945	keystroke_r	r	n/a
495.8325	0.119	991665	keystroke_a	a	n/a
496.1625	0.09	992325	keystroke_o	o	n/a
496.9125	0.09	993825	keystroke_r	r	n/a
497.6465	0.06	995293	keystroke_d	d	n/a
497.7975	0.045	995595	keystroke_i	i	n/a
498.0075	0.03	996015	keystroke_n	n	n/a
498.0225	0.105	996045	keystroke_a	a	n/a
498.1425	0.105	996285	keystroke_r	r	n/a
498.292	0.09	996584	keystroke_y	y	n/a
498.4425	0.0595	996885	keystroke_Key.space	Key.space	n/a
498.6375	0.0745	997275	keystroke_h	h	n/a
498.817	0.0755	997634	keystroke_u	u	n/a
498.922	0.09	997844	keystroke_r	r	n/a
499.117	0.076	998234	keystroke_t	t	n/a
499.342	0.075	998684	keystroke_Key.enter	Key.enter	n/a
499.4235	6.7755	998847	prompt	n/a	revisions student seems frank\n
500.1225	0.0905	1000245	keystroke_r	r	n/a
500.2135	0.0895	1000427	keystroke_e	e	n/a
500.527	0.09	1001054	keystroke_v	v	n/a
500.707	0.06	1001414	keystroke_i	i	n/a
500.8875	0.1045	1001775	keystroke_s	s	n/a
500.963	0.1195	1001926	keystroke_i	i	n/a
501.038	0.165	1002076	keystroke_o	o	n/a
501.143	0.1795	1002286	keystroke_n	n	n/a
501.2915	0.0905	1002583	keystroke_s	s	n/a
501.427	0.1055	1002854	keystroke_Key.space	Key.space	n/a
501.6075	0.12	1003215	keystroke_s	s	n/a
501.758	0.104	1003516	keystroke_t	t	n/a
501.9375	0.09	1003875	keystroke_u	u	n/a
502.4035	0.059	1004807	keystroke_d	d	n/a
502.5825	0.06	1005165	keystroke_e	e	n/a
502.7335	0.0895	1005467	keystroke_n	n	n/a
502.838	0.0745	1005676	keystroke_t	t	n/a
503.0775	0.06	1006155	keystroke_Key.space	Key.space	n/a
503.3025	0.09	1006605	keystroke_s	s	n/a
503.4825	0.075	1006965	keystroke_e	e	n/a
503.6475	0.0755	1007295	keystroke_e	e	n/a
503.887	0.0905	1007774	keystroke_m	m	n/a
504.4275	0.105	1008855	keystroke_s	s	n/a
504.712	0.076	1009424	keystroke_Key.space	Key.space	n/a
505.0115	0.0615	1010023	keystroke_f	f	n/a
505.1625	0.0605	1010325	keystroke_r	r	n/a
505.3125	0.1055	1010625	keystroke_a	a	n/a
505.4475	0.0905	1010895	keystroke_n	n	n/a
505.748	0.075	1011496	keystroke_k	k	n/a
506.122	0.075	1012244	keystroke_Key.enter	Key.enter	n/a
506.2045	5.47	1012409	prompt	n/a	dealer permit linked amount\n
506.9025	0.09	1013805	keystroke_d	d	n/a
507.0675	0.0895	1014135	keystroke_e	e	n/a
507.2625	0.105	1014525	keystroke_a	a	n/a
507.5475	0.09	1015095	keystroke_l	l	n/a
507.6825	0.105	1015365	keystroke_e	e	n/a
507.7725	0.1055	1015545	keystroke_r	r	n/a
508.0125	0.075	1016025	keystroke_Key.space	Key.space	n/a
508.238	0.0895	1016476	keystroke_p	p	n/a
508.343	0.0745	1016686	keystroke_e	e	n/a
508.4025	0.1205	1016805	keystroke_r	r	n/a
508.6725	0.09	1017345	keystroke_m	m	n/a
508.7925	0.105	1017585	keystroke_i	i	n/a
508.913	0.0745	1017826	keystroke_t	t	n/a
509.0325	0.06	1018065	keystroke_Key.space	Key.space	n/a
509.273	0.075	1018546	keystroke_l	l	n/a
509.4225	0.104	1018845	keystroke_i	i	n/a
509.4975	0.15	1018995	keystroke_n	n	n/a
509.6615	0.121	1019323	keystroke_k	k	n/a
509.798	0.0895	1019596	keystroke_e	e	n/a
509.9625	0.0895	1019925	keystroke_d	d	n/a
510.082	0.075	1020164	keystroke_Key.space	Key.space	n/a
510.262	0.121	1020524	keystroke_a	a	n/a
510.4725	0.075	1020945	keystroke_m	m	n/a
510.8925	0.0895	1021785	keystroke_o	o	n/a
510.9675	0.09	1021935	keystroke_u	u	n/a
511.1475	0.1055	1022295	keystroke_n	n	n/a
511.358	0.0745	1022716	keystroke_t	t	n/a
511.5675	0.104	1023135	keystroke_Key.enter	Key.enter	n/a
511.679	6.01	1023358	prompt	n/a	lift webcast exam kansas\n
512.3935	0.074	1024787	keystroke_l	l	n/a
512.4825	0.135	1024965	keystroke_i	i	n/a
512.6325	0.06	1025265	keystroke_f	f	n/a
512.7975	0.06	1025595	keystroke_t	t	n/a
512.9025	0.06	1025805	keystroke_Key.space	Key.space	n/a
513.0975	0.09	1026195	keystroke_w	w	n/a
513.2475	0.06	1026495	keystroke_e	e	n/a
513.4275	0.075	1026855	keystroke_b	b	n/a
513.9075	0.075	1027815	keystroke_c	c	n/a
514.0725	0.105	1028145	keystroke_a	a	n/a
514.2675	0.105	1028535	keystroke_s	s	n/a
514.3575	0.12	1028715	keystroke_e	e	n/a
514.6125	0.06	1029225	keystroke_Key.space	Key.space	n/a
514.8375	0.0605	1029675	keystroke_e	e	n/a
515.0475	0.0905	1030095	keystroke_x	x	n/a
515.258	0.089	1030516	keystroke_a	a	n/a
515.362	0.1055	1030724	keystroke_m	m	n/a
515.9175	0.0595	1031835	keystroke_Key.space	Key.space	n/a
516.4575	0.075	1032915	keystroke_k	k	n/a
516.5475	0.12	1033095	keystroke_a	a	n/a
516.6975	0.12	1033395	keystroke_n	n	n/a
517.088	0.045	1034176	keystroke_s	s	n/a
517.148	0.074	1034296	keystroke_a	a	n/a
517.358	0.0895	1034716	keystroke_s	s	n/a
517.5975	0.09	1035195	keystroke_Key.enter	Key.enter	n/a
517.693	8.068	1035386	prompt	n/a	configure inspired diamond purchasing\n
518.558	0.0895	1037116	keystroke_c	c	n/a
518.693	0.15	1037386	keystroke_o	o	n/a
518.798	0.135	1037596	keystroke_n	n	n/a
519.218	0.089	1038436	keystroke_f	f	n/a
519.337	0.0905	1038674	keystroke_i	i	n/a
519.517	0.06	1039034	keystroke_g	g	n/a
519.622	0.091	1039244	keystroke_u	u	n/a
519.698	0.105	1039396	keystroke_r	r	n/a
519.788	0.104	1039576	keystroke_e	e	n/a
519.937	0.06	1039874	keystroke_Key.space	Key.space	n/a
520.193	0.075	1040386	keystroke_i	i	n/a
520.343	0.089	1040686	keystroke_n	n	n/a
520.8375	0.105	1041675	keystroke_s	s	n/a
521.1375	0.105	1042275	keystroke_p	p	n/a
521.722	0.076	1043444	keystroke_i	i	n/a
521.9325	0.105	1043865	keystroke_r	r	n/a
522.053	0.0885	1044106	keystroke_e	e	n/a
522.248	0.0745	1044496	keystroke_d	d	n/a
522.3675	0.0745	1044735	keystroke_Key.space	Key.space	n/a
522.6675	0.075	1045335	keystroke_d	d	n/a
522.8175	0.09	1045635	keystroke_i	i	n/a
523.0125	0.12	1046025	keystroke_a	a	n/a
