onset	duration	sample	value	key	prompt_text
4.0355	21.9625	8071	prompt	n/a	the quick brown fox jumps over a lazy dog\n
16.607	0.028	33214	keystroke_t	t	n/a
16.608	0.072	33216	keystroke_h	h	n/a
16.725	0.1205	33450	keystroke_e	e	n/a
16.8155	0.0895	33631	keystroke_Key.space	Key.space	n/a
16.966	0.12	33932	keystroke_q	q	n/a
17.116	0.195	34232	keystroke_u	u	n/a
17.266	0.09	34532	keystroke_i	i	n/a
17.461	0.09	34922	keystroke_c	c	n/a
17.581	0.12	35162	keystroke_k	k	n/a
17.716	0.09	35432	keystroke_Key.space	Key.space	n/a
17.9105	0.09	35821	keystroke_b	b	n/a
18.0155	0.1045	36031	keystroke_r	r	n/a
18.15	0.0905	36300	keystroke_o	o	n/a
18.2705	0.075	36541	keystroke_w	w	n/a
18.3155	0.12	36631	keystroke_n	n	n/a
18.4505	0.1495	36901	keystroke_Key.space	Key.space	n/a
18.615	0.105	37230	keystroke_f	f	n/a
18.69	0.12	37380	keystroke_o	o	n/a
18.87	0.135	37740	keystroke_x	x	n/a
18.99	0.1355	37980	keystroke_Key.space	Key.space	n/a
19.1555	0.06	38311	keystroke_j	j	n/a
19.936	0.045	39872	keystroke_u	u	n/a
20.175	0.091	40350	keystroke_m	m	n/a
20.34	0.075	40680	keystroke_p	p	n/a
20.446	0.119	40892	keystroke_s	s	n/a
20.55	0.09	41100	keystroke_Key.space	Key.space	n/a
20.655	0.0905	41310	keystroke_o	o	n/a
20.7605	0.105	41521	keystroke_v	v	n/a
20.8355	0.045	41671	keystroke_o	o	n/a
21.346	0.09	42692	keystroke_Key.backspace	Key.backspace	n/a
21.511	0.075	43022	keystroke_v	v	n/a
21.571	0.15	43142	keystroke_e	e	n/a
21.661	0.105	43322	keystroke_r	r	n/a
21.751	0.09	43502	keystroke_Key.space	Key.space	n/a
21.9155	0.135	43831	keystroke_a	a	n/a
22.0355	0.135	44071	keystroke_Key.space	Key.space	n/a
22.6505	0.075	45301	keystroke_Key.backspace	Key.backspace	n/a
22.8155	0.045	45631	keystroke_Key.backspace	Key.backspace	n/a
22.9805	0.075	45961	keystroke_Key.backspace	Key.backspace	n/a
23.1305	0.075	46261	keystroke_Key.backspace	Key.backspace	n/a
23.2955	0.09	46591	keystroke_Key.backspace	Key.backspace	n/a
23.4905	0.09	46981	keystroke_Key.backspace	Key.backspace	n/a
23.925	0.165	47850	keystroke_e	e	n/a
24.03	0.12	48060	keystroke_r	r	n/a
24.15	0.105	48300	keystroke_Key.space	Key.space	n/a
24.36	0.105	48720	keystroke_a	a	n/a
24.525	0.0905	49050	keystroke_Key.space	Key.space	n/a
24.6755	0.135	49351	keystroke_l	l	n/a
24.7955	0.06	49591	keystroke_a	a	n/a
25.021	0.134	50042	keystroke_z	z	n/a
25.14	0.091	50280	keystroke_y	y	n/a
25.215	0.075	50430	keystroke_Key.space	Key.space	n/a
25.306	0.104	50612	keystroke_d	d	n/a
25.425	0.105	50850	keystroke_o	o	n/a
25.59	0.12	51180	keystroke_g	g	n/a
25.89	0.105	51780	keystroke_Key.enter	Key.enter	n/a
26.0085	4.204	52017	prompt	n/a	alice blocked holds woods\n
26.686	0.09	53372	keystroke_a	a	n/a
26.791	0.06	53582	keystroke_l	l	n/a
26.986	0.075	53972	keystroke_i	i	n/a
27.076	0.075	54152	keystroke_c	c	n/a
27.211	0.1195	54422	keystroke_e	e	n/a
27.286	0.1345	54572	keystroke_Key.space	Key.space	n/a
27.451	0.0895	54902	keystroke_b	b	n/a
27.6455	0.045	55291	keystroke_l	l	n/a
27.766	0.105	55532	keystroke_o	o	n/a
27.886	0.105	55772	keystroke_c	c	n/a
28.006	0.0895	56012	keystroke_k	k	n/a
28.1405	0.075	56281	keystroke_e	e	n/a
28.2905	0.12	56581	keystroke_d	d	n/a
28.3955	0.075	56791	keystroke_Key.space	Key.space	n/a
28.5455	0.12	57091	keystroke_h	h	n/a
28.6805	0.09	57361	keystroke_o	o	n/a
28.8755	0.091	57751	keystroke_l	l	n/a
28.9805	0.105	57961	keystroke_d	d	n/a
29.1755	0.105	58351	keystroke_s	s	n/a
29.2955	0.09	58591	keystroke_Key.space	Key.space	n/a
29.4455	0.12	58891	keystroke_w	w	n/a
29.5505	0.075	59101	keystroke_o	o	n/a
29.7005	0.105	59401	keystroke_o	o	n/a
29.7755	0.09	59551	keystroke_d	d	n/a
29.9105	0.12	59821	keystroke_s	s	n/a
30.091	0.12	60182	keystroke_Key.enter	Key.enter	n/a
30.2185	5.499	60437	prompt	n/a	fitness speech studies decided\n
30.7205	0.12	61441	keystroke_f	f	n/a
30.8415	0.104	61683	keystroke_i	i	n/a
31.1255	0.075	62251	keystroke_t	t	n/a
31.2755	0.09	62551	keystroke_n	n	n/a
31.3805	0.075	62761	keystroke_e	e	n/a
31.5905	0.045	63181	keystroke_s	s	n/a
31.7105	0.09	63421	keystroke_s	s	n/a
31.8305	0.09	63661	keystroke_Key.space	Key.space	n/a
31.95	0.1205	63900	keystroke_s	s	n/a
32.056	0.0895	64112	keystroke_p	p	n/a
32.1755	0.06	64351	keystroke_e	e	n/a
32.3105	0.075	64621	keystroke_e	e	n/a
32.5505	0.09	65101	keystroke_c	c	n/a
32.6705	0.105	65341	keystroke_h	h	n/a
32.7755	0.09	65551	keystroke_Key.space	Key.space	n/a
32.9855	0.09	65971	keystroke_s	s	n/a
33.18	0.076	66360	keystroke_t	t	n/a
33.301	0.09	66602	keystroke_u	u	n/a
33.45	0.076	66900	keystroke_d	d	n/a
33.705	0.045	67410	keystroke_i	i	n/a
33.811	0.06	67622	keystroke_e	e	n/a
34.02	0.1055	68040	keystroke_s	s	n/a
34.1555	0.09	68311	keystroke_Key.space	Key.space	n/a
34.3505	0.06	68701	keystroke_d	d	n/a
34.515	0.046	69030	keystroke_e	e	n/a
34.695	0.076	69390	keystroke_c	c	n/a
34.801	0.089	69602	keystroke_i	i	n/a
34.92	0.06	69840	keystroke_d	d	n/a
35.1	0.06	70200	keystroke_e	e	n/a
35.25	0.075	70500	keystroke_d	d	n/a
35.64	0.075	71280	keystroke_Key.enter	Key.enter	n/a
35.7205	6.8815	71441	prompt	n/a	meet prevention crystal bands\n
36.616	0.09	73232	keystroke_m	m	n/a
37.3955	0.045	74791	keystroke_e	e	n/a
37.5305	0.09	75061	keystroke_e	e	n/a
37.7255	0.12	75451	keystroke_t	t	n/a
37.8755	0.12	75751	keystroke_Key.space	Key.space	n/a
38.1605	0.105	76321	keystroke_p	p	n/a
38.2505	0.075	76501	keystroke_r	r	n/a
38.4305	0.075	76861	keystroke_e	e	n/a
39	0.12	78000	keystroke_v	v	n/a
39.3	0.15	78600	keystroke_e	e	n/a
39.465	0.075	78930	keystroke_n	n	n/a
39.57	0.105	79140	keystroke_t	t	n/a
39.735	0.165	79470	keystroke_i	i	n/a
39.855	0.165	79710	keystroke_o	o	n/a
39.96	0.12	79920	keystroke_n	n	n/a
40.095	0.09	80190	keystroke_Key.space	Key.space	n/a
40.3205	0.12	80641	keystroke_c	c	n/a
40.5755	0.09	81151	keystroke_r	r	n/a
40.7105	0.09	81421	keystroke_y	y	n/a
40.8155	0.105	81631	keystroke_s	s	n/a
40.9955	0.09	81991	keystroke_t	t	n/a
41.2355	0.105	82471	keystroke_a	a	n/a
41.3105	0.105	82621	keystroke_l	l	n/a
41.4305	0.12	82861	keystroke_Key.space	Key.space	n/a
41.5955	0.06	83191	keystroke_b	b	n/a
41.8355	0.09	83671	keystroke_a	a	n/a
42.0005	0.09	84001	keystroke_n	n	n/a
42.1205	0.09	84241	keystroke_d	d	n/a
42.2705	0.12	84541	keystroke_s	s	n/a
42.4955	0.105	84991	keystroke_Key.enter	Key.enter	n/a
42.6105	7.312	85221	prompt	n/a	detected basename forgotten orchestra\n
43.1855	0.09	86371	keystroke_d	d	n/a
43.3655	0.09	86731	keystroke_e	e	n/a
43.5905	0.09	87181	keystroke_t	t	n/a
43.8005	0.06	87601	keystroke_e	e	n/a
43.9955	0.075	87991	keystroke_c	c	n/a
44.205	0.075	88410	keystroke_t	t	n/a
44.385	0.06	88770	keystroke_e	e	n/a
44.55	0.09	89100	keystroke_d	d	n/a
44.641	0.089	89282	keystroke_Key.space	Key.space	n/a
44.8805	0.09	89761	keystroke_b	b	n/a
44.9555	0.09	89911	keystroke_a	a	n/a
45.1655	0.12	90331	keystroke_s	s	n/a
45.2705	0.105	90541	keystroke_e	e	n/a
45.421	0.075	90842	keystroke_m	m	n/a
45.601	0.105	91202	keystroke_a	a	n/a
45.886	0.06	91772	keystroke_Key.backspace	Key.backspace	n/a
46.006	0.09	92012	keystroke_Key.backspace	Key.backspace	n/a
46.261	0.09	92522	keystroke_n	n	n/a
46.336	0.075	92672	keystroke_a	a	n/a
46.471	0.06	92942	keystroke_m	m	n/a
46.546	0.105	93092	keystroke_e	e	n/a
46.651	0.09	93302	keystroke_Key.space	Key.space	n/a
46.876	0.075	93752	keystroke_f	f	n/a
46.966	0.0895	93932	keystroke_o	o	n/a
47.0705	0.075	94141	keystroke_r	r	n/a
47.2655	0.09	94531	keystroke_g	g	n/a
47.3405	0.09	94681	keystroke_o	o	n/a
47.4605	0.075	94921	keystroke_t	t	n/a
47.5955	0.09	95191	keystroke_t	t	n/a
47.8055	0.12	95611	keystroke_e	e	n/a
48.0005	0.09	96001	keystroke_n	n	n/a
48.1055	0.105	96211	keystroke_Key.space	Key.space	n/a
48.3305	0.09	96661	keystroke_o	o	n/a
48.4505	0.09	96901	keystroke_r	r	n/a
48.7055	0.105	97411	keystroke_c	c	n/a
48.8255	0.075	97651	keystroke_h	h	n/a
48.9305	0.075	97861	keystroke_e	e	n/a
49.1255	0.075	98251	keystroke_s	s	n/a
49.2905	0.075	98581	keystroke_t	t	n/a
49.4555	0.075	98911	keystroke_r	r	n/a
49.6505	0.09	99301	keystroke_a	a	n/a
49.7855	0.135	99571	keystroke_Key.enter	Key.enter	n/a
49.9335	4.999	99867	prompt	n/a	grants reid label alerts\n
50.5955	0.075	101191	keystroke_g	g	n/a
50.7605	0.075	101521	keystroke_r	r	n/a
50.9105	0.12	101821	keystroke_a	a	n/a
51.0455	0.09	102091	keystroke_n	n	n/a
51.1655	0.075	102331	keystroke_t	t	n/a
51.3455	0.12	102691	keystroke_s	s	n/a
51.4505	0.105	102901	keystroke_Key.space	Key.space	n/a
51.5855	0.06	103171	keystroke_r	r	n/a
51.7355	0.075	103471	keystroke_e	e	n/a
51.8705	0.09	103741	keystroke_i	i	n/a
52.066	0.104	104132	keystroke_d	d	n/a
52.201	0.105	104402	keystroke_Key.space	Key.space	n/a
52.5455	0.06	105091	keystroke_l	l	n/a
52.5755	0.135	105151	keystroke_a	a	n/a
52.7855	0.09	105571	keystroke_b	b	n/a
52.9055	0.09	105811	keystroke_e	e	n/a
53.0405	0.09	106081	keystroke_l	l	n/a
53.2655	0.075	106531	keystroke_Key.space	Key.space	n/a
53.5505	0.1195	107101	keystroke_a	a	n/a
53.656	0.075	107312	keystroke_l	l	n/a
53.9105	0.1495	107821	keystroke_e	e	n/a
54.0155	0.1195	108031	keystroke_r	r	n/a
54.3	0.076	108600	keystroke_t	t	n/a
54.556	0.12	109112	keystroke_s	s	n/a
54.81	0.12	109620	keystroke_Key.enter	Key.enter	n/a
54.9365	6.131	109873	prompt	n/a	deserve urban world suggestions\n
55.74	0.075	111480	keystroke_d	d	n/a
55.92	0.075	111840	keystroke_e	e	n/a
56.085	0.135	112170	keystroke_s	s	n/a
56.205	0.075	112410	keystroke_e	e	n/a
56.3405	0.105	112681	keystroke_r	r	n/a
56.6105	0.135	113221	keystroke_v	v	n/a
56.8355	0.15	113671	keystroke_e	e	n/a
57.0005	0.105	114001	keystroke_Key.space	Key.space	n/a
57.3605	0.075	114721	keystroke_u	u	n/a
57.601	0.105	115202	keystroke_r	r	n/a
57.751	0.09	115502	keystroke_b	b	n/a
57.886	0.105	115772	keystroke_a	a	n/a
58.036	0.0895	116072	keystroke_n	n	n/a
58.1555	0.105	116311	keystroke_Key.space	Key.space	n/a
58.5605	0.12	117121	keystroke_w	w	n/a
58.6655	0.075	117331	keystroke_o	o	n/a
58.7555	0.09	117511	keystroke_r	r	n/a
58.9055	0.12	117811	keystroke_l	l	n/a
59.0405	0.105	118081	keystroke_d	d	n/a
59.1605	0.09	118321	keystroke_Key.space	Key.space	n/a
59.2955	0.105	118591	keystroke_s	s	n/a
59.5355	0.075	119071	keystroke_u	u	n/a
59.6405	0.045	119281	keystroke_g	g	n/a
59.7755	0.09	119551	keystroke_g	g	n/a
59.9555	0.09	119911	keystroke_e	e	n/a
60.121	0.09	120242	keystroke_s	s	n/a
60.3155	0.09	120631	keystroke_t	t	n/a
60.4205	0.1655	120841	keystroke_i	i	n/a
60.511	0.12	121022	keystroke_o	o	n/a
60.556	0.135	121112	keystroke_n	n	n/a
60.661	0.21	121322	keystroke_s	s	n/a
60.991	0.075	121982	keystroke_Key.enter	Key.enter	n/a
61.072	6.145	122144	prompt	n/a	changed suggest furnishings burner\n
61.651	0.1495	123302	keystroke_c	c	n/a
61.8155	0.045	123631	keystroke_h	h	n/a
61.8755	0.12	123751	keystroke_a	a	n/a
62.0105	0.0595	124021	keystroke_n	n	n/a
62.1	0.135	124200	keystroke_g	g	n/a
62.28	0.09	124560	keystroke_e	e	n/a
62.46	0.09	124920	keystroke_d	d	n/a
62.565	0.09	125130	keystroke_Key.space	Key.space	n/a
62.701	0.09	125402	keystroke_s	s	n/a
62.835	0.09	125670	keystroke_u	u	n/a
63.1805	0.015	126361	keystroke_g	g	n/a
63.2855	0.06	126571	keystroke_g	g	n/a
63.4505	0.06	126901	keystroke_e	e	n/a
63.6005	0.12	127201	keystroke_s	s	n/a
63.8255	0.09	127651	keystroke_t	t	n/a
63.9905	0.0905	127981	keystroke_Key.space	Key.space	n/a
64.156	0.075	128312	keystroke_f	f	n/a
64.291	0.06	128582	keystroke_u	u	n/a
64.366	0.09	128732	keystroke_r	r	n/a
64.516	0.075	129032	keystroke_n	n	n/a
64.666	0.105	129332	keystroke_i	i	n/a
64.996	0.105	129992	keystroke_s	s	n/a
65.116	0.075	130232	keystroke_h	h	n/a
65.236	0.18	130472	keystroke_i	i	n/a
65.401	0.105	130802	keystroke_n	n	n/a
65.536	0.09	131072	keystroke_g	g	n/a
65.76	0.1205	131520	keystroke_s	s	n/a
65.851	0.1045	131702	keystroke_Key.space	Key.space	n/a
65.9705	0.105	131941	keystroke_b	b	n/a
66.0905	0.12	132181	keystroke_u	u	n/a
66.2255	0.105	132451	keystroke_r	r	n/a
66.5555	0.06	133111	keystroke_n	n	n/a
66.7505	0.135	133501	keystroke_e	e	n/a
66.8405	0.105	133681	keystroke_r	r	n/a
67.1255	0.09	134251	keystroke_Key.enter	Key.enter	n/a
67.2195	6.2075	134439	prompt	n/a	target ballot horror closes\n
67.846	0.09	135692	keystroke_t	t	n/a
68.071	0.104	136142	keystroke_a	a	n/a
68.265	0.09	136530	keystroke_r	r	n/a
68.535	0.015	137070	keystroke_g	g	n/a
68.73	0.136	137460	keystroke_e	e	n/a
68.88	0.105	137760	keystroke_t	t	n/a
69.105	0.105	138210	keystroke_Key.space	Key.space	n/a
69.345	0.09	138690	keystroke_b	b	n/a
69.45	0.09	138900	keystroke_a	a	n/a
69.7505	0.06	139501	keystroke_l	l	n/a
69.9005	0.06	139801	keystroke_l	l	n/a
70.0205	0.0895	140041	keystroke_o	o	n/a
70.17	0.1055	140340	keystroke_t	t	n/a
70.3805	0.045	140761	keystroke_Key.space	Key.space	n/a
71.0255	0.075	142051	keystroke_h	h	n/a
71.1755	0.09	142351	keystroke_o	o	n/a
71.3105	0.06	142621	keystroke_r	r	n/a
71.4455	0.09	142891	keystroke_r	r	n/a
71.5505	0.105	143101	keystroke_o	o	n/a
71.7905	0.09	143581	keystroke_r	r	n/a
72.1655	0.09	144331	keystroke_Key.space	Key.space	n/a
72.3155	0.135	144631	keystroke_c	c	n/a
72.4655	0.03	144931	keystroke_l	l	n/a
72.615	0.075	145230	keystroke_o	o	n/a
72.735	0.165	145470	keystroke_s	s	n/a
72.87	0.105	145740	keystroke_e	e	n/a
73.185	0.015	146370	keystroke_s	s	n/a
73.35	0.075	146700	keystroke_Key.enter	Key.enter	n/a
73.4385	6.9935	146877	prompt	n/a	updating trusts angry vegetarian\n
74.296	0.09	148592	keystroke_u	u	n/a
74.506	0.075	149012	keystroke_p	p	n/a
74.611	0.06	149222	keystroke_d	d	n/a
74.746	0.105	149492	keystroke_a	a	n/a
75.046	0.075	150092	keystroke_t	t	n/a
75.361	0.1195	150722	keystroke_i	i	n/a
75.4655	0.105	150931	keystroke_n	n	n/a
75.5255	0.135	151051	keystroke_g	g	n/a
75.6455	0.105	151291	keystroke_Key.space	Key.space	n/a
75.8555	0.075	151711	keystroke_t	t	n/a
76.0205	0.0755	152041	keystroke_r	r	n/a
76.111	0.09	152222	keystroke_u	u	n/a
76.231	0.09	152462	keystroke_s	s	n/a
76.441	0.09	152882	keystroke_t	t	n/a
76.681	0.1195	153362	keystroke_s	s	n/a
76.8005	0.105	153601	keystroke_Key.space	Key.space	n/a
76.9665	0.089	153933	keystroke_a	a	n/a
77.0705	0.105	154141	keystroke_n	n	n/a
77.2205	0.09	154441	keystroke_g	g	n/a
77.4305	0.09	154861	keystroke_r	r	n/a
77.5655	0.135	155131	keystroke_y	y	n/a
77.6855	0.135	155371	keystroke_Key.space	Key.space	n/a
77.8205	0.135	155641	keystroke_v	v	n/a
78.0005	0.12	156001	keystroke_e	e	n/a
78.1655	0.06	156331	keystroke_n	n	n/a
78.5255	0.09	157051	keystroke_Key.backspace	Key.backspace	n/a
78.6305	0.165	157261	keystroke_g	g	n/a
78.8255	0.105	157651	keystroke_e	e	n/a
79.216	0.045	158432	keystroke_t	t	n/a
79.5305	0.105	159061	keystroke_a	a	n/a
79.7255	0.09	159451	keystroke_r	r	n/a
79.8305	0.0755	159661	keystroke_i	i	n/a
79.95	0.1205	159900	keystroke_a	a	n/a
80.0855	0.075	160171	keystroke_n	n	n/a
80.3705	0.06	160741	keystroke_Key.enter	Key.enter	n/a
80.4345	5.6675	160869	prompt	n/a	facing implies go attention\n
81.18	0.15	162360	keystroke_f	f	n/a
81.39	0.09	162780	keystroke_a	a	n/a
81.57	0.135	163140	keystroke_c	c	n/a
82.005	0.15	164010	keystroke_i	i	n/a
82.11	0.105	164220	keystroke_n	n	n/a
82.275	0.15	164550	keystroke_g	g	n/a
82.455	0.09	164910	keystroke_Key.space	Key.space	n/a
82.68	0.15	165360	keystroke_i	i	n/a
82.815	0.09	165630	keystroke_m	m	n/a
83.07	0.06	166140	keystroke_p	p	n/a
83.115	0.06	166230	keystroke_l	l	n/a
83.4	0.075	166800	keystroke_i	i	n/a
83.6255	0.09	167251	keystroke_e	e	n/a
83.8205	0.09	167641	keystroke_s	s	n/a
83.9405	0.105	167881	keystroke_Key.space	Key.space	n/a
84.0905	0.105	168181	keystroke_g	g	n/a
84.2105	0.105	168421	keystroke_o	o	n/a
84.2855	0.105	168571	keystroke_Key.space	Key.space	n/a
84.4355	0.12	168871	keystroke_a	a	n/a
84.8855	0.045	169771	keystroke_t	t	n/a
85.0355	0.045	170071	keystroke_t	t	n/a
85.1405	0.09	170281	keystroke_e	e	n/a
85.2605	0.0455	170521	keystroke_n	n	n/a
85.4705	0.045	170941	keystroke_t	t	n/a
85.531	0.105	171062	keystroke_i	i	n/a
85.591	0.105	171182	keystroke_o	o	n/a
85.651	0.12	171302	keystroke_n	n	n/a
86.0255	0.075	172051	keystroke_Key.enter	Key.enter	n/a
86.106	6.206	172212	prompt	n/a	update concentrations stable aware\n
86.8655	0.09	173731	keystroke_u	u	n/a
86.9705	0.12	173941	keystroke_p	p	n/a
87.1055	0.09	174211	keystroke_d	d	n/a
87.3755	0.045	174751	keystroke_a	a	n/a
87.9	0.09	175800	keystroke_t	t	n/a
88.096	0.09	176192	keystroke_e	e	n/a
88.261	0.06	176522	keystroke_Key.space	Key.space	n/a
88.426	0.09	176852	keystroke_c	c	n/a
88.486	0.105	176972	keystroke_o	o	n/a
88.561	0.09	177122	keystroke_n	n	n/a
88.666	0.1645	177332	keystroke_c	c	n/a
88.8155	0.09	177631	keystroke_e	e	n/a
88.921	0.0595	177842	keystroke_n	n	n/a
89.1005	0.045	178201	keystroke_t	t	n/a
89.2355	0.075	178471	keystroke_r	r	n/a
89.4005	0.09	178801	keystroke_a	a	n/a
89.6255	0.09	179251	keystroke_t	t	n/a
89.7455	0.15	179491	keystroke_i	i	n/a
89.8205	0.135	179641	keystroke_o	o	n/a
89.9105	0.12	179821	keystroke_n	n	n/a
90.0005	0.105	180001	keystroke_Key.space	Key.space	n/a
90.2405	0.09	180481	keystroke_s	s	n/a
90.4505	0.06	180901	keystroke_t	t	n/a
90.6455	0.1055	181291	keystroke_a	a	n/a
90.735	0.06	181470	keystroke_b	b	n/a
90.885	0.091	181770	keystroke_l	l	n/a
90.96	0.09	181920	keystroke_e	e	n/a
91.065	0.09	182130	keystroke_Key.space	Key.space	n/a
91.17	0.12	182340	keystroke_a	a	n/a
91.305	0.15	182610	keystroke_w	w	n/a
91.456	0.1045	182912	keystroke_a	a	n/a
91.7255	0.09	183451	keystroke_r	r	n/a
91.9205	0.09	183841	keystroke_e	e	n/a
92.2355	0.075	184471	keystroke_Key.enter	Key.enter	n/a
92.3145	7.4225	184629	prompt	n/a	subsidiary serial penn projected\n
93.0305	0.0895	186061	keystroke_u	u	n/a
93.121	0.0895	186242	keystroke_s	s	n/a
93.4805	0.06	186961	keystroke_Key.backspace	Key.backspace	n/a
93.6455	0.045	187291	keystroke_Key.backspace	Key.backspace	n/a
93.7355	0.09	187471	keystroke_s	s	n/a
93.885	0.075	187770	keystroke_u	u	n/a
94.1255	0.075	188251	keystroke_b	b	n/a
94.3055	0.105	188611	keystroke_s	s	n/a
94.4105	0.075	188821	keystroke_i	i	n/a
94.83	0.09	189660	keystroke_d	d	n/a
94.921	0.074	189842	keystroke_i	i	n/a
95.01	0.105	190020	keystroke_a	a	n/a
95.22	0.09	190440	keystroke_r	r	n/a
95.535	0.105	191070	keystroke_y	y	n/a
95.655	0.09	191310	keystroke_Key.space	Key.space	n/a
95.94	0.135	191880	keystroke_s	s	n/a
96.24	0.075	192480	keystroke_e	e	n/a
96.42	0.075	192840	keystroke_r	r	n/a
96.496	0.089	192992	keystroke_i	i	n/a
96.675	0.105	193350	keystroke_a	a	n/a
96.81	0.09	193620	keystroke_l	l	n/a
96.885	0.105	193770	keystroke_Key.space	Key.space	n/a
97.245	0.06	194490	keystroke_p	p	n/a
97.32	0.09	194640	keystroke_e	e	n/a
97.545	0.03	195090	keystroke_n	n	n/a
97.68	0.075	195360	keystroke_n	n	n/a
97.7855	0.06	195571	keystroke_Key.space	Key.space	n/a
97.9055	0.075	195811	keystroke_p	p	n/a
97.9955	0.075	195991	keystroke_r	r	n/a
98.1155	0.06	196231	keystroke_o	o	n/a
98.5805	0.0755	197161	keystroke_j	j	n/a
98.701	0.075	197402	keystroke_e	e	n/a
98.911	0.12	197822	keystroke_c	c	n/a
99.151	0.075	198302	keystroke_t	t	n/a
99.301	0.06	198602	keystroke_e	e	n/a
99.4805	0.075	198961	keystroke_d	d	n/a
99.6305	0.105	199261	keystroke_Key.enter	Key.enter	n/a
99.7395	8.3525	199479	prompt	n/a	annotated starring quantum benchmark\n
100.2455	0.105	200491	keystroke_a	a	n/a
100.4855	0.015	200971	keystroke_n	n	n/a
100.6055	0.075	201211	keystroke_n	n	n/a
100.8005	0.105	201601	keystroke_o	o	n/a
100.9205	0.105	201841	keystroke_t	t	n/a
101.1605	0.09	202321	keystroke_a	a	n/a
101.415	0.045	202830	keystroke_t	t	n/a
101.52	0.0905	203040	keystroke_e	e	n/a
101.7155	0.075	203431	keystroke_d	d	n/a
101.8055	0.09	203611	keystroke_Key.space	Key.space	n/a
102.135	0.06	204270	keystroke_s	s	n/a
102.405	0.075	204810	keystroke_t	t	n/a
102.585	0.12	205170	keystroke_a	a	n/a
102.855	0.075	205710	keystroke_r	r	n/a
102.99	0.105	205980	keystroke_r	r	n/a
103.125	0.135	206250	keystroke_i	i	n/a
103.245	0.09	206490	keystroke_n	n	n/a
103.395	0.12	206790	keystroke_g	g	n/a
103.62	0.09	207240	keystroke_Key.space	Key.space	n/a
104.2355	0.09	208471	keystroke_q	q	n/a
104.3405	0.0595	208681	keystroke_u	u	n/a
104.445	0.12	208890	keystroke_a	a	n/a
104.55	0.09	209100	keystroke_n	n	n/a
104.7455	0.105	209491	keystroke_t	t	n/a
105.12	0.075	210240	keystroke_u	u	n/a
105.375	0.0905	210750	keystroke_m	m	n/a
105.6605	0.105	211321	keystroke_Key.space	Key.space	n/a
105.8855	0.105	211771	keystroke_b	b	n/a
106.0505	0.075	212101	keystroke_e	e	n/a
106.1855	0.09	212371	keystroke_n	n	n/a
106.3205	0.12	212641	keystroke_c	c	n/a
106.4255	0.03	212851	keystroke_h	h	n/a
106.7855	0.045	213571	keystroke_a	a	n/a
107.1305	0.06	214261	keystroke_Key.backspace	Key.backspace	n/a
107.3705	0.075	214741	keystroke_m	m	n/a
107.4305	0.09	214861	keystroke_a	a	n/a
107.6255	0.105	215251	keystroke_r	r	n/a
107.7605	0.09	215521	keystroke_k	k	n/a
108.0155	0.075	216031	keystroke_Key.enter	Key.enter	n/a
108.0945	8.7725	216189	prompt	n/a	happens recorder tuner estimated\n
108.6905	0.105	217381	keystroke_h	h	n/a
108.9005	0.03	217801	keystroke_p	p	n/a
109.2155	0.09	218431	keystroke_Key.backspace	Key.backspace	n/a
109.3055	0.12	218611	keystroke_a	a	n/a
109.4705	0.0745	218941	keystroke_p	p	n/a
109.62	0.075	219240	keystroke_p	p	n/a
109.77	0.12	219540	keystroke_e	e	n/a
109.92	0.075	219840	keystroke_n	n	n/a
110.0705	0.105	220141	keystroke_s	s	n/a
110.146	0.0895	220292	keystroke_Key.space	Key.space	n/a
110.4005	0.075	220801	keystroke_r	r	n/a
110.5505	0.075	221101	keystroke_e	e	n/a
111.0905	0.075	222181	keystroke_c	c	n/a
111.1955	0.075	222391	keystroke_o	o	n/a
111.6605	0.075	223321	keystroke_r	r	n/a
111.9005	0.09	223801	keystroke_d	d	n/a
112.185	0.106	224370	keystroke_e	e	n/a
112.245	0.106	224490	keystroke_r	r	n/a
112.485	0.12	224970	keystroke_Key.space	Key.space	n/a
112.621	0.105	225242	keystroke_t	t	n/a
112.74	0.105	225480	keystroke_u	u	n/a
112.846	0.09	225692	keystroke_r	r	n/a
113.25	0.0305	226500	keystroke_Key.backspace	Key.backspace	n/a
113.4755	0.09	226951	keystroke_n	n	n/a
113.5505	0.105	227101	keystroke_e	e	n/a
113.6255	0.105	227251	keystroke_r	r	n/a
113.7455	0.09	227491	keystroke_Key.space	Key.space	n/a
114.0905	0.105	228181	keystroke_e	e	n/a
114.2555	0.105	228511	keystroke_s	s	n/a
114.4505	0.09	228901	keystroke_t	t	n/a
114.7505	0.12	229501	keystroke_i	i	n/a
114.96	0.091	229920	keystroke_m	m	n/a
115.051	0.089	230102	keystroke_a	a	n/a
115.306	0.074	230612	keystroke_t	t	n/a
115.47	0.09	230940	keystroke_e	e	n/a
115.665	0.105	231330	keystroke_d	d	n/a
116.7755	0.09	233551	keystroke_Key.enter	Key.enter	n/a
116.87	7.782	233740	prompt	n/a	together primary emacs walks\n
118.005	0.15	236010	keystroke_t	t	n/a
118.275	0.09	236550	keystroke_o	o	n/a
118.605	0.105	237210	keystroke_g	g	n/a
118.98	0.1055	237960	keystroke_e	e	n/a
119.2055	0.105	238411	keystroke_t	t	n/a
119.3555	0.06	238711	keystroke_h	h	n/a
119.4305	0.12	238861	keystroke_e	e	n/a
119.5055	0.135	239011	keystroke_r	r	n/a
119.6555	0.105	239311	keystroke_Key.space	Key.space	n/a
119.8805	0.06	239761	keystroke_p	p	n/a
119.9415	0.1645	239883	keystroke_r	r	n/a
120.075	0.18	240150	keystroke_i	i	n/a
120.24	0.136	240480	keystroke_m	m	n/a
120.4055	0.15	240811	keystroke_a	a	n/a
120.6455	0.105	241291	keystroke_r	r	n/a
120.8405	0.1055	241681	keystroke_y	y	n/a
120.99	0.09	241980	keystroke_Key.space	Key.space	n/a
121.56	0.09	243120	keystroke_e	e	n/a
121.8305	0.105	243661	keystroke_m	m	n/a
122.0255	0.0745	244051	keystroke_a	a	n/a
122.235	0.06	244470	keystroke_s	s	n/a
123.09	0.09	246180	keystroke_Key.backspace	Key.backspace	n/a
123.165	0.18	246330	keystroke_c	c	n/a
123.33	0.15	246660	keystroke_s	s	n/a
123.481	0.089	246962	keystroke_Key.space	Key.space	n/a
123.66	0.03	247320	keystroke_w	w	n/a
123.78	0.135	247560	keystroke_a	a	n/a
123.96	0.12	247920	keystroke_l	l	n/a
124.02	0.135	248040	keystroke_k	k	n/a
124.14	0.105	248280	keystroke_s	s	n/a
124.56	0.09	249120	keystroke_Key.enter	Key.enter	n/a
124.6555	8.0215	249311	prompt	n/a	nintendo azerbaijan comparable backing\n
125.4305	0.06	250861	keystroke_n	n	n/a
125.5505	0.15	251101	keystroke_i	i	n/a
125.6405	0.135	251281	keystroke_n	n	n/a
125.85	0.09	251700	keystroke_t	t	n/a
125.985	0.0755	251970	keystroke_e	e	n/a
126.0755	0.075	252151	keystroke_n	n	n/a
126.4355	0.105	252871	keystroke_d	d	n/a
126.6755	0.12	253351	keystroke_o	o	n/a
126.8255	0.09	253651	keystroke_Key.space	Key.space	n/a
127.02	0.09	254040	keystroke_a	a	n/a
127.5	0.135	255000	keystroke_z	z	n/a
127.8605	0.15	255721	keystroke_e	e	n/a
127.9355	0.135	255871	keystroke_r	r	n/a
128.3855	0.075	256771	keystroke_b	b	n/a
128.5205	0.12	257041	keystroke_a	a	n/a
128.7005	0.09	257401	keystroke_i	i	n/a
128.9255	0.06	257851	keystroke_j	j	n/a
129.0155	0.135	258031	keystroke_a	a	n/a
129.1355	0.075	258271	keystroke_n	n	n/a
129.2555	0.105	258511	keystroke_Key.space	Key.space	n/a
129.4505	0.165	258901	keystroke_c	c	n/a
129.6005	0.12	259201	keystroke_o	o	n/a
129.7055	0.12	259411	keystroke_m	m	n/a
129.976	0.09	259952	keystroke_p	p	n/a
130.0505	0.0905	260101	keystroke_a	a	n/a
130.261	0.0745	260522	keystroke_r	r	n/a
130.4255	0.15	260851	keystroke_a	a	n/a
130.6505	0.075	261301	keystroke_b	b	n/a
130.8905	0.09	261781	keystroke_l	l	n/a
130.9655	0.105	261931	keystroke_e	e	n/a
131.0855	0.09	262171	keystroke_Key.space	Key.space	n/a
131.461	0.09	262922	keystroke_b	b	n/a
131.566	0.075	263132	keystroke_a	a	n/a
131.716	0.105	263432	keystroke_c	c	n/a
131.866	0.075	263732	keystroke_k	k	n/a
132.061	0.075	264122	keystroke_i	i	n/a
132.106	0.105	264212	keystroke_n	n	n/a
132.226	0.12	264452	keystroke_g	g	n/a
132.586	0.0895	265172	keystroke_Key.enter	Key.enter	n/a
132.682	7.18	265364	prompt	n/a	miracle trek string translator\n
133.2455	0.09	266491	keystroke_m	m	n/a
133.4255	0.075	266851	keystroke_i	i	n/a
133.6505	0.06	267301	keystroke_r	r	n/a
133.8605	0.105	267721	keystroke_a	a	n/a
134.1605	0.105	268321	keystroke_c	c	n/a
134.356	0.075	268712	keystroke_l	l	n/a
134.461	0.135	268922	keystroke_e	e	n/a
134.611	0.105	269222	keystroke_Key.space	Key.space	n/a
135.061	0.06	270122	keystroke_t	t	n/a
135.661	0.135	271322	keystroke_r	r	n/a
135.96	0.121	271920	keystroke_e	e	n/a
136.216	0.105	272432	keystroke_k	k	n/a
136.426	0.105	272852	keystroke_Key.space	Key.space	n/a
136.711	0.12	273422	keystroke_s	s	n/a
136.936	0.09	273872	keystroke_t	t	n/a
137.131	0.105	274262	keystroke_r	r	n/a
137.206	0.12	274412	keystroke_i	i	n/a
137.371	0.09	274742	keystroke_n	n	n/a
137.506	0.105	275012	keystroke_g	g	n/a
137.641	0.06	275282	keystroke_Key.space	Key.space	n/a
137.881	0.075	275762	keystroke_t	t	n/a
138.031	0.075	276062	keystroke_r	r	n/a
138.2105	0.0605	276421	keystroke_a	a	n/a
138.286	0.074	276572	keystroke_n	n	n/a
138.406	0.09	276812	keystroke_s	s	n/a
138.586	0.06	277172	keystroke_l	l	n/a
138.886	0.12	277772	keystroke_a	a	n/a
139.2	0.12	278400	keystroke_t	t	n/a
139.335	0.076	278670	keystroke_o	o	n/a
139.515	0.12	279030	keystroke_r	r	n/a
139.77	0.0905	279540	keystroke_Key.enter	Key.enter	n/a
139.866	9.746	279732	prompt	n/a	republicans turkish spain conceptual\n
140.595	0.09	281190	keystroke_r	r	n/a
140.79	0.075	281580	keystroke_e	e	n/a
140.955	0.12	281910	keystroke_p	p	n/a
141.255	0.12	282510	keystroke_u	u	n/a
141.585	0.09	283170	keystroke_b	b	n/a
141.765	0.105	283530	keystroke_l	l	n/a
141.99	0.09	283980	keystroke_i	i	n/a
142.125	0.1355	284250	keystroke_c	c	n/a
142.3205	0.105	284641	keystroke_q	q	n/a
142.4555	0.075	284911	keystroke_n	n	n/a
143.1305	0.06	286261	keystroke_Key.backspace	Key.backspace	n/a
143.4155	0.09	286831	keystroke_Key.backspace	Key.backspace	n/a
143.85	0.105	287700	keystroke_a	a	n/a
144	0.09	288000	keystroke_n	n	n/a
144.3305	0.12	288661	keystroke_s	s	n/a
144.6005	0.105	289201	keystroke_Key.space	Key.space	n/a
145.3055	0.105	290611	keystroke_t	t	n/a
145.4405	0.09	290881	keystroke_u	u	n/a
145.5305	0.09	291061	keystroke_r	r	n/a
145.6655	0.09	291331	keystroke_k	k	n/a
145.9355	0.075	291871	keystroke_i	i	n/a
146.0705	0.135	292141	keystroke_s	s	n/a
146.2205	0.105	292441	keystroke_h	h	n/a
146.3405	0.09	292681	keystroke_Key.space	Key.space	n/a
146.5505	0.12	293101	keystroke_s	s	n/a
146.6855	0.105	293371	keystroke_p	p	n/a
146.8355	0.1205	293671	keystroke_a	a	n/a
146.985	0.151	293970	keystroke_i	i	n/a
147.121	0.104	294242	keystroke_n	n	n/a
147.255	0.075	294510	keystroke_Key.space	Key.space	n/a
147.931	0.105	295862	keystroke_c	c	n/a
148.02	0.121	296040	keystroke_o	o	n/a
148.096	0.12	296192	keystroke_n	n	n/a
148.171	0.12	296342	keystroke_c	c	n/a
148.501	0.075	297002	keystroke_e	e	n/a
148.636	0.09	297272	keystroke_p	p	n/a
148.831	0.075	297662	keystroke_t	t	n/a
149.0105	0.0755	298021	keystroke_u	u	n/a
149.161	0.105	298322	keystroke_a	a	n/a
149.251	0.075	298502	keystroke_l	l	n/a
149.521	0.09	299042	keystroke_Key.enter	Key.enter	n/a
149.615	10.587	299230	prompt	n/a	observed olympics peas converter\n
150.301	0.0895	300602	keystroke_o	o	n/a
150.8705	0.075	301741	keystroke_b	b	n/a
151.2755	0.105	302551	keystroke_s	s	n/a
151.5155	0.075	303031	keystroke_e	e	n/a
151.6955	0.075	303391	keystroke_r	r	n/a
151.9055	0.15	303811	keystroke_v	v	n/a
152.1155	0.12	304231	keystroke_e	e	n/a
152.3555	0.135	304711	keystroke_d	d	n/a
152.5055	0.09	305011	keystroke_Key.space	Key.space	n/a
152.7905	0.12	305581	keystroke_o	o	n/a
152.9705	0.075	305941	keystroke_n	n	n/a
153.45	0.06	306900	keystroke_Key.backspace	Key.backspace	n/a
153.645	0.105	307290	keystroke_l	l	n/a
153.825	0.105	307650	keystroke_y	y	n/a
153.9455	0.09	307891	keystroke_m	m	n/a
154.215	0.12	308430	keystroke_p	p	n/a
154.32	0.09	308640	keystroke_i	i	n/a
154.425	0.1655	308850	keystroke_c	c	n/a
154.7105	0.015	309421	keystroke_a	a	n/a
154.7855	0.105	309571	keystroke_s	s	n/a
155.0255	0.12	310051	keystroke_Key.space	Key.space	n/a
155.58	0.03	311160	keystroke_Key.backspace	Key.backspace	n/a
155.701	0.059	311402	keystroke_Key.backspace	Key.backspace	n/a
155.82	0.105	311640	keystroke_Key.backspace	Key.backspace	n/a
155.926	0.09	311852	keystroke_s	s	n/a
156.075	0.09	312150	keystroke_Key.space	Key.space	n/a
156.196	0.09	312392	keystroke_p	p	n/a
156.271	0.074	312542	keystroke_e	e	n/a
156.42	0.091	312840	keystroke_a	a	n/a
156.645	0.18	313290	keystroke_s	s	n/a
156.78	0.121	313560	keystroke_e	e	n/a
157.23	0.06	314460	keystroke_Key.backspace	Key.backspace	n/a
157.4705	0.075	314941	keystroke_Key.space	Key.space	n/a
157.9655	0.12	315931	keystroke_c	c	n/a
158.2955	0.105	316591	keystroke_n	n	n/a
158.7155	0.03	317431	keystroke_Key.backspace	Key.backspace	n/a
158.911	0.134	317822	keystroke_o	o	n/a
159	0.091	318000	keystroke_n	n	n/a
159.12	0.255	318240	keystroke_v	v	n/a
159.255	0.15	318510	keystroke_e	e	n/a
159.376	0.059	318752	keystroke_r	r	n/a
159.556	0.089	319112	keystroke_t	t	n/a
159.705	0.105	319410	keystroke_e	e	n/a
159.765	0.09	319530	keystroke_r	r	n/a
160.0955	0.105	320191	keystroke_Key.enter	Key.enter	n/a
160.2045	6.7775	320409	prompt	n/a	wave photographers lynn angeles\n
160.815	0.075	321630	keystroke_w	w	n/a
160.965	0.105	321930	keystroke_a	a	n/a
161.175	0.09	322350	keystroke_v	v	n/a
161.295	0.06	322590	keystroke_e	e	n/a
161.415	0.105	322830	keystroke_Key.space	Key.space	n/a
161.625	0.09	323250	keystroke_p	p	n/a
161.76	0.09	323520	keystroke_r	r	n/a
162.285	0.06	324570	keystroke_Key.backspace	Key.backspace	n/a
162.51	0.075	325020	keystroke_h	h	n/a
162.705	0.075	325410	keystroke_o	o	n/a
162.915	0.09	325830	keystroke_t	t	n/a
163.08	0.06	326160	keystroke_o	o	n/a
163.53	0.06	327060	keystroke_g	g	n/a
163.725	0.06	327450	keystroke_r	r	n/a
163.905	0.105	327810	keystroke_a	a	n/a
164.04	0.0605	328080	keystroke_p	p	n/a
164.2205	0.075	328441	keystroke_h	h	n/a
164.2955	0.105	328591	keystroke_e	e	n/a
164.3405	0.1045	328681	keystroke_r	r	n/a
164.55	0.075	329100	keystroke_s	s	n/a
164.64	0.105	329280	keystroke_Key.space	Key.space	n/a
164.835	0.075	329670	keystroke_l	l	n/a
165.045	0.075	330090	keystroke_y	y	n/a
165.3	0.045	330600	keystroke_n	n	n/a
165.45	0.106	330900	keystroke_n	n	n/a
165.51	0.106	331020	keystroke_Key.space	Key.space	n/a
165.796	0.105	331592	keystroke_a	a	n/a
165.916	0.075	331832	keystroke_n	n	n/a
166.051	0.12	332102	keystroke_g	g	n/a
166.246	0.06	332492	keystroke_e	e	n/a
166.336	0.075	332672	keystroke_l	l	n/a
166.426	0.09	332852	keystroke_e	e	n/a
166.651	0.134	333302	keystroke_s	s	n/a
166.905	0.075	333810	keystroke_Key.enter	Key.enter	n/a
166.9845	6.8225	333969	prompt	n/a	occupation procedure fill southeast\n
167.581	0.06	335162	keystroke_o	o	n/a
167.746	0.075	335492	keystroke_c	c	n/a
167.896	0.09	335792	keystroke_c	c	n/a
168.091	0.105	336182	keystroke_u	u	n/a
168.316	0.105	336632	keystroke_p	p	n/a
168.406	0.12	336812	keystroke_a	a	n/a
168.706	0.09	337412	keystroke_t	t	n/a
168.841	0.165	337682	keystroke_i	i	n/a
168.916	0.15	337832	keystroke_o	o	n/a
168.991	0.165	337982	keystroke_n	n	n/a
169.141	0.1045	338282	keystroke_Key.space	Key.space	n/a
169.4255	0.0755	338851	keystroke_p	p	n/a
169.561	0.09	339122	keystroke_r	r	n/a
169.786	0.075	339572	keystroke_o	o	n/a
169.981	0.105	339962	keystroke_c	c	n/a
170.281	0.06	340562	keystroke_e	e	n/a
170.5055	0.12	341011	keystroke_d	d	n/a
170.6705	0.09	341341	keystroke_u	u	n/a
170.8205	0.06	341641	keystroke_r	r	n/a
171.0005	0.1045	342001	keystroke_e	e	n/a
171.12	0.075	342240	keystroke_Key.space	Key.space	n/a
171.405	0.165	342810	keystroke_f	f	n/a
171.571	0.059	343142	keystroke_i	i	n/a
171.735	0.06	343470	keystroke_l	l	n/a
171.885	0.135	343770	keystroke_l	l	n/a
172.005	0.105	344010	keystroke_Key.space	Key.space	n/a
172.185	0.135	344370	keystroke_s	s	n/a
172.29	0.09	344580	keystroke_o	o	n/a
172.335	0.09	344670	keystroke_u	u	n/a
172.515	0.105	345030	keystroke_t	t	n/a
172.65	0.09	345300	keystroke_h	h	n/a
172.8	0.075	345600	keystroke_e	e	n/a
172.965	0.09	345930	keystroke_a	a	n/a
173.235	0.105	346470	keystroke_s	s	n/a
173.46	0.06	346920	keystroke_t	t	n/a
173.7	0.105	347400	keystroke_Key.enter	Key.enter	n/a
173.8095	8.817	347619	prompt	n/a	ventures albuquerque praise manner\n
174.6455	0.135	349291	keystroke_v	v	n/a
174.7955	0.225	349591	keystroke_e	e	n/a
175.2605	0.09	350521	keystroke_n	n	n/a
175.4705	0.12	350941	keystroke_t	t	n/a
175.7105	0.105	351421	keystroke_u	u	n/a
175.8305	0.09	351661	keystroke_r	r	n/a
176.0255	0.09	352051	keystroke_e	e	n/a
176.2355	0.15	352471	keystroke_s	s	n/a
176.4005	0.075	352801	keystroke_Key.space	Key.space	n/a
176.5355	0.105	353071	keystroke_a	a	n/a
176.6855	0.075	353371	keystroke_l	l	n/a
176.8805	0.075	353761	keystroke_b	b	n/a
177.0755	0.075	354151	keystroke_u	u	n/a
177.5105	0.1345	355021	keystroke_q	q	n/a
177.6755	0.075	355351	keystroke_u	u	n/a
177.8105	0.105	355621	keystroke_e	e	n/a
178.11	0.12	356220	keystroke_r	r	n/a
178.6355	0.12	357271	keystroke_e	e	n/a
178.7855	0.075	357571	keystroke_u	u	n/a
179.4305	0.075	358861	keystroke_Key.backspace	Key.backspace	n/a
179.5795	0.091	359159	keystroke_Key.backspace	Key.backspace	n/a
179.6405	0.09	359281	keystroke_q	q	n/a
179.7905	0.09	359581	keystroke_u	u	n/a
179.9255	0.105	359851	keystroke_e	e	n/a
180.09	0.06	360180	keystroke_Key.space	Key.space	n/a
180.63	0.0905	361260	keystroke_p	p	n/a
180.7505	0.0895	361501	keystroke_r	r	n/a
180.9755	0.09	361951	keystroke_a	a	n/a
181.0955	0.105	362191	keystroke_i	i	n/a
181.2455	0.15	362491	keystroke_s	s	n/a
181.3655	0.105	362731	keystroke_e	e	n/a
181.5155	0.06	363031	keystroke_Key.space	Key.space	n/a
181.831	0.074	363662	keystroke_m	m	n/a
181.921	0.104	363842	keystroke_a	a	n/a
182.026	0.059	364052	keystroke_n	n	n/a
182.161	0.089	364322	keystroke_n	n	n/a
182.236	0.135	364472	keystroke_e	e	n/a
182.31	0.09	364620	keystroke_r	r	n/a
182.55	0.075	365100	keystroke_Key.enter	Key.enter	n/a
182.6295	4.5575	365259	prompt	n/a	suite wages printable cove\n
183.195	0.12	366390	keystroke_s	s	n/a
183.39	0.151	366780	keystroke_u	u	n/a
183.495	0.136	366990	keystroke_i	i	n/a
183.66	0.105	367320	keystroke_t	t	n/a
183.8705	0.09	367741	keystroke_e	e	n/a
183.9905	0.105	367981	keystroke_Key.space	Key.space	n/a
184.1405	0.075	368281	keystroke_w	w	n/a
184.2905	0.075	368581	keystroke_a	a	n/a
184.5005	0.105	369001	keystroke_g	g	n/a
184.6505	0.1205	369301	keystroke_e	e	n/a
184.845	0.105	369690	keystroke_s	s	n/a
184.965	0.09	369930	keystroke_Key.space	Key.space	n/a
185.07	0.105	370140	keystroke_p	p	n/a
185.191	0.119	370382	keystroke_r	r	n/a
185.325	0.12	370650	keystroke_i	i	n/a
185.415	0.12	370830	keystroke_n	n	n/a
185.61	0.12	371220	keystroke_t	t	n/a
185.88	0.105	371760	keystroke_a	a	n/a
186	0.06	372000	keystroke_b	b	n/a
186.1355	0.105	372271	keystroke_l	l	n/a
186.2255	0.105	372451	keystroke_e	e	n/a
186.3455	0.09	372691	keystroke_Key.space	Key.space	n/a
186.4805	0.15	372961	keystroke_c	c	n/a
186.66	0.09	373320	keystroke_o	o	n/a
186.78	0.1355	373560	keystroke_v	v	n/a
186.9005	0.135	373801	keystroke_e	e	n/a
187.0805	0.1045	374161	keystroke_Key.enter	Key.enter	n/a
187.194	9.953	374388	prompt	n/a	ascii attorney autumn integrate\n
187.83	0.105	375660	keystroke_a	a	n/a
188.295	0.135	376590	keystroke_s	s	n/a
188.775	0.15	377550	keystroke_c	c	n/a
189.06	0.06	378120	keystroke_i	i	n/a
189.225	0.09	378450	keystroke_i	i	n/a
189.405	0.105	378810	keystroke_Key.space	Key.space	n/a
189.585	0.15	379170	keystroke_a	a	n/a
190.005	0.0755	380010	keystroke_t	t	n/a
190.1405	0.105	380281	keystroke_t	t	n/a
190.2155	0.12	380431	keystroke_o	o	n/a
190.3655	0.12	380731	keystroke_r	r	n/a
190.5005	0.09	381001	keystroke_n	n	n/a
190.6355	0.105	381271	keystroke_e	e	n/a
190.8155	0.09	381631	keystroke_y	y	n/a
190.9205	0.12	381841	keystroke_Key.space	Key.space	n/a
191.2055	0.1045	382411	keystroke_a	a	n/a
191.385	0.09	382770	keystroke_u	u	n/a
191.5505	0.075	383101	keystroke_t	t	n/a
191.9705	0.091	383941	keystroke_u	u	n/a
192.1955	0.075	384391	keystroke_m	m	n/a
192.4055	0.075	384811	keystroke_n	n	n/a
192.6005	0.075	385201	keystroke_Key.space	Key.space	n/a
193.1255	0.15	386251	keystroke_i	i	n/a
193.2455	0.105	386491	keystroke_n	n	n/a
193.6205	0.105	387241	keystroke_r	r	n/a
194.0555	0.1805	388111	keystroke_e	e	n/a
194.476	0.075	388952	keystroke_Key.backspace	Key.backspace	n/a
194.626	0.09	389252	keystroke_Key.backspace	Key.backspace	n/a
194.671	0.105	389342	keystroke_t	t	n/a
194.881	0.105	389762	keystroke_e	e	n/a
195.091	0.105	390182	keystroke_g	g	n/a
195.376	0.12	390752	keystroke_r	r	n/a
195.616	0.12	391232	keystroke_a	a	n/a
196.006	0.075	392012	keystroke_t	t	n/a
196.321	0.03	392642	keystroke_s	s	n/a
196.8155	0.045	393631	keystroke_Key.backspace	Key.backspace	n/a
196.8455	0.075	393691	keystroke_e	e	n/a
197.1005	0.045	394201	keystroke_Key.enter	Key.enter	n/a
197.1495	6.8675	394299	prompt	n/a	jamie drops portland collection\n
197.9705	0.105	395941	keystroke_j	j	n/a
198.106	0.09	396212	keystroke_a	a	n/a
198.541	0.075	397082	keystroke_m	m	n/a
198.751	0.06	397502	keystroke_i	i	n/a
198.856	0.105	397712	keystroke_e	e	n/a
198.976	0.09	397952	keystroke_Key.space	Key.space	n/a
199.1705	0.075	398341	keystroke_d	d	n/a
199.3655	0.075	398731	keystroke_r	r	n/a
199.4555	0.2105	398911	keystroke_o	o	n/a
199.651	0.105	399302	keystroke_p	p	n/a
199.786	0.119	399572	keystroke_s	s	n/a
199.876	0.075	399752	keystroke_Key.space	Key.space	n/a
200.2205	0.12	400441	keystroke_p	p	n/a
200.6105	0.105	401221	keystroke_o	o	n/a
200.7905	0.1205	401581	keystroke_r	r	n/a
201.075	0.09	402150	keystroke_t	t	n/a
201.57	0.09	403140	keystroke_l	l	n/a
201.675	0.105	403350	keystroke_a	a	n/a
201.825	0.075	403650	keystroke_n	n	n/a
201.945	0.106	403890	keystroke_d	d	n/a
202.095	0.075	404190	keystroke_Key.space	Key.space	n/a
202.395	0.12	404790	keystroke_c	c	n/a
202.486	0.059	404972	keystroke_o	o	n/a
202.6655	0.045	405331	keystroke_l	l	n/a
202.8005	0.105	405601	keystroke_l	l	n/a
202.8455	0.075	405691	keystroke_e	e	n/a
203.0255	0.09	406051	keystroke_c	c	n/a
203.2805	0.09	406561	keystroke_t	t	n/a
203.3855	0.21	406771	keystroke_i	i	n/a
203.5205	0.12	407041	keystroke_o	o	n/a
203.5805	0.12	407161	keystroke_n	n	n/a
203.9405	0.075	407881	keystroke_Key.enter	Key.enter	n/a
204.0195	4.212	408039	prompt	n/a	bloom nano rome kills\n
204.8255	0.0895	409651	keystroke_b	b	n/a
204.975	0.09	409950	keystroke_l	l	n/a
205.2	0.03	410400	keystroke_o	o	n/a
205.335	0.105	410670	keystroke_o	o	n/a
205.515	0.12	411030	keystroke_m	m	n/a
205.65	0.06	411300	keystroke_Key.space	Key.space	n/a
205.83	0.075	411660	keystroke_n	n	n/a
205.906	0.134	411812	keystroke_a	a	n/a
206.025	0.105	412050	keystroke_n	n	n/a
206.175	0.105	412350	keystroke_o	o	n/a
206.325	0.09	412650	keystroke_Key.space	Key.space	n/a
206.535	0.105	413070	keystroke_r	r	n/a
206.625	0.105	413250	keystroke_o	o	n/a
206.805	0.12	413610	keystroke_m	m	n/a
206.94	0.105	413880	keystroke_e	e	n/a
207.09	0.075	414180	keystroke_Key.space	Key.space	n/a
207.3	0.09	414600	keystroke_k	k	n/a
207.48	0.075	414960	keystroke_i	i	n/a
207.69	0.045	415380	keystroke_l	l	n/a
207.825	0.075	415650	keystroke_l	l	n/a
207.93	0.105	415860	keystroke_s	s	n/a
208.185	0.045	416370	keystroke_Key.enter	Key.enter	n/a
208.2355	7.7365	416471	prompt	n/a	pill sensitive reasonably eleven\n
209.1455	0.09	418291	keystroke_p	p	n/a
209.4305	0.045	418861	keystroke_i	i	n/a
209.7155	0.045	419431	keystroke_l	l	n/a
209.866	0.105	419732	keystroke_l	l	n/a
210.18	0.09	420360	keystroke_Key.space	Key.space	n/a
210.346	0.194	420692	keystroke_s	s	n/a
210.555	0.105	421110	keystroke_e	e	n/a
210.69	0.06	421380	keystroke_n	n	n/a
210.84	0.12	421680	keystroke_s	s	n/a
210.99	0.075	421980	keystroke_i	i	n/a
211.35	0.09	422700	keystroke_t	t	n/a
211.4555	0.09	422911	keystroke_i	i	n/a
211.5905	0.165	423181	keystroke_v	v	n/a
211.7405	0.12	423481	keystroke_e	e	n/a
211.9205	0.09	423841	keystroke_Key.space	Key.space	n/a
212.0555	0.0745	424111	keystroke_r	r	n/a
212.22	0.075	424440	keystroke_e	e	n/a
212.385	0.075	424770	keystroke_a	a	n/a
212.58	0.105	425160	keystroke_s	s	n/a
212.745	0.12	425490	keystroke_o	o	n/a
212.866	0.119	425732	keystroke_n	n	n/a
213.03	0.12	426060	keystroke_a	a	n/a
213.165	0.045	426330	keystroke_b	b	n/a
213.36	0.075	426720	keystroke_l	l	n/a
213.51	0.03	427020	keystroke_e	e	n/a
213.9155	0.075	427831	keystroke_Key.backspace	Key.backspace	n/a
214.0355	0.1195	428071	keystroke_y	y	n/a
214.35	0.09	428700	keystroke_Key.space	Key.space	n/a
214.5005	0.12	429001	keystroke_e	e	n/a
214.6655	0.09	429331	keystroke_l	l	n/a
214.7855	0.105	429571	keystroke_e	e	n/a
214.9205	0.165	429841	keystroke_v	v	n/a
215.2205	0.12	430441	keystroke_e	e	n/a
215.3555	0.09	430711	keystroke_n	n	n/a
215.85	0.12	431700	keystroke_Key.enter	Key.enter	n/a
215.9765	8.5155	431953	prompt	n/a	indicating adds touring refrigerator\n
216.6305	0.12	433261	keystroke_i	i	n/a
216.7055	0.12	433411	keystroke_n	n	n/a
216.8555	0.105	433711	keystroke_d	d	n/a
216.9755	0.09	433951	keystroke_i	i	n/a
217.1105	0.105	434221	keystroke_c	c	n/a
217.2755	0.105	434551	keystroke_a	a	n/a
217.5305	0.09	435061	keystroke_t	t	n/a
217.6055	0.165	435211	keystroke_i	i	n/a
217.6955	0.165	435391	keystroke_n	n	n/a
217.7855	0.12	435571	keystroke_g	g	n/a
217.9205	0.105	435841	keystroke_Key.space	Key.space	n/a
218.0405	0.0745	436081	keystroke_a	a	n/a
218.235	0.03	436470	keystroke_d	d	n/a
218.37	0.045	436740	keystroke_d	d	n/a
218.535	0.105	437070	keystroke_s	s	n/a
218.655	0.105	437310	keystroke_Key.space	Key.space	n/a
218.91	0.105	437820	keystroke_t	t	n/a
219.03	0.135	438060	keystroke_o	o	n/a
219.12	0.09	438240	keystroke_u	u	n/a
219.255	0.06	438510	keystroke_r	r	n/a
219.75	0.135	439500	keystroke_i	i	n/a
219.87	0.0905	439740	keystroke_n	n	n/a
219.9455	0.09	439891	keystroke_g	g	n/a
220.0805	0.075	440161	keystroke_Key.space	Key.space	n/a
220.3805	0.06	440761	keystroke_r	r	n/a
220.5905	0.045	441181	keystroke_e	e	n/a
220.7555	0.105	441511	keystroke_g	g	n/a
221.4155	0.075	442831	keystroke_Key.backspace	Key.backspace	n/a
221.4755	0.09	442951	keystroke_f	f	n/a
221.7455	0.09	443491	keystroke_r	r	n/a
221.9105	0.09	443821	keystroke_i	i	n/a
222.375	0.105	444750	keystroke_g	g	n/a
222.57	0.1505	445140	keystroke_e	e	n/a
222.6755	0.09	445351	keystroke_r	r	n/a
222.9305	0.06	445861	keystroke_a	a	n/a
223.1405	0.075	446281	keystroke_t	t	n/a
223.2305	0.15	446461	keystroke_i	i	n/a
223.7705	0.06	447541	keystroke_Key.backspace	Key.backspace	n/a
223.9655	0.045	447931	keystroke_o	o	n/a
224.0105	0.0895	448021	keystroke_r	r	n/a
224.385	0.105	448770	keystroke_Key.enter	Key.enter	n/a
224.4945	8.8025	448989	prompt	n/a	arrow contamination minimal medieval\n
225.045	0.105	450090	keystroke_a	a	n/a
225.4055	0.06	450811	keystroke_r	r	n/a
225.54	0.09	451080	keystroke_r	r	n/a
225.7205	0.09	451441	keystroke_o	o	n/a
225.825	0.0905	451650	keystroke_w	w	n/a
225.945	0.0755	451890	keystroke_Key.space	Key.space	n/a
226.261	0.09	452522	keystroke_o	o	n/a
226.276	0.045	452552	keystroke_c	c	n/a
226.47	0.105	452940	keystroke_n	n	n/a
226.875	0.03	453750	keystroke_Key.backspace	Key.backspace	n/a
226.995	0.06	453990	keystroke_Key.backspace	Key.backspace	n/a
227.145	0.075	454290	keystroke_Key.backspace	Key.backspace	n/a
227.235	0.105	454470	keystroke_c	c	n/a
227.415	0.135	454830	keystroke_o	o	n/a
227.505	0.105	455010	keystroke_n	n	n/a
227.625	0.075	455250	keystroke_t	t	n/a
227.82	0.105	455640	keystroke_a	a	n/a
228.045	0.0755	456090	keystroke_m	m	n/a
228.2105	0.12	456421	keystroke_i	i	n/a
228.2855	0.105	456571	keystroke_n	n	n/a
228.4055	0.105	456811	keystroke_a	a	n/a
228.7205	0.09	457441	keystroke_t	t	n/a
228.8705	0.195	457741	keystroke_i	i	n/a
228.9905	0.135	457981	keystroke_o	o	n/a
229.0505	0.135	458101	keystroke_n	n	n/a
229.2005	0.075	458401	keystroke_n	n	n/a
229.83	0.0605	459660	keystroke_Key.backspace	Key.backspace	n/a
230.0255	0.075	460051	keystroke_Key.space	Key.space	n/a
230.2505	0.075	460501	keystroke_m	m	n/a
230.4605	0.105	460921	keystroke_i	i	n/a
230.5505	0.09	461101	keystroke_n	n	n/a
230.6855	0.09	461371	keystroke_i	i	n/a
230.9255	0.09	461851	keystroke_m	m	n/a
231.0755	0.12	462151	keystroke_a	a	n/a
231.2255	0.105	462451	keystroke_l	l	n/a
231.3605	0.09	462721	keystroke_Key.space	Key.space	n/a
231.6305	0.105	463261	keystroke_m	m	n/a
231.7655	0.09	463531	keystroke_e	e	n/a
232.0955	0.09	464191	keystroke_d	d	n/a
232.2755	0.06	464551	keystroke_i	i	n/a
232.3805	0.075	464761	keystroke_e	e	n/a
232.5755	0.12	465151	keystroke_v	v	n/a
232.8155	0.105	465631	keystroke_a	a	n/a
232.9355	0.075	465871	keystroke_l	l	n/a
233.2055	0.09	466411	keystroke_Key.enter	Key.enter	n/a
233.2995	7.5275	466599	prompt	n/a	feature olympic questions attacks\n
233.865	0.12	467730	keystroke_f	f	n/a
234.091	0.105	468182	keystroke_e	e	n/a
234.301	0.09	468602	keystroke_a	a	n/a
234.526	0.105	469052	keystroke_t	t	n/a
234.646	0.105	469292	keystroke_u	u	n/a
234.736	0.09	469472	keystroke_r	r	n/a
234.9005	0.105	469801	keystroke_e	e	n/a
235.2155	0.105	470431	keystroke_Key.space	Key.space	n/a
235.4105	0.09	470821	keystroke_o	o	n/a
235.5155	0.105	471031	keystroke_n	n	n/a
235.7555	0.045	471511	keystroke_l	l	n/a
236.1905	0.03	472381	keystroke_Key.backspace	Key.backspace	n/a
236.2805	0.075	472561	keystroke_Key.backspace	Key.backspace	n/a
236.4755	0.09	472951	keystroke_l	l	n/a
236.7155	0.105	473431	keystroke_y	y	n/a
236.8355	0.09	473671	keystroke_m	m	n/a
237.06	0.105	474120	keystroke_p	p	n/a
237.21	0.105	474420	keystroke_i	i	n/a
237.3605	0.15	474721	keystroke_c	c	n/a
237.4955	0.075	474991	keystroke_Key.space	Key.space	n/a
237.9905	0.1195	475981	keystroke_q	q	n/a
238.14	0.06	476280	keystroke_u	u	n/a
238.23	0.09	476460	keystroke_e	e	n/a
238.44	0.09	476880	keystroke_s	s	n/a
238.695	0.09	477390	keystroke_t	t	n/a
238.786	0.165	477572	keystroke_i	i	n/a
238.89	0.09	477780	keystroke_o	o	n/a
238.905	0.135	477810	keystroke_n	n	n/a
239.055	0.091	478110	keystroke_s	s	n/a
239.175	0.075	478350	keystroke_Key.space	Key.space	n/a
239.265	0.09	478530	keystroke_a	a	n/a
239.476	0.059	478952	keystroke_t	t	n/a
239.595	0.075	479190	keystroke_t	t	n/a
239.775	0.12	479550	keystroke_a	a	n/a
240.1355	0.15	480271	keystroke_c	c	n/a
240.3155	0.0895	480631	keystroke_k	k	n/a
240.42	0.105	480840	keystroke_s	s	n/a
240.735	0.09	481470	keystroke_Key.enter	Key.enter	n/a
240.8295	6.1025	481659	prompt	n/a	different iron writings everyone's\n
241.38	0.105	482760	keystroke_d	d	n/a
241.515	0.06	483030	keystroke_i	i	n/a
241.62	0.06	483240	keystroke_f	f	n/a
241.7405	0.15	483481	keystroke_f	f	n/a
241.9055	0.12	483811	keystroke_e	e	n/a
241.9805	0.1495	483961	keystroke_r	r	n/a
242.115	0.105	484230	keystroke_e	e	n/a
242.28	0.075	484560	keystroke_n	n	n/a
242.4155	0.12	484831	keystroke_t	t	n/a
242.5205	0.12	485041	keystroke_Key.space	Key.space	n/a
242.7005	0.12	485401	keystroke_i	i	n/a
242.8505	0.12	485701	keystroke_r	r	n/a
243.0755	0.15	486151	keystroke_o	o	n/a
243.1955	0.12	486391	keystroke_n	n	n/a
243.3005	0.105	486601	keystroke_Key.space	Key.space	n/a
243.4355	0.135	486871	keystroke_w	w	n/a
243.8705	0.09	487741	keystroke_r	r	n/a
244.0205	0.09	488041	keystroke_i	i	n/a
244.1705	0.09	488341	keystroke_t	t	n/a
244.2755	0.135	488551	keystroke_i	i	n/a
244.3805	0.135	488761	keystroke_n	n	n/a
244.5005	0.105	489001	keystroke_g	g	n/a
244.8605	0.105	489721	keystroke_s	s	n/a
244.9955	0.105	489991	keystroke_Key.space	Key.space	n/a
245.2355	0.135	490471	keystroke_e	e	n/a
245.4155	0.135	490831	keystroke_v	v	n/a
245.5805	0.12	491161	keystroke_e	e	n/a
245.6705	0.135	491341	keystroke_r	r	n/a
245.8505	0.045	491701	keystroke_y	y	n/a
246.061	0.15	492122	keystroke_o	o	n/a
246.151	0.12	492302	keystroke_n	n	n/a
246.255	0.106	492510	keystroke_e	e	n/a
246.435	0.091	492870	keystroke_'	'	n/a
246.556	0.104	493112	keystroke_s	s	n/a
246.84	0.0895	493680	keystroke_Key.enter	Key.enter	n/a
246.935	5.697	493870	prompt	n/a	contracting divine voip murray\n
247.5455	0.165	495091	keystroke_c	c	n/a
247.8455	0.12	495691	keystroke_o	o	n/a
247.9205	0.09	495841	keystroke_n	n	n/a
248.115	0.076	496230	keystroke_t	t	n/a
248.31	0.09	496620	keystroke_r	r	n/a
248.535	0.09	497070	keystroke_a	a	n/a
248.79	0.09	497580	keystroke_c	c	n/a
249.06	0.09	498120	keystroke_t	t	n/a
249.165	0.135	498330	keystroke_i	i	n/a
249.27	0.12	498540	keystroke_n	n	n/a
249.375	0.09	498750	keystroke_g	g	n/a
249.51	0.09	499020	keystroke_Key.space	Key.space	n/a
249.66	0.09	499320	keystroke_d	d	n/a
249.781	0.074	499562	keystroke_i	i	n/a
249.87	0.12	499740	keystroke_v	v	n/a
250.005	0.18	500010	keystroke_i	i	n/a
250.14	0.135	500280	keystroke_n	n	n/a
250.336	0.104	500672	keystroke_e	e	n/a
250.455	0.09	500910	keystroke_Key.space	Key.space	n/a
250.83	0.12	501660	keystroke_v	v	n/a
250.935	0.135	501870	keystroke_o	o	n/a
251.04	0.105	502080	keystroke_i	i	n/a
251.28	0.12	502560	keystroke_p	p	n/a
251.385	0.09	502770	keystroke_Key.space	Key.space	n/a
251.52	0.06	503040	keystroke_m	m	n/a
251.7	0.075	503400	keystroke_u	u	n/a
251.745	0.045	503490	keystroke_r	r	n/a
251.88	0.06	503760	keystroke_r	r	n/a
252.03	0.105	504060	keystroke_a	a	n/a
252.136	0.104	504272	keystroke_y	y	n/a
252.525	0.105	505050	keystroke_Key.enter	Key.enter	n/a
252.6345	6.2225	505269	prompt	n/a	choose temp hearts syracuse\n
253.23	0.135	506460	keystroke_c	c	n/a
253.38	0.09	506760	keystroke_h	h	n/a
253.5	0.045	507000	keystroke_o	o	n/a
253.65	0.075	507300	keystroke_o	o	n/a
253.83	0.195	507660	keystroke_s	s	n/a
253.98	0.1205	507960	keystroke_e	e	n/a
254.1305	0.09	508261	keystroke_Key.space	Key.space	n/a
254.3105	0.075	508621	keystroke_t	t	n/a
254.4605	0.09	508921	keystroke_e	e	n/a
254.5805	0.075	509161	keystroke_m	m	n/a
254.7155	0.12	509431	keystroke_p	p	n/a
255.1055	0.12	510211	keystroke_Key.space	Key.space	n/a
255.2855	0.09	510571	keystroke_h	h	n/a
255.3905	0.09	510781	keystroke_e	e	n/a
255.5555	0.105	511111	keystroke_a	a	n/a
255.7655	0.12	511531	keystroke_r	r	n/a
256.0205	0.09	512041	keystroke_t	t	n/a
256.2305	0.12	512461	keystroke_s	s	n/a
256.3955	0.105	512791	keystroke_Key.space	Key.space	n/a
256.53	0.135	513060	keystroke_s	s	n/a
257.1155	0.09	514231	keystroke_y	y	n/a
257.2955	0.09	514591	keystroke_r	r	n/a
257.5205	0.06	515041	keystroke_a	a	n/a
257.7155	0.135	515431	keystroke_c	c	n/a
257.8355	0.09	515671	keystroke_u	u	n/a
258.06	0.225	516120	keystroke_s	s	n/a
258.45	0.06	516900	keystroke_e	e	n/a
258.765	0.09	517530	keystroke_Key.enter	Key.enter	n/a
258.8625	10.3295	517725	prompt	n/a	identifies plot executed remarkable\n
259.5305	0.075	519061	keystroke_i	i	n/a
259.7555	0.12	519511	keystroke_d	d	n/a
259.9505	0.045	519901	keystroke_i	i	n/a
260.34	0.06	520680	keystroke_Key.backspace	Key.backspace	n/a
260.46	0.09	520920	keystroke_e	e	n/a
260.625	0.09	521250	keystroke_n	n	n/a
261.0305	0.09	522061	keystroke_t	t	n/a
261.1355	0.105	522271	keystroke_i	i	n/a
261.405	0.1205	522810	keystroke_f	f	n/a
261.5995	0.045	523199	keystroke_i	i	n/a
261.7045	0.076	523409	keystroke_e	e	n/a
262.2905	0.105	524581	keystroke_s	s	n/a
262.4695	0.09	524939	keystroke_Key.space	Key.space	n/a
262.7545	0.0755	525509	keystroke_p	p	n/a
262.995	0.09	525990	keystroke_l	l	n/a
263.295	0.06	526590	keystroke_o	o	n/a
263.475	0.12	526950	keystroke_t	t	n/a
263.655	0.075	527310	keystroke_Key.space	Key.space	n/a
264.1645	0.0755	528329	keystroke_e	e	n/a
264.48	0.135	528960	keystroke_c	c	n/a
264.735	0.045	529470	keystroke_e	e	n/a
265.3955	0.06	530791	keystroke_Key.backspace	Key.backspace	n/a
265.5305	0.105	531061	keystroke_Key.backspace	Key.backspace	n/a
265.6805	0.09	531361	keystroke_x	x	n/a
266.0255	0.0895	532051	keystroke_e	e	n/a
266.235	0.1505	532470	keystroke_c	c	n/a
266.4455	0.075	532891	keystroke_u	u	n/a
266.6255	0.075	533251	keystroke_t	t	n/a
266.7755	0.1045	533551	keystroke_e	e	n/a
267	0.105	534000	keystroke_d	d	n/a
267.12	0.09	534240	keystroke_Key.space	Key.space	n/a
267.33	0.09	534660	keystroke_r	r	n/a
267.51	0.075	535020	keystroke_e	e	n/a
267.615	0.075	535230	keystroke_m	m	n/a
267.72	0.075	535440	keystroke_a	a	n/a
267.885	0.09	535770	keystroke_r	r	n/a
268.1705	0.075	536341	keystroke_k	k	n/a
268.2905	0.09	536581	keystroke_a	a	n/a
268.3955	0.09	536791	keystroke_b	b	n/a
268.5755	0.12	537151	keystroke_l	l	n/a
268.6655	0.09	537331	keystroke_e	e	n/a
269.085	0.105	538170	keystroke_Key.enter	Key.enter	n/a
269.195	8.127	538390	prompt	n/a	disorders ferrari marco zope\n
269.85	0.0905	539700	keystroke_d	d	n/a
269.955	0.09	539910	keystroke_i	i	n/a
270.06	0.15	540120	keystroke_s	s	n/a
270.24	0.075	540480	keystroke_o	o	n/a
270.33	0.0905	540660	keystroke_r	r	n/a
270.945	0.105	541890	keystroke_d	d	n/a
271.17	0.135	542340	keystroke_e	e	n/a
271.245	0.105	542490	keystroke_r	r	n/a
271.5	0.12	543000	keystroke_s	s	n/a
271.635	0.1205	543270	keystroke_Key.space	Key.space	n/a
271.9205	0.09	543841	keystroke_r	r	n/a
272.445	0.075	544890	keystroke_Key.backspace	Key.backspace	n/a
272.565	0.045	545130	keystroke_f	f	n/a
272.835	0.03	545670	keystroke_e	e	n/a
272.85	0.06	545700	keystroke_r	r	n/a
272.97	0.09	545940	keystroke_r	r	n/a
273.165	0.105	546330	keystroke_a	a	n/a
273.435	0.105	546870	keystroke_r	r	n/a
273.615	0.105	547230	keystroke_i	i	n/a
273.75	0.09	547500	keystroke_Key.space	Key.space	n/a
274.1405	0.075	548281	keystroke_m	m	n/a
274.2005	0.09	548401	keystroke_a	a	n/a
274.4105	0.06	548821	keystroke_r	r	n/a
274.7255	0.105	549451	keystroke_c	c	n/a
274.8455	0.105	549691	keystroke_o	o	n/a
274.9805	0.075	549961	keystroke_Key.space	Key.space	n/a
275.2655	0.03	550531	keystroke_s	s	n/a
275.3105	0.06	550621	keystroke_z	z	n/a
275.3855	0.06	550771	keystroke_o	o	n/a
275.925	0.03	551850	keystroke_Key.backspace	Key.backspace	n/a
276.03	0.075	552060	keystroke_Key.backspace	Key.backspace	n/a
276.18	0.09	552360	keystroke_Key.backspace	Key.backspace	n/a
276.285	0.09	552570	keystroke_z	z	n/a
276.42	0.105	552840	keystroke_o	o	n/a
276.585	0.09	553170	keystroke_p	p	n/a
276.72	0.105	553440	keystroke_e	e	n/a
277.215	0.105	554430	keystroke_Key.enter	Key.enter	n/a
277.3335	9.783	554667	prompt	n/a	reservation provides kitty contractor\n
279.256	0.06	558512	keystroke_r	r	n/a
279.45	0.12	558900	keystroke_e	e	n/a
279.691	0.074	559382	keystroke_s	s	n/a
279.9	0.06	559800	keystroke_e	e	n/a
280.08	0.09	560160	keystroke_e	e	n/a
280.8	0.03	561600	keystroke_Key.backspace	Key.backspace	n/a
280.936	0.075	561872	keystroke_r	r	n/a
281.16	0.106	562320	keystroke_v	v	n/a
281.355	0.121	562710	keystroke_a	a	n/a
281.73	0.105	563460	keystroke_i	i	n/a
282.0595	0.09	564119	keystroke_Key.backspace	Key.backspace	n/a
282.1355	0.105	564271	keystroke_t	t	n/a
282.3605	0.1795	564721	keystroke_i	i	n/a
282.48	0.135	564960	keystroke_o	o	n/a
282.555	0.12	565110	keystroke_n	n	n/a
282.7045	0.076	565409	keystroke_Key.space	Key.space	n/a
282.8545	0.106	565709	keystroke_p	p	n/a
282.9455	0.105	565891	keystroke_r	r	n/a
283.0505	0.09	566101	keystroke_o	o	n/a
283.2155	0.135	566431	keystroke_v	v	n/a
283.3655	0.075	566731	keystroke_i	i	n/a
283.5005	0.09	567001	keystroke_d	d	n/a
283.6655	0.075	567331	keystroke_e	e	n/a
283.8755	0.135	567751	keystroke_s	s	n/a
284.0255	0.075	568051	keystroke_Key.space	Key.space	n/a
284.2805	0.015	568561	keystroke_k	k	n/a
284.3405	0.09	568681	keystroke_i	i	n/a
284.6255	0.06	569251	keystroke_t	t	n/a
284.7755	0.105	569551	keystroke_t	t	n/a
284.8655	0.105	569731	keystroke_y	y	n/a
284.9405	0.12	569881	keystroke_Key.space	Key.space	n/a
285.1055	0.105	570211	keystroke_c	c	n/a
285.1955	0.135	570391	keystroke_o	o	n/a
285.2705	0.1195	570541	keystroke_n	n	n/a
285.525	0.075	571050	keystroke_t	t	n/a
285.6905	0.06	571381	keystroke_r	r	n/a
285.8555	0.075	571711	keystroke_a	a	n/a
286.11	0.075	572220	keystroke_c	c	n/a
286.365	0.075	572730	keystroke_t	t	n/a
286.485	0.09	572970	keystroke_o	o	n/a
286.59	0.075	573180	keystroke_r	r	n/a
287.0255	0.09	574051	keystroke_Key.enter	Key.enter	n/a
287.1205	7.916	574241	prompt	n/a	tomato arthritis magnitude production\n
287.8205	0.09	575641	keystroke_t	t	n/a
287.9255	0.06	575851	keystroke_o	o	n/a
288.1055	0.105	576211	keystroke_m	m	n/a
288.1955	0.09	576391	keystroke_a	a	n/a
288.4205	0.105	576841	keystroke_t	t	n/a
288.5405	0.12	577081	keystroke_o	o	n/a
288.6305	0.12	577261	keystroke_Key.space	Key.space	n/a
288.7655	0.12	577531	keystroke_a	a	n/a
288.975	0.075	577950	keystroke_r	r	n/a
289.4555	0.105	578911	keystroke_t	t	n/a
289.5905	0.045	579181	keystroke_h	h	n/a
289.6805	0.105	579361	keystroke_r	r	n/a
289.9055	0.09	579811	keystroke_i	i	n/a
290.46	0.06	580920	keystroke_t	t	n/a
290.535	0.105	581070	keystroke_i	i	n/a
290.685	0.09	581370	keystroke_s	s	n/a
290.805	0.075	581610	keystroke_Key.space	Key.space	n/a
291.24	0.0605	582480	keystroke_m	m	n/a
291.3605	0.09	582721	keystroke_a	a	n/a
291.6005	0.105	583201	keystroke_g	g	n/a
291.7805	0.075	583561	keystroke_n	n	n/a
291.9305	0.075	583861	keystroke_i	i	n/a
292.0955	0.1045	584191	keystroke_t	t	n/a
292.245	0.06	584490	keystroke_u	u	n/a
292.8	0.105	585600	keystroke_d	d	n/a
293.01	0.075	586020	keystroke_e	e	n/a
293.115	0.105	586230	keystroke_Key.space	Key.space	n/a
293.295	0.105	586590	keystroke_p	p	n/a
293.385	0.09	586770	keystroke_r	r	n/a
293.505	0.0755	587010	keystroke_o	o	n/a
293.6555	0.075	587311	keystroke_d	d	n/a
294.0455	0.074	588091	keystroke_u	u	n/a
294.1495	0.075	588299	keystroke_c	c	n/a
294.3755	0.074	588751	keystroke_t	t	n/a
294.4655	0.195	588931	keystroke_i	i	n/a
294.5695	0.12	589139	keystroke_o	o	n/a
294.6155	0.135	589231	keystroke_n	n	n/a
294.945	0.09	589890	keystroke_Key.enter	Key.enter	n/a
295.0445	9.427	590089	prompt	n/a	substantially constraint discussions fighting\n
295.53	0.06	591060	keystroke_a	a	n/a
295.905	0.06	591810	keystroke_Key.backspace	Key.backspace	n/a
295.995	0.1055	591990	keystroke_s	s	n/a
296.1605	0.12	592321	keystroke_u	u	n/a
296.3405	0.075	592681	keystroke_b	b	n/a
296.5355	0.06	593071	keystroke_s	s	n/a
296.7155	0.105	593431	keystroke_a	a	n/a
297.0905	0.045	594181	keystroke_Key.backspace	Key.backspace	n/a
297.1205	0.09	594241	keystroke_t	t	n/a
297.3305	0.105	594661	keystroke_a	a	n/a
297.4505	0.075	594901	keystroke_n	n	n/a
297.66	0.0755	595320	keystroke_t	t	n/a
297.72	0.09	595440	keystroke_i	i	n/a
297.87	0.135	595740	keystroke_a	a	n/a
297.96	0.06	595920	keystroke_l	l	n/a
298.1105	0.1045	596221	keystroke_l	l	n/a
298.245	0.075	596490	keystroke_y	y	n/a
298.395	0.075	596790	keystroke_Key.space	Key.space	n/a
298.59	0.105	597180	keystroke_c	c	n/a
298.71	0.105	597420	keystroke_o	o	n/a
298.77	0.105	597540	keystroke_n	n	n/a
299.2655	0.105	598531	keystroke_s	s	n/a
299.4455	0.09	598891	keystroke_t	t	n/a
299.6255	0.075	599251	keystroke_r	r	n/a
299.8055	0.075	599611	keystroke_a	a	n/a
299.9705	0.075	599941	keystroke_i	i	n/a
300.1205	0.09	600241	keystroke_n	n	n/a
300.3005	0.0895	600601	keystroke_t	t	n/a
300.435	0.105	600870	keystroke_Key.space	Key.space	n/a
300.72	0.075	601440	keystroke_d	d	n/a
300.885	0.075	601770	keystroke_u	u	n/a
301.005	0.075	602010	keystroke_s	s	n/a
301.575	0.075	603150	keystroke_Key.backspace	Key.backspace	n/a
301.725	0.09	603450	keystroke_Key.backspace	Key.backspace	n/a
301.89	0.09	603780	keystroke_i	i	n/a
301.995	0.045	603990	keystroke_s	s	n/a
302.1455	0.12	604291	keystroke_c	c	n/a
302.3105	0.075	604621	keystroke_u	u	n/a
302.4455	0.06	604891	keystroke_s	s	n/a
302.5805	0.12	605161	keystroke_s	s	n/a
302.7155	0.18	605431	keystroke_i	i	n/a
302.8055	0.15	605611	keystroke_o	o	n/a
302.8655	0.135	605731	keystroke_n	n	n/a
303.0155	0.1045	606031	keystroke_s	s	n/a
303.105	0.09	606210	keystroke_Key.space	Key.space	n/a
303.33	0.09	606660	keystroke_f	f	n/a
303.51	0.06	607020	keystroke_i	i	n/a
303.585	0.09	607170	keystroke_g	g	n/a
303.69	0.075	607380	keystroke_h	h	n/a
303.78	0.09	607560	keystroke_t	t	n/a
303.975	0.1205	607950	keystroke_i	i	n/a
304.035	0.1055	608070	keystroke_n	n	n/a
304.1255	0.09	608251	keystroke_g	g	n/a
304.3955	0.075	608791	keystroke_Key.enter	Key.enter	n/a
304.4745	8.637	608949	prompt	n/a	holiday evident forecasts colombia\n
305.3105	0.075	610621	keystroke_h	h	n/a
305.4155	0.075	610831	keystroke_o	o	n/a
305.595	0.06	611190	keystroke_l	l	n/a
305.745	0.0755	611490	keystroke_i	i	n/a
305.9255	0.075	611851	keystroke_d	d	n/a
306.1955	0.105	612391	keystroke_a	a	n/a
306.2855	0.09	612571	keystroke_y	y	n/a
306.4205	0.089	612841	keystroke_Key.space	Key.space	n/a
306.6455	0.06	613291	keystroke_e	e	n/a
306.825	0.15	613650	keystroke_v	v	n/a
306.99	0.06	613980	keystroke_i	i	n/a
307.11	0.0455	614220	keystroke_d	d	n/a
307.2605	0.075	614521	keystroke_e	e	n/a
307.3655	0.09	614731	keystroke_n	n	n/a
307.5905	0.0895	615181	keystroke_t	t	n/a
307.725	0.09	615450	keystroke_Key.space	Key.space	n/a
307.935	0.09	615870	keystroke_f	f	n/a
308.04	0.09	616080	keystroke_o	o	n/a
308.16	0.075	616320	keystroke_r	r	n/a
308.49	0.09	616980	keystroke_e	e	n/a
309.18	0.09	618360	keystroke_c	c	n/a
309.375	0.06	618750	keystroke_a	a	n/a
309.57	0.075	619140	keystroke_s	s	n/a
310.1095	0.076	620219	keystroke_t	t	n/a
310.3655	0.075	620731	keystroke_s	s	n/a
310.7545	0.105	621509	keystroke_Key.space	Key.space	n/a
311.1145	0.106	622229	keystroke_c	c	n/a
311.235	0.105	622470	keystroke_o	o	n/a
311.61	0.06	623220	keystroke_l	l	n/a
311.835	0.09	623670	keystroke_o	o	n/a
312.045	0.0755	624090	keystroke_m	m	n/a
312.2705	0.075	624541	keystroke_b	b	n/a
312.4055	0.12	624811	keystroke_i	i	n/a
312.5555	0.09	625111	keystroke_a	a	n/a
312.99	0.12	625980	keystroke_Key.enter	Key.enter	n/a
313.114	6.658	626228	prompt	n/a	arrived concentration seat gasoline\n
313.605	0.09	627210	keystroke_c	c	n/a
313.98	0.0755	627960	keystroke_Key.backspace	Key.backspace	n/a
314.041	0.0895	628082	keystroke_a	a	n/a
314.2655	0.045	628531	keystroke_r	r	n/a
314.4	0.0755	628800	keystroke_r	r	n/a
314.5205	0.09	629041	keystroke_i	i	n/a
314.6105	0.135	629221	keystroke_v	v	n/a
314.7755	0.09	629551	keystroke_e	e	n/a
315.0005	0.105	630001	keystroke_d	d	n/a
315.1505	0.09	630301	keystroke_Key.space	Key.space	n/a
315.3455	0.15	630691	keystroke_c	c	n/a
315.4805	0.09	630961	keystroke_o	o	n/a
315.5405	0.105	631081	keystroke_n	n	n/a
315.6305	0.075	631261	keystroke_c	c	n/a
315.8405	0.075	631681	keystroke_e	e	n/a
315.9605	0.06	631921	keystroke_n	n	n/a
316.1255	0.075	632251	keystroke_t	t	n/a
316.2905	0.06	632581	keystroke_r	r	n/a
316.4405	0.09	632881	keystroke_a	a	n/a
316.6505	0.075	633301	keystroke_t	t	n/a
316.7405	0.135	633481	keystroke_i	i	n/a
316.8155	0.135	633631	keystroke_o	o	n/a
316.9055	0.12	633811	keystroke_n	n	n/a
316.9955	0.105	633991	keystroke_Key.space	Key.space	n/a
317.0855	0.135	634171	keystroke_s	s	n/a
317.2055	0.09	634411	keystroke_e	e	n/a
317.3705	0.12	634741	keystroke_a	a	n/a
317.9855	0.1045	635971	keystroke_t	t	n/a
318.18	0.09	636360	keystroke_Key.space	Key.space	n/a
318.285	0.105	636570	keystroke_g	g	n/a
318.495	0.105	636990	keystroke_a	a	n/a
318.7655	0.09	637531	keystroke_s	s	n/a
318.8705	0.06	637741	keystroke_o	o	n/a
319.0805	0.045	638161	keystroke_l	l	n/a
319.2305	0.105	638461	keystroke_i	i	n/a
319.3205	0.09	638641	keystroke_n	n	n/a
319.4405	0.09	638881	keystroke_e	e	n/a
319.6955	0.075	639391	keystroke_Key.enter	Key.enter	n/a
319.7745	6.6125	639549	prompt	n/a	noticed slim victor traditions\n
320.4	0.075	640800	keystroke_n	n	n/a
320.52	0.09	641040	keystroke_o	o	n/a
320.595	0.105	641190	keystroke_t	t	n/a
320.73	0.075	641460	keystroke_i	i	n/a
320.9255	0.09	641851	keystroke_c	c	n/a
321.0595	0.0905	642119	keystroke_e	e	n/a
321.2545	0.09	642509	keystroke_d	d	n/a
321.3595	0.075	642719	keystroke_Key.space	Key.space	n/a
321.48	0.135	642960	keystroke_s	s	n/a
321.57	0.105	643140	keystroke_l	l	n/a
321.69	0.09	643380	keystroke_i	i	n/a
321.9	0.09	643800	keystroke_p	p	n/a
321.975	0.09	643950	keystroke_Key.space	Key.space	n/a
322.3505	0.105	644701	keystroke_v	v	n/a
322.6955	0.075	645391	keystroke_Key.backspace	Key.backspace	n/a
322.8605	0.045	645721	keystroke_Key.backspace	Key.backspace	n/a
322.9955	0.075	645991	keystroke_Key.backspace	Key.backspace	n/a
323.2055	0.09	646411	keystroke_m	m	n/a
323.2805	0.105	646561	keystroke_Key.space	Key.space	n/a
323.4155	0.1045	646831	keystroke_v	v	n/a
323.55	0.075	647100	keystroke_i	i	n/a
323.685	0.105	647370	keystroke_c	c	n/a
323.985	0.0755	647970	keystroke_t	t	n/a
324.09	0.09	648180	keystroke_o	o	n/a
324.195	0.105	648390	keystroke_r	r	n/a
324.465	0.075	648930	keystroke_Key.space	Key.space	n/a
324.765	0.06	649530	keystroke_t	t	n/a
324.9155	0.06	649831	keystroke_r	r	n/a
325.0955	0.06	650191	keystroke_a	a	n/a
325.3205	0.075	650641	keystroke_d	d	n/a
325.4405	0.06	650881	keystroke_i	i	n/a
325.6055	0.09	651211	keystroke_t	t	n/a
325.6805	0.21	651361	keystroke_i	i	n/a
325.8005	0.105	651601	keystroke_o	o	n/a
325.8605	0.105	651721	keystroke_n	n	n/a
325.9805	0.09	651961	keystroke_s	s	n/a
326.31	0.075	652620	keystroke_Key.enter	Key.enter	n/a
326.3895	5.787	652779	prompt	n/a	steering zone ranges appears\n
327.045	0.12	654090	keystroke_s	s	n/a
327.315	0.0755	654630	keystroke_t	t	n/a
327.7355	0.075	655471	keystroke_e	e	n/a
327.8855	0.075	655771	keystroke_e	e	n/a
328.0655	0.075	656131	keystroke_r	r	n/a
328.2905	0.15	656581	keystroke_i	i	n/a
328.4105	0.12	656821	keystroke_n	n	n/a
328.5155	0.105	657031	keystroke_g	g	n/a
328.6355	0.1045	657271	keystroke_Key.space	Key.space	n/a
328.9805	0.12	657961	keystroke_z	z	n/a
329.1155	0.06	658231	keystroke_o	o	n/a
329.3555	0.0745	658711	keystroke_n	n	n/a
329.475	0.105	658950	keystroke_e	e	n/a
329.655	0.12	659310	keystroke_Key.space	Key.space	n/a
329.925	0.105	659850	keystroke_r	r	n/a
330.1505	0.075	660301	keystroke_a	a	n/a
330.2555	0.075	660511	keystroke_n	n	n/a
330.3605	0.12	660721	keystroke_g	g	n/a
330.5405	0.105	661081	keystroke_e	e	n/a
330.7355	0.09	661471	keystroke_s	s	n/a
330.8555	0.09	661711	keystroke_Key.space	Key.space	n/a
330.9305	0.09	661861	keystroke_a	a	n/a
331.1105	0.03	662221	keystroke_p	p	n/a
331.2455	0.09	662491	keystroke_p	p	n/a
331.3055	0.075	662611	keystroke_e	e	n/a
331.4705	0.075	662941	keystroke_a	a	n/a
331.68	0.075	663360	keystroke_r	r	n/a
331.875	0.105	663750	keystroke_s	s	n/a
332.07	0.105	664140	keystroke_Key.enter	Key.enter	n/a
332.179	6.058	664358	prompt	n/a	alfred swim printing assignment\n
332.73	0.105	665460	keystroke_a	a	n/a
332.91	0.105	665820	keystroke_l	l	n/a
333.24	0.105	666480	keystroke_f	f	n/a
333.54	0.075	667080	keystroke_r	r	n/a
333.72	0.06	667440	keystroke_e	e	n/a
333.945	0.105	667890	keystroke_d	d	n/a
334.26	0.105	668520	keystroke_Key.space	Key.space	n/a
334.5905	0.12	669181	keystroke_s	s	n/a
334.8155	0.09	669631	keystroke_w	w	n/a
334.9805	0.105	669961	keystroke_i	i	n/a
335.1455	0.135	670291	keystroke_m	m	n/a
335.2655	0.09	670531	keystroke_Key.space	Key.space	n/a
335.5655	0.075	671131	keystroke_p	p	n/a
335.7005	0.1045	671401	keystroke_r	r	n/a
335.85	0.12	671700	keystroke_i	i	n/a
335.925	0.1045	671850	keystroke_n	n	n/a
336.0445	0.1215	672089	keystroke_t	t	n/a
336.15	0.1045	672300	keystroke_i	i	n/a
336.2245	0.09	672449	keystroke_n	n	n/a
336.375	0.1055	672750	keystroke_g	g	n/a
336.495	0.0745	672990	keystroke_Key.space	Key.space	n/a
336.6595	0.061	673319	keystroke_a	a	n/a
336.9155	0.044	673831	keystroke_s	s	n/a
337.0345	0.075	674069	keystroke_s	s	n/a
337.1245	0.1055	674249	keystroke_i	i	n/a
337.275	0.12	674550	keystroke_g	g	n/a
337.38	0.06	674760	keystroke_n	n	n/a
337.575	0.075	675150	keystroke_m	m	n/a
337.695	0.09	675390	keystroke_e	e	n/a
337.815	0.06	675630	keystroke_n	n	n/a
337.935	0.075	675870	keystroke_t	t	n/a
338.19	0.0455	676380	keystroke_Key.enter	Key.enter	n/a
338.239	6.838	676478	prompt	n/a	league applications degree lazy\n
338.8055	0.09	677611	keystroke_l	l	n/a
339.1205	0.09	678241	keystroke_e	e	n/a
339.3155	0.06	678631	keystroke_a	a	n/a
339.5105	0.105	679021	keystroke_g	g	n/a
339.6455	0.075	679291	keystroke_u	u	n/a
339.7505	0.105	679501	keystroke_e	e	n/a
339.87	0.075	679740	keystroke_Key.space	Key.space	n/a
340.125	0.09	680250	keystroke_a	a	n/a
340.5	0.045	681000	keystroke_p	p	n/a
340.695	0.046	681390	keystroke_p	p	n/a
340.725	0.06	681450	keystroke_l	l	n/a
340.95	0.09	681900	keystroke_i	i	n/a
341.16	0.0905	682320	keystroke_c	c	n/a
341.3105	0.09	682621	keystroke_a	a	n/a
341.5655	0.09	683131	keystroke_t	t	n/a
341.6565	0.179	683313	keystroke_i	i	n/a
341.7605	0.12	683521	keystroke_o	o	n/a
341.8205	0.12	683641	keystroke_n	n	n/a
341.9405	0.09	683881	keystroke_s	s	n/a
342.06	0.09	684120	keystroke_Key.space	Key.space	n/a
342.195	0.09	684390	keystroke_d	d	n/a
342.39	0.09	684780	keystroke_e	e	n/a
342.8695	0.121	685739	keystroke_g	g	n/a
343.2305	0.044	686461	keystroke_r	r	n/a
343.5755	0.075	687151	keystroke_e	e	n/a
343.7255	0.105	687451	keystroke_e	e	n/a
343.8745	0.075	687749	keystroke_Key.space	Key.space	n/a
344.1	0.1205	688200	keystroke_l	l	n/a
344.2945	0.076	688589	keystroke_a	a	n/a
344.5355	0.119	689071	keystroke_z	z	n/a
344.6845	0.075	689369	keystroke_y	y	n/a
345.0145	0.061	690029	keystroke_Key.enter	Key.enter	n/a
345.079	6.073	690158	prompt	n/a	holders stereo handy louisiana\n
345.6905	0.105	691381	keystroke_h	h	n/a
345.8105	0.075	691621	keystroke_o	o	n/a
346.0055	0.105	692011	keystroke_l	l	n/a
346.0655	0.105	692131	keystroke_d	d	n/a
346.2755	0.105	692551	keystroke_e	e	n/a
346.3205	0.09	692641	keystroke_r	r	n/a
346.5605	0.12	693121	keystroke_s	s	n/a
346.6955	0.105	693391	keystroke_Key.space	Key.space	n/a
346.8305	0.12	693661	keystroke_s	s	n/a
347.0705	0.09	694141	keystroke_t	t	n/a
347.3105	0.105	694621	keystroke_e	e	n/a
347.4005	0.075	694801	keystroke_r	r	n/a
347.7005	0.075	695401	keystroke_e	e	n/a
347.9855	0.075	695971	keystroke_o	o	n/a
348.2255	0.075	696451	keystroke_Key.space	Key.space	n/a
348.5405	0.075	697081	keystroke_h	h	n/a
348.6455	0.12	697291	keystroke_a	a	n/a
348.7805	0.045	697561	keystroke_n	n	n/a
348.9305	0.105	697861	keystroke_d	d	n/a
349.1105	0.09	698221	keystroke_y	y	n/a
349.2005	0.09	698401	keystroke_Key.space	Key.space	n/a
349.3505	0.075	698701	keystroke_l	l	n/a
349.5605	0.12	699121	keystroke_o	o	n/a
349.6655	0.105	699331	keystroke_u	u	n/a
349.8905	0.09	699781	keystroke_i	i	n/a
350.0105	0.09	700021	keystroke_s	s	n/a
350.1305	0.0745	700261	keystroke_i	i	n/a
350.355	0.075	700710	keystroke_a	a	n/a
350.445	0.06	700890	keystroke_n	n	n/a
350.565	0.105	701130	keystroke_a	a	n/a
351.0605	0.09	702121	keystroke_Key.enter	Key.enter	n/a
351.155	8.0665	702310	prompt	n/a	cheapest duplicate scanning bizrate\n
351.78	0.135	703560	keystroke_c	c	n/a
351.93	0.075	703860	keystroke_h	h	n/a
352.0205	0.0745	704041	keystroke_e	e	n/a
352.2155	0.0745	704431	keystroke_a	a	n/a
352.305	0.0755	704610	keystroke_p	p	n/a
352.4255	0.075	704851	keystroke_e	e	n/a
352.6355	0.105	705271	keystroke_s	s	n/a
352.8755	0.075	705751	keystroke_t	t	n/a
352.9955	0.09	705991	keystroke_Key.space	Key.space	n/a
353.5205	0.105	707041	keystroke_d	d	n/a
353.6855	0.075	707371	keystroke_u	u	n/a
354.1355	0.09	708271	keystroke_p	p	n/a
354.3605	0.06	708721	keystroke_l	l	n/a
354.5855	0.075	709171	keystroke_i	i	n/a
354.7055	0.0895	709411	keystroke_c	c	n/a
354.855	0.1205	709710	keystroke_a	a	n/a
355.11	0.06	710220	keystroke_t	t	n/a
355.275	0.12	710550	keystroke_e	e	n/a
355.4255	0.105	710851	keystroke_Key.space	Key.space	n/a
355.5455	0.105	711091	keystroke_s	s	n/a
355.6955	0.12	711391	keystroke_c	c	n/a
355.8905	0.105	711781	keystroke_a	a	n/a
356.0105	0.06	712021	keystroke_n	n	n/a
356.1455	0.09	712291	keystroke_n	n	n/a
356.2655	0.105	712531	keystroke_i	i	n/a
356.3405	0.09	712681	keystroke_n	n	n/a
356.4455	0.105	712891	keystroke_g	g	n/a
356.5205	0.105	713041	keystroke_Key.space	Key.space	n/a
356.6405	0.075	713281	keystroke_b	b	n/a
356.7605	0.105	713521	keystroke_i	i	n/a
357.1355	0.12	714271	keystroke_z	z	n/a
357.4355	0.06	714871	keystroke_t	t	n/a
357.8855	0.06	715771	keystroke_Key.backspace	Key.backspace	n/a
357.9005	0.09	715801	keystroke_r	r	n/a
358.0955	0.105	716191	keystroke_a	a	n/a
358.3655	0.12	716731	keystroke_t	t	n/a
358.845	0.09	717690	keystroke_e	e	n/a
359.1	0.12	718200	keystroke_Key.enter	Key.enter	n/a
359.225	5.247	718450	prompt	n/a	may praise arrow statute\n
360	0.09	720000	keystroke_m	m	n/a
360.24	0.09	720480	keystroke_a	a	n/a
360.36	0.09	720720	keystroke_y	y	n/a
360.465	0.045	720930	keystroke_Key.space	Key.space	n/a
360.69	0.12	721380	keystroke_p	p	n/a
360.811	0.074	721622	keystroke_r	r	n/a
360.99	0.135	721980	keystroke_a	a	n/a
361.17	0.09	722340	keystroke_i	i	n/a
361.425	0.165	722850	keystroke_s	s	n/a
361.56	0.09	723120	keystroke_e	e	n/a
361.6955	0.105	723391	keystroke_Key.space	Key.space	n/a
361.7855	0.09	723571	keystroke_a	a	n/a
361.9655	0.06	723931	keystroke_r	r	n/a
362.0855	0.105	724171	keystroke_r	r	n/a
362.2055	0.075	724411	keystroke_o	o	n/a
362.3255	0.12	724651	keystroke_w	w	n/a
362.5055	0.105	725011	keystroke_Key.space	Key.space	n/a
362.7905	0.12	725581	keystroke_s	s	n/a
363.0005	0.09	726001	keystroke_t	t	n/a
363.1805	0.09	726361	keystroke_a	a	n/a
363.3905	0.06	726781	keystroke_t	t	n/a
363.4955	0.09	726991	keystroke_u	u	n/a
363.6005	0.105	727201	keystroke_t	t	n/a
363.8555	0.09	727711	keystroke_e	e	n/a
364.3955	0.075	728791	keystroke_Key.enter	Key.enter	n/a
364.476	8.216	728952	prompt	n/a	coupled heather proxy congratulations\n
365.055	0.135	730110	keystroke_c	c	n/a
365.205	0.135	730410	keystroke_o	o	n/a
365.415	0.105	730830	keystroke_u	u	n/a
365.67	0.12	731340	keystroke_p	p	n/a
365.73	0.105	731460	keystroke_l	l	n/a
365.82	0.0755	731640	keystroke_e	e	n/a
365.9705	0.06	731941	keystroke_a	a	n/a
366.4355	0.135	732871	keystroke_d	d	n/a
366.7655	0.045	733531	keystroke_Key.backspace	Key.backspace	n/a
366.8705	0.09	733741	keystroke_Key.backspace	Key.backspace	n/a
366.9615	0.074	733923	keystroke_d	d	n/a
367.0805	0.1045	734161	keystroke_Key.space	Key.space	n/a
367.38	0.075	734760	keystroke_h	h	n/a
367.44	0.075	734880	keystroke_e	e	n/a
367.56	0.12	735120	keystroke_a	a	n/a
367.845	0.105	735690	keystroke_t	t	n/a
367.98	0.075	735960	keystroke_h	h	n/a
368.115	0.12	736230	keystroke_e	e	n/a
368.205	0.09	736410	keystroke_r	r	n/a
368.31	0.12	736620	keystroke_Key.space	Key.space	n/a
368.415	0.09	736830	keystroke_p	p	n/a
368.52	0.12	737040	keystroke_r	r	n/a
368.7455	0.09	737491	keystroke_o	o	n/a
368.8955	0.105	737791	keystroke_x	x	n/a
369.1055	0.09	738211	keystroke_y	y	n/a
369.2855	0.105	738571	keystroke_Key.space	Key.space	n/a
369.5405	0.12	739081	keystroke_c	c	n/a
369.6305	0.15	739261	keystroke_o	o	n/a
369.7205	0.12	739441	keystroke_n	n	n/a
369.9455	0.09	739891	keystroke_g	g	n/a
370.1855	0.06	740371	keystroke_r	r	n/a
370.3655	0.075	740731	keystroke_a	a	n/a
370.5605	0.105	741121	keystroke_t	t	n/a
370.6805	0.12	741361	keystroke_u	u	n/a
370.8905	0.075	741781	keystroke_l	l	n/a
370.9355	0.09	741871	keystroke_a	a	n/a
371.1905	0.0895	742381	keystroke_t	t	n/a
371.31	0.18	742620	keystroke_i	i	n/a
371.43	0.135	742860	keystroke_o	o	n/a
371.475	0.105	742950	keystroke_n	n	n/a
371.7	0.09	743400	keystroke_s	s	n/a
372.555	0.135	745110	keystroke_Key.enter	Key.enter	n/a
372.6945	5.7875	745389	prompt	n/a	realtor secretary toys rose\n
373.335	0.0905	746670	keystroke_r	r	n/a
373.545	0.105	747090	keystroke_e	e	n/a
373.86	0.09	747720	keystroke_a	a	n/a
374.025	0.0755	748050	keystroke_l	l	n/a
374.2055	0.0905	748411	keystroke_t	t	n/a
374.491	0.0895	748982	keystroke_o	o	n/a
374.6255	0.075	749251	keystroke_r	r	n/a
374.7455	0.075	749491	keystroke_Key.space	Key.space	n/a
374.9555	0.0155	749911	keystroke_s	s	n/a
375.0605	0.075	750121	keystroke_e	e	n/a
375.3755	0.105	750751	keystroke_c	c	n/a
375.6155	0.075	751231	keystroke_r	r	n/a
375.7955	0.075	751591	keystroke_e	e	n/a
376.0355	0.105	752071	keystroke_t	t	n/a
376.3055	0.06	752611	keystroke_a	a	n/a
376.5155	0.105	753031	keystroke_r	r	n/a
376.695	0.09	753390	keystroke_y	y	n/a
376.77	0.105	753540	keystroke_Key.space	Key.space	n/a
376.98	0.091	753960	keystroke_t	t	n/a
377.085	0.105	754170	keystroke_o	o	n/a
377.206	0.104	754412	keystroke_y	y	n/a
377.34	0.075	754680	keystroke_s	s	n/a
377.43	0.09	754860	keystroke_Key.space	Key.space	n/a
377.745	0.075	755490	keystroke_r	r	n/a
377.866	0.029	755732	keystroke_o	o	n/a
377.941	0.195	755882	keystroke_s	s	n/a
378.09	0.105	756180	keystroke_e	e	n/a
378.39	0.09	756780	keystroke_Key.enter	Key.enter	n/a
378.4845	6.417	756969	prompt	n/a	striking prostores launches bone\n
379.05	0.105	758100	keystroke_s	s	n/a
379.32	0.0755	758640	keystroke_t	t	n/a
379.4705	0.12	758941	keystroke_r	r	n/a
379.5755	0.075	759151	keystroke_i	i	n/a
379.8905	0.045	759781	keystroke_k	k	n/a
380.0555	0.09	760111	keystroke_i	i	n/a
380.1305	0.075	760261	keystroke_n	n	n/a
380.1755	0.09	760351	keystroke_g	g	n/a
380.2805	0.105	760561	keystroke_Key.space	Key.space	n/a
380.4155	0.105	760831	keystroke_p	p	n/a
380.5355	0.09	761071	keystroke_r	r	n/a
380.6405	0.075	761281	keystroke_o	o	n/a
380.79	0.105	761580	keystroke_s	s	n/a
381	0.075	762000	keystroke_t	t	n/a
381.105	0.075	762210	keystroke_o	o	n/a
381.225	0.075	762450	keystroke_r	r	n/a
381.4055	0.06	762811	keystroke_e	e	n/a
381.6455	0.135	763291	keystroke_s	s	n/a
381.9155	0.135	763831	keystroke_Key.space	Key.space	n/a
382.0655	0.09	764131	keystroke_l	l	n/a
382.1855	0.105	764371	keystroke_a	a	n/a
382.3505	0.075	764701	keystroke_u	u	n/a
382.5305	0.09	765061	keystroke_n	n	n/a
382.6955	0.105	765391	keystroke_c	c	n/a
382.8155	0.075	765631	keystroke_h	h	n/a
383.0555	0.075	766111	keystroke_e	e	n/a
383.2505	0.12	766501	keystroke_s	s	n/a
383.3705	0.1045	766741	keystroke_Key.space	Key.space	n/a
383.82	0.075	767640	keystroke_b	b	n/a
383.955	0.15	767910	keystroke_o	o	n/a
384.09	0.12	768180	keystroke_n	n	n/a
384.225	0.06	768450	keystroke_e	e	n/a
384.405	0.12	768810	keystroke_s	s	n/a
384.795	0.1055	769590	keystroke_Key.enter	Key.enter	n/a
384.9075	8.6045	769815	prompt	n/a	gradually steps brazilian alternatively\n
385.515	0.09	771030	keystroke_g	g	n/a
385.68	0.075	771360	keystroke_r	r	n/a
385.875	0.045	771750	keystroke_a	a	n/a
386.01	0.091	772020	keystroke_d	d	n/a
386.13	0.046	772260	keystroke_u	u	n/a
386.22	0.091	772440	keystroke_a	a	n/a
386.325	0.06	772650	keystroke_l	l	n/a
386.461	0.104	772922	keystroke_l	l	n/a
386.7	0.106	773400	keystroke_y	y	n/a
386.775	0.12	773550	keystroke_Key.space	Key.space	n/a
386.865	0.105	773730	keystroke_s	s	n/a
387.075	0.075	774150	keystroke_t	t	n/a
387.24	0.075	774480	keystroke_e	e	n/a
387.33	0.075	774660	keystroke_p	p	n/a
387.48	0.076	774960	keystroke_s	s	n/a
387.5855	0.09	775171	keystroke_Key.space	Key.space	n/a
387.8255	0.0745	775651	keystroke_b	b	n/a
387.901	0.089	775802	keystroke_r	r	n/a
388.17	0.09	776340	keystroke_a	a	n/a
388.41	0.105	776820	keystroke_z	z	n/a
388.516	0.074	777032	keystroke_i	i	n/a
389.0105	0.09	778021	keystroke_l	l	n/a
389.1755	0.09	778351	keystroke_i	i	n/a
389.3705	0.12	778741	keystroke_a	a	n/a
389.5205	0.06	779041	keystroke_n	n	n/a
389.7005	0.09	779401	keystroke_Key.space	Key.space	n/a
389.9705	0.03	779941	keystroke_e	e	n/a
390.3305	0.045	780661	keystroke_Key.backspace	Key.backspace	n/a
390.42	0.09	780840	keystroke_a	a	n/a
390.555	0.075	781110	keystroke_l	l	n/a
390.84	0.06	781680	keystroke_t	t	n/a
390.99	0.09	781980	keystroke_e	e	n/a
391.035	0.105	782070	keystroke_r	r	n/a
391.17	0.015	782340	keystroke_n	n	n/a
391.455	0.09	782910	keystroke_a	a	n/a
391.71	0.075	783420	keystroke_t	t	n/a
391.86	0.06	783720	keystroke_i	i	n/a
392.205	0.105	784410	keystroke_e	e	n/a
392.565	0.06	785130	keystroke_Key.backspace	Key.backspace	n/a
392.595	0.09	785190	keystroke_v	v	n/a
392.715	0.09	785430	keystroke_e	e	n/a
392.835	0.075	785670	keystroke_l	l	n/a
393	0.015	786000	keystroke_y	y	n/a
393.4205	0.09	786841	keystroke_Key.enter	Key.enter	n/a
393.514	8.338	787028	prompt	n/a	dressed supporting civic fitness\n
394.0505	0.105	788101	keystroke_d	d	n/a
394.2455	0.105	788491	keystroke_r	r	n/a
394.4255	0.089	788851	keystroke_e	e	n/a
394.6355	0.029	789271	keystroke_s	s	n/a
394.7555	0.045	789511	keystroke_s	s	n/a
394.9355	0.045	789871	keystroke_e	e	n/a
395.4155	0.075	790831	keystroke_d	d	n/a
395.5805	0.1045	791161	keystroke_Key.space	Key.space	n/a
395.7	0.0755	791400	keystroke_s	s	n/a
395.7755	0.075	791551	keystroke_u	u	n/a
395.9405	0.06	791881	keystroke_p	p	n/a
396.076	0.165	792152	keystroke_p	p	n/a
396.165	0.105	792330	keystroke_o	o	n/a
396.675	0.075	793350	keystroke_r	r	n/a
396.87	0.091	793740	keystroke_t	t	n/a
397.005	0.1355	794010	keystroke_i	i	n/a
397.1105	0.09	794221	keystroke_n	n	n/a
397.1855	0.105	794371	keystroke_g	g	n/a
397.4105	0.075	794821	keystroke_Key.space	Key.space	n/a
397.5755	0.1045	795151	keystroke_c	c	n/a
397.725	0.09	795450	keystroke_i	i	n/a
397.875	0.1205	795750	keystroke_v	v	n/a
398.0105	0.0745	796021	keystroke_i	i	n/a
399.1355	0.105	798271	keystroke_c	c	n/a
399.3005	0.09	798601	keystroke_Key.space	Key.space	n/a
399.87	0.135	799740	keystroke_f	f	n/a
400.035	0.0905	800070	keystroke_i	i	n/a
400.6205	0.105	801241	keystroke_t	t	n/a
400.7855	0.075	801571	keystroke_n	n	n/a
400.8755	0.09	801751	keystroke_e	e	n/a
401.0855	0.075	802171	keystroke_s	s	n/a
401.22	0.09	802440	keystroke_s	s	n/a
401.7	0.15	803400	keystroke_Key.enter	Key.enter	n/a
401.863	9.4235	803726	prompt	n/a	dodge concentrations microwave buyer\n
402.42	0.1355	804840	keystroke_d	d	n/a
402.7055	0.09	805411	keystroke_o	o	n/a
402.8105	0.12	805621	keystroke_d	d	n/a
403.3805	0.06	806761	keystroke_g	g	n/a
403.5455	0.12	807091	keystroke_e	e	n/a
403.8905	0.105	807781	keystroke_Key.space	Key.space	n/a
404.445	0.135	808890	keystroke_c	c	n/a
404.565	0.12	809130	keystroke_o	o	n/a
404.655	0.105	809310	keystroke_n	n	n/a
404.775	0.09	809550	keystroke_c	c	n/a
405.27	0.03	810540	keystroke_n	n	n/a
405.405	0.045	810810	keystroke_e	e	n/a
405.6	0.06	811200	keystroke_Key.backspace	Key.backspace	n/a
405.72	0.105	811440	keystroke_Key.backspace	Key.backspace	n/a
405.84	0.12	811680	keystroke_e	e	n/a
405.975	0.0895	811950	keystroke_n	n	n/a
406.1695	0.091	812339	keystroke_t	t	n/a
406.3345	0.09	812669	keystroke_r	r	n/a
406.5295	0.075	813059	keystroke_a	a	n/a
406.7555	0.09	813511	keystroke_t	t	n/a
406.8595	0.15	813719	keystroke_i	i	n/a
406.9195	0.135	813839	keystroke_o	o	n/a
406.9945	0.12	813989	keystroke_n	n	n/a
407.0995	0.12	814199	keystroke_s	s	n/a
407.2045	0.12	814409	keystroke_Key.space	Key.space	n/a
407.4145	0.105	814829	keystroke_m	m	n/a
407.5795	0.075	815159	keystroke_i	i	n/a
407.8495	0.12	815699	keystroke_c	c	n/a
408.12	0.06	816240	keystroke_r	r	n/a
408.24	0.075	816480	keystroke_o	o	n/a
408.99	0.09	817980	keystroke_w	w	n/a
409.185	0.12	818370	keystroke_a	a	n/a
409.395	0.075	818790	keystroke_v	v	n/a
409.485	0.09	818970	keystroke_e	e	n/a
409.62	0.09	819240	keystroke_Key.space	Key.space	n/a
409.86	0.09	819720	keystroke_b	b	n/a
410.0695	0.12	820139	keystroke_u	u	n/a
410.1595	0.105	820319	keystroke_y	y	n/a
410.5945	0.1805	821189	keystroke_e	e	n/a
410.925	0.135	821850	keystroke_r	r	n/a
411.24	0.045	822480	keystroke_Key.enter	Key.enter	n/a
411.292	6.8345	822584	prompt	n/a	enterprises magnet skip interval\n
412.26	0.075	824520	keystroke_e	e	n/a
412.47	0.06	824940	keystroke_n	n	n/a
412.74	0.09	825480	keystroke_t	t	n/a
412.935	0.09	825870	keystroke_e	e	n/a
412.98	0.09	825960	keystroke_r	r	n/a
413.16	0.09	826320	keystroke_p	p	n/a
413.265	0.105	826530	keystroke_r	r	n/a
413.4	0.09	826800	keystroke_i	i	n/a
413.76	0.12	827520	keystroke_s	s	n/a
413.925	0.105	827850	keystroke_e	e	n/a
414.195	0.105	828390	keystroke_s	s	n/a
414.39	0.09	828780	keystroke_Key.space	Key.space	n/a
414.6905	0.09	829381	keystroke_m	m	n/a
414.7955	0.075	829591	keystroke_a	a	n/a
415.0205	0.09	830041	keystroke_g	g	n/a
415.1255	0.09	830251	keystroke_n	n	n/a
415.2455	0.075	830491	keystroke_e	e	n/a
415.6505	0.075	831301	keystroke_t	t	n/a
415.8005	0.09	831601	keystroke_Key.space	Key.space	n/a
415.9505	0.12	831901	keystroke_s	s	n/a
416.0555	0.105	832111	keystroke_k	k	n/a
416.2805	0.045	832561	keystroke_i	i	n/a
416.4605	0.09	832921	keystroke_p	p	n/a
416.5655	0.09	833131	keystroke_Key.space	Key.space	n/a
416.8055	0.12	833611	keystroke_i	i	n/a
416.8655	0.105	833731	keystroke_n	n	n/a
417.0455	0.074	834091	keystroke_t	t	n/a
417.2255	0.075	834451	keystroke_e	e	n/a
417.2555	0.105	834511	keystroke_r	r	n/a
417.4955	0.09	834991	keystroke_v	v	n/a
417.6905	0.09	835381	keystroke_a	a	n/a
417.7955	0.06	835591	keystroke_l	l	n/a
418.05	0.0745	836100	keystroke_Key.enter	Key.enter	n/a
418.1315	7.465	836263	prompt	n/a	cosmetics printing herself polyester\n
418.7705	0.135	837541	keystroke_c	c	n/a
418.8905	0.075	837781	keystroke_o	o	n/a
419.0105	0.135	838021	keystroke_s	s	n/a
419.1905	0.09	838381	keystroke_m	m	n/a
419.3255	0.09	838651	keystroke_e	e	n/a
419.5805	0.075	839161	keystroke_t	t	n/a
419.7005	0.06	839401	keystroke_i	i	n/a
420.1205	0.12	840241	keystroke_c	c	n/a
420.555	0.1205	841110	keystroke_s	s	n/a
420.7045	0.121	841409	keystroke_Key.space	Key.space	n/a
420.8405	0.06	841681	keystroke_p	p	n/a
420.9155	0.12	841831	keystroke_r	r	n/a
421.1255	0.09	842251	keystroke_i	i	n/a
421.3055	0.105	842611	keystroke_n	n	n/a
421.4255	0.12	842851	keystroke_t	t	n/a
421.5605	0.075	843121	keystroke_i	i	n/a
421.6205	0.0745	843241	keystroke_n	n	n/a
421.785	0.105	843570	keystroke_g	g	n/a
421.935	0.06	843870	keystroke_Key.space	Key.space	n/a
422.19	0.0455	844380	keystroke_h	h	n/a
422.2655	0.135	844531	keystroke_e	e	n/a
422.3555	0.105	844711	keystroke_r	r	n/a
422.7	0.09	845400	keystroke_s	s	n/a
422.82	0.105	845640	keystroke_e	e	n/a
423.015	0.045	846030	keystroke_l	l	n/a
423.09	0.105	846180	keystroke_f	f	n/a
423.21	0.09	846420	keystroke_Key.space	Key.space	n/a
423.39	0.12	846780	keystroke_p	p	n/a
423.63	0.075	847260	keystroke_o	o	n/a
423.81	0.075	847620	keystroke_l	l	n/a
424.035	0.06	848070	keystroke_y	y	n/a
424.47	0.105	848940	keystroke_e	e	n/a
424.71	0.09	849420	keystroke_s	s	n/a
424.935	0.075	849870	keystroke_t	t	n/a
425.1	0.12	850200	keystroke_e	e	n/a
425.16	0.09	850320	keystroke_r	r	n/a
425.475	0.12	850950	keystroke_Key.enter	Key.enter	n/a
425.5995	10.527	851199	prompt	n/a	highlighted venezuela mouth primary\n
426.285	0.06	852570	keystroke_h	h	n/a
426.465	0.105	852930	keystroke_i	i	n/a
426.63	0.09	853260	keystroke_g	g	n/a
426.99	0.075	853980	keystroke_Key.backspace	Key.backspace	n/a
427.2455	0.03	854491	keystroke_u	u	n/a
427.7855	0.045	855571	keystroke_Key.backspace	Key.backspace	n/a
428.3405	0.09	856681	keystroke_g	g	n/a
428.3855	0.045	856771	keystroke_h	h	n/a
428.6555	0.12	857311	keystroke_l	l	n/a
428.7605	0.09	857521	keystroke_i	i	n/a
428.8955	0.105	857791	keystroke_g	g	n/a
428.9855	0.06	857971	keystroke_h	h	n/a
429.0905	0.09	858181	keystroke_t	t	n/a
429.2855	0.075	858571	keystroke_e	e	n/a
429.5105	0.09	859021	keystroke_d	d	n/a
429.6455	0.09	859291	keystroke_Key.space	Key.space	n/a
430.08	0.12	860160	keystroke_v	v	n/a
430.26	0.075	860520	keystroke_e	e	n/a
430.35	0.105	860700	keystroke_n	n	n/a
430.44	0.105	860880	keystroke_e	e	n/a
430.7855	0.105	861571	keystroke_s	s	n/a
431.31	0.135	862620	keystroke_z	z	n/a
431.61	0.06	863220	keystroke_Key.backspace	Key.backspace	n/a
431.745	0.09	863490	keystroke_Key.backspace	Key.backspace	n/a
431.82	0.075	863640	keystroke_z	z	n/a
431.955	0.105	863910	keystroke_u	u	n/a
432.2255	0.075	864451	keystroke_e	e	n/a
432.3155	0.045	864631	keystroke_l	l	n/a
432.4945	0.121	864989	keystroke_a	a	n/a
432.8255	0.089	865651	keystroke_Key.space	Key.space	n/a
433.0205	0.0595	866041	keystroke_m	m	n/a
433.215	0.075	866430	keystroke_o	o	n/a
433.23	0.105	866460	keystroke_u	u	n/a
433.38	0.12	866760	keystroke_t	t	n/a
433.485	0.105	866970	keystroke_h	h	n/a
433.605	0.075	867210	keystroke_Key.space	Key.space	n/a
433.9345	0.09	867869	keystroke_p	p	n/a
434.13	0.12	868260	keystroke_r	r	n/a
434.235	0.09	868470	keystroke_i	i	n/a
434.52	0.075	869040	keystroke_m	m	n/a
434.94	0.12	869880	keystroke_a	a	n/a
435.285	0.12	870570	keystroke_r	r	n/a
435.45	0.06	870900	keystroke_y	y	n/a
435.645	0.075	871290	keystroke_Key.space	Key.space	n/a
436.05	0.075	872100	keystroke_Key.enter	Key.enter	n/a
436.141	6.8255	872282	prompt	n/a	reminder luke convinced later\n
436.815	0.075	873630	keystroke_r	r	n/a
437.0105	0.0895	874021	keystroke_e	e	n/a
437.0705	0.06	874141	keystroke_m	m	n/a
437.235	0.105	874470	keystroke_i	i	n/a
437.2805	0.1495	874561	keystroke_n	n	n/a
437.415	0.09	874830	keystroke_d	d	n/a
437.625	0.135	875250	keystroke_e	e	n/a
437.715	0.075	875430	keystroke_r	r	n/a
437.805	0.105	875610	keystroke_Key.space	Key.space	n/a
437.925	0.1345	875850	keystroke_l	l	n/a
438.1795	0.06	876359	keystroke_l	l	n/a
438.6445	0.0605	877289	keystroke_Key.backspace	Key.backspace	n/a
438.8855	0.09	877771	keystroke_u	u	n/a
439.2155	0.105	878431	keystroke_k	k	n/a
439.3355	0.09	878671	keystroke_e	e	n/a
439.4105	0.075	878821	keystroke_Key.space	Key.space	n/a
439.6205	0.09	879241	keystroke_c	c	n/a
439.6655	0.12	879331	keystroke_o	o	n/a
439.7555	0.105	879511	keystroke_n	n	n/a
439.8905	0.12	879781	keystroke_v	v	n/a
440.1455	0.12	880291	keystroke_i	i	n/a
440.2655	0.105	880531	keystroke_n	n	n/a
440.5205	0.09	881041	keystroke_v	v	n/a
440.775	0.105	881550	keystroke_c	c	n/a
441.21	0.06	882420	keystroke_Key.backspace	Key.backspace	n/a
441.345	0.09	882690	keystroke_Key.backspace	Key.backspace	n/a
441.42	0.15	882840	keystroke_c	c	n/a
441.555	0.09	883110	keystroke_e	e	n/a
441.765	0.09	883530	keystroke_d	d	n/a
441.84	0.075	883680	keystroke_Key.space	Key.space	n/a
441.99	0.075	883980	keystroke_l	l	n/a
442.08	0.09	884160	keystroke_a	a	n/a
442.335	0.0905	884670	keystroke_t	t	n/a
442.5755	0.105	885151	keystroke_e	e	n/a
442.6655	0.06	885331	keystroke_r	r	n/a
442.8605	0.105	885721	keystroke_Key.enter	Key.enter	n/a
442.971	5.7705	885942	prompt	n/a	venue davidson price organization\n
443.5655	0.105	887131	keystroke_v	v	n/a
443.7755	0.075	887551	keystroke_e	e	n/a
443.8655	0.09	887731	keystroke_n	n	n/a
444.1055	0.06	888211	keystroke_u	u	n/a
444.18	0.06	888360	keystroke_e	e	n/a
444.27	0.09	888540	keystroke_Key.space	Key.space	n/a
444.42	0.06	888840	keystroke_d	d	n/a
444.555	0.09	889110	keystroke_a	a	n/a
444.795	0.0755	889590	keystroke_v	v	n/a
444.9455	0.06	889891	keystroke_i	i	n/a
445.1855	0.105	890371	keystroke_d	d	n/a
445.3955	0.105	890791	keystroke_s	s	n/a
445.5455	0.12	891091	keystroke_o	o	n/a
445.6505	0.1495	891301	keystroke_n	n	n/a
445.785	0.105	891570	keystroke_Key.space	Key.space	n/a
445.9505	0.09	891901	keystroke_p	p	n/a
446.0555	0.075	892111	keystroke_r	r	n/a
446.1905	0.09	892381	keystroke_i	i	n/a
446.3105	0.12	892621	keystroke_c	c	n/a
446.4905	0.09	892981	keystroke_e	e	n/a
446.5805	0.134	893161	keystroke_Key.space	Key.space	n/a
446.7005	0.12	893401	keystroke_o	o	n/a
446.8045	0.061	893609	keystroke_r	r	n/a
447.0005	0.074	894001	keystroke_g	g	n/a
447.1955	0.074	894391	keystroke_a	a	n/a
447.3295	0.091	894659	keystroke_n	n	n/a
447.4655	0.104	894931	keystroke_i	i	n/a
447.5845	0.06	895169	keystroke_z	z	n/a
447.7795	0.075	895559	keystroke_a	a	n/a
448.095	0.09	896190	keystroke_t	t	n/a
448.2	0.15	896400	keystroke_i	i	n/a
448.29	0.09	896580	keystroke_o	o	n/a
448.335	0.105	896670	keystroke_n	n	n/a
448.65	0.09	897300	keystroke_Key.enter	Key.enter	n/a
448.744	5.7725	897488	prompt	n/a	largest jones provincial breed\n
449.28	0.09	898560	keystroke_l	l	n/a
449.4	0.105	898800	keystroke_a	a	n/a
449.61	0.06	899220	keystroke_r	r	n/a
449.76	0.105	899520	keystroke_g	g	n/a
450	0.1045	900000	keystroke_e	e	n/a
450.2255	0.0895	900451	keystroke_s	s	n/a
450.45	0.075	900900	keystroke_t	t	n/a
450.555	0.09	901110	keystroke_Key.space	Key.space	n/a
450.8105	0.104	901621	keystroke_j	j	n/a
450.9445	0.135	901889	keystroke_o	o	n/a
451.0655	0.1345	902131	keystroke_n	n	n/a
451.1855	0.0595	902371	keystroke_e	e	n/a
451.3505	0.105	902701	keystroke_s	s	n/a
451.4405	0.09	902881	keystroke_Key.space	Key.space	n/a
451.6205	0.09	903241	keystroke_p	p	n/a
451.7405	0.105	903481	keystroke_r	r	n/a
451.8605	0.075	903721	keystroke_o	o	n/a
452.0405	0.09	904081	keystroke_v	v	n/a
452.1755	0.075	904351	keystroke_i	i	n/a
452.4605	0.09	904921	keystroke_n	n	n/a
452.7005	0.0905	905401	keystroke_c	c	n/a
452.8055	0.045	905611	keystroke_i	i	n/a
452.9105	0.105	905821	keystroke_a	a	n/a
453.0455	0.105	906091	keystroke_l	l	n/a
453.1505	0.0745	906301	keystroke_Key.space	Key.space	n/a
453.345	0.075	906690	keystroke_b	b	n/a
453.495	0.105	906990	keystroke_r	r	n/a
453.72	0.045	907440	keystroke_e	e	n/a
453.87	0.12	907740	keystroke_e	e	n/a
454.215	0.075	908430	keystroke_d	d	n/a
454.41	0.105	908820	keystroke_Key.enter	Key.enter	n/a
454.522	10.5395	909044	prompt	n/a	assurance produces somebody's physically\n
455.085	0.09	910170	keystroke_a	a	n/a
455.295	0.03	910590	keystroke_s	s	n/a
455.43	0.075	910860	keystroke_s	s	n/a
455.535	0.09	911070	keystroke_u	u	n/a
455.685	0.09	911370	keystroke_r	r	n/a
455.88	0.105	911760	keystroke_a	a	n/a
456	0.0605	912000	keystroke_n	n	n/a
456.1205	0.15	912241	keystroke_c	c	n/a
456.3005	0.03	912601	keystroke_c	c	n/a
456.3155	0.105	912631	keystroke_e	e	n/a
456.4355	0.1345	912871	keystroke_Key.space	Key.space	n/a
456.585	0.075	913170	keystroke_p	p	n/a
456.675	0.105	913350	keystroke_r	r	n/a
457.215	0.045	914430	keystroke_Key.backspace	Key.backspace	n/a
457.335	0.075	914670	keystroke_Key.backspace	Key.backspace	n/a
457.485	0.075	914970	keystroke_Key.backspace	Key.backspace	n/a
457.65	0.075	915300	keystroke_Key.backspace	Key.backspace	n/a
457.89	0.075	915780	keystroke_e	e	n/a
458.115	0.06	916230	keystroke_Key.space	Key.space	n/a
458.475	0.06	916950	keystroke_Key.backspace	Key.backspace	n/a
458.61	0.045	917220	keystroke_Key.backspace	Key.backspace	n/a
458.715	0.09	917430	keystroke_Key.backspace	Key.backspace	n/a
458.82	0.09	917640	keystroke_e	e	n/a
458.94	0.105	917880	keystroke_Key.space	Key.space	n/a
459.075	0.075	918150	keystroke_p	p	n/a
459.4955	0.12	918991	keystroke_r	r	n/a
459.6455	0.09	919291	keystroke_o	o	n/a
459.81	0.105	919620	keystroke_d	d	n/a
459.96	0.06	919920	keystroke_u	u	n/a
460.095	0.12	920190	keystroke_c	c	n/a
460.29	0.1205	920580	keystroke_e	e	n/a
460.5305	0.09	921061	keystroke_s	s	n/a
460.6805	0.135	921361	keystroke_Key.space	Key.space	n/a
460.8305	0.09	921661	keystroke_s	s	n/a
460.9055	0.12	921811	keystroke_o	o	n/a
460.9805	0.105	921961	keystroke_m	m	n/a
461.1155	0.12	922231	keystroke_e	e	n/a
461.3105	0.09	922621	keystroke_b	b	n/a
461.4455	0.105	922891	keystroke_o	o	n/a
461.6555	0.09	923311	keystroke_d	d	n/a
461.7305	0.075	923461	keystroke_y	y	n/a
461.9405	0.105	923881	keystroke_'	'	n/a
462.06	0.105	924120	keystroke_s	s	n/a
462.18	0.075	924360	keystroke_Key.space	Key.space	n/a
462.495	0.075	924990	keystroke_p	p	n/a
462.6	0.03	925200	keystroke_r	r	n/a
462.93	0.03	925860	keystroke_Key.backspace	Key.backspace	n/a
463.125	0.0745	926250	keystroke_h	h	n/a
463.3505	0.059	926701	keystroke_y	y	n/a
463.5145	0.105	927029	keystroke_s	s	n/a
463.8895	0.091	927779	keystroke_i	i	n/a
464.0395	0.075	928079	keystroke_c	c	n/a
464.1745	0.12	928349	keystroke_a	a	n/a
464.3105	0.03	928621	keystroke_l	l	n/a
464.4305	0.089	928861	keystroke_l	l	n/a
464.5805	0.089	929161	keystroke_y	y	n/a
464.97	0.09	929940	keystroke_Key.enter	Key.enter	n/a
465.0645	6.1325	930129	prompt	n/a	coffee comparing monica strongly\n
465.705	0.12	931410	keystroke_c	c	n/a
465.84	0.0605	931680	keystroke_o	o	n/a
465.9755	0.0595	931951	keystroke_f	f	n/a
466.125	0.075	932250	keystroke_f	f	n/a
466.32	0.045	932640	keystroke_e	e	n/a
466.455	0.075	932910	keystroke_e	e	n/a
466.59	0.0895	933180	keystroke_Key.space	Key.space	n/a
466.74	0.1345	933480	keystroke_c	c	n/a
466.95	0.105	933900	keystroke_o	o	n/a
467.0095	0.105	934019	keystroke_m	m	n/a
467.2045	0.09	934409	keystroke_p	p	n/a
467.2795	0.09	934559	keystroke_a	a	n/a
467.49	0.0895	934980	keystroke_r	r	n/a
467.6995	0.135	935399	keystroke_i	i	n/a
467.7745	0.12	935549	keystroke_n	n	n/a
467.8495	0.105	935699	keystroke_g	g	n/a
467.9395	0.1055	935879	keystroke_Key.space	Key.space	n/a
468.06	0.075	936120	keystroke_m	m	n/a
468.27	0.045	936540	keystroke_n	n	n/a
468.795	0.045	937590	keystroke_Key.backspace	Key.backspace	n/a
469.02	0.105	938040	keystroke_o	o	n/a
469.11	0.105	938220	keystroke_n	n	n/a
469.245	0.09	938490	keystroke_i	i	n/a
469.395	0.105	938790	keystroke_c	c	n/a
469.605	0.105	939210	keystroke_a	a	n/a
469.725	0.09	939450	keystroke_Key.space	Key.space	n/a
469.8755	0.105	939751	keystroke_s	s	n/a
470.0855	0.09	940171	keystroke_t	t	n/a
470.2505	0.105	940501	keystroke_r	r	n/a
470.3705	0.12	940741	keystroke_o	o	n/a
470.4755	0.12	940951	keystroke_n	n	n/a
470.5805	0.075	941161	keystroke_g	g	n/a
470.7155	0.0895	941431	keystroke_l	l	n/a
470.82	0.09	941640	keystroke_y	y	n/a
471.12	0.075	942240	keystroke_Key.enter	Key.enter	n/a
471.2015	8.215	942403	prompt	n/a	clearing antibody scope suspension\n
471.735	0.09	943470	keystroke_c	c	n/a
471.87	0.075	943740	keystroke_l	l	n/a
471.93	0.06	943860	keystroke_e	e	n/a
472.0655	0.1045	944131	keystroke_a	a	n/a
472.275	0.075	944550	keystroke_r	r	n/a
472.38	0.105	944760	keystroke_i	i	n/a
472.425	0.12	944850	keystroke_n	n	n/a
472.53	0.09	945060	keystroke_g	g	n/a
472.635	0.105	945270	keystroke_Key.space	Key.space	n/a
472.785	0.12	945570	keystroke_a	a	n/a
472.89	0.09	945780	keystroke_n	n	n/a
473.37	0.0905	946740	keystroke_t	t	n/a
473.7155	0.1045	947431	keystroke_y	y	n/a
474.1345	0.075	948269	keystroke_Key.backspace	Key.backspace	n/a
474.3755	0.03	948751	keystroke_i	i	n/a
474.5705	0.075	949141	keystroke_b	b	n/a
474.7355	0.09	949471	keystroke_o	o	n/a
474.8405	0.12	949681	keystroke_d	d	n/a
474.9455	0.09	949891	keystroke_y	y	n/a
475.1555	0.075	950311	keystroke_Key.space	Key.space	n/a
475.5305	0.075	951061	keystroke_s	s	n/a
475.7105	0.075	951421	keystroke_c	c	n/a
476.0105	0.06	952021	keystroke_o	o	n/a
476.205	0.06	952410	keystroke_p	p	n/a
476.61	0.12	953220	keystroke_e	e	n/a
476.85	0.075	953700	keystroke_Key.space	Key.space	n/a
477.705	0.09	955410	keystroke_s	s	n/a
477.885	0.075	955770	keystroke_u	u	n/a
477.975	0.12	955950	keystroke_s	s	n/a
478.2005	0.075	956401	keystroke_p	p	n/a
478.3355	0.105	956671	keystroke_e	e	n/a
478.4705	0.075	956941	keystroke_n	n	n/a
478.6355	0.135	957271	keystroke_s	s	n/a
478.7555	0.1495	957511	keystroke_i	i	n/a
478.83	0.105	957660	keystroke_o	o	n/a
478.905	0.075	957810	keystroke_n	n	n/a
479.355	0.06	958710	keystroke_Key.enter	Key.enter	n/a
479.42	7.4665	958840	prompt	n/a	foto performer greeting travelers\n
480.33	0.135	960660	keystroke_f	f	n/a
480.45	0.06	960900	keystroke_o	o	n/a
480.615	0.09	961230	keystroke_t	t	n/a
480.735	0.06	961470	keystroke_o	o	n/a
481.095	0.075	962190	keystroke_Key.space	Key.space	n/a
481.26	0.0755	962520	keystroke_p	p	n/a
481.35	0.12	962700	keystroke_e	e	n/a
481.425	0.105	962850	keystroke_r	r	n/a
481.6655	0.105	963331	keystroke_f	f	n/a
481.7555	0.09	963511	keystroke_o	o	n/a
481.9655	0.06	963931	keystroke_t	t	n/a
482.4605	0.075	964921	keystroke_m	m	n/a
482.5355	0.105	965071	keystroke_e	e	n/a
482.6105	0.105	965221	keystroke_r	r	n/a
482.8355	0.06	965671	keystroke_Key.space	Key.space	n/a
483.12	0.075	966240	keystroke_g	g	n/a
483.5095	0.105	967019	keystroke_r	r	n/a
483.795	0.015	967590	keystroke_e	e	n/a
483.9	0.0905	967800	keystroke_e	e	n/a
484.1405	0.12	968281	keystroke_t	t	n/a
484.2755	0.089	968551	keystroke_i	i	n/a
484.3355	0.1045	968671	keystroke_n	n	n/a
484.425	0.09	968850	keystroke_g	g	n/a
484.515	0.09	969030	keystroke_Key.space	Key.space	n/a
484.785	0.075	969570	keystroke_t	t	n/a
484.95	0.091	969900	keystroke_r	r	n/a
485.16	0.09	970320	keystroke_a	a	n/a
485.43	0.105	970860	keystroke_v	v	n/a
485.61	0.075	971220	keystroke_e	e	n/a
485.715	0.0745	971430	keystroke_l	l	n/a
485.8045	0.12	971609	keystroke_e	e	n/a
486.315	0.09	972630	keystroke_r	r	n/a
486.54	0.12	973080	keystroke_s	s	n/a
486.795	0.09	973590	keystroke_Key.enter	Key.enter	n/a
486.889	6.1925	973778	prompt	n/a	aquatic million world ontario\n
487.4995	0.105	974999	keystroke_a	a	n/a
487.7545	0.075	975509	keystroke_q	q	n/a
487.8895	0.09	975779	keystroke_u	u	n/a
487.9945	0.121	975989	keystroke_a	a	n/a
488.3095	0.075	976619	keystroke_t	t	n/a
488.4295	0.075	976859	keystroke_i	i	n/a
488.5505	0.149	977101	keystroke_c	c	n/a
488.6545	0.135	977309	keystroke_Key.space	Key.space	n/a
488.8045	0.09	977609	keystroke_m	m	n/a
488.9395	0.075	977879	keystroke_i	i	n/a
489.1195	0.06	978239	keystroke_l	l	n/a
489.2845	0.09	978569	keystroke_l	l	n/a
489.4345	0.106	978869	keystroke_i	i	n/a
489.6755	0.1195	979351	keystroke_o	o	n/a
489.7495	0.1355	979499	keystroke_n	n	n/a
