onset	duration	sample	value	key	prompt_text
18.7395	14.5665	37479	prompt	n/a	the quick brown fox jumps over a lazy dog\n
21.307	0.012	42614	keystroke_t	t	n/a
21.349	0.1045	42698	keystroke_h	h	n/a
21.439	0.135	42878	keystroke_e	e	n/a
21.5135	0.1505	43027	keystroke_Key.space	Key.space	n/a
21.919	0.105	43838	keystroke_q	q	n/a
22.069	0.09	44138	keystroke_u	u	n/a
22.2335	0.105	44467	keystroke_i	i	n/a
22.3685	0.135	44737	keystroke_c	c	n/a
22.4885	0.105	44977	keystroke_k	k	n/a
22.6235	0.135	45247	keystroke_Key.space	Key.space	n/a
22.7735	0.09	45547	keystroke_b	b	n/a
22.8785	0.105	45757	keystroke_r	r	n/a
23.0135	0.06	46027	keystroke_i	i	n/a
23.0285	0.046	46057	keystroke_o	o	n/a
23.1185	0.09	46237	keystroke_w	w	n/a
23.2535	0.075	46507	keystroke_b	b	n/a
23.2685	0.045	46537	keystroke_n	n	n/a
23.5545	0.074	47109	keystroke_=	=	n/a
23.7195	0.09	47439	keystroke_=	=	n/a
24.5435	0.075	49087	keystroke_Key.backspace	Key.backspace	n/a
24.7535	0.0755	49507	keystroke_Key.backspace	Key.backspace	n/a
24.949	0.075	49898	keystroke_Key.backspace	Key.backspace	n/a
25.174	0.09	50348	keystroke_Key.backspace	Key.backspace	n/a
25.384	0.0755	50768	keystroke_Key.backspace	Key.backspace	n/a
25.579	0.075	51158	keystroke_Key.backspace	Key.backspace	n/a
26.014	0.075	52028	keystroke_Key.backspace	Key.backspace	n/a
26.8985	0.09	53797	keystroke_o	o	n/a
27.094	0.0745	54188	keystroke_w	w	n/a
27.2735	0.09	54547	keystroke_n	n	n/a
27.499	0.135	54998	keystroke_Key.space	Key.space	n/a
27.6785	0.135	55357	keystroke_f	f	n/a
27.8735	0.09	55747	keystroke_o	o	n/a
28.0085	0.135	56017	keystroke_x	x	n/a
28.1885	0.075	56377	keystroke_Key.space	Key.space	n/a
28.4135	0.09	56827	keystroke_j	j	n/a
28.5635	0.09	57127	keystroke_u	u	n/a
28.759	0.059	57518	keystroke_m	m	n/a
28.9235	0.06	57847	keystroke_p	p	n/a
29.0585	0.12	58117	keystroke_s	s	n/a
29.1485	0.1205	58297	keystroke_Key.space	Key.space	n/a
29.989	0.075	59978	keystroke_o	o	n/a
30.154	0.09	60308	keystroke_v	v	n/a
30.3635	0.105	60727	keystroke_e	e	n/a
30.4235	0.165	60847	keystroke_r	r	n/a
30.5435	0.15	61087	keystroke_Key.space	Key.space	n/a
30.6635	0.18	61327	keystroke_a	a	n/a
30.8135	0.135	61627	keystroke_Key.space	Key.space	n/a
31.0385	0.1045	62077	keystroke_l	l	n/a
31.1585	0.1045	62317	keystroke_a	a	n/a
31.3685	0.1045	62737	keystroke_z	z	n/a
31.623	0.09	63246	keystroke_y	y	n/a
31.728	0.1205	63456	keystroke_Key.space	Key.space	n/a
31.908	0.105	63816	keystroke_d	d	n/a
32.058	0.09	64116	keystroke_o	o	n/a
32.178	0.105	64356	keystroke_g	g	n/a
33.1985	0.105	66397	keystroke_Key.enter	Key.enter	n/a
33.31	7.8095	66620	prompt	n/a	monthly classroom regions sent\n
34.3685	0.09	68737	keystroke_m	m	n/a
34.564	0.059	69128	keystroke_o	o	n/a
34.729	0.105	69458	keystroke_n	n	n/a
35.4935	0.075	70987	keystroke_t	t	n/a
35.5835	0.09	71167	keystroke_h	h	n/a
35.7035	0.105	71407	keystroke_l	l	n/a
35.8535	0.09	71707	keystroke_y	y	n/a
35.9735	0.1195	71947	keystroke_Key.space	Key.space	n/a
36.378	0.075	72756	keystroke_c	c	n/a
36.514	0.119	73028	keystroke_l	l	n/a
36.619	0.119	73238	keystroke_a	a	n/a
36.8585	0.06	73717	keystroke_s	s	n/a
36.9785	0.09	73957	keystroke_s	s	n/a
37.1735	0.09	74347	keystroke_r	r	n/a
37.3085	0.075	74617	keystroke_o	o	n/a
37.4585	0.165	74917	keystroke_o	o	n/a
37.5635	0.135	75127	keystroke_m	m	n/a
37.9685	0.12	75937	keystroke_Key.space	Key.space	n/a
38.1935	0.135	76387	keystroke_r	r	n/a
38.2835	0.105	76567	keystroke_e	e	n/a
38.4785	0.0895	76957	keystroke_g	g	n/a
38.583	0.2555	77166	keystroke_i	i	n/a
38.673	0.15	77346	keystroke_o	o	n/a
38.778	0.165	77556	keystroke_n	n	n/a
39.1375	0.12	78275	keystroke_s	s	n/a
39.3625	0.135	78725	keystroke_Key.space	Key.space	n/a
39.4985	0.179	78997	keystroke_s	s	n/a
39.6175	0.135	79235	keystroke_e	e	n/a
39.7675	0.121	79535	keystroke_n	n	n/a
39.8575	0.106	79715	keystroke_t	t	n/a
41.0275	0.09	82055	keystroke_Key.enter	Key.enter	n/a
41.1245	7.3155	82249	prompt	n/a	criterion willing chicago guest\n
42.048	0.12	84096	keystroke_c	c	n/a
42.273	0.075	84546	keystroke_r	r	n/a
42.378	0.105	84756	keystroke_i	i	n/a
42.453	0.075	84906	keystroke_t	t	n/a
42.588	0.1055	85176	keystroke_e	e	n/a
42.6475	0.12	85295	keystroke_r	r	n/a
42.7975	0.09	85595	keystroke_i	i	n/a
43.0225	0.075	86045	keystroke_o	o	n/a
43.2625	0.106	86525	keystroke_n	n	n/a
43.3825	0.135	86765	keystroke_Key.space	Key.space	n/a
43.5025	0.121	87005	keystroke_w	w	n/a
43.5925	0.075	87185	keystroke_i	i	n/a
43.7725	0.06	87545	keystroke_l	l	n/a
43.8925	0.091	87785	keystroke_l	l	n/a
44.0735	0.12	88147	keystroke_i	i	n/a
44.1635	0.12	88327	keystroke_n	n	n/a
44.2525	0.061	88505	keystroke_g	g	n/a
44.2975	0.1355	88595	keystroke_Key.space	Key.space	n/a
44.6435	0.134	89287	keystroke_c	c	n/a
44.7485	0.119	89497	keystroke_h	h	n/a
44.8225	0.09	89645	keystroke_i	i	n/a
45.5125	0.12	91025	keystroke_c	c	n/a
45.7075	0.105	91415	keystroke_a	a	n/a
45.9175	0.075	91835	keystroke_g	g	n/a
46.0225	0.06	92045	keystroke_o	o	n/a
46.1275	0.075	92255	keystroke_Key.space	Key.space	n/a
46.3825	0.09	92765	keystroke_g	g	n/a
47.5385	0.105	95077	keystroke_u	u	n/a
47.5985	0.21	95197	keystroke_e	e	n/a
47.6735	0.15	95347	keystroke_s	s	n/a
47.7785	0.105	95557	keystroke_t	t	n/a
48.3935	0.045	96787	keystroke_Key.enter	Key.enter	n/a
48.443	16.407	96886	prompt	n/a	announcement interpretation assault sectors\n
49.2635	0.135	98527	keystroke_a	a	n/a
49.4435	0.074	98887	keystroke_n	n	n/a
49.5625	0.105	99125	keystroke_n	n	n/a
49.8325	0.135	99665	keystroke_o	o	n/a
49.8925	0.12	99785	keystroke_u	u	n/a
50.1025	0.105	100205	keystroke_n	n	n/a
50.298	0.12	100596	keystroke_c	c	n/a
50.523	0.09	101046	keystroke_e	e	n/a
50.673	0.105	101346	keystroke_m	m	n/a
50.793	0.1045	101586	keystroke_e	e	n/a
50.8675	0.105	101735	keystroke_n	n	n/a
50.9735	0.105	101947	keystroke_t	t	n/a
51.0625	0.105	102125	keystroke_Key.space	Key.space	n/a
51.2425	0.09	102485	keystroke_i	i	n/a
51.3025	0.15	102605	keystroke_n	n	n/a
51.4225	0.105	102845	keystroke_t	t	n/a
51.5725	0.12	103145	keystroke_e	e	n/a
51.6625	0.105	103325	keystroke_r	r	n/a
51.8275	0.06	103655	keystroke_o	o	n/a
51.8425	0.03	103685	keystroke_p	p	n/a
51.9025	0.135	103805	keystroke_r	r	n/a
51.9625	0.105	103925	keystroke_e	e	n/a
53.0275	0.105	106055	keystroke_t	t	n/a
53.2675	0.105	106535	keystroke_a	a	n/a
53.4325	0.12	106865	keystroke_t	t	n/a
54.0025	0.24	108005	keystroke_i	i	n/a
54.0775	0.135	108155	keystroke_o	o	n/a
54.1975	0.15	108395	keystroke_n	n	n/a
54.6025	0.1505	109205	keystroke_Key.space	Key.space	n/a
54.8875	0.106	109775	keystroke_a	a	n/a
56.3875	0.06	112775	keystroke_Key.backspace	Key.backspace	n/a
56.4025	0.03	112805	keystroke_=	=	n/a
56.5675	0.06	113135	keystroke_Key.backspace	Key.backspace	n/a
56.958	0.09	113916	keystroke_Key.backspace	Key.backspace	n/a
57.1525	0.045	114305	keystroke_Key.backspace	Key.backspace	n/a
57.3025	0.06	114605	keystroke_Key.backspace	Key.backspace	n/a
57.4675	0.06	114935	keystroke_Key.backspace	Key.backspace	n/a
57.6325	0.0605	115265	keystroke_Key.backspace	Key.backspace	n/a
57.798	0.075	115596	keystroke_Key.backspace	Key.backspace	n/a
57.963	0.075	115926	keystroke_Key.backspace	Key.backspace	n/a
58.143	0.075	116286	keystroke_Key.backspace	Key.backspace	n/a
58.323	0.09	116646	keystroke_Key.backspace	Key.backspace	n/a
58.518	0.105	117036	keystroke_Key.backspace	Key.backspace	n/a
58.818	0.105	117636	keystroke_Key.backspace	Key.backspace	n/a
59.463	0.075	118926	keystroke_p	p	n/a
59.613	0.12	119226	keystroke_r	r	n/a
59.673	0.21	119346	keystroke_e	e	n/a
59.868	0.12	119736	keystroke_t	t	n/a
60.0175	0.195	120035	keystroke_a	a	n/a
60.1825	0.12	120365	keystroke_t	t	n/a
60.3325	0.2555	120665	keystroke_i	i	n/a
60.423	0.15	120846	keystroke_o	o	n/a
60.513	0.18	121026	keystroke_n	n	n/a
60.753	0.15	121506	keystroke_Key.space	Key.space	n/a
61.308	0.12	122616	keystroke_a	a	n/a
61.548	0.06	123096	keystroke_s	s	n/a
61.683	0.0745	123366	keystroke_s	s	n/a
61.8475	0.09	123695	keystroke_a	a	n/a
61.8925	0.105	123785	keystroke_u	u	n/a
62.088	0.105	124176	keystroke_l	l	n/a
62.208	0.105	124416	keystroke_t	t	n/a
62.268	0.165	124536	keystroke_Key.space	Key.space	n/a
62.418	0.18	124836	keystroke_s	s	n/a
62.568	0.135	125136	keystroke_e	e	n/a
62.763	0.135	125526	keystroke_c	c	n/a
63.4825	0.12	126965	keystroke_t	t	n/a
63.813	0.09	127626	keystroke_o	o	n/a
63.9175	0.15	127835	keystroke_r	r	n/a
64.0375	0.105	128075	keystroke_s	s	n/a
64.7575	0.09	129515	keystroke_Key.enter	Key.enter	n/a
64.853	6.372	129706	prompt	n/a	achieving throughout ratios jake\n
65.448	0.1195	130896	keystroke_a	a	n/a
65.6275	0.12	131255	keystroke_c	c	n/a
65.7325	0.075	131465	keystroke_h	h	n/a
65.8525	0.12	131705	keystroke_i	i	n/a
65.9575	0.075	131915	keystroke_e	e	n/a
66.1225	0.105	132245	keystroke_v	v	n/a
66.2725	0.135	132545	keystroke_i	i	n/a
66.3325	0.135	132665	keystroke_n	n	n/a
66.4525	0.12	132905	keystroke_g	g	n/a
66.5125	0.15	133025	keystroke_Key.space	Key.space	n/a
66.7075	0.09	133415	keystroke_t	t	n/a
66.7985	0.119	133597	keystroke_h	h	n/a
66.9025	0.105	133805	keystroke_r	r	n/a
67.0675	0.165	134135	keystroke_o	o	n/a
67.1875	0.09	134375	keystroke_u	u	n/a
67.5475	0.12	135095	keystroke_g	g	n/a
67.6825	0.1055	135365	keystroke_h	h	n/a
67.893	0.15	135786	keystroke_o	o	n/a
67.998	0.12	135996	keystroke_u	u	n/a
68.103	0.12	136206	keystroke_t	t	n/a
68.193	0.12	136386	keystroke_Key.space	Key.space	n/a
68.373	0.15	136746	keystroke_r	r	n/a
68.508	0.18	137016	keystroke_a	a	n/a
68.793	0.09	137586	keystroke_t	t	n/a
69.003	0.21	138006	keystroke_i	i	n/a
69.078	0.12	138156	keystroke_o	o	n/a
69.243	0.165	138486	keystroke_s	s	n/a
69.423	0.075	138846	keystroke_Key.space	Key.space	n/a
69.9485	0.12	139897	keystroke_j	j	n/a
70.0535	0.1495	140107	keystroke_a	a	n/a
70.218	0.105	140436	keystroke_k	k	n/a
70.353	0.12	140706	keystroke_e	e	n/a
71.133	0.09	142266	keystroke_Key.enter	Key.enter	n/a
71.228	7.0775	142456	prompt	n/a	fathers history ceremony alcohol\n
72.168	0.15	144336	keystroke_f	f	n/a
72.333	0.165	144666	keystroke_a	a	n/a
72.453	0.09	144906	keystroke_t	t	n/a
72.588	0.1355	145176	keystroke_h	h	n/a
72.6335	0.134	145267	keystroke_e	e	n/a
72.7085	0.179	145417	keystroke_r	r	n/a
72.8425	0.165	145685	keystroke_s	s	n/a
72.9925	0.1505	145985	keystroke_Key.space	Key.space	n/a
73.188	0.135	146376	keystroke_h	h	n/a
73.278	0.135	146556	keystroke_i	i	n/a
73.398	0.135	146796	keystroke_s	s	n/a
73.473	0.1045	146946	keystroke_t	t	n/a
73.6375	0.09	147275	keystroke_o	o	n/a
73.7285	0.104	147457	keystroke_r	r	n/a
73.9225	0.09	147845	keystroke_y	y	n/a
73.9825	0.12	147965	keystroke_Key.space	Key.space	n/a
74.2675	0.12	148535	keystroke_c	c	n/a
74.4925	0.135	148985	keystroke_e	e	n/a
74.598	0.1345	149196	keystroke_r	r	n/a
74.7925	0.12	149585	keystroke_e	e	n/a
74.9575	0.076	149915	keystroke_m	m	n/a
75.0775	0.076	150155	keystroke_o	o	n/a
75.2285	0.135	150457	keystroke_n	n	n/a
75.3485	0.09	150697	keystroke_y	y	n/a
75.4085	0.105	150817	keystroke_Key.space	Key.space	n/a
75.603	0.075	151206	keystroke_a	a	n/a
75.693	0.105	151386	keystroke_l	l	n/a
76.218	0.105	152436	keystroke_c	c	n/a
76.398	0.09	152796	keystroke_o	o	n/a
76.623	0.03	153246	keystroke_h	h	n/a
76.758	0.03	153516	keystroke_o	o	n/a
77.6735	0.09	155347	keystroke_l	l	n/a
78.1985	0.105	156397	keystroke_Key.enter	Key.enter	n/a
78.309	4.7955	156618	prompt	n/a	requests soma welsh pike\n
79.0685	0.1195	158137	keystroke_r	r	n/a
79.1285	0.1195	158257	keystroke_e	e	n/a
79.323	0.135	158646	keystroke_q	q	n/a
79.518	0.135	159036	keystroke_u	u	n/a
79.654	0.134	159308	keystroke_e	e	n/a
79.698	0.135	159396	keystroke_s	s	n/a
79.803	0.135	159606	keystroke_t	t	n/a
79.908	0.135	159816	keystroke_s	s	n/a
80.028	0.165	160056	keystroke_Key.space	Key.space	n/a
80.193	0.12	160386	keystroke_s	s	n/a
80.283	0.1355	160566	keystroke_o	o	n/a
80.373	0.165	160746	keystroke_m	m	n/a
80.5685	0.1495	161137	keystroke_a	a	n/a
80.703	0.135	161406	keystroke_Key.space	Key.space	n/a
80.9285	0.15	161857	keystroke_w	w	n/a
81.0335	0.135	162067	keystroke_e	e	n/a
81.1985	0.12	162397	keystroke_l	l	n/a
81.3335	0.1195	162667	keystroke_s	s	n/a
81.498	0.1205	162996	keystroke_h	h	n/a
81.6335	0.12	163267	keystroke_Key.space	Key.space	n/a
81.9035	0.06	163807	keystroke_p	p	n/a
82.1435	0.09	164287	keystroke_i	i	n/a
82.3085	0.105	164617	keystroke_k	k	n/a
82.3985	0.09	164797	keystroke_e	e	n/a
83.013	0.09	166026	keystroke_Key.enter	Key.enter	n/a
83.11	7.7945	166220	prompt	n/a	conclusions discs assistance contributions\n
83.9585	0.12	167917	keystroke_c	c	n/a
84.0935	0.105	168187	keystroke_o	o	n/a
84.3635	0.105	168727	keystroke_n	n	n/a
84.8435	0.09	169687	keystroke_c	c	n/a
84.9635	0.09	169927	keystroke_l	l	n/a
85.1435	0.105	170287	keystroke_u	u	n/a
85.2935	0.12	170587	keystroke_s	s	n/a
85.3835	0.195	170767	keystroke_i	i	n/a
85.4585	0.09	170917	keystroke_o	o	n/a
85.5185	0.15	171037	keystroke_n	n	n/a
85.6535	0.105	171307	keystroke_s	s	n/a
85.8185	0.105	171637	keystroke_Key.space	Key.space	n/a
86.3125	0.12	172625	keystroke_d	d	n/a
86.4025	0.121	172805	keystroke_i	i	n/a
86.4925	0.165	172985	keystroke_s	s	n/a
86.6425	0.09	173285	keystroke_c	c	n/a
86.7775	0.135	173555	keystroke_s	s	n/a
87.0625	0.075	174125	keystroke_Key.space	Key.space	n/a
87.168	0.09	174336	keystroke_a	a	n/a
87.408	0.03	174816	keystroke_s	s	n/a
87.498	0.0905	174996	keystroke_s	s	n/a
87.6035	0.105	175207	keystroke_i	i	n/a
87.6935	0.135	175387	keystroke_s	s	n/a
87.8135	0.09	175627	keystroke_t	t	n/a
87.9485	0.1345	175897	keystroke_a	a	n/a
88.0985	0.1045	176197	keystroke_n	n	n/a
88.1585	0.135	176317	keystroke_c	c	n/a
88.2185	0.09	176437	keystroke_e	e	n/a
88.2785	0.1345	176557	keystroke_Key.space	Key.space	n/a
88.4585	0.105	176917	keystroke_c	c	n/a
88.5485	0.075	177097	keystroke_o	o	n/a
88.668	0.135	177336	keystroke_n	n	n/a
88.7585	0.1195	177517	keystroke_t	t	n/a
88.833	0.135	177666	keystroke_r	r	n/a
88.938	0.105	177876	keystroke_i	i	n/a
89.163	0.075	178326	keystroke_b	b	n/a
89.2985	0.1195	178597	keystroke_u	u	n/a
89.493	0.09	178986	keystroke_t	t	n/a
89.613	0.2555	179226	keystroke_i	i	n/a
89.718	0.1355	179436	keystroke_o	o	n/a
89.793	0.165	179586	keystroke_n	n	n/a
89.988	0.105	179976	keystroke_s	s	n/a
90.843	0.06	181686	keystroke_Key.enter	Key.enter	n/a
90.908	6.357	181816	prompt	n/a	indices copies pregnancy indexed\n
91.668	0.18	183336	keystroke_i	i	n/a
91.788	0.12	183576	keystroke_n	n	n/a
91.833	0.105	183666	keystroke_d	d	n/a
92.013	0.12	184026	keystroke_i	i	n/a
92.058	0.1655	184116	keystroke_c	c	n/a
92.1785	0.165	184357	keystroke_e	e	n/a
92.2985	0.12	184597	keystroke_s	s	n/a
92.3885	0.135	184777	keystroke_Key.space	Key.space	n/a
92.5685	0.105	185137	keystroke_c	c	n/a
92.6585	0.15	185317	keystroke_o	o	n/a
92.7335	0.09	185467	keystroke_p	p	n/a
92.9435	0.09	185887	keystroke_i	i	n/a
93.0185	0.18	186037	keystroke_e	e	n/a
93.1235	0.135	186247	keystroke_s	s	n/a
93.1685	0.165	186337	keystroke_Key.space	Key.space	n/a
93.4535	0.045	186907	keystroke_p	p	n/a
93.5435	0.105	187087	keystroke_r	r	n/a
94.159	0.09	188318	keystroke_e	e	n/a
94.399	0.09	188798	keystroke_g	g	n/a
94.639	0.075	189278	keystroke_n	n	n/a
94.729	0.09	189458	keystroke_a	a	n/a
94.834	0.105	189668	keystroke_n	n	n/a
94.969	0.105	189938	keystroke_c	c	n/a
95.283	0.1205	190566	keystroke_y	y	n/a
95.4335	0.165	190867	keystroke_Key.space	Key.space	n/a
95.6285	0.15	191257	keystroke_i	i	n/a
95.7185	0.15	191437	keystroke_n	n	n/a
95.7935	0.09	191587	keystroke_d	d	n/a
95.9435	0.075	191887	keystroke_e	e	n/a
96.1685	0.09	192337	keystroke_x	x	n/a
96.3935	0.075	192787	keystroke_e	e	n/a
96.5735	0.09	193147	keystroke_d	d	n/a
97.1735	0.09	194347	keystroke_Key.enter	Key.enter	n/a
97.2685	7.2115	194537	prompt	n/a	boating proceedings jason sing\n
97.9685	0.075	195937	keystroke_b	b	n/a
98.1485	0.075	196297	keystroke_o	o	n/a
98.2685	0.105	196537	keystroke_t	t	n/a
98.674	0.06	197348	keystroke_=	=	n/a
99.4235	0.045	198847	keystroke_Key.backspace	Key.backspace	n/a
99.5735	0.045	199147	keystroke_Key.backspace	Key.backspace	n/a
99.8885	0.135	199777	keystroke_a	a	n/a
100.0385	0.09	200077	keystroke_t	t	n/a
100.534	0.12	201068	keystroke_i	i	n/a
100.594	0.135	201188	keystroke_n	n	n/a
100.684	0.12	201368	keystroke_g	g	n/a
100.744	0.15	201488	keystroke_Key.space	Key.space	n/a
100.954	0.09	201908	keystroke_p	p	n/a
101.059	0.0895	202118	keystroke_r	r	n/a
101.194	0.105	202388	keystroke_o	o	n/a
101.403	0.12	202806	keystroke_c	c	n/a
101.749	0.059	203498	keystroke_e	e	n/a
101.869	0.09	203738	keystroke_e	e	n/a
102.094	0.089	204188	keystroke_d	d	n/a
102.244	0.149	204488	keystroke_i	i	n/a
102.319	0.179	204638	keystroke_n	n	n/a
102.408	0.136	204816	keystroke_g	g	n/a
102.559	0.15	205118	keystroke_s	s	n/a
102.678	0.135	205356	keystroke_Key.space	Key.space	n/a
102.828	0.136	205656	keystroke_j	j	n/a
102.933	0.15	205866	keystroke_a	a	n/a
103.068	0.1355	206136	keystroke_s	s	n/a
103.1735	0.105	206347	keystroke_o	o	n/a
103.3385	0.12	206677	keystroke_n	n	n/a
103.4285	0.1495	206857	keystroke_Key.space	Key.space	n/a
103.5485	0.1045	207097	keystroke_s	s	n/a
103.623	0.12	207246	keystroke_i	i	n/a
103.683	0.136	207366	keystroke_n	n	n/a
103.773	0.105	207546	keystroke_g	g	n/a
104.3735	0.105	208747	keystroke_Key.enter	Key.enter	n/a
104.483	6.297	208966	prompt	n/a	speaking hospitality stranger wrong\n
105.2135	0.12	210427	keystroke_s	s	n/a
105.484	0.12	210968	keystroke_p	p	n/a
105.679	0.135	211358	keystroke_e	e	n/a
105.754	0.12	211508	keystroke_a	a	n/a
105.859	0.09	211718	keystroke_k	k	n/a
106.069	0.12	212138	keystroke_i	i	n/a
106.129	0.12	212258	keystroke_n	n	n/a
106.219	0.105	212438	keystroke_g	g	n/a
106.264	0.135	212528	keystroke_Key.space	Key.space	n/a
106.549	0.09	213098	keystroke_h	h	n/a
106.7435	0.09	213487	keystroke_o	o	n/a
106.8635	0.105	213727	keystroke_s	s	n/a
106.9985	0.075	213997	keystroke_p	p	n/a
107.194	0.12	214388	keystroke_i	i	n/a
107.344	0.12	214688	keystroke_t	t	n/a
107.494	0.135	214988	keystroke_a	a	n/a
107.704	0.09	215408	keystroke_l	l	n/a
107.899	0.105	215798	keystroke_i	i	n/a
108.049	0.06	216098	keystroke_t	t	n/a
108.214	0.075	216428	keystroke_y	y	n/a
108.319	0.119	216638	keystroke_Key.space	Key.space	n/a
108.454	0.105	216908	keystroke_s	s	n/a
108.589	0.1345	217178	keystroke_t	t	n/a
108.6485	0.105	217297	keystroke_r	r	n/a
108.8435	0.105	217687	keystroke_a	a	n/a
108.9635	0.121	217927	keystroke_n	n	n/a
109.0685	0.075	218137	keystroke_g	g	n/a
109.2185	0.136	218437	keystroke_e	e	n/a
109.2935	0.1195	218587	keystroke_r	r	n/a
109.3385	0.1345	218677	keystroke_Key.space	Key.space	n/a
109.518	0.105	219036	keystroke_w	w	n/a
109.713	0.075	219426	keystroke_r	r	n/a
109.803	0.09	219606	keystroke_o	o	n/a
109.953	0.1055	219906	keystroke_n	n	n/a
110.043	0.0905	220086	keystroke_g	g	n/a
110.7035	0.075	221407	keystroke_Key.enter	Key.enter	n/a
110.7835	6.582	221567	prompt	n/a	neon infectious coalition attach\n
111.424	0.075	222848	keystroke_n	n	n/a
111.514	0.105	223028	keystroke_e	e	n/a
111.649	0.075	223298	keystroke_o	o	n/a
111.829	0.09	223658	keystroke_n	n	n/a
111.948	0.106	223896	keystroke_Key.space	Key.space	n/a
112.174	0.12	224348	keystroke_i	i	n/a
112.249	0.15	224498	keystroke_n	n	n/a
112.369	0.105	224738	keystroke_f	f	n/a
112.444	0.165	224888	keystroke_e	e	n/a
112.564	0.09	225128	keystroke_c	c	n/a
112.804	0.09	225608	keystroke_t	t	n/a
112.909	0.255	225818	keystroke_i	i	n/a
112.999	0.12	225998	keystroke_o	o	n/a
114.2435	0.09	228487	keystroke_u	u	n/a
114.3635	0.18	228727	keystroke_s	s	n/a
114.5285	0.12	229057	keystroke_Key.space	Key.space	n/a
114.9935	0.12	229987	keystroke_c	c	n/a
115.1285	0.105	230257	keystroke_o	o	n/a
115.264	0.0895	230528	keystroke_a	a	n/a
115.3985	0.09	230797	keystroke_l	l	n/a
115.6685	0.075	231337	keystroke_i	i	n/a
115.7885	0.09	231577	keystroke_t	t	n/a
115.8935	0.18	231787	keystroke_i	i	n/a
115.9385	0.105	231877	keystroke_o	o	n/a
116.0135	0.135	232027	keystroke_n	n	n/a
116.1335	0.105	232267	keystroke_Key.space	Key.space	n/a
116.2085	0.1055	232417	keystroke_a	a	n/a
116.464	0.045	232928	keystroke_t	t	n/a
116.569	0.09	233138	keystroke_t	t	n/a
116.719	0.18	233438	keystroke_a	a	n/a
116.869	0.12	233738	keystroke_c	c	n/a
116.974	0.105	233948	keystroke_h	h	n/a
117.259	0.105	234518	keystroke_Key.enter	Key.enter	n/a
117.369	4.8415	234738	prompt	n/a	once match mentor meta\n
118.2635	0.09	236527	keystroke_o	o	n/a
118.4435	0.105	236887	keystroke_n	n	n/a
118.5335	0.135	237067	keystroke_c	c	n/a
118.6085	0.12	237217	keystroke_e	e	n/a
118.6695	0.149	237339	keystroke_Key.space	Key.space	n/a
118.8335	0.1355	237667	keystroke_m	m	n/a
118.9085	0.1805	237817	keystroke_a	a	n/a
118.999	0.075	237998	keystroke_t	t	n/a
119.2085	0.105	238417	keystroke_c	c	n/a
119.2985	0.09	238597	keystroke_h	h	n/a
119.4035	0.105	238807	keystroke_Key.space	Key.space	n/a
119.5385	0.075	239077	keystroke_m	m	n/a
119.7185	0.105	239437	keystroke_e	e	n/a
119.8685	0.09	239737	keystroke_n	n	n/a
120.0185	0.09	240037	keystroke_t	t	n/a
120.1535	0.09	240307	keystroke_o	o	n/a
120.859	0.09	241718	keystroke_r	r	n/a
120.964	0.09	241928	keystroke_Key.space	Key.space	n/a
121.099	0.12	242198	keystroke_m	m	n/a
121.174	0.165	242348	keystroke_e	e	n/a
121.309	0.075	242618	keystroke_t	t	n/a
121.459	0.135	242918	keystroke_a	a	n/a
122.119	0.0905	244238	keystroke_Key.enter	Key.enter	n/a
122.214	5.771	244428	prompt	n/a	we've helmet oklahoma trigger\n
123.109	0.165	246218	keystroke_w	w	n/a
123.275	0.1035	246550	keystroke_e	e	n/a
123.6035	0.1055	247207	keystroke_'	'	n/a
123.8885	0.105	247777	keystroke_v	v	n/a
123.9485	0.135	247897	keystroke_e	e	n/a
124.0535	0.12	248107	keystroke_Key.space	Key.space	n/a
124.3535	0.09	248707	keystroke_h	h	n/a
124.4735	0.1055	248947	keystroke_e	e	n/a
124.5635	0.12	249127	keystroke_l	l	n/a
124.714	0.12	249428	keystroke_m	m	n/a
124.864	0.165	249728	keystroke_e	e	n/a
125.014	0.105	250028	keystroke_t	t	n/a
125.089	0.12	250178	keystroke_Key.space	Key.space	n/a
125.359	0.18	250718	keystroke_o	o	n/a
125.479	0.135	250958	keystroke_k	k	n/a
125.674	0.12	251348	keystroke_l	l	n/a
125.824	0.105	251648	keystroke_a	a	n/a
126.019	0.06	252038	keystroke_h	h	n/a
126.169	0.105	252338	keystroke_o	o	n/a
126.259	0.105	252518	keystroke_m	m	n/a
126.349	0.12	252698	keystroke_a	a	n/a
126.454	0.135	252908	keystroke_Key.space	Key.space	n/a
126.679	0.105	253358	keystroke_t	t	n/a
126.739	0.105	253478	keystroke_r	r	n/a
126.859	0.105	253718	keystroke_i	i	n/a
126.979	0.045	253958	keystroke_g	g	n/a
127.084	0.09	254168	keystroke_g	g	n/a
127.264	0.12	254528	keystroke_e	e	n/a
127.339	0.12	254678	keystroke_r	r	n/a
127.909	0.0745	255818	keystroke_Key.enter	Key.enter	n/a
127.9885	5.997	255977	prompt	n/a	weed mrna reproduce with\n
128.614	0.105	257228	keystroke_w	w	n/a
128.839	0.06	257678	keystroke_e	e	n/a
128.989	0.12	257978	keystroke_e	e	n/a
129.274	0.15	258548	keystroke_d	d	n/a
129.394	0.12	258788	keystroke_Key.space	Key.space	n/a
129.619	0.09	259238	keystroke_m	m	n/a
129.829	0.1055	259658	keystroke_r	r	n/a
130.0545	0.09	260109	keystroke_n	n	n/a
130.1585	0.121	260317	keystroke_a	a	n/a
130.2485	0.135	260497	keystroke_Key.space	Key.space	n/a
130.474	0.105	260948	keystroke_r	r	n/a
130.519	0.105	261038	keystroke_e	e	n/a
131.6135	0.06	263227	keystroke_p	p	n/a
131.7185	0.075	263437	keystroke_r	r	n/a
131.8385	0.105	263677	keystroke_o	o	n/a
131.9585	0.09	263917	keystroke_d	d	n/a
132.1685	0.0905	264337	keystroke_u	u	n/a
132.304	0.15	264608	keystroke_c	c	n/a
132.394	0.12	264788	keystroke_e	e	n/a
132.484	0.1345	264968	keystroke_Key.space	Key.space	n/a
132.7685	0.12	265537	keystroke_w	w	n/a
132.9035	0.09	265807	keystroke_i	i	n/a
133.0235	0.09	266047	keystroke_t	t	n/a
133.1145	0.089	266229	keystroke_h	h	n/a
133.9235	0.0605	267847	keystroke_Key.enter	Key.enter	n/a
133.989	5.607	267978	prompt	n/a	verde lawn assessment having\n
135.079	0.0905	270158	keystroke_v	v	n/a
135.274	0.1645	270548	keystroke_e	e	n/a
135.3485	0.12	270697	keystroke_r	r	n/a
135.6485	0.045	271297	keystroke_d	d	n/a
135.9185	0.106	271837	keystroke_e	e	n/a
136.0535	0.105	272107	keystroke_Key.space	Key.space	n/a
136.2195	0.105	272439	keystroke_l	l	n/a
136.2795	0.15	272559	keystroke_a	a	n/a
136.3845	0.104	272769	keystroke_w	w	n/a
136.5335	0.091	273067	keystroke_n	n	n/a
136.6395	0.1345	273279	keystroke_Key.space	Key.space	n/a
136.789	0.135	273578	keystroke_a	a	n/a
137.194	0.075	274388	keystroke_s	s	n/a
137.329	0.12	274658	keystroke_s	s	n/a
137.464	0.105	274928	keystroke_e	e	n/a
137.7035	0.06	275407	keystroke_s	s	n/a
137.8385	0.0905	275677	keystroke_s	s	n/a
137.9585	0.106	275917	keystroke_m	m	n/a
138.0335	0.106	276067	keystroke_e	e	n/a
138.1545	0.09	276309	keystroke_n	n	n/a
138.2145	0.105	276429	keystroke_t	t	n/a
138.2895	0.105	276579	keystroke_Key.space	Key.space	n/a
138.4245	0.105	276849	keystroke_h	h	n/a
138.4545	0.12	276909	keystroke_a	a	n/a
138.664	0.075	277328	keystroke_v	v	n/a
138.784	0.12	277568	keystroke_i	i	n/a
138.874	0.09	277748	keystroke_n	n	n/a
138.919	0.09	277838	keystroke_g	g	n/a
139.519	0.075	279038	keystroke_Key.enter	Key.enter	n/a
139.599	6.477	279198	prompt	n/a	ain't ecuador cordless levels\n
140.434	0.135	280868	keystroke_a	a	n/a
140.554	0.105	281108	keystroke_i	i	n/a
140.7795	0.0895	281559	keystroke_n	n	n/a
140.944	0.12	281888	keystroke_'	'	n/a
141.244	0.0905	282488	keystroke_t	t	n/a
141.4845	0.09	282969	keystroke_Key.space	Key.space	n/a
141.6795	0.12	283359	keystroke_a	a	n/a
142.1145	0.075	284229	keystroke_Key.backspace	Key.backspace	n/a
142.4445	0.105	284889	keystroke_e	e	n/a
142.6695	0.09	285339	keystroke_c	c	n/a
142.8045	0.12	285609	keystroke_u	u	n/a
142.9545	0.1495	285909	keystroke_a	a	n/a
143.149	0.135	286298	keystroke_d	d	n/a
143.375	0.089	286750	keystroke_o	o	n/a
143.5095	0.105	287019	keystroke_r	r	n/a
143.5695	0.12	287139	keystroke_Key.space	Key.space	n/a
143.839	0.12	287678	keystroke_c	c	n/a
143.944	0.105	287888	keystroke_o	o	n/a
144.079	0.075	288158	keystroke_r	r	n/a
144.214	0.12	288428	keystroke_d	d	n/a
144.335	0.104	288670	keystroke_l	l	n/a
144.454	0.06	288908	keystroke_e	e	n/a
144.649	0.06	289298	keystroke_s	s	n/a
144.769	0.105	289538	keystroke_s	s	n/a
144.859	0.12	289718	keystroke_Key.space	Key.space	n/a
144.994	0.12	289988	keystroke_l	l	n/a
145.069	0.105	290138	keystroke_e	e	n/a
145.2645	0.075	290529	keystroke_v	v	n/a
145.3845	0.09	290769	keystroke_e	e	n/a
145.4595	0.1045	290919	keystroke_l	l	n/a
145.594	0.09	291188	keystroke_s	s	n/a
145.954	0.12	291908	keystroke_Key.enter	Key.enter	n/a
146.079	5.052	292158	prompt	n/a	mentor goto karen albany\n
146.7345	0.089	293469	keystroke_m	m	n/a
146.8095	0.105	293619	keystroke_e	e	n/a
146.959	0.105	293918	keystroke_n	n	n/a
147.079	0.075	294158	keystroke_t	t	n/a
147.199	0.09	294398	keystroke_o	o	n/a
147.304	0.105	294608	keystroke_r	r	n/a
147.379	0.12	294758	keystroke_Key.space	Key.space	n/a
147.844	0.1055	295688	keystroke_g	g	n/a
147.964	0.0755	295928	keystroke_o	o	n/a
148.0845	0.0595	296169	keystroke_t	t	n/a
148.144	0.0905	296288	keystroke_o	o	n/a
148.2795	0.12	296559	keystroke_Key.space	Key.space	n/a
148.5495	0.075	297099	keystroke_k	k	n/a
148.6395	0.1495	297279	keystroke_a	a	n/a
148.774	0.135	297548	keystroke_r	r	n/a
149.059	0.12	298118	keystroke_e	e	n/a
149.194	0.09	298388	keystroke_n	n	n/a
149.569	0.12	299138	keystroke_Key.space	Key.space	n/a
149.749	0.12	299498	keystroke_a	a	n/a
149.8545	0.0895	299709	keystroke_l	l	n/a
150.05	0.089	300100	keystroke_b	b	n/a
150.184	0.09	300368	keystroke_a	a	n/a
150.259	0.09	300518	keystroke_n	n	n/a
150.4395	0.06	300879	keystroke_y	y	n/a
151.0245	0.105	302049	keystroke_Key.enter	Key.enter	n/a
151.136	5.305	302272	prompt	n/a	exists replication hollywood mexico\n
151.789	0.075	303578	keystroke_e	e	n/a
151.999	0.091	303998	keystroke_x	x	n/a
152.149	0.09	304298	keystroke_i	i	n/a
152.239	0.12	304478	keystroke_s	s	n/a
152.329	0.135	304658	keystroke_t	t	n/a
152.465	0.134	304930	keystroke_s	s	n/a
152.539	0.15	305078	keystroke_Key.space	Key.space	n/a
152.764	0.135	305528	keystroke_r	r	n/a
152.854	0.105	305708	keystroke_e	e	n/a
152.974	0.12	305948	keystroke_p	p	n/a
153.049	0.12	306098	keystroke_l	l	n/a
153.305	0.1045	306610	keystroke_i	i	n/a
153.4095	0.09	306819	keystroke_c	c	n/a
153.4695	0.105	306939	keystroke_a	a	n/a
153.6345	0.09	307269	keystroke_t	t	n/a
153.7095	0.21	307419	keystroke_i	i	n/a
153.7695	0.135	307539	keystroke_o	o	n/a
153.8445	0.12	307689	keystroke_n	n	n/a
153.9345	0.105	307869	keystroke_Key.space	Key.space	n/a
154.0995	0.075	308199	keystroke_h	h	n/a
154.2645	0.075	308529	keystroke_o	o	n/a
154.4445	0.075	308889	keystroke_l	l	n/a
154.5645	0.09	309129	keystroke_l	l	n/a
154.6545	0.09	309309	keystroke_y	y	n/a
154.8795	0.09	309759	keystroke_w	w	n/a
154.9845	0.075	309969	keystroke_o	o	n/a
155.1195	0.09	310239	keystroke_o	o	n/a
155.2245	0.135	310449	keystroke_d	d	n/a
155.3295	0.105	310659	keystroke_Key.space	Key.space	n/a
155.4945	0.12	310989	keystroke_m	m	n/a
155.5845	0.075	311169	keystroke_e	e	n/a
155.7795	0.09	311559	keystroke_x	x	n/a
155.8845	0.06	311769	keystroke_i	i	n/a
155.9895	0.105	311979	keystroke_c	c	n/a
156.1245	0.075	312249	keystroke_o	o	n/a
156.3495	0.09	312699	keystroke_Key.enter	Key.enter	n/a
156.444	4.932	312888	prompt	n/a	scared parenting include such\n
157.0995	0.105	314199	keystroke_s	s	n/a
157.1895	0.12	314379	keystroke_c	c	n/a
157.3395	0.105	314679	keystroke_a	a	n/a
157.4595	0.12	314919	keystroke_r	r	n/a
157.535	0.09	315070	keystroke_e	e	n/a
157.7145	0.09	315429	keystroke_d	d	n/a
157.7745	0.1355	315549	keystroke_Key.space	Key.space	n/a
158.2395	0.1055	316479	keystroke_p	p	n/a
158.4645	0.135	316929	keystroke_a	a	n/a
158.5545	0.1045	317109	keystroke_r	r	n/a
158.734	0.1355	317468	keystroke_e	e	n/a
158.8845	0.075	317769	keystroke_n	n	n/a
159.0045	0.075	318009	keystroke_t	t	n/a
159.1095	0.135	318219	keystroke_i	i	n/a
159.1695	0.135	318339	keystroke_n	n	n/a
159.2745	0.12	318549	keystroke_g	g	n/a
159.3645	0.135	318729	keystroke_Key.space	Key.space	n/a
159.6195	0.135	319239	keystroke_i	i	n/a
159.7095	0.105	319419	keystroke_n	n	n/a
159.7995	0.12	319599	keystroke_c	c	n/a
159.9205	0.059	319841	keystroke_l	l	n/a
160.0695	0.09	320139	keystroke_u	u	n/a
160.1295	0.09	320259	keystroke_d	d	n/a
160.2795	0.105	320559	keystroke_e	e	n/a
160.3545	0.12	320709	keystroke_Key.space	Key.space	n/a
160.5945	0.15	321189	keystroke_s	s	n/a
160.7595	0.105	321519	keystroke_u	u	n/a
160.8795	0.09	321759	keystroke_c	c	n/a
160.9395	0.09	321879	keystroke_h	h	n/a
161.2545	0.12	322509	keystroke_Key.enter	Key.enter	n/a
161.3795	9.522	322759	prompt	n/a	billion helping italy location\n
162.0495	0.075	324099	keystroke_b	b	n/a
162.1845	0.09	324369	keystroke_i	i	n/a
162.3795	0.06	324759	keystroke_l	l	n/a
162.4995	0.09	324999	keystroke_l	l	n/a
162.6945	0.225	325389	keystroke_i	i	n/a
162.7695	0.12	325539	keystroke_o	o	n/a
162.8595	0.12	325719	keystroke_n	n	n/a
162.9645	0.135	325929	keystroke_Key.space	Key.space	n/a
163.1745	0.09	326349	keystroke_h	h	n/a
163.2945	0.09	326589	keystroke_e	e	n/a
163.3695	0.09	326739	keystroke_l	l	n/a
163.5645	0.06	327129	keystroke_o	o	n/a
163.7595	0.075	327519	keystroke_i	i	n/a
163.7745	0.105	327549	keystroke_u	u	n/a
163.8645	0.03	327729	keystroke_b	b	n/a
163.9245	0.0905	327849	keystroke_g	g	n/a
163.985	0.105	327970	keystroke_Key.space	Key.space	n/a
164.404	0.06	328808	keystroke_=	=	n/a
164.569	0.061	329138	keystroke_=	=	n/a
165.379	0.0455	330758	keystroke_Key.backspace	Key.backspace	n/a
165.544	0.045	331088	keystroke_Key.backspace	Key.backspace	n/a
165.6945	0.06	331389	keystroke_Key.backspace	Key.backspace	n/a
165.8445	0.06	331689	keystroke_Key.backspace	Key.backspace	n/a
165.9945	0.075	331989	keystroke_Key.backspace	Key.backspace	n/a
166.1595	0.075	332319	keystroke_Key.backspace	Key.backspace	n/a
166.3245	0.075	332649	keystroke_Key.backspace	Key.backspace	n/a
166.6395	0.06	333279	keystroke_Key.backspace	Key.backspace	n/a
167.54	0.06	335080	keystroke_p	p	n/a
167.78	0.12	335560	keystroke_i	i	n/a
167.855	0.135	335710	keystroke_n	n	n/a
168.005	0.0745	336010	keystroke_g	g	n/a
168.035	0.1495	336070	keystroke_Key.space	Key.space	n/a
168.1995	0.09	336399	keystroke_i	i	n/a
168.2445	0.105	336489	keystroke_n	n	n/a
168.6045	0.06	337209	keystroke_Key.backspace	Key.backspace	n/a
168.904	0.1055	337808	keystroke_t	t	n/a
169.099	0.09	338198	keystroke_a	a	n/a
169.205	0.1045	338410	keystroke_l	l	n/a
169.4295	0.09	338859	keystroke_y	y	n/a
169.5045	0.09	339009	keystroke_Key.space	Key.space	n/a
169.7145	0.075	339429	keystroke_l	l	n/a
169.8945	0.105	339789	keystroke_o	o	n/a
169.9845	0.1205	339969	keystroke_c	c	n/a
170.0595	0.1205	340119	keystroke_a	a	n/a
170.285	0.09	340570	keystroke_t	t	n/a
170.36	0.2245	340720	keystroke_i	i	n/a
170.45	0.1195	340900	keystroke_o	o	n/a
170.5245	0.135	341049	keystroke_n	n	n/a
170.8095	0.09	341619	keystroke_Key.enter	Key.enter	n/a
170.9045	5.7445	341809	prompt	n/a	sewing architect precise intro\n
171.56	0.105	343120	keystroke_s	s	n/a
171.74	0.075	343480	keystroke_e	e	n/a
171.95	0.09	343900	keystroke_w	w	n/a
172.13	0.1045	344260	keystroke_i	i	n/a
172.1895	0.12	344379	keystroke_n	n	n/a
172.2795	0.105	344559	keystroke_g	g	n/a
172.3695	0.12	344739	keystroke_Key.space	Key.space	n/a
172.5045	0.181	345009	keystroke_a	a	n/a
172.655	0.0755	345310	keystroke_r	r	n/a
173.0755	0.1055	346151	keystroke_c	c	n/a
173.196	0.0895	346392	keystroke_h	h	n/a
173.3155	0.105	346631	keystroke_i	i	n/a
173.4355	0.09	346871	keystroke_t	t	n/a
173.5105	0.105	347021	keystroke_e	e	n/a
173.6605	0.1055	347321	keystroke_c	c	n/a
173.886	0.09	347772	keystroke_t	t	n/a
173.946	0.135	347892	keystroke_Key.space	Key.space	n/a
174.186	0.105	348372	keystroke_p	p	n/a
174.3365	0.135	348673	keystroke_r	r	n/a
174.426	0.1355	348852	keystroke_e	e	n/a
174.9815	0.105	349963	keystroke_c	c	n/a
175.372	0.09	350744	keystroke_i	i	n/a
175.477	0.135	350954	keystroke_s	s	n/a
175.552	0.15	351104	keystroke_e	e	n/a
175.687	0.135	351374	keystroke_Key.space	Key.space	n/a
175.837	0.1205	351674	keystroke_i	i	n/a
175.897	0.1205	351794	keystroke_n	n	n/a
175.9725	0.12	351945	keystroke_t	t	n/a
176.0475	0.075	352095	keystroke_r	r	n/a
176.1235	0.104	352247	keystroke_o	o	n/a
176.528	0.1195	353056	keystroke_Key.enter	Key.enter	n/a
176.652	5.5055	353304	prompt	n/a	reputation clarke china johnny\n
177.353	0.1355	354706	keystroke_r	r	n/a
177.4285	0.105	354857	keystroke_e	e	n/a
177.5635	0.0745	355127	keystroke_p	p	n/a
177.789	0.09	355578	keystroke_u	u	n/a
177.909	0.09	355818	keystroke_t	t	n/a
178.014	0.12	356028	keystroke_a	a	n/a
178.119	0.09	356238	keystroke_t	t	n/a
178.179	0.24	356358	keystroke_i	i	n/a
178.2685	0.1205	356537	keystroke_o	o	n/a
178.3435	0.1655	356687	keystroke_n	n	n/a
178.494	0.12	356988	keystroke_Key.space	Key.space	n/a
178.764	0.105	357528	keystroke_c	c	n/a
178.87	0.089	357740	keystroke_l	l	n/a
178.959	0.1505	357918	keystroke_a	a	n/a
179.064	0.0905	358128	keystroke_r	r	n/a
179.275	0.09	358550	keystroke_k	k	n/a
179.394	0.12	358788	keystroke_e	e	n/a
179.544	0.12	359088	keystroke_Key.space	Key.space	n/a
180.2355	0.135	360471	keystroke_c	c	n/a
180.3245	0.105	360649	keystroke_h	h	n/a
180.3995	0.1655	360799	keystroke_i	i	n/a
180.55	0.135	361100	keystroke_n	n	n/a
180.61	0.135	361220	keystroke_e	e	n/a
180.715	0.105	361430	keystroke_Key.space	Key.space	n/a
180.865	0.09	361730	keystroke_j	j	n/a
181	0.1055	362000	keystroke_o	o	n/a
181.1955	0.0905	362391	keystroke_h	h	n/a
181.406	0.09	362812	keystroke_n	n	n/a
181.601	0.105	363202	keystroke_n	n	n/a
181.796	0.09	363592	keystroke_y	y	n/a
182.0515	0.105	364103	keystroke_Key.enter	Key.enter	n/a
182.161	5.2345	364322	prompt	n/a	midwest tales leaves frequent\n
182.9365	0.0755	365873	keystroke_m	m	n/a
183.0865	0.0905	366173	keystroke_i	i	n/a
183.192	0.0745	366384	keystroke_d	d	n/a
183.372	0.105	366744	keystroke_w	w	n/a
183.597	0.09	367194	keystroke_e	e	n/a
183.762	0.165	367524	keystroke_s	s	n/a
183.867	0.105	367734	keystroke_t	t	n/a
183.942	0.09	367884	keystroke_Key.space	Key.space	n/a
184.1825	0.06	368365	keystroke_t	t	n/a
184.3175	0.075	368635	keystroke_a	a	n/a
184.4075	0.1045	368815	keystroke_l	l	n/a
184.527	0.135	369054	keystroke_e	e	n/a
184.602	0.135	369204	keystroke_s	s	n/a
184.692	0.15	369384	keystroke_Key.space	Key.space	n/a
185.1575	0.12	370315	keystroke_l	l	n/a
185.2175	0.15	370435	keystroke_e	e	n/a
185.3075	0.12	370615	keystroke_a	a	n/a
185.4725	0.105	370945	keystroke_v	v	n/a
185.5325	0.165	371065	keystroke_e	e	n/a
185.6525	0.136	371305	keystroke_s	s	n/a
185.728	0.1355	371456	keystroke_Key.space	Key.space	n/a
185.9085	0.12	371817	keystroke_f	f	n/a
186.1035	0.135	372207	keystroke_r	r	n/a
186.1935	0.105	372387	keystroke_e	e	n/a
186.3585	0.12	372717	keystroke_q	q	n/a
186.5085	0.1205	373017	keystroke_u	u	n/a
186.6135	0.1355	373227	keystroke_e	e	n/a
186.764	0.09	373528	keystroke_n	n	n/a
186.869	0.075	373738	keystroke_t	t	n/a
187.2735	0.12	374547	keystroke_Key.enter	Key.enter	n/a
187.398	6.571	374796	prompt	n/a	rolling aggregate alias unusual\n
188.219	0.09	376438	keystroke_r	r	n/a
188.324	0.09	376648	keystroke_o	o	n/a
188.5195	0.06	377039	keystroke_l	l	n/a
188.6395	0.075	377279	keystroke_l	l	n/a
188.864	0.1055	377728	keystroke_i	i	n/a
188.9245	0.12	377849	keystroke_n	n	n/a
188.9995	0.165	377999	keystroke_g	g	n/a
189.0745	0.165	378149	keystroke_Key.space	Key.space	n/a
189.615	0.12	379230	keystroke_a	a	n/a
189.855	0.0605	379710	keystroke_g	g	n/a
189.9755	0.09	379951	keystroke_g	g	n/a
190.1705	0.135	380341	keystroke_r	r	n/a
190.2305	0.105	380461	keystroke_e	e	n/a
190.4705	0.09	380941	keystroke_g	g	n/a
190.6955	0.075	381391	keystroke_a	a	n/a
190.8755	0.105	381751	keystroke_t	t	n/a
190.9355	0.105	381871	keystroke_e	e	n/a
191.0255	0.12	382051	keystroke_Key.space	Key.space	n/a
191.1305	0.105	382261	keystroke_a	a	n/a
191.2355	0.075	382471	keystroke_l	l	n/a
191.401	0.105	382802	keystroke_i	i	n/a
191.521	0.075	383042	keystroke_a	a	n/a
192.061	0.09	384122	keystroke_s	s	n/a
192.241	0.1055	384482	keystroke_Key.space	Key.space	n/a
192.5265	0.135	385053	keystroke_u	u	n/a
192.6765	0.105	385353	keystroke_n	n	n/a
192.8265	0.15	385653	keystroke_u	u	n/a
192.9775	0.089	385955	keystroke_s	s	n/a
193.112	0.105	386224	keystroke_u	u	n/a
193.232	0.105	386464	keystroke_a	a	n/a
193.3675	0.075	386735	keystroke_l	l	n/a
193.8625	0.105	387725	keystroke_Key.enter	Key.enter	n/a
193.973	4.919	387946	prompt	n/a	events cars defines getting\n
194.5675	0.12	389135	keystroke_e	e	n/a
195.1525	0.1055	390305	keystroke_v	v	n/a
195.3485	0.09	390697	keystroke_e	e	n/a
195.4835	0.1045	390967	keystroke_n	n	n/a
195.604	0.134	391208	keystroke_t	t	n/a
195.723	0.135	391446	keystroke_s	s	n/a
195.828	0.1355	391656	keystroke_Key.space	Key.space	n/a
196.0235	0.105	392047	keystroke_c	c	n/a
196.1435	0.105	392287	keystroke_a	a	n/a
196.2935	0.165	392587	keystroke_r	r	n/a
196.4435	0.135	392887	keystroke_s	s	n/a
196.5635	0.1355	393127	keystroke_Key.space	Key.space	n/a
196.744	0.09	393488	keystroke_d	d	n/a
196.8945	0.075	393789	keystroke_e	e	n/a
197.0595	0.075	394119	keystroke_f	f	n/a
197.1345	0.135	394269	keystroke_i	i	n/a
197.2095	0.135	394419	keystroke_n	n	n/a
197.2845	0.105	394569	keystroke_e	e	n/a
197.3595	0.18	394719	keystroke_s	s	n/a
197.5245	0.105	395049	keystroke_Key.space	Key.space	n/a
197.7495	0.09	395499	keystroke_g	g	n/a
197.975	0.1495	395950	keystroke_e	e	n/a
198.1545	0.09	396309	keystroke_t	t	n/a
198.3345	0.075	396669	keystroke_t	t	n/a
198.44	0.15	396880	keystroke_i	i	n/a
198.515	0.1355	397030	keystroke_n	n	n/a
198.605	0.0755	397210	keystroke_g	g	n/a
198.8005	0.09	397601	keystroke_Key.enter	Key.enter	n/a
198.8955	6.195	397791	prompt	n/a	applicable delays transmission wrong\n
199.5205	0.0905	399041	keystroke_a	a	n/a
199.686	0.045	399372	keystroke_p	p	n/a
199.791	0.075	399582	keystroke_p	p	n/a
200.001	0.0745	400002	keystroke_l	l	n/a
200.2255	0.09	400451	keystroke_i	i	n/a
200.3755	0.105	400751	keystroke_c	c	n/a
200.4505	0.1055	400901	keystroke_a	a	n/a
200.736	0.0755	401472	keystroke_b	b	n/a
200.8865	0.135	401773	keystroke_l	l	n/a
201.0065	0.105	402013	keystroke_e	e	n/a
201.0815	0.135	402163	keystroke_Key.space	Key.space	n/a
201.2615	0.1055	402523	keystroke_d	d	n/a
201.397	0.0895	402794	keystroke_e	e	n/a
201.5165	0.105	403033	keystroke_l	l	n/a
201.6515	0.165	403303	keystroke_a	a	n/a
201.7865	0.075	403573	keystroke_y	y	n/a
201.9515	0.1655	403903	keystroke_s	s	n/a
202.072	0.135	404144	keystroke_Key.space	Key.space	n/a
202.432	0.1055	404864	keystroke_t	t	n/a
202.477	0.1055	404954	keystroke_r	r	n/a
202.6425	0.105	405285	keystroke_a	a	n/a
202.7325	0.09	405465	keystroke_n	n	n/a
202.8525	0.105	405705	keystroke_s	s	n/a
202.9725	0.075	405945	keystroke_m	m	n/a
203.0775	0.09	406155	keystroke_i	i	n/a
203.3625	0.075	406725	keystroke_s	s	n/a
203.4975	0.105	406995	keystroke_s	s	n/a
203.6175	0.24	407235	keystroke_i	i	n/a
203.7075	0.135	407415	keystroke_o	o	n/a
203.7525	0.18	407505	keystroke_n	n	n/a
203.9175	0.135	407835	keystroke_Key.space	Key.space	n/a
204.233	0.105	408466	keystroke_w	w	n/a
204.398	0.105	408796	keystroke_r	r	n/a
204.563	0.075	409126	keystroke_o	o	n/a
204.698	0.105	409396	keystroke_n	n	n/a
204.788	0.075	409576	keystroke_g	g	n/a
204.998	0.0905	409996	keystroke_Key.enter	Key.enter	n/a
205.095	7.484	410190	prompt	n/a	valve panic defendant evidence\n
206.1695	0.09	412339	keystroke_v	v	n/a
206.3045	0.09	412609	keystroke_a	a	n/a
206.4095	0.105	412819	keystroke_l	l	n/a
206.4995	0.105	412999	keystroke_v	v	n/a
206.6495	0.165	413299	keystroke_e	e	n/a
206.7995	0.105	413599	keystroke_Key.space	Key.space	n/a
207.0545	0.0755	414109	keystroke_p	p	n/a
207.145	0.12	414290	keystroke_a	a	n/a
207.28	0.075	414560	keystroke_n	n	n/a
207.385	0.105	414770	keystroke_i	i	n/a
207.475	0.18	414950	keystroke_c	c	n/a
207.67	0.06	415340	keystroke_Key.space	Key.space	n/a
207.805	0.09	415610	keystroke_d	d	n/a
208	0.0755	416000	keystroke_e	e	n/a
208.1205	0.135	416241	keystroke_f	f	n/a
208.3155	0.105	416631	keystroke_e	e	n/a
208.4655	0.09	416931	keystroke_n	n	n/a
208.6005	0.09	417201	keystroke_d	d	n/a
208.7505	0.075	417501	keystroke_e	e	n/a
209.1555	0.0755	418311	keystroke_=	=	n/a
209.1705	0.045	418341	keystroke_Key.backspace	Key.backspace	n/a
209.9515	0.06	419903	keystroke_Key.backspace	Key.backspace	n/a
210.5365	0.09	421073	keystroke_a	a	n/a
210.6115	0.105	421223	keystroke_n	n	n/a
210.7315	0.105	421463	keystroke_t	t	n/a
210.7905	0.1365	421581	keystroke_Key.space	Key.space	n/a
211.4815	0.075	422963	keystroke_e	e	n/a
211.6765	0.0905	423353	keystroke_v	v	n/a
211.812	0.09	423624	keystroke_i	i	n/a
211.872	0.075	423744	keystroke_d	d	n/a
212.022	0.06	424044	keystroke_e	e	n/a
212.112	0.12	424224	keystroke_n	n	n/a
212.187	0.135	424374	keystroke_c	c	n/a
212.262	0.105	424524	keystroke_e	e	n/a
212.487	0.09	424974	keystroke_Key.enter	Key.enter	n/a
212.5815	6.435	425163	prompt	n/a	reforms straight convention exterior\n
213.9425	0.1055	427885	keystroke_r	r	n/a
214.0025	0.09	428005	keystroke_e	e	n/a
214.168	0.09	428336	keystroke_f	f	n/a
214.288	0.105	428576	keystroke_o	o	n/a
214.363	0.09	428726	keystroke_r	r	n/a
214.483	0.09	428966	keystroke_m	m	n/a
214.588	0.135	429176	keystroke_s	s	n/a
214.693	0.15	429386	keystroke_Key.space	Key.space	n/a
214.873	0.09	429746	keystroke_s	s	n/a
215.023	0.1055	430046	keystroke_t	t	n/a
215.0535	0.105	430107	keystroke_r	r	n/a
215.2635	0.135	430527	keystroke_a	a	n/a
215.4135	0.09	430827	keystroke_i	i	n/a
215.518	0.0905	431036	keystroke_g	g	n/a
215.6235	0.09	431247	keystroke_h	h	n/a
215.7145	0.089	431429	keystroke_t	t	n/a
215.7735	0.105	431547	keystroke_Key.space	Key.space	n/a
215.9835	0.1195	431967	keystroke_c	c	n/a
216.073	0.075	432146	keystroke_o	o	n/a
216.224	0.12	432448	keystroke_n	n	n/a
216.299	0.105	432598	keystroke_v	v	n/a
216.463	0.09	432926	keystroke_e	e	n/a
216.568	0.075	433136	keystroke_n	n	n/a
216.718	0.09	433436	keystroke_t	t	n/a
216.764	0.2105	433528	keystroke_i	i	n/a
216.8235	0.12	433647	keystroke_o	o	n/a
216.9135	0.136	433827	keystroke_n	n	n/a
217.0035	0.15	434007	keystroke_Key.space	Key.space	n/a
217.1985	0.09	434397	keystroke_e	e	n/a
217.4085	0.121	434817	keystroke_x	x	n/a
217.7085	0.09	435417	keystroke_t	t	n/a
217.8895	0.1055	435779	keystroke_e	e	n/a
217.95	0.134	435900	keystroke_r	r	n/a
218.159	0.195	436318	keystroke_i	i	n/a
218.264	0.121	436528	keystroke_o	o	n/a
218.444	0.09	436888	keystroke_r	r	n/a
218.909	0.105	437818	keystroke_Key.enter	Key.enter	n/a
219.021	6.521	438042	prompt	n/a	revenues framing testing europe\n
219.69	0.15	439380	keystroke_r	r	n/a
219.795	0.105	439590	keystroke_e	e	n/a
220.005	0.075	440010	keystroke_v	v	n/a
220.11	0.09	440220	keystroke_e	e	n/a
220.215	0.09	440430	keystroke_n	n	n/a
220.38	0.105	440760	keystroke_u	u	n/a
220.455	0.165	440910	keystroke_e	e	n/a
220.545	0.15	441090	keystroke_s	s	n/a
220.635	0.15	441270	keystroke_Key.space	Key.space	n/a
220.9495	0.1055	441899	keystroke_f	f	n/a
221.5795	0.09	443159	keystroke_r	r	n/a
221.7295	0.1205	443459	keystroke_a	a	n/a
221.835	0.075	443670	keystroke_m	m	n/a
221.985	0.105	443970	keystroke_i	i	n/a
222.06	0.105	444120	keystroke_n	n	n/a
222.15	0.135	444300	keystroke_g	g	n/a
222.24	0.135	444480	keystroke_Key.space	Key.space	n/a
222.766	0.1195	445532	keystroke_t	t	n/a
222.9305	0.18	445861	keystroke_e	e	n/a
223.0055	0.12	446011	keystroke_s	s	n/a
223.0955	0.105	446191	keystroke_t	t	n/a
223.2155	0.12	446431	keystroke_i	i	n/a
223.2755	0.135	446551	keystroke_n	n	n/a
223.56	0.045	447120	keystroke_g	g	n/a
223.9355	0.09	447871	keystroke_Key.space	Key.space	n/a
224.2505	0.1505	448501	keystroke_e	e	n/a
224.431	0.1195	448862	keystroke_u	u	n/a
224.6105	0.09	449221	keystroke_r	r	n/a
224.8355	0.09	449671	keystroke_o	o	n/a
225.0305	0.06	450061	keystroke_p	p	n/a
225.1055	0.06	450211	keystroke_e	e	n/a
225.4205	0.12	450841	keystroke_Key.enter	Key.enter	n/a
225.545	6.1315	451090	prompt	n/a	verizon desktop treating tile\n
226.5155	0.09	453031	keystroke_v	v	n/a
226.696	0.0745	453392	keystroke_e	e	n/a
226.7255	0.105	453451	keystroke_r	r	n/a
226.8455	0.09	453691	keystroke_i	i	n/a
226.9655	0.1345	453931	keystroke_z	z	n/a
227.085	0.075	454170	keystroke_o	o	n/a
227.22	0.1055	454440	keystroke_n	n	n/a
227.3405	0.12	454681	keystroke_Key.space	Key.space	n/a
227.4455	0.0745	454891	keystroke_d	d	n/a
227.595	0.135	455190	keystroke_e	e	n/a
227.7	0.12	455400	keystroke_s	s	n/a
227.835	0.09	455670	keystroke_k	k	n/a
229.065	0.105	458130	keystroke_t	t	n/a
229.245	0.24	458490	keystroke_o	o	n/a
229.335	0.135	458670	keystroke_p	p	n/a
229.56	0.105	459120	keystroke_Key.space	Key.space	n/a
229.83	0.15	459660	keystroke_t	t	n/a
229.92	0.075	459840	keystroke_r	r	n/a
230.115	0.165	460230	keystroke_e	e	n/a
230.205	0.12	460410	keystroke_a	a	n/a
230.4	0.0895	460800	keystroke_t	t	n/a
230.5195	0.105	461039	keystroke_i	i	n/a
230.5795	0.1355	461159	keystroke_n	n	n/a
230.6695	0.105	461339	keystroke_g	g	n/a
230.7295	0.1355	461459	keystroke_Key.space	Key.space	n/a
231.09	0.105	462180	keystroke_t	t	n/a
231.21	0.1495	462420	keystroke_i	i	n/a
231.2845	0.12	462569	keystroke_l	l	n/a
231.3895	0.09	462779	keystroke_e	e	n/a
231.5995	0.075	463199	keystroke_Key.enter	Key.enter	n/a
231.679	9.0565	463358	prompt	n/a	subjects strategic previously donor\n
233.2045	0.12	466409	keystroke_s	s	n/a
233.3095	0.135	466619	keystroke_u	u	n/a
233.384	0.1205	466768	keystroke_b	b	n/a
233.6095	0.091	467219	keystroke_j	j	n/a
233.7145	0.18	467429	keystroke_e	e	n/a
233.8195	0.105	467639	keystroke_c	c	n/a
234.0595	0.105	468119	keystroke_t	t	n/a
234.1945	0.195	468389	keystroke_s	s	n/a
234.3745	0.135	468749	keystroke_Key.space	Key.space	n/a
234.9895	0.135	469979	keystroke_s	s	n/a
235.1695	0.135	470339	keystroke_t	t	n/a
235.2295	0.15	470459	keystroke_r	r	n/a
235.394	0.135	470788	keystroke_a	a	n/a
235.574	0.09	471148	keystroke_t	t	n/a
235.724	0.075	471448	keystroke_e	e	n/a
235.8745	0.1045	471749	keystroke_g	g	n/a
236.024	0.105	472048	keystroke_i	i	n/a
236.144	0.12	472288	keystroke_c	c	n/a
236.249	0.12	472498	keystroke_Key.space	Key.space	n/a
236.459	0.09	472918	keystroke_p	p	n/a
236.534	0.105	473068	keystroke_r	r	n/a
236.579	0.09	473158	keystroke_e	e	n/a
236.774	0.091	473548	keystroke_v	v	n/a
236.85	0.075	473700	keystroke_u	u	n/a
237.0445	0.075	474089	keystroke_o	o	n/a
237.0595	0.06	474119	keystroke_i	i	n/a
237.9445	0.075	475889	keystroke_Key.backspace	Key.backspace	n/a
238.1245	0.0895	476249	keystroke_Key.backspace	Key.backspace	n/a
238.3495	0.0895	476699	keystroke_Key.backspace	Key.backspace	n/a
238.979	0.09	477958	keystroke_i	i	n/a
239.174	0.135	478348	keystroke_o	o	n/a
239.264	0.105	478528	keystroke_u	u	n/a
239.354	0.1045	478708	keystroke_s	s	n/a
239.4735	0.09	478947	keystroke_l	l	n/a
239.5935	0.09	479187	keystroke_y	y	n/a
239.6685	0.09	479337	keystroke_Key.space	Key.space	n/a
239.9385	0.105	479877	keystroke_d	d	n/a
239.9985	0.0755	479997	keystroke_o	o	n/a
240.149	0.075	480298	keystroke_n	n	n/a
240.284	0.0755	480568	keystroke_o	o	n/a
240.389	0.075	480778	keystroke_r	r	n/a
240.644	0.09	481288	keystroke_Key.enter	Key.enter	n/a
240.739	10.2715	481478	prompt	n/a	assessment employer powerful warranties\n
241.394	0.075	482788	keystroke_a	a	n/a
241.604	0.06	483208	keystroke_s	s	n/a
241.7395	0.0745	483479	keystroke_s	s	n/a
241.889	0.09	483778	keystroke_e	e	n/a
242.1135	0.06	484227	keystroke_s	s	n/a
242.2335	0.12	484467	keystroke_s	s	n/a
242.4135	0.09	484827	keystroke_m	m	n/a
242.4885	0.09	484977	keystroke_e	e	n/a
242.5935	0.09	485187	keystroke_n	n	n/a
242.6535	0.105	485307	keystroke_t	t	n/a
242.7285	0.105	485457	keystroke_Key.space	Key.space	n/a
242.8785	0.12	485757	keystroke_e	e	n/a
242.9685	0.106	485937	keystroke_m	m	n/a
243.1495	0.12	486299	keystroke_p	p	n/a
243.2245	0.09	486449	keystroke_l	l	n/a
243.404	0.0905	486808	keystroke_o	o	n/a
243.5095	0.075	487019	keystroke_y	y	n/a
243.6895	0.1345	487379	keystroke_e	e	n/a
243.7645	0.1345	487529	keystroke_r	r	n/a
243.839	0.135	487678	keystroke_Key.space	Key.space	n/a
244.049	0.075	488098	keystroke_p	p	n/a
244.214	0.09	488428	keystroke_o	o	n/a
244.289	0.075	488578	keystroke_w	w	n/a
244.4685	0.105	488937	keystroke_e	e	n/a
244.5135	0.105	489027	keystroke_r	r	n/a
244.7235	0.105	489447	keystroke_f	f	n/a
244.7985	0.075	489597	keystroke_y	y	n/a
244.9935	0.09	489987	keystroke_l	l	n/a
245.0985	0.105	490197	keystroke_Key.space	Key.space	n/a
245.2485	0.165	490497	keystroke_w	w	n/a
245.3535	0.12	490707	keystroke_a	a	n/a
245.8935	0.09	491787	keystroke_=	=	n/a
246.8235	0.075	493647	keystroke_Key.backspace	Key.backspace	n/a
247.0335	0.06	494067	keystroke_Key.backspace	Key.backspace	n/a
247.2135	0.0605	494427	keystroke_Key.backspace	Key.backspace	n/a
247.409	0.045	494818	keystroke_Key.backspace	Key.backspace	n/a
247.589	0.06	495178	keystroke_Key.backspace	Key.backspace	n/a
247.934	0.06	495868	keystroke_Key.backspace	Key.backspace	n/a
248.594	0.09	497188	keystroke_u	u	n/a
248.819	0.105	497638	keystroke_l	l	n/a
249.224	0.12	498448	keystroke_Key.space	Key.space	n/a
249.419	0.135	498838	keystroke_w	w	n/a
249.479	0.105	498958	keystroke_a	a	n/a
249.689	0.045	499378	keystroke_r	r	n/a
249.824	0.0745	499648	keystroke_r	r	n/a
249.9135	0.135	499827	keystroke_a	a	n/a
250.0785	0.105	500157	keystroke_n	n	n/a
250.1685	0.09	500337	keystroke_t	t	n/a
250.2885	0.09	500577	keystroke_i	i	n/a
250.3935	0.12	500787	keystroke_e	e	n/a
250.4535	0.105	500907	keystroke_s	s	n/a
250.9185	0.09	501837	keystroke_Key.enter	Key.enter	n/a
251.0145	6.895	502029	prompt	n/a	dominican presently junk libs\n
251.848	0.105	503696	keystroke_d	d	n/a
251.938	0.12	503876	keystroke_o	o	n/a
252.013	0.09	504026	keystroke_m	m	n/a
252.178	0.12	504356	keystroke_i	i	n/a
252.8535	0.09	505707	keystroke_n	n	n/a
253.0785	0.09	506157	keystroke_i	i	n/a
253.1835	0.1345	506367	keystroke_c	c	n/a
253.2735	0.12	506547	keystroke_a	a	n/a
253.3785	0.105	506757	keystroke_n	n	n/a
253.5285	0.105	507057	keystroke_Key.space	Key.space	n/a
253.738	0.06	507476	keystroke_p	p	n/a
253.813	0.15	507626	keystroke_r	r	n/a
253.918	0.075	507836	keystroke_e	e	n/a
255.058	0.09	510116	keystroke_s	s	n/a
255.238	0.1355	510476	keystroke_e	e	n/a
255.3885	0.105	510777	keystroke_n	n	n/a
255.4635	0.105	510927	keystroke_t	t	n/a
255.5985	0.1045	511197	keystroke_l	l	n/a
255.688	0.105	511376	keystroke_y	y	n/a
255.928	0.12	511856	keystroke_Key.space	Key.space	n/a
256.243	0.105	512486	keystroke_j	j	n/a
256.408	0.09	512816	keystroke_u	u	n/a
256.603	0.075	513206	keystroke_n	n	n/a
256.753	0.09	513506	keystroke_k	k	n/a
256.888	0.135	513776	keystroke_Key.space	Key.space	n/a
257.008	0.105	514016	keystroke_l	l	n/a
257.158	0.18	514316	keystroke_i	i	n/a
257.293	0.105	514586	keystroke_b	b	n/a
257.503	0.105	515006	keystroke_s	s	n/a
257.803	0.105	515606	keystroke_Key.enter	Key.enter	n/a
257.9125	5.5465	515825	prompt	n/a	phrase bronze presents meters\n
258.6125	0.09	517225	keystroke_p	p	n/a
258.838	0.09	517676	keystroke_h	h	n/a
258.958	0.135	517916	keystroke_r	r	n/a
259.123	0.21	518246	keystroke_a	a	n/a
259.273	0.15	518546	keystroke_s	s	n/a
259.393	0.12	518786	keystroke_e	e	n/a
259.468	0.135	518936	keystroke_Key.space	Key.space	n/a
259.633	0.09	519266	keystroke_b	b	n/a
259.738	0.105	519476	keystroke_r	r	n/a
259.828	0.1045	519656	keystroke_o	o	n/a
259.9475	0.12	519895	keystroke_n	n	n/a
260.0825	0.15	520165	keystroke_z	z	n/a
260.1875	0.165	520375	keystroke_e	e	n/a
260.3075	0.135	520615	keystroke_Key.space	Key.space	n/a
260.6075	0.09	521215	keystroke_p	p	n/a
260.6675	0.1505	521335	keystroke_r	r	n/a
260.7275	0.1205	521455	keystroke_e	e	n/a
260.803	0.15	521606	keystroke_s	s	n/a
260.938	0.135	521876	keystroke_e	e	n/a
261.148	0.1045	522296	keystroke_n	n	n/a
261.2975	0.12	522595	keystroke_t	t	n/a
261.4775	0.12	522955	keystroke_s	s	n/a
261.6275	0.135	523255	keystroke_Key.space	Key.space	n/a
261.8225	0.09	523645	keystroke_m	m	n/a
261.8825	0.135	523765	keystroke_e	e	n/a
262.0025	0.075	524005	keystroke_t	t	n/a
262.1075	0.2105	524215	keystroke_e	e	n/a
262.438	0.135	524876	keystroke_r	r	n/a
262.678	0.09	525356	keystroke_s	s	n/a
263.3675	0.09	526735	keystroke_Key.enter	Key.enter	n/a
263.462	6.3715	526924	prompt	n/a	left admission personnel minerals\n
264.162	0.15	528324	keystroke_l	l	n/a
264.267	0.18	528534	keystroke_e	e	n/a
264.402	0.12	528804	keystroke_f	f	n/a
264.612	0.105	529224	keystroke_t	t	n/a
264.687	0.105	529374	keystroke_Key.space	Key.space	n/a
264.822	0.135	529644	keystroke_a	a	n/a
264.927	0.12	529854	keystroke_d	d	n/a
265.062	0.075	530124	keystroke_m	m	n/a
265.167	0.1055	530334	keystroke_i	i	n/a
265.3175	0.075	530635	keystroke_s	s	n/a
265.4525	0.09	530905	keystroke_s	s	n/a
265.5575	0.195	531115	keystroke_i	i	n/a
265.6325	0.105	531265	keystroke_o	o	n/a
265.6925	0.135	531385	keystroke_n	n	n/a
265.7675	0.12	531535	keystroke_Key.space	Key.space	n/a
265.9625	0.09	531925	keystroke_p	p	n/a
266.0375	0.15	532075	keystroke_e	e	n/a
266.1275	0.135	532255	keystroke_r	r	n/a
266.3675	0.12	532735	keystroke_s	s	n/a
266.5025	0.09	533005	keystroke_o	o	n/a
266.6975	0.045	533395	keystroke_n	n	n/a
266.8175	0.105	533635	keystroke_n	n	n/a
266.9675	0.09	533935	keystroke_e	e	n/a
267.1025	0.09	534205	keystroke_l	l	n/a
267.2525	0.12	534505	keystroke_Key.space	Key.space	n/a
267.4475	0.075	534895	keystroke_m	m	n/a
267.5525	0.1195	535105	keystroke_i	i	n/a
267.642	0.15	535284	keystroke_n	n	n/a
267.747	0.09	535494	keystroke_d	d	n/a
268.9315	0.0905	537863	keystroke_Key.backspace	Key.backspace	n/a
269.157	0.1195	538314	keystroke_e	e	n/a
269.2315	0.12	538463	keystroke_r	r	n/a
269.3665	0.075	538733	keystroke_a	a	n/a
269.4425	0.104	538885	keystroke_l	l	n/a
269.5615	0.075	539123	keystroke_s	s	n/a
269.7715	0.06	539543	keystroke_Key.enter	Key.enter	n/a
269.8365	14.8755	539673	prompt	n/a	mark importantly agriculture functioning\n
270.702	0.105	541404	keystroke_m	m	n/a
270.777	0.135	541554	keystroke_a	a	n/a
270.867	0.105	541734	keystroke_r	r	n/a
270.957	0.09	541914	keystroke_k	k	n/a
271.0765	0.12	542153	keystroke_Key.space	Key.space	n/a
271.2275	0.1345	542455	keystroke_i	i	n/a
271.302	0.12	542604	keystroke_m	m	n/a
271.5265	0.075	543053	keystroke_p	p	n/a
271.6765	0.09	543353	keystroke_o	o	n/a
271.7815	0.0905	543563	keystroke_r	r	n/a
271.9315	0.09	543863	keystroke_t	t	n/a
272.0815	0.105	544163	keystroke_a	a	n/a
272.1865	0.075	544373	keystroke_n	n	n/a
272.3065	0.09	544613	keystroke_t	t	n/a
272.5315	0.135	545063	keystroke_l	l	n/a
272.6965	0.09	545393	keystroke_y	y	n/a
272.8165	0.15	545633	keystroke_Key.space	Key.space	n/a
273.086	0.181	546172	keystroke_a	a	n/a
273.222	0.12	546444	keystroke_r	r	n/a
273.447	0.074	546894	keystroke_g	g	n/a
273.552	0.104	547104	keystroke_i	i	n/a
273.866	0.12	547732	keystroke_c	c	n/a
274.001	0.075	548002	keystroke_u	u	n/a
274.182	0.074	548364	keystroke_l	l	n/a
274.301	0.1055	548602	keystroke_t	t	n/a
274.4365	0.075	548873	keystroke_u	u	n/a
274.4515	0.045	548903	keystroke_y	y	n/a
274.5125	0.134	549025	keystroke_r	r	n/a
274.5865	0.105	549173	keystroke_e	e	n/a
274.7215	0.06	549443	keystroke_Key.space	Key.space	n/a
275.4715	0.075	550943	keystroke_Key.backspace	Key.backspace	n/a
275.6365	0.075	551273	keystroke_Key.backspace	Key.backspace	n/a
275.801	0.0745	551602	keystroke_Key.backspace	Key.backspace	n/a
275.9655	0.0755	551931	keystroke_Key.backspace	Key.backspace	n/a
276.1455	0.1205	552291	keystroke_r	r	n/a
276.1905	0.1055	552381	keystroke_e	e	n/a
276.776	0.1045	553552	keystroke_Key.space	Key.space	n/a
278.8605	0.075	557721	keystroke_Key.backspace	Key.backspace	n/a
279.041	0.045	558082	keystroke_Key.backspace	Key.backspace	n/a
279.191	0.06	558382	keystroke_Key.backspace	Key.backspace	n/a
279.356	0.06	558712	keystroke_Key.backspace	Key.backspace	n/a
279.521	0.06	559042	keystroke_Key.backspace	Key.backspace	n/a
279.671	0.06	559342	keystroke_Key.backspace	Key.backspace	n/a
279.836	0.06	559672	keystroke_Key.backspace	Key.backspace	n/a
280.001	0.075	560002	keystroke_Key.backspace	Key.backspace	n/a
280.181	0.06	560362	keystroke_Key.backspace	Key.backspace	n/a
280.361	0.075	560722	keystroke_Key.backspace	Key.backspace	n/a
280.586	0.09	561172	keystroke_Key.backspace	Key.backspace	n/a
281.291	0.075	562582	keystroke_g	g	n/a
281.486	0.075	562972	keystroke_r	r	n/a
281.636	0.105	563272	keystroke_i	i	n/a
281.831	0.12	563662	keystroke_c	c	n/a
281.921	0.075	563842	keystroke_u	u	n/a
282.101	0.09	564202	keystroke_l	l	n/a
282.251	0.075	564502	keystroke_t	t	n/a
282.356	0.09	564712	keystroke_u	u	n/a
282.461	0.1505	564922	keystroke_r	r	n/a
282.551	0.0895	565102	keystroke_e	e	n/a
282.6255	0.09	565251	keystroke_Key.space	Key.space	n/a
283.4205	0.105	566841	keystroke_f	f	n/a
283.4955	0.1655	566991	keystroke_u	u	n/a
283.5855	0.1205	567171	keystroke_n	n	n/a
283.676	0.09	567352	keystroke_c	c	n/a
283.886	0.09	567772	keystroke_t	t	n/a
283.916	0.21	567832	keystroke_i	i	n/a
283.99	0.121	567980	keystroke_o	o	n/a
284.096	0.09	568192	keystroke_n	n	n/a
284.246	0.12	568492	keystroke_i	i	n/a
284.306	0.12	568612	keystroke_n	n	n/a
284.426	0.09	568852	keystroke_g	g	n/a
284.651	0.06	569302	keystroke_Key.enter	Key.enter	n/a
284.716	4.9905	569432	prompt	n/a	breeds literally ahead shipping\n
285.611	0.1195	571222	keystroke_b	b	n/a
285.7455	0.12	571491	keystroke_r	r	n/a
285.9105	0.105	571821	keystroke_e	e	n/a
286.0605	0.105	572121	keystroke_e	e	n/a
286.2705	0.15	572541	keystroke_d	d	n/a
286.3455	0.165	572691	keystroke_s	s	n/a
286.4655	0.12	572931	keystroke_Key.space	Key.space	n/a
286.5705	0.1045	573141	keystroke_l	l	n/a
286.735	0.15	573470	keystroke_i	i	n/a
286.84	0.12	573680	keystroke_t	t	n/a
287.005	0.1205	574010	keystroke_e	e	n/a
287.0805	0.12	574161	keystroke_r	r	n/a
287.2005	0.1045	574401	keystroke_a	a	n/a
287.335	0.075	574670	keystroke_l	l	n/a
287.455	0.12	574910	keystroke_l	l	n/a
287.545	0.12	575090	keystroke_y	y	n/a
287.605	0.12	575210	keystroke_Key.space	Key.space	n/a
287.77	0.135	575540	keystroke_a	a	n/a
287.89	0.12	575780	keystroke_h	h	n/a
287.995	0.15	575990	keystroke_e	e	n/a
288.13	0.12	576260	keystroke_a	a	n/a
288.22	0.165	576440	keystroke_d	d	n/a
288.34	0.165	576680	keystroke_Key.space	Key.space	n/a
288.52	0.105	577040	keystroke_s	s	n/a
288.61	0.15	577220	keystroke_h	h	n/a
288.7	0.105	577400	keystroke_i	i	n/a
288.955	0.06	577910	keystroke_p	p	n/a
289.09	0.075	578180	keystroke_p	p	n/a
289.315	0.1055	578630	keystroke_i	i	n/a
289.345	0.1355	578690	keystroke_n	n	n/a
289.4655	0.075	578931	keystroke_g	g	n/a
289.6155	0.09	579231	keystroke_Key.enter	Key.enter	n/a
289.7095	7.3615	579419	prompt	n/a	overnight associates alberta chevy\n
290.4405	0.075	580881	keystroke_o	o	n/a
291.16	0.105	582320	keystroke_v	v	n/a
291.355	0.09	582710	keystroke_e	e	n/a
291.4	0.105	582800	keystroke_r	r	n/a
291.535	0.09	583070	keystroke_n	n	n/a
291.655	0.09	583310	keystroke_i	i	n/a
291.8505	0.0895	583701	keystroke_g	g	n/a
292.045	0.1345	584090	keystroke_h	h	n/a
292.1945	0.105	584389	keystroke_t	t	n/a
292.3745	0.105	584749	keystroke_Key.space	Key.space	n/a
292.7345	0.075	585469	keystroke_a	a	n/a
292.9295	0.06	585859	keystroke_s	s	n/a
293.0495	0.09	586099	keystroke_s	s	n/a
293.1545	0.0905	586309	keystroke_o	o	n/a
293.26	0.105	586520	keystroke_c	c	n/a
293.38	0.09	586760	keystroke_i	i	n/a
293.455	0.104	586910	keystroke_a	a	n/a
293.649	0.15	587298	keystroke_t	t	n/a
293.769	0.15	587538	keystroke_e	e	n/a
293.844	0.151	587688	keystroke_s	s	n/a
293.964	0.1355	587928	keystroke_Key.space	Key.space	n/a
294.1895	0.18	588379	keystroke_a	a	n/a
294.2945	0.09	588589	keystroke_l	l	n/a
294.5045	0.09	589009	keystroke_b	b	n/a
294.6095	0.135	589219	keystroke_e	e	n/a
294.6695	0.15	589339	keystroke_r	r	n/a
295.0745	0.12	590149	keystroke_t	t	n/a
295.5095	0.105	591019	keystroke_a	a	n/a
295.6295	0.105	591259	keystroke_Key.space	Key.space	n/a
295.8095	0.105	591619	keystroke_c	c	n/a
295.8995	0.12	591799	keystroke_h	h	n/a
296.0045	0.09	592009	keystroke_e	e	n/a
296.2145	0.105	592429	keystroke_v	v	n/a
296.5895	0.06	593179	keystroke_y	y	n/a
296.9645	0.105	593929	keystroke_Key.enter	Key.enter	n/a
297.076	3.9845	594152	prompt	n/a	programs nature find claim\n
297.8495	0.09	595699	keystroke_p	p	n/a
297.9695	0.075	595939	keystroke_r	r	n/a
298.0595	0.09	596119	keystroke_o	o	n/a
298.1645	0.075	596329	keystroke_g	g	n/a
298.3145	0.1345	596629	keystroke_r	r	n/a
298.419	0.09	596838	keystroke_a	a	n/a
298.524	0.09	597048	keystroke_m	m	n/a
298.629	0.12	597258	keystroke_s	s	n/a
298.734	0.135	597468	keystroke_Key.space	Key.space	n/a
298.854	0.1205	597708	keystroke_n	n	n/a
298.9895	0.12	597979	keystroke_a	a	n/a
299.2145	0.0745	598429	keystroke_t	t	n/a
299.349	0.135	598698	keystroke_u	u	n/a
299.499	0.12	598998	keystroke_r	r	n/a
299.544	0.12	599088	keystroke_e	e	n/a
299.649	0.12	599298	keystroke_Key.space	Key.space	n/a
299.859	0.105	599718	keystroke_f	f	n/a
299.949	0.15	599898	keystroke_i	i	n/a
300.039	0.15	600078	keystroke_n	n	n/a
300.129	0.12	600258	keystroke_d	d	n/a
300.234	0.0905	600468	keystroke_Key.space	Key.space	n/a
300.3845	0.105	600769	keystroke_c	c	n/a
300.5045	0.0595	601009	keystroke_l	l	n/a
300.594	0.105	601188	keystroke_a	a	n/a
300.684	0.165	601368	keystroke_i	i	n/a
300.774	0.12	601548	keystroke_m	m	n/a
300.969	0.0895	601938	keystroke_Key.enter	Key.enter	n/a
301.0635	5.832	602127	prompt	n/a	distributions you'll amino minds\n
301.7635	0.105	603527	keystroke_d	d	n/a
301.8535	0.12	603707	keystroke_i	i	n/a
301.9585	0.09	603917	keystroke_s	s	n/a
302.1085	0.105	604217	keystroke_t	t	n/a
302.1685	0.075	604337	keystroke_r	r	n/a
302.2885	0.091	604577	keystroke_i	i	n/a
302.4845	0.0745	604969	keystroke_b	b	n/a
302.619	0.09	605238	keystroke_u	u	n/a
302.739	0.12	605478	keystroke_t	t	n/a
302.814	0.2245	605628	keystroke_i	i	n/a
302.904	0.1195	605808	keystroke_o	o	n/a
302.964	0.1495	605928	keystroke_n	n	n/a
303.0685	0.15	606137	keystroke_s	s	n/a
303.1885	0.105	606377	keystroke_Key.space	Key.space	n/a
303.4135	0.09	606827	keystroke_y	y	n/a
303.5185	0.18	607037	keystroke_o	o	n/a
303.6235	0.15	607247	keystroke_u	u	n/a
303.8185	0.105	607637	keystroke_'	'	n/a
304.0735	0.06	608147	keystroke_l	l	n/a
304.2085	0.105	608417	keystroke_l	l	n/a
304.3885	0.105	608777	keystroke_Key.space	Key.space	n/a
304.6585	0.135	609317	keystroke_a	a	n/a
304.7635	0.09	609527	keystroke_m	m	n/a
304.8835	0.12	609767	keystroke_i	i	n/a
304.9735	0.09	609947	keystroke_n	n	n/a
305.1385	0.1055	610277	keystroke_o	o	n/a
305.318	0.1055	610636	keystroke_Key.space	Key.space	n/a
305.6185	0.075	611237	keystroke_m	m	n/a
305.8885	0.075	611777	keystroke_i	i	n/a
305.9485	0.105	611897	keystroke_n	n	n/a
306.4135	0.18	612827	keystroke_d	d	n/a
306.5185	0.12	613037	keystroke_s	s	n/a
306.7885	0.105	613577	keystroke_Key.enter	Key.enter	n/a
306.898	9.2215	613796	prompt	n/a	librarian doing inner recycling\n
307.644	0.089	615288	keystroke_l	l	n/a
307.809	0.089	615618	keystroke_i	i	n/a
307.959	0.104	615918	keystroke_b	b	n/a
308.093	0.121	616186	keystroke_r	r	n/a
308.228	0.15	616456	keystroke_a	a	n/a
308.393	0.105	616786	keystroke_r	r	n/a
308.513	0.21	617026	keystroke_i	i	n/a
308.603	0.15	617206	keystroke_o	o	n/a
308.769	0.119	617538	keystroke_n	n	n/a
308.963	0.105	617926	keystroke_Key.space	Key.space	n/a
309.158	0.1055	618316	keystroke_d	d	n/a
309.2785	0.06	618557	keystroke_o	o	n/a
309.4585	0.105	618917	keystroke_i	i	n/a
309.5335	0.105	619067	keystroke_n	n	n/a
309.6685	0.12	619337	keystroke_g	g	n/a
309.7585	0.12	619517	keystroke_Key.space	Key.space	n/a
310.6435	0.135	621287	keystroke_Key.backspace	Key.backspace	n/a
310.8685	0.03	621737	keystroke_Key.backspace	Key.backspace	n/a
311.0035	0.0595	622007	keystroke_Key.backspace	Key.backspace	n/a
311.138	0.06	622276	keystroke_Key.backspace	Key.backspace	n/a
311.2885	0.06	622577	keystroke_Key.backspace	Key.backspace	n/a
311.4535	0.06	622907	keystroke_Key.backspace	Key.backspace	n/a
311.5885	0.09	623177	keystroke_Key.backspace	Key.backspace	n/a
311.7685	0.075	623537	keystroke_Key.backspace	Key.backspace	n/a
311.993	0.075	623986	keystroke_Key.backspace	Key.backspace	n/a
312.683	0.135	625366	keystroke_a	a	n/a
312.758	0.105	625516	keystroke_n	n	n/a
312.893	0.09	625786	keystroke_Key.space	Key.space	n/a
312.998	0.12	625996	keystroke_d	d	n/a
313.073	0.075	626146	keystroke_o	o	n/a
313.238	0.12	626476	keystroke_i	i	n/a
313.298	0.135	626596	keystroke_n	n	n/a
313.418	0.1195	626836	keystroke_g	g	n/a
313.493	0.1495	626986	keystroke_Key.space	Key.space	n/a
313.7325	0.105	627465	keystroke_i	i	n/a
313.8225	0.06	627645	keystroke_n	n	n/a
313.958	0.075	627916	keystroke_n	n	n/a
314.153	0.135	628306	keystroke_e	e	n/a
314.228	0.135	628456	keystroke_r	r	n/a
314.333	0.12	628666	keystroke_Key.space	Key.space	n/a
314.618	0.105	629236	keystroke_r	r	n/a
314.678	0.104	629356	keystroke_e	e	n/a
314.873	0.105	629746	keystroke_c	c	n/a
315.128	0.075	630256	keystroke_y	y	n/a
315.338	0.105	630676	keystroke_c	c	n/a
315.503	0.075	631006	keystroke_l	l	n/a
315.698	0.15	631396	keystroke_i	i	n/a
315.773	0.105	631546	keystroke_n	n	n/a
315.833	0.0895	631666	keystroke_g	g	n/a
316.057	0.06	632114	keystroke_Key.enter	Key.enter	n/a
316.124	4.78	632248	prompt	n/a	writings fuel thru penny\n
316.9425	0.12	633885	keystroke_w	w	n/a
317.0925	0.105	634185	keystroke_r	r	n/a
317.2275	0.09	634455	keystroke_i	i	n/a
317.3325	0.075	634665	keystroke_t	t	n/a
317.4225	0.105	634845	keystroke_i	i	n/a
317.4825	0.105	634965	keystroke_n	n	n/a
317.5425	0.105	635085	keystroke_g	g	n/a
317.6325	0.15	635265	keystroke_s	s	n/a
317.7375	0.12	635475	keystroke_Key.space	Key.space	n/a
318.3075	0.135	636615	keystroke_f	f	n/a
318.4125	0.105	636825	keystroke_u	u	n/a
318.6075	0.09	637215	keystroke_e	e	n/a
318.7425	0.09	637485	keystroke_l	l	n/a
318.8625	0.105	637725	keystroke_Key.space	Key.space	n/a
319.2225	0.12	638445	keystroke_t	t	n/a
319.3575	0.0745	638715	keystroke_h	h	n/a
319.462	0.105	638924	keystroke_r	r	n/a
319.657	0.09	639314	keystroke_u	u	n/a
319.792	0.105	639584	keystroke_Key.space	Key.space	n/a
320.077	0.06	640154	keystroke_p	p	n/a
320.197	0.091	640394	keystroke_e	e	n/a
320.332	0.06	640664	keystroke_n	n	n/a
320.452	0.105	640904	keystroke_n	n	n/a
320.572	0.06	641144	keystroke_y	y	n/a
320.827	0.075	641654	keystroke_Key.enter	Key.enter	n/a
320.907	7.241	641814	prompt	n/a	mcdonald forced ensuring consequences\n
321.832	0.12	643664	keystroke_m	m	n/a
321.967	0.09	643934	keystroke_c	c	n/a
322.207	0.105	644414	keystroke_d	d	n/a
322.282	0.075	644564	keystroke_o	o	n/a
322.417	0.1055	644834	keystroke_n	n	n/a
322.5075	0.105	645015	keystroke_a	a	n/a
322.6425	0.105	645285	keystroke_l	l	n/a
322.8225	0.09	645645	keystroke_d	d	n/a
323.0025	0.0895	646005	keystroke_Key.space	Key.space	n/a
323.2425	0.12	646485	keystroke_f	f	n/a
323.4375	0.075	646875	keystroke_o	o	n/a
323.5425	0.06	647085	keystroke_r	r	n/a
323.7225	0.12	647445	keystroke_c	c	n/a
323.8875	0.075	647775	keystroke_e	e	n/a
324.0675	0.104	648135	keystroke_d	d	n/a
324.1565	0.121	648313	keystroke_Key.space	Key.space	n/a
324.4725	0.09	648945	keystroke_e	e	n/a
324.6825	0.135	649365	keystroke_n	n	n/a
325.2225	0.119	650445	keystroke_s	s	n/a
325.3565	0.106	650713	keystroke_u	u	n/a
325.4325	0.075	650865	keystroke_r	r	n/a
325.5365	0.136	651073	keystroke_i	i	n/a
325.6275	0.1345	651255	keystroke_n	n	n/a
325.6725	0.1045	651345	keystroke_g	g	n/a
325.7465	0.1355	651493	keystroke_Key.space	Key.space	n/a
326.167	0.09	652334	keystroke_c	c	n/a
326.242	0.075	652484	keystroke_o	o	n/a
326.407	0.09	652814	keystroke_n	n	n/a
326.527	0.12	653054	keystroke_s	s	n/a
326.827	0.0905	653654	keystroke_e	e	n/a
327.0515	0.075	654103	keystroke_q	q	n/a
327.2315	0.0905	654463	keystroke_u	u	n/a
327.367	0.09	654734	keystroke_e	e	n/a
327.502	0.09	655004	keystroke_n	n	n/a
327.577	0.12	655154	keystroke_c	c	n/a
327.652	0.135	655304	keystroke_e	e	n/a
327.742	0.12	655484	keystroke_s	s	n/a
328.0415	0.105	656083	keystroke_Key.enter	Key.enter	n/a
328.151	5.052	656302	prompt	n/a	jesse diamond feat mutual\n
328.7615	0.12	657523	keystroke_j	j	n/a
328.8515	0.105	657703	keystroke_e	e	n/a
329.0615	0.075	658123	keystroke_s	s	n/a
329.1965	0.165	658393	keystroke_s	s	n/a
329.3465	0.15	658693	keystroke_e	e	n/a
329.4365	0.12	658873	keystroke_Key.space	Key.space	n/a
329.6015	0.105	659203	keystroke_d	d	n/a
329.6915	0.09	659383	keystroke_i	i	n/a
329.7825	0.104	659565	keystroke_a	a	n/a
329.9015	0.09	659803	keystroke_m	m	n/a
330.0515	0.075	660103	keystroke_o	o	n/a
330.1865	0.12	660373	keystroke_n	n	n/a
330.7415	0.09	661483	keystroke_d	d	n/a
331.011	0.12	662022	keystroke_Key.space	Key.space	n/a
331.4165	0.12	662833	keystroke_f	f	n/a
331.6115	0.1495	663223	keystroke_e	e	n/a
331.701	0.105	663402	keystroke_a	a	n/a
331.851	0.105	663702	keystroke_t	t	n/a
331.926	0.135	663852	keystroke_Key.space	Key.space	n/a
332.091	0.061	664182	keystroke_m	m	n/a
332.257	0.074	664514	keystroke_u	u	n/a
332.302	0.0895	664604	keystroke_t	t	n/a
332.4365	0.12	664873	keystroke_u	u	n/a
332.5715	0.105	665143	keystroke_a	a	n/a
332.7215	0.09	665443	keystroke_l	l	n/a
333.1265	0.075	666253	keystroke_Key.enter	Key.enter	n/a
333.2065	6.866	666413	prompt	n/a	lanes arrangement sick encouraged\n
333.9365	0.135	667873	keystroke_l	l	n/a
334.0565	0.09	668113	keystroke_a	a	n/a
334.1615	0.105	668323	keystroke_n	n	n/a
334.2515	0.135	668503	keystroke_e	e	n/a
334.3265	0.105	668653	keystroke_s	s	n/a
334.4165	0.12	668833	keystroke_Key.space	Key.space	n/a
334.5515	0.075	669103	keystroke_a	a	n/a
334.7315	0.045	669463	keystroke_r	r	n/a
334.8365	0.105	669673	keystroke_r	r	n/a
334.9715	0.12	669943	keystroke_a	a	n/a
335.2415	0.09	670483	keystroke_g	g	n/a
335.3915	0.0745	670783	keystroke_e	e	n/a
336.1415	0.135	672283	keystroke_Key.backspace	Key.backspace	n/a
336.4715	0.06	672943	keystroke_Key.backspace	Key.backspace	n/a
336.7565	0.105	673513	keystroke_n	n	n/a
336.8765	0.1345	673753	keystroke_g	g	n/a
336.966	0.09	673932	keystroke_e	e	n/a
337.1465	0.09	674293	keystroke_m	m	n/a
337.2515	0.105	674503	keystroke_e	e	n/a
337.3415	0.075	674683	keystroke_n	n	n/a
337.3865	0.12	674773	keystroke_t	t	n/a
337.4765	0.12	674953	keystroke_Key.space	Key.space	n/a
337.6265	0.12	675253	keystroke_s	s	n/a
337.7165	0.075	675433	keystroke_i	i	n/a
337.8215	0.105	675643	keystroke_c	c	n/a
337.8965	0.12	675793	keystroke_k	k	n/a
338.0465	0.105	676093	keystroke_Key.space	Key.space	n/a
338.1365	0.12	676273	keystroke_e	e	n/a
338.4365	0.1195	676873	keystroke_n	n	n/a
338.631	0.15	677262	keystroke_c	c	n/a
338.766	0.165	677532	keystroke_o	o	n/a
338.871	0.135	677742	keystroke_u	u	n/a
339.036	0.105	678072	keystroke_r	r	n/a
339.216	0.09	678432	keystroke_a	a	n/a
339.366	0.09	678732	keystroke_g	g	n/a
339.426	0.12	678852	keystroke_e	e	n/a
339.681	0.1195	679362	keystroke_d	d	n/a
339.981	0.09	679962	keystroke_Key.enter	Key.enter	n/a
340.0765	6.2205	680153	prompt	n/a	appreciate stress couldn't specifications\n
340.701	0.12	681402	keystroke_a	a	n/a
340.866	0.06	681732	keystroke_p	p	n/a
340.971	0.105	681942	keystroke_p	p	n/a
341.091	0.105	682182	keystroke_r	r	n/a
341.166	0.09	682332	keystroke_e	e	n/a
341.331	0.12	682662	keystroke_c	c	n/a
341.511	0.12	683022	keystroke_i	i	n/a
341.616	0.15	683232	keystroke_a	a	n/a
341.721	0.12	683442	keystroke_t	t	n/a
341.811	0.12	683622	keystroke_e	e	n/a
341.901	0.12	683802	keystroke_Key.space	Key.space	n/a
342.1855	0.105	684371	keystroke_s	s	n/a
342.3655	0.135	684731	keystroke_t	t	n/a
342.4255	0.12	684851	keystroke_r	r	n/a
342.636	0.105	685272	keystroke_e	e	n/a
342.846	0.075	685692	keystroke_s	s	n/a
342.981	0.15	685962	keystroke_s	s	n/a
343.115	0.091	686230	keystroke_Key.space	Key.space	n/a
343.221	0.135	686442	keystroke_c	c	n/a
343.2805	0.21	686561	keystroke_o	o	n/a
343.4005	0.091	686801	keystroke_u	u	n/a
343.5055	0.12	687011	keystroke_l	l	n/a
343.6405	0.105	687281	keystroke_d	d	n/a
343.7605	0.09	687521	keystroke_n	n	n/a
343.8955	0.1505	687791	keystroke_'	'	n/a
344.136	0.105	688272	keystroke_t	t	n/a
344.2705	0.135	688541	keystroke_Key.space	Key.space	n/a
344.5705	0.105	689141	keystroke_s	s	n/a
344.6905	0.09	689381	keystroke_p	p	n/a
344.7655	0.1505	689531	keystroke_e	e	n/a
344.901	0.12	689802	keystroke_c	c	n/a
345.066	0.075	690132	keystroke_i	i	n/a
345.156	0.0745	690312	keystroke_f	f	n/a
345.246	0.1045	690492	keystroke_i	i	n/a
345.3355	0.1045	690671	keystroke_c	c	n/a
345.41	0.12	690820	keystroke_a	a	n/a
345.605	0.09	691210	keystroke_t	t	n/a
345.68	0.24	691360	keystroke_i	i	n/a
345.77	0.165	691540	keystroke_o	o	n/a
345.845	0.15	691690	keystroke_n	n	n/a
346.01	0.075	692020	keystroke_s	s	n/a
346.235	0.06	692470	keystroke_Key.enter	Key.enter	n/a
346.3	6.5215	692600	prompt	n/a	celebs norm following you've\n
347.0905	0.12	694181	keystroke_c	c	n/a
347.51	0.075	695020	keystroke_e	e	n/a
347.63	0.12	695260	keystroke_l	l	n/a
347.735	0.09	695470	keystroke_e	e	n/a
347.99	0.105	695980	keystroke_b	b	n/a
348.245	0.105	696490	keystroke_s	s	n/a
348.38	0.12	696760	keystroke_Key.space	Key.space	n/a
348.515	0.075	697030	keystroke_n	n	n/a
348.635	0.09	697270	keystroke_o	o	n/a
348.695	0.0905	697390	keystroke_r	r	n/a
348.8305	0.09	697661	keystroke_m	m	n/a
348.9505	0.075	697901	keystroke_s	s	n/a
349.37	0.075	698740	keystroke_Key.backspace	Key.backspace	n/a
349.745	0.12	699490	keystroke_Key.space	Key.space	n/a
349.91	0.12	699820	keystroke_f	f	n/a
350	0.075	700000	keystroke_o	o	n/a
350.165	0.06	700330	keystroke_l	l	n/a
350.285	0.075	700570	keystroke_l	l	n/a
350.465	0.06	700930	keystroke_o	o	n/a
350.526	0.089	701052	keystroke_w	w	n/a
350.645	0.1055	701290	keystroke_i	i	n/a
350.705	0.1055	701410	keystroke_n	n	n/a
350.7655	0.105	701531	keystroke_g	g	n/a
350.8255	0.15	701651	keystroke_Key.space	Key.space	n/a
351.41	0.09	702820	keystroke_y	y	n/a
351.515	0.165	703030	keystroke_o	o	n/a
351.605	0.15	703210	keystroke_u	u	n/a
352.295	0.12	704590	keystroke_'	'	n/a
352.385	0.12	704770	keystroke_v	v	n/a
352.445	0.105	704890	keystroke_e	e	n/a
352.73	0.09	705460	keystroke_Key.enter	Key.enter	n/a
352.8245	13.091	705649	prompt	n/a	partially condos brunette receives\n
353.6	0.12	707200	keystroke_p	p	n/a
353.705	0.165	707410	keystroke_a	a	n/a
353.81	0.075	707620	keystroke_r	r	n/a
353.96	0.09	707920	keystroke_t	t	n/a
354.05	0.075	708100	keystroke_i	i	n/a
354.17	0.075	708340	keystroke_a	a	n/a
354.26	0.06	708520	keystroke_l	l	n/a
354.395	0.105	708790	keystroke_l	l	n/a
354.485	0.09	708970	keystroke_y	y	n/a
354.665	0.12	709330	keystroke_Key.space	Key.space	n/a
355.355	0.135	710710	keystroke_c	c	n/a
355.505	0.06	711010	keystroke_o	o	n/a
355.64	0.09	711280	keystroke_n	n	n/a
355.7	0.09	711400	keystroke_d	d	n/a
355.85	0.075	711700	keystroke_o	o	n/a
355.985	0.09	711970	keystroke_s	s	n/a
356.18	0.0745	712360	keystroke_Key.space	Key.space	n/a
356.4345	0.105	712869	keystroke_b	b	n/a
356.5395	0.09	713079	keystroke_r	r	n/a
356.6145	0.09	713229	keystroke_u	u	n/a
356.7795	0.105	713559	keystroke_n	n	n/a
356.9145	0.075	713829	keystroke_e	e	n/a
357.2295	0.06	714459	keystroke_t	t	n/a
357.3345	0.09	714669	keystroke_t	t	n/a
357.4395	0.1355	714879	keystroke_e	e	n/a
357.56	0.12	715120	keystroke_Key.space	Key.space	n/a
357.695	0.105	715390	keystroke_r	r	n/a
357.77	0.105	715540	keystroke_e	e	n/a
357.965	0.12	715930	keystroke_c	c	n/a
358.145	0.105	716290	keystroke_e	e	n/a
358.3395	0.06	716679	keystroke_i	i	n/a
358.4745	0.21	716949	keystroke_e	e	n/a
358.4895	0.06	716979	keystroke_v	v	n/a
358.6095	0.15	717219	keystroke_s	s	n/a
359.5695	0.105	719139	keystroke_Key.backspace	Key.backspace	n/a
361.2335	0.09	722467	keystroke_Key.backspace	Key.backspace	n/a
361.399	0.1045	722798	keystroke_Key.backspace	Key.backspace	n/a
361.5935	0.09	723187	keystroke_Key.backspace	Key.backspace	n/a
362.0145	0.105	724029	keystroke_Key.backspace	Key.backspace	n/a
362.5695	0.075	725139	keystroke_Key.backspace	Key.backspace	n/a
363.424	0.135	726848	keystroke_c	c	n/a
363.739	0.09	727478	keystroke_e	e	n/a
363.859	0.12	727718	keystroke_i	i	n/a
363.994	0.105	727988	keystroke_v	v	n/a
364.114	0.135	728228	keystroke_e	e	n/a
364.159	0.15	728318	keystroke_s	s	n/a
364.6845	0.135	729369	keystroke_Key.space	Key.space	n/a
365.404	0.105	730808	keystroke_Key.backspace	Key.backspace	n/a
365.809	0.105	731618	keystroke_Key.enter	Key.enter	n/a
365.9205	4.6745	731841	prompt	n/a	seas exclusively plane not\n
366.574	0.06	733148	keystroke_s	s	n/a
366.949	0.12	733898	keystroke_e	e	n/a
367.054	0.165	734108	keystroke_a	a	n/a
367.189	0.165	734378	keystroke_s	s	n/a
367.309	0.15	734618	keystroke_Key.space	Key.space	n/a
367.474	0.09	734948	keystroke_e	e	n/a
367.669	0.105	735338	keystroke_x	x	n/a
367.894	0.1195	735788	keystroke_c	c	n/a
368.0285	0.09	736057	keystroke_l	l	n/a
368.2235	0.12	736447	keystroke_u	u	n/a
368.4035	0.12	736807	keystroke_s	s	n/a
368.5835	0.105	737167	keystroke_i	i	n/a
368.7035	0.075	737407	keystroke_v	v	n/a
368.8085	0.09	737617	keystroke_e	e	n/a
368.9135	0.1045	737827	keystroke_l	l	n/a
369.034	0.0895	738068	keystroke_y	y	n/a
369.0935	0.105	738187	keystroke_Key.space	Key.space	n/a
369.2735	0.135	738547	keystroke_p	p	n/a
369.3635	0.12	738727	keystroke_l	l	n/a
369.6035	0.12	739207	keystroke_a	a	n/a
369.7385	0.0905	739477	keystroke_n	n	n/a
369.858	0.121	739716	keystroke_e	e	n/a
369.948	0.12	739896	keystroke_Key.space	Key.space	n/a
370.129	0.075	740258	keystroke_n	n	n/a
370.263	0.09	740526	keystroke_o	o	n/a
370.338	0.091	740676	keystroke_t	t	n/a
370.488	0.105	740976	keystroke_Key.enter	Key.enter	n/a
370.598	4.557	741196	prompt	n/a	invitations he brunette mostly\n
371.254	0.104	742508	keystroke_i	i	n/a
371.329	0.119	742658	keystroke_n	n	n/a
371.494	0.105	742988	keystroke_v	v	n/a
371.613	0.091	743226	keystroke_i	i	n/a
371.883	0.106	743766	keystroke_t	t	n/a
372.139	0.105	744278	keystroke_a	a	n/a
372.228	0.105	744456	keystroke_t	t	n/a
372.318	0.195	744636	keystroke_i	i	n/a
372.408	0.09	744816	keystroke_o	o	n/a
372.453	0.135	744906	keystroke_n	n	n/a
372.573	0.135	745146	keystroke_s	s	n/a
372.678	0.12	745356	keystroke_Key.space	Key.space	n/a
372.873	0.12	745746	keystroke_h	h	n/a
372.978	0.12	745956	keystroke_e	e	n/a
373.038	0.135	746076	keystroke_Key.space	Key.space	n/a
373.188	0.12	746376	keystroke_b	b	n/a
373.323	0.09	746646	keystroke_r	r	n/a
373.428	0.09	746856	keystroke_u	u	n/a
373.563	0.105	747126	keystroke_n	n	n/a
373.683	0.09	747366	keystroke_e	e	n/a
373.923	0.06	747846	keystroke_t	t	n/a
374.043	0.105	748086	keystroke_t	t	n/a
374.178	0.1205	748356	keystroke_e	e	n/a
374.2985	0.105	748597	keystroke_Key.space	Key.space	n/a
374.4485	0.075	748897	keystroke_m	m	n/a
374.5835	0.09	749167	keystroke_o	o	n/a
374.6285	0.135	749257	keystroke_s	s	n/a
374.7185	0.105	749437	keystroke_t	t	n/a
374.8535	0.09	749707	keystroke_l	l	n/a
374.9585	0.06	749917	keystroke_y	y	n/a
375.0635	0.09	750127	keystroke_Key.enter	Key.enter	n/a
375.1575	4.947	750315	prompt	n/a	arrange friend signing lounge\n
375.768	0.12	751536	keystroke_a	a	n/a
375.963	0.075	751926	keystroke_r	r	n/a
376.083	0.105	752166	keystroke_r	r	n/a
376.218	0.09	752436	keystroke_a	a	n/a
376.338	0.12	752676	keystroke_n	n	n/a
376.428	0.075	752856	keystroke_g	g	n/a
376.473	0.12	752946	keystroke_e	e	n/a
376.608	0.105	753216	keystroke_Key.space	Key.space	n/a
376.923	0.15	753846	keystroke_f	f	n/a
377.148	0.0755	754296	keystroke_r	r	n/a
377.238	0.09	754476	keystroke_i	i	n/a
377.313	0.09	754626	keystroke_e	e	n/a
377.418	0.105	754836	keystroke_n	n	n/a
377.508	0.165	755016	keystroke_d	d	n/a
377.733	0.12	755466	keystroke_Key.space	Key.space	n/a
378.183	0.105	756366	keystroke_s	s	n/a
378.273	0.105	756546	keystroke_i	i	n/a
378.363	0.09	756726	keystroke_g	g	n/a
378.438	0.09	756876	keystroke_n	n	n/a
378.573	0.105	757146	keystroke_i	i	n/a
378.648	0.1055	757296	keystroke_n	n	n/a
378.7385	0.105	757477	keystroke_g	g	n/a
378.8135	0.135	757627	keystroke_Key.space	Key.space	n/a
379.0985	0.075	758197	keystroke_l	l	n/a
379.2785	0.15	758557	keystroke_o	o	n/a
379.3835	0.09	758767	keystroke_u	u	n/a
379.5485	0.12	759097	keystroke_n	n	n/a
379.6235	0.09	759247	keystroke_g	g	n/a
379.7725	0.091	759545	keystroke_e	e	n/a
380.0285	0.074	760057	keystroke_Key.enter	Key.enter	n/a
380.1075	8.1715	760215	prompt	n/a	onto containing obituaries wyoming\n
380.808	0.075	761616	keystroke_o	o	n/a
380.958	0.09	761916	keystroke_n	n	n/a
381.063	0.075	762126	keystroke_t	t	n/a
381.153	0.09	762306	keystroke_o	o	n/a
381.273	0.105	762546	keystroke_Key.space	Key.space	n/a
381.453	0.06	762906	keystroke_o	o	n/a
381.873	0.075	763746	keystroke_Key.backspace	Key.backspace	n/a
382.158	0.105	764316	keystroke_c	c	n/a
382.278	0.12	764556	keystroke_o	o	n/a
382.443	0.15	764886	keystroke_n	n	n/a
382.578	0.09	765156	keystroke_t	t	n/a
382.803	0.075	765606	keystroke_a	a	n/a
382.893	0.105	765786	keystroke_i	i	n/a
382.968	0.09	765936	keystroke_n	n	n/a
383.133	0.09	766266	keystroke_i	i	n/a
383.178	0.135	766356	keystroke_n	n	n/a
383.298	0.09	766596	keystroke_g	g	n/a
383.373	0.12	766746	keystroke_Key.space	Key.space	n/a
383.523	0.09	767046	keystroke_o	o	n/a
383.733	0.075	767466	keystroke_b	b	n/a
383.943	0.12	767886	keystroke_i	i	n/a
384.123	0.09	768246	keystroke_t	t	n/a
385.0975	0.09	770195	keystroke_u	u	n/a
385.7275	0.105	771455	keystroke_a	a	n/a
385.9225	0.06	771845	keystroke_r	r	n/a
386.0275	0.12	772055	keystroke_i	i	n/a
386.1175	0.15	772235	keystroke_e	e	n/a
386.2075	0.12	772415	keystroke_s	s	n/a
386.2825	0.135	772565	keystroke_Key.space	Key.space	n/a
386.4925	0.075	772985	keystroke_w	w	n/a
386.7325	0.075	773465	keystroke_y	y	n/a
386.8525	0.075	773705	keystroke_o	o	n/a
387.2125	0.0905	774425	keystroke_m	m	n/a
387.438	0.1195	774876	keystroke_i	i	n/a
387.498	0.1345	774996	keystroke_n	n	n/a
387.6475	0.075	775295	keystroke_g	g	n/a
388.172	0.105	776344	keystroke_Key.enter	Key.enter	n/a
388.2815	7.8275	776563	prompt	n/a	isaac bathroom analysts planners\n
389.132	0.1205	778264	keystroke_i	i	n/a
389.222	0.0755	778444	keystroke_s	s	n/a
389.4025	0.075	778805	keystroke_a	a	n/a
389.7475	0.045	779495	keystroke_c	c	n/a
390.1075	0.135	780215	keystroke_a	a	n/a
390.497	0.105	780994	keystroke_Key.backspace	Key.backspace	n/a
390.692	0.075	781384	keystroke_Key.backspace	Key.backspace	n/a
390.797	0.18	781594	keystroke_a	a	n/a
390.932	0.135	781864	keystroke_c	c	n/a
391.472	0.105	782944	keystroke_Key.space	Key.space	n/a
391.7125	0.105	783425	keystroke_b	b	n/a
391.787	0.0905	783574	keystroke_a	a	n/a
391.922	0.105	783844	keystroke_t	t	n/a
392.042	0.12	784084	keystroke_h	h	n/a
392.147	0.09	784294	keystroke_r	r	n/a
392.3125	0.06	784625	keystroke_o	o	n/a
392.4625	0.12	784925	keystroke_o	o	n/a
392.5375	0.12	785075	keystroke_m	m	n/a
392.6875	0.12	785375	keystroke_Key.space	Key.space	n/a
393.0475	0.0895	786095	keystroke_a	a	n/a
393.152	0.0905	786304	keystroke_n	n	n/a
393.2275	0.075	786455	keystroke_a	a	n/a
393.572	0.105	787144	keystroke_l	l	n/a
393.707	0.0905	787414	keystroke_y	y	n/a
393.9775	0.075	787955	keystroke_s	s	n/a
394.3525	0.12	788705	keystroke_t	t	n/a
394.5625	0.105	789125	keystroke_s	s	n/a
394.6815	0.136	789363	keystroke_Key.space	Key.space	n/a
394.9525	0.12	789905	keystroke_p	p	n/a
395.0125	0.135	790025	keystroke_l	l	n/a
395.1775	0.1195	790355	keystroke_a	a	n/a
395.312	0.06	790624	keystroke_n	n	n/a
395.462	0.09	790924	keystroke_n	n	n/a
395.567	0.135	791134	keystroke_e	e	n/a
395.642	0.135	791284	keystroke_r	r	n/a
395.747	0.12	791494	keystroke_s	s	n/a
396.032	0.075	792064	keystroke_Key.enter	Key.enter	n/a
396.112	5.336	792224	prompt	n/a	excel evaluate trees images\n
396.9325	0.09	793865	keystroke_e	e	n/a
397.2325	0.0895	794465	keystroke_x	x	n/a
397.427	0.12	794854	keystroke_c	c	n/a
397.502	0.105	795004	keystroke_e	e	n/a
397.652	0.12	795304	keystroke_l	l	n/a
397.787	0.12	795574	keystroke_Key.space	Key.space	n/a
398.072	0.09	796144	keystroke_e	e	n/a
398.267	0.075	796534	keystroke_v	v	n/a
398.417	0.1055	796834	keystroke_a	a	n/a
398.5365	0.105	797073	keystroke_l	l	n/a
398.7475	0.089	797495	keystroke_u	u	n/a
398.8815	0.15	797763	keystroke_a	a	n/a
399.1075	0.1195	798215	keystroke_t	t	n/a
399.1825	0.104	798365	keystroke_e	e	n/a
399.2715	0.12	798543	keystroke_Key.space	Key.space	n/a
399.6915	0.09	799383	keystroke_t	t	n/a
399.872	0.09	799744	keystroke_r	r	n/a
400.022	0.075	800044	keystroke_e	e	n/a
400.172	0.09	800344	keystroke_e	e	n/a
400.352	0.135	800704	keystroke_s	s	n/a
400.457	0.1345	800914	keystroke_Key.space	Key.space	n/a
400.6065	0.12	801213	keystroke_i	i	n/a
400.6815	0.1655	801363	keystroke_m	m	n/a
400.7415	0.1195	801483	keystroke_a	a	n/a
400.876	0.12	801752	keystroke_g	g	n/a
400.966	0.135	801932	keystroke_e	e	n/a
401.041	0.15	802082	keystroke_s	s	n/a
401.371	0.075	802742	keystroke_Key.enter	Key.enter	n/a
401.451	7.557	802902	prompt	n/a	controls metropolitan threatening pmid\n
402.167	0.1195	804334	keystroke_c	c	n/a
402.2565	0.06	804513	keystroke_o	o	n/a
402.3765	0.105	804753	keystroke_n	n	n/a
402.4665	0.12	804933	keystroke_t	t	n/a
402.527	0.0895	805054	keystroke_r	r	n/a
402.6015	0.06	805203	keystroke_o	o	n/a
402.7215	0.105	805443	keystroke_l	l	n/a
402.8115	0.135	805623	keystroke_s	s	n/a
402.9015	0.15	805803	keystroke_Key.space	Key.space	n/a
403.1565	0.0905	806313	keystroke_m	m	n/a
403.232	0.09	806464	keystroke_e	e	n/a
403.367	0.135	806734	keystroke_t	t	n/a
403.457	0.105	806914	keystroke_r	r	n/a
403.547	0.09	807094	keystroke_o	o	n/a
403.787	0.105	807574	keystroke_p	p	n/a
404.012	0.09	808024	keystroke_o	o	n/a
404.177	0.075	808354	keystroke_l	l	n/a
404.357	0.105	808714	keystroke_i	i	n/a
404.672	0.09	809344	keystroke_t	t	n/a
404.807	0.105	809614	keystroke_a	a	n/a
404.912	0.12	809824	keystroke_n	n	n/a
405.046	0.076	810092	keystroke_Key.space	Key.space	n/a
405.227	0.1045	810454	keystroke_t	t	n/a
405.3015	0.12	810603	keystroke_h	h	n/a
405.3915	0.135	810783	keystroke_r	r	n/a
405.4965	0.135	810993	keystroke_e	e	n/a
405.5715	0.135	811143	keystroke_a	a	n/a
405.7815	0.09	811563	keystroke_t	t	n/a
405.9915	0.09	811983	keystroke_e	e	n/a
406.1415	0.075	812283	keystroke_n	n	n/a
406.2765	0.105	812553	keystroke_i	i	n/a
406.3515	0.105	812703	keystroke_n	n	n/a
406.4415	0.105	812883	keystroke_g	g	n/a
406.5015	0.105	813003	keystroke_Key.space	Key.space	n/a
406.6965	0.09	813393	keystroke_p	p	n/a
406.7415	0.03	813483	keystroke_o	o	n/a
407.042	0.105	814084	keystroke_m	m	n/a
407.687	0.03	815374	keystroke_Key.backspace	Key.backspace	n/a
407.777	0.09	815554	keystroke_Key.backspace	Key.backspace	n/a
408.047	0.075	816094	keystroke_m	m	n/a
408.197	0.06	816394	keystroke_i	i	n/a
408.287	0.09	816574	keystroke_d	d	n/a
408.932	0.075	817864	keystroke_Key.enter	Key.enter	n/a
409.011	12.6415	818022	prompt	n/a	physical tomato mortgages complications\n
409.682	0.09	819364	keystroke_p	p	n/a
409.892	0.105	819784	keystroke_h	h	n/a
410.0115	0.075	820023	keystroke_y	y	n/a
410.2065	0.0745	820413	keystroke_s	s	n/a
410.311	0.12	820622	keystroke_i	i	n/a
410.491	0.12	820982	keystroke_c	c	n/a
410.566	0.1205	821132	keystroke_a	a	n/a
410.7015	0.075	821403	keystroke_l	l	n/a
410.881	0.09	821762	keystroke_Key.space	Key.space	n/a
411.211	0.075	822422	keystroke_t	t	n/a
411.256	0.075	822512	keystroke_o	o	n/a
411.316	0.105	822632	keystroke_m	m	n/a
411.466	0.105	822932	keystroke_o	o	n/a
412.501	0.075	825002	keystroke_Key.backspace	Key.backspace	n/a
412.9965	0.1195	825993	keystroke_a	a	n/a
413.1915	0.09	826383	keystroke_t	t	n/a
413.312	0.09	826624	keystroke_o	o	n/a
413.5515	0.1195	827103	keystroke_Key.space	Key.space	n/a
413.836	0.09	827672	keystroke_m	m	n/a
414.016	0.075	828032	keystroke_o	o	n/a
414.121	0.09	828242	keystroke_r	r	n/a
414.286	0.09	828572	keystroke_t	t	n/a
414.436	0.12	828872	keystroke_a	a	n/a
414.541	0.135	829082	keystroke_g	g	n/a
414.691	0.1655	829382	keystroke_e	e	n/a
414.781	0.1355	829562	keystroke_s	s	n/a
414.8565	0.1345	829713	keystroke_Key.space	Key.space	n/a
415.021	0.105	830042	keystroke_c	c	n/a
415.111	0.18	830222	keystroke_o	o	n/a
415.261	0.105	830522	keystroke_m	m	n/a
417.331	0.105	834662	keystroke_Key.backspace	Key.backspace	n/a
417.511	0.0745	835022	keystroke_Key.backspace	Key.backspace	n/a
417.6605	0.076	835321	keystroke_Key.backspace	Key.backspace	n/a
417.8115	0.075	835623	keystroke_Key.backspace	Key.backspace	n/a
417.9615	0.06	835923	keystroke_Key.backspace	Key.backspace	n/a
418.1115	0.06	836223	keystroke_Key.backspace	Key.backspace	n/a
418.2615	0.074	836523	keystroke_Key.backspace	Key.backspace	n/a
418.4415	0.075	836883	keystroke_Key.backspace	Key.backspace	n/a
418.6515	0.12	837303	keystroke_g	g	n/a
418.7565	0.1195	837513	keystroke_a	a	n/a
418.8615	0.1345	837723	keystroke_g	g	n/a
419.026	0.15	838052	keystroke_e	e	n/a
419.116	0.105	838232	keystroke_s	s	n/a
419.191	0.12	838382	keystroke_Key.space	Key.space	n/a
419.581	0.12	839162	keystroke_c	c	n/a
420.136	0.1205	840272	keystroke_o	o	n/a
420.226	0.0605	840452	keystroke_m	m	n/a
420.3765	0.105	840753	keystroke_p	p	n/a
420.4355	0.091	840871	keystroke_l	l	n/a
420.6465	0.0745	841293	keystroke_i	i	n/a
420.736	0.105	841472	keystroke_c	c	n/a
420.811	0.12	841622	keystroke_a	a	n/a
421.0065	0.089	842013	keystroke_t	t	n/a
421.0975	0.224	842195	keystroke_i	i	n/a
421.1865	0.12	842373	keystroke_o	o	n/a
421.246	0.1495	842492	keystroke_n	n	n/a
421.3515	0.119	842703	keystroke_s	s	n/a
421.591	0.06	843182	keystroke_Key.enter	Key.enter	n/a
421.658	5.3495	843316	prompt	n/a	calling attributes adjust mining\n
422.446	0.135	844892	keystroke_c	c	n/a
422.551	0.12	845102	keystroke_a	a	n/a
422.701	0.075	845402	keystroke_l	l	n/a
422.851	0.09	845702	keystroke_l	l	n/a
423.046	0.105	846092	keystroke_i	i	n/a
423.091	0.15	846182	keystroke_n	n	n/a
423.181	0.105	846362	keystroke_g	g	n/a
423.256	0.105	846512	keystroke_Key.space	Key.space	n/a
423.376	0.105	846752	keystroke_a	a	n/a
423.601	0.06	847202	keystroke_t	t	n/a
423.721	0.1045	847442	keystroke_t	t	n/a
423.9005	0.105	847801	keystroke_r	r	n/a
424.0205	0.12	848041	keystroke_i	i	n/a
424.2455	0.105	848491	keystroke_b	b	n/a
424.3655	0.12	848731	keystroke_u	u	n/a
424.5005	0.15	849001	keystroke_t	t	n/a
424.5755	0.18	849151	keystroke_e	e	n/a
424.6805	0.135	849361	keystroke_s	s	n/a
424.8005	0.105	849601	keystroke_Key.space	Key.space	n/a
424.9205	0.18	849841	keystroke_a	a	n/a
425.0555	0.135	850111	keystroke_d	d	n/a
425.1755	0.09	850351	keystroke_j	j	n/a
425.3255	0.12	850651	keystroke_u	u	n/a
425.4005	0.15	850801	keystroke_s	s	n/a
425.4905	0.135	850981	keystroke_t	t	n/a
425.5655	0.135	851131	keystroke_Key.space	Key.space	n/a
426.0605	0.09	852121	keystroke_m	m	n/a
426.1955	0.09	852391	keystroke_i	i	n/a
426.2705	0.075	852541	keystroke_n	n	n/a
426.3905	0.105	852781	keystroke_i	i	n/a
426.4655	0.105	852931	keystroke_n	n	n/a
426.6755	0.09	853351	keystroke_g	g	n/a
426.916	0.09	853832	keystroke_Key.enter	Key.enter	n/a
427.0105	7.466	854021	prompt	n/a	developed creature eggs fare\n
427.6505	0.09	855301	keystroke_d	d	n/a
427.8155	0.075	855631	keystroke_e	e	n/a
427.9655	0.06	855931	keystroke_c	c	n/a
428.0105	0.12	856021	keystroke_e	e	n/a
428.1755	0.105	856351	keystroke_l	l	n/a
428.3705	0.1805	856741	keystroke_o	o	n/a
428.461	0.135	856922	keystroke_p	p	n/a
428.641	0.105	857282	keystroke_e	e	n/a
429.0755	0.075	858151	keystroke_Key.backspace	Key.backspace	n/a
429.2405	0.0595	858481	keystroke_Key.backspace	Key.backspace	n/a
429.3905	0.06	858781	keystroke_Key.backspace	Key.backspace	n/a
429.5405	0.06	859081	keystroke_Key.backspace	Key.backspace	n/a
429.6755	0.075	859351	keystroke_Key.backspace	Key.backspace	n/a
429.8395	0.076	859679	keystroke_Key.backspace	Key.backspace	n/a
429.9905	0.105	859981	keystroke_v	v	n/a
430.2755	0.015	860551	keystroke_e	e	n/a
430.3655	0.12	860731	keystroke_l	l	n/a
430.7405	0.18	861481	keystroke_o	o	n/a
430.8155	0.105	861631	keystroke_p	p	n/a
430.9805	0.105	861961	keystroke_e	e	n/a
431.2055	0.12	862411	keystroke_d	d	n/a
431.2805	0.104	862561	keystroke_Key.space	Key.space	n/a
431.4455	0.105	862891	keystroke_c	c	n/a
431.7005	0.165	863401	keystroke_r	r	n/a
431.8205	0.15	863641	keystroke_e	e	n/a
431.9105	0.12	863821	keystroke_a	a	n/a
432.0905	0.12	864181	keystroke_t	t	n/a
432.4055	0.15	864811	keystroke_u	u	n/a
432.5405	0.135	865081	keystroke_r	r	n/a
432.6305	0.12	865261	keystroke_e	e	n/a
432.7355	0.135	865471	keystroke_Key.space	Key.space	n/a
432.9005	0.105	865801	keystroke_e	e	n/a
433.1105	0.06	866221	keystroke_g	g	n/a
433.26	0.09	866520	keystroke_g	g	n/a
433.425	0.165	866850	keystroke_s	s	n/a
433.56	0.12	867120	keystroke_Key.space	Key.space	n/a
433.755	0.12	867510	keystroke_f	f	n/a
433.9055	0.105	867811	keystroke_a	a	n/a
434.0555	0.12	868111	keystroke_r	r	n/a
434.1155	0.135	868231	keystroke_e	e	n/a
434.4155	0.06	868831	keystroke_Key.enter	Key.enter	n/a
434.48	6.5965	868960	prompt	n/a	layout titles depot rankings\n
435.5555	0.12	871111	keystroke_l	l	n/a
435.6305	0.165	871261	keystroke_a	a	n/a
435.765	0.105	871530	keystroke_y	y	n/a
435.885	0.135	871770	keystroke_o	o	n/a
435.975	0.12	871950	keystroke_u	u	n/a
436.08	0.105	872160	keystroke_t	t	n/a
436.155	0.1655	872310	keystroke_Key.space	Key.space	n/a
436.905	0.075	873810	keystroke_t	t	n/a
437.01	0.0905	874020	keystroke_i	i	n/a
437.0705	0.105	874141	keystroke_t	t	n/a
437.2505	0.105	874501	keystroke_l	l	n/a
437.3705	0.195	874741	keystroke_e	e	n/a
437.4605	0.135	874921	keystroke_s	s	n/a
437.6095	0.1055	875219	keystroke_Key.space	Key.space	n/a
437.775	0.075	875550	keystroke_d	d	n/a
437.925	0.09	875850	keystroke_e	e	n/a
438.075	0.015	876150	keystroke_p	p	n/a
438.225	0.03	876450	keystroke_p	p	n/a
438.99	0.075	877980	keystroke_Key.backspace	Key.backspace	n/a
439.2605	0.09	878521	keystroke_o	o	n/a
439.4255	0.105	878851	keystroke_t	t	n/a
439.5605	0.105	879121	keystroke_Key.space	Key.space	n/a
439.7705	0.105	879541	keystroke_r	r	n/a
439.8605	0.105	879721	keystroke_a	a	n/a
439.9345	0.136	879869	keystroke_n	n	n/a
440.0255	0.09	880051	keystroke_k	k	n/a
440.2205	0.165	880441	keystroke_i	i	n/a
440.3705	0.09	880741	keystroke_n	n	n/a
440.6255	0.1195	881251	keystroke_g	g	n/a
440.76	0.105	881520	keystroke_s	s	n/a
440.985	0.09	881970	keystroke_Key.enter	Key.enter	n/a
441.082	7.2095	882164	prompt	n/a	identical performance transition alternative\n
441.81	0.09	883620	keystroke_i	i	n/a
441.885	0.075	883770	keystroke_d	d	n/a
442.035	0.09	884070	keystroke_e	e	n/a
442.14	0.105	884280	keystroke_n	n	n/a
442.23	0.09	884460	keystroke_t	t	n/a
442.365	0.1345	884730	keystroke_i	i	n/a
442.4845	0.1505	884969	keystroke_c	c	n/a
442.605	0.09	885210	keystroke_a	a	n/a
442.725	0.09	885450	keystroke_l	l	n/a
442.845	0.12	885690	keystroke_Key.space	Key.space	n/a
443.2045	0.0755	886409	keystroke_p	p	n/a
443.5055	0.1345	887011	keystroke_e	e	n/a
443.595	0.135	887190	keystroke_r	r	n/a
443.835	0.09	887670	keystroke_f	f	n/a
444.03	0.075	888060	keystroke_o	o	n/a
444.1495	0.09	888299	keystroke_r	r	n/a
444.3445	0.09	888689	keystroke_m	m	n/a
444.4795	0.105	888959	keystroke_a	a	n/a
444.6145	0.12	889229	keystroke_n	n	n/a
444.7195	0.135	889439	keystroke_c	c	n/a
444.7945	0.1805	889589	keystroke_e	e	n/a
444.93	0.165	889860	keystroke_Key.space	Key.space	n/a
445.08	0.12	890160	keystroke_t	t	n/a
445.14	0.1195	890280	keystroke_r	r	n/a
445.3345	0.1355	890669	keystroke_a	a	n/a
445.485	0.12	890970	keystroke_n	n	n/a
445.665	0.135	891330	keystroke_s	s	n/a
445.86	0.09	891720	keystroke_i	i	n/a
445.98	0.075	891960	keystroke_t	t	n/a
446.04	0.18	892080	keystroke_i	i	n/a
446.1	0.105	892200	keystroke_o	o	n/a
446.175	0.135	892350	keystroke_n	n	n/a
446.295	0.12	892590	keystroke_Key.space	Key.space	n/a
446.565	0.09	893130	keystroke_a	a	n/a
446.685	0.09	893370	keystroke_l	l	n/a
446.79	0.09	893580	keystroke_t	t	n/a
446.925	0.12	893850	keystroke_e	e	n/a
447	0.1045	894000	keystroke_r	r	n/a
447.1795	0.12	894359	keystroke_n	n	n/a
447.4495	0.12	894899	keystroke_a	a	n/a
447.6895	0.06	895379	keystroke_t	t	n/a
447.8545	0.075	895709	keystroke_i	i	n/a
447.9145	0.12	895829	keystroke_v	v	n/a
447.9895	0.135	895979	keystroke_e	e	n/a
448.2295	0.06	896459	keystroke_Key.enter	Key.enter	n/a
448.294	6.477	896588	prompt	n/a	optional janet environment factory\n
449.295	0.18	898590	keystroke_o	o	n/a
449.37	0.12	898740	keystroke_p	p	n/a
449.595	0.09	899190	keystroke_t	t	n/a
449.67	0.2245	899340	keystroke_i	i	n/a
449.7295	0.135	899459	keystroke_o	o	n/a
449.8345	0.135	899669	keystroke_n	n	n/a
449.9845	0.105	899969	keystroke_a	a	n/a
450.0745	0.165	900149	keystroke_l	l	n/a
450.1945	0.105	900389	keystroke_Key.space	Key.space	n/a
450.3745	0.105	900749	keystroke_j	j	n/a
450.4805	0.119	900961	keystroke_a	a	n/a
450.5845	0.135	901169	keystroke_n	n	n/a
450.7045	0.166	901409	keystroke_e	e	n/a
450.8395	0.135	901679	keystroke_t	t	n/a
450.9445	0.12	901889	keystroke_Key.space	Key.space	n/a
451.1095	0.09	902219	keystroke_e	e	n/a
451.245	0.105	902490	keystroke_n	n	n/a
451.365	0.09	902730	keystroke_v	v	n/a
451.47	0.0895	902940	keystroke_i	i	n/a
451.6045	0.06	903209	keystroke_r	r	n/a
451.7245	0.06	903449	keystroke_o	o	n/a
451.8745	0.105	903749	keystroke_n	n	n/a
452.955	0.0895	905910	keystroke_m	m	n/a
453.1495	0.09	906299	keystroke_e	e	n/a
453.2405	0.104	906481	keystroke_n	n	n/a
453.3295	0.09	906659	keystroke_t	t	n/a
453.4045	0.12	906809	keystroke_Key.space	Key.space	n/a
453.7045	0.09	907409	keystroke_f	f	n/a
453.8395	0.165	907679	keystroke_a	a	n/a
453.9445	0.09	907889	keystroke_c	c	n/a
454.1545	0.06	908309	keystroke_t	t	n/a
454.2595	0.105	908519	keystroke_o	o	n/a
454.3345	0.09	908669	keystroke_r	r	n/a
454.5445	0.075	909089	keystroke_y	y	n/a
454.7095	0.06	909419	keystroke_Key.enter	Key.enter	n/a
454.775	5.726	909550	prompt	n/a	manor trees injection techniques\n
455.46	0.09	910920	keystroke_m	m	n/a
455.535	0.105	911070	keystroke_a	a	n/a
455.64	0.059	911280	keystroke_n	n	n/a
455.774	0.075	911548	keystroke_o	o	n/a
455.864	0.12	911728	keystroke_r	r	n/a
455.969	0.12	911938	keystroke_Key.space	Key.space	n/a
456.194	0.09	912388	keystroke_t	t	n/a
456.344	0.105	912688	keystroke_r	r	n/a
456.524	0.06	913048	keystroke_e	e	n/a
456.644	0.09	913288	keystroke_e	e	n/a
456.869	0.105	913738	keystroke_s	s	n/a
457.0495	0.045	914099	keystroke_Key.space	Key.space	n/a
457.1245	0.135	914249	keystroke_i	i	n/a
457.2145	0.075	914429	keystroke_n	n	n/a
457.4095	0.12	914819	keystroke_j	j	n/a
457.6195	0.1345	915239	keystroke_e	e	n/a
457.664	0.135	915328	keystroke_c	c	n/a
457.934	0.0905	915868	keystroke_t	t	n/a
457.9645	0.21	915929	keystroke_i	i	n/a
458.0395	0.12	916079	keystroke_o	o	n/a
458.1145	0.135	916229	keystroke_n	n	n/a
458.2345	0.105	916469	keystroke_Key.space	Key.space	n/a
458.429	0.075	916858	keystroke_t	t	n/a
458.519	0.06	917038	keystroke_e	e	n/a
458.669	0.12	917338	keystroke_c	c	n/a
458.774	0.09	917548	keystroke_h	h	n/a
458.984	0.06	917968	keystroke_n	n	n/a
459.1795	0.0745	918359	keystroke_i	i	n/a
459.674	0.12	919348	keystroke_q	q	n/a
459.899	0.105	919798	keystroke_u	u	n/a
459.989	0.165	919978	keystroke_e	e	n/a
460.079	0.135	920158	keystroke_s	s	n/a
460.394	0.105	920788	keystroke_Key.enter	Key.enter	n/a
460.504	4.3465	921008	prompt	n/a	plane ringtone pets error\n
461.5195	0.09	923039	keystroke_p	p	n/a
461.5645	0.09	923129	keystroke_l	l	n/a
461.6695	0.12	923339	keystroke_a	a	n/a
461.8045	0.0745	923609	keystroke_n	n	n/a
461.894	0.09	923788	keystroke_e	e	n/a
461.954	0.105	923908	keystroke_Key.space	Key.space	n/a
462.104	0.09	924208	keystroke_r	r	n/a
462.149	0.12	924298	keystroke_i	i	n/a
462.224	0.12	924448	keystroke_n	n	n/a
462.329	0.105	924658	keystroke_g	g	n/a
462.674	0.06	925348	keystroke_t	t	n/a
462.764	0.12	925528	keystroke_o	o	n/a
462.869	0.105	925738	keystroke_n	n	n/a
463.034	0.105	926068	keystroke_e	e	n/a
463.199	0.1055	926398	keystroke_Key.space	Key.space	n/a
463.3945	0.09	926789	keystroke_p	p	n/a
463.4695	0.135	926939	keystroke_e	e	n/a
463.5595	0.12	927119	keystroke_t	t	n/a
463.6945	0.135	927389	keystroke_s	s	n/a
463.8145	0.1345	927629	keystroke_Key.space	Key.space	n/a
464.024	0.09	928048	keystroke_e	e	n/a
464.219	0.045	928438	keystroke_r	r	n/a
464.339	0.06	928678	keystroke_r	r	n/a
464.414	0.12	928828	keystroke_o	o	n/a
