onset	duration	sample	value	key	prompt_text
2.262	12.2125	4524	prompt	n/a	the quick brown fox jumps over a lazy dog\n
4.2315	0.093	8463	keystroke	t	n/a
4.4165	0.09	8833	keystroke	h	n/a
4.5465	0.118	9093	keystroke	e	n/a
4.6865	0.068	9373	keystroke	Key.space	n/a
4.9035	0.137	9807	keystroke	q	n/a
5.1235	0.091	10247	keystroke	u	n/a
5.3035	0.09	10607	keystroke	i	n/a
5.4915	0.09	10983	keystroke	c	n/a
5.6585	0.139	11317	keystroke	k	n/a
5.7985	0.111	11597	keystroke	Key.space	n/a
6.0165	0.069	12033	keystroke	b	n/a
6.1195	0.138	12239	keystroke	r	n/a
6.2585	0.11	12517	keystroke	o	n/a
6.4105	0.137	12821	keystroke	w	n/a
6.5245	0.155	13049	keystroke	n	n/a
6.7015	0.069	13403	keystroke	Key.space	n/a
6.8455	0.112	13691	keystroke	f	n/a
7.0035	0.115	14007	keystroke	o	n/a
7.3245	0.093	14649	keystroke	x	n/a
7.3485	0.071	14697	keystroke	c	n/a
7.9525	0.113	15905	keystroke	Key.backspace	n/a
8.3465	0.137	16693	keystroke	Key.space	n/a
8.6795	0.09	17359	keystroke	j	n/a
8.8335	0.067	17667	keystroke	u	n/a
9.0475	0.069	18095	keystroke	m	n/a
9.2205	0.09	18441	keystroke	p	n/a
9.3335	0.114	18667	keystroke	s	n/a
9.3575	0.113	18715	keystroke	Key.space	n/a
9.5005	0.116	19001	keystroke	o	n/a
9.7595	0.09	19519	keystroke	b	n/a
9.8725	0.115	19745	keystroke	e	n/a
10.0825	0.094	20165	keystroke	r	n/a
10.1295	0.115	20259	keystroke	Key.space	n/a
10.428	0.09	20856	keystroke	Key.backspace	n/a
10.604	0.07	21208	keystroke	Key.backspace	n/a
10.765	0.047	21530	keystroke	Key.backspace	n/a
10.892	0.071	21784	keystroke	Key.backspace	n/a
11.4685	0.0925	22937	keystroke	v	n/a
11.584	0.088	23168	keystroke	e	n/a
11.764	0.09	23528	keystroke	r	n/a
11.83	0.092	23660	keystroke	Key.space	n/a
11.965	0.069	23930	keystroke	t	n/a
12.128	0.089	24256	keystroke	h	n/a
12.218	0.07	24436	keystroke	e	n/a
12.265	0.113	24530	keystroke	Key.space	n/a
12.43	0.09	24860	keystroke	l	n/a
12.521	0.135	25042	keystroke	a	n/a
13.046	0.157	26092	keystroke	z	n/a
13.179	0.116	26358	keystroke	y	n/a
13.296	0.114	26592	keystroke	Key.space	n/a
13.561	0.138	27122	keystroke	d	n/a
13.754	0.136	27508	keystroke	o	n/a
14.11	0.093	28220	keystroke	g	n/a
14.38	0.092	28760	keystroke	Key.enter	n/a
14.4795	9.441	28959	prompt	n/a	israel madrid would norfolk\n
16.062	0.046	32124	keystroke	s	n/a
16.389	0.116	32778	keystroke	Key.backspace	n/a
16.6	0.112	33200	keystroke	i	n/a
16.734	0.112	33468	keystroke	s	n/a
17.006	0.137	34012	keystroke	r	n/a
17.22	0.115	34440	keystroke	e	n/a
17.481	0.157	34962	keystroke	a	n/a
17.691	0.181	35382	keystroke	l	n/a
17.895	0.158	35790	keystroke	Key.space	n/a
18.31	0.135	36620	keystroke	m	n/a
18.446	0.111	36892	keystroke	a	n/a
18.637	0.092	37274	keystroke	d	n/a
18.848	0.091	37696	keystroke	r	n/a
18.96	0.068	37920	keystroke	i	n/a
19.105	0.137	38210	keystroke	d	n/a
19.263	0.115	38526	keystroke	Key.space	n/a
19.732	0.112	39464	keystroke	w	n/a
19.873	0.183	39746	keystroke	o	n/a
20.057	0.091	40114	keystroke	u	n/a
20.256	0.14	40512	keystroke	l	n/a
20.397	0.112	40794	keystroke	d	n/a
20.54	0.138	41080	keystroke	Key.space	n/a
21.754	0.09	43508	keystroke	n	n/a
21.9325	0.09	43865	keystroke	o	n/a
22.0865	0.1135	44173	keystroke	r	n/a
22.5535	0.182	45107	keystroke	f	n/a
22.7705	0.136	45541	keystroke	o	n/a
22.9545	0.158	45909	keystroke	l	n/a
23.4775	0.158	46955	keystroke	k	n/a
23.8045	0.114	47609	keystroke	Key.enter	n/a
23.9245	12.4975	47849	prompt	n/a	cincinnati suggesting browsers sellers\n
25.0515	0.116	50103	keystroke	c	n/a
25.0965	0.046	50193	keystroke	v	n/a
25.1685	0.113	50337	keystroke	i	n/a
25.8455	0.114	51691	keystroke	Key.backspace	n/a
26.0495	0.069	52099	keystroke	Key.backspace	n/a
26.4455	0.09	52891	keystroke	i	n/a
26.6515	0.092	53303	keystroke	n	n/a
26.7755	0.091	53551	keystroke	c	n/a
26.9825	0.114	53965	keystroke	i	n/a
27.2745	0.114	54549	keystroke	n	n/a
29.0925	0.112	58185	keystroke	n	n/a
29.2465	0.113	58493	keystroke	a	n/a
29.5435	0.092	59087	keystroke	t	n/a
29.7905	0.136	59581	keystroke	i	n/a
29.9265	0.113	59853	keystroke	Key.space	n/a
30.3125	0.138	60625	keystroke	s	n/a
30.5825	0.112	61165	keystroke	u	n/a
30.8845	0.068	61769	keystroke	g	n/a
31.0015	0.093	62003	keystroke	g	n/a
31.1165	0.09	62233	keystroke	e	n/a
31.3135	0.115	62627	keystroke	s	n/a
31.3815	0.094	62763	keystroke	t	n/a
31.5825	0.09	63165	keystroke	i	n/a
31.7525	0.136	63505	keystroke	n	n/a
31.9965	0.092	63993	keystroke	g	n/a
32.1085	0.113	64217	keystroke	Key.space	n/a
32.3525	0.091	64705	keystroke	b	n/a
32.5985	0.132	65197	keystroke	r	n/a
32.8175	0.115	65635	keystroke	o	n/a
33.1305	0.09	66261	keystroke	w	n/a
33.3435	0.114	66687	keystroke	s	n/a
33.5505	0.092	67101	keystroke	e	n/a
33.7625	0.092	67525	keystroke	r	n/a
34.3805	0.182	68761	keystroke	s	n/a
34.5635	0.139	69127	keystroke	Key.space	n/a
34.7245	0.111	69449	keystroke	s	n/a
34.9355	0.115	69871	keystroke	e	n/a
35.0515	0.0895	70103	keystroke	l	n/a
35.191	0.114	70382	keystroke	e	n/a
35.213	0.069	70426	keystroke	l	n/a
35.412	0.0685	70824	keystroke	r	n/a
35.6345	0.1125	71269	keystroke	s	n/a
36.3055	0.1135	72611	keystroke	Key.enter	n/a
36.4275	8.4415	72855	prompt	n/a	transaction davidson soma stunning\n
37.317	0.093	74634	keystroke	t	n/a
37.513	0.091	75026	keystroke	r	n/a
37.605	0.136	75210	keystroke	a	n/a
37.795	0.181	75590	keystroke	n	n/a
37.998	0.155	75996	keystroke	s	n/a
38.242	0.138	76484	keystroke	a	n/a
38.588	0.161	77176	keystroke	c	n/a
38.798	0.092	77596	keystroke	t	n/a
39.03	0.114	78060	keystroke	i	n/a
39.165	0.092	78330	keystroke	o	n/a
39.342	0.137	78684	keystroke	n	n/a
39.479	0.115	78958	keystroke	Key.space	n/a
39.975	0.092	79950	keystroke	d	n/a
40.177	0.136	80354	keystroke	a	n/a
40.344	0.068	80688	keystroke	v	n/a
40.589	0.134	81178	keystroke	i	n/a
40.85	0.134	81700	keystroke	d	n/a
41.357	0.115	82714	keystroke	s	n/a
41.473	0.112	82946	keystroke	o	n/a
41.665	0.158	83330	keystroke	n	n/a
41.824	0.112	83648	keystroke	Key.space	n/a
42.119	0.135	84238	keystroke	s	n/a
42.276	0.115	84552	keystroke	o	n/a
42.448	0.137	84896	keystroke	m	n/a
42.607	0.091	85214	keystroke	a	n/a
42.7	0.111	85400	keystroke	Key.space	n/a
43.233	0.138	86466	keystroke	s	n/a
43.476	0.114	86952	keystroke	t	n/a
43.685	0.093	87370	keystroke	u	n/a
43.902	0.092	87804	keystroke	n	n/a
44.051	0.111	88102	keystroke	n	n/a
44.194	0.092	88388	keystroke	i	n/a
44.343	0.092	88686	keystroke	n	n/a
44.527	0.07	89054	keystroke	g	n/a
44.773	0.093	89546	keystroke	Key.enter	n/a
44.873	6.449	89746	prompt	n/a	must marker notified detector\n
45.594	0.135	91188	keystroke	m	n/a
45.832	0.069	91664	keystroke	u	n/a
45.957	0.114	91914	keystroke	s	n/a
46.072	0.066	92144	keystroke	t	n/a
46.191	0.114	92382	keystroke	Key.space	n/a
46.583	0.116	93166	keystroke	m	n/a
46.7	0.135	93400	keystroke	a	n/a
46.94	0.069	93880	keystroke	r	n/a
47.081	0.092	94162	keystroke	k	n/a
47.196	0.092	94392	keystroke	e	n/a
47.381	0.07	94762	keystroke	r	n/a
47.452	0.11	94904	keystroke	Key.space	n/a
48.014	0.068	96028	keystroke	n	n/a
48.272	0.091	96544	keystroke	o	n/a
48.524	0.092	97048	keystroke	t	n/a
48.71	0.091	97420	keystroke	i	n/a
48.869	0.136	97738	keystroke	f	n/a
49.027	0.069	98054	keystroke	i	n/a
49.155	0.114	98310	keystroke	e	n/a
49.368	0.091	98736	keystroke	d	n/a
49.46	0.088	98920	keystroke	Key.space	n/a
49.789	0.117	99578	keystroke	d	n/a
50.015	0.091	100030	keystroke	e	n/a
50.249	0.09	100498	keystroke	t	n/a
50.34	0.093	100680	keystroke	e	n/a
50.574	0.093	101148	keystroke	c	n/a
50.668	0.067	101336	keystroke	t	n/a
50.879	0.091	101758	keystroke	o	n/a
50.992	0.112	101984	keystroke	r	n/a
51.23	0.09	102460	keystroke	Key.enter	n/a
51.327	7.9745	102654	prompt	n/a	citizen generations mesh elected\n
52.3	0.09	104600	keystroke	c	n/a
52.497	0.113	104994	keystroke	i	n/a
52.719	0.069	105438	keystroke	t	n/a
52.902	0.116	105804	keystroke	i	n/a
53.04	0.136	106080	keystroke	z	n/a
53.272	0.092	106544	keystroke	e	n/a
53.386	0.092	106772	keystroke	n	n/a
53.499	0.115	106998	keystroke	Key.space	n/a
54.128	0.089	108256	keystroke	g	n/a
54.239	0.092	108478	keystroke	e	n/a
54.689	0.091	109378	keystroke	n	n/a
54.831	0.113	109662	keystroke	e	n/a
55.065	0.069	110130	keystroke	r	n/a
55.39	0.136	110780	keystroke	a	n/a
55.548	0.136	111096	keystroke	t	n/a
55.859	0.159	111718	keystroke	i	n/a
56.019	0.112	112038	keystroke	o	n/a
56.201	0.135	112402	keystroke	n	n/a
56.337	0.089	112674	keystroke	s	n/a
56.448	0.092	112896	keystroke	Key.space	n/a
56.757	0.157	113514	keystroke	m	n/a
56.891	0.09	113782	keystroke	e	n/a
57.103	0.113	114206	keystroke	s	n/a
57.192	0.1365	114384	keystroke	h	n/a
57.3045	0.1125	114609	keystroke	Key.space	n/a
57.881	0.114	115762	keystroke	e	n/a
57.996	0.133	115992	keystroke	l	n/a
58.15	0.07	116300	keystroke	e	n/a
58.41	0.114	116820	keystroke	c	n/a
58.722	0.092	117444	keystroke	t	n/a
58.836	0.093	117672	keystroke	e	n/a
59.048	0.091	118096	keystroke	d	n/a
59.162	0.137	118324	keystroke	Key.enter	n/a
59.306	16.953	118612	prompt	n/a	charlotte quarters adequate live\n
59.9815	0.136	119963	keystroke	c	n/a
60.1495	0.069	120299	keystroke	h	n/a
60.2785	0.135	120557	keystroke	a	n/a
60.508	0.118	121016	keystroke	r	n/a
60.65	0.069	121300	keystroke	l	n/a
60.761	0.114	121522	keystroke	e	n/a
60.96	0.095	121920	keystroke	t	n/a
61.155	0.092	122310	keystroke	t	n/a
62.001	0.089	124002	keystroke	Key.backspace	n/a
62.184	0.069	124368	keystroke	Key.backspace	n/a
62.319	0.093	124638	keystroke	Key.backspace	n/a
62.498	0.138	124996	keystroke	o	n/a
62.899	0.137	125798	keystroke	t	n/a
63.11	0.092	126220	keystroke	t	n/a
63.225	0.091	126450	keystroke	e	n/a
63.348	0.069	126696	keystroke	Key.space	n/a
63.978	0.092	127956	keystroke	g	n/a
64.37	0.139	128740	keystroke	Key.backspace	n/a
64.68	0.137	129360	keystroke	q	n/a
65.013	0.093	130026	keystroke	u	n/a
65.153	0.159	130306	keystroke	a	n/a
65.4	0.114	130800	keystroke	t	n/a
65.642	0.092	131284	keystroke	y	n/a
65.735	0.114	131470	keystroke	e	n/a
65.945	0.089	131890	keystroke	r	n/a
66.167	0.093	132334	keystroke	d	n/a
66.168	0.115	132336	keystroke	s	n/a
66.284	0.09	132568	keystroke	Key.space	n/a
67.072	0.069	134144	keystroke	Key.backspace	n/a
67.245	0.069	134490	keystroke	Key.backspace	n/a
67.402	0.068	134804	keystroke	Key.backspace	n/a
67.546	0.091	135092	keystroke	Key.backspace	n/a
67.748	0.114	135496	keystroke	Key.backspace	n/a
68.123	0.183	136246	keystroke	Key.backspace	n/a
68.513	0.14	137026	keystroke	e	n/a
68.751	0.09	137502	keystroke	r	n/a
68.971	0.136	137942	keystroke	s	n/a
69.0615	0.1135	138123	keystroke	Key.space	n/a
69.43	0.137	138860	keystroke	a	n/a
69.676	0.091	139352	keystroke	d	n/a
69.869	0.07	139738	keystroke	e	n/a
72.871	0.1345	145742	keystroke	q	n/a
73.3105	0.115	146621	keystroke	u	n/a
74.5185	0.18	149037	keystroke	a	n/a
74.7385	0.09	149477	keystroke	t	n/a
74.8505	0.114	149701	keystroke	e	n/a
74.9945	0.093	149989	keystroke	Key.space	n/a
75.4355	0.159	150871	keystroke	l	n/a
75.6165	0.09	151233	keystroke	i	n/a
75.8495	0.091	151699	keystroke	v	n/a
75.9775	0.092	151955	keystroke	e	n/a
76.166	0.091	152332	keystroke	Key.enter	n/a
76.2645	7.574	152529	prompt	n/a	chile humor trips hurricane\n
77.073	0.1325	154146	keystroke	c	n/a
77.2275	0.093	154455	keystroke	h	n/a
77.404	0.0895	154808	keystroke	i	n/a
77.6195	0.092	155239	keystroke	l	n/a
77.7595	0.137	155519	keystroke	e	n/a
77.9945	0.112	155989	keystroke	Key.space	n/a
78.6795	0.112	157359	keystroke	h	n/a
78.8885	0.092	157777	keystroke	u	n/a
79.0775	0.093	158155	keystroke	m	n/a
79.2275	0.091	158455	keystroke	o	n/a
79.3515	0.092	158703	keystroke	r	n/a
79.4655	0.089	158931	keystroke	Key.space	n/a
79.9865	0.112	159973	keystroke	t	n/a
80.1835	0.07	160367	keystroke	r	n/a
80.5915	0.137	161183	keystroke	o	n/a
81.0075	0.115	162015	keystroke	Key.backspace	n/a
81.3325	0.114	162665	keystroke	i	n/a
81.4975	0.112	162995	keystroke	p	n/a
81.6305	0.114	163261	keystroke	s	n/a
81.7455	0.0925	163491	keystroke	Key.space	n/a
82.2825	0.091	164565	keystroke	h	n/a
82.4735	0.068	164947	keystroke	u	n/a
82.6415	0.068	165283	keystroke	r	n/a
82.7855	0.093	165571	keystroke	r	n/a
82.8995	0.07	165799	keystroke	i	n/a
83.0145	0.112	166029	keystroke	c	n/a
83.2965	0.159	166593	keystroke	a	n/a
83.4315	0.091	166863	keystroke	n	n/a
83.5775	0.092	167155	keystroke	e	n/a
83.7235	0.113	167447	keystroke	Key.enter	n/a
83.843	10.6475	167686	prompt	n/a	evaluate contractors large employment\n
85.3465	0.114	170693	keystroke	e	n/a
85.6635	0.093	171327	keystroke	v	n/a
85.7775	0.135	171555	keystroke	a	n/a
85.9345	0.159	171869	keystroke	l	n/a
87.0805	0.091	174161	keystroke	u	n/a
87.1935	0.158	174387	keystroke	a	n/a
87.3525	0.089	174705	keystroke	t	n/a
87.4855	0.091	174971	keystroke	e	n/a
87.5775	0.089	175155	keystroke	Key.space	n/a
88.0255	0.1115	176051	keystroke	c	n/a
88.168	0.091	176336	keystroke	o	n/a
88.3665	0.116	176733	keystroke	n	n/a
88.6175	0.1105	177235	keystroke	t	n/a
88.834	0.0895	177668	keystroke	r	n/a
88.9685	0.1145	177937	keystroke	a	n/a
89.395	0.159	178790	keystroke	c	n/a
89.577	0.069	179154	keystroke	t	n/a
89.782	0.137	179564	keystroke	o	n/a
89.92	0.114	179840	keystroke	r	n/a
90.1875	0.159	180375	keystroke	s	n/a
90.2795	0.136	180559	keystroke	Key.space	n/a
90.4465	0.115	180893	keystroke	l	n/a
90.5375	0.114	181075	keystroke	a	n/a
91.0285	0.116	182057	keystroke	r	n/a
91.2085	0.09	182417	keystroke	g	n/a
91.3205	0.071	182641	keystroke	e	n/a
91.3925	0.0905	182785	keystroke	Key.space	n/a
91.544	0.093	183088	keystroke	e	n/a
91.674	0.1365	183348	keystroke	m	n/a
91.9155	0.113	183831	keystroke	p	n/a
92.0855	0.115	184171	keystroke	l	n/a
93.2455	0.092	186491	keystroke	o	n/a
93.5135	0.089	187027	keystroke	y	n/a
93.7585	0.114	187517	keystroke	m	n/a
93.8735	0.091	187747	keystroke	e	n/a
93.9865	0.069	187973	keystroke	n	n/a
94.176	0.07	188352	keystroke	t	n/a
94.42	0.069	188840	keystroke	Key.enter	n/a
94.4945	8.1205	188989	prompt	n/a	hardcover ultra host discover\n
95.487	0.069	190974	keystroke	h	n/a
95.596	0.115	191192	keystroke	a	n/a
95.827	0.116	191654	keystroke	r	n/a
96.087	0.092	192174	keystroke	d	n/a
96.323	0.091	192646	keystroke	c	n/a
96.446	0.0905	192892	keystroke	o	n/a
96.703	0.1145	193406	keystroke	v	n/a
96.8195	0.066	193639	keystroke	e	n/a
97.008	0.091	194016	keystroke	r	n/a
97.152	0.1125	194304	keystroke	Key.space	n/a
97.7395	0.07	195479	keystroke	u	n/a
97.9245	0.136	195849	keystroke	l	n/a
98.2065	0.0895	196413	keystroke	t	n/a
98.398	0.092	196796	keystroke	r	n/a
98.491	0.1355	196982	keystroke	a	n/a
98.7495	0.1365	197499	keystroke	Key.space	n/a
99.176	0.1345	198352	keystroke	h	n/a
99.407	0.137	198814	keystroke	o	n/a
99.639	0.112	199278	keystroke	l	n/a
99.956	0.135	199912	keystroke	s	n/a
100.2305	0.0905	200461	keystroke	Key.backspace	n/a
100.401	0.067	200802	keystroke	Key.backspace	n/a
100.49	0.091	200980	keystroke	s	n/a
100.638	0.091	201276	keystroke	t	n/a
100.803	0.09	201606	keystroke	Key.space	n/a
101.374	0.115	202748	keystroke	d	n/a
101.569	0.092	203138	keystroke	i	n/a
101.662	0.089	203324	keystroke	s	n/a
101.8845	0.069	203769	keystroke	c	n/a
101.9305	0.092	203861	keystroke	o	n/a
102.1285	0.092	204257	keystroke	v	n/a
102.2215	0.068	204443	keystroke	e	n/a
102.3875	0.069	204775	keystroke	r	n/a
102.5455	0.0675	205091	keystroke	Key.enter	n/a
102.621	8.786	205242	prompt	n/a	cabinets teacher literature karen\n
103.546	0.092	207092	keystroke	c	n/a
103.7835	0.114	207567	keystroke	a	n/a
103.9275	0.067	207855	keystroke	b	n/a
104.1145	0.094	208229	keystroke	i	n/a
104.2715	0.114	208543	keystroke	n	n/a
104.4165	0.091	208833	keystroke	e	n/a
104.5445	0.091	209089	keystroke	t	n/a
104.6865	0.0935	209373	keystroke	Key.space	n/a
104.954	0.094	209908	keystroke	t	n/a
105.07	0.0895	210140	keystroke	e	n/a
105.2575	0.114	210515	keystroke	a	n/a
105.4875	0.091	210975	keystroke	c	n/a
105.5795	0.045	211159	keystroke	h	n/a
105.7175	0.134	211435	keystroke	e	n/a
105.9575	0.07	211915	keystroke	r	n/a
106.1415	0.114	212283	keystroke	s	n/a
106.2105	0.135	212421	keystroke	Key.space	n/a
106.4405	0.138	212881	keystroke	l	n/a
107.1645	0.09	214329	keystroke	i	n/a
107.4835	0.093	214967	keystroke	t	n/a
107.7045	0.092	215409	keystroke	u	n/a
107.8205	0.113	215641	keystroke	r	n/a
108.0495	0.135	216099	keystroke	a	n/a
108.1615	0.068	216323	keystroke	t	n/a
108.3585	0.137	216717	keystroke	u	n/a
108.5445	0.135	217089	keystroke	r	n/a
108.7685	0.113	217537	keystroke	e	n/a
108.9115	0.091	217823	keystroke	Key.space	n/a
109.4975	0.112	218995	keystroke	h	n/a
109.6105	0.067	219221	keystroke	a	n/a
109.9695	0.114	219939	keystroke	Key.backspace	n/a
110.1615	0.068	220323	keystroke	Key.backspace	n/a
110.3745	0.139	220749	keystroke	k	n/a
110.5145	0.134	221029	keystroke	a	n/a
110.7155	0.114	221431	keystroke	r	n/a
110.9105	0.091	221821	keystroke	e	n/a
111.0535	0.114	222107	keystroke	n	n/a
111.3135	0.092	222627	keystroke	Key.enter	n/a
111.4105	5.4925	222821	prompt	n/a	agents drops enjoy came\n
112.1335	0.163	224267	keystroke	a	n/a
112.4715	0.094	224943	keystroke	g	n/a
112.5955	0.089	225191	keystroke	e	n/a
112.7065	0.0695	225413	keystroke	n	n/a
112.902	0.069	225804	keystroke	t	n/a
113.011	0.118	226022	keystroke	s	n/a
113.104	0.113	226208	keystroke	Key.space	n/a
113.6025	0.137	227205	keystroke	d	n/a
113.8525	0.092	227705	keystroke	r	n/a
113.9815	0.138	227963	keystroke	o	n/a
114.1405	0.112	228281	keystroke	p	n/a
114.2755	0.137	228551	keystroke	s	n/a
114.4135	0.09	228827	keystroke	Key.space	n/a
114.6915	0.114	229383	keystroke	e	n/a
114.8965	0.116	229793	keystroke	n	n/a
115.1445	0.092	230289	keystroke	j	n/a
115.3235	0.092	230647	keystroke	o	n/a
115.5315	0.068	231063	keystroke	y	n/a
115.6675	0.112	231335	keystroke	Key.space	n/a
116.1275	0.114	232255	keystroke	c	n/a
116.3725	0.158	232745	keystroke	a	n/a
116.4835	0.07	232967	keystroke	m	n/a
116.6575	0.091	233315	keystroke	e	n/a
116.8335	0.068	233667	keystroke	Key.enter	n/a
116.9065	18.5295	233813	prompt	n/a	sudden marie announces locking\n
124.2075	0.135	248415	keystroke	s	n/a
124.3925	0.07	248785	keystroke	u	n/a
124.5635	0.093	249127	keystroke	d	n/a
124.7245	0.089	249449	keystroke	d	n/a
124.8845	0.094	249769	keystroke	e	n/a
124.9545	0.114	249909	keystroke	n	n/a
125.0995	0.113	250199	keystroke	Key.space	n/a
125.2985	0.158	250597	keystroke	,	n/a
125.7805	0.113	251561	keystroke	Key.backspace	n/a
126.2815	0.092	252563	keystroke	m	n/a
126.3975	0.113	252795	keystroke	a	n/a
126.6035	0.114	253207	keystroke	r	n/a
126.759	0.071	253518	keystroke	i	n/a
126.862	0.09	253724	keystroke	e	n/a
126.982	0.07	253964	keystroke	Key.space	n/a
127.268	0.139	254536	keystroke	a	n/a
127.569	0.092	255138	keystroke	n	n/a
127.748	0.115	255496	keystroke	n	n/a
127.792	0.047	255584	keystroke	k	n/a
127.964	0.09	255928	keystroke	o	n/a
128.077	0.068	256154	keystroke	u	n/a
128.594	0.089	257188	keystroke	Key.backspace	n/a
128.7605	0.068	257521	keystroke	Key.backspace	n/a
128.9155	0.091	257831	keystroke	Key.backspace	n/a
129.534	0.112	259068	keystroke	o	n/a
129.746	0.07	259492	keystroke	u	n/a
129.97	0.0935	259940	keystroke	n	n/a
130.4205	0.0455	260841	keystroke	v	n/a
130.9185	0.0905	261837	keystroke	Key.backspace	n/a
131.11	0.09	262220	keystroke	c	n/a
131.337	0.092	262674	keystroke	e	n/a
131.55	0.115	263100	keystroke	s	n/a
131.666	0.092	263332	keystroke	Key.space	n/a
132.197	0.14	264394	keystroke	l	n/a
132.4075	0.093	264815	keystroke	o	n/a
132.5335	0.07	265067	keystroke	v	n/a
132.5345	0.091	265069	keystroke	c	n/a
132.6665	0.1125	265333	keystroke	k	n/a
132.876	0.1575	265752	keystroke	i	n/a
133.3255	0.114	266651	keystroke	Key.backspace	n/a
133.5135	0.071	267027	keystroke	Key.backspace	n/a
133.6615	0.066	267323	keystroke	Key.backspace	n/a
133.8385	0.046	267677	keystroke	Key.backspace	n/a
134.3455	0.136	268691	keystroke	c	n/a
134.5295	0.112	269059	keystroke	k	n/a
134.6995	0.092	269399	keystroke	i	n/a
134.9115	0.069	269823	keystroke	n	n/a
135.088	0.091	270176	keystroke	g	n/a
135.342	0.092	270684	keystroke	Key.enter	n/a
135.4405	8.4265	270881	prompt	n/a	output warming rounds sheriff\n
136.492	0.183	272984	keystroke	o	n/a
136.801	0.069	273602	keystroke	u	n/a
136.992	0.092	273984	keystroke	t	n/a
137.141	0.114	274282	keystroke	p	n/a
137.3685	0.113	274737	keystroke	u	n/a
137.6575	0.069	275315	keystroke	t	n/a
137.7865	0.0675	275573	keystroke	Key.space	n/a
138.5685	0.134	277137	keystroke	w	n/a
138.7955	0.138	277591	keystroke	a	n/a
139.0235	0.091	278047	keystroke	r	n/a
139.1155	0.136	278231	keystroke	m	n/a
139.3105	0.093	278621	keystroke	i	n/a
139.4845	0.115	278969	keystroke	n	n/a
139.7005	0.09	279401	keystroke	g	n/a
139.8545	0.068	279709	keystroke	Key.space	n/a
140.594	0.093	281188	keystroke	r	n/a
140.7495	0.117	281499	keystroke	o	n/a
140.9275	0.069	281855	keystroke	u	n/a
141.1105	0.091	282221	keystroke	n	n/a
141.1775	0.1165	282355	keystroke	d	n/a
141.416	0.137	282832	keystroke	s	n/a
141.485	0.113	282970	keystroke	Key.space	n/a
141.767	0.1345	283534	keystroke	s	n/a
141.8785	0.1145	283757	keystroke	h	n/a
142.022	0.1365	284044	keystroke	e	n/a
142.267	0.093	284534	keystroke	r	n/a
143.156	0.093	286312	keystroke	i	n/a
143.4715	0.0905	286943	keystroke	f	n/a
143.6415	0.07	287283	keystroke	f	n/a
143.7535	0.112	287507	keystroke	Key.enter	n/a
143.871	10.6415	287742	prompt	n/a	repeat discount undergraduate dominican\n
144.694	0.115	289388	keystroke	r	n/a
144.898	0.093	289796	keystroke	e	n/a
145.013	0.113	290026	keystroke	p	n/a
145.19	0.159	290380	keystroke	e	n/a
145.416	0.137	290832	keystroke	a	n/a
145.599	0.1155	291198	keystroke	t	n/a
145.7465	0.135	291493	keystroke	Key.space	n/a
146.268	0.116	292536	keystroke	d	n/a
146.484	0.11	292968	keystroke	i	n/a
146.571	0.091	293142	keystroke	s	n/a
146.8	0.092	293600	keystroke	c	n/a
146.893	0.134	293786	keystroke	o	n/a
147.049	0.069	294098	keystroke	u	n/a
147.225	0.092	294450	keystroke	n	n/a
147.44	0.092	294880	keystroke	t	n/a
147.554	0.11	295108	keystroke	Key.space	n/a
148.037	0.091	296074	keystroke	u	n/a
148.242	0.0915	296484	keystroke	n	n/a
148.2875	0.114	296575	keystroke	d	n/a
148.4765	0.091	296953	keystroke	e	n/a
148.6475	0.072	297295	keystroke	r	n/a
148.9475	0.111	297895	keystroke	g	n/a
149.0965	0.113	298193	keystroke	r	n/a
149.3575	0.157	298715	keystroke	a	n/a
149.6045	0.092	299209	keystroke	d	n/a
150.2275	0.092	300455	keystroke	u	n/a
150.3405	0.136	300681	keystroke	a	n/a
150.5345	0.089	301069	keystroke	t	n/a
150.6745	0.1155	301349	keystroke	e	n/a
150.791	0.133	301582	keystroke	Key.space	n/a
151.4015	0.1375	302803	keystroke	d	n/a
151.609	0.112	303218	keystroke	o	n/a
151.795	0.138	303590	keystroke	m	n/a
152.051	0.112	304102	keystroke	i	n/a
152.298	0.112	304596	keystroke	n	n/a
152.52	0.09	305040	keystroke	i	n/a
152.633	0.1565	305266	keystroke	c	n/a
153.0285	0.072	306057	keystroke	n	n/a
153.0525	0.116	306105	keystroke	a	n/a
153.703	0.114	307406	keystroke	Key.backspace	n/a
153.899	0.072	307798	keystroke	Key.backspace	n/a
153.972	0.088	307944	keystroke	a	n/a
154.139	0.115	308278	keystroke	n	n/a
154.399	0.112	308798	keystroke	Key.enter	n/a
154.5155	9.6555	309031	prompt	n/a	butter lived rational ancient\n
155.253	0.094	310506	keystroke	b	n/a
155.462	0.093	310924	keystroke	u	n/a
155.708	0.07	311416	keystroke	t	n/a
155.856	0.092	311712	keystroke	t	n/a
155.949	0.089	311898	keystroke	e	n/a
156.121	0.069	312242	keystroke	r	n/a
156.212	0.112	312424	keystroke	Key.space	n/a
156.435	0.163	312870	keystroke	l	n/a
156.599	0.089	313198	keystroke	i	n/a
156.852	0.068	313704	keystroke	v	n/a
156.942	0.113	313884	keystroke	e	n/a
157.16	0.115	314320	keystroke	d	n/a
157.276	0.112	314552	keystroke	Key.space	n/a
158.002	0.113	316004	keystroke	r	n/a
158.136	0.114	316272	keystroke	a	n/a
158.251	0.0895	316502	keystroke	t	n/a
158.5015	0.184	317003	keystroke	i	n/a
158.6605	0.136	317321	keystroke	o	n/a
158.8275	0.0235	317655	keystroke	m	n/a
158.8735	0.113	317747	keystroke	n	n/a
159.055	0.1355	318110	keystroke	a	n/a
159.166	0.1145	318332	keystroke	l	n/a
159.281	0.133	318562	keystroke	Key.space	n/a
159.48	0.1395	318960	keystroke	a	n/a
159.929	0.09	319858	keystroke	Key.backspace	n/a
160.097	0.069	320194	keystroke	Key.backspace	n/a
160.24	0.068	320480	keystroke	Key.backspace	n/a
160.375	0.069	320750	keystroke	Key.backspace	n/a
160.526	0.046	321052	keystroke	Key.backspace	n/a
160.667	0.067	321334	keystroke	Key.backspace	n/a
160.877	0.047	321754	keystroke	Key.backspace	n/a
161.7345	0.113	323469	keystroke	o	n/a
161.9725	0.114	323945	keystroke	n	n/a
162.1085	0.114	324217	keystroke	a	n/a
162.1985	0.1355	324397	keystroke	l	n/a
162.3575	0.09	324715	keystroke	Key.space	n/a
162.5975	0.115	325195	keystroke	a	n/a
162.735	0.1155	325470	keystroke	n	n/a
163.2775	0.159	326555	keystroke	c	n/a
163.4375	0.09	326875	keystroke	i	n/a
163.5815	0.137	327163	keystroke	e	n/a
163.6715	0.069	327343	keystroke	n	n/a
163.8695	0.067	327739	keystroke	t	n/a
164.1015	0.068	328203	keystroke	Key.enter	n/a
164.1745	8.546	328349	prompt	n/a	resorts speeds hobbies perceived\n
164.8825	0.115	329765	keystroke	r	n/a
165.0925	0.067	330185	keystroke	e	n/a
165.2785	0.093	330557	keystroke	s	n/a
165.4455	0.093	330891	keystroke	o	n/a
165.6715	0.09	331343	keystroke	r	n/a
165.8385	0.069	331677	keystroke	t	n/a
165.9615	0.135	331923	keystroke	s	n/a
166.1185	0.0675	332237	keystroke	Key.space	n/a
166.4275	0.204	332855	keystroke	s	n/a
166.784	0.137	333568	keystroke	p	n/a
166.922	0.135	333844	keystroke	e	n/a
167.11	0.114	334220	keystroke	e	n/a
167.308	0.137	334616	keystroke	d	n/a
167.446	0.111	334892	keystroke	Key.space	n/a
167.8745	0.16	335749	keystroke	Key.backspace	n/a
168.0895	0.138	336179	keystroke	s	n/a
168.2285	0.134	336457	keystroke	Key.space	n/a
169.0725	0.112	338145	keystroke	h	n/a
169.2685	0.137	338537	keystroke	o	n/a
169.6115	0.089	339223	keystroke	b	n/a
169.7525	0.0915	339505	keystroke	b	n/a
169.9515	0.093	339903	keystroke	i	n/a
170.0675	0.114	340135	keystroke	e	n/a
170.293	0.136	340586	keystroke	s	n/a
170.43	0.089	340860	keystroke	Key.space	n/a
170.636	0.1805	341272	keystroke	p	n/a
170.8385	0.117	341677	keystroke	e	n/a
171.0515	0.068	342103	keystroke	r	n/a
171.31	0.1405	342620	keystroke	c	n/a
171.5065	0.093	343013	keystroke	i	n/a
171.6745	0.1145	343349	keystroke	e	n/a
171.829	0.091	343658	keystroke	v	n/a
171.952	0.111	343904	keystroke	e	n/a
172.393	0.137	344786	keystroke	d	n/a
172.608	0.111	345216	keystroke	Key.enter	n/a
172.724	9.8275	345448	prompt	n/a	torture ethics complimentary thickness\n
173.613	0.1135	347226	keystroke	t	n/a
174.5545	0.115	349109	keystroke	o	n/a
175.151	0.117	350302	keystroke	r	n/a
175.354	0.094	350708	keystroke	t	n/a
175.54	0.091	351080	keystroke	u	n/a
175.663	0.16	351326	keystroke	e	n/a
175.884	0.115	351768	keystroke	Key.space	n/a
176.182	0.137	352364	keystroke	e	n/a
176.405	0.091	352810	keystroke	t	n/a
176.61	0.093	353220	keystroke	h	n/a
176.7685	0.094	353537	keystroke	i	n/a
176.816	0.1385	353632	keystroke	c	n/a
177.0825	0.157	354165	keystroke	s	n/a
177.2405	0.09	354481	keystroke	Key.space	n/a
177.3935	0.16	354787	keystroke	c	n/a
177.5305	0.137	355061	keystroke	o	n/a
177.7455	0.113	355491	keystroke	m	n/a
177.9545	0.135	355909	keystroke	p	n/a
178.1545	0.115	356309	keystroke	l	n/a
179.0635	0.091	358127	keystroke	i	n/a
179.2655	0.091	358531	keystroke	m	n/a
179.3785	0.115	358757	keystroke	e	n/a
179.4685	0.069	358937	keystroke	n	n/a
179.6945	0.091	359389	keystroke	t	n/a
179.8335	0.135	359667	keystroke	a	n/a
179.9455	0.068	359891	keystroke	r	n/a
180.1435	0.09	360287	keystroke	y	n/a
180.2815	0.071	360563	keystroke	Key.space	n/a
180.9455	0.09	361891	keystroke	t	n/a
181.1405	0.091	362281	keystroke	h	n/a
181.2945	0.093	362589	keystroke	i	n/a
181.4085	0.1155	362817	keystroke	c	n/a
181.609	0.114	363218	keystroke	k	n/a
181.844	0.072	363688	keystroke	n	n/a
181.945	0.112	363890	keystroke	e	n/a
182.164	0.091	364328	keystroke	s	n/a
182.32	0.091	364640	keystroke	s	n/a
182.458	0.091	364916	keystroke	Key.enter	n/a
182.5545	14.5195	365109	prompt	n/a	nextel undertaken talking lift\n
183.381	0.068	366762	keystroke	m	n/a
183.383	0.068	366766	keystroke	n	n/a
183.507	0.092	367014	keystroke	e	n/a
183.764	0.182	367528	keystroke	x	n/a
183.977	0.068	367954	keystroke	t	n/a
184.44	0.069	368880	keystroke	Key.backspace	n/a
184.606	0.07	369212	keystroke	Key.backspace	n/a
184.8295	0.046	369659	keystroke	Key.backspace	n/a
184.9545	0.069	369909	keystroke	Key.backspace	n/a
185.1045	0.067	370209	keystroke	Key.backspace	n/a
185.2335	0.069	370467	keystroke	Key.backspace	n/a
185.868	0.068	371736	keystroke	n	n/a
186.043	0.116	372086	keystroke	e	n/a
188.1185	0.09	376237	keystroke	x	n/a
188.304	0.0685	376608	keystroke	t	n/a
188.4535	0.112	376907	keystroke	e	n/a
188.7915	0.16	377583	keystroke	l	n/a
189.0435	0.069	378087	keystroke	Key.space	n/a
189.599	0.07	379198	keystroke	u	n/a
189.779	0.092	379558	keystroke	n	n/a
189.872	0.089	379744	keystroke	d	n/a
190.045	0.093	380090	keystroke	e	n/a
190.22	0.09	380440	keystroke	r	n/a
190.591	0.114	381182	keystroke	t	n/a
190.7385	0.156	381477	keystroke	a	n/a
191.626	0.091	383252	keystroke	k	n/a
191.751	0.094	383502	keystroke	e	n/a
191.876	0.115	383752	keystroke	n	n/a
192.036	0.09	384072	keystroke	Key.space	n/a
192.591	0.069	385182	keystroke	t	n/a
192.698	0.1105	385396	keystroke	a	n/a
193.2145	0.181	386429	keystroke	l	n/a
193.4175	0.091	386835	keystroke	k	n/a
193.5825	0.092	387165	keystroke	i	n/a
193.8095	0.115	387619	keystroke	n	n/a
194.0345	0.09	388069	keystroke	g	n/a
194.1935	0.091	388387	keystroke	Key.space	n/a
194.8585	0.11	389717	keystroke	l	n/a
195.0075	0.091	390015	keystroke	i	n/a
195.1865	0.136	390373	keystroke	d	n/a
195.4495	0.114	390899	keystroke	f	n/a
195.8255	0.093	391651	keystroke	Key.backspace	n/a
196.0085	0.09	392017	keystroke	Key.backspace	n/a
196.1415	0.093	392283	keystroke	f	n/a
196.2975	0.093	392595	keystroke	t	n/a
196.958	0.114	393916	keystroke	Key.enter	n/a
197.0785	7.1175	394157	prompt	n/a	syria park anaheim refers\n
198.0525	0.161	396105	keystroke	s	n/a
198.2725	0.088	396545	keystroke	y	n/a
198.5185	0.135	397037	keystroke	r	n/a
198.8085	0.157	397617	keystroke	i	n/a
198.9875	0.137	397975	keystroke	a	n/a
199.1255	0.0905	398251	keystroke	Key.space	n/a
199.345	0.135	398690	keystroke	p	n/a
199.503	0.115	399006	keystroke	a	n/a
199.776	0.114	399552	keystroke	r	n/a
200.1395	0.183	400279	keystroke	k	n/a
200.3445	0.116	400689	keystroke	Key.space	n/a
200.7415	0.136	401483	keystroke	a	n/a
200.9325	0.113	401865	keystroke	n	n/a
201.0665	0.114	402133	keystroke	a	n/a
201.3035	0.09	402607	keystroke	h	n/a
201.9215	0.113	403843	keystroke	e	n/a
202.0565	0.136	404113	keystroke	i	n/a
202.2595	0.141	404519	keystroke	m	n/a
202.4225	0.113	404845	keystroke	Key.space	n/a
202.9845	0.113	405969	keystroke	r	n/a
203.1895	0.1325	406379	keystroke	e	n/a
203.344	0.091	406688	keystroke	f	n/a
203.456	0.093	406912	keystroke	e	n/a
203.646	0.091	407292	keystroke	r	n/a
203.924	0.115	407848	keystroke	s	n/a
204.103	0.091	408206	keystroke	Key.enter	n/a
204.1995	6.1085	408399	prompt	n/a	park displaying markets roses\n
204.936	0.137	409872	keystroke	p	n/a
205.074	0.112	410148	keystroke	a	n/a
205.283	0.1155	410566	keystroke	r	n/a
205.3745	0.115	410749	keystroke	k	n/a
205.5125	0.114	411025	keystroke	Key.space	n/a
206.147	0.139	412294	keystroke	d	n/a
206.309	0.089	412618	keystroke	i	n/a
206.441	0.113	412882	keystroke	s	n/a
206.531	0.162	413062	keystroke	p	n/a
206.669	0.0915	413338	keystroke	l	n/a
206.8135	0.159	413627	keystroke	a	n/a
207.0415	0.093	414083	keystroke	y	n/a
207.2095	0.135	414419	keystroke	i	n/a
207.4185	0.115	414837	keystroke	n	n/a
207.6255	0.09	415251	keystroke	g	n/a
207.7625	0.113	415525	keystroke	Key.space	n/a
207.9395	0.091	415879	keystroke	m	n/a
207.9625	0.114	415925	keystroke	a	n/a
208.2165	0.095	416433	keystroke	r	n/a
208.3575	0.1125	416715	keystroke	k	n/a
208.492	0.115	416984	keystroke	e	n/a
208.629	0.07	417258	keystroke	t	n/a
208.756	0.116	417512	keystroke	s	n/a
208.904	0.092	417808	keystroke	Key.space	n/a
209.373	0.137	418746	keystroke	r	n/a
209.593	0.09	419186	keystroke	o	n/a
209.713	0.117	419426	keystroke	s	n/a
209.926	0.07	419852	keystroke	e	n/a
210.1035	0.113	420207	keystroke	s	n/a
210.2165	0.09	420433	keystroke	Key.enter	n/a
210.3115	6.121	420623	prompt	n/a	native matched jeffrey repair\n
210.975	0.138	421950	keystroke	n	n/a
211.136	0.139	422272	keystroke	a	n/a
211.276	0.066	422552	keystroke	t	n/a
211.4425	0.112	422885	keystroke	i	n/a
211.6505	0.1125	423301	keystroke	v	n/a
211.785	0.094	423570	keystroke	e	n/a
211.88	0.113	423760	keystroke	Key.space	n/a
212.092	0.093	424184	keystroke	m	n/a
212.186	0.112	424372	keystroke	a	n/a
212.32	0.092	424640	keystroke	t	n/a
212.461	0.089	424922	keystroke	c	n/a
212.573	0.089	425146	keystroke	h	n/a
212.707	0.092	425414	keystroke	e	n/a
212.911	0.091	425822	keystroke	d	n/a
213.003	0.089	426006	keystroke	Key.space	n/a
213.5195	0.068	427039	keystroke	j	n/a
213.6545	0.111	427309	keystroke	e	n/a
213.8315	0.067	427663	keystroke	f	n/a
213.9545	0.091	427909	keystroke	f	n/a
214.0465	0.112	428093	keystroke	e	n/a
214.2335	0.088	428467	keystroke	r	n/a
214.387	0.137	428774	keystroke	y	n/a
214.56	0.111	429120	keystroke	Key.space	n/a
214.915	0.091	429830	keystroke	r	n/a
215.042	0.113	430084	keystroke	e	n/a
215.279	0.138	430558	keystroke	p	n/a
215.418	0.133	430836	keystroke	a	n/a
215.552	0.089	431104	keystroke	i	n/a
215.789	0.159	431578	keystroke	r	n/a
216.3195	0.111	432639	keystroke	Key.enter	n/a
216.4355	6.346	432871	prompt	n/a	these streams scale fall\n
217.2095	0.09	434419	keystroke	t	n/a
217.3985	0.091	434797	keystroke	h	n/a
217.4655	0.091	434931	keystroke	e	n/a
217.8475	0.044	435695	keystroke	s	n/a
218.7155	0.092	437431	keystroke	e	n/a
218.8535	0.114	437707	keystroke	Key.space	n/a
219.1575	0.137	438315	keystroke	s	n/a
219.4125	0.092	438825	keystroke	t	n/a
219.5705	0.0685	439141	keystroke	r	n/a
219.64	0.09	439280	keystroke	e	n/a
219.848	0.137	439696	keystroke	a	n/a
219.915	0.181	439830	keystroke	m	n/a
220.139	0.114	440278	keystroke	s	n/a
220.228	0.116	440456	keystroke	Key.space	n/a
220.594	0.119	441188	keystroke	s	n/a
220.81	0.0915	441620	keystroke	c	n/a
221.098	0.161	442196	keystroke	a	n/a
221.26	0.115	442520	keystroke	l	n/a
221.398	0.114	442796	keystroke	e	n/a
221.513	0.111	443026	keystroke	Key.space	n/a
222.023	0.09	444046	keystroke	f	n/a
222.233	0.114	444466	keystroke	a	n/a
222.348	0.089	444696	keystroke	l	n/a
222.502	0.089	445004	keystroke	l	n/a
222.691	0.089	445382	keystroke	Key.enter	n/a
222.7845	9.279	445569	prompt	n/a	harmful fragrance shame glen\n
223.625	0.091	447250	keystroke	g	n/a
223.962	0.114	447924	keystroke	Key.backspace	n/a
224.22	0.111	448440	keystroke	h	n/a
224.332	0.1145	448664	keystroke	a	n/a
224.527	0.0905	449054	keystroke	r	n/a
224.647	0.0915	449294	keystroke	m	n/a
224.8005	0.114	449601	keystroke	f	n/a
224.9535	0.092	449907	keystroke	i	n/a
224.9775	0.07	449955	keystroke	u	n/a
225.232	0.181	450464	keystroke	l	n/a
225.498	0.1145	450996	keystroke	Key.space	n/a
225.9965	0.092	451993	keystroke	Key.backspace	n/a
226.1695	0.07	452339	keystroke	Key.backspace	n/a
226.3275	0.09	452655	keystroke	Key.backspace	n/a
226.4875	0.091	452975	keystroke	Key.backspace	n/a
227.0555	0.069	454111	keystroke	u	n/a
227.234	0.111	454468	keystroke	l	n/a
227.346	0.132	454692	keystroke	Key.space	n/a
228.0375	0.135	456075	keystroke	f	n/a
228.2655	0.09	456531	keystroke	r	n/a
228.3775	0.113	456755	keystroke	a	n/a
228.5505	0.114	457101	keystroke	g	n/a
228.8575	0.093	457715	keystroke	r	n/a
229.0245	0.114	458049	keystroke	a	n/a
229.161	0.16	458322	keystroke	i	n/a
229.459	0.092	458918	keystroke	n	n/a
229.611	0.14	459222	keystroke	c	n/a
229.864	0.112	459728	keystroke	e	n/a
229.977	0.09	459954	keystroke	Key.space	n/a
230.3815	0.1345	460763	keystroke	s	n/a
230.5465	0.1175	461093	keystroke	h	n/a
230.695	0.1385	461390	keystroke	a	n/a
230.8345	0.156	461669	keystroke	m	n/a
230.9925	0.112	461985	keystroke	e	n/a
231.0585	0.137	462117	keystroke	Key.space	n/a
231.3495	0.07	462699	keystroke	g	n/a
231.5505	0.089	463101	keystroke	l	n/a
231.6625	0.094	463325	keystroke	e	n/a
231.8025	0.071	463605	keystroke	n	n/a
231.9925	0.07	463985	keystroke	Key.enter	n/a
232.0665	8.226	464133	prompt	n/a	hats recommended numerous emerald\n
232.9405	0.092	465881	keystroke	h	n/a
233.0545	0.14	466109	keystroke	a	n/a
233.2255	0.07	466451	keystroke	t	n/a
233.3585	0.093	466717	keystroke	s	n/a
233.4275	0.115	466855	keystroke	Key.space	n/a
233.6925	0.091	467385	keystroke	r	n/a
233.8835	0.088	467767	keystroke	e	n/a
234.126	0.136	468252	keystroke	c	n/a
234.292	0.1585	468584	keystroke	o	n/a
234.5695	0.179	469139	keystroke	m	n/a
234.8315	0.112	469663	keystroke	m	n/a
235.0175	0.116	470035	keystroke	e	n/a
235.0615	0.095	470123	keystroke	n	n/a
235.4335	0.111	470867	keystroke	d	n/a
235.6505	0.091	471301	keystroke	e	n/a
235.8395	0.092	471679	keystroke	d	n/a
235.9325	0.111	471865	keystroke	Key.space	n/a
236.4715	0.113	472943	keystroke	n	n/a
236.7735	0.113	473547	keystroke	u	n/a
236.9885	0.089	473977	keystroke	m	n/a
237.0785	0.092	474157	keystroke	e	n/a
237.2555	0.089	474511	keystroke	r	n/a
237.3665	0.179	474733	keystroke	o	n/a
237.78	0.0925	475560	keystroke	u	n/a
237.9035	0.113	475807	keystroke	s	n/a
238.0385	0.091	476077	keystroke	Key.space	n/a
239.0905	0.112	478181	keystroke	e	n/a
239.2935	0.089	478587	keystroke	m	n/a
239.5495	0.093	479099	keystroke	r	n/a
239.7775	0.136	479555	keystroke	a	n/a
239.8905	0.136	479781	keystroke	l	n/a
240.0695	0.071	480139	keystroke	d	n/a
240.2	0.0905	480400	keystroke	Key.enter	n/a
240.296	9.559	480592	prompt	n/a	investigators tony cyprus anderson\n
241.5485	0.093	483097	keystroke	i	n/a
241.7545	0.069	483509	keystroke	n	n/a
242.0455	0.091	484091	keystroke	v	n/a
242.1845	0.115	484369	keystroke	e	n/a
242.4015	0.112	484803	keystroke	s	n/a
242.5145	0.069	485029	keystroke	t	n/a
242.7105	0.09	485421	keystroke	i	n/a
242.9335	0.089	485867	keystroke	g	n/a
243.0445	0.139	486089	keystroke	a	n/a
243.1585	0.07	486317	keystroke	t	n/a
243.3555	0.092	486711	keystroke	o	n/a
243.4815	0.112	486963	keystroke	r	n/a
243.7315	0.157	487463	keystroke	s	n/a
243.9105	0.091	487821	keystroke	Key.space	n/a
244.348	0.112	488696	keystroke	t	n/a
244.584	0.112	489168	keystroke	o	n/a
244.785	0.114	489570	keystroke	n	n/a
244.999	0.093	489998	keystroke	y	n/a
245.135	0.112	490270	keystroke	Key.space	n/a
245.36	0.181	490720	keystroke	c	n/a
245.871	0.07	491742	keystroke	y	n/a
246.165	0.137	492330	keystroke	p	n/a
246.373	0.093	492746	keystroke	r	n/a
246.601	0.07	493202	keystroke	u	n/a
246.748	0.112	493496	keystroke	s	n/a
246.881	0.118	493762	keystroke	Key.space	n/a
247.328	0.156	494656	keystroke	a	n/a
247.943	0.089	495886	keystroke	n	n/a
248.082	0.091	496164	keystroke	d	n/a
248.288	0.089	496576	keystroke	e	n/a
248.471	0.07	496942	keystroke	r	n/a
248.666	0.137	497332	keystroke	s	n/a
248.757	0.092	497514	keystroke	o	n/a
249.473	0.1125	498946	keystroke	n	n/a
249.7615	0.092	499523	keystroke	Key.enter	n/a
249.8585	9.101	499717	prompt	n/a	boats syracuse practical believed\n
250.8955	0.091	501791	keystroke	b	n/a
251.1225	0.115	502245	keystroke	o	n/a
251.2385	0.16	502477	keystroke	a	n/a
251.4205	0.07	502841	keystroke	t	n/a
251.5505	0.115	503101	keystroke	s	n/a
251.6665	0.135	503333	keystroke	Key.space	n/a
252.0825	0.134	504165	keystroke	s	n/a
252.562	0.09	505124	keystroke	y	n/a
252.82	0.067	505640	keystroke	r	n/a
252.924	0.112	505848	keystroke	a	n/a
253.176	0.09	506352	keystroke	c	n/a
253.306	0.09	506612	keystroke	u	n/a
253.457	0.137	506914	keystroke	s	n/a
253.616	0.091	507232	keystroke	Key.space	n/a
254.128	0.117	508256	keystroke	p	n/a
254.151	0.072	508302	keystroke	[	n/a
254.9125	0.114	509825	keystroke	Key.backspace	n/a
255.5715	0.114	511143	keystroke	r	n/a
255.6605	0.094	511321	keystroke	a	n/a
255.8595	0.112	511719	keystroke	c	n/a
256.4785	0.114	512957	keystroke	t	n/a
256.7135	0.137	513427	keystroke	i	n/a
256.8515	0.11	513703	keystroke	c	n/a
257.0605	0.163	514121	keystroke	a	n/a
257.1525	0.182	514305	keystroke	l	n/a
257.3555	0.136	514711	keystroke	Key.space	n/a
257.8205	0.115	515641	keystroke	b	n/a
257.9585	0.113	515917	keystroke	e	n/a
258.1015	0.136	516203	keystroke	l	n/a
258.2605	0.068	516521	keystroke	i	n/a
258.3665	0.112	516733	keystroke	e	n/a
258.5005	0.092	517001	keystroke	v	n/a
258.6145	0.045	517229	keystroke	e	n/a
258.7525	0.092	517505	keystroke	d	n/a
258.8665	0.091	517733	keystroke	Key.enter	n/a
258.963	6.9505	517926	prompt	n/a	capital deck investments scales\n
259.727	0.1625	519454	keystroke	c	n/a
260.0125	0.1345	520025	keystroke	a	n/a
260.0815	0.1105	520163	keystroke	p	n/a
260.252	0.089	520504	keystroke	i	n/a
260.472	0.112	520944	keystroke	t	n/a
260.708	0.1815	521416	keystroke	a	n/a
260.8655	0.136	521731	keystroke	l	n/a
261.0025	0.09	522005	keystroke	Key.space	n/a
261.1865	0.134	522373	keystroke	d	n/a
261.412	0.091	522824	keystroke	e	n/a
261.6265	0.1355	523253	keystroke	c	n/a
261.783	0.093	523566	keystroke	k	n/a
261.897	0.116	523794	keystroke	Key.space	n/a
262.558	0.091	525116	keystroke	i	n/a
262.802	0.16	525604	keystroke	n	n/a
263.09	0.091	526180	keystroke	v	n/a
263.204	0.114	526408	keystroke	e	n/a
263.408	0.137	526816	keystroke	s	n/a
263.498	0.07	526996	keystroke	t	n/a
263.708	0.113	527416	keystroke	m	n/a
263.862	0.092	527724	keystroke	e	n/a
263.93	0.092	527860	keystroke	n	n/a
264.1235	0.0685	528247	keystroke	t	n/a
264.214	0.113	528428	keystroke	s	n/a
264.349	0.1135	528698	keystroke	Key.space	n/a
264.9225	0.069	529845	keystroke	s	n/a
265.1015	0.091	530203	keystroke	c	n/a
265.2435	0.114	530487	keystroke	a	n/a
265.3795	0.114	530759	keystroke	l	n/a
265.4945	0.089	530989	keystroke	e	n/a
265.6745	0.112	531349	keystroke	s	n/a
265.8105	0.101	531621	keystroke	Key.enter	n/a
265.917	7.767	531834	prompt	n/a	honey why're refresh drag\n
266.7085	0.133	533417	keystroke	h	n/a
266.8935	0.113	533787	keystroke	o	n/a
267.0645	0.114	534129	keystroke	n	n/a
267.1805	0.087	534361	keystroke	e	n/a
267.305	0.089	534610	keystroke	y	n/a
267.438	0.114	534876	keystroke	Key.space	n/a
267.783	0.138	535566	keystroke	w	n/a
267.952	0.137	535904	keystroke	h	n/a
268.165	0.09	536330	keystroke	y	n/a
268.678	0.135	537356	keystroke	'	n/a
268.901	0.114	537802	keystroke	r	n/a
269.103	0.117	538206	keystroke	e	n/a
269.221	0.089	538442	keystroke	Key.space	n/a
270.155	0.091	540310	keystroke	r	n/a
270.356	0.114	540712	keystroke	e	n/a
270.549	0.089	541098	keystroke	f	n/a
270.8185	0.113	541637	keystroke	r	n/a
271.0175	0.111	542035	keystroke	e	n/a
271.1675	0.136	542335	keystroke	h	n/a
271.7175	0.137	543435	keystroke	s	n/a
272.0135	0.071	544027	keystroke	Key.backspace	n/a
272.1815	0.07	544363	keystroke	Key.backspace	n/a
272.2915	0.116	544583	keystroke	s	n/a
272.4305	0.134	544861	keystroke	h	n/a
272.6055	0.091	545211	keystroke	Key.space	n/a
272.8565	0.113	545713	keystroke	d	n/a
273.0875	0.091	546175	keystroke	r	n/a
273.2895	0.136	546579	keystroke	a	n/a
273.4025	0.068	546805	keystroke	g	n/a
273.592	0.0905	547184	keystroke	Key.enter	n/a
273.689	8.869	547378	prompt	n/a	projects earning girls games\n
274.4645	0.09	548929	keystroke	p	n/a
274.6245	0.09	549249	keystroke	r	n/a
274.762	0.091	549524	keystroke	o	n/a
275.61	0.115	551220	keystroke	g	n/a
275.824	0.09	551648	keystroke	r	n/a
275.955	0.158	551910	keystroke	a	n/a
276.653	0.1365	553306	keystroke	Key.backspace	n/a
276.9595	0.158	553919	keystroke	Key.backspace	n/a
277.2545	0.112	554509	keystroke	Key.backspace	n/a
277.9255	0.091	555851	keystroke	j	n/a
278.0415	0.091	556083	keystroke	e	n/a
278.261	0.114	556522	keystroke	c	n/a
278.376	0.068	556752	keystroke	t	n/a
278.535	0.136	557070	keystroke	s	n/a
278.672	0.1115	557344	keystroke	Key.space	n/a
279.0275	0.094	558055	keystroke	e	n/a
279.2175	0.137	558435	keystroke	a	n/a
279.3845	0.091	558769	keystroke	r	n/a
279.5075	0.0915	559015	keystroke	n	n/a
279.682	0.091	559364	keystroke	i	n/a
279.856	0.09	559712	keystroke	n	n/a
280.041	0.0915	560082	keystroke	g	n/a
280.1755	0.115	560351	keystroke	Key.space	n/a
280.6365	0.0915	561273	keystroke	g	n/a
280.8315	0.0885	561663	keystroke	i	n/a
280.9675	0.112	561935	keystroke	r	n/a
281.1505	0.1155	562301	keystroke	l	n/a
281.3085	0.134	562617	keystroke	s	n/a
281.4195	0.137	562839	keystroke	Key.space	n/a
281.7875	0.1355	563575	keystroke	g	n/a
281.9235	0.137	563847	keystroke	a	n/a
282.0615	0.094	564123	keystroke	m	n/a
282.1565	0.0675	564313	keystroke	e	n/a
282.331	0.112	564662	keystroke	s	n/a
282.443	0.114	564886	keystroke	Key.enter	n/a
282.5615	6.803	565123	prompt	n/a	souls aimed merit unlock\n
283.091	0.114	566182	keystroke	s	n/a
283.328	0.114	566656	keystroke	o	n/a
283.495	0.09	566990	keystroke	u	n/a
283.68	0.089	567360	keystroke	l	n/a
283.842	0.138	567684	keystroke	s	n/a
284.004	0.092	568008	keystroke	Key.space	n/a
284.266	0.116	568532	keystroke	a	n/a
284.446	0.09	568892	keystroke	i	n/a
284.671	0.0915	569342	keystroke	m	n/a
284.7635	0.089	569527	keystroke	e	n/a
284.9555	0.0925	569911	keystroke	d	n/a
285.071	0.093	570142	keystroke	Key.space	n/a
285.388	0.091	570776	keystroke	m	n/a
285.48	0.111	570960	keystroke	e	n/a
285.682	0.092	571364	keystroke	r	n/a
285.861	0.09	571722	keystroke	i	n/a
286.067	0.092	572134	keystroke	t	n/a
286.207	0.112	572414	keystroke	Key.space	n/a
286.7365	0.046	573473	keystroke	i	n/a
286.7835	0.112	573567	keystroke	u	n/a
287.4035	0.116	574807	keystroke	Key.backspace	n/a
287.6205	0.09	575241	keystroke	Key.backspace	n/a
288.0175	0.111	576035	keystroke	u	n/a
288.2565	0.092	576513	keystroke	n	n/a
288.4585	0.092	576917	keystroke	l	n/a
288.6965	0.114	577393	keystroke	o	n/a
288.8665	0.09	577733	keystroke	c	n/a
289.0085	0.113	578017	keystroke	k	n/a
289.271	0.0915	578542	keystroke	Key.enter	n/a
289.3675	7.4385	578735	prompt	n/a	woods gras flying deep\n
290.0035	0.139	580007	keystroke	w	n/a
290.2095	0.0895	580419	keystroke	o	n/a
290.3885	0.09	580777	keystroke	o	n/a
290.5	0.071	581000	keystroke	d	n/a
290.722	0.142	581444	keystroke	s	n/a
290.84	0.135	581680	keystroke	Key.space	n/a
291.2425	0.115	582485	keystroke	g	n/a
291.4745	0.093	582949	keystroke	r	n/a
291.4985	0.203	582997	keystroke	a	n/a
291.7035	0.134	583407	keystroke	s	n/a
291.8145	0.1135	583629	keystroke	Key.space	n/a
292.42	0.069	584840	keystroke	g	n/a
292.783	0.114	585566	keystroke	Key.backspace	n/a
292.927	0.091	585854	keystroke	f	n/a
293.111	0.0925	586222	keystroke	l	n/a
293.7025	0.134	587405	keystroke	t	n/a
294.3135	0.113	588627	keystroke	Key.backspace	n/a
295.051	0.092	590102	keystroke	y	n/a
295.2235	0.094	590447	keystroke	i	n/a
295.425	0.0915	590850	keystroke	n	n/a
295.6155	0.092	591231	keystroke	g	n/a
295.7305	0.092	591461	keystroke	Key.space	n/a
295.8445	0.091	591689	keystroke	d	n/a
296.0415	0.093	592083	keystroke	e	n/a
296.2035	0.095	592407	keystroke	e	n/a
296.32	0.1365	592640	keystroke	o	n/a
296.6685	0.1355	593337	keystroke	Key.enter	n/a
296.8095	8.1035	593619	prompt	n/a	dies offset naturally awesome\n
297.682	0.112	595364	keystroke	d	n/a
297.883	0.092	595766	keystroke	i	n/a
297.95	0.117	595900	keystroke	e	n/a
298.143	0.135	596286	keystroke	s	n/a
298.279	0.091	596558	keystroke	Key.space	n/a
298.714	0.112	597428	keystroke	o	n/a
298.928	0.088	597856	keystroke	f	n/a
299.097	0.069	598194	keystroke	f	n/a
299.307	0.049	598614	keystroke	w	n/a
299.308	0.094	598616	keystroke	s	n/a
299.566	0.135	599132	keystroke	e	n/a
299.735	0.092	599470	keystroke	t	n/a
299.904	0.091	599808	keystroke	Key.space	n/a
300.235	0.0895	600470	keystroke	Key.backspace	n/a
300.3995	0.0915	600799	keystroke	Key.backspace	n/a
300.553	0.067	601106	keystroke	Key.backspace	n/a
300.715	0.0465	601430	keystroke	Key.backspace	n/a
300.8495	0.067	601699	keystroke	Key.backspace	n/a
300.9705	0.113	601941	keystroke	s	n/a
301.1805	0.089	602361	keystroke	e	n/a
301.2905	0.115	602581	keystroke	t	n/a
301.4555	0.092	602911	keystroke	Key.space	n/a
302.1245	0.093	604249	keystroke	n	n/a
302.2395	0.113	604479	keystroke	a	n/a
302.3975	0.094	604795	keystroke	t	n/a
302.5745	0.091	605149	keystroke	u	n/a
302.7145	0.0925	605429	keystroke	r	n/a
302.923	0.135	605846	keystroke	a	n/a
303.014	0.089	606028	keystroke	l	n/a
303.155	0.094	606310	keystroke	l	n/a
303.341	0.089	606682	keystroke	y	n/a
303.494	0.092	606988	keystroke	Key.space	n/a
303.68	0.159	607360	keystroke	a	n/a
303.925	0.114	607850	keystroke	w	n/a
304.14	0.092	608280	keystroke	e	n/a
304.332	0.115	608664	keystroke	s	n/a
304.422	0.093	608844	keystroke	o	n/a
304.573	0.091	609146	keystroke	m	n/a
304.686	0.068	609372	keystroke	e	n/a
304.82	0.091	609640	keystroke	Key.enter	n/a
304.9165	10.2675	609833	prompt	n/a	soap divide company spanking\n
308.731	0.159	617462	keystroke	s	n/a
308.97	0.135	617940	keystroke	o	n/a
309.146	0.1605	618292	keystroke	a	n/a
309.3075	0.158	618615	keystroke	p	n/a
310.081	0.135	620162	keystroke	Key.space	n/a
310.248	0.116	620496	keystroke	d	n/a
310.416	0.088	620832	keystroke	i	n/a
310.704	0.1165	621408	keystroke	v	n/a
310.8215	0.09	621643	keystroke	i	n/a
310.9735	0.159	621947	keystroke	d	n/a
311.2395	0.136	622479	keystroke	e	n/a
311.3525	0.093	622705	keystroke	Key.space	n/a
311.5495	0.136	623099	keystroke	c	n/a
311.7175	0.137	623435	keystroke	o	n/a
311.9485	0.113	623897	keystroke	m	n/a
312.1415	0.09	624283	keystroke	p	n/a
312.2545	0.138	624509	keystroke	a	n/a
312.4135	0.112	624827	keystroke	n	n/a
312.633	0.115	625266	keystroke	y	n/a
312.8	0.092	625600	keystroke	Key.space	n/a
313.511	0.159	627022	keystroke	s	n/a
313.739	0.137	627478	keystroke	p	n/a
313.912	0.1585	627824	keystroke	a	n/a
314.0725	0.109	628145	keystroke	n	n/a
314.2725	0.092	628545	keystroke	k	n/a
314.4475	0.09	628895	keystroke	i	n/a
314.6285	0.112	629257	keystroke	n	n/a
314.841	0.0685	629682	keystroke	g	n/a
315.0905	0.091	630181	keystroke	Key.enter	n/a
315.189	6.9735	630378	prompt	n/a	springfield catholic they mall\n
315.812	0.16	631624	keystroke	s	n/a
316.153	0.158	632306	keystroke	p	n/a
316.4245	0.136	632849	keystroke	r	n/a
316.6075	0.115	633215	keystroke	i	n/a
316.846	0.112	633692	keystroke	n	n/a
317.074	0.0705	634148	keystroke	g	n/a
317.2275	0.139	634455	keystroke	f	n/a
317.4635	0.09	634927	keystroke	i	n/a
317.5755	0.116	635151	keystroke	e	n/a
317.7225	0.091	635445	keystroke	l	n/a
317.8455	0.112	635691	keystroke	d	n/a
317.9795	0.092	635959	keystroke	Key.space	n/a
318.5885	0.114	637177	keystroke	c	n/a
318.7245	0.1385	637449	keystroke	a	n/a
318.836	0.1155	637672	keystroke	t	n/a
319.0535	0.0925	638107	keystroke	h	n/a
319.242	0.114	638484	keystroke	o	n/a
319.652	0.136	639304	keystroke	l	n/a
319.884	0.139	639768	keystroke	i	n/a
320.024	0.134	640048	keystroke	c	n/a
320.159	0.1135	640318	keystroke	Key.space	n/a
320.3545	0.114	640709	keystroke	t	n/a
320.559	0.092	641118	keystroke	h	n/a
320.673	0.1105	641346	keystroke	e	n/a
320.7595	0.093	641519	keystroke	y	n/a
320.8755	0.134	641751	keystroke	Key.space	n/a
321.4075	0.1375	642815	keystroke	m	n/a
321.5775	0.136	643155	keystroke	a	n/a
321.714	0.088	643428	keystroke	l	n/a
321.8765	0.091	643753	keystroke	l	n/a
322.0665	0.094	644133	keystroke	Key.enter	n/a
322.165	7.506	644330	prompt	n/a	submitted bookings monetary heater\n
322.735	0.161	645470	keystroke	s	n/a
323.031	0.094	646062	keystroke	u	n/a
323.334	0.092	646668	keystroke	b	n/a
323.557	0.134	647114	keystroke	m	n/a
323.772	0.09	647544	keystroke	i	n/a
324.04	0.07	648080	keystroke	t	n/a
324.177	0.09	648354	keystroke	t	n/a
324.268	0.113	648536	keystroke	e	n/a
324.481	0.1165	648962	keystroke	d	n/a
324.5505	0.115	649101	keystroke	Key.space	n/a
324.842	0.0905	649684	keystroke	b	n/a
325.1865	0.0675	650373	keystroke	o	n/a
325.351	0.112	650702	keystroke	o	n/a
325.545	0.114	651090	keystroke	k	n/a
325.753	0.113	651506	keystroke	i	n/a
325.993	0.112	651986	keystroke	n	n/a
326.174	0.091	652348	keystroke	g	n/a
326.46	0.156	652920	keystroke	s	n/a
326.617	0.1365	653234	keystroke	Key.space	n/a
327.039	0.138	654078	keystroke	m	n/a
327.258	0.089	654516	keystroke	o	n/a
327.449	0.115	654898	keystroke	n	n/a
327.565	0.11	655130	keystroke	e	n/a
327.732	0.092	655464	keystroke	t	n/a
327.876	0.137	655752	keystroke	a	n/a
327.966	0.115	655932	keystroke	r	n/a
328.209	0.1825	656418	keystroke	y	n/a
328.3925	0.113	656785	keystroke	Key.space	n/a
328.6225	0.138	657245	keystroke	h	n/a
328.7615	0.113	657523	keystroke	e	n/a
328.9135	0.16	657827	keystroke	a	n/a
329.0065	0.09	658013	keystroke	t	n/a
329.1405	0.115	658281	keystroke	e	n/a
329.3635	0.091	658727	keystroke	r	n/a
329.5075	0.162	659015	keystroke	Key.enter	n/a
329.5305	0.092	659061	keystroke	\	n/a
329.6745	13.2235	659349	prompt	n/a	colonial deutschland exit ecology\n
330.6865	0.1595	661373	keystroke	c	n/a
330.92	0.112	661840	keystroke	o	n/a
331.13	0.09	662260	keystroke	l	n/a
331.29	0.091	662580	keystroke	o	n/a
331.484	0.114	662968	keystroke	n	n/a
331.676	0.112	663352	keystroke	i	n/a
331.821	0.16	663642	keystroke	a	n/a
331.936	0.114	663872	keystroke	l	n/a
332.073	0.093	664146	keystroke	Key.space	n/a
332.518	0.159	665036	keystroke	d	n/a
332.897	0.184	665794	keystroke	e	n/a
334.031	0.0905	668062	keystroke	u	n/a
334.3605	0.202	668721	keystroke	t	n/a
334.6545	0.202	669309	keystroke	c	n/a
335.471	0.135	670942	keystroke	Key.backspace	n/a
335.725	0.18	671450	keystroke	s	n/a
336.46	0.157	672920	keystroke	c	n/a
336.641	0.09	673282	keystroke	h	n/a
338.3115	0.112	676623	keystroke	l	n/a
338.4255	0.132	676851	keystroke	a	n/a
338.5885	0.114	677177	keystroke	n	n/a
338.7245	0.1145	677449	keystroke	d	n/a
338.861	0.089	677722	keystroke	Key.space	n/a
339.7185	0.137	679437	keystroke	e	n/a
340.0265	0.136	680053	keystroke	x	n/a
340.2055	0.112	680411	keystroke	i	n/a
340.4365	0.092	680873	keystroke	t	n/a
340.5835	0.094	681167	keystroke	Key.space	n/a
341.288	0.16	682576	keystroke	e	n/a
341.604	0.113	683208	keystroke	c	n/a
341.767	0.113	683534	keystroke	o	n/a
341.964	0.095	683928	keystroke	l	n/a
342.138	0.09	684276	keystroke	o	n/a
342.363	0.1115	684726	keystroke	g	n/a
342.5745	0.068	685149	keystroke	y	n/a
342.826	0.071	685652	keystroke	Key.enter	n/a
342.902	16.0385	685804	prompt	n/a	tapes capitol practitioners firefox\n
343.826	0.091	687652	keystroke	t	n/a
343.968	0.159	687936	keystroke	a	n/a
344.104	0.114	688208	keystroke	p	n/a
344.248	0.113	688496	keystroke	e	n/a
344.458	0.138	688916	keystroke	s	n/a
344.597	0.111	689194	keystroke	Key.space	n/a
345.018	0.112	690036	keystroke	c	n/a
345.254	0.184	690508	keystroke	a	n/a
345.391	0.091	690782	keystroke	p	n/a
345.567	0.09	691134	keystroke	i	n/a
345.837	0.093	691674	keystroke	t	n/a
346.063	0.162	692126	keystroke	o	n/a
346.315	0.1325	692630	keystroke	l	n/a
346.4935	0.091	692987	keystroke	Key.space	n/a
347.301	0.157	694602	keystroke	p	n/a
348.002	0.115	696004	keystroke	r	n/a
348.092	0.138	696184	keystroke	a	n/a
348.334	0.139	696668	keystroke	c	n/a
348.403	0.072	696806	keystroke	t	n/a
348.703	0.1135	697406	keystroke	i	n/a
348.8385	0.068	697677	keystroke	o	n/a
349.0195	0.113	698039	keystroke	n	n/a
352.0245	0.113	704049	keystroke	Key.backspace	n/a
352.2365	0.067	704473	keystroke	Key.backspace	n/a
352.4015	0.067	704803	keystroke	Key.backspace	n/a
353.4315	0.0915	706863	keystroke	i	n/a
353.68	0.094	707360	keystroke	t	n/a
353.9555	0.073	707911	keystroke	o	n/a
354.029	0.022	708058	keystroke	i	n/a
354.127	0.069	708254	keystroke	o	n/a
354.6295	0.158	709259	keystroke	Key.backspace	n/a
354.8615	0.09	709723	keystroke	Key.backspace	n/a
355.4915	0.089	710983	keystroke	Key.backspace	n/a
355.922	0.111	711844	keystroke	i	n/a
356.066	0.092	712132	keystroke	o	n/a
356.244	0.092	712488	keystroke	n	n/a
356.337	0.115	712674	keystroke	e	n/a
356.575	0.068	713150	keystroke	r	n/a
356.807	0.135	713614	keystroke	s	n/a
356.963	0.071	713926	keystroke	Key.space	n/a
357.4725	0.158	714945	keystroke	f	n/a
357.7275	0.093	715455	keystroke	i	n/a
357.8575	0.092	715715	keystroke	r	n/a
358.0485	0.1115	716097	keystroke	e	n/a
358.268	0.113	716536	keystroke	f	n/a
358.358	0.091	716716	keystroke	o	n/a
358.62	0.1595	717240	keystroke	x	n/a
358.8015	0.137	717603	keystroke	Key.enter	n/a
358.9525	14.4575	717905	prompt	n/a	offense theater reliable reliable\n
359.9425	0.071	719885	keystroke	o	n/a
360.1405	0.111	720281	keystroke	f	n/a
360.3005	0.116	720601	keystroke	f	n/a
360.5675	0.137	721135	keystroke	s	n/a
360.818	0.094	721636	keystroke	e	n/a
362.2225	0.1825	724445	keystroke	n	n/a
362.382	0.091	724764	keystroke	s	n/a
362.561	0.113	725122	keystroke	e	n/a
362.698	0.0925	725396	keystroke	Key.space	n/a
363.1145	0.115	726229	keystroke	t	n/a
363.3285	0.115	726657	keystroke	h	n/a
363.3725	0.137	726745	keystroke	e	n/a
363.5825	0.184	727165	keystroke	a	n/a
363.6975	0.115	727395	keystroke	t	n/a
364.5135	0.132	729027	keystroke	e	n/a
364.757	0.134	729514	keystroke	r	n/a
364.927	0.115	729854	keystroke	Key.space	n/a
365.505	0.139	731010	keystroke	e	n/a
365.528	0.118	731056	keystroke	r	n/a
366.48	0.114	732960	keystroke	Key.backspace	n/a
366.642	0.1145	733284	keystroke	Key.backspace	n/a
366.732	0.1155	733464	keystroke	r	n/a
366.9465	0.116	733893	keystroke	e	n/a
367.0395	0.204	734079	keystroke	l	n/a
367.2445	0.088	734489	keystroke	o	n/a
367.2455	0.089	734491	keystroke	i	n/a
367.3555	0.182	734711	keystroke	a	n/a
367.8265	0.094	735653	keystroke	Key.backspace	n/a
367.9955	0.091	735991	keystroke	Key.backspace	n/a
368.1595	0.092	736319	keystroke	Key.backspace	n/a
368.7145	0.1115	737429	keystroke	i	n/a
368.86	0.139	737720	keystroke	a	n/a
369.04	0.07	738080	keystroke	b	n/a
369.266	0.09	738532	keystroke	l	n/a
369.387	0.137	738774	keystroke	e	n/a
369.525	0.1125	739050	keystroke	Key.space	n/a
370.947	0.158	741894	keystroke	r	n/a
371.215	0.113	742430	keystroke	e	n/a
371.378	0.179	742756	keystroke	l	n/a
372.564	0.114	745128	keystroke	i	n/a
372.7	0.138	745400	keystroke	a	n/a
372.839	0.067	745678	keystroke	b	n/a
373.037	0.112	746074	keystroke	l	n/a
373.171	0.114	746342	keystroke	e	n/a
373.34	0.069	746680	keystroke	Key.enter	n/a
373.4145	6.3405	746829	prompt	n/a	framework saint tactics holds\n
374.198	0.112	748396	keystroke	f	n/a
374.413	0.09	748826	keystroke	r	n/a
374.525	0.156	749050	keystroke	a	n/a
374.712	0.1125	749424	keystroke	m	n/a
374.8775	0.091	749755	keystroke	e	n/a
375.092	0.089	750184	keystroke	w	n/a
375.258	0.112	750516	keystroke	o	n/a
375.392	0.161	750784	keystroke	r	n/a
375.554	0.109	751108	keystroke	k	n/a
375.708	0.113	751416	keystroke	Key.space	n/a
376.081	0.203	752162	keystroke	s	n/a
376.402	0.113	752804	keystroke	a	n/a
376.546	0.092	753092	keystroke	i	n/a
376.776	0.092	753552	keystroke	n	n/a
377.021	0.093	754042	keystroke	t	n/a
377.148	0.116	754296	keystroke	Key.space	n/a
377.329	0.116	754658	keystroke	a	n/a
377.374	0.073	754748	keystroke	t	n/a
377.5955	0.16	755191	keystroke	c	n/a
377.7315	0.091	755463	keystroke	t	n/a
377.9195	0.116	755839	keystroke	i	n/a
378.0355	0.09	756071	keystroke	c	n/a
378.2685	0.184	756537	keystroke	s	n/a
378.4045	0.137	756809	keystroke	Key.space	n/a
378.7975	0.089	757595	keystroke	h	n/a
379.0125	0.092	758025	keystroke	o	n/a
379.2215	0.113	758443	keystroke	l	n/a
379.3105	0.091	758621	keystroke	d	n/a
379.5165	0.114	759033	keystroke	s	n/a
379.6625	0.091	759325	keystroke	Key.enter	n/a
379.759	8.396	759518	prompt	n/a	marc relief providers intense\n
380.753	0.138	761506	keystroke	m	n/a
380.914	0.0915	761828	keystroke	a	n/a
381.1155	0.112	762231	keystroke	r	n/a
381.3985	0.182	762797	keystroke	c	n/a
381.5565	0.114	763113	keystroke	Key.space	n/a
382.059	0.113	764118	keystroke	r	n/a
382.243	0.116	764486	keystroke	e	n/a
382.414	0.183	764828	keystroke	l	n/a
382.598	0.09	765196	keystroke	i	n/a
382.8515	0.139	765703	keystroke	e	n/a
383.1265	0.1125	766253	keystroke	f	n/a
383.261	0.091	766522	keystroke	Key.space	n/a
383.781	0.158	767562	keystroke	p	n/a
384.047	0.139	768094	keystroke	r	n/a
384.261	0.115	768522	keystroke	o	n/a
384.591	0.091	769182	keystroke	v	n/a
384.9195	0.114	769839	keystroke	d	n/a
385.4235	0.114	770847	keystroke	Key.backspace	n/a
385.6495	0.137	771299	keystroke	i	n/a
385.8175	0.0905	771635	keystroke	d	n/a
385.994	0.137	771988	keystroke	e	n/a
386.203	0.135	772406	keystroke	r	n/a
386.525	0.159	773050	keystroke	s	n/a
386.685	0.111	773370	keystroke	Key.space	n/a
386.914	0.094	773828	keystroke	i	n/a
387.157	0.091	774314	keystroke	n	n/a
387.3665	0.095	774733	keystroke	t	n/a
387.4365	0.093	774873	keystroke	e	n/a
387.6355	0.116	775271	keystroke	n	n/a
387.7255	0.095	775451	keystroke	s	n/a
387.9195	0.07	775839	keystroke	e	n/a
388.0405	0.113	776081	keystroke	Key.enter	n/a
388.158	16.384	776316	prompt	n/a	relationship psychological keen opened\n
389.0055	0.09	778011	keystroke	r	n/a
389.1265	0.137	778253	keystroke	e	n/a
389.9775	0.181	779955	keystroke	;	n/a
390.3175	0.162	780635	keystroke	a	n/a
390.5815	0.114	781163	keystroke	Key.backspace	n/a
390.792	0.069	781584	keystroke	Key.backspace	n/a
391.404	0.112	782808	keystroke	l	n/a
391.517	0.132	783034	keystroke	a	n/a
391.699	0.089	783398	keystroke	t	n/a
391.955	0.159	783910	keystroke	i	n/a
392.135	0.114	784270	keystroke	o	n/a
392.344	0.113	784688	keystroke	n	n/a
392.458	0.113	784916	keystroke	s	n/a
392.592	0.134	785184	keystroke	h	n/a
392.837	0.203	785674	keystroke	o	n/a
393.306	0.111	786612	keystroke	Key.backspace	n/a
393.797	0.092	787594	keystroke	i	n/a
393.984	0.0905	787968	keystroke	p	n/a
394.2145	0.112	788429	keystroke	Key.space	n/a
394.826	0.068	789652	keystroke	p	n/a
394.987	0.113	789974	keystroke	s	n/a
396.349	0.156	792698	keystroke	y	n/a
396.527	0.18	793054	keystroke	c	n/a
397.1875	0.092	794375	keystroke	h	n/a
397.437	0.115	794874	keystroke	o	n/a
397.642	0.092	795284	keystroke	l	n/a
397.816	0.089	795632	keystroke	o	n/a
398.066	0.115	796132	keystroke	g	n/a
399.306	0.137	798612	keystroke	i	n/a
399.6455	0.135	799291	keystroke	a	n/a
400.0685	0.112	800137	keystroke	Key.backspace	n/a
400.2025	0.114	800405	keystroke	c	n/a
400.4245	0.136	800849	keystroke	a	n/a
400.5365	0.138	801073	keystroke	l	n/a
400.6955	0.139	801391	keystroke	Key.space	n/a
401.822	0.067	803644	keystroke	j	n/a
402.128	0.134	804256	keystroke	Key.backspace	n/a
402.386	0.1345	804772	keystroke	k	n/a
402.5535	0.09	805107	keystroke	e	n/a
402.6975	0.0905	805395	keystroke	e	n/a
402.84	0.163	805680	keystroke	l	n/a
403.004	0.135	806008	keystroke	Key.space	n/a
403.3555	0.1595	806711	keystroke	o	n/a
403.563	0.111	807126	keystroke	p	n/a
403.792	0.16	807584	keystroke	n	n/a
403.906	0.114	807812	keystroke	e	n/a
404.121	0.116	808242	keystroke	d	n/a
404.36	0.18	808720	keystroke	Key.enter	n/a
404.5465	6.125	809093	prompt	n/a	kingston casual alloy city\n
405.6295	0.114	811259	keystroke	k	n/a
405.8065	0.093	811613	keystroke	i	n/a
406.0425	0.116	812085	keystroke	n	n/a
406.2485	0.07	812497	keystroke	g	n/a
406.41	0.114	812820	keystroke	s	n/a
406.546	0.092	813092	keystroke	t	n/a
406.742	0.202	813484	keystroke	o	n/a
407.065	0.1385	814130	keystroke	n	n/a
407.2045	0.0895	814409	keystroke	Key.space	n/a
407.3865	0.1145	814773	keystroke	c	n/a
407.634	0.183	815268	keystroke	a	n/a
407.818	0.135	815636	keystroke	s	n/a
407.93	0.068	815860	keystroke	u	n/a
408.055	0.138	816110	keystroke	a	n/a
408.146	0.136	816292	keystroke	l	n/a
408.283	0.112	816566	keystroke	Key.space	n/a
408.68	0.135	817360	keystroke	a	n/a
408.867	0.114	817734	keystroke	l	n/a
409.046	0.092	818092	keystroke	l	n/a
409.218	0.092	818436	keystroke	o	n/a
409.437	0.089	818874	keystroke	y	n/a
409.548	0.137	819096	keystroke	Key.space	n/a
409.743	0.117	819486	keystroke	c	n/a
409.861	0.135	819722	keystroke	i	n/a
410.099	0.092	820198	keystroke	t	n/a
410.305	0.069	820610	keystroke	y	n/a
410.555	0.1155	821110	keystroke	Key.enter	n/a
410.6755	9.643	821351	prompt	n/a	cruz disclose behind daughters\n
411.662	0.091	823324	keystroke	c	n/a
411.9175	0.16	823835	keystroke	r	n/a
412.1655	0.092	824331	keystroke	u	n/a
412.6215	0.092	825243	keystroke	x	n/a
413.0805	0.1575	826161	keystroke	Key.backspace	n/a
413.26	0.137	826520	keystroke	z	n/a
413.35	0.115	826700	keystroke	Key.space	n/a
414.447	0.201	828894	keystroke	d	n/a
414.732	0.1115	829464	keystroke	i	n/a
414.8655	0.135	829731	keystroke	s	n/a
415.1755	0.161	830351	keystroke	c	n/a
415.3375	0.159	830675	keystroke	l	n/a
415.7295	0.112	831459	keystroke	o	n/a
415.8425	0.1345	831685	keystroke	s	n/a
416.08	0.112	832160	keystroke	e	n/a
416.225	0.115	832450	keystroke	Key.space	n/a
417.0085	0.115	834017	keystroke	b	n/a
417.1455	0.137	834291	keystroke	e	n/a
417.2835	0.09	834567	keystroke	h	n/a
417.4035	0.136	834807	keystroke	i	n/a
417.594	0.158	835188	keystroke	n	n/a
417.7285	0.159	835457	keystroke	d	n/a
417.9085	0.1135	835817	keystroke	Key.space	n/a
418.456	0.1565	836912	keystroke	d	n/a
418.7345	0.1415	837469	keystroke	a	n/a
418.877	0.066	837754	keystroke	u	n/a
419.121	0.1125	838242	keystroke	g	n/a
419.3095	0.1135	838619	keystroke	h	n/a
419.477	0.093	838954	keystroke	t	n/a
419.572	0.111	839144	keystroke	e	n/a
419.746	0.1155	839492	keystroke	r	n/a
420.022	0.136	840044	keystroke	s	n/a
420.18	0.137	840360	keystroke	Key.enter	n/a
420.322	7.583	840644	prompt	n/a	soldier spring thumbnail perfect\n
420.8495	0.137	841699	keystroke	s	n/a
421.106	0.112	842212	keystroke	o	n/a
421.315	0.093	842630	keystroke	l	n/a
421.385	0.113	842770	keystroke	d	n/a
421.645	0.091	843290	keystroke	i	n/a
421.758	0.092	843516	keystroke	e	n/a
421.934	0.113	843868	keystroke	r	n/a
422.07	0.117	844140	keystroke	Key.space	n/a
422.347	0.1365	844694	keystroke	s	n/a
422.5135	0.158	845027	keystroke	p	n/a
422.7215	0.136	845443	keystroke	r	n/a
422.9225	0.111	845845	keystroke	i	n/a
423.1505	0.114	846301	keystroke	n	n/a
423.3865	0.091	846773	keystroke	g	n/a
423.5005	0.134	847001	keystroke	Key.space	n/a
424.159	0.138	848318	keystroke	t	n/a
424.4	0.114	848800	keystroke	h	n/a
424.584	0.112	849168	keystroke	u	n/a
424.8435	0.115	849687	keystroke	m	n/a
425.0715	0.0885	850143	keystroke	b	n/a
425.306	0.0935	850612	keystroke	n	n/a
425.4005	0.134	850801	keystroke	a	n/a
425.6055	0.136	851211	keystroke	i	n/a
425.827	0.159	851654	keystroke	l	n/a
425.987	0.1345	851974	keystroke	Key.space	n/a
426.2355	0.137	852471	keystroke	p	n/a
426.4165	0.16	852833	keystroke	e	n/a
426.6665	0.1135	853333	keystroke	r	n/a
426.904	0.069	853808	keystroke	f	n/a
427.1095	0.091	854219	keystroke	e	n/a
427.3385	0.16	854677	keystroke	c	n/a
427.4745	0.092	854949	keystroke	t	n/a
427.7695	0.134	855539	keystroke	Key.enter	n/a
427.908	9.734	855816	prompt	n/a	healing easily christine snake\n
428.92	0.091	857840	keystroke	h	n/a
429.012	0.1355	858024	keystroke	e	n/a
429.2135	0.138	858427	keystroke	a	n/a
429.3525	0.1635	858705	keystroke	l	n/a
429.539	0.116	859078	keystroke	i	n/a
429.798	0.09	859596	keystroke	n	n/a
429.821	0.023	859642	keystroke	m	n/a
430.076	0.137	860152	keystroke	g	n/a
430.235	0.113	860470	keystroke	Key.space	n/a
430.529	0.0925	861058	keystroke	Key.backspace	n/a
430.7095	0.069	861419	keystroke	Key.backspace	n/a
430.8555	0.067	861711	keystroke	Key.backspace	n/a
430.9855	0.0695	861971	keystroke	Key.backspace	n/a
431.641	0.134	863282	keystroke	n	n/a
431.859	0.118	863718	keystroke	g	n/a
431.979	0.133	863958	keystroke	Key.space	n/a
432.209	0.157	864418	keystroke	e	n/a
432.389	0.183	864778	keystroke	a	n/a
432.526	0.136	865052	keystroke	s	n/a
432.703	0.16	865406	keystroke	i	n/a
432.919	0.16	865838	keystroke	l	n/a
433.199	0.112	866398	keystroke	y	n/a
433.361	0.117	866722	keystroke	Key.space	n/a
433.923	0.137	867846	keystroke	c	n/a
434.117	0.091	868234	keystroke	h	n/a
434.482	0.158	868964	keystroke	r	n/a
434.642	0.111	869284	keystroke	i	n/a
434.852	0.092	869704	keystroke	t	n/a
435.037	0.093	870074	keystroke	i	n/a
435.27	0.134	870540	keystroke	n	n/a
435.427	0.134	870854	keystroke	e	n/a
435.583	0.091	871166	keystroke	Key.space	n/a
436.81	0.158	873620	keystroke	s	n/a
437.029	0.115	874058	keystroke	n	n/a
437.174	0.138	874348	keystroke	a	n/a
437.288	0.114	874576	keystroke	k	n/a
437.423	0.093	874846	keystroke	e	n/a
437.571	0.069	875142	keystroke	Key.enter	n/a
437.645	10.331	875290	prompt	n/a	until ctrl nudist dimension\n
438.503	0.112	877006	keystroke	u	n/a
438.741	0.094	877482	keystroke	m	n/a
438.743	0.094	877486	keystroke	n	n/a
438.908	0.134	877816	keystroke	i	n/a
439.16	0.09	878320	keystroke	t	n/a
439.741	0.089	879482	keystroke	Key.backspace	n/a
439.922	0.09	879844	keystroke	Key.backspace	n/a
440.102	0.045	880204	keystroke	Key.backspace	n/a
440.23	0.069	880460	keystroke	Key.backspace	n/a
440.8065	0.113	881613	keystroke	n	n/a
441.0475	0.09	882095	keystroke	t	n/a
441.4025	0.136	882805	keystroke	i	n/a
441.678	0.1375	883356	keystroke	l	n/a
441.8375	0.137	883675	keystroke	Key.space	n/a
442.3945	0.137	884789	keystroke	c	n/a
442.6985	0.091	885397	keystroke	t	n/a
442.8945	0.067	885789	keystroke	r	n/a
443.3165	0.112	886633	keystroke	l	n/a
443.4755	0.092	886951	keystroke	Key.space	n/a
444.1815	0.116	888363	keystroke	n	n/a
444.4385	0.069	888877	keystroke	u	n/a
444.9765	0.135	889953	keystroke	d	n/a
445.1465	0.136	890293	keystroke	i	n/a
445.2835	0.11	890567	keystroke	s	n/a
445.4145	0.092	890829	keystroke	t	n/a
445.5365	0.114	891073	keystroke	Key.space	n/a
446.1775	0.159	892355	keystroke	d	n/a
446.473	0.138	892946	keystroke	i	n/a
446.732	0.091	893464	keystroke	m	n/a
446.824	0.134	893648	keystroke	e	n/a
446.935	0.09	893870	keystroke	n	n/a
447.107	0.1355	894214	keystroke	s	n/a
447.2645	0.1125	894529	keystroke	i	n/a
447.399	0.113	894798	keystroke	o	n/a
447.614	0.092	895228	keystroke	n	n/a
447.883	0.091	895766	keystroke	Key.enter	n/a
447.98	13.782	895960	prompt	n/a	encyclopedia entering durable href\n
448.696	0.159	897392	keystroke	e	n/a
449.075	0.069	898150	keystroke	n	n/a
449.367	0.137	898734	keystroke	c	n/a
450.0525	0.091	900105	keystroke	y	n/a
450.3205	0.135	900641	keystroke	l	n/a
450.5355	0.068	901071	keystroke	o	n/a
450.6565	0.1135	901313	keystroke	c	n/a
450.971	0.093	901942	keystroke	p	n/a
451.308	0.1345	902616	keystroke	e	n/a
451.5405	0.092	903081	keystroke	d	n/a
451.6335	0.0655	903267	keystroke	i	n/a
451.802	0.181	903604	keystroke	a	n/a
451.959	0.092	903918	keystroke	Key.space	n/a
452.341	0.134	904682	keystroke	e	n/a
452.497	0.092	904994	keystroke	n	n/a
452.712	0.068	905424	keystroke	t	n/a
452.802	0.113	905604	keystroke	e	n/a
452.982	0.114	905964	keystroke	r	n/a
453.5875	0.091	907175	keystroke	r	n/a
453.7405	0.091	907481	keystroke	i	n/a
454.0125	0.091	908025	keystroke	Key.backspace	n/a
454.1915	0.091	908383	keystroke	Key.backspace	n/a
454.3845	0.1585	908769	keystroke	i	n/a
454.677	0.0935	909354	keystroke	n	n/a
454.8735	0.091	909747	keystroke	g	n/a
454.9985	0.115	909997	keystroke	Key.space	n/a
455.2545	0.1605	910509	keystroke	d	n/a
455.5805	0.07	911161	keystroke	u	n/a
455.7355	0.135	911471	keystroke	r	n/a
456.0115	0.206	912023	keystroke	a	n/a
456.1465	0.073	912293	keystroke	v	n/a
456.4225	0.158	912845	keystroke	l	n/a
456.6165	0.158	913233	keystroke	e	n/a
456.7955	0.112	913591	keystroke	Key.space	n/a
457.1575	0.092	914315	keystroke	Key.backspace	n/a
457.3335	0.092	914667	keystroke	Key.backspace	n/a
457.4955	0.114	914991	keystroke	Key.backspace	n/a
457.9455	0.115	915891	keystroke	Key.backspace	n/a
458.4705	0.069	916941	keystroke	b	n/a
458.7115	0.1365	917423	keystroke	l	n/a
458.824	0.1605	917648	keystroke	e	n/a
458.893	0.1385	917786	keystroke	Key.space	n/a
460.0295	0.072	920059	keystroke	h	n/a
460.2095	0.1115	920419	keystroke	r	n/a
460.451	0.113	920902	keystroke	e	n/a
460.714	0.1795	921428	keystroke	f	n/a
461.5795	0.1805	923159	keystroke	Key.enter	n/a
461.766	8.327	923532	prompt	n/a	descending cabinet moore bean\n
462.693	0.1355	925386	keystroke	d	n/a
462.9245	0.092	925849	keystroke	e	n/a
463.5295	0.1135	927059	keystroke	s	n/a
463.764	0.091	927528	keystroke	c	n/a
463.964	0.093	927928	keystroke	e	n/a
464.078	0.092	928156	keystroke	n	n/a
464.204	0.116	928408	keystroke	d	n/a
464.341	0.136	928682	keystroke	i	n/a
464.5305	0.115	929061	keystroke	n	n/a
464.7295	0.09	929459	keystroke	g	n/a
464.8735	0.1135	929747	keystroke	Key.space	n/a
465.694	0.1145	931388	keystroke	c	n/a
465.9485	0.138	931897	keystroke	a	n/a
466.0875	0.043	932175	keystroke	n	n/a
466.4385	0.092	932877	keystroke	Key.backspace	n/a
466.755	0.092	933510	keystroke	b	n/a
466.954	0.116	933908	keystroke	i	n/a
467.148	0.112	934296	keystroke	n	n/a
467.283	0.134	934566	keystroke	e	n/a
467.447	0.112	934894	keystroke	t	n/a
467.589	0.135	935178	keystroke	Key.space	n/a
468.199	0.114	936398	keystroke	m	n/a
468.43	0.07	936860	keystroke	o	n/a
468.559	0.091	937118	keystroke	o	n/a
468.671	0.114	937342	keystroke	r	n/a
468.876	0.1385	937752	keystroke	e	n/a
468.9915	0.113	937983	keystroke	Key.space	n/a
469.1855	0.114	938371	keystroke	b	n/a
469.3005	0.115	938601	keystroke	e	n/a
469.4865	0.157	938973	keystroke	a	n/a
469.6455	0.157	939291	keystroke	n	n/a
469.9535	0.138	939907	keystroke	Key.enter	n/a
470.0965	6.7725	940193	prompt	n/a	fence scores policy panic\n
470.9705	0.068	941941	keystroke	f	n/a
471.1545	0.114	942309	keystroke	e	n/a
471.2445	0.117	942489	keystroke	n	n/a
471.7415	0.113	943483	keystroke	c	n/a
471.966	0.112	943932	keystroke	e	n/a
472.08	0.1345	944160	keystroke	Key.space	n/a
472.3305	0.114	944661	keystroke	s	n/a
472.5855	0.091	945171	keystroke	c	n/a
472.7265	0.112	945453	keystroke	o	n/a
472.9255	0.115	945851	keystroke	r	n/a
473.156	0.092	946312	keystroke	e	n/a
473.371	0.137	946742	keystroke	s	n/a
473.483	0.115	946966	keystroke	Key.space	n/a
473.644	0.182	947288	keystroke	p	n/a
473.927	0.159	947854	keystroke	o	n/a
474.576	0.113	949152	keystroke	l	n/a
474.7665	0.09	949533	keystroke	i	n/a
474.8865	0.138	949773	keystroke	c	n/a
475.0845	0.09	950169	keystroke	y	n/a
475.2265	0.134	950453	keystroke	Key.space	n/a
475.811	0.11	951622	keystroke	p	n/a
475.992	0.14	951984	keystroke	a	n/a
476.193	0.114	952386	keystroke	n	n/a
476.398	0.094	952796	keystroke	i	n/a
476.523	0.116	953046	keystroke	c	n/a
476.756	0.111	953512	keystroke	Key.enter	n/a
476.874	8.8165	953748	prompt	n/a	simpson depending upgrading duplicate\n
477.5365	0.137	955073	keystroke	s	n/a
477.8205	0.091	955641	keystroke	i	n/a
478.0565	0.091	956113	keystroke	m	n/a
478.2275	0.136	956455	keystroke	p	n/a
478.7535	0.158	957507	keystroke	s	n/a
478.9455	0.114	957891	keystroke	o	n/a
479.2215	0.16	958443	keystroke	n	n/a
479.4045	0.115	958809	keystroke	Key.space	n/a
479.8295	0.09	959659	keystroke	d	n/a
480.013	0.092	960026	keystroke	e	n/a
480.106	0.116	960212	keystroke	p	n/a
480.223	0.092	960446	keystroke	e	n/a
480.379	0.138	960758	keystroke	n	n/a
480.493	0.137	960986	keystroke	d	n/a
480.607	0.114	961214	keystroke	i	n/a
480.799	0.091	961598	keystroke	n	n/a
481.014	0.16	962028	keystroke	g	n/a
481.196	0.091	962392	keystroke	Key.space	n/a
481.481	0.092	962962	keystroke	u	n/a
481.677	0.091	963354	keystroke	p	n/a
482.5425	0.066	965085	keystroke	g	n/a
482.6435	0.114	965287	keystroke	r	n/a
482.86	0.1585	965720	keystroke	a	n/a
483.0195	0.115	966039	keystroke	d	n/a
483.1105	0.092	966221	keystroke	i	n/a
483.3615	0.114	966723	keystroke	n	n/a
483.5655	0.092	967131	keystroke	g	n/a
483.689	0.1325	967378	keystroke	Key.space	n/a
483.8435	0.117	967687	keystroke	d	n/a
484.338	0.113	968676	keystroke	u	n/a
484.569	0.089	969138	keystroke	p	n/a
484.736	0.092	969472	keystroke	l	n/a
484.906	0.07	969812	keystroke	i	n/a
484.977	0.11	969954	keystroke	c	n/a
485.186	0.158	970372	keystroke	a	n/a
485.299	0.068	970598	keystroke	t	n/a
485.417	0.091	970834	keystroke	e	n/a
485.597	0.091	971194	keystroke	Key.enter	n/a
485.6945	11.822	971389	prompt	n/a	adam furthermore smtp exchanges\n
486.4015	0.136	972803	keystroke	a	n/a
486.5925	0.116	973185	keystroke	d	n/a
486.7605	0.136	973521	keystroke	m	n/a
486.8985	0.114	973797	keystroke	a	n/a
487.8125	0.09	975625	keystroke	Key.backspace	n/a
487.9715	0.091	975943	keystroke	Key.backspace	n/a
488.0385	0.136	976077	keystroke	a	n/a
488.2125	0.162	976425	keystroke	m	n/a
488.3755	0.112	976751	keystroke	Key.space	n/a
488.7395	0.155	977479	keystroke	f	n/a
489.1395	0.091	978279	keystroke	u	n/a
489.3215	0.137	978643	keystroke	r	n/a
489.4885	0.092	978977	keystroke	t	n/a
489.6705	0.092	979341	keystroke	h	n/a
489.7635	0.089	979527	keystroke	e	n/a
489.934	0.115	979868	keystroke	r	n/a
490.071	0.069	980142	keystroke	m	n/a
490.072	0.044	980144	keystroke	n	n/a
490.19	0.16	980380	keystroke	o	n/a
490.351	0.113	980702	keystroke	r	n/a
490.592	0.091	981184	keystroke	e	n/a
490.8085	0.114	981617	keystroke	Key.backspace	n/a
490.9975	0.093	981995	keystroke	Key.backspace	n/a
491.1785	0.067	982357	keystroke	Key.backspace	n/a
491.3345	0.115	982669	keystroke	Key.backspace	n/a
491.6205	0.136	983241	keystroke	Key.backspace	n/a
492.1555	0.136	984311	keystroke	m	n/a
492.3465	0.1605	984693	keystroke	o	n/a
492.637	0.16	985274	keystroke	r	n/a
492.902	0.135	985804	keystroke	e	n/a
493.059	0.112	986118	keystroke	Key.space	n/a
493.476	0.16	986952	keystroke	s	n/a
493.676	0.18	987352	keystroke	m	n/a
494.646	0.069	989292	keystroke	t	n/a
495.023	0.178	990046	keystroke	p	n/a
495.202	0.112	990404	keystroke	Key.space	n/a
495.724	0.113	991448	keystroke	e	n/a
496.001	0.206	992002	keystroke	x	n/a
496.504	0.136	993008	keystroke	c	n/a
496.663	0.068	993326	keystroke	h	n/a
496.774	0.182	993548	keystroke	a	n/a
496.864	0.068	993728	keystroke	n	n/a
497.013	0.09	994026	keystroke	g	n/a
497.08	0.113	994160	keystroke	e	n/a
497.288	0.113	994576	keystroke	s	n/a
497.402	0.1125	994804	keystroke	Key.enter	n/a
497.5195	7.8865	995039	prompt	n/a	leon provides radiation lexus\n
498.1895	0.137	996379	keystroke	l	n/a
498.3475	0.135	996695	keystroke	e	n/a
498.4585	0.158	996917	keystroke	o	n/a
498.6475	0.069	997295	keystroke	o	n/a
499.1305	0.1355	998261	keystroke	n	n/a
499.472	0.091	998944	keystroke	Key.backspace	n/a
499.626	0.089	999252	keystroke	Key.backspace	n/a
499.8965	0.159	999793	keystroke	n	n/a
500.0775	0.092	1000155	keystroke	Key.space	n/a
500.5875	0.1575	1001175	keystroke	p	n/a
500.78	0.137	1001560	keystroke	r	n/a
501.032	0.09	1002064	keystroke	o	n/a
501.429	0.115	1002858	keystroke	v	n/a
501.577	0.067	1003154	keystroke	i	n/a
501.667	0.114	1003334	keystroke	d	n/a
501.897	0.069	1003794	keystroke	e	n/a
502.092	0.113	1004184	keystroke	s	n/a
502.227	0.115	1004454	keystroke	Key.space	n/a
502.5845	0.161	1005169	keystroke	r	n/a
502.8565	0.157	1005713	keystroke	a	n/a
503.0355	0.112	1006071	keystroke	d	n/a
503.1015	0.114	1006203	keystroke	i	n/a
503.2375	0.115	1006475	keystroke	a	n/a
503.3745	0.137	1006749	keystroke	t	n/a
503.7695	0.137	1007539	keystroke	i	n/a
503.9275	0.114	1007855	keystroke	o	n/a
504.1255	0.157	1008251	keystroke	n	n/a
504.2835	0.135	1008567	keystroke	Key.space	n/a
504.5065	0.113	1009013	keystroke	l	n/a
504.5955	0.138	1009191	keystroke	e	n/a
504.8775	0.157	1009755	keystroke	x	n/a
505.0565	0.069	1010113	keystroke	u	n/a
505.1565	0.113	1010313	keystroke	s	n/a
505.3125	0.092	1010625	keystroke	Key.enter	n/a
505.409	15.428	1010818	prompt	n/a	goals humans establishment offensive\n
506.2305	0.114	1012461	keystroke	g	n/a
506.4545	0.092	1012909	keystroke	o	n/a
506.5765	0.134	1013153	keystroke	a	n/a
507.4085	0.1805	1014817	keystroke	l	n/a
507.909	0.158	1015818	keystroke	s	n/a
508.068	0.178	1016136	keystroke	Key.space	n/a
508.523	0.115	1017046	keystroke	h	n/a
508.743	0.092	1017486	keystroke	u	n/a
508.964	0.136	1017928	keystroke	m	n/a
509.077	0.156	1018154	keystroke	a	n/a
509.9335	0.157	1019867	keystroke	n	n/a
510.0665	0.137	1020133	keystroke	s	n/a
510.1795	0.136	1020359	keystroke	Key.space	n/a
510.4585	0.137	1020917	keystroke	e	n/a
510.737	0.135	1021474	keystroke	s	n/a
510.873	0.112	1021746	keystroke	t	n/a
511.007	0.092	1022014	keystroke	a	n/a
511.189	0.114	1022378	keystroke	b	n/a
511.421	0.185	1022842	keystroke	l	n/a
511.607	0.114	1023214	keystroke	i	n/a
511.721	0.135	1023442	keystroke	s	n/a
511.878	0.115	1023756	keystroke	h	n/a
512.122	0.115	1024244	keystroke	m	n/a
512.213	0.114	1024426	keystroke	e	n/a
513.096	0.1635	1026192	keystroke	m	n/a
513.097	0.116	1026194	keystroke	n	n/a
513.854	0.1155	1027708	keystroke	Key.backspace	n/a
514.0665	0.112	1028133	keystroke	Key.backspace	n/a
514.8065	0.113	1029613	keystroke	n	n/a
515.0795	0.137	1030159	keystroke	t	n/a
515.1925	0.138	1030385	keystroke	Key.space	n/a
515.7985	0.112	1031597	keystroke	o	n/a
516.0255	0.091	1032051	keystroke	f	n/a
516.1735	0.093	1032347	keystroke	f	n/a
516.3815	0.114	1032763	keystroke	e	n/a
516.836	0.093	1033672	keystroke	n	n/a
517.2635	0.1355	1034527	keystroke	s	n/a
517.4	0.1595	1034800	keystroke	i	n/a
517.6565	0.115	1035313	keystroke	b	n/a
517.8315	0.116	1035663	keystroke	e	n/a
518.35	0.094	1036700	keystroke	Key.backspace	n/a
518.516	0.09	1037032	keystroke	Key.backspace	n/a
518.8275	0.136	1037655	keystroke	b	n/a
519.0215	0.09	1038043	keystroke	e	n/a
519.4455	0.114	1038891	keystroke	Key.backspace	n/a
519.6595	0.09	1039319	keystroke	Key.backspace	n/a
520.4195	0.068	1040839	keystroke	v	n/a
520.5615	0.113	1041123	keystroke	e	n/a
520.7195	0.116	1041439	keystroke	Key.enter	n/a
520.84	6.4475	1041680	prompt	n/a	flowers play believed must\n
521.661	0.114	1043322	keystroke	f	n/a
521.89	0.091	1043780	keystroke	l	n/a
522.049	0.092	1044098	keystroke	o	n/a
522.142	0.112	1044284	keystroke	w	n/a
522.343	0.114	1044686	keystroke	e	n/a
522.529	0.093	1045058	keystroke	r	n/a
522.796	0.182	1045592	keystroke	s	n/a
522.979	0.114	1045958	keystroke	Key.space	n/a
523.314	0.115	1046628	keystroke	p	n/a
523.556	0.0915	1047112	keystroke	l	n/a
523.6685	0.115	1047337	keystroke	a	n/a
523.8065	0.07	1047613	keystroke	y	n/a
523.9375	0.113	1047875	keystroke	Key.space	n/a
524.5705	0.093	1049141	keystroke	b	n/a
524.7055	0.115	1049411	keystroke	e	n/a
524.8705	0.1375	1049741	keystroke	l	n/a
525.031	0.09	1050062	keystroke	i	n/a
525.144	0.113	1050288	keystroke	e	n/a
525.299	0.114	1050598	keystroke	v	n/a
525.637	0.138	1051274	keystroke	e	n/a
525.908	0.135	1051816	keystroke	d	n/a
526.064	0.135	1052128	keystroke	Key.space	n/a
526.487	0.134	1052974	keystroke	m	n/a
526.732	0.114	1053464	keystroke	u	n/a
526.868	0.113	1053736	keystroke	s	n/a
526.982	0.065	1053964	keystroke	t	n/a
527.218	0.068	1054436	keystroke	Key.enter	n/a
527.291	6.363	1054582	prompt	n/a	obesity robbie ebony laugh\n
528.1695	0.068	1056339	keystroke	o	n/a
528.4005	0.091	1056801	keystroke	b	n/a
528.4925	0.09	1056985	keystroke	e	n/a
528.7045	0.111	1057409	keystroke	s	n/a
528.8175	0.111	1057635	keystroke	i	n/a
529.0155	0.09	1058031	keystroke	t	n/a
529.2045	0.113	1058409	keystroke	y	n/a
529.3395	0.112	1058679	keystroke	Key.space	n/a
529.8015	0.16	1059603	keystroke	r	n/a
530.0785	0.112	1060157	keystroke	o	n/a
530.3795	0.095	1060759	keystroke	b	n/a
530.5405	0.093	1061081	keystroke	b	n/a
530.743	0.1365	1061486	keystroke	i	n/a
530.9015	0.091	1061803	keystroke	e	n/a
530.9695	0.182	1061939	keystroke	Key.space	n/a
531.3895	0.112	1062779	keystroke	e	n/a
531.6885	0.091	1063377	keystroke	b	n/a
531.9145	0.112	1063829	keystroke	o	n/a
532.1415	0.113	1064283	keystroke	n	n/a
532.3575	0.094	1064715	keystroke	y	n/a
532.4525	0.1345	1064905	keystroke	Key.space	n/a
532.681	0.1155	1065362	keystroke	l	n/a
532.8185	0.117	1065637	keystroke	a	n/a
532.9365	0.088	1065873	keystroke	u	n/a
533.1375	0.091	1066275	keystroke	g	n/a
533.309	0.112	1066618	keystroke	h	n/a
533.5625	0.09	1067125	keystroke	Key.enter	n/a
533.657	9.239	1067314	prompt	n/a	banana apollo endangered backed\n
534.539	0.114	1069078	keystroke	b	n/a
534.675	0.112	1069350	keystroke	a	n/a
534.809	0.114	1069618	keystroke	n	n/a
534.963	0.114	1069926	keystroke	a	n/a
535.078	0.113	1070156	keystroke	n	n/a
535.167	0.114	1070334	keystroke	a	n/a
535.303	0.113	1070606	keystroke	Key.space	n/a
535.742	0.112	1071484	keystroke	a	n/a
535.978	0.134	1071956	keystroke	p	n/a
536.217	0.093	1072434	keystroke	o	n/a
536.406	0.113	1072812	keystroke	l	n/a
536.583	0.114	1073166	keystroke	l	n/a
536.7505	0.09	1073501	keystroke	o	n/a
536.8625	0.114	1073725	keystroke	Key.space	n/a
536.9985	0.178	1073997	keystroke	a	n/a
537.464	0.114	1074928	keystroke	Key.backspace	n/a
537.608	0.139	1075216	keystroke	e	n/a
537.776	0.091	1075552	keystroke	n	n/a
537.799	0.046	1075598	keystroke	m	n/a
538.287	0.091	1076574	keystroke	Key.backspace	n/a
538.447	0.093	1076894	keystroke	Key.backspace	n/a
539.1965	0.093	1078393	keystroke	n	n/a
539.6675	0.112	1079335	keystroke	d	n/a
539.8665	0.138	1079733	keystroke	a	n/a
539.9575	0.092	1079915	keystroke	n	n/a
540.1325	0.07	1080265	keystroke	g	n/a
540.1785	0.114	1080357	keystroke	e	n/a
540.3835	0.093	1080767	keystroke	r	n/a
540.5745	0.09	1081149	keystroke	e	n/a
540.7685	0.092	1081537	keystroke	d	n/a
540.8365	0.117	1081673	keystroke	Key.space	n/a
541.1055	0.068	1082211	keystroke	b	n/a
541.2285	0.0685	1082457	keystroke	b	n/a
541.6865	0.137	1083373	keystroke	Key.backspace	n/a
541.8255	0.133	1083651	keystroke	a	n/a
542.1545	0.137	1084309	keystroke	c	n/a
542.3135	0.137	1084627	keystroke	k	n/a
542.4725	0.09	1084945	keystroke	e	n/a
542.6475	0.112	1085295	keystroke	d	n/a
542.7815	0.113	1085563	keystroke	Key.enter	n/a
542.899	7.144	1085798	prompt	n/a	horizon friendly replica music\n
543.6815	0.067	1087363	keystroke	b	n/a
543.8845	0.089	1087769	keystroke	o	n/a
543.9955	0.0925	1087991	keystroke	r	n/a
544.215	0.159	1088430	keystroke	i	n/a
544.696	0.1825	1089392	keystroke	z	n/a
544.8795	0.091	1089759	keystroke	o	n/a
545.0745	0.138	1090149	keystroke	n	n/a
545.2355	0.113	1090471	keystroke	Key.space	n/a
545.5545	0.133	1091109	keystroke	f	n/a
545.7705	0.114	1091541	keystroke	r	n/a
545.8605	0.115	1091721	keystroke	i	n/a
545.9985	0.112	1091997	keystroke	e	n/a
546.1315	0.115	1092263	keystroke	n	n/a
546.2475	0.089	1092495	keystroke	d	n/a
546.3775	0.113	1092755	keystroke	l	n/a
546.6365	0.069	1093273	keystroke	y	n/a
546.771	0.089	1093542	keystroke	Key.space	n/a
547.216	0.113	1094432	keystroke	r	n/a
547.43	0.117	1094860	keystroke	e	n/a
547.57	0.113	1095140	keystroke	p	n/a
547.72	0.115	1095440	keystroke	l	n/a
547.908	0.091	1095816	keystroke	i	n/a
547.975	0.138	1095950	keystroke	c	n/a
548.239	0.159	1096478	keystroke	a	n/a
548.399	0.089	1096798	keystroke	Key.space	n/a
548.7875	0.1575	1097575	keystroke	m	n/a
549.042	0.096	1098084	keystroke	u	n/a
549.384	0.157	1098768	keystroke	s	n/a
549.6305	0.1145	1099261	keystroke	i	n/a
549.767	0.113	1099534	keystroke	c	n/a
549.9495	0.092	1099899	keystroke	Key.enter	n/a
550.0465	4.783	1100093	prompt	n/a	roller ships lost grow\n
551.013	0.092	1102026	keystroke	r	n/a
551.316	0.114	1102632	keystroke	o	n/a
551.538	0.07	1103076	keystroke	l	n/a
551.677	0.091	1103354	keystroke	l	n/a
551.699	0.114	1103398	keystroke	e	n/a
551.892	0.091	1103784	keystroke	r	n/a
551.984	0.134	1103968	keystroke	Key.space	n/a
552.201	0.136	1104402	keystroke	s	n/a
552.338	0.109	1104676	keystroke	h	n/a
552.5575	0.115	1105115	keystroke	i	n/a
552.7535	0.119	1105507	keystroke	p	n/a
552.9035	0.137	1105807	keystroke	s	n/a
553.0175	0.091	1106035	keystroke	Key.space	n/a
553.4285	0.113	1106857	keystroke	l	n/a
553.6275	0.093	1107255	keystroke	o	n/a
553.7415	0.114	1107483	keystroke	s	n/a
553.8765	0.092	1107753	keystroke	t	n/a
553.9695	0.112	1107939	keystroke	Key.space	n/a
554.1665	0.093	1108333	keystroke	g	n/a
554.2805	0.113	1108561	keystroke	r	n/a
554.4335	0.113	1108867	keystroke	o	n/a
554.5475	0.111	1109095	keystroke	w	n/a
554.7345	0.0925	1109469	keystroke	Key.enter	n/a
554.833	6.8285	1109666	prompt	n/a	disks dedicated electron moved\n
555.453	0.113	1110906	keystroke	d	n/a
555.736	0.114	1111472	keystroke	i	n/a
555.872	0.114	1111744	keystroke	s	n/a
556.03	0.093	1112060	keystroke	k	n/a
556.16	0.092	1112320	keystroke	s	n/a
556.273	0.091	1112546	keystroke	Key.space	n/a
556.562	0.133	1113124	keystroke	d	n/a
556.7705	0.112	1113541	keystroke	e	n/a
557.6055	0.136	1115211	keystroke	d	n/a
557.8475	0.137	1115695	keystroke	i	n/a
557.9595	0.136	1115919	keystroke	c	n/a
558.2015	0.179	1116403	keystroke	a	n/a
558.3345	0.091	1116669	keystroke	t	n/a
558.4605	0.135	1116921	keystroke	e	n/a
558.6635	0.1355	1117327	keystroke	d	n/a
558.752	0.138	1117504	keystroke	Key.space	n/a
558.967	0.1145	1117934	keystroke	e	n/a
559.1395	0.114	1118279	keystroke	l	n/a
559.2305	0.112	1118461	keystroke	e	n/a
559.481	0.1115	1118962	keystroke	c	n/a
559.5695	0.1135	1119139	keystroke	t	n/a
559.736	0.09	1119472	keystroke	r	n/a
559.9705	0.1345	1119941	keystroke	o	n/a
560.22	0.158	1120440	keystroke	n	n/a
560.38	0.111	1120760	keystroke	Key.space	n/a
560.566	0.091	1121132	keystroke	m	n/a
560.784	0.091	1121568	keystroke	o	n/a
560.996	0.092	1121992	keystroke	v	n/a
561.229	0.113	1122458	keystroke	e	n/a
561.412	0.111	1122824	keystroke	d	n/a
561.524	0.136	1123048	keystroke	Key.enter	n/a
561.6645	10.1755	1123329	prompt	n/a	klein dimensional paris dice\n
562.715	0.089	1125430	keystroke	k	n/a
562.893	0.163	1125786	keystroke	l	n/a
563.077	0.0905	1126154	keystroke	i	n/a
563.6795	0.113	1127359	keystroke	Key.backspace	n/a
563.8145	0.115	1127629	keystroke	e	n/a
563.9305	0.1115	1127861	keystroke	i	n/a
564.212	0.1365	1128424	keystroke	n	n/a
564.3705	0.0915	1128741	keystroke	Key.space	n/a
565.2105	0.158	1130421	keystroke	d	n/a
565.9	0.092	1131800	keystroke	i	n/a
566.151	0.114	1132302	keystroke	m	n/a
566.287	0.115	1132574	keystroke	e	n/a
566.378	0.091	1132756	keystroke	n	n/a
566.552	0.183	1133104	keystroke	s	n/a
566.711	0.138	1133422	keystroke	i	n/a
566.893	0.112	1133786	keystroke	o	n/a
567.108	0.114	1134216	keystroke	n	n/a
567.297	0.136	1134594	keystroke	a	n/a
567.365	0.203	1134730	keystroke	l	n/a
567.569	0.111	1135138	keystroke	Key.space	n/a
567.786	0.16	1135572	keystroke	a	n/a
568.273	0.137	1136546	keystroke	Key.backspace	n/a
568.466	0.133	1136932	keystroke	p	n/a
568.621	0.159	1137242	keystroke	a	n/a
568.87	0.18	1137740	keystroke	r	n/a
569.23	0.092	1138460	keystroke	u	n/a
570.01	0.115	1140020	keystroke	Key.backspace	n/a
570.389	0.114	1140778	keystroke	i	n/a
570.504	0.136	1141008	keystroke	s	n/a
570.594	0.114	1141188	keystroke	Key.space	n/a
570.9615	0.115	1141923	keystroke	d	n/a
571.2185	0.1145	1142437	keystroke	i	n/a
571.335	0.088	1142670	keystroke	c	n/a
571.54	0.091	1143080	keystroke	e	n/a
571.701	0.137	1143402	keystroke	Key.enter	n/a
571.853	6.833	1143706	prompt	n/a	spouse scott designs allah\n
572.6	0.114	1145200	keystroke	s	n/a
572.786	0.181	1145572	keystroke	p	n/a
573.136	0.069	1146272	keystroke	o	n/a
573.363	0.093	1146726	keystroke	u	n/a
573.49	0.113	1146980	keystroke	s	n/a
573.815	0.2035	1147630	keystroke	e	n/a
574.0415	0.137	1148083	keystroke	Key.space	n/a
574.497	0.136	1148994	keystroke	s	n/a
574.7415	0.134	1149483	keystroke	c	n/a
574.9215	0.137	1149843	keystroke	o	n/a
575.2445	0.093	1150489	keystroke	t	n/a
575.415	0.113	1150830	keystroke	t	n/a
575.551	0.135	1151102	keystroke	Key.space	n/a
576.059	0.112	1152118	keystroke	d	n/a
576.252	0.0895	1152504	keystroke	e	n/a
576.4585	0.137	1152917	keystroke	s	n/a
576.5485	0.093	1153097	keystroke	i	n/a
576.7305	0.113	1153461	keystroke	g	n/a
576.9395	0.115	1153879	keystroke	n	n/a
577.0555	0.114	1154111	keystroke	s	n/a
577.1205	0.14	1154241	keystroke	Key.space	n/a
577.6195	0.135	1155239	keystroke	a	n/a
577.7755	0.113	1155551	keystroke	l	n/a
577.9385	0.091	1155877	keystroke	l	n/a
578.0065	0.1355	1156013	keystroke	a	n/a
578.164	0.137	1156328	keystroke	h	n/a
578.572	0.112	1157144	keystroke	Key.enter	n/a
578.689	6.7075	1157378	prompt	n/a	ocean candles turner floors\n
579.5095	0.112	1159019	keystroke	o	n/a
579.6765	0.092	1159353	keystroke	c	n/a
579.9025	0.115	1159805	keystroke	e	n/a
580.0935	0.155	1160187	keystroke	a	n/a
580.2255	0.112	1160451	keystroke	n	n/a
580.3585	0.112	1160717	keystroke	Key.space	n/a
580.9555	0.115	1161911	keystroke	c	n/a
581.1515	0.159	1162303	keystroke	a	n/a
581.2875	0.114	1162575	keystroke	n	n/a
581.6575	0.115	1163315	keystroke	d	n/a
581.7935	0.138	1163587	keystroke	l	n/a
581.9075	0.091	1163815	keystroke	e	n/a
582.1205	0.135	1164241	keystroke	s	n/a
582.2565	0.0895	1164513	keystroke	Key.space	n/a
582.5515	0.092	1165103	keystroke	t	n/a
582.8185	0.114	1165637	keystroke	u	n/a
582.9545	0.1375	1165909	keystroke	r	n/a
583.131	0.115	1166262	keystroke	n	n/a
583.199	0.091	1166398	keystroke	e	n/a
583.384	0.092	1166768	keystroke	r	n/a
583.5775	0.113	1167155	keystroke	Key.space	n/a
584.114	0.138	1168228	keystroke	f	n/a
584.297	0.091	1168594	keystroke	l	n/a
584.489	0.09	1168978	keystroke	o	n/a
584.642	0.112	1169284	keystroke	o	n/a
584.755	0.135	1169510	keystroke	r	n/a
585.119	0.137	1170238	keystroke	s	n/a
585.278	0.117	1170556	keystroke	Key.enter	n/a
585.3995	9.6455	1170799	prompt	n/a	finance official wives prescribed\n
586.104	0.135	1172208	keystroke	f	n/a
586.28	0.0885	1172560	keystroke	i	n/a
586.503	0.072	1173006	keystroke	n	n/a
586.526	0.051	1173052	keystroke	m	n/a
586.628	0.1125	1173256	keystroke	a	n/a
586.79	0.113	1173580	keystroke	m	n/a
587.313	0.091	1174626	keystroke	Key.backspace	n/a
587.487	0.113	1174974	keystroke	Key.backspace	n/a
587.956	0.112	1175912	keystroke	Key.backspace	n/a
588.401	0.161	1176802	keystroke	a	n/a
588.563	0.09	1177126	keystroke	n	n/a
588.715	0.0915	1177430	keystroke	c	n/a
588.9185	0.1125	1177837	keystroke	e	n/a
589.032	0.135	1178064	keystroke	Key.space	n/a
589.668	0.115	1179336	keystroke	o	n/a
589.907	0.091	1179814	keystroke	f	n/a
590.079	0.112	1180158	keystroke	f	n/a
590.213	0.112	1180426	keystroke	i	n/a
590.302	0.1125	1180604	keystroke	c	n/a
590.4375	0.092	1180875	keystroke	i	n/a
590.6265	0.1385	1181253	keystroke	a	n/a
590.74	0.136	1181480	keystroke	l	n/a
590.897	0.114	1181794	keystroke	Key.space	n/a
591.208	0.135	1182416	keystroke	w	n/a
591.406	0.112	1182812	keystroke	i	n/a
591.9725	0.091	1183945	keystroke	v	n/a
592.1075	0.115	1184215	keystroke	e	n/a
592.3255	0.115	1184651	keystroke	s	n/a
592.4625	0.092	1184925	keystroke	Key.space	n/a
592.8635	0.135	1185727	keystroke	p	n/a
593.1005	0.136	1186201	keystroke	r	n/a
593.3485	0.09	1186697	keystroke	e	n/a
593.5915	0.116	1187183	keystroke	s	n/a
593.8475	0.067	1187695	keystroke	c	n/a
594.0325	0.114	1188065	keystroke	r	n/a
594.1675	0.092	1188335	keystroke	i	n/a
594.3985	0.09	1188797	keystroke	b	n/a
594.5865	0.113	1189173	keystroke	e	n/a
594.8115	0.091	1189623	keystroke	d	n/a
594.9515	0.092	1189903	keystroke	Key.enter	n/a
595.0485	9.8765	1190097	prompt	n/a	sims brave textbooks superintendent\n
595.9975	0.136	1191995	keystroke	s	n/a
596.1105	0.116	1192221	keystroke	i	n/a
596.3475	0.114	1192695	keystroke	m	n/a
596.4835	0.113	1192967	keystroke	s	n/a
596.5975	0.1125	1193195	keystroke	Key.space	n/a
597.525	0.0925	1195050	keystroke	b	n/a
597.729	0.068	1195458	keystroke	r	n/a
598.0385	0.1365	1196077	keystroke	a	n/a
598.3325	0.114	1196665	keystroke	v	n/a
598.4675	0.111	1196935	keystroke	e	n/a
598.624	0.091	1197248	keystroke	Key.space	n/a
598.9355	0.139	1197871	keystroke	t	n/a
599.0965	0.138	1198193	keystroke	e	n/a
599.4755	0.2025	1198951	keystroke	x	n/a
599.948	0.137	1199896	keystroke	t	n/a
600.466	0.09	1200932	keystroke	b	n/a
600.7425	0.0925	1201485	keystroke	o	n/a
600.892	0.115	1201784	keystroke	o	n/a
601.008	0.111	1202016	keystroke	k	n/a
601.174	0.138	1202348	keystroke	s	n/a
601.313	0.112	1202626	keystroke	Key.space	n/a
601.727	0.16	1203454	keystroke	s	n/a
602.075	0.093	1204150	keystroke	u	n/a
602.266	0.1135	1204532	keystroke	p	n/a
602.3805	0.089	1204761	keystroke	e	n/a
602.5955	0.049	1205191	keystroke	r	n/a
602.6665	0.115	1205333	keystroke	i	n/a
602.9175	0.1315	1205835	keystroke	n	n/a
603.248	0.114	1206496	keystroke	t	n/a
603.43	0.115	1206860	keystroke	e	n/a
603.603	0.093	1207206	keystroke	n	n/a
603.718	0.139	1207436	keystroke	d	n/a
604.002	0.136	1208004	keystroke	e	n/a
604.139	0.066	1208278	keystroke	n	n/a
604.325	0.094	1208650	keystroke	t	n/a
604.764	0.16	1209528	keystroke	Key.enter	n/a
604.928	7.732	1209856	prompt	n/a	aircraft helped carry volvo\n
605.6055	0.157	1211211	keystroke	a	n/a
605.8805	0.067	1211761	keystroke	i	n/a
606.1075	0.137	1212215	keystroke	r	n/a
606.424	0.115	1212848	keystroke	c	n/a
606.672	0.1825	1213344	keystroke	r	n/a
606.9375	0.162	1213875	keystroke	a	n/a
607.0535	0.113	1214107	keystroke	f	n/a
607.2585	0.114	1214517	keystroke	t	n/a
607.4195	0.115	1214839	keystroke	Key.space	n/a
607.7215	0.181	1215443	keystroke	h	n/a
607.9615	0.138	1215923	keystroke	e	n/a
608.1555	0.114	1216311	keystroke	l	n/a
608.3535	0.094	1216707	keystroke	p	n/a
608.4485	0.09	1216897	keystroke	e	n/a
608.6405	0.113	1217281	keystroke	d	n/a
608.7555	0.087	1217511	keystroke	Key.space	n/a
610.0385	0.139	1220077	keystroke	c	n/a
610.3175	0.114	1220635	keystroke	a	n/a
610.5195	0.1145	1221039	keystroke	r	n/a
610.706	0.112	1221412	keystroke	r	n/a
610.819	0.111	1221638	keystroke	y	n/a
610.951	0.137	1221902	keystroke	Key.space	n/a
611.6205	0.134	1223241	keystroke	v	n/a
611.7985	0.114	1223597	keystroke	o	n/a
612.0065	0.092	1224013	keystroke	l	n/a
612.1345	0.114	1224269	keystroke	v	n/a
612.2495	0.111	1224499	keystroke	o	n/a
612.5455	0.113	1225091	keystroke	Key.enter	n/a
612.663	6.812	1225326	prompt	n/a	doctors positions grass pressure\n
613.3215	0.137	1226643	keystroke	d	n/a
613.5115	0.116	1227023	keystroke	o	n/a
613.6675	0.113	1227335	keystroke	c	n/a
613.8225	0.069	1227645	keystroke	t	n/a
613.9935	0.114	1227987	keystroke	o	n/a
614.1085	0.134	1228217	keystroke	r	n/a
614.3815	0.156	1228763	keystroke	s	n/a
614.5385	0.111	1229077	keystroke	Key.space	n/a
614.7035	0.138	1229407	keystroke	p	n/a
615.062	0.1145	1230124	keystroke	o	n/a
615.1985	0.114	1230397	keystroke	s	n/a
615.3345	0.115	1230669	keystroke	i	n/a
615.6305	0.092	1231261	keystroke	t	n/a
615.8665	0.113	1231733	keystroke	i	n/a
616.0095	0.111	1232019	keystroke	o	n/a
616.1975	0.1145	1232395	keystroke	n	n/a
616.334	0.137	1232668	keystroke	s	n/a
616.425	0.136	1232850	keystroke	Key.space	n/a
617.0455	0.1135	1234091	keystroke	g	n/a
617.2685	0.0935	1234537	keystroke	r	n/a
617.3635	0.134	1234727	keystroke	a	n/a
617.584	0.1145	1235168	keystroke	s	n/a
617.7585	0.1365	1235517	keystroke	s	n/a
617.848	0.1155	1235696	keystroke	Key.space	n/a
618.0755	0.092	1236151	keystroke	p	n/a
618.2235	0.093	1236447	keystroke	r	n/a
618.4065	0.115	1236813	keystroke	e	n/a
618.6605	0.091	1237321	keystroke	s	n/a
618.8255	0.09	1237651	keystroke	s	n/a
618.9165	0.066	1237833	keystroke	u	n/a
619.0655	0.115	1238131	keystroke	r	n/a
619.2685	0.09	1238537	keystroke	e	n/a
619.3835	0.09	1238767	keystroke	Key.enter	n/a
619.478	7.526	1238956	prompt	n/a	months democrat czech doll\n
620.1675	0.116	1240335	keystroke	m	n/a
620.357	0.091	1240714	keystroke	o	n/a
620.5555	0.0915	1241111	keystroke	n	n/a
620.775	0.092	1241550	keystroke	t	n/a
620.967	0.092	1241934	keystroke	h	n/a
621.093	0.136	1242186	keystroke	s	n/a
621.23	0.111	1242460	keystroke	Key.space	n/a
621.543	0.09	1243086	keystroke	d	n/a
621.737	0.091	1243474	keystroke	e	n/a
621.909	0.091	1243818	keystroke	m	n/a
622.052	0.089	1244104	keystroke	o	n/a
622.163	0.093	1244326	keystroke	c	n/a
622.393	0.09	1244786	keystroke	r	n/a
622.505	0.137	1245010	keystroke	a	n/a
622.618	0.113	1245236	keystroke	t	n/a
622.76	0.092	1245520	keystroke	Key.space	n/a
624.121	0.1125	1248242	keystroke	c	n/a
624.284	0.1365	1248568	keystroke	z	n/a
624.5555	0.091	1249111	keystroke	e	n/a
624.7945	0.135	1249589	keystroke	c	n/a
624.9515	0.089	1249903	keystroke	h	n/a
625.0715	0.136	1250143	keystroke	Key.space	n/a
625.5515	0.158	1251103	keystroke	f	n/a
625.989	0.114	1251978	keystroke	Key.backspace	n/a
626.125	0.113	1252250	keystroke	d	n/a
626.239	0.137	1252478	keystroke	o	n/a
626.562	0.115	1253124	keystroke	l	n/a
626.739	0.0915	1253478	keystroke	l	n/a
626.9335	0.069	1253867	keystroke	Key.enter	n/a
627.007	7.9285	1254014	prompt	n/a	skill interference improve cognitive\n
627.634	0.138	1255268	keystroke	s	n/a
627.896	0.068	1255792	keystroke	k	n/a
628.046	0.091	1256092	keystroke	i	n/a
628.245	0.092	1256490	keystroke	l	n/a
628.398	0.114	1256796	keystroke	l	n/a
628.534	0.094	1257068	keystroke	Key.space	n/a
628.709	0.091	1257418	keystroke	i	n/a
628.927	0.113	1257854	keystroke	n	n/a
629.158	0.072	1258316	keystroke	t	n/a
629.205	0.092	1258410	keystroke	e	n/a
629.39	0.136	1258780	keystroke	r	n/a
629.706	0.069	1259412	keystroke	f	n/a
629.8955	0.0905	1259791	keystroke	e	n/a
630.068	0.0945	1260136	keystroke	r	n/a
630.2505	0.115	1260501	keystroke	e	n/a
630.3415	0.138	1260683	keystroke	n	n/a
630.5305	0.094	1261061	keystroke	c	n/a
630.7635	0.11	1261527	keystroke	e	n/a
630.8505	0.113	1261701	keystroke	Key.space	n/a
631.1705	0.1125	1262341	keystroke	i	n/a
631.418	0.09	1262836	keystroke	m	n/a
631.582	0.114	1263164	keystroke	p	n/a
631.697	0.134	1263394	keystroke	r	n/a
631.852	0.091	1263704	keystroke	o	n/a
632.133	0.181	1264266	keystroke	v	n/a
632.344	0.114	1264688	keystroke	e	n/a
632.48	0.093	1264960	keystroke	Key.space	n/a
632.9935	0.158	1265987	keystroke	c	n/a
633.2845	0.135	1266569	keystroke	o	n/a
633.5685	0.113	1267137	keystroke	g	n/a
633.8015	0.091	1267603	keystroke	n	n/a
633.978	0.1145	1267956	keystroke	i	n/a
634.1825	0.092	1268365	keystroke	t	n/a
634.3685	0.094	1268737	keystroke	i	n/a
634.5715	0.094	1269143	keystroke	v	n/a
634.6875	0.093	1269375	keystroke	e	n/a
634.8655	0.068	1269731	keystroke	Key.enter	n/a
634.9395	8.712	1269879	prompt	n/a	auto russia wedding costume\n
636.4095	0.159	1272819	keystroke	a	n/a
636.7465	0.089	1273493	keystroke	u	n/a
636.9475	0.09	1273895	keystroke	t	n/a
637.1565	0.116	1274313	keystroke	o	n/a
637.3025	0.114	1274605	keystroke	Key.space	n/a
637.4695	0.206	1274939	keystroke	r	n/a
638.1245	0.069	1276249	keystroke	u	n/a
638.2255	0.09	1276451	keystroke	s	n/a
638.3825	0.115	1276765	keystroke	s	n/a
638.4985	0.089	1276997	keystroke	i	n/a
638.6275	0.137	1277255	keystroke	a	n/a
638.7165	0.137	1277433	keystroke	Key.space	n/a
638.9405	0.114	1277881	keystroke	e	n/a
639.405	0.112	1278810	keystroke	Key.backspace	n/a
639.539	0.112	1279078	keystroke	w	n/a
639.718	0.115	1279436	keystroke	e	n/a
640.185	0.0905	1280370	keystroke	d	n/a
640.3385	0.089	1280677	keystroke	d	n/a
640.4045	0.115	1280809	keystroke	i	n/a
640.6465	0.09	1281293	keystroke	n	n/a
640.819	0.09	1281638	keystroke	g	n/a
