onset	duration	sample	value	key	prompt_text
3.7485	8.2205	7497	prompt	n/a	the quick brown fox jumps over a lazy dog\n
5.1395	0.0435	10279	keystroke_t	t	n/a
5.1675	0.1205	10335	keystroke_h	h	n/a
5.303	0.09	10606	keystroke_e	e	n/a
5.408	0.105	10816	keystroke_Key.space	Key.space	n/a
5.558	0.135	11116	keystroke_q	q	n/a
5.77	0.165	11540	keystroke_u	u	n/a
5.875	0.12	11750	keystroke_i	i	n/a
6.07	0.135	12140	keystroke_c	c	n/a
6.16	0.151	12320	keystroke_k	k	n/a
6.281	0.15	12562	keystroke_Key.space	Key.space	n/a
6.446	0.1205	12892	keystroke_b	b	n/a
6.5815	0.09	13163	keystroke_r	r	n/a
6.6715	0.105	13343	keystroke_o	o	n/a
6.7915	0.09	13583	keystroke_w	w	n/a
6.8665	0.1645	13733	keystroke_n	n	n/a
6.9565	0.1345	13913	keystroke_Key.space	Key.space	n/a
7.076	0.1205	14152	keystroke_f	f	n/a
7.2115	0.105	14423	keystroke_o	o	n/a
7.3765	0.12	14753	keystroke_x	x	n/a
7.511	0.105	15022	keystroke_Key.space	Key.space	n/a
8.4565	0.105	16913	keystroke_j	j	n/a
8.6515	0.06	17303	keystroke_u	u	n/a
8.861	0.135	17722	keystroke_m	m	n/a
8.951	0.135	17902	keystroke_p	p	n/a
9.057	0.135	18114	keystroke_s	s	n/a
9.147	0.1645	18294	keystroke_Key.space	Key.space	n/a
9.252	0.1195	18504	keystroke_o	o	n/a
9.3265	0.105	18653	keystroke_v	v	n/a
9.5065	0.165	19013	keystroke_e	e	n/a
9.5965	0.135	19193	keystroke_r	r	n/a
9.7465	0.12	19493	keystroke_Key.space	Key.space	n/a
9.8515	0.12	19703	keystroke_a	a	n/a
9.9865	0.105	19973	keystroke_Key.space	Key.space	n/a
10.1515	0.135	20303	keystroke_l	l	n/a
10.2715	0.105	20543	keystroke_a	a	n/a
10.6015	0.0745	21203	keystroke_z	z	n/a
10.931	0.1955	21862	keystroke_y	y	n/a
11.036	0.1355	22072	keystroke_Key.space	Key.space	n/a
11.1565	0.135	22313	keystroke_d	d	n/a
11.2615	0.12	22523	keystroke_o	o	n/a
11.4865	0.105	22973	keystroke_g	g	n/a
11.8915	0.0745	23783	keystroke_Key.enter	Key.enter	n/a
11.9735	4.09	23947	prompt	n/a	jane penguin tours flows\n
12.5815	0.12	25163	keystroke_j	j	n/a
12.7315	0.12	25463	keystroke_a	a	n/a
12.8525	0.089	25705	keystroke_n	n	n/a
12.9565	0.105	25913	keystroke_e	e	n/a
13.0465	0.18	26093	keystroke_Key.space	Key.space	n/a
13.1515	0.135	26303	keystroke_p	p	n/a
13.3915	0.12	26783	keystroke_e	e	n/a
13.5415	0.135	27083	keystroke_n	n	n/a
13.7065	0.075	27413	keystroke_g	g	n/a
13.8565	0.09	27713	keystroke_u	u	n/a
14.0665	0.225	28133	keystroke_i	i	n/a
14.2015	0.18	28403	keystroke_n	n	n/a
14.2915	0.15	28583	keystroke_Key.space	Key.space	n/a
14.4565	0.09	28913	keystroke_t	t	n/a
14.6215	0.1945	29243	keystroke_o	o	n/a
14.742	0.15	29484	keystroke_u	u	n/a
14.862	0.134	29724	keystroke_r	r	n/a
14.952	0.15	29904	keystroke_s	s	n/a
15.086	0.12	30172	keystroke_Key.space	Key.space	n/a
15.221	0.106	30442	keystroke_f	f	n/a
15.327	0.105	30654	keystroke_l	l	n/a
15.521	0.106	31042	keystroke_o	o	n/a
15.597	0.09	31194	keystroke_w	w	n/a
15.807	0.104	31614	keystroke_s	s	n/a
15.942	0.119	31884	keystroke_Key.enter	Key.enter	n/a
16.067	5.7415	32134	prompt	n/a	showers lines attempts prayer\n
16.691	0.121	33382	keystroke_s	s	n/a
16.797	0.18	33594	keystroke_h	h	n/a
16.901	0.136	33802	keystroke_o	o	n/a
16.961	0.121	33922	keystroke_w	w	n/a
17.037	0.119	34074	keystroke_e	e	n/a
17.232	0.075	34464	keystroke_r	r	n/a
17.367	0.134	34734	keystroke_s	s	n/a
17.486	0.165	34972	keystroke_Key.space	Key.space	n/a
17.577	0.195	35154	keystroke_l	l	n/a
17.682	0.225	35364	keystroke_i	i	n/a
17.802	0.165	35604	keystroke_n	n	n/a
17.952	0.104	35904	keystroke_e	e	n/a
18.3865	0.12	36773	keystroke_s	s	n/a
18.5365	0.135	37073	keystroke_Key.space	Key.space	n/a
18.7765	0.12	37553	keystroke_a	a	n/a
19.1065	0.0745	38213	keystroke_t	t	n/a
19.242	0.044	38484	keystroke_t	t	n/a
20.0815	0.12	40163	keystroke_e	e	n/a
20.2315	0.1955	40463	keystroke_m	m	n/a
20.352	0.165	40704	keystroke_p	p	n/a
20.457	0.165	40914	keystroke_t	t	n/a
20.532	0.165	41064	keystroke_s	s	n/a
20.712	0.105	41424	keystroke_Key.space	Key.space	n/a
20.907	0.12	41814	keystroke_p	p	n/a
21.012	0.12	42024	keystroke_r	r	n/a
21.147	0.12	42294	keystroke_a	a	n/a
21.312	0.105	42624	keystroke_y	y	n/a
21.417	0.165	42834	keystroke_e	e	n/a
21.522	0.135	43044	keystroke_r	r	n/a
21.672	0.135	43344	keystroke_Key.enter	Key.enter	n/a
21.8115	9.702	43623	prompt	n/a	knowledge spell britain abstracts\n
22.497	0.15	44994	keystroke_k	k	n/a
22.662	0.195	45324	keystroke_n	n	n/a
22.796	0.1355	45592	keystroke_o	o	n/a
22.887	0.1045	45774	keystroke_w	w	n/a
23.0515	0.12	46103	keystroke_l	l	n/a
23.1565	0.09	46313	keystroke_e	e	n/a
23.6515	0.105	47303	keystroke_d	d	n/a
23.9515	0.105	47903	keystroke_g	g	n/a
24.2065	0.105	48413	keystroke_e	e	n/a
24.3565	0.15	48713	keystroke_Key.space	Key.space	n/a
24.5665	0.15	49133	keystroke_s	s	n/a
24.7315	0.105	49463	keystroke_p	p	n/a
24.9565	0.075	49913	keystroke_e	e	n/a
25.2115	0.09	50423	keystroke_l	l	n/a
25.4065	0.12	50813	keystroke_l	l	n/a
25.5415	0.1205	51083	keystroke_Key.space	Key.space	n/a
25.887	0.09	51774	keystroke_b	b	n/a
26.276	0.135	52552	keystroke_r	r	n/a
26.517	0.09	53034	keystroke_i	i	n/a
26.666	0.121	53332	keystroke_t	t	n/a
26.877	0.135	53754	keystroke_a	a	n/a
26.981	0.226	53962	keystroke_i	i	n/a
27.086	0.15	54172	keystroke_n	n	n/a
27.176	0.165	54352	keystroke_Key.space	Key.space	n/a
28.886	0.12	57772	keystroke_a	a	n/a
29.126	0.12	58252	keystroke_b	b	n/a
29.396	0.1355	58792	keystroke_s	s	n/a
29.6965	0.1055	59393	keystroke_t	t	n/a
29.877	0.12	59754	keystroke_r	r	n/a
29.967	0.255	59934	keystroke_a	a	n/a
30.552	0.15	61104	keystroke_c	c	n/a
30.9415	0.12	61883	keystroke_t	t	n/a
31.1965	0.135	62393	keystroke_s	s	n/a
31.3765	0.135	62753	keystroke_Key.enter	Key.enter	n/a
31.517	8.0215	63034	prompt	n/a	complexity batch stuff ma'am\n
32.1715	0.12	64343	keystroke_c	c	n/a
32.3215	0.18	64643	keystroke_o	o	n/a
32.4265	0.135	64853	keystroke_m	m	n/a
32.6365	0.21	65273	keystroke_p	p	n/a
32.7715	0.135	65543	keystroke_l	l	n/a
33.1315	0.135	66263	keystroke_e	e	n/a
33.5065	0.135	67013	keystroke_x	x	n/a
33.987	0.135	67974	keystroke_i	i	n/a
34.167	0.105	68334	keystroke_t	t	n/a
34.377	0.09	68754	keystroke_y	y	n/a
34.452	0.225	68904	keystroke_Key.space	Key.space	n/a
34.617	0.12	69234	keystroke_b	b	n/a
34.752	0.105	69504	keystroke_a	a	n/a
34.977	0.105	69954	keystroke_t	t	n/a
35.2615	0.12	70523	keystroke_c	c	n/a
35.4265	0.195	70853	keystroke_h	h	n/a
35.5465	0.15	71093	keystroke_Key.space	Key.space	n/a
35.7865	0.12	71573	keystroke_d	d	n/a
36.4165	0.075	72833	keystroke_Key.backspace	Key.backspace	n/a
36.5215	0.1505	73043	keystroke_s	s	n/a
36.777	0.105	73554	keystroke_t	t	n/a
36.9565	0.12	73913	keystroke_u	u	n/a
37.1815	0.06	74363	keystroke_f	f	n/a
37.3165	0.09	74633	keystroke_f	f	n/a
37.4365	0.105	74873	keystroke_Key.space	Key.space	n/a
37.6615	0.105	75323	keystroke_m	m	n/a
38.0965	0.1205	76193	keystroke_a	a	n/a
38.382	0.105	76764	keystroke_'	'	n/a
38.862	0.12	77724	keystroke_a	a	n/a
39.117	0.105	78234	keystroke_m	m	n/a
39.446	0.09	78892	keystroke_Key.enter	Key.enter	n/a
39.542	5.5765	79084	prompt	n/a	overhead reggae masters baking\n
40.1965	0.09	80393	keystroke_o	o	n/a
40.3465	0.105	80693	keystroke_v	v	n/a
40.5715	0.135	81143	keystroke_e	e	n/a
40.6615	0.12	81323	keystroke_r	r	n/a
40.8565	0.12	81713	keystroke_h	h	n/a
40.9315	0.105	81863	keystroke_e	e	n/a
41.0065	0.1655	82013	keystroke_a	a	n/a
41.142	0.134	82284	keystroke_d	d	n/a
41.246	0.135	82492	keystroke_Key.space	Key.space	n/a
41.516	0.15	83032	keystroke_r	r	n/a
41.621	0.135	83242	keystroke_e	e	n/a
41.862	0.074	83724	keystroke_g	g	n/a
42.041	0.075	84082	keystroke_g	g	n/a
42.251	0.105	84502	keystroke_a	a	n/a
42.626	0.121	85252	keystroke_e	e	n/a
42.777	0.1195	85554	keystroke_Key.space	Key.space	n/a
43.0465	0.135	86093	keystroke_m	m	n/a
43.1515	0.165	86303	keystroke_a	a	n/a
43.2715	0.15	86543	keystroke_s	s	n/a
43.5265	0.105	87053	keystroke_t	t	n/a
43.6765	0.121	87353	keystroke_e	e	n/a
43.7515	0.105	87503	keystroke_r	r	n/a
43.9465	0.105	87893	keystroke_s	s	n/a
44.0365	0.18	88073	keystroke_Key.space	Key.space	n/a
44.1865	0.12	88373	keystroke_b	b	n/a
44.3215	0.091	88643	keystroke_a	a	n/a
44.4565	0.075	88913	keystroke_k	k	n/a
44.6365	0.1805	89273	keystroke_i	i	n/a
44.742	0.12	89484	keystroke_n	n	n/a
44.847	0.09	89694	keystroke_g	g	n/a
45.027	0.09	90054	keystroke_Key.enter	Key.enter	n/a
45.1225	6.7015	90245	prompt	n/a	identify option breast meeting\n
45.7015	0.09	91403	keystroke_i	i	n/a
45.8215	0.18	91643	keystroke_d	d	n/a
45.9415	0.151	91883	keystroke_e	e	n/a
46.1365	0.12	92273	keystroke_n	n	n/a
46.3315	0.105	92663	keystroke_t	t	n/a
46.602	0.09	93204	keystroke_i	i	n/a
46.827	0.105	93654	keystroke_f	f	n/a
46.977	0.18	93954	keystroke_y	y	n/a
47.097	0.135	94194	keystroke_Key.space	Key.space	n/a
47.742	0.2095	95484	keystroke_o	o	n/a
47.862	0.1495	95724	keystroke_p	p	n/a
48.0715	0.1205	96143	keystroke_t	t	n/a
48.147	0.27	96294	keystroke_i	i	n/a
48.252	0.195	96504	keystroke_o	o	n/a
48.312	0.15	96624	keystroke_n	n	n/a
48.432	0.165	96864	keystroke_Key.space	Key.space	n/a
48.582	0.15	97164	keystroke_b	b	n/a
48.747	0.1345	97494	keystroke_r	r	n/a
48.8365	0.15	97673	keystroke_e	e	n/a
49.3015	0.12	98603	keystroke_a	a	n/a
49.5415	0.12	99083	keystroke_s	s	n/a
49.9315	0.105	99863	keystroke_t	t	n/a
50.0515	0.12	100103	keystroke_Key.space	Key.space	n/a
50.322	0.105	100644	keystroke_m	m	n/a
50.517	0.075	101034	keystroke_e	e	n/a
50.667	0.09	101334	keystroke_e	e	n/a
50.892	0.105	101784	keystroke_t	t	n/a
51.012	0.2095	102024	keystroke_i	i	n/a
51.1165	0.135	102233	keystroke_n	n	n/a
51.2665	0.09	102533	keystroke_g	g	n/a
51.7015	0.12	103403	keystroke_Key.enter	Key.enter	n/a
51.829	11.4995	103658	prompt	n/a	rebecca sites difficulty constructed\n
52.4965	0.15	104993	keystroke_r	r	n/a
52.6015	0.135	105203	keystroke_e	e	n/a
52.8865	0.09	105773	keystroke_n	n	n/a
52.9615	0.09	105923	keystroke_e	e	n/a
53.4415	0.03	106883	keystroke_Key.backspace	Key.backspace	n/a
53.5465	0.06	107093	keystroke_Key.backspace	Key.backspace	n/a
53.8165	0.09	107633	keystroke_b	b	n/a
53.8915	0.09	107783	keystroke_e	e	n/a
54.6265	0.09	109253	keystroke_c	c	n/a
54.8515	0.105	109703	keystroke_c	c	n/a
55.0915	0.12	110183	keystroke_a	a	n/a
55.2415	0.12	110483	keystroke_Key.space	Key.space	n/a
55.3465	0.105	110693	keystroke_s	s	n/a
55.932	0.03	111864	keystroke_i	i	n/a
56.052	0.12	112104	keystroke_t	t	n/a
56.277	0.0895	112554	keystroke_r	r	n/a
56.8915	0.075	113783	keystroke_Key.backspace	Key.backspace	n/a
56.9815	0.2095	113963	keystroke_e	e	n/a
57.101	0.151	114202	keystroke_s	s	n/a
57.266	0.12	114532	keystroke_Key.space	Key.space	n/a
57.626	0.12	115252	keystroke_d	d	n/a
57.791	0.091	115582	keystroke_i	i	n/a
57.986	0.061	115972	keystroke_f	f	n/a
58.121	0.09	116242	keystroke_f	f	n/a
58.316	0.105	116632	keystroke_i	i	n/a
58.916	0.09	117832	keystroke_c	c	n/a
59.111	0.091	118222	keystroke_u	u	n/a
59.277	0.149	118554	keystroke_l	l	n/a
59.382	0.149	118764	keystroke_t	t	n/a
59.637	0.059	119274	keystroke_y	y	n/a
59.771	0.1655	119542	keystroke_Key.space	Key.space	n/a
59.9965	0.105	119993	keystroke_c	c	n/a
60.1315	0.165	120263	keystroke_o	o	n/a
60.2215	0.12	120443	keystroke_n	n	n/a
60.3115	0.1205	120623	keystroke_s	s	n/a
60.5965	0.15	121193	keystroke_t	t	n/a
60.6865	0.12	121373	keystroke_r	r	n/a
60.8965	0.09	121793	keystroke_u	u	n/a
61.0165	0.09	122033	keystroke_v	v	n/a
61.3165	0.12	122633	keystroke_t	t	n/a
61.5115	0.12	123023	keystroke_e	e	n/a
61.8415	0.03	123683	keystroke_Key.backspace	Key.backspace	n/a
61.9315	0.075	123863	keystroke_Key.backspace	Key.backspace	n/a
62.1565	0.075	124313	keystroke_Key.backspace	Key.backspace	n/a
62.2915	0.12	124583	keystroke_c	c	n/a
62.6065	0.105	125213	keystroke_t	t	n/a
62.7865	0.165	125573	keystroke_e	e	n/a
62.9665	0.09	125933	keystroke_d	d	n/a
63.252	0.075	126504	keystroke_Key.enter	Key.enter	n/a
63.332	6.101	126664	prompt	n/a	routers without paul herein\n
63.9415	0.105	127883	keystroke_r	r	n/a
64.0615	0.195	128123	keystroke_o	o	n/a
64.1665	0.1655	128333	keystroke_u	u	n/a
64.2715	0.0905	128543	keystroke_t	t	n/a
64.437	0.135	128874	keystroke_e	e	n/a
64.527	0.105	129054	keystroke_r	r	n/a
64.752	0.09	129504	keystroke_s	s	n/a
64.902	0.135	129804	keystroke_Key.space	Key.space	n/a
65.097	0.1195	130194	keystroke_i	i	n/a
65.5165	0.06	131033	keystroke_Key.backspace	Key.backspace	n/a
65.6665	0.105	131333	keystroke_w	w	n/a
65.7725	0.119	131545	keystroke_i	i	n/a
65.9065	0.12	131813	keystroke_t	t	n/a
65.9965	0.075	131993	keystroke_h	h	n/a
66.1315	0.1355	132263	keystroke_o	o	n/a
66.2065	0.1055	132413	keystroke_u	u	n/a
66.297	0.075	132594	keystroke_t	t	n/a
66.4015	0.12	132803	keystroke_Key.space	Key.space	n/a
66.567	0.105	133134	keystroke_p	p	n/a
66.687	0.09	133374	keystroke_a	a	n/a
66.822	0.09	133644	keystroke_u	u	n/a
67.017	0.165	134034	keystroke_l	l	n/a
67.137	0.15	134274	keystroke_Key.space	Key.space	n/a
67.452	0.09	134904	keystroke_h	h	n/a
67.842	0.12	135684	keystroke_e	e	n/a
68.112	0.1045	136224	keystroke_r	r	n/a
68.4715	0.075	136943	keystroke_e	e	n/a
68.6515	0.09	137303	keystroke_i	i	n/a
68.9515	0.105	137903	keystroke_n	n	n/a
69.3415	0.09	138683	keystroke_Key.enter	Key.enter	n/a
69.437	7.676	138874	prompt	n/a	basic vacations instant facility\n
70.122	0.089	140244	keystroke_b	b	n/a
70.226	0.15	140452	keystroke_a	a	n/a
70.346	0.12	140692	keystroke_s	s	n/a
70.451	0.106	140902	keystroke_i	i	n/a
70.602	0.134	141204	keystroke_c	c	n/a
70.751	0.12	141502	keystroke_Key.space	Key.space	n/a
70.932	0.089	141864	keystroke_v	v	n/a
71.142	0.089	142284	keystroke_a	a	n/a
71.337	0.119	142674	keystroke_c	c	n/a
71.501	0.105	143002	keystroke_a	a	n/a
71.7715	0.06	143543	keystroke_t	t	n/a
71.8465	0.225	143693	keystroke_i	i	n/a
71.9365	0.195	143873	keystroke_o	o	n/a
72.0115	0.135	144023	keystroke_n	n	n/a
72.7915	0.105	145583	keystroke_s	s	n/a
72.9865	0.12	145973	keystroke_Key.space	Key.space	n/a
73.1515	0.18	146303	keystroke_i	i	n/a
73.257	0.119	146514	keystroke_n	n	n/a
73.346	0.09	146692	keystroke_s	s	n/a
73.6015	0.0895	147203	keystroke_t	t	n/a
73.9015	0.12	147803	keystroke_n	n	n/a
74.2915	0.06	148583	keystroke_Key.backspace	Key.backspace	n/a
74.3815	0.135	148763	keystroke_a	a	n/a
74.6065	0.105	149213	keystroke_n	n	n/a
74.7265	0.09	149453	keystroke_t	t	n/a
74.8615	0.105	149723	keystroke_Key.space	Key.space	n/a
75.0265	0.105	150053	keystroke_f	f	n/a
75.2515	0.12	150503	keystroke_a	a	n/a
75.5965	0.105	151193	keystroke_c	c	n/a
75.8365	0.075	151673	keystroke_i	i	n/a
76.0915	0.06	152183	keystroke_l	l	n/a
76.2265	0.105	152453	keystroke_i	i	n/a
76.3465	0.12	152693	keystroke_t	t	n/a
76.6165	0.075	153233	keystroke_y	y	n/a
77.022	0.09	154044	keystroke_Key.enter	Key.enter	n/a
77.1165	5.2615	154233	prompt	n/a	land royal wide bingo\n
77.892	0.09	155784	keystroke_l	l	n/a
77.952	0.12	155904	keystroke_a	a	n/a
78.072	0.104	156144	keystroke_n	n	n/a
78.192	0.12	156384	keystroke_d	d	n/a
78.296	0.091	156592	keystroke_Key.space	Key.space	n/a
78.417	0.09	156834	keystroke_r	r	n/a
78.492	0.135	156984	keystroke_o	o	n/a
78.597	0.09	157194	keystroke_y	y	n/a
78.777	0.09	157554	keystroke_l	l	n/a
78.867	0.12	157734	keystroke_a	a	n/a
79.002	0.12	158004	keystroke_Key.space	Key.space	n/a
79.182	0.105	158364	keystroke_w	w	n/a
79.542	0.045	159084	keystroke_Key.backspace	Key.backspace	n/a
79.677	0.06	159354	keystroke_Key.backspace	Key.backspace	n/a
79.797	0.059	159594	keystroke_Key.backspace	Key.backspace	n/a
80.142	0.074	160284	keystroke_Key.backspace	Key.backspace	n/a
80.322	0.119	160644	keystroke_a	a	n/a
80.472	0.119	160944	keystroke_l	l	n/a
80.592	0.089	161184	keystroke_Key.space	Key.space	n/a
80.817	0.105	161634	keystroke_w	w	n/a
80.982	0.09	161964	keystroke_i	i	n/a
81.132	0.089	162264	keystroke_d	d	n/a
81.206	0.151	162412	keystroke_e	e	n/a
81.372	0.134	162744	keystroke_Key.space	Key.space	n/a
81.5365	0.105	163073	keystroke_b	b	n/a
81.7015	0.1805	163403	keystroke_i	i	n/a
81.806	0.135	163612	keystroke_n	n	n/a
81.942	0.104	163884	keystroke_g	g	n/a
82.062	0.105	164124	keystroke_o	o	n/a
82.286	0.09	164572	keystroke_Key.enter	Key.enter	n/a
82.3815	7.362	164763	prompt	n/a	passed philip children notebooks\n
83.007	0.089	166014	keystroke_p	p	n/a
83.126	0.15	166252	keystroke_a	a	n/a
83.291	0.045	166582	keystroke_s	s	n/a
83.412	0.119	166824	keystroke_s	s	n/a
83.666	0.075	167332	keystroke_e	e	n/a
83.906	0.105	167812	keystroke_d	d	n/a
84.026	0.135	168052	keystroke_Key.space	Key.space	n/a
84.2665	0.105	168533	keystroke_p	p	n/a
84.5065	0.0605	169013	keystroke_h	h	n/a
84.7765	0.12	169553	keystroke_l	l	n/a
85.1965	0.045	170393	keystroke_=	=	n/a
85.6615	0.015	171323	keystroke_Key.backspace	Key.backspace	n/a
85.7665	0.045	171533	keystroke_Key.backspace	Key.backspace	n/a
85.9915	0.075	171983	keystroke_i	i	n/a
86.2015	0.075	172403	keystroke_l	l	n/a
86.442	0.1045	172884	keystroke_i	i	n/a
86.6215	0.0905	173243	keystroke_p	p	n/a
86.7415	0.15	173483	keystroke_Key.space	Key.space	n/a
87.1015	0.105	174203	keystroke_c	c	n/a
87.2365	0.18	174473	keystroke_h	h	n/a
87.3415	0.15	174683	keystroke_i	i	n/a
87.4175	0.134	174835	keystroke_l	l	n/a
87.7615	0.105	175523	keystroke_d	d	n/a
88.0165	0.12	176033	keystroke_r	r	n/a
88.0765	0.135	176153	keystroke_e	e	n/a
88.1665	0.195	176333	keystroke_n	n	n/a
88.2715	0.15	176543	keystroke_Key.space	Key.space	n/a
88.5415	0.165	177083	keystroke_n	n	n/a
88.6465	0.12	177293	keystroke_o	o	n/a
88.7215	0.135	177443	keystroke_t	t	n/a
88.7965	0.12	177593	keystroke_e	e	n/a
88.9015	0.15	177803	keystroke_b	b	n/a
89.0215	0.075	178043	keystroke_o	o	n/a
89.2165	0.12	178433	keystroke_o	o	n/a
89.3215	0.135	178643	keystroke_k	k	n/a
89.4865	0.105	178973	keystroke_s	s	n/a
89.6515	0.09	179303	keystroke_Key.enter	Key.enter	n/a
89.7465	5.232	179493	prompt	n/a	omaha onion tables bundle\n
90.4015	0.105	180803	keystroke_o	o	n/a
90.6865	0.105	181373	keystroke_m	m	n/a
90.9115	0.105	181823	keystroke_a	a	n/a
91.1065	0.105	182213	keystroke_h	h	n/a
91.2415	0.09	182483	keystroke_a	a	n/a
91.3615	0.12	182723	keystroke_Key.space	Key.space	n/a
91.7065	0.075	183413	keystroke_o	o	n/a
91.9315	0.09	183863	keystroke_n	n	n/a
92.187	0.195	184374	keystroke_i	i	n/a
92.322	0.135	184644	keystroke_o	o	n/a
92.397	0.12	184794	keystroke_n	n	n/a
92.742	0.12	185484	keystroke_Key.space	Key.space	n/a
92.922	0.0895	185844	keystroke_t	t	n/a
93.0565	0.12	186113	keystroke_a	a	n/a
93.2065	0.195	186413	keystroke_b	b	n/a
93.3115	0.18	186623	keystroke_l	l	n/a
93.4315	0.18	186863	keystroke_e	e	n/a
93.5215	0.135	187043	keystroke_s	s	n/a
93.6715	0.105	187343	keystroke_Key.space	Key.space	n/a
93.8515	0.075	187703	keystroke_b	b	n/a
94.0015	0.105	188003	keystroke_u	u	n/a
94.2565	0.12	188513	keystroke_n	n	n/a
94.4215	0.12	188843	keystroke_d	d	n/a
94.5715	0.105	189143	keystroke_l	l	n/a
94.7215	0.075	189443	keystroke_e	e	n/a
94.8715	0.105	189743	keystroke_Key.enter	Key.enter	n/a
94.9835	7.2545	189967	prompt	n/a	highland because honest flexibility\n
95.6215	0.15	191243	keystroke_h	h	n/a
95.7115	0.135	191423	keystroke_i	i	n/a
95.8615	0.09	191723	keystroke_g	g	n/a
95.9815	0.075	191963	keystroke_h	h	n/a
96.1465	0.105	192293	keystroke_l	l	n/a
96.2515	0.09	192503	keystroke_a	a	n/a
96.3565	0.09	192713	keystroke_n	n	n/a
96.5065	0.12	193013	keystroke_d	d	n/a
96.5965	0.12	193193	keystroke_Key.space	Key.space	n/a
96.7615	0.09	193523	keystroke_b	b	n/a
96.8665	0.09	193733	keystroke_e	e	n/a
97.1515	0.105	194303	keystroke_a	a	n/a
97.5265	0.06	195053	keystroke_Key.backspace	Key.backspace	n/a
97.6315	0.12	195263	keystroke_c	c	n/a
97.7215	0.12	195443	keystroke_a	a	n/a
97.9015	0.09	195803	keystroke_u	u	n/a
98.0065	0.15	196013	keystroke_s	s	n/a
98.1115	0.165	196223	keystroke_e	e	n/a
98.2615	0.105	196523	keystroke_Key.space	Key.space	n/a
98.3965	0.15	196793	keystroke_h	h	n/a
98.5315	0.21	197063	keystroke_o	o	n/a
98.6515	0.15	197303	keystroke_n	n	n/a
98.7265	0.21	197453	keystroke_e	e	n/a
98.8315	0.165	197663	keystroke_s	s	n/a
98.9665	0.12	197933	keystroke_t	t	n/a
99.1015	0.105	198203	keystroke_Key.space	Key.space	n/a
99.5215	0.09	199043	keystroke_f	f	n/a
99.7165	0.105	199433	keystroke_l	l	n/a
99.8065	0.075	199613	keystroke_e	e	n/a
100.1065	0.0905	200213	keystroke_x	x	n/a
100.346	0.106	200692	keystroke_i	i	n/a
100.917	0.074	201834	keystroke_b	b	n/a
101.127	0.06	202254	keystroke_i	i	n/a
101.442	0.09	202884	keystroke_l	l	n/a
101.636	0.091	203272	keystroke_i	i	n/a
101.712	0.105	203424	keystroke_t	t	n/a
101.9515	0.075	203903	keystroke_y	y	n/a
102.1315	0.105	204263	keystroke_Key.enter	Key.enter	n/a
102.242	7.361	204484	prompt	n/a	board thinking conceptual you\n
102.9565	0.09	205913	keystroke_b	b	n/a
103.152	0.105	206304	keystroke_o	o	n/a
103.197	0.1345	206394	keystroke_a	a	n/a
103.302	0.1195	206604	keystroke_r	r	n/a
103.5565	0.105	207113	keystroke_d	d	n/a
103.6615	0.105	207323	keystroke_Key.space	Key.space	n/a
103.8115	0.09	207623	keystroke_t	t	n/a
103.8865	0.135	207773	keystroke_h	h	n/a
103.9915	0.165	207983	keystroke_i	i	n/a
104.1865	0.12	208373	keystroke_n	n	n/a
104.2615	0.105	208523	keystroke_k	k	n/a
104.4715	0.165	208943	keystroke_i	i	n/a
104.5615	0.135	209123	keystroke_n	n	n/a
104.6515	0.0755	209303	keystroke_g	g	n/a
104.787	0.105	209574	keystroke_Key.space	Key.space	n/a
104.892	0.12	209784	keystroke_c	c	n/a
104.997	0.15	209994	keystroke_o	o	n/a
105.087	0.12	210174	keystroke_n	n	n/a
105.387	0.195	210774	keystroke_c	c	n/a
105.537	0.15	211074	keystroke_e	e	n/a
105.732	0.105	211464	keystroke_p	p	n/a
105.852	0.06	211704	keystroke_t	t	n/a
106.077	0.06	212154	keystroke_r	r	n/a
106.182	0.105	212364	keystroke_u	u	n/a
106.572	0.0895	213144	keystroke_a	a	n/a
106.6765	0.1655	213353	keystroke_l	l	n/a
106.7815	0.1495	213563	keystroke_Key.space	Key.space	n/a
107.502	0.255	215004	keystroke_Key.backspace	Key.backspace	n/a
107.772	0.014	215544	keystroke_Key.backspace	Key.backspace	n/a
107.802	0.015	215604	keystroke_Key.backspace	Key.backspace	n/a
107.832	0.03	215664	keystroke_Key.backspace	Key.backspace	n/a
107.936	0.076	215872	keystroke_Key.backspace	Key.backspace	n/a
108.4015	0.105	216803	keystroke_u	u	n/a
108.5665	0.12	217133	keystroke_a	a	n/a
108.6565	0.1505	217313	keystroke_l	l	n/a
108.7465	0.1505	217493	keystroke_Key.space	Key.space	n/a
108.942	0.0895	217884	keystroke_y	y	n/a
109.0915	0.165	218183	keystroke_o	o	n/a
109.1965	0.105	218393	keystroke_u	u	n/a
109.5115	0.09	219023	keystroke_Key.enter	Key.enter	n/a
109.6065	11.202	219213	prompt	n/a	arrived clearance dramatically compliance\n
110.351	0.121	220702	keystroke_a	a	n/a
110.622	0.06	221244	keystroke_r	r	n/a
110.757	0.075	221514	keystroke_r	r	n/a
110.892	0.09	221784	keystroke_i	i	n/a
111.011	0.075	222022	keystroke_v	v	n/a
111.206	0.105	222412	keystroke_e	e	n/a
111.356	0.1505	222712	keystroke_d	d	n/a
111.5665	0.135	223133	keystroke_Key.space	Key.space	n/a
111.7015	0.105	223403	keystroke_c	c	n/a
111.8665	0.105	223733	keystroke_l	l	n/a
112.0315	0.165	224063	keystroke_e	e	n/a
112.1365	0.15	224273	keystroke_a	a	n/a
112.4965	0.0895	224993	keystroke_r	r	n/a
112.826	0.1055	225652	keystroke_a	a	n/a
112.9615	0.12	225923	keystroke_n	n	n/a
113.0965	0.135	226193	keystroke_c	c	n/a
113.1865	0.12	226373	keystroke_e	e	n/a
113.3215	0.105	226643	keystroke_Key.space	Key.space	n/a
113.4415	0.09	226883	keystroke_d	d	n/a
113.6665	0.06	227333	keystroke_r	r	n/a
113.817	0.0745	227634	keystroke_a	a	n/a
114.1465	0.105	228293	keystroke_m	m	n/a
114.3565	0.105	228713	keystroke_a	a	n/a
114.6265	0.075	229253	keystroke_t	t	n/a
114.7615	0.09	229523	keystroke_i	i	n/a
114.9115	0.12	229823	keystroke_c	c	n/a
115.0915	0.105	230183	keystroke_a	a	n/a
115.3015	0.075	230603	keystroke_l	l	n/a
115.4365	0.075	230873	keystroke_l	l	n/a
115.992	0.06	231984	keystroke_t	t	n/a
116.037	0.015	232074	keystroke_y	y	n/a
116.1415	0.105	232283	keystroke_Key.space	Key.space	n/a
116.892	0.015	233784	keystroke_Key.backspace	Key.backspace	n/a
116.9815	0.09	233963	keystroke_Key.backspace	Key.backspace	n/a
117.2815	0.0755	234563	keystroke_Key.backspace	Key.backspace	n/a
118.377	0.075	236754	keystroke_y	y	n/a
118.527	0.12	237054	keystroke_Key.space	Key.space	n/a
118.662	0.105	237324	keystroke_c	c	n/a
118.782	0.195	237564	keystroke_o	o	n/a
118.902	0.105	237804	keystroke_m	m	n/a
119.142	0.135	238284	keystroke_p	p	n/a
119.382	0.09	238764	keystroke_l	l	n/a
119.742	0.09	239484	keystroke_i	i	n/a
119.952	0.12	239904	keystroke_a	a	n/a
120.192	0.09	240384	keystroke_n	n	n/a
120.327	0.21	240654	keystroke_c	c	n/a
120.462	0.12	240924	keystroke_e	e	n/a
120.702	0.105	241404	keystroke_Key.enter	Key.enter	n/a
120.8115	6.8065	241623	prompt	n/a	marvel sure simulation performance\n
121.6315	0.09	243263	keystroke_m	m	n/a
121.7365	0.135	243473	keystroke_a	a	n/a
121.8865	0.105	243773	keystroke_r	r	n/a
122.1565	0.06	244313	keystroke_v	v	n/a
122.4865	0.09	244973	keystroke_e	e	n/a
122.6065	0.165	245213	keystroke_l	l	n/a
122.6965	0.135	245393	keystroke_Key.space	Key.space	n/a
122.8165	0.105	245633	keystroke_s	s	n/a
122.9665	0.12	245933	keystroke_u	u	n/a
123.1015	0.15	246203	keystroke_r	r	n/a
123.1915	0.12	246383	keystroke_e	e	n/a
123.2965	0.135	246593	keystroke_Key.space	Key.space	n/a
123.5215	0.09	247043	keystroke_s	s	n/a
123.6415	0.105	247283	keystroke_i	i	n/a
124.2865	0.09	248573	keystroke_m	m	n/a
124.5715	0.075	249143	keystroke_u	u	n/a
124.8115	0.09	249623	keystroke_l	l	n/a
124.9615	0.12	249923	keystroke_a	a	n/a
125.2165	0.09	250433	keystroke_t	t	n/a
125.2915	0.24	250583	keystroke_i	i	n/a
125.3965	0.195	250793	keystroke_o	o	n/a
125.4715	0.15	250943	keystroke_n	n	n/a
125.5765	0.105	251153	keystroke_Key.space	Key.space	n/a
125.7865	0.075	251573	keystroke_p	p	n/a
125.8315	0.12	251663	keystroke_e	e	n/a
125.9215	0.105	251843	keystroke_r	r	n/a
126.1615	0.06	252323	keystroke_f	f	n/a
126.2515	0.105	252503	keystroke_o	o	n/a
126.3415	0.045	252683	keystroke_r	r	n/a
126.8965	0.105	253793	keystroke_m	m	n/a
127.0165	0.105	254033	keystroke_a	a	n/a
127.1665	0.105	254333	keystroke_n	n	n/a
127.2715	0.18	254543	keystroke_c	c	n/a
127.3915	0.12	254783	keystroke_e	e	n/a
127.5265	0.09	255053	keystroke_Key.enter	Key.enter	n/a
127.621	6.972	255242	prompt	n/a	stating monitor premises regulation\n
128.306	0.121	256612	keystroke_s	s	n/a
128.546	0.075	257092	keystroke_t	t	n/a
128.801	0.09	257602	keystroke_a	a	n/a
129.011	0.09	258022	keystroke_t	t	n/a
129.131	0.195	258262	keystroke_i	i	n/a
129.236	0.015	258472	keystroke_n	n	n/a
129.341	0.06	258682	keystroke_g	g	n/a
129.431	0.105	258862	keystroke_Key.space	Key.space	n/a
129.656	0.135	259312	keystroke_m	m	n/a
129.7615	0.1195	259523	keystroke_o	o	n/a
130.167	0.12	260334	keystroke_n	n	n/a
130.452	0.105	260904	keystroke_i	i	n/a
130.587	0.105	261174	keystroke_t	t	n/a
130.707	0.105	261414	keystroke_o	o	n/a
130.827	0.09	261654	keystroke_r	r	n/a
130.932	0.105	261864	keystroke_Key.space	Key.space	n/a
131.112	0.105	262224	keystroke_p	p	n/a
131.2465	0.18	262493	keystroke_r	r	n/a
131.3515	0.135	262703	keystroke_e	e	n/a
131.682	0.09	263364	keystroke_m	m	n/a
131.892	0.0895	263784	keystroke_i	i	n/a
132.0715	0.1055	264143	keystroke_s	s	n/a
132.312	0.06	264624	keystroke_e	e	n/a
132.492	0.06	264984	keystroke_s	s	n/a
132.597	0.12	265194	keystroke_Key.space	Key.space	n/a
132.702	0.135	265404	keystroke_r	r	n/a
132.792	0.12	265584	keystroke_e	e	n/a
132.987	0.075	265974	keystroke_g	g	n/a
133.137	0.09	266274	keystroke_u	u	n/a
133.407	0.09	266814	keystroke_l	l	n/a
133.512	0.105	267024	keystroke_a	a	n/a
133.722	0.075	267444	keystroke_t	t	n/a
133.782	0.255	267564	keystroke_i	i	n/a
133.902	0.195	267804	keystroke_o	o	n/a
134.007	0.12	268014	keystroke_n	n	n/a
134.5015	0.09	269003	keystroke_Key.enter	Key.enter	n/a
134.5975	5.891	269195	prompt	n/a	exam why's print professionals\n
135.342	0.075	270684	keystroke_e	e	n/a
135.642	0.09	271284	keystroke_x	x	n/a
135.822	0.075	271644	keystroke_a	a	n/a
135.912	0.104	271824	keystroke_m	m	n/a
135.986	0.12	271972	keystroke_Key.space	Key.space	n/a
136.152	0.075	272304	keystroke_w	w	n/a
136.272	0.075	272544	keystroke_h	h	n/a
136.482	0.06	272964	keystroke_y	y	n/a
136.767	0.089	273534	keystroke_'	'	n/a
136.947	0.06	273894	keystroke_s	s	n/a
137.171	0.09	274342	keystroke_Key.space	Key.space	n/a
137.441	0.106	274882	keystroke_p	p	n/a
137.591	0.12	275182	keystroke_r	r	n/a
137.726	0.181	275452	keystroke_i	i	n/a
137.831	0.09	275662	keystroke_n	n	n/a
137.966	0.075	275932	keystroke_t	t	n/a
138.086	0.09	276172	keystroke_Key.space	Key.space	n/a
138.252	0.104	276504	keystroke_p	p	n/a
138.372	0.074	276744	keystroke_r	r	n/a
138.566	0.075	277132	keystroke_o	o	n/a
138.761	0.091	277522	keystroke_f	f	n/a
138.927	0.0895	277854	keystroke_e	e	n/a
139.1665	0.075	278333	keystroke_s	s	n/a
139.3765	0.06	278753	keystroke_s	s	n/a
139.4665	0.24	278933	keystroke_i	i	n/a
139.5565	0.21	279113	keystroke_o	o	n/a
139.6765	0.12	279353	keystroke_n	n	n/a
139.8565	0.09	279713	keystroke_a	a	n/a
139.9765	0.105	279953	keystroke_l	l	n/a
140.1265	0.0905	280253	keystroke_s	s	n/a
140.397	0.09	280794	keystroke_Key.enter	Key.enter	n/a
140.4915	7.242	280983	prompt	n/a	timothy voltage nest communications\n
141.3265	0.075	282653	keystroke_t	t	n/a
141.4315	0.075	282863	keystroke_i	i	n/a
141.627	0.09	283254	keystroke_m	m	n/a
141.807	0.09	283614	keystroke_o	o	n/a
141.987	0.06	283974	keystroke_t	t	n/a
142.062	0.1045	284124	keystroke_h	h	n/a
142.2715	0.195	284543	keystroke_y	y	n/a
142.3915	0.12	284783	keystroke_Key.space	Key.space	n/a
142.5715	0.075	285143	keystroke_v	v	n/a
142.7215	0.075	285443	keystroke_o	o	n/a
142.9615	0.105	285923	keystroke_l	l	n/a
143.3365	0.075	286673	keystroke_t	t	n/a
143.5315	0.105	287063	keystroke_a	a	n/a
143.7715	0.075	287543	keystroke_g	g	n/a
143.9365	0.075	287873	keystroke_e	e	n/a
144.0715	0.12	288143	keystroke_Key.space	Key.space	n/a
144.252	0.149	288504	keystroke_n	n	n/a
144.387	0.209	288774	keystroke_e	e	n/a
144.476	0.151	288952	keystroke_s	s	n/a
144.566	0.135	289132	keystroke_t	t	n/a
144.776	0.135	289552	keystroke_Key.space	Key.space	n/a
145.031	0.076	290062	keystroke_c	c	n/a
145.151	0.135	290302	keystroke_o	o	n/a
145.526	0.09	291052	keystroke_m	m	n/a
145.752	0.074	291504	keystroke_m	m	n/a
146.111	0.045	292222	keystroke_u	u	n/a
146.336	0.09	292672	keystroke_n	n	n/a
146.576	0.09	293152	keystroke_i	i	n/a
146.681	0.135	293362	keystroke_c	c	n/a
146.786	0.12	293572	keystroke_a	a	n/a
147.0265	0.075	294053	keystroke_t	t	n/a
147.1165	0.195	294233	keystroke_i	i	n/a
147.1915	0.165	294383	keystroke_o	o	n/a
147.2815	0.12	294563	keystroke_n	n	n/a
147.4165	0.09	294833	keystroke_s	s	n/a
147.6415	0.09	295283	keystroke_Key.enter	Key.enter	n/a
147.736	6.7775	295472	prompt	n/a	somalia valued wisconsin gentle\n
148.4365	0.09	296873	keystroke_s	s	n/a
148.6165	0.105	297233	keystroke_o	o	n/a
148.8415	0.105	297683	keystroke_m	m	n/a
149.0215	0.1055	298043	keystroke_a	a	n/a
149.157	0.135	298314	keystroke_l	l	n/a
149.247	0.135	298494	keystroke_i	i	n/a
149.367	0.105	298734	keystroke_a	a	n/a
149.502	0.12	299004	keystroke_Key.space	Key.space	n/a
149.6965	0.09	299393	keystroke_v	v	n/a
149.9215	0.09	299843	keystroke_a	a	n/a
150.0565	0.12	300113	keystroke_l	l	n/a
150.4015	0.105	300803	keystroke_u	u	n/a
150.6865	0.09	301373	keystroke_e	e	n/a
150.8965	0.105	301793	keystroke_d	d	n/a
151.0315	0.135	302063	keystroke_Key.space	Key.space	n/a
151.4365	0.09	302873	keystroke_w	w	n/a
151.6465	0.09	303293	keystroke_i	i	n/a
151.8415	0.09	303683	keystroke_s	s	n/a
152.0815	0.09	304163	keystroke_c	c	n/a
152.2165	0.1955	304433	keystroke_o	o	n/a
152.3815	0.12	304763	keystroke_n	n	n/a
152.6515	0.075	305303	keystroke_s	s	n/a
152.7715	0.21	305543	keystroke_i	i	n/a
152.8915	0.165	305783	keystroke_n	n	n/a
153.0715	0.15	306143	keystroke_Key.space	Key.space	n/a
153.2515	0.075	306503	keystroke_g	g	n/a
153.4615	0.105	306923	keystroke_e	e	n/a
153.7315	0.0905	307463	keystroke_n	n	n/a
153.852	0.09	307704	keystroke_t	t	n/a
154.017	0.105	308034	keystroke_l	l	n/a
154.1815	0.075	308363	keystroke_e	e	n/a
154.4215	0.09	308843	keystroke_Key.enter	Key.enter	n/a
154.517	7.4815	309034	prompt	n/a	examines change clicks trademark\n
155.1565	0.075	310313	keystroke_e	e	n/a
155.7865	0.105	311573	keystroke_x	x	n/a
156.132	0.09	312264	keystroke_a	a	n/a
156.282	0.134	312564	keystroke_m	m	n/a
156.432	0.2245	312864	keystroke_i	i	n/a
156.5515	0.135	313103	keystroke_n	n	n/a
156.6715	0.15	313343	keystroke_e	e	n/a
156.7165	0.15	313433	keystroke_s	s	n/a
156.881	0.12	313762	keystroke_Key.space	Key.space	n/a
157.016	0.12	314032	keystroke_c	c	n/a
157.736	0.091	315472	keystroke_h	h	n/a
157.9465	0.105	315893	keystroke_a	a	n/a
158.0665	0.09	316133	keystroke_n	n	n/a
158.3065	0.135	316613	keystroke_g	g	n/a
158.4565	0.12	316913	keystroke_e	e	n/a
158.6365	0.12	317273	keystroke_Key.space	Key.space	n/a
159.222	0.1045	318444	keystroke_c	c	n/a
159.3415	0.2255	318683	keystroke_l	l	n/a
159.4615	0.12	318923	keystroke_i	i	n/a
159.5965	0.075	319193	keystroke_c	c	n/a
159.717	0.1195	319434	keystroke_k	k	n/a
159.8515	0.105	319703	keystroke_s	s	n/a
159.9715	0.12	319943	keystroke_Key.space	Key.space	n/a
160.197	0.06	320394	keystroke_t	t	n/a
160.4065	0.075	320813	keystroke_r	r	n/a
160.5715	0.0605	321143	keystroke_a	a	n/a
160.797	0.135	321594	keystroke_d	d	n/a
160.887	0.135	321774	keystroke_e	e	n/a
161.202	0.105	322404	keystroke_m	m	n/a
161.322	0.165	322644	keystroke_a	a	n/a
161.442	0.105	322884	keystroke_r	r	n/a
161.532	0.105	323064	keystroke_k	k	n/a
161.907	0.0895	323814	keystroke_Key.enter	Key.enter	n/a
162.0015	7.782	324003	prompt	n/a	biography appointed holdem siemens\n
163.1665	0.09	326333	keystroke_b	b	n/a
163.3765	0.09	326753	keystroke_i	i	n/a
163.5115	0.12	327023	keystroke_o	o	n/a
163.6465	0.105	327293	keystroke_g	g	n/a
163.9315	0.09	327863	keystroke_r	r	n/a
164.2015	0.09	328403	keystroke_a	a	n/a
164.3365	0.195	328673	keystroke_p	p	n/a
164.4715	0.12	328943	keystroke_h	h	n/a
164.7115	0.165	329423	keystroke_y	y	n/a
164.8165	0.135	329633	keystroke_Key.space	Key.space	n/a
164.9815	0.105	329963	keystroke_a	a	n/a
165.1615	0.075	330323	keystroke_p	p	n/a
165.3265	0.195	330653	keystroke_p	p	n/a
165.4615	0.135	330923	keystroke_o	o	n/a
165.9115	0.045	331823	keystroke_i	i	n/a
166.1215	0.135	332243	keystroke_n	n	n/a
166.2415	0.12	332483	keystroke_t	t	n/a
166.4815	0.075	332963	keystroke_e	e	n/a
166.6165	0.135	333233	keystroke_d	d	n/a
166.7665	0.1355	333533	keystroke_Key.space	Key.space	n/a
166.992	0.075	333984	keystroke_h	h	n/a
167.187	0.09	334374	keystroke_o	o	n/a
167.382	0.105	334764	keystroke_l	l	n/a
167.502	0.165	335004	keystroke_d	d	n/a
167.607	0.15	335214	keystroke_e	e	n/a
167.742	0.09	335484	keystroke_m	m	n/a
167.967	0.09	335934	keystroke_Key.space	Key.space	n/a
168.2065	0.105	336413	keystroke_s	s	n/a
168.5515	0.09	337103	keystroke_i	i	n/a
168.7915	0.06	337583	keystroke_e	e	n/a
168.9715	0.105	337943	keystroke_m	m	n/a
169.1215	0.075	338243	keystroke_e	e	n/a
169.2415	0.09	338483	keystroke_n	n	n/a
169.3765	0.075	338753	keystroke_s	s	n/a
169.7065	0.075	339413	keystroke_Key.enter	Key.enter	n/a
169.7865	9.2365	339573	prompt	n/a	penalties johnson downtown conflicts\n
170.5765	0.105	341153	keystroke_p	p	n/a
170.7865	0.075	341573	keystroke_e	e	n/a
171.0715	0.09	342143	keystroke_n	n	n/a
171.4165	0.105	342833	keystroke_a	a	n/a
171.6715	0.105	343343	keystroke_l	l	n/a
171.926	0.09	343852	keystroke_t	t	n/a
172.121	0.106	344242	keystroke_i	i	n/a
172.242	0.2095	344484	keystroke_e	e	n/a
172.3465	0.135	344693	keystroke_s	s	n/a
172.4815	0.15	344963	keystroke_Key.space	Key.space	n/a
172.8415	0.0895	345683	keystroke_j	j	n/a
173.081	0.076	346162	keystroke_o	o	n/a
173.291	0.06	346582	keystroke_h	h	n/a
173.4865	0.0905	346973	keystroke_n	n	n/a
173.636	0.09	347272	keystroke_s	s	n/a
173.741	0.15	347482	keystroke_o	o	n/a
173.817	0.135	347634	keystroke_n	n	n/a
174.041	0.12	348082	keystroke_Key.space	Key.space	n/a
174.3565	0.075	348713	keystroke_d	d	n/a
174.6415	0.105	349283	keystroke_o	o	n/a
174.7765	0.09	349553	keystroke_w	w	n/a
174.8965	0.12	349793	keystroke_n	n	n/a
175.0615	0.075	350123	keystroke_t	t	n/a
175.1815	0.21	350363	keystroke_o	o	n/a
176.3365	0.09	352673	keystroke_w	w	n/a
176.4715	0.18	352943	keystroke_n	n	n/a
176.5915	0.15	353183	keystroke_Key.space	Key.space	n/a
176.9515	0.09	353903	keystroke_c	c	n/a
177.2515	0.196	354503	keystroke_o	o	n/a
177.3865	0.135	354773	keystroke_n	n	n/a
177.5815	0.075	355163	keystroke_f	f	n/a
177.7015	0.21	355403	keystroke_l	l	n/a
177.8515	0.12	355703	keystroke_i	i	n/a
178.0315	0.09	356063	keystroke_c	c	n/a
178.347	0.075	356694	keystroke_t	t	n/a
178.587	0.09	357174	keystroke_s	s	n/a
178.917	0.105	357834	keystroke_Key.enter	Key.enter	n/a
179.026	7.0925	358052	prompt	n/a	reach issued motion petroleum\n
179.8315	0.135	359663	keystroke_r	r	n/a
179.8915	0.12	359783	keystroke_e	e	n/a
180.1015	0.135	360203	keystroke_a	a	n/a
180.3265	0.165	360653	keystroke_h	h	n/a
180.4165	0.15	360833	keystroke_Key.space	Key.space	n/a
180.7915	0.03	361583	keystroke_Key.backspace	Key.backspace	n/a
180.9115	0.06	361823	keystroke_Key.backspace	Key.backspace	n/a
181.0775	0.104	362155	keystroke_c	c	n/a
181.2565	0.195	362513	keystroke_h	h	n/a
181.3765	0.135	362753	keystroke_Key.space	Key.space	n/a
181.6165	0.105	363233	keystroke_i	i	n/a
181.7515	0.09	363503	keystroke_s	s	n/a
181.917	0.0745	363834	keystroke_s	s	n/a
182.0365	0.1205	364073	keystroke_u	u	n/a
182.172	0.195	364344	keystroke_e	e	n/a
182.277	0.18	364554	keystroke_d	d	n/a
182.442	0.12	364884	keystroke_Key.space	Key.space	n/a
182.682	0.15	365364	keystroke_m	m	n/a
182.787	0.12	365574	keystroke_o	o	n/a
182.922	0.09	365844	keystroke_t	t	n/a
183.027	0.27	366054	keystroke_i	i	n/a
183.132	0.18	366264	keystroke_o	o	n/a
183.192	0.15	366384	keystroke_n	n	n/a
183.282	0.12	366564	keystroke_Key.space	Key.space	n/a
183.597	0.105	367194	keystroke_p	p	n/a
183.7765	0.105	367553	keystroke_e	e	n/a
184.1965	0.09	368393	keystroke_t	t	n/a
184.4515	0.09	368903	keystroke_r	r	n/a
184.6915	0.12	369383	keystroke_o	o	n/a
185.0065	0.105	370013	keystroke_l	l	n/a
185.1715	0.075	370343	keystroke_e	e	n/a
185.4115	0.075	370823	keystroke_u	u	n/a
185.6965	0.09	371393	keystroke_m	m	n/a
186.0265	0.09	372053	keystroke_Key.enter	Key.enter	n/a
186.1215	5.7865	372243	prompt	n/a	rewards memphis purchased cheat\n
186.8065	0.165	373613	keystroke_r	r	n/a
186.8965	0.12	373793	keystroke_e	e	n/a
187.1515	0.105	374303	keystroke_w	w	n/a
187.2865	0.135	374573	keystroke_a	a	n/a
187.5115	0.105	375023	keystroke_r	r	n/a
187.7965	0.1655	375593	keystroke_d	d	n/a
187.887	0.15	375774	keystroke_s	s	n/a
188.112	0.135	376224	keystroke_Key.space	Key.space	n/a
188.501	0.091	377002	keystroke_m	m	n/a
188.637	0.089	377274	keystroke_e	e	n/a
188.757	0.075	377514	keystroke_m	m	n/a
188.907	0.105	377814	keystroke_p	p	n/a
189.057	0.15	378114	keystroke_h	h	n/a
189.192	0.135	378384	keystroke_i	i	n/a
189.312	0.089	378624	keystroke_s	s	n/a
189.431	0.105	378862	keystroke_Key.space	Key.space	n/a
189.612	0.165	379224	keystroke_p	p	n/a
189.746	0.121	379492	keystroke_u	u	n/a
189.882	0.06	379764	keystroke_r	r	n/a
190.122	0.12	380244	keystroke_c	c	n/a
190.287	0.104	380574	keystroke_h	h	n/a
190.377	0.134	380754	keystroke_a	a	n/a
190.481	0.12	380962	keystroke_s	s	n/a
190.706	0.18	381412	keystroke_e	e	n/a
190.841	0.121	381682	keystroke_d	d	n/a
191.006	0.12	382012	keystroke_Key.space	Key.space	n/a
191.112	0.104	382224	keystroke_c	c	n/a
191.2315	0.105	382463	keystroke_h	h	n/a
191.3515	0.15	382703	keystroke_e	e	n/a
191.4265	0.165	382853	keystroke_a	a	n/a
191.7115	0.06	383423	keystroke_t	t	n/a
191.7865	0.12	383573	keystroke_Key.enter	Key.enter	n/a
191.9125	8.0505	383825	prompt	n/a	concentrate parameter modeling what'll\n
192.596	0.091	385192	keystroke_c	c	n/a
192.717	0.209	385434	keystroke_o	o	n/a
193.406	0.12	386812	keystroke_n	n	n/a
193.571	0.136	387142	keystroke_c	c	n/a
193.646	0.165	387292	keystroke_e	e	n/a
193.931	0.135	387862	keystroke_n	n	n/a
194.3065	0.0905	388613	keystroke_t	t	n/a
194.5315	0.075	389063	keystroke_r	r	n/a
194.7115	0.09	389423	keystroke_a	a	n/a
194.9065	0.165	389813	keystroke_t	t	n/a
194.9965	0.135	389993	keystroke_e	e	n/a
195.1465	0.15	390293	keystroke_Key.space	Key.space	n/a
195.3265	0.12	390653	keystroke_p	p	n/a
195.4615	0.075	390923	keystroke_a	a	n/a
195.7765	0.09	391553	keystroke_r	r	n/a
195.9415	0.105	391883	keystroke_a	a	n/a
196.3165	0.105	392633	keystroke_m	m	n/a
196.4965	0.12	392993	keystroke_e	e	n/a
196.7515	0.105	393503	keystroke_t	t	n/a
196.9465	0.135	393893	keystroke_e	e	n/a
197.0065	0.135	394013	keystroke_r	r	n/a
197.1265	0.1655	394253	keystroke_Key.space	Key.space	n/a
197.277	0.2245	394554	keystroke_m	m	n/a
197.4115	0.135	394823	keystroke_o	o	n/a
197.4865	0.15	394973	keystroke_d	d	n/a
197.5765	0.135	395153	keystroke_e	e	n/a
197.6965	0.15	395393	keystroke_l	l	n/a
197.7865	0.21	395573	keystroke_i	i	n/a
197.9065	0.12	395813	keystroke_n	n	n/a
198.0565	0.105	396113	keystroke_g	g	n/a
198.2065	0.15	396413	keystroke_Key.space	Key.space	n/a
198.4615	0.09	396923	keystroke_w	w	n/a
198.5965	0.105	397193	keystroke_h	h	n/a
198.6865	0.1195	397373	keystroke_a	a	n/a
198.867	0.104	397734	keystroke_t	t	n/a
199.1065	0.105	398213	keystroke_'	'	n/a
199.4515	0.075	398903	keystroke_l	l	n/a
199.6015	0.09	399203	keystroke_l	l	n/a
199.8865	0.075	399773	keystroke_Key.enter	Key.enter	n/a
199.966	8.2325	399932	prompt	n/a	drag considerations knife merge\n
200.712	0.045	401424	keystroke_r	r	n/a
201.057	0.06	402114	keystroke_Key.backspace	Key.backspace	n/a
201.132	0.09	402264	keystroke_d	d	n/a
201.327	0.09	402654	keystroke_r	r	n/a
201.672	0.105	403344	keystroke_g	g	n/a
202.3015	0.075	404603	keystroke_Key.backspace	Key.backspace	n/a
202.3915	0.045	404783	keystroke_a	a	n/a
202.542	0.1045	405084	keystroke_g	g	n/a
202.6915	0.12	405383	keystroke_Key.space	Key.space	n/a
202.8265	0.1205	405653	keystroke_c	c	n/a
202.962	0.165	405924	keystroke_o	o	n/a
203.037	0.15	406074	keystroke_n	n	n/a
203.172	0.105	406344	keystroke_s	s	n/a
203.322	0.09	406644	keystroke_i	i	n/a
203.382	0.135	406764	keystroke_d	d	n/a
203.562	0.165	407124	keystroke_e	e	n/a
203.682	0.105	407364	keystroke_r	r	n/a
203.967	0.135	407934	keystroke_a	a	n/a
204.162	0.09	408324	keystroke_t	t	n/a
204.252	0.21	408504	keystroke_i	i	n/a
204.342	0.18	408684	keystroke_o	o	n/a
204.432	0.135	408864	keystroke_n	n	n/a
204.582	0.06	409164	keystroke_s	s	n/a
204.702	0.105	409404	keystroke_Key.space	Key.space	n/a
204.972	0.18	409944	keystroke_k	k	n/a
205.107	0.24	410214	keystroke_n	n	n/a
205.302	0.105	410604	keystroke_i	i	n/a
206.292	0.105	412584	keystroke_f	f	n/a
206.757	0.104	413514	keystroke_e	e	n/a
206.9665	0.12	413933	keystroke_Key.space	Key.space	n/a
207.1915	0.12	414383	keystroke_m	m	n/a
207.3565	0.12	414713	keystroke_e	e	n/a
207.4315	0.1205	414863	keystroke_r	r	n/a
207.6715	0.09	415343	keystroke_g	g	n/a
207.8515	0.075	415703	keystroke_e	e	n/a
208.1215	0.075	416243	keystroke_Key.enter	Key.enter	n/a
208.1365	0.045	416273	keystroke_]	]	n/a
208.2015	5.5915	416403	prompt	n/a	revelation freely foam kevin\n
208.797	0.104	417594	keystroke_r	r	n/a
208.947	0.12	417894	keystroke_e	e	n/a
209.201	0.076	418402	keystroke_v	v	n/a
209.396	0.075	418792	keystroke_e	e	n/a
209.546	0.105	419092	keystroke_l	l	n/a
209.666	0.121	419332	keystroke_a	a	n/a
209.847	0.089	419694	keystroke_t	t	n/a
209.966	0.24	419932	keystroke_i	i	n/a
210.056	0.18	420112	keystroke_o	o	n/a
210.117	0.194	420234	keystroke_n	n	n/a
210.281	0.15	420562	keystroke_Key.space	Key.space	n/a
210.461	0.105	420922	keystroke_f	f	n/a
210.686	0.255	421372	keystroke_r	r	n/a
210.806	0.255	421612	keystroke_e	e	n/a
211.226	0.06	422452	keystroke_e	e	n/a
211.451	0.105	422902	keystroke_l	l	n/a
211.692	0.0895	423384	keystroke_y	y	n/a
211.8865	0.105	423773	keystroke_Key.space	Key.space	n/a
212.1565	0.075	424313	keystroke_f	f	n/a
212.2615	0.105	424523	keystroke_o	o	n/a
212.442	0.09	424884	keystroke_a	a	n/a
212.562	0.18	425124	keystroke_m	m	n/a
212.667	0.105	425334	keystroke_Key.space	Key.space	n/a
212.967	0.09	425934	keystroke_k	k	n/a
213.0715	0.0755	426143	keystroke_e	e	n/a
213.297	0.09	426594	keystroke_v	v	n/a
213.402	0.15	426804	keystroke_i	i	n/a
213.477	0.12	426954	keystroke_n	n	n/a
213.717	0.075	427434	keystroke_Key.enter	Key.enter	n/a
213.798	10.18	427596	prompt	n/a	town hardcover anaheim forecasts\n
214.617	0.045	429234	keystroke_w	w	n/a
214.992	0.06	429984	keystroke_Key.backspace	Key.backspace	n/a
215.172	0.075	430344	keystroke_t	t	n/a
215.292	0.0895	430584	keystroke_o	o	n/a
215.4115	0.09	430823	keystroke_w	w	n/a
215.5615	0.165	431123	keystroke_b	b	n/a
215.5765	0.12	431153	keystroke_n	n	n/a
215.6975	0.104	431395	keystroke_Key.space	Key.space	n/a
216.1915	0.015	432383	keystroke_Key.backspace	Key.backspace	n/a
216.2515	0.075	432503	keystroke_Key.backspace	Key.backspace	n/a
216.4465	0.0455	432893	keystroke_Key.backspace	Key.backspace	n/a
216.717	0.105	433434	keystroke_n	n	n/a
217.122	0.12	434244	keystroke_Key.space	Key.space	n/a
217.421	0.106	434842	keystroke_h	h	n/a
217.512	0.1345	435024	keystroke_a	a	n/a
217.6315	0.12	435263	keystroke_r	r	n/a
217.887	0.09	435774	keystroke_d	d	n/a
218.172	0.104	436344	keystroke_c	c	n/a
218.487	0.105	436974	keystroke_o	o	n/a
219.237	0.104	438474	keystroke_v	v	n/a
219.491	0.165	438982	keystroke_e	e	n/a
219.597	0.164	439194	keystroke_r	r	n/a
219.851	0.135	439702	keystroke_Key.space	Key.space	n/a
220.046	0.121	440092	keystroke_a	a	n/a
220.241	0.12	440482	keystroke_n	n	n/a
220.391	0.091	440782	keystroke_a	a	n/a
220.751	0.09	441502	keystroke_h	h	n/a
220.976	0.06	441952	keystroke_e	e	n/a
221.081	0.09	442162	keystroke_i	i	n/a
221.351	0.135	442702	keystroke_m	m	n/a
221.441	0.135	442882	keystroke_Key.space	Key.space	n/a
221.622	0.119	443244	keystroke_f	f	n/a
221.771	0.09	443542	keystroke_o	o	n/a
221.906	0.136	443812	keystroke_r	r	n/a
221.981	0.135	443962	keystroke_e	e	n/a
222.5515	0.105	445103	keystroke_c	c	n/a
222.7015	0.15	445403	keystroke_a	a	n/a
222.8215	0.12	445643	keystroke_s	s	n/a
223.1515	0.09	446303	keystroke_t	t	n/a
223.4365	0.09	446873	keystroke_s	s	n/a
223.8715	0.105	447743	keystroke_Key.enter	Key.enter	n/a
223.981	6.1625	447962	prompt	n/a	casual tiny prizes homepage\n
224.6365	0.105	449273	keystroke_c	c	n/a
224.9065	0.105	449813	keystroke_a	a	n/a
225.1165	0.105	450233	keystroke_s	s	n/a
225.2365	0.09	450473	keystroke_u	u	n/a
225.3715	0.06	450743	keystroke_a	a	n/a
225.4615	0.15	450923	keystroke_l	l	n/a
225.5515	0.135	451103	keystroke_Key.space	Key.space	n/a
225.7015	0.09	451403	keystroke_t	t	n/a
225.7765	0.165	451553	keystroke_i	i	n/a
225.8965	0.1205	451793	keystroke_n	n	n/a
226.197	0.15	452394	keystroke_y	y	n/a
226.302	0.12	452604	keystroke_Key.space	Key.space	n/a
226.482	0.09	452964	keystroke_r	r	n/a
226.587	0.12	453174	keystroke_p	p	n/a
227.127	0.045	454254	keystroke_Key.backspace	Key.backspace	n/a
227.262	0.045	454524	keystroke_Key.backspace	Key.backspace	n/a
227.502	0.06	455004	keystroke_p	p	n/a
227.607	0.075	455214	keystroke_r	r	n/a
227.802	0.09	455604	keystroke_i	i	n/a
227.952	0.12	455904	keystroke_z	z	n/a
228.252	0.06	456504	keystroke_e	e	n/a
228.432	0.105	456864	keystroke_s	s	n/a
228.522	0.165	457044	keystroke_Key.space	Key.space	n/a
228.672	0.1045	457344	keystroke_h	h	n/a
228.8365	0.195	457673	keystroke_o	o	n/a
228.9565	0.135	457913	keystroke_m	m	n/a
229.1065	0.06	458213	keystroke_e	e	n/a
229.2415	0.1055	458483	keystroke_p	p	n/a
229.3165	0.0905	458633	keystroke_a	a	n/a
229.542	0.18	459084	keystroke_g	g	n/a
229.647	0.12	459294	keystroke_e	e	n/a
230.067	0.075	460134	keystroke_Key.enter	Key.enter	n/a
230.1465	8.802	460293	prompt	n/a	population purple zero miles\n
230.802	0.09	461604	keystroke_p	p	n/a
230.922	0.09	461844	keystroke_r	r	n/a
231.327	0.03	462654	keystroke_Key.backspace	Key.backspace	n/a
231.537	0.09	463074	keystroke_o	o	n/a
231.732	0.135	463464	keystroke_p	p	n/a
231.897	0.105	463794	keystroke_u	u	n/a
232.107	0.1045	464214	keystroke_l	l	n/a
232.1665	0.165	464333	keystroke_a	a	n/a
232.3015	0.075	464603	keystroke_r	r	n/a
232.3165	0.075	464633	keystroke_t	t	n/a
232.4065	0.255	464813	keystroke_i	i	n/a
232.4665	0.255	464933	keystroke_o	o	n/a
232.5265	0.18	465053	keystroke_n	n	n/a
232.6465	0.165	465293	keystroke_Key.space	Key.space	n/a
233.112	0.045	466224	keystroke_Key.backspace	Key.backspace	n/a
233.217	0.089	466434	keystroke_Key.backspace	Key.backspace	n/a
233.382	0.06	466764	keystroke_Key.backspace	Key.backspace	n/a
233.532	0.06	467064	keystroke_Key.backspace	Key.backspace	n/a
233.652	0.075	467304	keystroke_Key.backspace	Key.backspace	n/a
233.892	0.045	467784	keystroke_Key.backspace	Key.backspace	n/a
234.342	0.105	468684	keystroke_t	t	n/a
234.432	0.3	468864	keystroke_i	i	n/a
234.552	0.225	469104	keystroke_o	o	n/a
234.597	0.195	469194	keystroke_n	n	n/a
234.732	0.149	469464	keystroke_Key.space	Key.space	n/a
235.077	0.105	470154	keystroke_p	p	n/a
235.557	0.105	471114	keystroke_u	u	n/a
235.736	0.106	471472	keystroke_r	r	n/a
235.902	0.24	471804	keystroke_p	p	n/a
236.022	0.164	472044	keystroke_l	l	n/a
236.217	0.105	472434	keystroke_e	e	n/a
236.381	0.12	472762	keystroke_Key.space	Key.space	n/a
236.696	0.105	473392	keystroke_z	z	n/a
237.1465	0.105	474293	keystroke_e	e	n/a
237.6415	0.06	475283	keystroke_r	r	n/a
237.7765	0.165	475553	keystroke_o	o	n/a
237.8815	0.1195	475763	keystroke_Key.space	Key.space	n/a
238.061	0.105	476122	keystroke_m	m	n/a
238.3165	0.045	476633	keystroke_i	i	n/a
238.4815	0.105	476963	keystroke_l	l	n/a
238.5565	0.165	477113	keystroke_e	e	n/a
238.6315	0.165	477263	keystroke_s	s	n/a
238.8415	0.105	477683	keystroke_Key.enter	Key.enter	n/a
238.9515	3.8815	477903	prompt	n/a	loss mode losing calling\n
239.6065	0.075	479213	keystroke_l	l	n/a
239.7865	0.075	479573	keystroke_o	o	n/a
239.9065	0.09	479813	keystroke_s	s	n/a
240.0715	0.0745	480143	keystroke_s	s	n/a
240.176	0.12	480352	keystroke_Key.space	Key.space	n/a
240.401	0.151	480802	keystroke_m	m	n/a
240.521	0.135	481042	keystroke_o	o	n/a
240.611	0.15	481222	keystroke_d	d	n/a
240.686	0.18	481372	keystroke_e	e	n/a
240.806	0.12	481612	keystroke_Key.space	Key.space	n/a
240.971	0.0755	481942	keystroke_l	l	n/a
241.1515	0.06	482303	keystroke_o	o	n/a
241.2265	0.12	482453	keystroke_s	s	n/a
241.3315	0.1795	482663	keystroke_i	i	n/a
241.421	0.135	482842	keystroke_n	n	n/a
241.526	0.09	483052	keystroke_g	g	n/a
241.631	0.12	483262	keystroke_Key.space	Key.space	n/a
241.796	0.15	483592	keystroke_c	c	n/a
241.901	0.15	483802	keystroke_a	a	n/a
242.066	0.0755	484132	keystroke_l	l	n/a
242.2465	0.105	484493	keystroke_l	l	n/a
242.322	0.1645	484644	keystroke_i	i	n/a
242.4265	0.12	484853	keystroke_n	n	n/a
242.5615	0.105	485123	keystroke_g	g	n/a
242.7415	0.09	485483	keystroke_Key.enter	Key.enter	n/a
242.836	5.5025	485672	prompt	n/a	citation albert why're focused\n
243.4615	0.105	486923	keystroke_c	c	n/a
243.7165	0.0755	487433	keystroke_i	i	n/a
243.912	0.105	487824	keystroke_t	t	n/a
244.167	0.1045	488334	keystroke_a	a	n/a
244.4365	0.045	488873	keystroke_t	t	n/a
244.5265	0.255	489053	keystroke_i	i	n/a
244.6165	0.21	489233	keystroke_o	o	n/a
244.7065	0.15	489413	keystroke_n	n	n/a
244.7965	0.12	489593	keystroke_Key.space	Key.space	n/a
244.9465	0.09	489893	keystroke_a	a	n/a
245.097	0.105	490194	keystroke_l	l	n/a
245.382	0.12	490764	keystroke_b	b	n/a
245.532	0.15	491064	keystroke_e	e	n/a
245.622	0.15	491244	keystroke_r	r	n/a
245.832	0.105	491664	keystroke_t	t	n/a
245.982	0.12	491964	keystroke_Key.space	Key.space	n/a
246.147	0.075	492294	keystroke_w	w	n/a
246.237	0.09	492474	keystroke_h	h	n/a
246.447	0.0745	492894	keystroke_y	y	n/a
246.7165	0.09	493433	keystroke_'	'	n/a
246.8515	0.135	493703	keystroke_r	r	n/a
246.9265	0.135	493853	keystroke_e	e	n/a
247.0465	0.1205	494093	keystroke_Key.space	Key.space	n/a
247.242	0.06	494484	keystroke_f	f	n/a
247.392	0.105	494784	keystroke_o	o	n/a
247.512	0.09	495024	keystroke_c	c	n/a
247.662	0.105	495324	keystroke_u	u	n/a
247.722	0.105	495444	keystroke_s	s	n/a
247.917	0.15	495834	keystroke_e	e	n/a
248.022	0.15	496044	keystroke_d	d	n/a
248.232	0.105	496464	keystroke_Key.enter	Key.enter	n/a
248.3415	6.897	496683	prompt	n/a	dice katrina racks effectively\n
248.997	0.09	497994	keystroke_d	d	n/a
249.222	0.09	498444	keystroke_i	i	n/a
249.297	0.135	498594	keystroke_c	c	n/a
249.372	0.165	498744	keystroke_e	e	n/a
249.477	0.119	498954	keystroke_Key.space	Key.space	n/a
249.702	0.105	499404	keystroke_k	k	n/a
250.107	0.105	500214	keystroke_a	a	n/a
250.4065	0.075	500813	keystroke_t	t	n/a
250.6765	0.09	501353	keystroke_r	r	n/a
250.9765	0.09	501953	keystroke_i	i	n/a
251.2165	0.105	502433	keystroke_n	n	n/a
251.3965	0.105	502793	keystroke_a	a	n/a
251.5315	0.18	503063	keystroke_Key.space	Key.space	n/a
251.8465	0.0905	503693	keystroke_r	r	n/a
252.056	0.091	504112	keystroke_a	a	n/a
252.311	0.075	504622	keystroke_c	c	n/a
252.446	0.135	504892	keystroke_k	k	n/a
252.612	0.1045	505224	keystroke_s	s	n/a
252.7465	0.12	505493	keystroke_Key.space	Key.space	n/a
252.9115	0.09	505823	keystroke_e	e	n/a
253.1215	0.06	506243	keystroke_f	f	n/a
253.2565	0.09	506513	keystroke_f	f	n/a
253.4215	0.09	506843	keystroke_e	e	n/a
253.6315	0.105	507263	keystroke_c	c	n/a
254.0065	0.06	508013	keystroke_t	t	n/a
254.231	0.075	508462	keystroke_i	i	n/a
254.441	0.15	508882	keystroke_v	v	n/a
254.546	0.12	509092	keystroke_e	e	n/a
254.636	0.195	509272	keystroke_l	l	n/a
254.816	0.09	509632	keystroke_y	y	n/a
255.146	0.09	510292	keystroke_Key.enter	Key.enter	n/a
255.2415	4.032	510483	prompt	n/a	louis ahead rain albert\n
255.821	0.09	511642	keystroke_l	l	n/a
256.0315	0.09	512063	keystroke_o	o	n/a
256.2415	0.075	512483	keystroke_u	u	n/a
256.3915	0.12	512783	keystroke_i	i	n/a
256.5265	0.105	513053	keystroke_s	s	n/a
256.6465	0.105	513293	keystroke_Key.space	Key.space	n/a
256.7365	0.12	513473	keystroke_a	a	n/a
256.9165	0.12	513833	keystroke_h	h	n/a
257.0215	0.135	514043	keystroke_e	e	n/a
257.1265	0.195	514253	keystroke_a	a	n/a
257.2615	0.1205	514523	keystroke_d	d	n/a
257.397	0.105	514794	keystroke_Key.space	Key.space	n/a
257.532	0.1195	515064	keystroke_r	r	n/a
257.607	0.1345	515214	keystroke_a	a	n/a
257.6665	0.21	515333	keystroke_i	i	n/a
257.7715	0.15	515543	keystroke_n	n	n/a
257.8615	0.105	515723	keystroke_Key.space	Key.space	n/a
257.9675	0.104	515935	keystroke_a	a	n/a
258.1615	0.105	516323	keystroke_l	l	n/a
258.4165	0.105	516833	keystroke_b	b	n/a
258.6565	0.15	517313	keystroke_e	e	n/a
258.7315	0.165	517463	keystroke_r	r	n/a
258.9865	0.09	517973	keystroke_t	t	n/a
259.1815	0.09	518363	keystroke_Key.enter	Key.enter	n/a
259.2765	5.112	518553	prompt	n/a	keno coleman feed sigma\n
259.8865	0.12	519773	keystroke_k	k	n/a
260.0365	0.09	520073	keystroke_e	e	n/a
260.307	0.105	520614	keystroke_n	n	n/a
260.532	0.0745	521064	keystroke_o	o	n/a
260.7265	0.105	521453	keystroke_Key.space	Key.space	n/a
260.9215	0.09	521843	keystroke_c	c	n/a
261.0865	0.09	522173	keystroke_o	o	n/a
261.3415	0.105	522683	keystroke_l	l	n/a
261.5215	0.09	523043	keystroke_e	e	n/a
261.6565	0.12	523313	keystroke_m	m	n/a
261.9265	0.09	523853	keystroke_a	a	n/a
262.0465	0.135	524093	keystroke_n	n	n/a
262.1515	0.135	524303	keystroke_Key.space	Key.space	n/a
262.3015	0.09	524603	keystroke_f	f	n/a
262.4965	0.075	524993	keystroke_e	e	n/a
262.6465	0.105	525293	keystroke_e	e	n/a
263.037	0.135	526074	keystroke_d	d	n/a
263.292	0.105	526584	keystroke_Key.space	Key.space	n/a
263.457	0.105	526914	keystroke_s	s	n/a
263.547	0.12	527094	keystroke_i	i	n/a
263.727	0.075	527454	keystroke_g	g	n/a
263.892	0.105	527784	keystroke_n	n	n/a
264.072	0.09	528144	keystroke_a	a	n/a
264.2965	0.09	528593	keystroke_Key.enter	Key.enter	n/a
264.3925	5.5305	528785	prompt	n/a	bracelets ratio slow died\n
265.3765	0.06	530753	keystroke_c	c	n/a
265.7965	0.045	531593	keystroke_Key.backspace	Key.backspace	n/a
265.9015	0.06	531803	keystroke_Key.backspace	Key.backspace	n/a
266.172	0.09	532344	keystroke_b	b	n/a
266.277	0.105	532554	keystroke_r	r	n/a
266.427	0.12	532854	keystroke_a	a	n/a
266.651	0.135	533302	keystroke_c	c	n/a
266.742	0.135	533484	keystroke_e	e	n/a
266.9365	0.12	533873	keystroke_l	l	n/a
267.0715	0.12	534143	keystroke_e	e	n/a
267.2215	0.135	534443	keystroke_t	t	n/a
267.3415	0.12	534683	keystroke_s	s	n/a
267.5215	0.135	535043	keystroke_Key.space	Key.space	n/a
267.6865	0.15	535373	keystroke_r	r	n/a
267.7915	0.135	535583	keystroke_a	a	n/a
268.121	0.09	536242	keystroke_t	t	n/a
268.226	0.2555	536452	keystroke_i	i	n/a
268.3615	0.18	536723	keystroke_o	o	n/a
268.4665	0.135	536933	keystroke_Key.space	Key.space	n/a
268.6165	0.105	537233	keystroke_s	s	n/a
268.7365	0.075	537473	keystroke_l	l	n/a
268.9015	0.105	537803	keystroke_o	o	n/a
269.0075	0.059	538015	keystroke_w	w	n/a
269.0965	0.12	538193	keystroke_Key.space	Key.space	n/a
269.2315	0.105	538463	keystroke_d	d	n/a
269.3665	0.105	538733	keystroke_i	i	n/a
269.4725	0.194	538945	keystroke_e	e	n/a
269.5765	0.15	539153	keystroke_d	d	n/a
269.8015	0.12	539603	keystroke_Key.enter	Key.enter	n/a
269.926	7.107	539852	prompt	n/a	journal vista engaged treasures\n
270.537	0.135	541074	keystroke_j	j	n/a
270.687	0.21	541374	keystroke_o	o	n/a
270.822	0.12	541644	keystroke_u	u	n/a
270.957	0.06	541914	keystroke_r	r	n/a
271.137	0.105	542274	keystroke_n	n	n/a
271.257	0.105	542514	keystroke_a	a	n/a
271.377	0.135	542754	keystroke_l	l	n/a
271.452	0.15	542904	keystroke_Key.space	Key.space	n/a
271.812	0.06	543624	keystroke_v	v	n/a
272.097	0.075	544194	keystroke_i	i	n/a
272.157	0.135	544314	keystroke_s	s	n/a
272.441	0.075	544882	keystroke_t	t	n/a
272.6665	0.09	545333	keystroke_a	a	n/a
272.8165	0.15	545633	keystroke_Key.space	Key.space	n/a
272.9815	0.105	545963	keystroke_e	e	n/a
273.1465	0.12	546293	keystroke_n	n	n/a
273.3265	0.075	546653	keystroke_g	g	n/a
274.0615	0.015	548123	keystroke_a	a	n/a
274.2115	0.075	548423	keystroke_g	g	n/a
274.3915	0.12	548783	keystroke_e	e	n/a
274.6165	0.105	549233	keystroke_d	d	n/a
274.8115	0.12	549623	keystroke_Key.space	Key.space	n/a
275.0965	0.075	550193	keystroke_t	t	n/a
275.3065	0.12	550613	keystroke_r	r	n/a
275.5315	0.075	551063	keystroke_e	e	n/a
275.7565	0.075	551513	keystroke_a	a	n/a
275.9965	0.09	551993	keystroke_s	s	n/a
276.1615	0.105	552323	keystroke_u	u	n/a
276.3115	0.18	552623	keystroke_r	r	n/a
276.4015	0.195	552803	keystroke_e	e	n/a
276.5065	0.135	553013	keystroke_s	s	n/a
276.9265	0.105	553853	keystroke_Key.enter	Key.enter	n/a
277.0375	9.1315	554075	prompt	n/a	portuguese stations genealogy southeast\n
277.872	0.105	555744	keystroke_p	p	n/a
278.1415	0.105	556283	keystroke_o	o	n/a
278.3215	0.105	556643	keystroke_r	r	n/a
278.6515	0.075	557303	keystroke_t	t	n/a
278.8315	0.105	557663	keystroke_u	u	n/a
279.0715	0.075	558143	keystroke_g	g	n/a
279.507	0.09	559014	keystroke_u	u	n/a
279.717	0.105	559434	keystroke_e	e	n/a
279.942	0.12	559884	keystroke_s	s	n/a
280.137	0.075	560274	keystroke_e	e	n/a
280.271	0.136	560542	keystroke_Key.space	Key.space	n/a
280.392	0.12	560784	keystroke_s	s	n/a
280.557	0.09	561114	keystroke_t	t	n/a
280.767	0.105	561534	keystroke_a	a	n/a
280.977	0.075	561954	keystroke_t	t	n/a
281.082	0.24	562164	keystroke_i	i	n/a
281.187	0.18	562374	keystroke_o	o	n/a
281.247	0.135	562494	keystroke_n	n	n/a
281.367	0.105	562734	keystroke_s	s	n/a
281.517	0.134	563034	keystroke_Key.space	Key.space	n/a
281.727	0.075	563454	keystroke_g	g	n/a
282.2665	0.075	564533	keystroke_e	e	n/a
282.5065	0.12	565013	keystroke_n	n	n/a
282.6715	0.075	565343	keystroke_e	e	n/a
283.0765	0.09	566153	keystroke_a	a	n/a
283.2265	0.0905	566453	keystroke_l	l	n/a
283.437	0.074	566874	keystroke_o	o	n/a
283.541	0.075	567082	keystroke_g	g	n/a
283.707	0.164	567414	keystroke_y	y	n/a
283.796	0.135	567592	keystroke_Key.space	Key.space	n/a
283.901	0.136	567802	keystroke_s	s	n/a
284.052	0.165	568104	keystroke_o	o	n/a
284.126	0.121	568252	keystroke_u	u	n/a
284.261	0.0755	568522	keystroke_t	t	n/a
284.6065	0.105	569213	keystroke_h	h	n/a
285.0265	0.075	570053	keystroke_e	e	n/a
285.2815	0.105	570563	keystroke_a	a	n/a
285.4915	0.135	570983	keystroke_s	s	n/a
285.7615	0.075	571523	keystroke_t	t	n/a
286.061	0.105	572122	keystroke_Key.enter	Key.enter	n/a
286.172	8.276	572344	prompt	n/a	roll madagascar rings bryan\n
286.8565	0.075	573713	keystroke_r	r	n/a
287.0065	0.105	574013	keystroke_o	o	n/a
287.2765	0.09	574553	keystroke_l	l	n/a
287.4565	0.09	574913	keystroke_l	l	n/a
287.5465	0.15	575093	keystroke_Key.space	Key.space	n/a
288.1615	0.075	576323	keystroke_m	m	n/a
288.3865	0.105	576773	keystroke_a	a	n/a
288.7765	0.12	577553	keystroke_d	d	n/a
288.9715	0.105	577943	keystroke_a	a	n/a
289.2265	0.06	578453	keystroke_g	g	n/a
289.4365	0.105	578873	keystroke_a	a	n/a
289.6615	0.105	579323	keystroke_s	s	n/a
289.9015	0.105	579803	keystroke_c	c	n/a
290.0815	0.1505	580163	keystroke_a	a	n/a
290.232	0.12	580464	keystroke_r	r	n/a
290.457	0.12	580914	keystroke_Key.space	Key.space	n/a
290.652	0.09	581304	keystroke_r	r	n/a
290.787	0.225	581574	keystroke_i	i	n/a
290.922	0.165	581844	keystroke_n	n	n/a
291.117	0.24	582234	keystroke_g	g	n/a
291.222	0.225	582444	keystroke_s	s	n/a
291.537	0.135	583074	keystroke_Key.space	Key.space	n/a
291.8215	0.105	583643	keystroke_b	b	n/a
291.9415	0.105	583883	keystroke_r	r	n/a
292.167	0.09	584334	keystroke_y	y	n/a
292.347	0.09	584694	keystroke_a	a	n/a
292.497	0.105	584994	keystroke_n	n	n/a
294.3265	0.12	588653	keystroke_Key.enter	Key.enter	n/a
294.4515	6.672	588903	prompt	n/a	error alternatives schema them\n
295.1515	0.105	590303	keystroke_e	e	n/a
295.4515	0.075	590903	keystroke_r	r	n/a
295.6165	0.045	591233	keystroke_r	r	n/a
295.6915	0.12	591383	keystroke_o	o	n/a
295.8265	0.075	591653	keystroke_r	r	n/a
295.9465	0.135	591893	keystroke_Key.space	Key.space	n/a
296.307	0.119	592614	keystroke_a	a	n/a
296.517	0.105	593034	keystroke_l	l	n/a
296.682	0.1045	593364	keystroke_t	t	n/a
296.8615	0.21	593723	keystroke_e	e	n/a
296.9515	0.15	593903	keystroke_r	r	n/a
297.2365	0.12	594473	keystroke_n	n	n/a
297.3715	0.09	594743	keystroke_a	a	n/a
297.5815	0.075	595163	keystroke_t	t	n/a
297.7315	0.105	595463	keystroke_i	i	n/a
297.8375	0.194	595675	keystroke_v	v	n/a
297.9565	0.1805	595913	keystroke_e	e	n/a
298.0465	0.1505	596093	keystroke_s	s	n/a
298.272	0.1195	596544	keystroke_Key.space	Key.space	n/a
298.6315	0.12	597263	keystroke_s	s	n/a
298.932	0.12	597864	keystroke_c	c	n/a
299.217	0.075	598434	keystroke_h	h	n/a
299.532	0.06	599064	keystroke_e	e	n/a
299.7415	0.105	599483	keystroke_m	m	n/a
299.9365	0.06	599873	keystroke_a	a	n/a
300.0715	0.135	600143	keystroke_Key.space	Key.space	n/a
300.2965	0.105	600593	keystroke_t	t	n/a
300.4315	0.09	600863	keystroke_h	h	n/a
300.5665	0.09	601133	keystroke_e	e	n/a
300.6865	0.12	601373	keystroke_m	m	n/a
301.0315	0.09	602063	keystroke_Key.enter	Key.enter	n/a
301.126	6.987	602252	prompt	n/a	ntsc doom senegal head\n
302.0815	0.09	604163	keystroke_n	n	n/a
302.2915	0.075	604583	keystroke_t	t	n/a
302.756	0.105	605512	keystroke_s	s	n/a
303.056	0.075	606112	keystroke_c	c	n/a
303.476	0.12	606952	keystroke_Key.space	Key.space	n/a
303.9865	0.09	607973	keystroke_d	d	n/a
304.331	0.075	608662	keystroke_o	o	n/a
304.511	0.091	609022	keystroke_o	o	n/a
304.736	0.105	609472	keystroke_m	m	n/a
305.1565	0.12	610313	keystroke_Key.space	Key.space	n/a
305.5165	0.105	611033	keystroke_s	s	n/a
305.7715	0.06	611543	keystroke_e	e	n/a
305.9365	0.09	611873	keystroke_n	n	n/a
306.0415	0.105	612083	keystroke_e	e	n/a
306.2965	0.045	612593	keystroke_g	g	n/a
306.4765	0.09	612953	keystroke_a	a	n/a
306.6115	0.18	613223	keystroke_l	l	n/a
306.6865	0.18	613373	keystroke_Key.space	Key.space	n/a
307.2415	0.105	614483	keystroke_h	h	n/a
307.3615	0.135	614723	keystroke_e	e	n/a
307.4815	0.195	614963	keystroke_a	a	n/a
307.6465	0.12	615293	keystroke_d	d	n/a
308.0065	0.105	616013	keystroke_Key.enter	Key.enter	n/a
308.117	11.186	616234	prompt	n/a	louisiana precious mcdonald transaction\n
308.8615	0.09	617723	keystroke_l	l	n/a
309.1465	0.0745	618293	keystroke_o	o	n/a
309.311	0.09	618622	keystroke_u	u	n/a
309.611	0.105	619222	keystroke_i	i	n/a
310.0015	0.09	620003	keystroke_s	s	n/a
310.1515	0.1045	620303	keystroke_i	i	n/a
310.301	0.12	620602	keystroke_a	a	n/a
310.451	0.1055	620902	keystroke_n	n	n/a
310.5715	0.075	621143	keystroke_a	a	n/a
310.6915	0.09	621383	keystroke_Key.space	Key.space	n/a
310.9015	0.09	621803	keystroke_p	p	n/a
310.9765	0.15	621953	keystroke_r	r	n/a
311.0665	0.12	622133	keystroke_e	e	n/a
311.3215	0.09	622643	keystroke_c	c	n/a
311.4565	0.1345	622913	keystroke_i	i	n/a
311.561	0.225	623122	keystroke_o	o	n/a
311.711	0.12	623422	keystroke_u	u	n/a
311.846	0.1055	623692	keystroke_s	s	n/a
311.9665	0.09	623933	keystroke_Key.space	Key.space	n/a
312.2215	0.09	624443	keystroke_m	m	n/a
312.4165	0.0905	624833	keystroke_d	d	n/a
313.272	0.06	626544	keystroke_Key.backspace	Key.backspace	n/a
313.392	0.105	626784	keystroke_s	s	n/a
313.857	0.045	627714	keystroke_Key.backspace	Key.backspace	n/a
313.947	0.105	627894	keystroke_c	c	n/a
314.2165	0.12	628433	keystroke_d	d	n/a
314.3515	0.165	628703	keystroke_o	o	n/a
314.5765	0.0605	629153	keystroke_a	a	n/a
314.936	0.046	629872	keystroke_Key.backspace	Key.backspace	n/a
315.222	0.09	630444	keystroke_n	n	n/a
315.432	0.105	630864	keystroke_a	a	n/a
315.6415	0.105	631283	keystroke_l	l	n/a
315.7765	0.105	631553	keystroke_d	d	n/a
315.9115	0.1345	631823	keystroke_Key.space	Key.space	n/a
316.1965	0.09	632393	keystroke_t	t	n/a
316.4365	0.075	632873	keystroke_r	r	n/a
316.6765	0.09	633353	keystroke_a	a	n/a
316.9315	0.105	633863	keystroke_n	n	n/a
317.0965	0.09	634193	keystroke_s	s	n/a
318.2515	0.1055	636503	keystroke_a	a	n/a
318.476	0.091	636952	keystroke_c	c	n/a
318.7315	0.075	637463	keystroke_t	t	n/a
318.7765	0.225	637553	keystroke_i	i	n/a
318.8665	0.195	637733	keystroke_o	o	n/a
318.9565	0.1195	637913	keystroke_n	n	n/a
319.211	0.09	638422	keystroke_Key.enter	Key.enter	n/a
319.3065	6.867	638613	prompt	n/a	sailing think liver expressions\n
319.872	0.104	639744	keystroke_s	s	n/a
320.067	0.105	640134	keystroke_a	a	n/a
320.261	0.075	640522	keystroke_i	i	n/a
320.4415	0.135	640883	keystroke_l	l	n/a
320.5615	0.18	641123	keystroke_i	i	n/a
321.4765	0.105	642953	keystroke_n	n	n/a
321.6115	0.09	643223	keystroke_g	g	n/a
321.7765	0.105	643553	keystroke_Key.space	Key.space	n/a
321.9715	0.075	643943	keystroke_t	t	n/a
322.0615	0.1495	644123	keystroke_h	h	n/a
322.181	0.18	644362	keystroke_i	i	n/a
322.331	0.2105	644662	keystroke_n	n	n/a
322.496	0.12	644992	keystroke_k	k	n/a
322.766	0.105	645532	keystroke_Key.space	Key.space	n/a
322.991	0.165	645982	keystroke_l	l	n/a
323.111	0.135	646222	keystroke_i	i	n/a
323.261	0.1055	646522	keystroke_v	v	n/a
323.5165	0.18	647033	keystroke_e	e	n/a
323.6365	0.165	647273	keystroke_r	r	n/a
323.8165	0.105	647633	keystroke_Key.space	Key.space	n/a
323.9965	0.09	647993	keystroke_e	e	n/a
324.236	0.09	648472	keystroke_x	x	n/a
324.5515	0.0895	649103	keystroke_p	p	n/a
324.7465	0.135	649493	keystroke_r	r	n/a
324.8215	0.1495	649643	keystroke_e	e	n/a
325.1665	0.06	650333	keystroke_s	s	n/a
325.3315	0.045	650663	keystroke_s	s	n/a
325.4365	0.18	650873	keystroke_i	i	n/a
325.5265	0.18	651053	keystroke_o	o	n/a
325.5865	0.135	651173	keystroke_n	n	n/a
325.7665	0.09	651533	keystroke_s	s	n/a
326.0815	0.09	652163	keystroke_Key.enter	Key.enter	n/a
326.1765	6.282	652353	prompt	n/a	said brussels nebraska threat\n
326.8465	0.195	653693	keystroke_s	s	n/a
326.9515	0.15	653903	keystroke_a	a	n/a
327.1165	0.09	654233	keystroke_i	i	n/a
327.2515	0.105	654503	keystroke_d	d	n/a
327.3115	0.12	654623	keystroke_Key.space	Key.space	n/a
327.5815	0.045	655163	keystroke_b	b	n/a
327.9565	0.075	655913	keystroke_r	r	n/a
328.1515	0.09	656303	keystroke_u	u	n/a
328.3615	0.076	656723	keystroke_s	s	n/a
328.5265	0.075	657053	keystroke_s	s	n/a
328.7665	0.06	657533	keystroke_e	e	n/a
328.8865	0.09	657773	keystroke_l	l	n/a
329.0065	0.09	658013	keystroke_s	s	n/a
329.1115	0.12	658223	keystroke_Key.space	Key.space	n/a
329.3515	0.12	658703	keystroke_n	n	n/a
329.4865	0.09	658973	keystroke_e	e	n/a
329.6965	0.075	659393	keystroke_b	b	n/a
329.8315	0.1505	659663	keystroke_r	r	n/a
329.937	0.12	659874	keystroke_e	e	n/a
330.327	0.105	660654	keystroke_s	s	n/a
330.582	0.105	661164	keystroke_k	k	n/a
330.792	0.09	661584	keystroke_a	a	n/a
330.897	0.12	661794	keystroke_Key.space	Key.space	n/a
331.0915	0.09	662183	keystroke_t	t	n/a
331.3015	0.105	662603	keystroke_h	h	n/a
331.4515	0.165	662903	keystroke_r	r	n/a
331.5565	0.105	663113	keystroke_e	e	n/a
331.7815	0.105	663563	keystroke_a	a	n/a
332.0665	0.09	664133	keystroke_t	t	n/a
332.367	0.09	664734	keystroke_Key.enter	Key.enter	n/a
332.4615	12.7915	664923	prompt	n/a	revelation tried cited jessica\n
333.267	0.075	666534	keystroke_r	r	n/a
333.4615	0.0755	666923	keystroke_e	e	n/a
333.7315	0.075	667463	keystroke_v	v	n/a
333.9715	0.06	667943	keystroke_e	e	n/a
334.167	0.09	668334	keystroke_l	l	n/a
334.302	0.105	668604	keystroke_a	a	n/a
334.542	0.075	669084	keystroke_t	t	n/a
334.632	0.27	669264	keystroke_i	i	n/a
334.737	0.225	669474	keystroke_o	o	n/a
334.782	0.18	669564	keystroke_n	n	n/a
334.917	0.209	669834	keystroke_Key.space	Key.space	n/a
335.307	0.105	670614	keystroke_t	t	n/a
335.547	0.09	671094	keystroke_r	r	n/a
335.772	0.105	671544	keystroke_i	i	n/a
335.847	0.165	671694	keystroke_e	e	n/a
335.952	0.15	671904	keystroke_d	d	n/a
336.162	0.12	672324	keystroke_Key.space	Key.space	n/a
336.297	0.135	672594	keystroke_c	c	n/a
336.8215	0.09	673643	keystroke_i	i	n/a
336.9565	0.12	673913	keystroke_t	t	n/a
337.1665	0.075	674333	keystroke_i	i	n/a
337.2565	0.135	674513	keystroke_e	e	n/a
337.4215	0.15	674843	keystroke_d	d	n/a
337.6315	0.12	675263	keystroke_Key.space	Key.space	n/a
342.254	0.013	684508	keystroke_Key.backspace	Key.backspace	n/a
342.417	0.045	684834	keystroke_Key.backspace	Key.backspace	n/a
342.581	0.06	685162	keystroke_Key.backspace	Key.backspace	n/a
342.942	0.075	685884	keystroke_Key.backspace	Key.backspace	n/a
343.122	0.09	686244	keystroke_e	e	n/a
343.3915	0.0905	686783	keystroke_d	d	n/a
343.752	0.12	687504	keystroke_Key.space	Key.space	n/a
344.067	0.045	688134	keystroke_j	j	n/a
344.1715	0.09	688343	keystroke_e	e	n/a
344.4265	0.06	688853	keystroke_s	s	n/a
344.6065	0.045	689213	keystroke_s	s	n/a
344.7565	0.09	689513	keystroke_i	i	n/a
344.8765	0.165	689753	keystroke_c	c	n/a
344.9965	0.12	689993	keystroke_a	a	n/a
345.1465	0.105	690293	keystroke_Key.enter	Key.enter	n/a
345.2585	6.13	690517	prompt	n/a	conscious broad chocolate rating\n
345.8815	0.105	691763	keystroke_c	c	n/a
346.0465	0.18	692093	keystroke_o	o	n/a
346.1365	0.165	692273	keystroke_n	n	n/a
346.2565	0.165	692513	keystroke_s	s	n/a
346.4065	0.135	692813	keystroke_c	c	n/a
346.5565	0.24	693113	keystroke_i	i	n/a
347.2465	0.09	694493	keystroke_o	o	n/a
347.441	0.09	694882	keystroke_u	u	n/a
347.561	0.12	695122	keystroke_s	s	n/a
347.651	0.15	695302	keystroke_Key.space	Key.space	n/a
347.847	0.104	695694	keystroke_b	b	n/a
347.967	0.059	695934	keystroke_r	r	n/a
348.131	0.0905	696262	keystroke_o	o	n/a
348.2225	0.119	696445	keystroke_a	a	n/a
348.3115	0.1345	696623	keystroke_d	d	n/a
348.461	0.12	696922	keystroke_Key.space	Key.space	n/a
348.686	0.09	697372	keystroke_c	c	n/a
348.911	0.06	697822	keystroke_h	h	n/a
349.227	0.104	698454	keystroke_o	o	n/a
349.346	0.135	698692	keystroke_c	c	n/a
349.496	0.0755	698992	keystroke_o	o	n/a
349.6615	0.105	699323	keystroke_l	l	n/a
349.7215	0.105	699443	keystroke_a	a	n/a
349.8865	0.15	699773	keystroke_t	t	n/a
349.9915	0.12	699983	keystroke_e	e	n/a
350.276	0.15	700552	keystroke_Key.space	Key.space	n/a
350.411	0.12	700822	keystroke_r	r	n/a
350.471	0.12	700942	keystroke_a	a	n/a
350.711	0.09	701422	keystroke_t	t	n/a
350.816	0.15	701632	keystroke_i	i	n/a
350.877	0.149	701754	keystroke_n	n	n/a
351.011	0.09	702022	keystroke_g	g	n/a
351.296	0.09	702592	keystroke_Key.enter	Key.enter	n/a
351.391	5.757	702782	prompt	n/a	dawn reported tracy perception\n
351.9715	0.164	703943	keystroke_d	d	n/a
352.137	0.104	704274	keystroke_a	a	n/a
352.391	0.09	704782	keystroke_w	w	n/a
352.541	0.18	705082	keystroke_n	n	n/a
352.676	0.1505	705352	keystroke_Key.space	Key.space	n/a
353.007	0.165	706014	keystroke_r	r	n/a
353.082	0.15	706164	keystroke_e	e	n/a
353.277	0.165	706554	keystroke_p	p	n/a
353.367	0.15	706734	keystroke_o	o	n/a
353.472	0.0895	706944	keystroke_r	r	n/a
353.6515	0.12	707303	keystroke_t	t	n/a
353.832	0.09	707664	keystroke_e	e	n/a
353.937	0.105	707874	keystroke_d	d	n/a
354.162	0.12	708324	keystroke_Key.space	Key.space	n/a
354.312	0.09	708624	keystroke_t	t	n/a
354.507	0.1195	709014	keystroke_r	r	n/a
354.7015	0.15	709403	keystroke_a	a	n/a
354.8365	0.135	709673	keystroke_c	c	n/a
355.0015	0.165	710003	keystroke_t	t	n/a
355.0915	0.12	710183	keystroke_Key.space	Key.space	n/a
355.4215	0.09	710843	keystroke_p	p	n/a
355.5265	0.045	711053	keystroke_e	e	n/a
355.5865	0.105	711173	keystroke_r	r	n/a
355.9315	0.105	711863	keystroke_c	c	n/a
356.1115	0.1055	712223	keystroke_e	e	n/a
356.307	0.105	712614	keystroke_p	p	n/a
356.472	0.06	712944	keystroke_t	t	n/a
356.562	0.27	713124	keystroke_i	i	n/a
356.652	0.195	713304	keystroke_o	o	n/a
356.772	0.12	713544	keystroke_n	n	n/a
357.072	0.075	714144	keystroke_Key.enter	Key.enter	n/a
357.1515	7.1965	714303	prompt	n/a	contests cannon gather failing\n
357.9565	0.09	715913	keystroke_c	c	n/a
358.0465	0.165	716093	keystroke_o	o	n/a
358.1365	0.1655	716273	keystroke_n	n	n/a
358.287	0.18	716574	keystroke_t	t	n/a
358.407	0.135	716814	keystroke_e	e	n/a
358.497	0.135	716994	keystroke_s	s	n/a
358.962	0.09	717924	keystroke_t	t	n/a
359.232	0.075	718464	keystroke_s	s	n/a
359.382	0.135	718764	keystroke_Key.space	Key.space	n/a
359.6215	0.075	719243	keystroke_c	c	n/a
359.9365	0.09	719873	keystroke_a	a	n/a
360.1315	0.075	720263	keystroke_n	n	n/a
360.2815	0.135	720563	keystroke_n	n	n/a
360.4015	0.18	720803	keystroke_o	o	n/a
360.5365	0.105	721073	keystroke_n	n	n/a
360.8365	0.12	721673	keystroke_Key.space	Key.space	n/a
361.152	0.075	722304	keystroke_g	g	n/a
361.332	0.09	722664	keystroke_a	a	n/a
361.542	0.09	723084	keystroke_t	t	n/a
361.692	0.135	723384	keystroke_h	h	n/a
361.812	0.12	723624	keystroke_e	e	n/a
361.887	0.12	723774	keystroke_r	r	n/a
361.992	0.135	723984	keystroke_Key.space	Key.space	n/a
362.3815	0.09	724763	keystroke_f	f	n/a
362.6365	0.06	725273	keystroke_a	a	n/a
362.8465	0.075	725693	keystroke_i	i	n/a
363.0265	0.105	726053	keystroke_l	l	n/a
363.5065	0.09	727013	keystroke_i	i	n/a
363.7615	0.105	727523	keystroke_n	n	n/a
363.9115	0.09	727823	keystroke_g	g	n/a
364.272	0.075	728544	keystroke_Key.enter	Key.enter	n/a
364.3525	6.3105	728705	prompt	n/a	rental significant lloyd honest\n
365.021	0.181	730042	keystroke_r	r	n/a
365.126	0.136	730252	keystroke_e	e	n/a
365.306	0.135	730612	keystroke_n	n	n/a
365.472	0.075	730944	keystroke_t	t	n/a
365.652	0.09	731304	keystroke_a	a	n/a
365.756	0.181	731512	keystroke_l	l	n/a
365.861	0.151	731722	keystroke_Key.space	Key.space	n/a
366.4915	0.075	732983	keystroke_s	s	n/a
366.6565	0.105	733313	keystroke_i	i	n/a
366.9115	0.075	733823	keystroke_g	g	n/a
367.2115	0.105	734423	keystroke_n	n	n/a
367.4665	0.09	734933	keystroke_i	i	n/a
367.5415	0.09	735083	keystroke_f	f	n/a
367.6915	0.1045	735383	keystroke_i	i	n/a
367.7665	0.1495	735533	keystroke_c	c	n/a
367.871	0.121	735742	keystroke_a	a	n/a
367.977	0.104	735954	keystroke_n	n	n/a
368.142	0.075	736284	keystroke_t	t	n/a
368.247	0.105	736494	keystroke_Key.space	Key.space	n/a
368.487	0.09	736974	keystroke_l	l	n/a
368.772	0.075	737544	keystroke_l	l	n/a
368.982	0.06	737964	keystroke_o	o	n/a
369.207	0.09	738414	keystroke_y	y	n/a
369.327	0.105	738654	keystroke_d	d	n/a
369.432	0.12	738864	keystroke_Key.space	Key.space	n/a
369.597	0.12	739194	keystroke_h	h	n/a
369.702	0.225	739404	keystroke_o	o	n/a
369.852	0.105	739704	keystroke_n	n	n/a
369.942	0.18	739884	keystroke_e	e	n/a
370.032	0.1345	740064	keystroke_s	s	n/a
370.3015	0.09	740603	keystroke_t	t	n/a
370.5565	0.105	741113	keystroke_Key.enter	Key.enter	n/a
370.6665	13.032	741333	prompt	n/a	ridge vacuum mississippi payments\n
371.6065	0.105	743213	keystroke_r	r	n/a
371.7715	0.09	743543	keystroke_i	i	n/a
371.9365	0.12	743873	keystroke_d	d	n/a
372.237	0.045	744474	keystroke_g	g	n/a
372.477	0.045	744954	keystroke_e	e	n/a
373.092	0.12	746184	keystroke_Key.space	Key.space	n/a
373.242	0.105	746484	keystroke_v	v	n/a
373.5265	0.105	747053	keystroke_a	a	n/a
373.7665	0.09	747533	keystroke_c	c	n/a
373.9915	0.045	747983	keystroke_y	y	n/a
374.1715	0.09	748343	keystroke_y	y	n/a
374.5765	0.0455	749153	keystroke_Key.backspace	Key.backspace	n/a
374.697	0.06	749394	keystroke_Key.backspace	Key.backspace	n/a
374.997	0.06	749994	keystroke_u	u	n/a
375.207	0.06	750414	keystroke_u	u	n/a
375.492	0.105	750984	keystroke_m	m	n/a
375.746	0.091	751492	keystroke_Key.space	Key.space	n/a
376.0165	0.075	752033	keystroke_m	m	n/a
376.4065	0.06	752813	keystroke_i	i	n/a
376.9915	0.105	753983	keystroke_s	s	n/a
377.2915	0.075	754583	keystroke_s	s	n/a
377.5765	0.075	755153	keystroke_i	i	n/a
377.8465	0.075	755693	keystroke_s	s	n/a
378.0565	0.06	756113	keystroke_s	s	n/a
378.267	0.075	756534	keystroke_i	i	n/a
379.136	0.075	758272	keystroke_p	p	n/a
379.287	0.104	758574	keystroke_p	p	n/a
379.496	0.075	758992	keystroke_i	i	n/a
379.691	0.105	759382	keystroke_Key.space	Key.space	n/a
382.259	0.042	764518	keystroke_p	p	n/a
382.317	0.12	764634	keystroke_a	a	n/a
382.451	0.09	764902	keystroke_y	y	n/a
382.766	0.0905	765532	keystroke_m	m	n/a
382.887	0.0895	765774	keystroke_e	e	n/a
383.0065	0.075	766013	keystroke_n	n	n/a
383.0965	0.135	766193	keystroke_t	t	n/a
383.1865	0.135	766373	keystroke_s	s	n/a
383.622	0.075	767244	keystroke_Key.enter	Key.enter	n/a
383.703	5.41	767406	prompt	n/a	talent counted super why'd\n
384.5365	0.09	769073	keystroke_t	t	n/a
384.7015	0.09	769403	keystroke_a	a	n/a
384.8515	0.135	769703	keystroke_l	l	n/a
385.0015	0.12	770003	keystroke_e	e	n/a
385.1065	0.12	770213	keystroke_n	n	n/a
385.2415	0.075	770483	keystroke_t	t	n/a
385.3915	0.12	770783	keystroke_Key.space	Key.space	n/a
385.5415	0.09	771083	keystroke_c	c	n/a
385.6315	0.165	771263	keystroke_o	o	n/a
385.7365	0.105	771473	keystroke_u	u	n/a
385.9915	0.105	771983	keystroke_n	n	n/a
386.0665	0.1205	772133	keystroke_t	t	n/a
386.247	0.12	772494	keystroke_e	e	n/a
386.7415	0.075	773483	keystroke_d	d	n/a
387.072	0.105	774144	keystroke_Key.space	Key.space	n/a
387.192	0.135	774384	keystroke_s	s	n/a
387.342	0.165	774684	keystroke_u	u	n/a
387.462	0.135	774924	keystroke_p	p	n/a
387.582	0.105	775164	keystroke_e	e	n/a
387.642	0.135	775284	keystroke_r	r	n/a
387.807	0.135	775614	keystroke_Key.space	Key.space	n/a
387.957	0.075	775914	keystroke_w	w	n/a
388.062	0.09	776124	keystroke_h	h	n/a
388.2715	0.06	776543	keystroke_y	y	n/a
388.5115	0.0905	777023	keystroke_'	'	n/a
388.692	0.075	777384	keystroke_d	d	n/a
389.022	0.09	778044	keystroke_Key.enter	Key.enter	n/a
389.116	5.082	778232	prompt	n/a	image fence monica firewire\n
389.8015	0.09	779603	keystroke_i	i	n/a
390.0115	0.105	780023	keystroke_m	m	n/a
390.1315	0.105	780263	keystroke_a	a	n/a
390.3565	0.15	780713	keystroke_g	g	n/a
390.4465	0.12	780893	keystroke_e	e	n/a
390.5815	0.135	781163	keystroke_Key.space	Key.space	n/a
390.7315	0.1355	781463	keystroke_f	f	n/a
390.822	0.12	781644	keystroke_e	e	n/a
390.9865	0.105	781973	keystroke_n	n	n/a
391.1065	0.15	782213	keystroke_c	c	n/a
391.1965	0.12	782393	keystroke_e	e	n/a
391.3175	0.104	782635	keystroke_Key.space	Key.space	n/a
391.5265	0.09	783053	keystroke_m	m	n/a
391.6765	0.105	783353	keystroke_o	o	n/a
391.8865	0.075	783773	keystroke_n	n	n/a
392.0815	0.105	784163	keystroke_i	i	n/a
392.1565	0.18	784313	keystroke_c	c	n/a
392.2765	0.15	784553	keystroke_a	a	n/a
392.4115	0.105	784823	keystroke_Key.space	Key.space	n/a
392.5615	0.09	785123	keystroke_f	f	n/a
392.7415	0.075	785483	keystroke_i	i	n/a
392.8615	0.165	785723	keystroke_r	r	n/a
392.9665	0.12	785933	keystroke_e	e	n/a
393.2815	0.09	786563	keystroke_w	w	n/a
393.4615	0.0895	786923	keystroke_i	i	n/a
393.566	0.166	787132	keystroke_r	r	n/a
393.626	0.151	787252	keystroke_e	e	n/a
394.106	0.0905	788212	keystroke_Key.enter	Key.enter	n/a
394.201	12.402	788402	prompt	n/a	approximate particular shopping generates\n
394.8865	0.135	789773	keystroke_a	a	n/a
395.0815	0.105	790163	keystroke_p	p	n/a
395.3065	0.075	790613	keystroke_p	p	n/a
395.4715	0.09	790943	keystroke_r	r	n/a
395.5915	0.105	791183	keystroke_o	o	n/a
395.9215	0.105	791843	keystroke_v	v	n/a
396.2965	0.075	792593	keystroke_i	i	n/a
396.5965	0.03	793193	keystroke_Key.backspace	Key.backspace	n/a
396.7165	0.045	793433	keystroke_Key.backspace	Key.backspace	n/a
397.7065	0.105	795413	keystroke_x	x	n/a
397.9165	0.105	795833	keystroke_i	i	n/a
398.172	0.105	796344	keystroke_m	m	n/a
398.292	0.105	796584	keystroke_a	a	n/a
398.5165	0.135	797033	keystroke_t	t	n/a
398.5915	0.12	797183	keystroke_e	e	n/a
398.7265	0.105	797453	keystroke_Key.space	Key.space	n/a
398.9815	0.045	797963	keystroke_p	p	n/a
399.0565	0.1805	798113	keystroke_a	a	n/a
399.792	0.12	799584	keystroke_r	r	n/a
400.107	0.09	800214	keystroke_t	t	n/a
400.242	0.105	800484	keystroke_i	i	n/a
400.437	0.075	800874	keystroke_c	c	n/a
400.617	0.075	801234	keystroke_u	u	n/a
400.767	0.12	801534	keystroke_l	l	n/a
400.857	0.135	801714	keystroke_a	a	n/a
400.962	0.105	801924	keystroke_r	r	n/a
401.097	0.105	802194	keystroke_Key.space	Key.space	n/a
401.277	0.1195	802554	keystroke_s	s	n/a
401.3815	0.18	802763	keystroke_h	h	n/a
401.5465	0.135	803093	keystroke_o	o	n/a
401.8315	0.06	803663	keystroke_p	p	n/a
401.9815	0.06	803963	keystroke_p	p	n/a
402.177	0.179	804354	keystroke_i	i	n/a
402.281	0.121	804562	keystroke_n	n	n/a
402.432	0.09	804864	keystroke_g	g	n/a
402.581	0.12	805162	keystroke_Key.space	Key.space	n/a
402.822	0.089	805644	keystroke_g	g	n/a
403.241	0.076	806482	keystroke_e	e	n/a
403.6165	0.091	807233	keystroke_n	n	n/a
403.7215	0.165	807443	keystroke_e	e	n/a
403.8265	0.12	807653	keystroke_r	r	n/a
404.0065	0.1655	808013	keystroke_a	a	n/a
404.247	0.18	808494	keystroke_t	t	n/a
404.457	0.165	808914	keystroke_s	s	n/a
404.487	0.075	808974	keystroke_e	e	n/a
405.492	0.075	810984	keystroke_Key.backspace	Key.backspace	n/a
405.642	0.075	811284	keystroke_Key.backspace	Key.backspace	n/a
405.807	0.09	811614	keystroke_e	e	n/a
406.092	0.09	812184	keystroke_s	s	n/a
406.542	0.075	813084	keystroke_\	\	n/a
406.557	0.045	813114	keystroke_Key.enter	Key.enter	n/a
406.606	11.922	813212	prompt	n/a	status excitement kirk pollution\n
407.727	0.075	815454	keystroke_s	s	n/a
408.342	0.0895	816684	keystroke_t	t	n/a
408.4915	0.165	816983	keystroke_a	a	n/a
408.6265	0.1055	817253	keystroke_t	t	n/a
408.792	0.105	817584	keystroke_y	y	n/a
408.927	0.09	817854	keystroke_s	s	n/a
409.542	0.045	819084	keystroke_Key.backspace	Key.backspace	n/a
409.872	0.06	819744	keystroke_Key.backspace	Key.backspace	n/a
410.1565	0.105	820313	keystroke_u	u	n/a
410.3965	0.12	820793	keystroke_s	s	n/a
410.5615	0.12	821123	keystroke_Key.space	Key.space	n/a
410.6515	0.09	821303	keystroke_e	e	n/a
411.1315	0.09	822263	keystroke_x	x	n/a
411.582	0.06	823164	keystroke_c	c	n/a
411.807	0.105	823614	keystroke_i	i	n/a
411.942	0.15	823884	keystroke_t	t	n/a
412.032	0.1495	824064	keystroke_e	e	n/a
412.1965	0.09	824393	keystroke_m	m	n/a
412.3015	0.09	824603	keystroke_e	e	n/a
412.4065	0.09	824813	keystroke_n	n	n/a
412.5115	0.09	825023	keystroke_t	t	n/a
412.6915	0.09	825383	keystroke_Key.space	Key.space	n/a
413.2765	0.075	826553	keystroke_k	k	n/a
413.4565	0.06	826913	keystroke_i	i	n/a
413.5315	0.09	827063	keystroke_r	r	n/a
413.7265	0.09	827453	keystroke_t	t	n/a
413.8615	0.09	827723	keystroke_Key.space	Key.space	n/a
415.017	0.045	830034	keystroke_Key.backspace	Key.backspace	n/a
415.1665	0.0605	830333	keystroke_Key.backspace	Key.backspace	n/a
415.5115	0.09	831023	keystroke_k	k	n/a
415.7665	0.075	831533	keystroke_Key.space	Key.space	n/a
416.0365	0.075	832073	keystroke_p	p	n/a
416.307	0.0895	832614	keystroke_o	o	n/a
417.057	0.09	834114	keystroke_l	l	n/a
417.222	0.06	834444	keystroke_l	l	n/a
417.462	0.075	834924	keystroke_u	u	n/a
417.837	0.09	835674	keystroke_t	t	n/a
417.912	0.18	835824	keystroke_i	i	n/a
418.017	0.18	836034	keystroke_o	o	n/a
418.107	0.12	836214	keystroke_n	n	n/a
418.4515	0.0755	836903	keystroke_Key.enter	Key.enter	n/a
418.5315	6.7615	837063	prompt	n/a	comfortable candles angeles cake\n
419.427	0.09	838854	keystroke_c	c	n/a
419.502	0.135	839004	keystroke_o	o	n/a
419.592	0.15	839184	keystroke_m	m	n/a
419.892	0.075	839784	keystroke_o	o	n/a
420.222	0.045	840444	keystroke_Key.backspace	Key.backspace	n/a
420.357	0.12	840714	keystroke_f	f	n/a
420.552	0.09	841104	keystroke_o	o	n/a
420.657	0.09	841314	keystroke_r	r	n/a
420.867	0.06	841734	keystroke_t	t	n/a
420.987	0.12	841974	keystroke_a	a	n/a
421.122	0.135	842244	keystroke_b	b	n/a
421.197	0.165	842394	keystroke_l	l	n/a
421.317	0.09	842634	keystroke_e	e	n/a
421.482	0.12	842964	keystroke_Key.space	Key.space	n/a
421.707	0.1195	843414	keystroke_c	c	n/a
421.8415	0.12	843683	keystroke_a	a	n/a
421.9765	0.12	843953	keystroke_n	n	n/a
422.1115	0.0905	844223	keystroke_d	d	n/a
422.217	0.105	844434	keystroke_l	l	n/a
422.307	0.165	844614	keystroke_e	e	n/a
422.367	0.135	844734	keystroke_s	s	n/a
422.487	0.105	844974	keystroke_Key.space	Key.space	n/a
422.607	0.09	845214	keystroke_a	a	n/a
422.757	0.105	845514	keystroke_n	n	n/a
422.922	0.075	845844	keystroke_g	g	n/a
423.072	0.09	846144	keystroke_e	e	n/a
423.282	0.105	846564	keystroke_l	l	n/a
423.357	0.1795	846714	keystroke_e	e	n/a
423.4315	0.135	846863	keystroke_s	s	n/a
423.5965	0.105	847193	keystroke_Key.space	Key.space	n/a
423.8215	0.105	847643	keystroke_a	a	n/a
424.2565	0.06	848513	keystroke_Key.backspace	Key.backspace	n/a
424.3765	0.15	848753	keystroke_c	c	n/a
424.4815	0.135	848963	keystroke_a	a	n/a
424.6015	0.105	849203	keystroke_k	k	n/a
424.8865	0.09	849773	keystroke_e	e	n/a
425.2015	0.09	850403	keystroke_Key.enter	Key.enter	n/a
425.2965	5.7265	850593	prompt	n/a	shorts spotlight rendered bars\n
425.862	0.12	851724	keystroke_s	s	n/a
426.012	0.18	852024	keystroke_h	h	n/a
426.117	0.12	852234	keystroke_o	o	n/a
426.177	0.12	852354	keystroke_r	r	n/a
426.387	0.1345	852774	keystroke_t	t	n/a
426.4615	0.135	852923	keystroke_s	s	n/a
426.6565	0.12	853313	keystroke_Key.space	Key.space	n/a
427.0165	0.075	854033	keystroke_s	s	n/a
427.3315	0.18	854663	keystroke_p	p	n/a
427.4365	0.12	854873	keystroke_o	o	n/a
427.6615	0.09	855323	keystroke_t	t	n/a
427.8115	0.165	855623	keystroke_l	l	n/a
427.9315	0.135	855863	keystroke_i	i	n/a
428.0515	0.09	856103	keystroke_g	g	n/a
428.1865	0.12	856373	keystroke_h	h	n/a
428.3215	0.075	856643	keystroke_t	t	n/a
428.4715	0.12	856943	keystroke_Key.space	Key.space	n/a
428.7115	0.165	857423	keystroke_r	r	n/a
428.8165	0.135	857633	keystroke_e	e	n/a
429.132	0.105	858264	keystroke_n	n	n/a
429.3265	0.12	858653	keystroke_d	d	n/a
429.5365	0.15	859073	keystroke_e	e	n/a
429.6565	0.135	859313	keystroke_r	r	n/a
429.7765	0.195	859553	keystroke_e	e	n/a
429.9265	0.12	859853	keystroke_d	d	n/a
430.0615	0.1805	860123	keystroke_Key.space	Key.space	n/a
430.212	0.105	860424	keystroke_b	b	n/a
430.287	0.135	860574	keystroke_a	a	n/a
430.407	0.1045	860814	keystroke_r	r	n/a
430.6465	0.105	861293	keystroke_s	s	n/a
430.9015	0.12	861803	keystroke_Key.enter	Key.enter	n/a
431.026	6.5525	862052	prompt	n/a	heavy pine francisco logging\n
431.7125	0.044	863425	keystroke_h	h	n/a
431.7265	0.12	863453	keystroke_e	e	n/a
431.7865	0.1055	863573	keystroke_a	a	n/a
432.012	0.09	864024	keystroke_v	v	n/a
432.117	0.1645	864234	keystroke_y	y	n/a
432.2065	0.135	864413	keystroke_Key.space	Key.space	n/a
432.3715	0.165	864743	keystroke_p	p	n/a
432.5215	0.165	865043	keystroke_i	i	n/a
432.6265	0.12	865253	keystroke_n	n	n/a
432.7165	0.12	865433	keystroke_e	e	n/a
432.8965	0.12	865793	keystroke_Key.space	Key.space	n/a
433.1515	0.0755	866303	keystroke_f	f	n/a
433.362	0.09	866724	keystroke_r	r	n/a
433.6165	0.09	867233	keystroke_a	a	n/a
434.1115	0.105	868223	keystroke_n	n	n/a
434.4415	0.105	868883	keystroke_c	c	n/a
434.682	0.104	869364	keystroke_i	i	n/a
434.967	0.104	869934	keystroke_s	s	n/a
435.5665	0.09	871133	keystroke_c	c	n/a
435.7765	0.18	871553	keystroke_o	o	n/a
435.9115	0.15	871823	keystroke_Key.space	Key.space	n/a
436.3615	0.045	872723	keystroke_l	l	n/a
436.5565	0.09	873113	keystroke_o	o	n/a
436.7515	0.075	873503	keystroke_g	g	n/a
436.9165	0.075	873833	keystroke_g	g	n/a
437.0065	0.18	874013	keystroke_i	i	n/a
437.0965	0.135	874193	keystroke_n	n	n/a
437.2165	0.075	874433	keystroke_g	g	n/a
437.4865	0.09	874973	keystroke_Key.enter	Key.enter	n/a
437.5815	10.467	875163	prompt	n/a	actively functioning refer tomorrow\n
438.177	0.105	876354	keystroke_a	a	n/a
438.432	0.09	876864	keystroke_c	c	n/a
438.702	0.075	877404	keystroke_t	t	n/a
438.822	0.089	877644	keystroke_i	i	n/a
438.957	0.15	877914	keystroke_v	v	n/a
439.062	0.12	878124	keystroke_e	e	n/a
439.152	0.1945	878304	keystroke_l	l	n/a
439.2865	0.195	878573	keystroke_y	y	n/a
439.3915	0.165	878783	keystroke_Key.space	Key.space	n/a
439.9915	0.09	879983	keystroke_f	f	n/a
440.1715	0.09	880343	keystroke_u	u	n/a
440.7715	0.09	881543	keystroke_n	n	n/a
440.9665	0.105	881933	keystroke_c	c	n/a
441.7465	0.0755	883493	keystroke_t	t	n/a
441.927	0.135	883854	keystroke_i	i	n/a
442.047	0.165	884094	keystroke_o	o	n/a
442.181	0.166	884362	keystroke_n	n	n/a
442.331	0.151	884662	keystroke_i	i	n/a
442.422	0.135	884844	keystroke_n	n	n/a
442.571	0.091	885142	keystroke_g	g	n/a
442.721	0.135	885442	keystroke_Key.space	Key.space	n/a
442.871	0.135	885742	keystroke_r	r	n/a
443.096	0.03	886192	keystroke_e	e	n/a
444.071	0.1055	888142	keystroke_g	g	n/a
444.3715	0.18	888743	keystroke_e	e	n/a
444.4615	0.15	888923	keystroke_r	r	n/a
445.0015	0.06	890003	keystroke_Key.backspace	Key.backspace	n/a
445.1365	0.075	890273	keystroke_Key.backspace	Key.backspace	n/a
445.2865	0.045	890573	keystroke_Key.backspace	Key.backspace	n/a
445.4365	0.0895	890873	keystroke_f	f	n/a
445.587	0.164	891174	keystroke_e	e	n/a
445.691	0.12	891382	keystroke_r	r	n/a
445.916	0.135	891832	keystroke_Key.space	Key.space	n/a
446.1565	0.09	892313	keystroke_t	t	n/a
446.3065	0.09	892613	keystroke_o	o	n/a
446.5465	0.09	893093	keystroke_m	m	n/a
446.8915	0.105	893783	keystroke_o	o	n/a
447.1165	0.045	894233	keystroke_r	r	n/a
447.2515	0.075	894503	keystroke_r	r	n/a
447.4165	0.105	894833	keystroke_o	o	n/a
447.5515	0.075	895103	keystroke_w	w	n/a
447.9565	0.09	895913	keystroke_Key.enter	Key.enter	n/a
448.0515	5.6965	896103	prompt	n/a	worked thomson either barbie\n
448.676	0.105	897352	keystroke_w	w	n/a
448.7965	0.1045	897593	keystroke_o	o	n/a
448.916	0.0905	897832	keystroke_r	r	n/a
449.021	0.121	898042	keystroke_k	k	n/a
449.1265	0.1655	898253	keystroke_e	e	n/a
449.262	0.135	898524	keystroke_d	d	n/a
449.412	0.105	898824	keystroke_Key.space	Key.space	n/a
449.577	0.09	899154	keystroke_t	t	n/a
449.652	0.135	899304	keystroke_h	h	n/a
449.847	0.18	899694	keystroke_o	o	n/a
450.012	0.12	900024	keystroke_m	m	n/a
450.297	0.09	900594	keystroke_s	s	n/a
450.372	0.18	900744	keystroke_o	o	n/a
450.597	0.165	901194	keystroke_Key.space	Key.space	n/a
451.122	0.045	902244	keystroke_Key.backspace	Key.backspace	n/a
451.452	0.12	902904	keystroke_n	n	n/a
451.857	0.105	903714	keystroke_Key.space	Key.space	n/a
451.992	0.105	903984	keystroke_e	e	n/a
452.112	0.0895	904224	keystroke_i	i	n/a
452.2165	0.075	904433	keystroke_t	t	n/a
452.322	0.09	904644	keystroke_h	h	n/a
452.427	0.135	904854	keystroke_e	e	n/a
452.502	0.12	905004	keystroke_r	r	n/a
452.637	0.135	905274	keystroke_Key.space	Key.space	n/a
452.892	0.09	905784	keystroke_b	b	n/a
452.967	0.12	905934	keystroke_a	a	n/a
453.072	0.09	906144	keystroke_r	r	n/a
453.207	0.195	906414	keystroke_b	b	n/a
453.312	0.15	906624	keystroke_i	i	n/a
453.447	0.075	906894	keystroke_e	e	n/a
453.642	0.1045	907284	keystroke_Key.enter	Key.enter	n/a
453.7525	6.866	907505	prompt	n/a	conclusions gotta figured frankfurt\n
454.347	0.09	908694	keystroke_c	c	n/a
454.452	0.12	908904	keystroke_o	o	n/a
454.512	0.135	909024	keystroke_n	n	n/a
454.662	0.075	909324	keystroke_c	c	n/a
454.7665	0.15	909533	keystroke_l	l	n/a
454.9015	0.12	909803	keystroke_u	u	n/a
455.1265	0.09	910253	keystroke_s	s	n/a
455.1865	0.18	910373	keystroke_i	i	n/a
455.2615	0.18	910523	keystroke_o	o	n/a
455.3065	0.15	910613	keystroke_n	n	n/a
455.4715	0.075	910943	keystroke_s	s	n/a
455.5765	0.105	911153	keystroke_Key.space	Key.space	n/a
455.7715	0.075	911543	keystroke_g	g	n/a
455.9215	0.09	911843	keystroke_o	o	n/a
456.0565	0.045	912113	keystroke_t	t	n/a
456.1765	0.06	912353	keystroke_t	t	n/a
456.3265	0.0895	912653	keystroke_a	a	n/a
456.446	0.1205	912892	keystroke_Key.space	Key.space	n/a
456.596	0.075	913192	keystroke_f	f	n/a
456.717	0.075	913434	keystroke_i	i	n/a
456.956	0.075	913912	keystroke_g	g	n/a
457.121	0.076	914242	keystroke_u	u	n/a
457.211	0.135	914422	keystroke_r	r	n/a
457.3615	0.0895	914723	keystroke_e	e	n/a
457.586	0.105	915172	keystroke_d	d	n/a
457.8415	0.105	915683	keystroke_Key.space	Key.space	n/a
458.2165	0.09	916433	keystroke_f	f	n/a
458.4715	0.075	916943	keystroke_r	r	n/a
458.6665	0.105	917333	keystroke_a	a	n/a
458.8465	0.18	917693	keystroke_n	n	n/a
458.9665	0.12	917933	keystroke_k	k	n/a
459.807	0.045	919614	keystroke_f	f	n/a
459.882	0.09	919764	keystroke_u	u	n/a
460.032	0.105	920064	keystroke_r	r	n/a
460.2565	0.06	920513	keystroke_t	t	n/a
460.4815	0.135	920963	keystroke_Key.enter	Key.enter	n/a
460.6215	7.587	921243	prompt	n/a	howdy aged intent specific\n
461.2765	0.12	922553	keystroke_g	g	n/a
461.3365	0.12	922673	keystroke_o	o	n/a
461.4415	0.09	922883	keystroke_w	w	n/a
461.6665	0.09	923333	keystroke_d	d	n/a
461.8465	0.135	923693	keystroke_t	t	n/a
462.1915	0.06	924383	keystroke_Key.backspace	Key.backspace	n/a
462.3115	0.06	924623	keystroke_Key.backspace	Key.backspace	n/a
462.4615	0.06	924923	keystroke_Key.backspace	Key.backspace	n/a
462.5965	0.075	925193	keystroke_Key.backspace	Key.backspace	n/a
462.7765	0.045	925553	keystroke_Key.backspace	Key.backspace	n/a
463.376	0.15	926752	keystroke_h	h	n/a
463.467	0.119	926934	keystroke_o	o	n/a
463.587	0.089	927174	keystroke_w	w	n/a
463.812	0.104	927624	keystroke_d	d	n/a
463.977	0.18	927954	keystroke_y	y	n/a
464.096	0.18	928192	keystroke_Key.space	Key.space	n/a
464.787	0.075	929574	keystroke_a	a	n/a
464.9965	0.076	929993	keystroke_g	g	n/a
465.1465	0.121	930293	keystroke_e	e	n/a
465.2815	0.121	930563	keystroke_d	d	n/a
465.3865	0.15	930773	keystroke_Key.space	Key.space	n/a
465.5215	0.166	931043	keystroke_i	i	n/a
465.6265	0.151	931253	keystroke_n	n	n/a
465.7175	0.134	931435	keystroke_t	t	n/a
465.8075	0.134	931615	keystroke_e	e	n/a
465.9565	0.105	931913	keystroke_n	n	n/a
466.0765	0.0755	932153	keystroke_t	t	n/a
466.212	0.12	932424	keystroke_Key.space	Key.space	n/a
466.377	0.105	932754	keystroke_s	s	n/a
466.512	0.105	933024	keystroke_p	p	n/a
466.797	0.09	933594	keystroke_e	e	n/a
467.082	0.09	934164	keystroke_c	c	n/a
467.382	0.075	934764	keystroke_i	i	n/a
467.502	0.105	935004	keystroke_f	f	n/a
467.637	0.09	935274	keystroke_i	i	n/a
467.727	0.075	935454	keystroke_c	c	n/a
468.117	0.09	936234	keystroke_Key.enter	Key.enter	n/a
468.2125	6.866	936425	prompt	n/a	link stand detective understood\n
468.942	0.135	937884	keystroke_l	l	n/a
469.032	0.15	938064	keystroke_i	i	n/a
469.137	0.225	938274	keystroke_n	n	n/a
469.347	0.165	938694	keystroke_k	k	n/a
469.497	0.15	938994	keystroke_Key.space	Key.space	n/a
469.587	0.12	939174	keystroke_s	s	n/a
469.857	0.06	939714	keystroke_t	t	n/a
470.037	0.09	940074	keystroke_a	a	n/a
470.157	0.12	940314	keystroke_n	n	n/a
470.292	0.105	940584	keystroke_d	d	n/a
470.412	0.12	940824	keystroke_Key.space	Key.space	n/a
470.682	0.165	941364	keystroke_d	d	n/a
470.817	0.135	941634	keystroke_e	e	n/a
471.102	0.09	942204	keystroke_c	c	n/a
471.657	0.09	943314	keystroke_Key.backspace	Key.backspace	n/a
471.777	0.15	943554	keystroke_t	t	n/a
471.882	0.135	943764	keystroke_e	e	n/a
472.1815	0.105	944363	keystroke_c	c	n/a
472.4815	0.075	944963	keystroke_t	t	n/a
472.602	0.12	945204	keystroke_i	i	n/a
472.767	0.135	945534	keystroke_v	v	n/a
472.842	0.135	945684	keystroke_e	e	n/a
472.992	0.105	945984	keystroke_Key.space	Key.space	n/a
473.172	0.18	946344	keystroke_u	u	n/a
473.292	0.135	946584	keystroke_n	n	n/a
473.412	0.135	946824	keystroke_d	d	n/a
473.547	0.165	947094	keystroke_e	e	n/a
473.697	0.09	947394	keystroke_r	r	n/a
473.907	0.09	947814	keystroke_s	s	n/a
474.162	0.06	948324	keystroke_t	t	n/a
474.357	0.045	948714	keystroke_o	o	n/a
474.477	0.09	948954	keystroke_o	o	n/a
474.597	0.105	949194	keystroke_d	d	n/a
474.972	0.105	949944	keystroke_Key.enter	Key.enter	n/a
475.0815	9.252	950163	prompt	n/a	shan't consolidation implementation pepper\n
475.797	0.12	951594	keystroke_s	s	n/a
476.472	0.075	952944	keystroke_h	h	n/a
476.637	0.09	953274	keystroke_a	a	n/a
476.802	0.1045	953604	keystroke_n	n	n/a
477.1465	0.105	954293	keystroke_'	'	n/a
477.3115	0.09	954623	keystroke_t	t	n/a
477.7915	0.105	955583	keystroke_Key.space	Key.space	n/a
478.2415	0.12	956483	keystroke_c	c	n/a
478.5265	0.075	957053	keystroke_o	o	n/a
478.5415	0.135	957083	keystroke_n	n	n/a
479.232	0.09	958464	keystroke_s	s	n/a
479.4565	0.09	958913	keystroke_o	o	n/a
479.6665	0.075	959333	keystroke_l	l	n/a
479.8915	0.075	959783	keystroke_i	i	n/a
479.9815	0.15	959963	keystroke_d	d	n/a
480.1015	0.135	960203	keystroke_a	a	n/a
480.3715	0.075	960743	keystroke_t	t	n/a
480.4315	0.24	960863	keystroke_i	i	n/a
480.5365	0.18	961073	keystroke_o	o	n/a
480.5965	0.165	961193	keystroke_n	n	n/a
480.6865	0.135	961373	keystroke_Key.space	Key.space	n/a
480.957	0.105	961914	keystroke_i	i	n/a
481.077	0.12	962154	keystroke_m	m	n/a
481.392	0.105	962784	keystroke_p	p	n/a
481.647	0.105	963294	keystroke_l	l	n/a
481.872	0.09	963744	keystroke_e	e	n/a
482.1415	0.075	964283	keystroke_m	m	n/a
482.2765	0.0755	964553	keystroke_e	e	n/a
482.397	0.09	964794	keystroke_n	n	n/a
482.502	0.075	965004	keystroke_t	t	n/a
482.622	0.1495	965244	keystroke_a	a	n/a
482.742	0.1045	965484	keystroke_t	t	n/a
482.7865	0.27	965573	keystroke_i	i	n/a
482.9065	0.18	965813	keystroke_o	o	n/a
482.9515	0.165	965903	keystroke_n	n	n/a
483.0715	0.105	966143	keystroke_Key.space	Key.space	n/a
483.2815	0.075	966563	keystroke_p	p	n/a
483.3865	0.075	966773	keystroke_e	e	n/a
483.6415	0.06	967283	keystroke_p	p	n/a
483.8065	0.105	967613	keystroke_p	p	n/a
483.8665	0.165	967733	keystroke_e	e	n/a
483.9565	0.15	967913	keystroke_r	r	n/a
484.2415	0.09	968483	keystroke_Key.enter	Key.enter	n/a
484.3365	9.687	968673	prompt	n/a	enterprises latvia berry popular\n
485.1125	0.089	970225	keystroke_e	e	n/a
485.2915	0.045	970583	keystroke_n	n	n/a
485.3965	0.06	970793	keystroke_t	t	n/a
485.5165	0.15	971033	keystroke_e	e	n/a
485.6065	0.12	971213	keystroke_r	r	n/a
485.8025	0.104	971605	keystroke_p	p	n/a
485.9515	0.075	971903	keystroke_r	r	n/a
486.0715	0.09	972143	keystroke_i	i	n/a
486.2065	0.135	972413	keystroke_s	s	n/a
486.3565	0.1805	972713	keystroke_e	e	n/a
486.492	0.105	972984	keystroke_s	s	n/a
486.642	0.105	973284	keystroke_Key.space	Key.space	n/a
486.897	0.09	973794	keystroke_l	l	n/a
486.972	0.105	973944	keystroke_a	a	n/a
487.182	0.09	974364	keystroke_t	t	n/a
487.632	0.075	975264	keystroke_v	v	n/a
487.752	0.09	975504	keystroke_u	u	n/a
487.872	0.06	975744	keystroke_a	a	n/a
487.992	0.105	975984	keystroke_Key.space	Key.space	n/a
488.5615	0.045	977123	keystroke_Key.backspace	Key.backspace	n/a
488.6815	0.06	977363	keystroke_Key.backspace	Key.backspace	n/a
488.8315	0.03	977663	keystroke_Key.backspace	Key.backspace	n/a
489.0715	0.075	978143	keystroke_u	u	n/a
489.1765	0.09	978353	keystroke_a	a	n/a
489.5665	0.03	979133	keystroke_Key.backspace	Key.backspace	n/a
489.6715	0.06	979343	keystroke_Key.backspace	Key.backspace	n/a
490.3915	0.09	980783	keystroke_i	i	n/a
490.5415	0.105	981083	keystroke_a	a	n/a
490.6315	0.12	981263	keystroke_Key.space	Key.space	n/a
491.5465	0.105	983093	keystroke_b	b	n/a
491.8165	0.12	983633	keystroke_e	e	n/a
492.0715	0.06	984143	keystroke_r	r	n/a
492.2215	0.075	984443	keystroke_r	r	n/a
492.3565	0.18	984713	keystroke_y	y	n/a
492.4765	0.12	984953	keystroke_Key.space	Key.space	n/a
493.002	0.09	986004	keystroke_p	p	n/a
493.107	0.165	986214	keystroke_o	o	n/a
493.227	0.12	986454	keystroke_p	p	n/a
493.437	0.15	986874	keystroke_u	u	n/a
493.572	0.12	987144	keystroke_l	l	n/a
493.632	0.165	987264	keystroke_a	a	n/a
493.737	0.135	987474	keystroke_r	r	n/a
493.932	0.0895	987864	keystroke_Key.enter	Key.enter	n/a
494.0265	10.257	988053	prompt	n/a	assembled virtually battery verified\n
494.622	0.12	989244	keystroke_a	a	n/a
494.877	0.09	989754	keystroke_s	s	n/a
495.042	0.09	990084	keystroke_s	s	n/a
495.282	0.03	990564	keystroke_e	e	n/a
495.387	0.09	990774	keystroke_m	m	n/a
495.657	0.06	991314	keystroke_b	b	n/a
495.912	0.1055	991824	keystroke_l	l	n/a
496.0025	0.195	992005	keystroke_e	e	n/a
496.1225	0.149	992245	keystroke_d	d	n/a
496.3025	0.104	992605	keystroke_Key.space	Key.space	n/a
496.9475	0.104	993895	keystroke_v	v	n/a
497.1415	0.106	994283	keystroke_i	i	n/a
497.2615	0.09	994523	keystroke_r	r	n/a
497.4865	0.075	994973	keystroke_t	t	n/a
497.6065	0.075	995213	keystroke_u	u	n/a
497.772	0.075	995544	keystroke_a	a	n/a
497.952	0.075	995904	keystroke_l	l	n/a
498.087	0.06	996174	keystroke_l	l	n/a
498.417	0.09	996834	keystroke_y	y	n/a
498.7765	0.12	997553	keystroke_Key.space	Key.space	n/a
499.2415	0.075	998483	keystroke_b	b	n/a
499.4365	0.09	998873	keystroke_a	a	n/a
499.7365	0.06	999473	keystroke_t	t	n/a
499.8715	0.09	999743	keystroke_t	t	n/a
500.022	0.15	1000044	keystroke_e	e	n/a
500.097	0.135	1000194	keystroke_r	r	n/a
500.217	0.195	1000434	keystroke_y	y	n/a
500.337	0.12	1000674	keystroke_Key.space	Key.space	n/a
500.487	0.105	1000974	keystroke_v	v	n/a
500.742	0.135	1001484	keystroke_e	e	n/a
500.832	0.135	1001664	keystroke_r	r	n/a
