onset	duration	sample	value	key	prompt_text
4.072	12.958	8144	prompt	n/a	the quick brown fox jumps over a lazy dog\n
5.986	0.105	11972	keystroke	t	n/a
6.106	0.121	12212	keystroke	h	n/a
6.858	0.09	13716	keystroke	e	n/a
6.977	0.106	13954	keystroke	Key.space	n/a
7.2025	0.105	14405	keystroke	q	n/a
7.3085	0.179	14617	keystroke	u	n/a
7.428	0.1345	14856	keystroke	i	n/a
7.6075	0.1195	15215	keystroke	c	n/a
7.742	0.18	15484	keystroke	k	n/a
7.907	0.195	15814	keystroke	Key.space	n/a
8.087	0.135	16174	keystroke	b	n/a
8.207	0.12	16414	keystroke	r	n/a
8.342	0.165	16684	keystroke	o	n/a
8.492	0.1355	16984	keystroke	w	n/a
8.642	0.18	17284	keystroke	n	n/a
8.7625	0.135	17525	keystroke	Key.space	n/a
9.392	0.0605	18784	keystroke	f	n/a
9.4975	0.1355	18995	keystroke	o	n/a
9.738	0.119	19476	keystroke	x	n/a
9.902	0.105	19804	keystroke	Key.space	n/a
10.9375	0.135	21875	keystroke	j	n/a
11.0125	0.135	22025	keystroke	u	n/a
11.252	0.165	22504	keystroke	m	n/a
11.357	0.1655	22714	keystroke	p	n/a
11.4775	0.12	22955	keystroke	s	n/a
11.6275	0.18	23255	keystroke	Key.space	n/a
11.7625	0.15	23525	keystroke	o	n/a
11.8675	0.12	23735	keystroke	c	n/a
12.1375	0.09	24275	keystroke	e	n/a
12.4525	0.06	24905	keystroke	Key.backspace	n/a
12.5725	0.075	25145	keystroke	Key.backspace	n/a
12.6625	0.1045	25325	keystroke	v	n/a
13.2015	0.1355	26403	keystroke	w	n/a
13.412	0.12	26824	keystroke	e	n/a
13.517	0.12	27034	keystroke	Key.space	n/a
13.817	0.075	27634	keystroke	Key.backspace	n/a
13.967	0.075	27934	keystroke	Key.backspace	n/a
14.117	0.09	28234	keystroke	Key.backspace	n/a
14.7925	0.1045	29585	keystroke	e	n/a
14.987	0.09	29974	keystroke	r	n/a
15.137	0.105	30274	keystroke	Key.space	n/a
15.3465	0.1355	30693	keystroke	a	n/a
15.4215	0.136	30843	keystroke	Key.space	n/a
15.5875	0.1645	31175	keystroke	l	n/a
15.707	0.105	31414	keystroke	a	n/a
15.947	0.105	31894	keystroke	z	n/a
16.067	0.15	32134	keystroke	y	n/a
16.187	0.12	32374	keystroke	Key.space	n/a
16.292	0.12	32584	keystroke	d	n/a
16.427	0.12	32854	keystroke	o	n/a
16.562	0.12	33124	keystroke	g	n/a
16.922	0.1055	33844	keystroke	Key.enter	n/a
17.035	6.79	34070	prompt	n/a	rhythm offering limitation packs\n
18.1975	0.1195	36395	keystroke	r	n/a
18.362	0.1205	36724	keystroke	h	n/a
18.5425	0.12	37085	keystroke	y	n/a
18.6475	0.195	37295	keystroke	t	n/a
18.8725	0.135	37745	keystroke	h	n/a
19.233	0.165	38466	keystroke	m	n/a
19.382	0.166	38764	keystroke	Key.space	n/a
19.728	0.12	39456	keystroke	o	n/a
19.908	0.075	39816	keystroke	f	n/a
20.028	0.105	40056	keystroke	f	n/a
20.237	0.12	40474	keystroke	e	n/a
20.432	0.09	40864	keystroke	r	n/a
20.598	0.1945	41196	keystroke	i	n/a
20.703	0.1945	41406	keystroke	n	n/a
20.7775	0.135	41555	keystroke	g	n/a
20.9425	0.3005	41885	keystroke	Key.space	n/a
21.138	0.18	42276	keystroke	l	n/a
21.273	0.24	42546	keystroke	i	n/a
21.468	0.15	42936	keystroke	m	n/a
21.588	0.165	43176	keystroke	i	n/a
21.768	0.089	43536	keystroke	t	n/a
22.0375	0.1345	44075	keystroke	a	n/a
22.322	0.09	44644	keystroke	t	n/a
22.3975	0.2095	44795	keystroke	i	n/a
22.517	0.195	45034	keystroke	o	n/a
22.622	0.165	45244	keystroke	n	n/a
22.742	0.15	45484	keystroke	Key.space	n/a
22.847	0.1805	45694	keystroke	p	n/a
22.967	0.1205	45934	keystroke	a	n/a
23.2525	0.075	46505	keystroke	c	n/a
23.342	0.12	46684	keystroke	k	n/a
23.507	0.1205	47014	keystroke	s	n/a
23.7175	0.1045	47435	keystroke	Key.enter	n/a
23.829	7.3155	47658	prompt	n/a	refinance client jelsoft scott\n
24.737	0.09	49474	keystroke	r	n/a
24.872	0.1055	49744	keystroke	e	n/a
25.0825	0.105	50165	keystroke	f	n/a
25.1725	0.21	50345	keystroke	i	n/a
25.3225	0.15	50645	keystroke	n	n/a
25.4575	0.135	50915	keystroke	a	n/a
25.5775	0.15	51155	keystroke	n	n/a
25.7425	0.0455	51485	keystroke	c	n/a
25.9375	0.075	51875	keystroke	e	n/a
25.998	0.1195	51996	keystroke	Key.space	n/a
26.192	0.0605	52384	keystroke	c	n/a
26.2825	0.195	52565	keystroke	l	n/a
26.4175	0.1355	52835	keystroke	i	n/a
26.538	0.135	53076	keystroke	e	n/a
26.688	0.105	53376	keystroke	n	n/a
26.808	0.09	53616	keystroke	t	n/a
26.928	0.12	53856	keystroke	Key.space	n/a
27.918	0.135	55836	keystroke	j	n/a
28.038	0.1495	56076	keystroke	e	n/a
28.1725	0.15	56345	keystroke	l	n/a
28.4275	0.06	56855	keystroke	f	n/a
28.7425	0.06	57485	keystroke	Key.backspace	n/a
28.8175	0.1205	57635	keystroke	s	n/a
28.983	0.135	57966	keystroke	o	n/a
29.118	0.09	58236	keystroke	f	n/a
29.328	0.075	58656	keystroke	t	n/a
29.433	0.104	58866	keystroke	Key.space	n/a
29.718	0.045	59436	keystroke	s	n/a
30.063	0.0745	60126	keystroke	c	n/a
30.2725	0.1195	60545	keystroke	o	n/a
30.617	0.0605	61234	keystroke	t	n/a
30.7375	0.165	61475	keystroke	t	n/a
31.0375	0.105	62075	keystroke	Key.enter	n/a
31.147	8.4125	62294	prompt	n/a	responsibilities here siemens labeled\n
31.8925	0.06	63785	keystroke	r	n/a
32.0575	0.1195	64115	keystroke	e	n/a
32.207	0.18	64414	keystroke	p	n/a
32.822	0.166	65644	keystroke	s	n/a
33.017	0.0605	66034	keystroke	Key.backspace	n/a
33.1675	0.075	66335	keystroke	Key.backspace	n/a
33.2575	0.135	66515	keystroke	s	n/a
33.4225	0.1795	66845	keystroke	p	n/a
33.617	0.195	67234	keystroke	o	n/a
33.767	0.15	67534	keystroke	n	n/a
33.962	0.1355	67924	keystroke	s	n/a
34.082	0.166	68164	keystroke	i	n/a
34.233	0.1645	68466	keystroke	b	n/a
34.3825	0.21	68765	keystroke	i	n/a
34.5175	0.225	69035	keystroke	l	n/a
34.7125	0.18	69425	keystroke	i	n/a
34.9075	0.135	69815	keystroke	t	n/a
35.0875	0.12	70175	keystroke	i	n/a
35.2375	0.12	70475	keystroke	e	n/a
35.5075	0.0755	71015	keystroke	s	n/a
35.553	0.1345	71106	keystroke	Key.space	n/a
36.0025	0.105	72005	keystroke	h	n/a
36.0625	0.12	72125	keystroke	e	n/a
36.2425	0.12	72485	keystroke	r	n/a
36.4375	0.15	72875	keystroke	e	n/a
36.5725	0.135	73145	keystroke	Key.space	n/a
36.8575	0.105	73715	keystroke	s	n/a
36.9475	0.12	73895	keystroke	i	n/a
37.113	0.09	74226	keystroke	e	n/a
37.188	0.089	74376	keystroke	m	n/a
37.293	0.12	74586	keystroke	e	n/a
37.368	0.164	74736	keystroke	n	n/a
37.623	0.15	75246	keystroke	s	n/a
37.757	0.121	75514	keystroke	Key.space	n/a
38.043	0.135	76086	keystroke	l	n/a
38.148	0.12	76296	keystroke	a	n/a
38.298	0.12	76596	keystroke	b	n/a
38.463	0.135	76926	keystroke	e	n/a
38.538	0.18	77076	keystroke	l	n/a
38.9425	0.09	77885	keystroke	e	n/a
39.1675	0.09	78335	keystroke	d	n/a
39.4825	0.075	78965	keystroke	Key.enter	n/a
39.5625	11.382	79125	prompt	n/a	entrepreneur guards promising polyphonic\n
40.368	0.105	80736	keystroke	e	n/a
40.458	0.165	80916	keystroke	n	n/a
40.638	0.105	81276	keystroke	t	n/a
40.878	0.105	81756	keystroke	r	n/a
41.1025	0.1505	82205	keystroke	e	n/a
41.298	0.165	82596	keystroke	p	n/a
41.493	0.12	82986	keystroke	r	n/a
42.1375	0.12	84275	keystroke	e	n/a
42.4525	0.15	84905	keystroke	n	n/a
42.5725	0.12	85145	keystroke	e	n/a
42.8125	0.15	85625	keystroke	u	n/a
43.0375	0.135	86075	keystroke	r	n/a
43.2625	0.135	86525	keystroke	Key.space	n/a
44.2975	0.12	88595	keystroke	g	n/a
44.4775	0.15	88955	keystroke	u	n/a
44.7775	0.165	89555	keystroke	a	n/a
45.2575	0.075	90515	keystroke	r	n/a
45.5575	0.09	91115	keystroke	d	n/a
45.7525	0.165	91505	keystroke	s	n/a
45.9025	0.1505	91805	keystroke	Key.space	n/a
46.203	0.15	92406	keystroke	p	n/a
46.323	0.15	92646	keystroke	r	n/a
46.428	0.135	92856	keystroke	o	n/a
46.6975	0.2705	93395	keystroke	m	n/a
46.908	0.21	93816	keystroke	i	n/a
47.343	0.1045	94686	keystroke	s	n/a
47.4625	0.225	94925	keystroke	i	n/a
47.6125	0.135	95225	keystroke	n	n/a
47.7175	0.165	95435	keystroke	g	n/a
47.8975	0.105	95795	keystroke	Key.space	n/a
48.4675	0.12	96935	keystroke	p	n/a
48.6625	0.09	97325	keystroke	o	n/a
48.843	0.15	97686	keystroke	l	n/a
49.233	0.09	98466	keystroke	y	n/a
49.473	0.18	98946	keystroke	p	n/a
49.623	0.15	99246	keystroke	h	n/a
49.728	0.27	99456	keystroke	o	n/a
49.953	0.21	99906	keystroke	n	n/a
50.118	0.195	100236	keystroke	i	n/a
50.432	0.075	100864	keystroke	c	n/a
50.883	0.059	101766	keystroke	Key.enter	n/a
50.9485	8.1115	101897	prompt	n/a	mardi exercises donate palestine\n
51.5575	0.18	103115	keystroke	m	n/a
51.7075	0.15	103415	keystroke	a	n/a
51.9775	0.105	103955	keystroke	r	n/a
52.173	0.255	104346	keystroke	d	n/a
52.323	0.225	104646	keystroke	i	n/a
52.488	0.135	104976	keystroke	Key.space	n/a
52.758	0.135	105516	keystroke	e	n/a
53.058	0.09	106116	keystroke	x	n/a
53.283	0.09	106566	keystroke	e	n/a
53.433	0.1045	106866	keystroke	r	n/a
53.6725	0.09	107345	keystroke	c	n/a
53.8225	0.165	107645	keystroke	i	n/a
54.0025	0.045	108005	keystroke	s	n/a
54.1975	0.06	108395	keystroke	e	n/a
54.4225	0.105	108845	keystroke	s	n/a
54.5125	0.135	109025	keystroke	Key.space	n/a
54.8275	0.1055	109655	keystroke	d	n/a
54.948	0.165	109896	keystroke	o	n/a
55.068	0.165	110136	keystroke	n	n/a
55.188	0.12	110376	keystroke	a	n/a
55.5325	0.045	111065	keystroke	t	n/a
55.7725	0.135	111545	keystroke	e	n/a
55.8775	0.15	111755	keystroke	Key.space	n/a
56.102	0.135	112204	keystroke	p	n/a
56.283	0.045	112566	keystroke	e	n/a
56.642	0.091	113284	keystroke	Key.backspace	n/a
56.763	0.15	113526	keystroke	a	n/a
56.943	0.12	113886	keystroke	l	n/a
57.078	0.09	114156	keystroke	e	n/a
57.228	0.105	114456	keystroke	r	n/a
57.602	0.0905	115204	keystroke	Key.backspace	n/a
57.6785	0.119	115357	keystroke	s	n/a
57.9475	0.06	115895	keystroke	t	n/a
58.0225	0.2105	116045	keystroke	i	n/a
58.158	0.15	116316	keystroke	n	n/a
58.293	0.135	116586	keystroke	e	n/a
58.907	0.151	117814	keystroke	Key.enter	n/a
59.0645	9.115	118129	prompt	n/a	problems accommodate luis buyers\n
59.718	0.15	119436	keystroke	p	n/a
59.823	0.135	119646	keystroke	r	n/a
59.973	0.09	119946	keystroke	o	n/a
60.168	0.18	120336	keystroke	b	n/a
60.303	0.21	120606	keystroke	l	n/a
60.453	0.165	120906	keystroke	e	n/a
60.648	0.18	121296	keystroke	m	n/a
60.798	0.1795	121596	keystroke	s	n/a
60.9325	0.135	121865	keystroke	Key.space	n/a
61.293	0.105	122586	keystroke	a	n/a
61.563	0.03	123126	keystroke	c	n/a
61.683	0.09	123366	keystroke	c	n/a
61.788	0.165	123576	keystroke	o	n/a
61.923	0.179	123846	keystroke	m	n/a
62.058	0.195	124116	keystroke	o	n/a
62.208	0.12	124416	keystroke	d	n/a
62.988	0.165	125976	keystroke	Key.backspace	n/a
63.6325	0.09	127265	keystroke	Key.backspace	n/a
63.8875	0.18	127775	keystroke	m	n/a
63.9925	0.225	127985	keystroke	o	n/a
64.1875	0.15	128375	keystroke	d	n/a
64.473	0.15	128946	keystroke	a	n/a
64.833	0.0745	129666	keystroke	t	n/a
65.1025	0.12	130205	keystroke	e	n/a
65.2375	0.12	130475	keystroke	Key.space	n/a
65.552	0.105	131104	keystroke	l	n/a
65.897	0.21	131794	keystroke	u	n/a
66.047	0.1655	132094	keystroke	i	n/a
66.1675	0.15	132335	keystroke	s	n/a
66.3325	0.135	132665	keystroke	Key.space	n/a
67.0225	0.12	134045	keystroke	b	n/a
67.1275	0.09	134255	keystroke	u	n/a
67.3225	0.12	134645	keystroke	y	n/a
67.4575	0.12	134915	keystroke	e	n/a
67.6375	0.105	135275	keystroke	r	n/a
67.8925	0.12	135785	keystroke	s	n/a
68.0875	0.0905	136175	keystroke	Key.enter	n/a
68.184	9.7905	136368	prompt	n/a	distribution network customers surely\n
70.6855	0.012	141371	keystroke	d	n/a
70.8475	0.1355	141695	keystroke	i	n/a
70.968	0.105	141936	keystroke	s	n/a
71.5075	0.09	143015	keystroke	t	n/a
71.6575	0.165	143315	keystroke	r	n/a
71.7625	0.135	143525	keystroke	i	n/a
71.8825	0.12	143765	keystroke	b	n/a
71.9875	0.12	143975	keystroke	u	n/a
72.0775	0.165	144155	keystroke	t	n/a
72.2725	0.285	144545	keystroke	i	n/a
72.3625	0.196	144725	keystroke	o	n/a
72.5125	0.105	145025	keystroke	n	n/a
72.6775	0.105	145355	keystroke	Key.space	n/a
72.8875	0.12	145775	keystroke	n	n/a
73.1425	0.15	146285	keystroke	e	n/a
73.4425	0.06	146885	keystroke	w	n/a
73.7275	0.12	147455	keystroke	Key.backspace	n/a
73.8325	0.09	147665	keystroke	t	n/a
74.058	0.15	148116	keystroke	w	n/a
74.163	0.12	148326	keystroke	o	n/a
74.298	0.1045	148596	keystroke	r	n/a
74.4035	0.209	148807	keystroke	k	n/a
74.5675	0.15	149135	keystroke	Key.space	n/a
75.2575	0.06	150515	keystroke	c	n/a
75.3475	0.105	150695	keystroke	u	n/a
75.4675	0.105	150935	keystroke	s	n/a
75.7075	0.06	151415	keystroke	t	n/a
75.7825	0.135	151565	keystroke	o	n/a
75.8875	0.135	151775	keystroke	m	n/a
76.0375	0.0605	152075	keystroke	e	n/a
76.188	0.09	152376	keystroke	r	n/a
76.443	0.06	152886	keystroke	s	n/a
76.518	0.12	153036	keystroke	Key.space	n/a
76.788	0.12	153576	keystroke	s	n/a
76.923	0.105	153846	keystroke	u	n/a
77.073	0.09	154146	keystroke	r	n/a
77.268	0.12	154536	keystroke	e	n/a
77.373	0.1195	154746	keystroke	l	n/a
77.5825	0.09	155165	keystroke	y	n/a
77.868	0.105	155736	keystroke	Key.enter	n/a
77.9775	9.702	155955	prompt	n/a	findings wikipedia scenic ultram\n
78.977	0.091	157954	keystroke	f	n/a
79.083	0.18	158166	keystroke	i	n/a
79.143	0.105	158286	keystroke	n	n/a
79.338	0.135	158676	keystroke	d	n/a
79.773	0.135	159546	keystroke	i	n/a
79.863	0.12	159726	keystroke	n	n/a
79.923	0.075	159846	keystroke	g	n/a
80.508	0.135	161016	keystroke	s	n/a
80.658	0.12	161316	keystroke	Key.space	n/a
81.138	0.015	162276	keystroke	i	n/a
81.5275	0.12	163055	keystroke	Key.backspace	n/a
81.6325	0.1505	163265	keystroke	w	n/a
81.798	0.09	163596	keystroke	i	n/a
81.9925	0.075	163985	keystroke	k	n/a
82.188	0.135	164376	keystroke	i	n/a
82.293	0.165	164586	keystroke	p	n/a
82.473	0.12	164946	keystroke	e	n/a
82.728	0.075	165456	keystroke	d	n/a
82.818	0.105	165636	keystroke	i	n/a
82.998	0.135	165996	keystroke	a	n/a
83.103	0.135	166206	keystroke	Key.space	n/a
84.2285	0.104	168457	keystroke	s	n/a
84.7675	0.06	169535	keystroke	c	n/a
85.0085	0.074	170017	keystroke	e	n/a
85.0525	0.211	170105	keystroke	n	n/a
85.1725	0.165	170345	keystroke	i	n/a
85.3075	0.12	170615	keystroke	s	n/a
85.4425	0.1205	170885	keystroke	Key.space	n/a
86.328	0.09	172656	keystroke	u	n/a
86.433	0.09	172866	keystroke	l	n/a
86.478	0.09	172956	keystroke	t	n/a
86.673	0.075	173346	keystroke	r	n/a
86.988	0.12	173976	keystroke	a	n/a
87.093	0.12	174186	keystroke	m	n/a
87.573	0.105	175146	keystroke	Key.enter	n/a
87.683	6.656	175366	prompt	n/a	manhattan attacked chan final\n
88.668	0.135	177336	keystroke	m	n/a
88.788	0.18	177576	keystroke	a	n/a
88.983	0.1045	177966	keystroke	n	n/a
89.2525	0.12	178505	keystroke	h	n/a
89.4325	0.135	178865	keystroke	a	n/a
89.8075	0.12	179615	keystroke	t	n/a
89.9725	0.105	179945	keystroke	t	n/a
90.243	0.15	180486	keystroke	a	n/a
90.3775	0.1805	180755	keystroke	n	n/a
90.5275	0.1355	181055	keystroke	Key.space	n/a
90.7075	0.091	181415	keystroke	a	n/a
91.1135	0.075	182227	keystroke	t	n/a
91.2775	0.076	182555	keystroke	t	n/a
91.548	0.075	183096	keystroke	a	n/a
91.788	0.045	183576	keystroke	c	n/a
91.878	0.135	183756	keystroke	k	n/a
92.043	0.06	184086	keystroke	e	n/a
92.2075	0.06	184415	keystroke	d	n/a
92.3275	0.105	184655	keystroke	Key.space	n/a
92.4775	0.06	184955	keystroke	c	n/a
92.5975	0.09	185195	keystroke	h	n/a
92.7475	0.12	185495	keystroke	a	n/a
92.8825	0.1655	185765	keystroke	n	n/a
93.018	0.135	186036	keystroke	Key.space	n/a
93.348	0.0895	186696	keystroke	f	n/a
93.453	0.165	186906	keystroke	i	n/a
93.543	0.15	187086	keystroke	n	n/a
93.678	0.12	187356	keystroke	a	n/a
93.828	0.135	187656	keystroke	l	n/a
94.2625	0.075	188525	keystroke	Key.enter	n/a
94.342	7.9775	188684	prompt	n/a	drink defects somewhere mess\n
95.268	0.075	190536	keystroke	d	n/a
95.433	0.105	190866	keystroke	r	n/a
95.553	0.18	191106	keystroke	i	n/a
95.703	0.21	191406	keystroke	n	n/a
95.868	0.24	191736	keystroke	k	n/a
96.078	0.1795	192156	keystroke	Key.space	n/a
96.2585	0.074	192517	keystroke	d	n/a
96.4525	0.06	192905	keystroke	e	n/a
96.618	0.075	193236	keystroke	f	n/a
96.798	0.075	193596	keystroke	e	n/a
97.023	0.045	194046	keystroke	c	n/a
97.278	0.045	194556	keystroke	t	n/a
97.593	0.03	195186	keystroke	s	n/a
98.328	0.1195	196656	keystroke	Key.space	n/a
98.478	0.165	196956	keystroke	s	n/a
98.598	0.165	197196	keystroke	o	n/a
98.718	0.15	197436	keystroke	m	n/a
98.898	0.12	197796	keystroke	e	n/a
99.932	0.12	199864	keystroke	w	n/a
100.037	0.091	200074	keystroke	h	n/a
100.1735	0.0745	200347	keystroke	e	n/a
100.368	0.0605	200736	keystroke	r	n/a
100.593	0.104	201186	keystroke	e	n/a
100.712	0.196	201424	keystroke	Key.space	n/a
101.013	0.1645	202026	keystroke	m	n/a
101.163	0.0895	202326	keystroke	a	n/a
101.568	0.075	203136	keystroke	Key.backspace	n/a
101.658	0.075	203316	keystroke	e	n/a
101.898	0.06	203796	keystroke	s	n/a
102.033	0.12	204066	keystroke	s	n/a
102.198	0.1195	204396	keystroke	Key.enter	n/a
102.323	5.7715	204646	prompt	n/a	particular kick ridge upcoming\n
103.0075	0.15	206015	keystroke	p	n/a
103.1125	0.135	206225	keystroke	a	n/a
103.3675	0.06	206735	keystroke	r	n/a
103.5475	0.045	207095	keystroke	t	n/a
103.6525	0.15	207305	keystroke	i	n/a
103.8175	0.045	207635	keystroke	c	n/a
104.013	0.075	208026	keystroke	u	n/a
104.163	0.18	208326	keystroke	l	n/a
104.268	0.12	208536	keystroke	a	n/a
104.523	0.12	209046	keystroke	r	n/a
104.628	0.135	209256	keystroke	Key.space	n/a
104.763	0.12	209526	keystroke	k	n/a
104.973	0.12	209946	keystroke	i	n/a
105.108	0.105	210216	keystroke	c	n/a
105.228	0.1795	210456	keystroke	k	n/a
105.3775	0.165	210755	keystroke	Key.space	n/a
105.5875	0.09	211175	keystroke	r	n/a
105.6925	0.135	211385	keystroke	i	n/a
105.8575	0.075	211715	keystroke	d	n/a
106.008	0.09	212016	keystroke	g	n/a
106.143	0.12	212286	keystroke	e	n/a
106.293	0.09	212586	keystroke	Key.space	n/a
106.758	0.135	213516	keystroke	u	n/a
106.833	0.18	213666	keystroke	p	n/a
107.148	0.105	214296	keystroke	c	n/a
107.373	0.15	214746	keystroke	o	n/a
107.463	0.165	214926	keystroke	m	n/a
107.643	0.15	215286	keystroke	i	n/a
107.718	0.12	215436	keystroke	n	n/a
107.808	0.1195	215616	keystroke	g	n/a
108.0025	0.09	216005	keystroke	Key.enter	n/a
108.099	7.9005	216198	prompt	n/a	josh prayer examinations onion\n
108.948	0.165	217896	keystroke	j	n/a
109.038	0.135	218076	keystroke	o	n/a
109.263	0.165	218526	keystroke	s	n/a
109.413	0.1645	218826	keystroke	h	n/a
109.5325	0.15	219065	keystroke	Key.space	n/a
110.0275	0.12	220055	keystroke	p	n/a
110.1775	0.135	220355	keystroke	r	n/a
110.5225	0.12	221045	keystroke	a	n/a
110.748	0.105	221496	keystroke	y	n/a
110.868	0.06	221736	keystroke	e	n/a
111.018	0.075	222036	keystroke	r	n/a
111.138	0.1045	222276	keystroke	Key.space	n/a
111.5575	0.0905	223115	keystroke	e	n/a
111.813	0.06	223626	keystroke	x	n/a
112.008	0.105	224016	keystroke	a	n/a
112.128	0.165	224256	keystroke	m	n/a
112.233	0.225	224466	keystroke	o	n/a
112.443	0.24	224886	keystroke	n	n/a
112.908	0.06	225816	keystroke	Key.backspace	n/a
113.103	0.12	226206	keystroke	i	n/a
113.4475	0.045	226895	keystroke	Key.backspace	n/a
113.5375	0.105	227075	keystroke	Key.backspace	n/a
113.7785	0.18	227557	keystroke	i	n/a
113.8985	0.15	227797	keystroke	n	n/a
113.9885	0.134	227977	keystroke	a	n/a
114.3025	0.046	228605	keystroke	t	n/a
114.3625	0.15	228725	keystroke	i	n/a
114.4525	0.165	228905	keystroke	o	n/a
114.6475	0.06	229295	keystroke	n	n/a
114.8125	0.15	229625	keystroke	s	n/a
114.9775	0.12	229955	keystroke	Key.space	n/a
115.2475	0.165	230495	keystroke	o	n/a
115.3525	0.195	230705	keystroke	n	n/a
115.4725	0.21	230945	keystroke	i	n/a
115.5625	0.165	231125	keystroke	o	n/a
115.6675	0.135	231335	keystroke	n	n/a
115.8925	0.105	231785	keystroke	Key.enter	n/a
116.003	7.3315	232006	prompt	n/a	capabilities shirt firewire belize\n
116.673	0.06	233346	keystroke	c	n/a
116.898	0.09	233796	keystroke	a	n/a
116.973	0.15	233946	keystroke	p	n/a
117.093	0.105	234186	keystroke	a	n/a
117.333	0.165	234666	keystroke	b	n/a
117.468	0.1805	234936	keystroke	i	n/a
117.6035	0.21	235207	keystroke	l	n/a
117.7835	0.15	235567	keystroke	i	n/a
117.8735	0.105	235747	keystroke	t	n/a
118.0235	0.15	236047	keystroke	i	n/a
118.3985	0.135	236797	keystroke	e	n/a
118.6235	0.15	237247	keystroke	s	n/a
118.7585	0.135	237517	keystroke	Key.space	n/a
119.328	0.1505	238656	keystroke	s	n/a
119.433	0.1355	238866	keystroke	h	n/a
119.5235	0.15	239047	keystroke	i	n/a
119.6425	0.061	239285	keystroke	r	n/a
119.7935	0.135	239587	keystroke	t	n/a
119.8975	0.135	239795	keystroke	Key.space	n/a
120.393	0.075	240786	keystroke	f	n/a
120.483	0.135	240966	keystroke	i	n/a
120.558	0.105	241116	keystroke	r	n/a
120.783	0.075	241566	keystroke	e	n/a
120.993	0.09	241986	keystroke	w	n/a
121.113	0.12	242226	keystroke	i	n/a
121.263	0.045	242526	keystroke	r	n/a
121.5325	0.015	243065	keystroke	e	n/a
121.5625	0.1055	243125	keystroke	Key.space	n/a
121.788	0.12	243576	keystroke	b	n/a
122.013	0.105	244026	keystroke	e	n/a
122.148	0.195	244296	keystroke	l	n/a
122.283	0.15	244566	keystroke	i	n/a
122.628	0.075	245256	keystroke	z	n/a
122.943	0.0895	245886	keystroke	e	n/a
123.2275	0.105	246455	keystroke	Key.enter	n/a
123.338	9.5965	246676	prompt	n/a	amended attributes ashley engineers\n
123.978	0.135	247956	keystroke	a	n/a
124.128	0.105	248256	keystroke	m	n/a
124.248	0.075	248496	keystroke	e	n/a
124.368	0.105	248736	keystroke	n	n/a
124.458	0.075	248916	keystroke	d	n/a
124.653	0.06	249306	keystroke	e	n/a
124.848	0.105	249696	keystroke	d	n/a
124.968	0.0905	249936	keystroke	Key.space	n/a
125.373	0.0455	250746	keystroke	t	n/a
125.493	0.09	250986	keystroke	r	n/a
125.8825	0.075	251765	keystroke	Key.backspace	n/a
126.0175	0.105	252035	keystroke	Key.backspace	n/a
126.1675	0.1055	252335	keystroke	a	n/a
126.498	0.045	252996	keystroke	t	n/a
126.603	0.075	253206	keystroke	t	n/a
126.768	0.105	253536	keystroke	r	n/a
126.873	0.12	253746	keystroke	i	n/a
127.068	0.195	254136	keystroke	b	n/a
127.248	0.12	254496	keystroke	u	n/a
127.413	0.0755	254826	keystroke	r	n/a
127.9985	0.135	255997	keystroke	Key.backspace	n/a
128.1185	0.105	256237	keystroke	t	n/a
128.3135	0.12	256627	keystroke	e	n/a
128.5835	0.075	257167	keystroke	s	n/a
128.6735	0.135	257347	keystroke	Key.space	n/a
129.0335	0.09	258067	keystroke	a	n/a
129.2285	0.105	258457	keystroke	s	n/a
129.3485	0.12	258697	keystroke	h	n/a
129.5585	0.134	259117	keystroke	l	n/a
129.7085	0.135	259417	keystroke	e	n/a
129.8585	0.18	259717	keystroke	y	n/a
130.0075	0.12	260015	keystroke	Key.space	n/a
130.1585	0.12	260317	keystroke	e	n/a
130.2335	0.134	260467	keystroke	n	n/a
130.8635	0.12	261727	keystroke	g	n/a
131.0585	0.2095	262117	keystroke	i	n/a
131.1935	0.1495	262387	keystroke	n	n/a
131.358	0.12	262716	keystroke	e	n/a
131.523	0.105	263046	keystroke	e	n/a
131.748	0.075	263496	keystroke	d	n/a
132.048	0.09	264096	keystroke	Key.backspace	n/a
132.108	0.105	264216	keystroke	r	n/a
132.348	0.105	264696	keystroke	s	n/a
132.8425	0.09	265685	keystroke	Key.enter	n/a
132.9375	8.787	265875	prompt	n/a	stylish gear consistency signature\n
133.8035	0.074	267607	keystroke	s	n/a
134.043	0.09	268086	keystroke	t	n/a
134.193	0.075	268386	keystroke	y	n/a
134.2975	0.12	268595	keystroke	l	n/a
134.4475	0.1505	268895	keystroke	i	n/a
134.613	0.12	269226	keystroke	s	n/a
134.763	0.1955	269526	keystroke	h	n/a
134.9135	0.105	269827	keystroke	Key.space	n/a
135.858	0.105	271716	keystroke	g	n/a
135.948	0.12	271896	keystroke	e	n/a
136.533	0.1055	273066	keystroke	a	n/a
136.8035	0.09	273607	keystroke	r	n/a
136.908	0.15	273816	keystroke	Key.space	n/a
137.523	0.105	275046	keystroke	c	n/a
137.613	0.135	275226	keystroke	o	n/a
137.718	0.135	275436	keystroke	n	n/a
137.853	0.1655	275706	keystroke	s	n/a
138.0035	0.105	276007	keystroke	i	n/a
138.1535	0.075	276307	keystroke	s	n/a
138.4075	0.075	276815	keystroke	t	n/a
138.5875	0.105	277175	keystroke	e	n/a
138.7225	0.1205	277445	keystroke	n	n/a
138.918	0.075	277836	keystroke	c	n/a
139.248	0.135	278496	keystroke	y	n/a
139.4725	0.105	278945	keystroke	Key.space	n/a
140.0575	0.12	280115	keystroke	s	n/a
140.1925	0.12	280385	keystroke	i	n/a
140.3275	0.075	280655	keystroke	g	n/a
140.4625	0.105	280925	keystroke	n	n/a
140.5975	0.1205	281195	keystroke	a	n/a
140.898	0.06	281796	keystroke	t	n/a
141.003	0.09	282006	keystroke	u	n/a
141.108	0.06	282216	keystroke	r	n/a
141.3335	0.09	282667	keystroke	e	n/a
141.618	0.105	283236	keystroke	Key.enter	n/a
141.7275	5.757	283455	prompt	n/a	below modeling head comp\n
142.4285	0.12	284857	keystroke	b	n/a
142.5635	0.12	285127	keystroke	e	n/a
142.6985	0.135	285397	keystroke	l	n/a
142.9235	0.135	285847	keystroke	o	n/a
143.0735	0.135	286147	keystroke	w	n/a
143.2235	0.105	286447	keystroke	Key.space	n/a
143.4335	0.1645	286867	keystroke	m	n/a
143.583	0.1495	287166	keystroke	o	n/a
143.8075	0.06	287615	keystroke	d	n/a
144.0185	0.044	288037	keystroke	e	n/a
144.0775	0.136	288155	keystroke	l	n/a
144.3025	0.165	288605	keystroke	i	n/a
144.3925	0.15	288785	keystroke	n	n/a
144.4825	0.136	288965	keystroke	g	n/a
144.6925	0.075	289385	keystroke	Key.space	n/a
144.7985	0.149	289597	keystroke	h	n/a
144.9035	0.105	289807	keystroke	e	n/a
145.1425	0.12	290285	keystroke	a	n/a
145.3985	0.105	290797	keystroke	d	n/a
145.5175	0.135	291035	keystroke	Key.space	n/a
145.8335	0.105	291667	keystroke	c	n/a
145.9535	0.21	291907	keystroke	o	n/a
146.1485	0.179	292297	keystroke	p	n/a
146.5825	0.075	293165	keystroke	Key.backspace	n/a
146.8235	0.135	293647	keystroke	m	n/a
146.9275	0.136	293855	keystroke	p	n/a
147.423	0.06	294846	keystroke	Key.enter	n/a
147.4875	6.3725	294975	prompt	n/a	network begin coupon cameras\n
148.173	0.135	296346	keystroke	n	n/a
148.323	0.09	296646	keystroke	e	n/a
148.563	0.06	297126	keystroke	t	n/a
148.773	0.105	297546	keystroke	w	n/a
148.8925	0.12	297785	keystroke	o	n/a
149.0275	0.09	298055	keystroke	r	n/a
149.1025	0.165	298205	keystroke	k	n/a
149.2685	0.164	298537	keystroke	Key.space	n/a
149.4175	0.165	298835	keystroke	b	n/a
149.5375	0.105	299075	keystroke	e	n/a
149.6875	0.24	299375	keystroke	i	n/a
149.8375	0.165	299675	keystroke	n	n/a
150.2275	0.0605	300455	keystroke	Key.backspace	n/a
150.348	0.12	300696	keystroke	Key.backspace	n/a
150.483	0.1055	300966	keystroke	g	n/a
150.6335	0.195	301267	keystroke	i	n/a
150.7535	0.165	301507	keystroke	n	n/a
150.8875	0.106	301775	keystroke	Key.space	n/a
151.1285	0.104	302257	keystroke	c	n/a
151.2175	0.1205	302435	keystroke	o	n/a
151.293	0.12	302586	keystroke	u	n/a
151.503	0.1945	303006	keystroke	p	n/a
151.6375	0.15	303275	keystroke	o	n/a
151.8925	0.165	303785	keystroke	n	n/a
152.0425	0.1055	304085	keystroke	Key.space	n/a
152.478	0.075	304956	keystroke	c	n/a
152.718	0.12	305436	keystroke	a	n/a
152.8535	0.134	305707	keystroke	m	n/a
152.9725	0.045	305945	keystroke	e	n/a
153.108	0.0905	306216	keystroke	r	n/a
153.3785	0.09	306757	keystroke	a	n/a
153.5585	0.06	307117	keystroke	s	n/a
153.7985	0.06	307597	keystroke	Key.enter	n/a
153.863	7.0465	307726	prompt	n/a	melbourne aspect carries overhead\n
154.4575	0.135	308915	keystroke	m	n/a
154.5775	0.105	309155	keystroke	e	n/a
154.7275	0.105	309455	keystroke	l	n/a
155.0275	0.18	310055	keystroke	b	n/a
155.1025	0.165	310205	keystroke	o	n/a
155.2375	0.135	310475	keystroke	u	n/a
155.3875	0.105	310775	keystroke	r	n/a
155.5075	0.12	311015	keystroke	n	n/a
155.6725	0.106	311345	keystroke	e	n/a
155.7935	0.105	311587	keystroke	Key.space	n/a
156.348	0.105	312696	keystroke	a	n/a
156.528	0.105	313056	keystroke	s	n/a
156.723	0.12	313446	keystroke	p	n/a
156.828	0.105	313656	keystroke	e	n/a
157.0985	0.045	314197	keystroke	c	n/a
157.3235	0.075	314647	keystroke	t	n/a
157.4135	0.1195	314827	keystroke	Key.space	n/a
157.668	0.06	315336	keystroke	c	n/a
157.908	0.105	315816	keystroke	a	n/a
158.178	0.045	316356	keystroke	r	n/a
158.268	0.09	316536	keystroke	r	n/a
158.418	0.15	316836	keystroke	i	n/a
158.553	0.09	317106	keystroke	e	n/a
158.763	0.135	317526	keystroke	s	n/a
158.868	0.105	317736	keystroke	Key.space	n/a
159.093	0.135	318186	keystroke	o	n/a
159.4835	0.104	318967	keystroke	v	n/a
159.5885	0.059	319177	keystroke	e	n/a
159.7535	0.0595	319507	keystroke	r	n/a
159.843	0.09	319686	keystroke	h	n/a
159.978	0.06	319956	keystroke	e	n/a
160.293	0.06	320586	keystroke	a	n/a
160.5325	0.06	321065	keystroke	d	n/a
160.8325	0.075	321665	keystroke	Key.enter	n/a
160.914	7.1955	321828	prompt	n/a	revolution attempts referred his\n
161.688	0.06	323376	keystroke	r	n/a
161.838	0.09	323676	keystroke	e	n/a
162.108	0.03	324216	keystroke	v	n/a
162.168	0.09	324336	keystroke	o	n/a
162.378	0.075	324756	keystroke	l	n/a
162.573	0.075	325146	keystroke	u	n/a
162.768	0.105	325536	keystroke	t	n/a
162.843	0.27	325686	keystroke	i	n/a
162.948	0.285	325896	keystroke	o	n/a
163.128	0.225	326256	keystroke	n	n/a
163.293	0.195	326586	keystroke	Key.space	n/a
163.518	0.105	327036	keystroke	a	n/a
163.803	0.0295	327606	keystroke	t	n/a
163.893	0.075	327786	keystroke	t	n/a
164.103	0.105	328206	keystroke	e	n/a
164.223	0.18	328446	keystroke	m	n/a
164.343	0.195	328686	keystroke	p	n/a
164.463	0.09	328926	keystroke	t	n/a
164.733	0.1345	329466	keystroke	s	n/a
164.8525	0.1205	329705	keystroke	Key.space	n/a
165.1225	0.0755	330245	keystroke	r	n/a
165.3335	0.06	330667	keystroke	e	n/a
165.5435	0.105	331087	keystroke	f	n/a
165.8285	0.075	331657	keystroke	e	n/a
166.6385	0.075	333277	keystroke	r	n/a
166.7885	0.105	333577	keystroke	r	n/a
167.0135	0.075	334027	keystroke	e	n/a
167.2235	0.06	334447	keystroke	d	n/a
167.3285	0.1195	334657	keystroke	Key.space	n/a
167.493	0.15	334986	keystroke	h	n/a
167.598	0.15	335196	keystroke	i	n/a
167.673	0.135	335346	keystroke	s	n/a
168.0335	0.075	336067	keystroke	Key.enter	n/a
168.112	6.7325	336224	prompt	n/a	wood contracting work adobe\n
168.723	0.15	337446	keystroke	w	n/a
168.858	0.075	337716	keystroke	o	n/a
168.993	0.135	337986	keystroke	o	n/a
169.173	0.135	338346	keystroke	d	n/a
169.308	0.1505	338616	keystroke	Key.space	n/a
169.7735	0.045	339547	keystroke	c	n/a
169.8335	0.18	339667	keystroke	o	n/a
169.9535	0.12	339907	keystroke	n	n/a
170.0285	0.09	340057	keystroke	t	n/a
170.1785	0.015	340357	keystroke	t	n/a
170.7035	0.09	341407	keystroke	Key.backspace	n/a
170.7635	0.09	341527	keystroke	r	n/a
171.0185	0.09	342037	keystroke	a	n/a
171.513	0.09	343026	keystroke	t	n/a
171.9925	0.12	343985	keystroke	Key.backspace	n/a
172.1275	0.045	344255	keystroke	c	n/a
172.3075	0.0605	344615	keystroke	t	n/a
172.398	0.1795	344796	keystroke	i	n/a
172.5025	0.135	345005	keystroke	n	n/a
172.5925	0.1205	345185	keystroke	g	n/a
172.743	0.12	345486	keystroke	Key.space	n/a
172.893	0.105	345786	keystroke	w	n/a
172.998	0.12	345996	keystroke	o	n/a
173.1325	0.12	346265	keystroke	r	n/a
173.2675	0.165	346535	keystroke	k	n/a
173.388	0.1495	346776	keystroke	Key.space	n/a
173.6875	0.0905	347375	keystroke	a	n/a
173.943	0.06	347886	keystroke	d	n/a
174.033	0.2395	348066	keystroke	o	n/a
174.2575	0.135	348515	keystroke	b	n/a
174.3775	0.136	348755	keystroke	e	n/a
174.738	0.1055	349476	keystroke	Key.enter	n/a
174.8475	7.482	349695	prompt	n/a	became expected cooper kings\n
175.503	0.105	351006	keystroke	b	n/a
175.593	0.09	351186	keystroke	e	n/a
175.833	0.045	351666	keystroke	c	n/a
176.043	0.1205	352086	keystroke	a	n/a
176.1935	0.1345	352387	keystroke	m	n/a
176.313	0.12	352626	keystroke	e	n/a
176.448	0.105	352896	keystroke	Key.space	n/a
176.583	0.105	353166	keystroke	e	n/a
176.853	0.045	353706	keystroke	x	n/a
176.943	0.135	353886	keystroke	p	n/a
177.079	0.089	354158	keystroke	e	n/a
177.318	0.045	354636	keystroke	c	n/a
177.528	0.06	355056	keystroke	t	n/a
177.738	0.015	355476	keystroke	3	n/a
178.203	0.105	356406	keystroke	Key.backspace	n/a
178.323	0.075	356646	keystroke	e	n/a
178.473	0.135	356946	keystroke	d	n/a
178.608	0.135	357216	keystroke	Key.space	n/a
179.628	0.0905	359256	keystroke	s	n/a
179.8985	0.1195	359797	keystroke	Key.backspace	n/a
180.078	0.0155	360156	keystroke	c	n/a
180.153	0.075	360306	keystroke	o	n/a
180.288	0.135	360576	keystroke	o	n/a
180.483	0.12	360966	keystroke	p	n/a
180.738	0.105	361476	keystroke	e	n/a
180.933	0.09	361866	keystroke	r	n/a
181.068	0.09	362136	keystroke	Key.space	n/a
181.233	0.105	362466	keystroke	k	n/a
181.443	0.105	362886	keystroke	i	n/a
181.518	0.15	363036	keystroke	n	n/a
181.728	0.09	363456	keystroke	g	n/a
181.983	0.09	363966	keystroke	s	n/a
182.253	0.075	364506	keystroke	Key.enter	n/a
182.333	8.8015	364666	prompt	n/a	secrets expressions opens studies\n
183.093	0.0305	366186	keystroke	s	n/a
183.258	0.075	366516	keystroke	e	n/a
183.513	0.045	367026	keystroke	c	n/a
183.7225	0.046	367445	keystroke	r	n/a
183.8725	0.06	367745	keystroke	e	n/a
184.0525	0.076	368105	keystroke	t	n/a
184.188	0.075	368376	keystroke	s	n/a
184.323	0.1205	368646	keystroke	Key.space	n/a
184.5185	0.06	369037	keystroke	e	n/a
184.8185	0.015	369637	keystroke	c	n/a
185.0435	0.12	370087	keystroke	p	n/a
185.3885	0.225	370777	keystroke	Key.backspace	n/a
185.6135	0.105	371227	keystroke	c	n/a
185.8835	0.0595	371767	keystroke	Key.backspace	n/a
186.033	0.0755	372066	keystroke	Key.backspace	n/a
186.1835	0.12	372367	keystroke	c	n/a
186.678	0.105	373356	keystroke	Key.backspace	n/a
186.798	0.105	373596	keystroke	x	n/a
187.383	0.1045	374766	keystroke	p	n/a
187.5025	0.09	375005	keystroke	r	n/a
187.6825	0.105	375365	keystroke	e	n/a
187.9225	0.06	375845	keystroke	s	n/a
188.0575	0.136	376115	keystroke	s	n/a
188.2085	0.165	376417	keystroke	i	n/a
188.3435	0.2695	376687	keystroke	o	n/a
188.553	0.21	377106	keystroke	n	n/a
188.673	0.15	377346	keystroke	s	n/a
188.853	0.195	377706	keystroke	Key.space	n/a
189.018	0.18	378036	keystroke	o	n/a
189.153	0.165	378306	keystroke	p	n/a
189.273	0.21	378546	keystroke	e	n/a
189.423	0.166	378846	keystroke	n	n/a
189.558	0.195	379116	keystroke	Key.space	n/a
189.738	0.1195	379476	keystroke	s	n/a
190.038	0.06	380076	keystroke	t	n/a
190.143	0.1045	380286	keystroke	u	n/a
190.2775	0.075	380555	keystroke	d	n/a
190.4125	0.12	380825	keystroke	i	n/a
190.5775	0.0905	381155	keystroke	e	n/a
190.8775	0.075	381755	keystroke	s	n/a
191.058	0.075	382116	keystroke	Key.enter	n/a
191.138	10.4515	382276	prompt	n/a	grades constitutional semiconductor graduates\n
192.003	0.12	384006	keystroke	g	n/a
192.108	0.075	384216	keystroke	r	n/a
192.363	0.09	384726	keystroke	a	n/a
192.5885	0.06	385177	keystroke	d	n/a
192.7835	0.06	385567	keystroke	e	n/a
192.9785	0.12	385957	keystroke	s	n/a
193.0685	0.135	386137	keystroke	Key.space	n/a
193.2785	0.075	386557	keystroke	c	n/a
193.3685	0.164	386737	keystroke	o	n/a
193.503	0.18	387006	keystroke	n	n/a
193.668	0.105	387336	keystroke	t	n/a
194.103	0.12	388206	keystroke	Key.backspace	n/a
194.208	0.091	388416	keystroke	s	n/a
194.433	0.075	388866	keystroke	t	n/a
194.538	0.105	389076	keystroke	i	n/a
194.673	0.12	389346	keystroke	t	n/a
194.778	0.105	389556	keystroke	u	n/a
195.3025	0.12	390605	keystroke	t	n/a
195.438	0.18	390876	keystroke	i	n/a
195.573	0.18	391146	keystroke	o	n/a
195.798	0.165	391596	keystroke	n	n/a
196.008	0.12	392016	keystroke	a	n/a
196.143	0.165	392286	keystroke	l	n/a
196.278	0.1505	392556	keystroke	Key.space	n/a
196.6985	0.104	393397	keystroke	s	n/a
197.0435	0.015	394087	keystroke	e	n/a
197.103	0.1355	394206	keystroke	m	n/a
197.2085	0.165	394417	keystroke	i	n/a
197.6275	0.091	395255	keystroke	c	n/a
197.6735	0.21	395347	keystroke	o	n/a
197.8235	0.105	395647	keystroke	n	n/a
197.9725	0.09	395945	keystroke	d	n/a
198.0775	0.12	396155	keystroke	u	n/a
198.2275	0.09	396455	keystroke	c	n/a
198.5135	0.06	397027	keystroke	t	n/a
198.813	0.1355	397626	keystroke	o	n/a
198.9635	0.0745	397927	keystroke	r	n/a
199.293	0.1055	398586	keystroke	Key.space	n/a
199.9085	0.15	399817	keystroke	g	n/a
199.9985	0.105	399997	keystroke	r	n/a
200.2385	0.105	400477	keystroke	a	n/a
200.4485	0.075	400897	keystroke	d	n/a
200.5385	0.09	401077	keystroke	u	n/a
200.6585	0.09	401317	keystroke	a	n/a
200.9135	0.075	401827	keystroke	t	n/a
201.1235	0.06	402247	keystroke	e	n/a
201.3635	0.045	402727	keystroke	s	n/a
201.528	0.06	403056	keystroke	Key.enter	n/a
201.5925	8.9225	403185	prompt	n/a	priority might wrapping baghdad\n
202.248	0.06	404496	keystroke	p	n/a
202.323	0.105	404646	keystroke	r	n/a
202.503	0.195	405006	keystroke	i	n/a
202.638	0.12	405276	keystroke	o	n/a
202.758	0.15	405516	keystroke	r	n/a
202.893	0.15	405786	keystroke	i	n/a
203.028	0.06	406056	keystroke	r	n/a
203.523	0.09	407046	keystroke	Key.backspace	n/a
203.598	0.075	407196	keystroke	t	n/a
203.853	0.015	407706	keystroke	y	n/a
203.883	0.12	407766	keystroke	Key.space	n/a
204.978	0.18	409956	keystroke	m	n/a
205.113	0.18	410226	keystroke	i	n/a
205.248	0.09	410496	keystroke	g	n/a
205.4435	0.09	410887	keystroke	h	n/a
205.5335	0.09	411067	keystroke	t	n/a
205.6385	0.135	411277	keystroke	Key.space	n/a
206.373	0.075	412746	keystroke	w	n/a
206.583	0.03	413166	keystroke	a	n/a
206.868	0.105	413736	keystroke	Key.backspace	n/a
206.958	0.075	413916	keystroke	r	n/a
207.258	0.075	414516	keystroke	p	n/a
207.6625	0.091	415325	keystroke	Key.backspace	n/a
207.7385	0.12	415477	keystroke	a	n/a
207.9035	0.074	415807	keystroke	p	n/a
208.098	0.09	416196	keystroke	p	n/a
208.293	0.135	416586	keystroke	i	n/a
208.368	0.15	416736	keystroke	n	n/a
208.473	0.12	416946	keystroke	g	n/a
208.638	0.12	417276	keystroke	Key.space	n/a
208.9235	0.12	417847	keystroke	b	n/a
209.1485	0.105	418297	keystroke	a	n/a
209.4485	0.09	418897	keystroke	g	n/a
209.6285	0.12	419257	keystroke	h	n/a
209.8235	0.105	419647	keystroke	d	n/a
210.0485	0.09	420097	keystroke	a	n/a
210.258	0.075	420516	keystroke	d	n/a
210.438	0.075	420876	keystroke	Key.enter	n/a
210.518	5.547	421036	prompt	n/a	usual collins cute guns\n
211.308	0.09	422616	keystroke	u	n/a
211.413	0.121	422826	keystroke	s	n/a
211.503	0.105	423006	keystroke	u	n/a
211.653	0.18	423306	keystroke	a	n/a
211.818	0.165	423636	keystroke	l	n/a
211.953	0.12	423906	keystroke	Key.space	n/a
212.1035	0.12	424207	keystroke	c	n/a
212.2085	0.09	424417	keystroke	o	n/a
212.4035	0.06	424807	keystroke	l	n/a
212.5685	0.105	425137	keystroke	l	n/a
212.6435	0.24	425287	keystroke	i	n/a
212.8235	0.15	425647	keystroke	n	n/a
212.9435	0.21	425887	keystroke	s	n/a
213.1085	0.12	426217	keystroke	Key.space	n/a
213.2735	0.12	426547	keystroke	s	n/a
213.603	0.075	427206	keystroke	Key.backspace	n/a
213.708	0.06	427416	keystroke	c	n/a
213.8285	0.12	427657	keystroke	u	n/a
213.978	0.0755	427956	keystroke	t	n/a
214.233	0.1205	428466	keystroke	e	n/a
214.3835	0.12	428767	keystroke	Key.space	n/a
215.118	0.135	430236	keystroke	g	n/a
215.268	0.18	430536	keystroke	u	n/a
215.283	0.225	430566	keystroke	n	n/a
215.598	0.105	431196	keystroke	s	n/a
215.973	0.09	431946	keystroke	Key.enter	n/a
216.068	7.152	432136	prompt	n/a	blessed water parental courtesy\n
216.7385	0.105	433477	keystroke	b	n/a
216.9185	0.1795	433837	keystroke	l	n/a
217.083	0.075	434166	keystroke	e	n/a
217.308	0.06	434616	keystroke	s	n/a
217.443	0.09	434886	keystroke	s	n/a
217.668	0.06	435336	keystroke	e	n/a
217.833	0.0905	435666	keystroke	d	n/a
217.9385	0.105	435877	keystroke	Key.space	n/a
218.0885	0.105	436177	keystroke	w	n/a
218.2985	0.09	436597	keystroke	a	n/a
218.5985	0.075	437197	keystroke	t	n/a
218.808	0.09	437616	keystroke	e	n/a
218.988	0.09	437976	keystroke	r	n/a
219.108	0.135	438216	keystroke	Key.space	n/a
219.348	0.15	438696	keystroke	p	n/a
219.678	0.1205	439356	keystroke	a	n/a
219.9635	0.06	439927	keystroke	r	n/a
220.1435	0.075	440287	keystroke	e	n/a
220.2635	0.135	440527	keystroke	n	n/a
220.3685	0.075	440737	keystroke	t	n/a
220.6685	0.24	441337	keystroke	a	n/a
220.8185	0.18	441637	keystroke	l	n/a
220.9675	0.121	441935	keystroke	Key.space	n/a
221.3285	0.075	442657	keystroke	c	n/a
221.4185	0.1505	442837	keystroke	o	n/a
221.539	0.149	443078	keystroke	u	n/a
221.674	0.074	443348	keystroke	r	n/a
221.839	0.09	443678	keystroke	t	n/a
222.078	0.076	444156	keystroke	e	n/a
222.288	0.121	444576	keystroke	s	n/a
222.394	0.089	444788	keystroke	y	n/a
223.1285	0.09	446257	keystroke	Key.enter	n/a
223.223	9.252	446446	prompt	n/a	adaptive official levitra mozambique\n
223.9085	0.075	447817	keystroke	a	n/a
224.1325	0.061	448265	keystroke	d	n/a
224.613	0.165	449226	keystroke	a	n/a
224.793	0.135	449586	keystroke	p	n/a
224.943	0.1355	449886	keystroke	t	n/a
225.0935	0.165	450187	keystroke	i	n/a
225.1985	0.105	450397	keystroke	v	n/a
225.4685	0.15	450937	keystroke	e	n/a
225.5585	0.135	451117	keystroke	Key.space	n/a
226.1885	0.12	452377	keystroke	o	n/a
226.383	0.045	452766	keystroke	f	n/a
226.503	0.105	453006	keystroke	f	n/a
226.638	0.1505	453276	keystroke	i	n/a
226.8035	0.105	453607	keystroke	c	n/a
226.9685	0.105	453937	keystroke	i	n/a
227.1335	0.18	454267	keystroke	a	n/a
227.2985	0.165	454597	keystroke	l	n/a
227.4035	0.1345	454807	keystroke	Key.space	n/a
227.6435	0.105	455287	keystroke	l	n/a
227.7775	0.151	455555	keystroke	e	n/a
228.0635	0.105	456127	keystroke	v	n/a
228.1835	0.135	456367	keystroke	i	n/a
228.3035	0.075	456607	keystroke	t	n/a
228.4835	0.105	456967	keystroke	r	n/a
228.7685	0.135	457537	keystroke	a	n/a
228.8885	0.15	457777	keystroke	Key.space	n/a
229.0985	0.15	458197	keystroke	m	n/a
229.2035	0.2105	458407	keystroke	o	n/a
230.283	0.06	460566	keystroke	z	n/a
230.508	0.105	461016	keystroke	a	n/a
230.658	0.135	461316	keystroke	m	n/a
230.9435	0.135	461887	keystroke	b	n/a
231.1685	0.135	462337	keystroke	i	n/a
231.4235	0.1045	462847	keystroke	q	n/a
231.573	0.09	463146	keystroke	u	n/a
231.678	0.12	463356	keystroke	e	n/a
232.323	0.15	464646	keystroke	Key.enter	n/a
232.4775	8.1875	464955	prompt	n/a	chambers soldier pastor leisure\n
233.283	0.105	466566	keystroke	c	n/a
233.403	0.105	466806	keystroke	h	n/a
233.568	0.12	467136	keystroke	a	n/a
233.673	0.09	467346	keystroke	m	n/a
233.883	0.135	467766	keystroke	b	n/a
233.958	0.075	467916	keystroke	e	n/a
234.123	0.09	468246	keystroke	r	n/a
234.363	0.105	468726	keystroke	s	n/a
234.513	0.09	469026	keystroke	Key.space	n/a
234.573	0.165	469146	keystroke	s	n/a
234.723	0.12	469446	keystroke	o	n/a
234.918	0.18	469836	keystroke	l	n/a
235.053	0.12	470106	keystroke	d	n/a
235.203	0.15	470406	keystroke	i	n/a
235.338	0.06	470676	keystroke	e	n/a
235.608	0.12	471216	keystroke	Key.space	n/a
235.743	0.075	471486	keystroke	r	n/a
236.058	0.045	472116	keystroke	Key.backspace	n/a
236.193	0.09	472386	keystroke	Key.backspace	n/a
236.253	0.135	472506	keystroke	r	n/a
236.373	0.135	472746	keystroke	Key.space	n/a
236.538	0.165	473076	keystroke	p	n/a
236.658	0.1205	473316	keystroke	a	n/a
236.8685	0.12	473737	keystroke	s	n/a
237.1385	0.09	474277	keystroke	r	n/a
237.3785	0.075	474757	keystroke	o	n/a
237.693	0.06	475386	keystroke	Key.backspace	n/a
237.7985	0.1045	475597	keystroke	Key.backspace	n/a
237.933	0.12	475866	keystroke	t	n/a
238.098	0.12	476196	keystroke	o	n/a
238.248	0.12	476496	keystroke	r	n/a
238.473	0.165	476946	keystroke	Key.space	n/a
239.328	0.1805	478656	keystroke	l	n/a
239.4785	0.135	478957	keystroke	e	n/a
239.5985	0.12	479197	keystroke	i	n/a
239.7785	0.105	479557	keystroke	s	n/a
240.0035	0.09	480007	keystroke	u	n/a
240.1235	0.075	480247	keystroke	r	n/a
240.3035	0.15	480607	keystroke	e	n/a
240.6035	0.06	481207	keystroke	Key.enter	n/a
240.67	7.585	481340	prompt	n/a	batteries infections using thompson\n
241.4285	0.135	482857	keystroke	b	n/a
241.5485	0.135	483097	keystroke	a	n/a
241.8635	0.06	483727	keystroke	t	n/a
241.9685	0.09	483937	keystroke	t	n/a
242.2235	0.075	484447	keystroke	e	n/a
242.4035	0.09	484807	keystroke	r	n/a
242.5835	0.165	485167	keystroke	i	n/a
242.7335	0.105	485467	keystroke	e	n/a
243.019	0.105	486038	keystroke	s	n/a
243.139	0.135	486278	keystroke	Key.space	n/a
243.664	0.18	487328	keystroke	i	n/a
243.754	0.179	487508	keystroke	n	n/a
244.024	0.075	488048	keystroke	f	n/a
244.204	0.1045	488408	keystroke	e	n/a
244.4435	0.045	488887	keystroke	c	n/a
244.6685	0.06	489337	keystroke	t	n/a
244.7585	0.18	489517	keystroke	i	n/a
244.8935	0.195	489787	keystroke	o	n/a
245.0435	0.21	490087	keystroke	n	n/a
245.2235	0.135	490447	keystroke	s	n/a
245.4035	0.09	490807	keystroke	Key.space	n/a
245.5685	0.105	491137	keystroke	u	n/a
245.7185	0.12	491437	keystroke	s	n/a
245.8685	0.225	491737	keystroke	i	n/a
245.9885	0.24	491977	keystroke	n	n/a
246.1385	0.15	492277	keystroke	g	n/a
246.3185	0.195	492637	keystroke	Key.space	n/a
246.5435	0.105	493087	keystroke	t	n/a
246.6635	0.12	493327	keystroke	h	n/a
247.0085	0.15	494017	keystroke	o	n/a
247.2335	0.12	494467	keystroke	m	n/a
247.4285	0.1345	494857	keystroke	p	n/a
247.548	0.165	495096	keystroke	s	n/a
247.728	0.195	495456	keystroke	o	n/a
247.848	0.135	495696	keystroke	n	n/a
248.163	0.09	496326	keystroke	Key.enter	n/a
248.2585	5.2765	496517	prompt	n/a	scotia debt rico bugs\n
248.988	0.105	497976	keystroke	s	n/a
249.228	0.09	498456	keystroke	c	n/a
249.319	0.1345	498638	keystroke	o	n/a
249.4835	0.075	498967	keystroke	t	n/a
249.6185	0.135	499237	keystroke	i	n/a
249.7985	0.15	499597	keystroke	a	n/a
249.9335	0.12	499867	keystroke	Key.space	n/a
250.5035	0.06	501007	keystroke	d	n/a
250.669	0.105	501338	keystroke	e	n/a
250.849	0.0895	501698	keystroke	b	n/a
250.9535	0.15	501907	keystroke	t	n/a
251.1185	0.1055	502237	keystroke	Key.space	n/a
251.4785	0.09	502957	keystroke	r	n/a
251.6285	0.135	503257	keystroke	i	n/a
251.7785	0.15	503557	keystroke	c	n/a
251.9735	0.18	503947	keystroke	o	n/a
252.1085	0.195	504217	keystroke	Key.space	n/a
252.3185	0.18	504637	keystroke	b	n/a
252.4385	0.165	504877	keystroke	u	n/a
252.9935	0.135	505987	keystroke	g	n/a
253.1435	0.195	506287	keystroke	s	n/a
253.3985	0.1345	506797	keystroke	Key.enter	n/a
253.5385	8.3965	507077	prompt	n/a	alerts collective requirements rack\n
254.313	0.135	508626	keystroke	a	n/a
254.433	0.15	508866	keystroke	l	n/a
254.598	0.09	509196	keystroke	e	n/a
254.763	0.12	509526	keystroke	r	n/a
254.988	0.105	509976	keystroke	t	n/a
255.288	0.15	510576	keystroke	s	n/a
255.408	0.106	510816	keystroke	Key.space	n/a
255.6035	0.075	511207	keystroke	c	n/a
255.7235	0.105	511447	keystroke	o	n/a
255.904	0.09	511808	keystroke	l	n/a
256.0685	0.105	512137	keystroke	l	n/a
256.1585	0.075	512317	keystroke	e	n/a
256.3685	0.075	512737	keystroke	c	n/a
256.5785	0.06	513157	keystroke	t	n/a
256.699	0.135	513398	keystroke	i	n/a
256.819	0.075	513638	keystroke	v	n/a
257.239	0.075	514478	keystroke	Key.space	n/a
257.329	0.105	514658	keystroke	e	n/a
257.704	0.045	515408	keystroke	Key.backspace	n/a
257.839	0.09	515678	keystroke	Key.backspace	n/a
257.944	0.12	515888	keystroke	e	n/a
258.034	0.135	516068	keystroke	Key.space	n/a
258.529	0.09	517058	keystroke	r	n/a
258.799	0.015	517598	keystroke	e	n/a
258.9935	0.105	517987	keystroke	q	n/a
259.1285	0.165	518257	keystroke	u	n/a
259.2635	0.135	518527	keystroke	i	n/a
259.684	0.06	519368	keystroke	r	n/a
259.864	0.12	519728	keystroke	e	n/a
259.999	0.12	519998	keystroke	m	n/a
260.119	0.105	520238	keystroke	e	n/a
260.239	0.15	520478	keystroke	n	n/a
260.374	0.09	520748	keystroke	t	n/a
260.6735	0.105	521347	keystroke	s	n/a
260.7635	0.12	521527	keystroke	Key.space	n/a
260.9285	0.105	521857	keystroke	r	n/a
261.1985	0.075	522397	keystroke	a	n/a
261.4235	0.0445	522847	keystroke	c	n/a
261.528	0.12	523056	keystroke	k	n/a
261.843	0.09	523686	keystroke	Key.enter	n/a
261.9385	7.3615	523877	prompt	n/a	referenced portable mailed usually\n
262.668	0.06	525336	keystroke	r	n/a
262.863	0.09	525726	keystroke	e	n/a
263.103	0.045	526206	keystroke	f	n/a
263.268	0.075	526536	keystroke	e	n/a
263.448	0.06	526896	keystroke	r	n/a
263.598	0.09	527196	keystroke	e	n/a
263.718	0.105	527436	keystroke	n	n/a
263.8535	0.06	527707	keystroke	c	n/a
264.049	0.06	528098	keystroke	e	n/a
264.229	0.105	528458	keystroke	d	n/a
264.319	0.12	528638	keystroke	Key.space	n/a
264.769	0.149	529538	keystroke	p	n/a
264.903	0.15	529806	keystroke	o	n/a
265.098	0.0905	530196	keystroke	r	n/a
265.2485	0.135	530497	keystroke	t	n/a
265.5635	0.105	531127	keystroke	a	n/a
265.6835	0.195	531367	keystroke	b	n/a
265.8485	0.21	531697	keystroke	l	n/a
265.9835	0.195	531967	keystroke	e	n/a
266.1635	0.105	532327	keystroke	Key.space	n/a
266.8085	0.12	533617	keystroke	m	n/a
266.913	0.1505	533826	keystroke	a	n/a
267.078	0.1655	534156	keystroke	i	n/a
267.198	0.255	534396	keystroke	l	n/a
267.363	0.105	534726	keystroke	e	n/a
267.5885	0.12	535177	keystroke	d	n/a
267.7235	0.105	535447	keystroke	Key.space	n/a
268.0385	0.09	536077	keystroke	u	n/a
268.1585	0.135	536317	keystroke	s	n/a
268.2785	0.09	536557	keystroke	u	n/a
268.4585	0.045	536917	keystroke	a	n/a
268.5485	0.06	537097	keystroke	l	n/a
268.6985	0.12	537397	keystroke	l	n/a
268.8335	0.09	537667	keystroke	y	n/a
269.1785	0.12	538357	keystroke	Key.enter	n/a
269.303	6.717	538606	prompt	n/a	cards expenses stamps treatment\n
269.944	0.09	539888	keystroke	c	n/a
270.184	0.09	540368	keystroke	a	n/a
270.409	0.075	540818	keystroke	r	n/a
270.5885	0.06	541177	keystroke	d	n/a
270.7835	0.105	541567	keystroke	s	n/a
270.9335	0.105	541867	keystroke	Key.space	n/a
271.0835	0.075	542167	keystroke	e	n/a
271.3235	0.105	542647	keystroke	x	n/a
271.444	0.1495	542888	keystroke	p	n/a
271.6085	0.075	543217	keystroke	e	n/a
271.8785	0.165	543757	keystroke	n	n/a
272.1935	0.0755	544387	keystroke	s	n/a
272.359	0.12	544718	keystroke	e	n/a
272.599	0.075	545198	keystroke	s	n/a
272.719	0.119	545438	keystroke	Key.space	n/a
272.839	0.1045	545678	keystroke	s	n/a
273.1085	0.03	546217	keystroke	t	n/a
273.3185	0.105	546637	keystroke	a	n/a
273.4385	0.195	546877	keystroke	m	n/a
273.5885	0.15	547177	keystroke	p	n/a
273.6935	0.135	547387	keystroke	s	n/a
273.8435	0.12	547687	keystroke	Key.space	n/a
274.159	0.09	548318	keystroke	t	n/a
274.369	0.06	548738	keystroke	r	n/a
274.564	0.075	549128	keystroke	e	n/a
274.7885	0.075	549577	keystroke	a	n/a
275.0435	0.045	550087	keystroke	t	n/a
275.1935	0.12	550387	keystroke	m	n/a
275.3435	0.09	550687	keystroke	e	n/a
275.4185	0.105	550837	keystroke	n	n/a
275.5685	0.075	551137	keystroke	t	n/a
275.9135	0.105	551827	keystroke	Key.enter	n/a
276.023	8.1725	552046	prompt	n/a	surprising governments accurate targeted\n
276.8135	0.105	553627	keystroke	s	n/a
276.9335	0.105	553867	keystroke	u	n/a
277.099	0.075	554198	keystroke	r	n/a
277.234	0.135	554468	keystroke	p	n/a
277.384	0.105	554768	keystroke	r	n/a
277.519	0.12	555038	keystroke	i	n/a
277.774	0.12	555548	keystroke	s	n/a
277.984	0.24	555968	keystroke	i	n/a
278.1335	0.1805	556267	keystroke	n	n/a
278.239	0.134	556478	keystroke	g	n/a
278.343	0.1355	556686	keystroke	Key.space	n/a
279.169	0.09	558338	keystroke	g	n/a
279.244	0.12	558488	keystroke	o	n/a
279.349	0.075	558698	keystroke	v	n/a
279.574	0.06	559148	keystroke	e	n/a
279.709	0.105	559418	keystroke	r	n/a
279.829	0.075	559658	keystroke	n	n/a
280.024	0.12	560048	keystroke	m	n/a
280.129	0.09	560258	keystroke	e	n/a
280.264	0.105	560528	keystroke	n	n/a
280.369	0.075	560738	keystroke	t	n/a
280.609	0.135	561218	keystroke	s	n/a
280.759	0.105	561518	keystroke	Key.space	n/a
280.894	0.075	561788	keystroke	a	n/a
281.1335	0.045	562267	keystroke	c	n/a
281.2535	0.075	562507	keystroke	c	n/a
281.449	0.09	562898	keystroke	u	n/a
281.569	0.045	563138	keystroke	r	n/a
281.794	0.06	563588	keystroke	a	n/a
282.049	0.06	564098	keystroke	t	n/a
282.259	0.06	564518	keystroke	e	n/a
282.364	0.105	564728	keystroke	Key.space	n/a
282.619	0.075	565238	keystroke	t	n/a
282.859	0.075	565718	keystroke	a	n/a
283.069	0.06	566138	keystroke	r	n/a
283.159	0.12	566318	keystroke	g	n/a
283.309	0.06	566618	keystroke	e	n/a
283.504	0.09	567008	keystroke	t	n/a
283.699	0.075	567398	keystroke	e	n/a
283.894	0.045	567788	keystroke	d	n/a
284.104	0.09	568208	keystroke	Key.enter	n/a
284.1995	7.166	568399	prompt	n/a	effort performs drain amenities\n
284.824	0.06	569648	keystroke	e	n/a
285.064	0.03	570128	keystroke	f	n/a
285.184	0.09	570368	keystroke	f	n/a
285.334	0.104	570668	keystroke	o	n/a
285.454	0.075	570908	keystroke	r	n/a
285.604	0.135	571208	keystroke	t	n/a
285.723	0.151	571446	keystroke	Key.space	n/a
285.9935	0.12	571987	keystroke	p	n/a
286.0835	0.09	572167	keystroke	e	n/a
286.2635	0.06	572527	keystroke	r	n/a
286.4435	0.06	572887	keystroke	f	n/a
286.5185	0.1205	573037	keystroke	o	n/a
286.639	0.09	573278	keystroke	r	n/a
286.788	0.135	573576	keystroke	m	n/a
286.938	0.151	573876	keystroke	s	n/a
287.104	0.105	574208	keystroke	Key.space	n/a
287.5385	0.06	575077	keystroke	d	n/a
287.6885	0.0745	575377	keystroke	r	n/a
287.944	0.135	575888	keystroke	a	n/a
288.034	0.24	576068	keystroke	i	n/a
288.169	0.18	576338	keystroke	n	n/a
288.289	0.15	576578	keystroke	Key.space	n/a
288.469	0.12	576938	keystroke	a	n/a
288.604	0.135	577208	keystroke	m	n/a
288.754	0.135	577508	keystroke	e	n/a
288.904	0.165	577808	keystroke	n	n/a
289.039	0.15	578078	keystroke	i	n/a
289.159	0.09	578318	keystroke	t	n/a
289.294	0.135	578588	keystroke	i	n/a
290.1335	0.09	580267	keystroke	r	n/a
290.4935	0.105	580987	keystroke	Key.backspace	n/a
290.5685	0.075	581137	keystroke	e	n/a
290.749	0.105	581498	keystroke	s	n/a
291.2135	0.15	582427	keystroke	Key.enter	n/a
291.369	5.741	582738	prompt	n/a	careful torture katie polo\n
292.0985	0.075	584197	keystroke	c	n/a
292.3085	0.12	584617	keystroke	a	n/a
292.5335	0.075	585067	keystroke	r	n/a
292.6835	0.09	585367	keystroke	e	n/a
292.894	0.09	585788	keystroke	f	n/a
292.969	0.09	585938	keystroke	u	n/a
293.164	0.18	586328	keystroke	l	n/a
293.283	0.136	586566	keystroke	Key.space	n/a
293.5685	0.105	587137	keystroke	t	n/a
293.6885	0.135	587377	keystroke	o	n/a
293.8085	0.105	587617	keystroke	r	n/a
294.0035	0.09	588007	keystroke	t	n/a
294.124	0.09	588248	keystroke	u	n/a
294.258	0.075	588516	keystroke	r	n/a
294.484	0.09	588968	keystroke	e	n/a
294.603	0.106	589206	keystroke	Key.space	n/a
295.158	0.12	590316	keystroke	k	n/a
295.2935	0.075	590587	keystroke	a	n/a
295.5785	0.09	591157	keystroke	t	n/a
295.6985	0.1055	591397	keystroke	i	n/a
295.819	0.1345	591638	keystroke	e	n/a
295.9685	0.105	591937	keystroke	Key.space	n/a
296.1645	0.149	592329	keystroke	p	n/a
296.2835	0.15	592567	keystroke	o	n/a
296.5385	0.135	593077	keystroke	l	n/a
296.7485	0.12	593497	keystroke	o	n/a
297.0035	0.105	594007	keystroke	Key.enter	n/a
297.1145	8.8155	594229	prompt	n/a	listening westminster answering skill\n
297.904	0.165	595808	keystroke	l	n/a
298.024	0.1795	596048	keystroke	i	n/a
298.1585	0.09	596317	keystroke	s	n/a
298.4135	0.06	596827	keystroke	t	n/a
298.6085	0.0605	597217	keystroke	e	n/a
298.684	0.165	597368	keystroke	n	n/a
298.819	0.27	597638	keystroke	i	n/a
298.954	0.15	597908	keystroke	n	n/a
299.059	0.12	598118	keystroke	g	n/a
299.194	0.12	598388	keystroke	Key.space	n/a
299.884	0.09	599768	keystroke	w	n/a
300.064	0.06	600128	keystroke	e	n/a
300.259	0.09	600518	keystroke	s	n/a
300.514	0.06	601028	keystroke	t	n/a
300.604	0.15	601208	keystroke	m	n/a
300.829	0.1645	601658	keystroke	i	n/a
301.0685	0.15	602137	keystroke	n	n/a
301.2335	0.105	602467	keystroke	s	n/a
301.504	0.075	603008	keystroke	t	n/a
301.729	0.075	603458	keystroke	e	n/a
301.894	0.105	603788	keystroke	r	n/a
302.029	0.12	604058	keystroke	Key.space	n/a
302.2385	0.09	604477	keystroke	a	n/a
302.3585	0.105	604717	keystroke	n	n/a
302.4935	0.045	604987	keystroke	s	n/a
302.7335	0.03	605467	keystroke	w	n/a
303.139	0.105	606278	keystroke	e	n/a
303.349	0.105	606698	keystroke	r	n/a
303.514	0.21	607028	keystroke	i	n/a
303.634	0.135	607268	keystroke	n	n/a
303.709	0.105	607418	keystroke	g	n/a
303.889	0.075	607778	keystroke	Key.space	n/a
304.2485	0.1055	608497	keystroke	k	n/a
304.5935	0.06	609187	keystroke	Key.backspace	n/a
304.6685	0.09	609337	keystroke	s	n/a
304.8635	0.105	609727	keystroke	k	n/a
305.0885	0.075	610177	keystroke	i	n/a
305.2985	0.075	610597	keystroke	l	n/a
305.4485	0.06	610897	keystroke	l	n/a
305.839	0.09	611678	keystroke	Key.enter	n/a
305.9335	6.766	611867	prompt	n/a	changes polo projected hadn't\n
306.6335	0.075	613267	keystroke	c	n/a
306.7385	0.12	613477	keystroke	h	n/a
306.8735	0.135	613747	keystroke	a	n/a
306.9935	0.09	613987	keystroke	n	n/a
307.189	0.12	614378	keystroke	g	n/a
307.279	0.075	614558	keystroke	e	n/a
307.489	0.105	614978	keystroke	s	n/a
307.653	0.165	615306	keystroke	Key.space	n/a
307.894	0.164	615788	keystroke	p	n/a
308.028	0.1505	616056	keystroke	o	n/a
308.2835	0.165	616567	keystroke	l	n/a
308.4335	0.225	616867	keystroke	o	n/a
308.6285	0.135	617257	keystroke	Key.space	n/a
308.8985	0.12	617797	keystroke	p	n/a
309.0485	0.12	618097	keystroke	r	n/a
309.1385	0.12	618277	keystroke	o	n/a
309.3485	0.135	618697	keystroke	j	n/a
309.4685	0.075	618937	keystroke	e	n/a
309.7085	0.0455	619417	keystroke	c	n/a
309.919	0.06	619838	keystroke	t	n/a
310.114	0.075	620228	keystroke	e	n/a
310.3085	0.075	620617	keystroke	d	n/a
310.3985	0.135	620797	keystroke	Key.space	n/a
311.0135	0.0905	622027	keystroke	h	n/a
311.089	0.105	622178	keystroke	a	n/a
311.299	0.1045	622598	keystroke	d	n/a
311.4035	0.1805	622807	keystroke	n	n/a
311.539	0.18	623078	keystroke	'	n/a
311.674	0.1345	623348	keystroke	t	n/a
311.8085	0.12	623617	keystroke	Key.space	n/a
312.3785	0.0905	624757	keystroke	Key.backspace	n/a
312.619	0.075	625238	keystroke	Key.enter	n/a
312.6995	10.7205	625399	prompt	n/a	involved dude anybody colon\n
313.519	0.2245	627038	keystroke	i	n/a
313.6535	0.1505	627307	keystroke	n	n/a
313.7885	0.1055	627577	keystroke	v	n/a
313.9535	0.06	627907	keystroke	o	n/a
314.1035	0.105	628207	keystroke	l	n/a
314.3735	0.075	628747	keystroke	c	n/a
314.553	0.105	629106	keystroke	e	n/a
314.778	0.09	629556	keystroke	d	n/a
314.883	0.1205	629766	keystroke	Key.space	n/a
315.7985	0.06	631597	keystroke	Key.backspace	n/a
315.9335	0.06	631867	keystroke	Key.backspace	n/a
316.0835	0.075	632167	keystroke	Key.backspace	n/a
316.2485	0.09	632497	keystroke	Key.backspace	n/a
316.4285	0.09	632857	keystroke	v	n/a
316.714	0.06	633428	keystroke	e	n/a
316.909	0.075	633818	keystroke	d	n/a
316.969	0.12	633938	keystroke	Key.space	n/a
317.134	0.1195	634268	keystroke	d	n/a
317.2385	0.105	634477	keystroke	u	n/a
317.3585	0.06	634717	keystroke	d	n/a
317.539	0.09	635078	keystroke	e	n/a
317.643	0.12	635286	keystroke	Key.space	n/a
318.1385	0.105	636277	keystroke	a	n/a
318.1835	0.135	636367	keystroke	n	n/a
318.3635	0.135	636727	keystroke	y	n/a
318.5435	0.255	637087	keystroke	b	n/a
318.7085	0.165	637417	keystroke	o	n/a
318.9185	0.135	637837	keystroke	d	n/a
319.0235	0.195	638047	keystroke	y	n/a
319.1735	0.15	638347	keystroke	Key.space	n/a
319.6685	0.09	639337	keystroke	p	n/a
319.9835	0.105	639967	keystroke	Key.backspace	n/a
320.1185	0.075	640237	keystroke	c	n/a
320.2235	0.075	640447	keystroke	i	n/a
320.3885	0.105	640777	keystroke	l	n/a
320.809	0.075	641618	keystroke	Key.backspace	n/a
320.944	0.105	641888	keystroke	Key.backspace	n/a
321.214	0.045	642428	keystroke	i	n/a
321.409	0.1045	642818	keystroke	k	n/a
321.7535	0.045	643507	keystroke	Key.backspace	n/a
321.8585	0.105	643717	keystroke	Key.backspace	n/a
322.5335	0.06	645067	keystroke	o	n/a
322.6985	0.09	645397	keystroke	l	n/a
322.8785	0.075	645757	keystroke	o	n/a
323.0735	0.105	646147	keystroke	n	n/a
323.3285	0.09	646657	keystroke	Key.enter	n/a
323.423	10.767	646846	prompt	n/a	verzeichnis teachers clinical town\n
324.5435	0.09	649087	keystroke	v	n/a
324.7985	0.075	649597	keystroke	e	n/a
324.9935	0.105	649987	keystroke	r	n/a
325.564	0.09	651128	keystroke	z	n/a
326.059	0.12	652118	keystroke	e	n/a
326.194	0.135	652388	keystroke	i	n/a
327.154	0.1045	654308	keystroke	c	n/a
327.228	0.1055	654456	keystroke	h	n/a
327.4535	0.24	654907	keystroke	n	n/a
327.6185	0.15	655237	keystroke	i	n/a
327.7535	0.12	655507	keystroke	s	n/a
327.9035	0.12	655807	keystroke	Key.space	n/a
328.1885	0.09	656377	keystroke	t	n/a
328.3985	0.09	656797	keystroke	e	n/a
328.8935	0.045	657787	keystroke	c	n/a
329.238	0.075	658476	keystroke	Key.backspace	n/a
329.329	0.075	658658	keystroke	a	n/a
329.568	0.016	659136	keystroke	f	n/a
329.688	0.075	659376	keystroke	h	n/a
330.124	0.06	660248	keystroke	Key.backspace	n/a
330.259	0.105	660518	keystroke	Key.backspace	n/a
330.979	0.09	661958	keystroke	c	n/a
331.099	0.09	662198	keystroke	h	n/a
331.234	0.09	662468	keystroke	e	n/a
331.429	0.06	662858	keystroke	r	n/a
331.6985	0.105	663397	keystroke	s	n/a
331.7735	0.105	663547	keystroke	Key.space	n/a
332.0285	0.1055	664057	keystroke	c	n/a
332.1485	0.195	664297	keystroke	l	n/a
332.2985	0.15	664597	keystroke	i	n/a
332.3735	0.195	664747	keystroke	n	n/a
332.5235	0.165	665047	keystroke	i	n/a
332.6585	0.06	665317	keystroke	c	n/a
332.914	0.15	665828	keystroke	a	n/a
333.079	0.15	666158	keystroke	l	n/a
333.184	0.105	666368	keystroke	Key.space	n/a
333.349	0.09	666698	keystroke	t	n/a
333.439	0.135	666878	keystroke	o	n/a
333.604	0.15	667208	keystroke	w	n/a
333.769	0.105	667538	keystroke	n	n/a
334.1135	0.0755	668227	keystroke	Key.enter	n/a
334.193	7.8275	668386	prompt	n/a	combine capture archives plasma\n
334.8785	0.15	669757	keystroke	c	n/a
335.0135	0.21	670027	keystroke	o	n/a
335.1485	0.135	670297	keystroke	m	n/a
335.4035	0.1055	670807	keystroke	b	n/a
335.569	0.2245	671138	keystroke	i	n/a
335.6885	0.18	671377	keystroke	n	n/a
335.8385	0.105	671677	keystroke	e	n/a
335.9735	0.135	671947	keystroke	Key.space	n/a
336.154	0.0745	672308	keystroke	c	n/a
336.3785	0.1505	672757	keystroke	a	n/a
336.544	0.135	673088	keystroke	p	n/a
336.739	0.105	673478	keystroke	t	n/a
336.889	0.105	673778	keystroke	u	n/a
337.009	0.12	674018	keystroke	r	n/a
337.174	0.18	674348	keystroke	e	n/a
337.384	0.105	674768	keystroke	Key.space	n/a
337.714	0.09	675428	keystroke	a	n/a
337.939	0.06	675878	keystroke	r	n/a
338.164	0.045	676328	keystroke	c	n/a
338.314	0.15	676628	keystroke	h	n/a
338.434	0.15	676868	keystroke	i	n/a
338.599	0.09	677198	keystroke	s	n/a
339.019	0.09	678038	keystroke	=	n/a
339.109	0.06	678218	keystroke	v	n/a
339.604	0.075	679208	keystroke	Key.backspace	n/a
339.754	0.09	679508	keystroke	Key.backspace	n/a
339.934	0.09	679868	keystroke	Key.backspace	n/a
339.994	0.12	679988	keystroke	v	n/a
340.249	0.12	680498	keystroke	e	n/a
340.489	0.15	680978	keystroke	s	n/a
340.594	0.1195	681188	keystroke	Key.space	n/a
340.8185	0.135	681637	keystroke	p	n/a
340.9545	0.224	681909	keystroke	l	n/a
341.0885	0.12	682177	keystroke	a	n/a
341.3135	0.105	682627	keystroke	s	n/a
341.4635	0.135	682927	keystroke	m	n/a
341.6435	0.09	683287	keystroke	a	n/a
341.8835	0.135	683767	keystroke	Key.enter	n/a
342.023	9.552	684046	prompt	n/a	quizzes filters cabinets offensive\n
342.889	0.134	685778	keystroke	q	n/a
343.054	0.135	686108	keystroke	u	n/a
343.143	0.1505	686286	keystroke	i	n/a
343.504	0.045	687008	keystroke	z	n/a
343.624	0.09	687248	keystroke	z	n/a
343.9085	0.045	687817	keystroke	e	n/a
344.1335	0.045	688267	keystroke	s	n/a
344.2535	0.105	688507	keystroke	Key.space	n/a
345.0035	0.075	690007	keystroke	f	n/a
345.0935	0.135	690187	keystroke	i	n/a
345.1835	0.1955	690367	keystroke	l	n/a
345.319	0.075	690638	keystroke	t	n/a
345.5135	0.105	691027	keystroke	e	n/a
345.6785	0.09	691357	keystroke	r	n/a
345.9185	0.135	691837	keystroke	s	n/a
346.0385	0.105	692077	keystroke	Key.space	n/a
346.3085	0.03	692617	keystroke	c	n/a
346.5185	0.1205	693037	keystroke	a	n/a
346.774	0.12	693548	keystroke	b	n/a
346.939	0.225	693878	keystroke	i	n/a
347.074	0.1645	694148	keystroke	n	n/a
347.254	0.0895	694508	keystroke	e	n/a
347.464	0.09	694928	keystroke	t	n/a
347.734	0.119	695468	keystroke	s	n/a
347.823	0.12	695646	keystroke	Key.space	n/a
348.078	0.1055	696156	keystroke	o	n/a
348.318	0.046	696636	keystroke	f	n/a
348.424	0.105	696848	keystroke	f	n/a
348.679	0.09	697358	keystroke	e	n/a
348.799	0.105	697598	keystroke	n	n/a
349.098	0.031	698196	keystroke	a	n/a
349.188	0.105	698376	keystroke	i	n/a
349.398	0.061	698796	keystroke	c	n/a
349.7435	0.045	699487	keystroke	Key.backspace	n/a
349.8935	0.045	699787	keystroke	Key.backspace	n/a
350.0285	0.0755	700057	keystroke	Key.backspace	n/a
350.674	0.105	701348	keystroke	s	n/a
350.839	0.135	701678	keystroke	i	n/a
350.944	0.06	701888	keystroke	v	n/a
351.214	0.075	702428	keystroke	e	n/a
351.499	0.075	702998	keystroke	Key.enter	n/a
351.5785	9.027	703157	prompt	n/a	magic churches outreach beside\n
352.2335	0.135	704467	keystroke	m	n/a
352.3385	0.105	704677	keystroke	a	n/a
352.6385	0.06	705277	keystroke	g	n/a
352.7585	0.105	705517	keystroke	i	n/a
352.9085	0.06	705817	keystroke	c	n/a
353.0585	0.09	706117	keystroke	Key.space	n/a
353.1635	0.135	706327	keystroke	c	n/a
353.3135	0.1955	706627	keystroke	h	n/a
353.449	0.165	706898	keystroke	u	n/a
353.554	0.075	707108	keystroke	r	n/a
354.049	0.09	708098	keystroke	c	n/a
354.154	0.075	708308	keystroke	h	n/a
354.349	0.06	708698	keystroke	e	n/a
354.559	0.135	709118	keystroke	s	n/a
354.859	0.165	709718	keystroke	Key.space	n/a
355.054	0.255	710108	keystroke	o	n/a
355.204	0.18	710408	keystroke	u	n/a
355.324	0.1195	710648	keystroke	t	n/a
355.6235	0.09	711247	keystroke	r	n/a
355.9835	0.075	711967	keystroke	w	n/a
356.5235	0.09	713047	keystroke	Key.backspace	n/a
356.6145	0.104	713229	keystroke	e	n/a
356.8985	0.045	713797	keystroke	a	n/a
357.3035	0.09	714607	keystroke	h	n/a
357.7685	0.09	715537	keystroke	Key.backspace	n/a
358.0985	0.075	716197	keystroke	c	n/a
358.2335	0.09	716467	keystroke	h	n/a
359.0285	0.12	718057	keystroke	Key.space	n/a
359.2685	0.135	718537	keystroke	b	n/a
359.4185	0.09	718837	keystroke	e	n/a
359.8085	0.105	719617	keystroke	s	n/a
359.9435	0.135	719887	keystroke	i	n/a
360.0795	0.0745	720159	keystroke	d	n/a
360.2735	0.105	720547	keystroke	e	n/a
360.4985	0.105	720997	keystroke	Key.enter	n/a
360.608	7.1075	721216	prompt	n/a	ends meters discussion kissing\n
361.2485	0.12	722497	keystroke	e	n/a
361.3835	0.12	722767	keystroke	n	n/a
361.5045	0.1045	723009	keystroke	d	n/a
361.744	0.135	723488	keystroke	s	n/a
361.894	0.165	723788	keystroke	Key.space	n/a
362.044	0.1645	724088	keystroke	m	n/a
362.1335	0.0905	724267	keystroke	e	n/a
362.359	0.075	724718	keystroke	t	n/a
362.599	0.06	725198	keystroke	e	n/a
362.764	0.075	725528	keystroke	r	n/a
363.0035	0.135	726007	keystroke	s	n/a
363.1535	0.12	726307	keystroke	Key.space	n/a
363.6635	0.105	727327	keystroke	d	n/a
363.8135	0.1355	727627	keystroke	i	n/a
363.964	0.09	727928	keystroke	s	n/a
364.3385	0.12	728677	keystroke	c	n/a
364.4735	0.15	728947	keystroke	u	n/a
365.1035	0.105	730207	keystroke	t	n/a
365.479	0.075	730958	keystroke	Key.backspace	n/a
365.569	0.09	731138	keystroke	s	n/a
365.734	0.1345	731468	keystroke	s	n/a
365.9295	0.195	731859	keystroke	i	n/a
366.0645	0.2245	732129	keystroke	o	n/a
366.214	0.135	732428	keystroke	n	n/a
366.334	0.15	732668	keystroke	Key.space	n/a
366.514	0.12	733028	keystroke	k	n/a
366.709	0.165	733418	keystroke	i	n/a
366.859	0.06	733718	keystroke	s	n/a
367.114	0.03	734228	keystroke	s	n/a
367.129	0.2245	734258	keystroke	i	n/a
367.219	0.1645	734438	keystroke	n	n/a
367.3535	0.135	734707	keystroke	g	n/a
367.6085	0.105	735217	keystroke	Key.enter	n/a
367.718	6.9575	735436	prompt	n/a	dell kinda summit mechanical\n
368.4335	0.09	736867	keystroke	d	n/a
368.6135	0.15	737227	keystroke	e	n/a
368.7785	0.105	737557	keystroke	l	n/a
368.9435	0.135	737887	keystroke	l	n/a
369.0485	0.225	738097	keystroke	Key.space	n/a
369.2585	0.09	738517	keystroke	k	n/a
369.454	0.165	738908	keystroke	i	n/a
369.544	0.15	739088	keystroke	n	n/a
369.649	0.09	739298	keystroke	d	n/a
369.904	0.12	739808	keystroke	s	n/a
370.039	0.12	740078	keystroke	Key.space	n/a
370.489	0.045	740978	keystroke	Key.backspace	n/a
370.624	0.135	741248	keystroke	Key.backspace	n/a
370.684	0.165	741368	keystroke	a	n/a
370.804	0.135	741608	keystroke	Key.space	n/a
371.149	0.12	742298	keystroke	s	n/a
371.299	0.12	742598	keystroke	u	n/a
371.5685	0.045	743137	keystroke	m	n/a
371.7035	0.12	743407	keystroke	m	n/a
371.8085	0.135	743617	keystroke	i	n/a
371.9285	0.15	743857	keystroke	t	n/a
372.0795	0.104	744159	keystroke	Key.space	n/a
372.4395	0.1345	744879	keystroke	m	n/a
372.559	0.06	745118	keystroke	e	n/a
372.754	0.09	745508	keystroke	c	n/a
372.888	0.091	745776	keystroke	h	n/a
373.009	0.1355	746018	keystroke	a	n/a
373.1745	0.195	746349	keystroke	n	n/a
373.3095	0.165	746619	keystroke	i	n/a
373.5645	0.075	747129	keystroke	c	n/a
373.7895	0.1645	747579	keystroke	a	n/a
373.939	0.105	747878	keystroke	l	n/a
374.569	0.105	749138	keystroke	Key.enter	n/a
374.6785	7.7675	749357	prompt	n/a	addressing fishing reservation alive\n
375.2745	0.12	750549	keystroke	a	n/a
375.544	0.045	751088	keystroke	d	n/a
375.664	0.075	751328	keystroke	d	n/a
375.889	0.075	751778	keystroke	r	n/a
376.084	0.06	752168	keystroke	e	n/a
376.3835	0.045	752767	keystroke	s	n/a
376.4885	0.105	752977	keystroke	s	n/a
376.6835	0.24	753367	keystroke	i	n/a
376.8035	0.18	753607	keystroke	n	n/a
376.9085	0.151	753817	keystroke	g	n/a
377.0595	0.104	754119	keystroke	Key.space	n/a
377.764	0.075	755528	keystroke	f	n/a
377.854	0.12	755708	keystroke	i	n/a
378.019	0.09	756038	keystroke	s	n/a
378.109	0.135	756218	keystroke	h	n/a
378.199	0.27	756398	keystroke	i	n/a
378.349	0.15	756698	keystroke	n	n/a
378.454	0.15	756908	keystroke	g	n/a
378.559	0.165	757118	keystroke	Key.space	n/a
379.1285	0.09	758257	keystroke	r	n/a
379.3085	0.09	758617	keystroke	e	n/a
379.534	0.06	759068	keystroke	s	n/a
379.714	0.06	759428	keystroke	e	n/a
379.999	0.06	759998	keystroke	r	n/a
380.344	0.06	760688	keystroke	v	n/a
380.584	0.0895	761168	keystroke	a	n/a
380.8535	0.075	761707	keystroke	t	n/a
380.9135	0.21	761827	keystroke	i	n/a
381.0485	0.165	762097	keystroke	o	n/a
381.1685	0.135	762337	keystroke	n	n/a
381.2735	0.165	762547	keystroke	Key.space	n/a
381.4545	0.075	762909	keystroke	a	n/a
381.5445	0.1495	763089	keystroke	l	n/a
381.7245	0.165	763449	keystroke	i	n/a
381.8445	0.0895	763689	keystroke	v	n/a
382.099	0.1505	764198	keystroke	e	n/a
382.3395	0.104	764679	keystroke	Key.enter	n/a
382.4485	7.152	764897	prompt	n/a	examines flashers seminar winds\n
383.089	0.09	766178	keystroke	a	n/a
383.329	0.12	766658	keystroke	Key.backspace	n/a
383.434	0.09	766868	keystroke	e	n/a
383.659	0.0595	767318	keystroke	x	n/a
383.8685	0.15	767737	keystroke	a	n/a
384.0335	0.135	768067	keystroke	m	n/a
384.1535	0.165	768307	keystroke	i	n/a
384.2885	0.195	768577	keystroke	n	n/a
384.709	0.1045	769418	keystroke	e	n/a
384.9335	0.105	769867	keystroke	s	n/a
385.0535	0.105	770107	keystroke	Key.space	n/a
385.2335	0.09	770467	keystroke	f	n/a
385.3535	0.15	770707	keystroke	l	n/a
385.5335	0.045	771067	keystroke	a	n/a
385.7135	0.075	771427	keystroke	s	n/a
385.8485	0.105	771697	keystroke	h	n/a
385.9385	0.075	771877	keystroke	e	n/a
386.194	0.015	772388	keystroke	r	n/a
386.344	0.165	772688	keystroke	s	n/a
386.464	0.15	772928	keystroke	Key.space	n/a
386.764	0.105	773528	keystroke	s	n/a
386.929	0.105	773858	keystroke	e	n/a
387.094	0.165	774188	keystroke	m	n/a
387.244	0.165	774488	keystroke	i	n/a
387.3495	0.18	774699	keystroke	n	n/a
387.499	0.12	774998	keystroke	t	n/a
387.889	0.105	775778	keystroke	Key.backspace	n/a
387.979	0.1195	775958	keystroke	a	n/a
388.2335	0.12	776467	keystroke	r	n/a
388.3385	0.12	776677	keystroke	Key.space	n/a
388.6385	0.15	777277	keystroke	w	n/a
388.7895	0.1645	777579	keystroke	i	n/a
388.879	0.15	777758	keystroke	n	n/a
389.044	0.075	778088	keystroke	d	n/a
389.239	0.12	778478	keystroke	s	n/a
389.4785	0.12	778957	keystroke	Key.enter	n/a
389.6035	9.402	779207	prompt	n/a	mouse rolling weblog syndicate\n
390.304	0.27	780608	keystroke	m	n/a
390.439	0.21	780878	keystroke	o	n/a
390.589	0.165	781178	keystroke	u	n/a
390.709	0.165	781418	keystroke	s	n/a
390.919	0.12	781838	keystroke	e	n/a
391.054	0.135	782108	keystroke	Key.space	n/a
391.204	0.105	782408	keystroke	r	n/a
391.354	0.105	782708	keystroke	o	n/a
391.7135	0.12	783427	keystroke	l	n/a
391.9095	0.134	783819	keystroke	l	n/a
392.0885	0.2105	784177	keystroke	i	n/a
392.209	0.165	784418	keystroke	n	n/a
392.269	0.135	784538	keystroke	g	n/a
392.464	0.12	784928	keystroke	Key.space	n/a
392.8535	0.0755	785707	keystroke	w	n/a
393.019	0.135	786038	keystroke	e	n/a
393.364	0.015	786728	keystroke	b	n/a
393.6035	0.09	787207	keystroke	l	n/a
393.8135	0.105	787627	keystroke	o	n/a
393.9785	0.105	787957	keystroke	c	n/a
394.414	0.09	788828	keystroke	Key.backspace	n/a
394.534	0.105	789068	keystroke	f	n/a
395.3585	0.0905	790717	keystroke	Key.backspace	n/a
395.464	0.075	790928	keystroke	g	n/a
395.659	0.135	791318	keystroke	Key.space	n/a
396.424	0.135	792848	keystroke	s	n/a
396.889	0.135	793778	keystroke	y	n/a
397.039	0.18	794078	keystroke	n	n/a
397.2785	0.12	794557	keystroke	d	n/a
397.549	0.135	795098	keystroke	i	n/a
397.894	0.075	795788	keystroke	c	n/a
398.134	0.1195	796268	keystroke	a	n/a
398.4635	0.09	796927	keystroke	t	n/a
398.7035	0.105	797407	keystroke	e	n/a
398.9135	0.09	797827	keystroke	Key.enter	n/a
399.0095	8.186	798019	prompt	n/a	besides microsoft lying crops\n
399.9195	0.135	799839	keystroke	b	n/a
400.0395	0.0745	800079	keystroke	e	n/a
400.279	0.06	800558	keystroke	s	n/a
400.369	0.135	800738	keystroke	i	n/a
400.549	0.03	801098	keystroke	d	n/a
400.684	0.075	801368	keystroke	e	n/a
400.909	0.12	801818	keystroke	s	n/a
401.014	0.12	802028	keystroke	Key.space	n/a
401.284	0.045	802568	keystroke	m	n/a
401.8685	0.105	803737	keystroke	i	n/a
402.514	0.09	805028	keystroke	c	n/a
402.904	0.105	805808	keystroke	r	n/a
403.024	0.15	806048	keystroke	o	n/a
403.354	0.105	806708	keystroke	s	n/a
403.474	0.1045	806948	keystroke	o	n/a
403.7885	0.1205	807577	keystroke	f	n/a
404.059	0.12	808118	keystroke	t	n/a
404.434	0.12	808868	keystroke	Key.space	n/a
404.764	0.09	809528	keystroke	l	n/a
404.974	0.075	809948	keystroke	y	n/a
405.229	0.2555	810458	keystroke	i	n/a
405.364	0.2245	810728	keystroke	n	n/a
405.424	0.1955	810848	keystroke	g	n/a
405.6035	0.135	811207	keystroke	Key.space	n/a
406.0535	0.046	812107	keystroke	c	n/a
406.2495	0.089	812499	keystroke	r	n/a
406.3545	0.27	812709	keystroke	o	n/a
406.5485	0.226	813097	keystroke	p	n/a
406.7585	0.135	813517	keystroke	s	n/a
407.0135	0.18	814027	keystroke	Key.enter	n/a
407.199	6.5365	814398	prompt	n/a	casting visa revenues chile\n
408.0485	0.09	816097	keystroke	c	n/a
408.2585	0.075	816517	keystroke	a	n/a
408.4085	0.09	816817	keystroke	s	n/a
408.6485	0.12	817297	keystroke	t	n/a
408.7985	0.18	817597	keystroke	i	n/a
408.9335	0.18	817867	keystroke	n	n/a
409.0235	0.15	818047	keystroke	g	n/a
409.2035	0.1205	818407	keystroke	Key.space	n/a
409.699	0.09	819398	keystroke	v	n/a
409.804	0.135	819608	keystroke	i	n/a
409.969	0.105	819938	keystroke	s	n/a
410.194	0.105	820388	keystroke	a	n/a
410.284	0.135	820568	keystroke	Key.space	n/a
410.7485	0.075	821497	keystroke	r	n/a
410.8985	0.135	821797	keystroke	e	n/a
411.0485	0.12	822097	keystroke	v	n/a
411.1535	0.12	822307	keystroke	e	n/a
411.3185	0.24	822637	keystroke	n	n/a
411.4685	0.18	822937	keystroke	u	n/a
411.5885	0.075	823177	keystroke	s	n/a
411.9335	0.105	823867	keystroke	Key.backspace	n/a
412.024	0.0745	824048	keystroke	e	n/a
412.234	0.0755	824468	keystroke	s	n/a
412.2785	0.136	824557	keystroke	Key.space	n/a
412.8945	0.044	825789	keystroke	c	n/a
412.9695	0.135	825939	keystroke	h	n/a
413.0595	0.225	826119	keystroke	i	n/a
413.2245	0.18	826449	keystroke	l	n/a
413.3895	0.135	826779	keystroke	e	n/a
413.6445	0.09	827289	keystroke	Key.enter	n/a
413.7385	7.737	827477	prompt	n/a	unit afterwards supplied updating\n
414.4995	0.105	828999	keystroke	i	n/a
414.844	0.075	829688	keystroke	Key.backspace	n/a
415.099	0.15	830198	keystroke	u	n/a
415.204	0.195	830408	keystroke	n	n/a
415.369	0.1495	830738	keystroke	i	n/a
415.4595	0.149	830919	keystroke	t	n/a
415.6235	0.121	831247	keystroke	Key.space	n/a
415.9245	0.12	831849	keystroke	a	n/a
416.1635	0.076	832327	keystroke	f	n/a
416.3285	0.106	832657	keystroke	t	n/a
416.5545	0.089	833109	keystroke	e	n/a
416.6895	0.0745	833379	keystroke	r	n/a
416.899	0.09	833798	keystroke	w	n/a
417.109	0.09	834218	keystroke	a	n/a
417.3495	0.045	834699	keystroke	r	n/a
417.4985	0.06	834997	keystroke	d	n/a
417.6645	0.12	835329	keystroke	s	n/a
417.8135	0.135	835627	keystroke	Key.space	n/a
418.3245	0.105	836649	keystroke	s	n/a
418.4595	0.119	836919	keystroke	u	n/a
418.6985	0.075	837397	keystroke	p	n/a
418.834	0.15	837668	keystroke	p	n/a
418.939	0.15	837878	keystroke	l	n/a
419.179	0.1495	838358	keystroke	i	n/a
419.299	0.0895	838598	keystroke	e	n/a
419.5085	0.12	839017	keystroke	s	n/a
419.6435	0.12	839287	keystroke	Key.space	n/a
420.0645	0.134	840129	keystroke	u	n/a
420.1385	0.1805	840277	keystroke	p	n/a
420.334	0.06	840668	keystroke	d	n/a
420.529	0.105	841058	keystroke	a	n/a
420.679	0.09	841358	keystroke	t	n/a
420.979	0.18	841958	keystroke	i	n/a
421.054	0.15	842108	keystroke	n	n/a
421.129	0.12	842258	keystroke	g	n/a
421.384	0.09	842768	keystroke	Key.enter	n/a
421.4865	7.759	842973	prompt	n/a	nevada disclaimers deviation carter\n
422.254	0.03	844508	keystroke	n	n/a
422.269	0.1045	844538	keystroke	e	n/a
422.4785	0.09	844957	keystroke	v	n/a
422.5835	0.075	845167	keystroke	a	n/a
422.8535	0.0455	845707	keystroke	d	n/a
423.064	0.09	846128	keystroke	a	n/a
423.154	0.12	846308	keystroke	Key.space	n/a
423.469	0.09	846938	keystroke	d	n/a
423.619	0.105	847238	keystroke	i	n/a
423.754	0.045	847508	keystroke	s	n/a
423.919	0.075	847838	keystroke	c	n/a
424.069	0.15	848138	keystroke	l	n/a
424.264	0.09	848528	keystroke	a	n/a
424.459	0.15	848918	keystroke	i	n/a
424.579	0.18	849158	keystroke	m	n/a
424.714	0.09	849428	keystroke	e	n/a
424.894	0.105	849788	keystroke	r	n/a
425.104	0.15	850208	keystroke	s	n/a
425.209	0.12	850418	keystroke	Key.space	n/a
426.079	0.075	852158	keystroke	d	n/a
426.2885	0.09	852577	keystroke	e	n/a
426.6935	0.045	853387	keystroke	v	n/a
426.7685	0.12	853537	keystroke	i	n/a
426.9635	0.075	853927	keystroke	a	n/a
427.2035	0.075	854407	keystroke	t	n/a
427.2935	0.151	854587	keystroke	i	n/a
427.4895	0.165	854979	keystroke	o	n/a
427.5795	0.18	855159	keystroke	n	n/a
427.6995	0.15	855399	keystroke	Key.space	n/a
427.8645	0.0895	855729	keystroke	c	n/a
428.089	0.0755	856178	keystroke	a	n/a
428.404	0.06	856808	keystroke	r	n/a
428.569	0.075	857138	keystroke	t	n/a
428.764	0.09	857528	keystroke	e	n/a
428.914	0.135	857828	keystroke	r	n/a
429.154	0.09	858308	keystroke	Key.enter	n/a
429.2485	6.687	858497	prompt	n/a	creativity earl collar regarded\n
430.009	0.075	860018	keystroke	c	n/a
430.204	0.06	860408	keystroke	r	n/a
430.354	0.105	860708	keystroke	e	n/a
430.579	0.105	861158	keystroke	a	n/a
430.834	0.075	861668	keystroke	t	n/a
430.984	0.15	861968	keystroke	i	n/a
431.149	0.09	862298	keystroke	v	n/a
431.284	0.15	862568	keystroke	i	n/a
431.404	0.0745	862808	keystroke	t	n/a
431.5685	0.106	863137	keystroke	y	n/a
431.6885	0.12	863377	keystroke	Key.space	n/a
432.3035	0.061	864607	keystroke	e	n/a
432.484	0.105	864968	keystroke	a	n/a
432.7085	0.105	865417	keystroke	r	n/a
432.8285	0.18	865657	keystroke	l	n/a
432.9635	0.12	865927	keystroke	Key.space	n/a
433.2485	0.045	866497	keystroke	c	n/a
433.3385	0.09	866677	keystroke	o	n/a
433.5635	0.06	867127	keystroke	l	n/a
433.684	0.1195	867368	keystroke	l	n/a
433.7885	0.075	867577	keystroke	a	n/a
433.9985	0.105	867997	keystroke	r	n/a
434.1185	0.12	868237	keystroke	Key.space	n/a
434.3585	0.075	868717	keystroke	r	n/a
434.5535	0.075	869107	keystroke	e	n/a
434.8685	0.12	869737	keystroke	g	n/a
435.0335	0.075	870067	keystroke	a	n/a
435.229	0.06	870458	keystroke	r	n/a
435.394	0.06	870788	keystroke	d	n/a
435.544	0.06	871088	keystroke	e	n/a
435.799	0.015	871598	keystroke	d	n/a
435.829	0.105	871658	keystroke	Key.enter	n/a
435.938	8.0375	871876	prompt	n/a	style hawk anderson documentary\n
436.6995	0.09	873399	keystroke	s	n/a
436.9545	0.045	873909	keystroke	t	n/a
437.0745	0.075	874149	keystroke	y	n/a
437.1645	0.135	874329	keystroke	l	n/a
437.3445	0.12	874689	keystroke	e	n/a
437.4495	0.12	874899	keystroke	Key.space	n/a
437.7195	0.12	875439	keystroke	h	n/a
437.8545	0.1195	875709	keystroke	a	n/a
438.079	0.09	876158	keystroke	w	n/a
438.439	0.15	876878	keystroke	k	n/a
438.619	0.12	877238	keystroke	Key.space	n/a
439.144	0.03	878288	keystroke	s	n/a
439.534	0.09	879068	keystroke	Key.backspace	n/a
439.654	0.075	879308	keystroke	a	n/a
439.834	0.105	879668	keystroke	n	n/a
439.924	0.06	879848	keystroke	d	n/a
440.074	0.045	880148	keystroke	e	n/a
440.194	0.06	880388	keystroke	r	n/a
440.3895	0.165	880779	keystroke	s	n/a
440.4645	0.2095	880929	keystroke	o	n/a
440.5845	0.1945	881169	keystroke	n	n/a
440.734	0.12	881468	keystroke	Key.space	n/a
441.304	0.09	882608	keystroke	d	n/a
441.379	0.1505	882758	keystroke	o	n/a
441.5595	0.135	883119	keystroke	c	n/a
441.7245	0.09	883449	keystroke	u	n/a
441.9345	0.105	883869	keystroke	m	n/a
442.0395	0.09	884079	keystroke	e	n/a
442.1435	0.1205	884287	keystroke	n	n/a
442.265	0.059	884530	keystroke	t	n/a
442.534	0.06	885068	keystroke	a	n/a
443.164	0.135	886328	keystroke	r	n/a
443.329	0.105	886658	keystroke	y	n/a
443.899	0.075	887798	keystroke	Key.enter	n/a
443.9785	10.497	887957	prompt	n/a	advertisements computing elliott graduate\n
444.664	0.105	889328	keystroke	a	n/a
444.949	0.075	889898	keystroke	d	n/a
445.159	0.045	890318	keystroke	v	n/a
445.354	0.06	890708	keystroke	e	n/a
445.4895	0.06	890979	keystroke	r	n/a
445.7145	0.0445	891429	keystroke	t	n/a
445.8345	0.1045	891669	keystroke	i	n/a
446.044	0.03	892088	keystroke	s	n/a
446.209	0.06	892418	keystroke	e	n/a
446.299	0.09	892598	keystroke	m	n/a
446.404	0.075	892808	keystroke	e	n/a
446.48	0.119	892960	keystroke	n	n/a
446.569	0.09	893138	keystroke	t	n/a
446.824	0.105	893648	keystroke	s	n/a
446.959	0.12	893918	keystroke	Key.space	n/a
447.184	0.06	894368	keystroke	c	n/a
447.259	0.15	894518	keystroke	o	n/a
447.379	0.1955	894758	keystroke	m	n/a
447.5145	0.105	895029	keystroke	p	n/a
447.7545	0.105	895509	keystroke	u	n/a
447.8745	0.075	895749	keystroke	t	n/a
447.9945	0.15	895989	keystroke	i	n/a
448.084	0.1655	896168	keystroke	n	n/a
448.1895	0.09	896379	keystroke	g	n/a
448.3545	0.1045	896709	keystroke	Key.space	n/a
448.699	0.03	897398	keystroke	w	n/a
449.314	0.105	898628	keystroke	Key.backspace	n/a
449.4645	0.105	898929	keystroke	e	n/a
449.5845	0.075	899169	keystroke	l	n/a
449.7495	0.075	899499	keystroke	l	n/a
449.8695	0.195	899739	keystroke	i	n/a
450.0195	0.164	900039	keystroke	o	n/a
450.109	0.1045	900218	keystroke	t	n/a
450.2585	0.105	900517	keystroke	Key.space	n/a
451.144	0.075	902288	keystroke	Key.backspace	n/a
451.294	0.0895	902588	keystroke	t	n/a
451.3685	0.12	902737	keystroke	Key.space	n/a
452.2545	0.1345	904509	keystroke	g	n/a
452.3145	0.0895	904629	keystroke	r	n/a
452.539	0.075	905078	keystroke	a	n/a
452.734	0.045	905468	keystroke	d	n/a
452.824	0.09	905648	keystroke	u	n/a
453.634	0.06	907268	keystroke	a	n/a
453.859	0.075	907718	keystroke	t	n/a
454.0845	0.135	908169	keystroke	e	n/a
454.3995	0.075	908799	keystroke	Key.enter	n/a
454.479	9.402	908958	prompt	n/a	supporting hardware velocity shark\n
455.3745	0.09	910749	keystroke	s	n/a
455.5245	0.09	911049	keystroke	u	n/a
455.7045	0.075	911409	keystroke	p	n/a
455.8395	0.135	911679	keystroke	p	n/a
455.9445	0.1945	911889	keystroke	o	n/a
456.319	0.075	912638	keystroke	r	n/a
456.499	0.105	912998	keystroke	t	n/a
456.589	0.225	913178	keystroke	i	n/a
456.724	0.15	913448	keystroke	n	n/a
456.799	0.12	913598	keystroke	g	n/a
456.949	0.1195	913898	keystroke	Key.space	n/a
457.129	0.1195	914258	keystroke	h	n/a
457.219	0.1045	914438	keystroke	a	n/a
457.459	0.075	914918	keystroke	r	n/a
458.014	0.06	916028	keystroke	d	n/a
458.2395	0.09	916479	keystroke	w	n/a
458.4345	0.105	916869	keystroke	a	n/a
458.6895	0.06	917379	keystroke	r	n/a
458.8545	0.12	917709	keystroke	e	n/a
459.0345	0.12	918069	keystroke	Key.space	n/a
459.3345	0.06	918669	keystroke	v	n/a
459.5595	0.105	919119	keystroke	e	n/a
459.6945	0.09	919389	keystroke	l	n/a
459.8745	0.135	919749	keystroke	o	n/a
460.264	0.075	920528	keystroke	c	n/a
460.354	0.105	920708	keystroke	i	n/a
460.504	0.09	921008	keystroke	r	n/a
460.894	0.105	921788	keystroke	Key.backspace	n/a
460.969	0.09	921938	keystroke	t	n/a
461.119	0.1205	922238	keystroke	y	n/a
461.4045	0.165	922809	keystroke	,	n/a
461.944	0.12	923888	keystroke	Key.space	n/a
462.184	0.075	924368	keystroke	Key.backspace	n/a
462.334	0.06	924668	keystroke	Key.backspace	n/a
462.5885	0.15	925177	keystroke	Key.space	n/a
462.7685	0.12	925537	keystroke	s	n/a
462.9185	0.1205	925837	keystroke	h	n/a
463.0235	0.106	926047	keystroke	a	n/a
463.3235	0.135	926647	keystroke	r	n/a
463.4285	0.12	926857	keystroke	k	n/a
463.819	0.06	927638	keystroke	Key.enter	n/a
463.884	5.757	927768	prompt	n/a	hobby bible look sized\n
464.704	0.15	929408	keystroke	h	n/a
464.779	0.165	929558	keystroke	o	n/a
465.064	0.105	930128	keystroke	b	n/a
465.199	0.2555	930398	keystroke	b	n/a
465.304	0.2405	930608	keystroke	y	n/a
465.4995	0.15	930999	keystroke	Key.space	n/a
466.1445	0.15	932289	keystroke	b	n/a
466.2795	0.21	932559	keystroke	i	n/a
466.4445	0.195	932889	keystroke	b	n/a
466.6245	0.195	933249	keystroke	l	n/a
466.8045	0.165	933609	keystroke	e	n/a
467.0295	0.105	934059	keystroke	Key.space	n/a
467.2245	0.105	934449	keystroke	l	n/a
467.4195	0.1045	934839	keystroke	o	n/a
467.854	0.2095	935708	keystroke	o	n/a
467.9895	0.1645	935979	keystroke	k	n/a
468.1235	0.1355	936247	keystroke	Key.space	n/a
468.484	0.135	936968	keystroke	s	n/a
468.634	0.12	937268	keystroke	i	n/a
468.859	0.12	937718	keystroke	z	n/a
469.159	0.0605	938318	keystroke	e	n/a
469.324	0.0895	938648	keystroke	d	n/a
469.5495	0.09	939099	keystroke	Key.enter	n/a
469.644	7.3615	939288	prompt	n/a	animated dividend medicines catering\n
470.329	0.135	940658	keystroke	a	n/a
470.494	0.18	940988	keystroke	n	n/a
470.629	0.225	941258	keystroke	i	n/a
470.749	0.18	941498	keystroke	m	n/a
470.839	0.135	941678	keystroke	a	n/a
471.109	0.09	942218	keystroke	t	n/a
471.334	0.075	942668	keystroke	e	n/a
471.5295	0.09	943059	keystroke	d	n/a
471.6345	0.12	943269	keystroke	Key.space	n/a
472.0395	0.105	944079	keystroke	d	n/a
472.1595	0.15	944319	keystroke	i	n/a
472.3695	0.06	944739	keystroke	v	n/a
472.4895	0.135	944979	keystroke	i	n/a
472.6095	0.06	945219	keystroke	d	n/a
472.8045	0.105	945609	keystroke	e	n/a
472.9395	0.12	945879	keystroke	n	n/a
473.2695	0.09	946539	keystroke	d	n/a
473.3445	0.1195	946689	keystroke	Key.space	n/a
474.0195	0.135	948039	keystroke	m	n/a
474.1245	0.075	948249	keystroke	e	n/a
474.3345	0.06	948669	keystroke	d	n/a
474.4545	0.09	948909	keystroke	i	n/a
474.6045	0.075	949209	keystroke	c	n/a
474.6945	0.12	949389	keystroke	i	n/a
474.7695	0.165	949539	keystroke	n	n/a
474.9495	0.075	949899	keystroke	e	n/a
475.1595	0.12	950319	keystroke	s	n/a
475.2945	0.104	950589	keystroke	Key.space	n/a
475.489	0.06	950978	keystroke	c	n/a
475.714	0.09	951428	keystroke	a	n/a
476.014	0.06	952028	keystroke	t	n/a
476.194	0.075	952388	keystroke	e	n/a
476.329	0.12	952658	keystroke	r	n/a
476.479	0.225	952958	keystroke	i	n/a
476.539	0.18	953078	keystroke	n	n/a
476.659	0.075	953318	keystroke	g	n/a
476.899	0.105	953798	keystroke	Key.enter	n/a
477.0085	7.3175	954017	prompt	n/a	afternoon throwing pickup buttons\n
477.619	0.09	955238	keystroke	a	n/a
477.859	0.045	955718	keystroke	f	n/a
478.009	0.0755	956018	keystroke	t	n/a
478.234	0.045	956468	keystroke	e	n/a
478.384	0.075	956768	keystroke	r	n/a
478.489	0.105	956978	keystroke	n	n/a
478.684	0.0755	957368	keystroke	o	n/a
478.8345	0.18	957669	keystroke	o	n/a
478.9535	0.166	957907	keystroke	n	n/a
479.0745	0.12	958149	keystroke	Key.space	n/a
479.1795	0.12	958359	keystroke	t	n/a
479.2845	0.135	958569	keystroke	h	n/a
479.4045	0.1195	958809	keystroke	r	n/a
479.509	0.15	959018	keystroke	o	n/a
479.674	0.09	959348	keystroke	w	n/a
479.794	0.21	959588	keystroke	i	n/a
479.899	0.18	959798	keystroke	n	n/a
480.019	0.1355	960038	keystroke	g	n/a
480.1545	0.135	960309	keystroke	Key.space	n/a
480.3195	0.135	960639	keystroke	p	n/a
480.5295	0.12	961059	keystroke	i	n/a
480.6945	0.105	961389	keystroke	c	n/a
480.8295	0.12	961659	keystroke	k	n/a
481.1745	0.1645	962349	keystroke	u	n/a
481.279	0.195	962558	keystroke	p	n/a
481.429	0.12	962858	keystroke	Key.space	n/a
481.639	0.225	963278	keystroke	b	n/a
481.819	0.12	963638	keystroke	u	n/a
482.1195	0.075	964239	keystroke	r	n/a
482.2545	0.165	964509	keystroke	r	n/a
482.3595	0.164	964719	keystroke	o	n/a
482.809	0.015	965618	keystroke	Key.backspace	n/a
482.8845	0.06	965769	keystroke	Key.backspace	n/a
483.0195	0.105	966039	keystroke	Key.backspace	n/a
483.1545	0.135	966309	keystroke	t	n/a
483.3495	0.105	966699	keystroke	t	n/a
483.4845	0.18	966969	keystroke	o	n/a
483.5745	0.15	967149	keystroke	n	n/a
483.7095	0.105	967419	keystroke	s	n/a
484.189	0.1355	968378	keystroke	Key.enter	n/a
484.3305	5.89	968661	prompt	n/a	great canberra sight inside\n
485.044	0.151	970088	keystroke	g	n/a
485.119	0.09	970238	keystroke	r	n/a
485.299	0.09	970598	keystroke	e	n/a
485.5545	0.135	971109	keystroke	a	n/a
485.6445	0.165	971289	keystroke	t	n/a
485.7645	0.15	971529	keystroke	Key.space	n/a
486.1245	0.075	972249	keystroke	c	n/a
486.349	0.135	972698	keystroke	a	n/a
486.499	0.12	972998	keystroke	n	n/a
486.724	0.135	973448	keystroke	b	n/a
486.844	0.06	973688	keystroke	e	n/a
486.9795	0.075	973959	keystroke	r	n/a
487.1295	0.105	974259	keystroke	r	n/a
487.4145	0.12	974829	keystroke	a	n/a
487.5195	0.135	975039	keystroke	Key.space	n/a
487.7745	0.06	975549	keystroke	s	n/a
487.8645	0.12	975729	keystroke	i	n/a
488.0445	0.09	976089	keystroke	g	n/a
488.1795	0.0745	976359	keystroke	h	n/a
488.239	0.075	976478	keystroke	t	n/a
488.419	0.075	976838	keystroke	Key.space	n/a
488.569	0.1655	977138	keystroke	i	n/a
488.7045	0.15	977409	keystroke	n	n/a
488.8245	0.12	977649	keystroke	s	n/a
488.9595	0.135	977919	keystroke	i	n/a
489.2145	0.09	978429	keystroke	t	n/a
489.5295	0.09	979059	keystroke	Key.backspace	n/a
489.6345	0.059	979269	keystroke	d	n/a
489.8145	0.12	979629	keystroke	e	n/a
490.144	0.0745	980288	keystroke	Key.enter	n/a
490.224	6.042	980448	prompt	n/a	forward samples grey partner\n
490.9245	0.1195	981849	keystroke	f	n/a
490.9995	0.1045	981999	keystroke	o	n/a
491.089	0.075	982178	keystroke	r	n/a
491.285	0.119	982570	keystroke	w	n/a
491.494	0.12	982988	keystroke	a	n/a
491.735	0.059	983470	keystroke	r	n/a
491.885	0.089	983770	keystroke	d	n/a
492.019	0.135	984038	keystroke	Key.space	n/a
492.155	0.089	984310	keystroke	s	n/a
492.349	0.09	984698	keystroke	a	n/a
492.454	0.1205	984908	keystroke	m	n/a
492.6645	0.09	985329	keystroke	p	n/a
492.8745	0.09	985749	keystroke	l	n/a
493.1595	0.045	986319	keystroke	e	n/a
493.3695	0.06	986739	keystroke	s	n/a
493.4595	0.105	986919	keystroke	Key.space	n/a
494.029	0.12	988058	keystroke	g	n/a
494.105	0.089	988210	keystroke	r	n/a
494.299	0.15	988598	keystroke	e	n/a
494.539	0.1355	989078	keystroke	y	n/a
494.6295	0.15	989259	keystroke	Key.space	n/a
494.8845	0.135	989769	keystroke	p	n/a
494.9745	0.09	989949	keystroke	a	n/a
495.214	0.075	990428	keystroke	r	n/a
495.364	0.105	990728	keystroke	t	n/a
495.499	0.135	990998	keystroke	n	n/a
495.649	0.075	991298	keystroke	e	n/a
495.829	0.12	991658	keystroke	r	n/a
496.174	0.09	992348	keystroke	Key.enter	n/a
496.2685	8.5325	992537	prompt	n/a	modified cable promotes geographical\n
496.9245	0.195	993849	keystroke	m	n/a
497.0295	0.18	994059	keystroke	o	n/a
497.2245	0.105	994449	keystroke	d	n/a
497.3145	0.135	994629	keystroke	i	n/a
497.4345	0.075	994869	keystroke	f	n/a
497.5545	0.105	995109	keystroke	i	n/a
497.6295	0.105	995259	keystroke	e	n/a
497.9745	0.045	995949	keystroke	d	n/a
498.2745	0.12	996549	keystroke	Key.space	n/a
498.7545	0.0455	997509	keystroke	c	n/a
498.9795	0.105	997959	keystroke	a	n/a
499.0695	0.1495	998139	keystroke	b	n/a
499.1895	0.18	998379	keystroke	l	n/a
499.324	0.136	998648	keystroke	e	n/a
499.445	0.12	998890	keystroke	Key.space	n/a
499.67	0.12	999340	keystroke	p	n/a
499.775	0.09	999550	keystroke	r	n/a
499.895	0.09	999790	keystroke	o	n/a
500.045	0.21	1000090	keystroke	m	n/a
500.24	0.195	1000480	keystroke	o	n/a
500.36	0.105	1000720	keystroke	t	n/a
500.555	0.12	1001110	keystroke	e	n/a
500.7945	0.135	1001589	keystroke	s	n/a
500.9145	0.105	1001829	keystroke	Key.space	n/a
501.5145	0.06	1003029	keystroke	g	n/a
501.935	0.12	1003870	keystroke	e	n/a
502.07	0.119	1004140	keystroke	o	n/a
502.505	0.09	1005010	keystroke	g	n/a
502.76	0.089	1005520	keystroke	r	n/a
503.015	0.12	1006030	keystroke	a	n/a
503.12	0.105	1006240	keystroke	p	n/a
503.524	0.15	1007048	keystroke	h	n/a
503.644	0.1655	1007288	keystroke	i	n/a
503.9595	0.09	1007919	keystroke	c	n/a
504.274	0.1205	1008548	keystroke	a	n/a
504.4095	0.1195	1008819	keystroke	l	n/a
504.695	0.105	1009390	keystroke	Key.enter	n/a
504.804	10.032	1009608	prompt	n/a	scheduled saudi familiar corner\n
505.504	0.06	1011008	keystroke	s	n/a
505.685	0.06	1011370	keystroke	c	n/a
505.91	0.104	1011820	keystroke	h	n/a
506.0745	0.075	1012149	keystroke	e	n/a
506.599	0.105	1013198	keystroke	d	n/a
506.719	0.075	1013438	keystroke	u	n/a
507.244	0.135	1014488	keystroke	l	n/a
507.349	0.075	1014698	keystroke	e	n/a
507.529	0.135	1015058	keystroke	s	n/a
507.634	0.12	1015268	keystroke	Key.space	n/a
507.919	0.06	1015838	keystroke	c	n/a
508.129	0.091	1016258	keystroke	a	n/a
508.204	0.106	1016408	keystroke	u	n/a
508.339	0.06	1016678	keystroke	s	n/a
508.519	0.135	1017038	keystroke	e	n/a
509.014	0.015	1018028	keystroke	Key.backspace	n/a
509.119	0.075	1018238	keystroke	Key.backspace	n/a
509.254	0.075	1018508	keystroke	Key.backspace	n/a
509.419	0.06	1018838	keystroke	Key.backspace	n/a
509.584	0.06	1019168	keystroke	Key.backspace	n/a
510.109	0.06	1020218	keystroke	s	n/a
510.259	0.12	1020518	keystroke	a	n/a
510.394	0.09	1020788	keystroke	u	n/a
510.529	0.15	1021058	keystroke	d	n/a
510.634	0.18	1021268	keystroke	i	n/a
510.754	0.135	1021508	keystroke	Key.space	n/a
511.039	0.12	1022078	keystroke	f	n/a
511.294	0.105	1022588	keystroke	a	n/a
511.384	0.2855	1022768	keystroke	m	n/a
511.5195	0.18	1023039	keystroke	i	n/a
511.6845	0.18	1023369	keystroke	l	n/a
511.8045	0.18	1023609	keystroke	i	n/a
512.0445	0.105	1024089	keystroke	a	n/a
512.2995	0.06	1024599	keystroke	r	n/a
512.3745	0.15	1024749	keystroke	Key.space	n/a
513.439	0.015	1026878	keystroke	s	n/a
513.7095	0.09	1027419	keystroke	Key.backspace	n/a
513.8295	0.06	1027659	keystroke	c	n/a
513.9645	0.135	1027929	keystroke	o	n/a
514.1145	0.06	1028229	keystroke	r	n/a
514.2195	0.09	1028439	keystroke	n	n/a
514.3395	0.06	1028679	keystroke	e	n/a
514.5195	0.09	1029039	keystroke	r	n/a
514.7445	0.09	1029489	keystroke	Key.enter	n/a
514.839	6.192	1029678	prompt	n/a	sense disclose bass broad\n
515.57	0.09	1031140	keystroke	s	n/a
515.764	0.091	1031528	keystroke	e	n/a
515.884	0.1205	1031768	keystroke	n	n/a
515.9895	0.09	1031979	keystroke	s	n/a
516.1995	0.09	1032399	keystroke	e	n/a
516.2895	0.135	1032579	keystroke	Key.space	n/a
516.8295	0.12	1033659	keystroke	d	n/a
516.9345	0.12	1033869	keystroke	i	n/a
517.0695	0.09	1034139	keystroke	s	n/a
517.2795	0.105	1034559	keystroke	c	n/a
517.3695	0.105	1034739	keystroke	l	n/a
517.5495	0.135	1035099	keystroke	o	n/a
517.7145	0.075	1035429	keystroke	s	n/a
517.8945	0.12	1035789	keystroke	e	n/a
517.9845	0.1195	1035969	keystroke	Key.space	n/a
518.2545	0.12	1036509	keystroke	b	n/a
518.3595	0.09	1036719	keystroke	a	n/a
518.5845	0.045	1037169	keystroke	s	n/a
518.75	0.12	1037500	keystroke	s	n/a
518.944	0.136	1037888	keystroke	Key.space	n/a
519.065	0.165	1038130	keystroke	b	n/a
519.2	0.09	1038400	keystroke	r	n/a
519.4695	0.105	1038939	keystroke	a	n/a
519.6345	0.1345	1039269	keystroke	o	n/a
520.054	0.06	1040108	keystroke	Key.backspace	n/a
520.174	0.105	1040348	keystroke	Key.backspace	n/a
520.414	0.09	1040828	keystroke	o	n/a
520.489	0.105	1040978	keystroke	a	n/a
520.73	0.075	1041460	keystroke	d	n/a
520.939	0.09	1041878	keystroke	Key.enter	n/a
521.034	7.2415	1042068	prompt	n/a	operating killing sides aquarium\n
521.7495	0.165	1043499	keystroke	o	n/a
521.8395	0.15	1043679	keystroke	p	n/a
521.9745	0.075	1043949	keystroke	e	n/a
522.1245	0.105	1044249	keystroke	r	n/a
522.409	0.075	1044818	keystroke	a	n/a
522.649	0.06	1045298	keystroke	t	n/a
522.769	0.195	1045538	keystroke	i	n/a
522.874	0.15	1045748	keystroke	n	n/a
522.979	0.135	1045958	keystroke	g	n/a
523.099	0.15	1046198	keystroke	Key.space	n/a
523.5645	0.105	1047129	keystroke	k	n/a
523.8045	0.075	1047609	keystroke	i	n/a
523.9995	0.075	1047999	keystroke	l	n/a
524.1495	0.135	1048299	keystroke	l	n/a
524.2545	0.255	1048509	keystroke	i	n/a
524.4195	0.12	1048839	keystroke	n	n/a
524.5245	0.09	1049049	keystroke	g	n/a
524.6595	0.12	1049319	keystroke	Key.space	n/a
524.8245	0.12	1049649	keystroke	s	n/a
524.9595	0.135	1049919	keystroke	i	n/a
525.0495	0.0895	1050099	keystroke	d	n/a
525.244	0.09	1050488	keystroke	e	n/a
525.469	0.12	1050938	keystroke	s	n/a
525.619	0.12	1051238	keystroke	Key.space	n/a
526.369	0.1355	1052738	keystroke	a	n/a
526.7295	0.105	1053459	keystroke	q	n/a
526.9545	0.075	1053909	keystroke	u	n/a
527.0445	0.1045	1054089	keystroke	a	n/a
527.299	0.09	1054598	keystroke	r	n/a
527.404	0.075	1054808	keystroke	i	n/a
527.629	0.09	1055258	keystroke	u	n/a
527.899	0.09	1055798	keystroke	m	n/a
528.1845	0.09	1056369	keystroke	Key.enter	n/a
528.2795	9.6265	1056559	prompt	n/a	defining album compensation featured\n
529.129	0.06	1058258	keystroke	d	n/a
529.2945	0.06	1058589	keystroke	e	n/a
529.4895	0.09	1058979	keystroke	f	n/a
529.5645	0.165	1059129	keystroke	i	n/a
529.7145	0.165	1059429	keystroke	n	n/a
529.8345	0.18	1059669	keystroke	i	n/a
529.9545	0.15	1059909	keystroke	n	n/a
530.0595	0.105	1060119	keystroke	g	n/a
530.2095	0.12	1060419	keystroke	Key.space	n/a
530.5545	0.15	1061109	keystroke	a	n/a
530.6595	0.135	1061319	keystroke	l	n/a
530.9595	0.12	1061919	keystroke	b	n/a
531.1695	0.105	1062339	keystroke	u	n/a
531.3795	0.18	1062759	keystroke	m	n/a
531.5145	0.12	1063029	keystroke	Key.space	n/a
532.1295	0.075	1064259	keystroke	c	n/a
532.1895	0.165	1064379	keystroke	o	n/a
532.3245	0.09	1064649	keystroke	m	n/a
532.4895	0.1045	1064979	keystroke	n	n/a
532.864	0.09	1065728	keystroke	Key.backspace	n/a
533.104	0.1355	1066208	keystroke	p	n/a
533.1945	0.1195	1066389	keystroke	e	n/a
533.344	0.12	1066688	keystroke	n	n/a
533.4345	0.0745	1066869	keystroke	r	n/a
533.734	0.12	1067468	keystroke	Key.backspace	n/a
533.839	0.06	1067678	keystroke	s	n/a
534.019	0.09	1068038	keystroke	a	n/a
534.289	0.09	1068578	keystroke	t	n/a
534.394	0.165	1068788	keystroke	i	n/a
534.499	0.195	1068998	keystroke	o	n/a
534.634	0.18	1069268	keystroke	n	n/a
534.769	0.15	1069538	keystroke	Key.space	n/a
534.979	0.09	1069958	keystroke	d	n/a
535.384	0.1055	1070768	keystroke	Key.backspace	n/a
535.4745	0.075	1070949	keystroke	f	n/a
535.7445	0.015	1071489	keystroke	e	n/a
535.8795	0.09	1071759	keystroke	a	n/a
536.1345	0.075	1072269	keystroke	t	n/a
536.2395	0.12	1072479	keystroke	u	n/a
536.3445	0.09	1072689	keystroke	r	n/a
536.6595	0.015	1073319	keystroke	e	n/a
536.8845	0.09	1073769	keystroke	d	n/a
537.0195	0.105	1074039	keystroke	Key.space	n/a
537.5745	0.09	1075149	keystroke	Key.backspace	n/a
537.7995	0.105	1075599	keystroke	Key.enter	n/a
537.9085	6.3875	1075817	prompt	n/a	crown cells licensing jefferson\n
538.6845	0.0605	1077369	keystroke	c	n/a
538.8645	0.0755	1077729	keystroke	r	n/a
538.94	0.1195	1077880	keystroke	o	n/a
539.0895	0.18	1078179	keystroke	w	n/a
539.195	0.1785	1078390	keystroke	n	n/a
539.3295	0.1345	1078659	keystroke	Key.space	n/a
539.569	0.03	1079138	keystroke	c	n/a
539.764	0.06	1079528	keystroke	e	n/a
539.884	0.091	1079768	keystroke	l	n/a
540.034	0.15	1080068	keystroke	l	n/a
540.214	0.06	1080428	keystroke	s	n/a
540.289	0.12	1080578	keystroke	Key.space	n/a
540.514	0.21	1081028	keystroke	l	n/a
540.679	0.15	1081358	keystroke	i	n/a
540.904	0.09	1081808	keystroke	c	n/a
541.159	0.09	1082318	keystroke	e	n/a
541.264	0.105	1082528	keystroke	n	n/a
541.399	0.09	1082798	keystroke	s	n/a
541.504	0.225	1083008	keystroke	i	n/a
541.609	0.21	1083218	keystroke	n	n/a
541.744	0.135	1083488	keystroke	g	n/a
541.88	0.134	1083760	keystroke	Key.space	n/a
542.5245	0.105	1085049	keystroke	j	n/a
542.6595	0.09	1085319	keystroke	e	n/a
542.9295	0.045	1085859	keystroke	f	n/a
543.0195	0.09	1086039	keystroke	f	n/a
543.2595	0.06	1086519	keystroke	e	n/a
543.4095	0.06	1086819	keystroke	r	n/a
543.6345	0.12	1087269	keystroke	s	n/a
543.7845	0.165	1087569	keystroke	o	n/a
543.8895	0.12	1087779	keystroke	n	n/a
544.19	0.104	1088380	keystroke	Key.enter	n/a
544.2985	5.7125	1088597	prompt	n/a	commands topic secondary further\n
544.925	0.105	1089850	keystroke	c	n/a
545.044	0.121	1090088	keystroke	o	n/a
545.269	0.09	1090538	keystroke	m	n/a
545.419	0.12	1090838	keystroke	m	n/a
545.554	0.135	1091108	keystroke	a	n/a
545.704	0.105	1091408	keystroke	n	n/a
545.899	0.06	1091798	keystroke	d	n/a
546.079	0.135	1092158	keystroke	s	n/a
546.199	0.106	1092398	keystroke	Key.space	n/a
546.455	0.1045	1092910	keystroke	t	n/a
546.5445	0.165	1093089	keystroke	o	n/a
546.6645	0.12	1093329	keystroke	p	n/a
546.7995	0.1505	1093599	keystroke	i	n/a
546.9195	0.1055	1093839	keystroke	c	n/a
547.04	0.105	1094080	keystroke	Key.space	n/a
547.3545	0.045	1094709	keystroke	s	n/a
547.5045	0.045	1095009	keystroke	e	n/a
547.6995	0.045	1095399	keystroke	c	n/a
547.7295	0.18	1095459	keystroke	o	n/a
547.8495	0.135	1095699	keystroke	n	n/a
547.9545	0.045	1095909	keystroke	d	n/a
548.1345	0.1045	1096269	keystroke	a	n/a
548.4045	0.15	1096809	keystroke	r	n/a
548.5095	0.15	1097019	keystroke	y	n/a
548.6145	0.15	1097229	keystroke	Key.space	n/a
548.9295	0.105	1097859	keystroke	f	n/a
549.0345	0.105	1098069	keystroke	u	n/a
549.1545	0.105	1098309	keystroke	r	n/a
549.3345	0.105	1098669	keystroke	t	n/a
549.455	0.1045	1098910	keystroke	h	n/a
549.5445	0.1055	1099089	keystroke	e	n/a
549.7095	0.12	1099419	keystroke	r	n/a
549.8895	0.12	1099779	keystroke	Key.enter	n/a
550.0135	7.4825	1100027	prompt	n/a	concentration combining terminal until\n
550.6695	0.075	1101339	keystroke	c	n/a
550.7455	0.149	1101491	keystroke	o	n/a
550.8345	0.135	1101669	keystroke	n	n/a
550.9245	0.0905	1101849	keystroke	c	n/a
551.134	0.106	1102268	keystroke	e	n/a
551.225	0.12	1102450	keystroke	n	n/a
551.435	0.06	1102870	keystroke	t	n/a
551.57	0.1045	1103140	keystroke	r	n/a
551.809	0.076	1103618	keystroke	a	n/a
552.034	0.061	1104068	keystroke	t	n/a
552.109	0.181	1104218	keystroke	i	n/a
552.26	0.1645	1104520	keystroke	o	n/a
552.365	0.2095	1104730	keystroke	n	n/a
552.5295	0.18	1105059	keystroke	Key.space	n/a
552.6945	0.105	1105389	keystroke	c	n/a
552.7695	0.18	1105539	keystroke	o	n/a
