onset	duration	sample	value	key	prompt_text
16.2035	0.0895	32407	keystroke_n	n	n/a
16.2785	0.0895	32557	keystroke_a	a	n/a
16.428	0.09	32856	keystroke_l	l	n/a
16.533	0.1055	33066	keystroke_a	a	n/a
17.0285	0.12	34057	keystroke_p	p	n/a
17.133	0.105	34266	keystroke_a	a	n/a
17.4035	0.06	34807	keystroke_t	t	n/a
17.493	0.12	34986	keystroke_i	i	n/a
21.3185	0.345	42637	keystroke_Key.cmd	Key.cmd	n/a
21.5435	0.105	43087	keystroke_v	v	n/a
25.6855	10.6195	51371	prompt	n/a	the quick brown fox jumps over a lazy dog\n
29.3585	0.09	58717	keystroke_t	t	n/a
29.463	0.135	58926	keystroke_h	h	n/a
29.703	0.135	59406	keystroke_e	e	n/a
29.943	0.09	59886	keystroke_Key.space	Key.space	n/a
30.0785	0.1195	60157	keystroke_q	q	n/a
30.2435	0.135	60487	keystroke_u	u	n/a
30.348	0.09	60696	keystroke_i	i	n/a
30.4235	0.1195	60847	keystroke_c	c	n/a
30.588	0.15	61176	keystroke_k	k	n/a
30.708	0.12	61416	keystroke_Key.space	Key.space	n/a
30.979	0.074	61958	keystroke_b	b	n/a
31.068	0.09	62136	keystroke_r	r	n/a
31.2485	0.0895	62497	keystroke_o	o	n/a
31.3685	0.0745	62737	keystroke_w	w	n/a
31.518	0.15	63036	keystroke_n	n	n/a
31.638	0.105	63276	keystroke_Key.space	Key.space	n/a
31.878	0.075	63756	keystroke_f	f	n/a
31.998	0.06	63996	keystroke_o	o	n/a
32.178	0.15	64356	keystroke_x	x	n/a
32.3735	0.1345	64747	keystroke_Key.space	Key.space	n/a
32.643	0.105	65286	keystroke_j	j	n/a
32.868	0.075	65736	keystroke_u	u	n/a
33.1085	0.1345	66217	keystroke_m	m	n/a
33.318	0.075	66636	keystroke_p	p	n/a
33.438	0.1355	66876	keystroke_s	s	n/a
33.618	0.12	67236	keystroke_Key.space	Key.space	n/a
33.828	0.105	67656	keystroke_o	o	n/a
33.948	0.105	67896	keystroke_v	v	n/a
34.1735	0.1045	68347	keystroke_e	e	n/a
34.248	0.0905	68496	keystroke_r	r	n/a
34.353	0.1205	68706	keystroke_Key.space	Key.space	n/a
34.458	0.075	68916	keystroke_a	a	n/a
34.563	0.09	69126	keystroke_Key.space	Key.space	n/a
34.683	0.105	69366	keystroke_l	l	n/a
34.803	0.1055	69606	keystroke_a	a	n/a
35.043	0.12	70086	keystroke_z	z	n/a
35.298	0.09	70596	keystroke_y	y	n/a
35.508	0.09	71016	keystroke_Key.space	Key.space	n/a
35.703	0.15	71406	keystroke_d	d	n/a
35.838	0.09	71676	keystroke_o	o	n/a
36.033	0.075	72066	keystroke_g	g	n/a
36.213	0.09	72426	keystroke_Key.enter	Key.enter	n/a
36.308	8.531	72616	prompt	n/a	reads aviation order babies\n
37.068	0.1205	74136	keystroke_r	r	n/a
37.128	0.18	74256	keystroke_e	e	n/a
37.233	0.105	74466	keystroke_a	a	n/a
37.443	0.15	74886	keystroke_d	d	n/a
37.578	0.06	75156	keystroke_s	s	n/a
37.698	0.105	75396	keystroke_Key.space	Key.space	n/a
37.848	0.1205	75696	keystroke_a	a	n/a
38.088	0.12	76176	keystroke_v	v	n/a
38.283	0.0905	76566	keystroke_i	i	n/a
38.358	0.1055	76716	keystroke_a	a	n/a
38.598	0.0755	77196	keystroke_t	t	n/a
38.688	0.1355	77376	keystroke_i	i	n/a
38.748	0.195	77496	keystroke_o	o	n/a
38.868	0.165	77736	keystroke_n	n	n/a
39.018	0.1055	78036	keystroke_Key.space	Key.space	n/a
39.288	0.105	78576	keystroke_o	o	n/a
39.483	0.075	78966	keystroke_r	r	n/a
40.0835	0.09	80167	keystroke_g	g	n/a
40.608	0.075	81216	keystroke_Key.backspace	Key.backspace	n/a
40.698	0.076	81396	keystroke_f	f	n/a
40.938	0.12	81876	keystroke_e	e	n/a
40.998	0.105	81996	keystroke_r	r	n/a
41.493	0.06	82986	keystroke_Key.backspace	Key.backspace	n/a
41.658	0.075	83316	keystroke_Key.backspace	Key.backspace	n/a
41.8235	0.0745	83647	keystroke_Key.backspace	Key.backspace	n/a
41.988	0.075	83976	keystroke_d	d	n/a
42.258	0.15	84516	keystroke_e	e	n/a
42.348	0.105	84696	keystroke_r	r	n/a
42.5285	0.1045	85057	keystroke_Key.space	Key.space	n/a
43.008	0.135	86016	keystroke_b	b	n/a
43.353	0.105	86706	keystroke_a	a	n/a
43.788	0.0755	87576	keystroke_b	b	n/a
44.2235	0.09	88447	keystroke_i	i	n/a
44.328	0.075	88656	keystroke_e	e	n/a
44.478	0.12	88956	keystroke_s	s	n/a
44.748	0.09	89496	keystroke_Key.enter	Key.enter	n/a
44.842	8.6825	89684	prompt	n/a	transcript james compensation stories\n
45.633	0.135	91266	keystroke_t	t	n/a
45.738	0.1055	91476	keystroke_r	r	n/a
45.813	0.12	91626	keystroke_a	a	n/a
45.963	0.105	91926	keystroke_n	n	n/a
46.0235	0.1195	92047	keystroke_s	s	n/a
46.263	0.12	92526	keystroke_c	c	n/a
46.624	0.104	93248	keystroke_r	r	n/a
46.7585	0.1045	93517	keystroke_i	i	n/a
46.968	0.09	93936	keystroke_p	p	n/a
47.074	0.089	94148	keystroke_t	t	n/a
47.238	0.12	94476	keystroke_Key.space	Key.space	n/a
47.733	0.075	95466	keystroke_j	j	n/a
48.168	0.075	96336	keystroke_a	a	n/a
48.513	0.12	97026	keystroke_m	m	n/a
48.663	0.09	97326	keystroke_e	e	n/a
48.828	0.105	97656	keystroke_s	s	n/a
48.9935	0.0895	97987	keystroke_Key.space	Key.space	n/a
49.278	0.12	98556	keystroke_c	c	n/a
49.4135	0.1195	98827	keystroke_o	o	n/a
49.4735	0.1195	98947	keystroke_m	m	n/a
49.683	0.0905	99366	keystroke_p	p	n/a
49.848	0.105	99696	keystroke_e	e	n/a
50.103	0.09	100206	keystroke_n	n	n/a
50.224	0.134	100448	keystroke_s	s	n/a
50.898	0.09	101796	keystroke_a	a	n/a
51.1235	0.0745	102247	keystroke_t	t	n/a
51.213	0.1355	102426	keystroke_i	i	n/a
51.274	0.164	102548	keystroke_o	o	n/a
51.4235	0.1045	102847	keystroke_n	n	n/a
51.498	0.105	102996	keystroke_Key.space	Key.space	n/a
51.7235	0.09	103447	keystroke_s	s	n/a
51.918	0.09	103836	keystroke_t	t	n/a
52.0685	0.0745	104137	keystroke_o	o	n/a
52.158	0.1055	104316	keystroke_r	r	n/a
52.248	0.105	104496	keystroke_e	e	n/a
52.7735	0.0595	105547	keystroke_Key.backspace	Key.backspace	n/a
53.043	0.106	106086	keystroke_i	i	n/a
53.118	0.09	106236	keystroke_e	e	n/a
53.268	0.1055	106536	keystroke_s	s	n/a
53.4185	0.105	106837	keystroke_Key.enter	Key.enter	n/a
53.528	8.1565	107056	prompt	n/a	estonia laura pottery fellowship\n
54.288	0.09	108576	keystroke_e	e	n/a
54.543	0.105	109086	keystroke_s	s	n/a
54.798	0.0755	109596	keystroke_t	t	n/a
54.9635	0.0895	109927	keystroke_o	o	n/a
55.1735	0.0745	110347	keystroke_n	n	n/a
55.398	0.0755	110796	keystroke_i	i	n/a
55.518	0.0905	111036	keystroke_a	a	n/a
55.788	0.12	111576	keystroke_Key.space	Key.space	n/a
56.013	0.1055	112026	keystroke_l	l	n/a
56.118	0.09	112236	keystroke_a	a	n/a
56.3135	0.0745	112627	keystroke_u	u	n/a
56.583	0.105	113166	keystroke_r	r	n/a
56.6735	0.1195	113347	keystroke_a	a	n/a
56.943	0.105	113886	keystroke_Key.space	Key.space	n/a
57.3485	0.1495	114697	keystroke_p	p	n/a
57.453	0.1205	114906	keystroke_o	o	n/a
57.843	0.045	115686	keystroke_t	t	n/a
57.9935	0.0895	115987	keystroke_t	t	n/a
58.1735	0.135	116347	keystroke_e	e	n/a
58.263	0.09	116526	keystroke_r	r	n/a
58.488	0.1055	116976	keystroke_y	y	n/a
58.578	0.105	117156	keystroke_Key.space	Key.space	n/a
59.103	0.1205	118206	keystroke_e	e	n/a
59.5985	0.1195	119197	keystroke_Key.backspace	Key.backspace	n/a
59.703	0.105	119406	keystroke_f	f	n/a
59.7785	0.1195	119557	keystroke_e	e	n/a
60.243	0.075	120486	keystroke_l	l	n/a
60.424	0.059	120848	keystroke_l	l	n/a
60.633	0.075	121266	keystroke_o	o	n/a
60.7235	0.0895	121447	keystroke_w	w	n/a
60.963	0.135	121926	keystroke_s	s	n/a
61.0685	0.2245	122137	keystroke_h	h	n/a
61.188	0.136	122376	keystroke_i	i	n/a
61.2635	0.1345	122527	keystroke_p	p	n/a
61.5785	0.1045	123157	keystroke_Key.enter	Key.enter	n/a
61.6875	7.392	123375	prompt	n/a	powell darwin pursuant player\n
62.4035	0.1645	124807	keystroke_p	p	n/a
62.508	0.105	125016	keystroke_o	o	n/a
62.628	0.1205	125256	keystroke_w	w	n/a
62.7035	0.105	125407	keystroke_e	e	n/a
63.033	0.0905	126066	keystroke_l	l	n/a
63.228	0.09	126456	keystroke_l	l	n/a
63.378	0.12	126756	keystroke_Key.space	Key.space	n/a
63.7085	0.1345	127417	keystroke_d	d	n/a
63.7985	0.1195	127597	keystroke_a	a	n/a
64.0235	0.0895	128047	keystroke_r	r	n/a
64.293	0.09	128586	keystroke_w	w	n/a
64.503	0.15	129006	keystroke_i	i	n/a
64.5935	0.135	129187	keystroke_n	n	n/a
64.8935	0.12	129787	keystroke_Key.space	Key.space	n/a
65.2685	0.09	130537	keystroke_p	p	n/a
65.643	0.12	131286	keystroke_u	u	n/a
65.8235	0.0595	131647	keystroke_r	r	n/a
66.033	0.1355	132066	keystroke_s	s	n/a
66.663	0.105	133326	keystroke_u	u	n/a
66.9335	0.075	133867	keystroke_a	a	n/a
67.143	0.105	134286	keystroke_n	n	n/a
67.324	0.089	134648	keystroke_t	t	n/a
67.4585	0.1345	134917	keystroke_Key.space	Key.space	n/a
67.9985	0.1795	135997	keystroke_p	p	n/a
68.1185	0.105	136237	keystroke_l	l	n/a
68.238	0.12	136476	keystroke_a	a	n/a
68.5235	0.1045	137047	keystroke_y	y	n/a
68.643	0.12	137286	keystroke_e	e	n/a
68.703	0.1055	137406	keystroke_r	r	n/a
68.9735	0.1045	137947	keystroke_Key.enter	Key.enter	n/a
69.0825	9.762	138165	prompt	n/a	saved visit mysterious northeast\n
69.933	0.195	139866	keystroke_s	s	n/a
70.098	0.1205	140196	keystroke_a	a	n/a
70.4585	0.1045	140917	keystroke_v	v	n/a
70.6385	0.09	141277	keystroke_e	e	n/a
70.8635	0.0745	141727	keystroke_d	d	n/a
71.0435	0.1195	142087	keystroke_Key.space	Key.space	n/a
71.4635	0.12	142927	keystroke_v	v	n/a
71.7785	0.105	143557	keystroke_i	i	n/a
72.1235	0.1045	144247	keystroke_s	s	n/a
72.259	0.104	144518	keystroke_i	i	n/a
72.408	0.09	144816	keystroke_t	t	n/a
72.6185	0.1195	145237	keystroke_Key.space	Key.space	n/a
73.0385	0.0745	146077	keystroke_m	m	n/a
73.368	0.075	146736	keystroke_y	y	n/a
73.533	0.1355	147066	keystroke_s	s	n/a
73.8785	0.1195	147757	keystroke_t	t	n/a
73.9835	0.165	147967	keystroke_e	e	n/a
74.1335	0.105	148267	keystroke_r	r	n/a
74.3435	0.195	148687	keystroke_i	i	n/a
74.4785	0.1195	148957	keystroke_o	o	n/a
74.6135	0.105	149227	keystroke_s	s	n/a
74.7635	0.1195	149527	keystroke_Key.space	Key.space	n/a
75.0785	0.12	150157	keystroke_n	n	n/a
75.3035	0.075	150607	keystroke_o	o	n/a
75.424	0.089	150848	keystroke_r	r	n/a
76.5935	0.1045	153187	keystroke_t	t	n/a
77.4035	0.0745	154807	keystroke_h	h	n/a
77.5385	0.1045	155077	keystroke_e	e	n/a
77.7035	0.105	155407	keystroke_s	s	n/a
78.1385	0.075	156277	keystroke_Key.backspace	Key.backspace	n/a
78.2285	0.1645	156457	keystroke_a	a	n/a
78.303	0.1505	156606	keystroke_s	s	n/a
78.5885	0.1045	157177	keystroke_t	t	n/a
78.738	0.105	157476	keystroke_Key.enter	Key.enter	n/a
78.8495	8.4705	157699	prompt	n/a	jewel supporting profession gospel\n
79.7435	0.135	159487	keystroke_j	j	n/a
80.0135	0.12	160027	keystroke_e	e	n/a
80.4635	0.075	160927	keystroke_w	w	n/a
80.7185	0.105	161437	keystroke_e	e	n/a
80.9735	0.09	161947	keystroke_l	l	n/a
81.0935	0.12	162187	keystroke_Key.space	Key.space	n/a
81.5735	0.105	163147	keystroke_s	s	n/a
81.7535	0.12	163507	keystroke_u	u	n/a
82.0835	0.045	164167	keystroke_p	p	n/a
82.2185	0.12	164437	keystroke_p	p	n/a
82.3085	0.09	164617	keystroke_o	o	n/a
82.5485	0.09	165097	keystroke_r	r	n/a
82.7585	0.075	165517	keystroke_t	t	n/a
82.8485	0.12	165697	keystroke_i	i	n/a
82.9385	0.105	165877	keystroke_n	n	n/a
83.0885	0.075	166177	keystroke_g	g	n/a
83.2235	0.105	166447	keystroke_Key.space	Key.space	n/a
83.524	0.0895	167048	keystroke_p	p	n/a
83.6285	0.09	167257	keystroke_r	r	n/a
83.7635	0.09	167527	keystroke_o	o	n/a
84.4535	0.12	168907	keystroke_f	f	n/a
84.8285	0.0895	169657	keystroke_e	e	n/a
85.0085	0.075	170017	keystroke_s	s	n/a
85.2035	0.09	170407	keystroke_s	s	n/a
85.3385	0.1645	170677	keystroke_i	i	n/a
85.3985	0.165	170797	keystroke_o	o	n/a
85.5185	0.12	171037	keystroke_n	n	n/a
85.5935	0.12	171187	keystroke_Key.space	Key.space	n/a
85.9235	0.105	171847	keystroke_g	g	n/a
86.0735	0.075	172147	keystroke_o	o	n/a
86.3285	0.105	172657	keystroke_s	s	n/a
86.5535	0.105	173107	keystroke_p	p	n/a
86.7335	0.09	173467	keystroke_e	e	n/a
86.8985	0.105	173797	keystroke_l	l	n/a
87.2135	0.105	174427	keystroke_Key.enter	Key.enter	n/a
87.324	9.4005	174648	prompt	n/a	triumph shipment lined gilbert\n
88.1735	0.105	176347	keystroke_t	t	n/a
88.2635	0.12	176527	keystroke_r	r	n/a
88.8035	0.12	177607	keystroke_i	i	n/a
89.1785	0.09	178357	keystroke_u	u	n/a
89.5835	0.135	179167	keystroke_m	m	n/a
89.9135	0.105	179827	keystroke_p	p	n/a
90.2135	0.105	180427	keystroke_h	h	n/a
90.6335	0.105	181267	keystroke_Key.space	Key.space	n/a
90.8585	0.105	181717	keystroke_s	s	n/a
91.0245	0.119	182049	keystroke_h	h	n/a
91.8035	0.165	183607	keystroke_i	i	n/a
91.9685	0.12	183937	keystroke_p	p	n/a
92.6285	0.135	185257	keystroke_m	m	n/a
92.8385	0.09	185677	keystroke_e	e	n/a
92.9885	0.075	185977	keystroke_n	n	n/a
93.1685	0.06	186337	keystroke_t	t	n/a
93.2435	0.12	186487	keystroke_Key.space	Key.space	n/a
93.4385	0.15	186877	keystroke_l	l	n/a
93.5285	0.15	187057	keystroke_i	i	n/a
93.6485	0.105	187297	keystroke_n	n	n/a
93.7385	0.075	187477	keystroke_e	e	n/a
93.9335	0.09	187867	keystroke_d	d	n/a
94.0535	0.12	188107	keystroke_Key.space	Key.space	n/a
94.3535	0.105	188707	keystroke_g	g	n/a
94.8335	0.12	189667	keystroke_i	i	n/a
95.1185	0.0905	190237	keystroke_l	l	n/a
95.524	0.1045	191048	keystroke_b	b	n/a
95.8985	0.12	191797	keystroke_e	e	n/a
96.0335	0.105	192067	keystroke_r	r	n/a
96.3335	0.075	192667	keystroke_t	t	n/a
96.6185	0.105	193237	keystroke_Key.enter	Key.enter	n/a
96.728	7.9765	193456	prompt	n/a	brake participate factory tablet\n
97.8335	0.12	195667	keystroke_b	b	n/a
98.3285	0.135	196657	keystroke_r	r	n/a
98.5835	0.12	197167	keystroke_a	a	n/a
98.7635	0.105	197527	keystroke_k	k	n/a
98.8535	0.12	197707	keystroke_e	e	n/a
99.0635	0.12	198127	keystroke_Key.space	Key.space	n/a
99.4535	0.075	198907	keystroke_p	p	n/a
99.5435	0.18	199087	keystroke_a	a	n/a
99.7085	0.09	199417	keystroke_r	r	n/a
99.9335	0.075	199867	keystroke_t	t	n/a
100.0385	0.12	200077	keystroke_i	i	n/a
100.3535	0.135	200707	keystroke_c	c	n/a
100.5035	0.075	201007	keystroke_i	i	n/a
100.8035	0.09	201607	keystroke_p	p	n/a
100.8785	0.12	201757	keystroke_a	a	n/a
101.1035	0.135	202207	keystroke_t	t	n/a
101.1935	0.12	202387	keystroke_e	e	n/a
101.3285	0.135	202657	keystroke_Key.space	Key.space	n/a
101.5535	0.165	203107	keystroke_f	f	n/a
101.6885	0.135	203377	keystroke_a	a	n/a
101.8985	0.105	203797	keystroke_c	c	n/a
102.1535	0.09	204307	keystroke_t	t	n/a
102.2885	0.1055	204577	keystroke_o	o	n/a
102.3635	0.105	204727	keystroke_r	r	n/a
102.6035	0.075	205207	keystroke_y	y	n/a
102.8285	0.075	205657	keystroke_Key.space	Key.space	n/a
103.3685	0.12	206737	keystroke_t	t	n/a
103.4885	0.09	206977	keystroke_a	a	n/a
103.7885	0.09	207577	keystroke_b	b	n/a
104.0585	0.075	208117	keystroke_l	l	n/a
104.1485	0.075	208297	keystroke_e	e	n/a
104.4035	0.09	208807	keystroke_t	t	n/a
104.6135	0.09	209227	keystroke_Key.enter	Key.enter	n/a
104.708	8.8315	209416	prompt	n/a	specializing cooper syndicate delta\n
105.5435	0.135	211087	keystroke_s	s	n/a
105.7085	0.09	211417	keystroke_p	p	n/a
105.8285	0.09	211657	keystroke_e	e	n/a
106.0235	0.135	212047	keystroke_c	c	n/a
106.1735	0.075	212347	keystroke_i	i	n/a
106.2635	0.09	212527	keystroke_a	a	n/a
106.3685	0.18	212737	keystroke_l	l	n/a
106.5035	0.09	213007	keystroke_i	i	n/a
106.8485	0.105	213697	keystroke_z	z	n/a
106.9685	0.165	213937	keystroke_i	i	n/a
107.1035	0.1205	214207	keystroke_n	n	n/a
107.2535	0.09	214507	keystroke_g	g	n/a
107.4485	0.135	214897	keystroke_Key.space	Key.space	n/a
108.0485	0.105	216097	keystroke_c	c	n/a
108.2885	0.06	216577	keystroke_o	o	n/a
108.454	0.0745	216908	keystroke_o	o	n/a
108.7835	0.09	217567	keystroke_p	p	n/a
108.9185	0.18	217837	keystroke_e	e	n/a
109.0535	0.09	218107	keystroke_r	r	n/a
109.3835	0.12	218767	keystroke_Key.space	Key.space	n/a
109.6835	0.105	219367	keystroke_s	s	n/a
109.8485	0.075	219697	keystroke_y	y	n/a
110.2685	0.135	220537	keystroke_n	n	n/a
110.4635	0.105	220927	keystroke_d	d	n/a
110.7485	0.06	221497	keystroke_i	i	n/a
110.9585	0.165	221917	keystroke_c	c	n/a
111.0785	0.12	222157	keystroke_a	a	n/a
111.3335	0.12	222667	keystroke_t	t	n/a
111.4085	0.12	222817	keystroke_e	e	n/a
111.5735	0.135	223147	keystroke_Key.space	Key.space	n/a
111.8585	0.09	223717	keystroke_d	d	n/a
112.0685	0.09	224137	keystroke_e	e	n/a
112.1885	0.12	224377	keystroke_l	l	n/a
112.3535	0.09	224707	keystroke_a	a	n/a
112.6535	0.105	225307	keystroke_t	t	n/a
113.0285	0.045	226057	keystroke_Key.backspace	Key.backspace	n/a
113.179	0.0745	226358	keystroke_Key.backspace	Key.backspace	n/a
113.2235	0.12	226447	keystroke_t	t	n/a
113.2985	0.12	226597	keystroke_a	a	n/a
113.4185	0.12	226837	keystroke_Key.enter	Key.enter	n/a
113.5425	7.272	227085	prompt	n/a	nascar task aside vbulletin\n
114.3785	0.105	228757	keystroke_n	n	n/a
114.4385	0.165	228877	keystroke_a	a	n/a
114.5435	0.12	229087	keystroke_s	s	n/a
115.0235	0.12	230047	keystroke_c	c	n/a
115.0685	0.165	230137	keystroke_a	a	n/a
115.3385	0.105	230677	keystroke_r	r	n/a
115.5485	0.135	231097	keystroke_Key.space	Key.space	n/a
116.0585	0.105	232117	keystroke_t	t	n/a
116.1335	0.135	232267	keystroke_a	a	n/a
116.269	0.1195	232538	keystroke_s	s	n/a
116.464	0.1045	232928	keystroke_k	k	n/a
116.6285	0.12	233257	keystroke_Key.space	Key.space	n/a
116.8985	0.18	233797	keystroke_a	a	n/a
117.0035	0.135	234007	keystroke_s	s	n/a
117.2585	0.075	234517	keystroke_i	i	n/a
117.3935	0.105	234787	keystroke_d	d	n/a
117.6185	0.075	235237	keystroke_e	e	n/a
117.7385	0.12	235477	keystroke_Key.space	Key.space	n/a
118.2035	0.03	236407	keystroke_v	v	n/a
118.8935	0.075	237787	keystroke_b	b	n/a
119.4185	0.09	238837	keystroke_u	u	n/a
119.6585	0.06	239317	keystroke_l	l	n/a
119.8235	0.075	239647	keystroke_l	l	n/a
119.9735	0.09	239947	keystroke_e	e	n/a
120.2435	0.105	240487	keystroke_t	t	n/a
120.3635	0.15	240727	keystroke_i	i	n/a
120.4685	0.12	240937	keystroke_n	n	n/a
120.7235	0.09	241447	keystroke_Key.enter	Key.enter	n/a
120.8175	7.227	241635	prompt	n/a	mike avoiding mozilla important\n
121.6235	0.12	243247	keystroke_m	m	n/a
121.8635	0.075	243727	keystroke_i	i	n/a
122.0885	0.075	244177	keystroke_k	k	n/a
122.1785	0.09	244357	keystroke_e	e	n/a
122.3285	0.105	244657	keystroke_Key.space	Key.space	n/a
122.4185	0.12	244837	keystroke_a	a	n/a
123.0785	0.12	246157	keystroke_v	v	n/a
123.4085	0.135	246817	keystroke_o	o	n/a
123.4835	0.12	246967	keystroke_i	i	n/a
123.649	0.0895	247298	keystroke_d	d	n/a
123.8585	0.195	247717	keystroke_i	i	n/a
123.9485	0.18	247897	keystroke_n	n	n/a
124.0985	0.12	248197	keystroke_g	g	n/a
124.2785	0.12	248557	keystroke_Key.space	Key.space	n/a
124.6085	0.09	249217	keystroke_m	m	n/a
124.8485	0.105	249697	keystroke_o	o	n/a
125.3585	0.135	250717	keystroke_z	z	n/a
125.5985	0.075	251197	keystroke_i	i	n/a
125.8685	0.03	251737	keystroke_l	l	n/a
126.0035	0.09	252007	keystroke_l	l	n/a
126.109	0.1045	252218	keystroke_a	a	n/a
126.3185	0.135	252637	keystroke_Key.space	Key.space	n/a
126.5735	0.165	253147	keystroke_i	i	n/a
126.6635	0.12	253327	keystroke_m	m	n/a
126.8585	0.12	253717	keystroke_p	p	n/a
126.9185	0.15	253837	keystroke_o	o	n/a
127.0835	0.09	254167	keystroke_r	r	n/a
127.3685	0.12	254737	keystroke_t	t	n/a
127.4735	0.105	254947	keystroke_a	a	n/a
127.6235	0.12	255247	keystroke_n	n	n/a
127.7735	0.105	255547	keystroke_t	t	n/a
127.9385	0.105	255877	keystroke_Key.enter	Key.enter	n/a
128.0475	5.562	256095	prompt	n/a	warm career operation little\n
128.8535	0.105	257707	keystroke_w	w	n/a
128.9735	0.135	257947	keystroke_a	a	n/a
129.1535	0.105	258307	keystroke_r	r	n/a
129.3185	0.12	258637	keystroke_m	m	n/a
129.6185	0.12	259237	keystroke_Key.space	Key.space	n/a
129.9785	0.165	259957	keystroke_c	c	n/a
130.0835	0.135	260167	keystroke_a	a	n/a
130.3835	0.12	260767	keystroke_r	r	n/a
130.6535	0.075	261307	keystroke_e	e	n/a
130.8335	0.09	261667	keystroke_e	e	n/a
131.0135	0.105	262027	keystroke_r	r	n/a
131.2235	0.12	262447	keystroke_Key.space	Key.space	n/a
131.4935	0.12	262987	keystroke_o	o	n/a
131.5685	0.12	263137	keystroke_p	p	n/a
131.6435	0.135	263287	keystroke_e	e	n/a
131.7635	0.09	263527	keystroke_r	r	n/a
131.8835	0.12	263767	keystroke_a	a	n/a
132.0335	0.12	264067	keystroke_t	t	n/a
132.229	0.1045	264458	keystroke_i	i	n/a
132.2585	0.18	264517	keystroke_o	o	n/a
132.3635	0.15	264727	keystroke_n	n	n/a
132.4835	0.105	264967	keystroke_Key.space	Key.space	n/a
132.7085	0.12	265417	keystroke_l	l	n/a
132.7985	0.105	265597	keystroke_i	i	n/a
132.9335	0.0755	265867	keystroke_t	t	n/a
133.0985	0.105	266197	keystroke_t	t	n/a
133.2485	0.105	266497	keystroke_l	l	n/a
133.3085	0.12	266617	keystroke_e	e	n/a
133.5185	0.09	267037	keystroke_Key.enter	Key.enter	n/a
133.6125	9.913	267225	prompt	n/a	basename beginner adoption verizon\n
134.5535	0.09	269107	keystroke_b	b	n/a
134.8085	0.165	269617	keystroke_a	a	n/a
134.9435	0.09	269887	keystroke_s	s	n/a
135.1535	0.09	270307	keystroke_e	e	n/a
135.4235	0.105	270847	keystroke_n	n	n/a
135.5135	0.09	271027	keystroke_a	a	n/a
135.6635	0.105	271327	keystroke_m	m	n/a
135.7385	0.09	271477	keystroke_e	e	n/a
135.9185	0.105	271837	keystroke_Key.space	Key.space	n/a
136.2035	0.12	272407	keystroke_b	b	n/a
136.5335	0.105	273067	keystroke_e	e	n/a
136.9835	0.09	273967	keystroke_g	g	n/a
137.1335	0.09	274267	keystroke_i	i	n/a
137.329	0.0895	274658	keystroke_n	n	n/a
137.4935	0.105	274987	keystroke_n	n	n/a
137.5685	0.15	275137	keystroke_e	e	n/a
137.6735	0.105	275347	keystroke_r	r	n/a
137.8535	0.105	275707	keystroke_Key.space	Key.space	n/a
138.1835	0.105	276367	keystroke_a	a	n/a
138.3935	0.105	276787	keystroke_d	d	n/a
138.7985	0.105	277597	keystroke_o	o	n/a
139.0685	0.09	278137	keystroke_p	p	n/a
139.2185	0.09	278437	keystroke_t	t	n/a
139.3685	0.15	278737	keystroke_i	i	n/a
139.4585	0.165	278917	keystroke_o	o	n/a
139.5785	0.165	279157	keystroke_n	n	n/a
139.7285	0.105	279457	keystroke_Key.space	Key.space	n/a
140.0585	0.12	280117	keystroke_v	v	n/a
140.3585	0.1505	280717	keystroke_e	e	n/a
140.4335	0.12	280867	keystroke_r	r	n/a
140.6735	0.075	281347	keystroke_s	s	n/a
140.8385	0.12	281677	keystroke_i	i	n/a
141.4535	0.06	282907	keystroke_Key.backspace	Key.backspace	n/a
141.6185	0.075	283237	keystroke_Key.backspace	Key.backspace	n/a
142.3685	0.105	284737	keystroke_i	i	n/a
142.8335	0.12	285667	keystroke_z	z	n/a
142.9685	0.165	285937	keystroke_o	o	n/a
143.074	0.1495	286148	keystroke_n	n	n/a
143.4185	0.105	286837	keystroke_Key.enter	Key.enter	n/a
143.529	6.8955	287058	prompt	n/a	site muze blank regression\n
144.3635	0.12	288727	keystroke_s	s	n/a
144.4985	0.09	288997	keystroke_i	i	n/a
144.8435	0.09	289687	keystroke_t	t	n/a
144.9185	0.105	289837	keystroke_e	e	n/a
145.0985	0.135	290197	keystroke_Key.space	Key.space	n/a
145.3535	0.12	290707	keystroke_m	m	n/a
145.639	0.0745	291278	keystroke_u	u	n/a
145.9235	0.105	291847	keystroke_z	z	n/a
146.1785	0.09	292357	keystroke_e	e	n/a
146.4635	0.12	292927	keystroke_Key.space	Key.space	n/a
147.0935	0.12	294187	keystroke_b	b	n/a
147.5285	0.09	295057	keystroke_l	l	n/a
147.6335	0.12	295267	keystroke_a	a	n/a
147.7685	0.12	295537	keystroke_n	n	n/a
147.9935	0.15	295987	keystroke_k	k	n/a
148.1285	0.105	296257	keystroke_Key.space	Key.space	n/a
148.519	0.0895	297038	keystroke_r	r	n/a
148.5785	0.12	297157	keystroke_e	e	n/a
148.8035	0.135	297607	keystroke_g	g	n/a
149.1635	0.06	298327	keystroke_r	r	n/a
149.1935	0.12	298387	keystroke_e	e	n/a
149.5235	0.105	299047	keystroke_s	s	n/a
149.734	0.0895	299468	keystroke_s	s	n/a
149.8835	0.105	299767	keystroke_i	i	n/a
149.9135	0.18	299827	keystroke_o	o	n/a
150.0485	0.15	300097	keystroke_n	n	n/a
150.3335	0.09	300667	keystroke_Key.enter	Key.enter	n/a
150.4285	5.471	300857	prompt	n/a	clear manhattan prime rate\n
151.3385	0.12	302677	keystroke_c	c	n/a
151.5635	0.105	303127	keystroke_l	l	n/a
151.7585	0.135	303517	keystroke_e	e	n/a
151.8335	0.135	303667	keystroke_a	a	n/a
151.9985	0.105	303997	keystroke_r	r	n/a
152.1785	0.135	304357	keystroke_Key.space	Key.space	n/a
152.5085	0.135	305017	keystroke_m	m	n/a
152.6285	0.09	305257	keystroke_a	a	n/a
152.7785	0.09	305557	keystroke_n	n	n/a
153.1685	0.09	306337	keystroke_h	h	n/a
153.2885	0.12	306577	keystroke_a	a	n/a
153.529	0.0595	307058	keystroke_t	t	n/a
153.6635	0.12	307327	keystroke_t	t	n/a
153.8285	0.12	307657	keystroke_a	a	n/a
153.8735	0.15	307747	keystroke_n	n	n/a
154.0835	0.12	308167	keystroke_Key.space	Key.space	n/a
154.3385	0.09	308677	keystroke_p	p	n/a
154.4435	0.09	308887	keystroke_r	r	n/a
154.5635	0.09	309127	keystroke_i	i	n/a
154.7585	0.135	309517	keystroke_m	m	n/a
154.8785	0.105	309757	keystroke_e	e	n/a
155.0435	0.12	310087	keystroke_Key.space	Key.space	n/a
155.3735	0.09	310747	keystroke_r	r	n/a
155.4335	0.105	310867	keystroke_a	a	n/a
155.6135	0.105	311227	keystroke_t	t	n/a
155.6885	0.105	311377	keystroke_e	e	n/a
155.8235	0.075	311647	keystroke_Key.enter	Key.enter	n/a
155.9025	6.147	311805	prompt	n/a	speaking refers donation occur\n
156.6785	0.09	313357	keystroke_s	s	n/a
156.7985	0.075	313597	keystroke_p	p	n/a
156.9035	0.15	313807	keystroke_e	e	n/a
157.0085	0.135	314017	keystroke_a	a	n/a
157.1585	0.12	314317	keystroke_k	k	n/a
157.3985	0.12	314797	keystroke_i	i	n/a
157.5035	0.12	315007	keystroke_n	n	n/a
157.6385	0.075	315277	keystroke_g	g	n/a
157.7735	0.09	315547	keystroke_Key.space	Key.space	n/a
158.0285	0.135	316057	keystroke_r	r	n/a
158.1335	0.12	316267	keystroke_e	e	n/a
158.3585	0.135	316717	keystroke_f	f	n/a
158.4635	0.105	316927	keystroke_e	e	n/a
158.6135	0.135	317227	keystroke_r	r	n/a
158.9285	0.105	317857	keystroke_s	s	n/a
159.3035	0.12	318607	keystroke_Key.space	Key.space	n/a
159.7535	0.09	319507	keystroke_d	d	n/a
159.8735	0.105	319747	keystroke_o	o	n/a
160.2185	0.105	320437	keystroke_n	n	n/a
160.3385	0.075	320677	keystroke_a	a	n/a
160.5335	0.075	321067	keystroke_t	t	n/a
160.5935	0.15	321187	keystroke_i	i	n/a
160.6535	0.15	321307	keystroke_o	o	n/a
160.7585	0.12	321517	keystroke_n	n	n/a
160.879	0.0595	321758	keystroke_Key.space	Key.space	n/a
161.1335	0.0155	322267	keystroke_o	o	n/a
161.1485	0.105	322297	keystroke_c	c	n/a
161.374	0.0895	322748	keystroke_c	c	n/a
161.5085	0.105	323017	keystroke_u	u	n/a
161.7035	0.09	323407	keystroke_r	r	n/a
161.9435	0.105	323887	keystroke_Key.enter	Key.enter	n/a
162.0525	9.312	324105	prompt	n/a	private jelsoft coffee pharmacy\n
162.844	0.0895	325688	keystroke_p	p	n/a
163.039	0.0745	326078	keystroke_r	r	n/a
163.1735	0.09	326347	keystroke_i	i	n/a
163.4135	0.1355	326827	keystroke_v	v	n/a
163.5185	0.12	327037	keystroke_a	a	n/a
163.7885	0.105	327577	keystroke_t	t	n/a
163.8485	0.12	327697	keystroke_e	e	n/a
164.0585	0.135	328117	keystroke_Key.space	Key.space	n/a
164.5535	0.0905	329107	keystroke_j	j	n/a
164.6435	0.105	329287	keystroke_e	e	n/a
164.9285	0.12	329857	keystroke_l	l	n/a
165.3185	0.105	330637	keystroke_s	s	n/a
165.5285	0.09	331057	keystroke_o	o	n/a
165.8435	0.105	331687	keystroke_f	f	n/a
166.0685	0.105	332137	keystroke_t	t	n/a
166.2185	0.1205	332437	keystroke_Key.space	Key.space	n/a
166.4885	0.135	332977	keystroke_c	c	n/a
166.6385	0.09	333277	keystroke_o	o	n/a
166.8635	0.075	333727	keystroke_d	d	n/a
167.0735	0.075	334147	keystroke_d	d	n/a
167.4635	0.075	334927	keystroke_Key.backspace	Key.backspace	n/a
167.6435	0.0605	335287	keystroke_Key.backspace	Key.backspace	n/a
167.8385	0.09	335677	keystroke_f	f	n/a
168.0185	0.09	336037	keystroke_f	f	n/a
168.2735	0.09	336547	keystroke_e	e	n/a
168.4535	0.09	336907	keystroke_e	e	n/a
168.5735	0.12	337147	keystroke_Key.space	Key.space	n/a
168.7985	0.105	337597	keystroke_p	p	n/a
168.9635	0.105	337927	keystroke_a	a	n/a
169.5635	0.045	339127	keystroke_Key.backspace	Key.backspace	n/a
169.8035	0.075	339607	keystroke_h	h	n/a
169.8935	0.135	339787	keystroke_a	a	n/a
170.1935	0.105	340387	keystroke_r	r	n/a
170.3885	0.12	340777	keystroke_m	m	n/a
170.4785	0.12	340957	keystroke_a	a	n/a
170.8235	0.105	341647	keystroke_c	c	n/a
170.9595	0.119	341919	keystroke_y	y	n/a
171.2735	0.09	342547	keystroke_Key.enter	Key.enter	n/a
171.369	8.5755	342738	prompt	n/a	medicare interventions electricity fastest\n
172.0835	0.12	344167	keystroke_m	m	n/a
172.1885	0.09	344377	keystroke_e	e	n/a
172.4135	0.09	344827	keystroke_d	d	n/a
172.5185	0.075	345037	keystroke_i	i	n/a
172.6535	0.165	345307	keystroke_c	c	n/a
172.7585	0.135	345517	keystroke_a	a	n/a
172.9685	0.15	345937	keystroke_r	r	n/a
173.089	0.1045	346178	keystroke_e	e	n/a
173.2535	0.135	346507	keystroke_Key.space	Key.space	n/a
173.5235	0.1505	347047	keystroke_i	i	n/a
173.6585	0.12	347317	keystroke_n	n	n/a
173.7635	0.12	347527	keystroke_t	t	n/a
173.8535	0.15	347707	keystroke_e	e	n/a
173.9885	0.075	347977	keystroke_r	r	n/a
174.2885	0.105	348577	keystroke_v	v	n/a
174.6785	0.075	349357	keystroke_e	e	n/a
174.8585	0.135	349717	keystroke_n	n	n/a
175.0685	0.075	350137	keystroke_t	t	n/a
175.2035	0.165	350407	keystroke_i	i	n/a
175.3085	0.135	350617	keystroke_o	o	n/a
175.4135	0.12	350827	keystroke_n	n	n/a
175.5035	0.09	351007	keystroke_s	s	n/a
175.684	0.1045	351368	keystroke_Key.space	Key.space	n/a
175.8785	0.105	351757	keystroke_e	e	n/a
176.0435	0.105	352087	keystroke_l	l	n/a
176.1635	0.105	352327	keystroke_e	e	n/a
176.6585	0.15	353317	keystroke_c	c	n/a
177.0935	0.12	354187	keystroke_t	t	n/a
177.1535	0.15	354307	keystroke_r	r	n/a
177.3335	0.075	354667	keystroke_i	i	n/a
177.5285	0.15	355057	keystroke_c	c	n/a
177.6935	0.075	355387	keystroke_i	i	n/a
177.8735	0.105	355747	keystroke_t	t	n/a
178.0535	0.075	356107	keystroke_y	y	n/a
178.2635	0.105	356527	keystroke_Key.space	Key.space	n/a
178.5935	0.12	357187	keystroke_f	f	n/a
178.6685	0.135	357337	keystroke_a	a	n/a
178.8335	0.09	357667	keystroke_s	s	n/a
179.0435	0.12	358087	keystroke_t	t	n/a
179.1485	0.105	358297	keystroke_e	e	n/a
179.4485	0.18	358897	keystroke_s	s	n/a
179.6435	0.12	359287	keystroke_t	t	n/a
179.8535	0.09	359707	keystroke_Key.enter	Key.enter	n/a
179.9475	6.417	359895	prompt	n/a	dairy inputs speaker commerce\n
180.7685	0.135	361537	keystroke_d	d	n/a
180.9185	0.09	361837	keystroke_a	a	n/a
181.0835	0.0905	362167	keystroke_i	i	n/a
181.1885	0.105	362377	keystroke_r	r	n/a
181.4285	0.075	362857	keystroke_y	y	n/a
181.5935	0.09	363187	keystroke_Key.space	Key.space	n/a
181.8185	0.1205	363637	keystroke_i	i	n/a
181.8485	0.18	363697	keystroke_n	n	n/a
182.1185	0.105	364237	keystroke_p	p	n/a
182.3735	0.06	364747	keystroke_u	u	n/a
183.0785	0.135	366157	keystroke_t	t	n/a
183.2585	0.135	366517	keystroke_s	s	n/a
183.4385	0.12	366877	keystroke_Key.space	Key.space	n/a
183.7835	0.12	367567	keystroke_s	s	n/a
183.9635	0.075	367927	keystroke_p	p	n/a
184.0835	0.12	368167	keystroke_e	e	n/a
184.1585	0.12	368317	keystroke_a	a	n/a
184.4435	0.105	368887	keystroke_k	k	n/a
184.5335	0.15	369067	keystroke_e	e	n/a
184.6235	0.12	369247	keystroke_r	r	n/a
184.7585	0.135	369517	keystroke_Key.space	Key.space	n/a
185.0135	0.135	370027	keystroke_c	c	n/a
185.149	0.0595	370298	keystroke_o	o	n/a
185.3735	0.06	370747	keystroke_m	m	n/a
185.5085	0.1205	371017	keystroke_m	m	n/a
185.6135	0.135	371227	keystroke_e	e	n/a
185.6735	0.105	371347	keystroke_r	r	n/a
185.9885	0.12	371977	keystroke_c	c	n/a
186.0485	0.15	372097	keystroke_e	e	n/a
186.2735	0.09	372547	keystroke_Key.enter	Key.enter	n/a
186.3685	9.6865	372737	prompt	n/a	song marco increasing graduation\n
187.309	0.1045	374618	keystroke_s	s	n/a
187.4285	0.135	374857	keystroke_o	o	n/a
187.5335	0.15	375067	keystroke_n	n	n/a
187.7135	0.105	375427	keystroke_g	g	n/a
187.8785	0.105	375757	keystroke_Key.space	Key.space	n/a
188.1335	0.135	376267	keystroke_m	m	n/a
188.2385	0.12	376477	keystroke_a	a	n/a
188.8235	0.105	377647	keystroke_r	r	n/a
189.1535	0.075	378307	keystroke_c	c	n/a
189.2435	0.075	378487	keystroke_o	o	n/a
189.4535	0.09	378907	keystroke_Key.space	Key.space	n/a
189.8135	0.15	379627	keystroke_i	i	n/a
189.8735	0.1805	379747	keystroke_n	n	n/a
190.0535	0.12	380107	keystroke_c	c	n/a
190.3835	0.15	380767	keystroke_r	r	n/a
190.474	0.1495	380948	keystroke_e	e	n/a
190.5485	0.15	381097	keystroke_a	a	n/a
190.9385	0.165	381877	keystroke_i	i	n/a
191.3885	0.075	382777	keystroke_Key.backspace	Key.backspace	n/a
191.4935	0.12	382987	keystroke_s	s	n/a
191.6585	0.135	383317	keystroke_i	i	n/a
191.7635	0.1055	383527	keystroke_n	n	n/a
191.8685	0.0905	383737	keystroke_g	g	n/a
192.0185	0.135	384037	keystroke_Key.space	Key.space	n/a
192.6185	0.18	385237	keystroke_g	g	n/a
192.7405	0.163	385481	keystroke_r	r	n/a
192.8435	0.1205	385687	keystroke_a	a	n/a
193.1285	0.12	386257	keystroke_d	d	n/a
193.2335	0.075	386467	keystroke_u	u	n/a
193.3385	0.105	386677	keystroke_a	a	n/a
193.6235	0.105	387247	keystroke_t	t	n/a
193.8935	0.09	387787	keystroke_a	a	n/a
194.1335	0.165	388267	keystroke_i	i	n/a
194.2095	0.164	388419	keystroke_o	o	n/a
194.3285	0.135	388657	keystroke_n	n	n/a
194.7635	0.06	389527	keystroke_Key.backspace	Key.backspace	n/a
194.9135	0.06	389827	keystroke_Key.backspace	Key.backspace	n/a
195.0785	0.06	390157	keystroke_Key.backspace	Key.backspace	n/a
195.2285	0.06	390457	keystroke_Key.backspace	Key.backspace	n/a
195.5135	0.165	391027	keystroke_i	i	n/a
195.6035	0.136	391207	keystroke_o	o	n/a
195.7235	0.105	391447	keystroke_n	n	n/a
195.9335	0.12	391867	keystroke_Key.enter	Key.enter	n/a
196.058	8.0365	392116	prompt	n/a	circle division electricity unlike\n
197.0435	0.135	394087	keystroke_c	c	n/a
197.239	0.0595	394478	keystroke_i	i	n/a
197.3735	0.09	394747	keystroke_r	r	n/a
197.6295	0.119	395259	keystroke_c	c	n/a
197.7635	0.09	395527	keystroke_l	l	n/a
197.8835	0.09	395767	keystroke_e	e	n/a
198.0335	0.18	396067	keystroke_Key.space	Key.space	n/a
198.2435	0.105	396487	keystroke_d	d	n/a
198.409	0.0745	396818	keystroke_i	i	n/a
198.5585	0.09	397117	keystroke_c	c	n/a
198.679	0.0745	397358	keystroke_i	i	n/a
198.994	0.0745	397988	keystroke_s	s	n/a
199.309	0.0295	398618	keystroke_Key.backspace	Key.backspace	n/a
199.4585	0.06	398917	keystroke_Key.backspace	Key.backspace	n/a
199.6085	0.075	399217	keystroke_Key.backspace	Key.backspace	n/a
199.7135	0.105	399427	keystroke_v	v	n/a
199.9985	0.105	399997	keystroke_i	i	n/a
200.239	0.0895	400478	keystroke_s	s	n/a
200.3435	0.15	400687	keystroke_i	i	n/a
200.4035	0.165	400807	keystroke_o	o	n/a
200.5085	0.1805	401017	keystroke_n	n	n/a
200.6735	0.105	401347	keystroke_Key.space	Key.space	n/a
200.8535	0.105	401707	keystroke_e	e	n/a
201.0335	0.075	402067	keystroke_l	l	n/a
201.1235	0.105	402247	keystroke_e	e	n/a
201.3185	0.135	402637	keystroke_c	c	n/a
201.6785	0.105	403357	keystroke_t	t	n/a
201.7535	0.105	403507	keystroke_r	r	n/a
201.9185	0.09	403837	keystroke_i	i	n/a
202.1435	0.165	404287	keystroke_c	c	n/a
202.2635	0.09	404527	keystroke_i	i	n/a
202.4285	0.09	404857	keystroke_t	t	n/a
202.5935	0.075	405187	keystroke_y	y	n/a
202.7435	0.105	405487	keystroke_Key.space	Key.space	n/a
203.1035	0.135	406207	keystroke_u	u	n/a
203.1935	0.12	406387	keystroke_n	n	n/a
203.4185	0.15	406837	keystroke_l	l	n/a
203.5235	0.1205	407047	keystroke_i	i	n/a
203.7635	0.09	407527	keystroke_k	k	n/a
203.869	0.0895	407738	keystroke_e	e	n/a
203.9885	0.105	407977	keystroke_Key.enter	Key.enter	n/a
204.0975	6.522	408195	prompt	n/a	mines cricket blues toll\n
204.8135	0.15	409627	keystroke_m	m	n/a
204.9785	0.18	409957	keystroke_i	i	n/a
205.0985	0.15	410197	keystroke_n	n	n/a
205.2185	0.105	410437	keystroke_e	e	n/a
205.4135	0.12	410827	keystroke_s	s	n/a
205.5485	0.105	411097	keystroke_Key.space	Key.space	n/a
205.7285	0.135	411457	keystroke_c	c	n/a
206.0285	0.09	412057	keystroke_r	r	n/a
206.194	0.0745	412388	keystroke_i	i	n/a
206.3735	0.09	412747	keystroke_c	c	n/a
206.4935	0.105	412987	keystroke_k	k	n/a
206.7335	0.12	413467	keystroke_e	e	n/a
206.8835	0.09	413767	keystroke_t	t	n/a
207.0185	0.12	414037	keystroke_Key.space	Key.space	n/a
207.4385	0.09	414877	keystroke_b	b	n/a
207.9635	0.105	415927	keystroke_l	l	n/a
208.3535	0.075	416707	keystroke_u	u	n/a
208.4585	0.09	416917	keystroke_e	e	n/a
208.6535	0.075	417307	keystroke_s	s	n/a
208.8335	0.075	417667	keystroke_Key.space	Key.space	n/a
209.1485	0.075	418297	keystroke_t	t	n/a
209.2385	0.06	418477	keystroke_o	o	n/a
209.4035	0.075	418807	keystroke_o	o	n/a
209.7935	0.06	419587	keystroke_Key.backspace	Key.backspace	n/a
210.0935	0.06	420187	keystroke_l	l	n/a
210.2735	0.075	420547	keystroke_l	l	n/a
210.499	0.1195	420998	keystroke_Key.enter	Key.enter	n/a
210.623	6.6865	421246	prompt	n/a	murder limitations corn controlled\n
211.3685	0.15	422737	keystroke_m	m	n/a
211.7135	0.075	423427	keystroke_u	u	n/a
211.8485	0.09	423697	keystroke_r	r	n/a
212.2085	0.135	424417	keystroke_d	d	n/a
212.3585	0.18	424717	keystroke_e	e	n/a
212.4785	0.12	424957	keystroke_r	r	n/a
212.674	0.1045	425348	keystroke_Key.space	Key.space	n/a
213.3785	0.15	426757	keystroke_l	l	n/a
213.5135	0.075	427027	keystroke_i	i	n/a
213.7085	0.105	427417	keystroke_m	m	n/a
213.8585	0.075	427717	keystroke_i	i	n/a
214.0395	0.119	428079	keystroke_t	t	n/a
214.1285	0.15	428257	keystroke_a	a	n/a
214.2635	0.105	428527	keystroke_t	t	n/a
214.3085	0.15	428617	keystroke_i	i	n/a
214.341	0.1625	428682	keystroke_o	o	n/a
214.459	0.1345	428918	keystroke_n	n	n/a
214.6085	0.1055	429217	keystroke_s	s	n/a
214.759	0.0895	429518	keystroke_Key.space	Key.space	n/a
214.9685	0.135	429937	keystroke_c	c	n/a
215.09	0.0885	430180	keystroke_o	o	n/a
215.2535	0.105	430507	keystroke_r	r	n/a
215.4035	0.165	430807	keystroke_n	n	n/a
215.5535	0.105	431107	keystroke_Key.space	Key.space	n/a
215.8535	0.135	431707	keystroke_c	c	n/a
215.9585	0.15	431917	keystroke_o	o	n/a
216.0635	0.135	432127	keystroke_n	n	n/a
216.2135	0.12	432427	keystroke_t	t	n/a
216.2885	0.12	432577	keystroke_r	r	n/a
216.3485	0.075	432697	keystroke_o	o	n/a
216.5745	0.059	433149	keystroke_l	l	n/a
216.739	0.0745	433478	keystroke_l	l	n/a
216.8285	0.105	433657	keystroke_e	e	n/a
217.0535	0.12	434107	keystroke_d	d	n/a
217.2035	0.105	434407	keystroke_Key.enter	Key.enter	n/a
217.3125	6.403	434625	prompt	n/a	strikes dept horses switched\n
218.1635	0.12	436327	keystroke_s	s	n/a
218.4035	0.1205	436807	keystroke_t	t	n/a
218.479	0.1195	436958	keystroke_r	r	n/a
218.6285	0.09	437257	keystroke_i	i	n/a
218.8985	0.09	437797	keystroke_k	k	n/a
218.974	0.12	437948	keystroke_e	e	n/a
219.154	0.1195	438308	keystroke_s	s	n/a
219.3185	0.09	438637	keystroke_Key.space	Key.space	n/a
219.6035	0.12	439207	keystroke_d	d	n/a
219.8435	0.09	439687	keystroke_e	e	n/a
219.9185	0.09	439837	keystroke_p	p	n/a
220.0685	0.105	440137	keystroke_t	t	n/a
220.2335	0.12	440467	keystroke_Key.space	Key.space	n/a
220.6085	0.075	441217	keystroke_h	h	n/a
220.7885	0.105	441577	keystroke_o	o	n/a
220.9985	0.075	441997	keystroke_r	r	n/a
221.2385	0.105	442477	keystroke_s	s	n/a
221.4485	0.09	442897	keystroke_e	e	n/a
221.6735	0.12	443347	keystroke_s	s	n/a
221.8085	0.12	443617	keystroke_Key.space	Key.space	n/a
222.2435	0.1055	444487	keystroke_s	s	n/a
222.4685	0.12	444937	keystroke_w	w	n/a
222.679	0.0745	445358	keystroke_i	i	n/a
222.7835	0.0905	445567	keystroke_t	t	n/a
223.0085	0.105	446017	keystroke_c	c	n/a
223.129	0.0895	446258	keystroke_h	h	n/a
223.2785	0.105	446557	keystroke_e	e	n/a
223.4885	0.12	446977	keystroke_d	d	n/a
223.6235	0.09	447247	keystroke_Key.enter	Key.enter	n/a
223.7185	7.601	447437	prompt	n/a	structures dutch elvis algorithms\n
224.2685	0.09	448537	keystroke_s	s	n/a
224.4935	0.105	448987	keystroke_t	t	n/a
224.5535	0.1205	449107	keystroke_r	r	n/a
224.7185	0.075	449437	keystroke_u	u	n/a
224.8235	0.12	449647	keystroke_c	c	n/a
225.0935	0.105	450187	keystroke_t	t	n/a
225.2135	0.076	450427	keystroke_u	u	n/a
225.3335	0.135	450667	keystroke_r	r	n/a
225.3935	0.1355	450787	keystroke_e	e	n/a
225.5885	0.12	451177	keystroke_s	s	n/a
225.7535	0.105	451507	keystroke_Key.space	Key.space	n/a
225.9485	0.092	451897	keystroke_d	d	n/a
226.0985	0.06	452197	keystroke_u	u	n/a
226.4735	0.0755	452947	keystroke_t	t	n/a
226.7285	0.12	453457	keystroke_c	c	n/a
226.9235	0.09	453847	keystroke_h	h	n/a
227.2235	0.12	454447	keystroke_Key.space	Key.space	n/a
227.4785	0.0905	454957	keystroke_e	e	n/a
227.6285	0.06	455257	keystroke_l	l	n/a
227.9745	0.119	455949	keystroke_c	c	n/a
228.5585	0.075	457117	keystroke_Key.backspace	Key.backspace	n/a
228.6185	0.121	457237	keystroke_v	v	n/a
228.859	0.09	457718	keystroke_i	i	n/a
228.994	0.09	457988	keystroke_s	s	n/a
229.159	0.1195	458318	keystroke_Key.space	Key.space	n/a
229.6385	0.12	459277	keystroke_a	a	n/a
229.7735	0.075	459547	keystroke_l	l	n/a
230.0285	0.105	460057	keystroke_g	g	n/a
230.179	0.0745	460358	keystroke_o	o	n/a
230.3135	0.105	460627	keystroke_r	r	n/a
230.4485	0.075	460897	keystroke_i	i	n/a
230.5535	0.075	461107	keystroke_t	t	n/a
230.674	0.0745	461348	keystroke_h	h	n/a
230.929	0.1195	461858	keystroke_m	m	n/a
231.0335	0.12	462067	keystroke_s	s	n/a
231.2135	0.105	462427	keystroke_Key.enter	Key.enter	n/a
231.3225	8.0225	462645	prompt	n/a	unlike deal evaluated configuring\n
232.1435	0.075	464287	keystroke_u	u	n/a
232.3535	0.12	464707	keystroke_n	n	n/a
232.5635	0.135	465127	keystroke_l	l	n/a
232.6535	0.12	465307	keystroke_i	i	n/a
232.879	0.0895	465758	keystroke_k	k	n/a
232.9835	0.0905	465967	keystroke_e	e	n/a
233.1335	0.105	466267	keystroke_Key.space	Key.space	n/a
233.2535	0.0905	466507	keystroke_d	d	n/a
233.4635	0.15	466927	keystroke_e	e	n/a
233.5835	0.12	467167	keystroke_a	a	n/a
233.659	0.1345	467318	keystroke_l	l	n/a
233.7785	0.105	467557	keystroke_Key.space	Key.space	n/a
234.2895	0.104	468579	keystroke_e	e	n/a
234.544	0.1045	469088	keystroke_v	v	n/a
234.6185	0.12	469237	keystroke_a	a	n/a
234.7535	0.135	469507	keystroke_l	l	n/a
234.8585	0.105	469717	keystroke_u	u	n/a
234.9485	0.12	469897	keystroke_a	a	n/a
235.1895	0.119	470379	keystroke_t	t	n/a
235.341	0.0725	470682	keystroke_e	e	n/a
235.5485	0.105	471097	keystroke_d	d	n/a
235.714	0.0895	471428	keystroke_Key.space	Key.space	n/a
235.8785	0.12	471757	keystroke_c	c	n/a
235.9835	0.1355	471967	keystroke_o	o	n/a
236.0585	0.135	472117	keystroke_n	n	n/a
236.7785	0.09	473557	keystroke_f	f	n/a
237.274	0.1195	474548	keystroke_i	i	n/a
237.9185	0.09	475837	keystroke_g	g	n/a
238.1295	0.0605	476259	keystroke_u	u	n/a
238.49	0.134	476980	keystroke_r	r	n/a
238.7895	0.15	477579	keystroke_i	i	n/a
238.8935	0.135	477787	keystroke_n	n	n/a
238.9985	0.075	477997	keystroke_g	g	n/a
239.2685	0.075	478537	keystroke_Key.enter	Key.enter	n/a
239.3475	5.6825	478695	prompt	n/a	again fiction paying themes\n
240.004	0.0895	480008	keystroke_a	a	n/a
240.2285	0.135	480457	keystroke_g	g	n/a
240.319	0.121	480638	keystroke_a	a	n/a
240.4085	0.1205	480817	keystroke_i	i	n/a
240.4985	0.135	480997	keystroke_n	n	n/a
240.6635	0.1205	481327	keystroke_Key.space	Key.space	n/a
241.0685	0.121	482137	keystroke_f	f	n/a
241.3085	0.105	482617	keystroke_i	i	n/a
241.4285	0.105	482857	keystroke_c	c	n/a
241.6985	0.0915	483397	keystroke_t	t	n/a
241.759	0.1805	483518	keystroke_i	i	n/a
241.8485	0.1655	483697	keystroke_o	o	n/a
241.9685	0.135	483937	keystroke_n	n	n/a
242.074	0.1195	484148	keystroke_Key.space	Key.space	n/a
242.419	0.0895	484838	keystroke_p	p	n/a
242.494	0.12	484988	keystroke_a	a	n/a
243.1685	0.09	486337	keystroke_y	y	n/a
243.5585	0.135	487117	keystroke_i	i	n/a
243.6485	0.12	487297	keystroke_n	n	n/a
243.7535	0.105	487507	keystroke_g	g	n/a
243.8895	0.119	487779	keystroke_Key.space	Key.space	n/a
244.0835	0.1065	488167	keystroke_t	t	n/a
244.204	0.0745	488408	keystroke_h	h	n/a
244.2935	0.12	488587	keystroke_e	e	n/a
244.4895	0.134	488979	keystroke_m	m	n/a
244.6535	0.0755	489307	keystroke_e	e	n/a
244.7895	0.119	489579	keystroke_s	s	n/a
244.924	0.105	489848	keystroke_Key.enter	Key.enter	n/a
245.033	8.7115	490066	prompt	n/a	sigma conducting kenneth countries\n
245.824	0.1345	491648	keystroke_s	s	n/a
246.649	0.045	493298	keystroke_i	i	n/a
246.9035	0.06	493807	keystroke_g	g	n/a
247.054	0.1045	494108	keystroke_m	m	n/a
247.174	0.1045	494348	keystroke_a	a	n/a
247.669	0.1045	495338	keystroke_Key.space	Key.space	n/a
247.8635	0.105	495727	keystroke_c	c	n/a
247.984	0.1055	495968	keystroke_o	o	n/a
248.224	0.1495	496448	keystroke_n	n	n/a
248.5085	0.1205	497017	keystroke_d	d	n/a
248.7635	0.076	497527	keystroke_u	u	n/a
249.124	0.105	498248	keystroke_c	c	n/a
249.409	0.075	498818	keystroke_t	t	n/a
249.529	0.075	499058	keystroke_i	i	n/a
249.7535	0.1055	499507	keystroke_n	n	n/a
249.934	0.075	499868	keystroke_g	g	n/a
250.0535	0.105	500107	keystroke_Key.space	Key.space	n/a
250.354	0.0595	500708	keystroke_k	k	n/a
250.444	0.0895	500888	keystroke_e	e	n/a
250.5785	0.0905	501157	keystroke_n	n	n/a
250.7585	0.09	501517	keystroke_n	n	n/a
250.8935	0.09	501787	keystroke_e	e	n/a
251.134	0.12	502268	keystroke_t	t	n/a
251.374	0.075	502748	keystroke_h	h	n/a
251.5985	0.091	503197	keystroke_Key.space	Key.space	n/a
251.959	0.1345	503918	keystroke_c	c	n/a
252.169	0.1205	504338	keystroke_o	o	n/a
252.2735	0.1205	504547	keystroke_u	u	n/a
252.544	0.1045	505088	keystroke_n	n	n/a
252.7395	0.119	505479	keystroke_t	t	n/a
252.8135	0.135	505627	keystroke_r	r	n/a
253.024	0.075	506048	keystroke_i	i	n/a
253.114	0.1045	506228	keystroke_e	e	n/a
253.309	0.12	506618	keystroke_s	s	n/a
253.624	0.1195	507248	keystroke_Key.enter	Key.enter	n/a
253.7475	11.728	507495	prompt	n/a	notice primarily instead simplified\n
254.494	0.1345	508988	keystroke_n	n	n/a
254.764	0.09	509528	keystroke_o	o	n/a
254.929	0.1045	509858	keystroke_t	t	n/a
255.064	0.09	510128	keystroke_i	i	n/a
255.274	0.135	510548	keystroke_v	v	n/a
255.379	0.105	510758	keystroke_e	e	n/a
255.709	0.1045	511418	keystroke_Key.space	Key.space	n/a
255.949	0.0905	511898	keystroke_p	p	n/a
256.0685	0.1055	512137	keystroke_r	r	n/a
256.609	0.0595	513218	keystroke_Key.backspace	Key.backspace	n/a
256.79	0.059	513580	keystroke_Key.backspace	Key.backspace	n/a
256.9395	0.089	513879	keystroke_Key.backspace	Key.backspace	n/a
257.1185	0.06	514237	keystroke_Key.backspace	Key.backspace	n/a
257.2535	0.09	514507	keystroke_Key.backspace	Key.backspace	n/a
257.3895	0.104	514779	keystroke_c	c	n/a
257.4485	0.105	514897	keystroke_e	e	n/a
257.8535	0.12	515707	keystroke_Key.space	Key.space	n/a
258.169	0.075	516338	keystroke_p	p	n/a
258.3035	0.105	516607	keystroke_r	r	n/a
258.679	0.0605	517358	keystroke_i	i	n/a
258.9635	0.12	517927	keystroke_m	m	n/a
259.129	0.09	518258	keystroke_a	a	n/a
259.3685	0.09	518737	keystroke_r	r	n/a
259.5185	0.045	519037	keystroke_i	i	n/a
259.7135	0.105	519427	keystroke_l	l	n/a
260.0135	0.0765	520027	keystroke_y	y	n/a
260.119	0.1205	520238	keystroke_Key.space	Key.space	n/a
260.3895	0.074	520779	keystroke_i	i	n/a
260.5985	0.091	521197	keystroke_n	n	n/a
260.704	0.09	521408	keystroke_s	s	n/a
260.944	0.1045	521888	keystroke_t	t	n/a
261.094	0.1045	522188	keystroke_e	e	n/a
261.319	0.09	522638	keystroke_a	a	n/a
261.499	0.075	522998	keystroke_d	d	n/a
261.679	0.12	523358	keystroke_Key.space	Key.space	n/a
261.859	0.12	523718	keystroke_s	s	n/a
262.024	0.09	524048	keystroke_i	i	n/a
262.264	0.1045	524528	keystroke_m	m	n/a
262.519	0.09	525038	keystroke_p	p	n/a
262.759	0.1195	525518	keystroke_l	l	n/a
262.954	0.09	525908	keystroke_e	e	n/a
263.134	0.0595	526268	keystroke_i	i	n/a
263.374	0.0895	526748	keystroke_f	f	n/a
263.7335	0.0305	527467	keystroke_Key.backspace	Key.backspace	n/a
263.8835	0.045	527767	keystroke_Key.backspace	Key.backspace	n/a
264.034	0.0745	528068	keystroke_Key.backspace	Key.backspace	n/a
264.319	0.075	528638	keystroke_i	i	n/a
264.44	0.0885	528880	keystroke_f	f	n/a
264.769	0.075	529538	keystroke_i	i	n/a
264.979	0.0895	529958	keystroke_e	e	n/a
265.204	0.0895	530408	keystroke_d	d	n/a
265.399	0.075	530798	keystroke_Key.enter	Key.enter	n/a
265.4785	8.7415	530957	prompt	n/a	canberra whom'st i'll walked\n
266.5395	0.1345	533079	keystroke_c	c	n/a
266.614	0.12	533228	keystroke_a	a	n/a
266.8085	0.1205	533617	keystroke_n	n	n/a
267.229	0.1045	534458	keystroke_b	b	n/a
267.634	0.1195	535268	keystroke_e	e	n/a
267.694	0.12	535388	keystroke_r	r	n/a
268.084	0.1055	536168	keystroke_r	r	n/a
268.354	0.12	536708	keystroke_a	a	n/a
268.759	0.1045	537518	keystroke_Key.space	Key.space	n/a
268.894	0.0895	537788	keystroke_w	w	n/a
269.029	0.105	538058	keystroke_h	h	n/a
269.24	0.074	538480	keystroke_o	o	n/a
269.824	0.1345	539648	keystroke_m	m	n/a
270.469	0.165	540938	keystroke_'	'	n/a
270.859	0.12	541718	keystroke_s	s	n/a
271.294	0.0895	542588	keystroke_t	t	n/a
271.519	0.105	543038	keystroke_Key.space	Key.space	n/a
271.759	0.0895	543518	keystroke_i	i	n/a
272.0585	0.0755	544117	keystroke_'	'	n/a
272.3585	0.0605	544717	keystroke_l	l	n/a
272.5395	0.0745	545079	keystroke_l	l	n/a
272.7335	0.1205	545467	keystroke_Key.space	Key.space	n/a
272.929	0.1195	545858	keystroke_w	w	n/a
273.1985	0.0915	546397	keystroke_a	a	n/a
273.319	0.135	546638	keystroke_l	l	n/a
273.469	0.1205	546938	keystroke_k	k	n/a
273.694	0.075	547388	keystroke_e	e	n/a
273.919	0.1205	547838	keystroke_d	d	n/a
274.114	0.105	548228	keystroke_Key.enter	Key.enter	n/a
274.2245	8.0055	548449	prompt	n/a	recommendation notification asked jump\n
275.344	0.135	550688	keystroke_r	r	n/a
275.434	0.135	550868	keystroke_e	e	n/a
275.719	0.1205	551438	keystroke_c	c	n/a
275.854	0.0895	551708	keystroke_o	o	n/a
276.124	0.09	552248	keystroke_m	m	n/a
276.2895	0.1045	552579	keystroke_m	m	n/a
276.409	0.09	552818	keystroke_e	e	n/a
276.514	0.0755	553028	keystroke_n	n	n/a
276.679	0.105	553358	keystroke_d	d	n/a
276.844	0.165	553688	keystroke_a	a	n/a
277.144	0.09	554288	keystroke_t	t	n/a
277.249	0.12	554498	keystroke_i	i	n/a
277.324	0.18	554648	keystroke_o	o	n/a
277.444	0.15	554888	keystroke_n	n	n/a
277.579	0.105	555158	keystroke_Key.space	Key.space	n/a
277.729	0.135	555458	keystroke_n	n	n/a
277.954	0.09	555908	keystroke_o	o	n/a
278.0895	0.1045	556179	keystroke_t	t	n/a
278.254	0.075	556508	keystroke_i	i	n/a
278.404	0.09	556808	keystroke_f	f	n/a
278.509	0.1045	557018	keystroke_i	i	n/a
278.629	0.165	557258	keystroke_c	c	n/a
278.884	0.1055	557768	keystroke_a	a	n/a
279.094	0.12	558188	keystroke_t	t	n/a
279.229	0.12	558458	keystroke_i	i	n/a
279.334	0.09	558668	keystroke_o	o	n/a
279.649	0.135	559298	keystroke_n	n	n/a
279.8895	0.1045	559779	keystroke_Key.space	Key.space	n/a
279.979	0.2105	559958	keystroke_a	a	n/a
280.174	0.075	560348	keystroke_s	s	n/a
280.279	0.105	560558	keystroke_k	k	n/a
280.399	0.105	560798	keystroke_e	e	n/a
280.654	0.12	561308	keystroke_d	d	n/a
280.819	0.135	561638	keystroke_Key.space	Key.space	n/a
281.0895	0.1345	562179	keystroke_j	j	n/a
281.39	0.059	562780	keystroke_u	u	n/a
281.629	0.15	563258	keystroke_m	m	n/a
281.84	0.119	563680	keystroke_p	p	n/a
282.154	0.075	564308	keystroke_Key.enter	Key.enter	n/a
282.233	9.7165	564466	prompt	n/a	manufacture robots tiny backup\n
282.979	0.135	565958	keystroke_m	m	n/a
283.084	0.1055	566168	keystroke_a	a	n/a
283.219	0.105	566438	keystroke_n	n	n/a
283.474	0.045	566948	keystroke_u	u	n/a
283.684	0.135	567368	keystroke_f	f	n/a
283.7895	0.1345	567579	keystroke_a	a	n/a
283.9395	0.1195	567879	keystroke_c	c	n/a
284.209	0.09	568418	keystroke_t	t	n/a
284.509	0.06	569018	keystroke_u	u	n/a
284.614	0.105	569228	keystroke_r	r	n/a
284.674	0.1345	569348	keystroke_e	e	n/a
284.959	0.12	569918	keystroke_Key.space	Key.space	n/a
285.559	0.105	571118	keystroke_r	r	n/a
285.709	0.075	571418	keystroke_o	o	n/a
286.174	0.105	572348	keystroke_b	b	n/a
286.444	0.09	572888	keystroke_o	o	n/a
286.744	0.075	573488	keystroke_t	t	n/a
286.924	0.105	573848	keystroke_s	s	n/a
287.074	0.15	574148	keystroke_Key.space	Key.space	n/a
287.314	0.09	574628	keystroke_t	t	n/a
287.4335	0.0755	574867	keystroke_i	i	n/a
287.629	0.105	575258	keystroke_n	n	n/a
287.914	0.045	575828	keystroke_u	u	n/a
288.2895	0.074	576579	keystroke_b	b	n/a
288.769	0.03	577538	keystroke_Key.backspace	Key.backspace	n/a
288.904	0.075	577808	keystroke_Key.backspace	Key.backspace	n/a
289.204	0.075	578408	keystroke_y	y	n/a
289.399	0.105	578798	keystroke_Key.space	Key.space	n/a
289.609	0.09	579218	keystroke_b	b	n/a
289.984	0.1055	579968	keystroke_a	a	n/a
290.614	0.105	581228	keystroke_c	c	n/a
290.734	0.135	581468	keystroke_k	k	n/a
291.229	0.105	582458	keystroke_u	u	n/a
291.469	0.09	582938	keystroke_p	p	n/a
291.829	0.1195	583658	keystroke_Key.enter	Key.enter	n/a
291.9525	10.4675	583905	prompt	n/a	interference until latin simultaneously\n
292.6395	0.0895	585279	keystroke_i	i	n/a
292.834	0.12	585668	keystroke_n	n	n/a
292.999	0.1345	585998	keystroke_t	t	n/a
293.119	0.1205	586238	keystroke_e	e	n/a
293.254	0.12	586508	keystroke_r	r	n/a
293.359	0.105	586718	keystroke_e	e	n/a
294.154	0.0595	588308	keystroke_Key.backspace	Key.backspace	n/a
294.244	0.135	588488	keystroke_f	f	n/a
294.334	0.12	588668	keystroke_e	e	n/a
294.559	0.1195	589118	keystroke_r	r	n/a
294.664	0.105	589328	keystroke_e	e	n/a
294.799	0.105	589598	keystroke_n	n	n/a
294.919	0.1345	589838	keystroke_c	c	n/a
295.024	0.12	590048	keystroke_e	e	n/a
295.159	0.1045	590318	keystroke_Key.space	Key.space	n/a
295.549	0.091	591098	keystroke_n	n	n/a
295.939	0.075	591878	keystroke_Key.backspace	Key.backspace	n/a
296.254	0.045	592508	keystroke_u	u	n/a
296.464	0.09	592928	keystroke_n	n	n/a
296.779	0.09	593558	keystroke_t	t	n/a
296.899	0.06	593798	keystroke_i	i	n/a
297.079	0.0745	594158	keystroke_l	l	n/a
297.244	0.12	594488	keystroke_Key.space	Key.space	n/a
297.5135	0.076	595027	keystroke_l	l	n/a
297.574	0.105	595148	keystroke_a	a	n/a
297.829	0.09	595658	keystroke_t	t	n/a
297.934	0.09	595868	keystroke_i	i	n/a
298.159	0.135	596318	keystroke_n	n	n/a
298.384	0.09	596768	keystroke_Key.space	Key.space	n/a
298.909	0.105	597818	keystroke_s	s	n/a
299.044	0.075	598088	keystroke_i	i	n/a
299.299	0.12	598598	keystroke_m	m	n/a
299.584	0.06	599168	keystroke_u	u	n/a
299.779	0.0605	599558	keystroke_l	l	n/a
300.229	0.105	600458	keystroke_t	t	n/a
300.514	0.09	601028	keystroke_a	a	n/a
300.694	0.12	601388	keystroke_n	n	n/a
300.949	0.12	601898	keystroke_e	e	n/a
301.3245	0.1345	602649	keystroke_o	o	n/a
301.414	0.105	602828	keystroke_u	u	n/a
301.534	0.1055	603068	keystroke_s	s	n/a
301.744	0.075	603488	keystroke_l	l	n/a
302.029	0.0605	604058	keystroke_y	y	n/a
302.359	0.06	604718	keystroke_Key.enter	Key.enter	n/a
302.4225	7.3625	604845	prompt	n/a	timing refused bermuda dropped\n
303.199	0.105	606398	keystroke_t	t	n/a
303.349	0.075	606698	keystroke_i	i	n/a
303.5895	0.0745	607179	keystroke_m	m	n/a
303.799	0.105	607598	keystroke_i	i	n/a
303.904	0.09	607808	keystroke_n	n	n/a
304.0395	0.0895	608079	keystroke_g	g	n/a
304.204	0.09	608408	keystroke_Key.space	Key.space	n/a
304.369	0.1205	608738	keystroke_r	r	n/a
304.444	0.135	608888	keystroke_e	e	n/a
304.654	0.12	609308	keystroke_f	f	n/a
304.819	0.075	609638	keystroke_u	u	n/a
304.939	0.105	609878	keystroke_s	s	n/a
305.344	0.09	610688	keystroke_e	e	n/a
305.599	0.12	611198	keystroke_d	d	n/a
305.764	0.09	611528	keystroke_Key.space	Key.space	n/a
306.004	0.09	612008	keystroke_b	b	n/a
306.259	0.165	612518	keystroke_e	e	n/a
306.409	0.06	612818	keystroke_r	r	n/a
306.559	0.135	613118	keystroke_m	m	n/a
306.859	0.015	613718	keystroke_i	i	n/a
307.324	0.06	614648	keystroke_Key.backspace	Key.backspace	n/a
307.579	0.075	615158	keystroke_u	u	n/a
307.669	0.135	615338	keystroke_d	d	n/a
307.759	0.135	615518	keystroke_a	a	n/a
308.029	0.105	616058	keystroke_Key.space	Key.space	n/a
308.329	0.09	616658	keystroke_d	d	n/a
308.629	0.075	617258	keystroke_r	r	n/a
308.854	0.075	617708	keystroke_o	o	n/a
309.079	0.0605	618158	keystroke_p	p	n/a
309.214	0.105	618428	keystroke_p	p	n/a
309.334	0.09	618668	keystroke_e	e	n/a
309.544	0.09	619088	keystroke_d	d	n/a
309.679	0.105	619358	keystroke_Key.enter	Key.enter	n/a
309.788	9.897	619576	prompt	n/a	changed essence facial especially\n
310.594	0.135	621188	keystroke_c	c	n/a
310.864	0.09	621728	keystroke_a	a	n/a
311.029	0.0605	622058	keystroke_n	n	n/a
311.584	0.06	623168	keystroke_Key.backspace	Key.backspace	n/a
311.719	0.06	623438	keystroke_Key.backspace	Key.backspace	n/a
312.019	0.06	624038	keystroke_h	h	n/a
312.154	0.09	624308	keystroke_a	a	n/a
312.3495	0.0895	624699	keystroke_n	n	n/a
312.484	0.1195	624968	keystroke_g	g	n/a
312.574	0.105	625148	keystroke_e	e	n/a
312.799	0.0905	625598	keystroke_d	d	n/a
312.949	0.105	625898	keystroke_Key.space	Key.space	n/a
313.264	0.09	626528	keystroke_e	e	n/a
313.489	0.105	626978	keystroke_s	s	n/a
313.684	0.09	627368	keystroke_s	s	n/a
313.909	0.09	627818	keystroke_e	e	n/a
314.074	0.075	628148	keystroke_n	n	n/a
314.419	0.105	628838	keystroke_x	x	n/a
314.704	0.09	629408	keystroke_e	e	n/a
315.094	0.06	630188	keystroke_Key.backspace	Key.backspace	n/a
315.229	0.075	630458	keystroke_Key.backspace	Key.backspace	n/a
315.319	0.135	630638	keystroke_c	c	n/a
315.394	0.1195	630788	keystroke_e	e	n/a
315.604	0.1355	631208	keystroke_Key.space	Key.space	n/a
316.4135	0.0905	632827	keystroke_f	f	n/a
316.459	0.15	632918	keystroke_a	a	n/a
316.654	0.135	633308	keystroke_c	c	n/a
316.969	0.075	633938	keystroke_i	i	n/a
317.074	0.09	634148	keystroke_a	a	n/a
317.194	0.12	634388	keystroke_l	l	n/a
317.299	0.09	634598	keystroke_Key.space	Key.space	n/a
317.5835	0.0905	635167	keystroke_e	e	n/a
317.794	0.09	635588	keystroke_s	s	n/a
317.959	0.075	635918	keystroke_p	p	n/a
318.154	0.09	636308	keystroke_e	e	n/a
318.454	0.105	636908	keystroke_c	c	n/a
318.619	0.06	637238	keystroke_i	i	n/a
318.769	0.075	637538	keystroke_a	a	n/a
318.859	0.06	637718	keystroke_l	l	n/a
319.024	0.075	638048	keystroke_l	l	n/a
319.264	0.09	638528	keystroke_y	y	n/a
319.609	0.075	639218	keystroke_Key.enter	Key.enter	n/a
319.6875	9.1475	639375	prompt	n/a	strong womens partnerships errors\n
320.359	0.075	640718	keystroke_s	s	n/a
320.569	0.121	641138	keystroke_t	t	n/a
320.644	0.12	641288	keystroke_r	r	n/a
320.794	0.105	641588	keystroke_o	o	n/a
320.974	0.105	641948	keystroke_n	n	n/a
321.169	0.075	642338	keystroke_g	g	n/a
321.289	0.1195	642578	keystroke_Key.space	Key.space	n/a
321.889	0.075	643778	keystroke_w	w	n/a
321.979	0.06	643958	keystroke_o	o	n/a
322.189	0.09	644378	keystroke_m	m	n/a
322.294	0.105	644588	keystroke_e	e	n/a
322.414	0.09	644828	keystroke_n	n	n/a
322.594	0.09	645188	keystroke_s	s	n/a
322.894	0.105	645788	keystroke_Key.space	Key.space	n/a
323.209	0.075	646418	keystroke_p	p	n/a
323.269	0.135	646538	keystroke_a	a	n/a
323.509	0.09	647018	keystroke_r	r	n/a
323.719	0.12	647438	keystroke_t	t	n/a
323.8245	0.1495	647649	keystroke_e	e	n/a
323.959	0.075	647918	keystroke_r	r	n/a
324.244	0.12	648488	keystroke_n	n	n/a
325.969	0.075	651938	keystroke_Key.backspace	Key.backspace	n/a
326.134	0.135	652268	keystroke_s	s	n/a
326.284	0.21	652568	keystroke_h	h	n/a
326.509	0.045	653018	keystroke_i	i	n/a
326.524	0.135	653048	keystroke_p	p	n/a
326.734	0.1055	653468	keystroke_s	s	n/a
327.649	0.12	655298	keystroke_Key.space	Key.space	n/a
327.784	0.075	655568	keystroke_e	e	n/a
327.904	0.105	655808	keystroke_r	r	n/a
328.099	0.12	656198	keystroke_r	r	n/a
328.249	0.091	656498	keystroke_o	o	n/a
328.324	0.12	656648	keystroke_r	r	n/a
328.549	0.135	657098	keystroke_s	s	n/a
328.744	0.09	657488	keystroke_Key.enter	Key.enter	n/a
328.838	7.287	657676	prompt	n/a	indonesia finding stranger uses\n
329.599	0.06	659198	keystroke_i	i	n/a
329.809	0.09	659618	keystroke_n	n	n/a
329.914	0.09	659828	keystroke_d	d	n/a
330.064	0.0755	660128	keystroke_o	o	n/a
330.304	0.09	660608	keystroke_n	n	n/a
330.424	0.09	660848	keystroke_e	e	n/a
330.664	0.105	661328	keystroke_s	s	n/a
330.814	0.06	661628	keystroke_i	i	n/a
330.994	0.105	661988	keystroke_a	a	n/a
331.369	0.12	662738	keystroke_Key.space	Key.space	n/a
331.849	0.12	663698	keystroke_f	f	n/a
332.104	0.075	664208	keystroke_i	i	n/a
332.329	0.105	664658	keystroke_n	n	n/a
332.419	0.09	664838	keystroke_d	d	n/a
332.584	0.0755	665168	keystroke_i	i	n/a
332.794	0.135	665588	keystroke_n	n	n/a
332.989	0.06	665978	keystroke_g	g	n/a
333.124	0.12	666248	keystroke_Key.space	Key.space	n/a
333.469	0.075	666938	keystroke_s	s	n/a
333.694	0.105	667388	keystroke_t	t	n/a
334.024	0.105	668048	keystroke_r	r	n/a
334.159	0.12	668318	keystroke_a	a	n/a
334.399	0.09	668798	keystroke_n	n	n/a
334.519	0.135	669038	keystroke_g	g	n/a
334.639	0.105	669278	keystroke_e	e	n/a
334.864	0.12	669728	keystroke_r	r	n/a
335.014	0.12	670028	keystroke_Key.space	Key.space	n/a
335.24	0.074	670480	keystroke_u	u	n/a
335.284	0.105	670568	keystroke_s	s	n/a
335.539	0.135	671078	keystroke_e	e	n/a
335.824	0.09	671648	keystroke_s	s	n/a
336.019	0.105	672038	keystroke_Key.enter	Key.enter	n/a
336.128	6.387	672256	prompt	n/a	park loving aspect limit\n
336.934	0.1055	673868	keystroke_p	p	n/a
337.024	0.12	674048	keystroke_a	a	n/a
337.219	0.09	674438	keystroke_r	r	n/a
337.474	0.045	674948	keystroke_k	k	n/a
337.654	0.12	675308	keystroke_Key.space	Key.space	n/a
337.924	0.12	675848	keystroke_l	l	n/a
338.179	0.105	676358	keystroke_o	o	n/a
338.494	0.12	676988	keystroke_v	v	n/a
338.719	0.075	677438	keystroke_i	i	n/a
338.944	0.09	677888	keystroke_n	n	n/a
339.079	0.105	678158	keystroke_g	g	n/a
339.199	0.105	678398	keystroke_Key.space	Key.space	n/a
339.454	0.12	678908	keystroke_a	a	n/a
339.619	0.105	679238	keystroke_s	s	n/a
339.859	0.06	679718	keystroke_p	p	n/a
339.934	0.1055	679868	keystroke_e	e	n/a
340.219	0.105	680438	keystroke_c	c	n/a
340.459	0.09	680918	keystroke_t	t	n/a
340.549	0.15	681098	keystroke_Key.space	Key.space	n/a
340.759	0.12	681518	keystroke_l	l	n/a
340.894	0.105	681788	keystroke_i	i	n/a
341.164	0.09	682328	keystroke_k	k	n/a
341.659	0.06	683318	keystroke_Key.backspace	Key.backspace	n/a
341.869	0.1205	683738	keystroke_m	m	n/a
342.1095	0.0895	684219	keystroke_i	i	n/a
342.244	0.09	684488	keystroke_t	t	n/a
342.424	0.09	684848	keystroke_Key.enter	Key.enter	n/a
342.5175	9.7325	685035	prompt	n/a	accepting every andrew busy\n
343.204	0.105	686408	keystroke_a	a	n/a
343.414	0.045	686828	keystroke_c	c	n/a
343.564	0.12	687128	keystroke_c	c	n/a
343.909	0.09	687818	keystroke_e	e	n/a
344.089	0.06	688178	keystroke_p	p	n/a
344.239	0.09	688478	keystroke_t	t	n/a
344.374	0.18	688748	keystroke_i	i	n/a
344.524	0.15	689048	keystroke_n	n	n/a
344.659	0.105	689318	keystroke_g	g	n/a
344.809	0.105	689618	keystroke_Key.space	Key.space	n/a
344.929	0.105	689858	keystroke_e	e	n/a
345.124	0.135	690248	keystroke_v	v	n/a
345.274	0.105	690548	keystroke_e	e	n/a
345.454	0.105	690908	keystroke_r	r	n/a
345.619	0.09	691238	keystroke_y	y	n/a
345.829	0.075	691658	keystroke_Key.space	Key.space	n/a
345.949	0.09	691898	keystroke_a	a	n/a
346.099	0.09	692198	keystroke_n	n	n/a
346.189	0.12	692378	keystroke_d	d	n/a
346.4595	0.1345	692919	keystroke_r	r	n/a
346.549	0.135	693098	keystroke_e	e	n/a
347.014	0.135	694028	keystroke_q	q	n/a
347.239	0.12	694478	keystroke_Key.space	Key.space	n/a
347.599	0.075	695198	keystroke_b	b	n/a
348.004	0.06	696008	keystroke_Key.backspace	Key.backspace	n/a
348.154	0.06	696308	keystroke_Key.backspace	Key.backspace	n/a
348.319	0.075	696638	keystroke_Key.backspace	Key.backspace	n/a
348.409	0.09	696818	keystroke_q	q	n/a
348.604	0.105	697208	keystroke_Key.space	Key.space	n/a
348.889	0.09	697778	keystroke_b	b	n/a
349.369	0.045	698738	keystroke_Key.backspace	Key.backspace	n/a
349.519	0.06	699038	keystroke_Key.backspace	Key.backspace	n/a
349.669	0.075	699338	keystroke_Key.backspace	Key.backspace	n/a
349.789	0.12	699578	keystroke_q	q	n/a
350.194	0.135	700388	keystroke_Key.space	Key.space	n/a
350.974	0.09	701948	keystroke_b	b	n/a
351.229	0.075	702458	keystroke_u	u	n/a
351.289	0.09	702578	keystroke_s	s	n/a
351.844	0.09	703688	keystroke_y	y	n/a
352.159	0.09	704318	keystroke_Key.enter	Key.enter	n/a
352.2525	7.8125	704505	prompt	n/a	trace graduates thou bachelor\n
353.0585	0.1355	706117	keystroke_t	t	n/a
353.134	0.15	706268	keystroke_r	r	n/a
353.239	0.135	706478	keystroke_a	a	n/a
353.479	0.105	706958	keystroke_c	c	n/a
353.524	0.12	707048	keystroke_e	e	n/a
353.689	0.105	707378	keystroke_Key.space	Key.space	n/a
353.944	0.18	707888	keystroke_g	g	n/a
354.079	0.12	708158	keystroke_r	r	n/a
354.184	0.135	708368	keystroke_a	a	n/a
354.484	0.12	708968	keystroke_d	d	n/a
354.649	0.045	709298	keystroke_u	u	n/a
354.709	0.105	709418	keystroke_a	a	n/a
354.934	0.135	709868	keystroke_t	t	n/a
354.994	0.135	709988	keystroke_e	e	n/a
355.189	0.105	710378	keystroke_s	s	n/a
355.324	0.12	710648	keystroke_Key.space	Key.space	n/a
355.654	0.075	711308	keystroke_t	t	n/a
355.759	0.075	711518	keystroke_h	h	n/a
355.94	0.134	711880	keystroke_o	o	n/a
356.029	0.105	712058	keystroke_u	u	n/a
356.5695	0.1045	713139	keystroke_Key.space	Key.space	n/a
357.139	0.12	714278	keystroke_b	b	n/a
357.409	0.135	714818	keystroke_a	a	n/a
357.604	0.105	715208	keystroke_c	c	n/a
357.7245	0.1195	715449	keystroke_k	k	n/a
357.904	0.105	715808	keystroke_e	e	n/a
358.759	0.0745	717518	keystroke_Key.backspace	Key.backspace	n/a
358.924	0.06	717848	keystroke_Key.backspace	Key.backspace	n/a
359.179	0.06	718358	keystroke_h	h	n/a
359.284	0.075	718568	keystroke_e	e	n/a
359.419	0.075	718838	keystroke_l	l	n/a
359.644	0.06	719288	keystroke_o	o	n/a
359.7485	0.105	719497	keystroke_r	r	n/a
359.974	0.09	719948	keystroke_Key.enter	Key.enter	n/a
360.0675	10.8725	720135	prompt	n/a	alex unemployment grande semi\n
360.979	0.135	721958	keystroke_a	a	n/a
361.159	0.09	722318	keystroke_l	l	n/a
361.774	0.105	723548	keystroke_e	e	n/a
362.254	0.09	724508	keystroke_x	x	n/a
362.734	0.12	725468	keystroke_Key.space	Key.space	n/a
363.109	0.045	726218	keystroke_e	e	n/a
363.469	0.06	726938	keystroke_Key.backspace	Key.backspace	n/a
363.784	0.09	727568	keystroke_u	u	n/a
363.994	0.075	727988	keystroke_n	n	n/a
364.174	0.09	728348	keystroke_e	e	n/a
364.354	0.105	728708	keystroke_m	m	n/a
364.594	0.135	729188	keystroke_p	p	n/a
364.684	0.12	729368	keystroke_l	l	n/a
364.849	0.09	729698	keystroke_e	e	n/a
365.0585	0.12	730117	keystroke_u	u	n/a
365.584	0.06	731168	keystroke_Key.backspace	Key.backspace	n/a
365.734	0.0745	731468	keystroke_Key.backspace	Key.backspace	n/a
366.454	0.12	732908	keystroke_o	o	n/a
367.234	0.1195	734468	keystroke_y	y	n/a
367.759	0.09	735518	keystroke_m	m	n/a
367.819	0.09	735638	keystroke_e	e	n/a
367.969	0.075	735938	keystroke_n	n	n/a
368.089	0.075	736178	keystroke_t	t	n/a
368.179	0.12	736358	keystroke_Key.space	Key.space	n/a
368.419	0.03	736838	keystroke_s	s	n/a
368.764	0.075	737528	keystroke_Key.backspace	Key.backspace	n/a
368.869	0.165	737738	keystroke_g	g	n/a
368.989	0.12	737978	keystroke_r	r	n/a
369.079	0.12	738158	keystroke_a	a	n/a
369.259	0.09	738518	keystroke_n	n	n/a
369.379	0.105	738758	keystroke_d	d	n/a
369.604	0.09	739208	keystroke_e	e	n/a
369.739	0.12	739478	keystroke_Key.space	Key.space	n/a
370.069	0.09	740138	keystroke_s	s	n/a
370.279	0.075	740558	keystroke_e	e	n/a
370.369	0.12	740738	keystroke_m	m	n/a
370.5945	0.0895	741189	keystroke_i	i	n/a
370.834	0.105	741668	keystroke_Key.enter	Key.enter	n/a
370.943	5.637	741886	prompt	n/a	clear serial requires plot\n
371.854	0.09	743708	keystroke_c	c	n/a
371.989	0.075	743978	keystroke_l	l	n/a
372.184	0.195	744368	keystroke_e	e	n/a
372.304	0.135	744608	keystroke_a	a	n/a
372.544	0.09	745088	keystroke_r	r	n/a
372.724	0.105	745448	keystroke_Key.space	Key.space	n/a
372.874	0.105	745748	keystroke_s	s	n/a
373.099	0.135	746198	keystroke_e	e	n/a
373.174	0.12	746348	keystroke_r	r	n/a
373.384	0.075	746768	keystroke_i	i	n/a
373.519	0.105	747038	keystroke_a	a	n/a
373.639	0.105	747278	keystroke_l	l	n/a
373.759	0.09	747518	keystroke_Key.space	Key.space	n/a
374.344	0.09	748688	keystroke_r	r	n/a
374.389	0.15	748778	keystroke_e	e	n/a
374.584	0.15	749168	keystroke_q	q	n/a
374.7345	0.1345	749469	keystroke_u	u	n/a
374.824	0.105	749648	keystroke_i	i	n/a
374.944	0.12	749888	keystroke_r	r	n/a
375.019	0.135	750038	keystroke_e	e	n/a
375.214	0.135	750428	keystroke_s	s	n/a
375.439	0.09	750878	keystroke_Key.space	Key.space	n/a
375.754	0.15	751508	keystroke_p	p	n/a
375.874	0.12	751748	keystroke_l	l	n/a
376.129	0.075	752258	keystroke_o	o	n/a
376.249	0.091	752498	keystroke_t	t	n/a
376.489	0.09	752978	keystroke_Key.enter	Key.enter	n/a
376.5825	7.2425	753165	prompt	n/a	beaches prompt innovation released\n
377.734	0.12	755468	keystroke_b	b	n/a
378.244	0.165	756488	keystroke_e	e	n/a
378.334	0.12	756668	keystroke_a	a	n/a
378.649	0.075	757298	keystroke_c	c	n/a
378.754	0.075	757508	keystroke_h	h	n/a
378.889	0.105	757778	keystroke_e	e	n/a
379.0545	0.1195	758109	keystroke_s	s	n/a
379.144	0.105	758288	keystroke_Key.space	Key.space	n/a
379.34	0.089	758680	keystroke_p	p	n/a
379.444	0.09	758888	keystroke_r	r	n/a
379.579	0.09	759158	keystroke_o	o	n/a
379.849	0.105	759698	keystroke_m	m	n/a
380.044	0.09	760088	keystroke_p	p	n/a
380.179	0.09	760358	keystroke_t	t	n/a
380.344	0.12	760688	keystroke_Key.space	Key.space	n/a
380.719	0.075	761438	keystroke_i	i	n/a
380.929	0.075	761858	keystroke_n	n	n/a
381.079	0.105	762158	keystroke_n	n	n/a
381.304	0.09	762608	keystroke_o	o	n/a
381.484	0.135	762968	keystroke_v	v	n/a
381.679	0.12	763358	keystroke_a	a	n/a
381.934	0.09	763868	keystroke_t	t	n/a
382.009	0.12	764018	keystroke_i	i	n/a
382.084	0.165	764168	keystroke_o	o	n/a
382.219	0.105	764438	keystroke_n	n	n/a
382.279	0.12	764558	keystroke_Key.space	Key.space	n/a
382.459	0.12	764918	keystroke_r	r	n/a
382.564	0.105	765128	keystroke_e	e	n/a
382.729	0.075	765458	keystroke_l	l	n/a
382.819	0.15	765638	keystroke_e	e	n/a
382.939	0.12	765878	keystroke_a	a	n/a
383.134	0.105	766268	keystroke_s	s	n/a
383.359	0.075	766718	keystroke_e	e	n/a
383.569	0.105	767138	keystroke_d	d	n/a
383.704	0.12	767408	keystroke_Key.enter	Key.enter	n/a
383.828	8.307	767656	prompt	n/a	sleeve coupon constitution drainage\n
384.604	0.09	769208	keystroke_s	s	n/a
384.739	0.09	769478	keystroke_l	l	n/a
384.859	0.105	769718	keystroke_e	e	n/a
385.054	0.09	770108	keystroke_e	e	n/a
385.354	0.135	770708	keystroke_v	v	n/a
385.474	0.105	770948	keystroke_e	e	n/a
385.669	0.135	771338	keystroke_Key.space	Key.space	n/a
385.954	0.135	771908	keystroke_c	c	n/a
386.059	0.135	772118	keystroke_o	o	n/a
386.149	0.105	772298	keystroke_u	u	n/a
386.389	0.135	772778	keystroke_p	p	n/a
386.719	0.075	773438	keystroke_o	o	n/a
386.959	0.12	773918	keystroke_n	n	n/a
387.154	0.09	774308	keystroke_Key.space	Key.space	n/a
387.454	0.12	774908	keystroke_c	c	n/a
387.604	0.15	775208	keystroke_o	o	n/a
387.769	0.15	775538	keystroke_n	n	n/a
387.934	0.075	775868	keystroke_s	s	n/a
388.384	0.105	776768	keystroke_t	t	n/a
388.609	0.075	777218	keystroke_i	i	n/a
389.059	0.09	778118	keystroke_t	t	n/a
389.284	0.06	778568	keystroke_u	u	n/a
389.494	0.09	778988	keystroke_t	t	n/a
389.569	0.12	779138	keystroke_i	i	n/a
389.644	0.165	779288	keystroke_o	o	n/a
389.764	0.135	779528	keystroke_n	n	n/a
389.914	0.0755	779828	keystroke_Key.space	Key.space	n/a
390.424	0.105	780848	keystroke_d	d	n/a
390.754	0.12	781508	keystroke_r	r	n/a
390.934	0.135	781868	keystroke_a	a	n/a
391.099	0.105	782198	keystroke_i	i	n/a
391.3995	0.0145	782799	keystroke_n	n	n/a
391.474	0.105	782948	keystroke_a	a	n/a
391.759	0.12	783518	keystroke_g	g	n/a
391.849	0.12	783698	keystroke_e	e	n/a
392.044	0.09	784088	keystroke_Key.enter	Key.enter	n/a
392.1385	7.3915	784277	prompt	n/a	employers hang ellen edward\n
392.854	0.09	785708	keystroke_e	e	n/a
392.974	0.12	785948	keystroke_m	m	n/a
393.199	0.15	786398	keystroke_p	p	n/a
393.304	0.135	786608	keystroke_l	l	n/a
394.159	0.09	788318	keystroke_i	i	n/a
394.804	0.075	789608	keystroke_Key.backspace	Key.backspace	n/a
395.104	0.105	790208	keystroke_o	o	n/a
395.494	0.075	790988	keystroke_y	y	n/a
395.599	0.15	791198	keystroke_e	e	n/a
395.719	0.09	791438	keystroke_r	r	n/a
395.914	0.105	791828	keystroke_s	s	n/a
396.064	0.135	792128	keystroke_Key.space	Key.space	n/a
396.409	0.06	792818	keystroke_h	h	n/a
396.454	0.105	792908	keystroke_a	a	n/a
396.619	0.105	793238	keystroke_n	n	n/a
396.949	0.09	793898	keystroke_g	g	n/a
397.129	0.12	794258	keystroke_Key.space	Key.space	n/a
397.354	0.09	794708	keystroke_e	e	n/a
397.474	0.06	794948	keystroke_l	l	n/a
397.639	0.075	795278	keystroke_l	l	n/a
397.759	0.075	795518	keystroke_e	e	n/a
397.819	0.135	795638	keystroke_n	n	n/a
398.029	0.105	796058	keystroke_Key.space	Key.space	n/a
398.194	0.12	796388	keystroke_e	e	n/a
398.449	0.135	796898	keystroke_d	d	n/a
398.794	0.12	797588	keystroke_w	w	n/a
398.929	0.15	797858	keystroke_a	a	n/a
399.094	0.09	798188	keystroke_r	r	n/a
399.259	0.12	798518	keystroke_d	d	n/a
399.424	0.105	798848	keystroke_Key.enter	Key.enter	n/a
399.5325	7.8425	799065	prompt	n/a	identify ferry keyword width\n
400.099	0.075	800198	keystroke_e	e	n/a
400.459	0.06	800918	keystroke_Key.backspace	Key.backspace	n/a
400.759	0.06	801518	keystroke_i	i	n/a
400.834	0.09	801668	keystroke_d	d	n/a
401.059	0.075	802118	keystroke_e	e	n/a
401.164	0.105	802328	keystroke_n	n	n/a
401.299	0.09	802598	keystroke_t	t	n/a
401.449	0.075	802898	keystroke_i	i	n/a
401.554	0.135	803108	keystroke_f	f	n/a
401.764	0.09	803528	keystroke_y	y	n/a
402.004	0.105	804008	keystroke_Key.space	Key.space	n/a
402.454	0.12	804908	keystroke_f	f	n/a
402.679	0.12	805358	keystroke_e	e	n/a
402.874	0.075	805748	keystroke_r	r	n/a
403.0245	0.1045	806049	keystroke_r	r	n/a
403.189	0.105	806378	keystroke_y	y	n/a
403.384	0.075	806768	keystroke_Key.space	Key.space	n/a
403.699	0.105	807398	keystroke_k	k	n/a
403.819	0.105	807638	keystroke_e	e	n/a
404.059	0.075	808118	keystroke_y	y	n/a
404.539	0.135	809078	keystroke_w	w	n/a
404.704	0.09	809408	keystroke_o	o	n/a
404.989	0.09	809978	keystroke_r	r	n/a
405.229	0.12	810458	keystroke_d	d	n/a
405.424	0.12	810848	keystroke_Key.space	Key.space	n/a
405.739	0.075	811478	keystroke_w	w	n/a
406.159	0.075	812318	keystroke_i	i	n/a
406.354	0.12	812708	keystroke_d	d	n/a
406.864	0.09	813728	keystroke_t	t	n/a
406.999	0.09	813998	keystroke_h	h	n/a
407.299	0.075	814598	keystroke_Key.enter	Key.enter	n/a
407.3785	6.8665	814757	prompt	n/a	enrolled daren't nuts vessels\n
408.109	0.105	816218	keystroke_e	e	n/a
408.259	0.105	816518	keystroke_n	n	n/a
408.514	0.06	817028	keystroke_r	r	n/a
408.604	0.06	817208	keystroke_o	o	n/a
408.829	0.06	817658	keystroke_l	l	n/a
409.009	0.075	818018	keystroke_l	l	n/a
409.099	0.09	818198	keystroke_e	e	n/a
409.309	0.06	818618	keystroke_d	d	n/a
409.444	0.12	818888	keystroke_Key.space	Key.space	n/a
409.714	0.165	819428	keystroke_d	d	n/a
409.849	0.12	819698	keystroke_a	a	n/a
410.239	0.105	820478	keystroke_r	r	n/a
410.299	0.135	820598	keystroke_e	e	n/a
410.464	0.12	820928	keystroke_n	n	n/a
410.869	0.09	821738	keystroke_'	'	n/a
411.049	0.105	822098	keystroke_t	t	n/a
411.394	0.135	822788	keystroke_Key.space	Key.space	n/a
411.694	0.135	823388	keystroke_n	n	n/a
411.979	0.09	823958	keystroke_u	u	n/a
412.114	0.105	824228	keystroke_t	t	n/a
412.324	0.12	824648	keystroke_s	s	n/a
412.459	0.105	824918	keystroke_Key.space	Key.space	n/a
412.699	0.15	825398	keystroke_v	v	n/a
412.954	0.09	825908	keystroke_e	e	n/a
413.149	0.09	826298	keystroke_s	s	n/a
413.329	0.12	826658	keystroke_s	s	n/a
413.599	0.0755	827198	keystroke_e	e	n/a
413.794	0.09	827588	keystroke_l	l	n/a
413.884	0.135	827768	keystroke_s	s	n/a
414.139	0.105	828278	keystroke_Key.enter	Key.enter	n/a
414.2475	9.2525	828495	prompt	n/a	tomato stable strategy fixtures\n
414.964	0.09	829928	keystroke_t	t	n/a
415.084	0.075	830168	keystroke_o	o	n/a
415.384	0.105	830768	keystroke_m	m	n/a
415.534	0.09	831068	keystroke_a	a	n/a
415.864	0.075	831728	keystroke_t	t	n/a
415.984	0.075	831968	keystroke_o	o	n/a
416.224	0.105	832448	keystroke_Key.space	Key.space	n/a
416.359	0.09	832718	keystroke_s	s	n/a
416.554	0.0905	833108	keystroke_t	t	n/a
416.674	0.135	833348	keystroke_a	a	n/a
416.959	0.09	833918	keystroke_b	b	n/a
417.199	0.075	834398	keystroke_l	l	n/a
417.2895	0.0745	834579	keystroke_e	e	n/a
417.439	0.105	834878	keystroke_Key.space	Key.space	n/a
417.889	0.06	835778	keystroke_s	s	n/a
418.084	0.1205	836168	keystroke_t	t	n/a
418.159	0.12	836318	keystroke_r	r	n/a
418.369	0.135	836738	keystroke_a	a	n/a
418.909	0.12	837818	keystroke_t	t	n/a
418.999	0.105	837998	keystroke_e	e	n/a
419.224	0.09	838448	keystroke_g	g	n/a
419.434	0.075	838868	keystroke_y	y	n/a
419.629	0.09	839258	keystroke_Key.space	Key.space	n/a
420.244	0.09	840488	keystroke_d	d	n/a
420.454	0.075	840908	keystroke_i	i	n/a
420.994	0.075	841988	keystroke_Key.backspace	Key.backspace	n/a
421.144	0.075	842288	keystroke_Key.backspace	Key.backspace	n/a
421.234	0.1055	842468	keystroke_f	f	n/a
421.474	0.075	842948	keystroke_i	i	n/a
421.714	0.105	843428	keystroke_x	x	n/a
422.239	0.09	844478	keystroke_t	t	n/a
422.389	0.045	844778	keystroke_u	u	n/a
422.509	0.12	845018	keystroke_r	r	n/a
422.584	0.15	845168	keystroke_e	e	n/a
423.214	0.09	846428	keystroke_s	s	n/a
423.409	0.09	846818	keystroke_Key.enter	Key.enter	n/a
423.5035	9.8065	847007	prompt	n/a	talent parish although automatically\n
424.444	0.12	848888	keystroke_t	t	n/a
424.654	0.09	849308	keystroke_a	a	n/a
425.059	0.12	850118	keystroke_k	k	n/a
425.149	0.105	850298	keystroke_e	e	n/a
425.419	0.105	850838	keystroke_n	n	n/a
425.914	0.075	851828	keystroke_Key.backspace	Key.backspace	n/a
426.079	0.075	852158	keystroke_Key.backspace	Key.backspace	n/a
426.259	0.06	852518	keystroke_Key.backspace	Key.backspace	n/a
426.559	0.09	853118	keystroke_l	l	n/a
426.709	0.105	853418	keystroke_e	e	n/a
426.964	0.06	853928	keystroke_n	n	n/a
427.384	0.075	854768	keystroke_t	t	n/a
427.534	0.12	855068	keystroke_Key.space	Key.space	n/a
427.894	0.075	855788	keystroke_p	p	n/a
427.954	0.105	855908	keystroke_a	a	n/a
428.119	0.075	856238	keystroke_r	r	n/a
428.2695	0.0745	856539	keystroke_i	i	n/a
428.374	0.105	856748	keystroke_s	s	n/a
428.629	0.075	857258	keystroke_h	h	n/a
428.809	0.105	857618	keystroke_Key.space	Key.space	n/a
428.974	0.09	857948	keystroke_a	a	n/a
429.079	0.09	858158	keystroke_l	l	n/a
429.319	0.075	858638	keystroke_t	t	n/a
429.424	0.06	858848	keystroke_h	h	n/a
429.574	0.135	859148	keystroke_o	o	n/a
429.679	0.09	859358	keystroke_u	u	n/a
429.829	0.09	859658	keystroke_g	g	n/a
429.934	0.105	859868	keystroke_h	h	n/a
430.054	0.105	860108	keystroke_Key.space	Key.space	n/a
430.519	0.12	861038	keystroke_a	a	n/a
431.179	0.075	862358	keystroke_u	u	n/a
431.374	0.09	862748	keystroke_t	t	n/a
431.479	0.09	862958	keystroke_o	o	n/a
431.7495	0.0895	863499	keystroke_m	m	n/a
431.854	0.105	863708	keystroke_a	a	n/a
432.034	0.075	864068	keystroke_t	t	n/a
432.169	0.0455	864338	keystroke_i	i	n/a
432.319	0.1205	864638	keystroke_c	c	n/a
432.394	0.135	864788	keystroke_a	a	n/a
432.514	0.045	865028	keystroke_l	l	n/a
432.664	0.0755	865328	keystroke_l	l	n/a
432.919	0.0755	865838	keystroke_y	y	n/a
433.219	0.09	866438	keystroke_Key.enter	Key.enter	n/a
433.3125	6.4775	866625	prompt	n/a	choose kirk hierarchy reforms\n
434.089	0.12	868178	keystroke_c	c	n/a
434.239	0.105	868478	keystroke_h	h	n/a
434.449	0.06	868898	keystroke_o	o	n/a
434.614	0.09	869228	keystroke_o	o	n/a
434.8545	0.2095	869709	keystroke_s	s	n/a
435.034	0.075	870068	keystroke_e	e	n/a
435.169	0.12	870338	keystroke_Key.space	Key.space	n/a
435.394	0.105	870788	keystroke_k	k	n/a
435.619	0.06	871238	keystroke_i	i	n/a
435.724	0.105	871448	keystroke_r	r	n/a
435.964	0.105	871928	keystroke_k	k	n/a
436.2345	0.1045	872469	keystroke_Key.space	Key.space	n/a
436.5645	0.0445	873129	keystroke_h	h	n/a
436.774	0.075	873548	keystroke_i	i	n/a
437.014	0.12	874028	keystroke_e	e	n/a
437.074	0.105	874148	keystroke_r	r	n/a
437.254	0.105	874508	keystroke_a	a	n/a
437.449	0.105	874898	keystroke_r	r	n/a
437.749	0.09	875498	keystroke_c	c	n/a
437.884	0.075	875768	keystroke_h	h	n/a
438.214	0.06	876428	keystroke_y	y	n/a
438.394	0.105	876788	keystroke_Key.space	Key.space	n/a
438.769	0.135	877538	keystroke_r	r	n/a
438.859	0.12	877718	keystroke_e	e	n/a
439.054	0.105	878108	keystroke_f	f	n/a
439.174	0.09	878348	keystroke_o	o	n/a
439.279	0.105	878558	keystroke_r	r	n/a
439.414	0.135	878828	keystroke_m	m	n/a
439.534	0.105	879068	keystroke_s	s	n/a
439.684	0.105	879368	keystroke_Key.enter	Key.enter	n/a
439.7935	7.7065	879587	prompt	n/a	crack catholic picks jason\n
440.434	0.12	880868	keystroke_c	c	n/a
440.704	0.135	881408	keystroke_r	r	n/a
440.824	0.135	881648	keystroke_a	a	n/a
441.064	0.105	882128	keystroke_c	c	n/a
441.229	0.105	882458	keystroke_h	h	n/a
441.304	0.12	882608	keystroke_Key.space	Key.space	n/a
441.544	0.105	883088	keystroke_a	a	n/a
441.7095	0.1195	883419	keystroke_c	c	n/a
442.219	0.06	884438	keystroke_Key.backspace	Key.backspace	n/a
442.369	0.075	884738	keystroke_Key.backspace	Key.backspace	n/a
442.429	0.12	884858	keystroke_c	c	n/a
442.519	0.1055	885038	keystroke_a	a	n/a
442.759	0.09	885518	keystroke_t	t	n/a
442.879	0.075	885758	keystroke_h	h	n/a
443.029	0.135	886058	keystroke_o	o	n/a
443.419	0.09	886838	keystroke_l	l	n/a
443.599	0.105	887198	keystroke_i	i	n/a
443.689	0.135	887378	keystroke_c	c	n/a
443.929	0.105	887858	keystroke_Key.space	Key.space	n/a
444.274	0.09	888548	keystroke_p	p	n/a
444.484	0.09	888968	keystroke_i	i	n/a
444.559	0.135	889118	keystroke_c	c	n/a
444.754	0.105	889508	keystroke_l	l	n/a
445.234	0.075	890468	keystroke_Key.backspace	Key.backspace	n/a
445.534	0.09	891068	keystroke_k	k	n/a
445.639	0.09	891278	keystroke_s	s	n/a
445.789	0.12	891578	keystroke_Key.space	Key.space	n/a
446.374	0.06	892748	keystroke_j	j	n/a
446.629	0.105	893258	keystroke_a	a	n/a
446.899	0.105	893798	keystroke_s	s	n/a
446.974	0.165	893948	keystroke_o	o	n/a
447.109	0.12	894218	keystroke_n	n	n/a
447.379	0.12	894758	keystroke_Key.enter	Key.enter	n/a
447.5045	7.3605	895009	prompt	n/a	opera excellence courage undo\n
448.4895	0.1645	896979	keystroke_o	o	n/a
448.594	0.105	897188	keystroke_p	p	n/a
448.669	0.1505	897338	keystroke_e	e	n/a
449.179	0.135	898358	keystroke_r	r	n/a
449.254	0.135	898508	keystroke_a	a	n/a
449.494	0.12	898988	keystroke_Key.space	Key.space	n/a
450.1095	0.0895	900219	keystroke_e	e	n/a
450.439	0.105	900878	keystroke_x	x	n/a
450.709	0.09	901418	keystroke_c	c	n/a
450.7545	0.1195	901509	keystroke_e	e	n/a
450.994	0.045	901988	keystroke_l	l	n/a
451.1445	0.0745	902289	keystroke_l	l	n/a
451.234	0.135	902468	keystroke_e	e	n/a
451.609	0.135	903218	keystroke_n	n	n/a
451.729	0.15	903458	keystroke_c	c	n/a
451.834	0.12	903668	keystroke_e	e	n/a
452.284	0.105	904568	keystroke_Key.space	Key.space	n/a
452.674	0.105	905348	keystroke_c	c	n/a
452.764	0.135	905528	keystroke_o	o	n/a
452.854	0.12	905708	keystroke_u	u	n/a
453.064	0.135	906128	keystroke_r	r	n/a
453.1695	0.1195	906339	keystroke_a	a	n/a
453.409	0.1355	906818	keystroke_g	g	n/a
453.499	0.12	906998	keystroke_e	e	n/a
453.694	0.105	907388	keystroke_Key.space	Key.space	n/a
453.994	0.075	907988	keystroke_u	u	n/a
454.219	0.12	908438	keystroke_n	n	n/a
454.3545	0.1045	908709	keystroke_d	d	n/a
454.474	0.09	908948	keystroke_o	o	n/a
454.759	0.105	909518	keystroke_Key.enter	Key.enter	n/a
454.8685	10.6465	909737	prompt	n/a	inappropriate opportunities weekly miracle\n
455.5995	0.105	911199	keystroke_i	i	n/a
455.809	0.12	911618	keystroke_n	n	n/a
456.064	0.0605	912128	keystroke_p	p	n/a
456.499	0.0755	912998	keystroke_Key.backspace	Key.backspace	n/a
456.619	0.09	913238	keystroke_a	a	n/a
456.994	0.06	913988	keystroke_p	p	n/a
457.1445	0.0895	914289	keystroke_p	p	n/a
457.354	0.075	914708	keystroke_r	r	n/a
457.459	0.09	914918	keystroke_o	o	n/a
457.819	0.06	915638	keystroke_p	p	n/a
458.014	0.09	916028	keystroke_r	r	n/a
458.449	0.105	916898	keystroke_i	i	n/a
458.9295	0.1495	917859	keystroke_a	a	n/a
459.229	0.12	918458	keystroke_t	t	n/a
459.334	0.1055	918668	keystroke_e	e	n/a
459.514	0.12	919028	keystroke_Key.space	Key.space	n/a
459.919	0.105	919838	keystroke_o	o	n/a
460.1445	0.0745	920289	keystroke_p	p	n/a
460.309	0.105	920618	keystroke_p	p	n/a
460.429	0.105	920858	keystroke_o	o	n/a
460.564	0.105	921128	keystroke_r	r	n/a
460.894	0.09	921788	keystroke_t	t	n/a
461.554	0.105	923108	keystroke_u	u	n/a
461.869	0.105	923738	keystroke_n	n	n/a
462.0945	0.0745	924189	keystroke_i	i	n/a
462.184	0.1205	924368	keystroke_t	t	n/a
462.2895	0.0745	924579	keystroke_i	i	n/a
462.394	0.12	924788	keystroke_e	e	n/a
462.604	0.09	925208	keystroke_s	s	n/a
462.6945	0.1345	925389	keystroke_Key.space	Key.space	n/a
462.889	0.135	925778	keystroke_w	w	n/a
462.994	0.09	925988	keystroke_e	e	n/a
463.144	0.105	926288	keystroke_e	e	n/a
463.309	0.12	926618	keystroke_k	k	n/a
463.564	0.0755	927128	keystroke_l	l	n/a
463.849	0.1065	927698	keystroke_y	y	n/a
463.9245	0.1045	927849	keystroke_Key.space	Key.space	n/a
464.209	0.135	928418	keystroke_m	m	n/a
464.434	0.09	928868	keystroke_i	i	n/a
464.5095	0.1195	929019	keystroke_r	r	n/a
464.599	0.105	929198	keystroke_a	a	n/a
464.854	0.165	929708	keystroke_c	c	n/a
465.124	0.075	930248	keystroke_l	l	n/a
465.229	0.0755	930458	keystroke_e	e	n/a
465.439	0.075	930878	keystroke_Key.enter	Key.enter	n/a
465.518	5.4725	931036	prompt	n/a	smell grants helen scared\n
466.444	0.09	932888	keystroke_s	s	n/a
466.564	0.135	933128	keystroke_m	m	n/a
466.759	0.09	933518	keystroke_e	e	n/a
466.894	0.0605	933788	keystroke_l	l	n/a
467.059	0.09	934118	keystroke_l	l	n/a
467.2695	0.1045	934539	keystroke_Key.space	Key.space	n/a
467.569	0.135	935138	keystroke_g	g	n/a
467.659	0.165	935318	keystroke_r	r	n/a
467.764	0.135	935528	keystroke_a	a	n/a
467.9145	0.0895	935829	keystroke_n	n	n/a
468.094	0.1055	936188	keystroke_t	t	n/a
468.199	0.15	936398	keystroke_s	s	n/a
468.334	0.12	936668	keystroke_Key.space	Key.space	n/a
468.559	0.09	937118	keystroke_h	h	n/a
468.6345	0.0595	937269	keystroke_e	e	n/a
468.7845	0.0745	937569	keystroke_l	l	n/a
468.934	0.09	937868	keystroke_e	e	n/a
469.129	0.1505	938258	keystroke_n	n	n/a
469.2945	0.0895	938589	keystroke_Key.space	Key.space	n/a
469.4895	0.12	938979	keystroke_s	s	n/a
469.624	0.1355	939248	keystroke_c	c	n/a
469.834	0.12	939668	keystroke_a	a	n/a
470.374	0.105	940748	keystroke_r	r	n/a
470.419	0.12	940838	keystroke_e	e	n/a
470.674	0.1205	941348	keystroke_d	d	n/a
470.869	0.12	941738	keystroke_Key.enter	Key.enter	n/a
470.994	5.981	941988	prompt	n/a	reviews spatial radio silent\n
471.769	0.105	943538	keystroke_r	r	n/a
471.844	0.12	943688	keystroke_e	e	n/a
472.099	0.12	944198	keystroke_v	v	n/a
472.279	0.0755	944558	keystroke_i	i	n/a
472.4895	0.09	944979	keystroke_e	e	n/a
472.549	0.1065	945098	keystroke_w	w	n/a
472.819	0.135	945638	keystroke_s	s	n/a
472.984	0.121	945968	keystroke_Key.space	Key.space	n/a
473.134	0.12	946268	keystroke_s	s	n/a
473.314	0.075	946628	keystroke_p	p	n/a
473.419	0.09	946838	keystroke_a	a	n/a
473.794	0.075	947588	keystroke_t	t	n/a
473.899	0.09	947798	keystroke_i	i	n/a
474.034	0.09	948068	keystroke_a	a	n/a
474.1095	0.0895	948219	keystroke_l	l	n/a
474.259	0.105	948518	keystroke_Key.space	Key.space	n/a
474.949	0.165	949898	keystroke_r	r	n/a
475.069	0.12	950138	keystroke_a	a	n/a
475.414	0.0905	950828	keystroke_d	d	n/a
475.564	0.105	951128	keystroke_i	i	n/a
475.714	0.105	951428	keystroke_o	o	n/a
475.849	0.12	951698	keystroke_Key.space	Key.space	n/a
475.984	0.12	951968	keystroke_s	s	n/a
476.119	0.06	952238	keystroke_i	i	n/a
476.299	0.09	952598	keystroke_l	l	n/a
476.434	0.075	952868	keystroke_e	e	n/a
476.5395	0.12	953079	keystroke_n	n	n/a
476.704	0.105	953408	keystroke_t	t	n/a
476.884	0.09	953768	keystroke_Key.enter	Key.enter	n/a
476.978	6.717	953956	prompt	n/a	salem novelty wings keeping\n
477.874	0.135	955748	keystroke_s	s	n/a
477.964	0.12	955928	keystroke_a	a	n/a
478.099	0.09	956198	keystroke_l	l	n/a
478.219	0.0905	956438	keystroke_e	e	n/a
478.4295	0.1195	956859	keystroke_m	m	n/a
478.6845	0.1045	957369	keystroke_Key.space	Key.space	n/a
478.984	0.105	957968	keystroke_n	n	n/a
479.209	0.075	958418	keystroke_o	o	n/a
479.344	0.12	958688	keystroke_v	v	n/a
479.449	0.105	958898	keystroke_e	e	n/a
479.569	0.0905	959138	keystroke_l	l	n/a
479.9445	0.1045	959889	keystroke_t	t	n/a
480.214	0.0905	960428	keystroke_y	y	n/a
480.544	0.09	961088	keystroke_Key.space	Key.space	n/a
480.844	0.015	961688	keystroke_s	s	n/a
481.234	0.06	962468	keystroke_Key.backspace	Key.backspace	n/a
481.309	0.09	962618	keystroke_w	w	n/a
481.5195	0.1495	963039	keystroke_i	i	n/a
481.609	0.135	963218	keystroke_n	n	n/a
481.774	0.1505	963548	keystroke_g	g	n/a
481.999	0.12	963998	keystroke_s	s	n/a
482.164	0.12	964328	keystroke_Key.space	Key.space	n/a
482.614	0.105	965228	keystroke_k	k	n/a
482.704	0.075	965408	keystroke_e	e	n/a
482.884	0.09	965768	keystroke_e	e	n/a
483.004	0.09	966008	keystroke_p	p	n/a
483.229	0.15	966458	keystroke_i	i	n/a
483.349	0.12	966698	keystroke_n	n	n/a
483.499	0.075	966998	keystroke_g	g	n/a
483.6055	0.0885	967211	keystroke_Key.enter	Key.enter	n/a
483.698	8.247	967396	prompt	n/a	flow accordingly frequencies helped\n
484.549	0.135	969098	keystroke_f	f	n/a
484.729	0.09	969458	keystroke_l	l	n/a
484.954	0.09	969908	keystroke_o	o	n/a
485.164	0.075	970328	keystroke_w	w	n/a
485.359	0.12	970718	keystroke_Key.space	Key.space	n/a
485.5695	0.1195	971139	keystroke_a	a	n/a
485.764	0.075	971528	keystroke_c	c	n/a
485.929	0.135	971858	keystroke_c	c	n/a
486.124	0.09	972248	keystroke_o	o	n/a
486.244	0.12	972488	keystroke_r	r	n/a
486.634	0.09	973268	keystroke_d	d	n/a
486.844	0.165	973688	keystroke_i	i	n/a
486.994	0.12	973988	keystroke_n	n	n/a
487.084	0.09	974168	keystroke_g	g	n/a
487.2645	0.075	974529	keystroke_l	l	n/a
487.504	0.06	975008	keystroke_y	y	n/a
487.684	0.105	975368	keystroke_Key.space	Key.space	n/a
487.9695	0.0895	975939	keystroke_d	d	n/a
488.524	0.075	977048	keystroke_Key.backspace	Key.backspace	n/a
488.584	0.135	977168	keystroke_f	f	n/a
488.869	0.1205	977738	keystroke_r	r	n/a
488.944	0.135	977888	keystroke_e	e	n/a
489.2445	0.1195	978489	keystroke_q	q	n/a
489.409	0.075	978818	keystroke_u	u	n/a
489.514	0.09	979028	keystroke_e	e	n/a
489.679	0.105	979358	keystroke_n	n	n/a
489.799	0.12	979598	keystroke_c	c	n/a
489.964	0.0755	979928	keystroke_i	i	n/a
490.055	0.104	980110	keystroke_e	e	n/a
490.219	0.105	980438	keystroke_s	s	n/a
490.369	0.1205	980738	keystroke_Key.space	Key.space	n/a
490.834	0.06	981668	keystroke_h	h	n/a
490.924	0.09	981848	keystroke_e	e	n/a
491.059	0.0605	982118	keystroke_l	l	n/a
491.299	0.075	982598	keystroke_p	p	n/a
491.464	0.091	982928	keystroke_e	e	n/a
491.6895	0.1195	983379	keystroke_d	d	n/a
491.824	0.12	983648	keystroke_Key.enter	Key.enter	n/a
491.9485	6.6265	983897	prompt	n/a	spent industrial turkey mental\n
492.724	0.075	985448	keystroke_s	s	n/a
492.829	0.075	985658	keystroke_p	p	n/a
492.949	0.075	985898	keystroke_e	e	n/a
493.114	0.1055	986228	keystroke_n	n	n/a
493.279	0.0605	986558	keystroke_t	t	n/a
493.399	0.12	986798	keystroke_Key.space	Key.space	n/a
493.7895	0.1345	987579	keystroke_i	i	n/a
493.8645	0.1495	987729	keystroke_n	n	n/a
494.284	0.075	988568	keystroke_d	d	n/a
494.405	0.074	988810	keystroke_u	u	n/a
494.584	0.106	989168	keystroke_s	s	n/a
494.824	0.1205	989648	keystroke_t	t	n/a
494.929	0.1055	989858	keystroke_r	r	n/a
495.094	0.09	990188	keystroke_i	i	n/a
495.305	0.089	990610	keystroke_a	a	n/a
495.409	0.06	990818	keystroke_l	l	n/a
495.5445	0.1195	991089	keystroke_Key.space	Key.space	n/a
495.769	0.09	991538	keystroke_t	t	n/a
495.905	0.059	991810	keystroke_u	u	n/a
496.055	0.074	992110	keystroke_r	r	n/a
496.309	0.09	992618	keystroke_k	k	n/a
496.429	0.09	992858	keystroke_e	e	n/a
496.655	0.074	993310	keystroke_y	y	n/a
496.819	0.09	993638	keystroke_Key.space	Key.space	n/a
497.119	0.1055	994238	keystroke_m	m	n/a
497.269	0.075	994538	keystroke_e	e	n/a
497.3445	0.1045	994689	keystroke_n	n	n/a
497.659	0.105	995318	keystroke_t	t	n/a
497.9445	0.0895	995889	keystroke_a	a	n/a
498.0645	0.1195	996129	keystroke_l	l	n/a
498.469	0.105	996938	keystroke_Key.enter	Key.enter	n/a
498.578	8.578	997156	prompt	n/a	papua program basket reunion\n
499.369	0.075	998738	keystroke_p	p	n/a
499.924	0.045	999848	keystroke_p	p	n/a
500.299	0.075	1000598	keystroke_Key.backspace	Key.backspace	n/a
500.419	0.12	1000838	keystroke_a	a	n/a
500.5845	0.0895	1001169	keystroke_p	p	n/a
500.855	0.089	1001710	keystroke_a	a	n/a
501.229	0.06	1002458	keystroke_Key.backspace	Key.backspace	n/a
501.529	0.06	1003058	keystroke_i	i	n/a
501.605	0.134	1003210	keystroke_a	a	n/a
502.234	0.06	1004468	keystroke_Key.backspace	Key.backspace	n/a
502.369	0.09	1004738	keystroke_Key.backspace	Key.backspace	n/a
502.669	0.06	1005338	keystroke_u	u	n/a
502.744	0.12	1005488	keystroke_a	a	n/a
502.894	0.09	1005788	keystroke_Key.space	Key.space	n/a
503.134	0.06	1006268	keystroke_p	p	n/a
503.209	0.105	1006418	keystroke_r	r	n/a
503.344	0.075	1006688	keystroke_o	o	n/a
503.569	0.15	1007138	keystroke_g	g	n/a
503.6895	0.1345	1007379	keystroke_r	r	n/a
503.764	0.135	1007528	keystroke_a	a	n/a
503.855	0.104	1007710	keystroke_m	m	n/a
504.109	0.0905	1008218	keystroke_Key.space	Key.space	n/a
504.439	0.09	1008878	keystroke_b	b	n/a
504.6345	0.1345	1009269	keystroke_a	a	n/a
504.7245	0.1045	1009449	keystroke_s	s	n/a
505.009	0.075	1010018	keystroke_k	k	n/a
505.069	0.105	1010138	keystroke_e	e	n/a
505.324	0.105	1010648	keystroke_t	t	n/a
505.474	0.09	1010948	keystroke_Key.space	Key.space	n/a
505.729	0.12	1011458	keystroke_r	r	n/a
505.8195	0.12	1011639	keystroke_e	e	n/a
506.059	0.075	1012118	keystroke_u	u	n/a
506.299	0.09	1012598	keystroke_n	n	n/a
506.539	0.15	1013078	keystroke_i	i	n/a
506.674	0.135	1013348	keystroke_o	o	n/a
506.779	0.12	1013558	keystroke_n	n	n/a
507.034	0.121	1014068	keystroke_Key.enter	Key.enter	n/a
507.159	5.381	1014318	prompt	n/a	against insurance example late\n
507.889	0.135	1015778	keystroke_a	a	n/a
508.129	0.105	1016258	keystroke_g	g	n/a
508.219	0.137	1016438	keystroke_a	a	n/a
508.324	0.105	1016648	keystroke_i	i	n/a
508.399	0.12	1016798	keystroke_n	n	n/a
508.505	0.089	1017010	keystroke_s	s	n/a
508.684	0.075	1017368	keystroke_t	t	n/a
508.789	0.105	1017578	keystroke_Key.space	Key.space	n/a
509.074	0.12	1018148	keystroke_i	i	n/a
509.164	0.105	1018328	keystroke_n	n	n/a
509.239	0.09	1018478	keystroke_s	s	n/a
509.405	0.074	1018810	keystroke_u	u	n/a
509.509	0.15	1019018	keystroke_r	r	n/a
509.629	0.12	1019258	keystroke_a	a	n/a
509.824	0.12	1019648	keystroke_n	n	n/a
510.184	0.106	1020368	keystroke_c	c	n/a
510.2295	0.135	1020459	keystroke_e	e	n/a
510.424	0.105	1020848	keystroke_Key.space	Key.space	n/a
510.664	0.075	1021328	keystroke_e	e	n/a
510.934	0.15	1021868	keystroke_x	x	n/a
511.009	0.165	1022018	keystroke_a	a	n/a
511.159	0.12	1022318	keystroke_m	m	n/a
511.324	0.165	1022648	keystroke_p	p	n/a
511.429	0.1205	1022858	keystroke_l	l	n/a
511.549	0.09	1023098	keystroke_e	e	n/a
511.774	0.075	1023548	keystroke_Key.space	Key.space	n/a
512.029	0.076	1024058	keystroke_l	l	n/a
512.074	0.09	1024148	keystroke_a	a	n/a
512.2555	0.1035	1024511	keystroke_t	t	n/a
512.329	0.12	1024658	keystroke_e	e	n/a
512.464	0.075	1024928	keystroke_Key.enter	Key.enter	n/a
512.543	6.042	1025086	prompt	n/a	research grown licenses holy\n
513.244	0.12	1026488	keystroke_r	r	n/a
513.334	0.105	1026668	keystroke_e	e	n/a
513.784	0.15	1027568	keystroke_s	s	n/a
514.159	0.196	1028318	keystroke_e	e	n/a
514.279	0.15	1028558	keystroke_a	a	n/a
514.414	0.1355	1028828	keystroke_r	r	n/a
514.669	0.105	1029338	keystroke_c	c	n/a
514.805	0.104	1029610	keystroke_h	h	n/a
514.864	0.12	1029728	keystroke_Key.space	Key.space	n/a
515.164	0.03	1030328	keystroke_g	g	n/a
515.179	0.105	1030358	keystroke_r	r	n/a
515.314	0.091	1030628	keystroke_o	o	n/a
515.449	0.0905	1030898	keystroke_w	w	n/a
515.599	0.12	1031198	keystroke_n	n	n/a
515.705	0.089	1031410	keystroke_Key.space	Key.space	n/a
515.9295	0.1645	1031859	keystroke_l	l	n/a
516.034	0.105	1032068	keystroke_i	i	n/a
516.155	0.134	1032310	keystroke_c	c	n/a
516.244	0.105	1032488	keystroke_e	e	n/a
516.394	0.12	1032788	keystroke_n	n	n/a
516.5145	0.1945	1033029	keystroke_s	s	n/a
516.619	0.136	1033238	keystroke_e	e	n/a
516.859	0.09	1033718	keystroke_s	s	n/a
517.099	0.106	1034198	keystroke_Key.space	Key.space	n/a
517.4295	0.0895	1034859	keystroke_h	h	n/a
517.579	0.09	1035158	keystroke_o	o	n/a
517.805	0.074	1035610	keystroke_l	l	n/a
518.164	0.091	1036328	keystroke_y	y	n/a
518.509	0.075	1037018	keystroke_Key.enter	Key.enter	n/a
518.5885	6.8675	1037177	prompt	n/a	mint automobiles quoted phone\n
519.3195	0.15	1038639	keystroke_m	m	n/a
519.499	0.165	1038998	keystroke_i	i	n/a
519.605	0.119	1039210	keystroke_n	n	n/a
519.7545	0.0745	1039509	keystroke_t	t	n/a
519.874	0.105	1039748	keystroke_Key.space	Key.space	n/a
519.994	0.105	1039988	keystroke_a	a	n/a
520.1445	0.0615	1040289	keystroke_u	u	n/a
520.309	0.09	1040618	keystroke_t	t	n/a
520.429	0.076	1040858	keystroke_o	o	n/a
520.805	0.089	1041610	keystroke_m	m	n/a
521.014	0.0755	1042028	keystroke_o	o	n/a
521.464	0.091	1042928	keystroke_b	b	n/a
521.6745	0.1045	1043349	keystroke_i	i	n/a
521.8245	0.1045	1043649	keystroke_l	l	n/a
521.959	0.0905	1043918	keystroke_e	e	n/a
522.14	0.089	1044280	keystroke_s	s	n/a
522.2745	0.1195	1044549	keystroke_Key.space	Key.space	n/a
522.544	0.12	1045088	keystroke_q	q	n/a
522.6645	0.1495	1045329	keystroke_u	u	n/a
522.829	0.03	1045658	keystroke_i	i	n/a
523.264	0.06	1046528	keystroke_Key.backspace	Key.backspace	n/a
523.564	0.075	1047128	keystroke_o	o	n/a
523.729	0.135	1047458	keystroke_t	t	n/a
523.849	0.06	1047698	keystroke_e	e	n/a
524.044	0.09	1048088	keystroke_d	d	n/a
524.2095	0.105	1048419	keystroke_Key.space	Key.space	n/a
524.4795	0.0895	1048959	keystroke_p	p	n/a
524.7345	0.0745	1049469	keystroke_h	h	n/a
524.8555	0.2085	1049711	keystroke_o	o	n/a
524.9895	0.1655	1049979	keystroke_n	n	n/a
525.124	0.105	1050248	keystroke_e	e	n/a
525.379	0.076	1050758	keystroke_Key.enter	Key.enter	n/a
525.459	7.648	1050918	prompt	n/a	absolute plaza romania buys\n
526.219	0.121	1052438	keystroke_a	a	n/a
526.7445	0.09	1053489	keystroke_b	b	n/a
527.0295	0.1195	1054059	keystroke_s	s	n/a
527.255	0.059	1054510	keystroke_o	o	n/a
527.4645	0.0745	1054929	keystroke_l	l	n/a
527.689	0.06	1055378	keystroke_u	u	n/a
527.839	0.105	1055678	keystroke_t	t	n/a
527.929	0.105	1055858	keystroke_e	e	n/a
528.124	0.105	1056248	keystroke_Key.space	Key.space	n/a
528.409	0.15	1056818	keystroke_p	p	n/a
528.4995	0.1345	1056999	keystroke_l	l	n/a
528.6195	0.1045	1057239	keystroke_a	a	n/a
529.356	0.1335	1058712	keystroke_z	z	n/a
529.655	0.104	1059310	keystroke_a	a	n/a
529.984	0.105	1059968	keystroke_Key.space	Key.space	n/a
530.299	0.091	1060598	keystroke_r	r	n/a
530.39	0.0895	1060780	keystroke_o	o	n/a
530.6145	0.075	1061229	keystroke_m	m	n/a
530.719	0.1055	1061438	keystroke_a	a	n/a
530.8395	0.1045	1061679	keystroke_n	n	n/a
531.034	0.09	1062068	keystroke_i	i	n/a
531.1395	0.105	1062279	keystroke_a	a	n/a
531.274	0.135	1062548	keystroke_Key.space	Key.space	n/a
531.7555	0.1335	1063511	keystroke_b	b	n/a
532.1895	0.0895	1064379	keystroke_u	u	n/a
532.549	0.12	1065098	keystroke_y	y	n/a
532.819	0.105	1065638	keystroke_s	s	n/a
532.9995	0.1055	1065999	keystroke_Key.enter	Key.enter	n/a
533.1115	7.704	1066223	prompt	n/a	conclusion tutorial habits solar\n
533.914	0.135	1067828	keystroke_c	c	n/a
534.064	0.12	1068128	keystroke_o	o	n/a
534.155	0.1045	1068310	keystroke_n	n	n/a
534.319	0.1205	1068638	keystroke_c	c	n/a
534.5295	0.1045	1069059	keystroke_l	l	n/a
534.7395	0.075	1069479	keystroke_u	u	n/a
534.8745	0.1045	1069749	keystroke_d	d	n/a
535.414	0.0605	1070828	keystroke_Key.backspace	Key.backspace	n/a
535.474	0.1205	1070948	keystroke_s	s	n/a
535.7145	0.135	1071429	keystroke_i	i	n/a
535.744	0.1655	1071488	keystroke_o	o	n/a
535.8945	0.1345	1071789	keystroke_n	n	n/a
535.984	0.121	1071968	keystroke_Key.space	Key.space	n/a
536.3895	0.105	1072779	keystroke_t	t	n/a
536.569	0.0905	1073138	keystroke_u	u	n/a
536.719	0.1055	1073438	keystroke_t	t	n/a
537.1695	0.06	1074339	keystroke_o	o	n/a
537.5145	0.0905	1075029	keystroke_r	r	n/a
537.664	0.091	1075328	keystroke_i	i	n/a
537.7695	0.09	1075539	keystroke_a	a	n/a
537.874	0.0905	1075748	keystroke_l	l	n/a
537.979	0.105	1075958	keystroke_Key.space	Key.space	n/a
538.2495	0.06	1076499	keystroke_h	h	n/a
538.3245	0.0895	1076649	keystroke_a	a	n/a
538.6395	0.0895	1077279	keystroke_b	b	n/a
539.044	0.0755	1078088	keystroke_i	i	n/a
539.1645	0.0905	1078329	keystroke_t	t	n/a
539.3445	0.09	1078689	keystroke_s	s	n/a
539.4945	0.09	1078989	keystroke_Key.space	Key.space	n/a
539.7645	0.075	1079529	keystroke_s	s	n/a
539.855	0.0745	1079710	keystroke_o	o	n/a
540.0645	0.075	1080129	keystroke_l	l	n/a
540.1395	0.12	1080279	keystroke_a	a	n/a
540.4845	0.075	1080969	keystroke_r	r	n/a
540.7245	0.09	1081449	keystroke_Key.enter	Key.enter	n/a
540.819	7.6015	1081638	prompt	n/a	hearts layout mightn't casual\n
541.6695	0.06	1083339	keystroke_h	h	n/a
541.8195	0.12	1083639	keystroke_e	e	n/a
541.9095	0.12	1083819	keystroke_a	a	n/a
542.2245	0.12	1084449	keystroke_r	r	n/a
542.555	0.0895	1085110	keystroke_t	t	n/a
542.6745	0.12	1085349	keystroke_s	s	n/a
542.855	0.1195	1085710	keystroke_Key.space	Key.space	n/a
543.094	0.09	1086188	keystroke_l	l	n/a
543.1995	0.1055	1086399	keystroke_a	a	n/a
543.4395	0.105	1086879	keystroke_y	y	n/a
543.7095	0.15	1087419	keystroke_o	o	n/a
543.7995	0.135	1087599	keystroke_u	u	n/a
543.9495	0.075	1087899	keystroke_t	t	n/a
544.055	0.1195	1088110	keystroke_Key.space	Key.space	n/a
544.3695	0.09	1088739	keystroke_m	m	n/a
544.5495	0.09	1089099	keystroke_i	i	n/a
544.6845	0.09	1089369	keystroke_g	g	n/a
544.8195	0.09	1089639	keystroke_h	h	n/a
545.0295	0.09	1090059	keystroke_t	t	n/a
545.3895	0.075	1090779	keystroke_n	n	n/a
545.7195	0.09	1091439	keystroke_'	'	n/a
545.8995	0.09	1091799	keystroke_t	t	n/a
546.2145	0.12	1092429	keystroke_Key.space	Key.space	n/a
547.0845	0.15	1094169	keystroke_c	c	n/a
547.2195	0.1355	1094439	keystroke_a	a	n/a
547.5945	0.12	1095189	keystroke_s	s	n/a
547.7745	0.09	1095549	keystroke_u	u	n/a
547.8945	0.105	1095789	keystroke_a	a	n/a
548.0445	0.075	1096089	keystroke_l	l	n/a
548.3745	0.045	1096749	keystroke_Key.enter	Key.enter	n/a
548.4235	10.167	1096847	prompt	n/a	landscapes exec minimal inter\n
549.1845	0.09	1098369	keystroke_l	l	n/a
549.2595	0.105	1098519	keystroke_a	a	n/a
549.4245	0.075	1098849	keystroke_n	n	n/a
549.5295	0.1045	1099059	keystroke_d	d	n/a
549.8145	0.195	1099629	keystroke_s	s	n/a
550.3095	0.135	1100619	keystroke_c	c	n/a
550.5645	0.12	1101129	keystroke_a	a	n/a
550.7445	0.0605	1101489	keystroke_p	p	n/a
551.8545	0.12	1103709	keystroke_e	e	n/a
552.0645	0.105	1104129	keystroke_s	s	n/a
552.1995	0.12	1104399	keystroke_Key.space	Key.space	n/a
552.7845	0.09	1105569	keystroke_e	e	n/a
553.2195	0.12	1106439	keystroke_x	x	n/a
553.655	0.0745	1107310	keystroke_e	e	n/a
554.0595	0.135	1108119	keystroke_v	v	n/a
554.405	0.1045	1108810	keystroke_Key.space	Key.space	n/a
554.9895	0.045	1109979	keystroke_Key.backspace	Key.backspace	n/a
555.1395	0.06	1110279	keystroke_Key.backspace	Key.backspace	n/a
555.2145	0.12	1110429	keystroke_c	c	n/a
