onset	duration	sample	value	key	prompt_text
11.219	8.8635	22438	prompt	n/a	the quick brown fox jumps over a lazy dog\n
12.327	0.028	24654	keystroke	t	n/a
12.37	0.105	24740	keystroke	h	n/a
12.476	0.134	24952	keystroke	e	n/a
12.595	0.12	25190	keystroke	Key.space	n/a
12.865	0.1205	25730	keystroke	q	n/a
13.0005	0.105	26001	keystroke	u	n/a
13.0605	0.105	26121	keystroke	i	n/a
13.1955	0.09	26391	keystroke	c	n/a
13.2855	0.2095	26571	keystroke	k	n/a
13.42	0.135	26840	keystroke	Key.space	n/a
13.87	0.09	27740	keystroke	b	n/a
13.99	0.105	27980	keystroke	r	n/a
14.11	0.1205	28220	keystroke	o	n/a
14.2005	0.105	28401	keystroke	w	n/a
14.3055	0.1495	28611	keystroke	n	n/a
14.4105	0.105	28821	keystroke	Key.space	n/a
14.545	0.105	29090	keystroke	f	n/a
14.665	0.105	29330	keystroke	o	n/a
14.83	0.1055	29660	keystroke	x	n/a
14.905	0.09	29810	keystroke	Key.space	n/a
15.04	0.135	30080	keystroke	j	n/a
15.145	0.0905	30290	keystroke	u	n/a
15.325	0.1345	30650	keystroke	m	n/a
15.4155	0.18	30831	keystroke	p	n/a
15.5805	0.12	31161	keystroke	s	n/a
15.7455	0.0745	31491	keystroke	Key.space	n/a
15.895	0.105	31790	keystroke	o	n/a
15.97	0.09	31940	keystroke	v	n/a
16.165	0.165	32330	keystroke	e	n/a
16.2545	0.2105	32509	keystroke	r	n/a
16.405	0.165	32810	keystroke	Key.space	n/a
16.6595	0.1355	33319	keystroke	a	n/a
16.9	0.135	33800	keystroke	Key.space	n/a
17.08	0.12	34160	keystroke	l	n/a
17.155	0.075	34310	keystroke	a	n/a
17.35	0.12	34700	keystroke	z	n/a
17.455	0.135	34910	keystroke	y	n/a
17.545	0.12	35090	keystroke	Key.space	n/a
18.7005	0.045	37401	keystroke	g	n/a
19.0605	0.075	38121	keystroke	Key.backspace	n/a
19.2255	0.0895	38451	keystroke	d	n/a
19.33	0.1205	38660	keystroke	o	n/a
19.466	0.075	38932	keystroke	g	n/a
20.02	0.06	40040	keystroke	Key.enter	n/a
20.088	6.5735	40176	prompt	n/a	bytes arrange i hiring\n
20.899	0.105	41798	keystroke	b	n/a
21.064	0.12	42128	keystroke	y	n/a
21.244	0.18	42488	keystroke	t	n/a
21.304	0.225	42608	keystroke	e	n/a
21.425	0.134	42850	keystroke	s	n/a
21.544	0.09	43088	keystroke	Key.space	n/a
21.694	0.12	43388	keystroke	a	n/a
21.904	0.075	43808	keystroke	r	n/a
22.054	0.1355	44108	keystroke	r	n/a
22.144	0.1055	44288	keystroke	a	n/a
22.2495	0.105	44499	keystroke	n	n/a
22.3695	0.15	44739	keystroke	g	n/a
22.4595	0.1495	44919	keystroke	e	n/a
22.699	0.09	45398	keystroke	Key.space	n/a
22.834	0.121	45668	keystroke	i	n/a
22.925	0.1045	45850	keystroke	Key.space	n/a
23.4195	0.1655	46839	keystroke	h	n/a
23.54	0.15	47080	keystroke	i	n/a
23.825	0.12	47650	keystroke	r	n/a
23.915	0.179	47830	keystroke	i	n/a
24.9795	0.135	49959	keystroke	n	n/a
25.0845	0.1055	50169	keystroke	g	n/a
26.54	0.1195	53080	keystroke	Key.enter	n/a
26.6655	4.751	53331	prompt	n/a	favor barely moment interests\n
27.425	0.1805	54850	keystroke	f	n/a
27.545	0.135	55090	keystroke	a	n/a
27.77	0.1655	55540	keystroke	v	n/a
27.89	0.1655	55780	keystroke	o	n/a
27.9955	0.1345	55991	keystroke	r	n/a
28.145	0.0755	56290	keystroke	Key.space	n/a
28.3255	0.105	56651	keystroke	b	n/a
28.4905	0.135	56981	keystroke	a	n/a
28.6855	0.165	57371	keystroke	r	n/a
28.8045	0.121	57609	keystroke	e	n/a
28.9555	0.09	57911	keystroke	l	n/a
29.09	0.1205	58180	keystroke	y	n/a
29.1945	0.09	58389	keystroke	Key.space	n/a
29.2855	0.134	58571	keystroke	m	n/a
29.3745	0.18	58749	keystroke	o	n/a
29.5095	0.12	59019	keystroke	m	n/a
29.6145	0.09	59229	keystroke	e	n/a
29.7195	0.105	59439	keystroke	n	n/a
29.8105	0.104	59621	keystroke	t	n/a
29.9295	0.075	59859	keystroke	Key.space	n/a
30.0345	0.135	60069	keystroke	i	n/a
30.1095	0.135	60219	keystroke	n	n/a
30.2305	0.09	60461	keystroke	t	n/a
30.3645	0.136	60729	keystroke	e	n/a
30.4545	0.225	60909	keystroke	r	n/a
30.6055	0.284	61211	keystroke	e	n/a
30.7255	0.18	61451	keystroke	s	n/a
30.8755	0.224	61751	keystroke	t	n/a
31.025	0.15	62050	keystroke	s	n/a
31.34	0.075	62680	keystroke	Key.enter	n/a
31.4195	5.208	62839	prompt	n/a	laugh jump jackets department\n
32.09	0.091	64180	keystroke	l	n/a
32.165	0.12	64330	keystroke	a	n/a
32.315	0.09	64630	keystroke	u	n/a
32.435	0.135	64870	keystroke	g	n/a
32.555	0.1345	65110	keystroke	h	n/a
32.6	0.1795	65200	keystroke	Key.space	n/a
32.854	0.015	65708	keystroke	j	n/a
32.9115	0.022	65823	keystroke	u	n/a
33.0155	0.084	66031	keystroke	m	n/a
33.0635	0.126	66127	keystroke	p	n/a
33.1745	0.1065	66349	keystroke	Key.space	n/a
33.7315	0.105	67463	keystroke	j	n/a
33.7915	0.18	67583	keystroke	a	n/a
33.8965	0.15	67793	keystroke	c	n/a
34.0165	0.12	68033	keystroke	k	n/a
34.1815	0.165	68363	keystroke	e	n/a
34.3015	0.255	68603	keystroke	t	n/a
34.4365	0.18	68873	keystroke	s	n/a
34.6015	0.105	69203	keystroke	Key.space	n/a
34.8865	0.1645	69773	keystroke	d	n/a
34.976	0.135	69952	keystroke	e	n/a
35.126	0.135	70252	keystroke	p	n/a
35.231	0.0905	70462	keystroke	a	n/a
35.381	0.12	70762	keystroke	r	n/a
35.576	0.1055	71152	keystroke	t	n/a
35.6965	0.0895	71393	keystroke	m	n/a
35.801	0.1055	71602	keystroke	e	n/a
35.8915	0.09	71783	keystroke	n	n/a
35.9665	0.09	71933	keystroke	t	n/a
36.5365	0.09	73073	keystroke	Key.enter	n/a
36.6305	6.008	73261	prompt	n/a	senator digit msgid growth\n
37.226	0.165	74452	keystroke	s	n/a
37.346	0.135	74692	keystroke	e	n/a
37.466	0.09	74932	keystroke	n	n/a
37.571	0.0905	75142	keystroke	a	n/a
37.7515	0.09	75503	keystroke	t	n/a
37.8565	0.0895	75713	keystroke	o	n/a
37.9615	0.12	75923	keystroke	r	n/a
38.0665	0.09	76133	keystroke	Key.space	n/a
38.4115	0.105	76823	keystroke	d	n/a
38.5615	0.09	77123	keystroke	i	n/a
38.8015	0.09	77603	keystroke	g	n/a
38.9215	0.105	77843	keystroke	i	n/a
39.0415	0.12	78083	keystroke	t	n/a
39.1465	0.09	78293	keystroke	Key.space	n/a
39.4315	0.015	78863	keystroke	m	n/a
39.6715	0.126	79343	keystroke	s	n/a
40.1305	0.1055	80261	keystroke	g	n/a
40.266	0.105	80532	keystroke	i	n/a
40.4465	0.12	80893	keystroke	d	n/a
40.5665	0.105	81133	keystroke	Key.space	n/a
41.076	0.18	82152	keystroke	g	n/a
41.166	0.18	82332	keystroke	r	n/a
41.406	0.105	82812	keystroke	o	n/a
41.451	0.12	82902	keystroke	w	n/a
41.751	0.1055	83502	keystroke	t	n/a
41.8565	0.105	83713	keystroke	h	n/a
42.5615	0.075	85123	keystroke	Key.enter	n/a
42.647	6.473	85294	prompt	n/a	stage shaft lord bibliographic\n
43.4015	0.09	86803	keystroke	s	n/a
43.6115	0.15	87223	keystroke	t	n/a
43.7315	0.12	87463	keystroke	a	n/a
43.9115	0.1505	87823	keystroke	g	n/a
43.9715	0.1505	87943	keystroke	e	n/a
44.107	0.135	88214	keystroke	Key.space	n/a
44.227	0.105	88454	keystroke	s	n/a
44.557	0.105	89114	keystroke	h	n/a
44.677	0.12	89354	keystroke	a	n/a
44.872	0.1195	89744	keystroke	f	n/a
44.9765	0.106	89953	keystroke	t	n/a
45.0515	0.12	90103	keystroke	Key.space	n/a
45.3215	0.0905	90643	keystroke	l	n/a
45.517	0.105	91034	keystroke	o	n/a
45.607	0.09	91214	keystroke	r	n/a
45.787	0.135	91574	keystroke	d	n/a
45.847	0.105	91694	keystroke	Key.space	n/a
46.027	0.135	92054	keystroke	b	n/a
46.911	0.194	93822	keystroke	i	n/a
46.986	0.149	93972	keystroke	b	n/a
47.142	0.131	94284	keystroke	l	n/a
47.256	0.152	94512	keystroke	i	n/a
47.348	0.15	94696	keystroke	o	n/a
47.663	0.12	95326	keystroke	g	n/a
47.723	0.1505	95446	keystroke	r	n/a
47.9485	0.15	95897	keystroke	a	n/a
48.0235	0.18	96047	keystroke	p	n/a
48.1435	0.165	96287	keystroke	h	n/a
48.2185	0.18	96437	keystroke	i	n/a
48.3535	0.12	96707	keystroke	c	n/a
49.0135	0.105	98027	keystroke	Key.enter	n/a
49.1225	10.367	98245	prompt	n/a	psychological portugal demanding sufficient\n
50.0185	0.135	100037	keystroke	p	n/a
50.1385	0.12	100277	keystroke	s	n/a
50.2885	0.075	100577	keystroke	y	n/a
50.3485	0.12	100697	keystroke	c	n/a
50.4535	0.09	100907	keystroke	h	n/a
50.5135	0.105	101027	keystroke	o	n/a
50.7085	0.09	101417	keystroke	l	n/a
50.8735	0.105	101747	keystroke	o	n/a
50.994	0.2095	101988	keystroke	c	n/a
51.324	0.045	102648	keystroke	i	n/a
51.609	0.045	103218	keystroke	Key.backspace	n/a
51.729	0.09	103458	keystroke	Key.backspace	n/a
51.834	0.1045	103668	keystroke	g	n/a
51.954	0.105	103908	keystroke	i	n/a
52.1335	0.165	104267	keystroke	c	n/a
52.2385	0.15	104477	keystroke	a	n/a
52.3435	0.1355	104687	keystroke	l	n/a
52.4485	0.1055	104897	keystroke	Key.space	n/a
52.629	0.12	105258	keystroke	p	n/a
52.764	0.165	105528	keystroke	r	n/a
53.784	0.075	107568	keystroke	Key.backspace	n/a
53.994	0.135	107988	keystroke	o	n/a
54.114	0.06	108228	keystroke	r	n/a
54.309	0.105	108618	keystroke	t	n/a
54.429	0.12	108858	keystroke	u	n/a
55.359	0.21	110718	keystroke	g	n/a
55.464	0.1805	110928	keystroke	a	n/a
55.6595	0.2095	111319	keystroke	l	n/a
55.779	0.135	111558	keystroke	Key.space	n/a
55.974	0.165	111948	keystroke	d	n/a
56.0795	0.1345	112159	keystroke	e	n/a
56.199	0.0755	112398	keystroke	m	n/a
56.2895	0.135	112579	keystroke	a	n/a
56.3945	0.105	112789	keystroke	n	n/a
56.5145	0.1045	113029	keystroke	d	n/a
56.634	0.1495	113268	keystroke	i	n/a
56.7235	0.151	113447	keystroke	n	n/a
56.8595	0.12	113719	keystroke	g	n/a
57.009	0.105	114018	keystroke	Key.space	n/a
57.3095	0.1045	114619	keystroke	s	n/a
57.6545	0.135	115309	keystroke	u	n/a
57.9545	0.075	115909	keystroke	f	n/a
58.1195	0.09	116239	keystroke	f	n/a
58.2545	0.09	116509	keystroke	i	n/a
58.3895	0.12	116779	keystroke	c	n/a
58.4945	0.09	116989	keystroke	i	n/a
58.6145	0.1045	117229	keystroke	e	n/a
58.734	0.09	117468	keystroke	n	n/a
58.809	0.105	117618	keystroke	t	n/a
59.439	0.045	118878	keystroke	Key.enter	n/a
59.5005	6.0745	119001	prompt	n/a	amazing points manually junior\n
60.054	0.135	120108	keystroke	a	n/a
60.204	0.1205	120408	keystroke	m	n/a
60.2945	0.0895	120589	keystroke	a	n/a
60.474	0.12	120948	keystroke	z	n/a
60.5795	0.1795	121159	keystroke	i	n/a
60.714	0.1195	121428	keystroke	n	n/a
60.835	0.0885	121670	keystroke	g	n/a
60.9385	0.1045	121877	keystroke	Key.space	n/a
61.1475	0.1005	122295	keystroke	p	n/a
61.188	0.1215	122376	keystroke	o	n/a
61.4145	0.15	122829	keystroke	i	n/a
61.5195	0.135	123039	keystroke	n	n/a
61.5495	0.225	123099	keystroke	t	n/a
61.6845	0.15	123369	keystroke	s	n/a
61.8495	0.06	123699	keystroke	Key.space	n/a
61.9545	0.105	123909	keystroke	m	n/a
62.0445	0.105	124089	keystroke	a	n/a
62.1505	0.074	124301	keystroke	n	n/a
62.3445	0.105	124689	keystroke	u	n/a
62.5395	0.105	125079	keystroke	a	n/a
62.675	0.0445	125350	keystroke	l	n/a
62.8095	0.0755	125619	keystroke	l	n/a
62.915	0.1045	125830	keystroke	y	n/a
63.035	0.09	126070	keystroke	Key.space	n/a
63.395	0.09	126790	keystroke	j	n/a
64.16	0.09	128320	keystroke	u	n/a
64.385	0.1655	128770	keystroke	n	n/a
64.475	0.195	128950	keystroke	i	n/a
64.6105	0.24	129221	keystroke	o	n/a
64.8655	0.12	129731	keystroke	r	n/a
65.4055	0.165	130811	keystroke	Key.enter	n/a
65.582	13.4025	131164	prompt	n/a	incident belgium infrastructure volunteers\n
66.4705	0.165	132941	keystroke	i	n/a
66.5905	0.135	133181	keystroke	n	n/a
66.9055	0.09	133811	keystroke	c	n/a
67.0105	0.105	134021	keystroke	i	n/a
67.1305	0.15	134261	keystroke	d	n/a
67.2355	0.12	134471	keystroke	e	n/a
67.3705	0.1045	134741	keystroke	n	n/a
67.476	0.269	134952	keystroke	t	n/a
67.595	0.165	135190	keystroke	Key.space	n/a
67.775	0.045	135550	keystroke	b	n/a
67.924	0.1055	135848	keystroke	l	n/a
68.0305	0.033	136061	keystroke	e	n/a
69.0035	0.0455	138007	keystroke	Key.backspace	n/a
69.139	0.045	138278	keystroke	Key.backspace	n/a
69.244	0.0895	138488	keystroke	e	n/a
69.364	0.135	138728	keystroke	l	n/a
69.664	0.105	139328	keystroke	g	n/a
69.814	0.15	139628	keystroke	i	n/a
69.934	0.105	139868	keystroke	u	n/a
70.264	0.15	140528	keystroke	m	n/a
70.384	0.12	140768	keystroke	Key.space	n/a
72.667	0.102	145334	keystroke	i	n/a
72.709	0.18	145418	keystroke	n	n/a
73.699	0.1055	147398	keystroke	f	n/a
73.9245	0.18	147849	keystroke	r	n/a
74.0445	0.21	148089	keystroke	a	n/a
74.2095	0.12	148419	keystroke	s	n/a
74.4645	0.195	148929	keystroke	t	n/a
74.5845	0.135	149169	keystroke	r	n/a
74.9295	0.15	149859	keystroke	u	n/a
75.0645	0.09	150129	keystroke	c	n/a
75.3495	0.09	150699	keystroke	t	n/a
75.529	0.1345	151058	keystroke	u	n/a
75.6635	0.195	151327	keystroke	r	n/a
75.784	0.1595	151568	keystroke	e	n/a
76.462	0.075	152924	keystroke	Key.space	n/a
76.9125	0.12	153825	keystroke	v	n/a
77.0475	0.06	154095	keystroke	o	n/a
77.2275	0.06	154455	keystroke	l	n/a
77.423	0.0745	154846	keystroke	u	n/a
77.5575	0.12	155115	keystroke	n	n/a
77.6625	0.1655	155325	keystroke	t	n/a
77.783	0.1195	155566	keystroke	e	n/a
77.993	0.12	155986	keystroke	e	n/a
78.203	0.165	156406	keystroke	r	n/a
78.323	0.09	156646	keystroke	s	n/a
78.878	0.105	157756	keystroke	Key.enter	n/a
78.994	6.1555	157988	prompt	n/a	criteria cookbook followed visual\n
79.6575	0.09	159315	keystroke	c	n/a
79.8375	0.09	159675	keystroke	r	n/a
79.9575	0.105	159915	keystroke	i	n/a
80.0175	0.15	160035	keystroke	t	n/a
80.1375	0.1955	160275	keystroke	e	n/a
80.273	0.1345	160546	keystroke	r	n/a
80.4525	0.1055	160905	keystroke	i	n/a
80.543	0.15	161086	keystroke	a	n/a
80.663	0.105	161326	keystroke	Key.space	n/a
80.8425	0.135	161685	keystroke	c	n/a
80.9175	0.075	161835	keystroke	o	n/a
81.068	0.15	162136	keystroke	o	n/a
81.173	0.1345	162346	keystroke	k	n/a
81.4275	0.1055	162855	keystroke	b	n/a
81.518	0.135	163036	keystroke	o	n/a
81.7275	0.2405	163455	keystroke	o	n/a
81.8475	0.1955	163695	keystroke	k	n/a
81.983	0.1495	163966	keystroke	Key.space	n/a
82.2075	0.105	164415	keystroke	f	n/a
82.2975	0.06	164595	keystroke	o	n/a
82.4775	0.075	164955	keystroke	l	n/a
82.6135	0.074	165227	keystroke	l	n/a
82.7775	0.12	165555	keystroke	o	n/a
82.8375	0.21	165675	keystroke	w	n/a
82.9425	0.12	165885	keystroke	e	n/a
83.5425	0.135	167085	keystroke	d	n/a
83.6925	0.105	167385	keystroke	Key.space	n/a
83.8875	0.106	167775	keystroke	v	n/a
83.9625	0.12	167925	keystroke	i	n/a
84.098	0.0905	168196	keystroke	s	n/a
84.2025	0.075	168405	keystroke	u	n/a
84.3075	0.105	168615	keystroke	a	n/a
84.4275	0.12	168855	keystroke	l	n/a
85.0125	0.135	170025	keystroke	Key.enter	n/a
85.152	4.9475	170304	prompt	n/a	desire deny someone's frank\n
85.8675	0.075	171735	keystroke	d	n/a
86.0625	0.165	172125	keystroke	e	n/a
86.1525	0.151	172305	keystroke	s	n/a
86.318	0.1045	172636	keystroke	i	n/a
86.3925	0.1655	172785	keystroke	r	n/a
86.483	0.15	172966	keystroke	e	n/a
86.634	0.104	173268	keystroke	Key.space	n/a
86.798	0.15	173596	keystroke	d	n/a
86.903	0.15	173806	keystroke	e	n/a
87.023	0.09	174046	keystroke	n	n/a
87.188	0.135	174376	keystroke	y	n/a
87.308	0.1945	174616	keystroke	Key.space	n/a
87.353	0.1645	174706	keystroke	s	n/a
87.5775	0.1505	175155	keystroke	o	n/a
87.653	0.1345	175306	keystroke	m	n/a
87.8325	0.12	175665	keystroke	e	n/a
87.9675	0.135	175935	keystroke	o	n/a
88.0725	0.105	176145	keystroke	n	n/a
88.1925	0.1355	176385	keystroke	e	n/a
88.313	0.1205	176626	keystroke	'	n/a
88.418	0.1195	176836	keystroke	s	n/a
88.5525	0.105	177105	keystroke	Key.space	n/a
88.7925	0.195	177585	keystroke	f	n/a
88.9275	0.15	177855	keystroke	r	n/a
89.2575	0.12	178515	keystroke	a	n/a
89.3475	0.151	178695	keystroke	n	n/a
89.4675	0.135	178935	keystroke	k	n/a
89.9785	0.12	179957	keystroke	Key.enter	n/a
90.1035	7.512	180207	prompt	n/a	calculators music junk constraints\n
90.7435	0.105	181487	keystroke	c	n/a
91.0135	0.105	182027	keystroke	a	n/a
91.1785	0.06	182357	keystroke	l	n/a
91.3285	0.0895	182657	keystroke	c	n/a
91.433	0.09	182866	keystroke	u	n/a
91.598	0.105	183196	keystroke	l	n/a
91.643	0.09	183286	keystroke	a	n/a
91.853	0.075	183706	keystroke	t	n/a
91.943	0.12	183886	keystroke	o	n/a
92.048	0.24	184096	keystroke	r	n/a
92.1835	0.1495	184367	keystroke	s	n/a
92.318	0.0895	184636	keystroke	Key.space	n/a
92.484	0.105	184968	keystroke	m	n/a
92.903	0.075	185806	keystroke	u	n/a
92.963	0.12	185926	keystroke	s	n/a
93.098	0.105	186196	keystroke	i	n/a
93.218	0.105	186436	keystroke	c	n/a
93.308	0.121	186616	keystroke	Key.space	n/a
93.473	0.09	186946	keystroke	j	n/a
93.653	0.075	187306	keystroke	u	n/a
93.848	0.165	187696	keystroke	n	n/a
93.983	0.15	187966	keystroke	k	n/a
94.103	0.12	188206	keystroke	Key.space	n/a
94.463	0.105	188926	keystroke	c	n/a
94.583	0.1505	189166	keystroke	o	n/a
94.6585	0.1345	189317	keystroke	n	n/a
94.823	0.165	189646	keystroke	t	n/a
94.913	0.1205	189826	keystroke	r	n/a
95.7985	0.045	191597	keystroke	Key.backspace	n/a
95.9335	0.09	191867	keystroke	Key.backspace	n/a
96.0535	0.09	192107	keystroke	s	n/a
96.2635	0.1645	192527	keystroke	t	n/a
96.3535	0.1345	192707	keystroke	r	n/a
96.608	0.12	193216	keystroke	a	n/a
96.699	0.134	193398	keystroke	i	n/a
96.773	0.15	193546	keystroke	n	n/a
96.938	0.195	193876	keystroke	t	n/a
97.058	0.12	194116	keystroke	s	n/a
97.523	0.09	195046	keystroke	Key.enter	n/a
97.6255	7.038	195251	prompt	n/a	delaware quit programmes corn\n
98.228	0.1355	196456	keystroke	d	n/a
98.303	0.1655	196606	keystroke	e	n/a
98.4835	0.105	196967	keystroke	l	n/a
98.6185	0.12	197237	keystroke	a	n/a
98.7535	0.2105	197507	keystroke	w	n/a
98.889	0.1345	197778	keystroke	a	n/a
99.0985	0.1955	198197	keystroke	r	n/a
99.204	0.15	198408	keystroke	e	n/a
99.354	0.15	198708	keystroke	Key.space	n/a
99.489	0.1045	198978	keystroke	q	n/a
99.5785	0.224	199157	keystroke	u	n/a
99.713	0.135	199426	keystroke	i	n/a
100.9425	0.135	201885	keystroke	t	n/a
101.0625	0.09	202125	keystroke	Key.space	n/a
101.1825	0.18	202365	keystroke	p	n/a
101.3325	0.105	202665	keystroke	r	n/a
101.4525	0.135	202905	keystroke	o	n/a
101.5575	0.165	203115	keystroke	g	n/a
101.6325	0.135	203265	keystroke	r	n/a
101.8575	0.1205	203715	keystroke	a	n/a
101.979	0.0435	203958	keystroke	m	n/a
102.1125	0.0755	204225	keystroke	m	n/a
102.158	0.21	204316	keystroke	e	n/a
102.278	0.1345	204556	keystroke	s	n/a
102.4275	0.105	204855	keystroke	Key.space	n/a
102.608	0.105	205216	keystroke	c	n/a
102.698	0.12	205396	keystroke	o	n/a
102.8925	0.09	205785	keystroke	r	n/a
103.073	0.105	206146	keystroke	n	n/a
104.527	0.135	209054	keystroke	Key.enter	n/a
104.667	7.38	209334	prompt	n/a	asian scholar dean cholesterol\n
105.055	0.18	210110	keystroke	a	n/a
105.19	0.15	210380	keystroke	s	n/a
105.355	0.105	210710	keystroke	i	n/a
105.43	0.135	210860	keystroke	a	n/a
105.565	0.135	211130	keystroke	n	n/a
105.88	0.135	211760	keystroke	Key.space	n/a
106	0.15	212000	keystroke	s	n/a
106.12	0.12	212240	keystroke	c	n/a
106.18	0.105	212360	keystroke	h	n/a
106.255	0.09	212510	keystroke	o	n/a
106.435	0.09	212870	keystroke	l	n/a
106.48	0.195	212960	keystroke	a	n/a
106.615	0.165	213230	keystroke	r	n/a
107.545	0.09	215090	keystroke	Key.space	n/a
107.605	0.1955	215210	keystroke	d	n/a
107.71	0.2405	215420	keystroke	e	n/a
107.8455	0.1345	215691	keystroke	a	n/a
107.965	0.1055	215930	keystroke	n	n/a
107.995	0.1355	215990	keystroke	Key.space	n/a
108.3405	0.12	216681	keystroke	c	n/a
108.4905	0.075	216981	keystroke	h	n/a
108.7755	0.09	217551	keystroke	o	n/a
108.9855	0.105	217971	keystroke	l	n/a
109.0605	0.18	218121	keystroke	e	n/a
109.1655	0.135	218331	keystroke	s	n/a
109.3755	0.165	218751	keystroke	t	n/a
109.6905	0.21	219381	keystroke	e	n/a
109.7805	0.18	219561	keystroke	r	n/a
110.1255	0.075	220251	keystroke	o	n/a
110.2905	0.09	220581	keystroke	l	n/a
111.9395	0.106	223879	keystroke	Key.enter	n/a
112.057	5.39	224114	prompt	n/a	walls frontpage engaging burning\n
112.57	0.165	225140	keystroke	w	n/a
112.675	0.165	225350	keystroke	a	n/a
112.825	0.06	225650	keystroke	l	n/a
112.975	0.06	225950	keystroke	l	n/a
113.05	0.09	226100	keystroke	s	n/a
113.17	0.09	226340	keystroke	Key.space	n/a
113.29	0.195	226580	keystroke	f	n/a
113.395	0.165	226790	keystroke	r	n/a
113.5	0.18	227000	keystroke	o	n/a
113.575	0.165	227150	keystroke	n	n/a
113.695	0.105	227390	keystroke	t	n/a
113.89	0.165	227780	keystroke	p	n/a
114.01	0.06	228020	keystroke	a	n/a
114.145	0.165	228290	keystroke	g	n/a
114.235	0.12	228470	keystroke	e	n/a
114.34	0.135	228680	keystroke	Key.space	n/a
114.476	0.089	228952	keystroke	e	n/a
114.55	0.105	229100	keystroke	n	n/a
114.73	0.12	229460	keystroke	g	n/a
114.865	0.135	229730	keystroke	a	n/a
115.075	0.12	230150	keystroke	g	n/a
115.21	0.165	230420	keystroke	i	n/a
115.345	0.15	230690	keystroke	n	n/a
115.51	0.075	231020	keystroke	g	n/a
115.6455	0.0895	231291	keystroke	Key.space	n/a
115.825	0.1205	231650	keystroke	b	n/a
115.915	0.136	231830	keystroke	u	n/a
116.0055	0.15	232011	keystroke	r	n/a
116.1405	0.135	232281	keystroke	n	n/a
116.2605	0.105	232521	keystroke	i	n/a
116.3055	0.12	232611	keystroke	n	n/a
116.4105	0.09	232821	keystroke	g	n/a
117.3105	0.135	234621	keystroke	Key.enter	n/a
117.452	6.686	234904	prompt	n/a	customized yesterday approx typing\n
118.1505	0.09	236301	keystroke	c	n/a
118.2855	0.09	236571	keystroke	u	n/a
118.3605	0.09	236721	keystroke	s	n/a
118.5255	0.105	237051	keystroke	t	n/a
118.5405	0.165	237081	keystroke	o	n/a
118.6755	0.165	237351	keystroke	m	n/a
118.7955	0.225	237591	keystroke	i	n/a
118.9305	0.105	237861	keystroke	z	n/a
119.1105	0.09	238221	keystroke	e	n/a
119.2905	0.105	238581	keystroke	d	n/a
119.3655	0.105	238731	keystroke	Key.space	n/a
119.5305	0.12	239061	keystroke	y	n/a
119.6055	0.15	239211	keystroke	e	n/a
119.6805	0.15	239361	keystroke	s	n/a
119.8455	0.12	239691	keystroke	t	n/a
119.9815	0.164	239963	keystroke	e	n/a
120.0855	0.105	240171	keystroke	r	n/a
120.3255	0.165	240651	keystroke	d	n/a
120.4155	0.15	240831	keystroke	a	n/a
120.5365	0.149	241073	keystroke	y	n/a
120.6405	0.15	241281	keystroke	Key.space	n/a
120.9555	0.105	241911	keystroke	a	n/a
121.0905	0.06	242181	keystroke	p	n/a
121.2105	0.105	242421	keystroke	p	n/a
121.3005	0.09	242601	keystroke	r	n/a
121.4355	0.105	242871	keystroke	o	n/a
121.6605	0.105	243321	keystroke	x	n/a
121.7805	0.09	243561	keystroke	Key.space	n/a
121.9755	0.1205	243951	keystroke	t	n/a
122.231	0.18	244462	keystroke	y	n/a
122.546	0.225	245092	keystroke	p	n/a
122.726	0.1795	245452	keystroke	i	n/a
122.801	0.1645	245602	keystroke	n	n/a
122.9355	0.12	245871	keystroke	g	n/a
124.061	0.075	248122	keystroke	Key.enter	n/a
124.1475	5.54	248295	prompt	n/a	quotations focus dependence dept\n
125.291	0.09	250582	keystroke	q	n/a
125.411	0.135	250822	keystroke	u	n/a
125.501	0.15	251002	keystroke	o	n/a
125.606	0.09	251212	keystroke	t	n/a
125.7705	0.0905	251541	keystroke	a	n/a
125.951	0.1195	251902	keystroke	t	n/a
126.0865	0.209	252173	keystroke	i	n/a
126.1905	0.196	252381	keystroke	o	n/a
126.2805	0.136	252561	keystroke	n	n/a
126.4005	0.105	252801	keystroke	s	n/a
126.5205	0.106	253041	keystroke	Key.space	n/a
126.6115	0.105	253223	keystroke	f	n/a
126.7165	0.104	253433	keystroke	o	n/a
126.8655	0.09	253731	keystroke	c	n/a
127.0005	0.15	254001	keystroke	u	n/a
127.1355	0.12	254271	keystroke	s	n/a
127.2405	0.105	254481	keystroke	Key.space	n/a
127.436	0.1945	254872	keystroke	d	n/a
127.5555	0.12	255111	keystroke	e	n/a
127.6455	0.1055	255291	keystroke	p	n/a
127.766	0.105	255532	keystroke	e	n/a
127.886	0.0895	255772	keystroke	n	n/a
128.0055	0.1655	256011	keystroke	d	n/a
128.111	0.15	256222	keystroke	e	n/a
128.276	0.105	256552	keystroke	n	n/a
128.456	0.21	256912	keystroke	c	n/a
128.591	0.165	257182	keystroke	e	n/a
128.786	0.105	257572	keystroke	Key.space	n/a
128.981	0.18	257962	keystroke	d	n/a
129.056	0.165	258112	keystroke	e	n/a
129.221	0.12	258442	keystroke	p	n/a
129.371	0.15	258742	keystroke	t	n/a
129.626	0.06	259252	keystroke	Key.enter	n/a
129.693	6.6095	259386	prompt	n/a	oxford katie attributes tourism\n
130.3155	0.135	260631	keystroke	o	n/a
130.676	0.09	261352	keystroke	x	n/a
130.931	0.09	261862	keystroke	f	n/a
131.036	0.105	262072	keystroke	o	n/a
131.126	0.09	262252	keystroke	r	n/a
131.396	0.03	262792	keystroke	d	n/a
131.411	0.06	262822	keystroke	Key.space	n/a
131.5165	0.12	263033	keystroke	k	n/a
131.576	0.0905	263152	keystroke	a	n/a
131.7865	0.0895	263573	keystroke	t	n/a
131.891	0.1055	263782	keystroke	i	n/a
131.9665	0.15	263933	keystroke	e	n/a
132.0715	0.1195	264143	keystroke	Key.space	n/a
132.206	0.075	264412	keystroke	a	n/a
132.536	0.15	265072	keystroke	t	n/a
132.866	0.1955	265732	keystroke	t	n/a
132.986	0.135	265972	keystroke	r	n/a
133.151	0.0905	266302	keystroke	i	n/a
133.3315	0.135	266663	keystroke	b	n/a
133.4365	0.18	266873	keystroke	u	n/a
133.5115	0.27	267023	keystroke	t	n/a
133.6315	0.24	267263	keystroke	e	n/a
133.7665	0.15	267533	keystroke	s	n/a
133.9015	0.09	267803	keystroke	Key.space	n/a
134.0515	0.105	268103	keystroke	t	n/a
134.1415	0.195	268283	keystroke	o	n/a
134.2765	0.165	268553	keystroke	u	n/a
134.4715	0.135	268943	keystroke	r	n/a
134.6215	0.135	269243	keystroke	i	n/a
134.7715	0.105	269543	keystroke	s	n/a
135.011	0.09	270022	keystroke	m	n/a
136.166	0.1345	272332	keystroke	Key.enter	n/a
136.314	9.064	272628	prompt	n/a	brochure significantly interstate looksmart\n
137.0355	0.1805	274071	keystroke	b	n/a
137.216	0.15	274432	keystroke	r	n/a
137.336	0.15	274672	keystroke	o	n/a
137.711	0.135	275422	keystroke	c	n/a
137.816	0.12	275632	keystroke	h	n/a
137.906	0.18	275812	keystroke	u	n/a
138.071	0.2245	276142	keystroke	r	n/a
138.191	0.1795	276382	keystroke	e	n/a
138.4305	0.12	276861	keystroke	Key.space	n/a
138.6555	0.12	277311	keystroke	s	n/a
138.7605	0.105	277521	keystroke	i	n/a
138.9105	0.12	277821	keystroke	g	n/a
139.0155	0.12	278031	keystroke	n	n/a
139.0905	0.15	278181	keystroke	i	n/a
139.4505	0.045	278901	keystroke	g	n/a
140.0805	0.06	280161	keystroke	Key.backspace	n/a
140.6055	0.09	281211	keystroke	f	n/a
140.7105	0.12	281421	keystroke	i	n/a
140.8605	0.15	281721	keystroke	c	n/a
140.9505	0.1205	281901	keystroke	a	n/a
141.102	0.1035	282204	keystroke	n	n/a
141.2505	0.075	282501	keystroke	t	n/a
141.3405	0.135	282681	keystroke	l	n/a
141.4905	0.0745	282981	keystroke	y	n/a
141.58	0.0905	283160	keystroke	Key.space	n/a
141.9855	0.1505	283971	keystroke	i	n/a
142.0605	0.1505	284121	keystroke	n	n/a
142.226	0.12	284452	keystroke	t	n/a
142.376	0.15	284752	keystroke	e	n/a
142.496	0.135	284992	keystroke	r	n/a
142.706	0.135	285412	keystroke	s	n/a
142.886	0.105	285772	keystroke	t	n/a
143.021	0.12	286042	keystroke	a	n/a
143.156	0.195	286312	keystroke	t	n/a
143.261	0.18	286522	keystroke	e	n/a
143.486	0.09	286972	keystroke	Key.space	n/a
143.666	0.075	287332	keystroke	l	n/a
143.846	0.045	287692	keystroke	o	n/a
143.966	0.15	287932	keystroke	o	n/a
144.071	0.1645	288142	keystroke	k	n/a
144.4305	0.09	288861	keystroke	s	n/a
144.5355	0.105	289071	keystroke	m	n/a
144.626	0.0895	289252	keystroke	a	n/a
144.7755	0.105	289551	keystroke	r	n/a
144.986	0.0895	289972	keystroke	t	n/a
145.271	0.105	290542	keystroke	Key.enter	n/a
145.388	5.6145	290776	prompt	n/a	thats bears distributed north\n
146.006	0.1195	292012	keystroke	t	n/a
146.0805	0.136	292161	keystroke	h	n/a
146.1865	0.15	292373	keystroke	a	n/a
146.2755	0.211	292551	keystroke	t	n/a
146.4565	0.15	292913	keystroke	s	n/a
146.6215	0.105	293243	keystroke	Key.space	n/a
146.8315	0.104	293663	keystroke	b	n/a
146.9065	0.164	293813	keystroke	e	n/a
146.9965	0.164	293993	keystroke	a	n/a
147.1315	0.255	294263	keystroke	r	n/a
147.2815	0.165	294563	keystroke	s	n/a
147.4615	0.119	294923	keystroke	Key.space	n/a
148.3305	0.075	296661	keystroke	d	n/a
148.4205	0.1055	296841	keystroke	i	n/a
148.511	0.09	297022	keystroke	s	n/a
148.811	0.165	297622	keystroke	t	n/a
148.901	0.15	297802	keystroke	r	n/a
149.036	0.105	298072	keystroke	i	n/a
149.246	0.15	298492	keystroke	b	n/a
149.306	0.21	298612	keystroke	u	n/a
149.411	0.135	298822	keystroke	t	n/a
149.486	0.135	298972	keystroke	e	n/a
149.741	0.135	299482	keystroke	d	n/a
149.861	0.1055	299722	keystroke	Key.space	n/a
150.0115	0.12	300023	keystroke	n	n/a
150.1015	0.18	300203	keystroke	o	n/a
150.2365	0.12	300473	keystroke	r	n/a
150.4615	0.09	300923	keystroke	t	n/a
150.6115	0.12	301223	keystroke	h	n/a
150.8665	0.135	301733	keystroke	Key.enter	n/a
151.005	9.575	302010	prompt	n/a	islam goods baghdad artistic\n
151.6915	0.12	303383	keystroke	i	n/a
151.7815	0.09	303563	keystroke	s	n/a
152.082	0.105	304164	keystroke	l	n/a
152.202	0.09	304404	keystroke	a	n/a
152.307	0.135	304614	keystroke	m	n/a
152.412	0.105	304824	keystroke	Key.space	n/a
152.697	0.06	305394	keystroke	g	n/a
152.757	0.075	305514	keystroke	o	n/a
152.907	0.105	305814	keystroke	o	n/a
153.027	0.225	306054	keystroke	d	n/a
153.147	0.18	306294	keystroke	s	n/a
153.342	0.105	306684	keystroke	Key.space	n/a
154.2715	0.105	308543	keystroke	b	n/a
154.4365	0.135	308873	keystroke	a	n/a
154.5865	0.195	309173	keystroke	g	n/a
155.392	0.06	310784	keystroke	h	n/a
155.898	0.195	311796	keystroke	d	n/a
156.048	0.255	312096	keystroke	a	n/a
156.213	0.15	312426	keystroke	d	n/a
156.783	0.105	313566	keystroke	Key.space	n/a
156.903	0.105	313806	keystroke	a	n/a
157.098	0.09	314196	keystroke	r	n/a
157.293	0.09	314586	keystroke	t	n/a
157.638	0.1195	315276	keystroke	i	n/a
157.8185	0.149	315637	keystroke	s	n/a
158.1625	0.075	316325	keystroke	t	n/a
158.3125	0.106	316625	keystroke	i	n/a
158.5225	0.105	317045	keystroke	c	n/a
160.429	0.15	320858	keystroke	Key.enter	n/a
160.5895	6.1555	321179	prompt	n/a	picnic pulled margin stationery\n
161.508	0.105	323016	keystroke	p	n/a
161.674	0.104	323348	keystroke	i	n/a
161.808	0.09	323616	keystroke	c	n/a
161.928	0.136	323856	keystroke	n	n/a
162.018	0.15	324036	keystroke	i	n/a
162.183	0.106	324366	keystroke	c	n/a
162.258	0.12	324516	keystroke	Key.space	n/a
162.453	0.075	324906	keystroke	p	n/a
162.604	0.059	325208	keystroke	u	n/a
162.828	0.06	325656	keystroke	l	n/a
162.964	0.104	325928	keystroke	l	n/a
163.039	0.089	326078	keystroke	e	n/a
163.233	0.105	326466	keystroke	d	n/a
163.548	0.105	327096	keystroke	Key.space	n/a
163.803	0.105	327606	keystroke	m	n/a
163.893	0.1055	327786	keystroke	a	n/a
164.1185	0.105	328237	keystroke	r	n/a
164.359	0.0895	328718	keystroke	g	n/a
164.4635	0.164	328927	keystroke	i	n/a
164.553	0.1865	329106	keystroke	n	n/a
164.6725	0.0835	329345	keystroke	Key.space	n/a
164.771	0.0885	329542	keystroke	b	n/a
164.9995	0.0525	329999	keystroke	Key.backspace	n/a
165.052	0.0695	330104	keystroke	s	n/a
165.2125	0.0735	330425	keystroke	t	n/a
165.301	0.071	330602	keystroke	a	n/a
165.393	0.1345	330786	keystroke	t	n/a
165.5125	0.211	331025	keystroke	i	n/a
165.6335	0.195	331267	keystroke	o	n/a
165.7385	0.15	331477	keystroke	n	n/a
165.8735	0.165	331747	keystroke	e	n/a
165.9785	0.1345	331957	keystroke	r	n/a
166.233	0.1205	332466	keystroke	y	n/a
166.668	0.0755	333336	keystroke	Key.enter	n/a
166.7475	7.3325	333495	prompt	n/a	struck unsigned donna civil\n
167.373	0.0905	334746	keystroke	s	n/a
167.5985	0.105	335197	keystroke	t	n/a
167.6585	0.135	335317	keystroke	r	n/a
167.8085	0.15	335617	keystroke	u	n/a
168.0035	0.1195	336007	keystroke	c	n/a
168.0935	0.1495	336187	keystroke	k	n/a
168.228	0.09	336456	keystroke	Key.space	n/a
168.4075	0.2405	336815	keystroke	u	n/a
168.5425	0.1805	337085	keystroke	n	n/a
169.053	0.135	338106	keystroke	s	n/a
169.203	0.075	338406	keystroke	i	n/a
169.323	0.09	338646	keystroke	g	n/a
169.413	0.09	338826	keystroke	n	n/a
169.488	0.09	338976	keystroke	e	n/a
169.668	0.121	339336	keystroke	d	n/a
169.789	0.1195	339578	keystroke	Key.space	n/a
170.0435	0.0905	340087	keystroke	d	n/a
170.119	0.075	340238	keystroke	o	n/a
170.284	0.0445	340568	keystroke	n	n/a
170.4035	0.0905	340807	keystroke	n	n/a
170.509	0.09	341018	keystroke	a	n/a
170.629	0.09	341258	keystroke	Key.space	n/a
170.809	0.135	341618	keystroke	v	n/a
170.959	0.089	341918	keystroke	i	n/a
171.364	0.075	342728	keystroke	Key.backspace	n/a
171.499	0.09	342998	keystroke	Key.backspace	n/a
172.113	0.091	344226	keystroke	c	n/a
172.189	0.074	344378	keystroke	i	n/a
172.458	0.075	344916	keystroke	v	n/a
172.549	0.074	345098	keystroke	i	n/a
172.774	0.074	345548	keystroke	l	n/a
173.9885	0.0905	347977	keystroke	Key.enter	n/a
174.0865	7.226	348173	prompt	n/a	begins taxation retail limiting\n
174.9185	0.105	349837	keystroke	b	n/a
175.0535	0.09	350107	keystroke	e	n/a
175.2635	0.0755	350527	keystroke	g	n/a
175.354	0.1495	350708	keystroke	i	n/a
175.4285	0.135	350857	keystroke	n	n/a
175.5635	0.1355	351127	keystroke	s	n/a
175.759	0.1195	351518	keystroke	Key.space	n/a
176.1185	0.165	352237	keystroke	t	n/a
176.358	0.03	352716	keystroke	a	n/a
176.528	0.086	353056	keystroke	c	n/a
176.539	0.1515	353078	keystroke	a	n/a
177.0055	0.075	354011	keystroke	Key.backspace	n/a
177.1555	0.09	354311	keystroke	Key.backspace	n/a
177.635	0.15	355270	keystroke	x	n/a
177.725	0.15	355450	keystroke	a	n/a
178.04	0.105	356080	keystroke	t	n/a
178.13	0.27	356260	keystroke	i	n/a
178.25	0.225	356500	keystroke	o	n/a
178.37	0.18	356740	keystroke	n	n/a
178.49	0.15	356980	keystroke	Key.space	n/a
178.655	0.165	357310	keystroke	r	n/a
178.73	0.105	357460	keystroke	e	n/a
178.925	0.09	357850	keystroke	t	n/a
179.105	0.135	358210	keystroke	a	n/a
179.21	0.075	358420	keystroke	i	n/a
179.39	0.1355	358780	keystroke	l	n/a
179.5105	0.105	359021	keystroke	Key.space	n/a
179.705	0.075	359410	keystroke	l	n/a
179.825	0.165	359650	keystroke	i	n/a
179.975	0.18	359950	keystroke	m	n/a
180.14	0.1355	360280	keystroke	i	n/a
180.3355	0.105	360671	keystroke	t	n/a
180.4705	0.165	360941	keystroke	i	n/a
180.5605	0.195	361121	keystroke	n	n/a
180.7405	0.105	361481	keystroke	g	n/a
181.2205	0.09	362441	keystroke	Key.enter	n/a
181.322	5.6915	362644	prompt	n/a	friendly limousines johns impose\n
182.1205	0.18	364241	keystroke	f	n/a
182.2405	0.12	364481	keystroke	r	n/a
182.3755	0.09	364751	keystroke	i	n/a
182.4505	0.105	364901	keystroke	e	n/a
182.5705	0.06	365141	keystroke	n	n/a
182.6905	0.045	365381	keystroke	d	n/a
182.7805	0.12	365561	keystroke	l	n/a
182.9455	0.12	365891	keystroke	y	n/a
183.0355	0.09	366071	keystroke	Key.space	n/a
183.1855	0.12	366371	keystroke	l	n/a
183.3805	0.1355	366761	keystroke	i	n/a
183.4855	0.1805	366971	keystroke	m	n/a
183.606	0.3145	367212	keystroke	o	n/a
183.801	0.267	367602	keystroke	u	n/a
184.1735	0.0305	368347	keystroke	s	n/a
184.2075	0.022	368415	keystroke	i	n/a
184.2655	0.0295	368531	keystroke	n	n/a
184.28	0.1665	368560	keystroke	e	n/a
184.34	0.167	368680	keystroke	s	n/a
184.732	0.135	369464	keystroke	Key.space	n/a
184.957	0.105	369914	keystroke	j	n/a
185.017	0.18	370034	keystroke	o	n/a
185.167	0.0895	370334	keystroke	h	n/a
185.362	0.0905	370724	keystroke	n	n/a
185.4825	0.105	370965	keystroke	s	n/a
185.6925	0.135	371385	keystroke	Key.space	n/a
185.9615	0.105	371923	keystroke	i	n/a
186.0375	0.1945	372075	keystroke	m	n/a
186.172	0.195	372344	keystroke	p	n/a
186.292	0.165	372584	keystroke	o	n/a
186.412	0.21	372824	keystroke	s	n/a
186.562	0.135	373124	keystroke	e	n/a
186.907	0.105	373814	keystroke	Key.enter	n/a
187.019	5.7545	374038	prompt	n/a	moscow news sessions loved\n
187.6575	0.1645	375315	keystroke	m	n/a
187.7625	0.1495	375525	keystroke	o	n/a
187.867	0.135	375734	keystroke	s	n/a
188.242	0.1805	376484	keystroke	c	n/a
188.6025	0.12	377205	keystroke	o	n/a
188.7075	0.12	377415	keystroke	w	n/a
188.8275	0.09	377655	keystroke	Key.space	n/a
188.9925	0.12	377985	keystroke	n	n/a
189.0675	0.18	378135	keystroke	e	n/a
189.1875	0.15	378375	keystroke	w	n/a
190.0575	0.12	380115	keystroke	s	n/a
190.2375	0.105	380475	keystroke	Key.space	n/a
190.4625	0.105	380925	keystroke	s	n/a
190.7025	0.09	381405	keystroke	e	n/a
190.8375	0.105	381675	keystroke	s	n/a
191.0325	0.09	382065	keystroke	s	n/a
191.1375	0.21	382275	keystroke	i	n/a
191.2425	0.195	382485	keystroke	o	n/a
191.3625	0.15	382725	keystroke	n	n/a
191.5275	0.135	383055	keystroke	s	n/a
191.6175	0.105	383235	keystroke	Key.space	n/a
191.7375	0.27	383475	keystroke	l	n/a
192.067	0.0305	384134	keystroke	o	n/a
192.0825	0.299	384165	keystroke	v	n/a
192.1125	0.284	384225	keystroke	e	n/a
192.4115	0.03	384823	keystroke	d	n/a
192.6825	0.09	385365	keystroke	Key.enter	n/a
192.776	5.998	385552	prompt	n/a	customize load words realtor\n
193.4325	0.105	386865	keystroke	c	n/a
193.5225	0.12	387045	keystroke	u	n/a
193.6125	0.09	387225	keystroke	s	n/a
193.8075	0.09	387615	keystroke	t	n/a
193.8675	0.135	387735	keystroke	o	n/a
193.9725	0.165	387945	keystroke	m	n/a
194.1075	0.21	388215	keystroke	i	n/a
194.2575	0.105	388515	keystroke	z	n/a
194.4675	0.105	388935	keystroke	e	n/a
194.5875	0.09	389175	keystroke	Key.space	n/a
194.7375	0.09	389475	keystroke	l	n/a
194.9325	0.105	389865	keystroke	o	n/a
194.9475	0.21	389895	keystroke	a	n/a
195.0825	0.165	390165	keystroke	d	n/a
195.2325	0.09	390465	keystroke	Key.space	n/a
195.4725	0.105	390945	keystroke	w	n/a
195.5625	0.09	391125	keystroke	o	n/a
195.6375	0.09	391275	keystroke	r	n/a
195.8625	0.18	391725	keystroke	d	n/a
195.9375	0.165	391875	keystroke	s	n/a
196.2075	0.1055	392415	keystroke	Key.space	n/a
196.5675	0.06	393135	keystroke	e	n/a
196.5825	0.195	393165	keystroke	r	n/a
196.6725	0.195	393345	keystroke	e	n/a
197.0475	0.045	394095	keystroke	Key.backspace	n/a
197.1675	0.0745	394335	keystroke	Key.backspace	n/a
197.302	0.09	394604	keystroke	Key.backspace	n/a
197.377	0.15	394754	keystroke	r	n/a
197.467	0.135	394934	keystroke	e	n/a
197.722	0.105	395444	keystroke	a	n/a
197.842	0.12	395684	keystroke	l	n/a
198.097	0.105	396194	keystroke	t	n/a
198.172	0.135	396344	keystroke	o	n/a
198.338	0.119	396676	keystroke	r	n/a
198.667	0.105	397334	keystroke	Key.enter	n/a
198.7765	7.3325	397553	prompt	n/a	endorsed adopt honolulu pace\n
199.358	0.119	398716	keystroke	e	n/a
199.492	0.105	398984	keystroke	n	n/a
199.6875	0.1045	399375	keystroke	d	n/a
199.777	0.12	399554	keystroke	o	n/a
199.957	0.345	399914	keystroke	r	n/a
200.0475	0.1645	400095	keystroke	e	n/a
200.497	0.12	400994	keystroke	Key.backspace	n/a
200.632	0.15	401264	keystroke	s	n/a
200.707	0.135	401414	keystroke	e	n/a
200.947	0.105	401894	keystroke	d	n/a
201.037	0.12	402074	keystroke	Key.space	n/a
201.202	0.136	402404	keystroke	a	n/a
201.353	0.12	402706	keystroke	d	n/a
201.5025	0.1955	403005	keystroke	o	n/a
201.623	0.15	403246	keystroke	p	n/a
201.758	0.12	403516	keystroke	t	n/a
201.908	0.12	403816	keystroke	Key.space	n/a
202.163	0.135	404326	keystroke	h	n/a
202.238	0.135	404476	keystroke	o	n/a
202.433	0.165	404866	keystroke	n	n/a
202.538	0.15	405076	keystroke	o	n/a
202.853	0.09	405706	keystroke	l	n/a
203.048	0.06	406096	keystroke	u	n/a
203.228	0.075	406456	keystroke	l	n/a
203.408	0.105	406816	keystroke	u	n/a
203.498	0.12	406996	keystroke	Key.space	n/a
203.663	0.135	407326	keystroke	p	n/a
203.708	0.12	407416	keystroke	a	n/a
204.008	0.15	408016	keystroke	x	n/a
204.593	0.105	409186	keystroke	Key.backspace	n/a
204.923	0.075	409846	keystroke	z	n/a
205.2375	0.105	410475	keystroke	Key.backspace	n/a
205.3725	0.15	410745	keystroke	c	n/a
205.4775	0.12	410955	keystroke	e	n/a
206.0175	0.09	412035	keystroke	Key.enter	n/a
206.113	6.7925	412226	prompt	n/a	heather exhibition mastercard name\n
207.0825	0.105	414165	keystroke	h	n/a
207.0975	0.18	414195	keystroke	e	n/a
207.1575	0.165	414315	keystroke	a	n/a
207.3675	0.105	414735	keystroke	t	n/a
207.4575	0.105	414915	keystroke	h	n/a
207.5475	0.165	415095	keystroke	e	n/a
207.6525	0.12	415305	keystroke	r	n/a
207.7275	0.135	415455	keystroke	Key.space	n/a
207.8925	0.12	415785	keystroke	e	n/a
208.673	0.105	417346	keystroke	x	n/a
208.883	0.135	417766	keystroke	h	n/a
209.003	0.105	418006	keystroke	i	n/a
209.183	0.135	418366	keystroke	b	n/a
209.258	0.135	418516	keystroke	i	n/a
209.408	0.12	418816	keystroke	t	n/a
209.498	0.195	418996	keystroke	i	n/a
209.648	0.285	419296	keystroke	o	n/a
209.798	0.195	419596	keystroke	n	n/a
209.948	0.105	419896	keystroke	Key.space	n/a
210.113	0.15	420226	keystroke	m	n/a
210.173	0.195	420346	keystroke	a	n/a
210.278	0.18	420556	keystroke	s	n/a
210.503	0.179	421006	keystroke	t	n/a
210.697	0.2135	421394	keystroke	e	n/a
210.7715	0.154	421543	keystroke	r	n/a
211.118	0.2105	422236	keystroke	c	n/a
211.2085	0.1955	422417	keystroke	a	n/a
211.479	0.09	422958	keystroke	r	n/a
211.674	0.12	423348	keystroke	d	n/a
211.734	0.12	423468	keystroke	Key.space	n/a
211.899	0.09	423798	keystroke	n	n/a
211.959	0.12	423918	keystroke	a	n/a
212.109	0.09	424218	keystroke	m	n/a
212.214	0.09	424428	keystroke	e	n/a
212.828	0.075	425656	keystroke	Key.enter	n/a
212.9155	3.9045	425831	prompt	n/a	apply jail mild twisted\n
213.429	0.12	426858	keystroke	a	n/a
213.504	0.06	427008	keystroke	p	n/a
213.684	0.135	427368	keystroke	p	n/a
213.759	0.15	427518	keystroke	l	n/a
213.834	0.12	427668	keystroke	y	n/a
213.969	0.105	427938	keystroke	Key.space	n/a
214.149	0.105	428298	keystroke	j	n/a
214.239	0.12	428478	keystroke	a	n/a
214.314	0.09	428628	keystroke	i	n/a
214.494	0.105	428988	keystroke	l	n/a
214.584	0.105	429168	keystroke	Key.space	n/a
214.719	0.09	429438	keystroke	m	n/a
214.884	0.06	429768	keystroke	i	n/a
215.064	0.12	430128	keystroke	l	n/a
215.1985	0.12	430397	keystroke	d	n/a
215.3195	0.134	430639	keystroke	Key.space	n/a
215.6035	0.18	431207	keystroke	t	n/a
215.7085	0.1505	431417	keystroke	w	n/a
215.874	0.135	431748	keystroke	i	n/a
215.979	0.12	431958	keystroke	s	n/a
216.159	0.165	432318	keystroke	t	n/a
216.309	0.12	432618	keystroke	e	n/a
216.549	0.075	433098	keystroke	d	n/a
216.744	0.075	433488	keystroke	Key.enter	n/a
216.8225	6.688	433645	prompt	n/a	belarus generator edition fighting\n
217.719	0.09	435438	keystroke	b	n/a
217.824	0.15	435648	keystroke	e	n/a
217.989	0.12	435978	keystroke	l	n/a
218.049	0.105	436098	keystroke	a	n/a
218.274	0.09	436548	keystroke	r	n/a
218.379	0.135	436758	keystroke	u	n/a
218.529	0.09	437058	keystroke	s	n/a
218.649	0.165	437298	keystroke	Key.space	n/a
219.354	0.1505	438708	keystroke	g	n/a
219.444	0.1205	438888	keystroke	e	n/a
219.5785	0.106	439157	keystroke	n	n/a
219.6695	0.1495	439339	keystroke	e	n/a
219.7595	0.165	439519	keystroke	r	n/a
219.9245	0.105	439849	keystroke	a	n/a
220.1045	0.105	440209	keystroke	t	n/a
220.2245	0.135	440449	keystroke	o	n/a
220.3295	0.1345	440659	keystroke	r	n/a
220.449	0.105	440898	keystroke	Key.space	n/a
220.614	0.09	441228	keystroke	e	n/a
220.809	0.075	441618	keystroke	d	n/a
220.899	0.075	441798	keystroke	i	n/a
221.034	0.105	442068	keystroke	t	n/a
221.109	0.1805	442218	keystroke	i	n/a
221.2295	0.225	442459	keystroke	o	n/a
221.3345	0.195	442669	keystroke	n	n/a
221.4545	0.149	442909	keystroke	Key.space	n/a
222.0245	0.075	444049	keystroke	f	n/a
222.1145	0.09	444229	keystroke	i	n/a
222.2195	0.0895	444439	keystroke	g	n/a
222.294	0.075	444588	keystroke	h	n/a
222.384	0.12	444768	keystroke	t	n/a
222.894	0.18	445788	keystroke	i	n/a
222.969	0.15	445938	keystroke	n	n/a
223.089	0.12	446178	keystroke	g	n/a
223.404	0.105	446808	keystroke	Key.enter	n/a
223.514	7.2875	447028	prompt	n/a	lenders nicaragua hamburg norman\n
224.259	0.09	448518	keystroke	l	n/a
224.364	0.09	448728	keystroke	e	n/a
224.469	0.105	448938	keystroke	n	n/a
224.559	0.12	449118	keystroke	d	n/a
224.739	0.27	449478	keystroke	e	n/a
224.829	0.255	449658	keystroke	r	n/a
224.994	0.135	449988	keystroke	s	n/a
225.099	0.1055	450198	keystroke	Key.space	n/a
225.2645	0.135	450529	keystroke	n	n/a
225.3395	0.195	450679	keystroke	i	n/a
225.5195	0.15	451039	keystroke	c	n/a
225.6095	0.135	451219	keystroke	a	n/a
225.9095	0.165	451819	keystroke	r	n/a
226.0145	0.15	452029	keystroke	a	n/a
226.4945	0.105	452989	keystroke	g	n/a
226.6145	0.12	453229	keystroke	u	n/a
226.7045	0.09	453409	keystroke	a	n/a
227.2895	0.09	454579	keystroke	Key.space	n/a
227.4545	0.12	454909	keystroke	h	n/a
227.6045	0.12	455209	keystroke	a	n/a
227.9645	0.135	455929	keystroke	m	n/a
228.5495	0.15	457099	keystroke	b	n/a
228.6695	0.165	457339	keystroke	u	n/a
228.7445	0.105	457489	keystroke	r	n/a
228.9545	0.12	457909	keystroke	g	n/a
229.449	0.09	458898	keystroke	Key.space	n/a
229.599	0.105	459198	keystroke	n	n/a
229.659	0.15	459318	keystroke	o	n/a
229.869	0.135	459738	keystroke	r	n/a
229.989	0.075	459978	keystroke	m	n/a
230.095	0.119	460190	keystroke	a	n/a
230.454	0.105	460908	keystroke	n	n/a
230.724	0.075	461448	keystroke	Key.enter	n/a
230.811	5.06	461622	prompt	n/a	rapid let's fixed douglas\n
231.489	0.18	462978	keystroke	r	n/a
231.594	0.15	463188	keystroke	a	n/a
231.699	0.2405	463398	keystroke	p	n/a
231.8495	0.165	463699	keystroke	i	n/a
232.0595	0.09	464119	keystroke	d	n/a
232.15	0.104	464300	keystroke	Key.space	n/a
232.3445	0.105	464689	keystroke	l	n/a
232.4345	0.1345	464869	keystroke	e	n/a
232.554	0.1355	465108	keystroke	t	n/a
232.7345	0.045	465469	keystroke	'	n/a
232.7805	0.134	465561	keystroke	s	n/a
232.8995	0.1195	465799	keystroke	Key.space	n/a
233.124	0.1355	466248	keystroke	f	n/a
233.2595	0.105	466519	keystroke	i	n/a
233.4395	0.15	466879	keystroke	x	n/a
233.7545	0.105	467509	keystroke	e	n/a
233.9645	0.12	467929	keystroke	d	n/a
234.0695	0.12	468139	keystroke	Key.space	n/a
234.2645	0.105	468529	keystroke	d	n/a
234.3545	0.18	468709	keystroke	o	n/a
234.4745	0.135	468949	keystroke	u	n/a
235.06	0.0895	470120	keystroke	g	n/a
235.1645	0.105	470329	keystroke	l	n/a
235.2845	0.195	470569	keystroke	a	n/a
235.3895	0.12	470779	keystroke	s	n/a
235.7645	0.105	471529	keystroke	Key.enter	n/a
235.879	5.137	471758	prompt	n/a	spelling washing adjust exceptions\n
236.4395	0.105	472879	keystroke	s	n/a
236.5295	0.12	473059	keystroke	p	n/a
236.6645	0.105	473329	keystroke	e	n/a
236.7845	0.06	473569	keystroke	l	n/a
236.9195	0.075	473839	keystroke	l	n/a
237.0995	0.12	474199	keystroke	i	n/a
237.1595	0.135	474319	keystroke	n	n/a
237.2795	0.12	474559	keystroke	g	n/a
237.3845	0.105	474769	keystroke	Key.space	n/a
237.5045	0.135	475009	keystroke	w	n/a
237.5645	0.255	475129	keystroke	a	n/a
237.7445	0.135	475489	keystroke	s	n/a
237.8345	0.105	475669	keystroke	h	n/a
237.9405	0.224	475881	keystroke	i	n/a
238.0595	0.15	476119	keystroke	n	n/a
238.1495	0.075	476299	keystroke	g	n/a
238.2395	0.12	476479	keystroke	Key.space	n/a
238.3145	0.195	476629	keystroke	a	n/a
238.4495	0.1205	476899	keystroke	d	n/a
238.6295	0.09	477259	keystroke	j	n/a
238.8095	0.105	477619	keystroke	u	n/a
238.8995	0.2105	477799	keystroke	s	n/a
239.0195	0.1355	478039	keystroke	t	n/a
239.185	0.105	478370	keystroke	Key.space	n/a
239.275	0.075	478550	keystroke	e	n/a
239.485	0.135	478970	keystroke	x	n/a
239.8	0.225	479600	keystroke	c	n/a
239.995	0.135	479990	keystroke	e	n/a
240.145	0.105	480290	keystroke	p	n/a
240.265	0.15	480530	keystroke	t	n/a
240.37	0.225	480740	keystroke	i	n/a
240.46	0.195	480920	keystroke	o	n/a
240.61	0.135	481220	keystroke	n	n/a
240.745	0.12	481490	keystroke	s	n/a
240.895	0.12	481790	keystroke	Key.enter	n/a
241.0205	6.3555	482041	prompt	n/a	terrain implies generally room\n
241.96	0.12	483920	keystroke	t	n/a
242.08	0.165	484160	keystroke	e	n/a
242.2	0.09	484400	keystroke	r	n/a
242.38	0.12	484760	keystroke	r	n/a
242.575	0.12	485150	keystroke	a	n/a
242.71	0.15	485420	keystroke	i	n/a
242.815	0.135	485630	keystroke	n	n/a
243.115	0.1195	486230	keystroke	Key.space	n/a
243.3695	0.105	486739	keystroke	i	n/a
243.5345	0.12	487069	keystroke	m	n/a
243.5945	0.3	487189	keystroke	p	n/a
243.8195	0.12	487639	keystroke	l	n/a
244.0445	0.105	488089	keystroke	i	n/a
244.1505	0.209	488301	keystroke	e	n/a
244.2695	0.18	488539	keystroke	s	n/a
244.5695	0.12	489139	keystroke	Key.space	n/a
244.6745	0.195	489349	keystroke	g	n/a
244.8095	0.12	489619	keystroke	e	n/a
245.1395	0.1205	490279	keystroke	n	n/a
245.23	0.195	490460	keystroke	e	n/a
245.365	0.1505	490730	keystroke	r	n/a
245.5305	0.1045	491061	keystroke	a	n/a
245.649	0.046	491298	keystroke	l	n/a
245.785	0.09	491570	keystroke	l	n/a
245.8905	0.0895	491781	keystroke	y	n/a
245.995	0.119	491990	keystroke	Key.space	n/a
246.6095	0.106	493219	keystroke	r	n/a
246.7005	0.06	493401	keystroke	o	n/a
246.8505	0.149	493701	keystroke	o	n/a
246.925	0.1355	493850	keystroke	m	n/a
247.2705	0.105	494541	keystroke	Key.enter	n/a
247.379	6.583	494758	prompt	n/a	biography golden qualify section\n
248.0805	0.195	496161	keystroke	b	n/a
248.1255	0.209	496251	keystroke	i	n/a
248.2755	0.15	496551	keystroke	o	n/a
248.4695	0.135	496939	keystroke	g	n/a
248.5445	0.105	497089	keystroke	r	n/a
248.7255	0.149	497451	keystroke	a	n/a
248.8155	0.194	497631	keystroke	p	n/a
248.9505	0.104	497901	keystroke	h	n/a
249.1455	0.134	498291	keystroke	y	n/a
249.2345	0.12	498469	keystroke	Key.space	n/a
250.0445	0.09	500089	keystroke	g	n/a
250.1495	0.06	500299	keystroke	o	n/a
250.2995	0.105	500599	keystroke	l	n/a
250.4505	0.059	500901	keystroke	d	n/a
250.6295	0.12	501259	keystroke	e	n/a
250.7655	0.149	501531	keystroke	n	n/a
250.8695	0.15	501739	keystroke	Key.space	n/a
251.5295	0.105	503059	keystroke	q	n/a
251.6495	0.075	503299	keystroke	u	n/a
251.7545	0.106	503509	keystroke	a	n/a
251.8445	0.135	503689	keystroke	l	n/a
251.9645	0.18	503929	keystroke	i	n/a
252.1295	0.106	504259	keystroke	f	n/a
252.2645	0.165	504529	keystroke	y	n/a
252.3545	0.15	504709	keystroke	Key.space	n/a
252.7445	0.165	505489	keystroke	s	n/a
252.8645	0.106	505729	keystroke	e	n/a
253.0895	0.106	506179	keystroke	c	n/a
253.3595	0.09	506719	keystroke	t	n/a
253.4345	0.2405	506869	keystroke	i	n/a
253.5395	0.18	507079	keystroke	o	n/a
253.66	0.1645	507320	keystroke	n	n/a
253.8395	0.1205	507679	keystroke	Key.enter	n/a
253.972	7.2195	507944	prompt	n/a	prospective controller accordance stronger\n
254.53	0.15	509060	keystroke	p	n/a
254.875	0.09	509750	keystroke	r	n/a
254.9795	0.135	509959	keystroke	o	n/a
255.235	0.18	510470	keystroke	s	n/a
255.46	0.135	510920	keystroke	p	n/a
255.565	0.06	511130	keystroke	e	n/a
255.79	0.075	511580	keystroke	c	n/a
256.045	0.075	512090	keystroke	t	n/a
256.135	0.15	512270	keystroke	i	n/a
256.255	0.2555	512510	keystroke	v	n/a
256.4055	0.15	512811	keystroke	e	n/a
256.5705	0.09	513141	keystroke	Key.space	n/a
256.7205	0.21	513441	keystroke	c	n/a
256.9155	0.165	513831	keystroke	o	n/a
257.0655	0.164	514131	keystroke	n	n/a
257.2155	0.149	514431	keystroke	t	n/a
257.3055	0.15	514611	keystroke	r	n/a
257.4105	0.075	514821	keystroke	o	n/a
257.5745	0.046	515149	keystroke	l	n/a
257.7095	0.091	515419	keystroke	l	n/a
257.7405	0.164	515481	keystroke	e	n/a
257.8305	0.165	515661	keystroke	r	n/a
258.0095	0.12	516019	keystroke	Key.space	n/a
258.1145	0.09	516229	keystroke	a	n/a
258.28	0.09	516560	keystroke	c	n/a
258.4445	0.09	516889	keystroke	c	n/a
258.581	0.09	517162	keystroke	o	n/a
258.685	0.075	517370	keystroke	r	n/a
258.881	0.089	517762	keystroke	d	n/a
259.135	0.09	518270	keystroke	a	n/a
259.24	0.12	518480	keystroke	n	n/a
259.345	0.225	518690	keystroke	c	n/a
259.51	0.121	519020	keystroke	e	n/a
259.615	0.105	519230	keystroke	Key.space	n/a
259.706	0.089	519412	keystroke	s	n/a
259.87	0.135	519740	keystroke	t	n/a
259.96	0.12	519920	keystroke	r	n/a
260.035	0.195	520070	keystroke	o	n/a
260.126	0.135	520252	keystroke	n	n/a
260.245	0.15	520490	keystroke	g	n/a
260.35	0.21	520700	keystroke	e	n/a
260.47	0.15	520940	keystroke	r	n/a
261.115	0.075	522230	keystroke	Key.enter	n/a
261.198	5.2435	522396	prompt	n/a	shield scenes focus film\n
261.7905	0.12	523581	keystroke	s	n/a
261.8805	0.105	523761	keystroke	h	n/a
261.9405	0.15	523881	keystroke	i	n/a
262.1055	0.09	524211	keystroke	e	n/a
262.2405	0.105	524481	keystroke	l	n/a
262.4055	0.195	524811	keystroke	d	n/a
262.915	0.12	525830	keystroke	Key.space	n/a
263.05	0.1805	526100	keystroke	s	n/a
263.1705	0.135	526341	keystroke	c	n/a
263.4105	0.12	526821	keystroke	e	n/a
263.5905	0.105	527181	keystroke	n	n/a
263.7105	0.225	527421	keystroke	e	n/a
263.8305	0.18	527661	keystroke	s	n/a
264.0255	0.105	528051	keystroke	Key.space	n/a
264.5355	0.105	529071	keystroke	f	n/a
264.6855	0.12	529371	keystroke	o	n/a
264.8955	0.135	529791	keystroke	c	n/a
265.0455	0.1495	530091	keystroke	u	n/a
265.1655	0.1195	530331	keystroke	s	n/a
265.3005	0.0745	530601	keystroke	Key.space	n/a
265.57	0.15	531140	keystroke	f	n/a
265.705	0.06	531410	keystroke	i	n/a
265.87	0.195	531740	keystroke	l	n/a
265.99	0.15	531980	keystroke	m	n/a
266.35	0.09	532700	keystroke	Key.enter	n/a
266.4455	5.9665	532891	prompt	n/a	layers corrections coming limiting\n
267.2195	0.105	534439	keystroke	l	n/a
267.3105	0.104	534621	keystroke	a	n/a
267.4895	0.166	534979	keystroke	y	n/a
267.6105	0.254	535221	keystroke	e	n/a
267.7305	0.224	535461	keystroke	r	n/a
267.8345	0.165	535669	keystroke	s	n/a
268.0145	0.09	536029	keystroke	Key.space	n/a
268.2245	0.105	536449	keystroke	c	n/a
268.3445	0.09	536689	keystroke	o	n/a
268.5095	0.06	537019	keystroke	r	n/a
268.6295	0.12	537259	keystroke	r	n/a
268.7045	0.12	537409	keystroke	e	n/a
268.9745	0.1055	537949	keystroke	c	n/a
269.2305	0.105	538461	keystroke	t	n/a
269.3505	0.18	538701	keystroke	i	n/a
269.4105	0.195	538821	keystroke	o	n/a
269.5155	0.135	539031	keystroke	n	n/a
269.6205	0.075	539241	keystroke	s	n/a
269.7255	0.075	539451	keystroke	Key.space	n/a
269.8155	0.09	539631	keystroke	c	n/a
269.8905	0.225	539781	keystroke	o	n/a
269.9955	0.12	539991	keystroke	m	n/a
270.1005	0.21	540201	keystroke	i	n/a
270.2205	0.15	540441	keystroke	n	n/a
270.3255	0.105	540651	keystroke	g	n/a
270.3855	0.105	540771	keystroke	Key.space	n/a
270.5055	0.135	541011	keystroke	l	n/a
270.6855	0.195	541371	keystroke	i	n/a
270.8355	0.225	541671	keystroke	m	n/a
271.0005	0.15	542001	keystroke	i	n/a
271.1655	0.1045	542331	keystroke	t	n/a
271.285	0.21	542570	keystroke	i	n/a
271.465	0.165	542930	keystroke	n	n/a
271.631	0.104	543262	keystroke	g	n/a
272.305	0.105	544610	keystroke	Key.enter	n/a
272.4145	5.412	544829	prompt	n/a	bhutan proposals mint wallet\n
273.4	0.075	546800	keystroke	b	n/a
273.595	0.15	547190	keystroke	h	n/a
273.7	0.15	547400	keystroke	u	n/a
273.865	0.105	547730	keystroke	t	n/a
274.06	0.135	548120	keystroke	a	n/a
274.18	0.165	548360	keystroke	n	n/a
274.3	0.105	548600	keystroke	Key.space	n/a
274.48	0.105	548960	keystroke	p	n/a
274.6	0.12	549200	keystroke	r	n/a
274.705	0.09	549410	keystroke	o	n/a
274.9755	0.1945	549951	keystroke	p	n/a
275.095	0.15	550190	keystroke	o	n/a
275.185	0.18	550370	keystroke	s	n/a
275.485	0.105	550970	keystroke	a	n/a
275.591	0.119	551182	keystroke	l	n/a
275.725	0.12	551450	keystroke	s	n/a
275.95	0.12	551900	keystroke	Key.space	n/a
276.115	0.15	552230	keystroke	m	n/a
276.235	0.21	552470	keystroke	i	n/a
276.355	0.15	552710	keystroke	n	n/a
276.506	0.119	553012	keystroke	t	n/a
276.64	0.075	553280	keystroke	Key.space	n/a
276.82	0.165	553640	keystroke	w	n/a
276.911	0.134	553822	keystroke	a	n/a
277.06	0.06	554120	keystroke	l	n/a
277.18	0.105	554360	keystroke	l	n/a
277.24	0.27	554480	keystroke	e	n/a
277.405	0.165	554810	keystroke	t	n/a
277.75	0.075	555500	keystroke	Key.enter	n/a
277.829	8.593	555658	prompt	n/a	currency albuquerque seek sugar\n
278.5	0.105	557000	keystroke	c	n/a
278.651	0.089	557302	keystroke	u	n/a
278.8	0.06	557600	keystroke	r	n/a
278.95	0.135	557900	keystroke	r	n/a
279.025	0.135	558050	keystroke	e	n/a
279.176	0.104	558352	keystroke	n	n/a
279.355	0.105	558710	keystroke	c	n/a
279.43	0.135	558860	keystroke	y	n/a
279.52	0.12	559040	keystroke	Key.space	n/a
279.67	0.15	559340	keystroke	a	n/a
279.805	0.135	559610	keystroke	l	n/a
280.36	0.15	560720	keystroke	b	n/a
280.435	0.165	560870	keystroke	u	n/a
281.905	0.12	563810	keystroke	q	n/a
282.04	0.18	564080	keystroke	u	n/a
282.25	0.18	564500	keystroke	e	n/a
283.4505	0.09	566901	keystroke	r	n/a
283.6155	0.12	567231	keystroke	q	n/a
283.7055	0.15	567411	keystroke	u	n/a
283.9905	0.18	567981	keystroke	e	n/a
284.4255	0.12	568851	keystroke	Key.space	n/a
284.6205	0.09	569241	keystroke	s	n/a
284.7855	0.075	569571	keystroke	e	n/a
284.936	0.105	569872	keystroke	e	n/a
285.0545	0.12	570109	keystroke	k	n/a
285.1445	0.121	570289	keystroke	Key.space	n/a
285.4005	0.105	570801	keystroke	s	n/a
285.5655	0.165	571131	keystroke	u	n/a
285.7005	0.165	571401	keystroke	g	n/a
285.7905	0.15	571581	keystroke	a	n/a
286.0305	0.09	572061	keystroke	r	n/a
286.3455	0.075	572691	keystroke	Key.enter	n/a
286.4315	7.6855	572863	prompt	n/a	devil free barbara oklahoma\n
287.1855	0.15	574371	keystroke	d	n/a
287.2755	0.105	574551	keystroke	e	n/a
287.4855	0.09	574971	keystroke	v	n/a
287.5755	0.075	575151	keystroke	i	n/a
287.7555	0.135	575511	keystroke	l	n/a
287.8455	0.15	575691	keystroke	Key.space	n/a
287.9655	0.165	575931	keystroke	f	n/a
288.0855	0.15	576171	keystroke	r	n/a
288.2955	0.105	576591	keystroke	e	n/a
288.4905	0.09	576981	keystroke	e	n/a
288.5505	0.105	577101	keystroke	Key.space	n/a
288.7455	0.105	577491	keystroke	b	n/a
288.8955	0.24	577791	keystroke	a	n/a
288.9105	0.12	577821	keystroke	s	n/a
289.4655	0.075	578931	keystroke	Key.backspace	n/a
289.5855	0.12	579171	keystroke	r	n/a
289.8405	0.135	579681	keystroke	b	n/a
289.9455	0.135	579891	keystroke	a	n/a
290.1555	0.18	580311	keystroke	r	n/a
290.2755	0.2105	580551	keystroke	a	n/a
290.905	0.09	581810	keystroke	Key.space	n/a
291.296	0.179	582592	keystroke	o	n/a
291.401	0.119	582802	keystroke	k	n/a
291.745	0.12	583490	keystroke	l	n/a
291.895	0.135	583790	keystroke	a	n/a
292.301	0.134	584602	keystroke	h	n/a
292.391	0.194	584782	keystroke	o	n/a
292.54	0.165	585080	keystroke	m	n/a
292.72	0.076	585440	keystroke	a	n/a
293.995	0.1195	587990	keystroke	Key.enter	n/a
294.126	6.5915	588252	prompt	n/a	largest america chuck qatar\n
294.865	0.15	589730	keystroke	l	n/a
294.94	0.1055	589880	keystroke	a	n/a
295.165	0.105	590330	keystroke	r	n/a
295.255	0.195	590510	keystroke	g	n/a
295.39	0.315	590780	keystroke	e	n/a
295.51	0.18	591020	keystroke	s	n/a
295.645	0.135	591290	keystroke	t	n/a
295.765	0.09	591530	keystroke	Key.space	n/a
295.885	0.12	591770	keystroke	a	n/a
296.02	0.105	592040	keystroke	m	n/a
296.095	0.18	592190	keystroke	e	n/a
296.2	0.12	592400	keystroke	r	n/a
296.365	0.135	592730	keystroke	i	n/a
296.545	0.135	593090	keystroke	c	n/a
296.62	0.15	593240	keystroke	a	n/a
296.755	0.0755	593510	keystroke	Key.space	n/a
296.9055	0.135	593811	keystroke	a	n/a
297.265	0.075	594530	keystroke	Key.backspace	n/a
297.43	0.105	594860	keystroke	c	n/a
297.52	0.15	595040	keystroke	h	n/a
297.64	0.135	595280	keystroke	u	n/a
297.79	0.06	595580	keystroke	r	n/a
298.27	0.09	596540	keystroke	Key.backspace	n/a
298.405	0.09	596810	keystroke	c	n/a
298.54	0.1645	597080	keystroke	k	n/a
298.6595	0.12	597319	keystroke	Key.space	n/a
299.6205	0.105	599241	keystroke	q	n/a
299.8455	0.09	599691	keystroke	a	n/a
300.0105	0.105	600021	keystroke	t	n/a
300.1005	0.09	600201	keystroke	a	n/a
300.3555	0.105	600711	keystroke	r	n/a
300.6255	0.09	601251	keystroke	Key.enter	n/a
300.7265	4.325	601453	prompt	n/a	ease morocco title organ\n
301.3	0.1955	602600	keystroke	e	n/a
301.4505	0.225	602901	keystroke	a	n/a
301.6005	0.135	603201	keystroke	s	n/a
301.8555	0.105	603711	keystroke	e	n/a
301.9155	0.12	603831	keystroke	Key.space	n/a
302.0655	0.12	604131	keystroke	m	n/a
302.1405	0.15	604281	keystroke	o	n/a
302.5305	0.12	605061	keystroke	r	n/a
302.665	0.1205	605330	keystroke	o	n/a
302.8905	0.075	605781	keystroke	c	n/a
303.0405	0.1045	606081	keystroke	c	n/a
303.176	0.149	606352	keystroke	o	n/a
303.28	0.12	606560	keystroke	Key.space	n/a
303.46	0.1045	606920	keystroke	t	n/a
303.5505	0.09	607101	keystroke	i	n/a
303.6545	0.09	607309	keystroke	t	n/a
303.7605	0.104	607521	keystroke	l	n/a
303.8795	0.09	607759	keystroke	e	n/a
303.9845	0.075	607969	keystroke	Key.space	n/a
304.1055	0.119	608211	keystroke	o	n/a
304.2095	0.09	608419	keystroke	r	n/a
304.4495	0.18	608899	keystroke	g	n/a
304.5845	0.15	609169	keystroke	a	n/a
304.7495	0.105	609499	keystroke	n	n/a
304.9445	0.105	609889	keystroke	Key.enter	n/a
305.054	6.7025	610108	prompt	n/a	currency cottages none freight\n
305.7405	0.12	611481	keystroke	c	n/a
305.8455	0.12	611691	keystroke	u	n/a
306.0105	0.075	612021	keystroke	r	n/a
306.1455	0.135	612291	keystroke	r	n/a
306.2355	0.135	612471	keystroke	e	n/a
306.4005	0.135	612801	keystroke	n	n/a
306.5505	0.12	613101	keystroke	c	n/a
306.6555	0.12	613311	keystroke	y	n/a
306.7305	0.105	613461	keystroke	Key.space	n/a
306.8505	0.0745	613701	keystroke	c	n/a
306.94	0.09	613880	keystroke	o	n/a
307.135	0.045	614270	keystroke	t	n/a
307.27	0.105	614540	keystroke	t	n/a
307.39	0.105	614780	keystroke	a	n/a
307.54	0.255	615080	keystroke	g	n/a
307.66	0.225	615320	keystroke	e	n/a
307.75	0.18	615500	keystroke	s	n/a
308.065	0.105	616130	keystroke	Key.space	n/a
308.23	0.105	616460	keystroke	n	n/a
308.32	0.165	616640	keystroke	o	n/a
308.425	0.165	616850	keystroke	n	n/a
308.575	0.105	617150	keystroke	e	n/a
308.71	0.105	617420	keystroke	Key.space	n/a
308.89	0.2105	617780	keystroke	f	n/a
309.01	0.1655	618020	keystroke	r	n/a
309.88	0.12	619760	keystroke	e	n/a
310.015	0.105	620030	keystroke	i	n/a
310.2555	0.1345	620511	keystroke	d	n/a
310.915	0.09	621830	keystroke	Key.backspace	n/a
311.035	0.09	622070	keystroke	g	n/a
311.17	0.105	622340	keystroke	h	n/a
311.29	0.09	622580	keystroke	t	n/a
311.635	0.12	623270	keystroke	Key.enter	n/a
311.7605	4.601	623521	prompt	n/a	video enter promises browse\n
312.355	0.15	624710	keystroke	v	n/a
312.46	0.09	624920	keystroke	i	n/a
312.61	0.15	625220	keystroke	d	n/a
312.7	0.135	625400	keystroke	e	n/a
312.775	0.165	625550	keystroke	o	n/a
312.865	0.12	625730	keystroke	Key.space	n/a
313.03	0.12	626060	keystroke	e	n/a
313.135	0.105	626270	keystroke	n	n/a
313.255	0.09	626510	keystroke	t	n/a
313.42	0.18	626840	keystroke	e	n/a
313.525	0.195	627050	keystroke	r	n/a
313.78	0.12	627560	keystroke	Key.space	n/a
314.095	0.12	628190	keystroke	p	n/a
314.2	0.09	628400	keystroke	r	n/a
314.275	0.1655	628550	keystroke	o	n/a
314.425	0.1955	628850	keystroke	m	n/a
314.5605	0.24	629121	keystroke	i	n/a
314.6505	0.135	629301	keystroke	s	n/a
314.7555	0.2845	629511	keystroke	e	n/a
314.9055	0.1495	629811	keystroke	s	n/a
315.04	0.105	630080	keystroke	Key.space	n/a
315.2195	0.09	630439	keystroke	b	n/a
315.3695	0.12	630739	keystroke	r	n/a
315.5355	0.134	631071	keystroke	o	n/a
315.6105	0.089	631221	keystroke	w	n/a
315.8495	0.09	631699	keystroke	s	n/a
316.0755	0.074	632151	keystroke	e	n/a
316.2695	0.09	632539	keystroke	Key.enter	n/a
316.364	7.963	632728	prompt	n/a	ebony maternity automatically automatic\n
317.2745	0.12	634549	keystroke	e	n/a
317.575	0.075	635150	keystroke	b	n/a
317.635	0.1945	635270	keystroke	o	n/a
317.7395	0.15	635479	keystroke	n	n/a
317.9945	0.12	635989	keystroke	y	n/a
318.0695	0.105	636139	keystroke	Key.space	n/a
319.0745	0.105	638149	keystroke	m	n/a
319.1355	0.074	638271	keystroke	a	n/a
319.3595	0.105	638719	keystroke	t	n/a
319.5545	0.165	639109	keystroke	e	n/a
319.6745	0.135	639349	keystroke	r	n/a
319.8395	0.135	639679	keystroke	n	n/a
319.9295	0.135	639859	keystroke	i	n/a
320.1095	0.12	640219	keystroke	t	n/a
320.2445	0.105	640489	keystroke	y	n/a
320.3195	0.1205	640639	keystroke	Key.space	n/a
320.53	0.12	641060	keystroke	a	n/a
320.62	0.12	641240	keystroke	u	n/a
320.7845	0.1055	641569	keystroke	t	n/a
320.905	0.105	641810	keystroke	o	n/a
321.07	0.105	642140	keystroke	m	n/a
321.16	0.09	642320	keystroke	a	n/a
321.3705	0.075	642741	keystroke	t	n/a
321.4755	0.1045	642951	keystroke	i	n/a
321.655	0.1355	643310	keystroke	c	n/a
321.73	0.12	643460	keystroke	a	n/a
321.835	0.06	643670	keystroke	l	n/a
321.97	0.105	643940	keystroke	l	n/a
322.09	0.1205	644180	keystroke	y	n/a
322.225	0.12	644450	keystroke	Key.space	n/a
322.45	0.105	644900	keystroke	a	n/a
322.57	0.12	645140	keystroke	u	n/a
322.72	0.105	645440	keystroke	t	n/a
322.87	0.105	645740	keystroke	o	n/a
323.08	0.1055	646160	keystroke	m	n/a
323.3655	0.105	646731	keystroke	a	n/a
323.6205	0.089	647241	keystroke	t	n/a
323.7545	0.12	647509	keystroke	i	n/a
323.9195	0.09	647839	keystroke	c	n/a
324.2345	0.09	648469	keystroke	Key.enter	n/a
324.3365	7.34	648673	prompt	n/a	consumer blacks offset methodology\n
324.9545	0.121	649909	keystroke	c	n/a
325.0295	0.196	650059	keystroke	o	n/a
325.1355	0.135	650271	keystroke	n	n/a
325.2855	0.165	650571	keystroke	s	n/a
325.3755	0.09	650751	keystroke	u	n/a
325.6005	0.075	651201	keystroke	m	n/a
325.6605	0.194	651321	keystroke	e	n/a
325.7805	0.1645	651561	keystroke	r	n/a
325.9145	0.105	651829	keystroke	Key.space	n/a
326.365	0.1645	652730	keystroke	b	n/a
326.4845	0.165	652969	keystroke	l	n/a
326.5745	0.165	653149	keystroke	a	n/a
326.6345	0.195	653269	keystroke	c	n/a
326.8145	0.1505	653629	keystroke	k	n/a
326.9495	0.1355	653899	keystroke	s	n/a
327.0695	0.1055	654139	keystroke	Key.space	n/a
327.31	0.105	654620	keystroke	o	n/a
327.43	0.0755	654860	keystroke	f	n/a
327.5805	0.119	655161	keystroke	f	n/a
327.8505	0.18	655701	keystroke	s	n/a
327.9555	0.15	655911	keystroke	e	n/a
328.2555	0.18	656511	keystroke	t	n/a
328.6305	0.105	657261	keystroke	Key.space	n/a
328.8105	0.12	657621	keystroke	m	n/a
328.9155	0.09	657831	keystroke	e	n/a
329.0945	0.12	658189	keystroke	t	n/a
329.2295	0.135	658459	keystroke	h	n/a
329.3195	0.15	658639	keystroke	o	n/a
329.5595	0.105	659119	keystroke	d	n/a
329.7095	0.075	659419	keystroke	o	n/a
329.9345	0.09	659869	keystroke	l	n/a
330.1295	0.09	660259	keystroke	o	n/a
330.3845	0.105	660769	keystroke	g	n/a
330.5795	0.061	661159	keystroke	y	n/a
331.555	0.12	663110	keystroke	Key.enter	n/a
331.68	9.192	663360	prompt	n/a	drunk fraser females requiring\n
332.38	0.105	664760	keystroke	d	n/a
332.605	0.105	665210	keystroke	r	n/a
332.725	0.09	665450	keystroke	u	n/a
332.905	0.135	665810	keystroke	n	n/a
333.01	0.18	666020	keystroke	k	n/a
333.13	0.135	666260	keystroke	Key.space	n/a
333.355	0.165	666710	keystroke	g	n/a
333.46	0.12	666920	keystroke	r	n/a
333.685	0.12	667370	keystroke	a	n/a
334.0295	0.075	668059	keystroke	Key.backspace	n/a
334.2545	0.015	668509	keystroke	Key.backspace	n/a
334.3445	0.075	668689	keystroke	Key.backspace	n/a
335.0045	0.1505	670009	keystroke	f	n/a
335.0795	0.121	670159	keystroke	r	n/a
335.2755	0.165	670551	keystroke	a	n/a
335.3955	0.12	670791	keystroke	s	n/a
335.6355	0.21	671271	keystroke	e	n/a
335.7255	0.195	671451	keystroke	r	n/a
335.9355	0.12	671871	keystroke	Key.space	n/a
336.1605	0.195	672321	keystroke	f	n/a
336.2505	0.18	672501	keystroke	e	n/a
336.5205	0.09	673041	keystroke	m	n/a
336.6555	0.105	673311	keystroke	a	n/a
336.7755	0.135	673551	keystroke	l	n/a
336.9255	0.195	673851	keystroke	e	n/a
337.0755	0.149	674151	keystroke	s	n/a
337.8845	0.075	675769	keystroke	Key.space	n/a
338.0955	0.164	676191	keystroke	r	n/a
338.1545	0.166	676309	keystroke	e	n/a
338.6955	0.12	677391	keystroke	q	n/a
338.8595	0.151	677719	keystroke	u	n/a
338.9805	0.149	677961	keystroke	i	n/a
339.0845	0.105	678169	keystroke	r	n/a
339.1905	0.239	678381	keystroke	i	n/a
339.3095	0.15	678619	keystroke	n	n/a
339.4895	0.09	678979	keystroke	g	n/a
340.7645	0.105	681529	keystroke	Key.enter	n/a
340.8815	6.32	681763	prompt	n/a	accommodation ensemble lazy storm\n
341.4395	0.09	682879	keystroke	a	n/a
341.6495	0.09	683299	keystroke	c	n/a
341.7845	0.09	683569	keystroke	c	n/a
341.8295	0.21	683659	keystroke	o	n/a
341.9495	0.165	683899	keystroke	m	n/a
343.2695	0.15	686539	keystroke	m	n/a
343.3745	0.165	686749	keystroke	o	n/a
343.5845	0.165	687169	keystroke	d	n/a
343.6895	0.135	687379	keystroke	a	n/a
343.9145	0.105	687829	keystroke	t	n/a
343.9895	0.18	687979	keystroke	i	n/a
344.0945	0.18	688189	keystroke	o	n/a
344.1845	0.15	688369	keystroke	n	n/a
344.2895	0.105	688579	keystroke	Key.space	n/a
344.4245	0.09	688849	keystroke	e	n/a
344.5295	0.09	689059	keystroke	n	n/a
344.6495	0.21	689299	keystroke	s	n/a
344.7995	0.15	689599	keystroke	e	n/a
344.9645	0.06	689929	keystroke	m	n/a
345.1445	0.18	690289	keystroke	b	n/a
345.2795	0.135	690559	keystroke	l	n/a
345.3845	0.105	690769	keystroke	e	n/a
345.5045	0.075	691009	keystroke	Key.space	n/a
345.6095	0.135	691219	keystroke	l	n/a
345.6995	0.105	691399	keystroke	a	n/a
345.9095	0.12	691819	keystroke	z	n/a
346.0145	0.12	692029	keystroke	y	n/a
346.0745	0.12	692149	keystroke	Key.space	n/a
346.2545	0.12	692509	keystroke	s	n/a
346.4795	0.105	692959	keystroke	t	n/a
346.5995	0.105	693199	keystroke	o	n/a
346.7055	0.119	693411	keystroke	r	n/a
346.8545	0.09	693709	keystroke	m	n/a
347.1095	0.09	694219	keystroke	Key.enter	n/a
347.212	6.155	694424	prompt	n/a	revenues telephone nail recorder\n
347.8595	0.015	695719	keystroke	e	n/a
348.1445	0.09	696289	keystroke	Key.backspace	n/a
348.2795	0.15	696559	keystroke	r	n/a
348.3845	0.105	696769	keystroke	e	n/a
348.6395	0.165	697279	keystroke	v	n/a
348.7295	0.135	697459	keystroke	e	n/a
348.8945	0.105	697789	keystroke	n	n/a
349.0595	0.165	698119	keystroke	u	n/a
349.2095	0.225	698419	keystroke	e	n/a
349.3445	0.12	698689	keystroke	s	n/a
349.4795	0.12	698959	keystroke	Key.space	n/a
349.6145	0.15	699229	keystroke	t	n/a
349.6895	0.135	699379	keystroke	e	n/a
349.8695	0.09	699739	keystroke	l	n/a
349.9445	0.12	699889	keystroke	e	n/a
350.0795	0.12	700159	keystroke	p	n/a
350.2295	0.1355	700459	keystroke	h	n/a
350.3195	0.225	700639	keystroke	o	n/a
350.4995	0.165	700999	keystroke	n	n/a
350.6655	0.089	701331	keystroke	e	n/a
350.7845	0.105	701569	keystroke	Key.space	n/a
350.9495	0.12	701899	keystroke	n	n/a
351.0845	0.12	702169	keystroke	a	n/a
351.1895	0.075	702379	keystroke	i	n/a
351.3545	0.1205	702709	keystroke	l	n/a
351.445	0.12	702890	keystroke	Key.space	n/a
351.745	0.105	703490	keystroke	r	n/a
351.805	0.12	703610	keystroke	e	n/a
352.045	0.105	704090	keystroke	c	n/a
352.165	0.12	704330	keystroke	o	n/a
352.3	0.105	704600	keystroke	r	n/a
352.51	0.075	705020	keystroke	d	n/a
352.705	0.195	705410	keystroke	e	n/a
352.825	0.165	705650	keystroke	r	n/a
353.29	0.075	706580	keystroke	Key.enter	n/a
353.377	6.619	706754	prompt	n/a	wagon shelf possibilities parliament\n
354.01	0.165	708020	keystroke	w	n/a
354.1	0.15	708200	keystroke	a	n/a
354.37	0.105	708740	keystroke	g	n/a
354.46	0.21	708920	keystroke	o	n/a
354.58	0.135	709160	keystroke	n	n/a
354.685	0.09	709370	keystroke	Key.space	n/a
354.805	0.09	709610	keystroke	s	n/a
354.88	0.105	709760	keystroke	h	n/a
355.0445	0.075	710089	keystroke	e	n/a
355.345	0.179	710690	keystroke	l	n/a
355.569	0.106	711138	keystroke	f	n/a
355.689	0.076	711378	keystroke	Key.space	n/a
355.839	0.135	711678	keystroke	p	n/a
356.154	0.106	712308	keystroke	o	n/a
356.29	0.089	712580	keystroke	s	n/a
356.454	0.106	712908	keystroke	s	n/a
356.544	0.136	713088	keystroke	i	n/a
356.664	0.15	713328	keystroke	b	n/a
356.8	0.119	713600	keystroke	i	n/a
357.025	0.1045	714050	keystroke	l	n/a
357.175	0.1045	714350	keystroke	i	n/a
357.3095	0.105	714619	keystroke	t	n/a
357.4595	0.12	714919	keystroke	i	n/a
357.5645	0.18	715129	keystroke	e	n/a
357.6845	0.18	715369	keystroke	s	n/a
358.0895	0.12	716179	keystroke	Key.space	n/a
358.3595	0.135	716719	keystroke	p	n/a
358.4345	0.135	716869	keystroke	a	n/a
358.7345	0.12	717469	keystroke	r	n/a
358.9295	0.09	717859	keystroke	l	n/a
359.11	0.105	718220	keystroke	i	n/a
359.215	0.105	718430	keystroke	a	n/a
359.41	0.09	718820	keystroke	m	n/a
359.53	0.09	719060	keystroke	e	n/a
359.605	0.105	719210	keystroke	n	n/a
359.725	0.105	719450	keystroke	t	n/a
359.9195	0.075	719839	keystroke	Key.enter	n/a
359.9985	18.8085	719997	prompt	n/a	trails functionality expression school\n
360.8195	0.12	721639	keystroke	t	n/a
360.9095	0.105	721819	keystroke	r	n/a
361.1195	0.1355	722239	keystroke	a	n/a
361.225	0.075	722450	keystroke	i	n/a
361.39	0.105	722780	keystroke	l	n/a
361.48	0.09	722960	keystroke	s	n/a
361.585	0.12	723170	keystroke	Key.space	n/a
361.99	0.075	723980	keystroke	f	n/a
362.095	0.09	724190	keystroke	u	n/a
362.2	0.09	724400	keystroke	c	n/a
362.41	0.09	724820	keystroke	t	n/a
362.455	0.255	724910	keystroke	i	n/a
362.575	0.255	725150	keystroke	o	n/a
362.68	0.165	725360	keystroke	n	n/a
362.92	0.105	725840	keystroke	a	n/a
363.07	0.0895	726140	keystroke	l	n/a
363.2195	0.105	726439	keystroke	i	n/a
363.3695	0.09	726739	keystroke	t	n/a
363.4745	0.135	726949	keystroke	y	n/a
363.5645	0.12	727129	keystroke	Key.space	n/a
363.7895	0.105	727579	keystroke	e	n/a
364.3895	0.075	728779	keystroke	Key.backspace	n/a
364.6145	0.075	729229	keystroke	Key.backspace	n/a
371.5465	0.043	743093	keystroke	Key.backspace	n/a
371.6795	0.06	743359	keystroke	Key.backspace	n/a
371.8445	0.06	743689	keystroke	Key.backspace	n/a
371.9795	0.075	743959	keystroke	Key.backspace	n/a
372.1445	0.045	744289	keystroke	Key.backspace	n/a
372.3095	0.06	744619	keystroke	Key.backspace	n/a
372.4745	0.06	744949	keystroke	Key.backspace	n/a
372.4895	0.03	744979	keystroke	=	n/a
372.6545	0.045	745309	keystroke	Key.backspace	n/a
372.8045	0.06	745609	keystroke	Key.backspace	n/a
372.9695	0.045	745939	keystroke	Key.backspace	n/a
373.1345	0.075	746269	keystroke	Key.backspace	n/a
373.8245	0.0605	747649	keystroke	n	n/a
373.96	0.075	747920	keystroke	c	n/a
374.215	0.0895	748430	keystroke	t	n/a
374.26	0.1945	748520	keystroke	i	n/a
374.3495	0.165	748699	keystroke	o	n/a
374.4395	0.15	748879	keystroke	n	n/a
374.5745	0.12	749149	keystroke	a	n/a
374.6495	0.165	749299	keystroke	l	n/a
374.7845	0.1505	749569	keystroke	i	n/a
374.95	0.09	749900	keystroke	t	n/a
375.0555	0.1195	750111	keystroke	y	n/a
375.13	0.105	750260	keystroke	Key.space	n/a
376.285	0.06	752570	keystroke	e	n/a
376.48	0.09	752960	keystroke	x	n/a
376.585	0.105	753170	keystroke	p	n/a
376.705	0.135	753410	keystroke	r	n/a
376.78	0.165	753560	keystroke	e	n/a
376.885	0.12	753770	keystroke	s	n/a
377.095	0.12	754190	keystroke	s	n/a
377.2	0.195	754400	keystroke	i	n/a
377.32	0.21	754640	keystroke	o	n/a
377.425	0.195	754850	keystroke	n	n/a
377.575	0.09	755150	keystroke	Key.space	n/a
377.8	0.18	755600	keystroke	s	n/a
377.92	0.21	755840	keystroke	c	n/a
378.115	0.09	756230	keystroke	h	n/a
378.145	0.105	756290	keystroke	o	n/a
378.325	0.075	756650	keystroke	o	n/a
378.505	0.075	757010	keystroke	l	n/a
378.73	0.075	757460	keystroke	Key.enter	n/a
378.8165	9.455	757633	prompt	n/a	volt hybrid frequent level\n
379.7045	0.135	759409	keystroke	v	n/a
379.7945	0.09	759589	keystroke	o	n/a
379.9745	0.075	759949	keystroke	l	n/a
380.0505	0.119	760101	keystroke	t	n/a
380.1545	0.075	760309	keystroke	Key.space	n/a
380.2895	0.105	760579	keystroke	h	n/a
380.4695	0.09	760939	keystroke	y	n/a
381.0095	0.09	762019	keystroke	b	n/a
381.1745	0.045	762349	keystroke	r	n/a
381.3095	0.12	762619	keystroke	i	n/a
381.4595	0.12	762919	keystroke	d	n/a
381.5645	0.09	763129	keystroke	Key.space	n/a
381.88	0.225	763760	keystroke	f	n/a
382	0.165	764000	keystroke	r	n/a
382.81	0.105	765620	keystroke	q	n/a
382.915	0.09	765830	keystroke	u	n/a
383.005	0.09	766010	keystroke	e	n/a
383.095	0.105	766190	keystroke	n	n/a
383.215	0.135	766430	keystroke	t	n/a
383.32	0.09	766640	keystroke	Key.space	n/a
383.5	0.105	767000	keystroke	l	n/a
383.665	0.105	767330	keystroke	e	n/a
384.145	0.06	768290	keystroke	Key.backspace	n/a
384.31	0.075	768620	keystroke	Key.backspace	n/a
384.489	0.06	768978	keystroke	Key.backspace	n/a
384.654	0.076	769308	keystroke	Key.backspace	n/a
384.835	0.06	769670	keystroke	Key.backspace	n/a
384.984	0.075	769968	keystroke	Key.backspace	n/a
385.15	0.06	770300	keystroke	Key.backspace	n/a
385.33	0.06	770660	keystroke	Key.backspace	n/a
386.005	0.105	772010	keystroke	e	n/a
386.6345	0.09	773269	keystroke	q	n/a
386.7395	0.105	773479	keystroke	u	n/a
386.8895	0.105	773779	keystroke	e	n/a
386.9795	0.105	773959	keystroke	n	n/a
387.0995	0.09	774199	keystroke	t	n/a
387.1745	0.09	774349	keystroke	Key.space	n/a
387.3695	0.105	774739	keystroke	l	n/a
387.4295	0.12	774859	keystroke	e	n/a
387.6095	0.195	775219	keystroke	v	n/a
387.7445	0.12	775489	keystroke	e	n/a
387.9695	0.075	775939	keystroke	l	n/a
388.2095	0.06	776419	keystroke	Key.enter	n/a
388.281	5.63	776562	prompt	n/a	kelly tank analog plenty\n
388.9445	0.09	777889	keystroke	k	n/a
389.0195	0.105	778039	keystroke	e	n/a
389.1395	0.06	778279	keystroke	l	n/a
389.2895	0.09	778579	keystroke	l	n/a
389.3645	0.105	778729	keystroke	y	n/a
389.4545	0.105	778909	keystroke	Key.space	n/a
389.5895	0.165	779179	keystroke	t	n/a
389.7245	0.18	779449	keystroke	a	n/a
389.8595	0.15	779719	keystroke	n	n/a
389.9345	0.18	779869	keystroke	k	n/a
390.0545	0.12	780109	keystroke	Key.space	n/a
391.0295	0.105	782059	keystroke	a	n/a
391.1495	0.0905	782299	keystroke	n	n/a
391.255	0.135	782510	keystroke	a	n/a
391.405	0.075	782810	keystroke	l	n/a
391.585	0.075	783170	keystroke	o	n/a
391.825	0.09	783650	keystroke	g	n/a
391.9295	0.03	783859	keystroke	Key.space	n/a
392.0045	0.105	784009	keystroke	p	n/a
392.1245	0.0745	784249	keystroke	e	n/a
392.5595	0.075	785119	keystroke	Key.backspace	n/a
392.7845	0.12	785569	keystroke	l	n/a
392.8895	0.105	785779	keystroke	e	n/a
393.0395	0.075	786079	keystroke	n	n/a
393.1145	0.09	786229	keystroke	t	n/a
393.4445	0.09	786889	keystroke	y	n/a
393.8345	0.075	787669	keystroke	Key.enter	n/a
393.9135	8.6235	787827	prompt	n/a	quantity engaged server consideration\n
395.0195	0.105	790039	keystroke	q	n/a
395.1395	0.105	790279	keystroke	u	n/a
395.8445	0.105	791689	keystroke	a	n/a
395.9795	0.105	791959	keystroke	n	n/a
396.1295	0.09	792259	keystroke	t	n/a
396.2045	0.09	792409	keystroke	i	n/a
396.3095	0.09	792619	keystroke	t	n/a
396.4745	0.12	792949	keystroke	y	n/a
396.7145	0.105	793429	keystroke	Key.space	n/a
397.3295	0.105	794659	keystroke	e	n/a
397.4495	0.09	794899	keystroke	n	n/a
397.5995	0.09	795199	keystroke	g	n/a
397.705	0.1345	795410	keystroke	a	n/a
397.8545	0.15	795709	keystroke	g	n/a
397.9445	0.12	795889	keystroke	e	n/a
398.1395	0.12	796279	keystroke	d	n/a
398.2445	0.1045	796489	keystroke	Key.space	n/a
398.41	0.179	796820	keystroke	s	n/a
398.5295	0.1805	797059	keystroke	e	n/a
398.634	0.15	797268	keystroke	r	n/a
398.874	0.105	797748	keystroke	v	n/a
398.964	0.1505	797928	keystroke	e	n/a
399.0545	0.105	798109	keystroke	r	n/a
399.1445	0.105	798289	keystroke	Key.space	n/a
399.3395	0.0905	798679	keystroke	c	n/a
399.3995	0.15	798799	keystroke	o	n/a
399.5195	0.09	799039	keystroke	n	n/a
399.6695	0.12	799339	keystroke	n	n/a
399.7745	0.075	799549	keystroke	e	n/a
400.1045	0.06	800209	keystroke	Key.backspace	n/a
400.2545	0.075	800509	keystroke	Key.backspace	n/a
400.6595	0.135	801319	keystroke	s	n/a
400.7795	0.12	801559	keystroke	i	n/a
400.8845	0.12	801769	keystroke	d	n/a
401.0795	0.135	802159	keystroke	e	n/a
401.1395	0.18	802279	keystroke	r	n/a
401.2895	0.12	802579	keystroke	a	n/a
401.4845	0.12	802969	keystroke	t	n/a
401.5745	0.24	803149	keystroke	i	n/a
401.6645	0.21	803329	keystroke	o	n/a
401.7845	0.15	803569	keystroke	n	n/a
402.4445	0.09	804889	keystroke	Key.enter	n/a
402.5465	6.784	805093	prompt	n/a	drill incidence chris glucose\n
403.209	0.105	806418	keystroke	d	n/a
403.434	0.075	806868	keystroke	r	n/a
403.524	0.06	807048	keystroke	i	n/a
403.689	0.075	807378	keystroke	l	n/a
403.839	0.135	807678	keystroke	l	n/a
403.914	0.12	807828	keystroke	Key.space	n/a
404.094	0.12	808188	keystroke	i	n/a
404.169	0.135	808338	keystroke	n	n/a
404.319	0.105	808638	keystroke	c	n/a
404.409	0.105	808818	keystroke	i	n/a
404.544	0.15	809088	keystroke	d	n/a
404.649	0.12	809298	keystroke	e	n/a
404.784	0.075	809568	keystroke	n	n/a
404.949	0.1955	809898	keystroke	c	n/a
405.264	0.135	810528	keystroke	e	n/a
405.684	0.09	811368	keystroke	Key.space	n/a
406.029	0.12	812058	keystroke	c	n/a
406.164	0.09	812328	keystroke	h	n/a
406.2845	0.09	812569	keystroke	r	n/a
406.3435	0.106	812687	keystroke	i	n/a
406.4645	0.135	812929	keystroke	s	n/a
406.5845	0.09	813169	keystroke	Key.space	n/a
407.4695	0.075	814939	keystroke	g	n/a
407.5595	0.06	815119	keystroke	l	n/a
407.7245	0.0745	815449	keystroke	u	n/a
407.859	0.105	815718	keystroke	c	n/a
408.159	0.12	816318	keystroke	o	n/a
408.294	0.27	816588	keystroke	s	n/a
408.504	0.15	817008	keystroke	e	n/a
409.254	0.0755	818508	keystroke	Key.enter	n/a
409.333	9.8835	818666	prompt	n/a	portsmouth edinburgh analyzed lens\n
409.9895	0.165	819979	keystroke	p	n/a
410.1845	0.12	820369	keystroke	r	n/a
410.6795	0.075	821359	keystroke	Key.backspace	n/a
410.9195	0.09	821839	keystroke	o	n/a
411.0395	0.18	822079	keystroke	r	n/a
411.1595	0.15	822319	keystroke	t	n/a
411.3995	0.12	822799	keystroke	s	n/a
411.6545	0.135	823309	keystroke	m	n/a
411.7295	0.165	823459	keystroke	o	n/a
412.014	0.165	824028	keystroke	u	n/a
412.164	0.12	824328	keystroke	t	n/a
412.254	0.15	824508	keystroke	h	n/a
412.344	0.135	824688	keystroke	Key.space	n/a
412.569	0.09	825138	keystroke	e	n/a
412.839	0.12	825678	keystroke	d	n/a
412.944	0.165	825888	keystroke	i	n/a
413.019	0.135	826038	keystroke	n	n/a
414.189	0.09	828378	keystroke	b	n/a
414.234	0.18	828468	keystroke	u	n/a
414.399	0.105	828798	keystroke	r	n/a
415.479	0.075	830958	keystroke	g	n/a
415.659	0.12	831318	keystroke	h	n/a
416.394	0.106	832788	keystroke	Key.space	n/a
416.47	0.12	832940	keystroke	a	n/a
416.575	0.105	833150	keystroke	n	n/a
416.68	0.105	833360	keystroke	a	n/a
417.054	0.0905	834108	keystroke	l	n/a
417.294	0.09	834588	keystroke	y	n/a
417.414	0.105	834828	keystroke	z	n/a
417.624	0.075	835248	keystroke	e	n/a
417.804	0.105	835608	keystroke	d	n/a
417.969	0.09	835938	keystroke	Key.space	n/a
418.209	0.105	836418	keystroke	l	n/a
418.299	0.09	836598	keystroke	e	n/a
418.404	0.09	836808	keystroke	n	n/a
418.749	0.105	837498	keystroke	s	n/a
419.1245	0.09	838249	keystroke	Key.enter	n/a
419.2285	6.017	838457	prompt	n/a	skip screw violent influenced\n
419.8595	0.15	839719	keystroke	s	n/a
420.0095	0.06	840019	keystroke	k	n/a
420.1595	0.12	840319	keystroke	i	n/a
420.2495	0.15	840499	keystroke	p	n/a
420.3245	0.135	840649	keystroke	Key.space	n/a
420.7595	0.09	841519	keystroke	s	n/a
420.9545	0.09	841909	keystroke	c	n/a
421.239	0.195	842478	keystroke	r	n/a
421.314	0.18	842628	keystroke	e	n/a
421.419	0.165	842838	keystroke	w	n/a
421.599	0.105	843198	keystroke	Key.space	n/a
422.139	0.105	844278	keystroke	v	n/a
422.184	0.121	844368	keystroke	i	n/a
422.274	0.105	844548	keystroke	o	n/a
422.439	0.09	844878	keystroke	l	n/a
422.559	0.15	845118	keystroke	e	n/a
422.724	0.12	845448	keystroke	n	n/a
422.845	0.104	845690	keystroke	t	n/a
422.964	0.075	845928	keystroke	Key.space	n/a
423.594	0.18	847188	keystroke	i	n/a
423.684	0.135	847368	keystroke	n	n/a
423.939	0.1355	847878	keystroke	f	n/a
424.0445	0.075	848089	keystroke	l	n/a
424.2245	0.09	848449	keystroke	u	n/a
424.2995	0.09	848599	keystroke	e	n/a
424.4195	0.1195	848839	keystroke	n	n/a
424.524	0.165	849048	keystroke	c	n/a
424.629	0.15	849258	keystroke	e	n/a
424.914	0.06	849828	keystroke	d	n/a
425.169	0.0755	850338	keystroke	Key.enter	n/a
425.2485	7.2275	850497	prompt	n/a	fleece party downloadable larger\n
425.9795	0.12	851959	keystroke	f	n/a
426.0845	0.105	852169	keystroke	l	n/a
426.1895	0.075	852379	keystroke	e	n/a
426.3395	0.0895	852679	keystroke	e	n/a
426.5645	0.165	853129	keystroke	c	n/a
426.6845	0.15	853369	keystroke	e	n/a
426.9545	0.105	853909	keystroke	Key.space	n/a
427.2245	0.135	854449	keystroke	p	n/a
427.3145	0.165	854629	keystroke	a	n/a
427.4195	0.135	854839	keystroke	r	n/a
427.6445	0.12	855289	keystroke	t	n/a
428.079	0.15	856158	keystroke	y	n/a
428.184	0.135	856368	keystroke	Key.space	n/a
428.649	0.135	857298	keystroke	d	n/a
428.769	0.09	857538	keystroke	o	n/a
428.844	0.105	857688	keystroke	w	n/a
428.994	0.06	857988	keystroke	n	n/a
429.144	0.09	858288	keystroke	l	n/a
429.339	0.105	858678	keystroke	o	n/a
429.474	0.18	858948	keystroke	a	n/a
429.594	0.165	859188	keystroke	d	n/a
430.689	0.1055	861378	keystroke	a	n/a
430.7795	0.164	861559	keystroke	b	n/a
430.9135	0.15	861827	keystroke	l	n/a
431.0785	0.1055	862157	keystroke	e	n/a
431.184	0.0895	862368	keystroke	Key.space	n/a
431.3635	0.12	862727	keystroke	l	n/a
431.4235	0.105	862847	keystroke	a	n/a
431.5885	0.075	863177	keystroke	r	n/a
431.7985	0.09	863597	keystroke	g	n/a
431.9635	0.225	863927	keystroke	e	n/a
432.1145	0.134	864229	keystroke	r	n/a
432.3685	0.105	864737	keystroke	Key.enter	n/a
432.4855	7.3565	864971	prompt	n/a	shelter phase cigarettes solution\n
433.134	0.105	866268	keystroke	s	n/a
433.254	0.09	866508	keystroke	h	n/a
433.389	0.09	866778	keystroke	e	n/a
433.464	0.105	866928	keystroke	l	n/a
433.644	0.09	867288	keystroke	t	n/a
433.839	0.15	867678	keystroke	e	n/a
433.944	0.135	867888	keystroke	r	n/a
434.064	0.09	868128	keystroke	Key.space	n/a
434.1995	0.1345	868399	keystroke	p	n/a
434.439	0.12	868878	keystroke	h	n/a
434.544	0.18	869088	keystroke	a	n/a
434.664	0.12	869328	keystroke	s	n/a
434.8895	0.06	869779	keystroke	e	n/a
434.9795	0.12	869959	keystroke	Key.space	n/a
435.1445	0.105	870289	keystroke	c	n/a
435.2645	0.105	870529	keystroke	i	n/a
435.4745	0.03	870949	keystroke	r	n/a
435.7595	0.09	871519	keystroke	Key.backspace	n/a
435.8945	0.165	871789	keystroke	g	n/a
435.9995	0.165	871999	keystroke	a	n/a
436.6145	0.15	873229	keystroke	r	n/a
436.7195	0.12	873439	keystroke	e	n/a
437.184	0.045	874368	keystroke	t	n/a
437.319	0.15	874638	keystroke	t	n/a
437.409	0.24	874818	keystroke	e	n/a
437.574	0.15	875148	keystroke	s	n/a
437.769	0.105	875538	keystroke	Key.space	n/a
437.8885	0.12	875777	keystroke	s	n/a
437.9935	0.045	875987	keystroke	o	n/a
438.1435	0.0905	876287	keystroke	l	n/a
438.399	0.0895	876798	keystroke	u	n/a
438.5635	0.12	877127	keystroke	t	n/a
438.6385	0.255	877277	keystroke	i	n/a
438.7585	0.211	877517	keystroke	o	n/a
438.8945	0.1495	877789	keystroke	n	n/a
439.749	0.09	879498	keystroke	Key.enter	n/a
439.8535	5.762	879707	prompt	n/a	invite parts bringing allows\n
440.454	0.18	880908	keystroke	i	n/a
440.589	0.135	881178	keystroke	n	n/a
440.725	0.104	881450	keystroke	v	n/a
440.844	0.105	881688	keystroke	i	n/a
440.994	0.15	881988	keystroke	t	n/a
441.069	0.15	882138	keystroke	e	n/a
441.204	0.105	882408	keystroke	Key.space	n/a
441.339	0.165	882678	keystroke	p	n/a
441.414	0.15	882828	keystroke	a	n/a
441.549	0.075	883098	keystroke	r	n/a
441.714	0.255	883428	keystroke	r	n/a
442.164	0.09	884328	keystroke	Key.backspace	n/a
442.269	0.21	884538	keystroke	t	n/a
442.389	0.15	884778	keystroke	s	n/a
442.569	0.105	885138	keystroke	Key.space	n/a
442.9435	0.106	885887	keystroke	b	n/a
443.1545	0.0895	886309	keystroke	r	n/a
443.259	0.15	886518	keystroke	i	n/a
443.334	0.135	886668	keystroke	n	n/a
443.484	0.09	886968	keystroke	g	n/a
443.739	0.195	887478	keystroke	i	n/a
443.859	0.18	887718	keystroke	n	n/a
444.114	0.105	888228	keystroke	g	n/a
444.294	0.045	888588	keystroke	Key.space	n/a
444.354	0.105	888708	keystroke	a	n/a
444.474	0.09	888948	keystroke	l	n/a
444.639	0.09	889278	keystroke	l	n/a
444.894	0.2105	889788	keystroke	o	n/a
445.0585	0.076	890117	keystroke	w	n/a
445.254	0.12	890508	keystroke	s	n/a
445.539	0.075	891078	keystroke	Key.enter	n/a
445.62	6.0705	891240	prompt	n/a	bios network discover planets\n
446.5295	0.075	893059	keystroke	b	n/a
446.6645	0.15	893329	keystroke	i	n/a
446.7695	0.135	893539	keystroke	o	n/a
446.8895	0.12	893779	keystroke	s	n/a
446.9945	0.09	893989	keystroke	Key.space	n/a
447.144	0.1205	894288	keystroke	n	n/a
447.2195	0.15	894439	keystroke	e	n/a
447.3545	0.135	894709	keystroke	t	n/a
447.7595	0.075	895519	keystroke	w	n/a
447.879	0.105	895758	keystroke	o	n/a
448.044	0.1205	896088	keystroke	r	n/a
448.1795	0.209	896359	keystroke	k	n/a
448.3135	0.135	896627	keystroke	Key.space	n/a
448.8085	0.106	897617	keystroke	d	n/a
448.9435	0.105	897887	keystroke	i	n/a
449.0335	0.2105	898067	keystroke	s	n/a
449.229	0.18	898458	keystroke	c	n/a
449.424	0.12	898848	keystroke	o	n/a
449.529	0.12	899058	keystroke	v	n/a
449.724	0.285	899448	keystroke	e	n/a
449.859	0.24	899718	keystroke	r	n/a
450.219	0.09	900438	keystroke	Key.space	n/a
450.339	0.165	900678	keystroke	p	n/a
450.429	0.165	900858	keystroke	l	n/a
450.579	0.105	901158	keystroke	a	n/a
450.699	0.09	901398	keystroke	n	n/a
450.79	0.134	901580	keystroke	e	n/a
451.029	0.2245	902058	keystroke	t	n/a
451.1635	0.15	902327	keystroke	s	n/a
451.5985	0.09	903197	keystroke	Key.enter	n/a
451.693	5.0825	903386	prompt	n/a	arrange immigrants teeth ways\n
452.229	0.105	904458	keystroke	a	n/a
452.484	0.06	904968	keystroke	r	n/a
452.6185	0.121	905237	keystroke	r	n/a
452.6785	0.12	905357	keystroke	a	n/a
452.8285	0.106	905657	keystroke	n	n/a
452.9495	0.149	905899	keystroke	g	n/a
453.0085	0.1505	906017	keystroke	e	n/a
453.189	0.12	906378	keystroke	Key.space	n/a
453.324	0.105	906648	keystroke	i	n/a
453.459	0.105	906918	keystroke	m	n/a
453.639	0.18	907278	keystroke	m	n/a
453.774	0.135	907548	keystroke	i	n/a
454.254	0.12	908508	keystroke	g	n/a
454.314	0.12	908628	keystroke	r	n/a
454.509	0.105	909018	keystroke	a	n/a
454.599	0.12	909198	keystroke	n	n/a
454.719	0.21	909438	keystroke	t	n/a
454.809	0.18	909618	keystroke	s	n/a
455.004	0.105	910008	keystroke	Key.space	n/a
455.2145	0.149	910429	keystroke	t	n/a
455.3035	0.135	910607	keystroke	e	n/a
455.5135	0.12	911027	keystroke	e	n/a
455.7085	0.12	911417	keystroke	t	n/a
455.8585	0.121	911717	keystroke	h	n/a
455.9185	0.135	911837	keystroke	Key.space	n/a
456.1135	0.15	912227	keystroke	w	n/a
456.2185	0.15	912437	keystroke	a	n/a
456.3985	0.105	912797	keystroke	y	n/a
456.5185	0.09	913037	keystroke	s	n/a
456.6835	0.09	913367	keystroke	Key.enter	n/a
456.78	6.3855	913560	prompt	n/a	distribute pass bigger carroll\n
457.4185	0.09	914837	keystroke	d	n/a
457.5385	0.12	915077	keystroke	i	n/a
457.6135	0.09	915227	keystroke	s	n/a
457.8085	0.12	915617	keystroke	t	n/a
457.8835	0.12	915767	keystroke	r	n/a
458.0335	0.09	916067	keystroke	i	n/a
458.7095	0.194	917419	keystroke	b	n/a
458.8295	0.194	917659	keystroke	u	n/a
459.234	0.1955	918468	keystroke	t	n/a
459.324	0.1655	918648	keystroke	e	n/a
459.5495	0.105	919099	keystroke	Key.space	n/a
459.8495	0.15	919699	keystroke	p	n/a
459.9245	0.1495	919849	keystroke	a	n/a
460.029	0.12	920058	keystroke	s	n/a
460.224	0.12	920448	keystroke	s	n/a
460.329	0.09	920658	keystroke	Key.space	n/a
460.509	0.105	921018	keystroke	b	n/a
460.554	0.165	921108	keystroke	i	n/a
460.659	0.105	921318	keystroke	g	n/a
460.824	0.105	921648	keystroke	g	n/a
460.974	0.18	921948	keystroke	e	n/a
461.079	0.15	922158	keystroke	r	n/a
461.259	0.12	922518	keystroke	Key.space	n/a
461.454	0.195	922908	keystroke	c	n/a
461.559	0.165	923118	keystroke	a	n/a
461.844	0.06	923688	keystroke	r	n/a
461.964	0.105	923928	keystroke	r	n/a
462.099	0.09	924198	keystroke	o	n/a
462.309	0.06	924618	keystroke	l	n/a
462.459	0.075	924918	keystroke	l	n/a
463.089	0.075	926178	keystroke	Key.enter	n/a
463.1735	5.122	926347	prompt	n/a	sleeping aside caught madrid\n
463.7345	0.089	927469	keystroke	s	n/a
463.8545	0.06	927709	keystroke	l	n/a
463.9595	0.075	927919	keystroke	e	n/a
464.0945	0.12	928189	keystroke	e	n/a
464.1985	0.166	928397	keystroke	p	n/a
464.3195	0.15	928639	keystroke	i	n/a
464.4095	0.15	928819	keystroke	n	n/a
464.4995	0.105	928999	keystroke	g	n/a
464.6195	0.12	929239	keystroke	Key.space	n/a
464.6795	0.165	929359	keystroke	a	n/a
464.7695	0.135	929539	keystroke	s	n/a
464.9195	0.12	929839	keystroke	i	n/a
465.6395	0.165	931279	keystroke	d	n/a
465.7145	0.135	931429	keystroke	e	n/a
465.8495	0.105	931699	keystroke	Key.space	n/a
465.9695	0.135	931939	keystroke	c	n/a
466.0295	0.15	932059	keystroke	a	n/a
466.1645	0.105	932329	keystroke	u	n/a
466.2995	0.09	932599	keystroke	g	n/a
466.4035	0.091	932807	keystroke	h	n/a
466.4945	0.134	932989	keystroke	t	n/a
466.6135	0.075	933227	keystroke	Key.space	n/a
466.7345	0.12	933469	keystroke	m	n/a
466.9145	0.12	933829	keystroke	a	n/a
467.0045	0.135	934009	keystroke	d	n/a
467.2295	0.089	934459	keystroke	r	n/a
467.3345	0.135	934669	keystroke	i	n/a
467.829	0.105	935658	keystroke	d	n/a
468.219	0.075	936438	keystroke	Key.enter	n/a
468.2985	8.0825	936597	prompt	n/a	bermuda extension sharon conviction\n
468.984	0.09	937968	keystroke	b	n/a
469.119	0.165	938238	keystroke	e	n/a
469.224	0.135	938448	keystroke	r	n/a
469.344	0.15	938688	keystroke	m	n/a
469.509	0.18	939018	keystroke	u	n/a
469.674	0.195	939348	keystroke	d	n/a
469.884	0.165	939768	keystroke	a	n/a
470.304	0.12	940608	keystroke	Key.space	n/a
470.409	0.09	940818	keystroke	e	n/a
470.619	0.09	941238	keystroke	x	n/a
470.949	0.18	941898	keystroke	t	n/a
471.039	0.165	942078	keystroke	e	n/a
472.044	0.12	944088	keystroke	n	n/a
472.179	0.135	944358	keystroke	s	n/a
472.284	0.3	944568	keystroke	i	n/a
472.419	0.225	944838	keystroke	o	n/a
472.539	0.18	945078	keystroke	n	n/a
472.659	0.135	945318	keystroke	Key.space	n/a
472.809	0.0905	945618	keystroke	s	n/a
472.8845	0.12	945769	keystroke	h	n/a
473.0045	0.105	946009	keystroke	a	n/a
473.1695	0.105	946339	keystroke	r	n/a
473.4695	0.18	946939	keystroke	o	n/a
473.5745	0.18	947149	keystroke	n	n/a
473.6945	0.105	947389	keystroke	Key.space	n/a
474.834	0.12	949668	keystroke	c	n/a
474.939	0.1505	949878	keystroke	o	n/a
475.029	0.1195	950058	keystroke	n	n/a
475.1335	0.075	950267	keystroke	v	n/a
475.2385	0.105	950477	keystroke	i	n/a
475.3585	0.09	950717	keystroke	c	n/a
475.5835	0.105	951167	keystroke	t	n/a
475.6585	0.18	951317	keystroke	i	n/a
475.7485	0.18	951497	keystroke	o	n/a
475.8685	0.105	951737	keystroke	n	n/a
476.3035	0.075	952607	keystroke	Key.enter	n/a
476.3905	5.915	952781	prompt	n/a	apparel wait synthetic networking\n
476.9485	0.09	953897	keystroke	a	n/a
477.0535	0.0755	954107	keystroke	p	n/a
477.219	0.105	954438	keystroke	p	n/a
477.369	0.045	954738	keystroke	a	n/a
477.459	0.255	954918	keystroke	r	n/a
477.594	0.18	955188	keystroke	e	n/a
477.789	0.195	955578	keystroke	l	n/a
477.924	0.135	955848	keystroke	Key.space	n/a
478.164	0.195	956328	keystroke	w	n/a
478.299	0.135	956598	keystroke	a	n/a
478.449	0.1055	956898	keystroke	i	n/a
478.5395	0.105	957079	keystroke	t	n/a
478.6295	0.135	957259	keystroke	Key.space	n/a
478.7495	0.12	957499	keystroke	s	n/a
478.884	0.0905	957768	keystroke	y	n/a
479.094	0.0905	958188	keystroke	n	n/a
479.289	0.12	958578	keystroke	t	n/a
479.394	0.105	958788	keystroke	h	n/a
479.499	0.105	958998	keystroke	e	n/a
479.709	0.105	959418	keystroke	t	n/a
479.844	0.105	959688	keystroke	i	n/a
480.054	0.075	960108	keystroke	c	n/a
480.114	0.09	960228	keystroke	Key.space	n/a
480.249	0.105	960498	keystroke	n	n/a
480.324	0.165	960648	keystroke	e	n/a
480.429	0.135	960858	keystroke	t	n/a
480.729	0.12	961458	keystroke	w	n/a
480.834	0.105	961668	keystroke	o	n/a
481.044	0.1045	962088	keystroke	r	n/a
481.2095	0.104	962419	keystroke	k	n/a
481.4035	0.12	962807	keystroke	i	n/a
481.4785	0.15	962957	keystroke	n	n/a
481.6435	0.075	963287	keystroke	g	n/a
482.1985	0.105	964397	keystroke	Key.enter	n/a
482.309	6.8365	964618	prompt	n/a	tribe exceptional parents arnold\n
483.084	0.2095	966168	keystroke	t	n/a
483.114	0.2245	966228	keystroke	r	n/a
483.3235	0.165	966647	keystroke	i	n/a
483.4285	0.135	966857	keystroke	b	n/a
483.5785	0.105	967157	keystroke	e	n/a
483.6685	0.12	967337	keystroke	Key.space	n/a
483.8185	0.105	967637	keystroke	e	n/a
484.4485	0.105	968897	keystroke	x	n/a
484.6735	0.105	969347	keystroke	c	n/a
484.8085	0.105	969617	keystroke	e	n/a
484.8985	0.09	969797	keystroke	p	n/a
485.0185	0.12	970037	keystroke	t	n/a
485.1395	0.239	970279	keystroke	i	n/a
485.1985	0.255	970397	keystroke	o	n/a
485.3935	0.15	970787	keystroke	n	n/a
485.5735	0.12	971147	keystroke	a	n/a
485.7085	0.12	971417	keystroke	l	n/a
485.8135	0.09	971627	keystroke	Key.space	n/a
486.1135	0.15	972227	keystroke	p	n/a
486.1735	0.105	972347	keystroke	a	n/a
486.3535	0.15	972707	keystroke	r	n/a
486.4435	0.12	972887	keystroke	e	n/a
486.5645	0.1045	973129	keystroke	n	n/a
486.654	0.18	973308	keystroke	t	n/a
486.774	0.12	973548	keystroke	s	n/a
486.879	0.09	973758	keystroke	Key.space	n/a
486.984	0.15	973968	keystroke	a	n/a
487.089	0.1495	974178	keystroke	r	n/a
487.2085	0.0905	974417	keystroke	n	n/a
487.2535	0.09	974507	keystroke	o	n/a
487.4485	0.09	974897	keystroke	l	n/a
487.5395	0.074	975079	keystroke	d	n/a
489.0235	0.12	978047	keystroke	Key.enter	n/a
489.155	4.565	978310	prompt	n/a	error daren't families dark\n
489.819	0.18	979638	keystroke	e	n/a
489.924	0.135	979848	keystroke	r	n/a
490.149	0.09	980298	keystroke	r	n/a
490.284	0.12	980568	keystroke	o	n/a
490.419	0.105	980838	keystroke	r	n/a
490.509	0.105	981018	keystroke	Key.space	n/a
490.764	0.15	981528	keystroke	d	n/a
490.839	0.135	981678	keystroke	a	n/a
491.064	0.135	982128	keystroke	r	n/a
491.139	0.12	982278	keystroke	e	n/a
491.229	0.18	982458	keystroke	n	n/a
491.319	0.105	982638	keystroke	'	n/a
491.439	0.09	982878	keystroke	t	n/a
491.544	0.135	983088	keystroke	Key.space	n/a
491.859	0.18	983718	keystroke	f	n/a
491.964	0.15	983928	keystroke	a	n/a
492.069	0.15	984138	keystroke	m	n/a
492.174	0.12	984348	keystroke	i	n/a
492.384	0.105	984768	keystroke	l	n/a
492.564	0.105	985128	keystroke	i	n/a
492.714	0.15	985428	keystroke	e	n/a
492.789	0.135	985578	keystroke	s	n/a
492.894	0.105	985788	keystroke	Key.space	n/a
493.029	0.135	986058	keystroke	d	n/a
493.104	0.135	986208	keystroke	a	n/a
493.314	0.12	986628	keystroke	r	n/a
493.449	0.09	986898	keystroke	k	n/a
493.6285	0.09	987257	keystroke	Key.enter	n/a
493.7225	4.678	987445	prompt	n/a	chargers trusts ugly walk\n
494.3485	0.135	988697	keystroke	c	n/a
494.4985	0.105	988997	keystroke	h	n/a
494.5585	0.105	989117	keystroke	a	n/a
494.7685	0.105	989537	keystroke	r	n/a
494.8435	0.225	989687	keystroke	g	n/a
494.9785	0.24	989957	keystroke	e	n/a
495.2035	0.195	990407	keystroke	r	n/a
495.3235	0.15	990647	keystroke	s	n/a
495.4585	0.12	990917	keystroke	Key.space	n/a
495.5935	0.165	991187	keystroke	t	n/a
495.6835	0.135	991367	keystroke	r	n/a
495.8335	0.12	991667	keystroke	u	n/a
496.0585	0.12	992117	keystroke	s	n/a
496.4035	0.1955	992807	keystroke	t	n/a
496.494	0.18	992988	keystroke	s	n/a
496.779	0.105	993558	keystroke	Key.space	n/a
496.944	0.135	993888	keystroke	u	n/a
497.049	0.105	994098	keystroke	g	n/a
497.229	0.1045	994458	keystroke	l	n/a
497.3485	0.1055	994697	keystroke	y	n/a
497.4685	0.12	994937	keystroke	Key.space	n/a
497.6785	0.1805	995357	keystroke	w	n/a
497.7685	0.1805	995537	keystroke	a	n/a
497.889	0.2095	995778	keystroke	l	n/a
498.0085	0.15	996017	keystroke	k	n/a
498.3085	0.09	996617	keystroke	Key.enter	n/a
498.403	9.028	996806	prompt	n/a	included nowhere september contacted\n
499.0145	0.165	998029	keystroke	i	n/a
499.1045	0.134	998209	keystroke	n	n/a
499.2685	0.12	998537	keystroke	c	n/a
499.3735	0.06	998747	keystroke	l	n/a
499.5535	0.105	999107	keystroke	u	n/a
499.6735	0.12	999347	keystroke	d	n/a
499.7785	0.18	999557	keystroke	e	n/a
499.8985	0.165	999797	keystroke	d	n/a
500.0335	0.09	1000067	keystroke	Key.space	n/a
500.1835	0.0905	1000367	keystroke	n	n/a
500.214	0.15	1000428	keystroke	o	n/a
500.454	0.06	1000908	keystroke	q	n/a
500.469	0.09	1000938	keystroke	w	n/a
500.904	0.105	1001808	keystroke	Key.backspace	n/a
501.129	0.0755	1002258	keystroke	Key.backspace	n/a
501.2935	0.105	1002587	keystroke	w	n/a
501.4145	0.12	1002829	keystroke	h	n/a
501.5195	0.12	1003039	keystroke	e	n/a
501.6095	0.1795	1003219	keystroke	r	n/a
501.729	0.15	1003458	keystroke	e	n/a
501.909	0.09	1003818	keystroke	Key.space	n/a
502.134	0.09	1004268	keystroke	s	n/a
502.419	0.105	1004838	keystroke	p	n/a
502.749	0.075	1005498	keystroke	Key.backspace	n/a
502.869	0.075	1005738	keystroke	e	n/a
502.974	0.12	1005948	keystroke	p	n/a
503.214	0.12	1006428	keystroke	t	n/a
503.484	0.09	1006968	keystroke	e	n/a
503.589	0.12	1007178	keystroke	m	n/a
503.679	0.105	1007358	keystroke	p	n/a
504.069	0.09	1008138	keystroke	Key.backspace	n/a
504.354	0.12	1008708	keystroke	b	n/a
504.459	0.18	1008918	keystroke	e	n/a
504.564	0.165	1009128	keystroke	r	n/a
504.759	0.105	1009518	keystroke	Key.space	n/a
505.029	0.1345	1010058	keystroke	c	n/a
505.1485	0.135	1010297	keystroke	o	n/a
505.764	0.0905	1011528	keystroke	n	n/a
505.8245	0.12	1011649	keystroke	t	n/a
506.0045	0.1345	1012009	keystroke	a	n/a
506.559	0.09	1013118	keystroke	c	n/a
506.844	0.12	1013688	keystroke	t	n/a
506.919	0.105	1013838	keystroke	e	n/a
507.129	0.105	1014258	keystroke	d	n/a
507.339	0.09	1014678	keystroke	Key.enter	n/a
507.442	4.278	1014884	prompt	n/a	raised remote warning dark\n
508.089	0.165	1016178	keystroke	r	n/a
508.164	0.15	1016328	keystroke	a	n/a
508.344	0.12	1016688	keystroke	i	n/a
508.434	0.18	1016868	keystroke	s	n/a
508.569	0.12	1017138	keystroke	e	n/a
508.779	0.09	1017558	keystroke	d	n/a
508.884	0.09	1017768	keystroke	Key.space	n/a
509.109	0.165	1018218	keystroke	r	n/a
509.184	0.15	1018368	keystroke	e	n/a
509.319	0.135	1018638	keystroke	m	n/a
509.409	0.15	1018818	keystroke	o	n/a
509.484	0.15	1018968	keystroke	t	n/a
509.574	0.135	1019148	keystroke	e	n/a
509.994	0.105	1019988	keystroke	Key.space	n/a
510.189	0.165	1020378	keystroke	w	n/a
510.264	0.18	1020528	keystroke	a	n/a
510.414	0.135	1020828	keystroke	r	n/a
510.519	0.075	1021038	keystroke	n	n/a
510.579	0.135	1021158	keystroke	i	n/a
510.684	0.135	1021368	keystroke	n	n/a
510.804	0.075	1021608	keystroke	g	n/a
510.894	0.12	1021788	keystroke	Key.space	n/a
511.044	0.195	1022088	keystroke	d	n/a
511.149	0.165	1022298	keystroke	a	n/a
511.389	0.1505	1022778	keystroke	r	n/a
511.5235	0.135	1023047	keystroke	k	n/a
511.5835	0.135	1023167	keystroke	Key.enter	n/a
511.7255	7.765	1023451	prompt	n/a	selections advance isbn tiles\n
512.244	0.09	1024488	keystroke	s	n/a
512.439	0.09	1024878	keystroke	e	n/a
512.5885	0.105	1025177	keystroke	l	n/a
512.6485	0.09	1025297	keystroke	e	n/a
512.8735	0.09	1025747	keystroke	c	n/a
513.0985	0.1055	1026197	keystroke	t	n/a
513.189	0.18	1026378	keystroke	i	n/a
513.294	0.21	1026588	keystroke	o	n/a
513.414	0.135	1026828	keystroke	n	n/a
513.534	0.09	1027068	keystroke	s	n/a
513.639	0.089	1027278	keystroke	Key.space	n/a
513.744	0.105	1027488	keystroke	a	n/a
513.8045	0.135	1027609	keystroke	d	n/a
514.0745	0.2095	1028149	keystroke	v	n/a
514.1795	0.165	1028359	keystroke	a	n/a
514.3595	0.09	1028719	keystroke	n	n/a
514.4645	0.105	1028929	keystroke	v	n/a
514.6895	0.0895	1029379	keystroke	e	n/a
515.1845	0.1045	1030369	keystroke	Key.space	n/a
515.484	0.015	1030968	keystroke	i	n/a
515.514	0.075	1031028	keystroke	s	n/a
515.829	0.06	1031658	keystroke	Key.backspace	n/a
515.994	0.06	1031988	keystroke	Key.backspace	n/a
516.159	0.045	1032318	keystroke	Key.backspace	n/a
516.309	0.09	1032618	keystroke	Key.backspace	n/a
516.894	0.075	1033788	keystroke	Key.backspace	n/a
517.059	0.12	1034118	keystroke	c	n/a
517.284	0.105	1034568	keystroke	e	n/a
517.389	0.105	1034778	keystroke	Key.space	n/a
517.569	0.12	1035138	keystroke	i	n/a
517.704	0.075	1035408	keystroke	s	n/a
517.824	0.075	1035648	keystroke	b	n/a
518.034	0.165	1036068	keystroke	n	n/a
518.169	0.105	1036338	keystroke	Key.space	n/a
518.574	0.09	1037148	keystroke	t	n/a
