onset	duration	sample	value	key	prompt_text
9.4795	13.831	18959	prompt	n/a	the quick brown fox jumps over a lazy dog\n
10.727	0.001	21454	keystroke_t	t	n/a
10.77	0.1205	21540	keystroke_h	h	n/a
10.9505	0.1045	21901	keystroke_e	e	n/a
11.1	0.09	22200	keystroke_Key.space	Key.space	n/a
11.505	0.135	23010	keystroke_q	q	n/a
11.715	0.075	23430	keystroke_u	u	n/a
11.8955	0.075	23791	keystroke_i	i	n/a
12.12	0.09	24240	keystroke_c	c	n/a
12.27	0.09	24540	keystroke_k	k	n/a
12.51	0.089	25020	keystroke_Key.space	Key.space	n/a
13.0045	0.09	26009	keystroke_b	b	n/a
13.3195	0.0745	26639	keystroke_r	r	n/a
13.484	0.06	26968	keystroke_o	o	n/a
13.679	0.0755	27358	keystroke_w	w	n/a
13.874	0.075	27748	keystroke_n	n	n/a
14.129	0.09	28258	keystroke_Key.space	Key.space	n/a
14.8335	0.0455	29667	keystroke_f	f	n/a
14.999	0.06	29998	keystroke_o	o	n/a
15.359	0.0745	30718	keystroke_x	x	n/a
15.538	0.09	31076	keystroke_Key.space	Key.space	n/a
15.914	0.0895	31828	keystroke_j	j	n/a
16.1085	0.06	32217	keystroke_u	u	n/a
16.304	0.09	32608	keystroke_m	m	n/a
16.543	0.106	33086	keystroke_p	p	n/a
16.559	0.045	33118	keystroke_o	o	n/a
17.924	0.074	35848	keystroke_Key.backspace	Key.backspace	n/a
18.2985	0.074	36597	keystroke_s	s	n/a
18.4475	0.09	36895	keystroke_Key.space	Key.space	n/a
18.989	0.06	37978	keystroke_o	o	n/a
19.439	0.06	38878	keystroke_v	v	n/a
19.664	0.09	39328	keystroke_e	e	n/a
19.9035	0.0745	39807	keystroke_r	r	n/a
20.053	0.075	40106	keystroke_Key.space	Key.space	n/a
20.2635	0.09	40527	keystroke_a	a	n/a
20.4285	0.1045	40857	keystroke_Key.space	Key.space	n/a
20.9075	0.0905	41815	keystroke_l	l	n/a
21.0725	0.1205	42145	keystroke_a	a	n/a
21.388	0.165	42776	keystroke_z	z	n/a
21.598	0.06	43196	keystroke_y	y	n/a
21.8075	0.0755	43615	keystroke_Key.space	Key.space	n/a
22.138	0.075	44276	keystroke_d	d	n/a
22.303	0.045	44606	keystroke_o	o	n/a
22.6625	0.09	45325	keystroke_g	g	n/a
23.2025	0.105	46405	keystroke_Key.enter	Key.enter	n/a
23.3165	14.707	46633	prompt	n/a	reproduce genres interventions loop\n
24.0135	0.0895	48027	keystroke_r	r	n/a
24.223	0.12	48446	keystroke_e	e	n/a
24.493	0.105	48986	keystroke_p	p	n/a
25.318	0.06	50636	keystroke_r	r	n/a
25.603	0.045	51206	keystroke_o	o	n/a
25.9475	0.09	51895	keystroke_d	d	n/a
26.352	0.0605	52704	keystroke_u	u	n/a
26.6075	0.1045	53215	keystroke_c	c	n/a
26.9675	0.105	53935	keystroke_e	e	n/a
27.2825	0.075	54565	keystroke_Key.space	Key.space	n/a
28.1825	0.1055	56365	keystroke_g	g	n/a
28.498	0.12	56996	keystroke_e	e	n/a
28.843	0.06	57686	keystroke_n	n	n/a
29.503	0.0895	59006	keystroke_r	r	n/a
29.7425	0.09	59485	keystroke_e	e	n/a
30.583	0.09	61166	keystroke_s	s	n/a
30.928	0.0745	61856	keystroke_Key.space	Key.space	n/a
31.1975	0.075	62395	keystroke_i	i	n/a
31.3775	0.12	62755	keystroke_n	n	n/a
31.7065	0.075	63413	keystroke_t	t	n/a
32.0065	0.091	64013	keystroke_e	e	n/a
32.2465	0.06	64493	keystroke_r	r	n/a
32.6215	0.12	65243	keystroke_v	v	n/a
32.968	0.0885	65936	keystroke_e	e	n/a
33.1315	0.075	66263	keystroke_n	n	n/a
33.8975	0.0595	67795	keystroke_t	t	n/a
34.152	0.0905	68304	keystroke_i	i	n/a
34.317	0.105	68634	keystroke_o	o	n/a
34.587	0.075	69174	keystroke_n	n	n/a
36.147	0.105	72294	keystroke_s	s	n/a
36.387	0.09	72774	keystroke_Key.space	Key.space	n/a
36.657	0.09	73314	keystroke_l	l	n/a
36.897	0.105	73794	keystroke_o	o	n/a
37.062	0.105	74124	keystroke_o	o	n/a
37.302	0.12	74604	keystroke_p	p	n/a
37.9465	0.0755	75893	keystroke_Key.enter	Key.enter	n/a
38.027	11.186	76054	prompt	n/a	install acting cake mailing\n
38.7265	0.0905	77453	keystroke_i	i	n/a
38.937	0.09	77874	keystroke_n	n	n/a
39.2065	0.106	78413	keystroke_s	s	n/a
39.627	0.0445	79254	keystroke_t	t	n/a
39.9715	0.09	79943	keystroke_a	a	n/a
40.3165	0.06	80633	keystroke_l	l	n/a
40.4975	0.0595	80995	keystroke_l	l	n/a
40.722	0.0745	81444	keystroke_Key.space	Key.space	n/a
40.9315	0.106	81863	keystroke_a	a	n/a
41.2615	0.136	82523	keystroke_x	x	n/a
42.0425	0.075	84085	keystroke_Key.backspace	Key.backspace	n/a
42.2975	0.12	84595	keystroke_c	c	n/a
42.7775	0.045	85555	keystroke_t	t	n/a
42.9575	0.105	85915	keystroke_i	i	n/a
43.6765	0.061	87353	keystroke_n	n	n/a
43.9025	0.09	87805	keystroke_g	g	n/a
44.5025	0.1495	89005	keystroke_Key.space	Key.space	n/a
44.847	0.12	89694	keystroke_c	c	n/a
45.1615	0.105	90323	keystroke_a	a	n/a
45.9725	0.06	91945	keystroke_k	k	n/a
46.3615	0.06	92723	keystroke_e	e	n/a
46.7365	0.09	93473	keystroke_Key.space	Key.space	n/a
46.9925	0.074	93985	keystroke_m	m	n/a
47.1875	0.089	94375	keystroke_a	a	n/a
47.2915	0.09	94583	keystroke_i	i	n/a
47.502	0.1345	95004	keystroke_l	l	n/a
47.757	0.09	95514	keystroke_i	i	n/a
47.9525	0.1045	95905	keystroke_n	n	n/a
48.221	0.09	96442	keystroke_g	g	n/a
48.9715	0.24	97943	keystroke_Key.enter	Key.enter	n/a
49.216	8.022	98432	prompt	n/a	humor heel value rice\n
49.9315	0.09	99863	keystroke_h	h	n/a
50.172	0.105	100344	keystroke_u	u	n/a
50.532	0.09	101064	keystroke_m	m	n/a
50.847	0.105	101694	keystroke_o	o	n/a
51.102	0.09	102204	keystroke_r	r	n/a
51.597	0.09	103194	keystroke_Key.space	Key.space	n/a
51.912	0.09	103824	keystroke_h	h	n/a
52.122	0.075	104244	keystroke_e	e	n/a
52.2715	0.1055	104543	keystroke_e	e	n/a
52.527	0.105	105054	keystroke_l	l	n/a
52.8565	0.0905	105713	keystroke_Key.space	Key.space	n/a
53.337	0.105	106674	keystroke_v	v	n/a
53.652	0.1345	107304	keystroke_a	a	n/a
54.1615	0.0755	108323	keystroke_l	l	n/a
54.552	0.074	109104	keystroke_u	u	n/a
54.762	0.06	109524	keystroke_e	e	n/a
55.3465	0.12	110693	keystroke_Key.space	Key.space	n/a
55.781	0.076	111562	keystroke_r	r	n/a
55.946	0.09	111892	keystroke_i	i	n/a
56.216	0.09	112432	keystroke_c	c	n/a
56.516	0.06	113032	keystroke_e	e	n/a
57.1615	0.075	114323	keystroke_Key.enter	Key.enter	n/a
57.241	19.3775	114482	prompt	n/a	july counties essex memories\n
57.9865	0.075	115973	keystroke_j	j	n/a
58.391	0.075	116782	keystroke_u	u	n/a
58.647	0.104	117294	keystroke_l	l	n/a
58.961	0.06	117922	keystroke_y	y	n/a
59.501	0.075	119002	keystroke_Key.space	Key.space	n/a
59.996	0.09	119992	keystroke_c	c	n/a
60.161	0.09	120322	keystroke_o	o	n/a
60.431	0.09	120862	keystroke_u	u	n/a
61.4065	0.0905	122813	keystroke_n	n	n/a
62.666	0.061	125332	keystroke_t	t	n/a
62.966	0.075	125932	keystroke_i	i	n/a
63.2515	0.061	126503	keystroke_e	e	n/a
63.5365	0.06	127073	keystroke_s	s	n/a
63.9715	0.045	127943	keystroke_Key.space	Key.space	n/a
64.257	0.105	128514	keystroke_e	e	n/a
64.572	0.09	129144	keystroke_s	s	n/a
64.737	0.12	129474	keystroke_s	s	n/a
65.022	0.0755	130044	keystroke_e	e	n/a
65.3365	0.135	130673	keystroke_c	c	n/a
66.0415	0.105	132083	keystroke_Key.backspace	Key.backspace	n/a
66.3565	0.09	132713	keystroke_x	x	n/a
67.1365	0.09	134273	keystroke_Key.space	Key.space	n/a
67.6015	0.075	135203	keystroke_m	m	n/a
67.7815	0.075	135563	keystroke_e	e	n/a
67.9915	0.045	135983	keystroke_m	m	n/a
69.3265	0.045	138653	keystroke_o	o	n/a
69.6415	0.06	139283	keystroke_r	r	n/a
70.347	0.015	140694	keystroke_i	i	n/a
71.201	0.075	142402	keystroke_e	e	n/a
71.7565	0.075	143513	keystroke_s	s	n/a
76.589	0.028	153178	keystroke_Key.enter	Key.enter	n/a
76.6215	17.7125	153243	prompt	n/a	perl champions influences can\n
77.742	0.0455	155484	keystroke_o	o	n/a
78.867	0.06	157734	keystroke_Key.backspace	Key.backspace	n/a
80.6515	0.105	161303	keystroke_p	p	n/a
80.8015	0.09	161603	keystroke_e	e	n/a
81.0565	0.045	162113	keystroke_r	r	n/a
81.8075	0.059	163615	keystroke_l	l	n/a
82.0315	0.09	164063	keystroke_Key.space	Key.space	n/a
82.3915	0.09	164783	keystroke_c	c	n/a
82.5415	0.09	165083	keystroke_h	h	n/a
82.812	0.105	165624	keystroke_a	a	n/a
83.022	0.12	166044	keystroke_m	m	n/a
83.502	0.135	167004	keystroke_p	p	n/a
83.787	0.15	167574	keystroke_i	i	n/a
84.387	0.105	168774	keystroke_n	n	n/a
84.762	0.09	169524	keystroke_s	s	n/a
85.6915	0.12	171383	keystroke_Key.backspace	Key.backspace	n/a
86.2015	0.09	172403	keystroke_Key.backspace	Key.backspace	n/a
86.787	0.12	173574	keystroke_o	o	n/a
87.312	0.06	174624	keystroke_n	n	n/a
87.6115	0.06	175223	keystroke_s	s	n/a
88.1215	0.075	176243	keystroke_Key.space	Key.space	n/a
88.692	0.06	177384	keystroke_i	i	n/a
88.797	0.03	177594	keystroke_n	n	n/a
89.502	0.06	179004	keystroke_f	f	n/a
89.787	0.105	179574	keystroke_l	l	n/a
90.1775	0.09	180355	keystroke_u	u	n/a
90.717	0.06	181434	keystroke_e	e	n/a
90.987	0.06	181974	keystroke_n	n	n/a
91.3325	0.09	182665	keystroke_c	c	n/a
91.6175	0.0745	183235	keystroke_e	e	n/a
92.4865	0.0755	184973	keystroke_s	s	n/a
92.7565	0.105	185513	keystroke_Key.space	Key.space	n/a
93.0415	0.075	186083	keystroke_c	c	n/a
93.2815	0.105	186563	keystroke_a	a	n/a
93.4165	0.09	186833	keystroke_n	n	n/a
94.287	0.045	188574	keystroke_Key.enter	Key.enter	n/a
94.3375	15.912	188675	prompt	n/a	plates disabilities watt encounter\n
95.1875	0.09	190375	keystroke_p	p	n/a
95.7115	0.1055	191423	keystroke_;	;	n/a
96.042	0.09	192084	keystroke_a	a	n/a
96.9275	0.105	193855	keystroke_Key.backspace	Key.backspace	n/a
97.3025	0.09	194605	keystroke_Key.backspace	Key.backspace	n/a
97.7675	0.075	195535	keystroke_l	l	n/a
98.1875	0.135	196375	keystroke_a	a	n/a
98.5025	0.075	197005	keystroke_t	t	n/a
98.7425	0.12	197485	keystroke_e	e	n/a
99.0725	0.06	198145	keystroke_s	s	n/a
99.522	0.105	199044	keystroke_Key.space	Key.space	n/a
100.048	0.09	200096	keystroke_d	d	n/a
100.243	0.0445	200486	keystroke_i	i	n/a
100.512	0.12	201024	keystroke_s	s	n/a
101.247	0.09	202494	keystroke_a	a	n/a
101.577	0.105	203154	keystroke_b	b	n/a
101.907	0.075	203814	keystroke_i	i	n/a
102.612	0.165	205224	keystroke_l	l	n/a
102.942	0.105	205884	keystroke_i	i	n/a
103.3175	0.074	206635	keystroke_t	t	n/a
104.023	0.059	208046	keystroke_i	i	n/a
104.2165	0.076	208433	keystroke_e	e	n/a
104.5775	0.0755	209155	keystroke_s	s	n/a
105.2225	0.0905	210445	keystroke_Key.space	Key.space	n/a
105.583	0.0885	211166	keystroke_w	w	n/a
105.822	0.12	211644	keystroke_a	a	n/a
106.4975	0.105	212995	keystroke_t	t	n/a
106.7375	0.075	213475	keystroke_t	t	n/a
107.0375	0.1055	214075	keystroke_Key.space	Key.space	n/a
107.278	0.0745	214556	keystroke_e	e	n/a
107.4575	0.075	214915	keystroke_n	n	n/a
107.772	0.1055	215544	keystroke_c	c	n/a
108.1175	0.105	216235	keystroke_o	o	n/a
108.3425	0.075	216685	keystroke_u	u	n/a
108.5525	0.105	217105	keystroke_n	n	n/a
108.8525	0.09	217705	keystroke_t	t	n/a
109.1975	0.09	218395	keystroke_e	e	n/a
109.4375	0.06	218875	keystroke_r	r	n/a
110.1575	0.09	220315	keystroke_Key.enter	Key.enter	n/a
110.2555	13.9885	220511	prompt	n/a	patches renewable realistic replica\n
111.072	0.135	222144	keystroke_p	p	n/a
111.387	0.1505	222774	keystroke_a	a	n/a
111.852	0.075	223704	keystroke_t	t	n/a
112.2125	0.09	224425	keystroke_c	c	n/a
112.3625	0.075	224725	keystroke_h	h	n/a
112.6175	0.09	225235	keystroke_e	e	n/a
112.9025	0.105	225805	keystroke_s	s	n/a
113.4125	0.105	226825	keystroke_Key.space	Key.space	n/a
113.6525	0.09	227305	keystroke_r	r	n/a
113.8775	0.09	227755	keystroke_e	e	n/a
114.1615	0.0455	228323	keystroke_n	n	n/a
114.402	0.075	228804	keystroke_e	e	n/a
115.272	0.075	230544	keystroke_w	w	n/a
116.0525	0.0895	232105	keystroke_a	a	n/a
116.3975	0.09	232795	keystroke_b	b	n/a
116.607	0.075	233214	keystroke_l	l	n/a
116.802	0.09	233604	keystroke_e	e	n/a
117.267	0.09	234534	keystroke_Key.space	Key.space	n/a
117.583	0.089	235166	keystroke_r	r	n/a
117.807	0.091	235614	keystroke_e	e	n/a
118.047	0.09	236094	keystroke_a	a	n/a
118.497	0.09	236994	keystroke_l	l	n/a
118.873	0.074	237746	keystroke_i	i	n/a
119.022	0.136	238044	keystroke_s	s	n/a
119.352	0.076	238704	keystroke_t	t	n/a
119.502	0.0605	239004	keystroke_i	i	n/a
120.3425	0.09	240685	keystroke_c	c	n/a
121.078	0.09	242156	keystroke_Key.space	Key.space	n/a
121.6475	0.09	243295	keystroke_r	r	n/a
121.8725	0.075	243745	keystroke_e	e	n/a
122.3525	0.135	244705	keystroke_p	p	n/a
122.7425	0.12	245485	keystroke_l	l	n/a
122.9975	0.09	245995	keystroke_i	i	n/a
123.2375	0.09	246475	keystroke_c	c	n/a
123.7325	0.075	247465	keystroke_a	a	n/a
124.1375	0.1045	248275	keystroke_Key.enter	Key.enter	n/a
124.247	12.2255	248494	prompt	n/a	around valley bedding obtaining\n
124.9475	0.075	249895	keystroke_a	a	n/a
125.278	0.105	250556	keystroke_r	r	n/a
125.458	0.09	250916	keystroke_o	o	n/a
125.653	0.075	251306	keystroke_u	u	n/a
125.9085	0.0745	251817	keystroke_n	n	n/a
126.073	0.06	252146	keystroke_d	d	n/a
126.5075	0.09	253015	keystroke_Key.space	Key.space	n/a
127.0175	0.12	254035	keystroke_v	v	n/a
127.3775	0.075	254755	keystroke_a	a	n/a
127.6025	0.075	255205	keystroke_l	l	n/a
127.7525	0.075	255505	keystroke_l	l	n/a
127.9625	0.12	255925	keystroke_e	e	n/a
128.3375	0.075	256675	keystroke_y	y	n/a
128.7125	0.105	257425	keystroke_Key.space	Key.space	n/a
129.2675	0.09	258535	keystroke_b	b	n/a
129.5525	0.09	259105	keystroke_e	e	n/a
130.077	0.076	260154	keystroke_d	d	n/a
130.3175	0.12	260635	keystroke_d	d	n/a
130.7525	0.0605	261505	keystroke_i	i	n/a
130.903	0.09	261806	keystroke_n	n	n/a
131.068	0.075	262136	keystroke_g	g	n/a
131.413	0.105	262826	keystroke_Key.space	Key.space	n/a
131.848	0.075	263696	keystroke_o	o	n/a
132.0885	0.09	264177	keystroke_b	b	n/a
132.9745	0.075	265949	keystroke_t	t	n/a
133.2585	0.105	266517	keystroke_a	a	n/a
133.5145	0.0595	267029	keystroke_i	i	n/a
133.709	0.105	267418	keystroke_n	n	n/a
134.5055	0.044	269011	keystroke_i	i	n/a
134.6695	0.075	269339	keystroke_n	n	n/a
134.9405	0.075	269881	keystroke_g	g	n/a
136.381	0.09	272762	keystroke_Key.enter	Key.enter	n/a
136.477	15.723	272954	prompt	n/a	state cams successful alignment\n
138.227	0.1205	276454	keystroke_s	s	n/a
138.5575	0.09	277115	keystroke_t	t	n/a
138.7975	0.1205	277595	keystroke_a	a	n/a
139.233	0.075	278466	keystroke_t	t	n/a
139.8775	0.045	279755	keystroke_e	e	n/a
140.0735	0.12	280147	keystroke_Key.space	Key.space	n/a
140.343	0.135	280686	keystroke_c	c	n/a
140.658	0.045	281316	keystroke_a	a	n/a
140.8235	0.06	281647	keystroke_m	m	n/a
141.2885	0.09	282577	keystroke_s	s	n/a
141.4835	0.09	282967	keystroke_Key.space	Key.space	n/a
142.3545	0.105	284709	keystroke_s	s	n/a
142.7135	0.03	285427	keystroke_u	u	n/a
143.0285	0.1505	286057	keystroke_c	c	n/a
143.284	0.12	286568	keystroke_c	c	n/a
143.675	0.059	287350	keystroke_e	e	n/a
143.9745	0.0745	287949	keystroke_f	f	n/a
144.9945	0.075	289989	keystroke_Key.backspace	Key.backspace	n/a
145.34	0.075	290680	keystroke_s	s	n/a
145.7905	0.075	291581	keystroke_s	s	n/a
146.3755	0.06	292751	keystroke_f	f	n/a
146.5105	0.09	293021	keystroke_u	u	n/a
146.7655	0.106	293531	keystroke_l	l	n/a
147.0355	0.106	294071	keystroke_Key.space	Key.space	n/a
147.756	0.106	295512	keystroke_a	a	n/a
148.056	0.195	296112	keystroke_l	l	n/a
148.296	0.061	296592	keystroke_i	i	n/a
148.5515	0.091	297103	keystroke_g	g	n/a
148.6865	0.06	297373	keystroke_h	h	n/a
149.6775	0.06	299355	keystroke_Key.backspace	Key.backspace	n/a
150.232	0.0605	300464	keystroke_n	n	n/a
151.0575	0.06	302115	keystroke_m	m	n/a
151.1925	0.0905	302385	keystroke_e	e	n/a
151.328	0.075	302656	keystroke_n	n	n/a
151.538	0.0755	303076	keystroke_t	t	n/a
152.108	0.0905	304216	keystroke_Key.enter	Key.enter	n/a
152.2035	25.493	304407	prompt	n/a	specified computational adjustable vault\n
152.9195	0.12	305839	keystroke_s	s	n/a
153.0845	0.0895	306169	keystroke_p	p	n/a
153.279	0.09	306558	keystroke_e	e	n/a
153.624	0.1205	307248	keystroke_x	x	n/a
153.8195	0.075	307639	keystroke_i	i	n/a
155.1845	0.135	310369	keystroke_Key.backspace	Key.backspace	n/a
155.6645	0.0905	311329	keystroke_Key.backspace	Key.backspace	n/a
155.935	0.1055	311870	keystroke_c	c	n/a
156.866	0.06	313732	keystroke_i	i	n/a
157.106	0.06	314212	keystroke_f	f	n/a
157.256	0.075	314512	keystroke_i	i	n/a
157.556	0.0755	315112	keystroke_e	e	n/a
157.9165	0.09	315833	keystroke_s	s	n/a
158.9515	0.045	317903	keystroke_Key.backspace	Key.backspace	n/a
159.1165	0.09	318233	keystroke_d	d	n/a
159.3565	0.075	318713	keystroke_Key.space	Key.space	n/a
160.422	0.0905	320844	keystroke_x	x	n/a
161.548	0.09	323096	keystroke_Key.backspace	Key.backspace	n/a
161.7735	0.06	323547	keystroke_c	c	n/a
162.3735	0.075	324747	keystroke_o	o	n/a
162.749	0.075	325498	keystroke_m	m	n/a
163.2585	0.105	326517	keystroke_p	p	n/a
163.739	0.12	327478	keystroke_u	u	n/a
164.024	0.075	328048	keystroke_t	t	n/a
164.324	0.105	328648	keystroke_a	a	n/a
165.21	0.09	330420	keystroke_i	i	n/a
165.405	0.105	330810	keystroke_o	o	n/a
165.72	0.09	331440	keystroke_n	n	n/a
166.7255	0.09	333451	keystroke_Key.backspace	Key.backspace	n/a
167.2205	0.09	334441	keystroke_Key.backspace	Key.backspace	n/a
167.686	0.075	335372	keystroke_Key.backspace	Key.backspace	n/a
168.016	0.075	336032	keystroke_t	t	n/a
168.691	0.12	337382	keystroke_i	i	n/a
168.826	0.135	337652	keystroke_o	o	n/a
169.081	0.091	338162	keystroke_n	n	n/a
169.457	0.09	338914	keystroke_a	a	n/a
169.967	0.09	339934	keystroke_l	l	n/a
170.177	0.105	340354	keystroke_Key.space	Key.space	n/a
170.537	0.12	341074	keystroke_a	a	n/a
170.9275	0.105	341855	keystroke_d	d	n/a
171.6475	0.075	343295	keystroke_j	j	n/a
172.068	0.075	344136	keystroke_u	u	n/a
172.308	0.09	344616	keystroke_s	s	n/a
172.713	0.0905	345426	keystroke_t	t	n/a
173.4035	0.09	346807	keystroke_a	a	n/a
173.7185	0.1045	347437	keystroke_b	b	n/a
173.9735	0.09	347947	keystroke_l	l	n/a
174.169	0.075	348338	keystroke_e	e	n/a
174.844	0.12	349688	keystroke_Key.space	Key.space	n/a
175.189	0.12	350378	keystroke_v	v	n/a
175.534	0.105	351068	keystroke_a	a	n/a
176.405	0.09	352810	keystroke_u	u	n/a
176.63	0.09	353260	keystroke_l	l	n/a
177.035	0.089	354070	keystroke_t	t	n/a
177.6195	0.075	355239	keystroke_Key.enter	Key.enter	n/a
177.6995	13.167	355399	prompt	n/a	nick grad understand memories\n
178.4455	0.105	356891	keystroke_n	n	n/a
178.8055	0.075	357611	keystroke_i	i	n/a
179.3305	0.075	358661	keystroke_c	c	n/a
179.4505	0.09	358901	keystroke_k	k	n/a
179.96	0.1205	359920	keystroke_Key.space	Key.space	n/a
180.471	0.104	360942	keystroke_g	g	n/a
180.77	0.105	361540	keystroke_r	r	n/a
181.0555	0.12	362111	keystroke_a	a	n/a
181.3105	0.075	362621	keystroke_n	n	n/a
181.5355	0.105	363071	keystroke_d	d	n/a
182.15	0.09	364300	keystroke_Key.space	Key.space	n/a
182.4505	0.075	364901	keystroke_u	u	n/a
182.6605	0.105	365321	keystroke_n	n	n/a
183.0055	0.09	366011	keystroke_d	d	n/a
183.3355	0.075	366671	keystroke_e	e	n/a
183.6805	0.1045	367361	keystroke_r	r	n/a
184.1	0.105	368200	keystroke_s	s	n/a
184.5505	0.045	369101	keystroke_t	t	n/a
184.8355	0.1045	369671	keystroke_a	a	n/a
185.0895	0.031	370179	keystroke_n	n	n/a
185.2095	0.075	370419	keystroke_d	d	n/a
186.35	0.1205	372700	keystroke_Key.space	Key.space	n/a
186.68	0.0895	373360	keystroke_n	n	n/a
187.355	0.12	374710	keystroke_Key.backspace	Key.backspace	n/a
187.82	0.12	375640	keystroke_m	m	n/a
188.06	0.075	376120	keystroke_e	e	n/a
188.3145	0.075	376629	keystroke_m	m	n/a
188.6	0.0745	377200	keystroke_o	o	n/a
188.8245	0.09	377649	keystroke_r	r	n/a
189.6195	0.075	379239	keystroke_i	i	n/a
189.86	0.09	379720	keystroke_e	e	n/a
190.1895	0.0905	380379	keystroke_s	s	n/a
190.775	0.09	381550	keystroke_Key.enter	Key.enter	n/a
190.8705	23.995	381741	prompt	n/a	immigration tions lenses proceeding\n
191.6	0.09	383200	keystroke_i	i	n/a
191.8855	0.104	383771	keystroke_m	m	n/a
192.26	0.09	384520	keystroke_m	m	n/a
192.875	0.0755	385750	keystroke_i	i	n/a
193.19	0.09	386380	keystroke_g	g	n/a
193.5055	0.09	387011	keystroke_r	r	n/a
193.805	0.12	387610	keystroke_a	a	n/a
194.1505	0.075	388301	keystroke_t	t	n/a
194.2555	0.135	388511	keystroke_i	i	n/a
194.8095	0.075	389619	keystroke_o	o	n/a
195.0805	0.074	390161	keystroke_n	n	n/a
195.4695	0.045	390939	keystroke_Key.space	Key.space	n/a
195.8295	0.075	391659	keystroke_t	t	n/a
195.965	0.1205	391930	keystroke_i	i	n/a
196.1755	0.104	392351	keystroke_o	o	n/a
196.4145	0.076	392829	keystroke_n	n	n/a
197.105	0.06	394210	keystroke_s	s	n/a
197.4505	0.1045	394901	keystroke_Key.space	Key.space	n/a
197.75	0.0755	395500	keystroke_l	l	n/a
197.9305	0.1045	395861	keystroke_e	e	n/a
199.7145	0.165	399429	keystroke_n	n	n/a
200.4495	0.105	400899	keystroke_s	s	n/a
200.7345	0.09	401469	keystroke_e	e	n/a
201.094	0.0905	402188	keystroke_s	s	n/a
201.9195	0.09	403839	keystroke_Key.space	Key.space	n/a
202.2645	0.12	404529	keystroke_p	p	n/a
202.4445	0.075	404889	keystroke_r	r	n/a
202.7295	0.09	405459	keystroke_o	o	n/a
203.0445	0.09	406089	keystroke_c	c	n/a
203.645	0.12	407290	keystroke_e	e	n/a
204.0035	0.0905	408007	keystroke_s	s	n/a
204.979	0.06	409958	keystroke_Key.backspace	Key.backspace	n/a
205.264	0.105	410528	keystroke_d	d	n/a
206.569	0.075	413138	keystroke_Key.backspace	Key.backspace	n/a
207.0945	0.09	414189	keystroke_e	e	n/a
207.814	0.0755	415628	keystroke_d	d	n/a
207.9945	0.075	415989	keystroke_u	u	n/a
208.1895	0.075	416379	keystroke_b	b	n/a
208.2945	0.09	416589	keystroke_g	g	n/a
209.524	0.1055	419048	keystroke_Key.backspace	Key.backspace	n/a
210.2135	0.075	420427	keystroke_Key.backspace	Key.backspace	n/a
211.0535	0.045	422107	keystroke_Key.backspace	Key.backspace	n/a
212.2085	0.075	424417	keystroke_i	i	n/a
212.3885	0.075	424777	keystroke_n	n	n/a
212.5835	0.09	425167	keystroke_g	g	n/a
214.851	0.012	429702	keystroke_Key.enter	Key.enter	n/a
214.868	9.522	429736	prompt	n/a	alien bikini foto heel\n
215.7785	0.12	431557	keystroke_a	a	n/a
215.9885	0.105	431977	keystroke_l	l	n/a
216.1985	0.075	432397	keystroke_i	i	n/a
216.4985	0.075	432997	keystroke_e	e	n/a
216.6635	0.075	433327	keystroke_n	n	n/a
217.5335	0.06	435067	keystroke_Key.space	Key.space	n/a
218.223	0.0755	436446	keystroke_b	b	n/a
218.823	0.075	437646	keystroke_i	i	n/a
219.213	0.06	438426	keystroke_k	k	n/a
219.4235	0.09	438847	keystroke_i	i	n/a
219.7385	0.09	439477	keystroke_n	n	n/a
220.4885	0.06	440977	keystroke_i	i	n/a
220.8185	0.12	441637	keystroke_Key.space	Key.space	n/a
221.0885	0.105	442177	keystroke_f	f	n/a
221.2685	0.075	442537	keystroke_o	o	n/a
221.583	0.075	443166	keystroke_t	t	n/a
221.7485	0.1045	443497	keystroke_o	o	n/a
222.258	0.1055	444516	keystroke_Key.space	Key.space	n/a
222.7235	0.12	445447	keystroke_h	h	n/a
222.978	0.1055	445956	keystroke_e	e	n/a
223.5185	0.105	447037	keystroke_e	e	n/a
223.8035	0.075	447607	keystroke_l	l	n/a
224.2985	0.09	448597	keystroke_Key.enter	Key.enter	n/a
224.393	13.1955	448786	prompt	n/a	msgstr perfect sized monitor\n
225.303	0.0745	450606	keystroke_m	m	n/a
225.573	0.06	451146	keystroke_s	s	n/a
226.443	0.09	452886	keystroke_g	g	n/a
226.848	0.12	453696	keystroke_s	s	n/a
227.4025	0.09	454805	keystroke_t	t	n/a
227.748	0.105	455496	keystroke_r	r	n/a
228.6325	0.0895	457265	keystroke_Key.space	Key.space	n/a
228.918	0.09	457836	keystroke_p	p	n/a
229.143	0.09	458286	keystroke_e	e	n/a
229.458	0.105	458916	keystroke_r	r	n/a
230.4175	0.0905	460835	keystroke_f	f	n/a
230.6875	0.0755	461375	keystroke_e	e	n/a
231.0025	0.105	462005	keystroke_c	c	n/a
231.393	0.06	462786	keystroke_t	t	n/a
231.753	0.105	463506	keystroke_Key.space	Key.space	n/a
231.978	0.09	463956	keystroke_s	s	n/a
232.098	0.075	464196	keystroke_i	i	n/a
232.398	0.1345	464796	keystroke_z	z	n/a
232.7125	0.12	465425	keystroke_e	e	n/a
233.0125	0.09	466025	keystroke_d	d	n/a
233.3275	0.12	466655	keystroke_Key.space	Key.space	n/a
233.6575	0.105	467315	keystroke_m	m	n/a
233.867	0.075	467734	keystroke_o	o	n/a
234.122	0.045	468244	keystroke_n	n	n/a
234.887	0.075	469774	keystroke_i	i	n/a
235.503	0.074	471006	keystroke_t	t	n/a
236.1475	0.075	472295	keystroke_o	o	n/a
236.7025	0.075	473405	keystroke_r	r	n/a
237.5125	0.075	475025	keystroke_Key.enter	Key.enter	n/a
237.5915	13.436	475183	prompt	n/a	designers linear maiden scores\n
238.3665	0.105	476733	keystroke_d	d	n/a
238.6215	0.075	477243	keystroke_e	e	n/a
238.8315	0.105	477663	keystroke_s	s	n/a
239.1615	0.09	478323	keystroke_i	i	n/a
239.4015	0.09	478803	keystroke_g	g	n/a
239.567	0.0595	479134	keystroke_h	h	n/a
240.4815	0.06	480963	keystroke_Key.backspace	Key.backspace	n/a
241.2915	0.06	482583	keystroke_n	n	n/a
241.4715	0.105	482943	keystroke_e	e	n/a
241.7115	0.06	483423	keystroke_r	r	n/a
242.552	0.075	485104	keystroke_s	s	n/a
242.746	0.075	485492	keystroke_Key.space	Key.space	n/a
242.9865	0.12	485973	keystroke_l	l	n/a
243.1815	0.0895	486363	keystroke_i	i	n/a
243.391	0.105	486782	keystroke_n	n	n/a
243.631	0.12	487262	keystroke_e	e	n/a
244.4115	0.09	488823	keystroke_a	a	n/a
244.8015	0.06	489603	keystroke_r	r	n/a
245.4015	0.09	490803	keystroke_Key.space	Key.space	n/a
245.7465	0.105	491493	keystroke_m	m	n/a
246.002	0.09	492004	keystroke_a	a	n/a
246.167	0.075	492334	keystroke_i	i	n/a
246.7965	0.09	493593	keystroke_d	d	n/a
247.1115	0.075	494223	keystroke_e	e	n/a
247.2615	0.09	494523	keystroke_n	n	n/a
247.7105	0.076	495421	keystroke_Key.space	Key.space	n/a
248.236	0.12	496472	keystroke_s	s	n/a
249.0315	0.06	498063	keystroke_c	c	n/a
249.556	0.09	499112	keystroke_o	o	n/a
249.811	0.1045	499622	keystroke_r	r	n/a
250.0355	0.075	500071	keystroke_e	e	n/a
250.277	0.1035	500554	keystroke_s	s	n/a
250.9665	0.059	501933	keystroke_Key.enter	Key.enter	n/a
251.0305	9.4615	502061	prompt	n/a	touch cruz poor dozens\n
251.791	0.09	503582	keystroke_t	t	n/a
251.956	0.12	503912	keystroke_o	o	n/a
252.241	0.09	504482	keystroke_u	u	n/a
252.436	0.075	504872	keystroke_c	c	n/a
252.556	0.09	505112	keystroke_h	h	n/a
253.126	0.075	506252	keystroke_Key.space	Key.space	n/a
253.456	0.105	506912	keystroke_c	c	n/a
253.816	0.0745	507632	keystroke_r	r	n/a
254.011	0.09	508022	keystroke_u	u	n/a
254.251	0.09	508502	keystroke_s	s	n/a
254.9855	0.09	509971	keystroke_Key.backspace	Key.backspace	n/a
255.2255	0.09	510451	keystroke_z	z	n/a
255.661	0.12	511322	keystroke_Key.space	Key.space	n/a
255.871	0.15	511742	keystroke_p	p	n/a
256.1565	0.09	512313	keystroke_o	o	n/a
256.306	0.104	512612	keystroke_o	o	n/a
256.68	0.0905	513360	keystroke_r	r	n/a
257.2955	0.12	514591	keystroke_Key.space	Key.space	n/a
257.9105	0.075	515821	keystroke_d	d	n/a
258.0455	0.09	516091	keystroke_o	o	n/a
258.945	0.09	517890	keystroke_z	z	n/a
259.4255	0.045	518851	keystroke_e	e	n/a
259.755	0.045	519510	keystroke_n	n	n/a
260.4155	0.075	520831	keystroke_Key.enter	Key.enter	n/a
260.497	16.2235	520994	prompt	n/a	childrens teams calling tongue\n
261.6305	0.105	523261	keystroke_c	c	n/a
261.8555	0.06	523711	keystroke_h	h	n/a
262.2305	0.09	524461	keystroke_i	i	n/a
262.4855	0.045	524971	keystroke_l	l	n/a
263.115	0.105	526230	keystroke_d	d	n/a
263.8355	0.09	527671	keystroke_r	r	n/a
264.0905	0.06	528181	keystroke_e	e	n/a
264.2995	0.075	528599	keystroke_n	n	n/a
264.5555	0.075	529111	keystroke_s	s	n/a
265.0205	0.09	530041	keystroke_Key.space	Key.space	n/a
265.5005	0.105	531001	keystroke_t	t	n/a
265.8155	0.075	531631	keystroke_e	e	n/a
268.622	0.028	537244	keystroke_a	a	n/a
268.725	0.06	537450	keystroke_n	n	n/a
268.965	0.09	537930	keystroke_s	s	n/a
269.9395	0.105	539879	keystroke_Key.backspace	Key.backspace	n/a
270.3445	0.09	540689	keystroke_Key.backspace	Key.backspace	n/a
270.9145	0.075	541829	keystroke_m	m	n/a
271.0945	0.075	542189	keystroke_s	s	n/a
271.6345	0.105	543269	keystroke_Key.space	Key.space	n/a
272.0245	0.075	544049	keystroke_c	c	n/a
272.3395	0.075	544679	keystroke_a	a	n/a
272.4745	0.06	544949	keystroke_l	l	n/a
272.6245	0.0745	545249	keystroke_l	l	n/a
272.849	0.06	545698	keystroke_i	i	n/a
273.029	0.0905	546058	keystroke_n	n	n/a
273.1945	0.09	546389	keystroke_g	g	n/a
273.779	0.0905	547558	keystroke_Key.space	Key.space	n/a
274.3195	0.075	548639	keystroke_t	t	n/a
274.4395	0.105	548879	keystroke_o	o	n/a
274.7095	0.075	549419	keystroke_n	n	n/a
275.249	0.075	550498	keystroke_g	g	n/a
275.549	0.075	551098	keystroke_u	u	n/a
275.789	0.06	551578	keystroke_e	e	n/a
276.6595	0.06	553319	keystroke_Key.enter	Key.enter	n/a
276.7255	22.884	553451	prompt	n/a	employed managers vulnerability qualities\n
277.484	0.0905	554968	keystroke_e	e	n/a
277.7395	0.09	555479	keystroke_m	m	n/a
278.264	0.105	556528	keystroke_p	p	n/a
278.579	0.09	557158	keystroke_l	l	n/a
279.8985	0.091	559797	keystroke_a	a	n/a
280.1245	0.075	560249	keystroke_u	u	n/a
281.0085	0.135	562017	keystroke_Key.backspace	Key.backspace	n/a
281.4735	0.09	562947	keystroke_Key.backspace	Key.backspace	n/a
282.239	0.09	564478	keystroke_o	o	n/a
282.5835	0.06	565167	keystroke_y	y	n/a
282.8235	0.09	565647	keystroke_e	e	n/a
283.0785	0.075	566157	keystroke_d	d	n/a
283.814	0.075	567628	keystroke_Key.space	Key.space	n/a
284.0985	0.045	568197	keystroke_m	m	n/a
284.3235	0.165	568647	keystroke_a	a	n/a
284.774	0.075	569548	keystroke_n	n	n/a
285.313	0.045	570626	keystroke_a	a	n/a
285.613	0.075	571226	keystroke_g	g	n/a
285.853	0.12	571706	keystroke_e	e	n/a
286.108	0.075	572216	keystroke_r	r	n/a
286.423	0.046	572846	keystroke_s	s	n/a
286.693	0.045	573386	keystroke_Key.space	Key.space	n/a
287.099	0.09	574198	keystroke_v	v	n/a
287.5185	0.12	575037	keystroke_a	a	n/a
288.164	0.1045	576328	keystroke_Key.backspace	Key.backspace	n/a
288.6735	0.105	577347	keystroke_u	u	n/a
288.8685	0.12	577737	keystroke_l	l	n/a
289.3635	0.075	578727	keystroke_n	n	n/a
289.7685	0.09	579537	keystroke_e	e	n/a
290.0085	0.09	580017	keystroke_r	r	n/a
290.2785	0.09	580557	keystroke_a	a	n/a
290.6235	0.105	581247	keystroke_b	b	n/a
291.3285	0.075	582657	keystroke_i	i	n/a
292.6185	0.09	585237	keystroke_l	l	n/a
293.984	0.06	587968	keystroke_i	i	n/a
294.7485	0.045	589497	keystroke_t	t	n/a
294.9885	0.12	589977	keystroke_y	y	n/a
295.3935	0.09	590787	keystroke_Key.space	Key.space	n/a
295.8735	0.1045	591747	keystroke_q	q	n/a
296.428	0.075	592856	keystroke_u	u	n/a
296.758	0.09	593516	keystroke_a	a	n/a
297.343	0.09	594686	keystroke_l	l	n/a
297.703	0.09	595406	keystroke_i	i	n/a
298.0025	0.09	596005	keystroke_t	t	n/a
298.1675	0.0755	596335	keystroke_i	i	n/a
298.513	0.075	597026	keystroke_e	e	n/a
299.143	0.075	598286	keystroke_s	s	n/a
299.533	0.075	599066	keystroke_Key.enter	Key.enter	n/a
299.6135	11.71	599227	prompt	n/a	distances march sponsors she'd\n
300.403	0.075	600806	keystroke_d	d	n/a
300.568	0.06	601136	keystroke_i	i	n/a
300.778	0.1045	601556	keystroke_s	s	n/a
301.3325	0.075	602665	keystroke_t	t	n/a
301.6025	0.105	603205	keystroke_a	a	n/a
301.7825	0.03	603565	keystroke_n	n	n/a
301.9925	0.105	603985	keystroke_c	c	n/a
302.3975	0.075	604795	keystroke_e	e	n/a
302.6675	0.105	605335	keystroke_s	s	n/a
302.8775	0.105	605755	keystroke_Key.space	Key.space	n/a
303.207	0.09	606414	keystroke_m	m	n/a
303.357	0.1205	606714	keystroke_a	a	n/a
303.853	0.104	607706	keystroke_r	r	n/a
304.332	0.09	608664	keystroke_c	c	n/a
304.527	0.075	609054	keystroke_h	h	n/a
304.9625	0.105	609925	keystroke_Key.space	Key.space	n/a
305.5025	0.09	611005	keystroke_s	s	n/a
305.6525	0.105	611305	keystroke_p	p	n/a
306.4025	0.06	612805	keystroke_o	o	n/a
306.6425	0.075	613285	keystroke_n	n	n/a
307.212	0.195	614424	keystroke_s	s	n/a
307.7515	0.06	615503	keystroke_o	o	n/a
307.9615	0.075	615923	keystroke_r	r	n/a
308.2915	0.091	616583	keystroke_s	s	n/a
308.8765	0.075	617753	keystroke_Key.space	Key.space	n/a
309.552	0.045	619104	keystroke_s	s	n/a
309.657	0.06	619314	keystroke_h	h	n/a
309.912	0.075	619824	keystroke_e	e	n/a
310.347	0.105	620694	keystroke_'	'	n/a
310.542	0.075	621084	keystroke_d	d	n/a
311.202	0.12	622404	keystroke_Key.enter	Key.enter	n/a
311.3265	12.7165	622653	prompt	n/a	jury automotive operate voted\n
312.117	0.12	624234	keystroke_j	j	n/a
312.432	0.09	624864	keystroke_u	u	n/a
312.8965	0.09	625793	keystroke_r	r	n/a
313.0915	0.075	626183	keystroke_y	y	n/a
313.5715	0.105	627143	keystroke_Key.space	Key.space	n/a
313.8715	0.12	627743	keystroke_a	a	n/a
314.0515	0.1205	628103	keystroke_u	u	n/a
314.3665	0.075	628733	keystroke_t	t	n/a
314.5615	0.09	629123	keystroke_o	o	n/a
314.9365	0.09	629873	keystroke_m	m	n/a
315.6865	0.03	631373	keystroke_o	o	n/a
316.0765	0.06	632153	keystroke_t	t	n/a
316.2415	0.075	632483	keystroke_i	i	n/a
316.5715	0.12	633143	keystroke_v	v	n/a
316.9015	0.09	633803	keystroke_e	e	n/a
317.3365	0.105	634673	keystroke_Key.space	Key.space	n/a
317.7865	0.0895	635573	keystroke_o	o	n/a
318.086	0.09	636172	keystroke_p	p	n/a
318.431	0.09	636862	keystroke_e	e	n/a
318.761	0.09	637522	keystroke_r	r	n/a
319.2565	0.075	638513	keystroke_a	a	n/a
319.5565	0.075	639113	keystroke_t	t	n/a
319.8715	0.075	639743	keystroke_e	e	n/a
320.5615	0.105	641123	keystroke_Key.space	Key.space	n/a
320.9965	0.105	641993	keystroke_c	c	n/a
321.776	0.12	643552	keystroke_Key.backspace	Key.backspace	n/a
322.136	0.06	644272	keystroke_v	v	n/a
322.331	0.075	644662	keystroke_o	o	n/a
322.8555	0.075	645711	keystroke_t	t	n/a
323.186	0.1045	646372	keystroke_e	e	n/a
323.456	0.075	646912	keystroke_d	d	n/a
323.966	0.075	647932	keystroke_Key.enter	Key.enter	n/a
324.0465	22.765	648093	prompt	n/a	broadcast trusted physicians conversion\n
325.1355	0.075	650271	keystroke_b	b	n/a
325.571	0.06	651142	keystroke_r	r	n/a
326.0655	0.045	652131	keystroke_o	o	n/a
327.1305	0.09	654261	keystroke_a	a	n/a
327.4455	0.091	654891	keystroke_d	d	n/a
328.1055	0.075	656211	keystroke_c	c	n/a
328.3305	0.09	656661	keystroke_a	a	n/a
328.5565	0.09	657113	keystroke_s	s	n/a
329.2905	0.105	658581	keystroke_t	t	n/a
330.671	0.0745	661342	keystroke_Key.space	Key.space	n/a
331.256	0.075	662512	keystroke_t	t	n/a
331.586	0.0895	663172	keystroke_r	r	n/a
332.0805	0.03	664161	keystroke_u	u	n/a
332.2905	0.105	664581	keystroke_s	s	n/a
332.7105	0.06	665421	keystroke_t	t	n/a
333.0105	0.09	666021	keystroke_e	e	n/a
333.2805	0.075	666561	keystroke_d	d	n/a
333.551	0.075	667102	keystroke_Key.space	Key.space	n/a
334.39	0.046	668780	keystroke_p	p	n/a
334.735	0.09	669470	keystroke_h	h	n/a
335.6055	0.09	671211	keystroke_y	y	n/a
337.0305	0.0905	674061	keystroke_s	s	n/a
338.1705	0.06	676341	keystroke_i	i	n/a
338.8155	0.075	677631	keystroke_c	c	n/a
339.9705	0.06	679941	keystroke_i	i	n/a
340.435	0.075	680870	keystroke_a	a	n/a
340.9745	0.09	681949	keystroke_n	n	n/a
342.2045	0.075	684409	keystroke_s	s	n/a
342.5945	0.105	685189	keystroke_Key.space	Key.space	n/a
343.135	0.09	686270	keystroke_c	c	n/a
343.33	0.045	686660	keystroke_o	o	n/a
343.48	0.09	686960	keystroke_n	n	n/a
343.81	0.12	687620	keystroke_v	v	n/a
344.29	0.015	688580	keystroke_e	e	n/a
344.5	0.105	689000	keystroke_r	r	n/a
345.07	0.09	690140	keystroke_s	s	n/a
345.265	0.12	690530	keystroke_i	i	n/a
345.43	0.105	690860	keystroke_o	o	n/a
345.73	0.045	691460	keystroke_n	n	n/a
346.7495	0.06	693499	keystroke_Key.enter	Key.enter	n/a
346.8145	20.366	693629	prompt	n/a	deposit xhtml anthropology admin\n
347.725	0.045	695450	keystroke_d	d	n/a
347.935	0.075	695870	keystroke_e	e	n/a
348.16	0.105	696320	keystroke_p	p	n/a
348.8195	0.09	697639	keystroke_o	o	n/a
348.9995	0.09	697999	keystroke_s	s	n/a
349.1945	0.06	698389	keystroke_i	i	n/a
349.5245	0.075	699049	keystroke_t	t	n/a
350.4245	0.24	700849	keystroke_Key.space	Key.space	n/a
350.8445	0.135	701689	keystroke_z	z	n/a
351.4895	0.09	702979	keystroke_Key.backspace	Key.backspace	n/a
351.7745	0.1045	703549	keystroke_x	x	n/a
352.9595	0.09	705919	keystroke_h	h	n/a
353.394	0.075	706788	keystroke_t	t	n/a
353.739	0.0755	707478	keystroke_m	m	n/a
354.2195	0.015	708439	keystroke_l	l	n/a
354.7445	0.1045	709489	keystroke_Key.space	Key.space	n/a
355.059	0.09	710118	keystroke_a	a	n/a
355.179	0.09	710358	keystroke_n	n	n/a
356.439	0.06	712878	keystroke_t	t	n/a
356.574	0.045	713148	keystroke_h	h	n/a
356.799	0.09	713598	keystroke_r	r	n/a
356.964	0.09	713928	keystroke_o	o	n/a
358.1485	0.1205	716297	keystroke_p	p	n/a
358.524	0.105	717048	keystroke_p	p	n/a
359.4685	0.0905	718937	keystroke_Key.backspace	Key.backspace	n/a
360.0985	0.075	720197	keystroke_o	o	n/a
362.2615	0.043	724523	keystroke_l	l	n/a
362.8445	0.075	725689	keystroke_o	o	n/a
363.1885	0.0755	726377	keystroke_g	g	n/a
363.369	0.06	726738	keystroke_y	y	n/a
363.729	0.09	727458	keystroke_Key.space	Key.space	n/a
364.329	0.045	728658	keystroke_a	a	n/a
364.389	0.135	728778	keystroke_d	d	n/a
364.644	0.09	729288	keystroke_i	i	n/a
365.484	0.105	730968	keystroke_Key.backspace	Key.backspace	n/a
365.9485	0.045	731897	keystroke_m	m	n/a
366.2635	0.105	732527	keystroke_i	i	n/a
366.4735	0.105	732947	keystroke_n	n	n/a
367.1035	0.075	734207	keystroke_Key.enter	Key.enter	n/a
367.183	16.692	734366	prompt	n/a	harry decreased concert kruger\n
367.8995	0.059	735799	keystroke_h	h	n/a
368.1235	0.135	736247	keystroke_a	a	n/a
368.4235	0.075	736847	keystroke_r	r	n/a
368.5735	0.09	737147	keystroke_r	r	n/a
368.7835	0.06	737567	keystroke_y	y	n/a
369.039	0.09	738078	keystroke_Key.space	Key.space	n/a
369.339	0.105	738678	keystroke_d	d	n/a
369.594	0.075	739188	keystroke_e	e	n/a
370.104	0.09	740208	keystroke_c	c	n/a
370.599	0.075	741198	keystroke_r	r	n/a
370.824	0.075	741648	keystroke_e	e	n/a
371.123	0.076	742246	keystroke_s	s	n/a
371.724	0.104	743448	keystroke_Key.backspace	Key.backspace	n/a
371.948	0.076	743896	keystroke_a	a	n/a
372.174	0.12	744348	keystroke_s	s	n/a
372.594	0.06	745188	keystroke_e	e	n/a
373.1635	0.135	746327	keystroke_d	d	n/a
373.4785	0.075	746957	keystroke_Key.space	Key.space	n/a
373.9285	0.075	747857	keystroke_c	c	n/a
374.0485	0.09	748097	keystroke_o	o	n/a
374.2435	0.06	748487	keystroke_n	n	n/a
374.573	0.09	749146	keystroke_c	c	n/a
375.353	0.075	750706	keystroke_e	e	n/a
376.0135	0.1055	752027	keystroke_r	r	n/a
376.464	0.059	752928	keystroke_t	t	n/a
376.853	0.09	753706	keystroke_Key.space	Key.space	n/a
377.213	0.076	754426	keystroke_j	j	n/a
377.514	0.09	755028	keystroke_r	r	n/a
377.754	0.045	755508	keystroke_u	u	n/a
378.5485	0.089	757097	keystroke_Key.backspace	Key.backspace	n/a
378.9675	0.105	757935	keystroke_Key.backspace	Key.backspace	n/a
379.4175	0.091	758835	keystroke_Key.backspace	Key.backspace	n/a
380.6035	0.1055	761207	keystroke_k	k	n/a
382.1485	0.09	764297	keystroke_r	r	n/a
382.3285	0.06	764657	keystroke_u	u	n/a
382.6735	0.075	765347	keystroke_g	g	n/a
383.0785	0.09	766157	keystroke_e	e	n/a
383.3185	0.075	766637	keystroke_r	r	n/a
383.798	0.0755	767596	keystroke_Key.enter	Key.enter	n/a
383.878	13.916	767756	prompt	n/a	stranger profession variables blues\n
384.6535	0.12	769307	keystroke_s	s	n/a
384.9385	0.105	769877	keystroke_t	t	n/a
385.313	0.06	770626	keystroke_r	r	n/a
385.5975	0.12	771195	keystroke_a	a	n/a
385.8525	0.09	771705	keystroke_n	n	n/a
386.1375	0.076	772275	keystroke_g	g	n/a
386.5275	0.105	773055	keystroke_e	e	n/a
386.7825	0.09	773565	keystroke_r	r	n/a
387.0825	0.09	774165	keystroke_Key.space	Key.space	n/a
387.3525	0.12	774705	keystroke_p	p	n/a
387.5925	0.075	775185	keystroke_r	r	n/a
388.2375	0.09	776475	keystroke_o	o	n/a
388.5375	0.09	777075	keystroke_f	f	n/a
389.033	0.105	778066	keystroke_e	e	n/a
389.378	0.075	778756	keystroke_s	s	n/a
389.513	0.09	779026	keystroke_s	s	n/a
389.753	0.12	779506	keystroke_i	i	n/a
389.948	0.105	779896	keystroke_o	o	n/a
390.173	0.09	780346	keystroke_n	n	n/a
390.923	0.09	781846	keystroke_Key.space	Key.space	n/a
391.268	0.105	782536	keystroke_v	v	n/a
391.7475	0.12	783495	keystroke_a	a	n/a
392.258	0.12	784516	keystroke_r	r	n/a
392.543	0.075	785086	keystroke_i	i	n/a
392.918	0.105	785836	keystroke_a	a	n/a
393.473	0.09	786946	keystroke_b	b	n/a
393.953	0.075	787906	keystroke_l	l	n/a
394.148	0.075	788296	keystroke_e	e	n/a
395.003	0.075	790006	keystroke_s	s	n/a
395.183	0.09	790366	keystroke_Key.space	Key.space	n/a
395.528	0.09	791056	keystroke_b	b	n/a
395.693	0.09	791386	keystroke_l	l	n/a
396.098	0.0745	792196	keystroke_u	u	n/a
396.413	0.06	792826	keystroke_e	e	n/a
397.2675	0.045	794535	keystroke_s	s	n/a
397.6875	0.1045	795375	keystroke_Key.enter	Key.enter	n/a
397.7975	17.546	795595	prompt	n/a	amendment footwear transit seats\n
398.543	0.12	797086	keystroke_a	a	n/a
398.797	0.06	797594	keystroke_m	m	n/a
399.547	0.06	799094	keystroke_e	e	n/a
399.907	0.045	799814	keystroke_n	n	n/a
400.072	0.075	800144	keystroke_d	d	n/a
400.627	0.06	801254	keystroke_m	m	n/a
400.912	0.105	801824	keystroke_e	e	n/a
401.107	0.075	802214	keystroke_n	n	n/a
401.347	0.075	802694	keystroke_t	t	n/a
401.557	0.075	803114	keystroke_Key.space	Key.space	n/a
401.827	0.06	803654	keystroke_f	f	n/a
401.977	0.075	803954	keystroke_o	o	n/a
402.127	0.105	804254	keystroke_o	o	n/a
402.412	0.09	804824	keystroke_t	t	n/a
403.1325	0.12	806265	keystroke_w	w	n/a
403.4925	0.12	806985	keystroke_a	a	n/a
404.2725	0.105	808545	keystroke_Key.backspace	Key.backspace	n/a
404.5125	0.075	809025	keystroke_e	e	n/a
404.7825	0.105	809565	keystroke_a	a	n/a
405.1125	0.09	810225	keystroke_r	r	n/a
405.9075	0.075	811815	keystroke_Key.space	Key.space	n/a
407.122	0.105	814244	keystroke_t	t	n/a
407.7375	0.1045	815475	keystroke_r	r	n/a
408.637	0.075	817274	keystroke_a	a	n/a
409.012	0.06	818024	keystroke_n	n	n/a
410.767	0.09	821534	keystroke_s	s	n/a
410.918	0.059	821836	keystroke_i	i	n/a
411.187	0.06	822374	keystroke_t	t	n/a
411.547	0.09	823094	keystroke_Key.space	Key.space	n/a
411.772	0.09	823544	keystroke_s	s	n/a
412.057	0.09	824114	keystroke_e	e	n/a
412.2825	0.105	824565	keystroke_a	a	n/a
412.657	0.12	825314	keystroke_r	r	n/a
413.677	0.0595	827354	keystroke_Key.backspace	Key.backspace	n/a
413.8415	0.06	827683	keystroke_t	t	n/a
414.2465	0.075	828493	keystroke_s	s	n/a
415.2365	0.105	830473	keystroke_Key.enter	Key.enter	n/a
415.347	11.7115	830694	prompt	n/a	schools consent retailer config\n
416.092	0.045	832184	keystroke_s	s	n/a
416.677	0.09	833354	keystroke_c	c	n/a
416.827	0.075	833654	keystroke_h	h	n/a
417.202	0.09	834404	keystroke_o	o	n/a
417.352	0.12	834704	keystroke_o	o	n/a
417.667	0.075	835334	keystroke_l	l	n/a
418.2375	0.075	836475	keystroke_s	s	n/a
418.4765	0.075	836953	keystroke_Key.space	Key.space	n/a
419.2115	0.09	838423	keystroke_c	c	n/a
419.3465	0.09	838693	keystroke_o	o	n/a
419.5565	0.075	839113	keystroke_n	n	n/a
419.8115	0.09	839623	keystroke_s	s	n/a
420.2765	0.075	840553	keystroke_e	e	n/a
420.4115	0.0755	840823	keystroke_n	n	n/a
420.637	0.09	841274	keystroke_t	t	n/a
421.072	0.105	842144	keystroke_Key.space	Key.space	n/a
421.492	0.09	842984	keystroke_r	r	n/a
421.822	0.075	843644	keystroke_e	e	n/a
422.3765	0.0755	844753	keystroke_t	t	n/a
422.7825	0.119	845565	keystroke_a	a	n/a
423.0065	0.09	846013	keystroke_i	i	n/a
423.2015	0.12	846403	keystroke_l	l	n/a
423.4265	0.09	846853	keystroke_e	e	n/a
423.6665	0.075	847333	keystroke_r	r	n/a
424.1915	0.12	848383	keystroke_Key.space	Key.space	n/a
424.5065	0.075	849013	keystroke_c	c	n/a
424.6565	0.09	849313	keystroke_o	o	n/a
424.8515	0.0895	849703	keystroke_n	n	n/a
425.706	0.075	851412	keystroke_f	f	n/a
425.872	0.075	851744	keystroke_i	i	n/a
426.142	0.075	852284	keystroke_g	g	n/a
426.9815	0.075	853963	keystroke_Key.enter	Key.enter	n/a
427.0635	13.06	854127	prompt	n/a	threatened tractor payroll expo\n
427.8665	0.09	855733	keystroke_t	t	n/a
428.0615	0.075	856123	keystroke_h	h	n/a
428.2565	0.105	856513	keystroke_r	r	n/a
428.5415	0.075	857083	keystroke_e	e	n/a
428.8415	0.105	857683	keystroke_a	a	n/a
429.2465	0.045	858493	keystroke_t	t	n/a
429.6965	0.015	859393	keystroke_e	e	n/a
429.8465	0.075	859693	keystroke_n	n	n/a
430.702	0.089	861404	keystroke_e	e	n/a
430.972	0.075	861944	keystroke_d	d	n/a
431.527	0.089	863054	keystroke_Key.space	Key.space	n/a
431.962	0.104	863924	keystroke_t	t	n/a
432.217	0.09	864434	keystroke_r	r	n/a
432.547	0.09	865094	keystroke_a	a	n/a
432.8915	0.09	865783	keystroke_c	c	n/a
433.6115	0.015	867223	keystroke_t	t	n/a
433.7315	0.0745	867463	keystroke_o	o	n/a
433.941	0.076	867882	keystroke_r	r	n/a
434.421	0.075	868842	keystroke_Key.space	Key.space	n/a
434.842	0.09	869684	keystroke_p	p	n/a
435.112	0.09	870224	keystroke_a	a	n/a
435.277	0.075	870554	keystroke_y	y	n/a
435.757	0.045	871514	keystroke_r	r	n/a
435.921	0.075	871842	keystroke_o	o	n/a
436.072	0.075	872144	keystroke_o	o	n/a
436.792	0.089	873584	keystroke_Key.backspace	Key.backspace	n/a
437.226	0.105	874452	keystroke_l	l	n/a
437.422	0.075	874844	keystroke_l	l	n/a
437.737	0.105	875474	keystroke_Key.space	Key.space	n/a
438.202	0.06	876404	keystroke_e	e	n/a
438.517	0.105	877034	keystroke_x	x	n/a
439.057	0.09	878114	keystroke_p	p	n/a
439.342	0.075	878684	keystroke_o	o	n/a
440.107	0.015	880214	keystroke_Key.enter	Key.enter	n/a
440.1285	15.504	880257	prompt	n/a	legislative copy involve readings\n
440.872	0.06	881744	keystroke_l	l	n/a
441.022	0.105	882044	keystroke_e	e	n/a
441.412	0.075	882824	keystroke_g	g	n/a
441.967	0.075	883934	keystroke_i	i	n/a
442.2815	0.0905	884563	keystroke_s	s	n/a
443.031	0.075	886062	keystroke_l	l	n/a
443.226	0.09	886452	keystroke_a	a	n/a
443.571	0.075	887142	keystroke_t	t	n/a
443.991	0.0605	887982	keystroke_e	e	n/a
444.786	0.075	889572	keystroke_Key.backspace	Key.backspace	n/a
446.196	0.046	892392	keystroke_i	i	n/a
446.511	0.09	893022	keystroke_v	v	n/a
446.796	0.075	893592	keystroke_e	e	n/a
447.576	0.12	895152	keystroke_Key.space	Key.space	n/a
447.8015	0.0745	895603	keystroke_c	c	n/a
447.951	0.09	895902	keystroke_o	o	n/a
448.176	0.105	896352	keystroke_p	p	n/a
448.476	0.06	896952	keystroke_y	y	n/a
448.896	0.12	897792	keystroke_Key.space	Key.space	n/a
449.421	0.15	898842	keystroke_i	i	n/a
449.631	0.09	899262	keystroke_n	n	n/a
450.5005	0.091	901001	keystroke_v	v	n/a
451.0115	0.075	902023	keystroke_o	o	n/a
451.2515	0.089	902503	keystroke_l	l	n/a
451.9855	0.091	903971	keystroke_v	v	n/a
452.286	0.075	904572	keystroke_e	e	n/a
452.8865	0.105	905773	keystroke_Key.space	Key.space	n/a
453.1415	0.09	906283	keystroke_r	r	n/a
453.3665	0.09	906733	keystroke_e	e	n/a
453.6365	0.09	907273	keystroke_a	a	n/a
453.9215	0.06	907843	keystroke_d	d	n/a
454.1165	0.075	908233	keystroke_i	i	n/a
454.3265	0.075	908653	keystroke_n	n	n/a
454.5365	0.074	909073	keystroke_g	g	n/a
455.316	0.06	910632	keystroke_s	s	n/a
455.571	0.06	911142	keystroke_Key.enter	Key.enter	n/a
455.6355	18.1015	911271	prompt	n/a	arrow robert reliability dictionary\n
456.366	0.075	912732	keystroke_a	a	n/a
456.6505	0.0905	913301	keystroke_r	r	n/a
456.801	0.12	913602	keystroke_r	r	n/a
457.0865	0.075	914173	keystroke_o	o	n/a
457.4165	0.075	914833	keystroke_w	w	n/a
457.7915	0.075	915583	keystroke_Key.space	Key.space	n/a
458.391	0.0155	916782	keystroke_r	r	n/a
458.511	0.0905	917022	keystroke_o	o	n/a
458.766	0.0755	917532	keystroke_b	b	n/a
459.081	0.075	918162	keystroke_e	e	n/a
459.6965	0.089	919393	keystroke_r	r	n/a
459.981	0.075	919962	keystroke_t	t	n/a
460.206	0.075	920412	keystroke_Key.space	Key.space	n/a
460.566	0.06	921132	keystroke_r	r	n/a
462.576	0.075	925152	keystroke_a	a	n/a
463.266	0.105	926532	keystroke_Key.backspace	Key.backspace	n/a
463.551	0.075	927102	keystroke_e	e	n/a
464.046	0.06	928092	keystroke_l	l	n/a
464.7655	0.046	929531	keystroke_i	i	n/a
465.0955	0.075	930191	keystroke_a	a	n/a
466.521	0.075	933042	keystroke_b	b	n/a
466.836	0.06	933672	keystroke_i	i	n/a
466.986	0.135	933972	keystroke_l	l	n/a
467.286	0.075	934572	keystroke_i	i	n/a
467.721	0.06	935442	keystroke_t	t	n/a
467.8405	0.06	935681	keystroke_y	y	n/a
468.4105	0.105	936821	keystroke_Key.space	Key.space	n/a
469.0555	0.06	938111	keystroke_d	d	n/a
469.3855	0.06	938771	keystroke_i	i	n/a
469.7455	0.045	939491	keystroke_c	c	n/a
470.736	0.06	941472	keystroke_t	t	n/a
470.841	0.075	941682	keystroke_i	i	n/a
470.961	0.12	941922	keystroke_o	o	n/a
471.261	0.105	942522	keystroke_n	n	n/a
472.0105	0.09	944021	keystroke_a	a	n/a
472.5205	0.06	945041	keystroke_r	r	n/a
472.6855	0.06	945371	keystroke_y	y	n/a
473.706	0.03	947412	keystroke_Key.enter	Key.enter	n/a
473.7405	12.1465	947481	prompt	n/a	shares harley isn't washer\n
474.53	0.0905	949060	keystroke_s	s	n/a
474.6505	0.06	949301	keystroke_h	h	n/a
475.235	0.105	950470	keystroke_a	a	n/a
475.505	0.1205	951010	keystroke_r	r	n/a
475.7305	0.09	951461	keystroke_e	e	n/a
476.4055	0.105	952811	keystroke_s	s	n/a
476.6155	0.09	953231	keystroke_Key.space	Key.space	n/a
476.871	0.06	953742	keystroke_h	h	n/a
477.066	0.09	954132	keystroke_a	a	n/a
477.576	0.105	955152	keystroke_r	r	n/a
478.4155	0.075	956831	keystroke_l	l	n/a
478.7605	0.075	957521	keystroke_e	e	n/a
478.8655	0.09	957731	keystroke_y	y	n/a
479.3605	0.075	958721	keystroke_Key.space	Key.space	n/a
479.7055	0.06	959411	keystroke_i	i	n/a
479.8855	0.0895	959771	keystroke_s	s	n/a
480.08	0.0605	960160	keystroke_n	n	n/a
480.965	0.045	961930	keystroke_'	'	n/a
481.1	0.0455	962200	keystroke_'	'	n/a
481.895	0.075	963790	keystroke_Key.backspace	Key.backspace	n/a
482.2555	0.06	964511	keystroke_t	t	n/a
482.9305	0.075	965861	keystroke_Key.space	Key.space	n/a
483.1105	0.09	966221	keystroke_w	w	n/a
483.3505	0.075	966701	keystroke_a	a	n/a
483.6055	0.09	967211	keystroke_s	s	n/a
484.58	0.09	969160	keystroke_h	h	n/a
484.94	0.075	969880	keystroke_e	e	n/a
485.24	0.075	970480	keystroke_r	r	n/a
485.78	0.105	971560	keystroke_Key.enter	Key.enter	n/a
485.89	19.1365	971780	prompt	n/a	generic interpretation plan there\n
486.74	0.105	973480	keystroke_g	g	n/a
487.025	0.09	974050	keystroke_e	e	n/a
487.505	0.046	975010	keystroke_n	n	n/a
488.03	0.15	976060	keystroke_e	e	n/a
488.315	0.09	976630	keystroke_r	r	n/a
488.54	0.06	977080	keystroke_i	i	n/a
488.8105	0.0745	977621	keystroke_c	c	n/a
489.395	0.06	978790	keystroke_Key.space	Key.space	n/a
489.785	0.0455	979570	keystroke_i	i	n/a
489.9355	0.09	979871	keystroke_n	n	n/a
490.1905	0.09	980381	keystroke_t	t	n/a
490.476	0.089	980952	keystroke_e	e	n/a
490.715	0.075	981430	keystroke_r	r	n/a
491.271	0.119	982542	keystroke_p	p	n/a
491.555	0.09	983110	keystroke_r	r	n/a
492.305	0.075	984610	keystroke_e	e	n/a
493.2355	0.075	986471	keystroke_s	s	n/a
493.5805	0.075	987161	keystroke_t	t	n/a
493.8655	0.12	987731	keystroke_a	a	n/a
494.1955	0.075	988391	keystroke_t	t	n/a
494.9905	0.1195	989981	keystroke_Key.backspace	Key.backspace	n/a
495.41	0.09	990820	keystroke_Key.backspace	Key.backspace	n/a
495.92	0.075	991840	keystroke_Key.backspace	Key.backspace	n/a
496.37	0.09	992740	keystroke_Key.backspace	Key.backspace	n/a
498.3055	0.09	996611	keystroke_t	t	n/a
498.575	0.105	997150	keystroke_a	a	n/a
498.8605	0.075	997721	keystroke_t	t	n/a
499.3255	0.0905	998651	keystroke_i	i	n/a
499.5355	0.12	999071	keystroke_o	o	n/a
499.791	0.075	999582	keystroke_n	n	n/a
500.39	0.105	1000780	keystroke_Key.space	Key.space	n/a
500.645	0.0755	1001290	keystroke_p	p	n/a
500.8405	0.105	1001681	keystroke_l	l	n/a
501.0355	0.075	1002071	keystroke_a	a	n/a
501.1855	0.06	1002371	keystroke_n	n	n/a
501.4855	0.075	1002971	keystroke_Key.space	Key.space	n/a
502.1	0.075	1004200	keystroke_t	t	n/a
502.205	0.06	1004410	keystroke_h	h	n/a
502.5045	0.075	1005009	keystroke_r	r	n/a
502.7295	0.09	1005459	keystroke_e	e	n/a
503.3145	0.046	1006629	keystroke_Key.backspace	Key.backspace	n/a
503.6895	0.075	1007379	keystroke_Key.backspace	Key.backspace	n/a
503.93	0.0905	1007860	keystroke_e	e	n/a
504.1555	0.075	1008311	keystroke_r	r	n/a
504.3955	0.075	1008791	keystroke_e	e	n/a
505.0105	0.015	1010021	keystroke_Key.enter	Key.enter	n/a
505.031	18.4305	1010062	prompt	n/a	configuration shoe because editors\n
505.8355	0.015	1011671	keystroke_g	g	n/a
506.3605	0.15	1012721	keystroke_Key.backspace	Key.backspace	n/a
506.5705	0.06	1013141	keystroke_c	c	n/a
506.8105	0.119	1013621	keystroke_o	o	n/a
507.1105	0.089	1014221	keystroke_n	n	n/a
507.4405	0.075	1014881	keystroke_f	f	n/a
507.8605	0.06	1015721	keystroke_i	i	n/a
508.0405	0.0595	1016081	keystroke_g	g	n/a
508.3705	0.06	1016741	keystroke_u	u	n/a
509.4355	0.239	1018871	keystroke_r	r	n/a
510.1855	0.12	1020371	keystroke_a	a	n/a
510.5155	0.075	1021031	keystroke_t	t	n/a
510.6505	0.09	1021301	keystroke_i	i	n/a
510.8305	0.105	1021661	keystroke_o	o	n/a
511.1005	0.075	1022201	keystroke_n	n	n/a
511.865	0.06	1023730	keystroke_Key.space	Key.space	n/a
512.15	0.075	1024300	keystroke_s	s	n/a
512.24	0.06	1024480	keystroke_h	h	n/a
512.435	0.09	1024870	keystroke_o	o	n/a
512.645	0.075	1025290	keystroke_r	r	n/a
513.17	0.06	1026340	keystroke_Key.space	Key.space	n/a
513.725	0.09	1027450	keystroke_b	b	n/a
514.5055	0.105	1029011	keystroke_Key.backspace	Key.backspace	n/a
514.97	0.09	1029940	keystroke_Key.backspace	Key.backspace	n/a
515.48	0.045	1030960	keystroke_Key.backspace	Key.backspace	n/a
515.691	0.059	1031382	keystroke_e	e	n/a
516.11	0.09	1032220	keystroke_Key.space	Key.space	n/a
516.6205	0.09	1033241	keystroke_b	b	n/a
516.9205	0.075	1033841	keystroke_e	e	n/a
517.3705	0.09	1034741	keystroke_c	c	n/a
518.135	0.09	1036270	keystroke_a	a	n/a
518.645	0.075	1037290	keystroke_u	u	n/a
519.035	0.075	1038070	keystroke_s	s	n/a
519.2595	0.075	1038519	keystroke_e	e	n/a
519.5145	0.09	1039029	keystroke_Key.space	Key.space	n/a
520.2945	0.075	1040589	keystroke_e	e	n/a
520.5645	0.075	1041129	keystroke_d	d	n/a
521.2105	0.074	1042421	keystroke_i	i	n/a
521.9295	0.075	1043859	keystroke_t	t	n/a
522.0795	0.075	1044159	keystroke_o	o	n/a
522.3495	0.105	1044699	keystroke_r	r	n/a
522.8595	0.105	1045719	keystroke_s	s	n/a
523.3695	0.0905	1046739	keystroke_Key.enter	Key.enter	n/a
523.464	32.997	1046928	prompt	n/a	billion sealed who'd've correlation\n
524.27	0.075	1048540	keystroke_b	b	n/a
524.495	0.09	1048990	keystroke_i	i	n/a
524.765	0.09	1049530	keystroke_l	l	n/a
524.945	0.09	1049890	keystroke_l	l	n/a
525.35	0.0905	1050700	keystroke_i	i	n/a
525.5305	0.104	1051061	keystroke_o	o	n/a
525.815	0.09	1051630	keystroke_n	n	n/a
526.295	0.075	1052590	keystroke_Key.space	Key.space	n/a
526.565	0.09	1053130	keystroke_s	s	n/a
526.8045	0.075	1053609	keystroke_e	e	n/a
527.0445	0.12	1054089	keystroke_a	a	n/a
527.4805	0.105	1054961	keystroke_t	t	n/a
527.7805	0.0745	1055561	keystroke_e	e	n/a
528.005	0.06	1056010	keystroke_d	d	n/a
528.32	0.09	1056640	keystroke_Key.space	Key.space	n/a
529.43	0.105	1058860	keystroke_Key.backspace	Key.backspace	n/a
530.12	0.15	1060240	keystroke_Key.backspace	Key.backspace	n/a
530.705	0.105	1061410	keystroke_Key.backspace	Key.backspace	n/a
530.96	0.045	1061920	keystroke_Key.backspace	Key.backspace	n/a
532.6695	0.075	1065339	keystroke_l	l	n/a
532.8645	0.0755	1065729	keystroke_e	e	n/a
533.225	0.06	1066450	keystroke_d	d	n/a
533.735	0.09	1067470	keystroke_Key.space	Key.space	n/a
534.065	0.06	1068130	keystroke_w	w	n/a
534.185	0.045	1068370	keystroke_h	h	n/a
534.395	0.09	1068790	keystroke_o	o	n/a
535.1	0.075	1070200	keystroke_'	'	n/a
535.655	0.06	1071310	keystroke_d	d	n/a
536.45	0.09	1072900	keystroke_v	v	n/a
536.7345	0.135	1073469	keystroke_e	e	n/a
537.1245	0.09	1074249	keystroke_Key.space	Key.space	n/a
537.6045	0.105	1075209	keystroke_c	c	n/a
539.3595	0.075	1078719	keystroke_o	o	n/a
542.572	0.043	1085144	keystroke_Key.backspace	Key.backspace	n/a
543.14	0.075	1086280	keystroke_Key.backspace	Key.backspace	n/a
543.83	0.09	1087660	keystroke_Key.backspace	Key.backspace	n/a
544.4745	0.09	1088949	keystroke_Key.backspace	Key.backspace	n/a
545.0745	0.075	1090149	keystroke_Key.backspace	Key.backspace	n/a
545.959	0.09	1091918	keystroke_'	'	n/a
547.3845	0.12	1094769	keystroke_v	v	n/a
547.6095	0.06	1095219	keystroke_e	e	n/a
548.1195	0.06	1096239	keystroke_Key.space	Key.space	n/a
550.5365	0.013	1101073	keystroke_c	c	n/a
550.6395	0.09	1101279	keystroke_o	o	n/a
550.8795	0.075	1101759	keystroke_r	r	n/a
551.0445	0.09	1102089	keystroke_r	r	n/a
551.2695	0.075	1102539	keystroke_e	e	n/a
551.6145	0.075	1103229	keystroke_c	c	n/a
553.0995	0.105	1106199	keystroke_Key.backspace	Key.backspace	n/a
553.5945	0.075	1107189	keystroke_l	l	n/a
554.2695	0.105	1108539	keystroke_a	a	n/a
554.6145	0.075	1109229	keystroke_t	t	n/a
554.7345	0.075	1109469	keystroke_i	i	n/a
554.8695	0.105	1109739	keystroke_o	o	n/a
555.5445	0.075	1111089	keystroke_n	n	n/a
556.384	0.0755	1112768	keystroke_Key.enter	Key.enter	n/a
556.4635	12.447	1112927	prompt	n/a	avon song portions remain\n
557.2095	0.09	1114419	keystroke_a	a	n/a
557.4495	0.075	1114899	keystroke_n	n	n/a
558.124	0.09	1116248	keystroke_Key.backspace	Key.backspace	n/a
558.424	0.045	1116848	keystroke_c	c	n/a
558.979	0.075	1117958	keystroke_Key.backspace	Key.backspace	n/a
559.519	0.0905	1119038	keystroke_v	v	n/a
559.9545	0.075	1119909	keystroke_o	o	n/a
560.584	0.105	1121168	keystroke_n	n	n/a
560.809	0.075	1121618	keystroke_Key.space	Key.space	n/a
561.049	0.09	1122098	keystroke_s	s	n/a
561.199	0.0745	1122398	keystroke_o	o	n/a
561.3635	0.076	1122727	keystroke_n	n	n/a
561.5285	0.076	1123057	keystroke_g	g	n/a
562.069	0.075	1124138	keystroke_Key.space	Key.space	n/a
562.6685	0.105	1125337	keystroke_p	p	n/a
562.9085	0.105	1125817	keystroke_o	o	n/a
563.1785	0.075	1126357	keystroke_r	r	n/a
563.4485	0.06	1126897	keystroke_t	t	n/a
563.8985	0.075	1127797	keystroke_i	i	n/a
564.064	0.09	1128128	keystroke_o	o	n/a
564.289	0.075	1128578	keystroke_n	n	n/a
564.514	0.075	1129028	keystroke_s	s	n/a
564.979	0.075	1129958	keystroke_Key.space	Key.space	n/a
565.399	0.09	1130798	keystroke_r	r	n/a
565.624	0.06	1131248	keystroke_e	e	n/a
565.879	0.075	1131758	keystroke_m	m	n/a
566.209	0.09	1132418	keystroke_a	a	n/a
566.374	0.075	1132748	keystroke_i	i	n/a
567.8135	0.061	1135627	keystroke_n	n	n/a
568.849	0.06	1137698	keystroke_Key.enter	Key.enter	n/a
568.913	19.6615	1137826	prompt	n/a	hindu backgrounds secretary indonesia\n
569.794	0.105	1139588	keystroke_h	h	n/a
570.0035	0.09	1140007	keystroke_i	i	n/a
570.229	0.06	1140458	keystroke_n	n	n/a
570.4085	0.09	1140817	keystroke_d	d	n/a
571.5335	0.075	1143067	keystroke_u	u	n/a
571.9685	0.075	1143937	keystroke_Key.space	Key.space	n/a
572.8985	0.12	1145797	keystroke_b	b	n/a
573.3185	0.105	1146637	keystroke_a	a	n/a
573.618	0.076	1147236	keystroke_c	c	n/a
573.754	0.06	1147508	keystroke_k	k	n/a
574.4585	0.12	1148917	keystroke_g	g	n/a
574.6235	0.105	1149247	keystroke_r	r	n/a
574.8335	0.1045	1149667	keystroke_o	o	n/a
575.044	0.0595	1150088	keystroke_u	u	n/a
575.2535	0.075	1150507	keystroke_n	n	n/a
575.4035	0.06	1150807	keystroke_d	d	n/a
576.094	0.06	1152188	keystroke_s	s	n/a
576.513	0.046	1153026	keystroke_Key.space	Key.space	n/a
576.798	0.105	1153596	keystroke_s	s	n/a
576.994	0.074	1153988	keystroke_e	e	n/a
577.414	0.104	1154828	keystroke_c	c	n/a
577.863	0.075	1155726	keystroke_e	e	n/a
578.6735	0.075	1157347	keystroke_Key.backspace	Key.backspace	n/a
579.0485	0.105	1158097	keystroke_r	r	n/a
579.6485	0.1645	1159297	keystroke_e	e	n/a
580.593	0.045	1161186	keystroke_t	t	n/a
580.9385	0.12	1161877	keystroke_a	a	n/a
581.2235	0.075	1162447	keystroke_r	r	n/a
581.4485	0.075	1162897	keystroke_y	y	n/a
581.853	0.105	1163706	keystroke_Key.space	Key.space	n/a
582.363	0.075	1164726	keystroke_i	i	n/a
582.558	0.105	1165116	keystroke_n	n	n/a
582.783	0.06	1165566	keystroke_d	d	n/a
583.563	0.09	1167126	keystroke_o	o	n/a
584.388	0.0755	1168776	keystroke_s	s	n/a
585.1985	0.09	1170397	keystroke_Key.backspace	Key.backspace	n/a
585.7085	0.09	1171417	keystroke_n	n	n/a
586.2785	0.075	1172557	keystroke_e	e	n/a
586.593	0.075	1173186	keystroke_s	s	n/a
587.478	0.0605	1174956	keystroke_i	i	n/a
587.778	0.075	1175556	keystroke_a	a	n/a
588.513	0.06	1177026	keystroke_Key.enter	Key.enter	n/a
588.5785	9.1315	1177157	prompt	n/a	morris ending learn skating\n
589.398	0.135	1178796	keystroke_m	m	n/a
589.728	0.015	1179456	keystroke_o	o	n/a
589.998	0.105	1179996	keystroke_r	r	n/a
590.598	0.045	1181196	keystroke_r	r	n/a
590.658	0.045	1181316	keystroke_i	i	n/a
590.868	0.06	1181736	keystroke_s	s	n/a
591.078	0.09	1182156	keystroke_Key.space	Key.space	n/a
591.3035	0.075	1182607	keystroke_e	e	n/a
591.5735	0.0595	1183147	keystroke_n	n	n/a
591.7835	0.06	1183567	keystroke_d	d	n/a
592.833	0.0755	1185666	keystroke_i	i	n/a
593.013	0.06	1186026	keystroke_n	n	n/a
593.148	0.075	1186296	keystroke_g	g	n/a
593.493	0.09	1186986	keystroke_Key.space	Key.space	n/a
593.808	0.045	1187616	keystroke_l	l	n/a
593.928	0.075	1187856	keystroke_e	e	n/a
594.168	0.105	1188336	keystroke_a	a	n/a
594.438	0.06	1188876	keystroke_r	r	n/a
594.573	0.06	1189146	keystroke_n	n	n/a
594.978	0.105	1189956	keystroke_Key.space	Key.space	n/a
595.4735	0.06	1190947	keystroke_s	s	n/a
595.5935	0.09	1191187	keystroke_k	k	n/a
596.0735	0.09	1192147	keystroke_a	a	n/a
596.358	0.09	1192716	keystroke_t	t	n/a
596.493	0.075	1192986	keystroke_i	i	n/a
596.673	0.09	1193346	keystroke_n	n	n/a
596.793	0.075	1193586	keystroke_g	g	n/a
597.648	0.06	1195296	keystroke_Key.enter	Key.enter	n/a
597.7125	15.673	1195425	prompt	n/a	charity monitoring independent greetings\n
598.728	0.06	1197456	keystroke_c	c	n/a
598.848	0.075	1197696	keystroke_h	h	n/a
599.073	0.105	1198146	keystroke_a	a	n/a
599.643	0.06	1199286	keystroke_r	r	n/a
599.8535	0.075	1199707	keystroke_i	i	n/a
600.1385	0.045	1200277	keystroke_t	t	n/a
600.2885	0.075	1200577	keystroke_y	y	n/a
600.6635	0.09	1201327	keystroke_Key.space	Key.space	n/a
601.1885	0.105	1202377	keystroke_m	m	n/a
601.3835	0.09	1202767	keystroke_o	o	n/a
601.9535	0.075	1203907	keystroke_n	n	n/a
602.418	0.06	1204836	keystroke_i	i	n/a
602.688	0.06	1205376	keystroke_t	t	n/a
603.123	0.06	1206246	keystroke_o	o	n/a
603.333	0.075	1206666	keystroke_r	r	n/a
604.083	0.075	1208166	keystroke_i	i	n/a
604.278	0.06	1208556	keystroke_n	n	n/a
604.458	0.075	1208916	keystroke_g	g	n/a
604.593	0.09	1209186	keystroke_Key.space	Key.space	n/a
605.403	0.06	1210806	keystroke_i	i	n/a
605.5985	0.075	1211197	keystroke_n	n	n/a
605.823	0.075	1211646	keystroke_d	d	n/a
606.2135	0.0745	1212427	keystroke_e	e	n/a
606.663	0.075	1213326	keystroke_p	p	n/a
607.518	0.075	1215036	keystroke_e	e	n/a
607.713	0.075	1215426	keystroke_n	n	n/a
608.2085	0.09	1216417	keystroke_d	d	n/a
608.5835	0.045	1217167	keystroke_e	e	n/a
609.183	0.045	1218366	keystroke_n	n	n/a
609.453	0.06	1218906	keystroke_t	t	n/a
610.2025	0.0755	1220405	keystroke_Key.space	Key.space	n/a
610.518	0.09	1221036	keystroke_g	g	n/a
610.803	0.09	1221606	keystroke_r	r	n/a
611.088	0.105	1222176	keystroke_e	e	n/a
611.208	0.135	1222416	keystroke_e	e	n/a
611.613	0.045	1223226	keystroke_t	t	n/a
611.7935	0.075	1223587	keystroke_i	i	n/a
611.9885	0.075	1223977	keystroke_n	n	n/a
612.2585	0.06	1224517	keystroke_g	g	n/a
612.738	0.09	1225476	keystroke_s	s	n/a
613.293	0.09	1226586	keystroke_Key.enter	Key.enter	n/a
613.39	12.9995	1226780	prompt	n/a	proved noble invasion notified\n
614.268	0.045	1228536	keystroke_p	p	n/a
614.388	0.0445	1228776	keystroke_r	r	n/a
614.509	0.1035	1229018	keystroke_o	o	n/a
614.748	0.105	1229496	keystroke_v	v	n/a
615.018	0.0895	1230036	keystroke_e	e	n/a
615.288	0.075	1230576	keystroke_d	d	n/a
615.513	0.075	1231026	keystroke_Key.space	Key.space	n/a
616.218	0.09	1232436	keystroke_n	n	n/a
616.668	0.045	1233336	keystroke_o	o	n/a
616.938	0.075	1233876	keystroke_b	b	n/a
617.268	0.105	1234536	keystroke_l	l	n/a
617.478	0.06	1234956	keystroke_e	e	n/a
618.2285	0.105	1236457	keystroke_Key.space	Key.space	n/a
618.5285	0.089	1237057	keystroke_i	i	n/a
618.7975	0.0905	1237595	keystroke_n	n	n/a
619.8335	0.06	1239667	keystroke_v	v	n/a
620.2685	0.105	1240537	keystroke_a	a	n/a
620.5385	0.105	1241077	keystroke_s	s	n/a
621.678	0.09	1243356	keystroke_i	i	n/a
621.828	0.12	1243656	keystroke_o	o	n/a
622.083	0.075	1244166	keystroke_n	n	n/a
622.608	0.09	1245216	keystroke_Key.space	Key.space	n/a
623.193	0.03	1246386	keystroke_n	n	n/a
623.343	0.0905	1246686	keystroke_o	o	n/a
623.7035	0.0745	1247407	keystroke_t	t	n/a
623.9135	0.105	1247827	keystroke_i	i	n/a
624.4985	0.06	1248997	keystroke_f	f	n/a
625.0985	0.06	1250197	keystroke_i	i	n/a
625.4285	0.06	1250857	keystroke_e	e	n/a
625.6835	0.075	1251367	keystroke_d	d	n/a
626.3135	0.075	1252627	keystroke_Key.enter	Key.enter	n/a
626.3945	11.62	1252789	prompt	n/a	snap charm mines aware\n
627.228	0.09	1254456	keystroke_s	s	n/a
627.483	0.045	1254966	keystroke_n	n	n/a
627.738	0.0905	1255476	keystroke_a	a	n/a
627.8885	0.075	1255777	keystroke_p	p	n/a
628.113	0.06	1256226	keystroke_e	e	n/a
628.338	0.09	1256676	keystroke_Key.space	Key.space	n/a
630.183	0.09	1260366	keystroke_Key.backspace	Key.backspace	n/a
630.768	0.09	1261536	keystroke_Key.backspace	Key.backspace	n/a
631.578	0.105	1263156	keystroke_Key.space	Key.space	n/a
631.8035	0.09	1263607	keystroke_c	c	n/a
631.9235	0.075	1263847	keystroke_h	h	n/a
632.1025	0.1205	1264205	keystroke_a	a	n/a
632.418	0.0895	1264836	keystroke_r	r	n/a
632.718	0.0445	1265436	keystroke_m	m	n/a
632.9725	0.09	1265945	keystroke_Key.space	Key.space	n/a
633.5885	0.1045	1267177	keystroke_m	m	n/a
633.798	0.0605	1267596	keystroke_i	i	n/a
633.9635	0.075	1267927	keystroke_n	n	n/a
634.1585	0.074	1268317	keystroke_e	e	n/a
634.4435	0.0895	1268887	keystroke_s	s	n/a
634.818	0.06	1269636	keystroke_Key.space	Key.space	n/a
635.223	0.105	1270446	keystroke_a	a	n/a
635.778	0.1205	1271556	keystroke_w	w	n/a
636.243	0.165	1272486	keystroke_a	a	n/a
636.813	0.09	1273626	keystroke_r	r	n/a
637.053	0.075	1274106	keystroke_e	e	n/a
637.9235	0.089	1275847	keystroke_Key.enter	Key.enter	n/a
638.0175	14.982	1276035	prompt	n/a	malta fashion frequency narrow\n
638.8385	0.104	1277677	keystroke_m	m	n/a
639.0635	0.059	1278127	keystroke_a	a	n/a
639.7975	0.075	1279595	keystroke_l	l	n/a
640.4135	0.075	1280827	keystroke_t	t	n/a
641.0435	0.104	1282087	keystroke_a	a	n/a
641.5075	0.06	1283015	keystroke_Key.space	Key.space	n/a
642.0935	0.164	1284187	keystroke_f	f	n/a
642.4825	0.105	1284965	keystroke_a	a	n/a
642.6935	0.089	1285387	keystroke_s	s	n/a
642.9325	0.091	1285865	keystroke_h	h	n/a
643.278	0.06	1286556	keystroke_i	i	n/a
643.623	0.15	1287246	keystroke_n	n	n/a
644.3885	0.0895	1288777	keystroke_Key.backspace	Key.backspace	n/a
645.6335	0.105	1291267	keystroke_o	o	n/a
645.8435	0.09	1291687	keystroke_n	n	n/a
646.2485	0.105	1292497	keystroke_Key.space	Key.space	n/a
646.7435	0.06	1293487	keystroke_f	f	n/a
647.0735	0.075	1294147	keystroke_r	r	n/a
647.2835	0.075	1294567	keystroke_e	e	n/a
647.7485	0.1045	1295497	keystroke_q	q	n/a
648.558	0.06	1297116	keystroke_u	u	n/a
649.128	0.06	1298256	keystroke_e	e	n/a
649.308	0.075	1298616	keystroke_n	n	n/a
649.9225	0.09	1299845	keystroke_c	c	n/a
650.1475	0.09	1300295	keystroke_y	y	n/a
650.3575	0.1055	1300715	keystroke_Key.space	Key.space	n/a
650.643	0.12	1301286	keystroke_n	n	n/a
650.958	0.09	1301916	keystroke_a	a	n/a
651.2585	0.09	1302517	keystroke_r	r	n/a
651.4235	0.09	1302847	keystroke_r	r	n/a
651.7085	0.06	1303417	keystroke_o	o	n/a
652.4425	0.075	1304885	keystroke_w	w	n/a
652.908	0.09	1305816	keystroke_Key.enter	Key.enter	n/a
653.0035	13.781	1306007	prompt	n/a	cloud shield bored huntington\n
653.748	0.075	1307496	keystroke_c	c	n/a
653.913	0.06	1307826	keystroke_l	l	n/a
654.108	0.075	1308216	keystroke_o	o	n/a
654.423	0.075	1308846	keystroke_u	u	n/a
654.708	0.06	1309416	keystroke_d	d	n/a
654.948	0.09	1309896	keystroke_Key.space	Key.space	n/a
655.6685	0.09	1311337	keystroke_s	s	n/a
655.7735	0.015	1311547	keystroke_h	h	n/a
656.2085	0.045	1312417	keystroke_i	i	n/a
656.4335	0.06	1312867	keystroke_e	e	n/a
656.6735	0.0595	1313347	keystroke_d	d	n/a
657.183	0.03	1314366	keystroke_l	l	n/a
657.9935	0.075	1315987	keystroke_Key.backspace	Key.backspace	n/a
658.3835	0.06	1316767	keystroke_Key.backspace	Key.backspace	n/a
658.983	0.075	1317966	keystroke_l	l	n/a
659.178	0.09	1318356	keystroke_d	d	n/a
659.748	0.1055	1319496	keystroke_Key.space	Key.space	n/a
660.1835	0.075	1320367	keystroke_b	b	n/a
660.3485	0.075	1320697	keystroke_o	o	n/a
660.5735	0.075	1321147	keystroke_r	r	n/a
660.7835	0.075	1321567	keystroke_e	e	n/a
661.1285	0.06	1322257	keystroke_d	d	n/a
661.3385	0.09	1322677	keystroke_Key.space	Key.space	n/a
662.193	0.075	1324386	keystroke_h	h	n/a
662.553	0.09	1325106	keystroke_u	u	n/a
662.808	0.09	1325616	keystroke_n	n	n/a
663.243	0.076	1326486	keystroke_t	t	n/a
663.378	0.09	1326756	keystroke_i	i	n/a
663.678	0.075	1327356	keystroke_n	n	n/a
664.068	0.03	1328136	keystroke_g	g	n/a
665.628	0.06	1331256	keystroke_t	t	n/a
665.763	0.09	1331526	keystroke_o	o	n/a
666.033	0.06	1332066	keystroke_n	n	n/a
666.7085	0.075	1333417	keystroke_Key.enter	Key.enter	n/a
666.7875	14.3975	1333575	prompt	n/a	therefore construct undo fake\n
667.593	0.06	1335186	keystroke_t	t	n/a
667.699	0.059	1335398	keystroke_h	h	n/a
667.878	0.12	1335756	keystroke_e	e	n/a
668.089	0.089	1336178	keystroke_r	r	n/a
668.298	0.09	1336596	keystroke_e	e	n/a
668.898	0.075	1337796	keystroke_f	f	n/a
669.033	0.09	1338066	keystroke_o	o	n/a
669.1975	0.091	1338395	keystroke_r	r	n/a
669.4235	0.09	1338847	keystroke_e	e	n/a
670.0385	0.135	1340077	keystroke_Key.space	Key.space	n/a
670.878	0.09	1341756	keystroke_b	b	n/a
671.643	0.075	1343286	keystroke_Key.backspace	Key.backspace	n/a
671.883	0.045	1343766	keystroke_v	v	n/a
672.123	0.075	1344246	keystroke_o	o	n/a
672.9785	0.09	1345957	keystroke_Key.backspace	Key.backspace	n/a
673.3685	0.09	1346737	keystroke_Key.backspace	Key.backspace	n/a
673.6685	0.045	1347337	keystroke_c	c	n/a
673.8935	0.075	1347787	keystroke_o	o	n/a
674.0885	0.06	1348177	keystroke_n	n	n/a
674.5385	0.09	1349077	keystroke_s	s	n/a
675.0035	0.075	1350007	keystroke_r	r	n/a
675.783	0.075	1351566	keystroke_Key.backspace	Key.backspace	n/a
676.039	0.059	1352078	keystroke_t	t	n/a
676.443	0.09	1352886	keystroke_r	r	n/a
676.848	0.06	1353696	keystroke_u	u	n/a
677.073	0.0755	1354146	keystroke_c	c	n/a
677.4335	0.075	1354867	keystroke_t	t	n/a
677.8835	0.09	1355767	keystroke_Key.space	Key.space	n/a
678.333	0.075	1356666	keystroke_u	u	n/a
678.7085	0.105	1357417	keystroke_n	n	n/a
679.083	0.06	1358166	keystroke_d	d	n/a
679.2035	0.09	1358407	keystroke_o	o	n/a
679.638	0.09	1359276	keystroke_Key.space	Key.space	n/a
679.923	0.06	1359846	keystroke_f	f	n/a
680.178	0.075	1360356	keystroke_a	a	n/a
680.313	0.075	1360626	keystroke_k	k	n/a
680.463	0.075	1360926	keystroke_e	e	n/a
681.0935	0.09	1362187	keystroke_Key.enter	Key.enter	n/a
681.1885	15.5365	1362377	prompt	n/a	matt champagne primary exceptions\n
681.979	0.0745	1363958	keystroke_m	m	n/a
682.1735	0.09	1364347	keystroke_a	a	n/a
682.4885	0.075	1364977	keystroke_t	t	n/a
682.669	0.075	1365338	keystroke_t	t	n/a
682.923	0.091	1365846	keystroke_Key.space	Key.space	n/a
683.299	0.09	1366598	keystroke_c	c	n/a
683.434	0.059	1366868	keystroke_h	h	n/a
683.614	0.075	1367228	keystroke_a	a	n/a
683.794	0.0895	1367588	keystroke_m	m	n/a
684.439	0.105	1368878	keystroke_p	p	n/a
684.903	0.09	1369806	keystroke_a	a	n/a
685.248	0.105	1370496	keystroke_g	g	n/a
686.3435	0.09	1372687	keystroke_n	n	n/a
686.5235	0.06	1373047	keystroke_e	e	n/a
687.4235	0.075	1374847	keystroke_Key.space	Key.space	n/a
688.038	0.18	1376076	keystroke_p	p	n/a
688.458	0.075	1376916	keystroke_r	r	n/a
688.608	0.105	1377216	keystroke_o	o	n/a
688.863	0.105	1377726	keystroke_m	m	n/a
689.568	0.09	1379136	keystroke_Key.backspace	Key.backspace	n/a
689.9285	0.06	1379857	keystroke_Key.backspace	Key.backspace	n/a
690.4385	0.075	1380877	keystroke_i	i	n/a
690.694	0.0745	1381388	keystroke_m	m	n/a
691.3085	0.105	1382617	keystroke_a	a	n/a
691.5935	0.06	1383187	keystroke_r	r	n/a
691.7135	0.075	1383427	keystroke_y	y	n/a
691.9985	0.105	1383997	keystroke_Key.space	Key.space	n/a
692.6585	0.075	1385317	keystroke_e	e	n/a
692.9735	0.09	1385947	keystroke_x	x	n/a
694.0385	0.105	1388077	keystroke_c	c	n/a
694.3985	0.09	1388797	keystroke_e	e	n/a
694.6085	0.075	1389217	keystroke_p	p	n/a
695.028	0.06	1390056	keystroke_t	t	n/a
695.223	0.105	1390446	keystroke_i	i	n/a
695.403	0.105	1390806	keystroke_o	o	n/a
695.643	0.06	1391286	keystroke_n	n	n/a
695.914	0.075	1391828	keystroke_s	s	n/a
696.618	0.105	1393236	keystroke_Key.enter	Key.enter	n/a
696.728	12.492	1393456	prompt	n/a	female infections showing tourist\n
697.458	0.06	1394916	keystroke_f	f	n/a
697.728	0.06	1395456	keystroke_e	e	n/a
698.178	0.06	1396356	keystroke_m	m	n/a
698.508	0.09	1397016	keystroke_a	a	n/a
698.703	0.075	1397406	keystroke_l	l	n/a
698.988	0.075	1397976	keystroke_e	e	n/a
699.753	0.09	1399506	keystroke_Key.space	Key.space	n/a
699.948	0.105	1399896	keystroke_i	i	n/a
700.173	0.075	1400346	keystroke_n	n	n/a
700.3385	0.1045	1400677	keystroke_f	f	n/a
700.668	0.06	1401336	keystroke_e	e	n/a
700.983	0.105	1401966	keystroke_c	c	n/a
701.4335	0.09	1402867	keystroke_t	t	n/a
701.6885	0.09	1403377	keystroke_i	i	n/a
701.8685	0.09	1403737	keystroke_o	o	n/a
702.1085	0.06	1404217	keystroke_n	n	n/a
702.3335	0.09	1404667	keystroke_s	s	n/a
702.7685	0.09	1405537	keystroke_Key.space	Key.space	n/a
703.189	0.075	1406378	keystroke_s	s	n/a
703.294	0.075	1406588	keystroke_h	h	n/a
703.504	0.075	1407008	keystroke_o	o	n/a
703.9835	0.045	1407967	keystroke_w	w	n/a
704.0885	0.09	1408177	keystroke_i	i	n/a
704.3135	0.0905	1408627	keystroke_n	n	n/a
704.509	0.0445	1409018	keystroke_g	g	n/a
705.1685	0.09	1410337	keystroke_Key.space	Key.space	n/a
705.633	0.045	1411266	keystroke_t	t	n/a
705.874	0.09	1411748	keystroke_o	o	n/a
706.099	0.06	1412198	keystroke_u	u	n/a
706.669	0.06	1413338	keystroke_r	r	n/a
707.4335	0.06	1414867	keystroke_i	i	n/a
707.944	0.075	1415888	keystroke_s	s	n/a
708.364	0.09	1416728	keystroke_t	t	n/a
709.144	0.075	1418288	keystroke_Key.enter	Key.enter	n/a
709.223	10.3625	1418446	prompt	n/a	shoes newark framing line\n
710.014	0.075	1420028	keystroke_s	s	n/a
710.119	0.075	1420238	keystroke_h	h	n/a
710.314	0.09	1420628	keystroke_o	o	n/a
710.584	0.075	1421168	keystroke_e	e	n/a
710.929	0.06	1421858	keystroke_s	s	n/a
711.199	0.09	1422398	keystroke_Key.space	Key.space	n/a
711.4985	0.09	1422997	keystroke_n	n	n/a
711.6635	0.09	1423327	keystroke_e	e	n/a
712.0235	0.105	1424047	keystroke_w	w	n/a
712.5485	0.03	1425097	keystroke_a	a	n/a
712.9385	0.075	1425877	keystroke_r	r	n/a
713.2085	0.06	1426417	keystroke_k	k	n/a
713.4935	0.12	1426987	keystroke_Key.space	Key.space	n/a
714.1085	0.09	1428217	keystroke_f	f	n/a
714.4235	0.09	1428847	keystroke_r	r	n/a
714.6785	0.09	1429357	keystroke_a	a	n/a
714.8135	0.075	1429627	keystroke_m	m	n/a
715.579	0.06	1431158	keystroke_i	i	n/a
716.283	0.075	1432566	keystroke_n	n	n/a
717.633	0.06	1435266	keystroke_g	g	n/a
718.0535	0.09	1436107	keystroke_Key.space	Key.space	n/a
718.2935	0.105	1436587	keystroke_l	l	n/a
718.5035	0.075	1437007	keystroke_i	i	n/a
718.7285	0.06	1437457	keystroke_n	n	n/a
718.9235	0.045	1437847	keystroke_e	e	n/a
719.509	0.075	1439018	keystroke_Key.enter	Key.enter	n/a
719.5885	16.362	1439177	prompt	n/a	professionals monaco blue we're\n
720.4685	0.15	1440937	keystroke_[	[	n/a
721.4735	0.09	1442947	keystroke_Key.backspace	Key.backspace	n/a
722.5535	0.09	1445107	keystroke_p	p	n/a
722.8835	0.06	1445767	keystroke_r	r	n/a
723.0035	0.09	1446007	keystroke_o	o	n/a
723.2285	0.09	1446457	keystroke_f	f	n/a
723.828	0.061	1447656	keystroke_e	e	n/a
724.098	0.075	1448196	keystroke_s	s	n/a
724.263	0.075	1448526	keystroke_s	s	n/a
724.443	0.105	1448886	keystroke_i	i	n/a
724.578	0.12	1449156	keystroke_o	o	n/a
724.818	0.075	1449636	keystroke_n	n	n/a
725.6135	0.105	1451227	keystroke_a	a	n/a
725.929	0.09	1451858	keystroke_l	l	n/a
726.454	0.09	1452908	keystroke_s	s	n/a
726.708	0.105	1453416	keystroke_Key.space	Key.space	n/a
727.234	0.06	1454468	keystroke_m	m	n/a
727.5785	0.075	1455157	keystroke_o	o	n/a
727.7585	0.105	1455517	keystroke_n	n	n/a
728.6435	0.045	1457287	keystroke_a	a	n/a
729.018	0.075	1458036	keystroke_c	c	n/a
729.409	0.105	1458818	keystroke_o	o	n/a
729.678	0.105	1459356	keystroke_Key.space	Key.space	n/a
731.1335	0.045	1462267	keystroke_b	b	n/a
731.3585	0.09	1462717	keystroke_l	l	n/a
731.869	0.0895	1463738	keystroke_u	u	n/a
732.0785	0.0605	1464157	keystroke_e	e	n/a
732.544	0.0745	1465088	keystroke_Key.space	Key.space	n/a
732.934	0.075	1465868	keystroke_w	w	n/a
733.339	0.075	1466678	keystroke_e	e	n/a
733.8935	0.075	1467787	keystroke_'	'	n/a
734.0735	0.09	1468147	keystroke_r	r	n/a
734.3435	0.06	1468687	keystroke_e	e	n/a
735.889	0.06	1471778	keystroke_Key.enter	Key.enter	n/a
735.9535	12.162	1471907	prompt	n/a	penn starts expressions indication\n
736.684	0.105	1473368	keystroke_p	p	n/a
736.939	0.045	1473878	keystroke_e	e	n/a
737.179	0.075	1474358	keystroke_n	n	n/a
737.329	0.09	1474658	keystroke_n	n	n/a
737.659	0.075	1475318	keystroke_Key.space	Key.space	n/a
737.989	0.09	1475978	keystroke_s	s	n/a
738.289	0.06	1476578	keystroke_t	t	n/a
738.6035	0.105	1477207	keystroke_a	a	n/a
739.159	0.105	1478318	keystroke_r	r	n/a
739.684	0.075	1479368	keystroke_t	t	n/a
740.029	0.074	1480058	keystroke_s	s	n/a
740.7185	0.09	1481437	keystroke_Key.space	Key.space	n/a
741.0635	0.105	1482127	keystroke_e	e	n/a
741.424	0.12	1482848	keystroke_x	x	n/a
742.0535	0.045	1484107	keystroke_p	p	n/a
742.3245	0.089	1484649	keystroke_r	r	n/a
742.654	0.075	1485308	keystroke_e	e	n/a
742.969	0.075	1485938	keystroke_s	s	n/a
743.149	0.075	1486298	keystroke_s	s	n/a
743.329	0.09	1486658	keystroke_i	i	n/a
743.464	0.104	1486928	keystroke_o	o	n/a
743.688	0.09	1487376	keystroke_n	n	n/a
743.9135	0.09	1487827	keystroke_s	s	n/a
744.4835	0.09	1488967	keystroke_Key.space	Key.space	n/a
744.8885	0.045	1489777	keystroke_i	i	n/a
745.0385	0.09	1490077	keystroke_n	n	n/a
745.2635	0.075	1490527	keystroke_d	d	n/a
746.0135	0.045	1492027	keystroke_i	i	n/a
746.1935	0.075	1492387	keystroke_c	c	n/a
746.4635	0.105	1492927	keystroke_a	a	n/a
746.839	0.045	1493678	keystroke_t	t	n/a
746.974	0.075	1493948	keystroke_i	i	n/a
747.139	0.09	1494278	keystroke_o	o	n/a
747.379	0.075	1494758	keystroke_n	n	n/a
748.039	0.075	1496078	keystroke_Key.enter	Key.enter	n/a
748.12	16.9155	1496240	prompt	n/a	wheat charming violations libraries\n
748.984	0.09	1497968	keystroke_w	w	n/a
749.134	0.045	1498268	keystroke_h	h	n/a
749.3735	0.06	1498747	keystroke_e	e	n/a
749.6135	0.105	1499227	keystroke_a	a	n/a
749.899	0.09	1499798	keystroke_r	r	n/a
750.724	0.075	1501448	keystroke_Key.backspace	Key.backspace	n/a
750.919	0.075	1501838	keystroke_t	t	n/a
751.114	0.075	1502228	keystroke_Key.space	Key.space	n/a
751.5935	0.045	1503187	keystroke_h	h	n/a
752.164	0.075	1504328	keystroke_Key.backspace	Key.backspace	n/a
752.404	0.06	1504808	keystroke_c	c	n/a
752.554	0.075	1505108	keystroke_h	h	n/a
752.764	0.105	1505528	keystroke_a	a	n/a
753.064	0.09	1506128	keystroke_r	r	n/a
753.499	0.105	1506998	keystroke_m	m	n/a
754.0685	0.075	1508137	keystroke_i	i	n/a
754.263	0.091	1508526	keystroke_n	n	n/a
755.3435	0.06	1510687	keystroke_g	g	n/a
755.868	0.0755	1511736	keystroke_Key.space	Key.space	n/a
756.5885	0.091	1513177	keystroke_v	v	n/a
757.2335	0.076	1514467	keystroke_i	i	n/a
757.6385	0.075	1515277	keystroke_o	o	n/a
757.8635	0.09	1515727	keystroke_l	l	n/a
758.0735	0.075	1516147	keystroke_a	a	n/a
758.4785	0.09	1516957	keystroke_t	t	n/a
758.8385	0.09	1517677	keystroke_i	i	n/a
758.9885	0.135	1517977	keystroke_o	o	n/a
759.2285	0.075	1518457	keystroke_n	n	n/a
759.4685	0.06	1518937	keystroke_s	s	n/a
759.949	0.075	1519898	keystroke_Key.space	Key.space	n/a
760.519	0.12	1521038	keystroke_l	l	n/a
760.654	0.06	1521308	keystroke_i	i	n/a
760.954	0.105	1521908	keystroke_b	b	n/a
761.689	0.06	1523378	keystroke_r	r	n/a
762.004	0.1505	1524008	keystroke_a	a	n/a
762.3945	0.0885	1524789	keystroke_r	r	n/a
762.739	0.075	1525478	keystroke_i	i	n/a
763.474	0.09	1526948	keystroke_e	e	n/a
763.8485	0.045	1527697	keystroke_s	s	n/a
764.9285	0.105	1529857	keystroke_Key.enter	Key.enter	n/a
765.0385	16.062	1530077	prompt	n/a	midlands videos delaware assigned\n
765.783	0.091	1531566	keystroke_m	m	n/a
766.0085	0.046	1532017	keystroke_i	i	n/a
766.159	0.0745	1532318	keystroke_d	d	n/a
766.5495	0.06	1533099	keystroke_l	l	n/a
766.744	0.0755	1533488	keystroke_a	a	n/a
766.8935	0.061	1533787	keystroke_n	n	n/a
767.0895	0.074	1534179	keystroke_d	d	n/a
767.7795	0.0895	1535559	keystroke_s	s	n/a
767.944	0.09	1535888	keystroke_Key.space	Key.space	n/a
768.559	0.09	1537118	keystroke_v	v	n/a
769.159	0.045	1538318	keystroke_i	i	n/a
769.414	0.015	1538828	keystroke_d	d	n/a
769.654	0.06	1539308	keystroke_e	e	n/a
769.819	0.075	1539638	keystroke_o	o	n/a
770.5535	0.09	1541107	keystroke_s	s	n/a
770.7035	0.09	1541407	keystroke_Key.space	Key.space	n/a
771.1085	0.0755	1542217	keystroke_d	d	n/a
771.3935	0.075	1542787	keystroke_e	e	n/a
771.8735	0.075	1543747	keystroke_l	l	n/a
772.5635	0.09	1545127	keystroke_a	a	n/a
772.9835	0.075	1545967	keystroke_r	r	n/a
773.854	0.135	1547708	keystroke_Key.backspace	Key.backspace	n/a
774.5585	0.06	1549117	keystroke_w	w	n/a
775.0685	0.12	1550137	keystroke_a	a	n/a
775.639	0.105	1551278	keystroke_r	r	n/a
776.059	0.09	1552118	keystroke_e	e	n/a
776.599	0.045	1553198	keystroke_Key.space	Key.space	n/a
776.824	0.075	1553648	keystroke_a	a	n/a
777.109	0.105	1554218	keystroke_d	d	n/a
777.9035	0.06	1555807	keystroke_Key.backspace	Key.backspace	n/a
778.249	0.075	1556498	keystroke_s	s	n/a
778.444	0.09	1556888	keystroke_s	s	n/a
778.639	0.075	1557278	keystroke_i	i	n/a
778.894	0.075	1557788	keystroke_g	g	n/a
779.929	0.21	1559858	keystroke_n	n	n/a
780.154	0.045	1560308	keystroke_e	e	n/a
780.544	0.09	1561088	keystroke_d	d	n/a
781.069	0.03	1562138	keystroke_Key.enter	Key.enter	n/a
781.104	12.2215	1562208	prompt	n/a	boxes regular trio suites\n
781.969	0.015	1563938	keystroke_b	b	n/a
782.3135	0.045	1564627	keystroke_o	o	n/a
782.6285	0.12	1565257	keystroke_x	x	n/a
783.0335	0.075	1566067	keystroke_e	e	n/a
783.3485	0.09	1566697	keystroke_s	s	n/a
783.859	0.105	1567718	keystroke_Key.space	Key.space	n/a
784.204	0.03	1568408	keystroke_r	r	n/a
784.429	0.075	1568858	keystroke_e	e	n/a
785.1485	0.195	1570297	keystroke_g	g	n/a
785.6735	0.045	1571347	keystroke_u	u	n/a
785.9135	0.09	1571827	keystroke_l	l	n/a
786.1835	0.12	1572367	keystroke_a	a	n/a
786.514	0.075	1573028	keystroke_r	r	n/a
787.069	0.09	1574138	keystroke_Key.space	Key.space	n/a
787.369	0.075	1574738	keystroke_t	t	n/a
787.609	0.075	1575218	keystroke_r	r	n/a
788.209	0.09	1576418	keystroke_i	i	n/a
788.9285	0.09	1577857	keystroke_o	o	n/a
789.3635	0.105	1578727	keystroke_Key.space	Key.space	n/a
789.904	0.0605	1579808	keystroke_s	s	n/a
790.0245	0.0895	1580049	keystroke_u	u	n/a
790.399	0.06	1580798	keystroke_t	t	n/a
790.984	0.09	1581968	keystroke_Key.backspace	Key.backspace	n/a
791.494	0.06	1582988	keystroke_i	i	n/a
791.749	0.09	1583498	keystroke_t	t	n/a
792.394	0.075	1584788	keystroke_e	e	n/a
792.6945	0.105	1585389	keystroke_s	s	n/a
793.2345	0.09	1586469	keystroke_Key.enter	Key.enter	n/a
793.329	17.322	1586658	prompt	n/a	cuisine vietnam amenities cialis\n
794.449	0.12	1588898	keystroke_c	c	n/a
795.0935	0.12	1590187	keystroke_u	u	n/a
795.6785	0.09	1591357	keystroke_i	i	n/a
796.0985	0.076	1592197	keystroke_s	s	n/a
796.504	0.06	1593008	keystroke_i	i	n/a
796.7885	0.06	1593577	keystroke_n	n	n/a
797.0585	0.06	1594117	keystroke_e	e	n/a
797.464	0.0905	1594928	keystroke_Key.space	Key.space	n/a
798.1095	0.134	1596219	keystroke_v	v	n/a
798.994	0.06	1597988	keystroke_i	i	n/a
799.234	0.075	1598468	keystroke_e	e	n/a
799.564	0.09	1599128	keystroke_t	t	n/a
800.344	0.075	1600688	keystroke_n	n	n/a
800.674	0.075	1601348	keystroke_a	a	n/a
800.839	0.06	1601678	keystroke_m	m	n/a
801.529	0.075	1603058	keystroke_Key.space	Key.space	n/a
802.5485	0.076	1605097	keystroke_a	a	n/a
802.7145	0.074	1605429	keystroke_m	m	n/a
803.3135	0.06	1606627	keystroke_e	e	n/a
803.5835	0.075	1607167	keystroke_n	n	n/a
804.199	0.06	1608398	keystroke_i	i	n/a
804.424	0.075	1608848	keystroke_t	t	n/a
804.619	0.06	1609238	keystroke_i	i	n/a
805.819	0.075	1611638	keystroke_e	e	n/a
806.164	0.075	1612328	keystroke_s	s	n/a
806.6295	0.075	1613259	keystroke_Key.space	Key.space	n/a
806.9595	0.06	1613919	keystroke_c	c	n/a
807.4095	0.06	1614819	keystroke_i	i	n/a
808.264	0.09	1616528	keystroke_a	a	n/a
808.714	0.09	1617428	keystroke_l	l	n/a
809.4495	0.045	1618899	keystroke_i	i	n/a
809.7945	0.075	1619589	keystroke_s	s	n/a
810.5595	0.09	1621119	keystroke_Key.enter	Key.enter	n/a
810.6535	14.847	1621307	prompt	n/a	decided jake verified pump\n
811.504	0.09	1623008	keystroke_d	d	n/a
811.744	0.075	1623488	keystroke_e	e	n/a
812.074	0.075	1624148	keystroke_c	c	n/a
812.329	0.06	1624658	keystroke_i	i	n/a
812.989	0.12	1625978	keystroke_d	d	n/a
813.4545	0.06	1626909	keystroke_e	e	n/a
814.1145	0.074	1628229	keystroke_d	d	n/a
814.3535	0.105	1628707	keystroke_Key.space	Key.space	n/a
814.6085	0.09	1629217	keystroke_k	k	n/a
814.8335	0.06	1629667	keystroke_a	a	n/a
815.4335	0.105	1630867	keystroke_Key.backspace	Key.backspace	n/a
815.8385	0.061	1631677	keystroke_Key.backspace	Key.backspace	n/a
816.4545	0.119	1632909	keystroke_l	l	n/a
817.0385	0.09	1634077	keystroke_Key.backspace	Key.backspace	n/a
817.609	0.1055	1635218	keystroke_j	j	n/a
818.074	0.075	1636148	keystroke_a	a	n/a
818.389	0.06	1636778	keystroke_k	k	n/a
818.539	0.06	1637078	keystroke_e	e	n/a
818.974	0.09	1637948	keystroke_Key.space	Key.space	n/a
819.364	0.045	1638728	keystroke_v	v	n/a
819.709	0.1205	1639418	keystroke_e	e	n/a
820.8195	0.15	1641639	keystroke_r	r	n/a
821.2995	0.06	1642599	keystroke_i	i	n/a
821.5245	0.0745	1643049	keystroke_f	f	n/a
821.944	0.045	1643888	keystroke_i	i	n/a
822.154	0.075	1644308	keystroke_e	e	n/a
822.469	0.075	1644938	keystroke_d	d	n/a
823.309	0.09	1646618	keystroke_Key.space	Key.space	n/a
823.774	0.105	1647548	keystroke_p	p	n/a
823.999	0.06	1647998	keystroke_u	u	n/a
824.299	0.105	1648598	keystroke_m	m	n/a
824.569	0.135	1649138	keystroke_p	p	n/a
825.409	0.09	1650818	keystroke_Key.enter	Key.enter	n/a
825.5045	13.016	1651009	prompt	n/a	submission gilbert cluster derby\n
826.279	0.09	1652558	keystroke_s	s	n/a
826.444	0.075	1652888	keystroke_u	u	n/a
826.7135	0.075	1653427	keystroke_b	b	n/a
827.5535	0.09	1655107	keystroke_m	m	n/a
827.7935	0.075	1655587	keystroke_i	i	n/a
828.0635	0.075	1656127	keystroke_s	s	n/a
828.3035	0.03	1656607	keystroke_s	s	n/a
828.7535	0.12	1657507	keystroke_i	i	n/a
828.9185	0.12	1657837	keystroke_o	o	n/a
829.1885	0.076	1658377	keystroke_n	n	n/a
829.5035	0.09	1659007	keystroke_Key.space	Key.space	n/a
830.5085	0.075	1661017	keystroke_g	g	n/a
831.1835	0.075	1662367	keystroke_i	i	n/a
831.5585	0.09	1663117	keystroke_l	l	n/a
832.0695	0.0895	1664139	keystroke_b	b	n/a
832.909	0.105	1665818	keystroke_e	e	n/a
833.119	0.075	1666238	keystroke_r	r	n/a
833.374	0.075	1666748	keystroke_t	t	n/a
833.599	0.09	1667198	keystroke_Key.space	Key.space	n/a
834.004	0.075	1668008	keystroke_c	c	n/a
834.199	0.09	1668398	keystroke_l	l	n/a
834.499	0.09	1668998	keystroke_u	u	n/a
834.694	0.09	1669388	keystroke_s	s	n/a
835.009	0.075	1670018	keystroke_t	t	n/a
835.249	0.0755	1670498	keystroke_e	e	n/a
835.4745	0.075	1670949	keystroke_r	r	n/a
835.6235	0.106	1671247	keystroke_Key.space	Key.space	n/a
836.479	0.075	1672958	keystroke_d	d	n/a
836.839	0.075	1673678	keystroke_e	e	n/a
837.139	0.075	1674278	keystroke_r	r	n/a
837.514	0.045	1675028	keystroke_b	b	n/a
837.799	0.09	1675598	keystroke_y	y	n/a
838.429	0.09	1676858	keystroke_Key.enter	Key.enter	n/a
838.5235	15.6425	1677047	prompt	n/a	develops updates sudden oasis\n
839.284	0.0755	1678568	keystroke_v	v	n/a
839.5985	0.076	1679197	keystroke_e	e	n/a
840.229	0.105	1680458	keystroke_Key.backspace	Key.backspace	n/a
840.4985	0.09	1680997	keystroke_Key.backspace	Key.backspace	n/a
841.114	0.075	1682228	keystroke_d	d	n/a
841.789	0.0745	1683578	keystroke_e	e	n/a
842.089	0.09	1684178	keystroke_v	v	n/a
842.449	0.0895	1684898	keystroke_e	e	n/a
843.5445	0.09	1687089	keystroke_o	o	n/a
844.069	0.06	1688138	keystroke_Key.backspace	Key.backspace	n/a
844.534	0.09	1689068	keystroke_l	l	n/a
844.744	0.105	1689488	keystroke_o	o	n/a
845.029	0.09	1690058	keystroke_p	p	n/a
845.719	0.075	1691438	keystroke_s	s	n/a
845.869	0.105	1691738	keystroke_Key.space	Key.space	n/a
846.169	0.06	1692338	keystroke_u	u	n/a
846.454	0.075	1692908	keystroke_n	n	n/a
847.0545	0.0445	1694109	keystroke_Key.backspace	Key.backspace	n/a
847.6545	0.0745	1695309	keystroke_p	p	n/a
848.4345	0.045	1696869	keystroke_d	d	n/a
848.6145	0.105	1697229	keystroke_a	a	n/a
848.8995	0.075	1697799	keystroke_t	t	n/a
849.1395	0.075	1698279	keystroke_e	e	n/a
849.3495	0.09	1698699	keystroke_s	s	n/a
849.9045	0.09	1699809	keystroke_Key.space	Key.space	n/a
850.2645	0.075	1700529	keystroke_s	s	n/a
850.4145	0.075	1700829	keystroke_u	u	n/a
850.624	0.06	1701248	keystroke_d	d	n/a
850.759	0.09	1701518	keystroke_d	d	n/a
851.029	0.061	1702058	keystroke_e	e	n/a
851.194	0.075	1702388	keystroke_n	n	n/a
851.569	0.0755	1703138	keystroke_Key.space	Key.space	n/a
852.0645	0.09	1704129	keystroke_o	o	n/a
852.3495	0.104	1704699	keystroke_a	a	n/a
852.709	0.1055	1705418	keystroke_s	s	n/a
853.204	0.06	1706408	keystroke_i	i	n/a
853.384	0.105	1706768	keystroke_s	s	n/a
854.0895	0.075	1708179	keystroke_Key.enter	Key.enter	n/a
854.169	16.2425	1708338	prompt	n/a	focus new necessarily excited\n
854.8695	0.074	1709739	keystroke_f	f	n/a
855.1695	0.059	1710339	keystroke_o	o	n/a
855.4235	0.075	1710847	keystroke_c	c	n/a
855.9345	0.0595	1711869	keystroke_u	u	n/a
856.249	0.075	1712498	keystroke_s	s	n/a
856.549	0.075	1713098	keystroke_Key.space	Key.space	n/a
856.894	0.075	1713788	keystroke_n	n	n/a
857.089	0.075	1714178	keystroke_e	e	n/a
857.359	0.075	1714718	keystroke_w	w	n/a
857.509	0.075	1715018	keystroke_Key.space	Key.space	n/a
858.034	0.06	1716068	keystroke_n	n	n/a
858.379	0.09	1716758	keystroke_e	e	n/a
858.6795	0.0895	1717359	keystroke_c	c	n/a
858.9645	0.1045	1717929	keystroke_e	e	n/a
859.369	0.106	1718738	keystroke_r	r	n/a
859.8345	0.09	1719669	keystroke_s	s	n/a
860.0745	0.09	1720149	keystroke_s	s	n/a
860.54	0.104	1721080	keystroke_a	a	n/a
861.379	0.09	1722758	keystroke_Key.backspace	Key.backspace	n/a
861.9045	0.105	1723809	keystroke_Key.backspace	Key.backspace	n/a
862.4745	0.09	1724949	keystroke_Key.backspace	Key.backspace	n/a
863.0445	0.09	1726089	keystroke_Key.backspace	Key.backspace	n/a
863.8995	0.09	1727799	keystroke_s	s	n/a
864.5295	0.075	1729059	keystroke_s	s	n/a
864.8295	0.105	1729659	keystroke_a	a	n/a
865.1895	0.09	1730379	keystroke_r	r	n/a
865.6095	0.075	1731219	keystroke_i	i	n/a
865.7895	0.135	1731579	keystroke_l	l	n/a
866.1495	0.075	1732299	keystroke_y	y	n/a
867.14	0.12	1734280	keystroke_Key.space	Key.space	n/a
867.455	0.09	1734910	keystroke_e	e	n/a
867.83	0.075	1735660	keystroke_x	x	n/a
868.6395	0.075	1737279	keystroke_c	c	n/a
868.8495	0.06	1737699	keystroke_i	i	n/a
869.1195	0.09	1738239	keystroke_t	t	n/a
869.3755	0.09	1738751	keystroke_e	e	n/a
869.6305	0.075	1739261	keystroke_d	d	n/a
870.3945	0.015	1740789	keystroke_Key.enter	Key.enter	n/a
870.4145	16.873	1740829	prompt	n/a	contract christina velvet computers\n
871.3255	0.105	1742651	keystroke_c	c	n/a
871.4895	0.075	1742979	keystroke_o	o	n/a
871.7155	0.06	1743431	keystroke_n	n	n/a
872.5555	0.015	1745111	keystroke_s	s	n/a
872.96	0.06	1745920	keystroke_Key.backspace	Key.backspace	n/a
873.185	0.09	1746370	keystroke_t	t	n/a
873.4405	0.075	1746881	keystroke_r	r	n/a
873.7705	0.105	1747541	keystroke_a	a	n/a
874.1155	0.09	1748231	keystroke_c	c	n/a
874.4605	0.06	1748921	keystroke_t	t	n/a
874.6555	0.09	1749311	keystroke_Key.space	Key.space	n/a
875.33	0.015	1750660	keystroke_c	c	n/a
875.42	0.075	1750840	keystroke_h	h	n/a
875.8555	0.06	1751711	keystroke_r	r	n/a
876.335	0.045	1752670	keystroke_i	i	n/a
876.83	0.06	1753660	keystroke_s	s	n/a
877.8655	0.075	1755731	keystroke_t	t	n/a
878.0755	0.075	1756151	keystroke_i	i	n/a
878.3605	0.06	1756721	keystroke_n	n	n/a
878.6455	0.075	1757291	keystroke_a	a	n/a
879.14	0.105	1758280	keystroke_Key.space	Key.space	n/a
879.47	0.09	1758940	keystroke_v	v	n/a
879.815	0.03	1759630	keystroke_e	e	n/a
879.995	0.09	1759990	keystroke_l	l	n/a
881.526	0.0895	1763052	keystroke_v	v	n/a
882.1255	0.06	1764251	keystroke_e	e	n/a
882.4555	0.075	1764911	keystroke_t	t	n/a
882.8905	0.105	1765781	keystroke_Key.space	Key.space	n/a
883.2505	0.075	1766501	keystroke_c	c	n/a
883.3855	0.06	1766771	keystroke_o	o	n/a
883.8055	0.15	1767611	keystroke_m	m	n/a
884.3155	0.09	1768631	keystroke_p	p	n/a
884.721	0.09	1769442	keystroke_u	u	n/a
884.976	0.105	1769952	keystroke_t	t	n/a
885.246	0.09	1770492	keystroke_e	e	n/a
885.7255	0.075	1771451	keystroke_r	r	n/a
886.116	0.075	1772232	keystroke_s	s	n/a
887.1955	0.09	1774391	keystroke_Key.enter	Key.enter	n/a
887.2905	14.4565	1774581	prompt	n/a	granted multi helena periodic\n
888.17	0.075	1776340	keystroke_g	g	n/a
888.41	0.0905	1776820	keystroke_r	r	n/a
888.6655	0.09	1777331	keystroke_a	a	n/a
888.8005	0.06	1777601	keystroke_n	n	n/a
889.0555	0.075	1778111	keystroke_t	t	n/a
889.3255	0.075	1778651	keystroke_e	e	n/a
889.5505	0.09	1779101	keystroke_d	d	n/a
890.256	0.075	1780512	keystroke_Key.space	Key.space	n/a
890.691	0.075	1781382	keystroke_m	m	n/a
891.126	0.104	1782252	keystroke_u	u	n/a
892.1015	0.089	1784203	keystroke_l	l	n/a
892.6105	0.075	1785221	keystroke_t	t	n/a
892.8205	0.06	1785641	keystroke_i	i	n/a
893.66	0.0905	1787320	keystroke_Key.space	Key.space	n/a
894.051	0.09	1788102	keystroke_h	h	n/a
894.276	0.075	1788552	keystroke_e	e	n/a
894.801	0.09	1789602	keystroke_l	l	n/a
895.191	0.03	1790382	keystroke_e	e	n/a
895.4305	0.045	1790861	keystroke_n	n	n/a
895.866	0.12	1791732	keystroke_a	a	n/a
896.346	0.075	1792692	keystroke_Key.space	Key.space	n/a
897.066	0.075	1794132	keystroke_p	p	n/a
897.261	0.09	1794522	keystroke_e	e	n/a
897.561	0.075	1795122	keystroke_r	r	n/a
898.3105	0.045	1796621	keystroke_i	i	n/a
899.33	0.046	1798660	keystroke_o	o	n/a
899.585	0.076	1799170	keystroke_d	d	n/a
900.276	0.12	1800552	keystroke_i	i	n/a
900.486	0.06	1800972	keystroke_c	c	n/a
901.686	0.06	1803372	keystroke_Key.enter	Key.enter	n/a
901.752	16.1085	1803504	prompt	n/a	mean registration designed antigua\n
902.466	0.105	1804932	keystroke_m	m	n/a
902.631	0.06	1805262	keystroke_e	e	n/a
902.826	0.075	1805652	keystroke_a	a	n/a
902.946	0.06	1805892	keystroke_n	n	n/a
903.276	0.105	1806552	keystroke_Key.space	Key.space	n/a
903.7555	0.09	1807511	keystroke_r	r	n/a
903.9655	0.0905	1807931	keystroke_e	e	n/a
904.611	0.075	1809222	keystroke_g	g	n/a
905.121	0.06	1810242	keystroke_i	i	n/a
905.436	0.09	1810872	keystroke_s	s	n/a
905.826	0.075	1811652	keystroke_t	t	n/a
906.111	0.105	1812222	keystroke_r	r	n/a
906.486	0.105	1812972	keystroke_a	a	n/a
907.401	0.059	1814802	keystroke_t	t	n/a
907.475	0.12	1814950	keystroke_i	i	n/a
907.641	0.089	1815282	keystroke_o	o	n/a
907.851	0.09	1815702	keystroke_n	n	n/a
908.06	0.106	1816120	keystroke_Key.space	Key.space	n/a
908.57	0.105	1817140	keystroke_d	d	n/a
908.856	0.075	1817712	keystroke_e	e	n/a
909.366	0.119	1818732	keystroke_s	s	n/a
909.83	0.061	1819660	keystroke_i	i	n/a
910.1305	0.075	1820261	keystroke_g	g	n/a
910.7455	0.075	1821491	keystroke_n	n	n/a
910.9705	0.06	1821941	keystroke_e	e	n/a
911.2105	0.09	1822421	keystroke_d	d	n/a
911.4055	0.09	1822811	keystroke_Key.space	Key.space	n/a
912.156	0.09	1824312	keystroke_a	a	n/a
912.306	0.06	1824612	keystroke_n	n	n/a
912.8	0.075	1825600	keystroke_t	t	n/a
913.191	0.075	1826382	keystroke_i	i	n/a
913.566	0.0745	1827132	keystroke_g	g	n/a
914.6305	0.075	1829261	keystroke_u	u	n/a
915.2455	0.015	1830491	keystroke_a	a	n/a
917.858	0.001	1835716	keystroke_Key.enter	Key.enter	n/a
917.863	17.334	1835726	prompt	n/a	substantially jeans informational houses\n
918.5905	0.0755	1837181	keystroke_s	s	n/a
918.741	0.105	1837482	keystroke_u	u	n/a
919.026	0.06	1838052	keystroke_b	b	n/a
920.001	0.104	1840002	keystroke_s	s	n/a
920.33	0.06	1840660	keystroke_t	t	n/a
921.02	0.03	1842040	keystroke_a	a	n/a
921.291	0.075	1842582	keystroke_n	n	n/a
922.085	0.075	1844170	keystroke_t	t	n/a
922.6255	0.045	1845251	keystroke_i	i	n/a
922.9255	0.045	1845851	keystroke_a	a	n/a
923.046	0.074	1846092	keystroke_l	l	n/a
923.18	0.06	1846360	keystroke_l	l	n/a
923.465	0.09	1846930	keystroke_y	y	n/a
923.675	0.12	1847350	keystroke_Key.space	Key.space	n/a
924.29	0.075	1848580	keystroke_j	j	n/a
924.56	0.06	1849120	keystroke_e	e	n/a
924.8	0.075	1849600	keystroke_a	a	n/a
924.92	0.045	1849840	keystroke_n	n	n/a
925.19	0.075	1850380	keystroke_s	s	n/a
925.491	0.1045	1850982	keystroke_Key.space	Key.space	n/a
925.896	0.06	1851792	keystroke_i	i	n/a
926.091	0.089	1852182	keystroke_n	n	n/a
926.301	0.09	1852602	keystroke_f	f	n/a
926.421	0.089	1852842	keystroke_o	o	n/a
926.6305	0.075	1853261	keystroke_r	r	n/a
927.2905	0.075	1854581	keystroke_e	e	n/a
928.0405	0.045	1856081	keystroke_m	m	n/a
928.7305	0.09	1857461	keystroke_Key.backspace	Key.backspace	n/a
929.2555	0.0745	1858511	keystroke_Key.backspace	Key.backspace	n/a
929.781	0.06	1859562	keystroke_m	m	n/a
930.051	0.119	1860102	keystroke_a	a	n/a
930.425	0.075	1860850	keystroke_t	t	n/a
930.561	0.074	1861122	keystroke_i	i	n/a
930.725	0.09	1861450	keystroke_o	o	n/a
931.205	0.105	1862410	keystroke_n	n	n/a
931.655	0.09	1863310	keystroke_a	a	n/a
932.1055	0.09	1864211	keystroke_l	l	n/a
932.3755	0.09	1864751	keystroke_Key.space	Key.space	n/a
932.9155	0.09	1865831	keystroke_h	h	n/a
933.126	0.1045	1866252	keystroke_o	o	n/a
933.3955	0.06	1866791	keystroke_u	u	n/a
933.5905	0.09	1867181	keystroke_s	s	n/a
933.906	0.06	1867812	keystroke_e	e	n/a
934.146	0.09	1868292	keystroke_s	s	n/a
935.1805	0.015	1870361	keystroke_Key.enter	Key.enter	n/a
935.2005	19.647	1870401	prompt	n/a	plain elimination xbox curious\n
935.9605	0.09	1871921	keystroke_p	p	n/a
936.186	0.135	1872372	keystroke_l	l	n/a
936.501	0.075	1873002	keystroke_a	a	n/a
936.591	0.075	1873182	keystroke_i	i	n/a
936.801	0.075	1873602	keystroke_n	n	n/a
937.026	0.075	1874052	keystroke_Key.space	Key.space	n/a
937.8205	0.075	1875641	keystroke_e	e	n/a
938.075	0.06	1876150	keystroke_l	l	n/a
938.585	0.09	1877170	keystroke_i	i	n/a
938.84	0.075	1877680	keystroke_m	m	n/a
939.125	0.09	1878250	keystroke_i	i	n/a
939.32	0.09	1878640	keystroke_n	n	n/a
939.65	0.0455	1879300	keystroke_t	t	n/a
939.9505	0.09	1879901	keystroke_a	a	n/a
941.5705	0.0745	1883141	keystroke_Key.backspace	Key.backspace	n/a
942.2755	0.09	1884551	keystroke_Key.backspace	Key.backspace	n/a
943.01	0.0755	1886020	keystroke_a	a	n/a
943.416	0.045	1886832	keystroke_t	t	n/a
943.551	0.075	1887102	keystroke_i	i	n/a
943.716	0.09	1887432	keystroke_o	o	n/a
943.9255	0.075	1887851	keystroke_n	n	n/a
944.511	0.075	1889022	keystroke_Key.space	Key.space	n/a
945.036	0.089	1890072	keystroke_c	c	n/a
945.7405	0.075	1891481	keystroke_Key.backspace	Key.backspace	n/a
946.0405	0.09	1892081	keystroke_x	x	n/a
946.9855	0.0595	1893971	keystroke_b	b	n/a
947.18	0.09	1894360	keystroke_o	o	n/a
947.436	0.074	1894872	keystroke_s	s	n/a
948.1555	0.0755	1896311	keystroke_Key.backspace	Key.backspace	n/a
948.8605	0.09	1897721	keystroke_x	x	n/a
949.491	0.075	1898982	keystroke_Key.space	Key.space	n/a
950.7205	0.075	1901441	keystroke_s	s	n/a
951.456	0.105	1902912	keystroke_Key.backspace	Key.backspace	n/a
951.696	0.06	1903392	keystroke_c	c	n/a
952.1005	0.075	1904201	keystroke_u	u	n/a
952.3105	0.045	1904621	keystroke_r	r	n/a
953.21	0.075	1906420	keystroke_i	i	n/a
953.375	0.105	1906750	keystroke_o	o	n/a
953.6305	0.06	1907261	keystroke_u	u	n/a
953.856	0.075	1907712	keystroke_s	s	n/a
954.786	0.06	1909572	keystroke_Key.enter	Key.enter	n/a
954.85	15.597	1909700	prompt	n/a	emphasis jackson prep perspective\n
955.6405	0.09	1911281	keystroke_e	e	n/a
955.7755	0.105	1911551	keystroke_m	m	n/a
956.5855	0.105	1913171	keystroke_p	p	n/a
957.0955	0.09	1914191	keystroke_h	h	n/a
957.635	0.061	1915270	keystroke_a	a	n/a
957.935	0.075	1915870	keystroke_s	s	n/a
958.4455	0.075	1916891	keystroke_i	i	n/a
958.6855	0.09	1917371	keystroke_s	s	n/a
959.3305	0.09	1918661	keystroke_Key.space	Key.space	n/a
959.6155	0.075	1919231	keystroke_j	j	n/a
959.826	0.09	1919652	keystroke_a	a	n/a
960.186	0.09	1920372	keystroke_c	c	n/a
960.351	0.09	1920702	keystroke_k	k	n/a
961.206	0.074	1922412	keystroke_s	s	n/a
961.341	0.089	1922682	keystroke_o	o	n/a
961.79	0.0755	1923580	keystroke_n	n	n/a
962.4805	0.12	1924961	keystroke_Key.space	Key.space	n/a
962.7955	0.12	1925591	keystroke_p	p	n/a
963.0055	0.075	1926011	keystroke_r	r	n/a
963.2455	0.075	1926491	keystroke_e	e	n/a
963.6505	0.075	1927301	keystroke_p	p	n/a
964.131	0.12	1928262	keystroke_Key.space	Key.space	n/a
964.611	0.09	1929222	keystroke_p	p	n/a
964.7755	0.09	1929551	keystroke_e	e	n/a
964.9855	0.075	1929971	keystroke_r	r	n/a
965.3155	0.09	1930631	keystroke_s	s	n/a
966.2005	0.06	1932401	keystroke_p	p	n/a
967.6255	0.075	1935251	keystroke_e	e	n/a
968.0005	0.075	1936001	keystroke_c	c	n/a
968.45	0.075	1936900	keystroke_t	t	n/a
968.72	0.046	1937440	keystroke_i	i	n/a
968.916	0.09	1937832	keystroke_v	v	n/a
969.2605	0.045	1938521	keystroke_e	e	n/a
970.4005	0.045	1940801	keystroke_Key.enter	Key.enter	n/a
970.45	17.922	1940900	prompt	n/a	switching measures furnished attractive\n
971.2405	0.075	1942481	keystroke_w	w	n/a
971.676	0.06	1943352	keystroke_e	e	n/a
972.1705	0.105	1944341	keystroke_Key.backspace	Key.backspace	n/a
972.5455	0.075	1945091	keystroke_Key.backspace	Key.backspace	n/a
973.1	0.09	1946200	keystroke_s	s	n/a
973.835	0.045	1947670	keystroke_e	e	n/a
974.5255	0.075	1949051	keystroke_Key.backspace	Key.backspace	n/a
974.7805	0.075	1949561	keystroke_w	w	n/a
975.4405	0.06	1950881	keystroke_i	i	n/a
975.725	0.06	1951450	keystroke_t	t	n/a
976.341	0.06	1952682	keystroke_c	c	n/a
976.506	0.075	1953012	keystroke_h	h	n/a
976.9555	0.0755	1953911	keystroke_i	i	n/a
977.166	0.045	1954332	keystroke_n	n	n/a
977.286	0.0745	1954572	keystroke_g	g	n/a
977.4655	0.075	1954931	keystroke_Key.space	Key.space	n/a
977.7655	0.0595	1955531	keystroke_m	m	n/a
977.9	0.0755	1955800	keystroke_e	e	n/a
978.1555	0.0895	1956311	keystroke_a	a	n/a
978.4405	0.105	1956881	keystroke_s	s	n/a
978.9355	0.06	1957871	keystroke_u	u	n/a
979.1455	0.09	1958291	keystroke_r	r	n/a
979.3705	0.075	1958741	keystroke_e	e	n/a
979.686	0.074	1959372	keystroke_s	s	n/a
980.165	0.09	1960330	keystroke_Key.space	Key.space	n/a
980.646	0.06	1961292	keystroke_f	f	n/a
980.886	0.06	1961772	keystroke_u	u	n/a
981.156	0.075	1962312	keystroke_r	r	n/a
981.6205	0.03	1963241	keystroke_n	n	n/a
982.026	0.075	1964052	keystroke_i	i	n/a
982.236	0.075	1964472	keystroke_s	s	n/a
982.356	0.075	1964712	keystroke_h	h	n/a
982.716	0.059	1965432	keystroke_e	e	n/a
982.986	0.045	1965972	keystroke_d	d	n/a
983.27	0.09	1966540	keystroke_Key.space	Key.space	n/a
983.6	0.106	1967200	keystroke_a	a	n/a
983.946	0.06	1967892	keystroke_t	t	n/a
984.095	0.09	1968190	keystroke_t	t	n/a
984.815	0.075	1969630	keystroke_r	r	n/a
985.101	0.119	1970202	keystroke_a	a	n/a
