onset	duration	sample	value	key	prompt_text
6.8505	10.0715	13701	prompt	n/a	the quick brown fox jumps over a lazy dog\n
8.221	0.028	16442	keystroke	t	n/a
8.294	0.075	16588	keystroke	h	n/a
8.384	0.105	16768	keystroke	e	n/a
8.7735	0.135	17547	keystroke	Key.space	n/a
9.0135	0.09	18027	keystroke	q	n/a
9.194	0.09	18388	keystroke	u	n/a
9.359	0.105	18718	keystroke	c	n/a
9.449	0.12	18898	keystroke	i	n/a
9.644	0.1045	19288	keystroke	Key.space	n/a
9.704	0.165	19408	keystroke	k	n/a
10.2295	0.09	20459	keystroke	Key.backspace	n/a
10.3945	0.075	20789	keystroke	Key.backspace	n/a
10.5445	0.075	21089	keystroke	Key.backspace	n/a
10.6935	0.09	21387	keystroke	Key.backspace	n/a
10.9035	0.076	21807	keystroke	i	n/a
11.144	0.075	22288	keystroke	c	n/a
11.264	0.12	22528	keystroke	k	n/a
11.4145	0.09	22829	keystroke	Key.space	n/a
11.6395	0.075	23279	keystroke	b	n/a
11.834	0.075	23668	keystroke	r	n/a
11.924	0.105	23848	keystroke	o	n/a
12.044	0.09	24088	keystroke	w	n/a
12.164	0.1195	24328	keystroke	n	n/a
12.2385	0.12	24477	keystroke	Key.space	n/a
12.4035	0.09	24807	keystroke	f	n/a
12.5395	0.119	25079	keystroke	o	n/a
12.6745	0.104	25349	keystroke	x	n/a
12.8245	0.119	25649	keystroke	Key.space	n/a
13.0635	0.0905	26127	keystroke	j	n/a
13.274	0.075	26548	keystroke	u	n/a
13.469	0.12	26938	keystroke	m	n/a
13.589	0.12	27178	keystroke	p	n/a
13.7835	0.135	27567	keystroke	s	n/a
13.8585	0.135	27717	keystroke	Key.space	n/a
14.1885	0.105	28377	keystroke	o	n/a
14.2785	0.061	28557	keystroke	v	n/a
14.4285	0.15	28857	keystroke	e	n/a
14.5045	0.15	29009	keystroke	r	n/a
14.5945	0.149	29189	keystroke	Key.space	n/a
14.7285	0.151	29457	keystroke	a	n/a
14.8485	0.0905	29697	keystroke	Key.space	n/a
15.5095	0.135	31019	keystroke	l	n/a
15.6735	0.105	31347	keystroke	a	n/a
15.8995	0.12	31799	keystroke	z	n/a
16.0345	0.09	32069	keystroke	y	n/a
16.1845	0.104	32369	keystroke	Key.space	n/a
16.3335	0.105	32667	keystroke	d	n/a
16.4695	0.134	32939	keystroke	o	n/a
16.619	0.0745	33238	keystroke	g	n/a
16.8435	0.075	33687	keystroke	Key.enter	n/a
16.9265	12.5355	33853	prompt	n/a	recruiting volkswagen appointments motherboard\n
17.5935	0.1205	35187	keystroke	r	n/a
17.684	0.09	35368	keystroke	e	n/a
17.954	0.0745	35908	keystroke	c	n/a
18.1495	0.074	36299	keystroke	r	n/a
18.4935	0.105	36987	keystroke	u	n/a
18.6585	0.09	37317	keystroke	i	n/a
18.8685	0.0905	37737	keystroke	t	n/a
19.0185	0.1355	38037	keystroke	i	n/a
19.1085	0.1195	38217	keystroke	n	n/a
19.244	0.1205	38488	keystroke	g	n/a
19.3335	0.105	38667	keystroke	Key.space	n/a
19.8295	0.074	39659	keystroke	v	n/a
20.129	0.105	40258	keystroke	o	n/a
20.399	0.1055	40798	keystroke	l	n/a
20.8485	0.15	41697	keystroke	k	n/a
21.2235	0.09	42447	keystroke	s	n/a
21.6435	0.075	43287	keystroke	w	n/a
21.8235	0.135	43647	keystroke	a	n/a
21.9885	0.075	43977	keystroke	g	n/a
22.1385	0.09	44277	keystroke	e	n/a
22.3485	0.09	44697	keystroke	n	n/a
22.574	0.09	45148	keystroke	Key.space	n/a
23.3535	0.121	46707	keystroke	a	n/a
23.5185	0.0905	47037	keystroke	p	n/a
23.699	0.105	47398	keystroke	p	n/a
23.969	0.21	47938	keystroke	o	n/a
24.164	0.18	48328	keystroke	i	n/a
24.359	0.135	48718	keystroke	n	n/a
24.584	0.105	49168	keystroke	t	n/a
24.704	0.105	49408	keystroke	e	n/a
24.914	0.09	49828	keystroke	m	n/a
25.7835	0.09	51567	keystroke	Key.backspace	n/a
25.9785	0.09	51957	keystroke	Key.backspace	n/a
26.204	0.1055	52408	keystroke	m	n/a
26.3385	0.09	52677	keystroke	e	n/a
26.4435	0.09	52887	keystroke	n	n/a
26.5645	0.09	53129	keystroke	t	n/a
26.9085	0.121	53817	keystroke	s	n/a
27.0585	0.12	54117	keystroke	Key.space	n/a
27.5385	0.09	55077	keystroke	m	n/a
27.6585	0.121	55317	keystroke	o	n/a
27.7935	0.076	55587	keystroke	t	n/a
27.8985	0.075	55797	keystroke	h	n/a
27.9595	0.119	55919	keystroke	e	n/a
28.0495	0.074	56099	keystroke	r	n/a
28.319	0.06	56638	keystroke	b	n/a
28.439	0.135	56878	keystroke	o	n/a
28.559	0.165	57118	keystroke	a	n/a
28.664	0.1345	57328	keystroke	r	n/a
28.828	0.12	57656	keystroke	d	n/a
29.3685	0.09	58737	keystroke	Key.enter	n/a
29.467	8.3335	58934	prompt	n/a	enhancement endless shorts equation\n
30.149	0.0745	60298	keystroke	e	n/a
30.4185	0.1205	60837	keystroke	n	n/a
30.7935	0.09	61587	keystroke	h	n/a
30.9445	0.134	61889	keystroke	a	n/a
31.0935	0.0755	62187	keystroke	n	n/a
31.319	0.075	62638	keystroke	c	n/a
31.799	0.075	63598	keystroke	e	n/a
31.919	0.075	63838	keystroke	m	n/a
32.024	0.09	64048	keystroke	e	n/a
32.144	0.075	64288	keystroke	n	n/a
32.204	0.075	64408	keystroke	t	n/a
32.789	0.09	65578	keystroke	Key.space	n/a
33.134	0.06	66268	keystroke	e	n/a
33.284	0.105	66568	keystroke	n	n/a
33.404	0.075	66808	keystroke	d	n/a
33.614	0.105	67228	keystroke	l	n/a
33.734	0.12	67468	keystroke	e	n/a
33.824	0.09	67648	keystroke	s	n/a
34.004	0.12	68008	keystroke	s	n/a
34.109	0.09	68218	keystroke	Key.space	n/a
34.289	0.075	68578	keystroke	s	n/a
34.349	0.09	68698	keystroke	h	n/a
34.469	0.09	68938	keystroke	o	n/a
34.604	0.06	69208	keystroke	r	n/a
34.784	0.075	69568	keystroke	t	n/a
34.964	0.09	69928	keystroke	s	n/a
35.834	0.09	71668	keystroke	Key.space	n/a
36.164	0.06	72328	keystroke	e	n/a
36.4645	0.074	72929	keystroke	q	n/a
36.6135	0.06	73227	keystroke	u	n/a
36.7185	0.18	73437	keystroke	a	n/a
36.9135	0.075	73827	keystroke	t	n/a
37.0345	0.2245	74069	keystroke	i	n/a
37.1535	0.15	74307	keystroke	o	n/a
37.274	0.105	74548	keystroke	n	n/a
37.724	0.075	75448	keystroke	Key.enter	n/a
37.806	8.169	75612	prompt	n/a	tender ships computers lawsuit\n
38.4735	0.075	76947	keystroke	t	n/a
38.594	0.09	77188	keystroke	e	n/a
38.729	0.09	77458	keystroke	n	n/a
38.999	0.18	77998	keystroke	e	n/a
39.524	0.105	79048	keystroke	Key.backspace	n/a
39.7345	0.0595	79469	keystroke	d	n/a
39.914	0.18	79828	keystroke	e	n/a
40.019	0.15	80038	keystroke	r	n/a
40.154	0.09	80308	keystroke	Key.space	n/a
40.319	0.09	80638	keystroke	s	n/a
40.424	0.135	80848	keystroke	h	n/a
40.529	0.18	81058	keystroke	i	n/a
40.679	0.12	81358	keystroke	p	n/a
40.874	0.15	81748	keystroke	s	n/a
40.994	0.135	81988	keystroke	Key.space	n/a
41.579	0.075	83158	keystroke	c	n/a
41.669	0.15	83338	keystroke	o	n/a
41.759	0.165	83518	keystroke	m	n/a
41.939	0.135	83878	keystroke	p	n/a
42.089	0.105	84178	keystroke	u	n/a
42.224	0.1045	84448	keystroke	t	n/a
42.3595	0.149	84719	keystroke	e	n/a
42.4785	0.1055	84957	keystroke	r	n/a
43.199	0.105	86398	keystroke	s	n/a
43.484	0.015	86968	keystroke	Key.space	n/a
43.844	0.134	87688	keystroke	l	n/a
43.949	0.164	87898	keystroke	a	n/a
44.098	0.105	88196	keystroke	w	n/a
44.7585	0.075	89517	keystroke	s	n/a
45.0585	0.105	90117	keystroke	u	n/a
45.1785	0.105	90357	keystroke	i	n/a
45.3735	0.075	90747	keystroke	t	n/a
45.8835	0.0895	91767	keystroke	Key.enter	n/a
45.979	10.1815	91958	prompt	n/a	fighter mcdonald metallic expansys\n
46.528	0.106	93056	keystroke	f	n/a
46.664	0.075	93328	keystroke	i	n/a
46.769	0.075	93538	keystroke	g	n/a
46.889	0.075	93778	keystroke	h	n/a
46.9935	0.0905	93987	keystroke	t	n/a
47.158	0.12	94316	keystroke	e	n/a
47.233	0.105	94466	keystroke	r	n/a
47.879	0.044	95758	keystroke	Key.space	n/a
48.1035	0.12	96207	keystroke	m	n/a
48.2685	0.09	96537	keystroke	c	n/a
48.7035	0.075	97407	keystroke	d	n/a
48.8235	0.165	97647	keystroke	o	n/a
48.9285	0.105	97857	keystroke	n	n/a
49.0485	0.135	98097	keystroke	a	n/a
49.1985	0.105	98397	keystroke	l	n/a
49.3485	0.09	98697	keystroke	d	n/a
49.8735	0.09	99747	keystroke	Key.space	n/a
50.1435	0.135	100287	keystroke	m	n/a
50.2635	0.075	100527	keystroke	e	n/a
50.3985	0.09	100797	keystroke	t	n/a
50.5185	0.135	101037	keystroke	a	n/a
50.6835	0.165	101367	keystroke	l	n/a
50.9085	0.105	101817	keystroke	i	n/a
51.808	0.105	103616	keystroke	Key.backspace	n/a
52.063	0.12	104126	keystroke	l	n/a
52.438	0.105	104876	keystroke	i	n/a
52.723	0.09	105446	keystroke	c	n/a
52.993	0.12	105986	keystroke	Key.space	n/a
53.383	0.0745	106766	keystroke	e	n/a
53.608	0.105	107216	keystroke	x	n/a
53.9375	0.09	107875	keystroke	p	n/a
54.0725	0.105	108145	keystroke	a	n/a
54.1925	0.12	108385	keystroke	n	n/a
54.3875	0.075	108775	keystroke	s	n/a
54.6725	0.06	109345	keystroke	y	n/a
54.778	0.0895	109556	keystroke	s	n/a
56.053	0.1045	112106	keystroke	Key.enter	n/a
56.1645	9.5195	112329	prompt	n/a	century thesis mention finally\n
57.718	0.06	115436	keystroke	c	n/a
57.913	0.075	115826	keystroke	e	n/a
58.018	0.105	116036	keystroke	n	n/a
58.093	0.075	116186	keystroke	t	n/a
58.573	0.075	117146	keystroke	r	n/a
58.738	0.075	117476	keystroke	u	n/a
59.2325	0.09	118465	keystroke	Key.backspace	n/a
59.3975	0.09	118795	keystroke	Key.backspace	n/a
59.6225	0.105	119245	keystroke	u	n/a
59.7575	0.09	119515	keystroke	r	n/a
59.9225	0.075	119845	keystroke	y	n/a
60.298	0.075	120596	keystroke	Key.space	n/a
60.718	0.075	121436	keystroke	t	n/a
60.838	0.09	121676	keystroke	h	n/a
60.898	0.135	121796	keystroke	e	n/a
61.018	0.15	122036	keystroke	s	n/a
61.213	0.075	122426	keystroke	e	n/a
61.7075	0.12	123415	keystroke	Key.backspace	n/a
61.8725	0.09	123745	keystroke	i	n/a
62.0075	0.105	124015	keystroke	s	n/a
62.4275	0.09	124855	keystroke	Key.space	n/a
62.8325	0.1205	125665	keystroke	m	n/a
62.983	0.074	125966	keystroke	e	n/a
63.507	0.12	127014	keystroke	n	n/a
63.6735	0.074	127347	keystroke	t	n/a
63.8075	0.18	127615	keystroke	i	n/a
63.8975	0.135	127795	keystroke	o	n/a
64.0025	0.136	128005	keystroke	n	n/a
64.1525	0.075	128305	keystroke	Key.space	n/a
64.3625	0.075	128725	keystroke	f	n/a
64.4825	0.1355	128965	keystroke	i	n/a
64.558	0.12	129116	keystroke	n	n/a
64.663	0.135	129326	keystroke	a	n/a
64.828	0.074	129656	keystroke	l	n/a
64.993	0.12	129986	keystroke	l	n/a
65.218	0.09	130436	keystroke	y	n/a
65.592	0.09	131184	keystroke	Key.enter	n/a
65.6885	8.7555	131377	prompt	n/a	coating ferrari marine component\n
66.388	0.0745	132776	keystroke	c	n/a
66.9125	0.105	133825	keystroke	o	n/a
67.1525	0.166	134305	keystroke	a	n/a
67.3325	0.09	134665	keystroke	t	n/a
67.4825	0.15	134965	keystroke	i	n/a
67.6035	0.119	135207	keystroke	n	n/a
67.7525	0.136	135505	keystroke	g	n/a
67.8725	0.106	135745	keystroke	Key.space	n/a
68.0685	0.09	136137	keystroke	f	n/a
68.308	0.1195	136616	keystroke	e	n/a
68.5175	0.075	137035	keystroke	r	n/a
68.6825	0.09	137365	keystroke	r	n/a
68.8775	0.165	137755	keystroke	a	n/a
69.0125	0.09	138025	keystroke	r	n/a
69.253	0.105	138506	keystroke	i	n/a
69.538	0.09	139076	keystroke	Key.space	n/a
70.228	0.105	140456	keystroke	m	n/a
70.423	0.165	140846	keystroke	a	n/a
70.528	0.105	141056	keystroke	r	n/a
70.663	0.135	141326	keystroke	i	n/a
70.783	0.105	141566	keystroke	n	n/a
70.993	0.12	141986	keystroke	e	n/a
71.098	0.09	142196	keystroke	Key.space	n/a
71.323	0.09	142646	keystroke	c	n/a
71.668	0.165	143336	keystroke	o	n/a
71.878	0.15	143756	keystroke	m	n/a
72.088	0.105	144176	keystroke	p	n/a
72.313	0.135	144626	keystroke	o	n/a
72.5075	0.1205	145015	keystroke	n	n/a
72.733	0.105	145466	keystroke	e	n/a
73.5875	0.105	147175	keystroke	n	n/a
73.8125	0.09	147625	keystroke	t	n/a
74.3675	0.075	148735	keystroke	Key.enter	n/a
74.451	7.9285	148902	prompt	n/a	bicycle pipe protective chain\n
75.0725	0.0745	150145	keystroke	b	n/a
75.358	0.059	150716	keystroke	y	n/a
75.777	0.12	151554	keystroke	Key.backspace	n/a
75.988	0.059	151976	keystroke	i	n/a
76.227	0.015	152454	keystroke	c	n/a
76.347	0.075	152694	keystroke	y	n/a
76.573	0.074	153146	keystroke	c	n/a
77.007	0.121	154014	keystroke	l	n/a
77.172	0.105	154344	keystroke	e	n/a
77.487	0.09	154974	keystroke	Key.space	n/a
77.968	0.105	155936	keystroke	p	n/a
78.237	0.121	156474	keystroke	i	n/a
78.492	0.105	156984	keystroke	p	n/a
78.792	0.121	157584	keystroke	e	n/a
78.927	0.12	157854	keystroke	Key.space	n/a
79.2875	0.0905	158575	keystroke	p	n/a
79.423	0.09	158846	keystroke	r	n/a
79.5725	0.105	159145	keystroke	o	n/a
79.7375	0.075	159475	keystroke	t	n/a
79.9025	0.09	159805	keystroke	e	n/a
80.1575	0.061	160315	keystroke	c	n/a
80.3525	0.06	160705	keystroke	t	n/a
80.4725	0.09	160945	keystroke	i	n/a
80.5775	0.105	161155	keystroke	v	n/a
80.8025	0.076	161605	keystroke	e	n/a
80.9225	0.105	161845	keystroke	Key.space	n/a
81.358	0.075	162716	keystroke	c	n/a
81.478	0.075	162956	keystroke	h	n/a
81.568	0.1195	163136	keystroke	a	n/a
81.7325	0.12	163465	keystroke	i	n/a
81.8675	0.105	163735	keystroke	n	n/a
82.3025	0.075	164605	keystroke	Key.enter	n/a
82.3825	10.4965	164765	prompt	n/a	retrieved hypothetical mysterious becomes\n
83.143	0.12	166286	keystroke	r	n/a
83.248	0.105	166496	keystroke	e	n/a
83.532	0.09	167064	keystroke	t	n/a
83.742	0.1055	167484	keystroke	r	n/a
83.9525	0.075	167905	keystroke	i	n/a
84.148	0.09	168296	keystroke	e	n/a
84.373	0.09	168746	keystroke	v	n/a
84.568	0.075	169136	keystroke	e	n/a
84.883	0.105	169766	keystroke	d	n/a
85.108	0.105	170216	keystroke	Key.space	n/a
85.438	0.075	170876	keystroke	h	n/a
85.678	0.09	171356	keystroke	y	n/a
85.903	0.09	171806	keystroke	p	n/a
86.203	0.105	172406	keystroke	o	n/a
86.6075	0.075	173215	keystroke	t	n/a
86.6975	0.075	173395	keystroke	h	n/a
86.8025	0.09	173605	keystroke	e	n/a
87.0875	0.09	174175	keystroke	t	n/a
87.3425	0.075	174685	keystroke	i	n/a
87.4925	0.075	174985	keystroke	c	n/a
87.6875	0.09	175375	keystroke	a	n/a
87.8675	0.09	175735	keystroke	l	n/a
87.9585	0.104	175917	keystroke	Key.space	n/a
88.2425	0.06	176485	keystroke	m	n/a
88.5275	0.06	177055	keystroke	y	n/a
88.6475	0.166	177295	keystroke	s	n/a
88.7975	0.105	177595	keystroke	t	n/a
88.9185	0.09	177837	keystroke	e	n/a
89.547	0.121	179094	keystroke	r	n/a
90.043	0.12	180086	keystroke	i	n/a
90.268	0.135	180536	keystroke	o	n/a
90.387	0.136	180774	keystroke	u	n/a
90.643	0.105	181286	keystroke	s	n/a
91.243	0.09	182486	keystroke	Key.space	n/a
91.558	0.06	183116	keystroke	b	n/a
91.723	0.06	183446	keystroke	e	n/a
91.917	0.06	183834	keystroke	c	n/a
92.008	0.135	184016	keystroke	o	n/a
92.113	0.135	184226	keystroke	m	n/a
92.233	0.104	184466	keystroke	e	n/a
92.307	0.106	184614	keystroke	s	n/a
92.802	0.076	185604	keystroke	Key.enter	n/a
92.8825	7.4665	185765	prompt	n/a	trance anyway facility rhythm\n
93.583	0.074	187166	keystroke	t	n/a
93.763	0.105	187526	keystroke	r	n/a
93.852	0.106	187704	keystroke	a	n/a
93.987	0.09	187974	keystroke	n	n/a
94.153	0.074	188306	keystroke	c	n/a
94.362	0.09	188724	keystroke	e	n/a
94.467	0.09	188934	keystroke	Key.space	n/a
94.632	0.12	189264	keystroke	a	n/a
94.737	0.09	189474	keystroke	n	n/a
95.022	0.075	190044	keystroke	y	n/a
95.2175	0.105	190435	keystroke	w	n/a
95.3825	0.12	190765	keystroke	a	n/a
95.5175	0.075	191035	keystroke	y	n/a
95.6975	0.105	191395	keystroke	Key.space	n/a
95.9075	0.075	191815	keystroke	f	n/a
96.0425	0.12	192085	keystroke	a	n/a
96.2525	0.075	192505	keystroke	c	n/a
96.3725	0.12	192745	keystroke	i	n/a
96.5375	0.1805	193075	keystroke	l	n/a
96.657	0.106	193314	keystroke	i	n/a
96.792	0.105	193584	keystroke	t	n/a
97.0325	0.0895	194065	keystroke	y	n/a
97.152	0.105	194304	keystroke	Key.space	n/a
97.467	0.105	194934	keystroke	r	n/a
97.708	0.104	195416	keystroke	h	n/a
98.292	0.09	196584	keystroke	y	n/a
98.502	0.075	197004	keystroke	t	n/a
98.6225	0.135	197245	keystroke	h	n/a
98.997	0.06	197994	keystroke	m	n/a
100.2425	0.105	200485	keystroke	Key.enter	n/a
100.3535	8.8155	200707	prompt	n/a	preferences single somewhat programmer\n
101.053	0.09	202106	keystroke	p	n/a
101.158	0.135	202316	keystroke	r	n/a
101.263	0.105	202526	keystroke	e	n/a
101.473	0.075	202946	keystroke	f	n/a
101.563	0.1195	203126	keystroke	e	n/a
101.6975	0.12	203395	keystroke	r	n/a
101.7875	0.09	203575	keystroke	e	n/a
101.8475	0.09	203695	keystroke	n	n/a
102.0425	0.06	204085	keystroke	c	n/a
102.2825	0.1195	204565	keystroke	e	n/a
102.3575	0.1345	204715	keystroke	s	n/a
102.703	0.09	205406	keystroke	Key.space	n/a
102.943	0.075	205886	keystroke	s	n/a
103.033	0.1045	206066	keystroke	i	n/a
103.123	0.1045	206246	keystroke	n	n/a
103.2425	0.075	206485	keystroke	g	n/a
103.4825	0.09	206965	keystroke	l	n/a
103.6175	0.105	207235	keystroke	e	n/a
103.7375	0.09	207475	keystroke	Key.space	n/a
103.9325	0.105	207865	keystroke	s	n/a
104.0525	0.15	208105	keystroke	o	n/a
104.1425	0.135	208285	keystroke	m	n/a
104.3075	0.12	208615	keystroke	e	n/a
104.6825	0.075	209365	keystroke	w	n/a
104.8475	0.075	209695	keystroke	h	n/a
104.9375	0.165	209875	keystroke	a	n/a
105.0725	0.105	210145	keystroke	t	n/a
105.6275	0.105	211255	keystroke	Key.space	n/a
105.8525	0.09	211705	keystroke	p	n/a
105.9575	0.075	211915	keystroke	r	n/a
106.0775	0.12	212155	keystroke	o	n/a
106.1825	0.06	212365	keystroke	g	n/a
106.3625	0.105	212725	keystroke	r	n/a
106.4525	0.15	212905	keystroke	a	n/a
106.8875	0.09	213775	keystroke	m	n/a
107.0825	0.06	214165	keystroke	m	n/a
107.1875	0.135	214375	keystroke	e	n/a
107.2775	0.105	214555	keystroke	r	n/a
109.063	0.105	218126	keystroke	Key.enter	n/a
109.173	12.716	218346	prompt	n/a	obligation gamecube xhtml issue\n
109.843	0.12	219686	keystroke	o	n/a
110.008	0.09	220016	keystroke	b	n/a
110.158	0.135	220316	keystroke	l	n/a
110.308	0.045	220616	keystroke	e	n/a
110.743	0.12	221486	keystroke	Key.backspace	n/a
110.968	0.09	221936	keystroke	i	n/a
111.553	0.09	223106	keystroke	g	n/a
111.793	0.18	223586	keystroke	a	n/a
111.958	0.105	223916	keystroke	t	n/a
112.047	0.166	224094	keystroke	i	n/a
112.138	0.105	224276	keystroke	o	n/a
112.198	0.12	224396	keystroke	n	n/a
113.0375	0.09	226075	keystroke	Key.space	n/a
113.473	0.075	226946	keystroke	g	n/a
113.833	0.1345	227666	keystroke	a	n/a
113.983	0.0895	227966	keystroke	m	n/a
114.1175	0.0905	228235	keystroke	e	n/a
114.7175	0.075	229435	keystroke	c	n/a
114.8975	0.075	229795	keystroke	u	n/a
115.0325	0.075	230065	keystroke	b	n/a
115.273	0.075	230546	keystroke	e	n/a
115.737	0.105	231474	keystroke	Key.space	n/a
116.442	0.09	232884	keystroke	x	n/a
116.907	0.0755	233814	keystroke	h	n/a
117.567	0.12	235134	keystroke	m	n/a
117.732	0.06	235464	keystroke	t	n/a
118.602	0.075	237204	keystroke	Key.backspace	n/a
118.752	0.075	237504	keystroke	Key.backspace	n/a
118.858	0.075	237716	keystroke	t	n/a
119.067	0.1055	238134	keystroke	m	n/a
119.2925	0.105	238585	keystroke	l	n/a
119.8175	0.09	239635	keystroke	Key.space	n/a
120.0875	0.075	240175	keystroke	i	n/a
120.1925	0.075	240385	keystroke	s	n/a
120.3275	0.09	240655	keystroke	s	n/a
120.4475	0.06	240895	keystroke	u	n/a
120.6425	0.09	241285	keystroke	e	n/a
121.7825	0.105	243565	keystroke	Key.enter	n/a
121.8925	7.302	243785	prompt	n/a	person usual gang achievements\n
122.5625	0.09	245125	keystroke	p	n/a
122.6675	0.21	245335	keystroke	e	n/a
122.7275	0.135	245455	keystroke	r	n/a
122.8325	0.105	245665	keystroke	s	n/a
122.9075	0.15	245815	keystroke	o	n/a
123.0125	0.1205	246025	keystroke	n	n/a
123.687	0.1195	247374	keystroke	Key.space	n/a
123.9875	0.06	247975	keystroke	u	n/a
124.107	0.091	248214	keystroke	s	n/a
124.272	0.091	248544	keystroke	u	n/a
124.407	0.105	248814	keystroke	a	n/a
124.572	0.105	249144	keystroke	l	n/a
124.872	0.105	249744	keystroke	Key.space	n/a
125.3075	0.075	250615	keystroke	g	n/a
125.4275	0.15	250855	keystroke	a	n/a
125.5475	0.09	251095	keystroke	n	n/a
125.6825	0.075	251365	keystroke	g	n/a
126.207	0.09	252414	keystroke	Key.space	n/a
126.523	0.104	253046	keystroke	a	n/a
126.792	0.015	253584	keystroke	c	n/a
126.868	0.074	253736	keystroke	h	n/a
126.973	0.09	253946	keystroke	i	n/a
127.092	0.09	254184	keystroke	e	n/a
127.333	0.075	254666	keystroke	v	n/a
127.483	0.09	254966	keystroke	e	n/a
127.692	0.106	255384	keystroke	m	n/a
127.752	0.151	255504	keystroke	e	n/a
128.007	0.076	256014	keystroke	n	n/a
128.113	0.1045	256226	keystroke	t	n/a
128.577	0.105	257154	keystroke	s	n/a
129.1175	0.075	258235	keystroke	Key.enter	n/a
129.198	6.701	258396	prompt	n/a	volume poland enemy none\n
129.8075	0.09	259615	keystroke	v	n/a
129.9585	0.119	259917	keystroke	o	n/a
130.1975	0.136	260395	keystroke	l	n/a
130.3475	0.09	260695	keystroke	u	n/a
130.5875	0.09	261175	keystroke	m	n/a
130.8725	0.09	261745	keystroke	e	n/a
131.1275	0.075	262255	keystroke	Key.space	n/a
131.7275	0.091	263455	keystroke	p	n/a
131.9225	0.0905	263845	keystroke	o	n/a
132.118	0.105	264236	keystroke	l	n/a
132.327	0.12	264654	keystroke	a	n/a
132.462	0.09	264924	keystroke	n	n/a
132.612	0.075	265224	keystroke	d	n/a
132.853	0.089	265706	keystroke	Key.space	n/a
133.018	0.074	266036	keystroke	e	n/a
133.1375	0.0905	266275	keystroke	n	n/a
133.287	0.0905	266574	keystroke	e	n/a
133.5725	0.105	267145	keystroke	m	n/a
133.9175	0.0605	267835	keystroke	y	n/a
134.0225	0.105	268045	keystroke	Key.space	n/a
134.3825	0.12	268765	keystroke	n	n/a
134.487	0.15	268974	keystroke	o	n/a
134.6525	0.105	269305	keystroke	n	n/a
135.3575	0.075	270715	keystroke	e	n/a
135.8375	0.06	271675	keystroke	Key.enter	n/a
135.903	8.817	271806	prompt	n/a	worcester promo disability funds\n
136.5275	0.09	273055	keystroke	w	n/a
136.6625	0.09	273325	keystroke	o	n/a
136.8125	0.09	273625	keystroke	r	n/a
137.173	0.045	274346	keystroke	c	n/a
137.353	0.09	274706	keystroke	e	n/a
137.458	0.165	274916	keystroke	s	n/a
137.743	0.09	275486	keystroke	t	n/a
138.0125	0.1195	276025	keystroke	e	n/a
138.117	0.106	276234	keystroke	r	n/a
138.732	0.09	277464	keystroke	Key.space	n/a
139.107	0.12	278214	keystroke	p	n/a
139.347	0.075	278694	keystroke	r	n/a
139.498	0.104	278996	keystroke	o	n/a
139.722	0.135	279444	keystroke	m	n/a
139.812	0.151	279624	keystroke	o	n/a
140.9225	0.135	281845	keystroke	Key.space	n/a
141.3875	0.075	282775	keystroke	d	n/a
141.5225	0.09	283045	keystroke	i	n/a
141.6425	0.075	283285	keystroke	s	n/a
141.8225	0.15	283645	keystroke	a	n/a
142.0025	0.075	284005	keystroke	b	n/a
142.1375	0.12	284275	keystroke	i	n/a
142.2725	0.195	284545	keystroke	l	n/a
142.3925	0.15	284785	keystroke	i	n/a
142.5725	0.1055	285145	keystroke	t	n/a
142.738	0.105	285476	keystroke	y	n/a
142.888	0.105	285776	keystroke	Key.space	n/a
143.098	0.104	286196	keystroke	f	n/a
143.233	0.09	286466	keystroke	u	n/a
143.4575	0.09	286915	keystroke	n	n/a
143.5925	0.09	287185	keystroke	d	n/a
143.8175	0.09	287635	keystroke	s	n/a
144.627	0.09	289254	keystroke	Key.enter	n/a
144.723	10.136	289446	prompt	n/a	azerbaijan roses fibre important\n
145.303	0.12	290606	keystroke	a	n/a
145.6175	0.12	291235	keystroke	z	n/a
145.8725	0.166	291745	keystroke	e	n/a
145.9925	0.075	291985	keystroke	r	n/a
146.2625	0.075	292525	keystroke	b	n/a
146.4725	0.135	292945	keystroke	a	n/a
146.7125	0.076	293425	keystroke	i	n/a
147.0125	0.105	294025	keystroke	j	n/a
147.1325	0.105	294265	keystroke	a	n/a
147.2675	0.105	294535	keystroke	n	n/a
148.0025	0.105	296005	keystroke	Key.space	n/a
148.3025	0.09	296605	keystroke	r	n/a
148.4075	0.105	296815	keystroke	o	n/a
148.5575	0.15	297115	keystroke	s	n/a
148.7225	0.12	297445	keystroke	e	n/a
148.9625	0.105	297925	keystroke	s	n/a
149.7725	0.015	299545	keystroke	Key.space	n/a
150.0425	0.045	300085	keystroke	v	n/a
150.4625	0.105	300925	keystroke	Key.backspace	n/a
150.6575	0.075	301315	keystroke	f	n/a
150.8525	0.075	301705	keystroke	i	n/a
150.9425	0.075	301885	keystroke	b	n/a
151.4225	0.075	302845	keystroke	r	n/a
151.648	0.075	303296	keystroke	e	n/a
152.2475	0.105	304495	keystroke	Key.space	n/a
152.5625	0.12	305125	keystroke	i	n/a
152.7575	0.15	305515	keystroke	m	n/a
152.937	0.076	305874	keystroke	p	n/a
152.983	0.165	305966	keystroke	o	n/a
153.177	0.061	306354	keystroke	r	n/a
153.342	0.075	306684	keystroke	t	n/a
153.432	0.166	306864	keystroke	a	n/a
153.582	0.09	307164	keystroke	n	n/a
153.703	0.09	307406	keystroke	t	n/a
154.7675	0.09	309535	keystroke	Key.enter	n/a
154.862	5.547	309724	prompt	n/a	receive password out ralph\n
155.502	0.1205	311004	keystroke	r	n/a
155.562	0.136	311124	keystroke	e	n/a
155.848	0.06	311696	keystroke	c	n/a
156.028	0.075	312056	keystroke	e	n/a
156.178	0.09	312356	keystroke	i	n/a
156.253	0.105	312506	keystroke	v	n/a
156.373	0.09	312746	keystroke	e	n/a
156.883	0.09	313766	keystroke	Key.space	n/a
157.243	0.09	314486	keystroke	p	n/a
157.348	0.12	314696	keystroke	a	n/a
157.408	0.105	314816	keystroke	s	n/a
157.588	0.075	315176	keystroke	s	n/a
157.783	0.105	315566	keystroke	w	n/a
157.918	0.09	315836	keystroke	o	n/a
158.023	0.075	316046	keystroke	r	n/a
158.203	0.09	316406	keystroke	d	n/a
158.3975	0.105	316795	keystroke	Key.space	n/a
158.7275	0.135	317455	keystroke	o	n/a
158.8635	0.089	317727	keystroke	u	n/a
158.9825	0.12	317965	keystroke	t	n/a
159.1175	0.09	318235	keystroke	Key.space	n/a
159.3125	0.105	318625	keystroke	r	n/a
159.4625	0.12	318925	keystroke	a	n/a
159.5975	0.2105	319195	keystroke	l	n/a
159.793	0.105	319586	keystroke	p	n/a
159.913	0.09	319826	keystroke	h	n/a
160.333	0.075	320666	keystroke	Key.enter	n/a
160.413	9.2665	320826	prompt	n/a	transportation panels units kitchen\n
161.023	0.089	322046	keystroke	t	n/a
161.202	0.12	322404	keystroke	r	n/a
161.292	0.135	322584	keystroke	a	n/a
161.412	0.105	322824	keystroke	n	n/a
161.577	0.09	323154	keystroke	s	n/a
161.817	0.09	323634	keystroke	p	n/a
162.012	0.09	324024	keystroke	o	n/a
162.118	0.059	324236	keystroke	r	n/a
162.298	0.059	324596	keystroke	t	n/a
162.417	0.166	324834	keystroke	a	n/a
162.507	0.12	325014	keystroke	t	n/a
162.612	0.18	325224	keystroke	i	n/a
162.688	0.12	325376	keystroke	o	n/a
162.778	0.119	325556	keystroke	n	n/a
162.898	0.104	325796	keystroke	Key.space	n/a
163.1525	0.105	326305	keystroke	p	n/a
163.2725	0.09	326545	keystroke	a	n/a
163.3925	0.09	326785	keystroke	n	n/a
163.6025	0.075	327205	keystroke	n	n/a
163.752	0.09	327504	keystroke	e	n/a
164.337	0.045	328674	keystroke	Key.backspace	n/a
164.487	0.061	328974	keystroke	Key.backspace	n/a
164.652	0.075	329304	keystroke	e	n/a
164.802	0.09	329604	keystroke	l	n/a
164.982	0.09	329964	keystroke	s	n/a
165.207	0.09	330414	keystroke	Key.space	n/a
165.643	0.075	331286	keystroke	u	n/a
166.153	0.09	332306	keystroke	n	n/a
166.303	0.09	332606	keystroke	i	n/a
166.468	0.089	332936	keystroke	t	n/a
166.6625	0.0745	333325	keystroke	e	n/a
167.067	0.1055	334134	keystroke	Key.backspace	n/a
167.3225	0.09	334645	keystroke	s	n/a
167.4725	0.105	334945	keystroke	Key.space	n/a
167.9825	0.045	335965	keystroke	k	n/a
168.0875	0.09	336175	keystroke	i	n/a
168.6725	0.06	337345	keystroke	t	n/a
168.8825	0.06	337765	keystroke	c	n/a
168.9875	0.075	337975	keystroke	h	n/a
169.1075	0.075	338215	keystroke	e	n/a
169.2275	0.09	338455	keystroke	n	n/a
169.6025	0.075	339205	keystroke	Key.enter	n/a
169.688	5.871	339376	prompt	n/a	gage logic device stores\n
170.3975	0.075	340795	keystroke	g	n/a
170.5475	0.165	341095	keystroke	a	n/a
170.6525	0.075	341305	keystroke	g	n/a
170.8185	0.0595	341637	keystroke	e	n/a
170.953	0.074	341906	keystroke	Key.space	n/a
171.163	0.09	342326	keystroke	l	n/a
171.373	0.09	342746	keystroke	o	n/a
171.508	0.104	343016	keystroke	g	n/a
171.6875	0.105	343375	keystroke	i	n/a
171.9275	0.075	343855	keystroke	c	n/a
172.377	0.09	344754	keystroke	Key.space	n/a
172.783	0.045	345566	keystroke	d	n/a
172.932	0.076	345864	keystroke	e	n/a
173.128	0.06	346256	keystroke	v	n/a
173.233	0.09	346466	keystroke	i	n/a
173.443	0.06	346886	keystroke	c	n/a
173.653	0.075	347306	keystroke	e	n/a
173.773	0.09	347546	keystroke	Key.space	n/a
174.237	0.091	348474	keystroke	s	n/a
174.478	0.075	348956	keystroke	t	n/a
174.658	0.09	349316	keystroke	o	n/a
174.7625	0.15	349525	keystroke	r	n/a
174.8525	0.135	349705	keystroke	e	n/a
174.9275	0.1195	349855	keystroke	s	n/a
175.467	0.09	350934	keystroke	Key.enter	n/a
175.5635	9.926	351127	prompt	n/a	livestock announcements sample architecture\n
177.013	0.195	354026	keystroke	l	n/a
177.148	0.12	354296	keystroke	i	n/a
177.253	0.075	354506	keystroke	v	n/a
177.373	0.135	354746	keystroke	e	n/a
177.643	0.105	355286	keystroke	s	n/a
177.793	0.09	355586	keystroke	t	n/a
177.928	0.105	355856	keystroke	o	n/a
178.152	0.076	356304	keystroke	c	n/a
178.303	0.09	356606	keystroke	k	n/a
179.0675	0.09	358135	keystroke	Key.space	n/a
179.3675	0.09	358735	keystroke	a	n/a
179.4125	0.09	358825	keystroke	n	n/a
179.6075	0.075	359215	keystroke	n	n/a
179.7875	0.105	359575	keystroke	o	n/a
179.8625	0.09	359725	keystroke	u	n/a
180.0725	0.09	360145	keystroke	n	n/a
180.1635	0.059	360327	keystroke	c	n/a
180.3575	0.0605	360715	keystroke	e	n/a
180.403	0.09	360806	keystroke	m	n/a
180.5385	0.104	361077	keystroke	e	n/a
180.6275	0.091	361255	keystroke	n	n/a
180.7475	0.076	361495	keystroke	t	n/a
180.8975	0.12	361795	keystroke	s	n/a
181.0325	0.09	362065	keystroke	Key.space	n/a
181.213	0.09	362426	keystroke	s	n/a
181.363	0.12	362726	keystroke	a	n/a
181.408	0.1495	362816	keystroke	m	n/a
181.7225	0.105	363445	keystroke	p	n/a
181.8425	0.165	363685	keystroke	l	n/a
181.9775	0.105	363955	keystroke	e	n/a
182.0675	0.105	364135	keystroke	Key.space	n/a
182.2325	0.135	364465	keystroke	a	n/a
182.4875	0.09	364975	keystroke	r	n/a
182.7125	0.075	365425	keystroke	c	n/a
182.8475	0.12	365695	keystroke	h	n/a
182.9525	0.12	365905	keystroke	i	n/a
183.2675	0.075	366535	keystroke	t	n/a
183.3875	0.09	366775	keystroke	e	n/a
183.6125	0.075	367225	keystroke	c	n/a
183.958	0.075	367916	keystroke	t	n/a
184.722	0.076	369444	keystroke	u	n/a
184.783	0.105	369566	keystroke	r	n/a
184.843	0.105	369686	keystroke	e	n/a
185.398	0.09	370796	keystroke	Key.enter	n/a
185.4925	8.9515	370985	prompt	n/a	stability organizations carnival blacks\n
186.1925	0.09	372385	keystroke	s	n/a
186.3725	0.075	372745	keystroke	t	n/a
186.4325	0.075	372865	keystroke	a	n/a
186.5975	0.075	373195	keystroke	b	n/a
186.732	0.105	373464	keystroke	i	n/a
186.822	0.2405	373644	keystroke	l	n/a
186.988	0.0905	373976	keystroke	i	n/a
187.0925	0.105	374185	keystroke	t	n/a
187.2875	0.076	374575	keystroke	y	n/a
187.4225	0.105	374845	keystroke	Key.space	n/a
188.322	0.091	376644	keystroke	o	n/a
188.383	0.075	376766	keystroke	r	n/a
188.578	0.075	377156	keystroke	g	n/a
188.668	0.09	377336	keystroke	a	n/a
188.713	0.15	377426	keystroke	n	n/a
188.893	0.12	377786	keystroke	i	n/a
189.028	0.105	378056	keystroke	z	n/a
189.2375	0.15	378475	keystroke	a	n/a
189.3425	0.105	378685	keystroke	t	n/a
189.4325	0.18	378865	keystroke	i	n/a
189.5085	0.119	379017	keystroke	o	n/a
189.5825	0.105	379165	keystroke	n	n/a
189.8675	0.09	379735	keystroke	s	n/a
190.1075	0.09	380215	keystroke	Key.space	n/a
190.3625	0.06	380725	keystroke	c	n/a
190.6775	0.03	381355	keystroke	a	n/a
190.6925	0.06	381385	keystroke	r	n/a
190.8125	0.15	381625	keystroke	n	n/a
191.0085	0.119	382017	keystroke	i	n/a
191.1425	0.135	382285	keystroke	m	n/a
191.818	0.105	383636	keystroke	Key.backspace	n/a
191.938	0.075	383876	keystroke	v	n/a
192.088	0.12	384176	keystroke	a	n/a
192.268	0.12	384536	keystroke	l	n/a
192.8225	0.105	385645	keystroke	Key.space	n/a
193.0925	0.0755	386185	keystroke	b	n/a
193.183	0.12	386366	keystroke	l	n/a
193.393	0.105	386786	keystroke	a	n/a
193.5875	0.045	387175	keystroke	c	n/a
193.693	0.0895	387386	keystroke	k	n/a
193.842	0.105	387684	keystroke	s	n/a
194.3525	0.09	388705	keystroke	Key.enter	n/a
194.4475	8.9665	388895	prompt	n/a	legislative face cingular hunger\n
195.0425	0.135	390085	keystroke	l	n/a
195.2075	0.075	390415	keystroke	e	n/a
195.3875	0.075	390775	keystroke	g	n/a
195.5375	0.06	391075	keystroke	i	n/a
195.6575	0.09	391315	keystroke	s	n/a
196.618	0.119	393236	keystroke	l	n/a
196.738	0.165	393476	keystroke	a	n/a
196.887	0.091	393774	keystroke	t	n/a
197.037	0.075	394074	keystroke	i	n/a
197.157	0.075	394314	keystroke	v	n/a
197.368	0.09	394736	keystroke	e	n/a
198.0125	0.105	396025	keystroke	Key.space	n/a
198.2525	0.06	396505	keystroke	f	n/a
198.3575	0.105	396715	keystroke	a	n/a
198.5525	0.06	397105	keystroke	c	n/a
198.7325	0.09	397465	keystroke	e	n/a
198.8075	0.105	397615	keystroke	Key.space	n/a
199.0325	0.075	398065	keystroke	c	n/a
199.1385	0.104	398277	keystroke	i	n/a
199.2125	0.121	398425	keystroke	n	n/a
199.6925	0.075	399385	keystroke	u	n/a
200.1125	0.12	400225	keystroke	Key.backspace	n/a
200.2775	0.075	400555	keystroke	g	n/a
200.3825	0.105	400765	keystroke	u	n/a
200.953	0.135	401906	keystroke	l	n/a
201.088	0.18	402176	keystroke	a	n/a
201.238	0.09	402476	keystroke	r	n/a
201.988	0.12	403976	keystroke	Key.space	n/a
202.213	0.0895	404426	keystroke	h	n/a
202.3925	0.075	404785	keystroke	u	n/a
202.6025	0.075	405205	keystroke	n	n/a
202.6775	0.075	405355	keystroke	g	n/a
202.8275	0.12	405655	keystroke	e	n/a
202.9025	0.105	405805	keystroke	r	n/a
203.3375	0.075	406675	keystroke	Key.enter	n/a
203.418	9.087	406836	prompt	n/a	experiments rolls governor airport\n
203.9675	0.075	407935	keystroke	e	n/a
204.1925	0.09	408385	keystroke	x	n/a
204.3275	0.09	408655	keystroke	p	n/a
204.4475	0.135	408895	keystroke	e	n/a
204.5225	0.135	409045	keystroke	r	n/a
204.8225	0.165	409645	keystroke	i	n/a
204.9725	0.105	409945	keystroke	m	n/a
205.0925	0.1205	410185	keystroke	e	n/a
205.228	0.105	410456	keystroke	n	n/a
205.362	0.09	410724	keystroke	t	n/a
205.542	0.121	411084	keystroke	s	n/a
205.992	0.09	411984	keystroke	Key.space	n/a
206.2775	0.0905	412555	keystroke	r	n/a
206.458	0.0745	412916	keystroke	o	n/a
206.653	0.09	413306	keystroke	l	n/a
206.818	0.105	413636	keystroke	l	n/a
206.953	0.1205	413906	keystroke	s	n/a
207.0425	0.1055	414085	keystroke	Key.space	n/a
207.208	0.075	414416	keystroke	g	n/a
207.343	0.09	414686	keystroke	o	n/a
207.463	0.06	414926	keystroke	v	n/a
207.613	0.15	415226	keystroke	e	n/a
207.748	0.0895	415496	keystroke	r	n/a
207.793	0.1045	415586	keystroke	n	n/a
208.0325	0.09	416065	keystroke	o	n/a
208.2275	0.135	416455	keystroke	r	n/a
208.8275	0.09	417655	keystroke	Key.space	n/a
209.1875	0.165	418375	keystroke	a	n/a
209.3075	0.09	418615	keystroke	r	n/a
209.4575	0.09	418915	keystroke	i	n/a
209.9375	0.09	419875	keystroke	p	n/a
210.538	0.0745	421076	keystroke	Key.backspace	n/a
210.7025	0.075	421405	keystroke	Key.backspace	n/a
210.8675	0.09	421735	keystroke	Key.backspace	n/a
211.0925	0.09	422185	keystroke	i	n/a
211.2575	0.075	422515	keystroke	r	n/a
211.512	0.1055	423024	keystroke	p	n/a
211.6475	0.12	423295	keystroke	o	n/a
211.7825	0.06	423565	keystroke	r	n/a
211.9485	0.09	423897	keystroke	t	n/a
212.4275	0.075	424855	keystroke	Key.enter	n/a
212.509	7.225	425018	prompt	n/a	users given we're hopefully\n
213.0275	0.06	426055	keystroke	e	n/a
213.4175	0.105	426835	keystroke	Key.backspace	n/a
213.6725	0.06	427345	keystroke	u	n/a
213.7925	0.105	427585	keystroke	s	n/a
214.0175	0.105	428035	keystroke	e	n/a
214.2725	0.09	428545	keystroke	r	n/a
214.5725	0.105	429145	keystroke	s	n/a
214.7375	0.105	429475	keystroke	Key.space	n/a
215.1425	0.076	430285	keystroke	g	n/a
215.2925	0.09	430585	keystroke	i	n/a
215.4125	0.075	430825	keystroke	v	n/a
215.5475	0.09	431095	keystroke	e	n/a
215.7425	0.0895	431485	keystroke	n	n/a
215.817	0.09	431634	keystroke	Key.space	n/a
216.1025	0.195	432205	keystroke	w	n/a
216.2825	0.12	432565	keystroke	e	n/a
216.672	0.105	433344	keystroke	'	n/a
216.927	0.12	433854	keystroke	r	n/a
216.988	0.119	433976	keystroke	e	n/a
217.558	0.134	435116	keystroke	Key.space	n/a
217.828	0.0745	435656	keystroke	h	n/a
218.0075	0.1655	436015	keystroke	o	n/a
218.1425	0.105	436285	keystroke	p	n/a
218.2325	0.09	436465	keystroke	e	n/a
218.548	0.09	437096	keystroke	f	n/a
218.698	0.075	437396	keystroke	u	n/a
218.938	0.075	437876	keystroke	l	n/a
219.088	0.105	438176	keystroke	l	n/a
219.313	0.09	438626	keystroke	y	n/a
219.643	0.0895	439286	keystroke	Key.enter	n/a
219.737	7.2575	439474	prompt	n/a	manner guardian jaguar humanities\n
220.3635	0.074	440727	keystroke	m	n/a
220.4825	0.12	440965	keystroke	a	n/a
220.5875	0.06	441175	keystroke	n	n/a
220.7825	0.046	441565	keystroke	n	n/a
220.8725	0.15	441745	keystroke	e	n/a
220.9625	0.15	441925	keystroke	r	n/a
221.0825	0.09	442165	keystroke	Key.space	n/a
221.2935	0.0895	442587	keystroke	g	n/a
221.458	0.075	442916	keystroke	u	n/a
221.563	0.165	443126	keystroke	a	n/a
221.683	0.09	443366	keystroke	r	n/a
221.908	0.075	443816	keystroke	d	n/a
222.058	0.0745	444116	keystroke	i	n/a
222.163	0.1195	444326	keystroke	a	n/a
222.3125	0.0905	444625	keystroke	n	n/a
222.418	0.105	444836	keystroke	Key.space	n/a
222.778	0.105	445556	keystroke	j	n/a
222.943	0.135	445886	keystroke	a	n/a
223.153	0.075	446306	keystroke	g	n/a
223.363	0.075	446726	keystroke	u	n/a
223.498	0.18	446996	keystroke	a	n/a
223.783	0.105	447566	keystroke	r	n/a
224.323	0.1045	448646	keystroke	Key.space	n/a
224.7125	0.075	449425	keystroke	h	n/a
225.0275	0.09	450055	keystroke	u	n/a
225.267	0.075	450534	keystroke	m	n/a
225.372	0.121	450744	keystroke	a	n/a
225.522	0.091	451044	keystroke	n	n/a
225.672	0.106	451344	keystroke	i	n/a
225.912	0.075	451824	keystroke	t	n/a
226.002	0.105	452004	keystroke	i	n/a
226.197	0.135	452394	keystroke	e	n/a
226.287	0.12	452574	keystroke	s	n/a
226.9175	0.075	453835	keystroke	Key.enter	n/a
226.9975	7.482	453995	prompt	n/a	treasure register existed plant\n
227.638	0.075	455276	keystroke	t	n/a
227.818	0.12	455636	keystroke	r	n/a
227.893	0.12	455786	keystroke	e	n/a
227.983	0.18	455966	keystroke	a	n/a
228.268	0.09	456536	keystroke	s	n/a
228.613	0.075	457226	keystroke	u	n/a
228.733	0.09	457466	keystroke	r	n/a
228.763	0.135	457526	keystroke	e	n/a
229.408	0.09	458816	keystroke	Key.space	n/a
229.7825	0.121	459565	keystroke	r	n/a
229.8875	0.09	459775	keystroke	e	n/a
230.0825	0.075	460165	keystroke	g	n/a
230.2025	0.075	460405	keystroke	i	n/a
230.3225	0.18	460645	keystroke	s	n/a
230.4875	0.105	460975	keystroke	t	n/a
230.6375	0.12	461275	keystroke	e	n/a
230.7275	0.09	461455	keystroke	r	n/a
230.9375	0.12	461875	keystroke	Key.space	n/a
231.0725	0.09	462145	keystroke	e	n/a
231.2825	0.105	462565	keystroke	x	n/a
231.4625	0.075	462925	keystroke	i	n/a
231.5525	0.15	463105	keystroke	s	n/a
231.6575	0.15	463315	keystroke	t	n/a
231.8225	0.0745	463645	keystroke	e	n/a
232.033	0.09	464066	keystroke	d	n/a
232.153	0.12	464306	keystroke	Key.space	n/a
232.423	0.12	464846	keystroke	p	n/a
232.573	0.135	465146	keystroke	l	n/a
232.708	0.15	465416	keystroke	a	n/a
232.828	0.105	465656	keystroke	n	n/a
233.083	0.09	466166	keystroke	t	n/a
234.403	0.075	468806	keystroke	Key.enter	n/a
234.483	7.031	468966	prompt	n/a	lopez upper impact played\n
235.1375	0.09	470275	keystroke	l	n/a
235.3475	0.105	470695	keystroke	o	n/a
235.5725	0.09	471145	keystroke	p	n/a
235.6925	0.075	471385	keystroke	e	n/a
236.0075	0.15	472015	keystroke	z	n/a
236.368	0.1045	472736	keystroke	Key.space	n/a
236.7575	0.09	473515	keystroke	u	n/a
237.0125	0.09	474025	keystroke	p	n/a
237.1935	0.104	474387	keystroke	p	n/a
237.3275	0.1205	474655	keystroke	o	n/a
237.897	0.105	475794	keystroke	Key.backspace	n/a
238.167	0.1205	476334	keystroke	e	n/a
238.392	0.12	476784	keystroke	r	n/a
238.527	0.0905	477054	keystroke	Key.space	n/a
238.873	0.134	477746	keystroke	i	n/a
238.962	0.18	477924	keystroke	m	n/a
239.112	0.1055	478224	keystroke	p	n/a
239.218	0.104	478436	keystroke	a	n/a
239.3825	0.09	478765	keystroke	c	n/a
239.607	0.09	479214	keystroke	t	n/a
239.727	0.09	479454	keystroke	Key.space	n/a
239.937	0.135	479874	keystroke	p	n/a
240.057	0.151	480114	keystroke	l	n/a
240.208	0.135	480416	keystroke	a	n/a
240.388	0.105	480776	keystroke	y	n/a
240.568	0.225	481136	keystroke	e	n/a
241.063	0.1045	482126	keystroke	d	n/a
241.438	0.075	482876	keystroke	Key.enter	n/a
241.519	12.64	483038	prompt	n/a	vacation glenn opposite thinkpad\n
242.3675	0.075	484735	keystroke	v	n/a
242.5475	0.12	485095	keystroke	a	n/a
242.7575	0.075	485515	keystroke	c	n/a
242.953	0.0895	485906	keystroke	t	n/a
243.0425	0.195	486085	keystroke	i	n/a
243.1475	0.105	486295	keystroke	o	n/a
243.2225	0.135	486445	keystroke	n	n/a
243.3425	0.105	486685	keystroke	Key.space	n/a
243.5375	0.075	487075	keystroke	g	n/a
243.7175	0.105	487435	keystroke	l	n/a
243.8975	0.075	487795	keystroke	e	n/a
244.0175	0.09	488035	keystroke	n	n/a
244.228	0.0745	488456	keystroke	n	n/a
245.127	0.075	490254	keystroke	Key.backspace	n/a
245.277	0.075	490554	keystroke	Key.backspace	n/a
245.427	0.075	490854	keystroke	Key.backspace	n/a
245.577	0.0605	491154	keystroke	Key.backspace	n/a
245.7275	0.06	491455	keystroke	Key.backspace	n/a
245.8775	0.06	491755	keystroke	Key.backspace	n/a
246.0275	0.06	492055	keystroke	Key.backspace	n/a
246.1775	0.075	492355	keystroke	Key.backspace	n/a
246.3275	0.06	492655	keystroke	Key.backspace	n/a
247.0775	0.075	494155	keystroke	Key.backspace	n/a
247.4225	0.135	494845	keystroke	a	n/a
247.6025	0.09	495205	keystroke	t	n/a
247.7375	0.105	495475	keystroke	i	n/a
247.8875	0.135	495775	keystroke	o	n/a
248.0075	0.09	496015	keystroke	n	n/a
248.4575	0.045	496915	keystroke	Key.space	n/a
248.6525	0.09	497305	keystroke	g	n/a
248.7875	0.105	497575	keystroke	l	n/a
248.9225	0.09	497845	keystroke	e	n/a
249.0575	0.09	498115	keystroke	n	n/a
249.2675	0.075	498535	keystroke	n	n/a
249.4025	0.105	498805	keystroke	Key.space	n/a
249.6575	0.1055	499315	keystroke	o	n/a
250.107	0.091	500214	keystroke	p	n/a
250.633	0.12	501266	keystroke	p	n/a
251.188	0.104	502376	keystroke	o	n/a
251.412	0.091	502824	keystroke	s	n/a
251.593	0.075	503186	keystroke	i	n/a
251.728	0.075	503456	keystroke	t	n/a
251.9675	0.1045	503935	keystroke	e	n/a
252.192	0.09	504384	keystroke	Key.space	n/a
252.387	0.105	504774	keystroke	t	n/a
252.508	0.089	505016	keystroke	h	n/a
252.672	0.105	505344	keystroke	i	n/a
252.822	0.1805	505644	keystroke	n	n/a
252.9725	0.135	505945	keystroke	k	n/a
253.4535	0.089	506907	keystroke	p	n/a
253.5435	0.149	507087	keystroke	a	n/a
253.7385	0.0745	507477	keystroke	d	n/a
254.0825	0.075	508165	keystroke	Key.enter	n/a
254.163	10.991	508326	prompt	n/a	neutral stephanie regard lotus\n
254.9075	0.06	509815	keystroke	n	n/a
255.1625	0.075	510325	keystroke	e	n/a
255.4185	0.089	510837	keystroke	u	n/a
255.6875	0.075	511375	keystroke	t	n/a
255.8825	0.06	511765	keystroke	r	n/a
256.0325	0.12	512065	keystroke	a	n/a
256.2125	0.105	512425	keystroke	l	n/a
256.4825	0.0895	512965	keystroke	Key.space	n/a
256.857	0.09	513714	keystroke	s	n/a
257.037	0.09	514074	keystroke	t	n/a
257.142	0.105	514284	keystroke	e	n/a
257.383	0.119	514766	keystroke	p	n/a
257.5175	0.1195	515035	keystroke	h	n/a
257.682	0.1195	515364	keystroke	a	n/a
257.862	0.15	515724	keystroke	n	n/a
258.043	0.104	516086	keystroke	i	n/a
258.267	0.105	516534	keystroke	e	n/a
258.702	0.105	517404	keystroke	Key.space	n/a
258.912	0.075	517824	keystroke	r	n/a
258.942	0.121	517884	keystroke	e	n/a
259.168	0.104	518336	keystroke	g	n/a
259.932	0.166	519864	keystroke	s	n/a
260.067	0.105	520134	keystroke	r	n/a
261.148	0.09	522296	keystroke	Key.backspace	n/a
261.313	0.075	522626	keystroke	Key.backspace	n/a
261.9425	0.1645	523885	keystroke	a	n/a
262.077	0.105	524154	keystroke	r	n/a
262.317	0.075	524634	keystroke	d	n/a
262.512	0.09	525024	keystroke	Key.space	n/a
262.767	0.046	525534	keystroke	s	n/a
263.3675	0.09	526735	keystroke	Key.backspace	n/a
263.5925	0.09	527185	keystroke	l	n/a
263.7725	0.09	527545	keystroke	o	n/a
263.9375	0.091	527875	keystroke	t	n/a
264.1025	0.09	528205	keystroke	u	n/a
264.2225	0.09	528445	keystroke	s	n/a
265.0625	0.09	530125	keystroke	Key.enter	n/a
265.1575	8.577	530315	prompt	n/a	configure campaigns ensemble postage\n
265.963	0.075	531926	keystroke	c	n/a
266.038	0.12	532076	keystroke	o	n/a
266.143	0.12	532286	keystroke	n	n/a
266.248	0.09	532496	keystroke	f	n/a
266.398	0.09	532796	keystroke	i	n/a
266.548	0.075	533096	keystroke	g	n/a
266.668	0.075	533336	keystroke	u	n/a
266.803	0.1645	533606	keystroke	r	n/a
266.9375	0.1045	533875	keystroke	e	n/a
267.102	0.09	534204	keystroke	Key.space	n/a
267.327	0.075	534654	keystroke	c	n/a
267.478	0.105	534956	keystroke	a	n/a
267.537	0.18	535074	keystroke	m	n/a
267.702	0.12	535404	keystroke	p	n/a
267.882	0.1205	535764	keystroke	a	n/a
268.048	0.104	536096	keystroke	i	n/a
268.242	0.075	536484	keystroke	g	n/a
268.3775	0.105	536755	keystroke	n	n/a
268.5425	0.12	537085	keystroke	s	n/a
268.6775	0.105	537355	keystroke	Key.space	n/a
269.323	0.075	538646	keystroke	e	n/a
269.457	0.1205	538914	keystroke	n	n/a
269.5925	0.105	539185	keystroke	s	n/a
269.7725	0.075	539545	keystroke	e	n/a
269.8925	0.105	539785	keystroke	m	n/a
270.1025	0.06	540205	keystroke	b	n/a
270.283	0.104	540566	keystroke	l	n/a
270.402	0.09	540804	keystroke	e	n/a
270.837	0.106	541674	keystroke	Key.space	n/a
271.2875	0.09	542575	keystroke	p	n/a
271.3925	0.1645	542785	keystroke	o	n/a
271.527	0.15	543054	keystroke	s	n/a
271.662	0.09	543324	keystroke	t	n/a
271.962	0.15	543924	keystroke	a	n/a
272.068	0.104	544136	keystroke	g	n/a
272.262	0.075	544524	keystroke	e	n/a
273.7175	0.015	547435	keystroke	Key.enter	n/a
273.74	8.094	547480	prompt	n/a	consult protect replace deviant\n
274.5125	0.075	549025	keystroke	c	n/a
274.6025	0.105	549205	keystroke	o	n/a
274.6925	0.09	549385	keystroke	n	n/a
274.7675	0.105	549535	keystroke	s	n/a
274.9625	0.091	549925	keystroke	u	n/a
275.158	0.135	550316	keystroke	l	n/a
275.308	0.09	550616	keystroke	t	n/a
275.428	0.105	550856	keystroke	Key.space	n/a
275.7575	0.105	551515	keystroke	p	n/a
275.9225	0.06	551845	keystroke	r	n/a
275.9675	0.105	551935	keystroke	o	n/a
276.643	0.045	553286	keystroke	t	n/a
276.823	0.06	553646	keystroke	e	n/a
277.332	0.075	554664	keystroke	c	n/a
277.858	0.104	555716	keystroke	t	n/a
278.052	0.12	556104	keystroke	Key.space	n/a
278.307	0.1055	556614	keystroke	r	n/a
278.3825	0.12	556765	keystroke	e	n/a
278.6375	0.12	557275	keystroke	p	n/a
278.7425	0.18	557485	keystroke	l	n/a
278.8925	0.1355	557785	keystroke	a	n/a
279.058	0.089	558116	keystroke	c	n/a
279.717	0.12	559434	keystroke	e	n/a
279.882	0.12	559764	keystroke	Key.space	n/a
280.347	0.06	560694	keystroke	d	n/a
280.5275	0.075	561055	keystroke	e	n/a
280.6925	0.09	561385	keystroke	v	n/a
280.7975	0.09	561595	keystroke	i	n/a
280.9175	0.135	561835	keystroke	a	n/a
281.0675	0.09	562135	keystroke	n	n/a
281.2325	0.09	562465	keystroke	t	n/a
281.757	0.075	563514	keystroke	Key.enter	n/a
281.838	9.716	563676	prompt	n/a	threatening imports expects gibraltar\n
282.4325	0.075	564865	keystroke	t	n/a
282.6425	0.06	565285	keystroke	r	n/a
283.0775	0.105	566155	keystroke	Key.backspace	n/a
283.2875	0.09	566575	keystroke	h	n/a
283.4075	0.15	566815	keystroke	r	n/a
283.4975	0.15	566995	keystroke	e	n/a
283.6025	0.18	567205	keystroke	a	n/a
283.8125	0.12	567625	keystroke	t	n/a
284.3825	0.09	568765	keystroke	e	n/a
284.5025	0.12	569005	keystroke	n	n/a
284.6375	0.15	569275	keystroke	i	n/a
284.7725	0.09	569545	keystroke	n	n/a
284.9225	0.135	569845	keystroke	g	n/a
285.0425	0.135	570085	keystroke	Key.space	n/a
285.3725	0.18	570745	keystroke	i	n/a
285.4925	0.135	570985	keystroke	m	n/a
285.5975	0.135	571195	keystroke	p	n/a
285.7025	0.1645	571405	keystroke	o	n/a
285.882	0.075	571764	keystroke	r	n/a
286.077	0.075	572154	keystroke	t	n/a
286.273	0.119	572546	keystroke	s	n/a
286.407	0.1205	572814	keystroke	Key.space	n/a
286.6025	0.06	573205	keystroke	e	n/a
286.8125	0.075	573625	keystroke	x	n/a
286.9625	0.09	573925	keystroke	p	n/a
287.0675	0.075	574135	keystroke	e	n/a
287.2775	0.075	574555	keystroke	c	n/a
287.4575	0.09	574915	keystroke	t	n/a
287.6675	0.105	575335	keystroke	s	n/a
287.7875	0.1045	575575	keystroke	Key.space	n/a
288.057	0.075	576114	keystroke	g	n/a
288.267	0.09	576534	keystroke	i	n/a
288.492	0.045	576984	keystroke	b	n/a
288.672	0.09	577344	keystroke	r	n/a
288.792	0.18	577584	keystroke	a	n/a
289.737	0.1355	579474	keystroke	l	n/a
289.9775	0.0745	579955	keystroke	t	n/a
290.5475	0.1795	581095	keystroke	a	n/a
290.697	0.09	581394	keystroke	r	n/a
291.4775	0.075	582955	keystroke	Key.enter	n/a
291.558	8.321	583116	prompt	n/a	soft define wholesale committee\n
292.1075	0.0895	584215	keystroke	s	n/a
292.227	0.105	584454	keystroke	o	n/a
292.348	0.074	584696	keystroke	f	n/a
292.527	0.075	585054	keystroke	t	n/a
292.662	0.09	585324	keystroke	Key.space	n/a
292.827	0.091	585654	keystroke	d	n/a
293.022	0.1355	586044	keystroke	e	n/a
293.127	0.1205	586254	keystroke	f	n/a
293.367	0.166	586734	keystroke	i	n/a
293.503	0.15	587006	keystroke	n	n/a
294.102	0.075	588204	keystroke	e	n/a
294.642	0.12	589284	keystroke	Key.space	n/a
294.897	0.09	589794	keystroke	w	n/a
295.032	0.09	590064	keystroke	h	n/a
295.123	0.104	590246	keystroke	o	n/a
295.348	0.104	590696	keystroke	l	n/a
295.482	0.09	590964	keystroke	e	n/a
296.0975	0.105	592195	keystroke	s	n/a
296.2475	0.135	592495	keystroke	a	n/a
296.3975	0.135	592795	keystroke	l	n/a
296.5175	0.09	593035	keystroke	e	n/a
296.9525	0.12	593905	keystroke	Key.space	n/a
297.522	0.075	595044	keystroke	c	n/a
297.672	0.15	595344	keystroke	o	n/a
297.777	0.12	595554	keystroke	m	n/a
297.987	0.105	595974	keystroke	m	n/a
298.4825	0.0895	596965	keystroke	i	n/a
298.827	0.06	597654	keystroke	t	n/a
298.993	0.059	597986	keystroke	t	n/a
299.262	0.06	598524	keystroke	e	n/a
299.382	0.105	598764	keystroke	e	n/a
299.802	0.075	599604	keystroke	Key.enter	n/a
299.8825	13.1515	599765	prompt	n/a	verzeichnis mailing wishing nova\n
300.537	0.075	601074	keystroke	v	n/a
300.747	0.15	601494	keystroke	e	n/a
300.882	0.09	601764	keystroke	r	n/a
301.407	0.135	602814	keystroke	z	n/a
301.7675	0.1045	603535	keystroke	e	n/a
302.1125	0.12	604225	keystroke	i	n/a
302.3975	0.075	604795	keystroke	c	n/a
302.577	0.105	605154	keystroke	h	n/a
302.9075	0.105	605815	keystroke	n	n/a
303.1025	0.09	606205	keystroke	i	n/a
303.5375	0.075	607075	keystroke	s	n/a
304.8425	0.075	609685	keystroke	Key.space	n/a
305.427	0.135	610854	keystroke	m	n/a
305.547	0.135	611094	keystroke	a	n/a
305.727	0.12	611454	keystroke	i	n/a
306.342	0.21	612684	keystroke	l	n/a
306.478	0.164	612956	keystroke	i	n/a
306.612	0.15	613224	keystroke	n	n/a
306.792	0.105	613584	keystroke	g	n/a
307.557	0.105	615114	keystroke	Key.space	n/a
307.902	0.075	615804	keystroke	w	n/a
308.022	0.105	616044	keystroke	h	n/a
308.097	0.12	616194	keystroke	i	n/a
308.248	0.104	616496	keystroke	s	n/a
308.382	0.105	616764	keystroke	h	n/a
308.607	0.15	617214	keystroke	i	n/a
308.742	0.1205	617484	keystroke	n	n/a
308.8775	0.105	617755	keystroke	g	n/a
308.9525	0.1045	617905	keystroke	Key.space	n/a
309.567	0.045	619134	keystroke	Key.backspace	n/a
309.7025	0.075	619405	keystroke	Key.backspace	n/a
309.8675	0.075	619735	keystroke	Key.backspace	n/a
310.0175	0.075	620035	keystroke	Key.backspace	n/a
310.1675	0.075	620335	keystroke	Key.backspace	n/a
310.3025	0.075	620605	keystroke	Key.backspace	n/a
310.4825	0.06	620965	keystroke	Key.backspace	n/a
310.6175	0.09	621235	keystroke	Key.backspace	n/a
310.8725	0.09	621745	keystroke	i	n/a
311.0675	0.09	622135	keystroke	s	n/a
311.1725	0.105	622345	keystroke	h	n/a
311.3225	0.135	622645	keystroke	i	n/a
311.4425	0.12	622885	keystroke	n	n/a
311.6675	0.105	623335	keystroke	g	n/a
311.8025	0.105	623605	keystroke	Key.space	n/a
312.0125	0.12	624025	keystroke	n	n/a
312.1475	0.09	624295	keystroke	o	n/a
312.2975	0.105	624595	keystroke	v	n/a
312.448	0.1195	624896	keystroke	a	n/a
312.942	0.0895	625884	keystroke	Key.enter	n/a
313.037	6.282	626074	prompt	n/a	whale adapter up increasing\n
313.663	0.059	627326	keystroke	w	n/a
313.782	0.105	627564	keystroke	h	n/a
313.902	0.15	627804	keystroke	a	n/a
314.157	0.105	628314	keystroke	l	n/a
314.292	0.105	628584	keystroke	e	n/a
314.427	0.09	628854	keystroke	Key.space	n/a
314.637	0.135	629274	keystroke	a	n/a
314.832	0.075	629664	keystroke	d	n/a
314.997	0.12	629994	keystroke	a	n/a
315.342	0.075	630684	keystroke	p	n/a
315.477	0.105	630954	keystroke	t	n/a
315.732	0.135	631464	keystroke	e	n/a
316.137	0.09	632274	keystroke	r	n/a
316.257	0.105	632514	keystroke	Key.space	n/a
316.452	0.1355	632904	keystroke	u	n/a
316.6175	0.12	633235	keystroke	p	n/a
316.7675	0.12	633535	keystroke	Key.space	n/a
317.1425	0.135	634285	keystroke	i	n/a
317.2325	0.135	634465	keystroke	n	n/a
317.4125	0.075	634825	keystroke	c	n/a
317.6525	0.195	635305	keystroke	r	n/a
318.042	0.15	636084	keystroke	e	n/a
318.162	0.15	636324	keystroke	a	n/a
318.267	0.135	636534	keystroke	s	n/a
318.462	0.135	636924	keystroke	i	n/a
318.552	0.135	637104	keystroke	n	n/a
318.852	0.075	637704	keystroke	g	n/a
319.227	0.09	638454	keystroke	Key.enter	n/a
319.3225	9.7015	638645	prompt	n/a	coordinator lotus median barnes\n
320.007	0.0905	640014	keystroke	c	n/a
320.1725	0.075	640345	keystroke	o	n/a
320.352	0.105	640704	keystroke	o	n/a
321.297	0.09	642594	keystroke	r	n/a
322.078	0.059	644156	keystroke	d	n/a
322.377	0.15	644754	keystroke	i	n/a
322.497	0.151	644994	keystroke	n	n/a
322.602	0.18	645204	keystroke	a	n/a
322.752	0.105	645504	keystroke	t	n/a
322.902	0.12	645804	keystroke	o	n/a
323.067	0.12	646134	keystroke	r	n/a
323.203	0.104	646406	keystroke	Key.space	n/a
323.3825	0.12	646765	keystroke	l	n/a
323.6525	0.105	647305	keystroke	o	n/a
323.953	0.09	647906	keystroke	t	n/a
324.102	0.09	648204	keystroke	u	n/a
324.252	0.135	648504	keystroke	s	n/a
324.402	0.09	648804	keystroke	Key.space	n/a
324.897	0.091	649794	keystroke	m	n/a
325.002	0.06	650004	keystroke	e	n/a
325.183	0.06	650366	keystroke	d	n/a
325.318	0.089	650636	keystroke	i	n/a
325.4225	0.1205	650845	keystroke	a	n/a
325.618	0.1345	651236	keystroke	n	n/a
325.858	0.104	651716	keystroke	Key.space	n/a
326.187	0.075	652374	keystroke	b	n/a
326.337	0.195	652674	keystroke	a	n/a
326.473	0.105	652946	keystroke	r	n/a
326.727	0.105	653454	keystroke	n	n/a
326.892	0.0905	653784	keystroke	e	n/a
327.0115	0.106	654023	keystroke	s	n/a
327.3275	0.1045	654655	keystroke	Key.space	n/a
328.377	0.105	656754	keystroke	Key.backspace	n/a
328.947	0.075	657894	keystroke	Key.enter	n/a
329.028	11.906	658056	prompt	n/a	only policy phentermine soonest\n
330.432	0.135	660864	keystroke	o	n/a
330.552	0.135	661104	keystroke	n	n/a
330.717	0.15	661434	keystroke	l	n/a
330.897	0.09	661794	keystroke	y	n/a
331.032	0.12	662064	keystroke	Key.space	n/a
331.392	0.1505	662784	keystroke	p	n/a
331.5125	0.135	663025	keystroke	o	n/a
331.7525	0.15	663505	keystroke	l	n/a
331.8725	0.105	663745	keystroke	i	n/a
332.0375	0.09	664075	keystroke	c	n/a
332.4725	0.105	664945	keystroke	y	n/a
332.6075	0.135	665215	keystroke	Key.space	n/a
333.102	0.15	666204	keystroke	p	n/a
333.237	0.12	666474	keystroke	h	n/a
333.477	0.075	666954	keystroke	e	n/a
333.612	0.12	667224	keystroke	n	n/a
333.807	0.1055	667614	keystroke	t	n/a
334.032	0.15	668064	keystroke	e	n/a
334.153	0.119	668306	keystroke	r	n/a
334.423	0.164	668846	keystroke	m	n/a
334.557	0.151	669114	keystroke	i	n/a
334.708	0.104	669416	keystroke	n	n/a
334.872	0.105	669744	keystroke	e	n/a
336.417	0.09	672834	keystroke	Key.space	n/a
336.972	0.09	673944	keystroke	s	n/a
337.1525	0.09	674305	keystroke	o	n/a
337.3325	0.105	674665	keystroke	o	n/a
337.4525	0.12	674905	keystroke	n	n/a
337.6025	0.1045	675205	keystroke	e	n/a
337.797	0.135	675594	keystroke	s	n/a
337.978	0.104	675956	keystroke	t	n/a
340.9055	0.027	681811	keystroke	Key.enter	n/a
340.9375	6.6715	681875	prompt	n/a	educated ugly ampland briefly\n
341.6225	0.075	683245	keystroke	e	n/a
341.8025	0.09	683605	keystroke	d	n/a
341.9825	0.06	683965	keystroke	u	n/a
342.0425	0.06	684085	keystroke	c	n/a
342.1475	0.165	684295	keystroke	a	n/a
342.2375	0.105	684475	keystroke	t	n/a
342.3875	0.0895	684775	keystroke	e	n/a
342.597	0.09	685194	keystroke	d	n/a
342.672	0.12	685344	keystroke	Key.space	n/a
342.8825	0.06	685765	keystroke	u	n/a
342.9725	0.075	685945	keystroke	g	n/a
343.1525	0.12	686305	keystroke	l	n/a
343.3775	0.09	686755	keystroke	y	n/a
343.4975	0.105	686995	keystroke	Key.space	n/a
343.7075	0.105	687415	keystroke	a	n/a
343.8575	0.165	687715	keystroke	m	n/a
344.0675	0.105	688135	keystroke	p	n/a
344.2175	0.165	688435	keystroke	l	n/a
344.4575	0.12	688915	keystroke	a	n/a
344.6075	0.12	689215	keystroke	n	n/a
344.7575	0.075	689515	keystroke	d	n/a
345.6425	0.105	691285	keystroke	Key.space	n/a
345.8675	0.06	691735	keystroke	b	n/a
346.0625	0.075	692125	keystroke	r	n/a
346.1825	0.075	692365	keystroke	i	n/a
346.2875	0.09	692575	keystroke	e	n/a
346.4525	0.09	692905	keystroke	f	n/a
346.6175	0.15	693235	keystroke	l	n/a
346.8875	0.075	693775	keystroke	y	n/a
347.5325	0.075	695065	keystroke	Key.enter	n/a
347.612	11.442	695224	prompt	n/a	bathrooms knights craig gorgeous\n
348.3425	0.075	696685	keystroke	b	n/a
348.4925	0.195	696985	keystroke	a	n/a
348.6425	0.105	697285	keystroke	t	n/a
348.7925	0.121	697585	keystroke	h	n/a
348.9275	0.1055	697855	keystroke	r	n/a
349.062	0.076	698124	keystroke	o	n/a
349.228	0.105	698456	keystroke	o	n/a
349.437	0.121	698874	keystroke	m	n/a
349.753	0.135	699506	keystroke	s	n/a
349.948	0.119	699896	keystroke	Key.space	n/a
350.338	0.104	700676	keystroke	k	n/a
350.5925	0.12	701185	keystroke	n	n/a
350.8325	0.075	701665	keystroke	i	n/a
350.8925	0.075	701785	keystroke	g	n/a
351.0575	0.075	702115	keystroke	h	n/a
351.148	0.09	702296	keystroke	t	n/a
351.343	0.105	702686	keystroke	s	n/a
351.852	0.075	703704	keystroke	Key.space	n/a
352.782	0.076	705564	keystroke	c	n/a
352.993	0.089	705986	keystroke	r	n/a
353.113	0.1495	706226	keystroke	a	n/a
353.3225	0.09	706645	keystroke	i	n/a
353.4575	0.09	706915	keystroke	g	n/a
353.5925	0.1205	707185	keystroke	Key.space	n/a
353.893	0.075	707786	keystroke	g	n/a
354.013	0.105	708026	keystroke	o	n/a
354.148	0.075	708296	keystroke	r	n/a
354.358	0.09	708716	keystroke	g	n/a
354.628	0.015	709256	keystroke	e	n/a
354.8075	0.195	709615	keystroke	i	n/a
354.9875	0.345	709975	keystroke	o	n/a
355.6475	0.06	711295	keystroke	Key.backspace	n/a
355.8425	0.03	711685	keystroke	Key.backspace	n/a
356.442	0.15	712884	keystroke	o	n/a
356.563	0.105	713126	keystroke	u	n/a
356.968	0.104	713936	keystroke	s	n/a
358.9625	0.09	717925	keystroke	Key.enter	n/a
359.058	8.4115	718116	prompt	n/a	speaker lined coffee distances\n
360.1175	0.09	720235	keystroke	s	n/a
360.2525	0.135	720505	keystroke	k	n/a
360.3725	0.105	720745	keystroke	e	n/a
360.4625	0.136	720925	keystroke	a	n/a
360.6125	0.105	721225	keystroke	k	n/a
360.7025	0.18	721405	keystroke	e	n/a
360.8075	0.15	721615	keystroke	r	n/a
361.528	0.074	723056	keystroke	Key.backspace	n/a
361.692	0.06	723384	keystroke	Key.backspace	n/a
361.828	0.075	723656	keystroke	Key.backspace	n/a
361.977	0.061	723954	keystroke	Key.backspace	n/a
362.127	0.09	724254	keystroke	Key.backspace	n/a
362.2775	0.09	724555	keystroke	Key.backspace	n/a
362.5635	0.104	725127	keystroke	p	n/a
362.6825	0.12	725365	keystroke	e	n/a
362.7875	0.135	725575	keystroke	a	n/a
362.893	0.105	725786	keystroke	k	n/a
363.0275	0.1655	726055	keystroke	e	n/a
363.1325	0.1505	726265	keystroke	r	n/a
363.448	0.09	726896	keystroke	Key.space	n/a
363.7925	0.18	727585	keystroke	l	n/a
363.9875	0.1055	727975	keystroke	i	n/a
364.108	0.1355	728216	keystroke	n	n/a
364.213	0.0745	728426	keystroke	e	n/a
364.3925	0.12	728785	keystroke	d	n/a
364.4975	0.12	728995	keystroke	Key.space	n/a
365.0375	0.061	730075	keystroke	c	n/a
365.173	0.105	730346	keystroke	o	n/a
365.338	0.075	730676	keystroke	f	n/a
365.518	0.0755	731036	keystroke	f	n/a
365.7135	0.074	731427	keystroke	e	n/a
365.877	0.09	731754	keystroke	e	n/a
365.9685	0.1035	731937	keystroke	Key.space	n/a
366.1625	0.0755	732325	keystroke	d	n/a
366.253	0.075	732506	keystroke	i	n/a
366.373	0.09	732746	keystroke	s	n/a
366.493	0.09	732986	keystroke	t	n/a
366.5975	0.1205	733195	keystroke	a	n/a
366.718	0.0905	733436	keystroke	n	n/a
366.8085	0.0745	733617	keystroke	c	n/a
367.0035	0.1495	734007	keystroke	e	n/a
367.1085	0.1045	734217	keystroke	s	n/a
367.3785	0.09	734757	keystroke	Key.enter	n/a
367.4735	11.966	734947	prompt	n/a	estimates quoted hang candidate\n
372.87	0.058	745740	keystroke	e	n/a
372.898	0.165	745796	keystroke	s	n/a
373.034	0.104	746068	keystroke	t	n/a
373.1535	0.0895	746307	keystroke	i	n/a
373.258	0.12	746516	keystroke	m	n/a
373.363	0.165	746726	keystroke	a	n/a
373.513	0.165	747026	keystroke	t	n/a
373.633	0.1955	747266	keystroke	e	n/a
373.7685	0.165	747537	keystroke	s	n/a
373.9035	0.089	747807	keystroke	Key.space	n/a
374.2335	0.09	748467	keystroke	q	n/a
374.3535	0.075	748707	keystroke	u	n/a
374.5185	0.03	749037	keystroke	i	n/a
374.9385	0.105	749877	keystroke	Key.backspace	n/a
375.1185	0.1195	750237	keystroke	o	n/a
375.193	0.12	750386	keystroke	t	n/a
375.283	0.12	750566	keystroke	e	n/a
375.568	0.091	751136	keystroke	d	n/a
376.093	0.09	752186	keystroke	Key.space	n/a
376.318	0.0905	752636	keystroke	h	n/a
376.4535	0.12	752907	keystroke	a	n/a
376.5285	0.09	753057	keystroke	n	n/a
376.6635	0.105	753327	keystroke	g	n/a
376.8135	0.105	753627	keystroke	Key.space	n/a
377.0685	0.075	754137	keystroke	c	n/a
377.2035	0.15	754407	keystroke	a	n/a
377.2335	0.105	754467	keystroke	n	n/a
377.4435	0.06	754887	keystroke	d	n/a
377.5635	0.075	755127	keystroke	i	n/a
378.1035	0.075	756207	keystroke	d	n/a
378.2685	0.15	756537	keystroke	a	n/a
378.3735	0.12	756747	keystroke	t	n/a
378.5085	0.075	757017	keystroke	e	n/a
379.363	0.075	758726	keystroke	Key.enter	n/a
379.4455	8.769	758891	prompt	n/a	variable timing respiratory labeled\n
380.158	0.075	760316	keystroke	v	n/a
380.293	0.18	760586	keystroke	a	n/a
380.428	0.105	760856	keystroke	r	n/a
380.608	0.09	761216	keystroke	i	n/a
380.758	0.135	761516	keystroke	a	n/a
380.923	0.09	761846	keystroke	b	n/a
381.088	0.1045	762176	keystroke	l	n/a
381.1935	0.089	762387	keystroke	e	n/a
381.2535	0.134	762507	keystroke	Key.space	n/a
381.4325	0.09	762865	keystroke	t	n/a
381.5525	0.12	763105	keystroke	i	n/a
381.6575	0.12	763315	keystroke	m	n/a
381.8235	0.119	763647	keystroke	i	n/a
381.9275	0.105	763855	keystroke	n	n/a
382.0775	0.121	764155	keystroke	g	n/a
382.1525	0.12	764305	keystroke	Key.space	n/a
382.3785	0.134	764757	keystroke	r	n/a
382.4225	0.151	764845	keystroke	e	n/a
382.5435	0.1195	765087	keystroke	s	n/a
382.708	0.15	765416	keystroke	p	n/a
382.843	0.1055	765686	keystroke	o	n/a
383.368	0.105	766736	keystroke	Key.backspace	n/a
383.623	0.0755	767246	keystroke	i	n/a
383.7735	0.105	767547	keystroke	r	n/a
383.9985	0.1645	767997	keystroke	a	n/a
384.133	0.105	768266	keystroke	t	n/a
384.298	0.09	768596	keystroke	o	n/a
384.433	0.105	768866	keystroke	r	n/a
384.673	0.075	769346	keystroke	y	n/a
384.988	0.09	769976	keystroke	Key.space	n/a
385.483	0.135	770966	keystroke	l	n/a
385.663	0.165	771326	keystroke	a	n/a
385.768	0.09	771536	keystroke	b	n/a
385.993	0.0305	771986	keystroke	l	n/a
386.008	0.0595	772016	keystroke	e	n/a
386.7735	0.059	773547	keystroke	Key.backspace	n/a
386.9375	0.06	773875	keystroke	Key.backspace	n/a
387.1785	0.089	774357	keystroke	e	n/a
387.2975	0.1055	774595	keystroke	l	n/a
387.418	0.09	774836	keystroke	e	n/a
387.628	0.06	775256	keystroke	d	n/a
388.138	0.075	776276	keystroke	Key.enter	n/a
388.2185	6.2075	776437	prompt	n/a	treasure sept accessing cheap\n
388.903	0.075	777806	keystroke	t	n/a
389.114	0.134	778228	keystroke	r	n/a
389.233	0.105	778466	keystroke	e	n/a
389.309	0.209	778618	keystroke	a	n/a
389.683	0.075	779366	keystroke	s	n/a
389.953	0.06	779906	keystroke	u	n/a
390.044	0.134	780088	keystroke	r	n/a
390.118	0.121	780236	keystroke	e	n/a
390.658	0.09	781316	keystroke	Key.space	n/a
390.898	0.09	781796	keystroke	s	n/a
391.063	0.09	782126	keystroke	e	n/a
391.228	0.09	782456	keystroke	p	n/a
391.348	0.1205	782696	keystroke	t	n/a
391.453	0.1045	782906	keystroke	Key.space	n/a
391.6175	0.12	783235	keystroke	a	n/a
391.8575	0.061	783715	keystroke	c	n/a
392.0225	0.061	784045	keystroke	c	n/a
392.2475	0.12	784495	keystroke	e	n/a
392.3225	0.105	784645	keystroke	s	n/a
392.5175	0.09	785035	keystroke	s	n/a
392.6975	0.09	785395	keystroke	i	n/a
392.8025	0.0905	785605	keystroke	n	n/a
392.908	0.12	785816	keystroke	g	n/a
393.013	0.105	786026	keystroke	Key.space	n/a
393.2235	0.09	786447	keystroke	c	n/a
393.3435	0.105	786687	keystroke	h	n/a
393.4785	0.135	786957	keystroke	e	n/a
393.5685	0.165	787137	keystroke	a	n/a
393.7935	0.12	787587	keystroke	p	n/a
394.348	0.075	788696	keystroke	Key.enter	n/a
394.4285	6.3115	788857	prompt	n/a	appreciated affair hasn't permit\n
395.068	0.1505	790136	keystroke	a	n/a
395.2335	0.075	790467	keystroke	p	n/a
395.413	0.09	790826	keystroke	p	n/a
395.564	0.1045	791128	keystroke	r	n/a
395.6085	0.105	791217	keystroke	e	n/a
395.8335	0.09	791667	keystroke	c	n/a
396.0135	0.075	792027	keystroke	i	n/a
396.1335	0.12	792267	keystroke	a	n/a
396.2085	0.12	792417	keystroke	t	n/a
396.2985	0.089	792597	keystroke	e	n/a
396.5235	0.075	793047	keystroke	d	n/a
396.6285	0.12	793257	keystroke	Key.space	n/a
396.7785	0.1495	793557	keystroke	a	n/a
396.943	0.075	793886	keystroke	f	n/a
397.123	0.09	794246	keystroke	f	n/a
397.363	0.12	794726	keystroke	a	n/a
397.558	0.09	795116	keystroke	i	n/a
397.708	0.105	795416	keystroke	r	n/a
397.858	0.09	795716	keystroke	Key.space	n/a
398.143	0.0755	796286	keystroke	h	n/a
398.189	0.1645	796378	keystroke	a	n/a
398.3385	0.104	796677	keystroke	s	n/a
398.4885	0.12	796977	keystroke	n	n/a
398.6235	0.12	797247	keystroke	'	n/a
398.9385	0.1045	797877	keystroke	t	n/a
399.088	0.105	798176	keystroke	Key.space	n/a
399.388	0.09	798776	keystroke	p	n/a
399.448	0.136	798896	keystroke	e	n/a
399.538	0.12	799076	keystroke	r	n/a
399.673	0.15	799346	keystroke	m	n/a
399.793	0.105	799586	keystroke	i	n/a
400.063	0.09	800126	keystroke	t	n/a
400.648	0.09	801296	keystroke	Key.enter	n/a
400.7455	7.179	801491	prompt	n/a	biology conspiracy manga handy\n
401.473	0.075	802946	keystroke	b	n/a
401.593	0.09	803186	keystroke	i	n/a
401.833	0.09	803666	keystroke	o	n/a
402.043	0.09	804086	keystroke	l	n/a
402.253	0.09	804506	keystroke	o	n/a
402.388	0.0905	804776	keystroke	g	n/a
402.5385	0.09	805077	keystroke	y	n/a
402.6585	0.105	805317	keystroke	Key.space	n/a
402.9435	0.075	805887	keystroke	c	n/a
403.0485	0.12	806097	keystroke	o	n/a
403.1385	0.09	806277	keystroke	n	n/a
403.2435	0.105	806487	keystroke	s	n/a
403.6485	0.1345	807297	keystroke	p	n/a
403.858	0.105	807716	keystroke	i	n/a
404.068	0.075	808136	keystroke	r	n/a
404.218	0.165	808436	keystroke	a	n/a
404.503	0.075	809006	keystroke	c	n/a
404.713	0.075	809426	keystroke	y	n/a
405.148	0.09	810296	keystroke	Key.space	n/a
405.583	0.105	811166	keystroke	m	n/a
405.748	0.12	811496	keystroke	a	n/a
405.883	0.075	811766	keystroke	n	n/a
406.033	0.075	812066	keystroke	g	n/a
406.183	0.135	812366	keystroke	a	n/a
406.6185	0.09	813237	keystroke	Key.space	n/a
406.9935	0.075	813987	keystroke	h	n/a
407.1135	0.1045	814227	keystroke	a	n/a
407.233	0.09	814466	keystroke	n	n/a
407.353	0.075	814706	keystroke	d	n/a
407.563	0.075	815126	keystroke	y	n/a
407.848	0.075	815696	keystroke	Key.enter	n/a
407.928	9.7465	815856	prompt	n/a	literally missile polls contest\n
408.643	0.105	817286	keystroke	l	n/a
408.853	0.09	817706	keystroke	i	n/a
409.873	0.105	819746	keystroke	t	n/a
410.113	0.1055	820226	keystroke	e	n/a
410.2035	0.09	820407	keystroke	r	n/a
410.4285	0.105	820857	keystroke	a	n/a
410.8335	0.09	821667	keystroke	l	n/a
410.9985	0.1045	821997	keystroke	l	n/a
411.223	0.09	822446	keystroke	y	n/a
411.298	0.12	822596	keystroke	Key.space	n/a
411.568	0.135	823136	keystroke	m	n/a
411.673	0.105	823346	keystroke	i	n/a
411.808	0.075	823616	keystroke	s	n/a
411.958	0.09	823916	keystroke	s	n/a
412.4225	0.105	824845	keystroke	i	n/a
412.6325	0.09	825265	keystroke	l	n/a
412.8425	0.03	825685	keystroke	l	n/a
413.4725	0.09	826945	keystroke	Key.backspace	n/a
413.8935	0.09	827787	keystroke	e	n/a
414.0575	0.12	828115	keystroke	Key.space	n/a
414.3275	0.27	828655	keystroke	p	n/a
414.7185	0.12	829437	keystroke	o	n/a
415.0035	0.12	830007	keystroke	l	n/a
415.2285	0.1195	830457	keystroke	l	n/a
415.5135	0.12	831027	keystroke	s	n/a
415.6035	0.12	831207	keystroke	Key.space	n/a
415.8435	0.09	831687	keystroke	c	n/a
415.9185	0.105	831837	keystroke	o	n/a
416.0085	0.104	832017	keystroke	n	n/a
416.1435	0.09	832287	keystroke	t	n/a
416.2035	0.195	832407	keystroke	e	n/a
416.6835	0.105	833367	keystroke	s	n/a
416.8335	0.104	833667	keystroke	t	n/a
417.5825	0.09	835165	keystroke	Key.enter	n/a
417.678	5.367	835356	prompt	n/a	bills conf lamp must've\n
418.3635	0.0745	836727	keystroke	b	n/a
418.469	0.104	836938	keystroke	i	n/a
418.603	0.105	837206	keystroke	l	n/a
418.8125	0.09	837625	keystroke	l	n/a
418.9625	0.12	837925	keystroke	s	n/a
419.0225	0.1355	838045	keystroke	Key.space	n/a
419.338	0.015	838676	keystroke	c	n/a
419.354	0.1195	838708	keystroke	o	n/a
419.4135	0.135	838827	keystroke	n	n/a
419.5635	0.105	839127	keystroke	f	n/a
420.0585	0.104	840117	keystroke	Key.space	n/a
420.2535	0.119	840507	keystroke	l	n/a
420.3575	0.12	840715	keystroke	a	n/a
420.4925	0.12	840985	keystroke	m	n/a
420.7335	0.105	841467	keystroke	p	n/a
421.2425	0.121	842485	keystroke	Key.space	n/a
421.5725	0.09	843145	keystroke	m	n/a
421.7985	0.074	843597	keystroke	u	n/a
421.8875	0.18	843775	keystroke	s	n/a
422.0085	0.12	844017	keystroke	t	n/a
422.2475	0.121	844495	keystroke	'	n/a
422.4585	0.074	844917	keystroke	v	n/a
422.5625	0.106	845125	keystroke	e	n/a
422.9825	0.06	845965	keystroke	Key.enter	n/a
423.048	5.5465	846096	prompt	n/a	struggle wondering variable gage\n
423.643	0.15	847286	keystroke	s	n/a
423.778	0.06	847556	keystroke	t	n/a
423.913	0.09	847826	keystroke	r	n/a
424.048	0.0755	848096	keystroke	u	n/a
424.1685	0.0745	848337	keystroke	g	n/a
424.333	0.09	848666	keystroke	g	n/a
424.513	0.12	849026	keystroke	l	n/a
424.648	0.135	849296	keystroke	e	n/a
424.768	0.105	849536	keystroke	Key.space	n/a
425.1735	0.075	850347	keystroke	w	n/a
425.2485	0.119	850497	keystroke	o	n/a
425.3375	0.106	850675	keystroke	n	n/a
425.4285	0.075	850857	keystroke	d	n/a
425.6235	0.104	851247	keystroke	e	n/a
425.6825	0.12	851365	keystroke	r	n/a
425.8625	0.135	851725	keystroke	i	n/a
425.9675	0.105	851935	keystroke	n	n/a
426.0735	0.105	852147	keystroke	g	n/a
426.1475	0.1205	852295	keystroke	Key.space	n/a
426.4025	0.091	852805	keystroke	v	n/a
426.5675	0.15	853135	keystroke	a	n/a
426.6725	0.09	853345	keystroke	r	n/a
426.7935	0.119	853587	keystroke	i	n/a
426.973	0.135	853946	keystroke	a	n/a
427.123	0.105	854246	keystroke	b	n/a
427.288	0.12	854576	keystroke	l	n/a
427.393	0.12	854786	keystroke	e	n/a
427.468	0.15	854936	keystroke	Key.space	n/a
427.753	0.075	855506	keystroke	g	n/a
427.843	0.15	855686	keystroke	a	n/a
427.963	0.06	855926	keystroke	g	n/a
428.068	0.075	856136	keystroke	e	n/a
428.533	0.06	857066	keystroke	Key.enter	n/a
428.6005	7.2985	857201	prompt	n/a	surgical operates males jenny\n
429.133	0.33	858266	keystroke	s	n/a
429.478	0.015	858956	keystroke	u	n/a
429.493	0.06	858986	keystroke	r	n/a
429.688	0.075	859376	keystroke	g	n/a
429.838	0.06	859676	keystroke	i	n/a
429.988	0.06	859976	keystroke	c	n/a
430.123	0.12	860246	keystroke	a	n/a
430.273	0.09	860546	keystroke	l	n/a
430.363	0.105	860726	keystroke	Key.space	n/a
430.678	0.12	861356	keystroke	o	n/a
430.768	0.105	861536	keystroke	p	n/a
430.903	0.135	861806	keystroke	e	n/a
430.963	0.135	861926	keystroke	r	n/a
431.128	0.18	862256	keystroke	a	n/a
431.323	0.135	862646	keystroke	t	n/a
431.683	0.15	863366	keystroke	e	n/a
431.788	0.135	863576	keystroke	s	n/a
431.998	0.105	863996	keystroke	Key.space	n/a
432.463	0.09	864926	keystroke	m	n/a
432.538	0.09	865076	keystroke	a	n/a
432.688	0.105	865376	keystroke	e	n/a
433.4975	0.09	866995	keystroke	Key.backspace	n/a
433.7085	0.105	867417	keystroke	l	n/a
433.8425	0.12	867685	keystroke	e	n/a
433.9175	0.15	867835	keystroke	s	n/a
434.0975	0.12	868195	keystroke	Key.space	n/a
434.3685	0.074	868737	keystroke	j	n/a
434.5175	0.06	869035	keystroke	e	n/a
434.6075	0.0905	869215	keystroke	n	n/a
434.803	0.06	869606	keystroke	n	n/a
435.0285	0.074	870057	keystroke	y	n/a
435.8225	0.075	871645	keystroke	Key.enter	n/a
435.905	6.174	871810	prompt	n/a	meetings rats distance divided\n
436.513	0.075	873026	keystroke	m	n/a
436.603	0.074	873206	keystroke	e	n/a
436.798	0.075	873596	keystroke	t	n/a
437.277	0.09	874554	keystroke	Key.backspace	n/a
437.473	0.09	874946	keystroke	e	n/a
437.593	0.1045	875186	keystroke	t	n/a
437.713	0.12	875426	keystroke	i	n/a
437.7875	0.1205	875575	keystroke	n	n/a
437.938	0.075	875876	keystroke	g	n/a
438.193	0.12	876386	keystroke	s	n/a
438.283	0.135	876566	keystroke	Key.space	n/a
438.523	0.105	877046	keystroke	r	n/a
438.733	0.15	877466	keystroke	a	n/a
438.868	0.105	877736	keystroke	t	n/a
439.108	0.12	878216	keystroke	s	n/a
439.243	0.09	878486	keystroke	Key.space	n/a
439.438	0.075	878876	keystroke	d	n/a
439.573	0.09	879146	keystroke	i	n/a
439.678	0.15	879356	keystroke	s	n/a
439.843	0.09	879686	keystroke	t	n/a
439.903	0.135	879806	keystroke	a	n/a
440.053	0.09	880106	keystroke	n	n/a
440.158	0.075	880316	keystroke	c	n/a
440.383	0.105	880766	keystroke	e	n/a
440.473	0.1045	880946	keystroke	Key.space	n/a
440.6375	0.105	881275	keystroke	d	n/a
440.8025	0.09	881605	keystroke	i	n/a
440.9085	0.074	881817	keystroke	v	n/a
441.0875	0.0755	882175	keystroke	i	n/a
441.223	0.075	882446	keystroke	d	n/a
441.433	0.06	882866	keystroke	e	n/a
441.613	0.0745	883226	keystroke	d	n/a
442.0025	0.075	884005	keystroke	Key.enter	n/a
442.0835	7.871	884167	prompt	n/a	abraham coordinates smaller cold\n
442.7225	0.135	885445	keystroke	a	n/a
442.9635	0.059	885927	keystroke	b	n/a
443.1725	0.105	886345	keystroke	r	n/a
443.2925	0.165	886585	keystroke	a	n/a
443.6375	0.09	887275	keystroke	h	n/a
443.7425	0.135	887485	keystroke	a	n/a
443.9075	0.12	887815	keystroke	m	n/a
444.4325	0.105	888865	keystroke	Key.space	n/a
444.7475	0.075	889495	keystroke	c	n/a
444.8525	0.0905	889705	keystroke	o	n/a
445.0475	0.0905	890095	keystroke	o	n/a
445.153	0.075	890306	keystroke	r	n/a
445.2725	0.09	890545	keystroke	d	n/a
445.423	0.1345	890846	keystroke	i	n/a
445.5275	0.135	891055	keystroke	n	n/a
445.6475	0.165	891295	keystroke	a	n/a
445.7525	0.105	891505	keystroke	t	n/a
446.4875	0.195	892975	keystroke	e	n/a
446.6085	0.164	893217	keystroke	s	n/a
446.8175	0.105	893635	keystroke	Key.space	n/a
447.0875	0.105	894175	keystroke	s	n/a
447.2975	0.15	894595	keystroke	m	n/a
447.4625	0.12	894925	keystroke	a	n/a
447.7475	0.105	895495	keystroke	l	n/a
447.9875	0.09	895975	keystroke	l	n/a
448.3475	0.195	896695	keystroke	e	n/a
448.4675	0.135	896935	keystroke	r	n/a
448.5425	0.12	897085	keystroke	Key.space	n/a
448.8725	0.076	897745	keystroke	c	n/a
448.9925	0.105	897985	keystroke	o	n/a
449.2175	0.135	898435	keystroke	l	n/a
449.398	0.135	898796	keystroke	d	n/a
449.863	0.089	899726	keystroke	Key.enter	n/a
449.9585	8.486	899917	prompt	n/a	finger sphere duplicate portrait\n
450.523	0.105	901046	keystroke	f	n/a
450.688	0.105	901376	keystroke	i	n/a
450.778	0.12	901556	keystroke	n	n/a
450.928	0.075	901856	keystroke	g	n/a
451.123	0.1495	902246	keystroke	e	n/a
451.2425	0.135	902485	keystroke	r	n/a
451.3785	0.0895	902757	keystroke	Key.space	n/a
451.558	0.09	903116	keystroke	s	n/a
451.707	0.09	903414	keystroke	p	n/a
451.812	0.076	903624	keystroke	e	n/a
452.097	0.106	904194	keystroke	h	n/a
452.6675	0.06	905335	keystroke	Key.backspace	n/a
452.8025	0.1055	905605	keystroke	Key.backspace	n/a
452.9525	0.105	905905	keystroke	h	n/a
453.0725	0.1505	906145	keystroke	e	n/a
453.163	0.18	906326	keystroke	r	n/a
453.313	0.12	906626	keystroke	e	n/a
453.943	0.105	907886	keystroke	Key.space	n/a
454.228	0.105	908456	keystroke	d	n/a
454.378	0.135	908756	keystroke	u	n/a
454.543	0.12	909086	keystroke	p	n/a
454.768	0.1945	909536	keystroke	l	n/a
454.933	0.1195	909866	keystroke	i	n/a
455.0825	0.0905	910165	keystroke	c	n/a
455.203	0.18	910406	keystroke	a	n/a
455.353	0.09	910706	keystroke	t	n/a
455.443	0.1355	910886	keystroke	e	n/a
455.6225	0.09	911245	keystroke	Key.space	n/a
455.9375	0.105	911875	keystroke	p	n/a
456.0875	0.151	912175	keystroke	o	n/a
456.2525	0.076	912505	keystroke	r	n/a
456.4625	0.09	912925	keystroke	t	n/a
456.927	0.1205	913854	keystroke	r	n/a
457.063	0.1345	914126	keystroke	a	n/a
457.2125	0.105	914425	keystroke	i	n/a
457.588	0.105	915176	keystroke	t	n/a
458.3525	0.09	916705	keystroke	Key.enter	n/a
458.45	9.399	916900	prompt	n/a	offerings savings compound properties\n
459.0875	0.105	918175	keystroke	o	n/a
459.2075	0.075	918415	keystroke	f	n/a
459.3725	0.075	918745	keystroke	f	n/a
459.5525	0.135	919105	keystroke	e	n/a
459.6425	0.12	919285	keystroke	r	n/a
459.8375	0.135	919675	keystroke	i	n/a
459.9275	0.15	919855	keystroke	n	n/a
460.1075	0.105	920215	keystroke	g	n/a
460.2425	0.165	920485	keystroke	s	n/a
460.3775	0.105	920755	keystroke	Key.space	n/a
460.767	0.105	921534	keystroke	s	n/a
460.918	0.1495	921836	keystroke	a	n/a
461.0225	0.105	922045	keystroke	v	n/a
461.1725	0.12	922345	keystroke	i	n/a
461.2775	0.135	922555	keystroke	n	n/a
461.3975	0.12	922795	keystroke	g	n/a
461.5325	0.15	923065	keystroke	s	n/a
461.6675	0.105	923335	keystroke	Key.space	n/a
461.8625	0.09	923725	keystroke	c	n/a
461.9385	0.1635	923877	keystroke	o	n/a
462.028	0.164	924056	keystroke	m	n/a
462.162	0.1655	924324	keystroke	p	n/a
462.342	0.1205	924684	keystroke	u	n/a
462.8825	0.075	925765	keystroke	Key.backspace	n/a
463.0925	0.12	926185	keystroke	o	n/a
463.1675	0.105	926335	keystroke	u	n/a
463.4075	0.09	926815	keystroke	n	n/a
464.2775	0.09	928555	keystroke	d	n/a
464.5625	0.09	929125	keystroke	Key.space	n/a
464.8325	0.09	929665	keystroke	p	n/a
464.9525	0.09	929905	keystroke	r	n/a
465.0575	0.135	930115	keystroke	o	n/a
466.0325	0.135	932065	keystroke	p	n/a
466.2125	0.165	932425	keystroke	e	n/a
466.3175	0.09	932635	keystroke	r	n/a
466.5275	0.075	933055	keystroke	t	n/a
466.6175	0.09	933235	keystroke	i	n/a
466.7375	0.15	933475	keystroke	e	n/a
466.8425	0.1205	933685	keystroke	s	n/a
467.7725	0.075	935545	keystroke	Key.enter	n/a
467.852	8.9375	935704	prompt	n/a	firmware optimize what're what'll\n
468.4925	0.09	936985	keystroke	f	n/a
468.6575	0.09	937315	keystroke	i	n/a
468.7625	0.09	937525	keystroke	r	n/a
468.8975	0.105	937795	keystroke	m	n/a
469.2275	0.106	938455	keystroke	w	n/a
469.3475	0.15	938695	keystroke	a	n/a
469.4825	0.06	938965	keystroke	y	n/a
469.993	0.09	939986	keystroke	Key.backspace	n/a
470.188	0.119	940376	keystroke	r	n/a
470.337	0.106	940674	keystroke	e	n/a
470.563	0.119	941126	keystroke	Key.space	n/a
470.863	0.18	941726	keystroke	o	n/a
471.013	0.135	942026	keystroke	p	n/a
471.193	0.105	942386	keystroke	t	n/a
471.312	0.166	942624	keystroke	i	n/a
471.463	0.134	942926	keystroke	m	n/a
471.613	0.105	943226	keystroke	i	n/a
471.9275	0.135	943855	keystroke	z	n/a
472.1375	0.12	944275	keystroke	e	n/a
472.3175	0.105	944635	keystroke	Key.space	n/a
472.7525	0.075	945505	keystroke	w	n/a
472.8875	0.09	945775	keystroke	h	n/a
473.0075	0.18	946015	keystroke	a	n/a
473.2775	0.09	946555	keystroke	t	n/a
473.6075	0.105	947215	keystroke	'	n/a
473.8625	0.135	947725	keystroke	r	n/a
473.9225	0.12	947845	keystroke	e	n/a
474.1175	0.12	948235	keystroke	Key.space	n/a
474.4475	0.09	948895	keystroke	w	n/a
474.5525	0.0895	949105	keystroke	h	n/a
474.643	0.179	949286	keystroke	a	n/a
474.777	0.105	949554	keystroke	t	n/a
475.408	0.0895	950816	keystroke	'	n/a
475.738	0.1045	951476	keystroke	l	n/a
475.9175	0.1045	951835	keystroke	l	n/a
476.697	0.09	953394	keystroke	Key.enter	n/a
476.793	8.006	953586	prompt	n/a	little long fuzzy recipes\n
477.4925	0.06	954985	keystroke	l	n/a
477.6725	0.09	955345	keystroke	i	n/a
477.7775	0.045	955555	keystroke	t	n/a
477.9275	0.075	955855	keystroke	t	n/a
478.3175	0.075	956635	keystroke	t	n/a
478.9475	0.09	957895	keystroke	Key.backspace	n/a
479.2025	0.135	958405	keystroke	l	n/a
479.5025	0.12	959005	keystroke	e	n/a
480.0275	0.0745	960055	keystroke	Key.space	n/a
480.387	0.075	960774	keystroke	l	n/a
480.567	0.105	961134	keystroke	o	n/a
480.657	0.12	961314	keystroke	n	n/a
480.762	0.09	961524	keystroke	g	n/a
480.853	0.104	961706	keystroke	Key.space	n/a
481.1375	0.09	962275	keystroke	f	n/a
481.3025	0.06	962605	keystroke	u	n/a
481.4525	0.0905	962905	keystroke	z	n/a
481.603	0.12	963206	keystroke	z	n/a
481.753	0.075	963506	keystroke	y	n/a
481.918	0.09	963836	keystroke	Key.space	n/a
482.323	0.09	964646	keystroke	r	n/a
482.458	0.075	964916	keystroke	i	n/a
482.578	0.075	965156	keystroke	c	n/a
483.073	0.0745	966146	keystroke	Key.backspace	n/a
483.2225	0.09	966445	keystroke	Key.backspace	n/a
483.3275	0.075	966655	keystroke	e	n/a
483.538	0.0745	967076	keystroke	c	n/a
483.7025	0.12	967405	keystroke	i	n/a
483.8375	0.12	967675	keystroke	p	n/a
484.2125	0.105	968425	keystroke	e	n/a
484.3775	0.105	968755	keystroke	s	n/a
484.7225	0.075	969445	keystroke	Key.enter	n/a
484.8025	8.6215	969605	prompt	n/a	offerings significant fourth mountain\n
485.488	0.0895	970976	keystroke	o	n/a
485.6225	0.075	971245	keystroke	f	n/a
485.8025	0.06	971605	keystroke	f	n/a
485.9825	0.105	971965	keystroke	e	n/a
486.0275	0.105	972055	keystroke	r	n/a
486.1625	0.12	972325	keystroke	i	n/a
486.2675	0.12	972535	keystroke	n	n/a
486.3725	0.09	972745	keystroke	g	n/a
486.5825	0.09	973165	keystroke	s	n/a
486.7325	0.1045	973465	keystroke	Key.space	n/a
486.9725	0.09	973945	keystroke	s	n/a
487.1075	0.1045	974215	keystroke	i	n/a
487.272	0.075	974544	keystroke	g	n/a
487.467	0.12	974934	keystroke	n	n/a
487.722	0.09	975444	keystroke	i	n/a
487.872	0.09	975744	keystroke	f	n/a
488.067	0.09	976134	keystroke	i	n/a
488.202	0.076	976404	keystroke	c	n/a
488.368	0.12	976736	keystroke	a	n/a
488.607	0.105	977214	keystroke	n	n/a
489.0575	0.09	978115	keystroke	t	n/a
489.567	0.09	979134	keystroke	Key.space	n/a
490.017	0.0755	980034	keystroke	f	n/a
490.122	0.1205	980244	keystroke	o	n/a
490.362	0.075	980724	keystroke	u	n/a
490.542	0.06	981084	keystroke	r	n/a
490.738	0.075	981476	keystroke	t	n/a
490.932	0.06	981864	keystroke	Key.space	n/a
491.457	0.105	982914	keystroke	Key.backspace	n/a
491.668	0.0745	983336	keystroke	h	n/a
491.7575	0.12	983515	keystroke	Key.space	n/a
492.0125	0.075	984025	keystroke	m	n/a
492.0725	0.165	984145	keystroke	o	n/a
492.2225	0.105	984445	keystroke	u	n/a
492.4475	0.09	984895	keystroke	n	n/a
492.4925	0.105	984985	keystroke	t	n/a
492.6275	0.15	985255	keystroke	a	n/a
492.7475	0.105	985495	keystroke	i	n/a
492.8225	0.105	985645	keystroke	n	n/a
493.348	0.074	986696	keystroke	Key.enter	n/a
493.428	8.2315	986856	prompt	n/a	netherlands stereo sends manually\n
494.067	0.121	988134	keystroke	n	n/a
494.173	0.12	988346	keystroke	e	n/a
494.308	0.105	988616	keystroke	t	n/a
494.4425	0.105	988885	keystroke	h	n/a
494.6375	0.195	989275	keystroke	e	n/a
494.7575	0.12	989515	keystroke	r	n/a
495.1775	0.09	990355	keystroke	l	n/a
495.2525	0.12	990505	keystroke	a	n/a
495.3725	0.09	990745	keystroke	n	n/a
495.5075	0.075	991015	keystroke	d	n/a
495.7775	0.09	991555	keystroke	s	n/a
496.0925	0.09	992185	keystroke	Key.space	n/a
496.3025	0.136	992605	keystroke	s	n/a
496.497	0.075	992994	keystroke	t	n/a
496.647	0.166	993294	keystroke	e	n/a
496.888	0.089	993776	keystroke	r	n/a
497.2025	0.09	994405	keystroke	e	n/a
497.4875	0.09	994975	keystroke	o	n/a
497.787	0.09	995574	keystroke	Key.space	n/a
498.057	0.09	996114	keystroke	s	n/a
498.222	0.105	996444	keystroke	a	n/a
498.627	0.105	997254	keystroke	Key.backspace	n/a
498.852	0.075	997704	keystroke	e	n/a
498.958	0.104	997916	keystroke	n	n/a
499.092	0.075	998184	keystroke	d	n/a
499.362	0.105	998724	keystroke	s	n/a
499.482	0.12	998964	keystroke	Key.space	n/a
499.767	0.105	999534	keystroke	m	n/a
499.887	0.09	999774	keystroke	a	n/a
500.007	0.09	1000014	keystroke	n	n/a
500.322	0.075	1000644	keystroke	u	n/a
500.457	0.106	1000914	keystroke	a	n/a
500.622	0.09	1001244	keystroke	l	n/a
500.802	0.09	1001604	keystroke	l	n/a
501.102	0.075	1002204	keystroke	y	n/a
501.552	0.105	1003104	keystroke	Key.enter	n/a
501.6625	9.747	1003325	prompt	n/a	pads curve advisory adjustment\n
502.407	0.105	1004814	keystroke	p	n/a
502.482	0.15	1004964	keystroke	a	n/a
502.647	0.075	1005294	keystroke	d	n/a
502.857	0.09	1005714	keystroke	s	n/a
502.962	0.106	1005924	keystroke	Key.space	n/a
503.233	0.0895	1006466	keystroke	c	n/a
503.3825	0.075	1006765	keystroke	u	n/a
503.4725	0.075	1006945	keystroke	r	n/a
503.6825	0.075	1007365	keystroke	v	n/a
503.8025	0.09	1007605	keystroke	e	n/a
504.0125	0.06	1008025	keystroke	y	n/a
504.6125	0.1045	1009225	keystroke	Key.backspace	n/a
505.3315	0.105	1010663	keystroke	Key.space	n/a
505.5875	0.165	1011175	keystroke	a	n/a
505.7375	0.075	1011475	keystroke	d	n/a
505.9325	0.09	1011865	keystroke	v	n/a
506.1125	0.12	1012225	keystroke	i	n/a
506.4275	0.075	1012855	keystroke	r	n/a
506.5325	0.135	1013065	keystroke	o	n/a
507.237	0.06	1014474	keystroke	Key.backspace	n/a
507.402	0.06	1014804	keystroke	Key.backspace	n/a
507.717	0.0905	1015434	keystroke	s	n/a
507.9725	0.104	1015945	keystroke	o	n/a
508.1075	0.074	1016215	keystroke	r	n/a
508.348	0.0745	1016696	keystroke	y	n/a
509.0525	0.135	1018105	keystroke	Key.space	n/a
509.4125	0.12	1018825	keystroke	a	n/a
509.607	0.06	1019214	keystroke	d	n/a
509.742	0.09	1019484	keystroke	j	n/a
509.952	0.075	1019904	keystroke	u	n/a
510.042	0.136	1020084	keystroke	s	n/a
510.162	0.09	1020324	keystroke	t	n/a
510.477	0.076	1020954	keystroke	m	n/a
510.597	0.105	1021194	keystroke	e	n/a
510.732	0.075	1021464	keystroke	n	n/a
510.822	0.061	1021644	keystroke	t	n/a
511.3325	0.075	1022665	keystroke	Key.enter	n/a
511.413	7.781	1022826	prompt	n/a	alpha swing privilege income\n
511.9175	0.12	1023835	keystroke	a	n/a
512.0675	0.105	1024135	keystroke	p	n/a
512.5775	0.105	1025155	keystroke	Key.backspace	n/a
512.7875	0.1345	1025575	keystroke	l	n/a
512.952	0.15	1025904	keystroke	p	n/a
513.117	0.0755	1026234	keystroke	h	n/a
513.2675	0.165	1026535	keystroke	a	n/a
513.4475	0.119	1026895	keystroke	Key.space	n/a
513.7475	0.09	1027495	keystroke	s	n/a
513.9725	0.09	1027945	keystroke	w	n/a
514.0775	0.12	1028155	keystroke	i	n/a
514.1675	0.135	1028335	keystroke	n	n/a
514.2875	0.106	1028575	keystroke	g	n/a
514.4975	0.105	1028995	keystroke	Key.space	n/a
515.1275	0.12	1030255	keystroke	p	n/a
515.3075	0.075	1030615	keystroke	r	n/a
516.237	0.09	1032474	keystroke	i	n/a
516.387	0.061	1032774	keystroke	v	n/a
516.612	0.09	1033224	keystroke	i	n/a
517.062	0.105	1034124	keystroke	l	n/a
517.198	0.074	1034396	keystroke	e	n/a
517.392	0.075	1034784	keystroke	g	n/a
517.573	0.089	1035146	keystroke	e	n/a
517.857	0.015	1035714	keystroke	Key.space	n/a
517.977	0.105	1035954	keystroke	i	n/a
518.038	0.134	1036076	keystroke	n	n/a
518.187	0.09	1036374	keystroke	c	n/a
518.292	0.15	1036584	keystroke	o	n/a
518.427	0.135	1036854	keystroke	m	n/a
518.622	0.105	1037244	keystroke	e	n/a
519.1025	0.09	1038205	keystroke	Key.enter	n/a
519.1995	6.13	1038399	prompt	n/a	showers estimate silver doors\n
519.7625	0.09	1039525	keystroke	s	n/a
519.8675	0.105	1039735	keystroke	h	n/a
519.9875	0.12	1039975	keystroke	o	n/a
520.0925	0.135	1040185	keystroke	w	n/a
520.1975	0.165	1040395	keystroke	e	n/a
520.3175	0.12	1040635	keystroke	r	n/a
520.6925	0.105	1041385	keystroke	s	n/a
520.8575	0.105	1041715	keystroke	Key.space	n/a
521.2475	0.15	1042495	keystroke	e	n/a
521.3825	0.165	1042765	keystroke	s	n/a
521.5175	0.09	1043035	keystroke	t	n/a
521.6225	0.105	1043245	keystroke	i	n/a
521.7275	0.09	1043455	keystroke	m	n/a
521.8475	0.165	1043695	keystroke	a	n/a
522.1625	0.105	1044325	keystroke	t	n/a
522.4175	0.09	1044835	keystroke	e	n/a
522.5675	0.105	1045135	keystroke	Key.space	n/a
523.1225	0.0895	1046245	keystroke	s	n/a
523.332	0.09	1046664	keystroke	i	n/a
523.527	0.105	1047054	keystroke	l	n/a
523.662	0.09	1047324	keystroke	v	n/a
523.797	0.151	1047594	keystroke	e	n/a
523.902	0.165	1047804	keystroke	r	n/a
524.037	0.105	1048074	keystroke	Key.space	n/a
524.3525	0.0745	1048705	keystroke	d	n/a
524.442	0.09	1048884	keystroke	o	n/a
524.637	0.09	1049274	keystroke	o	n/a
524.742	0.105	1049484	keystroke	r	n/a
524.907	0.105	1049814	keystroke	s	n/a
525.252	0.076	1050504	keystroke	Key.enter	n/a
525.333	8.066	1050666	prompt	n/a	experiences bearing nigeria duck\n
525.868	0.074	1051736	keystroke	e	n/a
526.078	0.104	1052156	keystroke	x	n/a
526.227	0.121	1052454	keystroke	p	n/a
526.392	0.135	1052784	keystroke	e	n/a
526.453	0.134	1052906	keystroke	r	n/a
526.647	0.091	1053294	keystroke	i	n/a
526.842	0.09	1053684	keystroke	e	n/a
527.082	0.1205	1054164	keystroke	n	n/a
527.2925	0.06	1054585	keystroke	c	n/a
527.5175	0.105	1055035	keystroke	e	n/a
527.6375	0.105	1055275	keystroke	s	n/a
528.0125	0.075	1056025	keystroke	Key.space	n/a
528.2225	0.045	1056445	keystroke	b	n/a
528.3275	0.135	1056655	keystroke	e	n/a
528.5075	0.105	1057015	keystroke	i	n/a
529.0625	0.105	1058125	keystroke	Key.backspace	n/a
529.3175	0.15	1058635	keystroke	a	n/a
529.4225	0.105	1058845	keystroke	r	n/a
529.5875	0.12	1059175	keystroke	i	n/a
529.6925	0.12	1059385	keystroke	n	n/a
529.8575	0.12	1059715	keystroke	g	n/a
529.9925	0.12	1059985	keystroke	Key.space	n/a
530.9825	0.09	1061965	keystroke	n	n/a
531.1475	0.09	1062295	keystroke	i	n/a
531.2675	0.09	1062535	keystroke	g	n/a
531.5525	0.15	1063105	keystroke	e	n/a
531.6575	0.135	1063315	keystroke	r	n/a
531.8525	0.12	1063705	keystroke	i	n/a
532.0175	0.15	1064035	keystroke	a	n/a
532.1975	0.09	1064395	keystroke	Key.space	n/a
532.4675	0.075	1064935	keystroke	d	n/a
532.6025	0.075	1065205	keystroke	u	n/a
532.8275	0.075	1065655	keystroke	c	n/a
533.0075	0.105	1066015	keystroke	k	n/a
533.322	0.075	1066644	keystroke	Key.enter	n/a
533.4035	9.9855	1066807	prompt	n/a	classroom walt hourly luther\n
534.162	0.045	1068324	keystroke	c	n/a
534.222	0.12	1068444	keystroke	l	n/a
534.357	0.12	1068714	keystroke	a	n/a
534.432	0.1055	1068864	keystroke	s	n/a
534.627	0.105	1069254	keystroke	s	n/a
534.942	0.075	1069884	keystroke	r	n/a
535.077	0.09	1070154	keystroke	o	n/a
535.257	0.09	1070514	keystroke	o	n/a
535.482	0.09	1070964	keystroke	m	n/a
535.587	0.105	1071174	keystroke	Key.space	n/a
535.842	0.075	1071684	keystroke	w	n/a
536.7125	0.134	1073425	keystroke	a	n/a
537.2075	0.12	1074415	keystroke	l	n/a
537.9575	0.104	1075915	keystroke	t	n/a
538.707	0.135	1077414	keystroke	Key.space	n/a
539.9525	0.105	1079905	keystroke	h	n/a
540.1025	0.15	1080205	keystroke	o	n/a
540.2225	0.105	1080445	keystroke	u	n/a
540.3575	0.09	1080715	keystroke	r	n/a
540.5975	0.12	1081195	keystroke	l	n/a
540.7925	0.09	1081585	keystroke	y	n/a
540.8975	0.09	1081795	keystroke	Key.space	n/a
541.1225	0.18	1082245	keystroke	l	n/a
541.3775	0.0745	1082755	keystroke	u	n/a
541.498	0.089	1082996	keystroke	t	n/a
541.677	0.106	1083354	keystroke	e	n/a
542.112	0.075	1084224	keystroke	Key.backspace	n/a
542.307	0.06	1084614	keystroke	h	n/a
542.412	0.135	1084824	keystroke	e	n/a
542.502	0.09	1085004	keystroke	r	n/a
543.3125	0.075	1086625	keystroke	Key.enter	n/a
543.392	7.8275	1086784	prompt	n/a	seeks launched train enhancements\n
543.9725	0.09	1087945	keystroke	s	n/a
544.2265	0.0605	1088453	keystroke	e	n/a
544.377	0.075	1088754	keystroke	e	n/a
544.527	0.075	1089054	keystroke	k	n/a
544.632	0.12	1089264	keystroke	s	n/a
544.737	0.12	1089474	keystroke	Key.space	n/a
545.022	0.105	1090044	keystroke	l	n/a
545.172	0.105	1090344	keystroke	a	n/a
545.667	0.075	1091334	keystroke	u	n/a
545.922	0.105	1091844	keystroke	n	n/a
546.102	0.075	1092204	keystroke	c	n/a
546.252	0.06	1092504	keystroke	h	n/a
546.357	0.075	1092714	keystroke	e	n/a
546.582	0.09	1093164	keystroke	d	n/a
546.8825	0.1045	1093765	keystroke	Key.space	n/a
547.182	0.06	1094364	keystroke	t	n/a
547.347	0.09	1094694	keystroke	r	n/a
547.393	0.1495	1094786	keystroke	a	n/a
547.5275	0.12	1095055	keystroke	i	n/a
547.6315	0.105	1095263	keystroke	n	n/a
547.7975	0.104	1095595	keystroke	Key.space	n/a
548.0075	0.075	1096015	keystroke	e	n/a
548.1275	0.105	1096255	keystroke	n	n/a
548.4725	0.06	1096945	keystroke	h	n/a
548.5765	0.121	1097153	keystroke	a	n/a
548.7275	0.09	1097455	keystroke	n	n/a
549.0275	0.06	1098055	keystroke	c	n/a
549.2225	0.089	1098445	keystroke	e	n/a
549.3275	0.09	1098655	keystroke	m	n/a
549.4475	0.105	1098895	keystroke	e	n/a
549.5675	0.075	1099135	keystroke	n	n/a
549.6575	0.089	1099315	keystroke	t	n/a
549.8825	0.03	1099765	keystroke	e	n/a
550.5265	0.075	1101053	keystroke	Key.backspace	n/a
550.7075	0.074	1101415	keystroke	s	n/a
551.1575	0.06	1102315	keystroke	Key.enter	n/a
551.225	8.5285	1102450	prompt	n/a	father lifetime implementation moves\n
551.9225	0.075	1103845	keystroke	f	n/a
552.0125	0.21	1104025	keystroke	a	n/a
552.1775	0.12	1104355	keystroke	t	n/a
552.2825	0.09	1104565	keystroke	h	n/a
552.4025	0.12	1104805	keystroke	e	n/a
552.4625	0.135	1104925	keystroke	r	n/a
552.5525	0.135	1105105	keystroke	Key.space	n/a
552.7925	0.195	1105585	keystroke	l	n/a
552.9275	0.12	1105855	keystroke	i	n/a
553.0625	0.12	1106125	keystroke	f	n/a
553.1675	0.105	1106335	keystroke	e	n/a
553.4375	0.09	1106875	keystroke	t	n/a
553.5425	0.03	1107085	keystroke	e	n/a
553.5725	0.149	1107145	keystroke	i	n/a
553.7065	0.121	1107413	keystroke	m	n/a
554.2615	0.06	1108523	keystroke	Key.backspace	n/a
554.4265	0.06	1108853	keystroke	Key.backspace	n/a
554.7715	0.075	1109543	keystroke	Key.backspace	n/a
555.0415	0.12	1110083	keystroke	i	n/a
555.1765	0.06	1110353	keystroke	m	n/a
555.3265	0.075	1110653	keystroke	e	n/a
555.8965	0.09	1111793	keystroke	Key.space	n/a
556.1665	0.12	1112333	keystroke	i	n/a
556.2565	0.166	1112513	keystroke	m	n/a
556.4375	0.134	1112875	keystroke	p	n/a
556.5415	0.21	1113083	keystroke	l	n/a
556.7665	0.09	1113533	keystroke	e	n/a
556.9015	0.076	1113803	keystroke	m	n/a
556.9915	0.105	1113983	keystroke	e	n/a
557.1265	0.06	1114253	keystroke	n	n/a
557.2315	0.075	1114463	keystroke	t	n/a
557.4115	0.165	1114823	keystroke	a	n/a
557.5465	0.105	1115093	keystroke	t	n/a
557.6675	0.209	1115335	keystroke	i	n/a
557.7725	0.119	1115545	keystroke	o	n/a
557.8465	0.106	1115693	keystroke	n	n/a
558.0565	0.105	1116113	keystroke	Key.space	n/a
558.882	0.09	1117764	keystroke	m	n/a
559.017	0.09	1118034	keystroke	o	n/a
559.167	0.09	1118334	keystroke	v	n/a
559.302	0.15	1118604	keystroke	e	n/a
559.407	0.12	1118814	keystroke	s	n/a
559.677	0.075	1119354	keystroke	Key.enter	n/a
559.7575	7.061	1119515	prompt	n/a	arch what'd post forward\n
560.322	0.165	1120644	keystroke	a	n/a
560.502	0.075	1121004	keystroke	r	n/a
560.757	0.075	1121514	keystroke	c	n/a
560.922	0.075	1121844	keystroke	h	n/a
560.982	0.12	1121964	keystroke	Key.space	n/a
561.237	0.09	1122474	keystroke	w	n/a
561.552	0.015	1123104	keystroke	a	n/a
561.8965	0.091	1123793	keystroke	h	n/a
562.4815	0.075	1124963	keystroke	Key.backspace	n/a
562.6615	0.075	1125323	keystroke	Key.backspace	n/a
562.8715	0.105	1125743	keystroke	h	n/a
563.0075	0.15	1126015	keystroke	a	n/a
563.1265	0.0905	1126253	keystroke	t	n/a
563.487	0.09	1126974	keystroke	'	n/a
563.862	0.045	1127724	keystroke	d	n/a
564.057	0.105	1128114	keystroke	Key.space	n/a
564.462	0.15	1128924	keystroke	p	n/a
564.597	0.135	1129194	keystroke	o	n/a
564.717	0.18	1129434	keystroke	s	n/a
564.852	0.15	1129704	keystroke	t	n/a
565.017	0.09	1130034	keystroke	Key.space	n/a
565.347	0.09	1130694	keystroke	f	n/a
565.452	0.105	1130904	keystroke	o	n/a
565.587	0.105	1131174	keystroke	r	n/a
565.737	0.09	1131474	keystroke	w	n/a
565.887	0.135	1131774	keystroke	a	n/a
565.977	0.105	1131954	keystroke	r	n/a
566.202	0.09	1132404	keystroke	d	n/a
566.727	0.09	1133454	keystroke	Key.enter	n/a
566.822	8.0365	1133644	prompt	n/a	temporary toxic stable lives\n
567.4615	0.075	1134923	keystroke	t	n/a
567.6115	0.09	1135223	keystroke	e	n/a
567.7315	0.1805	1135463	keystroke	m	n/a
567.897	0.09	1135794	keystroke	p	n/a
568.077	0.12	1136154	keystroke	o	n/a
568.212	0.0745	1136424	keystroke	r	n/a
568.3765	0.15	1136753	keystroke	a	n/a
568.4665	0.105	1136933	keystroke	r	n/a
568.7065	0.0755	1137413	keystroke	y	n/a
568.8865	0.075	1137773	keystroke	Key.space	n/a
569.8325	0.06	1139665	keystroke	t	n/a
569.9375	0.09	1139875	keystroke	e	n/a
570.4465	0.105	1140893	keystroke	Key.backspace	n/a
570.6565	0.09	1141313	keystroke	o	n/a
570.8075	0.104	1141615	keystroke	x	n/a
571.0475	0.09	1142095	keystroke	i	n/a
571.1975	0.075	1142395	keystroke	s	n/a
571.6025	0.104	1143205	keystroke	Key.backspace	n/a
571.8425	0.074	1143685	keystroke	c	n/a
572.2915	0.105	1144583	keystroke	Key.space	n/a
572.6065	0.121	1145213	keystroke	s	n/a
572.7425	0.0745	1145485	keystroke	t	n/a
572.832	0.135	1145664	keystroke	a	n/a
572.982	0.075	1145964	keystroke	b	n/a
573.162	0.075	1146324	keystroke	l	n/a
573.267	0.09	1146534	keystroke	e	n/a
573.327	0.12	1146654	keystroke	Key.space	n/a
573.522	0.195	1147044	keystroke	l	n/a
573.672	0.09	1147344	keystroke	i	n/a
573.792	0.09	1147584	keystroke	v	n/a
573.927	0.21	1147854	keystroke	e	n/a
574.092	0.1045	1148184	keystroke	s	n/a
574.827	0.03	1149654	keystroke	Key.enter	n/a
574.862	6.5215	1149724	prompt	n/a	international fancy lesson elder\n
575.607	0.105	1151214	keystroke	i	n/a
575.697	0.105	1151394	keystroke	n	n/a
575.832	0.105	1151664	keystroke	t	n/a
575.967	0.135	1151934	keystroke	e	n/a
576.057	0.105	1152114	keystroke	r	n/a
576.282	0.135	1152564	keystroke	n	n/a
576.957	0.165	1153914	keystroke	a	n/a
577.092	0.1045	1154184	keystroke	t	n/a
577.2265	0.15	1154453	keystroke	i	n/a
577.3015	0.106	1154603	keystroke	o	n/a
577.3465	0.12	1154693	keystroke	n	n/a
577.4815	0.12	1154963	keystroke	a	n/a
577.6315	0.12	1155263	keystroke	l	n/a
577.7665	0.09	1155533	keystroke	Key.space	n/a
578.1415	0.06	1156283	keystroke	f	n/a
578.2625	0.12	1156525	keystroke	a	n/a
578.3675	0.105	1156735	keystroke	n	n/a
578.5175	0.075	1157035	keystroke	c	n/a
578.7125	0.075	1157425	keystroke	y	n/a
578.8025	0.09	1157605	keystroke	Key.space	n/a
579.0265	0.105	1158053	keystroke	l	n/a
579.1025	0.104	1158205	keystroke	e	n/a
579.1915	0.076	1158383	keystroke	s	n/a
579.3425	0.1045	1158685	keystroke	s	n/a
579.612	0.15	1159224	keystroke	o	n/a
579.717	0.135	1159434	keystroke	n	n/a
579.852	0.105	1159704	keystroke	Key.space	n/a
580.017	0.06	1160034	keystroke	e	n/a
580.137	0.12	1160274	keystroke	l	n/a
580.317	0.045	1160634	keystroke	d	n/a
580.542	0.165	1161084	keystroke	e	n/a
580.647	0.12	1161294	keystroke	r	n/a
581.292	0.09	1162584	keystroke	Key.enter	n/a
581.387	8.0365	1162774	prompt	n/a	giant certain oils sheffield\n
582.057	0.09	1164114	keystroke	g	n/a
582.177	0.09	1164354	keystroke	i	n/a
582.282	0.1345	1164564	keystroke	a	n/a
582.3725	0.104	1164745	keystroke	n	n/a
582.8365	0.09	1165673	keystroke	t	n/a
583.1215	0.075	1166243	keystroke	Key.space	n/a
583.6015	0.061	1167203	keystroke	c	n/a
583.812	0.135	1167624	keystroke	e	n/a
583.917	0.09	1167834	keystroke	r	n/a
584.112	0.09	1168224	keystroke	t	n/a
584.217	0.12	1168434	keystroke	a	n/a
584.322	0.1045	1168644	keystroke	i	n/a
584.412	0.1045	1168824	keystroke	n	n/a
584.5175	0.089	1169035	keystroke	Key.space	n/a
584.7565	0.105	1169513	keystroke	o	n/a
585.267	0.09	1170534	keystroke	i	n/a
585.492	0.0895	1170984	keystroke	l	n/a
585.6125	0.12	1171225	keystroke	s	n/a
585.7015	0.121	1171403	keystroke	Key.space	n/a
585.9125	0.119	1171825	keystroke	s	n/a
586.1825	0.09	1172365	keystroke	h	n/a
586.3775	0.0895	1172755	keystroke	e	n/a
586.602	0.06	1173204	keystroke	f	n/a
586.767	0.09	1173534	keystroke	f	n/a
586.932	0.105	1173864	keystroke	i	n/a
587.127	0.09	1174254	keystroke	e	n/a
587.322	0.105	1174644	keystroke	l	n/a
587.517	0.09	1175034	keystroke	d	n/a
589.362	0.06	1178724	keystroke	Key.enter	n/a
589.427	6.7465	1178854	prompt	n/a	capture smtp sending roland\n
590.022	0.075	1180044	keystroke	c	n/a
590.202	0.12	1180404	keystroke	a	n/a
590.307	0.09	1180614	keystroke	p	n/a
590.442	0.09	1180884	keystroke	t	n/a
590.667	0.105	1181334	keystroke	u	n/a
590.757	0.105	1181514	keystroke	r	n/a
590.817	0.105	1181634	keystroke	e	n/a
590.952	0.105	1181904	keystroke	Key.space	n/a
591.192	0.09	1182384	keystroke	s	n/a
591.507	0.165	1183014	keystroke	m	n/a
591.822	0.09	1183644	keystroke	t	n/a
592.302	0.105	1184604	keystroke	p	n/a
592.842	0.105	1185684	keystroke	Key.space	n/a
593.1565	0.15	1186313	keystroke	s	n/a
593.4115	0.075	1186823	keystroke	e	n/a
593.5015	0.1505	1187003	keystroke	n	n/a
593.637	0.09	1187274	keystroke	d	n/a
593.742	0.135	1187484	keystroke	i	n/a
593.862	0.105	1187724	keystroke	n	n/a
594.012	0.105	1188024	keystroke	g	n/a
594.582	0.105	1189164	keystroke	Key.space	n/a
594.972	0.09	1189944	keystroke	r	n/a
595.152	0.075	1190304	keystroke	o	n/a
595.332	0.105	1190664	keystroke	l	n/a
595.467	0.105	1190934	keystroke	a	n/a
595.587	0.09	1191174	keystroke	n	n/a
595.752	0.06	1191504	keystroke	d	n/a
596.097	0.075	1192194	keystroke	Key.enter	n/a
596.179	7.239	1192358	prompt	n/a	urgent departments carrying complete\n
596.848	0.0895	1193696	keystroke	u	n/a
596.9815	0.075	1193963	keystroke	r	n/a
597.177	0.06	1194354	keystroke	g	n/a
597.267	0.105	1194534	keystroke	e	n/a
597.417	0.075	1194834	keystroke	n	n/a
597.552	0.105	1195104	keystroke	t	n/a
598.302	0.09	1196604	keystroke	Key.space	n/a
598.497	0.045	1196994	keystroke	d	n/a
598.662	0.0745	1197324	keystroke	e	n/a
598.7965	0.0755	1197593	keystroke	p	n/a
598.9165	0.1355	1197833	keystroke	a	n/a
599.0065	0.0905	1198013	keystroke	r	n/a
599.2175	0.09	1198435	keystroke	t	n/a
599.3515	0.106	1198703	keystroke	m	n/a
599.4725	0.12	1198945	keystroke	e	n/a
599.6075	0.075	1199215	keystroke	n	n/a
599.6965	0.105	1199393	keystroke	t	n/a
600.132	0.12	1200264	keystroke	s	n/a
600.402	0.09	1200804	keystroke	Key.space	n/a
600.747	0.075	1201494	keystroke	c	n/a
600.897	0.15	1201794	keystroke	a	n/a
601.002	0.075	1202004	keystroke	r	n/a
601.1815	0.09	1202363	keystroke	r	n/a
601.3015	0.1055	1202603	keystroke	y	n/a
601.467	0.135	1202934	keystroke	i	n/a
601.572	0.12	1203144	keystroke	n	n/a
601.692	0.105	1203384	keystroke	g	n/a
601.767	0.12	1203534	keystroke	Key.space	n/a
601.992	0.09	1203984	keystroke	c	n/a
602.097	0.15	1204194	keystroke	o	n/a
602.172	0.165	1204344	keystroke	m	n/a
602.322	0.105	1204644	keystroke	p	n/a
602.412	0.165	1204824	keystroke	l	n/a
602.547	0.165	1205094	keystroke	e	n/a
602.742	0.12	1205484	keystroke	t	n/a
602.877	0.09	1205754	keystroke	e	n/a
603.3415	0.075	1206683	keystroke	Key.enter	n/a
603.421	7.587	1206842	prompt	n/a	scroll operating turkish gate\n
604.077	0.0755	1208154	keystroke	s	n/a
604.2875	0.0745	1208575	keystroke	c	n/a
604.4975	0.075	1208995	keystroke	r	n/a
604.6765	0.091	1209353	keystroke	o	n/a
604.932	0.0905	1209864	keystroke	l	n/a
605.112	0.1045	1210224	keystroke	l	n/a
605.2315	0.105	1210463	keystroke	Key.space	n/a
605.4265	0.15	1210853	keystroke	o	n/a
605.5615	0.1055	1211123	keystroke	p	n/a
605.712	0.12	1211424	keystroke	e	n/a
605.787	0.09	1211574	keystroke	r	n/a
