onset	duration	sample	value	key	prompt_text
4.4685	7.963	8937	prompt	n/a	the quick brown fox jumps over a lazy dog\n
5.5795	0.0415	11159	keystroke	t	n/a
5.608	0.0835	11216	keystroke	h	n/a
5.841	0.106	11682	keystroke	e	n/a
5.9615	0.09	11923	keystroke	Key.space	n/a
6.067	0.1055	12134	keystroke	q	n/a
6.218	0.0755	12436	keystroke	u	n/a
6.368	0.075	12736	keystroke	c	n/a
6.7575	0.061	13515	keystroke	Key.backspace	n/a
6.8935	0.075	13787	keystroke	i	n/a
7.028	0.09	14056	keystroke	c	n/a
7.3875	0.0605	14775	keystroke	k	n/a
7.5675	0.0755	15135	keystroke	Key.space	n/a
7.628	0.0595	15256	keystroke	b	n/a
7.793	0.1045	15586	keystroke	r	n/a
7.8975	0.0605	15795	keystroke	o	n/a
8.003	0.0895	16006	keystroke	w	n/a
8.1085	0.06	16217	keystroke	n	n/a
8.2575	0.075	16515	keystroke	Key.space	n/a
8.408	0.1055	16816	keystroke	f	n/a
8.5725	0.061	17145	keystroke	o	n/a
8.6785	0.0895	17357	keystroke	x	n/a
8.798	0.0745	17596	keystroke	Key.space	n/a
8.9775	0.06	17955	keystroke	j	n/a
9.1285	0.0605	18257	keystroke	u	n/a
9.308	0.0755	18616	keystroke	m	n/a
9.5035	0.06	19007	keystroke	p	n/a
9.6085	0.1345	19217	keystroke	s	n/a
9.7275	0.045	19455	keystroke	Key.space	n/a
9.9075	0.046	19815	keystroke	o	n/a
10.0435	0.105	20087	keystroke	e	n/a
10.4485	0.075	20897	keystroke	Key.backspace	n/a
10.5085	0.0895	21017	keystroke	v	n/a
10.6135	0.1045	21227	keystroke	e	n/a
10.6885	0.1045	21377	keystroke	r	n/a
10.7625	0.09	21525	keystroke	Key.space	n/a
10.8985	0.089	21797	keystroke	a	n/a
10.9575	0.0755	21915	keystroke	Key.space	n/a
11.1835	0.0445	22367	keystroke	l	n/a
11.2575	0.06	22515	keystroke	a	n/a
11.4535	0.12	22907	keystroke	z	n/a
11.6625	0.106	23325	keystroke	y	n/a
11.8285	0.089	23657	keystroke	Key.space	n/a
11.993	0.0905	23986	keystroke	d	n/a
12.113	0.0755	24226	keystroke	o	n/a
12.2185	0.09	24437	keystroke	g	n/a
12.323	0.1045	24646	keystroke	Key.enter	n/a
12.438	5.3475	24876	prompt	n/a	trackback edward shade dream\n
12.984	0.089	25968	keystroke	t	n/a
13.163	0.0745	26326	keystroke	r	n/a
13.223	0.1495	26446	keystroke	a	n/a
13.3425	0.076	26685	keystroke	c	n/a
13.4485	0.0745	26897	keystroke	k	n/a
13.599	0.0895	27198	keystroke	b	n/a
13.718	0.12	27436	keystroke	a	n/a
13.8085	0.09	27617	keystroke	c	n/a
13.868	0.0605	27736	keystroke	k	n/a
14.0485	0.074	28097	keystroke	Key.space	n/a
14.2885	0.104	28577	keystroke	e	n/a
14.453	0.1055	28906	keystroke	d	n/a
14.948	0.135	29896	keystroke	w	n/a
15.068	0.09	30136	keystroke	a	n/a
15.1135	0.105	30227	keystroke	r	n/a
15.353	0.1055	30706	keystroke	d	n/a
15.683	0.0745	31366	keystroke	Key.space	n/a
15.9685	0.1045	31937	keystroke	s	n/a
16.118	0.0745	32236	keystroke	h	n/a
16.2235	0.1495	32447	keystroke	a	n/a
16.313	0.165	32626	keystroke	d	n/a
16.4625	0.046	32925	keystroke	e	n/a
16.538	0.0905	33076	keystroke	Key.space	n/a
17.0335	0.105	34067	keystroke	d	n/a
17.2125	0.0755	34425	keystroke	r	n/a
17.3635	0.105	34727	keystroke	e	n/a
17.4535	0.075	34907	keystroke	a	n/a
17.5125	0.075	35025	keystroke	m	n/a
17.6485	0.135	35297	keystroke	Key.enter	n/a
17.7905	5.5595	35581	prompt	n/a	kingdom paid construct wrapping\n
18.3835	0.06	36767	keystroke	k	n/a
18.5485	0.045	37097	keystroke	i	n/a
18.7135	0.075	37427	keystroke	n	n/a
18.8035	0.045	37607	keystroke	g	n/a
19.0435	0.0895	38087	keystroke	d	n/a
19.1485	0.0295	38297	keystroke	o	n/a
19.313	0.06	38626	keystroke	m	n/a
19.448	0.0605	38896	keystroke	Key.space	n/a
19.749	0.074	39498	keystroke	a	n/a
20.018	0.06	40036	keystroke	Key.backspace	n/a
20.168	0.09	40336	keystroke	p	n/a
20.2435	0.1195	40487	keystroke	a	n/a
20.378	0.076	40756	keystroke	i	n/a
20.4835	0.105	40967	keystroke	d	n/a
20.6035	0.09	41207	keystroke	Key.space	n/a
20.7535	0.09	41507	keystroke	c	n/a
20.8435	0.045	41687	keystroke	o	n/a
21.0235	0.075	42047	keystroke	n	n/a
21.0835	0.075	42167	keystroke	s	n/a
21.2035	0.075	42407	keystroke	t	n/a
21.3985	0.06	42797	keystroke	u	n/a
21.4735	0.075	42947	keystroke	c	n/a
21.653	0.0755	43306	keystroke	t	n/a
21.788	0.0755	43576	keystroke	Key.space	n/a
22.0725	0.106	44145	keystroke	w	n/a
22.2075	0.031	44415	keystroke	r	n/a
22.5535	0.075	45107	keystroke	a	n/a
22.6585	0.06	45317	keystroke	p	n/a
22.7935	0.0595	45587	keystroke	p	n/a
22.973	0.0745	45946	keystroke	i	n/a
23.0335	0.119	46067	keystroke	n	n/a
23.0935	0.1045	46187	keystroke	g	n/a
23.2275	0.121	46455	keystroke	Key.enter	n/a
23.354	5.517	46708	prompt	n/a	throws ordinary tubes removed\n
23.9625	0.075	47925	keystroke	t	n/a
24.1735	0.075	48347	keystroke	h	n/a
24.3535	0.089	48707	keystroke	r	n/a
24.488	0.06	48976	keystroke	o	n/a
24.5785	0.09	49157	keystroke	w	n/a
24.788	0.075	49576	keystroke	s	n/a
24.908	0.0755	49816	keystroke	Key.space	n/a
25.1935	0.0595	50387	keystroke	o	n/a
25.269	0.074	50538	keystroke	d	n/a
25.493	0.1045	50986	keystroke	Key.backspace	n/a
25.5835	0.074	51167	keystroke	r	n/a
25.7485	0.0745	51497	keystroke	d	n/a
25.868	0.06	51736	keystroke	i	n/a
26.033	0.0905	52066	keystroke	n	n/a
26.1385	0.1345	52277	keystroke	a	n/a
26.243	0.135	52486	keystroke	r	n/a
26.453	0.0755	52906	keystroke	y	n/a
26.5725	0.09	53145	keystroke	Key.space	n/a
26.6485	0.089	53297	keystroke	t	n/a
26.8135	0.06	53627	keystroke	u	n/a
26.8885	0.12	53777	keystroke	b	n/a
26.9635	0.12	53927	keystroke	e	n/a
27.173	0.0905	54346	keystroke	s	n/a
27.278	0.075	54556	keystroke	Key.space	n/a
27.383	0.135	54766	keystroke	r	n/a
27.488	0.105	54976	keystroke	e	n/a
27.608	0.06	55216	keystroke	m	n/a
27.7875	0.075	55575	keystroke	o	n/a
27.8485	0.104	55697	keystroke	b	n/a
28.178	0.0905	56356	keystroke	Key.backspace	n/a
28.283	0.1205	56566	keystroke	v	n/a
28.3735	0.089	56747	keystroke	e	n/a
28.5225	0.105	57045	keystroke	d	n/a
28.7775	0.09	57555	keystroke	Key.enter	n/a
28.8775	6.127	57755	prompt	n/a	infrared sustainable reforms engine\n
29.6185	0.0745	59237	keystroke	t	n/a
29.873	0.075	59746	keystroke	Key.backspace	n/a
30.0385	0.09	60077	keystroke	i	n/a
30.2185	0.09	60437	keystroke	n	n/a
30.2785	0.09	60557	keystroke	f	n/a
30.4585	0.12	60917	keystroke	r	n/a
30.5635	0.15	61127	keystroke	a	n/a
30.6985	0.135	61397	keystroke	r	n/a
30.8035	0.105	61607	keystroke	e	n/a
30.9835	0.075	61967	keystroke	d	n/a
31.0595	0.089	62119	keystroke	Key.space	n/a
31.2685	0.0745	62537	keystroke	s	n/a
31.3885	0.0445	62777	keystroke	u	n/a
31.4635	0.1045	62927	keystroke	s	n/a
31.598	0.105	63196	keystroke	t	n/a
31.688	0.105	63376	keystroke	a	n/a
31.7635	0.075	63527	keystroke	i	n/a
31.9435	0.075	63887	keystroke	n	n/a
32.0335	0.089	64067	keystroke	a	n/a
32.243	0.0745	64486	keystroke	b	n/a
32.4985	0.0745	64997	keystroke	l	n/a
32.6325	0.091	65265	keystroke	e	n/a
32.9485	0.074	65897	keystroke	Key.space	n/a
33.0525	0.135	66105	keystroke	r	n/a
33.1735	0.105	66347	keystroke	e	n/a
33.3235	0.105	66647	keystroke	f	n/a
33.4585	0.06	66917	keystroke	o	n/a
33.5035	0.105	67007	keystroke	r	n/a
33.6685	0.06	67337	keystroke	m	n/a
33.7435	0.135	67487	keystroke	s	n/a
33.8935	0.0895	67787	keystroke	Key.space	n/a
34.0885	0.105	68177	keystroke	e	n/a
34.253	0.0905	68506	keystroke	n	n/a
34.3885	0.089	68777	keystroke	g	n/a
34.5225	0.045	69045	keystroke	i	n/a
34.673	0.0905	69346	keystroke	n	n/a
34.778	0.0895	69556	keystroke	e	n/a
34.8985	0.105	69797	keystroke	Key.enter	n/a
35.008	8.023	70016	prompt	n/a	implications host runner requirement\n
35.543	0.045	71086	keystroke	i	n/a
35.693	0.06	71386	keystroke	n	n/a
35.918	0.0745	71836	keystroke	Key.backspace	n/a
36.1135	0.089	72227	keystroke	m	n/a
36.338	0.0455	72676	keystroke	p	n/a
36.6385	0.015	73277	keystroke	i	n/a
36.983	0.0755	73966	keystroke	Key.backspace	n/a
37.298	0.09	74596	keystroke	l	n/a
37.5235	0.045	75047	keystroke	i	n/a
37.6135	0.15	75227	keystroke	c	n/a
37.718	0.1495	75436	keystroke	a	n/a
37.8375	0.091	75675	keystroke	t	n/a
37.8825	0.061	75765	keystroke	i	n/a
38.0475	0.09	76095	keystroke	o	n/a
38.1525	0.061	76305	keystroke	n	n/a
38.333	0.09	76666	keystroke	s	n/a
38.438	0.075	76876	keystroke	Key.space	n/a
38.663	0.06	77326	keystroke	h	n/a
38.753	0.06	77506	keystroke	o	n/a
38.8285	0.12	77657	keystroke	s	n/a
38.9335	0.09	77867	keystroke	t	n/a
39.0075	0.0905	78015	keystroke	Key.space	n/a
39.188	0.12	78376	keystroke	r	n/a
39.3835	0.045	78767	keystroke	u	n/a
39.5335	0.0745	79067	keystroke	n	n/a
39.668	0.09	79336	keystroke	n	n/a
39.743	0.105	79486	keystroke	e	n/a
39.7885	0.1345	79577	keystroke	r	n/a
39.893	0.075	79786	keystroke	Key.space	n/a
40.1485	0.15	80297	keystroke	e	n/a
40.2985	0.104	80597	keystroke	q	n/a
40.4635	0.059	80927	keystroke	u	n/a
40.793	0.0605	81586	keystroke	Key.backspace	n/a
41.0335	0.06	82067	keystroke	Key.backspace	n/a
41.1535	0.1045	82307	keystroke	Key.backspace	n/a
41.258	0.075	82516	keystroke	r	n/a
41.4235	0.1195	82847	keystroke	e	n/a
41.513	0.1055	83026	keystroke	q	n/a
41.6185	0.06	83237	keystroke	u	n/a
41.828	0.075	83656	keystroke	i	n/a
42.2035	0.1345	84407	keystroke	r	n/a
42.2935	0.0895	84587	keystroke	e	n/a
42.443	0.075	84886	keystroke	m	n/a
42.578	0.075	85156	keystroke	e	n/a
42.638	0.09	85276	keystroke	n	n/a
42.743	0.105	85486	keystroke	t	n/a
42.938	0.09	85876	keystroke	Key.enter	n/a
43.037	5.289	86074	prompt	n/a	train steady proposal universe\n
43.5985	0.09	87197	keystroke	t	n/a
43.748	0.105	87496	keystroke	r	n/a
43.823	0.09	87646	keystroke	a	n/a
43.898	0.075	87796	keystroke	i	n/a
44.093	0.0445	88186	keystroke	n	n/a
44.2275	0.076	88455	keystroke	Key.space	n/a
44.273	0.1205	88546	keystroke	s	n/a
44.3785	0.074	88757	keystroke	t	n/a
44.5575	0.1065	89115	keystroke	e	n/a
44.6485	0.12	89297	keystroke	a	n/a
44.7385	0.105	89477	keystroke	d	n/a
44.9485	0.075	89897	keystroke	y	n/a
45.0535	0.075	90107	keystroke	Key.space	n/a
45.2785	0.0745	90557	keystroke	p	n/a
45.353	0.09	90706	keystroke	r	n/a
45.458	0.06	90916	keystroke	o	n/a
45.623	0.0755	91246	keystroke	p	n/a
45.803	0.0755	91606	keystroke	o	n/a
45.8935	0.06	91787	keystroke	s	n/a
46.088	0.1055	92176	keystroke	a	n/a
46.2235	0.089	92447	keystroke	l	n/a
46.6885	0.075	93377	keystroke	u	n/a
47.018	0.0745	94036	keystroke	Key.backspace	n/a
47.0775	0.106	94155	keystroke	Key.space	n/a
47.2285	0.06	94457	keystroke	u	n/a
47.3935	0.0595	94787	keystroke	n	n/a
47.558	0.075	95116	keystroke	i	n/a
47.618	0.1055	95236	keystroke	v	n/a
47.708	0.1205	95416	keystroke	e	n/a
47.7985	0.1045	95597	keystroke	r	n/a
47.933	0.09	95866	keystroke	s	n/a
48.0835	0.105	96167	keystroke	e	n/a
48.2185	0.1045	96437	keystroke	Key.enter	n/a
48.3405	5.309	96681	prompt	n/a	literacy manor angel instantly\n
48.9525	0.0905	97905	keystroke	l	n/a
49.1475	0.091	98295	keystroke	i	n/a
49.2225	0.1355	98445	keystroke	t	n/a
49.3435	0.119	98687	keystroke	e	n/a
49.4475	0.1355	98895	keystroke	r	n/a
49.5675	0.105	99135	keystroke	a	n/a
49.8985	0.09	99797	keystroke	c	n/a
50.0935	0.075	100187	keystroke	y	n/a
50.2285	0.0745	100457	keystroke	Key.space	n/a
50.378	0.076	100756	keystroke	m	n/a
50.4685	0.06	100937	keystroke	a	n/a
50.543	0.0745	101086	keystroke	n	n/a
50.7535	0.06	101507	keystroke	o	n/a
50.8575	0.09	101715	keystroke	r	n/a
50.9625	0.09	101925	keystroke	Key.space	n/a
51.1885	0.0745	102377	keystroke	a	n/a
51.3085	0.075	102617	keystroke	n	n/a
51.3985	0.0895	102797	keystroke	g	n/a
51.4735	0.09	102947	keystroke	e	n/a
51.5935	0.06	103187	keystroke	l	n/a
51.7435	0.059	103487	keystroke	Key.space	n/a
51.9385	0.059	103877	keystroke	i	n/a
52.088	0.09	104176	keystroke	n	n/a
52.118	0.105	104236	keystroke	s	n/a
52.253	0.105	104506	keystroke	t	n/a
52.3435	0.1045	104687	keystroke	a	n/a
52.4785	0.0745	104957	keystroke	n	n/a
52.733	0.09	105466	keystroke	t	n/a
52.943	0.0595	105886	keystroke	l	n/a
52.9585	0.104	105917	keystroke	y	n/a
53.543	0.1055	107086	keystroke	Key.enter	n/a
53.6535	3.6875	107307	prompt	n/a	theft paint grab amended\n
54.2935	0.09	108587	keystroke	t	n/a
54.443	0.06	108886	keystroke	h	n/a
54.4885	0.1045	108977	keystroke	e	n/a
54.6385	0.0745	109277	keystroke	f	n/a
54.788	0.0755	109576	keystroke	t	n/a
54.8635	0.075	109727	keystroke	Key.space	n/a
55.1335	0.0605	110267	keystroke	p	n/a
55.2085	0.105	110417	keystroke	a	n/a
55.3285	0.06	110657	keystroke	i	n/a
55.4935	0.075	110987	keystroke	n	n/a
55.583	0.0605	111166	keystroke	t	n/a
55.6735	0.074	111347	keystroke	Key.space	n/a
55.8375	0.075	111675	keystroke	g	n/a
56.0025	0.1055	112005	keystroke	r	n/a
56.093	0.1205	112186	keystroke	a	n/a
56.243	0.0755	112486	keystroke	b	n/a
56.363	0.075	112726	keystroke	Key.space	n/a
56.4985	0.0895	112997	keystroke	a	n/a
56.6185	0.0895	113237	keystroke	m	n/a
56.723	0.09	113446	keystroke	e	n/a
56.828	0.0905	113656	keystroke	n	n/a
56.933	0.135	113866	keystroke	d	n/a
57.023	0.12	114046	keystroke	e	n/a
57.159	0.0895	114318	keystroke	d	n/a
57.2635	0.0745	114527	keystroke	Key.enter	n/a
57.3455	8.0645	114691	prompt	n/a	acceptable pills equipped princeton\n
57.9085	0.09	115817	keystroke	a	n/a
58.0275	0.091	116055	keystroke	c	n/a
58.163	0.1505	116326	keystroke	c	n/a
58.2835	0.105	116567	keystroke	e	n/a
58.5235	0.1355	117047	keystroke	t	n/a
59.0635	0.074	118127	keystroke	Key.backspace	n/a
59.213	0.09	118426	keystroke	p	n/a
59.3035	0.089	118607	keystroke	t	n/a
59.453	0.1055	118906	keystroke	a	n/a
59.6335	0.075	119267	keystroke	b	n/a
59.768	0.0905	119536	keystroke	l	n/a
59.828	0.1055	119656	keystroke	e	n/a
59.9625	0.075	119925	keystroke	Key.space	n/a
60.188	0.045	120376	keystroke	p	n/a
60.353	0.0755	120706	keystroke	i	n/a
60.683	0.06	121366	keystroke	Key.backspace	n/a
61.193	0.045	122386	keystroke	u	n/a
61.5375	0.09	123075	keystroke	Key.backspace	n/a
61.733	0.0595	123466	keystroke	i	n/a
61.944	0.0445	123888	keystroke	l	n/a
62.0485	0.059	124097	keystroke	l	n/a
62.1535	0.0895	124307	keystroke	s	n/a
62.2575	0.075	124515	keystroke	Key.space	n/a
62.4535	0.15	124907	keystroke	e	n/a
62.558	0.1355	125116	keystroke	q	n/a
62.723	0.0755	125446	keystroke	u	n/a
62.978	0.0755	125956	keystroke	i	n/a
63.2635	0.0595	126527	keystroke	p	n/a
63.4135	0.0595	126827	keystroke	p	n/a
63.458	0.09	126916	keystroke	e	n/a
63.608	0.075	127216	keystroke	d	n/a
63.684	0.104	127368	keystroke	Key.space	n/a
64.1475	0.076	128295	keystroke	p	n/a
64.2385	0.075	128477	keystroke	r	n/a
64.3435	0.075	128687	keystroke	i	n/a
64.5385	0.09	129077	keystroke	n	n/a
64.6135	0.1345	129227	keystroke	c	n/a
64.7035	0.1195	129407	keystroke	e	n/a
64.913	0.075	129826	keystroke	t	n/a
64.973	0.075	129946	keystroke	o	n/a
65.138	0.1055	130276	keystroke	n	n/a
65.303	0.105	130606	keystroke	Key.enter	n/a
65.4145	8.14	130829	prompt	n/a	topics discussions intl removable\n
65.918	0.105	131836	keystroke	t	n/a
66.1125	0.031	132225	keystroke	o	n/a
66.4275	0.0755	132855	keystroke	p	n/a
66.6385	0.074	133277	keystroke	i	n/a
66.6985	0.1195	133397	keystroke	c	n/a
66.878	0.12	133756	keystroke	s	n/a
66.9835	0.075	133967	keystroke	Key.space	n/a
67.118	0.105	134236	keystroke	d	n/a
67.268	0.06	134536	keystroke	u	n/a
67.358	0.075	134716	keystroke	s	n/a
67.5085	0.089	135017	keystroke	c	n/a
67.6885	0.0745	135377	keystroke	c	n/a
68.423	0.0755	136846	keystroke	Key.backspace	n/a
68.5885	0.044	137177	keystroke	Key.backspace	n/a
68.7085	0.075	137417	keystroke	Key.backspace	n/a
68.8435	0.12	137687	keystroke	Key.backspace	n/a
68.9935	0.105	137987	keystroke	i	n/a
69.1135	0.075	138227	keystroke	s	n/a
69.5785	0.06	139157	keystroke	c	n/a
69.7885	0.075	139577	keystroke	u	n/a
69.8935	0.045	139787	keystroke	s	n/a
70.0285	0.075	140057	keystroke	s	n/a
70.118	0.06	140236	keystroke	i	n/a
70.298	0.06	140596	keystroke	o	n/a
70.373	0.06	140746	keystroke	n	n/a
70.553	0.075	141106	keystroke	s	n/a
70.6135	0.0595	141227	keystroke	Key.space	n/a
70.808	0.06	141616	keystroke	i	n/a
70.958	0.0755	141916	keystroke	n	n/a
71.018	0.09	142036	keystroke	t	n/a
71.168	0.09	142336	keystroke	l	n/a
71.2735	0.1045	142547	keystroke	Key.space	n/a
71.4535	0.1345	142907	keystroke	r	n/a
71.5435	0.1195	143087	keystroke	e	n/a
71.6335	0.0745	143267	keystroke	m	n/a
71.888	0.06	143776	keystroke	o	n/a
71.993	0.09	143986	keystroke	v	n/a
72.188	0.09	144376	keystroke	a	n/a
72.9985	0.0745	145997	keystroke	b	n/a
73.103	0.075	146206	keystroke	l	n/a
73.193	0.105	146386	keystroke	e	n/a
73.433	0.12	146866	keystroke	Key.enter	n/a
73.5585	5.8315	147117	prompt	n/a	fiction acquired plates thehun\n
74.153	0.075	148306	keystroke	f	n/a
74.303	0.06	148606	keystroke	i	n/a
74.378	0.045	148756	keystroke	c	n/a
74.5585	0.0745	149117	keystroke	t	n/a
74.618	0.06	149236	keystroke	i	n/a
74.768	0.075	149536	keystroke	o	n/a
74.858	0.06	149716	keystroke	n	n/a
74.963	0.0905	149926	keystroke	Key.space	n/a
75.128	0.0905	150256	keystroke	a	n/a
75.3985	0.0155	150797	keystroke	c	n/a
75.5635	0.149	151127	keystroke	e	n/a
75.983	0.1055	151966	keystroke	Key.backspace	n/a
76.103	0.09	152206	keystroke	q	n/a
76.238	0.075	152476	keystroke	u	n/a
76.448	0.075	152896	keystroke	i	n/a
76.538	0.0905	153076	keystroke	r	n/a
76.598	0.105	153196	keystroke	e	n/a
76.763	0.105	153526	keystroke	d	n/a
76.883	0.075	153766	keystroke	Key.space	n/a
77.123	0.0455	154246	keystroke	p	n/a
77.273	0.09	154546	keystroke	l	n/a
77.3785	0.0745	154757	keystroke	a	n/a
77.408	0.1355	154816	keystroke	t	n/a
77.513	0.075	155026	keystroke	e	n/a
77.6935	0.075	155387	keystroke	s	n/a
77.873	0.09	155746	keystroke	Key.space	n/a
78.023	0.0755	156046	keystroke	t	n/a
78.1125	0.0755	156225	keystroke	h	n/a
78.2025	0.1055	156405	keystroke	e	n/a
78.293	0.0595	156586	keystroke	Key.space	n/a
78.713	0.1045	157426	keystroke	Key.backspace	n/a
78.803	0.1195	157606	keystroke	h	n/a
78.9375	0.06	157875	keystroke	u	n/a
79.0885	0.0895	158177	keystroke	n	n/a
79.268	0.12	158536	keystroke	Key.enter	n/a
79.3935	5.1565	158787	prompt	n/a	graham kong cape principle\n
79.9885	0.1045	159977	keystroke	g	n/a
80.1685	0.119	160337	keystroke	r	n/a
80.2725	0.1205	160545	keystroke	a	n/a
80.6785	0.075	161357	keystroke	h	n/a
80.9625	0.091	161925	keystroke	a	n/a
81.0835	0.0595	162167	keystroke	m	n/a
81.2625	0.0605	162525	keystroke	Key.space	n/a
81.4435	0.045	162887	keystroke	k	n/a
81.5785	0.06	163157	keystroke	o	n/a
81.7435	0.074	163487	keystroke	n	n/a
81.7875	0.075	163575	keystroke	g	n/a
81.9075	0.09	163815	keystroke	Key.space	n/a
82.0125	0.1205	164025	keystroke	c	n/a
82.1175	0.075	164235	keystroke	a	n/a
82.2385	0.1045	164477	keystroke	p	n/a
82.4335	0.0895	164867	keystroke	e	n/a
82.5385	0.0745	165077	keystroke	Key.space	n/a
82.7785	0.0595	165557	keystroke	p	n/a
82.928	0.0605	165856	keystroke	r	n/a
83.0035	0.075	166007	keystroke	i	n/a
83.1835	0.06	166367	keystroke	n	n/a
83.2885	0.0745	166577	keystroke	c	n/a
83.3785	0.06	166757	keystroke	i	n/a
84.0375	0.091	168075	keystroke	p	n/a
84.2325	0.09	168465	keystroke	l	n/a
84.3385	0.089	168677	keystroke	e	n/a
84.4425	0.106	168885	keystroke	Key.enter	n/a
84.5545	4.107	169109	prompt	n/a	blonde delay event garden\n
85.2085	0.105	170417	keystroke	b	n/a
85.2685	0.06	170537	keystroke	l	n/a
85.4335	0.0445	170867	keystroke	o	n/a
85.5985	0.074	171197	keystroke	n	n/a
85.6435	0.149	171287	keystroke	d	n/a
85.7485	0.1045	171497	keystroke	e	n/a
85.8225	0.075	171645	keystroke	Key.space	n/a
85.9735	0.105	171947	keystroke	d	n/a
86.0635	0.12	172127	keystroke	e	n/a
86.1985	0.09	172397	keystroke	l	n/a
86.2735	0.089	172547	keystroke	a	n/a
86.5285	0.104	173057	keystroke	y	n/a
86.7525	0.0905	173505	keystroke	Key.space	n/a
87.0225	0.0905	174045	keystroke	e	n/a
87.158	0.09	174316	keystroke	v	n/a
87.233	0.135	174466	keystroke	e	n/a
87.353	0.06	174706	keystroke	n	n/a
87.3985	0.0745	174797	keystroke	t	n/a
87.518	0.09	175036	keystroke	Key.space	n/a
87.623	0.105	175246	keystroke	g	n/a
87.758	0.165	175516	keystroke	a	n/a
87.878	0.09	175756	keystroke	r	n/a
88.043	0.1645	176086	keystroke	d	n/a
88.1775	0.12	176355	keystroke	e	n/a
88.283	0.0745	176566	keystroke	n	n/a
88.5685	0.0895	177137	keystroke	Key.enter	n/a
88.666	5.2435	177332	prompt	n/a	enhanced monetary eyed workers\n
89.1685	0.105	178337	keystroke	e	n/a
89.3485	0.089	178697	keystroke	n	n/a
89.4825	0.1205	178965	keystroke	a	n/a
89.5875	0.0605	179175	keystroke	h	n/a
89.7825	0.0755	179565	keystroke	n	n/a
89.798	0.15	179596	keystroke	c	n/a
89.918	0.105	179836	keystroke	e	n/a
90.083	0.0755	180166	keystroke	d	n/a
90.1435	0.0745	180287	keystroke	Key.space	n/a
90.308	0.06	180616	keystroke	m	n/a
90.488	0.045	180976	keystroke	o	n/a
90.638	0.0755	181276	keystroke	n	n/a
90.6685	0.1195	181337	keystroke	e	n/a
90.803	0.1205	181606	keystroke	t	n/a
90.9535	0.1345	181907	keystroke	a	n/a
91.4185	0.119	182837	keystroke	r	n/a
91.5985	0.089	183197	keystroke	y	n/a
91.763	0.0745	183526	keystroke	Key.space	n/a
91.883	0.105	183766	keystroke	e	n/a
92.093	0.105	184186	keystroke	y	n/a
92.153	0.1055	184306	keystroke	e	n/a
92.3935	0.09	184787	keystroke	d	n/a
92.5435	0.074	185087	keystroke	Key.space	n/a
92.6485	0.1045	185297	keystroke	w	n/a
92.948	0.0905	185896	keystroke	o	n/a
93.068	0.09	186136	keystroke	r	n/a
93.143	0.1055	186286	keystroke	k	n/a
93.518	0.1055	187036	keystroke	e	n/a
93.578	0.15	187156	keystroke	r	n/a
93.743	0.0905	187486	keystroke	s	n/a
93.788	0.1195	187576	keystroke	Key.enter	n/a
93.9145	6.145	187829	prompt	n/a	enterprises universe operate browser\n
94.4035	0.09	188807	keystroke	e	n/a
94.6585	0.075	189317	keystroke	n	n/a
94.7635	0.12	189527	keystroke	t	n/a
94.8985	0.104	189797	keystroke	e	n/a
94.9585	0.12	189917	keystroke	r	n/a
95.2425	0.106	190485	keystroke	p	n/a
95.363	0.09	190726	keystroke	r	n/a
95.483	0.0755	190966	keystroke	i	n/a
95.5885	0.0745	191177	keystroke	s	n/a
95.724	0.0895	191448	keystroke	e	n/a
95.918	0.0755	191836	keystroke	s	n/a
95.963	0.09	191926	keystroke	Key.space	n/a
96.1885	0.045	192377	keystroke	i	n/a
96.3385	0.074	192677	keystroke	n	n/a
96.3975	0.105	192795	keystroke	v	n/a
96.563	0.0595	193126	keystroke	i	n/a
96.7425	0.106	193485	keystroke	e	n/a
96.8025	0.1055	193605	keystroke	r	n/a
96.9675	0.09	193935	keystroke	s	n/a
97.1325	0.0905	194265	keystroke	e	n/a
97.2675	0.075	194535	keystroke	Key.space	n/a
97.5075	0.045	195015	keystroke	o	n/a
97.6425	0.105	195285	keystroke	p	n/a
97.7175	0.121	195435	keystroke	e	n/a
97.7925	0.166	195585	keystroke	r	n/a
97.9435	0.134	195887	keystroke	a	n/a
98.0625	0.12	196125	keystroke	t	n/a
98.138	0.1195	196276	keystroke	e	n/a
98.3025	0.0755	196605	keystroke	Key.space	n/a
98.693	0.0445	197386	keystroke	b	n/a
98.9175	0.076	197835	keystroke	r	n/a
99.0085	0.074	198017	keystroke	o	n/a
99.368	0.1195	198736	keystroke	w	n/a
99.5935	0.0595	199187	keystroke	s	n/a
99.7425	0.12	199485	keystroke	e	n/a
99.8175	0.121	199635	keystroke	r	n/a
99.968	0.0895	199936	keystroke	Key.enter	n/a
100.0635	9.401	200127	prompt	n/a	summer practitioners synopsis larger\n
100.613	0.0895	201226	keystroke	s	n/a
100.7335	0.059	201467	keystroke	u	n/a
100.8975	0.0455	201795	keystroke	m	n/a
101.0185	0.075	202037	keystroke	m	n/a
101.1085	0.0895	202217	keystroke	e	n/a
101.1385	0.119	202277	keystroke	r	n/a
101.2275	0.075	202455	keystroke	Key.space	n/a
101.4525	0.045	202905	keystroke	p	n/a
101.5135	0.09	203027	keystroke	r	n/a
101.6785	0.135	203357	keystroke	a	n/a
102.0975	0.0755	204195	keystroke	c	n/a
102.2925	0.06	204585	keystroke	t	n/a
102.4285	0.0745	204857	keystroke	i	n/a
102.6085	0.059	205217	keystroke	t	n/a
102.7575	0.045	205515	keystroke	i	n/a
102.8775	0.105	205755	keystroke	o	n/a
102.9835	0.044	205967	keystroke	n	n/a
103.148	0.105	206296	keystroke	s	n/a
103.373	0.1195	206746	keystroke	e	n/a
103.4485	0.1045	206897	keystroke	r	n/a
104.168	0.06	208336	keystroke	s	n/a
104.408	0.045	208816	keystroke	Key.space	n/a
105.0825	0.045	210165	keystroke	Key.backspace	n/a
105.2335	0.044	210467	keystroke	Key.backspace	n/a
105.353	0.06	210706	keystroke	Key.backspace	n/a
105.503	0.045	211006	keystroke	Key.backspace	n/a
105.623	0.09	211246	keystroke	Key.backspace	n/a
105.818	0.12	211636	keystroke	e	n/a
105.893	0.105	211786	keystroke	r	n/a
106.313	0.075	212626	keystroke	s	n/a
106.448	0.0745	212896	keystroke	Key.space	n/a
106.763	0.104	213526	keystroke	s	n/a
106.943	0.09	213886	keystroke	y	n/a
107.423	0.0755	214846	keystroke	n	n/a
107.693	0.09	215386	keystroke	o	n/a
107.903	0.09	215806	keystroke	p	n/a
108.233	0.0755	216466	keystroke	s	n/a
108.3385	0.059	216677	keystroke	i	n/a
108.428	0.0905	216856	keystroke	s	n/a
108.5475	0.06	217095	keystroke	Key.space	n/a
108.7275	0.061	217455	keystroke	l	n/a
108.8185	0.1495	217637	keystroke	a	n/a
108.9225	0.1055	217845	keystroke	r	n/a
109.118	0.0605	218236	keystroke	g	n/a
109.193	0.105	218386	keystroke	e	n/a
109.2685	0.1045	218537	keystroke	r	n/a
109.358	0.105	218716	keystroke	Key.enter	n/a
109.4685	6.506	218937	prompt	n/a	poison phantom desire lion\n
109.883	0.09	219766	keystroke	s	n/a
110.0625	0.0905	220125	keystroke	Key.backspace	n/a
110.513	0.075	221026	keystroke	p	n/a
110.7235	0.0745	221447	keystroke	o	n/a
111.068	0.09	222136	keystroke	i	n/a
111.203	0.09	222406	keystroke	s	n/a
111.4135	0.075	222827	keystroke	o	n/a
111.6385	0.0745	223277	keystroke	n	n/a
111.818	0.075	223636	keystroke	Key.space	n/a
112.838	0.09	225676	keystroke	p	n/a
112.943	0.105	225886	keystroke	h	n/a
113.2575	0.09	226515	keystroke	a	n/a
113.3925	0.075	226785	keystroke	n	n/a
113.5285	0.1045	227057	keystroke	t	n/a
113.6475	0.06	227295	keystroke	o	n/a
113.8435	0.015	227687	keystroke	m	n/a
113.948	0.0745	227896	keystroke	Key.space	n/a
114.083	0.15	228166	keystroke	d	n/a
114.1885	0.104	228377	keystroke	e	n/a
114.5925	0.075	229185	keystroke	s	n/a
114.7725	0.075	229545	keystroke	i	n/a
114.8925	0.12	229785	keystroke	r	n/a
114.9685	0.12	229937	keystroke	e	n/a
115.1025	0.061	230205	keystroke	Key.space	n/a
115.298	0.06	230596	keystroke	l	n/a
115.4775	0.061	230955	keystroke	i	n/a
115.6435	0.0895	231287	keystroke	o	n/a
115.7175	0.09	231435	keystroke	n	n/a
115.8525	0.1205	231705	keystroke	Key.enter	n/a
115.979	4.481	231958	prompt	n/a	lined gained gnome triple\n
116.633	0.075	233266	keystroke	l	n/a
116.813	0.045	233626	keystroke	i	n/a
116.963	0.09	233926	keystroke	n	n/a
117.038	0.135	234076	keystroke	e	n/a
117.174	0.089	234348	keystroke	d	n/a
117.233	0.075	234466	keystroke	Key.space	n/a
117.413	0.09	234826	keystroke	g	n/a
117.488	0.1195	234976	keystroke	a	n/a
117.5625	0.061	235125	keystroke	i	n/a
117.728	0.09	235456	keystroke	n	n/a
117.833	0.105	235666	keystroke	e	n/a
117.9685	0.09	235937	keystroke	d	n/a
117.9825	0.091	235965	keystroke	Key.space	n/a
118.538	0.09	237076	keystroke	g	n/a
118.643	0.0755	237286	keystroke	n	n/a
118.853	0.06	237706	keystroke	o	n/a
119.2125	0.0605	238425	keystroke	m	n/a
119.3185	0.09	238637	keystroke	e	n/a
119.3925	0.09	238785	keystroke	Key.space	n/a
119.5735	0.089	239147	keystroke	t	n/a
119.7535	0.104	239507	keystroke	r	n/a
119.8425	0.076	239685	keystroke	i	n/a
120.0225	0.06	240045	keystroke	p	n/a
120.1725	0.105	240345	keystroke	l	n/a
120.2625	0.105	240525	keystroke	e	n/a
120.3375	0.1205	240675	keystroke	Key.enter	n/a
120.467	5.3325	240934	prompt	n/a	knight it enhanced freebsd\n
121.0435	0.09	242087	keystroke	k	n/a
121.2375	0.06	242475	keystroke	n	n/a
121.4175	0.0605	242835	keystroke	i	n/a
121.508	0.1195	243016	keystroke	g	n/a
121.6285	0.06	243257	keystroke	h	n/a
121.763	0.0745	243526	keystroke	t	n/a
121.8675	0.075	243735	keystroke	Key.space	n/a
122.573	0.0455	245146	keystroke	i	n/a
122.633	0.075	245266	keystroke	t	n/a
122.738	0.105	245476	keystroke	Key.space	n/a
122.993	0.105	245986	keystroke	e	n/a
123.158	0.09	246316	keystroke	n	n/a
123.383	0.075	246766	keystroke	h	n/a
123.488	0.119	246976	keystroke	a	n/a
123.5925	0.0905	247185	keystroke	n	n/a
123.773	0.135	247546	keystroke	c	n/a
123.863	0.135	247726	keystroke	e	n/a
124.028	0.1195	248056	keystroke	d	n/a
124.133	0.075	248266	keystroke	Key.space	n/a
124.583	0.105	249166	keystroke	f	n/a
124.763	0.135	249526	keystroke	r	n/a
124.8835	0.0295	249767	keystroke	e	n/a
124.988	0.105	249976	keystroke	e	n/a
125.2725	0.0905	250545	keystroke	b	n/a
125.408	0.15	250816	keystroke	s	n/a
125.543	0.119	251086	keystroke	d	n/a
125.708	0.09	251416	keystroke	Key.enter	n/a
125.803	8.399	251606	prompt	n/a	inappropriate bind vocabulary danny\n
126.4125	0.045	252825	keystroke	i	n/a
126.563	0.09	253126	keystroke	n	n/a
126.6975	0.0755	253395	keystroke	a	n/a
126.863	0.06	253726	keystroke	p	n/a
126.983	0.0905	253966	keystroke	p	n/a
127.208	0.03	254416	keystroke	r	n/a
127.463	0.0755	254926	keystroke	o	n/a
127.688	0.09	255376	keystroke	p	n/a
128.0775	0.1055	256155	keystroke	r	n/a
128.3175	0.075	256635	keystroke	i	n/a
128.423	0.1345	256846	keystroke	a	n/a
128.5425	0.136	257085	keystroke	t	n/a
128.6475	0.106	257295	keystroke	e	n/a
128.8135	0.105	257627	keystroke	Key.space	n/a
129.0835	0.075	258167	keystroke	b	n/a
129.1735	0.0595	258347	keystroke	i	n/a
129.3385	0.059	258677	keystroke	n	n/a
129.4135	0.119	258827	keystroke	g	n/a
129.743	0.0595	259486	keystroke	Key.backspace	n/a
129.833	0.0905	259666	keystroke	d	n/a
129.938	0.105	259876	keystroke	Key.space	n/a
130.148	0.075	260296	keystroke	v	n/a
130.268	0.06	260536	keystroke	o	n/a
130.643	0.09	261286	keystroke	v	n/a
131.0035	0.074	262007	keystroke	a	n/a
131.303	0.045	262606	keystroke	Key.backspace	n/a
131.408	0.1045	262816	keystroke	Key.backspace	n/a
131.4985	0.134	262997	keystroke	c	n/a
131.978	0.1195	263956	keystroke	a	n/a
132.068	0.0895	264136	keystroke	b	n/a
132.2625	0.06	264525	keystroke	u	n/a
132.4425	0.091	264885	keystroke	l	n/a
132.5185	0.119	265037	keystroke	a	n/a
132.5935	0.1045	265187	keystroke	r	n/a
132.7725	0.106	265545	keystroke	y	n/a
132.9075	0.09	265815	keystroke	Key.space	n/a
133.0425	0.09	266085	keystroke	d	n/a
133.118	0.1045	266236	keystroke	a	n/a
133.2085	0.0595	266417	keystroke	n	n/a
133.313	0.1045	266626	keystroke	n	n/a
133.463	0.06	266926	keystroke	y	n/a
134.063	0.135	268126	keystroke	Key.enter	n/a
134.206	6.1435	268412	prompt	n/a	wholesale shake samples regional\n
134.813	0.105	269626	keystroke	w	n/a
134.978	0.075	269956	keystroke	h	n/a
135.083	0.075	270166	keystroke	o	n/a
135.218	0.09	270436	keystroke	s	n/a
135.413	0.09	270826	keystroke	e	n/a
136.1175	0.06	272235	keystroke	Key.backspace	n/a
136.253	0.075	272506	keystroke	Key.backspace	n/a
136.433	0.09	272866	keystroke	l	n/a
136.538	0.09	273076	keystroke	e	n/a
136.7475	0.075	273495	keystroke	s	n/a
137.1525	0.12	274305	keystroke	a	n/a
137.2575	0.075	274515	keystroke	l	n/a
137.3475	0.105	274695	keystroke	e	n/a
137.4825	0.0905	274965	keystroke	Key.space	n/a
137.588	0.105	275176	keystroke	s	n/a
137.738	0.06	275476	keystroke	h	n/a
137.828	0.105	275656	keystroke	a	n/a
137.9635	0.06	275927	keystroke	k	n/a
138.038	0.09	276076	keystroke	e	n/a
138.143	0.0895	276286	keystroke	Key.space	n/a
138.248	0.1045	276496	keystroke	s	n/a
138.3825	0.03	276765	keystroke	s	n/a
138.3985	0.0895	276797	keystroke	a	n/a
138.4725	0.075	276945	keystroke	m	n/a
138.6825	0.03	277365	keystroke	p	n/a
138.8185	0.09	277637	keystroke	l	n/a
138.878	0.0745	277756	keystroke	e	n/a
139.043	0.075	278086	keystroke	s	n/a
139.088	0.09	278176	keystroke	Key.space	n/a
139.193	0.1195	278386	keystroke	r	n/a
139.2835	0.0895	278567	keystroke	e	n/a
139.418	0.09	278836	keystroke	g	n/a
139.538	0.06	279076	keystroke	i	n/a
139.703	0.075	279406	keystroke	o	n/a
139.793	0.0755	279586	keystroke	n	n/a
139.943	0.1045	279886	keystroke	a	n/a
140.063	0.06	280126	keystroke	l	n/a
140.138	0.075	280276	keystroke	s	n/a
140.243	0.105	280486	keystroke	Key.enter	n/a
140.3545	5.71	280709	prompt	n/a	would jenny extent beijing\n
141.4725	0.06	282945	keystroke	w	n/a
141.6075	0.075	283215	keystroke	o	n/a
141.803	0.0755	283606	keystroke	u	n/a
141.9975	0.06	283995	keystroke	l	n/a
142.1925	0.0455	284385	keystroke	Key.space	n/a
142.463	0.089	284926	keystroke	d	n/a
142.628	0.0605	285256	keystroke	Key.backspace	n/a
142.762	0.076	285524	keystroke	Key.backspace	n/a
142.838	0.09	285676	keystroke	d	n/a
142.9725	0.075	285945	keystroke	Key.space	n/a
143.213	0.0595	286426	keystroke	j	n/a
143.288	0.135	286576	keystroke	e	n/a
143.3935	0.0595	286787	keystroke	n	n/a
143.512	0.091	287024	keystroke	n	n/a
143.588	0.09	287176	keystroke	y	n/a
143.693	0.09	287386	keystroke	Key.space	n/a
143.798	0.104	287596	keystroke	e	n/a
144.0085	0.0895	288017	keystroke	x	n/a
144.143	0.165	288286	keystroke	t	n/a
144.323	0.09	288646	keystroke	e	n/a
144.4425	0.06	288885	keystroke	n	n/a
144.5185	0.0895	289037	keystroke	t	n/a
144.6225	0.0905	289245	keystroke	Key.space	n/a
144.908	0.12	289816	keystroke	b	n/a
145.0125	0.1055	290025	keystroke	e	n/a
145.178	0.0595	290356	keystroke	i	n/a
145.3725	0.06	290745	keystroke	j	n/a
145.5075	0.075	291015	keystroke	i	n/a
145.6885	0.0895	291377	keystroke	n	n/a
145.763	0.09	291526	keystroke	g	n/a
145.943	0.1195	291886	keystroke	Key.enter	n/a
146.07	6.1595	292140	prompt	n/a	creek consultancy scored adjusted\n
146.723	0.0895	293446	keystroke	c	n/a
146.933	0.1195	293866	keystroke	r	n/a
147.038	0.0745	294076	keystroke	e	n/a
147.1875	0.0755	294375	keystroke	e	n/a
147.278	0.0745	294556	keystroke	k	n/a
147.4425	0.075	294885	keystroke	Key.space	n/a
147.5325	0.075	295065	keystroke	c	n/a
147.6375	0.061	295275	keystroke	o	n/a
147.803	0.0895	295606	keystroke	n	n/a
147.9075	0.12	295815	keystroke	s	n/a
148.1775	0.045	296355	keystroke	u	n/a
148.4335	0.089	296867	keystroke	l	n/a
148.6125	0.09	297225	keystroke	t	n/a
148.8085	0.089	297617	keystroke	a	n/a
148.9135	0.075	297827	keystroke	n	n/a
149.0025	0.1055	298005	keystroke	c	n/a
149.228	0.0895	298456	keystroke	y	n/a
149.363	0.0745	298726	keystroke	Key.space	n/a
149.5725	0.105	299145	keystroke	s	n/a
149.708	0.09	299416	keystroke	c	n/a
149.843	0.06	299686	keystroke	o	n/a
149.933	0.105	299866	keystroke	r	n/a
149.993	0.12	299986	keystroke	e	n/a
150.143	0.1045	300286	keystroke	d	n/a
150.233	0.0895	300466	keystroke	Key.space	n/a
150.5635	0.075	301127	keystroke	s	n/a
150.863	0.075	301726	keystroke	Key.backspace	n/a
150.923	0.135	301846	keystroke	a	n/a
150.998	0.12	301996	keystroke	d	n/a
151.418	0.06	302836	keystroke	j	n/a
151.583	0.09	303166	keystroke	u	n/a
151.658	0.09	303316	keystroke	s	n/a
151.763	0.105	303526	keystroke	t	n/a
151.853	0.075	303706	keystroke	e	n/a
151.973	0.1205	303946	keystroke	d	n/a
152.1225	0.105	304245	keystroke	Key.enter	n/a
152.2335	6.731	304467	prompt	n/a	patents email yugoslavia opinions\n
152.828	0.0605	305656	keystroke	p	n/a
152.903	0.105	305806	keystroke	a	n/a
153.053	0.09	306106	keystroke	r	n/a
153.083	0.03	306166	keystroke	t	n/a
153.128	0.09	306256	keystroke	e	n/a
153.503	0.0745	307006	keystroke	Key.backspace	n/a
153.6375	0.09	307275	keystroke	Key.backspace	n/a
153.8025	0.105	307605	keystroke	Key.backspace	n/a
153.9235	0.119	307847	keystroke	t	n/a
153.9975	0.0905	307995	keystroke	e	n/a
154.1625	0.0905	308325	keystroke	n	n/a
154.433	0.12	308866	keystroke	t	n/a
154.568	0.09	309136	keystroke	s	n/a
154.673	0.089	309346	keystroke	Key.space	n/a
154.8985	0.089	309797	keystroke	e	n/a
155.032	0.015	310064	keystroke	m	n/a
155.108	0.1055	310216	keystroke	a	n/a
155.228	0.0455	310456	keystroke	i	n/a
155.3925	0.09	310785	keystroke	l	n/a
155.4825	0.0605	310965	keystroke	Key.space	n/a
155.7225	0.105	311445	keystroke	y	n/a
155.9925	0.0755	311985	keystroke	u	n/a
156.2035	0.09	312407	keystroke	g	n/a
156.3825	0.06	312765	keystroke	o	n/a
156.5485	0.089	313097	keystroke	s	n/a
156.6675	0.09	313335	keystroke	l	n/a
156.7725	0.12	313545	keystroke	a	n/a
156.9375	0.09	313875	keystroke	v	n/a
157.0875	0.06	314175	keystroke	i	n/a
157.1775	0.09	314355	keystroke	a	n/a
157.2825	0.09	314565	keystroke	Key.space	n/a
157.5225	0.06	315045	keystroke	o	n/a
157.7175	0.06	315435	keystroke	p	n/a
157.958	0.045	315916	keystroke	i	n/a
158.1225	0.0755	316245	keystroke	n	n/a
158.318	0.045	316636	keystroke	i	n/a
158.468	0.06	316936	keystroke	o	n/a
158.663	0.075	317326	keystroke	n	n/a
158.738	0.09	317476	keystroke	s	n/a
158.843	0.12	317686	keystroke	Key.enter	n/a
158.969	7.075	317938	prompt	n/a	cheap relations brighton contributor\n
159.5625	0.0755	319125	keystroke	c	n/a
159.682	0.0765	319364	keystroke	h	n/a
159.773	0.09	319546	keystroke	e	n/a
159.847	0.121	319694	keystroke	a	n/a
159.938	0.075	319876	keystroke	p	n/a
160.148	0.09	320296	keystroke	Key.space	n/a
160.448	0.135	320896	keystroke	r	n/a
160.553	0.105	321106	keystroke	e	n/a
160.6725	0.12	321345	keystroke	l	n/a
160.778	0.09	321556	keystroke	a	n/a
160.838	0.105	321676	keystroke	t	n/a
160.958	0.075	321916	keystroke	i	n/a
161.093	0.09	322186	keystroke	o	n/a
161.138	0.075	322276	keystroke	n	n/a
161.333	0.09	322666	keystroke	s	n/a
161.393	0.09	322786	keystroke	Key.space	n/a
161.5285	0.0595	323057	keystroke	b	n/a
161.693	0.075	323386	keystroke	r	n/a
161.813	0.06	323626	keystroke	i	n/a
161.8885	0.1045	323777	keystroke	g	n/a
162.008	0.075	324016	keystroke	h	n/a
162.068	0.09	324136	keystroke	t	n/a
162.2025	0.0455	324405	keystroke	o	n/a
162.383	0.0455	324766	keystroke	n	n/a
162.503	0.0895	325006	keystroke	Key.space	n/a
162.5775	0.09	325155	keystroke	c	n/a
162.728	0.0305	325456	keystroke	o	n/a
162.8775	0.0605	325755	keystroke	n	n/a
162.893	0.1055	325786	keystroke	t	n/a
163.0425	0.105	326085	keystroke	r	n/a
163.1775	0.076	326355	keystroke	i	n/a
163.2975	0.1055	326595	keystroke	b	n/a
163.4175	0.075	326835	keystroke	u	n/a
163.553	0.09	327106	keystroke	t	n/a
163.988	0.0745	327976	keystroke	o	n/a
164.032	0.121	328064	keystroke	r	n/a
165.893	0.15	331786	keystroke	Key.enter	n/a
166.048	7.362	332096	prompt	n/a	minister dark kazakhstan application\n
166.628	0.0745	333256	keystroke	m	n/a
166.8075	0.0605	333615	keystroke	i	n/a
166.9275	0.06	333855	keystroke	n	n/a
167.093	0.0745	334186	keystroke	i	n/a
167.183	0.075	334366	keystroke	s	n/a
167.288	0.1045	334576	keystroke	t	n/a
167.378	0.12	334756	keystroke	e	n/a
167.4825	0.0595	334965	keystroke	r	n/a
167.5275	0.0605	335055	keystroke	Key.space	n/a
167.6625	0.135	335325	keystroke	d	n/a
167.7825	0.12	335565	keystroke	a	n/a
167.8575	0.09	335715	keystroke	r	n/a
167.9625	0.075	335925	keystroke	k	n/a
168.128	0.075	336256	keystroke	Key.space	n/a
168.458	0.075	336916	keystroke	k	n/a
168.5625	0.0905	337125	keystroke	a	n/a
168.863	0.06	337726	keystroke	z	n/a
169.043	0.0745	338086	keystroke	a	n/a
169.2075	0.0745	338415	keystroke	k	n/a
169.448	0.0745	338896	keystroke	h	n/a
170.1985	0.1045	340397	keystroke	s	n/a
170.348	0.12	340696	keystroke	t	n/a
170.483	0.0745	340966	keystroke	a	n/a
170.543	0.0745	341086	keystroke	n	n/a
170.7225	0.045	341445	keystroke	Key.space	n/a
171.1725	0.105	342345	keystroke	a	n/a
171.263	0.075	342526	keystroke	p	n/a
171.4585	0.0445	342917	keystroke	l	n/a
171.788	0.089	343576	keystroke	Key.backspace	n/a
171.923	0.09	343846	keystroke	p	n/a
172.103	0.075	344206	keystroke	l	n/a
172.298	0.075	344596	keystroke	i	n/a
172.417	0.061	344834	keystroke	c	n/a
172.448	0.12	344896	keystroke	a	n/a
172.582	0.061	345164	keystroke	t	n/a
172.628	0.075	345256	keystroke	i	n/a
172.778	0.09	345556	keystroke	o	n/a
172.883	0.0755	345766	keystroke	n	n/a
173.2725	0.135	346545	keystroke	Key.enter	n/a
173.415	7.241	346830	prompt	n/a	accessible hampshire they've ellen\n
173.9325	0.1055	347865	keystroke	a	n/a
174.053	0.075	348106	keystroke	c	n/a
174.1725	0.15	348345	keystroke	c	n/a
174.2775	0.09	348555	keystroke	e	n/a
174.4725	0.03	348945	keystroke	s	n/a
174.593	0.075	349186	keystroke	s	n/a
174.743	0.059	349486	keystroke	i	n/a
174.832	0.076	349664	keystroke	b	n/a
174.937	0.09	349874	keystroke	l	n/a
175.012	0.0905	350024	keystroke	e	n/a
175.162	0.06	350324	keystroke	Key.space	n/a
175.357	0.106	350714	keystroke	h	n/a
175.553	0.0895	351106	keystroke	a	n/a
175.6875	0.045	351375	keystroke	m	n/a
176.228	0.0895	352456	keystroke	p	n/a
176.498	0.09	352996	keystroke	s	n/a
176.9625	0.105	353925	keystroke	h	n/a
177.1125	0.075	354225	keystroke	i	n/a
177.2025	0.12	354405	keystroke	r	n/a
177.3075	0.106	354615	keystroke	e	n/a
178.313	0.075	356626	keystroke	Key.space	n/a
178.433	0.09	356866	keystroke	t	n/a
178.553	0.06	357106	keystroke	h	n/a
178.613	0.09	357226	keystroke	e	n/a
178.838	0.12	357676	keystroke	y	n/a
179.108	0.09	358216	keystroke	'	n/a
179.213	0.12	358426	keystroke	v	n/a
179.288	0.105	358576	keystroke	e	n/a
179.408	0.0595	358816	keystroke	Key.space	n/a
179.528	0.09	359056	keystroke	e	n/a
179.6485	0.1795	359297	keystroke	l	n/a
180.1425	0.0605	360285	keystroke	l	n/a
180.2475	0.105	360495	keystroke	e	n/a
180.3975	0.045	360795	keystroke	n	n/a
180.5475	0.1055	361095	keystroke	Key.enter	n/a
180.6675	4.6995	361335	prompt	n/a	martha density sector thomas\n
181.253	0.075	362506	keystroke	m	n/a
181.298	0.135	362596	keystroke	a	n/a
181.373	0.075	362746	keystroke	r	n/a
181.523	0.09	363046	keystroke	t	n/a
181.628	0.045	363256	keystroke	h	n/a
181.778	0.105	363556	keystroke	Key.space	n/a
181.868	0.135	363736	keystroke	d	n/a
181.973	0.09	363946	keystroke	e	n/a
182.078	0.059	364156	keystroke	n	n/a
182.317	0.09	364634	keystroke	s	n/a
182.452	0.0605	364904	keystroke	i	n/a
182.543	0.089	365086	keystroke	t	n/a
182.707	0.075	365414	keystroke	y	n/a
182.813	0.0895	365626	keystroke	Key.space	n/a
183.008	0.105	366016	keystroke	s	n/a
183.173	0.09	366346	keystroke	e	n/a
183.277	0.106	366554	keystroke	c	n/a
183.488	0.075	366976	keystroke	o	n/a
183.788	0.0745	367576	keystroke	Key.backspace	n/a
183.8775	0.0755	367755	keystroke	t	n/a
183.968	0.06	367936	keystroke	o	n/a
184.0425	0.0905	368085	keystroke	r	n/a
184.193	0.075	368386	keystroke	Key.space	n/a
184.493	0.09	368986	keystroke	t	n/a
184.658	0.06	369316	keystroke	h	n/a
184.837	0.06	369674	keystroke	o	n/a
185.003	0.105	370006	keystroke	m	n/a
185.093	0.134	370186	keystroke	a	n/a
185.152	0.136	370304	keystroke	s	n/a
185.2725	0.0905	370545	keystroke	Key.enter	n/a
185.374	5.9005	370748	prompt	n/a	lotus throat intense twice\n
186.083	0.0595	372166	keystroke	l	n/a
186.247	0.075	372494	keystroke	o	n/a
186.352	0.076	372704	keystroke	t	n/a
186.472	0.076	372944	keystroke	u	n/a
186.5935	0.0895	373187	keystroke	s	n/a
186.7125	0.09	373425	keystroke	Key.space	n/a
186.8625	0.105	373725	keystroke	t	n/a
186.9825	0.06	373965	keystroke	h	n/a
187.0875	0.1205	374175	keystroke	r	n/a
187.1925	0.075	374385	keystroke	o	n/a
187.658	0.1195	375316	keystroke	a	n/a
188.1225	0.1055	376245	keystroke	t	n/a
188.3175	0.09	376635	keystroke	Key.space	n/a
188.5275	0.105	377055	keystroke	t	n/a
188.9475	0.0755	377895	keystroke	Key.backspace	n/a
189.083	0.0595	378166	keystroke	i	n/a
189.248	0.0905	378496	keystroke	n	n/a
189.3235	0.149	378647	keystroke	t	n/a
189.443	0.0745	378886	keystroke	e	n/a
189.5475	0.06	379095	keystroke	n	n/a
190.1485	0.074	380297	keystroke	s	n/a
190.298	0.1045	380596	keystroke	e	n/a
190.478	0.09	380956	keystroke	Key.space	n/a
190.5825	0.091	381165	keystroke	t	n/a
190.763	0.09	381526	keystroke	w	n/a
190.8675	0.06	381735	keystroke	i	n/a
190.9725	0.135	381945	keystroke	c	n/a
191.063	0.1045	382126	keystroke	e	n/a
191.1825	0.09	382365	keystroke	Key.enter	n/a
191.2795	4.645	382559	prompt	n/a	damage audi scan booth\n
191.8425	0.135	383685	keystroke	d	n/a
191.963	0.09	383926	keystroke	a	n/a
192.083	0.074	384166	keystroke	m	n/a
192.203	0.104	384406	keystroke	a	n/a
192.337	0.136	384674	keystroke	g	n/a
192.443	0.09	384886	keystroke	e	n/a
192.517	0.091	385034	keystroke	Key.space	n/a
192.892	0.09	385784	keystroke	a	n/a
192.9975	0.0595	385995	keystroke	u	n/a
193.1035	0.0895	386207	keystroke	d	n/a
193.223	0.089	386446	keystroke	i	n/a
193.388	0.135	386776	keystroke	Key.space	n/a
193.762	0.0905	387524	keystroke	s	n/a
193.9725	0.105	387945	keystroke	c	n/a
194.0925	0.0755	388185	keystroke	a	n/a
194.1975	0.075	388395	keystroke	n	n/a
194.3475	0.105	388695	keystroke	Key.space	n/a
194.588	0.0595	389176	keystroke	b	n/a
194.6625	0.075	389325	keystroke	o	n/a
194.798	0.0595	389596	keystroke	o	n/a
194.888	0.09	389776	keystroke	t	n/a
195.053	0.0595	390106	keystroke	h	n/a
195.8175	0.1045	391635	keystroke	Key.enter	n/a
195.929	4.6905	391858	prompt	n/a	above hardly frog occurred\n
196.4175	0.075	392835	keystroke	a	n/a
196.6125	0.06	393225	keystroke	b	n/a
196.7175	0.06	393435	keystroke	o	n/a
197.0025	0.165	394005	keystroke	v	n/a
197.108	0.1355	394216	keystroke	e	n/a
197.2725	0.09	394545	keystroke	Key.space	n/a
197.602	0.045	395204	keystroke	h	n/a
197.693	0.149	395386	keystroke	a	n/a
197.768	0.09	395536	keystroke	r	n/a
197.948	0.1045	395896	keystroke	d	n/a
198.0975	0.0755	396195	keystroke	l	n/a
198.217	0.09	396434	keystroke	y	n/a
198.338	0.075	396676	keystroke	Key.space	n/a
198.502	0.076	397004	keystroke	f	n/a
198.653	0.1045	397306	keystroke	r	n/a
198.7725	0.061	397545	keystroke	o	n/a
198.862	0.06	397724	keystroke	g	n/a
198.967	0.061	397934	keystroke	Key.space	n/a
199.147	0.061	398294	keystroke	o	n/a
199.2525	0.0745	398505	keystroke	c	n/a
199.388	0.09	398776	keystroke	c	n/a
199.5375	0.0595	399075	keystroke	u	n/a
199.612	0.121	399224	keystroke	r	n/a
199.702	0.09	399404	keystroke	e	n/a
200.077	0.0755	400154	keystroke	Key.backspace	n/a
200.138	0.12	400276	keystroke	r	n/a
200.228	0.09	400456	keystroke	e	n/a
200.378	0.105	400756	keystroke	d	n/a
200.512	0.106	401024	keystroke	Key.enter	n/a
200.6235	6.3855	401247	prompt	n/a	extent institute jack tennessee\n
201.322	0.0755	402644	keystroke	e	n/a
201.503	0.09	403006	keystroke	x	n/a
201.623	0.135	403246	keystroke	t	n/a
201.728	0.09	403456	keystroke	e	n/a
201.833	0.09	403666	keystroke	n	n/a
201.953	0.09	403906	keystroke	t	n/a
202.0275	0.06	404055	keystroke	Key.space	n/a
202.2225	0.0455	404445	keystroke	i	n/a
202.3725	0.075	404745	keystroke	n	n/a
202.4625	0.12	404925	keystroke	s	n/a
202.5975	0.091	405195	keystroke	i	n/a
202.7025	0.09	405405	keystroke	t	n/a
203.257	0.0905	406514	keystroke	Key.backspace	n/a
203.3925	0.105	406785	keystroke	Key.backspace	n/a
203.4985	0.105	406997	keystroke	t	n/a
203.5875	0.105	407175	keystroke	i	n/a
203.7525	0.0905	407505	keystroke	t	n/a
203.8725	0.075	407745	keystroke	u	n/a
203.9925	0.1205	407985	keystroke	t	n/a
204.0675	0.1205	408135	keystroke	e	n/a
204.218	0.104	408436	keystroke	Key.space	n/a
204.472	0.075	408944	keystroke	j	n/a
204.577	0.106	409154	keystroke	a	n/a
204.622	0.106	409244	keystroke	c	n/a
204.713	0.059	409426	keystroke	k	n/a
204.8775	0.0905	409755	keystroke	Key.space	n/a
204.968	0.12	409936	keystroke	t	n/a
205.072	0.1215	410144	keystroke	e	n/a
205.1785	0.0895	410357	keystroke	n	n/a
205.312	0.09	410624	keystroke	n	n/a
205.4485	0.104	410897	keystroke	e	n/a
205.673	0.075	411346	keystroke	s	n/a
205.838	0.075	411676	keystroke	e	n/a
206.1375	0.06	412275	keystroke	Key.backspace	n/a
206.228	0.09	412456	keystroke	s	n/a
206.573	0.0595	413146	keystroke	e	n/a
206.693	0.1045	413386	keystroke	e	n/a
206.9925	0.0155	413985	keystroke	Key.enter	n/a
207.013	4.6165	414026	prompt	n/a	hong developmental karma care\n
207.623	0.075	415246	keystroke	h	n/a
207.698	0.075	415396	keystroke	o	n/a
207.893	0.075	415786	keystroke	n	n/a
207.968	0.105	415936	keystroke	g	n/a
208.088	0.089	416176	keystroke	Key.space	n/a
208.4175	0.1205	416835	keystroke	d	n/a
208.5675	0.09	417135	keystroke	e	n/a
208.6725	0.135	417345	keystroke	v	n/a
208.778	0.0895	417556	keystroke	e	n/a
208.9575	0.0755	417915	keystroke	l	n/a
209.1525	0.0455	418305	keystroke	o	n/a
209.303	0.06	418606	keystroke	p	n/a
209.723	0.0745	419446	keystroke	m	n/a
209.8125	0.1355	419625	keystroke	e	n/a
209.9325	0.09	419865	keystroke	n	n/a
210.008	0.104	420016	keystroke	t	n/a
210.128	0.059	420256	keystroke	a	n/a
210.202	0.06	420404	keystroke	l	n/a
210.3675	0.06	420735	keystroke	Key.space	n/a
210.5475	0.0755	421095	keystroke	k	n/a
210.6375	0.0905	421275	keystroke	a	n/a
210.668	0.12	421336	keystroke	r	n/a
210.773	0.075	421546	keystroke	m	n/a
210.878	0.09	421756	keystroke	a	n/a
210.983	0.105	421966	keystroke	Key.space	n/a
211.133	0.1345	422266	keystroke	c	n/a
211.2685	0.119	422537	keystroke	a	n/a
211.3575	0.12	422715	keystroke	r	n/a
211.4325	0.1205	422865	keystroke	e	n/a
211.5375	0.09	423075	keystroke	Key.enter	n/a
211.634	7.6905	423268	prompt	n/a	singh compute thats chapter\n
212.168	0.1045	424336	keystroke	s	n/a
212.2875	0.0445	424575	keystroke	i	n/a
212.362	0.105	424724	keystroke	g	n/a
212.498	0.0745	424996	keystroke	n	n/a
212.9625	0.0605	425925	keystroke	Key.backspace	n/a
212.9925	0.121	425985	keystroke	h	n/a
213.218	0.0595	426436	keystroke	Key.space	n/a
213.6525	0.0455	427305	keystroke	Key.backspace	n/a
213.7725	0.0895	427545	keystroke	Key.backspace	n/a
214.1025	0.0755	428205	keystroke	Key.backspace	n/a
214.297	0.09	428594	keystroke	n	n/a
214.372	0.06	428744	keystroke	g	n/a
214.5385	0.0885	429077	keystroke	h	n/a
214.702	0.12	429404	keystroke	Key.space	n/a
215.1525	0.06	430305	keystroke	c	n/a
215.2275	0.045	430455	keystroke	o	n/a
215.407	0.06	430814	keystroke	n	n/a
215.693	0.045	431386	keystroke	p	n/a
215.9925	0.0755	431985	keystroke	Key.backspace	n/a
216.128	0.075	432256	keystroke	Key.backspace	n/a
216.2935	0.074	432587	keystroke	m	n/a
216.4875	0.075	432975	keystroke	p	n/a
216.698	0.075	433396	keystroke	u	n/a
216.788	0.119	433576	keystroke	t	n/a
216.862	0.091	433724	keystroke	e	n/a
216.937	0.1055	433874	keystroke	Key.space	n/a
217.148	0.09	434296	keystroke	t	n/a
217.253	0.075	434506	keystroke	h	n/a
217.313	0.105	434626	keystroke	a	n/a
217.403	0.105	434806	keystroke	t	n/a
217.583	0.09	435166	keystroke	s	n/a
217.778	0.075	435556	keystroke	Key.space	n/a
217.898	0.1345	435796	keystroke	c	n/a
218.153	0.06	436306	keystroke	h	n/a
218.273	0.105	436546	keystroke	a	n/a
218.423	0.045	436846	keystroke	p	n/a
218.543	0.089	437086	keystroke	e	n/a
218.857	0.075	437714	keystroke	Key.backspace	n/a
218.918	0.105	437836	keystroke	t	n/a
219.008	0.12	438016	keystroke	e	n/a
219.098	0.12	438196	keystroke	r	n/a
219.187	0.136	438374	keystroke	Key.enter	n/a
219.336	6.0335	438672	prompt	n/a	that'd carpet swimming apartments\n
219.968	0.1045	439936	keystroke	t	n/a
220.1175	0.0755	440235	keystroke	h	n/a
220.1625	0.1055	440325	keystroke	a	n/a
220.2375	0.09	440475	keystroke	t	n/a
220.4625	0.09	440925	keystroke	'	n/a
220.5985	0.074	441197	keystroke	d	n/a
220.763	0.0745	441526	keystroke	Key.space	n/a
220.8525	0.1205	441705	keystroke	c	n/a
220.958	0.1495	441916	keystroke	a	n/a
221.2125	0.1055	442425	keystroke	r	n/a
221.8725	0.1055	443745	keystroke	p	n/a
222.038	0.12	444076	keystroke	e	n/a
222.173	0.09	444346	keystroke	t	n/a
222.293	0.09	444586	keystroke	Key.space	n/a
222.487	0.0605	444974	keystroke	s	n/a
222.638	0.089	445276	keystroke	w	n/a
222.743	0.044	445486	keystroke	i	n/a
222.908	0.045	445816	keystroke	m	n/a
222.998	0.074	445996	keystroke	m	n/a
223.162	0.06	446324	keystroke	i	n/a
223.2075	0.1205	446415	keystroke	n	n/a
223.283	0.089	446566	keystroke	g	n/a
223.402	0.09	446804	keystroke	Key.space	n/a
223.5535	0.075	447107	keystroke	a	n/a
223.7175	0.075	447435	keystroke	p	n/a
223.8825	0.12	447765	keystroke	a	n/a
224.243	0.09	448486	keystroke	r	n/a
224.4525	0.0745	448905	keystroke	t	n/a
224.693	0.089	449386	keystroke	m	n/a
224.798	0.105	449596	keystroke	e	n/a
224.9175	0.045	449835	keystroke	n	n/a
224.9475	0.12	449895	keystroke	t	n/a
225.083	0.0895	450166	keystroke	s	n/a
225.2625	0.105	450525	keystroke	Key.enter	n/a
225.3735	5.606	450747	prompt	n/a	equal richard properly analytical\n
225.9825	0.1345	451965	keystroke	e	n/a
226.0885	0.1045	452177	keystroke	q	n/a
226.2225	0.076	452445	keystroke	u	n/a
226.328	0.09	452656	keystroke	a	n/a
226.492	0.06	452984	keystroke	l	n/a
226.673	0.09	453346	keystroke	Key.space	n/a
226.808	0.105	453616	keystroke	r	n/a
227.033	0.045	454066	keystroke	i	n/a
227.107	0.106	454214	keystroke	c	n/a
227.228	0.074	454456	keystroke	h	n/a
227.318	0.12	454636	keystroke	a	n/a
227.393	0.1045	454786	keystroke	r	n/a
227.5575	0.09	455115	keystroke	d	n/a
227.6175	0.09	455235	keystroke	Key.space	n/a
227.858	0.0595	455716	keystroke	p	n/a
227.9325	0.09	455865	keystroke	r	n/a
228.0375	0.0455	456075	keystroke	o	n/a
228.188	0.119	456376	keystroke	p	n/a
228.277	0.135	456554	keystroke	e	n/a
228.367	0.106	456734	keystroke	r	n/a
228.548	0.0895	457096	keystroke	l	n/a
228.653	0.09	457306	keystroke	y	n/a
228.802	0.076	457604	keystroke	Key.space	n/a
228.9525	0.09	457905	keystroke	a	n/a
229.1325	0.06	458265	keystroke	n	n/a
229.2525	0.1205	458505	keystroke	a	n/a
229.4175	0.0755	458835	keystroke	l	n/a
229.553	0.0895	459106	keystroke	y	n/a
229.7625	0.0905	459525	keystroke	r	n/a
230.0475	0.1045	460095	keystroke	Key.backspace	n/a
230.122	0.076	460244	keystroke	t	n/a
230.242	0.075	460484	keystroke	i	n/a
230.348	0.119	460696	keystroke	c	n/a
230.452	0.1205	460904	keystroke	a	n/a
230.5275	0.0755	461055	keystroke	l	n/a
230.858	0.119	461716	keystroke	Key.enter	n/a
230.984	4.1505	461968	prompt	n/a	peeing float african quest\n
231.533	0.09	463066	keystroke	p	n/a
231.623	0.06	463246	keystroke	e	n/a
231.742	0.121	463484	keystroke	e	n/a
231.878	0.045	463756	keystroke	i	n/a
232.028	0.0595	464056	keystroke	n	n/a
232.103	0.0895	464206	keystroke	g	n/a
232.1775	0.075	464355	keystroke	Key.space	n/a
232.3125	0.12	464625	keystroke	f	n/a
232.4175	0.06	464835	keystroke	l	n/a
232.5525	0.075	465105	keystroke	o	n/a
232.6575	0.15	465315	keystroke	a	n/a
232.7925	0.075	465585	keystroke	t	n/a
232.9125	0.075	465825	keystroke	Key.space	n/a
233.1375	0.135	466275	keystroke	a	n/a
233.3175	0.105	466635	keystroke	f	n/a
233.5725	0.075	467145	keystroke	r	n/a
233.6925	0.075	467385	keystroke	i	n/a
233.7825	0.105	467565	keystroke	c	n/a
233.873	0.075	467746	keystroke	a	n/a
233.9775	0.0895	467955	keystroke	n	n/a
234.1275	0.0895	468255	keystroke	Key.space	n/a
234.3975	0.1205	468795	keystroke	q	n/a
234.548	0.0745	469096	keystroke	u	n/a
234.5925	0.135	469185	keystroke	e	n/a
234.7125	0.1055	469425	keystroke	s	n/a
234.8325	0.105	469665	keystroke	t	n/a
235.0275	0.105	470055	keystroke	Key.enter	n/a
235.1395	7.105	470279	prompt	n/a	improving greenhouse deposits paradise\n
235.777	0.046	471554	keystroke	i	n/a
235.928	0.09	471856	keystroke	m	n/a
236.152	0.046	472304	keystroke	p	n/a
236.288	0.105	472576	keystroke	r	n/a
236.318	0.06	472636	keystroke	o	n/a
236.9175	0.09	473835	keystroke	v	n/a
237.023	0.0745	474046	keystroke	i	n/a
237.2175	0.06	474435	keystroke	n	n/a
237.263	0.0895	474526	keystroke	g	n/a
237.3675	0.09	474735	keystroke	Key.space	n/a
237.8475	0.105	475695	keystroke	g	n/a
238.073	0.12	476146	keystroke	r	n/a
238.267	0.061	476534	keystroke	e	n/a
238.4025	0.0755	476805	keystroke	e	n/a
238.4925	0.0755	476985	keystroke	n	n/a
238.6425	0.06	477285	keystroke	h	n/a
238.7325	0.06	477465	keystroke	o	n/a
238.9125	0.0755	477825	keystroke	u	n/a
238.9725	0.09	477945	keystroke	s	n/a
239.1225	0.09	478245	keystroke	e	n/a
239.1825	0.09	478365	keystroke	Key.space	n/a
239.3475	0.1355	478695	keystroke	d	n/a
239.453	0.105	478906	keystroke	e	n/a
239.588	0.074	479176	keystroke	p	n/a
239.7525	0.105	479505	keystroke	o	n/a
239.8725	0.09	479745	keystroke	s	n/a
239.9925	0.1055	479985	keystroke	i	n/a
240.1125	0.0605	480225	keystroke	t	n/a
240.263	0.059	480526	keystroke	y	n/a
240.443	0.09	480886	keystroke	s	n/a
240.547	0.076	481094	keystroke	Key.space	n/a
241.043	0.089	482086	keystroke	p	n/a
241.177	0.105	482354	keystroke	a	n/a
241.297	0.135	482594	keystroke	r	n/a
241.4175	0.135	482835	keystroke	a	n/a
241.597	0.1055	483194	keystroke	d	n/a
241.732	0.075	483464	keystroke	i	n/a
241.8975	0.06	483795	keystroke	s	n/a
242.062	0.075	484124	keystroke	e	n/a
242.152	0.09	484304	keystroke	Key.enter	n/a
242.249	8.155	484498	prompt	n/a	tower forums outreach died\n
242.797	0.09	485594	keystroke	t	n/a
242.932	0.075	485864	keystroke	o	n/a
242.992	0.181	485984	keystroke	w	n/a
243.112	0.106	486224	keystroke	e	n/a
243.293	0.089	486586	keystroke	r	n/a
243.3975	0.09	486795	keystroke	Key.space	n/a
243.518	0.105	487036	keystroke	f	n/a
243.638	0.075	487276	keystroke	o	n/a
243.698	0.104	487396	keystroke	r	n/a
243.922	0.06	487844	keystroke	u	n/a
244.1325	0.0745	488265	keystroke	m	n/a
244.237	0.106	488474	keystroke	s	n/a
244.357	0.09	488714	keystroke	Key.space	n/a
245.363	0.074	490726	keystroke	Key.backspace	n/a
245.527	0.045	491054	keystroke	Key.backspace	n/a
245.663	0.059	491326	keystroke	Key.backspace	n/a
245.797	0.075	491594	keystroke	Key.backspace	n/a
246.443	0.06	492886	keystroke	u	n/a
246.6075	0.09	493215	keystroke	m	n/a
246.7125	0.105	493425	keystroke	s	n/a
246.8325	0.075	493665	keystroke	Key.space	n/a
247.2675	0.0605	494535	keystroke	o	n/a
247.4475	0.075	494895	keystroke	u	n/a
247.4925	0.075	494985	keystroke	t	n/a
247.7335	0.074	495467	keystroke	r	n/a
247.8825	0.105	495765	keystroke	e	n/a
247.9725	0.1355	495945	keystroke	a	n/a
248.1225	0.03	496245	keystroke	c	n/a
248.1975	0.075	496395	keystroke	h	n/a
249.052	0.076	498104	keystroke	Key.space	n/a
249.1425	0.119	498285	keystroke	d	n/a
249.2925	0.075	498585	keystroke	i	n/a
249.3975	0.2105	498795	keystroke	e	n/a
249.9075	0.09	499815	keystroke	d	n/a
250.282	0.12	500564	keystroke	Key.enter	n/a
250.4115	6.2325	500823	prompt	n/a	elimination porter chapter lowest\n
251.062	0.075	502124	keystroke	e	n/a
251.1825	0.0895	502365	keystroke	l	n/a
251.362	0.0605	502724	keystroke	i	n/a
251.527	0.061	503054	keystroke	m	n/a
251.677	0.06	503354	keystroke	i	n/a
251.918	0.014	503836	keystroke	n	n/a
251.962	0.091	503924	keystroke	a	n/a
252.008	0.09	504016	keystroke	t	n/a
252.128	0.044	504256	keystroke	i	n/a
252.293	0.059	504586	keystroke	o	n/a
252.337	0.076	504674	keystroke	n	n/a
252.4575	0.0755	504915	keystroke	Key.space	n/a
252.668	0.045	505336	keystroke	p	n/a
252.803	0.12	505606	keystroke	o	n/a
252.863	0.0745	505726	keystroke	r	n/a
253.013	0.09	506026	keystroke	t	n/a
253.103	0.135	506206	keystroke	e	n/a
253.193	0.104	506386	keystroke	r	n/a
253.312	0.0755	506624	keystroke	Key.space	n/a
253.4775	0.09	506955	keystroke	c	n/a
253.6125	0.06	507225	keystroke	h	n/a
253.6875	0.09	507375	keystroke	a	n/a
253.8825	0.075	507765	keystroke	p	n/a
254.0325	0.12	508065	keystroke	t	n/a
254.1675	0.09	508335	keystroke	e	n/a
254.2275	0.12	508455	keystroke	r	n/a
254.3325	0.075	508665	keystroke	Key.space	n/a
254.5575	0.045	509115	keystroke	l	n/a
254.7075	0.0745	509415	keystroke	o	n/a
254.767	0.1355	509534	keystroke	w	n/a
254.843	0.119	509686	keystroke	e	n/a
255.037	0.1205	510074	keystroke	r	n/a
255.5475	0.06	511095	keystroke	e	n/a
255.7275	0.0595	511455	keystroke	Key.backspace	n/a
255.877	0.06	511754	keystroke	Key.backspace	n/a
256.088	0.104	512176	keystroke	s	n/a
256.177	0.09	512354	keystroke	t	n/a
256.537	0.105	513074	keystroke	Key.enter	n/a
256.6485	6.0105	513297	prompt	n/a	cookies acne introducing ignore\n
257.257	0.06	514514	keystroke	c	n/a
257.332	0.06	514664	keystroke	o	n/a
257.4525	0.0605	514905	keystroke	o	n/a
257.6025	0.045	515205	keystroke	k	n/a
257.723	0.09	515446	keystroke	i	n/a
257.828	0.09	515656	keystroke	e	n/a
258.007	0.06	516014	keystroke	s	n/a
258.217	0.0905	516434	keystroke	Key.space	n/a
258.427	0.1205	516854	keystroke	a	n/a
258.607	0.09	517214	keystroke	c	n/a
258.743	0.0745	517486	keystroke	n	n/a
258.847	0.105	517694	keystroke	e	n/a
258.953	0.089	517906	keystroke	Key.space	n/a
259.2525	0.0605	518505	keystroke	i	n/a
259.3875	0.12	518775	keystroke	n	n/a
259.4925	0.06	518985	keystroke	t	n/a
259.6425	0.06	519285	keystroke	r	n/a
259.7325	0.09	519465	keystroke	o	n/a
259.8525	0.075	519705	keystroke	d	n/a
259.9875	0.045	519975	keystroke	i	n/a
260.4675	0.06	520935	keystroke	Key.backspace	n/a
261.0375	0.0605	522075	keystroke	u	n/a
261.1575	0.1055	522315	keystroke	c	n/a
261.3075	0.0605	522615	keystroke	i	n/a
261.4875	0.09	522975	keystroke	n	n/a
261.592	0.0755	523184	keystroke	g	n/a
261.682	0.09	523364	keystroke	Key.space	n/a
261.9225	0.045	523845	keystroke	i	n/a
262.0275	0.1055	524055	keystroke	g	n/a
262.1475	0.0605	524295	keystroke	n	n/a
262.328	0.06	524656	keystroke	o	n/a
262.4025	0.1195	524805	keystroke	r	n/a
262.4775	0.1345	524955	keystroke	e	n/a
262.523	0.1345	525046	keystroke	Key.enter	n/a
262.6635	6.237	525327	prompt	n/a	michelle prescription timber dylan\n
263.2425	0.06	526485	keystroke	m	n/a
263.4075	0.06	526815	keystroke	i	n/a
263.4825	0.09	526965	keystroke	c	n/a
263.5735	0.089	527147	keystroke	h	n/a
263.6925	0.105	527385	keystroke	e	n/a
263.8425	0.0605	527685	keystroke	l	n/a
263.948	0.0745	527896	keystroke	l	n/a
264.067	0.0905	528134	keystroke	e	n/a
264.112	0.09	528224	keystroke	Key.space	n/a
264.3375	0.075	528675	keystroke	p	n/a
264.4275	0.105	528855	keystroke	r	n/a
264.683	0.0745	529366	keystroke	e	n/a
264.8475	0.0905	529695	keystroke	s	n/a
265.027	0.09	530054	keystroke	c	n/a
265.208	0.059	530416	keystroke	i	n/a
265.5825	0.075	531165	keystroke	Key.backspace	n/a
265.7025	0.135	531405	keystroke	r	n/a
265.8525	0.06	531705	keystroke	i	n/a
266.0625	0.0905	532125	keystroke	p	n/a
266.1675	0.105	532335	keystroke	t	n/a
266.3325	0.045	532665	keystroke	i	n/a
266.4975	0.09	532995	keystroke	o	n/a
266.5725	0.09	533145	keystroke	n	n/a
266.7375	0.075	533475	keystroke	Key.space	n/a
267.037	0.06	534074	keystroke	t	n/a
267.112	0.0605	534224	keystroke	i	n/a
267.2775	0.06	534555	keystroke	m	n/a
267.322	0.105	534644	keystroke	b	n/a
267.413	0.149	534826	keystroke	e	n/a
267.532	0.0905	535064	keystroke	r	n/a
267.5925	0.09	535185	keystroke	Key.space	n/a
267.9375	0.12	535875	keystroke	d	n/a
268.1625	0.09	536325	keystroke	y	n/a
268.3725	0.0905	536745	keystroke	l	n/a
268.5075	0.09	537015	keystroke	a	n/a
268.6115	0.061	537223	keystroke	n	n/a
268.777	0.1205	537554	keystroke	Key.enter	n/a
268.9105	5.4335	537821	prompt	n/a	emma trained pointer algorithms\n
269.4675	0.105	538935	keystroke	e	n/a
269.5875	0.06	539175	keystroke	m	n/a
269.7225	0.0895	539445	keystroke	m	n/a
269.842	0.105	539684	keystroke	a	n/a
269.902	0.105	539804	keystroke	Key.space	n/a
270.022	0.0915	540044	keystroke	t	n/a
270.172	0.12	540344	keystroke	r	n/a
270.2625	0.1345	540525	keystroke	a	n/a
270.337	0.0755	540674	keystroke	i	n/a
270.488	0.089	540976	keystroke	n	n/a
270.548	0.119	541096	keystroke	e	n/a
270.7275	0.0745	541455	keystroke	d	n/a
270.757	0.075	541514	keystroke	Key.space	n/a
270.968	0.074	541936	keystroke	p	n/a
271.132	0.0755	542264	keystroke	o	n/a
271.297	0.0755	542594	keystroke	i	n/a
271.5075	0.0455	543015	keystroke	n	n/a
271.642	0.105	543284	keystroke	t	n/a
271.763	0.1495	543526	keystroke	e	n/a
271.867	0.12	543734	keystroke	r	n/a
272.3925	0.075	544785	keystroke	Key.space	n/a
272.5875	0.1055	545175	keystroke	a	n/a
272.7075	0.09	545415	keystroke	l	n/a
272.8425	0.12	545685	keystroke	g	n/a
272.978	0.0595	545956	keystroke	o	n/a
273.0825	0.105	546165	keystroke	r	n/a
273.3675	0.06	546735	keystroke	i	n/a
273.5025	0.06	547005	keystroke	t	n/a
273.713	0.0745	547426	keystroke	h	n/a
273.937	0.0755	547874	keystroke	m	n/a
274.0425	0.1055	548085	keystroke	s	n/a
274.1775	0.165	548355	keystroke	Key.enter	n/a
274.3485	7.2265	548697	prompt	n/a	problem operators lighter registry\n
274.9575	0.06	549915	keystroke	p	n/a
275.0925	0.075	550185	keystroke	r	n/a
275.1525	0.075	550305	keystroke	o	n/a
275.288	0.09	550576	keystroke	b	n/a
275.3625	0.0595	550725	keystroke	l	n/a
275.512	0.12	551024	keystroke	e	n/a
275.6925	0.06	551385	keystroke	m	n/a
275.8275	0.075	551655	keystroke	s	n/a
275.9025	0.045	551805	keystroke	Key.space	n/a
276.1425	0.0295	552285	keystroke	w	n/a
276.3375	0.045	552675	keystroke	Key.backspace	n/a
276.4725	0.045	552945	keystroke	o	n/a
276.667	0.0905	553334	keystroke	p	n/a
276.7725	0.135	553545	keystroke	e	n/a
276.8625	0.12	553725	keystroke	r	n/a
277.012	0.121	554024	keystroke	a	n/a
277.148	0.0895	554296	keystroke	t	n/a
277.2975	0.075	554595	keystroke	o	n/a
277.3875	0.075	554775	keystroke	r	n/a
277.5525	0.105	555105	keystroke	s	n/a
277.6715	0.061	555343	keystroke	Key.space	n/a
277.8675	0.0605	555735	keystroke	l	n/a
278.0475	0.0605	556095	keystroke	i	n/a
278.1225	0.09	556245	keystroke	g	n/a
278.242	0.075	556484	keystroke	h	n/a
278.332	0.12	556664	keystroke	t	n/a
278.438	0.134	556876	keystroke	e	n/a
278.527	0.106	557054	keystroke	r	n/a
278.587	0.075	557174	keystroke	Key.space	n/a
278.7375	0.1495	557475	keystroke	r	n/a
278.827	0.0905	557654	keystroke	e	n/a
278.992	0.1205	557984	keystroke	s	n/a
279.2025	0.059	558405	keystroke	i	n/a
279.428	0.09	558856	keystroke	g	n/a
279.6675	0.06	559335	keystroke	Key.backspace	n/a
279.8025	0.075	559605	keystroke	Key.backspace	n/a
279.9375	0.15	559875	keystroke	Key.backspace	n/a
280.0275	0.0895	560055	keystroke	g	n/a
280.1625	0.0755	560325	keystroke	i	n/a
280.522	0.1055	561044	keystroke	s	n/a
280.733	0.1045	561466	keystroke	t	n/a
281.0775	0.0905	562155	keystroke	r	n/a
281.2725	0.09	562545	keystroke	y	n/a
281.4225	0.15	562845	keystroke	Key.enter	n/a
281.579	5.785	563158	prompt	n/a	terminals zone specify wishing\n
282.1275	0.09	564255	keystroke	t	n/a
282.2025	0.15	564405	keystroke	e	n/a
282.2925	0.12	564585	keystroke	r	n/a
282.3675	0.09	564735	keystroke	m	n/a
282.5625	0.06	565125	keystroke	i	n/a
282.6975	0.0905	565395	keystroke	n	n/a
282.8325	0.1055	565665	keystroke	a	n/a
282.9825	0.075	565965	keystroke	l	n/a
283.1025	0.105	566205	keystroke	s	n/a
283.208	0.0895	566416	keystroke	Key.space	n/a
283.372	0.0605	566744	keystroke	a	n/a
283.5825	0.06	567165	keystroke	Key.backspace	n/a
283.6725	0.105	567345	keystroke	z	n/a
283.7775	0.045	567555	keystroke	o	n/a
283.9725	0.0755	567945	keystroke	n	n/a
283.988	0.09	567976	keystroke	e	n/a
284.2875	0.1045	568575	keystroke	Key.space	n/a
284.648	0.1045	569296	keystroke	s	n/a
284.767	0.0755	569534	keystroke	p	n/a
284.843	0.1045	569686	keystroke	e	n/a
285.3825	0.075	570765	keystroke	c	n/a
285.5175	0.06	571035	keystroke	i	n/a
285.6975	0.1045	571395	keystroke	f	n/a
286.1025	0.105	572205	keystroke	y	n/a
286.3125	0.09	572625	keystroke	Key.space	n/a
286.417	0.105	572834	keystroke	w	n/a
286.5675	0.0455	573135	keystroke	i	n/a
286.627	0.12	573254	keystroke	s	n/a
286.732	0.0605	573464	keystroke	h	n/a
286.913	0.06	573826	keystroke	i	n/a
287.078	0.09	574156	keystroke	n	n/a
287.1525	0.0905	574305	keystroke	g	n/a
287.2575	0.1045	574515	keystroke	Key.enter	n/a
287.3685	5.2155	574737	prompt	n/a	saver ride readings projection\n
288.1275	0.135	576255	keystroke	s	n/a
288.247	0.15	576494	keystroke	a	n/a
288.3525	0.09	576705	keystroke	v	n/a
288.427	0.15	576854	keystroke	e	n/a
288.5475	0.0745	577095	keystroke	r	n/a
288.6375	0.0895	577275	keystroke	Key.space	n/a
288.833	0.0745	577666	keystroke	r	n/a
288.9525	0.09	577905	keystroke	i	n/a
289.0275	0.12	578055	keystroke	d	n/a
289.1325	0.105	578265	keystroke	e	n/a
289.2075	0.105	578415	keystroke	Key.space	n/a
289.3275	0.06	578655	keystroke	r	n/a
289.4625	0.09	578925	keystroke	e	n/a
289.5375	0.135	579075	keystroke	a	n/a
289.6425	0.1055	579285	keystroke	d	n/a
289.7925	0.045	579585	keystroke	i	n/a
289.898	0.1045	579796	keystroke	n	n/a
289.958	0.09	579916	keystroke	g	n/a
290.063	0.1045	580126	keystroke	s	n/a
290.197	0.076	580394	keystroke	Key.space	n/a
290.4525	0.0295	580905	keystroke	r	n/a
290.7075	0.0895	581415	keystroke	Key.backspace	n/a
290.857	0.1205	581714	keystroke	p	n/a
290.9925	0.0595	581985	keystroke	r	n/a
291.0825	0.075	582165	keystroke	o	n/a
291.3075	0.0905	582615	keystroke	j	n/a
291.382	0.12	582764	keystroke	e	n/a
291.728	0.104	583456	keystroke	c	n/a
291.982	0.076	583964	keystroke	t	n/a
292.1025	0.0595	584205	keystroke	i	n/a
292.2525	0.105	584505	keystroke	o	n/a
292.3425	0.075	584685	keystroke	n	n/a
292.4625	0.12	584925	keystroke	Key.enter	n/a
292.589	6.505	585178	prompt	n/a	shop theoretical rolled citizen\n
293.2425	0.09	586485	keystroke	s	n/a
293.4075	0.105	586815	keystroke	h	n/a
293.4975	0.075	586995	keystroke	o	n/a
293.6775	0.075	587355	keystroke	p	n/a
293.7825	0.09	587565	keystroke	Key.space	n/a
293.9325	0.12	587865	keystroke	t	n/a
294.083	0.0595	588166	keystroke	h	n/a
294.1725	0.12	588345	keystroke	e	n/a
294.3675	0.045	588735	keystroke	o	n/a
295.2525	0.105	590505	keystroke	r	n/a
295.5675	0.0895	591135	keystroke	e	n/a
295.687	0.076	591374	keystroke	t	n/a
295.808	0.0895	591616	keystroke	i	n/a
295.9125	0.135	591825	keystroke	c	n/a
296.0025	0.0895	592005	keystroke	a	n/a
296.0775	0.0605	592155	keystroke	l	n/a
296.3025	0.045	592605	keystroke	Key.space	n/a
296.348	0.1045	592696	keystroke	r	n/a
296.483	0.0595	592966	keystroke	o	n/a
296.6325	0.075	593265	keystroke	l	n/a
296.7525	0.09	593505	keystroke	l	n/a
297.1575	0.09	594315	keystroke	e	n/a
297.3525	0.105	594705	keystroke	d	n/a
297.4425	0.09	594885	keystroke	Key.space	n/a
297.5925	0.09	595185	keystroke	c	n/a
297.7425	0.075	595485	keystroke	i	n/a
297.9675	0.0745	595935	keystroke	t	n/a
298.358	0.0745	596716	keystroke	z	n/a
298.478	0.06	596956	keystroke	i	n/a
298.7175	0.1055	597435	keystroke	e	n/a
298.837	0.0605	597674	keystroke	n	n/a
298.9725	0.12	597945	keystroke	Key.enter	n/a
299.098	5.771	598196	prompt	n/a	drums things directive describing\n
299.6625	0.075	599325	keystroke	d	n/a
299.8125	0.105	599625	keystroke	r	n/a
299.9025	0.0755	599805	keystroke	u	n/a
300.0825	0.075	600165	keystroke	m	n/a
300.173	0.089	600346	keystroke	s	n/a
300.247	0.0905	600494	keystroke	Key.space	n/a
300.338	0.075	600676	keystroke	t	n/a
300.502	0.105	601004	keystroke	h	n/a
300.623	0.0745	601246	keystroke	i	n/a
300.802	0.0755	601604	keystroke	n	n/a
300.9375	0.0905	601875	keystroke	s	n/a
301.103	0.09	602206	keystroke	Key.space	n/a
301.4025	0.1195	602805	keystroke	d	n/a
301.5525	0.075	603105	keystroke	i	n/a
301.6285	0.104	603257	keystroke	r	n/a
301.7025	0.12	603405	keystroke	e	n/a
301.8525	0.09	603705	keystroke	c	n/a
302.0625	0.0895	604125	keystroke	t	n/a
302.303	0.06	604606	keystroke	i	n/a
302.378	0.0745	604756	keystroke	v	n/a
303.0675	0.09	606135	keystroke	e	n/a
303.2175	0.075	606435	keystroke	Key.space	n/a
303.3525	0.075	606705	keystroke	d	n/a
303.5475	0.0905	607095	keystroke	e	n/a
303.758	0.089	607516	keystroke	s	n/a
303.9525	0.075	607905	keystroke	c	n/a
304.148	0.06	608296	keystroke	r	n/a
304.268	0.074	608536	keystroke	i	n/a
304.357	0.091	608714	keystroke	b	n/a
304.462	0.046	608924	keystroke	i	n/a
304.597	0.09	609194	keystroke	n	n/a
304.658	0.105	609316	keystroke	g	n/a
304.748	0.119	609496	keystroke	Key.enter	n/a
304.873	5.3665	609746	prompt	n/a	photograph hall economies student\n
305.4225	0.09	610845	keystroke	p	n/a
305.7075	0.09	611415	keystroke	h	n/a
305.8875	0.06	611775	keystroke	o	n/a
305.9325	0.09	611865	keystroke	t	n/a
306.142	0.045	612284	keystroke	o	n/a
306.5475	0.09	613095	keystroke	g	n/a
306.7575	0.1505	613515	keystroke	r	n/a
306.878	0.105	613756	keystroke	a	n/a
307.0125	0.075	614025	keystroke	p	n/a
307.1025	0.0895	614205	keystroke	h	n/a
307.2675	0.075	614535	keystroke	Key.space	n/a
307.4475	0.1205	614895	keystroke	h	n/a
307.5825	0.0755	615165	keystroke	a	n/a
307.6275	0.074	615255	keystroke	l	n/a
307.7625	0.09	615525	keystroke	l	n/a
307.957	0.09	615914	keystroke	Key.space	n/a
308.032	0.0905	616064	keystroke	e	n/a
308.197	0.0755	616394	keystroke	c	n/a
308.302	0.045	616604	keystroke	o	n/a
308.452	0.06	616904	keystroke	n	n/a
308.617	0.045	617234	keystroke	o	n/a
308.767	0.0605	617534	keystroke	m	n/a
308.9325	0.0605	617865	keystroke	i	n/a
309.0235	0.074	618047	keystroke	e	n/a
309.2175	0.074	618435	keystroke	s	n/a
309.2765	0.09	618553	keystroke	Key.space	n/a
309.413	0.1195	618826	keystroke	s	n/a
309.518	0.0745	619036	keystroke	t	n/a
309.6075	0.0905	619215	keystroke	u	n/a
309.713	0.1495	619426	keystroke	d	n/a
309.8475	0.089	619695	keystroke	e	n/a
309.892	0.0905	619784	keystroke	n	n/a
309.998	0.1045	619996	keystroke	t	n/a
310.1175	0.12	620235	keystroke	Key.enter	n/a
310.2445	15.6245	620489	prompt	n/a	original digest verzeichnis contacted\n
310.838	0.1045	621676	keystroke	o	n/a
310.9265	0.091	621853	keystroke	r	n/a
311.0775	0.0455	622155	keystroke	i	n/a
311.258	0.0895	622516	keystroke	n	n/a
311.737	0.0755	623474	keystroke	Key.backspace	n/a
311.873	0.0895	623746	keystroke	g	n/a
312.0225	0.06	624045	keystroke	i	n/a
312.2175	0.0895	624435	keystroke	n	n/a
312.367	0.12	624734	keystroke	a	n/a
312.473	0.059	624946	keystroke	l	n/a
312.6675	0.0295	625335	keystroke	Key.space	n/a
312.9975	0.0905	625995	keystroke	d	n/a
313.118	0.06	626236	keystroke	i	n/a
313.283	0.1495	626566	keystroke	g	n/a
313.373	0.1045	626746	keystroke	e	n/a
313.5825	0.09	627165	keystroke	s	n/a
313.6575	0.105	627315	keystroke	t	n/a
313.8665	0.076	627733	keystroke	Key.space	n/a
314.497	0.091	628994	keystroke	v	n/a
314.7975	0.12	629595	keystroke	e	n/a
314.872	0.121	629744	keystroke	r	n/a
315.128	0.119	630256	keystroke	z	n/a
315.547	0.045	631094	keystroke	e	n/a
315.697	0.015	631394	keystroke	i	n/a
316.972	0.09	633944	keystroke	i	n/a
317.092	0.09	634184	keystroke	c	n/a
317.242	0.075	634484	keystroke	h	n/a
317.5575	0.06	635115	keystroke	n	n/a
317.737	0.076	635474	keystroke	i	n/a
317.8425	0.09	635685	keystroke	s	n/a
317.9475	0.075	635895	keystroke	Key.space	n/a
318.067	0.0905	636134	keystroke	c	n/a
318.1725	0.045	636345	keystroke	o	n/a
318.3375	0.0755	636675	keystroke	n	n/a
318.368	0.1045	636736	keystroke	t	n/a
318.5025	0.135	637005	keystroke	a	n/a
318.6075	0.075	637215	keystroke	c	n/a
319.0275	0.0905	638055	keystroke	Key.backspace	n/a
319.177	0.09	638354	keystroke	Key.backspace	n/a
319.342	0.0605	638684	keystroke	Key.backspace	n/a
319.477	0.0605	638954	keystroke	Key.backspace	n/a
319.628	0.029	639256	keystroke	Key.backspace	n/a
319.852	0.06	639704	keystroke	Key.backspace	n/a
319.9725	0.0595	639945	keystroke	Key.backspace	n/a
320.107	0.0605	640214	keystroke	Key.backspace	n/a
320.2275	0.06	640455	keystroke	Key.backspace	n/a
320.377	0.06	640754	keystroke	Key.backspace	n/a
320.497	0.075	640994	keystroke	Key.backspace	n/a
320.6475	0.0595	641295	keystroke	Key.backspace	n/a
320.812	0.045	641624	keystroke	Key.backspace	n/a
322.0575	0.09	644115	keystroke	c	n/a
322.2975	0.045	644595	keystroke	h	n/a
322.5225	0.09	645045	keystroke	n	n/a
322.748	0.06	645496	keystroke	i	n/a
322.853	0.1195	645706	keystroke	s	n/a
322.9575	0.0745	645915	keystroke	Key.space	n/a
323.0925	0.105	646185	keystroke	c	n/a
323.1825	0.06	646365	keystroke	o	n/a
323.348	0.074	646696	keystroke	n	n/a
323.407	0.0905	646814	keystroke	t	n/a
323.5125	0.12	647025	keystroke	a	n/a
323.648	0.0745	647296	keystroke	c	n/a
323.6625	0.015	647325	keystroke	a	n/a
323.8425	0.075	647685	keystroke	t	n/a
323.9925	0.105	647985	keystroke	e	n/a
324.1725	0.135	648345	keystroke	d	n/a
325.717	0.15	651434	keystroke	Key.enter	n/a
325.8735	13.9605	651747	prompt	n/a	recruitment delayed skating greatly\n
326.5575	0.1505	653115	keystroke	r	n/a
326.6625	0.104	653325	keystroke	e	n/a
326.9625	0.075	653925	keystroke	c	n/a
327.158	0.089	654316	keystroke	r	n/a
327.263	0.059	654526	keystroke	u	n/a
327.412	0.09	654824	keystroke	i	n/a
327.4875	0.075	654975	keystroke	t	n/a
327.637	0.09	655274	keystroke	m	n/a
327.7125	0.1195	655425	keystroke	e	n/a
327.847	0.06	655694	keystroke	n	n/a
327.892	0.1055	655784	keystroke	t	n/a
328.0125	0.1045	656025	keystroke	Key.space	n/a
328.1475	0.12	656295	keystroke	d	n/a
328.252	0.0905	656504	keystroke	e	n/a
328.3575	0.09	656715	keystroke	l	n/a
328.4625	0.12	656925	keystroke	a	n/a
328.5375	0.1055	657075	keystroke	t	n/a
328.6125	0.09	657225	keystroke	e	n/a
328.7625	0.105	657525	keystroke	d	n/a
328.9125	0.045	657825	keystroke	Key.space	n/a
329.3175	0.105	658635	keystroke	s	n/a
329.4375	0.06	658875	keystroke	k	n/a
329.5125	0.135	659025	keystroke	a	n/a
329.6025	0.1055	659205	keystroke	t	n/a
329.7225	0.06	659445	keystroke	i	n/a
329.8875	0.075	659775	keystroke	n	n/a
329.9475	0.104	659895	keystroke	g	n/a
330.053	0.089	660106	keystroke	Key.space	n/a
330.2025	0.06	660405	keystroke	t	n/a
330.5325	0.09	661065	keystroke	Key.backspace	n/a
330.5925	0.09	661185	keystroke	g	n/a
330.7875	0.09	661575	keystroke	r	n/a
330.9825	0.0905	661965	keystroke	e	n/a
331.0575	0.12	662115	keystroke	a	n/a
331.207	0.135	662414	keystroke	t	n/a
332.5725	0.1205	665145	keystroke	l	n/a
332.7375	0.045	665475	keystroke	y	n/a
333.9225	0.3745	667845	keystroke	Key.backspace	n/a
334.387	0.06	668774	keystroke	Key.backspace	n/a
334.522	0.06	669044	keystroke	Key.backspace	n/a
334.657	0.06	669314	keystroke	Key.backspace	n/a
334.8225	0.015	669645	keystroke	Key.backspace	n/a
334.9125	0.0595	669825	keystroke	Key.backspace	n/a
335.0475	0.045	670095	keystroke	Key.backspace	n/a
335.1825	0.045	670365	keystroke	Key.backspace	n/a
335.3025	0.075	670605	keystroke	Key.backspace	n/a
335.4225	0.075	670845	keystroke	Key.backspace	n/a
335.5725	0.045	671145	keystroke	Key.backspace	n/a
335.7075	0.075	671415	keystroke	Key.backspace	n/a
335.8425	0.075	671685	keystroke	Key.backspace	n/a
336.0075	0.045	672015	keystroke	Key.backspace	n/a
336.1275	0.06	672255	keystroke	Key.backspace	n/a
336.2775	0.0595	672555	keystroke	Key.backspace	n/a
336.397	0.09	672794	keystroke	Key.backspace	n/a
336.547	0.0755	673094	keystroke	Key.backspace	n/a
336.6825	0.074	673365	keystroke	Key.backspace	n/a
336.8775	0.105	673755	keystroke	y	n/a
336.968	0.1045	673936	keystroke	e	n/a
337.2825	0.0745	674565	keystroke	d	n/a
337.4315	0.106	674863	keystroke	Key.space	n/a
337.673	0.0895	675346	keystroke	s	n/a
337.777	0.0745	675554	keystroke	k	n/a
337.8825	0.1355	675765	keystroke	a	n/a
337.987	0.09	675974	keystroke	t	n/a
338.0925	0.0595	676185	keystroke	i	n/a
338.2425	0.09	676485	keystroke	n	n/a
338.3475	0.075	676695	keystroke	g	n/a
338.4515	0.0905	676903	keystroke	Key.space	n/a
338.768	0.09	677536	keystroke	g	n/a
338.963	0.0895	677926	keystroke	r	n/a
339.128	0.1045	678256	keystroke	e	n/a
339.202	0.1355	678404	keystroke	a	n/a
339.3525	0.0745	678705	keystroke	t	n/a
339.488	0.074	678976	keystroke	l	n/a
339.577	0.0905	679154	keystroke	y	n/a
339.6975	0.135	679395	keystroke	Key.enter	n/a
339.8385	6.1455	679677	prompt	n/a	interference scanning banks postposted\n
340.4325	0.06	680865	keystroke	i	n/a
340.5965	0.091	681193	keystroke	n	n/a
340.6725	0.12	681345	keystroke	t	n/a
340.7775	0.135	681555	keystroke	e	n/a
340.8675	0.09	681735	keystroke	r	n/a
341.0625	0.12	682125	keystroke	f	n/a
341.1975	0.135	682395	keystroke	e	n/a
341.3175	0.1355	682635	keystroke	r	n/a
341.4375	0.105	682875	keystroke	e	n/a
341.5875	0.075	683175	keystroke	n	n/a
341.6625	0.12	683325	keystroke	c	n/a
341.7375	0.105	683475	keystroke	e	n/a
341.8575	0.06	683715	keystroke	Key.space	n/a
342.082	0.075	684164	keystroke	s	n/a
342.217	0.1655	684434	keystroke	c	n/a
342.3525	0.1045	684705	keystroke	a	n/a
342.5025	0.075	685005	keystroke	n	n/a
342.637	0.0755	685274	keystroke	n	n/a
342.832	0.0455	685664	keystroke	i	n/a
342.998	0.0595	685996	keystroke	n	n/a
343.0725	0.075	686145	keystroke	g	n/a
343.1485	0.089	686297	keystroke	Key.space	n/a
343.2525	0.12	686505	keystroke	b	n/a
343.387	0.091	686774	keystroke	a	n/a
343.4625	0.0745	686925	keystroke	n	n/a
343.658	0.03	687316	keystroke	k	n/a
343.748	0.075	687496	keystroke	s	n/a
343.807	0.075	687614	keystroke	Key.space	n/a
344.047	0.046	688094	keystroke	p	n/a
344.1975	0.09	688395	keystroke	o	n/a
344.2725	0.105	688545	keystroke	s	n/a
344.3925	0.105	688785	keystroke	t	n/a
344.6625	0.06	689325	keystroke	p	n/a
344.8425	0.0445	689685	keystroke	o	n/a
345.008	0.059	690016	keystroke	j	n/a
345.3375	0.0895	690675	keystroke	Key.backspace	n/a
345.547	0.0755	691094	keystroke	n	n/a
345.637	0.105	691274	keystroke	e	n/a
345.773	0.089	691546	keystroke	d	n/a
345.877	0.105	691754	keystroke	Key.enter	n/a
345.988	10.3305	691976	prompt	n/a	dont volumes raleigh stronger\n
346.507	0.075	693014	keystroke	d	n/a
346.628	0.059	693256	keystroke	o	n/a
346.807	0.075	693614	keystroke	n	n/a
346.957	0.075	693914	keystroke	t	n/a
347.0775	0.0895	694155	keystroke	Key.space	n/a
347.2575	0.1055	694515	keystroke	v	n/a
347.378	0.0595	694756	keystroke	o	n/a
347.5275	0.06	695055	keystroke	l	n/a
347.7075	0.0605	695415	keystroke	u	n/a
347.9765	0.076	695953	keystroke	e	n/a
348.1725	0.0895	696345	keystroke	s	n/a
348.667	0.045	697334	keystroke	Key.backspace	n/a
348.8025	0.0445	697605	keystroke	Key.backspace	n/a
349.0415	0.046	698083	keystroke	m	n/a
349.1175	0.105	698235	keystroke	e	n/a
349.3575	0.06	698715	keystroke	s	n/a
349.7025	0.075	699405	keystroke	Key.space	n/a
350.0325	0.075	700065	keystroke	l	n/a
350.272	0.075	700544	keystroke	Key.backspace	n/a
350.362	0.1055	700724	keystroke	r	n/a
350.4225	0.0895	700845	keystroke	e	n/a
350.677	0.0905	701354	keystroke	l	n/a
350.7975	0.135	701595	keystroke	e	n/a
350.992	0.06	701984	keystroke	i	n/a
351.082	0.1205	702164	keystroke	g	n/a
351.2175	0.045	702435	keystroke	h	n/a
351.4575	0.06	702915	keystroke	Key.backspace	n/a
351.5925	0.06	703185	keystroke	Key.backspace	n/a
351.7275	0.06	703455	keystroke	Key.backspace	n/a
351.8625	0.105	703725	keystroke	Key.backspace	n/a
351.9975	0.105	703995	keystroke	a	n/a
352.5525	0.1045	705105	keystroke	Key.backspace	n/a
352.9125	0.0745	705825	keystroke	Key.backspace	n/a
353.0925	0.0745	706185	keystroke	Key.backspace	n/a
353.197	0.12	706394	keystroke	a	n/a
353.3625	0.1055	706725	keystroke	l	n/a
353.8725	0.1045	707745	keystroke	e	n/a
354.1275	0.0905	708255	keystroke	i	n/a
354.232	0.105	708464	keystroke	g	n/a
354.352	0.0905	708704	keystroke	h	n/a
354.577	0.075	709154	keystroke	Key.space	n/a
355.057	0.105	710114	keystroke	s	n/a
355.267	0.09	710534	keystroke	t	n/a
355.4325	0.06	710865	keystroke	r	n/a
355.657	0.09	711314	keystroke	o	n/a
355.8675	0.0905	711735	keystroke	n	n/a
355.959	0.1025	711918	keystroke	g	n/a
356.047	0.1355	712094	keystroke	e	n/a
356.1375	0.119	712275	keystroke	r	n/a
356.2115	0.105	712423	keystroke	Key.enter	n/a
356.3235	4.3	712647	prompt	n/a	schedule marked gate aims\n
356.888	0.1045	713776	keystroke	s	n/a
357.0375	0.105	714075	keystroke	c	n/a
357.1575	0.06	714315	keystroke	h	n/a
357.2775	0.09	714555	keystroke	e	n/a
357.398	0.1045	714796	keystroke	d	n/a
357.5165	0.061	715033	keystroke	u	n/a
357.743	0.0595	715486	keystroke	l	n/a
357.8325	0.105	715665	keystroke	e	n/a
357.9525	0.09	715905	keystroke	Key.space	n/a
358.357	0.075	716714	keystroke	m	n/a
358.417	0.1805	716834	keystroke	a	n/a
358.658	0.0895	717316	keystroke	r	n/a
358.8525	0.06	717705	keystroke	k	n/a
359.1225	0.12	718245	keystroke	e	n/a
359.2725	0.105	718545	keystroke	d	n/a
359.3625	0.105	718725	keystroke	Key.space	n/a
359.5125	0.09	719025	keystroke	g	n/a
359.5875	0.135	719175	keystroke	a	n/a
359.7075	0.105	719415	keystroke	t	n/a
359.7675	0.1045	719535	keystroke	e	n/a
359.8875	0.1045	719775	keystroke	Key.space	n/a
360.007	0.091	720014	keystroke	a	n/a
360.1575	0.045	720315	keystroke	i	n/a
360.307	0.105	720614	keystroke	m	n/a
360.397	0.0755	720794	keystroke	s	n/a
360.4875	0.135	720975	keystroke	Key.enter	n/a
360.626	6.613	721252	prompt	n/a	richards matching encounter threads\n
361.027	0.0905	722054	keystroke	s	n/a
361.282	0.0755	722564	keystroke	Key.backspace	n/a
361.342	0.105	722684	keystroke	r	n/a
361.493	0.0745	722986	keystroke	i	n/a
361.552	0.1355	723104	keystroke	c	n/a
361.7025	0.0745	723405	keystroke	h	n/a
361.732	0.1205	723464	keystroke	a	n/a
361.8375	0.075	723675	keystroke	r	n/a
362.0165	0.136	724033	keystroke	d	n/a
362.1225	0.12	724245	keystroke	s	n/a
362.257	0.09	724514	keystroke	Key.space	n/a
362.6775	0.0595	725355	keystroke	m	n/a
362.752	0.1055	725504	keystroke	a	n/a
362.8125	0.0895	725625	keystroke	t	n/a
362.992	0.0905	725984	keystroke	c	n/a
363.0675	0.0445	726135	keystroke	h	n/a
363.2325	0.06	726465	keystroke	i	n/a
363.397	0.075	726794	keystroke	n	n/a
363.4425	0.0895	726885	keystroke	g	n/a
363.5775	0.0745	727155	keystroke	Key.space	n/a
363.6375	0.075	727275	keystroke	e	n/a
363.7875	0.09	727575	keystroke	n	n/a
364.2225	0.1045	728445	keystroke	v	n/a
364.3415	0.0605	728683	keystroke	o	n/a
364.5075	0.059	729015	keystroke	u	n/a
364.777	0.0595	729554	keystroke	Key.backspace	n/a
364.927	0.0445	729854	keystroke	Key.backspace	n/a
365.0475	0.075	730095	keystroke	Key.backspace	n/a
365.138	0.0895	730276	keystroke	c	n/a
365.2425	0.044	730485	keystroke	o	n/a
365.4225	0.045	730845	keystroke	u	n/a
365.5715	0.09	731143	keystroke	n	n/a
365.6465	0.105	731293	keystroke	t	n/a
365.7225	0.134	731445	keystroke	e	n/a
365.827	0.09	731654	keystroke	r	n/a
365.8725	0.104	731745	keystroke	Key.space	n/a
366.0375	0.0745	732075	keystroke	t	n/a
366.113	0.089	732226	keystroke	h	n/a
366.2325	0.105	732465	keystroke	r	n/a
366.412	0.1205	732824	keystroke	e	n/a
366.5025	0.15	733005	keystroke	a	n/a
366.6225	0.15	733245	keystroke	d	n/a
366.7275	0.1195	733455	keystroke	s	n/a
367.1325	0.105	734265	keystroke	Key.enter	n/a
367.2435	5.2155	734487	prompt	n/a	reflects better undo obvious\n
367.8225	0.12	735645	keystroke	r	n/a
367.9125	0.1195	735825	keystroke	e	n/a
368.1075	0.12	736215	keystroke	f	n/a
368.2725	0.09	736545	keystroke	l	n/a
368.3625	0.135	736725	keystroke	e	n/a
368.4825	0.075	736965	keystroke	c	n/a
368.6615	0.106	737323	keystroke	t	n/a
368.7825	0.12	737565	keystroke	s	n/a
368.9315	0.091	737863	keystroke	Key.space	n/a
369.1115	0.1205	738223	keystroke	b	n/a
369.2015	0.121	738403	keystroke	e	n/a
369.3675	0.075	738735	keystroke	t	n/a
369.4865	0.121	738973	keystroke	t	n/a
369.5925	0.135	739185	keystroke	e	n/a
369.6815	0.106	739363	keystroke	r	n/a
369.8025	0.12	739605	keystroke	Key.space	n/a
370.1025	0.0445	740205	keystroke	u	n/a
370.2515	0.0905	740503	keystroke	n	n/a
370.357	0.0905	740714	keystroke	d	n/a
370.5065	0.061	741013	keystroke	o	n/a
370.702	0.075	741404	keystroke	Key.space	n/a
370.9575	0.045	741915	keystroke	o	n/a
371.033	0.1045	742066	keystroke	b	n/a
371.2575	0.06	742515	keystroke	j	n/a
371.5865	0.0755	743173	keystroke	Key.backspace	n/a
371.6775	0.105	743355	keystroke	v	n/a
371.8115	0.076	743623	keystroke	i	n/a
371.992	0.0455	743984	keystroke	o	n/a
372.143	0.075	744286	keystroke	u	n/a
372.247	0.075	744494	keystroke	s	n/a
372.352	0.105	744704	keystroke	Key.enter	n/a
372.463	5.0505	744926	prompt	n/a	tough logged bottle reforms\n
373.0125	0.09	746025	keystroke	t	n/a
373.117	0.06	746234	keystroke	o	n/a
373.2975	0.06	746595	keystroke	u	n/a
373.4015	0.0905	746803	keystroke	g	n/a
373.4765	0.061	746953	keystroke	h	n/a
373.6275	0.075	747255	keystroke	Key.space	n/a
373.8225	0.045	747645	keystroke	l	n/a
373.9575	0.06	747915	keystroke	o	n/a
374.0185	0.073	748037	keystroke	g	n/a
374.1375	0.119	748275	keystroke	g	n/a
374.2725	0.119	748545	keystroke	e	n/a
374.3775	0.105	748755	keystroke	d	n/a
374.4835	0.074	748967	keystroke	Key.space	n/a
374.6175	0.09	749235	keystroke	b	n/a
374.7225	0.075	749445	keystroke	o	n/a
374.8725	0.0745	749745	keystroke	t	n/a
375.0075	0.0895	750015	keystroke	t	n/a
375.172	0.09	750344	keystroke	l	n/a
375.262	0.0905	750524	keystroke	e	n/a
375.397	0.0755	750794	keystroke	Key.space	n/a
375.5175	0.12	751035	keystroke	r	n/a
375.6075	0.12	751215	keystroke	e	n/a
375.8475	0.09	751695	keystroke	f	n/a
376.1925	0.0595	752385	keystroke	o	n/a
376.282	0.105	752564	keystroke	r	n/a
376.4025	0.0755	752805	keystroke	m	n/a
376.4915	0.0905	752983	keystroke	s	n/a
377.3475	0.164	754695	keystroke	Key.enter	n/a
377.516	16.873	755032	prompt	n/a	cornell convention director friendship\n
386.829	0.043	773658	keystroke	Key.backspace	n/a
386.932	0.1055	773864	keystroke	Key.backspace	n/a
387.922	0.105	775844	keystroke	c	n/a
388.028	0.0745	776056	keystroke	o	n/a
388.1475	0.075	776295	keystroke	r	n/a
388.2825	0.0745	776565	keystroke	n	n/a
388.4175	0.0905	776835	keystroke	e	n/a
388.5985	0.044	777197	keystroke	l	n/a
388.702	0.076	777404	keystroke	l	n/a
388.837	0.09	777674	keystroke	Key.space	n/a
389.077	0.0455	778154	keystroke	o	n/a
389.257	0.076	778514	keystroke	n	n/a
389.587	0.061	779174	keystroke	Key.backspace	n/a
389.7225	0.06	779445	keystroke	Key.backspace	n/a
389.7975	0.075	779595	keystroke	c	n/a
389.8575	0.06	779715	keystroke	o	n/a
390.0525	0.1195	780105	keystroke	n	n/a
390.127	0.1505	780254	keystroke	v	n/a
390.232	0.1505	780464	keystroke	e	n/a
390.337	0.09	780674	keystroke	n	n/a
390.458	0.0745	780916	keystroke	t	n/a
390.548	0.059	781096	keystroke	i	n/a
390.697	0.09	781394	keystroke	o	n/a
390.758	0.0745	781516	keystroke	n	n/a
390.907	0.105	781814	keystroke	Key.space	n/a
391.0275	0.1045	782055	keystroke	d	n/a
391.1775	0.0595	782355	keystroke	i	n/a
391.2825	0.1195	782565	keystroke	r	n/a
391.3725	0.1195	782745	keystroke	e	n/a
391.537	0.076	783074	keystroke	c	n/a
391.703	0.074	783406	keystroke	t	n/a
391.792	0.075	783584	keystroke	o	n/a
391.8825	0.0755	783765	keystroke	r	n/a
391.972	0.105	783944	keystroke	Key.space	n/a
392.137	0.0455	784274	keystroke	f	n/a
392.3175	0.1205	784635	keystroke	r	n/a
392.4975	0.0745	784995	keystroke	i	n/a
392.528	0.06	785056	keystroke	e	n/a
393.157	0.06	786314	keystroke	n	n/a
393.232	0.135	786464	keystroke	d	n/a
393.3375	0.1195	786675	keystroke	s	n/a
393.5775	0.0905	787155	keystroke	h	n/a
393.6225	0.075	787245	keystroke	i	n/a
394.042	0.06	788084	keystroke	p	n/a
394.252	0.135	788504	keystroke	Key.enter	n/a
394.394	4.75	788788	prompt	n/a	provide youth expansys tales\n
394.943	0.1035	789886	keystroke	p	n/a
395.0165	0.076	790033	keystroke	r	n/a
395.153	0.089	790306	keystroke	o	n/a
395.243	0.074	790486	keystroke	v	n/a
395.362	0.0905	790724	keystroke	i	n/a
395.467	0.166	790934	keystroke	d	n/a
395.5725	0.105	791145	keystroke	e	n/a
395.6925	0.0595	791385	keystroke	Key.space	n/a
395.9025	0.075	791805	keystroke	y	n/a
395.9925	0.045	791985	keystroke	o	n/a
396.172	0.075	792344	keystroke	u	n/a
396.262	0.091	792524	keystroke	t	n/a
396.367	0.0605	792734	keystroke	h	n/a
396.5325	0.09	793065	keystroke	Key.space	n/a
396.772	0.076	793544	keystroke	e	n/a
396.9825	0.1045	793965	keystroke	x	n/a
397.147	0.0755	794294	keystroke	p	n/a
397.237	0.105	794474	keystroke	a	n/a
397.417	0.0755	794834	keystroke	n	n/a
397.537	0.12	795074	keystroke	s	n/a
397.823	0.089	795646	keystroke	y	n/a
398.002	0.091	796004	keystroke	s	n/a
398.2425	0.0895	796485	keystroke	Key.space	n/a
398.3765	0.1205	796753	keystroke	t	n/a
398.5125	0.105	797025	keystroke	a	n/a
398.6325	0.105	797265	keystroke	l	n/a
398.7525	0.075	797505	keystroke	e	n/a
398.9025	0.09	797805	keystroke	s	n/a
399.0525	0.09	798105	keystroke	Key.enter	n/a
399.1505	7.12	798301	prompt	n/a	overcome beverage youth astronomy\n
399.818	0.0595	799636	keystroke	o	n/a
399.862	0.09	799724	keystroke	v	n/a
399.953	0.1195	799906	keystroke	e	n/a
400.042	0.09	800084	keystroke	r	n/a
400.253	0.0595	800506	keystroke	c	n/a
400.2975	0.075	800595	keystroke	o	n/a
400.5075	0.076	801015	keystroke	Key.backspace	n/a
400.672	0.09	801344	keystroke	Key.backspace	n/a
401.062	0.091	802124	keystroke	c	n/a
401.1975	0.0745	802395	keystroke	o	n/a
401.392	0.06	802784	keystroke	m	n/a
401.4675	0.0895	802935	keystroke	e	n/a
401.572	0.075	803144	keystroke	Key.space	n/a
401.6925	0.09	803385	keystroke	v	n/a
401.7975	0.029	803595	keystroke	e	n/a
402.0975	0.0745	804195	keystroke	Key.backspace	n/a
402.217	0.1055	804434	keystroke	Key.backspace	n/a
402.307	0.1205	804614	keystroke	b	n/a
402.4425	0.1055	804885	keystroke	e	n/a
402.638	0.179	805276	keystroke	v	n/a
402.862	0.1205	805724	keystroke	e	n/a
402.952	0.1355	805904	keystroke	r	n/a
403.072	0.1505	806144	keystroke	a	n/a
403.2075	0.1045	806415	keystroke	g	n/a
403.282	0.106	806564	keystroke	e	n/a
403.3725	0.09	806745	keystroke	Key.space	n/a
403.5825	0.0295	807165	keystroke	t	n/a
403.657	0.0755	807314	keystroke	o	n/a
403.8825	0.06	807765	keystroke	Key.backspace	n/a
404.0175	0.075	808035	keystroke	Key.backspace	n/a
404.0775	0.105	808155	keystroke	y	n/a
404.1675	0.075	808335	keystroke	o	n/a
404.3775	0.074	808755	keystroke	u	n/a
404.468	0.0885	808936	keystroke	t	n/a
404.5875	0.045	809175	keystroke	h	n/a
404.7525	0.09	809505	keystroke	Key.space	n/a
404.8275	0.1055	809655	keystroke	a	n/a
404.9925	0.15	809985	keystroke	s	n/a
405.1275	0.045	810255	keystroke	t	n/a
405.2625	0.075	810525	keystroke	r	n/a
405.3825	0.075	810765	keystroke	o	n/a
405.623	0.0745	811246	keystroke	n	n/a
405.8025	0.075	811605	keystroke	o	n/a
405.9675	0.09	811935	keystroke	m	n/a
406.0425	0.09	812085	keystroke	y	n/a
406.1475	0.12	812295	keystroke	Key.enter	n/a
406.279	6.605	812558	prompt	n/a	stability florists designed washington\n
406.8675	0.135	813735	keystroke	s	n/a
407.1375	0.105	814275	keystroke	t	n/a
407.2575	0.105	814515	keystroke	a	n/a
407.437	0.105	814874	keystroke	b	n/a
407.5575	0.0595	815115	keystroke	i	n/a
407.7525	0.0295	815505	keystroke	l	n/a
407.872	0.0605	815744	keystroke	i	n/a
407.9175	0.06	815835	keystroke	t	n/a
408.068	0.075	816136	keystroke	y	n/a
408.157	0.1055	816314	keystroke	Key.space	n/a
408.2925	0.12	816585	keystroke	f	n/a
408.4275	0.075	816855	keystroke	l	n/a
408.6075	0.105	817215	keystroke	o	n/a
408.6975	0.075	817395	keystroke	r	n/a
409.0725	0.06	818145	keystroke	i	n/a
409.1775	0.135	818355	keystroke	s	n/a
409.3275	0.12	818655	keystroke	t	n/a
409.4325	0.105	818865	keystroke	s	n/a
409.6425	0.105	819285	keystroke	Key.space	n/a
409.8675	0.15	819735	keystroke	d	n/a
409.9725	0.0895	819945	keystroke	e	n/a
410.152	0.1205	820304	keystroke	s	n/a
410.288	0.044	820576	keystroke	i	n/a
410.392	0.0905	820784	keystroke	g	n/a
410.4525	0.1045	820905	keystroke	n	n/a
410.617	0.105	821234	keystroke	e	n/a
410.933	0.104	821866	keystroke	d	n/a
411.127	0.0905	822254	keystroke	Key.space	n/a
411.4425	0.15	822885	keystroke	w	n/a
411.593	0.149	823186	keystroke	a	n/a
411.652	0.136	823304	keystroke	s	n/a
411.847	0.03	823694	keystroke	h	n/a
411.997	0.045	823994	keystroke	i	n/a
412.1475	0.075	824295	keystroke	n	n/a
412.1925	0.0745	824385	keystroke	g	n/a
412.357	0.1055	824714	keystroke	t	n/a
412.418	0.059	824836	keystroke	o	n/a
412.567	0.105	825134	keystroke	n	n/a
412.762	0.1205	825524	keystroke	Key.enter	n/a
412.8895	4.617	825779	prompt	n/a	appendix polls thing albert\n
413.3475	0.09	826695	keystroke	s	n/a
413.5875	0.075	827175	keystroke	Key.backspace	n/a
413.708	0.0895	827416	keystroke	a	n/a
413.7825	0.0605	827565	keystroke	p	n/a
413.9325	0.06	827865	keystroke	p	n/a
414.0225	0.075	828045	keystroke	e	n/a
414.1575	0.075	828315	keystroke	n	n/a
414.2325	0.09	828465	keystroke	d	n/a
414.3825	0.06	828765	keystroke	i	n/a
414.4725	0.105	828945	keystroke	x	n/a
414.6075	0.09	829215	keystroke	Key.space	n/a
414.8925	0.0745	829785	keystroke	p	n/a
415.058	0.0745	830116	keystroke	o	n/a
415.2525	0.06	830505	keystroke	l	n/a
415.387	0.075	830774	keystroke	l	n/a
415.492	0.106	830984	keystroke	s	n/a
415.612	0.075	831224	keystroke	Key.space	n/a
415.7475	0.0755	831495	keystroke	t	n/a
415.9275	0.0755	831855	keystroke	h	n/a
415.9875	0.0745	831975	keystroke	i	n/a
416.167	0.1055	832334	keystroke	n	n/a
416.302	0.0755	832604	keystroke	g	n/a
416.422	0.105	832844	keystroke	Key.space	n/a
416.632	0.106	833264	keystroke	a	n/a
416.7525	0.0745	833505	keystroke	l	n/a
416.888	0.089	833776	keystroke	b	n/a
416.992	0.165	833984	keystroke	e	n/a
417.112	0.09	834224	keystroke	r	n/a
417.277	0.12	834554	keystroke	t	n/a
417.382	0.12	834764	keystroke	Key.enter	n/a
417.51	4.5255	835020	prompt	n/a	feof light promoted indie\n
418.178	0.029	836356	keystroke	t	n/a
418.447	0.075	836894	keystroke	Key.backspace	n/a
418.507	0.1495	837014	keystroke	f	n/a
418.6125	0.12	837225	keystroke	e	n/a
418.7475	0.075	837495	keystroke	o	n/a
418.9425	0.09	837885	keystroke	f	n/a
419.1375	0.075	838275	keystroke	Key.space	n/a
419.3925	0.045	838785	keystroke	l	n/a
419.558	0.0595	839116	keystroke	i	n/a
419.6325	0.0595	839265	keystroke	g	n/a
419.722	0.09	839444	keystroke	h	n/a
419.797	0.09	839594	keystroke	t	n/a
419.917	0.0905	839834	keystroke	Key.space	n/a
420.1575	0.0445	840315	keystroke	p	n/a
420.247	0.06	840494	keystroke	r	n/a
420.322	0.061	840644	keystroke	o	n/a
420.472	0.06	840944	keystroke	m	n/a
420.6375	0.0745	841275	keystroke	o	n/a
420.682	0.12	841364	keystroke	t	n/a
420.772	0.12	841544	keystroke	e	n/a
420.9225	0.1045	841845	keystroke	d	n/a
421.0425	0.0745	842085	keystroke	Key.space	n/a
421.2825	0.045	842565	keystroke	i	n/a
421.4475	0.075	842895	keystroke	n	n/a
421.5375	0.09	843075	keystroke	d	n/a
421.6425	0.075	843285	keystroke	i	n/a
421.7625	0.0745	843525	keystroke	e	n/a
421.927	0.106	843854	keystroke	Key.enter	n/a
422.0455	7.1735	844091	prompt	n/a	guidelines salvation video organizational\n
422.708	0.119	845416	keystroke	g	n/a
422.917	0.0605	845834	keystroke	u	n/a
423.082	0.075	846164	keystroke	i	n/a
423.172	0.165	846344	keystroke	d	n/a
423.2775	0.1055	846555	keystroke	e	n/a
423.3975	0.0745	846795	keystroke	l	n/a
423.577	0.0605	847154	keystroke	i	n/a
423.743	0.0895	847486	keystroke	n	n/a
423.848	0.0895	847696	keystroke	e	n/a
424.0425	0.089	848085	keystroke	s	n/a
424.1465	0.076	848293	keystroke	Key.space	n/a
424.328	0.1345	848656	keystroke	s	n/a
424.5075	0.045	849015	keystroke	a	n/a
424.5525	0.089	849105	keystroke	l	n/a
425.122	0.12	850244	keystroke	v	n/a
425.2275	0.1495	850455	keystroke	a	n/a
425.4075	0.0745	850815	keystroke	t	n/a
425.497	0.06	850994	keystroke	i	n/a
425.6475	0.0595	851295	keystroke	o	n/a
425.738	0.045	851476	keystroke	n	n/a
425.827	0.105	851654	keystroke	Key.space	n/a
425.992	0.105	851984	keystroke	v	n/a
426.203	0.09	852406	keystroke	i	n/a
426.412	0.1355	852824	keystroke	d	n/a
426.517	0.105	853034	keystroke	e	n/a
426.682	0.0605	853364	keystroke	o	n/a
426.8625	0.0745	853725	keystroke	Key.space	n/a
427.0875	0.0595	854175	keystroke	o	n/a
427.163	0.044	854326	keystroke	r	n/a
427.3275	0.0895	854655	keystroke	g	n/a
427.447	0.075	854894	keystroke	a	n/a
427.5525	0.06	855105	keystroke	n	n/a
427.7475	0.0445	855495	keystroke	i	n/a
427.823	0.074	855646	keystroke	z	n/a
428.0025	0.105	856005	keystroke	a	n/a
428.1225	0.12	856245	keystroke	t	n/a
428.1675	0.06	856335	keystroke	i	n/a
428.3775	0.09	856755	keystroke	o	n/a
428.6475	0.075	857295	keystroke	n	n/a
428.8415	0.076	857683	keystroke	a	n/a
428.9325	0.0755	857865	keystroke	l	n/a
429.0825	0.1345	858165	keystroke	Key.enter	n/a
429.2225	7.8565	858445	prompt	n/a	scottish hopkins encyclopedia foundations\n
429.8925	0.074	859785	keystroke	s	n/a
430.012	0.0905	860024	keystroke	c	n/a
430.1175	0.075	860235	keystroke	o	n/a
430.372	0.075	860744	keystroke	t	n/a
430.522	0.0905	861044	keystroke	t	n/a
430.778	0.0145	861556	keystroke	i	n/a
430.838	0.1045	861676	keystroke	s	n/a
430.9875	0.06	861975	keystroke	h	n/a
431.1675	0.09	862335	keystroke	Key.space	n/a
431.3625	0.09	862725	keystroke	h	n/a
431.483	0.0595	862966	keystroke	o	n/a
431.7075	0.09	863415	keystroke	p	n/a
432.0825	0.06	864165	keystroke	k	n/a
432.2325	0.0595	864465	keystroke	i	n/a
432.3965	0.076	864793	keystroke	n	n/a
432.4865	0.106	864973	keystroke	s	n/a
432.6075	0.0595	865215	keystroke	Key.space	n/a
432.8175	0.0895	865635	keystroke	e	n/a
433.4025	0.0905	866805	keystroke	n	n/a
433.5215	0.106	867043	keystroke	c	n/a
433.837	0.09	867674	keystroke	y	n/a
434.1375	0.075	868275	keystroke	c	n/a
434.227	0.0905	868454	keystroke	l	n/a
434.4375	0.0745	868875	keystroke	o	n/a
434.617	0.105	869234	keystroke	p	n/a
434.737	0.0905	869474	keystroke	e	n/a
434.9025	0.0905	869805	keystroke	d	n/a
435.0225	0.075	870045	keystroke	i	n/a
435.1275	0.105	870255	keystroke	a	n/a
435.2925	0.09	870585	keystroke	Key.space	n/a
435.623	0.0745	871246	keystroke	f	n/a
435.6985	0.06	871397	keystroke	o	n/a
435.8775	0.0455	871755	keystroke	u	n/a
436.0275	0.09	872055	keystroke	n	n/a
436.102	0.135	872204	keystroke	d	n/a
436.208	0.179	872416	keystroke	a	n/a
436.372	0.0755	872744	keystroke	t	n/a
436.4625	0.0305	872925	keystroke	i	n/a
436.597	0.075	873194	keystroke	o	n/a
436.657	0.075	873314	keystroke	n	n/a
436.852	0.0905	873704	keystroke	s	n/a
436.9575	0.1195	873915	keystroke	Key.enter	n/a
437.0835	6.4305	874167	prompt	n/a	magnet confidence displays currently\n
437.6475	0.09	875295	keystroke	m	n/a
437.7525	0.135	875505	keystroke	a	n/a
437.858	0.0595	875716	keystroke	n	n/a
437.9775	0.0595	875955	keystroke	g	n/a
438.2015	0.061	876403	keystroke	Key.backspace	n/a
438.3375	0.089	876675	keystroke	Key.backspace	n/a
438.4425	0.074	876885	keystroke	g	n/a
438.608	0.089	877216	keystroke	n	n/a
438.7275	0.15	877455	keystroke	e	n/a
438.8475	0.09	877695	keystroke	t	n/a
438.9675	0.074	877935	keystroke	Key.space	n/a
439.2375	0.074	878475	keystroke	c	n/a
439.3425	0.06	878685	keystroke	o	n/a
439.5225	0.09	879045	keystroke	n	n/a
439.6125	0.09	879225	keystroke	f	n/a
439.7625	0.06	879525	keystroke	i	n/a
439.8375	0.12	879675	keystroke	d	n/a
439.9425	0.105	879885	keystroke	e	n/a
440.0625	0.075	880125	keystroke	n	n/a
440.1225	0.1195	880245	keystroke	c	n/a
440.213	0.105	880426	keystroke	e	n/a
440.332	0.06	880664	keystroke	Key.space	n/a
440.5575	0.105	881115	keystroke	d	n/a
440.857	0.06	881714	keystroke	i	n/a
440.962	0.105	881924	keystroke	s	n/a
441.0975	0.0595	882195	keystroke	p	n/a
441.262	0.0905	882524	keystroke	l	n/a
441.3675	0.0895	882735	keystroke	a	n/a
441.532	0.045	883064	keystroke	y	n/a
441.8465	0.091	883693	keystroke	s	n/a
442.087	0.0905	884174	keystroke	Key.space	n/a
442.2525	0.074	884505	keystroke	c	n/a
442.4175	0.0595	884835	keystroke	u	n/a
442.4915	0.061	884983	keystroke	r	n/a
442.6125	0.135	885225	keystroke	r	n/a
442.7025	0.135	885405	keystroke	e	n/a
442.7925	0.0745	885585	keystroke	n	n/a
442.9425	0.1045	885885	keystroke	t	n/a
443.152	0.075	886304	keystroke	l	n/a
443.242	0.0755	886484	keystroke	y	n/a
443.3925	0.1195	886785	keystroke	Key.enter	n/a
443.518	6.4315	887036	prompt	n/a	panasonic motherboard protein flow\n
444.2475	0.0605	888495	keystroke	p	n/a
444.3225	0.0745	888645	keystroke	a	n/a
444.487	0.075	888974	keystroke	n	n/a
444.6215	0.075	889243	keystroke	a	n/a
444.922	0.0755	889844	keystroke	s	n/a
445.0425	0.0595	890085	keystroke	o	n/a
445.2225	0.075	890445	keystroke	n	n/a
445.4175	0.059	890835	keystroke	i	n/a
445.5225	0.09	891045	keystroke	c	n/a
445.657	0.105	891314	keystroke	Key.space	n/a
445.9275	0.045	891855	keystroke	m	n/a
446.092	0.06	892184	keystroke	o	n/a
446.182	0.09	892364	keystroke	t	n/a
446.302	0.0605	892604	keystroke	h	n/a
446.3475	0.12	892695	keystroke	e	n/a
446.4075	0.0895	892815	keystroke	r	n/a
446.512	0.0755	893024	keystroke	Key.space	n/a
446.8415	0.075	893683	keystroke	Key.backspace	n/a
446.9475	0.0905	893895	keystroke	b	n/a
447.052	0.061	894104	keystroke	o	n/a
447.1425	0.1345	894285	keystroke	a	n/a
447.247	0.0755	894494	keystroke	r	n/a
447.4125	0.0895	894825	keystroke	d	n/a
447.517	0.0755	895034	keystroke	Key.space	n/a
447.773	0.0745	895546	keystroke	p	n/a
