onset	duration	sample	value	key	prompt_text
3.681	13.441	7362	prompt	n/a	the quick brown fox jumps over a lazy dog\n
5.1745	0.1035	10349	keystroke	t	n/a
5.323	0.164	10646	keystroke	h	n/a
5.562	0.1355	11124	keystroke	e	n/a
6.1625	0.135	12325	keystroke	Key.space	n/a
6.4625	0.135	12925	keystroke	q	n/a
6.6725	0.195	13345	keystroke	u	n/a
6.8525	0.12	13705	keystroke	i	n/a
7.1375	0.195	14275	keystroke	c	n/a
7.3175	0.105	14635	keystroke	k	n/a
7.7375	0.09	15475	keystroke	Key.space	n/a
8.428	0.059	16856	keystroke	b	n/a
8.563	0.164	17126	keystroke	r	n/a
9.012	0.105	18024	keystroke	o	n/a
9.252	0.135	18504	keystroke	w	n/a
9.447	0.1055	18894	keystroke	n	n/a
9.7615	0.105	19523	keystroke	Key.space	n/a
10.3025	0.15	20605	keystroke	f	n/a
10.8425	0.1195	21685	keystroke	o	n/a
11.382	0.1205	22764	keystroke	x	n/a
11.5625	0.1345	23125	keystroke	Key.space	n/a
11.7575	0.12	23515	keystroke	j	n/a
11.967	0.135	23934	keystroke	u	n/a
12.2675	0.06	24535	keystroke	m	n/a
12.477	0.1055	24954	keystroke	p	n/a
12.702	0.135	25404	keystroke	s	n/a
13.1375	0.12	26275	keystroke	Key.space	n/a
13.437	0.105	26874	keystroke	o	n/a
13.6915	0.12	27383	keystroke	v	n/a
13.8725	0.225	27745	keystroke	e	n/a
14.0375	0.15	28075	keystroke	r	n/a
14.1425	0.105	28285	keystroke	Key.space	n/a
14.3075	0.105	28615	keystroke	a	n/a
14.3975	0.12	28795	keystroke	Key.space	n/a
14.5775	0.105	29155	keystroke	l	n/a
14.7125	0.105	29425	keystroke	a	n/a
15.2825	0.1345	30565	keystroke	z	n/a
15.507	0.1205	31014	keystroke	y	n/a
15.7025	0.09	31405	keystroke	Key.space	n/a
16.0025	0.165	32005	keystroke	d	n/a
16.3925	0.135	32785	keystroke	o	n/a
16.7075	0.15	33415	keystroke	g	n/a
17.0525	0.06	34105	keystroke	Key.enter	n/a
17.128	8.544	34256	prompt	n/a	weak documentary globe excitement\n
18.0725	0.165	36145	keystroke	w	n/a
18.1925	0.15	36385	keystroke	e	n/a
18.4475	0.12	36895	keystroke	a	n/a
18.8375	0.1195	37675	keystroke	k	n/a
18.972	0.165	37944	keystroke	Key.space	n/a
19.257	0.15	38514	keystroke	d	n/a
19.408	0.119	38816	keystroke	o	n/a
19.902	0.15	39804	keystroke	c	n/a
20.082	0.105	40164	keystroke	u	n/a
20.337	0.12	40674	keystroke	m	n/a
20.427	0.2245	40854	keystroke	e	n/a
20.6065	0.12	41213	keystroke	n	n/a
20.7565	0.135	41513	keystroke	t	n/a
20.9525	0.149	41905	keystroke	a	n/a
21.1165	0.12	42233	keystroke	r	n/a
21.4925	0.1045	42985	keystroke	y	n/a
21.747	0.09	43494	keystroke	Key.space	n/a
22.017	0.12	44034	keystroke	g	n/a
22.152	0.105	44304	keystroke	l	n/a
22.347	0.12	44694	keystroke	o	n/a
22.587	0.09	45174	keystroke	b	n/a
22.827	0.135	45654	keystroke	e	n/a
22.977	0.09	45954	keystroke	Key.space	n/a
23.157	0.12	46314	keystroke	e	n/a
23.4425	0.1195	46885	keystroke	x	n/a
23.6225	0.18	47245	keystroke	c	n/a
23.8625	0.1195	47725	keystroke	i	n/a
24.087	0.1655	48174	keystroke	t	n/a
24.2225	0.1495	48445	keystroke	e	n/a
24.462	0.09	48924	keystroke	m	n/a
24.537	0.225	49074	keystroke	e	n/a
24.657	0.12	49314	keystroke	n	n/a
24.792	0.135	49584	keystroke	t	n/a
25.5725	0.09	51145	keystroke	Key.enter	n/a
25.6775	10.4865	51355	prompt	n/a	creativity deposits hamburg celebrity\n
26.6515	0.121	53303	keystroke	c	n/a
26.8915	0.1355	53783	keystroke	r	n/a
26.9665	0.1505	53933	keystroke	e	n/a
27.147	0.15	54294	keystroke	a	n/a
27.312	0.12	54624	keystroke	t	n/a
27.747	0.06	55494	keystroke	i	n/a
27.972	0.15	55944	keystroke	v	n/a
28.1365	0.1055	56273	keystroke	i	n/a
28.287	0.15	56574	keystroke	t	n/a
28.467	0.105	56934	keystroke	y	n/a
28.602	0.15	57204	keystroke	Key.space	n/a
28.932	0.105	57864	keystroke	d	n/a
29.112	0.12	58224	keystroke	e	n/a
29.217	0.06	58434	keystroke	p	n/a
29.367	0.105	58734	keystroke	o	n/a
29.892	0.135	59784	keystroke	s	n/a
30.042	0.09	60084	keystroke	i	n/a
30.192	0.12	60384	keystroke	t	n/a
30.492	0.1495	60984	keystroke	s	n/a
30.9265	0.105	61853	keystroke	Key.space	n/a
31.1965	0.12	62393	keystroke	h	n/a
31.3175	0.134	62635	keystroke	a	n/a
31.4815	0.1355	62963	keystroke	m	n/a
31.8265	0.015	63653	keystroke	b	n/a
32.382	0.09	64764	keystroke	u	n/a
32.712	0.12	65424	keystroke	r	n/a
32.967	0.12	65934	keystroke	g	n/a
33.4775	0.03	66955	keystroke	Key.space	n/a
33.7775	0.104	67555	keystroke	c	n/a
34.0165	0.12	68033	keystroke	e	n/a
34.122	0.12	68244	keystroke	l	n/a
34.2565	0.1355	68513	keystroke	e	n/a
34.8265	0.075	69653	keystroke	b	n/a
35.082	0.1045	70164	keystroke	r	n/a
35.2175	0.105	70435	keystroke	i	n/a
35.3525	0.18	70705	keystroke	t	n/a
35.4875	0.12	70975	keystroke	y	n/a
36.0725	0.09	72145	keystroke	Key.enter	n/a
36.167	8.9005	72334	prompt	n/a	discusses muscles forming joining\n
37.1375	0.15	74275	keystroke	d	n/a
37.3025	0.104	74605	keystroke	i	n/a
37.4215	0.15	74843	keystroke	s	n/a
37.6915	0.135	75383	keystroke	c	n/a
37.8115	0.105	75623	keystroke	u	n/a
37.9775	0.09	75955	keystroke	s	n/a
38.1575	0.195	76315	keystroke	s	n/a
38.2925	0.135	76585	keystroke	e	n/a
38.4875	0.1795	76975	keystroke	s	n/a
38.817	0.0905	77634	keystroke	Key.space	n/a
39.087	0.1055	78174	keystroke	m	n/a
39.3125	0.12	78625	keystroke	u	n/a
39.4925	0.15	78985	keystroke	s	n/a
39.7625	0.135	79525	keystroke	c	n/a
39.9425	0.12	79885	keystroke	l	n/a
40.1075	0.135	80215	keystroke	e	n/a
40.3475	0.15	80695	keystroke	s	n/a
40.4975	0.09	80995	keystroke	Key.space	n/a
40.662	0.135	81324	keystroke	f	n/a
40.812	0.105	81624	keystroke	o	n/a
41.127	0.12	82254	keystroke	r	n/a
41.3525	0.165	82705	keystroke	m	n/a
41.5025	0.209	83005	keystroke	i	n/a
41.6525	0.119	83305	keystroke	n	n/a
41.8615	0.121	83723	keystroke	g	n/a
42.2375	0.12	84475	keystroke	Key.space	n/a
42.492	0.135	84984	keystroke	j	n/a
42.687	0.225	85374	keystroke	o	n/a
42.867	0.12	85734	keystroke	u	n/a
43.437	0.105	86874	keystroke	Key.backspace	n/a
43.707	0.165	87414	keystroke	i	n/a
43.857	0.18	87714	keystroke	n	n/a
44.007	0.1495	88014	keystroke	i	n/a
44.142	0.1345	88284	keystroke	n	n/a
44.2915	0.165	88583	keystroke	g	n/a
44.9665	0.09	89933	keystroke	Key.enter	n/a
45.0725	5.851	90145	prompt	n/a	delegation mambo aurora boys\n
45.7025	0.12	91405	keystroke	d	n/a
45.8975	0.135	91795	keystroke	e	n/a
46.0025	0.12	92005	keystroke	l	n/a
46.1375	0.135	92275	keystroke	e	n/a
46.3775	0.195	92755	keystroke	g	n/a
46.5575	0.165	93115	keystroke	a	n/a
46.7225	0.165	93445	keystroke	t	n/a
46.8425	0.3	93685	keystroke	i	n/a
46.9325	0.195	93865	keystroke	o	n/a
47.0825	0.135	94165	keystroke	n	n/a
47.2625	0.165	94525	keystroke	Key.space	n/a
47.4575	0.135	94915	keystroke	m	n/a
47.5775	0.12	95155	keystroke	a	n/a
47.9225	0.12	95845	keystroke	m	n/a
48.2225	0.12	96445	keystroke	b	n/a
48.4025	0.18	96805	keystroke	o	n/a
48.5525	0.15	97105	keystroke	Key.space	n/a
48.7775	0.1195	97555	keystroke	a	n/a
48.912	0.105	97824	keystroke	u	n/a
49.077	0.1505	98154	keystroke	r	n/a
49.1975	0.12	98395	keystroke	o	n/a
49.4375	0.135	98875	keystroke	r	n/a
49.6625	0.135	99325	keystroke	a	n/a
49.8125	0.135	99625	keystroke	Key.space	n/a
50.0675	0.134	100135	keystroke	b	n/a
50.1565	0.135	100313	keystroke	o	n/a
50.3965	0.105	100793	keystroke	y	n/a
50.6365	0.151	101273	keystroke	s	n/a
50.8465	0.075	101693	keystroke	Key.enter	n/a
50.9265	8.3475	101853	prompt	n/a	experimental entrepreneurs rounds image\n
51.6115	0.105	103223	keystroke	e	n/a
51.8365	0.18	103673	keystroke	x	n/a
51.9715	0.135	103943	keystroke	p	n/a
52.1515	0.21	104303	keystroke	e	n/a
52.2865	0.15	104573	keystroke	r	n/a
52.4515	0.09	104903	keystroke	i	n/a
52.752	0.105	105504	keystroke	m	n/a
52.902	0.1955	105804	keystroke	e	n/a
53.0075	0.09	106015	keystroke	n	n/a
53.0985	0.134	106197	keystroke	t	n/a
53.3375	0.165	106675	keystroke	a	n/a
53.487	0.1805	106974	keystroke	l	n/a
53.6215	0.136	107243	keystroke	Key.space	n/a
53.8915	0.151	107783	keystroke	e	n/a
54.0575	0.12	108115	keystroke	n	n/a
54.1925	0.09	108385	keystroke	t	n/a
54.3875	0.135	108775	keystroke	r	n/a
54.5365	0.151	109073	keystroke	e	n/a
54.7775	0.12	109555	keystroke	p	n/a
54.9125	0.165	109825	keystroke	r	n/a
55.0325	0.18	110065	keystroke	e	n/a
55.4375	0.105	110875	keystroke	n	n/a
55.6015	0.12	111203	keystroke	e	n/a
55.8715	0.12	111743	keystroke	u	n/a
56.1265	0.12	112253	keystroke	r	n/a
56.4115	0.135	112823	keystroke	s	n/a
56.6215	0.12	113243	keystroke	Key.space	n/a
56.8615	0.121	113723	keystroke	r	n/a
56.9975	0.134	113995	keystroke	o	n/a
57.0715	0.105	114143	keystroke	u	n/a
57.3115	0.12	114623	keystroke	n	n/a
57.4465	0.135	114893	keystroke	d	n/a
57.7315	0.151	115463	keystroke	s	n/a
57.9865	0.12	115973	keystroke	Key.space	n/a
58.2265	0.09	116453	keystroke	i	n/a
58.4215	0.12	116843	keystroke	m	n/a
58.5575	0.134	117115	keystroke	a	n/a
58.7215	0.21	117443	keystroke	g	n/a
58.8715	0.165	117743	keystroke	e	n/a
59.1715	0.091	118343	keystroke	Key.enter	n/a
59.28	10.477	118560	prompt	n/a	consolidated queensland supplies wiley\n
60.2375	0.165	120475	keystroke	c	n/a
60.3275	0.12	120655	keystroke	o	n/a
60.4925	0.12	120985	keystroke	n	n/a
60.6725	0.1345	121345	keystroke	s	n/a
60.777	0.09	121554	keystroke	o	n/a
60.987	0.165	121974	keystroke	l	n/a
61.062	0.12	122124	keystroke	i	n/a
61.302	0.15	122604	keystroke	d	n/a
61.497	0.135	122994	keystroke	a	n/a
61.617	0.165	123234	keystroke	t	n/a
61.737	0.135	123474	keystroke	e	n/a
61.962	0.165	123924	keystroke	d	n/a
62.097	0.09	124194	keystroke	Key.space	n/a
62.397	0.12	124794	keystroke	q	n/a
62.592	0.12	125184	keystroke	u	n/a
62.832	0.09	125664	keystroke	i	n/a
63.7915	0.06	127583	keystroke	Key.backspace	n/a
64.0315	0.09	128063	keystroke	e	n/a
64.2115	0.12	128423	keystroke	e	n/a
64.5115	0.09	129023	keystroke	n	n/a
64.7665	0.135	129533	keystroke	s	n/a
65.3815	0.105	130763	keystroke	l	n/a
65.5915	0.12	131183	keystroke	a	n/a
65.7265	0.105	131453	keystroke	n	n/a
66.1465	0.165	132293	keystroke	d	n/a
66.4015	0.105	132803	keystroke	Key.space	n/a
66.717	0.1655	133434	keystroke	s	n/a
66.8515	0.1055	133703	keystroke	u	n/a
67.0765	0.1355	134153	keystroke	p	n/a
67.2715	0.1505	134543	keystroke	p	n/a
67.557	0.18	135114	keystroke	l	n/a
67.677	0.12	135354	keystroke	i	n/a
67.827	0.135	135654	keystroke	e	n/a
68.052	0.15	136104	keystroke	s	n/a
68.262	0.12	136524	keystroke	Key.space	n/a
68.517	0.135	137034	keystroke	w	n/a
68.622	0.105	137244	keystroke	i	n/a
68.997	0.12	137994	keystroke	l	n/a
69.147	0.165	138294	keystroke	e	n/a
69.357	0.12	138714	keystroke	y	n/a
69.657	0.09	139314	keystroke	Key.enter	n/a
69.764	7.8975	139528	prompt	n/a	wind genre graduate friends\n
70.527	0.03	141054	keystroke	s	n/a
70.947	0.075	141894	keystroke	Key.backspace	n/a
71.052	0.15	142104	keystroke	w	n/a
71.247	0.105	142494	keystroke	i	n/a
71.442	0.105	142884	keystroke	n	n/a
71.577	0.165	143154	keystroke	d	n/a
71.727	0.12	143454	keystroke	Key.space	n/a
72.102	0.075	144204	keystroke	g	n/a
72.267	0.15	144534	keystroke	e	n/a
72.387	0.12	144774	keystroke	n	n/a
72.537	0.195	145074	keystroke	r	n/a
72.657	0.165	145314	keystroke	e	n/a
72.942	0.09	145884	keystroke	Key.space	n/a
73.587	0.135	147174	keystroke	g	n/a
73.827	0.24	147654	keystroke	r	n/a
74.022	0.12	148044	keystroke	a	n/a
74.277	0.165	148554	keystroke	d	n/a
74.412	0.105	148824	keystroke	u	n/a
74.532	0.165	149064	keystroke	a	n/a
74.682	0.195	149364	keystroke	t	n/a
74.802	0.165	149604	keystroke	e	n/a
74.997	0.12	149994	keystroke	Key.space	n/a
75.297	0.0445	150594	keystroke	f	n/a
75.687	0.075	151374	keystroke	r	n/a
76.107	0.105	152214	keystroke	i	n/a
76.227	0.12	152454	keystroke	e	n/a
76.392	0.12	152784	keystroke	n	n/a
76.587	0.135	153174	keystroke	d	n/a
76.857	0.15	153714	keystroke	s	n/a
77.591	0.061	155182	keystroke	Key.enter	n/a
77.6675	5.6705	155335	prompt	n/a	swing found greene marked\n
78.387	0.149	156774	keystroke	s	n/a
78.597	0.06	157194	keystroke	e	n/a
79.001	0.09	158002	keystroke	Key.backspace	n/a
79.136	0.15	158272	keystroke	w	n/a
79.4215	0.09	158843	keystroke	i	n/a
79.6015	0.15	159203	keystroke	n	n/a
79.7365	0.15	159473	keystroke	g	n/a
79.9015	0.12	159803	keystroke	Key.space	n/a
80.0815	0.165	160163	keystroke	f	n/a
80.2015	0.195	160403	keystroke	o	n/a
80.3365	0.105	160673	keystroke	u	n/a
80.576	0.12	161152	keystroke	n	n/a
80.711	0.165	161422	keystroke	d	n/a
80.861	0.105	161722	keystroke	Key.space	n/a
81.087	0.089	162174	keystroke	g	n/a
81.296	0.1355	162592	keystroke	r	n/a
81.3865	0.12	162773	keystroke	e	n/a
81.582	0.135	163164	keystroke	e	n/a
81.702	0.12	163404	keystroke	n	n/a
81.837	0.135	163674	keystroke	e	n/a
81.987	0.105	163974	keystroke	Key.space	n/a
82.212	0.12	164424	keystroke	m	n/a
82.332	0.18	164664	keystroke	a	n/a
82.497	0.09	164994	keystroke	r	n/a
82.647	0.09	165294	keystroke	k	n/a
82.752	0.12	165504	keystroke	e	n/a
82.977	0.15	165954	keystroke	d	n/a
83.247	0.09	166494	keystroke	Key.enter	n/a
83.3415	7.5955	166683	prompt	n/a	stamps bulgarian olympic stroke\n
84.102	0.135	168204	keystroke	s	n/a
84.297	0.15	168594	keystroke	t	n/a
84.431	0.165	168862	keystroke	a	n/a
84.581	0.181	169162	keystroke	m	n/a
84.746	0.151	169492	keystroke	p	n/a
84.927	0.164	169854	keystroke	s	n/a
85.076	0.136	170152	keystroke	Key.space	n/a
85.362	0.135	170724	keystroke	b	n/a
85.512	0.09	171024	keystroke	u	n/a
85.7215	0.12	171443	keystroke	l	n/a
85.8715	0.12	171743	keystroke	g	n/a
86.0665	0.18	172133	keystroke	a	n/a
86.2315	0.15	172463	keystroke	r	n/a
86.3665	0.105	172733	keystroke	i	n/a
86.4865	0.165	172973	keystroke	a	n/a
86.8615	0.105	173723	keystroke	n	n/a
87.0715	0.105	174143	keystroke	Key.space	n/a
87.3415	0.1355	174683	keystroke	o	n/a
87.597	0.135	175194	keystroke	l	n/a
87.852	0.075	175704	keystroke	y	n/a
88.107	0.09	176214	keystroke	m	n/a
88.392	0.105	176784	keystroke	p	n/a
88.602	0.135	177204	keystroke	i	n/a
88.827	0.15	177654	keystroke	c	n/a
89.037	0.105	178074	keystroke	Key.space	n/a
89.352	0.21	178704	keystroke	s	n/a
89.547	0.105	179094	keystroke	t	n/a
89.787	0.119	179574	keystroke	r	n/a
89.862	0.135	179724	keystroke	o	n/a
90.102	0.15	180204	keystroke	k	n/a
90.266	0.151	180532	keystroke	e	n/a
90.807	0.119	181614	keystroke	Key.enter	n/a
90.942	7.869	181884	prompt	n/a	member wordpress pool territories\n
91.6765	0.105	183353	keystroke	m	n/a
91.7965	0.15	183593	keystroke	e	n/a
91.9165	0.12	183833	keystroke	m	n/a
92.0965	0.09	184193	keystroke	b	n/a
92.2915	0.195	184583	keystroke	e	n/a
92.4115	0.15	184823	keystroke	r	n/a
92.5765	0.12	185153	keystroke	Key.space	n/a
92.7415	0.18	185483	keystroke	w	n/a
92.8615	0.12	185723	keystroke	o	n/a
92.9825	0.164	185965	keystroke	r	n/a
93.521	0.12	187042	keystroke	d	n/a
93.851	0.12	187702	keystroke	p	n/a
94.031	0.165	188062	keystroke	r	n/a
94.136	0.135	188272	keystroke	e	n/a
94.406	0.105	188812	keystroke	s	n/a
94.601	0.1355	189202	keystroke	s	n/a
94.676	0.1205	189352	keystroke	Key.space	n/a
94.8415	0.12	189683	keystroke	p	n/a
95.0365	0.09	190073	keystroke	o	n/a
95.2015	0.15	190403	keystroke	o	n/a
95.5165	0.15	191033	keystroke	l	n/a
95.7415	0.135	191483	keystroke	Key.space	n/a
96.1165	0.105	192233	keystroke	t	n/a
96.3115	0.165	192623	keystroke	e	n/a
96.4615	0.105	192923	keystroke	r	n/a
96.6565	0.105	193313	keystroke	r	n/a
96.9415	0.105	193883	keystroke	i	n/a
97.3765	0.12	194753	keystroke	t	n/a
97.5265	0.135	195053	keystroke	o	n/a
97.6765	0.135	195353	keystroke	r	n/a
97.9465	0.09	195893	keystroke	i	n/a
98.1265	0.135	196253	keystroke	e	n/a
98.3665	0.165	196733	keystroke	s	n/a
98.6965	0.105	197393	keystroke	Key.enter	n/a
98.8155	8.2305	197631	prompt	n/a	photos frederick prediction phrases\n
99.3715	0.135	198743	keystroke	p	n/a
99.5965	0.18	199193	keystroke	h	n/a
99.7165	0.15	199433	keystroke	o	n/a
99.9265	0.18	199853	keystroke	t	n/a
100.0465	0.135	200093	keystroke	o	n/a
100.2265	0.18	200453	keystroke	s	n/a
100.4215	0.12	200843	keystroke	Key.space	n/a
100.7665	0.12	201533	keystroke	f	n/a
101.1565	0.18	202313	keystroke	r	n/a
101.3065	0.165	202613	keystroke	e	n/a
101.5915	0.105	203183	keystroke	d	n/a
101.8015	0.21	203603	keystroke	e	n/a
101.9215	0.165	203843	keystroke	r	n/a
102.1015	0.12	204203	keystroke	i	n/a
102.4015	0.165	204803	keystroke	c	n/a
102.6865	0.165	205373	keystroke	k	n/a
102.8365	0.15	205673	keystroke	Key.space	n/a
103.2265	0.105	206453	keystroke	p	n/a
103.3765	0.15	206753	keystroke	r	n/a
103.4665	0.15	206933	keystroke	e	n/a
103.7365	0.15	207473	keystroke	d	n/a
103.8565	0.09	207713	keystroke	i	n/a
104.0515	0.135	208103	keystroke	c	n/a
104.2765	0.15	208553	keystroke	t	n/a
104.3665	0.3	208733	keystroke	i	n/a
104.4565	0.195	208913	keystroke	o	n/a
104.5915	0.135	209183	keystroke	n	n/a
104.7715	0.15	209543	keystroke	Key.space	n/a
104.9515	0.135	209903	keystroke	p	n/a
105.1165	0.105	210233	keystroke	h	n/a
105.3715	0.21	210743	keystroke	r	n/a
105.5515	0.105	211103	keystroke	a	n/a
105.7615	0.195	211523	keystroke	s	n/a
105.9265	0.135	211853	keystroke	e	n/a
106.1215	0.1655	212243	keystroke	s	n/a
106.932	0.105	213864	keystroke	Key.enter	n/a
107.051	8.8015	214102	prompt	n/a	upon offshore shots photographs\n
107.6065	0.18	215213	keystroke	u	n/a
107.7565	0.15	215513	keystroke	p	n/a
107.9665	0.15	215933	keystroke	o	n/a
108.1765	0.12	216353	keystroke	n	n/a
108.3715	0.15	216743	keystroke	Key.space	n/a
108.7165	0.105	217433	keystroke	o	n/a
108.8665	0.09	217733	keystroke	f	n/a
109.0465	0.105	218093	keystroke	f	n/a
109.1965	0.18	218393	keystroke	s	n/a
109.3465	0.135	218693	keystroke	h	n/a
109.4965	0.12	218993	keystroke	o	n/a
109.6915	0.225	219383	keystroke	r	n/a
109.8265	0.18	219653	keystroke	e	n/a
110.2615	0.105	220523	keystroke	Key.space	n/a
110.5015	0.18	221003	keystroke	s	n/a
110.6665	0.165	221333	keystroke	h	n/a
110.7715	0.15	221543	keystroke	o	n/a
111.1165	0.135	222233	keystroke	t	n/a
111.3565	0.165	222713	keystroke	s	n/a
111.4765	0.135	222953	keystroke	Key.space	n/a
111.7465	0.1345	223493	keystroke	p	n/a
112.256	0.135	224512	keystroke	h	n/a
112.511	0.135	225022	keystroke	o	n/a
112.721	0.135	225442	keystroke	t	n/a
112.902	0.1345	225804	keystroke	o	n/a
113.562	0.105	227124	keystroke	g	n/a
113.757	0.21	227514	keystroke	r	n/a
113.922	0.164	227844	keystroke	a	n/a
114.7015	0.075	229403	keystroke	p	n/a
114.8065	0.12	229613	keystroke	h	n/a
115.2115	0.18	230423	keystroke	s	n/a
115.7365	0.105	231473	keystroke	Key.enter	n/a
115.8575	6.5255	231715	prompt	n/a	andy continued decide seeds\n
116.501	0.18	233002	keystroke	a	n/a
116.666	0.12	233332	keystroke	n	n/a
116.801	0.1955	233602	keystroke	d	n/a
117.0415	0.15	234083	keystroke	y	n/a
117.2065	0.1345	234413	keystroke	Key.space	n/a
117.5215	0.195	235043	keystroke	c	n/a
117.6115	0.12	235223	keystroke	o	n/a
117.7765	0.12	235553	keystroke	n	n/a
118.5715	0.135	237143	keystroke	t	n/a
118.7215	0.105	237443	keystroke	i	n/a
119.0065	0.12	238013	keystroke	n	n/a
119.2615	0.12	238523	keystroke	u	n/a
119.3665	0.12	238733	keystroke	e	n/a
119.6065	0.1645	239213	keystroke	d	n/a
119.711	0.105	239422	keystroke	Key.space	n/a
119.922	0.105	239844	keystroke	d	n/a
120.101	0.105	240202	keystroke	e	n/a
120.342	0.134	240684	keystroke	c	n/a
120.491	0.091	240982	keystroke	i	n/a
120.656	0.121	241312	keystroke	d	n/a
120.881	0.121	241762	keystroke	e	n/a
121.046	0.135	242092	keystroke	Key.space	n/a
121.211	0.1655	242422	keystroke	s	n/a
121.3615	0.105	242723	keystroke	e	n/a
121.5415	0.12	243083	keystroke	e	n/a
121.7665	0.195	243533	keystroke	d	n/a
121.9465	0.15	243893	keystroke	s	n/a
122.2765	0.105	244553	keystroke	Key.enter	n/a
122.386	13.6705	244772	prompt	n/a	relations how's hospitality voluntary\n
123.1165	0.135	246233	keystroke	r	n/a
123.1765	0.135	246353	keystroke	e	n/a
123.4015	0.135	246803	keystroke	l	n/a
123.5515	0.135	247103	keystroke	a	n/a
123.7015	0.165	247403	keystroke	t	n/a
123.8215	0.3145	247643	keystroke	i	n/a
123.9565	0.1805	247913	keystroke	o	n/a
124.0915	0.1345	248183	keystroke	n	n/a
124.271	0.18	248542	keystroke	s	n/a
124.421	0.12	248842	keystroke	Key.space	n/a
124.706	0.12	249412	keystroke	n	n/a
125.156	0.09	250312	keystroke	Key.backspace	n/a
125.4265	0.15	250853	keystroke	h	n/a
125.5165	0.21	251033	keystroke	o	n/a
125.6815	0.105	251363	keystroke	u	n/a
126.266	0.12	252532	keystroke	Key.backspace	n/a
126.401	0.121	252802	keystroke	w	n/a
126.7765	0.09	253553	keystroke	'	n/a
126.9715	0.18	253943	keystroke	s	n/a
127.4065	0.105	254813	keystroke	Key.space	n/a
127.6465	0.135	255293	keystroke	h	n/a
127.7965	0.1495	255593	keystroke	o	n/a
128.111	0.165	256222	keystroke	s	n/a
128.306	0.105	256612	keystroke	p	n/a
128.501	0.06	257002	keystroke	i	n/a
129.191	0.135	258382	keystroke	t	n/a
129.431	0.15	258862	keystroke	a	n/a
129.896	0.135	259792	keystroke	t	n/a
130.181	0.1505	260362	keystroke	l	n/a
130.256	0.1205	260512	keystroke	i	n/a
130.4215	0.135	260843	keystroke	t	n/a
130.5865	0.0895	261173	keystroke	y	n/a
131.036	0.045	262072	keystroke	Key.backspace	n/a
131.171	0.105	262342	keystroke	Key.backspace	n/a
131.336	0.12	262672	keystroke	Key.backspace	n/a
131.6215	0.105	263243	keystroke	Key.backspace	n/a
132.5215	0.06	265043	keystroke	Key.backspace	n/a
132.9115	0.135	265823	keystroke	l	n/a
133.0015	0.105	266003	keystroke	i	n/a
133.1815	0.165	266363	keystroke	t	n/a
133.3165	0.105	266633	keystroke	y	n/a
133.7965	0.09	267593	keystroke	Key.space	n/a
134.0515	0.165	268103	keystroke	v	n/a
134.1415	0.12	268283	keystroke	o	n/a
134.5465	0.12	269093	keystroke	l	n/a
134.741	0.12	269482	keystroke	u	n/a
134.981	0.12	269962	keystroke	n	n/a
135.086	0.225	270172	keystroke	t	n/a
135.266	0.1805	270532	keystroke	a	n/a
135.4615	0.18	270923	keystroke	r	n/a
135.6115	0.12	271223	keystroke	y	n/a
135.9715	0.074	271943	keystroke	Key.enter	n/a
136.0615	6.4515	272123	prompt	n/a	tube awful lounge allan\n
136.8415	0.135	273683	keystroke	t	n/a
136.9915	0.105	273983	keystroke	u	n/a
137.351	0.1055	274702	keystroke	b	n/a
137.591	0.135	275182	keystroke	e	n/a
137.6655	0.12	275331	keystroke	Key.space	n/a
138.2205	0.1505	276441	keystroke	a	n/a
138.5815	0.135	277163	keystroke	w	n/a
138.9715	0.18	277943	keystroke	f	n/a
139.1215	0.105	278243	keystroke	u	n/a
139.3615	0.12	278723	keystroke	l	n/a
139.9015	0.12	279803	keystroke	Key.space	n/a
140.306	0.1055	280612	keystroke	l	n/a
140.5465	0.195	281093	keystroke	o	n/a
140.6665	0.12	281333	keystroke	u	n/a
140.9365	0.12	281873	keystroke	n	n/a
141.1615	0.12	282323	keystroke	g	n/a
141.3415	0.1645	282683	keystroke	e	n/a
141.476	0.1205	282952	keystroke	Key.space	n/a
141.656	0.1355	283312	keystroke	a	n/a
141.776	0.09	283552	keystroke	l	n/a
141.956	0.1055	283912	keystroke	l	n/a
142.001	0.135	284002	keystroke	a	n/a
142.1815	0.1345	284363	keystroke	n	n/a
142.436	0.075	284872	keystroke	Key.enter	n/a
142.516	6.9115	285032	prompt	n/a	citizen predicted grip crew\n
143.216	0.1505	286432	keystroke	c	n/a
143.336	0.1055	286672	keystroke	i	n/a
143.5015	0.15	287003	keystroke	t	n/a
143.6065	0.09	287213	keystroke	i	n/a
143.8465	0.12	287693	keystroke	z	n/a
144.0865	0.12	288173	keystroke	e	n/a
144.2365	0.165	288473	keystroke	n	n/a
144.3565	0.165	288713	keystroke	Key.space	n/a
144.6415	0.09	289283	keystroke	p	n/a
144.7465	0.1495	289493	keystroke	r	n/a
144.8515	0.1195	289703	keystroke	e	n/a
145.091	0.135	290182	keystroke	d	n/a
145.241	0.09	290482	keystroke	i	n/a
145.4665	0.15	290933	keystroke	c	n/a
145.7215	0.12	291443	keystroke	t	n/a
145.9005	0.121	291801	keystroke	e	n/a
146.0965	0.15	292193	keystroke	d	n/a
146.3505	0.135	292701	keystroke	Key.space	n/a
146.9065	0.09	293813	keystroke	g	n/a
147.1015	0.12	294203	keystroke	r	n/a
147.2815	0.105	294563	keystroke	i	n/a
147.5065	0.105	295013	keystroke	p	n/a
147.7765	0.105	295553	keystroke	Key.space	n/a
148.0765	0.12	296153	keystroke	c	n/a
148.3015	0.15	296603	keystroke	r	n/a
148.3765	0.15	296753	keystroke	e	n/a
148.6015	0.15	297203	keystroke	w	n/a
149.3215	0.105	298643	keystroke	Key.enter	n/a
149.4305	6.4775	298861	prompt	n/a	reflect finger discover burn\n
150.0415	0.165	300083	keystroke	r	n/a
150.1615	0.09	300323	keystroke	e	n/a
150.5515	0.18	301103	keystroke	f	n/a
150.7015	0.15	301403	keystroke	l	n/a
150.8365	0.135	301673	keystroke	e	n/a
151.1215	0.149	302243	keystroke	c	n/a
151.406	0.135	302812	keystroke	t	n/a
151.586	0.12	303172	keystroke	Key.space	n/a
151.766	0.165	303532	keystroke	f	n/a
151.946	0.09	303892	keystroke	i	n/a
152.126	0.135	304252	keystroke	n	n/a
152.381	0.09	304762	keystroke	g	n/a
152.546	0.21	305092	keystroke	e	n/a
152.681	0.18	305362	keystroke	r	n/a
152.846	0.09	305692	keystroke	Key.space	n/a
153.221	0.135	306442	keystroke	d	n/a
153.371	0.075	306742	keystroke	i	n/a
153.491	0.12	306982	keystroke	s	n/a
153.806	0.15	307612	keystroke	c	n/a
153.971	0.12	307942	keystroke	o	n/a
154.181	0.12	308362	keystroke	v	n/a
154.376	0.18	308752	keystroke	e	n/a
154.481	0.165	308962	keystroke	r	n/a
154.616	0.135	309232	keystroke	Key.space	n/a
154.856	0.135	309712	keystroke	b	n/a
155.2165	0.105	310433	keystroke	u	n/a
155.396	0.12	310792	keystroke	r	n/a
155.546	0.105	311092	keystroke	n	n/a
155.801	0.105	311602	keystroke	Key.enter	n/a
155.913	6.1	311826	prompt	n/a	scottish winds named clear\n
156.5355	0.135	313071	keystroke	s	n/a
156.7915	0.18	313583	keystroke	c	n/a
156.9565	0.12	313913	keystroke	o	n/a
157.1365	0.075	314273	keystroke	t	n/a
157.3015	0.105	314603	keystroke	t	n/a
157.3765	0.105	314753	keystroke	i	n/a
157.5715	0.105	315143	keystroke	c	n/a
157.7965	0.165	315593	keystroke	s	n/a
157.9465	0.135	315893	keystroke	h	n/a
158.0665	0.135	316133	keystroke	Key.space	n/a
158.3815	0.15	316763	keystroke	w	n/a
158.5465	0.06	317093	keystroke	i	n/a
158.7265	0.09	317453	keystroke	n	n/a
158.8615	0.135	317723	keystroke	d	n/a
159.1165	0.15	318233	keystroke	s	n/a
159.2965	0.12	318593	keystroke	Key.space	n/a
159.4765	0.12	318953	keystroke	n	n/a
159.6415	0.135	319283	keystroke	a	n/a
159.7465	0.12	319493	keystroke	m	n/a
159.8965	0.105	319793	keystroke	e	n/a
160.1215	0.135	320243	keystroke	d	n/a
160.3165	0.135	320633	keystroke	Key.space	n/a
160.6155	0.151	321231	keystroke	c	n/a
160.7365	0.12	321473	keystroke	l	n/a
160.9015	0.15	321803	keystroke	e	n/a
161.0665	0.135	322133	keystroke	a	n/a
161.1565	0.15	322313	keystroke	r	n/a
161.9065	0.105	323813	keystroke	Key.enter	n/a
162.0205	8.5955	324041	prompt	n/a	receptors defendant argument schedule\n
163.046	0.105	326092	keystroke	r	n/a
163.106	0.135	326212	keystroke	e	n/a
163.361	0.12	326722	keystroke	c	n/a
163.601	0.12	327202	keystroke	e	n/a
163.751	0.12	327502	keystroke	p	n/a
163.872	0.119	327744	keystroke	t	n/a
164.126	0.12	328252	keystroke	o	n/a
164.276	0.12	328552	keystroke	r	n/a
164.651	0.1355	329302	keystroke	s	n/a
164.8305	0.121	329661	keystroke	Key.space	n/a
165.1615	0.105	330323	keystroke	d	n/a
165.356	0.12	330712	keystroke	e	n/a
165.521	0.18	331042	keystroke	f	n/a
165.641	0.105	331282	keystroke	e	n/a
165.836	0.1055	331672	keystroke	n	n/a
165.9715	0.12	331943	keystroke	d	n/a
166.2415	0.12	332483	keystroke	a	n/a
166.3765	0.09	332753	keystroke	n	n/a
166.571	0.135	333142	keystroke	t	n/a
166.721	0.09	333442	keystroke	Key.space	n/a
166.901	0.165	333802	keystroke	a	n/a
167.051	0.105	334102	keystroke	r	n/a
167.291	0.1205	334582	keystroke	g	n/a
167.4265	0.075	334853	keystroke	u	n/a
168.1005	0.136	336201	keystroke	m	n/a
168.3565	0.15	336713	keystroke	e	n/a
168.4465	0.12	336893	keystroke	n	n/a
168.6115	0.135	337223	keystroke	t	n/a
168.806	0.12	337612	keystroke	Key.space	n/a
168.971	0.135	337942	keystroke	s	n/a
169.226	0.135	338452	keystroke	c	n/a
169.346	0.09	338692	keystroke	h	n/a
169.481	0.105	338962	keystroke	e	n/a
169.706	0.15	339412	keystroke	d	n/a
169.811	0.105	339622	keystroke	u	n/a
170.021	0.135	340042	keystroke	l	n/a
170.171	0.105	340342	keystroke	e	n/a
170.5015	0.105	341003	keystroke	Key.enter	n/a
170.621	5.7615	341242	prompt	n/a	fathers sort bill roughly\n
171.536	0.15	343072	keystroke	f	n/a
171.731	0.15	343462	keystroke	a	n/a
171.896	0.15	343792	keystroke	t	n/a
172.046	0.09	344092	keystroke	h	n/a
172.136	0.195	344272	keystroke	e	n/a
172.271	0.135	344542	keystroke	r	n/a
172.481	0.165	344962	keystroke	s	n/a
172.616	0.12	345232	keystroke	Key.space	n/a
172.826	0.15	345652	keystroke	s	n/a
172.901	0.135	345802	keystroke	o	n/a
173.051	0.135	346102	keystroke	r	n/a
173.4555	0.15	346911	keystroke	t	n/a
173.5905	0.12	347181	keystroke	Key.space	n/a
173.8605	0.15	347721	keystroke	b	n/a
173.9655	0.105	347931	keystroke	i	n/a
174.251	0.105	348502	keystroke	l	n/a
174.461	0.15	348922	keystroke	l	n/a
174.551	0.165	349102	keystroke	Key.space	n/a
174.806	0.12	349612	keystroke	r	n/a
174.941	0.18	349882	keystroke	o	n/a
175.106	0.06	350212	keystroke	u	n/a
175.286	0.1355	350572	keystroke	g	n/a
175.4065	0.105	350813	keystroke	h	n/a
175.781	0.105	351562	keystroke	l	n/a
176.021	0.12	352042	keystroke	y	n/a
176.291	0.09	352582	keystroke	Key.enter	n/a
176.392	7.3035	352784	prompt	n/a	buzz exploring withdrawal state\n
177.1605	0.12	354321	keystroke	b	n/a
177.2955	0.1055	354591	keystroke	u	n/a
177.8805	0.1505	355761	keystroke	z	n/a
178.136	0.1495	356272	keystroke	z	n/a
178.3755	0.135	356751	keystroke	Key.space	n/a
178.7205	0.135	357441	keystroke	e	n/a
178.9905	0.18	357981	keystroke	x	n/a
179.1105	0.09	358221	keystroke	p	n/a
179.3205	0.1065	358641	keystroke	l	n/a
179.531	0.12	359062	keystroke	o	n/a
179.7105	0.12	359421	keystroke	r	n/a
179.8755	0.076	359751	keystroke	i	n/a
180.1005	0.09	360201	keystroke	n	n/a
180.2505	0.15	360501	keystroke	g	n/a
180.3855	0.12	360771	keystroke	Key.space	n/a
180.5655	0.12	361131	keystroke	w	n/a
180.6705	0.105	361341	keystroke	i	n/a
180.7905	0.151	361581	keystroke	t	n/a
180.9255	0.105	361851	keystroke	h	n/a
181.2555	0.1055	362511	keystroke	d	n/a
181.451	0.165	362902	keystroke	r	n/a
181.646	0.075	363292	keystroke	a	n/a
181.886	0.165	363772	keystroke	w	n/a
182.021	0.12	364042	keystroke	a	n/a
182.231	0.105	364462	keystroke	l	n/a
182.5455	0.105	365091	keystroke	Key.space	n/a
182.7405	0.195	365481	keystroke	s	n/a
182.8755	0.135	365751	keystroke	t	n/a
183.0255	0.1655	366051	keystroke	a	n/a
183.146	0.15	366292	keystroke	t	n/a
183.281	0.165	366562	keystroke	e	n/a
183.581	0.105	367162	keystroke	Key.enter	n/a
183.7	8.335	367400	prompt	n/a	producer julia uruguay optical\n
184.3605	0.105	368721	keystroke	p	n/a
184.4955	0.15	368991	keystroke	r	n/a
184.6305	0.105	369261	keystroke	o	n/a
184.8855	0.12	369771	keystroke	d	n/a
185.0205	0.09	370041	keystroke	u	n/a
185.2155	0.105	370431	keystroke	c	n/a
185.4405	0.195	370881	keystroke	e	n/a
185.5905	0.15	371181	keystroke	r	n/a
185.8305	0.135	371661	keystroke	Key.space	n/a
186.355	0.105	372710	keystroke	j	n/a
186.55	0.105	373100	keystroke	u	n/a
186.7605	0.21	373521	keystroke	l	n/a
186.8955	0.106	373791	keystroke	i	n/a
187.1205	0.1355	374241	keystroke	a	n/a
187.2105	0.15	374421	keystroke	Key.space	n/a
187.6455	0.12	375291	keystroke	u	n/a
188.036	0.12	376072	keystroke	r	n/a
188.291	0.12	376582	keystroke	u	n/a
188.516	0.15	377032	keystroke	g	n/a
189.026	0.12	378052	keystroke	a	n/a
189.5355	0.105	379071	keystroke	y	n/a
190.076	0.1055	380152	keystroke	Key.space	n/a
190.4205	0.1505	380841	keystroke	o	n/a
190.631	0.12	381262	keystroke	p	n/a
190.811	0.15	381622	keystroke	t	n/a
190.916	0.12	381832	keystroke	i	n/a
191.201	0.1495	382402	keystroke	c	n/a
191.3805	0.165	382761	keystroke	a	n/a
191.5005	0.1205	383001	keystroke	l	n/a
191.936	0.0895	383872	keystroke	Key.enter	n/a
192.04	8.7255	384080	prompt	n/a	take henry finds become\n
194.5025	0.103	389005	keystroke	t	n/a
194.5455	0.1655	389091	keystroke	a	n/a
194.6805	0.0905	389361	keystroke	k	n/a
194.816	0.15	389632	keystroke	e	n/a
194.951	0.12	389902	keystroke	Key.space	n/a
195.146	0.12	390292	keystroke	h	n/a
195.296	0.1495	390592	keystroke	e	n/a
195.4605	0.105	390921	keystroke	n	n/a
195.5955	0.135	391191	keystroke	t	n/a
195.8805	0.045	391761	keystroke	r	n/a
196.436	0.09	392872	keystroke	Key.backspace	n/a
196.601	0.12	393202	keystroke	Key.backspace	n/a
196.706	0.18	393412	keystroke	r	n/a
196.886	0.12	393772	keystroke	y	n/a
197.336	0.105	394672	keystroke	Key.space	n/a
197.561	0.165	395122	keystroke	f	n/a
197.636	0.105	395272	keystroke	i	n/a
197.801	0.134	395602	keystroke	n	n/a
197.92	0.1355	395840	keystroke	d	n/a
198.175	0.1505	396350	keystroke	s	n/a
198.941	0.015	397882	keystroke	Key.space	n/a
199.091	0.09	398182	keystroke	b	n/a
199.301	0.045	398602	keystroke	e	n/a
199.7205	0.165	399441	keystroke	c	n/a
199.9755	0.135	399951	keystroke	o	n/a
200.1705	0.15	400341	keystroke	m	n/a
200.2755	0.135	400551	keystroke	e	n/a
200.6355	0.12	401271	keystroke	Key.enter	n/a
200.77	9.82	401540	prompt	n/a	antarctica atlantic thumbs kiss\n
201.475	0.1205	402950	keystroke	a	n/a
201.6705	0.12	403341	keystroke	n	n/a
202.0305	0.15	404061	keystroke	t	n/a
202.241	0.1495	404482	keystroke	a	n/a
202.5255	0.15	405051	keystroke	r	n/a
203.3205	0.1645	406641	keystroke	t	n/a
204.04	0.03	408080	keystroke	Key.backspace	n/a
204.4155	0.12	408831	keystroke	c	n/a
204.6855	0.15	409371	keystroke	t	n/a
204.8805	0.09	409761	keystroke	i	n/a
205.1205	0.135	410241	keystroke	c	n/a
205.3305	0.1195	410661	keystroke	a	n/a
205.766	0.1195	411532	keystroke	Key.space	n/a
206.0805	0.15	412161	keystroke	a	n/a
206.2755	0.135	412551	keystroke	t	n/a
206.5305	0.12	413061	keystroke	l	n/a
206.6805	0.135	413361	keystroke	a	n/a
206.8455	0.1205	413691	keystroke	n	n/a
207.011	0.18	414022	keystroke	t	n/a
207.176	0.09	414352	keystroke	i	n/a
207.701	0.135	415402	keystroke	c	n/a
208.016	0.105	416032	keystroke	Key.space	n/a
208.226	0.12	416452	keystroke	t	n/a
208.376	0.135	416752	keystroke	h	n/a
208.736	0.12	417472	keystroke	u	n/a
209.006	0.135	418012	keystroke	m	n/a
209.201	0.135	418402	keystroke	b	n/a
209.411	0.165	418822	keystroke	s	n/a
209.531	0.12	419062	keystroke	Key.space	n/a
209.801	0.105	419602	keystroke	k	n/a
209.996	0.105	419992	keystroke	i	n/a
210.116	0.12	420232	keystroke	s	n/a
210.296	0.18	420592	keystroke	s	n/a
210.461	0.12	420922	keystroke	Key.enter	n/a
210.595	9.1605	421190	prompt	n/a	protocols preceding sacred boston\n
211.271	0.1045	422542	keystroke	p	n/a
211.4355	0.135	422871	keystroke	r	n/a
211.8105	0.12	423621	keystroke	o	n/a
212.1105	0.1495	424221	keystroke	t	n/a
212.23	0.12	424460	keystroke	o	n/a
212.4705	0.18	424941	keystroke	c	n/a
212.5905	0.12	425181	keystroke	o	n/a
212.8005	0.135	425601	keystroke	l	n/a
213.0255	0.15	426051	keystroke	s	n/a
213.25	0.1055	426500	keystroke	Key.space	n/a
213.5955	0.135	427191	keystroke	p	n/a
213.7155	0.1795	427431	keystroke	r	n/a
213.821	0.149	427642	keystroke	e	n/a
214.12	0.105	428240	keystroke	c	n/a
214.3455	0.105	428691	keystroke	e	n/a
214.5855	0.165	429171	keystroke	d	n/a
214.7055	0.09	429411	keystroke	i	n/a
214.9005	0.105	429801	keystroke	n	n/a
215.0505	0.15	430101	keystroke	g	n/a
215.38	0.12	430760	keystroke	Key.space	n/a
215.5905	0.165	431181	keystroke	s	n/a
215.8455	0.12	431691	keystroke	c	n/a
216.1005	0.18	432201	keystroke	r	n/a
216.2055	0.15	432411	keystroke	e	n/a
216.8355	0.09	433671	keystroke	Key.backspace	n/a
217.0155	0.09	434031	keystroke	Key.backspace	n/a
217.1805	0.09	434361	keystroke	Key.backspace	n/a
217.2555	0.135	434511	keystroke	a	n/a
217.5255	0.135	435051	keystroke	c	n/a
217.8105	0.195	435621	keystroke	r	n/a
217.9455	0.135	435891	keystroke	e	n/a
218.2155	0.135	436431	keystroke	d	n/a
218.4105	0.12	436821	keystroke	Key.space	n/a
218.6805	0.135	437361	keystroke	b	n/a
218.7705	0.135	437541	keystroke	o	n/a
218.9655	0.165	437931	keystroke	s	n/a
219.1155	0.135	438231	keystroke	t	n/a
219.2505	0.105	438501	keystroke	o	n/a
219.4155	0.12	438831	keystroke	n	n/a
219.6255	0.1205	439251	keystroke	Key.enter	n/a
219.76	8.86	439520	prompt	n/a	humor mrna congo expressions\n
220.406	0.105	440812	keystroke	h	n/a
220.616	0.105	441232	keystroke	u	n/a
220.8705	0.18	441741	keystroke	m	n/a
221.0205	0.1505	442041	keystroke	o	n/a
221.2305	0.165	442461	keystroke	r	n/a
221.366	0.1195	442732	keystroke	Key.space	n/a
222.311	0.105	444622	keystroke	m	n/a
222.506	0.1345	445012	keystroke	r	n/a
224.7175	0.068	449435	keystroke	n	n/a
224.8605	0.15	449721	keystroke	a	n/a
225.0405	0.12	450081	keystroke	Key.space	n/a
225.2805	0.15	450561	keystroke	c	n/a
225.3405	0.105	450681	keystroke	o	n/a
225.4905	0.135	450981	keystroke	n	n/a
225.6405	0.15	451281	keystroke	g	n/a
225.7755	0.12	451551	keystroke	o	n/a
226.2105	0.12	452421	keystroke	Key.space	n/a
226.4055	0.105	452811	keystroke	e	n/a
226.6605	0.135	453321	keystroke	x	n/a
226.7655	0.075	453531	keystroke	p	n/a
226.9305	0.135	453861	keystroke	r	n/a
227.0055	0.135	454011	keystroke	e	n/a
227.2305	0.1055	454461	keystroke	s	n/a
227.411	0.18	454822	keystroke	s	n/a
227.501	0.18	455002	keystroke	i	n/a
227.605	0.21	455210	keystroke	o	n/a
227.741	0.149	455482	keystroke	n	n/a
228.25	0.15	456500	keystroke	s	n/a
228.505	0.105	457010	keystroke	Key.enter	n/a
228.624	8.669	457248	prompt	n/a	praise micro victor exterior\n
229.3	0.135	458600	keystroke	p	n/a
229.48	0.195	458960	keystroke	r	n/a
229.645	0.15	459290	keystroke	a	n/a
229.84	0.12	459680	keystroke	i	n/a
230.065	0.24	460130	keystroke	s	n/a
230.245	0.18	460490	keystroke	e	n/a
230.41	0.12	460820	keystroke	Key.space	n/a
230.695	0.12	461390	keystroke	m	n/a
230.86	0.105	461720	keystroke	i	n/a
231.07	0.135	462140	keystroke	c	n/a
231.37	0.135	462740	keystroke	r	n/a
232.165	0.135	464330	keystroke	o	n/a
232.375	0.135	464750	keystroke	Key.space	n/a
232.645	0.15	465290	keystroke	v	n/a
232.765	0.105	465530	keystroke	i	n/a
233.17	0.15	466340	keystroke	c	n/a
233.455	0.165	466910	keystroke	t	n/a
233.605	0.135	467210	keystroke	o	n/a
233.995	0.12	467990	keystroke	Key.space	n/a
234.58	0.045	469160	keystroke	Key.backspace	n/a
234.685	0.135	469370	keystroke	r	n/a
234.835	0.135	469670	keystroke	Key.space	n/a
235.42	0.105	470840	keystroke	e	n/a
235.6755	0.105	471351	keystroke	x	n/a
235.9	0.1205	471800	keystroke	t	n/a
236.0805	0.165	472161	keystroke	e	n/a
236.2755	0.135	472551	keystroke	r	n/a
236.4405	0.135	472881	keystroke	i	n/a
236.6805	0.135	473361	keystroke	o	n/a
236.8305	0.1495	473661	keystroke	r	n/a
237.16	0.12	474320	keystroke	Key.enter	n/a
237.301	6.4305	474602	prompt	n/a	uniform incurred throw consensus\n
238.03	0.015	476060	keystroke	u	n/a
238.12	0.195	476240	keystroke	n	n/a
238.24	0.12	476480	keystroke	i	n/a
238.495	0.15	476990	keystroke	f	n/a
238.615	0.105	477230	keystroke	o	n/a
238.75	0.15	477500	keystroke	r	n/a
238.945	0.165	477890	keystroke	m	n/a
239.05	0.15	478100	keystroke	Key.space	n/a
239.275	0.105	478550	keystroke	i	n/a
239.455	0.09	478910	keystroke	n	n/a
239.635	0.15	479270	keystroke	c	n/a
239.77	0.09	479540	keystroke	u	n/a
239.935	0.09	479870	keystroke	r	n/a
240.1	0.195	480200	keystroke	r	n/a
240.19	0.15	480380	keystroke	e	n/a
240.43	0.18	480860	keystroke	d	n/a
240.535	0.135	481070	keystroke	Key.space	n/a
240.79	0.135	481580	keystroke	t	n/a
240.91	0.091	481820	keystroke	h	n/a
241.06	0.135	482120	keystroke	r	n/a
241.24	0.1055	482480	keystroke	o	n/a
241.5405	0.015	483081	keystroke	w	n/a
241.6755	0.12	483351	keystroke	Key.space	n/a
242.0055	0.18	484011	keystroke	c	n/a
242.1105	0.105	484221	keystroke	o	n/a
242.2755	0.135	484551	keystroke	n	n/a
242.4405	0.195	484881	keystroke	s	n/a
242.6055	0.105	485211	keystroke	e	n/a
242.785	0.12	485570	keystroke	n	n/a
242.9655	0.1795	485931	keystroke	s	n/a
243.205	0.09	486410	keystroke	u	n/a
243.4005	0.165	486801	keystroke	s	n/a
243.6255	0.105	487251	keystroke	Key.enter	n/a
243.7365	5.5	487473	prompt	n/a	sight consider spank agent\n
244.4205	0.105	488841	keystroke	s	n/a
244.4805	0.105	488961	keystroke	i	n/a
244.6005	0.15	489201	keystroke	g	n/a
244.7355	0.119	489471	keystroke	h	n/a
244.8705	0.135	489741	keystroke	t	n/a
245.14	0.1195	490280	keystroke	Key.space	n/a
245.3655	0.18	490731	keystroke	c	n/a
245.4705	0.12	490941	keystroke	o	n/a
245.6355	0.12	491271	keystroke	n	n/a
245.9355	0.18	491871	keystroke	s	n/a
246.1005	0.075	492201	keystroke	i	n/a
246.265	0.105	492530	keystroke	d	n/a
246.49	0.165	492980	keystroke	e	n/a
246.58	0.15	493160	keystroke	r	n/a
246.685	0.12	493370	keystroke	Key.space	n/a
246.88	0.165	493760	keystroke	s	n/a
247.03	0.1205	494060	keystroke	p	n/a
247.1955	0.15	494391	keystroke	a	n/a
247.3305	0.105	494661	keystroke	n	n/a
247.5555	0.075	495111	keystroke	k	n/a
247.7355	0.119	495471	keystroke	Key.space	n/a
248.0205	0.15	496041	keystroke	a	n/a
248.1705	0.18	496341	keystroke	g	n/a
248.3055	0.18	496611	keystroke	e	n/a
248.4555	0.12	496911	keystroke	n	n/a
248.6355	0.12	497271	keystroke	t	n/a
249.1605	0.075	498321	keystroke	Key.enter	n/a
249.2435	9.5865	498487	prompt	n/a	sources plugins fleet privilege\n
249.835	0.075	499670	keystroke	c	n/a
250.18	0.075	500360	keystroke	Key.backspace	n/a
250.27	0.165	500540	keystroke	s	n/a
250.45	0.18	500900	keystroke	o	n/a
250.585	0.09	501170	keystroke	u	n/a
250.81	0.105	501620	keystroke	r	n/a
251.08	0.09	502160	keystroke	c	n/a
251.29	0.1055	502580	keystroke	e	n/a
251.4705	0.15	502941	keystroke	s	n/a
251.5905	0.135	503181	keystroke	Key.space	n/a
251.8305	0.1495	503661	keystroke	p	n/a
251.9205	0.1195	503841	keystroke	u	n/a
252.3855	0.075	504771	keystroke	Key.backspace	n/a
252.6255	0.135	505251	keystroke	l	n/a
252.8345	0.09	505669	keystroke	u	n/a
253.27	0.12	506540	keystroke	g	n/a
253.405	0.105	506810	keystroke	i	n/a
253.57	0.12	507140	keystroke	n	n/a
253.765	0.15	507530	keystroke	s	n/a
253.99	0.12	507980	keystroke	Key.space	n/a
254.2755	0.135	508551	keystroke	f	n/a
254.9055	0.045	509811	keystroke	l	n/a
255.04	0.12	510080	keystroke	e	n/a
255.28	0.0895	510560	keystroke	e	n/a
255.5505	0.104	511101	keystroke	e	n/a
255.9555	0.09	511911	keystroke	Key.backspace	n/a
256.0305	0.12	512061	keystroke	t	n/a
256.45	0.1205	512900	keystroke	Key.space	n/a
256.795	0.0905	513590	keystroke	p	n/a
256.9305	0.1795	513861	keystroke	r	n/a
257.0505	0.105	514101	keystroke	i	n/a
257.32	0.105	514640	keystroke	v	n/a
257.426	0.089	514852	keystroke	i	n/a
258.04	0.105	516080	keystroke	l	n/a
258.13	0.105	516260	keystroke	e	n/a
258.34	0.165	516680	keystroke	g	n/a
258.46	0.135	516920	keystroke	e	n/a
258.715	0.105	517430	keystroke	Key.enter	n/a
258.835	8.0195	517670	prompt	n/a	joined soonest electoral engines\n
259.54	0.165	519080	keystroke	j	n/a
259.645	0.195	519290	keystroke	o	n/a
259.81	0.1345	519620	keystroke	i	n/a
260.0495	0.105	520099	keystroke	n	n/a
260.1695	0.135	520339	keystroke	e	n/a
260.5445	0.12	521089	keystroke	d	n/a
260.7995	0.12	521599	keystroke	Key.space	n/a
261.0545	0.165	522109	keystroke	s	n/a
261.2045	0.09	522409	keystroke	o	n/a
261.37	0.1205	522740	keystroke	o	n/a
261.5345	0.1205	523069	keystroke	n	n/a
261.67	0.135	523340	keystroke	e	n/a
261.91	0.15	523820	keystroke	s	n/a
262.135	0.12	524270	keystroke	t	n/a
262.5105	0.135	525021	keystroke	Key.space	n/a
262.6905	0.135	525381	keystroke	e	n/a
262.945	0.075	525890	keystroke	l	n/a
263.17	0.075	526340	keystroke	e	n/a
263.38	0.12	526760	keystroke	c	n/a
263.62	0.09	527240	keystroke	t	n/a
263.77	0.12	527540	keystroke	o	n/a
264.295	0.1205	528590	keystroke	r	n/a
264.505	0.135	529010	keystroke	a	n/a
264.625	0.09	529250	keystroke	l	n/a
265.3595	0.015	530719	keystroke	Key.space	n/a
265.3895	0.015	530779	keystroke	e	n/a
265.4195	0.06	530839	keystroke	n	n/a
265.915	0.135	531830	keystroke	g	n/a
266.065	0.06	532130	keystroke	i	n/a
266.245	0.105	532490	keystroke	n	n/a
266.395	0.105	532790	keystroke	e	n/a
266.59	0.18	533180	keystroke	s	n/a
266.725	0.12	533450	keystroke	Key.enter	n/a
266.8625	6.944	533725	prompt	n/a	refer casey languages newest\n
267.6855	0.195	535371	keystroke	r	n/a
267.8045	0.15	535609	keystroke	e	n/a
268.0295	0.1505	536059	keystroke	f	n/a
268.27	0.165	536540	keystroke	e	n/a
268.36	0.15	536720	keystroke	r	n/a
268.63	0.12	537260	keystroke	Key.space	n/a
268.9	0.12	537800	keystroke	c	n/a
269.095	0.135	538190	keystroke	a	n/a
269.245	0.2095	538490	keystroke	s	n/a
269.4245	0.12	538849	keystroke	e	n/a
269.6495	0.12	539299	keystroke	y	n/a
269.7995	0.135	539599	keystroke	Key.space	n/a
270.1445	0.105	540289	keystroke	l	n/a
270.2505	0.119	540501	keystroke	a	n/a
270.3845	0.105	540769	keystroke	n	n/a
270.6545	0.135	541309	keystroke	g	n/a
270.7905	0.089	541581	keystroke	u	n/a
270.9695	0.1355	541939	keystroke	a	n/a
271.345	0.15	542690	keystroke	g	n/a
271.48	0.135	542960	keystroke	e	n/a
271.72	0.1655	543440	keystroke	s	n/a
271.84	0.1345	543680	keystroke	Key.space	n/a
272.2745	0.12	544549	keystroke	n	n/a
272.3795	0.21	544759	keystroke	e	n/a
272.4845	0.18	544969	keystroke	w	n/a
273.145	0.015	546290	keystroke	e	n/a
273.175	0.135	546350	keystroke	s	n/a
273.4	0.105	546800	keystroke	t	n/a
273.7145	0.0905	547429	keystroke	Key.enter	n/a
273.8105	6.4915	547621	prompt	n/a	suppose nikon reach neon\n
274.375	0.21	548750	keystroke	s	n/a
274.48	0.12	548960	keystroke	u	n/a
274.66	0.105	549320	keystroke	p	n/a
274.84	0.1195	549680	keystroke	p	n/a
274.9895	0.135	549979	keystroke	o	n/a
275.0945	0.225	550189	keystroke	s	n/a
275.2595	0.135	550519	keystroke	e	n/a
275.4395	0.135	550879	keystroke	Key.space	n/a
275.9495	0.165	551899	keystroke	n	n/a
276.0995	0.09	552199	keystroke	i	n/a
276.3845	0.105	552769	keystroke	l	n/a
276.7595	0.09	553519	keystroke	Key.backspace	n/a
277.0295	0.165	554059	keystroke	k	n/a
277.1795	0.1805	554359	keystroke	o	n/a
277.3295	0.1205	554659	keystroke	n	n/a
277.7945	0.1195	555589	keystroke	Key.space	n/a
278.1245	0.15	556249	keystroke	r	n/a
278.1995	0.1505	556399	keystroke	e	n/a
278.41	0.1195	556820	keystroke	a	n/a
278.6645	0.18	557329	keystroke	c	n/a
278.8295	0.12	557659	keystroke	h	n/a
278.98	0.1195	557960	keystroke	Key.space	n/a
279.2195	0.12	558439	keystroke	n	n/a
279.355	0.1795	558710	keystroke	e	n/a
279.7445	0.12	559489	keystroke	o	n/a
279.9395	0.1655	559879	keystroke	n	n/a
280.21	0.09	560420	keystroke	Key.enter	n/a
280.306	8.2985	560612	prompt	n/a	accessed subjective governor brazil\n
281.244	0.1355	562488	keystroke	a	n/a
281.4855	0.09	562971	keystroke	c	n/a
281.6495	0.1205	563299	keystroke	c	n/a
281.875	0.105	563750	keystroke	e	n/a
282.055	0.105	564110	keystroke	s	n/a
282.25	0.1945	564500	keystroke	s	n/a
282.37	0.1195	564740	keystroke	e	n/a
282.5645	0.18	565129	keystroke	d	n/a
282.6845	0.12	565369	keystroke	Key.space	n/a
282.9095	0.165	565819	keystroke	s	n/a
283.0755	0.0895	566151	keystroke	u	n/a
283.225	0.135	566450	keystroke	b	n/a
283.45	0.09	566900	keystroke	j	n/a
283.585	0.09	567170	keystroke	e	n/a
283.825	0.12	567650	keystroke	c	n/a
284.05	0.09	568100	keystroke	t	n/a
284.11	0.105	568220	keystroke	i	n/a
284.35	0.2095	568700	keystroke	v	n/a
284.4995	0.165	568999	keystroke	e	n/a
284.7245	0.12	569449	keystroke	Key.space	n/a
285.1295	0.12	570259	keystroke	g	n/a
285.2645	0.105	570529	keystroke	o	n/a
285.4145	0.225	570829	keystroke	v	n/a
285.5495	0.15	571099	keystroke	e	n/a
285.7595	0.1505	571519	keystroke	n	n/a
285.895	0.12	571790	keystroke	o	n/a
286	0.15	572000	keystroke	r	n/a
286.405	0.1345	572810	keystroke	Key.space	n/a
286.6895	0.105	573379	keystroke	b	n/a
286.9295	0.195	573859	keystroke	r	n/a
287.0795	0.135	574159	keystroke	a	n/a
287.7845	0.15	575569	keystroke	z	n/a
288.0245	0.105	576049	keystroke	i	n/a
288.2195	0.12	576439	keystroke	l	n/a
288.4595	0.135	576919	keystroke	Key.enter	n/a
288.617	6.429	577234	prompt	n/a	factor flip indiana martial\n
289.1955	0.179	578391	keystroke	f	n/a
289.3445	0.12	578689	keystroke	a	n/a
289.5845	0.105	579169	keystroke	c	n/a
289.8545	0.135	579709	keystroke	t	n/a
290.0045	0.105	580009	keystroke	o	n/a
290.3195	0.075	580639	keystroke	r	n/a
290.5895	0.1195	581179	keystroke	Key.space	n/a
291.13	0.1495	582260	keystroke	f	n/a
291.3845	0.1645	582769	keystroke	l	n/a
291.52	0.1045	583040	keystroke	i	n/a
291.7445	0.12	583489	keystroke	p	n/a
291.9545	0.135	583909	keystroke	Key.space	n/a
292.2245	0.105	584449	keystroke	i	n/a
292.3445	0.135	584689	keystroke	n	n/a
292.5095	0.165	585019	keystroke	d	n/a
292.6145	0.12	585229	keystroke	i	n/a
292.8095	0.1205	585619	keystroke	a	n/a
293.005	0.105	586010	keystroke	n	n/a
293.155	0.12	586310	keystroke	a	n/a
293.47	0.12	586940	keystroke	Key.space	n/a
293.785	0.135	587570	keystroke	m	n/a
293.95	0.18	587900	keystroke	a	n/a
294.115	0.135	588230	keystroke	r	n/a
294.325	0.135	588650	keystroke	t	n/a
294.4	0.105	588800	keystroke	i	n/a
294.565	0.15	589130	keystroke	a	n/a
294.64	0.12	589280	keystroke	l	n/a
294.94	0.1045	589880	keystroke	Key.enter	n/a
295.052	11.763	590104	prompt	n/a	concerning economies practitioners caribbean\n
295.9445	0.1655	591889	keystroke	c	n/a
296.05	0.15	592100	keystroke	o	n/a
296.215	0.105	592430	keystroke	n	n/a
296.695	0.105	593390	keystroke	c	n/a
296.92	0.18	593840	keystroke	e	n/a
297.04	0.135	594080	keystroke	r	n/a
297.205	0.165	594410	keystroke	n	n/a
297.3395	0.1955	594679	keystroke	i	n/a
297.475	0.15	594950	keystroke	n	n/a
297.595	0.135	595190	keystroke	g	n/a
297.745	0.12	595490	keystroke	Key.space	n/a
297.985	0.09	595970	keystroke	e	n/a
298.2095	0.135	596419	keystroke	c	n/a
298.3295	0.12	596659	keystroke	o	n/a
298.5245	0.105	597049	keystroke	n	n/a
298.7945	0.12	597589	keystroke	o	n/a
299.0495	0.105	598099	keystroke	m	n/a
299.47	0.075	598940	keystroke	c	n/a
299.8	0.09	599600	keystroke	Key.backspace	n/a
300.07	0.105	600140	keystroke	i	n/a
300.22	0.03	600440	keystroke	c	n/a
300.61	0.105	601220	keystroke	Key.backspace	n/a
300.715	0.105	601430	keystroke	e	n/a
301.1045	0.135	602209	keystroke	s	n/a
301.2995	0.12	602599	keystroke	Key.space	n/a
301.6145	0.105	603229	keystroke	p	n/a
301.8245	0.135	603649	keystroke	r	n/a
302.0045	0.135	604009	keystroke	a	n/a
302.2895	0.12	604579	keystroke	c	n/a
302.5295	0.105	605059	keystroke	t	n/a
302.6945	0.1045	605389	keystroke	i	n/a
302.8445	0.12	605689	keystroke	t	n/a
302.9795	0.24	605959	keystroke	i	n/a
303.0845	0.165	606169	keystroke	o	n/a
303.4145	0.12	606829	keystroke	n	n/a
303.5945	0.225	607189	keystroke	e	n/a
303.7595	0.12	607519	keystroke	r	n/a
303.9845	0.18	607969	keystroke	s	n/a
304.1495	0.12	608299	keystroke	Key.space	n/a
304.3595	0.12	608719	keystroke	c	n/a
304.5395	0.165	609079	keystroke	a	n/a
304.7495	0.165	609499	keystroke	r	n/a
304.9445	0.105	609889	keystroke	i	n/a
305.2445	0.06	610489	keystroke	b	n/a
305.3945	0.105	610789	keystroke	b	n/a
305.5595	0.15	611119	keystroke	e	n/a
305.7245	0.165	611449	keystroke	a	n/a
305.8745	0.105	611749	keystroke	n	n/a
306.67	0.135	613340	keystroke	Key.enter	n/a
306.82	11.4095	613640	prompt	n/a	champions czech transport circumstances\n
308.095	0.179	616190	keystroke	c	n/a
308.305	0.135	616610	keystroke	h	n/a
308.469	0.121	616938	keystroke	a	n/a
308.65	0.12	617300	keystroke	m	n/a
308.83	0.12	617660	keystroke	p	n/a
309.504	0.105	619008	keystroke	i	n/a
309.744	0.12	619488	keystroke	o	n/a
309.969	0.12	619938	keystroke	n	n/a
310.224	0.151	620448	keystroke	s	n/a
310.404	0.106	620808	keystroke	Key.space	n/a
310.69	0.105	621380	keystroke	c	n/a
311.139	0.135	622278	keystroke	z	n/a
311.5445	0.12	623089	keystroke	e	n/a
311.8595	0.195	623719	keystroke	c	n/a
312.2195	0.12	624439	keystroke	h	n/a
312.5945	0.09	625189	keystroke	Key.space	n/a
312.9695	0.105	625939	keystroke	t	n/a
313.1645	0.1955	626329	keystroke	r	n/a
313.315	0.135	626630	keystroke	a	n/a
313.51	0.105	627020	keystroke	n	n/a
313.69	0.135	627380	keystroke	s	n/a
314.1995	0.0895	628399	keystroke	p	n/a
314.364	0.1355	628728	keystroke	o	n/a
314.4695	0.135	628939	keystroke	r	n/a
314.6795	0.135	629359	keystroke	t	n/a
315.2195	0.105	630439	keystroke	Key.space	n/a
315.4745	0.18	630949	keystroke	c	n/a
315.5945	0.105	631189	keystroke	i	n/a
315.8045	0.105	631609	keystroke	r	n/a
316.075	0.165	632150	keystroke	c	n/a
316.21	0.104	632420	keystroke	u	n/a
316.48	0.12	632960	keystroke	m	n/a
316.705	0.165	633410	keystroke	s	n/a
316.915	0.15	633830	keystroke	t	n/a
317.095	0.15	634190	keystroke	a	n/a
317.215	0.089	634430	keystroke	n	n/a
317.394	0.105	634788	keystroke	c	n/a
317.62	0.089	635240	keystroke	e	n/a
317.814	0.135	635628	keystroke	s	n/a
318.129	0.09	636258	keystroke	Key.enter	n/a
318.236	8.843	636472	prompt	n/a	promoting poetry helps paintings\n
318.82	0.119	637640	keystroke	p	n/a
319.194	0.135	638388	keystroke	r	n/a
319.359	0.12	638718	keystroke	o	n/a
319.614	0.165	639228	keystroke	m	n/a
319.7195	0.1345	639439	keystroke	o	n/a
319.914	0.15	639828	keystroke	t	n/a
320.079	0.09	640158	keystroke	i	n/a
320.319	0.105	640638	keystroke	n	n/a
320.499	0.165	640998	keystroke	g	n/a
320.649	0.12	641298	keystroke	Key.space	n/a
320.949	0.09	641898	keystroke	p	n/a
321.129	0.1055	642258	keystroke	o	n/a
321.579	0.15	643158	keystroke	e	n/a
321.819	0.12	643638	keystroke	t	n/a
322.044	0.135	644088	keystroke	r	n/a
322.194	0.165	644388	keystroke	y	n/a
322.314	0.135	644628	keystroke	Key.space	n/a
322.719	0.12	645438	keystroke	h	n/a
322.854	0.135	645708	keystroke	e	n/a
322.974	0.12	645948	keystroke	l	n/a
323.184	0.135	646368	keystroke	p	n/a
323.3795	0.165	646759	keystroke	s	n/a
323.6945	0.135	647389	keystroke	Key.space	n/a
323.8895	0.12	647779	keystroke	p	n/a
324.0095	0.15	648019	keystroke	a	n/a
324.1745	0.075	648349	keystroke	i	n/a
324.3395	0.135	648679	keystroke	n	n/a
324.6245	0.135	649249	keystroke	t	n/a
324.8045	0.135	649609	keystroke	i	n/a
325.3745	0.135	650749	keystroke	n	n/a
325.9295	0.12	651859	keystroke	g	n/a
326.289	0.1205	652578	keystroke	s	n/a
326.949	0.12	653898	keystroke	Key.enter	n/a
327.0835	12.1905	654167	prompt	n/a	absolute scholarships decorating wallace\n
327.879	0.12	655758	keystroke	a	n/a
328.119	0.12	656238	keystroke	b	n/a
328.555	0.1495	657110	keystroke	s	n/a
328.6745	0.135	657349	keystroke	o	n/a
328.9295	0.135	657859	keystroke	j	n/a
329.1545	0.12	658309	keystroke	u	n/a
329.5895	0.075	659179	keystroke	Key.backspace	n/a
329.7395	0.09	659479	keystroke	Key.backspace	n/a
329.9945	0.165	659989	keystroke	l	n/a
330.0095	0.015	660019	keystroke	o	n/a
330.1445	0.09	660289	keystroke	u	n/a
330.1595	0.045	660319	keystroke	o	n/a
330.3245	0.12	660649	keystroke	t	n/a
330.6545	0.06	661309	keystroke	Key.backspace	n/a
330.8195	0.075	661639	keystroke	Key.backspace	n/a
330.9845	0.09	661969	keystroke	Key.backspace	n/a
331.1495	0.12	662299	keystroke	Key.backspace	n/a
331.5095	0.075	663019	keystroke	u	n/a
331.749	0.15	663498	keystroke	t	n/a
331.914	0.165	663828	keystroke	e	n/a
332.2445	0.0895	664489	keystroke	Key.space	n/a
332.4395	0.135	664879	keystroke	s	n/a
332.6495	0.165	665299	keystroke	c	n/a
332.7545	0.165	665509	keystroke	h	n/a
332.8595	0.12	665719	keystroke	o	n/a
333.0995	0.09	666199	keystroke	l	n/a
333.2495	0.165	666499	keystroke	a	n/a
333.4295	0.135	666859	keystroke	r	n/a
333.7295	0.15	667459	keystroke	s	n/a
333.8645	0.165	667729	keystroke	h	n/a
333.9695	0.12	667939	keystroke	i	n/a
334.1795	0.09	668359	keystroke	p	n/a
334.3745	0.15	668749	keystroke	s	n/a
334.6745	0.09	669349	keystroke	Key.space	n/a
335.0195	0.105	670039	keystroke	d	n/a
335.2145	0.09	670429	keystroke	e	n/a
335.4245	0.15	670849	keystroke	c	n/a
335.5445	0.09	671089	keystroke	o	n/a
336.4445	0.18	672889	keystroke	r	n/a
336.6095	0.165	673219	keystroke	a	n/a
336.7445	0.165	673489	keystroke	t	n/a
336.8945	0.15	673789	keystroke	i	n/a
337.1045	0.12	674209	keystroke	n	n/a
337.2545	0.135	674509	keystroke	g	n/a
337.5395	0.12	675079	keystroke	Key.space	n/a
337.929	0.195	675858	keystroke	w	n/a
338.049	0.135	676098	keystroke	a	n/a
338.289	0.09	676578	keystroke	l	n/a
338.454	0.135	676908	keystroke	l	n/a
338.544	0.135	677088	keystroke	a	n/a
338.799	0.105	677598	keystroke	c	n/a
339.024	0.135	678048	keystroke	e	n/a
339.174	0.09	678348	keystroke	Key.enter	n/a
339.2805	7.298	678561	prompt	n/a	decreased cams reduces loop\n
339.9995	0.135	679999	keystroke	d	n/a
340.2095	0.135	680419	keystroke	e	n/a
340.4945	0.12	680989	keystroke	c	n/a
340.7495	0.195	681499	keystroke	r	n/a
340.8545	0.15	681709	keystroke	e	n/a
341.1095	0.12	682219	keystroke	s	n/a
341.4685	0.105	682937	keystroke	Key.backspace	n/a
341.5595	0.1345	683119	keystroke	a	n/a
341.709	0.181	683418	keystroke	s	n/a
342.039	0.135	684078	keystroke	e	n/a
342.294	0.15	684588	keystroke	d	n/a
342.579	0.105	685158	keystroke	Key.space	n/a
342.999	0.15	685998	keystroke	c	n/a
343.164	0.15	686328	keystroke	a	n/a
343.344	0.12	686688	keystroke	m	n/a
343.479	0.165	686958	keystroke	s	n/a
343.689	0.15	687378	keystroke	Key.space	n/a
343.9745	0.1345	687949	keystroke	r	n/a
344.049	0.15	688098	keystroke	e	n/a
344.274	0.165	688548	keystroke	d	n/a
344.484	0.09	688968	keystroke	u	n/a
344.739	0.135	689478	keystroke	c	n/a
344.964	0.12	689928	keystroke	e	n/a
345.189	0.165	690378	keystroke	s	n/a
345.3385	0.0905	690677	keystroke	Key.space	n/a
345.609	0.09	691218	keystroke	l	n/a
345.804	0.09	691608	keystroke	o	n/a
345.984	0.1045	691968	keystroke	o	n/a
346.2085	0.105	692417	keystroke	p	n/a
346.4935	0.075	692987	keystroke	Key.enter	n/a
346.583	7.953	693166	prompt	n/a	signal speak pleasant scholar\n
347.2285	0.1505	694457	keystroke	s	n/a
347.454	0.105	694908	keystroke	i	n/a
347.664	0.1495	695328	keystroke	g	n/a
347.8285	0.135	695657	keystroke	n	n/a
347.949	0.15	695898	keystroke	a	n/a
348.114	0.135	696228	keystroke	l	n/a
348.294	0.105	696588	keystroke	Key.space	n/a
348.7135	0.1505	697427	keystroke	s	n/a
348.804	0.15	697608	keystroke	p	n/a
349.014	0.105	698028	keystroke	e	n/a
349.209	0.135	698418	keystroke	a	n/a
349.509	0.0745	699018	keystroke	k	n/a
349.7035	0.1055	699407	keystroke	Key.space	n/a
349.9585	0.105	699917	keystroke	p	n/a
350.1695	0.104	700339	keystroke	l	n/a
350.2445	0.135	700489	keystroke	e	n/a
350.4535	0.15	700907	keystroke	a	n/a
350.6645	0.1795	701329	keystroke	s	n/a
351.534	0.12	703068	keystroke	a	n/a
351.669	0.09	703338	keystroke	n	n/a
352.014	0.105	704028	keystroke	d	n/a
352.434	0.06	704868	keystroke	Key.backspace	n/a
352.509	0.12	705018	keystroke	t	n/a
352.674	0.1355	705348	keystroke	Key.space	n/a
352.929	0.135	705858	keystroke	s	n/a
353.154	0.1505	706308	keystroke	c	n/a
353.229	0.1355	706458	keystroke	h	n/a
353.3795	0.105	706759	keystroke	o	n/a
353.6045	0.105	707209	keystroke	l	n/a
353.7395	0.195	707479	keystroke	a	n/a
353.9045	0.135	707809	keystroke	r	n/a
354.3845	0.15	708769	keystroke	Key.enter	n/a
354.539	7.535	709078	prompt	n/a	telephony camps princeton perry\n
355.2385	0.12	710477	keystroke	t	n/a
355.3885	0.166	710777	keystroke	e	n/a
355.5685	0.105	711137	keystroke	l	n/a
355.6745	0.165	711349	keystroke	e	n/a
356.3335	0.121	712667	keystroke	p	n/a
356.4985	0.165	712997	keystroke	h	n/a
356.6185	0.15	713237	keystroke	o	n/a
356.7985	0.15	713597	keystroke	n	n/a
357.1585	0.1055	714317	keystroke	y	n/a
357.3535	0.09	714707	keystroke	Key.space	n/a
357.6235	0.165	715247	keystroke	c	n/a
357.7585	0.21	715517	keystroke	a	n/a
357.954	0.1795	715908	keystroke	m	n/a
358.074	0.1495	716148	keystroke	p	n/a
358.269	0.18	716538	keystroke	s	n/a
358.419	0.135	716838	keystroke	Key.space	n/a
358.794	0.135	717588	keystroke	p	n/a
358.944	0.165	717888	keystroke	r	n/a
359.109	0.12	718218	keystroke	i	n/a
359.364	0.09	718728	keystroke	n	n/a
359.529	0.12	719058	keystroke	c	n/a
359.769	0.12	719538	keystroke	e	n/a
359.994	0.15	719988	keystroke	t	n/a
360.054	0.15	720108	keystroke	o	n/a
360.294	0.135	720588	keystroke	n	n/a
360.594	0.1055	721188	keystroke	Key.space	n/a
360.8045	0.12	721609	keystroke	p	n/a
360.9545	0.18	721909	keystroke	e	n/a
361.0745	0.135	722149	keystroke	r	n/a
361.3145	0.12	722629	keystroke	r	n/a
361.5085	0.1055	723017	keystroke	y	n/a
361.989	0.075	723978	keystroke	Key.enter	n/a
362.079	7.194	724158	prompt	n/a	banana sword bands roulette\n
362.9945	0.179	725989	keystroke	b	n/a
363.1585	0.15	726317	keystroke	a	n/a
363.339	0.105	726678	keystroke	n	n/a
363.519	0.135	727038	keystroke	a	n/a
363.639	0.135	727278	keystroke	n	n/a
363.775	0.1345	727550	keystroke	a	n/a
364.194	0.105	728388	keystroke	Key.space	n/a
364.479	0.135	728958	keystroke	s	n/a
364.764	0.165	729528	keystroke	w	n/a
365.064	0.09	730128	keystroke	o	n/a
365.244	0.12	730488	keystroke	r	n/a
365.544	0.135	731088	keystroke	d	n/a
365.784	0.12	731568	keystroke	Key.space	n/a
366.024	0.045	732048	keystroke	n	n/a
366.144	0.12	732288	keystroke	b	n/a
366.444	0.06	732888	keystroke	Key.backspace	n/a
366.579	0.12	733158	keystroke	Key.backspace	n/a
366.669	0.165	733338	keystroke	b	n/a
366.834	0.18	733668	keystroke	a	n/a
366.984	0.09	733968	keystroke	n	n/a
367.149	0.15	734298	keystroke	d	n/a
367.374	0.1495	734748	keystroke	s	n/a
367.494	0.12	734988	keystroke	Key.space	n/a
367.779	0.135	735558	keystroke	r	n/a
367.929	0.15	735858	keystroke	o	n/a
368.034	0.105	736068	keystroke	u	n/a
368.319	0.105	736638	keystroke	l	n/a
368.439	0.105	736878	keystroke	e	n/a
368.634	0.105	737268	keystroke	t	n/a
368.799	0.195	737598	keystroke	t	n/a
368.919	0.165	737838	keystroke	e	n/a
369.144	0.12	738288	keystroke	Key.enter	n/a
369.2785	16.556	738557	prompt	n/a	indoor science furthermore shirt\n
369.894	0.09	739788	keystroke	i	n/a
370.044	0.12	740088	keystroke	n	n/a
370.164	0.15	740328	keystroke	d	n/a
370.299	0.09	740598	keystroke	o	n/a
370.479	0.135	740958	keystroke	o	n/a
370.659	0.135	741318	keystroke	r	n/a
370.824	0.135	741648	keystroke	Key.space	n/a
371.094	0.135	742188	keystroke	s	n/a
371.319	0.165	742638	keystroke	c	n/a
371.619	0.075	743238	keystroke	i	n/a
371.829	0.105	743658	keystroke	n	n/a
371.994	0.105	743988	keystroke	e	n/a
372.534	0.105	745068	keystroke	c	n/a
373.044	0.075	746088	keystroke	Key.backspace	n/a
373.284	0.09	746568	keystroke	n	n/a
373.404	0.09	746808	keystroke	c	n/a
373.629	0.06	747258	keystroke	Key.backspace	n/a
373.794	0.09	747588	keystroke	Key.backspace	n/a
373.9585	0.105	747917	keystroke	Key.backspace	n/a
374.1385	0.12	748277	keystroke	Key.backspace	n/a
374.5435	0.12	749087	keystroke	e	n/a
374.6935	0.105	749387	keystroke	n	n/a
374.8285	0.12	749657	keystroke	c	n/a
375.0835	0.135	750167	keystroke	e	n/a
375.2335	0.1055	750467	keystroke	Key.space	n/a
375.5635	0.075	751127	keystroke	f	n/a
376.134	0.165	752268	keystroke	u	n/a
376.314	0.105	752628	keystroke	r	n/a
376.509	0.12	753018	keystroke	t	n/a
376.599	0.105	753198	keystroke	h	n/a
376.749	0.135	753498	keystroke	e	n/a
377.034	0.12	754068	keystroke	m	n/a
377.499	0.105	754998	keystroke	o	n/a
377.724	0.12	755448	keystroke	r	n/a
378.699	0.075	757398	keystroke	Key.backspace	n/a
378.864	0.105	757728	keystroke	Key.backspace	n/a
379.1785	0.015	758357	keystroke	Key.backspace	n/a
379.2385	0.12	758477	keystroke	Key.backspace	n/a
379.5085	0.105	759017	keystroke	r	n/a
379.9585	0.075	759917	keystroke	Key.backspace	n/a
380.1085	0.225	760217	keystroke	e	n/a
380.2435	0.165	760487	keystroke	r	n/a
380.589	0.12	761178	keystroke	m	n/a
380.664	0.135	761328	keystroke	o	n/a
380.784	0.15	761568	keystroke	r	n/a
381.1735	0.165	762347	keystroke	e	n/a
381.414	0.12	762828	keystroke	Key.space	n/a
382.329	0.1795	764658	keystroke	s	n/a
382.4335	0.195	764867	keystroke	h	n/a
382.5535	0.105	765107	keystroke	i	n/a
382.884	0.195	765768	keystroke	s	n/a
383.709	0.06	767418	keystroke	Key.backspace	n/a
383.784	0.06	767568	keystroke	r	n/a
384.654	0.135	769308	keystroke	t	n/a
385.734	0.09	771468	keystroke	Key.enter	n/a
385.841	10.612	771682	prompt	n/a	relationships unity queries wedding\n
386.604	0.165	773208	keystroke	r	n/a
386.739	0.21	773478	keystroke	e	n/a
386.949	0.135	773898	keystroke	l	n/a
387.129	0.135	774258	keystroke	a	n/a
387.249	0.21	774498	keystroke	t	n/a
387.354	0.33	774708	keystroke	i	n/a
387.444	0.225	774888	keystroke	o	n/a
387.594	0.165	775188	keystroke	n	n/a
387.789	0.18	775578	keystroke	s	n/a
388.014	0.225	776028	keystroke	h	n/a
388.134	0.1645	776268	keystroke	i	n/a
388.419	0.135	776838	keystroke	o	n/a
388.764	0.12	777528	keystroke	Key.backspace	n/a
389.094	0.15	778188	keystroke	p	n/a
389.484	0.105	778968	keystroke	u	n/a
389.874	0.135	779748	keystroke	Key.backspace	n/a
390.054	0.15	780108	keystroke	Key.space	n/a
390.324	0.06	780648	keystroke	u	n/a
390.519	0.21	781038	keystroke	n	n/a
390.654	0.135	781308	keystroke	i	n/a
390.819	0.195	781638	keystroke	t	n/a
390.969	0.12	781938	keystroke	y	n/a
391.299	0.135	782598	keystroke	Key.space	n/a
391.749	0.15	783498	keystroke	q	n/a
391.884	0.135	783768	keystroke	u	n/a
392.184	0.135	784368	keystroke	e	n/a
392.5885	0.165	785177	keystroke	r	n/a
392.7235	0.135	785447	keystroke	i	n/a
392.8885	0.15	785777	keystroke	e	n/a
393.278	0.1805	786556	keystroke	s	n/a
393.474	0.1195	786948	keystroke	Key.space	n/a
394.119	0.135	788238	keystroke	q	n/a
394.674	0.12	789348	keystroke	Key.backspace	n/a
394.764	0.195	789528	keystroke	w	n/a
394.929	0.135	789858	keystroke	e	n/a
395.229	0.105	790458	keystroke	d	n/a
395.409	0.15	790818	keystroke	d	n/a
395.499	0.21	790998	keystroke	i	n/a
395.649	0.15	791298	keystroke	n	n/a
395.739	0.165	791478	keystroke	g	n/a
396.309	0.135	792618	keystroke	Key.enter	n/a
396.458	6.377	792916	prompt	n/a	symptoms saved equations comm\n
397.074	0.21	794148	keystroke	s	n/a
397.224	0.105	794448	keystroke	y	n/a
397.4785	0.15	794957	keystroke	m	n/a
397.6135	0.18	795227	keystroke	p	n/a
397.8085	0.15	795617	keystroke	t	n/a
398.0485	0.12	796097	keystroke	o	n/a
398.3185	0.135	796637	keystroke	m	n/a
398.7685	0.165	797537	keystroke	s	n/a
398.9785	0.135	797957	keystroke	Key.space	n/a
399.1885	0.27	798377	keystroke	s	n/a
399.3535	0.15	798707	keystroke	a	n/a
399.5485	0.195	799097	keystroke	v	n/a
399.7285	0.135	799457	keystroke	e	n/a
399.9385	0.165	799877	keystroke	d	n/a
400.0135	0.12	800027	keystroke	Key.space	n/a
400.2235	0.135	800447	keystroke	e	n/a
400.4335	0.165	800867	keystroke	q	n/a
400.6285	0.1505	801257	keystroke	u	n/a
400.8835	0.165	801767	keystroke	a	n/a
401.0635	0.15	802127	keystroke	t	n/a
401.1535	0.24	802307	keystroke	i	n/a
401.2735	0.165	802547	keystroke	o	n/a
401.4085	0.15	802817	keystroke	n	n/a
401.5735	0.15	803147	keystroke	s	n/a
401.6935	0.09	803387	keystroke	Key.space	n/a
402.0235	0.18	804047	keystroke	c	n/a
402.1135	0.135	804227	keystroke	o	n/a
402.3685	0.09	804737	keystroke	m	n/a
402.5335	0.135	805067	keystroke	m	n/a
402.6985	0.135	805397	keystroke	Key.enter	n/a
402.839	9.4845	805678	prompt	n/a	depend cardiac katrina porcelain\n
403.418	0.1655	806836	keystroke	d	n/a
403.6135	0.135	807227	keystroke	e	n/a
403.6735	0.165	807347	keystroke	p	n/a
403.8685	0.165	807737	keystroke	e	n/a
404.0035	0.12	808007	keystroke	n	n/a
404.4685	0.165	808937	keystroke	d	n/a
404.6485	0.12	809297	keystroke	Key.space	n/a
404.8585	0.135	809717	keystroke	c	n/a
405.0835	0.12	810167	keystroke	a	n/a
405.1885	0.09	810377	keystroke	r	n/a
405.3685	0.15	810737	keystroke	d	n/a
405.4885	0.12	810977	keystroke	i	n/a
405.6385	0.12	811277	keystroke	a	n/a
406.074	0.15	812148	keystroke	c	n/a
406.269	0.12	812538	keystroke	Key.space	n/a
406.569	0.12	813138	keystroke	k	n/a
406.809	0.18	813618	keystroke	a	n/a
407.004	0.135	814008	keystroke	t	n/a
407.364	0.135	814728	keystroke	r	n/a
407.559	0.12	815118	keystroke	i	n/a
407.9035	0.12	815807	keystroke	n	n/a
408.0685	0.135	816137	keystroke	a	n/a
408.2485	0.0745	816497	keystroke	Key.space	n/a
408.399	0.15	816798	keystroke	p	n/a
408.579	0.12	817158	keystroke	r	n/a
408.924	0.104	817848	keystroke	Key.backspace	n/a
409.239	0.059	818478	keystroke	p	n/a
409.253	0.031	818506	keystroke	o	n/a
409.328	0.12	818656	keystroke	r	n/a
409.763	0.09	819526	keystroke	Key.backspace	n/a
409.928	0.285	819856	keystroke	Key.backspace	n/a
410.274	0.119	820548	keystroke	Key.backspace	n/a
410.603	0.12	821206	keystroke	o	n/a
410.738	0.165	821476	keystroke	r	n/a
411.128	0.151	822256	keystroke	c	n/a
411.384	0.15	822768	keystroke	e	n/a
411.474	0.149	822948	keystroke	l	n/a
411.639	0.194	823278	keystroke	a	n/a
411.773	0.225	823546	keystroke	i	n/a
411.968	0.12	823936	keystroke	n	n/a
412.1785	0.1345	824357	keystroke	Key.enter	n/a
412.33	7.83	824660	prompt	n/a	rejected divisions groundwater identifying\n
413.123	0.15	826246	keystroke	r	n/a
413.198	0.1505	826396	keystroke	e	n/a
413.423	0.165	826846	keystroke	j	n/a
413.544	0.12	827088	keystroke	e	n/a
413.783	0.136	827566	keystroke	c	n/a
414.023	0.1655	828046	keystroke	t	n/a
414.2185	0.06	828437	keystroke	e	n/a
414.384	0.15	828768	keystroke	d	n/a
414.834	0.135	829668	keystroke	Key.space	n/a
415.284	0.135	830568	keystroke	d	n/a
415.464	0.1345	830928	keystroke	i	n/a
415.6435	0.18	831287	keystroke	v	n/a
415.7635	0.12	831527	keystroke	i	n/a
416.0935	0.18	832187	keystroke	s	n/a
416.1985	0.345	832397	keystroke	i	n/a
416.3335	0.195	832667	keystroke	o	n/a
416.4685	0.135	832937	keystroke	n	n/a
416.648	0.18	833296	keystroke	s	n/a
416.753	0.1205	833506	keystroke	Key.space	n/a
417.0535	0.12	834107	keystroke	g	n/a
417.2785	0.15	834557	keystroke	r	n/a
417.4735	0.18	834947	keystroke	o	n/a
417.5935	0.075	835187	keystroke	u	n/a
417.8485	0.09	835697	keystroke	n	n/a
417.8785	0.135	835757	keystroke	d	n/a
418.1635	0.2255	836327	keystroke	w	n/a
418.2835	0.195	836567	keystroke	a	n/a
418.4635	0.15	836927	keystroke	t	n/a
418.7785	0.225	837557	keystroke	e	n/a
418.9285	0.165	837857	keystroke	r	n/a
419.6485	0.15	839297	keystroke	Key.space	n/a
420.054	0.105	840108	keystroke	Key.enter	n/a
420.1625	9.351	840325	prompt	n/a	mixer springs buried company\n
421.569	0.179	843138	keystroke	m	n/a
421.674	0.15	843348	keystroke	i	n/a
421.839	0.135	843678	keystroke	s	n/a
422.633	0.135	845266	keystroke	Key.backspace	n/a
422.799	0.134	845598	keystroke	x	n/a
423.023	0.12	846046	keystroke	e	n/a
423.353	0.15	846706	keystroke	r	n/a
423.533	0.15	847066	keystroke	Key.space	n/a
423.728	0.195	847456	keystroke	s	n/a
423.953	0.135	847906	keystroke	p	n/a
424.223	0.18	848446	keystroke	r	n/a
424.343	0.12	848686	keystroke	i	n/a
424.568	0.12	849136	keystroke	n	n/a
424.673	0.165	849346	keystroke	g	n/a
425.348	0.12	850696	keystroke	s	n/a
425.438	0.136	850876	keystroke	Key.space	n/a
425.724	0.12	851448	keystroke	b	n/a
425.874	0.135	851748	keystroke	u	n/a
426.054	0.135	852108	keystroke	r	n/a
426.504	0.12	853008	keystroke	e	n/a
426.999	0.105	853998	keystroke	Key.backspace	n/a
427.269	0.135	854538	keystroke	i	n/a
427.359	0.135	854718	keystroke	e	n/a
427.629	0.164	855258	keystroke	d	n/a
427.913	0.15	855826	keystroke	Key.space	n/a
428.153	0.195	856306	keystroke	c	n/a
428.243	0.166	856486	keystroke	o	n/a
428.438	0.151	856876	keystroke	m	n/a
428.573	0.195	857146	keystroke	p	n/a
428.753	0.15	857506	keystroke	a	n/a
428.888	0.15	857776	keystroke	n	n/a
429.143	0.105	858286	keystroke	y	n/a
429.3835	0.12	858767	keystroke	Key.enter	n/a
429.5175	7.78	859035	prompt	n/a	tale fuji fans observation\n
430.1335	0.24	860267	keystroke	t	n/a
430.2985	0.15	860597	keystroke	a	n/a
430.4335	0.135	860867	keystroke	k	n/a
430.5385	0.165	861077	keystroke	e	n/a
430.973	0.075	861946	keystroke	Key.backspace	n/a
431.108	0.105	862216	keystroke	Key.backspace	n/a
431.3635	0.135	862727	keystroke	l	n/a
431.4835	0.1505	862967	keystroke	e	n/a
431.664	0.1345	863328	keystroke	Key.space	n/a
432.1585	0.18	864317	keystroke	f	n/a
432.7435	0.105	865487	keystroke	u	n/a
433.1185	0.135	866237	keystroke	j	n/a
433.4035	0.15	866807	keystroke	i	n/a
433.6585	0.12	867317	keystroke	Key.space	n/a
433.8835	0.255	867767	keystroke	f	n/a
434.0635	0.1645	868127	keystroke	a	n/a
434.198	0.135	868396	keystroke	n	n/a
434.378	0.18	868756	keystroke	s	n/a
434.783	0.135	869566	keystroke	Key.space	n/a
435.173	0.15	870346	keystroke	o	n/a
435.413	0.135	870826	keystroke	b	n/a
435.638	0.195	871276	keystroke	s	n/a
435.803	0.2405	871606	keystroke	e	n/a
435.9685	0.135	871937	keystroke	r	n/a
436.2235	0.21	872447	keystroke	v	n/a
436.4035	0.165	872807	keystroke	a	n/a
436.5685	0.195	873137	keystroke	t	n/a
436.6585	0.2995	873317	keystroke	i	n/a
436.7485	0.1945	873497	keystroke	o	n/a
436.868	0.165	873736	keystroke	n	n/a
437.138	0.15	874276	keystroke	Key.enter	n/a
437.302	7.263	874604	prompt	n/a	adjustable grow tackle streams\n
437.918	0.12	875836	keystroke	a	n/a
438.113	0.12	876226	keystroke	d	n/a
438.623	0.135	877246	keystroke	j	n/a
438.848	0.18	877696	keystroke	u	n/a
439.013	0.165	878026	keystroke	s	n/a
439.163	0.135	878326	keystroke	t	n/a
439.403	0.12	878806	keystroke	a	n/a
439.643	0.15	879286	keystroke	b	n/a
439.778	0.15	879556	keystroke	l	n/a
439.943	0.135	879886	keystroke	e	n/a
440.063	0.12	880126	keystroke	Key.space	n/a
440.333	0.18	880666	keystroke	g	n/a
440.618	0.135	881236	keystroke	r	n/a
440.708	0.12	881416	keystroke	o	n/a
440.858	0.18	881716	keystroke	w	n/a
441.383	0.15	882766	keystroke	Key.space	n/a
441.638	0.1955	883276	keystroke	t	n/a
441.818	0.0905	883636	keystroke	a	n/a
442.013	0.165	884026	keystroke	c	n/a
442.118	0.1055	884236	keystroke	k	n/a
442.509	0.15	885018	keystroke	l	n/a
442.689	0.15	885378	keystroke	e	n/a
442.809	0.119	885618	keystroke	Key.space	n/a
443.079	0.165	886158	keystroke	s	n/a
443.214	0.104	886428	keystroke	t	n/a
443.408	0.18	886816	keystroke	r	n/a
443.513	0.165	887026	keystroke	e	n/a
443.813	0.135	887626	keystroke	a	n/a
443.978	0.12	887956	keystroke	m	n/a
444.114	0.164	888228	keystroke	s	n/a
444.428	0.1355	888856	keystroke	Key.enter	n/a
444.5695	6.8585	889139	prompt	n/a	marker male replace commitments\n
445.2685	0.18	890537	keystroke	m	n/a
445.4335	0.15	890867	keystroke	a	n/a
445.6285	0.18	891257	keystroke	r	n/a
445.9435	0.105	891887	keystroke	k	n/a
446.0785	0.184	892157	keystroke	e	n/a
446.1985	0.165	892397	keystroke	r	n/a
446.3935	0.135	892787	keystroke	Key.space	n/a
446.6785	0.135	893357	keystroke	m	n/a
446.7985	0.165	893597	keystroke	a	n/a
446.9635	0.165	893927	keystroke	l	n/a
447.1135	0.15	894227	keystroke	e	n/a
447.2635	0.135	894527	keystroke	Key.space	n/a
447.5635	0.15	895127	keystroke	r	n/a
447.6385	0.18	895277	keystroke	e	n/a
447.8635	0.12	895727	keystroke	p	n/a
448.1035	0.15	896207	keystroke	l	n/a
448.2385	0.15	896477	keystroke	a	n/a
448.5085	0.15	897017	keystroke	c	n/a
448.7785	0.18	897557	keystroke	e	n/a
448.8535	0.135	897707	keystroke	Key.space	n/a
449.2285	0.18	898457	keystroke	c	n/a
449.3485	0.135	898697	keystroke	o	n/a
449.6035	0.075	899207	keystroke	m	n/a
449.7685	0.135	899537	keystroke	m	n/a
449.9935	0.12	899987	keystroke	i	n/a
450.2625	0.136	900525	keystroke	t	n/a
450.5635	0.12	901127	keystroke	m	n/a
450.6685	0.15	901337	keystroke	e	n/a
450.8035	0.15	901607	keystroke	n	n/a
450.9385	0.12	901877	keystroke	t	n/a
451.1485	0.18	902297	keystroke	s	n/a
451.2975	0.121	902595	keystroke	Key.enter	n/a
451.4325	9.6105	902865	prompt	n/a	address apparatus therapist workforce\n
452.1685	0.075	904337	keystroke	a	n/a
452.2575	0.03	904515	keystroke	d	n/a
452.3635	0.135	904727	keystroke	d	n/a
452.5585	0.15	905117	keystroke	r	n/a
452.7385	0.165	905477	keystroke	e	n/a
453.0225	0.091	906045	keystroke	s	n/a
453.2035	0.149	906407	keystroke	s	n/a
453.3075	0.135	906615	keystroke	Key.space	n/a
453.5625	0.15	907125	keystroke	a	n/a
453.6975	0.1205	907395	keystroke	p	n/a
453.848	0.15	907696	keystroke	p	n/a
454.3735	0.15	908747	keystroke	a	n/a
454.8385	0.09	909677	keystroke	r	n/a
455.0335	0.15	910067	keystroke	a	n/a
455.6335	0.135	911267	keystroke	t	n/a
455.9335	0.12	911867	keystroke	u	n/a
456.3835	0.15	912767	keystroke	s	n/a
456.5185	0.1495	913037	keystroke	Key.space	n/a
456.773	0.12	913546	keystroke	t	n/a
457.043	0.135	914086	keystroke	h	n/a
457.193	0.225	914386	keystroke	e	n/a
457.388	0.18	914776	keystroke	r	n/a
457.613	0.135	915226	keystroke	a	n/a
457.778	0.135	915556	keystroke	p	n/a
457.988	0.18	915976	keystroke	i	n/a
458.153	0.165	916306	keystroke	s	n/a
458.408	0.165	916816	keystroke	t	n/a
458.783	0.18	917566	keystroke	Key.space	n/a
459.158	0.165	918316	keystroke	w	n/a
459.263	0.18	918526	keystroke	o	n/a
459.383	0.225	918766	keystroke	r	n/a
459.578	0.135	919156	keystroke	k	n/a
459.953	0.165	919906	keystroke	f	n/a
460.073	0.135	920146	keystroke	o	n/a
460.223	0.15	920446	keystroke	r	n/a
460.523	0.135	921046	keystroke	c	n/a
460.763	0.165	921526	keystroke	e	n/a
460.883	0.15	921766	keystroke	Key.enter	n/a
461.0475	12.805	922095	prompt	n/a	tension image optimization indianapolis\n
461.858	0.135	923716	keystroke	t	n/a
462.008	0.15	924016	keystroke	e	n/a
462.173	0.15	924346	keystroke	n	n/a
462.338	0.195	924676	keystroke	s	n/a
462.473	0.195	924946	keystroke	i	n/a
462.683	0.105	925366	keystroke	n	n/a
462.998	0.105	925996	keystroke	Key.backspace	n/a
463.2535	0.1645	926507	keystroke	o	n/a
463.463	0.1655	926926	keystroke	n	n/a
463.8835	0.135	927767	keystroke	Key.space	n/a
464.2735	0.12	928547	keystroke	i	n/a
464.4685	0.18	928937	keystroke	m	n/a
464.6335	0.195	929267	keystroke	a	n/a
464.7385	0.18	929477	keystroke	g	n/a
464.9035	0.195	929807	keystroke	e	n/a
465.0835	0.15	930167	keystroke	Key.space	n/a
465.4435	0.21	930887	keystroke	o	n/a
465.6085	0.135	931217	keystroke	p	n/a
465.8035	0.165	931607	keystroke	t	n/a
465.9385	0.12	931877	keystroke	i	n/a
466.5535	0.165	933107	keystroke	m	n/a
467.0785	0.15	934157	keystroke	i	n/a
467.4535	0.12	934907	keystroke	z	n/a
467.6785	0.12	935357	keystroke	a	n/a
467.7985	0.225	935597	keystroke	t	n/a
467.9035	0.3	935807	keystroke	i	n/a
468.0085	0.21	936017	keystroke	o	n/a
468.1585	0.15	936317	keystroke	n	n/a
468.6535	0.12	937307	keystroke	Key.space	n/a
468.9535	0.18	937907	keystroke	i	n/a
469.1185	0.165	938237	keystroke	n	n/a
469.838	0.09	939676	keystroke	d	n/a
469.913	0.1355	939826	keystroke	i	n/a
470.138	0.12	940276	keystroke	a	n/a
470.363	0.135	940726	keystroke	n	n/a
471.3985	0.12	942797	keystroke	a	n/a
471.938	0.12	943876	keystroke	p	n/a
472.133	0.12	944266	keystroke	o	n/a
472.343	0.1355	944686	keystroke	l	n/a
472.5535	0.195	945107	keystroke	o	n/a
473.0035	0.105	946007	keystroke	Key.backspace	n/a
473.2735	0.165	946547	keystroke	i	n/a
473.4685	0.195	946937	keystroke	s	n/a
473.6935	0.15	947387	keystroke	Key.enter	n/a
473.858	7.5765	947716	prompt	n/a	tracker spray headers picnic\n
474.5785	0.12	949157	keystroke	t	n/a
474.7735	0.21	949547	keystroke	r	n/a
474.9385	0.12	949877	keystroke	a	n/a
475.1485	0.165	950297	keystroke	c	n/a
475.2685	0.1195	950537	keystroke	k	n/a
475.448	0.21	950896	keystroke	e	n/a
475.583	0.18	951166	keystroke	r	n/a
476.0925	0.15	952185	keystroke	Key.space	n/a
476.3925	0.195	952785	keystroke	s	n/a
476.5425	0.135	953085	keystroke	p	n/a
476.7225	0.18	953445	keystroke	r	n/a
476.9925	0.18	953985	keystroke	a	n/a
477.2025	0.1355	954405	keystroke	y	n/a
477.428	0.105	954856	keystroke	Key.space	n/a
477.713	0.135	955426	keystroke	h	n/a
477.788	0.15	955576	keystroke	e	n/a
477.998	0.15	955996	keystroke	a	n/a
478.223	0.165	956446	keystroke	d	n/a
478.613	0.12	957226	keystroke	e	n/a
479.018	0.135	958036	keystroke	r	n/a
479.303	0.15	958606	keystroke	s	n/a
479.468	0.12	958936	keystroke	Key.space	n/a
479.648	0.1195	959296	keystroke	p	n/a
479.8725	0.135	959745	keystroke	i	n/a
480.0225	0.18	960045	keystroke	c	n/a
480.4875	0.195	960975	keystroke	n	n/a
480.6075	0.135	961215	keystroke	i	n/a
481.073	0.165	962146	keystroke	c	n/a
481.298	0.135	962596	keystroke	Key.enter	n/a
481.438	7.5345	962876	prompt	n/a	baptist lease asia vehicle\n
482.4085	0.149	964817	keystroke	b	n/a
482.6185	0.135	965237	keystroke	a	n/a
482.8135	0.164	965627	keystroke	p	n/a
483.0235	0.165	966047	keystroke	t	n/a
483.1285	0.15	966257	keystroke	i	n/a
483.3235	0.165	966647	keystroke	s	n/a
483.5485	0.134	967097	keystroke	t	n/a
483.7875	0.135	967575	keystroke	Key.space	n/a
484.0285	0.149	968057	keystroke	l	n/a
484.1325	0.15	968265	keystroke	e	n/a
484.3125	0.15	968625	keystroke	a	n/a
484.4775	0.165	968955	keystroke	s	n/a
484.6125	0.15	969225	keystroke	e	n/a
485.0025	0.1505	970005	keystroke	Key.space	n/a
485.258	0.135	970516	keystroke	a	n/a
485.423	0.195	970846	keystroke	s	n/a
485.588	0.15	971176	keystroke	i	n/a
485.768	0.165	971536	keystroke	a	n/a
486.113	0.135	972226	keystroke	Key.space	n/a
486.503	0.09	973006	keystroke	h	n/a
486.818	0.135	973636	keystroke	Key.backspace	n/a
486.998	0.03	973996	keystroke	b	n/a
487.358	0.15	974716	keystroke	Key.backspace	n/a
487.463	0.18	974926	keystroke	v	n/a
487.8075	0.15	975615	keystroke	e	n/a
487.9875	0.225	975975	keystroke	h	n/a
488.1225	0.135	976245	keystroke	i	n/a
488.3175	0.15	976635	keystroke	c	n/a
488.4825	0.15	976965	keystroke	l	n/a
488.6475	0.15	977295	keystroke	e	n/a
488.8125	0.15	977625	keystroke	Key.enter	n/a
488.9815	11.151	977963	prompt	n/a	bidding manufacturing forestry efficiently\n
489.8925	0.165	979785	keystroke	b	n/a
490.1175	0.15	980235	keystroke	i	n/a
490.3125	0.105	980625	keystroke	d	n/a
490.508	0.15	981016	keystroke	d	n/a
490.583	0.165	981166	keystroke	i	n/a
490.7325	0.15	981465	keystroke	n	n/a
490.8975	0.135	981795	keystroke	g	n/a
491.453	0.15	982906	keystroke	Key.space	n/a
491.873	0.165	983746	keystroke	m	n/a
492.053	0.15	984106	keystroke	a	n/a
492.233	0.135	984466	keystroke	n	n/a
492.473	0.135	984946	keystroke	u	n/a
493.118	0.195	986236	keystroke	f	n/a
493.253	0.135	986506	keystroke	a	n/a
493.493	0.135	986986	keystroke	c	n/a
493.748	0.15	987496	keystroke	t	n/a
493.913	0.1495	987826	keystroke	u	n/a
494.2575	0.165	988515	keystroke	r	n/a
494.3625	0.135	988725	keystroke	i	n/a
494.5425	0.1655	989085	keystroke	n	n/a
494.693	0.165	989386	keystroke	g	n/a
494.918	0.135	989836	keystroke	Key.space	n/a
495.353	0.165	990706	keystroke	f	n/a
495.488	0.15	990976	keystroke	o	n/a
495.623	0.18	991246	keystroke	r	n/a
495.833	0.135	991666	keystroke	e	n/a
496.088	0.165	992176	keystroke	s	n/a
496.223	0.135	992446	keystroke	t	n/a
496.448	0.195	992896	keystroke	r	n/a
496.538	0.135	993076	keystroke	y	n/a
496.868	0.15	993736	keystroke	Key.space	n/a
497.138	0.12	994276	keystroke	e	n/a
497.4525	0.045	994905	keystroke	f	n/a
497.5125	0.15	995025	keystroke	f	n/a
497.5875	0.105	995175	keystroke	i	n/a
497.7825	0.225	995565	keystroke	c	n/a
497.8875	0.15	995775	keystroke	i	n/a
498.3975	0.165	996795	keystroke	e	n/a
498.5175	0.15	997035	keystroke	n	n/a
498.6825	0.135	997365	keystroke	t	n/a
498.9825	0.135	997965	keystroke	l	n/a
499.2825	0.1055	998565	keystroke	y	n/a
499.9575	0.165	999915	keystroke	Key.enter	n/a
500.1385	9.744	1000277	prompt	n/a	highest supplements nextel reach\n
501.2025	0.165	1002405	keystroke	h	n/a
501.3685	0.135	1002737	keystroke	e	n/a
501.7125	0.121	1003425	keystroke	i	n/a
501.9975	0.075	1003995	keystroke	Key.backspace	n/a
502.1475	0.106	1004295	keystroke	Key.backspace	n/a
502.3735	0.12	1004747	keystroke	i	n/a
502.4485	0.194	1004897	keystroke	g	n/a
502.5985	0.1345	1005197	keystroke	h	n/a
502.7935	0.164	1005587	keystroke	e	n/a
503.1085	0.21	1006217	keystroke	s	n/a
503.2575	0.151	1006515	keystroke	t	n/a
503.7085	0.135	1007417	keystroke	Key.space	n/a
504.0235	0.18	1008047	keystroke	s	n/a
504.1285	0.119	1008257	keystroke	u	n/a
504.3235	0.09	1008647	keystroke	p	n/a
504.4875	0.1205	1008975	keystroke	p	n/a
504.683	0.15	1009366	keystroke	l	n/a
504.848	0.165	1009696	keystroke	e	n/a
505.028	0.135	1010056	keystroke	m	n/a
505.148	0.18	1010296	keystroke	e	n/a
505.268	0.15	1010536	keystroke	n	n/a
505.358	0.135	1010716	keystroke	t	n/a
505.598	0.165	1011196	keystroke	s	n/a
505.793	0.15	1011586	keystroke	Key.space	n/a
506.138	0.135	1012276	keystroke	n	n/a
506.318	0.165	1012636	keystroke	e	n/a
506.648	0.015	1013296	keystroke	s	n/a
506.858	0.12	1013716	keystroke	x	n/a
507.158	0.09	1014316	keystroke	Key.backspace	n/a
507.323	0.12	1014646	keystroke	Key.backspace	n/a
507.398	0.105	1014796	keystroke	x	n/a
507.638	0.21	1015276	keystroke	t	n/a
507.833	0.09	1015666	keystroke	e	n/a
508.343	0.075	1016686	keystroke	l	n/a
508.553	0.135	1017106	keystroke	Key.space	n/a
508.808	0.165	1017616	keystroke	r	n/a
508.883	0.135	1017766	keystroke	e	n/a
509.093	0.165	1018186	keystroke	a	n/a
509.363	0.195	1018726	keystroke	c	n/a
509.498	0.12	1018996	keystroke	h	n/a
509.738	0.135	1019476	keystroke	Key.enter	n/a
509.887	5.882	1019774	prompt	n/a	mercy filters sudden fast\n
510.518	0.135	1021036	keystroke	m	n/a
510.593	0.2545	1021186	keystroke	e	n/a
510.7575	0.1505	1021515	keystroke	r	n/a
511.0725	0.21	1022145	keystroke	c	n/a
511.2525	0.195	1022505	keystroke	y	n/a
511.3575	0.165	1022715	keystroke	Key.space	n/a
511.7325	0.195	1023465	keystroke	f	n/a
511.8675	0.105	1023735	keystroke	i	n/a
512.0785	0.105	1024157	keystroke	l	n/a
512.1525	0.135	1024305	keystroke	t	n/a
512.3475	0.18	1024695	keystroke	e	n/a
512.4675	0.15	1024935	keystroke	r	n/a
512.7675	0.18	1025535	keystroke	s	n/a
512.9625	0.12	1025925	keystroke	Key.space	n/a
513.2175	0.18	1026435	keystroke	s	n/a
513.3525	0.135	1026705	keystroke	u	n/a
513.5775	0.09	1027155	keystroke	d	n/a
513.7425	0.135	1027485	keystroke	d	n/a
514.1025	0.03	1028205	keystroke	e	n/a
514.1175	0.105	1028235	keystroke	n	n/a
514.4325	0.12	1028865	keystroke	Key.space	n/a
514.6125	0.225	1029225	keystroke	f	n/a
514.8075	0.12	1029615	keystroke	a	n/a
514.8825	0.21	1029765	keystroke	s	n/a
515.1075	0.135	1030215	keystroke	t	n/a
515.6475	0.12	1031295	keystroke	Key.enter	n/a
515.772	9.6655	1031544	prompt	n/a	meetings relocation cork cemetery\n
516.4875	0.15	1032975	keystroke	m	n/a
516.5925	0.165	1033185	keystroke	e	n/a
517.1475	0.135	1034295	keystroke	e	n/a
517.4025	0.165	1034805	keystroke	t	n/a
517.5525	0.1505	1035105	keystroke	i	n/a
517.808	0.15	1035616	keystroke	n	n/a
517.943	0.135	1035886	keystroke	g	n/a
518.168	0.12	1036336	keystroke	s	n/a
518.273	0.105	1036546	keystroke	Key.space	n/a
518.468	0.12	1036936	keystroke	r	n/a
518.498	0.165	1036996	keystroke	e	n/a
518.723	0.105	1037446	keystroke	l	n/a
518.918	0.135	1037836	keystroke	o	n/a
519.083	0.1645	1038166	keystroke	c	n/a
519.3375	0.15	1038675	keystroke	a	n/a
519.4725	0.21	1038945	keystroke	t	n/a
519.5925	0.315	1039185	keystroke	i	n/a
519.6975	0.225	1039395	keystroke	o	n/a
519.8325	0.15	1039665	keystroke	n	n/a
520.4775	0.165	1040955	keystroke	Key.space	n/a
520.6575	0.195	1041315	keystroke	c	n/a
520.7775	0.15	1041555	keystroke	o	n/a
520.9725	0.15	1041945	keystroke	r	n/a
521.2425	0.1055	1042485	keystroke	k	n/a
521.633	0.12	1043266	keystroke	Key.space	n/a
521.8275	0.1205	1043655	keystroke	c	n/a
522.083	0.135	1044166	keystroke	e	n/a
522.203	0.135	1044406	keystroke	m	n/a
523.463	0.135	1046926	keystroke	e	n/a
523.658	0.105	1047316	keystroke	t	n/a
524.258	0.21	1048516	keystroke	e	n/a
524.438	0.164	1048876	keystroke	r	n/a
524.812	0.135	1049624	keystroke	y	n/a
525.307	0.12	1050614	keystroke	Key.enter	n/a
525.442	6.8355	1050884	prompt	n/a	zdnet plus involve behavior\n
526.4475	0.135	1052895	keystroke	z	n/a
526.6575	0.18	1053315	keystroke	d	n/a
526.8975	0.18	1053795	keystroke	n	n/a
527.0475	0.2405	1054095	keystroke	e	n/a
527.2725	0.1505	1054545	keystroke	t	n/a
527.558	0.135	1055116	keystroke	Key.space	n/a
527.798	0.15	1055596	keystroke	p	n/a
528.053	0.255	1056106	keystroke	l	n/a
528.293	0.1495	1056586	keystroke	u	n/a
528.4725	0.195	1056945	keystroke	s	n/a
528.6075	0.165	1057215	keystroke	Key.space	n/a
528.8175	0.165	1057635	keystroke	i	n/a
528.9675	0.165	1057935	keystroke	n	n/a
529.2375	0.18	1058475	keystroke	v	n/a
529.3275	0.135	1058655	keystroke	o	n/a
529.5675	0.135	1059135	keystroke	l	n/a
529.7925	0.165	1059585	keystroke	v	n/a
530.033	0.15	1060066	keystroke	e	n/a
530.153	0.135	1060306	keystroke	Key.space	n/a
530.483	0.12	1060966	keystroke	b	n/a
530.693	0.165	1061386	keystroke	e	n/a
530.828	0.165	1061656	keystroke	h	n/a
531.008	0.15	1062016	keystroke	a	n/a
531.353	0.165	1062706	keystroke	v	n/a
531.578	0.165	1063156	keystroke	i	n/a
531.773	0.165	1063546	keystroke	o	n/a
531.953	0.21	1063906	keystroke	r	n/a
532.118	0.15	1064236	keystroke	Key.enter	n/a
532.282	8.35	1064564	prompt	n/a	footwear cole concern train\n
533.093	0.18	1066186	keystroke	f	n/a
533.243	0.12	1066486	keystroke	o	n/a
533.423	0.15	1066846	keystroke	o	n/a
533.543	0.135	1067086	keystroke	d	n/a
533.813	0.225	1067626	keystroke	w	n/a
534.2025	0.075	1068405	keystroke	Key.backspace	n/a
534.3825	0.12	1068765	keystroke	Key.backspace	n/a
534.7125	0.165	1069425	keystroke	t	n/a
534.9975	0.285	1069995	keystroke	w	n/a
535.4025	0.225	1070805	keystroke	e	n/a
535.7025	0.195	1071405	keystroke	a	n/a
535.8525	0.195	1071705	keystroke	r	n/a
536.1225	0.15	1072245	keystroke	Key.space	n/a
536.3925	0.1655	1072785	keystroke	c	n/a
536.4525	0.1205	1072905	keystroke	o	n/a
536.678	0.1645	1073356	keystroke	l	n/a
536.813	0.1495	1073626	keystroke	e	n/a
537.0075	0.15	1074015	keystroke	Key.space	n/a
537.2175	0.1795	1074435	keystroke	c	n/a
537.3075	0.1495	1074615	keystroke	o	n/a
537.472	0.151	1074944	keystroke	n	n/a
538.5825	0.1195	1077165	keystroke	c	n/a
538.823	0.195	1077646	keystroke	e	n/a
538.913	0.165	1077826	keystroke	r	n/a
539.167	0.225	1078334	keystroke	n	n/a
539.332	0.18	1078664	keystroke	Key.space	n/a
539.6025	0.12	1079205	keystroke	t	n/a
539.8125	0.18	1079625	keystroke	r	n/a
539.9475	0.135	1079895	keystroke	a	n/a
540.0525	0.21	1080105	keystroke	i	n/a
540.1875	0.18	1080375	keystroke	n	n/a
540.4425	0.18	1080885	keystroke	Key.enter	n/a
540.6365	10.106	1081273	prompt	n/a	understanding necessity purchasing away\n
541.328	0.12	1082656	keystroke	u	n/a
541.568	0.165	1083136	keystroke	n	n/a
541.718	0.15	1083436	keystroke	d	n/a
541.9875	0.21	1083975	keystroke	e	n/a
542.1225	0.135	1084245	keystroke	r	n/a
542.3325	0.21	1084665	keystroke	s	n/a
542.4675	0.18	1084935	keystroke	t	n/a
542.7075	0.18	1085415	keystroke	a	n/a
542.8725	0.15	1085745	keystroke	n	n/a
543.0975	0.18	1086195	keystroke	d	n/a
543.2325	0.15	1086465	keystroke	i	n/a
543.4275	0.18	1086855	keystroke	n	n/a
543.833	0.165	1087666	keystroke	g	n/a
544.043	0.15	1088086	keystroke	Key.space	n/a
544.418	0.15	1088836	keystroke	n	n/a
544.523	0.135	1089046	keystroke	e	n/a
544.898	0.134	1089796	keystroke	c	n/a
545.153	0.135	1090306	keystroke	e	n/a
545.377	0.196	1090754	keystroke	s	n/a
545.723	0.18	1091446	keystroke	s	n/a
545.873	0.164	1091746	keystroke	i	n/a
546.052	0.196	1092104	keystroke	t	n/a
546.233	0.195	1092466	keystroke	y	n/a
546.398	0.135	1092796	keystroke	Key.space	n/a
546.683	0.18	1093366	keystroke	p	n/a
546.848	0.135	1093696	keystroke	u	n/a
547.223	0.165	1094446	keystroke	r	n/a
547.538	0.195	1095076	keystroke	c	n/a
547.657	0.165	1095314	keystroke	h	n/a
547.853	0.164	1095706	keystroke	a	n/a
547.973	0.119	1095946	keystroke	n	n/a
548.347	0.09	1096694	keystroke	Key.backspace	n/a
548.453	0.195	1096906	keystroke	s	n/a
548.617	0.136	1097234	keystroke	i	n/a
548.767	0.165	1097534	keystroke	n	n/a
548.933	0.1795	1097866	keystroke	g	n/a
549.1725	0.15	1098345	keystroke	Key.space	n/a
549.6225	0.06	1099245	keystroke	a	n/a
549.8925	0.24	1099785	keystroke	w	n/a
550.0275	0.18	1100055	keystroke	a	n/a
550.2225	0.135	1100445	keystroke	y	n/a
550.5825	0.15	1101165	keystroke	Key.enter	n/a
550.7465	9.0255	1101493	prompt	n/a	comparative cookie televisions decor\n
551.5125	0.21	1103025	keystroke	c	n/a
551.6475	0.15	1103295	keystroke	o	n/a
551.827	0.151	1103654	keystroke	m	n/a
551.9925	0.15	1103985	keystroke	p	n/a
552.1125	0.15	1104225	keystroke	a	n/a
552.2175	0.195	1104435	keystroke	r	n/a
552.3975	0.135	1104795	keystroke	a	n/a
552.5625	0.15	1105125	keystroke	t	n/a
552.6975	0.1805	1105395	keystroke	i	n/a
552.893	0.27	1105786	keystroke	v	n/a
553.088	0.195	1106176	keystroke	e	n/a
553.163	0.134	1106326	keystroke	Key.space	n/a
553.522	0.24	1107044	keystroke	c	n/a
553.688	0.06	1107376	keystroke	o	n/a
553.852	0.121	1107704	keystroke	o	n/a
554.032	0.181	1108064	keystroke	k	n/a
554.423	0.134	1108846	keystroke	i	n/a
554.602	0.195	1109204	keystroke	e	n/a
554.962	0.135	1109924	keystroke	Key.space	n/a
555.442	0.18	1110884	keystroke	t	n/a
555.592	0.15	1111184	keystroke	e	n/a
555.757	0.151	1111514	keystroke	l	n/a
555.847	0.1505	1111694	keystroke	e	n/a
556.2375	0.06	1112475	keystroke	v	n/a
556.3425	0.135	1112685	keystroke	i	n/a
556.5375	0.15	1113075	keystroke	d	n/a
556.6425	0.06	1113285	keystroke	i	n/a
556.9275	0.09	1113855	keystroke	Key.backspace	n/a
557.0925	0.105	1114185	keystroke	Key.backspace	n/a
557.1825	0.18	1114365	keystroke	s	n/a
557.3325	0.18	1114665	keystroke	i	n/a
557.5725	0.165	1115145	keystroke	o	n/a
557.7975	0.135	1115595	keystroke	n	n/a
558.2475	0.18	1116495	keystroke	s	n/a
558.4875	0.12	1116975	keystroke	Key.space	n/a
558.6825	0.12	1117365	keystroke	d	n/a
558.9075	0.09	1117815	keystroke	e	n/a
559.1325	0.18	1118265	keystroke	c	n/a
559.2225	0.15	1118445	keystroke	o	n/a
559.4475	0.18	1118895	keystroke	r	n/a
559.6125	0.15	1119225	keystroke	Key.enter	n/a
559.7765	9.446	1119553	prompt	n/a	worldwide driven punishment motors\n
560.6175	0.225	1121235	keystroke	w	n/a
560.7225	0.15	1121445	keystroke	o	n/a
560.8875	0.195	1121775	keystroke	r	n/a
561.0675	0.105	1122135	keystroke	k	n/a
561.4275	0.105	1122855	keystroke	Key.backspace	n/a
561.7725	0.06	1123545	keystroke	l	n/a
562.5675	0.15	1125135	keystroke	d	n/a
562.9425	0.135	1125885	keystroke	w	n/a
563.0175	0.15	1126035	keystroke	i	n/a
563.3775	0.135	1126755	keystroke	d	n/a
563.6325	0.15	1127265	keystroke	e	n/a
563.7375	0.135	1127475	keystroke	Key.space	n/a
563.9925	0.18	1127985	keystroke	d	n/a
564.1875	0.18	1128375	keystroke	r	n/a
564.3225	0.12	1128645	keystroke	i	n/a
564.5025	0.21	1129005	keystroke	v	n/a
564.6975	0.21	1129395	keystroke	e	n/a
564.8475	0.225	1129695	keystroke	n	n/a
564.9975	0.1645	1129995	keystroke	Key.space	n/a
565.192	0.195	1130384	keystroke	p	n/a
565.312	0.15	1130624	keystroke	u	n/a
565.927	0.225	1131854	keystroke	n	n/a
566.137	0.12	1132274	keystroke	i	n/a
566.317	0.18	1132634	keystroke	s	n/a
566.527	0.135	1133054	keystroke	h	n/a
566.8275	0.15	1133655	keystroke	m	n/a
566.9475	0.165	1133895	keystroke	e	n/a
567.0975	0.15	1134195	keystroke	n	n/a
567.2175	0.164	1134435	keystroke	t	n/a
567.7275	0.119	1135455	keystroke	Key.space	n/a
567.9675	0.2095	1135935	keystroke	m	n/a
568.0575	0.165	1136115	keystroke	o	n/a
568.2825	0.18	1136565	keystroke	t	n/a
568.4025	0.15	1136805	keystroke	o	n/a
568.5815	0.166	1137163	keystroke	r	n/a
568.8525	0.21	1137705	keystroke	s	n/a
569.0465	0.166	1138093	keystroke	Key.enter	n/a
569.227	9.79	1138454	prompt	n/a	nitrogen exposed costs problems\n
570.097	0.12	1140194	keystroke	n	n/a
570.292	0.135	1140584	keystroke	i	n/a
570.547	0.15	1141094	keystroke	t	n/a
570.652	0.135	1141304	keystroke	o	n/a
570.832	0.1655	1141664	keystroke	r	n/a
571.2975	0.06	1142595	keystroke	Key.backspace	n/a
571.4325	0.12	1142865	keystroke	Key.backspace	n/a
571.5375	0.18	1143075	keystroke	r	n/a
571.7175	0.135	1143435	keystroke	o	n/a
572.1075	0.1645	1144215	keystroke	g	n/a
572.332	0.21	1144664	keystroke	e	n/a
572.452	0.225	1144904	keystroke	n	n/a
572.587	0.165	1145174	keystroke	Key.space	n/a
572.737	0.135	1145474	keystroke	e	n/a
573.007	0.18	1146014	keystroke	x	n/a
573.097	0.15	1146194	keystroke	p	n/a
573.322	0.18	1146644	keystroke	o	n/a
573.472	0.195	1146944	keystroke	s	n/a
573.922	0.135	1147844	keystroke	e	n/a
574.147	0.15	1148294	keystroke	d	n/a
574.447	0.15	1148894	keystroke	Key.space	n/a
574.777	0.1505	1149554	keystroke	x	n/a
574.8825	0.075	1149765	keystroke	o	n/a
575.1375	0.09	1150275	keystroke	Key.backspace	n/a
575.3025	0.12	1150605	keystroke	Key.backspace	n/a
575.4075	0.18	1150815	keystroke	c	n/a
575.5575	0.15	1151115	keystroke	o	n/a
575.7075	0.255	1151415	keystroke	s	n/a
575.8875	0.18	1151775	keystroke	t	n/a
576.2325	0.165	1152465	keystroke	s	n/a
576.4275	0.165	1152855	keystroke	Key.space	n/a
576.7875	0.105	1153575	keystroke	p	n/a
576.9825	0.135	1153965	keystroke	o	n/a
577.3875	0.105	1154775	keystroke	Key.backspace	n/a
577.5075	0.165	1155015	keystroke	r	n/a
577.6425	0.15	1155285	keystroke	o	n/a
578.0625	0.12	1156125	keystroke	b	n/a
578.1675	0.15	1156335	keystroke	l	n/a
578.3025	0.165	1156605	keystroke	e	n/a
578.4225	0.15	1156845	keystroke	m	n/a
578.6325	0.18	1157265	keystroke	s	n/a
578.8875	0.12	1157775	keystroke	Key.enter	n/a
579.0215	8.5005	1158043	prompt	n/a	filed beginning concerns sufficient\n
579.8625	0.225	1159725	keystroke	f	n/a
579.9825	0.1495	1159965	keystroke	i	n/a
580.2075	0.165	1160415	keystroke	l	n/a
580.2975	0.15	1160595	keystroke	e	n/a
580.5525	0.18	1161105	keystroke	d	n/a
580.6725	0.135	1161345	keystroke	Key.space	n/a
581.0625	0.135	1162125	keystroke	b	n/a
581.3015	0.1355	1162603	keystroke	e	n/a
581.542	0.1505	1163084	keystroke	g	n/a
581.6175	0.09	1163235	keystroke	i	n/a
581.8275	0.075	1163655	keystroke	n	n/a
582.0075	0.12	1164015	keystroke	n	n/a
582.0825	0.21	1164165	keystroke	i	n/a
582.2175	0.135	1164435	keystroke	n	n/a
582.3075	0.18	1164615	keystroke	g	n/a
582.4875	0.12	1164975	keystroke	Key.space	n/a
582.7875	0.075	1165575	keystroke	b	n/a
583.1015	0.135	1166203	keystroke	Key.backspace	n/a
583.2075	0.18	1166415	keystroke	c	n/a
583.3725	0.179	1166745	keystroke	o	n/a
583.8065	0.136	1167613	keystroke	n	n/a
584.0465	0.106	1168093	keystroke	c	n/a
584.2875	0.21	1168575	keystroke	e	n/a
584.4075	0.164	1168815	keystroke	r	n/a
584.6325	0.165	1169265	keystroke	n	n/a
584.8275	0.134	1169655	keystroke	s	n/a
585.1715	0.12	1170343	keystroke	Key.space	n/a
585.4725	0.149	1170945	keystroke	s	n/a
585.5915	0.135	1171183	keystroke	u	n/a
585.7715	0.135	1171543	keystroke	f	n/a
585.9525	0.149	1171905	keystroke	f	n/a
586.0565	0.135	1172113	keystroke	i	n/a
586.2215	0.166	1172443	keystroke	c	n/a
586.6265	0.12	1173253	keystroke	i	n/a
586.8065	0.18	1173613	keystroke	e	n/a
586.9565	0.151	1173913	keystroke	n	n/a
587.1365	0.18	1174273	keystroke	t	n/a
587.3465	0.165	1174693	keystroke	Key.enter	n/a
587.528	6.706	1175056	prompt	n/a	optional scholar forming indoor\n
588.277	0.21	1176554	keystroke	o	n/a
588.427	0.165	1176854	keystroke	p	n/a
588.593	0.194	1177186	keystroke	t	n/a
588.682	0.24	1177364	keystroke	i	n/a
588.817	0.21	1177634	keystroke	o	n/a
588.997	0.165	1177994	keystroke	n	n/a
589.237	0.165	1178474	keystroke	a	n/a
589.342	0.15	1178684	keystroke	l	n/a
589.777	0.135	1179554	keystroke	Key.space	n/a
590.167	0.165	1180334	keystroke	s	n/a
590.437	0.21	1180874	keystroke	c	n/a
590.542	0.225	1181084	keystroke	h	n/a
590.677	0.135	1181354	keystroke	o	n/a
590.9015	0.1655	1181803	keystroke	l	n/a
591.037	0.1645	1182074	keystroke	a	n/a
591.1715	0.1655	1182343	keystroke	r	n/a
591.3065	0.1205	1182613	keystroke	Key.space	n/a
591.547	0.18	1183094	keystroke	f	n/a
591.697	0.1655	1183394	keystroke	o	n/a
591.8475	0.165	1183695	keystroke	r	n/a
592.0425	0.195	1184085	keystroke	m	n/a
592.2225	0.21	1184445	keystroke	i	n/a
592.3575	0.195	1184715	keystroke	n	n/a
592.4925	0.165	1184985	keystroke	g	n/a
592.6275	0.134	1185255	keystroke	Key.space	n/a
592.717	0.2095	1185434	keystroke	i	n/a
592.9115	0.166	1185823	keystroke	n	n/a
593.5115	0.181	1187023	keystroke	d	n/a
593.5865	0.12	1187173	keystroke	o	n/a
593.7825	0.149	1187565	keystroke	o	n/a
593.8875	0.2095	1187775	keystroke	r	n/a
594.0665	0.1655	1188133	keystroke	Key.enter	n/a
594.237	9.7245	1188474	prompt	n/a	properties mini farms where's\n
594.877	0.15	1189754	keystroke	p	n/a
595.057	0.18	1190114	keystroke	r	n/a
595.417	0.09	1190834	keystroke	Key.backspace	n/a
595.717	0.21	1191434	keystroke	r	n/a
595.882	0.06	1191764	keystroke	o	n/a
596.467	0.135	1192934	keystroke	p	n/a
596.887	0.2395	1193774	keystroke	e	n/a
597.037	0.1645	1194074	keystroke	r	n/a
597.2915	0.165	1194583	keystroke	t	n/a
597.3815	0.15	1194763	keystroke	i	n/a
597.5765	0.165	1195153	keystroke	e	n/a
597.8765	0.165	1195753	keystroke	d	n/a
598.2815	0.1655	1196563	keystroke	Key.backspace	n/a
598.357	0.18	1196714	keystroke	s	n/a
598.792	0.165	1197584	keystroke	Key.space	n/a
599.197	0.1655	1198394	keystroke	m	n/a
599.302	0.1505	1198604	keystroke	i	n/a
599.4825	0.224	1198965	keystroke	n	n/a
599.5875	0.149	1199175	keystroke	i	n/a
599.8865	0.12	1199773	keystroke	Key.space	n/a
600.1115	0.225	1200223	keystroke	f	n/a
600.3065	0.15	1200613	keystroke	a	n/a
600.4265	0.24	1200853	keystroke	r	n/a
600.6075	0.18	1201215	keystroke	m	n/a
600.8025	0.179	1201605	keystroke	s	n/a
601.4165	0.12	1202833	keystroke	Key.space	n/a
602.0915	0.195	1204183	keystroke	s	n/a
602.2415	0.12	1204483	keystroke	h	n/a
602.6015	0.105	1205203	keystroke	Key.backspace	n/a
602.7665	0.135	1205533	keystroke	Key.backspace	n/a
602.8415	0.21	1205683	keystroke	w	n/a
603.0215	0.165	1206043	keystroke	h	n/a
603.1265	0.18	1206253	keystroke	e	n/a
603.2465	0.24	1206493	keystroke	r	n/a
603.3815	0.15	1206763	keystroke	e	n/a
603.817	0.135	1207634	keystroke	Key.enter	n/a
603.9675	0.586	1207935	prompt	n/a	feed documentation argue mathematical\n
603.997	0.18	1207994	keystroke	s	n/a
604.462	0.09	1208924	keystroke	Key.enter	n/a
604.5565	11.81	1209113	prompt	n/a	organizer tuner prescribed equivalent\n
606.022	0.06	1212044	keystroke	o	n/a
606.067	0.06	1212134	keystroke	r	n/a
606.322	0.165	1212644	keystroke	g	n/a
606.6065	0.15	1213213	keystroke	a	n/a
606.8625	0.209	1213725	keystroke	n	n/a
606.9965	0.135	1213993	keystroke	i	n/a
607.507	0.1345	1215014	keystroke	z	n/a
607.747	0.15	1215494	keystroke	e	n/a
608.107	0.165	1216214	keystroke	r	n/a
608.317	0.135	1216634	keystroke	Key.space	n/a
608.737	0.165	1217474	keystroke	t	n/a
608.872	0.12	1217744	keystroke	u	n/a
609.0975	0.21	1218195	keystroke	n	n/a
609.2475	0.209	1218495	keystroke	e	n/a
609.3975	0.135	1218795	keystroke	r	n/a
610.3565	0.151	1220713	keystroke	Key.space	n/a
610.8075	0.149	1221615	keystroke	p	n/a
610.9275	0.2245	1221855	keystroke	r	n/a
611.0325	0.1795	1222065	keystroke	e	n/a
611.272	0.21	1222544	keystroke	s	n/a
611.857	0.165	1223714	keystroke	c	n/a
612.142	0.165	1224284	keystroke	r	n/a
612.427	0.15	1224854	keystroke	i	n/a
612.877	0.12	1225754	keystroke	b	n/a
613.117	0.1345	1226234	keystroke	e	n/a
613.3865	0.165	1226773	keystroke	d	n/a
613.6715	0.15	1227343	keystroke	Key.space	n/a
613.9715	0.165	1227943	keystroke	e	n/a
614.2715	0.165	1228543	keystroke	q	n/a
614.4515	0.1505	1228903	keystroke	u	n/a
614.662	0.15	1229324	keystroke	i	n/a
615.052	0.015	1230104	keystroke	v	n/a
615.337	0.12	1230674	keystroke	a	n/a
615.592	0.135	1231184	keystroke	l	n/a
615.697	0.1645	1231394	keystroke	e	n/a
615.8765	0.18	1231753	keystroke	n	n/a
616.0115	0.165	1232023	keystroke	t	n/a
616.1915	0.165	1232383	keystroke	Key.enter	n/a
616.3705	9.731	1232741	prompt	n/a	happened predictions river threats\n
617.0765	0.1505	1234153	keystroke	h	n/a
617.212	0.1195	1234424	keystroke	a	n/a
617.3015	0.105	1234603	keystroke	p	n/a
617.4515	0.15	1234903	keystroke	p	n/a
617.6165	0.165	1235233	keystroke	e	n/a
617.7215	0.12	1235443	keystroke	n	n/a
618.1265	0.12	1236253	keystroke	e	n/a
618.3665	0.15	1236733	keystroke	d	n/a
619.567	0.105	1239134	keystroke	Key.space	n/a
619.897	0.135	1239794	keystroke	p	n/a
