onset	duration	sample	value	key	prompt_text
5.004	8.118	10008	prompt	n/a	the quick brown fox jumps over a lazy dog\n
6.84	0.1835	13680	keystroke_t	t	n/a
6.9275	0.121	13855	keystroke_h	h	n/a
7.0395	0.168	14079	keystroke_e	e	n/a
7.159	0.1355	14318	keystroke_Key.space	Key.space	n/a
7.391	0.184	14782	keystroke_q	q	n/a
7.544	0.127	15088	keystroke_u	u	n/a
7.6155	0.103	15231	keystroke_i	i	n/a
7.791	0.137	15582	keystroke_c	c	n/a
7.9035	0.12	15807	keystroke_k	k	n/a
8.0395	0.1835	16079	keystroke_Key.space	Key.space	n/a
8.208	0.12	16416	keystroke_b	b	n/a
8.335	0.104	16670	keystroke_r	r	n/a
8.839	0.0565	17678	keystroke_o	o	n/a
8.9835	0.12	17967	keystroke_w	w	n/a
9.0795	0.08	18159	keystroke_n	n	n/a
9.1595	0.136	18319	keystroke_Key.space	Key.space	n/a
9.384	0.0875	18768	keystroke_f	f	n/a
9.4475	0.096	18895	keystroke_o	o	n/a
9.6	0.119	19200	keystroke_x	x	n/a
9.679	0.1525	19358	keystroke_Key.space	Key.space	n/a
9.8395	0.064	19679	keystroke_j	j	n/a
9.951	0.0805	19902	keystroke_u	u	n/a
10.1355	0.0875	20271	keystroke_m	m	n/a
10.3355	0.0965	20671	keystroke_p	p	n/a
10.432	0.1355	20864	keystroke_s	s	n/a
10.5115	0.1675	21023	keystroke_Key.space	Key.space	n/a
10.68	0.1035	21360	keystroke_o	o	n/a
10.7675	0.128	21535	keystroke_v	v	n/a
10.9755	0.136	21951	keystroke_e	e	n/a
11.0635	0.168	22127	keystroke_r	r	n/a
11.1595	0.12	22319	keystroke_Key.space	Key.space	n/a
11.3195	0.088	22639	keystroke_a	a	n/a
11.3995	0.1195	22799	keystroke_Key.space	Key.space	n/a
11.56	0.0875	23120	keystroke_l	l	n/a
11.6315	0.0885	23263	keystroke_a	a	n/a
11.911	0.137	23822	keystroke_z	z	n/a
12.0395	0.1835	24079	keystroke_y	y	n/a
12.295	0.1445	24590	keystroke_Key.space	Key.space	n/a
12.568	0.112	25136	keystroke_d	d	n/a
12.672	0.0955	25344	keystroke_o	o	n/a
12.832	0.128	25664	keystroke_g	g	n/a
13.032	0.087	26064	keystroke_Key.enter	Key.enter	n/a
13.127	8.1465	26254	prompt	n/a	plastic computational pole rest\n
13.9755	0.072	27951	keystroke_p	p	n/a
14.176	0.1275	28352	keystroke_l	l	n/a
14.3115	0.136	28623	keystroke_a	a	n/a
14.4395	0.088	28879	keystroke_s	s	n/a
14.6075	0.1125	29215	keystroke_t	t	n/a
14.6795	0.1195	29359	keystroke_i	i	n/a
14.903	0.121	29806	keystroke_c	c	n/a
14.9675	0.144	29935	keystroke_Key.space	Key.space	n/a
15.1355	0.104	30271	keystroke_o	o	n/a
15.3275	0.112	30655	keystroke_m	m	n/a
15.5195	0.104	31039	keystroke_p	p	n/a
15.7595	0.096	31519	keystroke_u	u	n/a
15.88	0.08	31760	keystroke_t	t	n/a
16.1515	0.0635	32303	keystroke_Key.backspace	Key.backspace	n/a
16.3035	0.056	32607	keystroke_Key.backspace	Key.backspace	n/a
16.4555	0.064	32911	keystroke_Key.backspace	Key.backspace	n/a
16.6155	0.056	33231	keystroke_Key.backspace	Key.backspace	n/a
16.7675	0.08	33535	keystroke_Key.backspace	Key.backspace	n/a
16.8875	0.1365	33775	keystroke_c	c	n/a
17.055	0.104	34110	keystroke_o	o	n/a
17.231	0.0965	34462	keystroke_m	m	n/a
17.415	0.104	34830	keystroke_p	p	n/a
17.664	0.096	35328	keystroke_u	u	n/a
17.9755	0.12	35951	keystroke_t	t	n/a
18.3595	0.144	36719	keystroke_a	a	n/a
18.4795	0.1435	36959	keystroke_t	t	n/a
18.6155	0.0875	37231	keystroke_i	i	n/a
18.6635	0.1195	37327	keystroke_o	o	n/a
18.847	0.137	37694	keystroke_n	n	n/a
19.056	0.112	38112	keystroke_a	a	n/a
19.1595	0.128	38319	keystroke_l	l	n/a
19.647	0.1285	39294	keystroke_Key.space	Key.space	n/a
19.824	0.1195	39648	keystroke_p	p	n/a
19.9755	0.1125	39951	keystroke_o	o	n/a
20.2155	0.096	40431	keystroke_l	l	n/a
20.32	0.1115	40640	keystroke_e	e	n/a
20.455	0.1365	40910	keystroke_Key.space	Key.space	n/a
20.5985	0.1375	41197	keystroke_r	r	n/a
20.6635	0.2485	41327	keystroke_e	e	n/a
20.8235	0.1445	41647	keystroke_s	s	n/a
20.9195	0.168	41839	keystroke_t	t	n/a
21.183	0.0885	42366	keystroke_Key.enter	Key.enter	n/a
21.2945	4.7315	42589	prompt	n/a	digest maritime breath moses\n
22.0795	0.0965	44159	keystroke_d	d	n/a
22.183	0.12	44366	keystroke_i	i	n/a
22.368	0.1675	44736	keystroke_g	g	n/a
22.5195	0.256	45039	keystroke_e	e	n/a
22.648	0.1595	45296	keystroke_s	s	n/a
22.7765	0.1665	45553	keystroke_t	t	n/a
22.9115	0.144	45823	keystroke_Key.space	Key.space	n/a
23.1995	0.096	46399	keystroke_m	m	n/a
23.296	0.1355	46592	keystroke_a	a	n/a
23.3835	0.152	46767	keystroke_r	r	n/a
23.487	0.121	46974	keystroke_i	i	n/a
23.6715	0.12	47343	keystroke_t	t	n/a
23.7515	0.0885	47503	keystroke_i	i	n/a
23.8715	0.128	47743	keystroke_m	m	n/a
23.968	0.1435	47936	keystroke_e	e	n/a
24.0795	0.136	48159	keystroke_Key.space	Key.space	n/a
24.4	0.1115	48800	keystroke_b	b	n/a
24.4955	0.144	48991	keystroke_r	r	n/a
24.5675	0.16	49135	keystroke_e	e	n/a
24.68	0.1355	49360	keystroke_a	a	n/a
24.7915	0.128	49583	keystroke_t	t	n/a
24.856	0.103	49712	keystroke_h	h	n/a
24.9755	0.152	49951	keystroke_Key.space	Key.space	n/a
25.2155	0.104	50431	keystroke_m	m	n/a
25.3115	0.1435	50623	keystroke_o	o	n/a
25.448	0.1195	50896	keystroke_s	s	n/a
25.5355	0.1685	51071	keystroke_e	e	n/a
25.672	0.111	51344	keystroke_s	s	n/a
25.9515	0.072	51903	keystroke_Key.enter	Key.enter	n/a
26.0305	8.131	52061	prompt	n/a	joining donations precious contact\n
26.9275	0.12	53855	keystroke_j	j	n/a
27.128	0.135	54256	keystroke_o	o	n/a
27.1915	0.152	54383	keystroke_i	i	n/a
27.559	0.0645	55118	keystroke_i	i	n/a
27.9755	0.072	55951	keystroke_=	=	n/a
28.408	0.0635	56816	keystroke_Key.backspace	Key.backspace	n/a
28.5515	0.08	57103	keystroke_Key.backspace	Key.backspace	n/a
28.864	0.1115	57728	keystroke_n	n	n/a
29.2875	0.1525	58575	keystroke_i	i	n/a
29.424	0.12	58848	keystroke_n	n	n/a
29.536	0.128	59072	keystroke_g	g	n/a
29.647	0.176	59294	keystroke_Key.space	Key.space	n/a
30.023	0.1605	60046	keystroke_d	d	n/a
30.3195	0.104	60639	keystroke_o	o	n/a
30.512	0.1195	61024	keystroke_n	n	n/a
30.72	0.128	61440	keystroke_a	a	n/a
30.8395	0.136	61679	keystroke_t	t	n/a
30.96	0.04	61920	keystroke_i	i	n/a
30.9835	0.112	61967	keystroke_o	o	n/a
31.1115	0.1045	62223	keystroke_n	n	n/a
31.2315	0.104	62463	keystroke_s	s	n/a
31.319	0.1605	62638	keystroke_Key.space	Key.space	n/a
31.6075	0.104	63215	keystroke_p	p	n/a
31.728	0.1435	63456	keystroke_r	r	n/a
31.8795	0.144	63759	keystroke_e	e	n/a
32.1035	0.152	64207	keystroke_c	c	n/a
32.2635	0.152	64527	keystroke_i	i	n/a
32.3755	0.1125	64751	keystroke_o	o	n/a
32.551	0.1205	65102	keystroke_u	u	n/a
32.655	0.0885	65310	keystroke_s	s	n/a
32.7275	0.1675	65455	keystroke_Key.space	Key.space	n/a
32.912	0.103	65824	keystroke_c	c	n/a
32.991	0.089	65982	keystroke_o	o	n/a
33.1355	0.152	66271	keystroke_n	n	n/a
33.2475	0.104	66495	keystroke_t	t	n/a
33.3675	0.1435	66735	keystroke_a	a	n/a
33.5835	0.128	67167	keystroke_c	c	n/a
33.896	0.1035	67792	keystroke_t	t	n/a
34.088	0.0705	68176	keystroke_Key.enter	Key.enter	n/a
34.1655	9.0045	68331	prompt	n/a	massachusetts posting divide conversations\n
34.9275	0.088	69855	keystroke_m	m	n/a
35.0235	0.104	70047	keystroke_a	a	n/a
35.0955	0.1035	70191	keystroke_s	s	n/a
35.287	0.0965	70574	keystroke_s	s	n/a
35.4315	0.1115	70863	keystroke_a	a	n/a
35.639	0.12	71278	keystroke_c	c	n/a
35.7835	0.1355	71567	keystroke_h	h	n/a
35.8875	0.1275	71775	keystroke_u	u	n/a
36.1585	0.0885	72317	keystroke_s	s	n/a
36.3905	0.097	72781	keystroke_e	e	n/a
36.6635	0.1115	73327	keystroke_t	t	n/a
36.8625	0.121	73725	keystroke_t	t	n/a
36.9755	0.152	73951	keystroke_s	s	n/a
37.1505	0.152	74301	keystroke_Key.space	Key.space	n/a
37.36	0.103	74720	keystroke_p	p	n/a
37.4955	0.072	74991	keystroke_r	r	n/a
38.5185	0.073	77037	keystroke_Key.backspace	Key.backspace	n/a
38.7995	0.088	77599	keystroke_o	o	n/a
38.896	0.1035	77792	keystroke_s	s	n/a
38.9995	0.128	77999	keystroke_t	t	n/a
39.0795	0.088	78159	keystroke_i	i	n/a
39.2475	0.144	78495	keystroke_n	n	n/a
39.3435	0.096	78687	keystroke_g	g	n/a
39.4305	0.1765	78861	keystroke_Key.space	Key.space	n/a
39.712	0.0795	79424	keystroke_d	d	n/a
39.8555	0.12	79711	keystroke_i	i	n/a
40.088	0.1105	80176	keystroke_v	v	n/a
40.191	0.1285	80382	keystroke_i	i	n/a
40.4155	0.136	80831	keystroke_d	d	n/a
40.4795	0.192	80959	keystroke_e	e	n/a
40.7345	0.129	81469	keystroke_Key.space	Key.space	n/a
40.9275	0.128	81855	keystroke_c	c	n/a
41.0155	0.088	82031	keystroke_o	o	n/a
41.1905	0.153	82381	keystroke_n	n	n/a
41.399	0.0965	82798	keystroke_v	v	n/a
41.576	0.1675	83152	keystroke_e	e	n/a
41.688	0.1755	83376	keystroke_r	r	n/a
41.8785	0.137	83757	keystroke_s	s	n/a
42.2155	0.104	84431	keystroke_a	a	n/a
42.3195	0.1045	84639	keystroke_t	t	n/a
42.3835	0.119	84767	keystroke_i	i	n/a
42.4625	0.129	84925	keystroke_o	o	n/a
42.5595	0.136	85119	keystroke_n	n	n/a
42.6715	0.088	85343	keystroke_s	s	n/a
43.0865	0.08	86173	keystroke_Key.enter	Key.enter	n/a
43.176	5.594	86352	prompt	n/a	employed reach rooms mutual\n
43.9995	0.088	87999	keystroke_e	e	n/a
44.1035	0.08	88207	keystroke_m	m	n/a
44.2795	0.152	88559	keystroke_p	p	n/a
44.3755	0.144	88751	keystroke_l	l	n/a
44.6155	0.088	89231	keystroke_o	o	n/a
44.9195	0.079	89839	keystroke_y	y	n/a
45.2795	0.128	90559	keystroke_e	e	n/a
45.3835	0.104	90767	keystroke_d	d	n/a
45.5035	0.111	91007	keystroke_Key.space	Key.space	n/a
45.7195	0.2	91439	keystroke_r	r	n/a
45.808	0.1755	91616	keystroke_e	e	n/a
45.9755	0.16	91951	keystroke_a	a	n/a
46.1835	0.12	92367	keystroke_c	c	n/a
46.2555	0.104	92511	keystroke_h	h	n/a
46.3675	0.143	92735	keystroke_Key.space	Key.space	n/a
46.5675	0.136	93135	keystroke_r	r	n/a
46.6795	0.056	93359	keystroke_o	o	n/a
47.0635	0.08	94127	keystroke_o	o	n/a
47.2635	0.112	94527	keystroke_m	m	n/a
47.3905	0.073	94781	keystroke_s	s	n/a
47.5035	0.1275	95007	keystroke_Key.space	Key.space	n/a
47.7115	0.04	95423	keystroke_m	m	n/a
47.8475	0.08	95695	keystroke_u	u	n/a
47.9435	0.112	95887	keystroke_t	t	n/a
48.0475	0.087	96095	keystroke_u	u	n/a
48.1835	0.144	96367	keystroke_a	a	n/a
48.3185	0.121	96637	keystroke_l	l	n/a
48.687	0.0805	97374	keystroke_Key.enter	Key.enter	n/a
48.784	7.4175	97568	prompt	n/a	himself orleans assignment trademark\n
49.503	0.096	99006	keystroke_h	h	n/a
49.6395	0.12	99279	keystroke_i	i	n/a
49.823	0.12	99646	keystroke_m	m	n/a
49.935	0.088	99870	keystroke_s	s	n/a
50.159	0.1765	100318	keystroke_e	e	n/a
50.3035	0.0795	100607	keystroke_l	l	n/a
50.391	0.128	100782	keystroke_f	f	n/a
50.503	0.152	101006	keystroke_Key.space	Key.space	n/a
50.9515	0.0635	101903	keystroke_o	o	n/a
51.127	0.1205	102254	keystroke_r	r	n/a
51.319	0.1125	102638	keystroke_l	l	n/a
51.439	0.136	102878	keystroke_e	e	n/a
51.5915	0.1275	103183	keystroke_a	a	n/a
51.7435	0.1035	103487	keystroke_n	n	n/a
51.847	0.0885	103694	keystroke_s	s	n/a
51.959	0.144	103918	keystroke_Key.space	Key.space	n/a
52.223	0.12	104446	keystroke_a	a	n/a
52.431	0.064	104862	keystroke_s	s	n/a
52.6075	0.064	105215	keystroke_s	s	n/a
52.655	0.0965	105310	keystroke_i	i	n/a
52.895	0.136	105790	keystroke_g	g	n/a
52.9835	0.1035	105967	keystroke_n	n	n/a
53.4235	0.096	106847	keystroke_m	m	n/a
53.5435	0.104	107087	keystroke_e	e	n/a
53.6715	0.136	107343	keystroke_n	n	n/a
53.7915	0.168	107583	keystroke_t	t	n/a
53.9515	0.143	107903	keystroke_Key.space	Key.space	n/a
54.4075	0.104	108815	keystroke_t	t	n/a
54.6315	0.128	109263	keystroke_r	r	n/a
54.7595	0.16	109519	keystroke_a	a	n/a
54.9835	0.136	109967	keystroke_d	d	n/a
55.0795	0.216	110159	keystroke_e	e	n/a
55.4235	0.12	110847	keystroke_m	m	n/a
55.5675	0.136	111135	keystroke_a	a	n/a
55.7195	0.152	111439	keystroke_r	r	n/a
55.8075	0.088	111615	keystroke_k	k	n/a
56.1035	0.095	112207	keystroke_Key.enter	Key.enter	n/a
56.206	6.0435	112412	prompt	n/a	clip doom water apartments\n
56.912	0.143	113824	keystroke_c	c	n/a
56.967	0.096	113934	keystroke_l	l	n/a
57.103	0.0885	114206	keystroke_i	i	n/a
57.319	0.128	114638	keystroke_p	p	n/a
57.439	0.1995	114878	keystroke_Key.space	Key.space	n/a
57.6945	0.1125	115389	keystroke_d	d	n/a
57.7585	0.072	115517	keystroke_o	o	n/a
57.9275	0.0875	115855	keystroke_o	o	n/a
58.0875	0.152	116175	keystroke_m	m	n/a
58.2235	0.136	116447	keystroke_Key.space	Key.space	n/a
58.5115	0.112	117023	keystroke_w	w	n/a
58.7755	0.12	117551	keystroke_a	a	n/a
58.9595	0.1605	117919	keystroke_t	t	n/a
59.112	0.1835	118224	keystroke_e	e	n/a
59.303	0.12	118606	keystroke_r	r	n/a
59.463	0.152	118926	keystroke_Key.space	Key.space	n/a
59.7995	0.1115	119599	keystroke_a	a	n/a
60.151	0.072	120302	keystroke_Key.backspace	Key.backspace	n/a
60.583	0.128	121166	keystroke_a	a	n/a
60.727	0.072	121454	keystroke_p	p	n/a
60.847	0.128	121694	keystroke_a	a	n/a
60.9755	0.144	121951	keystroke_r	r	n/a
61.271	0.136	122542	keystroke_t	t	n/a
61.4635	0.0875	122927	keystroke_m	m	n/a
61.5915	0.079	123183	keystroke_e	e	n/a
61.6785	0.128	123357	keystroke_n	n	n/a
61.743	0.1525	123486	keystroke_t	t	n/a
61.9195	0.1195	123839	keystroke_s	s	n/a
62.183	0.064	124366	keystroke_Key.enter	Key.enter	n/a
62.254	8.947	124508	prompt	n/a	barbara searching starsmerchant trainer\n
62.9835	0.1035	125967	keystroke_b	b	n/a
63.1195	0.159	126239	keystroke_a	a	n/a
63.327	0.1355	126654	keystroke_r	r	n/a
63.447	0.0795	126894	keystroke_a	a	n/a
63.575	0.104	127150	keystroke_b	b	n/a
64.055	0.0715	128110	keystroke_Key.backspace	Key.backspace	n/a
64.2145	0.073	128429	keystroke_Key.backspace	Key.backspace	n/a
64.5275	0.112	129055	keystroke_b	b	n/a
64.5915	0.128	129183	keystroke_a	a	n/a
64.7275	0.096	129455	keystroke_r	r	n/a
64.8315	0.1115	129663	keystroke_a	a	n/a
65.495	0.112	130990	keystroke_Key.space	Key.space	n/a
65.623	0.0965	131246	keystroke_s	s	n/a
65.8795	0.1675	131759	keystroke_e	e	n/a
65.9905	0.144	131981	keystroke_a	a	n/a
66.095	0.144	132190	keystroke_r	r	n/a
66.407	0.1285	132814	keystroke_c	c	n/a
66.4955	0.1275	132991	keystroke_h	h	n/a
66.591	0.112	133182	keystroke_i	i	n/a
66.783	0.152	133566	keystroke_n	n	n/a
66.887	0.152	133774	keystroke_g	g	n/a
66.983	0.1525	133966	keystroke_Key.space	Key.space	n/a
67.103	0.1595	134206	keystroke_s	s	n/a
67.2795	0.087	134559	keystroke_t	t	n/a
67.4555	0.128	134911	keystroke_a	a	n/a
67.647	0.136	135294	keystroke_r	r	n/a
68.1995	0.0715	136399	keystroke_s	s	n/a
68.3425	0.169	136685	keystroke_m	m	n/a
68.599	0.12	137198	keystroke_e	e	n/a
68.9825	0.113	137965	keystroke_r	r	n/a
69.2705	0.153	138541	keystroke_c	c	n/a
69.3345	0.113	138669	keystroke_h	h	n/a
69.5025	0.161	139005	keystroke_a	a	n/a
69.6395	0.12	139279	keystroke_n	n	n/a
69.7275	0.1835	139455	keystroke_t	t	n/a
69.9025	0.1285	139805	keystroke_Key.space	Key.space	n/a
70.135	0.096	140270	keystroke_t	t	n/a
70.367	0.128	140734	keystroke_r	r	n/a
70.503	0.1195	141006	keystroke_a	a	n/a
70.5595	0.095	141119	keystroke_i	i	n/a
70.7195	0.119	141439	keystroke_n	n	n/a
70.8475	0.088	141695	keystroke_e	e	n/a
70.8555	0.1675	141711	keystroke_r	r	n/a
71.079	0.12	142158	keystroke_Key.enter	Key.enter	n/a
71.2055	6.0035	142411	prompt	n/a	flesh cooking assisted report\n
72.0235	0.128	144047	keystroke_f	f	n/a
72.1355	0.1035	144271	keystroke_l	l	n/a
72.255	0.184	144510	keystroke_e	e	n/a
72.391	0.1845	144782	keystroke_s	s	n/a
72.5355	0.111	145071	keystroke_h	h	n/a
72.6475	0.152	145295	keystroke_Key.space	Key.space	n/a
72.9665	0.0485	145933	keystroke_o	o	n/a
73.2945	0.0885	146589	keystroke_Key.backspace	Key.backspace	n/a
73.4475	0.104	146895	keystroke_c	c	n/a
73.6075	0.072	147215	keystroke_o	o	n/a
73.7745	0.0965	147549	keystroke_o	o	n/a
73.8395	0.112	147679	keystroke_k	k	n/a
74.063	0.0805	148126	keystroke_i	i	n/a
74.2465	0.1445	148493	keystroke_n	n	n/a
74.351	0.1355	148702	keystroke_g	g	n/a
74.519	0.1435	149038	keystroke_Key.space	Key.space	n/a
74.767	0.192	149534	keystroke_a	a	n/a
74.9105	0.112	149821	keystroke_s	s	n/a
75.1025	0.128	150205	keystroke_s	s	n/a
75.2635	0.104	150527	keystroke_i	i	n/a
75.399	0.1285	150798	keystroke_s	s	n/a
75.535	0.1365	151070	keystroke_t	t	n/a
75.735	0.176	151470	keystroke_e	e	n/a
75.919	0.112	151838	keystroke_d	d	n/a
76.038	0.129	152076	keystroke_Key.space	Key.space	n/a
76.2635	0.1435	152527	keystroke_r	r	n/a
76.351	0.184	152702	keystroke_e	e	n/a
76.5105	0.105	153021	keystroke_p	p	n/a
76.575	0.1755	153150	keystroke_o	o	n/a
76.7265	0.128	153453	keystroke_r	r	n/a
76.9515	0.1755	153903	keystroke_t	t	n/a
77.119	0.088	154238	keystroke_Key.enter	Key.enter	n/a
77.2135	7.5315	154427	prompt	n/a	thoughts snake subsidiary audio\n
77.8635	0.143	155727	keystroke_t	t	n/a
77.9755	0.1035	155951	keystroke_h	h	n/a
78.095	0.088	156190	keystroke_o	o	n/a
78.2305	0.112	156461	keystroke_u	u	n/a
78.3745	0.104	156749	keystroke_g	g	n/a
78.4625	0.152	156925	keystroke_h	h	n/a
78.6385	0.144	157277	keystroke_t	t	n/a
78.727	0.168	157454	keystroke_s	s	n/a
78.8545	0.1765	157709	keystroke_Key.space	Key.space	n/a
79.039	0.112	158078	keystroke_s	s	n/a
79.207	0.0955	158414	keystroke_n	n	n/a
79.8395	0.1115	159679	keystroke_a	a	n/a
79.967	0.0955	159934	keystroke_k	k	n/a
80.0635	0.1035	160127	keystroke_e	e	n/a
80.199	0.136	160398	keystroke_Key.space	Key.space	n/a
80.431	0.1515	160862	keystroke_s	s	n/a
80.551	0.0965	161102	keystroke_u	u	n/a
80.7595	0.119	161519	keystroke_b	b	n/a
80.887	0.1355	161774	keystroke_s	s	n/a
81.039	0.096	162078	keystroke_i	i	n/a
81.199	0.16	162398	keystroke_d	d	n/a
81.455	0.2245	162910	keystroke_a	a	n/a
81.6795	0.1355	163359	keystroke_r	r	n/a
82.167	0.048	164334	keystroke_Key.backspace	Key.backspace	n/a
82.303	0.0795	164606	keystroke_Key.backspace	Key.backspace	n/a
82.6145	0.0965	165229	keystroke_i	i	n/a
82.7995	0.1275	165599	keystroke_a	a	n/a
82.9025	0.1195	165805	keystroke_r	r	n/a
82.9825	0.1115	165965	keystroke_y	y	n/a
83.167	0.112	166334	keystroke_Key.space	Key.space	n/a
83.471	0.1515	166942	keystroke_a	a	n/a
83.6235	0.0795	167247	keystroke_u	u	n/a
83.719	0.1275	167438	keystroke_d	d	n/a
83.887	0.1675	167774	keystroke_i	i	n/a
84.0225	0.128	168045	keystroke_o	o	n/a
84.6465	0.096	169293	keystroke_Key.enter	Key.enter	n/a
84.7495	8.1785	169499	prompt	n/a	obituaries obligations arbor governmental\n
85.5025	0.0885	171005	keystroke_o	o	n/a
85.727	0.088	171454	keystroke_b	b	n/a
85.9425	0.112	171885	keystroke_i	i	n/a
86.0465	0.1365	172093	keystroke_t	t	n/a
86.2145	0.113	172429	keystroke_u	u	n/a
86.727	0.152	173454	keystroke_a	a	n/a
86.9105	0.136	173821	keystroke_r	r	n/a
87.0625	0.144	174125	keystroke_i	i	n/a
87.1745	0.2005	174349	keystroke_e	e	n/a
87.2785	0.176	174557	keystroke_s	s	n/a
87.375	0.175	174750	keystroke_Key.space	Key.space	n/a
87.5745	0.0955	175149	keystroke_o	o	n/a
87.791	0.1045	175582	keystroke_b	b	n/a
88.0145	0.08	176029	keystroke_l	l	n/a
88.1825	0.12	176365	keystroke_i	i	n/a
88.4705	0.136	176941	keystroke_g	g	n/a
88.903	0.12	177806	keystroke_a	a	n/a
89.055	0.152	178110	keystroke_t	t	n/a
89.127	0.1275	178254	keystroke_i	i	n/a
89.207	0.135	178414	keystroke_o	o	n/a
89.3345	0.12	178669	keystroke_n	n	n/a
89.439	0.095	178878	keystroke_s	s	n/a
89.518	0.176	179036	keystroke_Key.space	Key.space	n/a
89.7185	0.1285	179437	keystroke_a	a	n/a
89.855	0.1195	179710	keystroke_r	r	n/a
89.982	0.0885	179964	keystroke_b	b	n/a
90.167	0.128	180334	keystroke_o	o	n/a
90.271	0.104	180542	keystroke_r	r	n/a
90.382	0.1525	180764	keystroke_Key.space	Key.space	n/a
90.6875	0.1115	181375	keystroke_g	g	n/a
90.815	0.0715	181630	keystroke_o	o	n/a
90.983	0.0875	181966	keystroke_v	v	n/a
91.1025	0.176	182205	keystroke_e	e	n/a
91.2705	0.128	182541	keystroke_r	r	n/a
91.407	0.0875	182814	keystroke_n	n	n/a
91.663	0.088	183326	keystroke_m	m	n/a
91.8545	0.192	183709	keystroke_e	e	n/a
91.975	0.1035	183950	keystroke_n	n	n/a
92.0545	0.152	184109	keystroke_t	t	n/a
92.231	0.0955	184462	keystroke_a	a	n/a
92.3665	0.104	184733	keystroke_l	l	n/a
92.8385	0.0875	185677	keystroke_Key.enter	Key.enter	n/a
92.9315	7.6765	185863	prompt	n/a	internship flavor lying vienna\n
93.5745	0.096	187149	keystroke_i	i	n/a
93.7745	0.1365	187549	keystroke_n	n	n/a
93.839	0.1355	187678	keystroke_t	t	n/a
93.9745	0.176	187949	keystroke_e	e	n/a
94.0945	0.144	188189	keystroke_r	r	n/a
94.1425	0.104	188285	keystroke_n	n	n/a
94.3425	0.12	188685	keystroke_s	s	n/a
94.4465	0.0965	188893	keystroke_h	h	n/a
94.5185	0.112	189037	keystroke_i	i	n/a
94.815	0.1275	189630	keystroke_p	p	n/a
94.9425	0.176	189885	keystroke_Key.space	Key.space	n/a
95.2145	0.144	190429	keystroke_f	f	n/a
95.319	0.0955	190638	keystroke_l	l	n/a
95.423	0.136	190846	keystroke_a	a	n/a
95.7905	0.112	191581	keystroke_v	v	n/a
95.9345	0.088	191869	keystroke_o	o	n/a
96.0785	0.128	192157	keystroke_r	r	n/a
96.1905	0.128	192381	keystroke_Key.space	Key.space	n/a
96.55	0.056	193100	keystroke_l	l	n/a
96.742	0.08	193484	keystroke_y	y	n/a
96.9665	0.0635	193933	keystroke_i	i	n/a
97.086	0.1205	194172	keystroke_n	n	n/a
97.166	0.0885	194332	keystroke_g	g	n/a
97.2465	0.136	194493	keystroke_Key.space	Key.space	n/a
97.3985	0.128	194797	keystroke_v	v	n/a
97.4705	0.112	194941	keystroke_i	i	n/a
97.6545	0.144	195309	keystroke_e	e	n/a
98.1105	0.0645	196221	keystroke_n	n	n/a
98.2625	0.088	196525	keystroke_n	n	n/a
98.3745	0.1195	196749	keystroke_a	a	n/a
99.359	0.0315	198718	keystroke_\	\	n/a
100.1745	0.0875	200349	keystroke_Key.backspace	Key.backspace	n/a
100.526	0.08	201052	keystroke_Key.enter	Key.enter	n/a
100.613	6.923	201226	prompt	n/a	illustrated something measure chronicles\n
101.3745	0.088	202749	keystroke_i	i	n/a
101.5665	0.0795	203133	keystroke_l	l	n/a
101.734	0.0565	203468	keystroke_l	l	n/a
101.9185	0.096	203837	keystroke_u	u	n/a
102.03	0.08	204060	keystroke_s	s	n/a
102.102	0.129	204204	keystroke_t	t	n/a
102.342	0.128	204684	keystroke_r	r	n/a
102.462	0.112	204924	keystroke_a	a	n/a
102.6065	0.104	205213	keystroke_t	t	n/a
103.047	0.096	206094	keystroke_e	e	n/a
103.134	0.104	206268	keystroke_d	d	n/a
103.246	0.1285	206492	keystroke_Key.space	Key.space	n/a
103.3905	0.104	206781	keystroke_s	s	n/a
103.478	0.081	206956	keystroke_o	o	n/a
103.6225	0.128	207245	keystroke_m	m	n/a
103.726	0.121	207452	keystroke_e	e	n/a
103.814	0.144	207628	keystroke_t	t	n/a
103.951	0.0795	207902	keystroke_h	h	n/a
103.9985	0.096	207997	keystroke_i	i	n/a
104.159	0.111	208318	keystroke_n	n	n/a
104.214	0.1205	208428	keystroke_g	g	n/a
104.326	0.128	208652	keystroke_Key.space	Key.space	n/a
104.575	0.112	209150	keystroke_m	m	n/a
104.702	0.168	209404	keystroke_e	e	n/a
104.8865	0.152	209773	keystroke_a	a	n/a
105.022	0.097	210044	keystroke_s	s	n/a
105.134	0.0965	210268	keystroke_u	u	n/a
105.2625	0.1355	210525	keystroke_r	r	n/a
105.342	0.1525	210684	keystroke_e	e	n/a
105.4625	0.136	210925	keystroke_Key.space	Key.space	n/a
105.6785	0.1205	211357	keystroke_c	c	n/a
105.758	0.081	211516	keystroke_h	h	n/a
105.958	0.104	211916	keystroke_r	r	n/a
106.031	0.096	212062	keystroke_o	o	n/a
106.1985	0.1115	212397	keystroke_n	n	n/a
106.399	0.104	212798	keystroke_i	i	n/a
106.503	0.135	213006	keystroke_c	c	n/a
106.9505	0.096	213901	keystroke_l	l	n/a
106.998	0.232	213996	keystroke_e	e	n/a
107.151	0.143	214302	keystroke_s	s	n/a
107.43	0.1045	214860	keystroke_Key.enter	Key.enter	n/a
107.542	7.346	215084	prompt	n/a	subsequent diamond remembered recover\n
108.303	0.111	216606	keystroke_s	s	n/a
108.415	0.0955	216830	keystroke_u	u	n/a
108.599	0.0955	217198	keystroke_b	b	n/a
109.087	0.128	218174	keystroke_s	s	n/a
109.198	0.097	218396	keystroke_e	e	n/a
109.6465	0.104	219293	keystroke_q	q	n/a
109.8065	0.088	219613	keystroke_u	u	n/a
109.903	0.1355	219806	keystroke_e	e	n/a
110.0465	0.12	220093	keystroke_n	n	n/a
110.1425	0.168	220285	keystroke_t	t	n/a
110.2705	0.144	220541	keystroke_Key.space	Key.space	n/a
110.7825	0.144	221565	keystroke_d	d	n/a
110.8305	0.12	221661	keystroke_i	i	n/a
110.9905	0.144	221981	keystroke_a	a	n/a
111.1585	0.112	222317	keystroke_m	m	n/a
111.3425	0.104	222685	keystroke_o	o	n/a
111.5265	0.152	223053	keystroke_n	n	n/a
111.6225	0.1205	223245	keystroke_d	d	n/a
111.7265	0.144	223453	keystroke_Key.space	Key.space	n/a
111.9265	0.16	223853	keystroke_r	r	n/a
112.0385	0.136	224077	keystroke_e	e	n/a
112.2065	0.1125	224413	keystroke_m	m	n/a
112.3345	0.079	224669	keystroke_e	e	n/a
112.4465	0.064	224893	keystroke_m	m	n/a
112.7345	0.112	225469	keystroke_b	b	n/a
112.7985	0.144	225597	keystroke_e	e	n/a
112.9105	0.144	225821	keystroke_r	r	n/a
113.1105	0.144	226221	keystroke_e	e	n/a
113.2545	0.096	226509	keystroke_d	d	n/a
113.614	0.1525	227228	keystroke_Key.space	Key.space	n/a
113.774	0.1355	227548	keystroke_r	r	n/a
113.8625	0.2	227725	keystroke_e	e	n/a
114.1265	0.0955	228253	keystroke_c	c	n/a
114.247	0.088	228494	keystroke_o	o	n/a
114.374	0.0805	228748	keystroke_v	v	n/a
114.55	0.1205	229100	keystroke_e	e	n/a
114.638	0.1285	229276	keystroke_r	r	n/a
114.7905	0.095	229581	keystroke_Key.enter	Key.enter	n/a
114.894	6.594	229788	prompt	n/a	andrews volunteer entertaining leave\n
115.5505	0.112	231101	keystroke_a	a	n/a
115.631	0.1195	231262	keystroke_n	n	n/a
115.7515	0.103	231503	keystroke_d	d	n/a
116.0545	0.176	232109	keystroke_r	r	n/a
116.1025	0.24	232205	keystroke_e	e	n/a
116.2145	0.136	232429	keystroke_w	w	n/a
116.5105	0.0875	233021	keystroke_s	s	n/a
116.614	0.1285	233228	keystroke_Key.space	Key.space	n/a
116.8065	0.104	233613	keystroke_v	v	n/a
116.8785	0.064	233757	keystroke_o	o	n/a
117.0865	0.064	234173	keystroke_l	l	n/a
117.2865	0.08	234573	keystroke_u	u	n/a
117.478	0.12	234956	keystroke_n	n	n/a
117.7345	0.1125	235469	keystroke_t	t	n/a
117.903	0.0955	235806	keystroke_e	e	n/a
118.1025	0.112	236205	keystroke_e	e	n/a
118.1985	0.104	236397	keystroke_r	r	n/a
118.342	0.1205	236684	keystroke_Key.space	Key.space	n/a
118.4785	0.08	236957	keystroke_e	e	n/a
118.5975	0.105	237195	keystroke_n	n	n/a
118.6865	0.136	237373	keystroke_t	t	n/a
118.974	0.1675	237948	keystroke_e	e	n/a
119.0945	0.144	238189	keystroke_r	r	n/a
119.4375	0.1365	238875	keystroke_t	t	n/a
119.5975	0.128	239195	keystroke_a	a	n/a
119.695	0.1275	239390	keystroke_i	i	n/a
119.8705	0.12	239741	keystroke_n	n	n/a
119.9735	0.1605	239947	keystroke_i	i	n/a
120.111	0.1035	240222	keystroke_n	n	n/a
120.1415	0.144	240283	keystroke_g	g	n/a
120.438	0.1765	240876	keystroke_Key.space	Key.space	n/a
120.5905	0.159	241181	keystroke_l	l	n/a
120.6785	0.151	241357	keystroke_e	e	n/a
120.7825	0.104	241565	keystroke_a	a	n/a
121.0545	0.143	242109	keystroke_v	v	n/a
121.1735	0.137	242347	keystroke_e	e	n/a
121.3825	0.1035	242765	keystroke_Key.enter	Key.enter	n/a
121.496	10.783	242992	prompt	n/a	shouldn't energy mediterranean optimization\n
122.2385	0.103	244477	keystroke_s	s	n/a
122.5185	0.127	245037	keystroke_h	h	n/a
122.6375	0.1055	245275	keystroke_o	o	n/a
122.766	0.096	245532	keystroke_u	u	n/a
122.982	0.08	245964	keystroke_l	l	n/a
123.0695	0.0885	246139	keystroke_d	d	n/a
123.159	0.119	246318	keystroke_n	n	n/a
123.4785	0.048	246957	keystroke_'	'	n/a
123.5185	0.144	247037	keystroke_t	t	n/a
123.6375	0.161	247275	keystroke_Key.space	Key.space	n/a
123.8695	0.089	247739	keystroke_e	e	n/a
124.0455	0.113	248091	keystroke_n	n	n/a
124.166	0.0805	248332	keystroke_e	e	n/a
124.1985	0.135	248397	keystroke_r	r	n/a
124.8065	0.0555	249613	keystroke_y	y	n/a
124.9185	0.096	249837	keystroke_g	g	n/a
125.182	0.0885	250364	keystroke_Key.backspace	Key.backspace	n/a
125.2945	0.1115	250589	keystroke_Key.backspace	Key.backspace	n/a
125.446	0.12	250892	keystroke_g	g	n/a
125.726	0.104	251452	keystroke_y	y	n/a
125.862	0.1365	251724	keystroke_Key.space	Key.space	n/a
126.1425	0.104	252285	keystroke_m	m	n/a
126.2465	0.1595	252493	keystroke_e	e	n/a
126.422	0.1365	252844	keystroke_d	d	n/a
126.55	0.1045	253100	keystroke_i	i	n/a
126.9825	0.0955	253965	keystroke_t	t	n/a
127.134	0.168	254268	keystroke_e	e	n/a
127.246	0.096	254492	keystroke_r	r	n/a
127.67	0.112	255340	keystroke_r	r	n/a
127.886	0.136	255772	keystroke_a	a	n/a
127.982	0.12	255964	keystroke_n	n	n/a
128.262	0.0885	256524	keystroke_e	e	n/a
128.542	0.089	257084	keystroke_a	a	n/a
128.6375	0.1205	257275	keystroke_n	n	n/a
128.8295	0.136	257659	keystroke_Key.space	Key.space	n/a
129.1825	0.128	258365	keystroke_o	o	n/a
130.19	0.0875	260380	keystroke_p	p	n/a
130.3895	0.1685	260779	keystroke_t	t	n/a
130.559	0.095	261118	keystroke_i	i	n/a
130.734	0.144	261468	keystroke_m	m	n/a
130.846	0.136	261692	keystroke_i	i	n/a
131.022	0.1115	262044	keystroke_z	z	n/a
131.2945	0.0635	262589	keystroke_a	a	n/a
131.4055	0.0965	262811	keystroke_t	t	n/a
131.4705	0.1355	262941	keystroke_i	i	n/a
131.5655	0.1285	263131	keystroke_o	o	n/a
131.678	0.1205	263356	keystroke_n	n	n/a
132.198	0.08	264396	keystroke_Key.enter	Key.enter	n/a
132.2835	7.7415	264567	prompt	n/a	tray individual dock christians\n
132.8705	0.1205	265741	keystroke_t	t	n/a
133.1265	0.103	266253	keystroke_r	r	n/a
133.2065	0.111	266413	keystroke_a	a	n/a
133.2865	0.128	266573	keystroke_y	y	n/a
134.0535	0.1125	268107	keystroke_Key.space	Key.space	n/a
134.15	0.104	268300	keystroke_t	t	n/a
134.526	0.08	269052	keystroke_Key.backspace	Key.backspace	n/a
134.83	0.0965	269660	keystroke_i	i	n/a
135.022	0.136	270044	keystroke_n	n	n/a
135.143	0.127	270286	keystroke_d	d	n/a
135.286	0.112	270572	keystroke_i	i	n/a
135.462	0.12	270924	keystroke_v	v	n/a
135.5415	0.121	271083	keystroke_i	i	n/a
135.7745	0.104	271549	keystroke_d	d	n/a
135.8305	0.1195	271661	keystroke_u	u	n/a
135.9975	0.128	271995	keystroke_a	a	n/a
136.1585	0.135	272317	keystroke_l	l	n/a
136.318	0.1675	272636	keystroke_Key.space	Key.space	n/a
136.6775	0.0485	273355	keystroke_c	c	n/a
136.99	0.088	273980	keystroke_Key.backspace	Key.backspace	n/a
137.134	0.079	274268	keystroke_d	d	n/a
137.278	0.0875	274556	keystroke_o	o	n/a
137.414	0.12	274828	keystroke_c	c	n/a
137.542	0.112	275084	keystroke_k	k	n/a
137.774	0.112	275548	keystroke_Key.space	Key.space	n/a
138.238	0.096	276476	keystroke_c	c	n/a
138.3185	0.096	276637	keystroke_h	h	n/a
138.534	0.1355	277068	keystroke_r	r	n/a
138.6775	0.136	277355	keystroke_i	i	n/a
138.862	0.1355	277724	keystroke_s	s	n/a
139.0055	0.144	278011	keystroke_t	t	n/a
139.2705	0.096	278541	keystroke_i	i	n/a
139.39	0.1035	278780	keystroke_a	a	n/a
139.5025	0.119	279005	keystroke_n	n	n/a
139.6535	0.0805	279307	keystroke_s	s	n/a
139.9415	0.08	279883	keystroke_Key.enter	Key.enter	n/a
140.0295	8.05	280059	prompt	n/a	portal newspaper feelings opportunity\n
140.8295	0.112	281659	keystroke_p	p	n/a
140.9175	0.1525	281835	keystroke_o	o	n/a
141.054	0.1035	282108	keystroke_r	r	n/a
141.2945	0.1355	282589	keystroke_t	t	n/a
141.4215	0.121	282843	keystroke_a	a	n/a
141.5175	0.1445	283035	keystroke_l	l	n/a
141.646	0.184	283292	keystroke_Key.space	Key.space	n/a
142.0215	0.1205	284043	keystroke_n	n	n/a
142.0775	0.256	284155	keystroke_e	e	n/a
142.2535	0.1285	284507	keystroke_w	w	n/a
142.558	0.1355	285116	keystroke_s	s	n/a
142.7975	0.112	285595	keystroke_p	p	n/a
142.8935	0.176	285787	keystroke_a	a	n/a
143.646	0.104	287292	keystroke_p	p	n/a
143.8375	0.1285	287675	keystroke_e	e	n/a
143.9185	0.135	287837	keystroke_r	r	n/a
144.0455	0.1765	288091	keystroke_Key.space	Key.space	n/a
144.262	0.144	288524	keystroke_f	f	n/a
144.382	0.112	288764	keystroke_e	e	n/a
144.582	0.1595	289164	keystroke_e	e	n/a
144.7175	0.0805	289435	keystroke_l	l	n/a
144.8705	0.0875	289741	keystroke_i	i	n/a
145.062	0.136	290124	keystroke_n	n	n/a
145.086	0.136	290172	keystroke_g	g	n/a
145.174	0.16	290348	keystroke_s	s	n/a
145.262	0.168	290524	keystroke_Key.space	Key.space	n/a
145.486	0.096	290972	keystroke_o	o	n/a
145.7175	0.0805	291435	keystroke_p	p	n/a
145.885	0.073	291770	keystroke_p	p	n/a
145.926	0.152	291852	keystroke_o	o	n/a
146.1415	0.1685	292283	keystroke_r	r	n/a
146.5335	0.1445	293067	keystroke_t	t	n/a
146.638	0.112	293276	keystroke_u	u	n/a
147.206	0.12	294412	keystroke_n	n	n/a
147.342	0.127	294684	keystroke_i	i	n/a
147.501	0.1365	295002	keystroke_t	t	n/a
147.614	0.0885	295228	keystroke_y	y	n/a
148.006	0.072	296012	keystroke_Key.enter	Key.enter	n/a
148.0855	7.1535	296171	prompt	n/a	egypt candle exciting switzerland\n
148.7265	0.1275	297453	keystroke_e	e	n/a
149.182	0.112	298364	keystroke_g	g	n/a
149.678	0.064	299356	keystroke_y	y	n/a
149.933	0.097	299866	keystroke_p	p	n/a
150.038	0.16	300076	keystroke_t	t	n/a
150.1655	0.16	300331	keystroke_Key.space	Key.space	n/a
150.5975	0.112	301195	keystroke_c	c	n/a
150.726	0.1115	301452	keystroke_a	a	n/a
150.7975	0.1205	301595	keystroke_n	n	n/a
150.9255	0.137	301851	keystroke_d	d	n/a
151.0215	0.144	302043	keystroke_e	e	n/a
151.15	0.1285	302300	keystroke_l	l	n/a
151.2455	0.1605	302491	keystroke_Key.space	Key.space	n/a
151.518	0.104	303036	keystroke_e	e	n/a
151.765	0.0965	303530	keystroke_x	x	n/a
151.9255	0.144	303851	keystroke_c	c	n/a
152.046	0.112	304092	keystroke_i	i	n/a
152.23	0.1035	304460	keystroke_t	t	n/a
152.254	0.104	304508	keystroke_i	i	n/a
152.4215	0.136	304843	keystroke_n	n	n/a
152.5415	0.1285	305083	keystroke_g	g	n/a
152.741	0.144	305482	keystroke_Key.space	Key.space	n/a
153.2295	0.0725	306459	keystroke_s	s	n/a
153.438	0.111	306876	keystroke_w	w	n/a
153.59	0.136	307180	keystroke_i	i	n/a
153.694	0.1195	307388	keystroke_t	t	n/a
154.0535	0.104	308107	keystroke_z	z	n/a
154.166	0.128	308332	keystroke_e	e	n/a
154.262	0.176	308524	keystroke_r	r	n/a
154.5575	0.1045	309115	keystroke_l	l	n/a
154.67	0.1515	309340	keystroke_a	a	n/a
154.774	0.1195	309548	keystroke_n	n	n/a
154.8615	0.1045	309723	keystroke_d	d	n/a
155.1415	0.096	310283	keystroke_Key.enter	Key.enter	n/a
155.243	6.277	310486	prompt	n/a	clone involving bizrate shift\n
155.926	0.128	311852	keystroke_c	c	n/a
156.022	0.088	312044	keystroke_l	l	n/a
156.2225	0.0785	312445	keystroke_o	o	n/a
156.405	0.1365	312810	keystroke_n	n	n/a
156.4695	0.144	312939	keystroke_e	e	n/a
156.6295	0.1525	313259	keystroke_Key.space	Key.space	n/a
156.83	0.096	313660	keystroke_i	i	n/a
157.006	0.128	314012	keystroke_n	n	n/a
157.174	0.1275	314348	keystroke_v	v	n/a
157.285	0.073	314570	keystroke_o	o	n/a
157.51	0.08	315020	keystroke_l	l	n/a
157.606	0.0795	315212	keystroke_v	v	n/a
157.7095	0.08	315419	keystroke_i	i	n/a
157.8775	0.112	315755	keystroke_n	n	n/a
157.9815	0.0805	315963	keystroke_g	g	n/a
158.0535	0.1685	316107	keystroke_Key.space	Key.space	n/a
158.2775	0.104	316555	keystroke_b	b	n/a
158.5015	0.1045	317003	keystroke_i	i	n/a
158.614	0.079	317228	keystroke_z	z	n/a
158.861	0.1125	317722	keystroke_a	a	n/a
159.35	0.08	318700	keystroke_Key.backspace	Key.backspace	n/a
159.422	0.1035	318844	keystroke_r	r	n/a
159.5265	0.1185	319053	keystroke_a	a	n/a
159.701	0.113	319402	keystroke_t	t	n/a
159.766	0.1595	319532	keystroke_e	e	n/a
159.9415	0.1365	319883	keystroke_Key.space	Key.space	n/a
160.126	0.072	320252	keystroke_s	s	n/a
160.262	0.056	320524	keystroke_h	h	n/a
160.422	0.0955	320844	keystroke_i	i	n/a
160.565	0.081	321130	keystroke_f	f	n/a
160.814	0.136	321628	keystroke_t	t	n/a
161.422	0.0955	322844	keystroke_Key.enter	Key.enter	n/a
161.523	8.644	323046	prompt	n/a	honors alias compiler testament\n
162.51	0.048	325020	keystroke_o	o	n/a
162.901	0.064	325802	keystroke_Key.backspace	Key.backspace	n/a
163.181	0.105	326362	keystroke_h	h	n/a
163.2695	0.136	326539	keystroke_o	o	n/a
163.453	0.0965	326906	keystroke_n	n	n/a
163.59	0.128	327180	keystroke_o	o	n/a
163.7415	0.12	327483	keystroke_r	r	n/a
163.8385	0.1275	327677	keystroke_s	s	n/a
164.214	0.1195	328428	keystroke_Key.space	Key.space	n/a
164.3815	0.1045	328763	keystroke_a	a	n/a
164.4775	0.072	328955	keystroke_l	l	n/a
164.6535	0.0965	329307	keystroke_i	i	n/a
164.742	0.112	329484	keystroke_a	a	n/a
164.902	0.1195	329804	keystroke_s	s	n/a
165.086	0.1195	330172	keystroke_Key.space	Key.space	n/a
165.2935	0.16	330587	keystroke_c	c	n/a
165.4055	0.08	330811	keystroke_o	o	n/a
165.7735	0.104	331547	keystroke_m	m	n/a
165.9815	0.2	331963	keystroke_p	p	n/a
166.0935	0.128	332187	keystroke_l	l	n/a
166.4775	0.072	332955	keystroke_Key.backspace	Key.backspace	n/a
166.7655	0.0965	333531	keystroke_i	i	n/a
166.942	0.111	333884	keystroke_l	l	n/a
167.07	0.12	334140	keystroke_e	e	n/a
167.1655	0.152	334331	keystroke_r	r	n/a
167.3255	0.0725	334651	keystroke_s	s	n/a
167.7255	0.072	335451	keystroke_Key.backspace	Key.backspace	n/a
168.3495	0.1445	336699	keystroke_Key.space	Key.space	n/a
168.5255	0.168	337051	keystroke_t	t	n/a
168.6775	0.248	337355	keystroke_e	e	n/a
168.8215	0.1205	337643	keystroke_s	s	n/a
168.9095	0.1515	337819	keystroke_t	t	n/a
169.118	0.1035	338236	keystroke_a	a	n/a
169.4535	0.104	338907	keystroke_m	m	n/a
169.5815	0.1685	339163	keystroke_e	e	n/a
169.6935	0.112	339387	keystroke_n	n	n/a
169.7505	0.1745	339501	keystroke_t	t	n/a
170.077	0.088	340154	keystroke_Key.enter	Key.enter	n/a
170.1735	7.2105	340347	prompt	n/a	duties gibraltar dying retailer\n
170.8775	0.104	341755	keystroke_d	d	n/a
170.9495	0.12	341899	keystroke_u	u	n/a
171.134	0.1755	342268	keystroke_t	t	n/a
171.2375	0.112	342475	keystroke_i	i	n/a
171.3735	0.1595	342747	keystroke_e	e	n/a
171.486	0.103	342972	keystroke_s	s	n/a
171.6375	0.136	343275	keystroke_Key.space	Key.space	n/a
172.205	0.104	344410	keystroke_g	g	n/a
172.269	0.0965	344538	keystroke_i	i	n/a
172.4855	0.144	344971	keystroke_b	b	n/a
172.638	0.168	345276	keystroke_r	r	n/a
172.829	0.1765	345658	keystroke_a	a	n/a
173.341	0.104	346682	keystroke_l	l	n/a
173.493	0.137	346986	keystroke_t	t	n/a
173.765	0.144	347530	keystroke_a	a	n/a
173.925	0.161	347850	keystroke_r	r	n/a
174.2855	0.1115	348571	keystroke_Key.space	Key.space	n/a
174.4695	0.112	348939	keystroke_d	d	n/a
174.885	0.088	349770	keystroke_y	y	n/a
175.1415	0.08	350283	keystroke_i	i	n/a
175.318	0.12	350636	keystroke_n	n	n/a
175.4385	0.135	350877	keystroke_g	g	n/a
175.6055	0.144	351211	keystroke_Key.space	Key.space	n/a
175.958	0.1515	351916	keystroke_r	r	n/a
176.07	0.1275	352140	keystroke_e	e	n/a
176.285	0.136	352570	keystroke_t	t	n/a
176.4615	0.0965	352923	keystroke_a	a	n/a
176.5585	0.151	353117	keystroke_i	i	n/a
176.6855	0.112	353371	keystroke_l	l	n/a
176.79	0.1435	353580	keystroke_e	e	n/a
176.8935	0.144	353787	keystroke_r	r	n/a
177.269	0.112	354538	keystroke_Key.enter	Key.enter	n/a
177.3875	7.7875	354775	prompt	n/a	suburban seeker laughing overall\n
178.1175	0.104	356235	keystroke_s	s	n/a
178.2055	0.0885	356411	keystroke_u	u	n/a
178.3895	0.128	356779	keystroke_b	b	n/a
178.638	0.1035	357276	keystroke_u	u	n/a
178.75	0.1035	357500	keystroke_r	r	n/a
179.0375	0.1285	358075	keystroke_d	d	n/a
179.317	0.0805	358634	keystroke_b	b	n/a
179.7175	0.0795	359435	keystroke_Key.backspace	Key.backspace	n/a
179.861	0.1045	359722	keystroke_Key.backspace	Key.backspace	n/a
180.2135	0.1045	360427	keystroke_b	b	n/a
180.3095	0.1205	360619	keystroke_a	a	n/a
180.47	0.1195	360940	keystroke_n	n	n/a
180.5655	0.128	361131	keystroke_Key.space	Key.space	n/a
181.1975	0.12	362395	keystroke_s	s	n/a
181.478	0.04	362956	keystroke_e	e	n/a
181.629	0.0885	363258	keystroke_e	e	n/a
181.773	0.097	363546	keystroke_k	k	n/a
181.8775	0.112	363755	keystroke_e	e	n/a
181.942	0.159	363884	keystroke_r	r	n/a
182.429	0.1365	364858	keystroke_Key.space	Key.space	n/a
182.669	0.113	365338	keystroke_l	l	n/a
182.766	0.079	365532	keystroke_a	a	n/a
182.925	0.097	365850	keystroke_u	u	n/a
183.045	0.128	366090	keystroke_g	g	n/a
183.141	0.0885	366282	keystroke_h	h	n/a
183.4215	0.08	366843	keystroke_i	i	n/a
183.582	0.1115	367164	keystroke_n	n	n/a
183.6615	0.1125	367323	keystroke_g	g	n/a
183.741	0.1765	367482	keystroke_Key.space	Key.space	n/a
183.9735	0.112	367947	keystroke_o	o	n/a
184.1015	0.096	368203	keystroke_v	v	n/a
184.262	0.151	368524	keystroke_e	e	n/a
184.358	0.1835	368716	keystroke_r	r	n/a
184.573	0.104	369146	keystroke_a	a	n/a
184.6685	0.073	369337	keystroke_l	l	n/a
184.8135	0.087	369627	keystroke_l	l	n/a
185.093	0.08	370186	keystroke_Key.enter	Key.enter	n/a
185.178	6.021	370356	prompt	n/a	pregnant progressive ivory inkjet\n
185.766	0.1115	371532	keystroke_p	p	n/a
185.918	0.119	371836	keystroke_r	r	n/a
186.013	0.1205	372026	keystroke_e	e	n/a
186.229	0.104	372458	keystroke_g	g	n/a
186.398	0.128	372796	keystroke_n	n	n/a
186.5575	0.088	373115	keystroke_a	a	n/a
186.653	0.128	373306	keystroke_n	n	n/a
186.7255	0.1755	373451	keystroke_t	t	n/a
186.909	0.136	373818	keystroke_Key.space	Key.space	n/a
187.262	0.104	374524	keystroke_p	p	n/a
187.398	0.0955	374796	keystroke_r	r	n/a
187.5255	0.12	375051	keystroke_o	o	n/a
187.7175	0.072	375435	keystroke_g	g	n/a
187.965	0.1355	375930	keystroke_r	r	n/a
188.0215	0.16	376043	keystroke_e	e	n/a
188.1175	0.1125	376235	keystroke_s	s	n/a
188.3335	0.0645	376667	keystroke_s	s	n/a
188.4375	0.112	376875	keystroke_i	i	n/a
188.581	0.1445	377162	keystroke_v	v	n/a
188.694	0.152	377388	keystroke_e	e	n/a
188.829	0.112	377658	keystroke_Key.space	Key.space	n/a
189.0055	0.104	378011	keystroke_i	i	n/a
189.1975	0.104	378395	keystroke_v	v	n/a
189.3335	0.0965	378667	keystroke_o	o	n/a
189.4855	0.136	378971	keystroke_r	r	n/a
189.5815	0.12	379163	keystroke_y	y	n/a
189.7655	0.144	379531	keystroke_Key.space	Key.space	n/a
189.9335	0.088	379867	keystroke_i	i	n/a
190.109	0.12	380218	keystroke_n	n	n/a
190.2455	0.1285	380491	keystroke_k	k	n/a
190.5735	0.104	381147	keystroke_j	j	n/a
190.7255	0.136	381451	keystroke_e	e	n/a
190.8295	0.183	381659	keystroke_t	t	n/a
191.109	0.088	382218	keystroke_Key.enter	Key.enter	n/a
191.204	8.9625	382408	prompt	n/a	currencies char conservative oracle\n
192.1415	0.128	384283	keystroke_c	c	n/a
192.261	0.0885	384522	keystroke_u	u	n/a
192.4535	0.071	384907	keystroke_r	r	n/a
192.6135	0.112	385227	keystroke_r	r	n/a
192.7095	0.1755	385419	keystroke_e	e	n/a
193.5175	0.104	387035	keystroke_c	c	n/a
193.861	0.0875	387722	keystroke_Key.backspace	Key.backspace	n/a
194.1575	0.1195	388315	keystroke_n	n	n/a
194.2605	0.136	388521	keystroke_c	c	n/a
194.4045	0.113	388809	keystroke_i	i	n/a
194.533	0.176	389066	keystroke_e	e	n/a
194.637	0.168	389274	keystroke_s	s	n/a
194.829	0.152	389658	keystroke_Key.space	Key.space	n/a
195.0055	0.1115	390011	keystroke_c	c	n/a
195.061	0.1205	390122	keystroke_h	h	n/a
195.213	0.168	390426	keystroke_a	a	n/a
195.3485	0.121	390697	keystroke_r	r	n/a
195.5085	0.137	391017	keystroke_Key.space	Key.space	n/a
195.6935	0.1035	391387	keystroke_c	c	n/a
195.7495	0.096	391499	keystroke_o	o	n/a
195.9405	0.137	391881	keystroke_n	n	n/a
196.1005	0.104	392201	keystroke_s	s	n/a
196.149	0.1595	392298	keystroke_e	e	n/a
196.2445	0.1685	392489	keystroke_r	r	n/a
196.5815	0.0795	393163	keystroke_v	v	n/a
196.797	0.152	393594	keystroke_a	a	n/a
196.917	0.1595	393834	keystroke_t	t	n/a
197.117	0.1445	394234	keystroke_i	i	n/a
197.197	0.1685	394394	keystroke_o	o	n/a
197.677	0.08	395354	keystroke_Key.backspace	Key.backspace	n/a
197.7655	0.0955	395531	keystroke_v	v	n/a
197.973	0.0955	395946	keystroke_e	e	n/a
198.301	0.136	396602	keystroke_Key.space	Key.space	n/a
198.717	0.112	397434	keystroke_o	o	n/a
198.7725	0.1365	397545	keystroke_r	r	n/a
199.141	0.056	398282	keystroke_a	a	n/a
199.309	0.104	398618	keystroke_c	c	n/a
199.4295	0.1035	398859	keystroke_l	l	n/a
199.5015	0.128	399003	keystroke_e	e	n/a
200.077	0.088	400154	keystroke_Key.enter	Key.enter	n/a
200.175	9.608	400350	prompt	n/a	documentary rouge dramatic firewire\n
200.8695	0.0555	401739	keystroke_d	d	n/a
200.933	0.104	401866	keystroke_o	o	n/a
201.101	0.128	402202	keystroke_c	c	n/a
201.181	0.088	402362	keystroke_u	u	n/a
201.4215	0.1195	402843	keystroke_m	m	n/a
201.565	0.12	403130	keystroke_e	e	n/a
201.701	0.112	403402	keystroke_n	n	n/a
201.797	0.1525	403594	keystroke_t	t	n/a
202.117	0.1355	404234	keystroke_a	a	n/a
202.229	0.1605	404458	keystroke_r	r	n/a
202.3735	0.1355	404747	keystroke_y	y	n/a
202.581	0.1355	405162	keystroke_Key.space	Key.space	n/a
202.725	0.1045	405450	keystroke_r	r	n/a
202.821	0.1045	405642	keystroke_o	o	n/a
203.005	0.104	406010	keystroke_u	u	n/a
203.101	0.1115	406202	keystroke_g	g	n/a
203.469	0.056	406938	keystroke_e	e	n/a
203.749	0.1275	407498	keystroke_Key.space	Key.space	n/a
204.1175	0.119	408235	keystroke_d	d	n/a
204.397	0.168	408794	keystroke_r	r	n/a
204.549	0.12	409098	keystroke_a	a	n/a
204.829	0.12	409658	keystroke_m	m	n/a
205.029	0.1205	410058	keystroke_a	a	n/a
205.1405	0.1365	410281	keystroke_t	t	n/a
205.581	0.152	411162	keystroke_c	c	n/a
205.597	0.104	411194	keystroke_i	i	n/a
206.029	0.08	412058	keystroke_Key.backspace	Key.backspace	n/a
206.197	0.064	412394	keystroke_Key.backspace	Key.backspace	n/a
206.421	0.0955	412842	keystroke_i	i	n/a
206.5175	0.095	413035	keystroke_c	c	n/a
206.645	0.16	413290	keystroke_Key.space	Key.space	n/a
207.237	0.08	414474	keystroke_f	f	n/a
207.309	0.1115	414618	keystroke_i	i	n/a
207.5005	0.129	415001	keystroke_r	r	n/a
207.5495	0.1835	415099	keystroke_e	e	n/a
208.0125	0.072	416025	keystroke_w	w	n/a
208.077	0.1205	416154	keystroke_i	i	n/a
208.2285	0.121	416457	keystroke_r	r	n/a
208.285	0.1525	416570	keystroke_e	e	n/a
209.6685	0.112	419337	keystroke_Key.enter	Key.enter	n/a
209.788	6.6905	419576	prompt	n/a	mistakes banned reel petroleum\n
210.6375	0.1425	421275	keystroke_m	m	n/a
210.781	0.144	421562	keystroke_i	i	n/a
210.893	0.12	421786	keystroke_s	s	n/a
210.996	0.145	421992	keystroke_t	t	n/a
211.205	0.056	422410	keystroke_a	a	n/a
211.2765	0.12	422553	keystroke_k	k	n/a
211.4125	0.16	422825	keystroke_e	e	n/a
211.509	0.128	423018	keystroke_s	s	n/a
211.6685	0.136	423337	keystroke_Key.space	Key.space	n/a
211.9245	0.1125	423849	keystroke_b	b	n/a
212.0375	0.079	424075	keystroke_a	a	n/a
212.205	0.064	424410	keystroke_n	n	n/a
212.357	0.072	424714	keystroke_n	n	n/a
212.437	0.1445	424874	keystroke_e	e	n/a
212.5485	0.128	425097	keystroke_d	d	n/a
212.6525	0.128	425305	keystroke_Key.space	Key.space	n/a
212.8925	0.112	425785	keystroke_r	r	n/a
212.9405	0.1675	425881	keystroke_e	e	n/a
213.397	0.1605	426794	keystroke_e	e	n/a
213.621	0.1045	427242	keystroke_l	l	n/a
213.7805	0.136	427561	keystroke_Key.space	Key.space	n/a
214.2535	0.119	428507	keystroke_p	p	n/a
214.453	0.1515	428906	keystroke_e	e	n/a
214.629	0.104	429258	keystroke_t	t	n/a
214.901	0.087	429802	keystroke_r	r	n/a
214.973	0.088	429946	keystroke_o	o	n/a
215.205	0.071	430410	keystroke_l	l	n/a
215.493	0.104	430986	keystroke_e	e	n/a
215.749	0.0555	431498	keystroke_u	u	n/a
216.085	0.0955	432170	keystroke_m	m	n/a
216.461	0.016	432922	keystroke_Key.enter	Key.enter	n/a
216.482	5.101	432964	prompt	n/a	look merge admitted skills\n
217.397	0.064	434794	keystroke_l	l	n/a
217.597	0.056	435194	keystroke_o	o	n/a
217.749	0.104	435498	keystroke_o	o	n/a
217.821	0.1515	435642	keystroke_k	k	n/a
217.981	0.1515	435962	keystroke_Key.space	Key.space	n/a
218.2045	0.1365	436409	keystroke_m	m	n/a
218.293	0.119	436586	keystroke_e	e	n/a
218.349	0.104	436698	keystroke_r	r	n/a
218.661	0.128	437322	keystroke_g	g	n/a
218.764	0.169	437528	keystroke_e	e	n/a
218.8925	0.1355	437785	keystroke_Key.space	Key.space	n/a
219.125	0.104	438250	keystroke_a	a	n/a
219.253	0.168	438506	keystroke_d	d	n/a
219.4455	0.1185	438891	keystroke_m	m	n/a
219.557	0.127	439114	keystroke_i	i	n/a
219.781	0.08	439562	keystroke_t	t	n/a
219.941	0.136	439882	keystroke_t	t	n/a
220.109	0.16	440218	keystroke_e	e	n/a
220.237	0.12	440474	keystroke_d	d	n/a
220.317	0.136	440634	keystroke_Key.space	Key.space	n/a
220.477	0.1035	440954	keystroke_s	s	n/a
220.573	0.064	441146	keystroke_k	k	n/a
220.7485	0.064	441497	keystroke_i	i	n/a
220.949	0.072	441898	keystroke_l	l	n/a
221.1255	0.0795	442251	keystroke_l	l	n/a
221.189	0.08	442378	keystroke_s	s	n/a
221.4925	0.088	442985	keystroke_Key.enter	Key.enter	n/a
221.587	5.2595	443174	prompt	n/a	sleep implies luis miles\n
222.2925	0.056	444585	keystroke_s	s	n/a
222.3895	0.071	444779	keystroke_l	l	n/a
222.597	0.0955	445194	keystroke_e	e	n/a
222.773	0.0885	445546	keystroke_e	e	n/a
222.8685	0.1125	445737	keystroke_p	p	n/a
223.021	0.1435	446042	keystroke_Key.space	Key.space	n/a
223.445	0.0955	446890	keystroke_i	i	n/a
223.6125	0.112	447225	keystroke_m	m	n/a
223.8285	0.1365	447657	keystroke_p	p	n/a
224.1485	0.056	448297	keystroke_l	l	n/a
224.3005	0.0955	448601	keystroke_i	i	n/a
224.445	0.1115	448890	keystroke_e	e	n/a
224.5245	0.128	449049	keystroke_s	s	n/a
224.725	0.151	449450	keystroke_Key.space	Key.space	n/a
225.0135	0.071	450027	keystroke_l	l	n/a
225.2205	0.088	450441	keystroke_u	u	n/a
225.4925	0.088	450985	keystroke_i	i	n/a
225.6125	0.1205	451225	keystroke_s	s	n/a
225.7405	0.12	451481	keystroke_Key.space	Key.space	n/a
226.0845	0.128	452169	keystroke_m	m	n/a
226.1885	0.144	452377	keystroke_i	i	n/a
226.2685	0.136	452537	keystroke_l	l	n/a
226.3725	0.16	452745	keystroke_e	e	n/a
226.4605	0.128	452921	keystroke_s	s	n/a
226.757	0.0875	453514	keystroke_Key.enter	Key.enter	n/a
226.8495	6.1895	453699	prompt	n/a	edited sisters albany cambridge\n
227.605	0.1275	455210	keystroke_e	e	n/a
227.7725	0.12	455545	keystroke_d	d	n/a
227.8845	0.096	455769	keystroke_i	i	n/a
228.0605	0.152	456121	keystroke_t	t	n/a
228.269	0.184	456538	keystroke_e	e	n/a
228.4445	0.1205	456889	keystroke_d	d	n/a
228.6125	0.1365	457225	keystroke_Key.space	Key.space	n/a
228.9005	0.12	457801	keystroke_s	s	n/a
229.029	0.1115	458058	keystroke_i	i	n/a
229.149	0.0875	458298	keystroke_s	s	n/a
229.2775	0.1595	458555	keystroke_t	t	n/a
229.429	0.1755	458858	keystroke_e	e	n/a
229.5645	0.12	459129	keystroke_r	r	n/a
229.669	0.1115	459338	keystroke_s	s	n/a
229.8045	0.112	459609	keystroke_Key.space	Key.space	n/a
229.9805	0.104	459961	keystroke_a	a	n/a
230.0765	0.1205	460153	keystroke_l	l	n/a
230.4045	0.096	460809	keystroke_b	b	n/a
230.5085	0.12	461017	keystroke_a	a	n/a
230.677	0.0795	461354	keystroke_n	n	n/a
230.853	0.1115	461706	keystroke_y	y	n/a
230.9965	0.1355	461993	keystroke_Key.space	Key.space	n/a
231.2525	0.088	462505	keystroke_c	c	n/a
231.5325	0.08	463065	keystroke_a	a	n/a
231.6045	0.1115	463209	keystroke_m	m	n/a
231.876	0.12	463752	keystroke_b	b	n/a
231.988	0.12	463976	keystroke_r	r	n/a
232.1565	0.1285	464313	keystroke_i	i	n/a
232.3165	0.088	464633	keystroke_d	d	n/a
232.5485	0.1205	465097	keystroke_g	g	n/a
232.6445	0.096	465289	keystroke_e	e	n/a
232.972	0.064	465944	keystroke_Key.enter	Key.enter	n/a
233.044	6.7305	466088	prompt	n/a	properly scoop entertainment marketing\n
233.789	0.095	467578	keystroke_p	p	n/a
233.9565	0.0885	467913	keystroke_r	r	n/a
234.06	0.121	468120	keystroke_o	o	n/a
234.157	0.12	468314	keystroke_p	p	n/a
234.3165	0.104	468633	keystroke_e	e	n/a
234.365	0.168	468730	keystroke_r	r	n/a
234.509	0.087	469018	keystroke_l	l	n/a
234.7405	0.088	469481	keystroke_y	y	n/a
234.868	0.113	469736	keystroke_Key.space	Key.space	n/a
234.981	0.08	469962	keystroke_s	s	n/a
235.165	0.104	470330	keystroke_c	c	n/a
235.277	0.0795	470554	keystroke_o	o	n/a
235.709	0.08	471418	keystroke_o	o	n/a
235.8285	0.1125	471657	keystroke_p	p	n/a
236.0125	0.1365	472025	keystroke_Key.space	Key.space	n/a
236.2205	0.152	472441	keystroke_e	e	n/a
236.356	0.113	472712	keystroke_n	n	n/a
236.429	0.1355	472858	keystroke_t	t	n/a
236.6045	0.16	473209	keystroke_e	e	n/a
236.7245	0.12	473449	keystroke_r	r	n/a
237.0445	0.128	474089	keystroke_t	t	n/a
237.2285	0.104	474457	keystroke_a	a	n/a
237.3645	0.096	474729	keystroke_i	i	n/a
237.5245	0.12	475049	keystroke_n	n	n/a
237.797	0.104	475594	keystroke_m	m	n/a
237.9405	0.144	475881	keystroke_e	e	n/a
238.0285	0.1435	476057	keystroke_n	n	n/a
238.0935	0.1505	476187	keystroke_t	t	n/a
238.2285	0.152	476457	keystroke_Key.space	Key.space	n/a
238.4525	0.1275	476905	keystroke_m	m	n/a
238.549	0.1195	477098	keystroke_a	a	n/a
238.6695	0.136	477339	keystroke_r	r	n/a
238.813	0.1195	477626	keystroke_k	k	n/a
238.957	0.128	477914	keystroke_e	e	n/a
239.069	0.1115	478138	keystroke_t	t	n/a
239.181	0.0715	478362	keystroke_i	i	n/a
239.3245	0.12	478649	keystroke_n	n	n/a
239.4125	0.104	478825	keystroke_g	g	n/a
239.7085	0.064	479417	keystroke_Key.enter	Key.enter	n/a
239.7775	6.926	479555	prompt	n/a	taylor afraid dolls mechanism\n
240.5565	0.1365	481113	keystroke_t	t	n/a
240.701	0.111	481402	keystroke_a	a	n/a
241.261	0.087	482522	keystroke_y	y	n/a
241.532	0.064	483064	keystroke_l	l	n/a
241.709	0.1035	483418	keystroke_o	o	n/a
241.78	0.0965	483560	keystroke_r	r	n/a
241.8845	0.159	483769	keystroke_Key.space	Key.space	n/a
242.125	0.0875	484250	keystroke_a	a	n/a
242.5005	0.0795	485001	keystroke_f	f	n/a
242.748	0.096	485496	keystroke_r	r	n/a
242.829	0.135	485658	keystroke_a	a	n/a
242.98	0.12	485960	keystroke_i	i	n/a
243.1485	0.072	486297	keystroke_d	d	n/a
243.252	0.128	486504	keystroke_Key.space	Key.space	n/a
243.524	0.1125	487048	keystroke_d	d	n/a
243.652	0.072	487304	keystroke_o	o	n/a
243.8685	0.072	487737	keystroke_l	l	n/a
244.0205	0.072	488041	keystroke_l	l	n/a
244.0845	0.104	488169	keystroke_s	s	n/a
244.204	0.152	488408	keystroke_Key.space	Key.space	n/a
244.357	0.143	488714	keystroke_m	m	n/a
244.4605	0.1045	488921	keystroke_e	e	n/a
244.693	0.112	489386	keystroke_c	c	n/a
244.821	0.112	489642	keystroke_h	h	n/a
245.116	0.088	490232	keystroke_a	a	n/a
245.26	0.1045	490520	keystroke_n	n	n/a
245.5885	0.0805	491177	keystroke_i	i	n/a
245.708	0.073	491416	keystroke_s	s	n/a
245.796	0.1205	491592	keystroke_m	m	n/a
246.6285	0.072	493257	keystroke_Key.enter	Key.enter	n/a
246.7085	8.106	493417	prompt	n/a	lauderdale expansion fuzzy stan\n
248.244	0.096	496488	keystroke_l	l	n/a
248.3645	0.12	496729	keystroke_a	a	n/a
248.4925	0.096	496985	keystroke_u	u	n/a
248.9005	0.112	497801	keystroke_d	d	n/a
249.2845	0.168	498569	keystroke_e	e	n/a
249.4045	0.176	498809	keystroke_r	r	n/a
249.8125	0.1285	499625	keystroke_d	d	n/a
249.9805	0.0635	499961	keystroke_a	a	n/a
250.0845	0.1205	500169	keystroke_l	l	n/a
250.189	0.127	500378	keystroke_e	e	n/a
250.324	0.152	500648	keystroke_Key.space	Key.space	n/a
250.7165	0.0485	501433	keystroke_e	e	n/a
250.941	0.1115	501882	keystroke_x	x	n/a
251.0195	0.129	502039	keystroke_p	p	n/a
251.237	0.095	502474	keystroke_a	a	n/a
251.365	0.1275	502730	keystroke_n	n	n/a
251.533	0.0795	503066	keystroke_s	s	n/a
251.629	0.1595	503258	keystroke_i	i	n/a
251.7245	0.1675	503449	keystroke_o	o	n/a
251.8365	0.1275	503673	keystroke_n	n	n/a
251.924	0.168	503848	keystroke_Key.space	Key.space	n/a
252.132	0.1285	504264	keystroke_f	f	n/a
252.325	0.0795	504650	keystroke_u	u	n/a
252.5245	0.0645	505049	keystroke_z	z	n/a
252.7005	0.0485	505401	keystroke_z	z	n/a
252.7565	0.12	505513	keystroke_y	y	n/a
252.8845	0.136	505769	keystroke_Key.space	Key.space	n/a
253.228	0.0965	506456	keystroke_a	a	n/a
253.3485	0.08	506697	keystroke_l	l	n/a
253.764	0.08	507528	keystroke_Key.backspace	Key.backspace	n/a
253.916	0.072	507832	keystroke_Key.backspace	Key.backspace	n/a
254.0045	0.088	508009	keystroke_s	s	n/a
254.0845	0.1115	508169	keystroke_t	t	n/a
254.204	0.097	508408	keystroke_a	a	n/a
254.324	0.1045	508648	keystroke_n	n	n/a
254.716	0.096	509432	keystroke_Key.enter	Key.enter	n/a
254.8185	10.4595	509637	prompt	n/a	sbjct territories propecia translator\n
255.66	0.16	511320	keystroke_s	s	n/a
255.868	0.08	511736	keystroke_b	b	n/a
256.109	0.072	512218	keystroke_j	j	n/a
256.524	0.072	513048	keystroke_Key.backspace	Key.backspace	n/a
257.0925	0.096	514185	keystroke_j	j	n/a
257.2445	0.12	514489	keystroke_c	c	n/a
257.5805	0.104	515161	keystroke_t	t	n/a
257.7805	0.111	515561	keystroke_Key.space	Key.space	n/a
257.9005	0.1205	515801	keystroke_t	t	n/a
258.0765	0.144	516153	keystroke_e	e	n/a
258.2925	0.096	516585	keystroke_t	t	n/a
258.716	0.08	517432	keystroke_Key.backspace	Key.backspace	n/a
258.8205	0.0715	517641	keystroke_r	r	n/a
259.004	0.08	518008	keystroke_r	r	n/a
259.1245	0.1205	518249	keystroke_i	i	n/a
259.3565	0.096	518713	keystroke_t	t	n/a
259.4525	0.096	518905	keystroke_o	o	n/a
259.621	0.1195	519242	keystroke_r	r	n/a
259.717	0.095	519434	keystroke_i	i	n/a
259.7805	0.232	519561	keystroke_e	e	n/a
259.9245	0.159	519849	keystroke_s	s	n/a
260.5565	0.151	521113	keystroke_Key.space	Key.space	n/a
260.86	0.096	521720	keystroke_p	p	n/a
261.004	0.096	522008	keystroke_r	r	n/a
261.084	0.1685	522168	keystroke_o	o	n/a
261.46	0.0885	522920	keystroke_p	p	n/a
261.7645	0.1515	523529	keystroke_e	e	n/a
261.948	0.128	523896	keystroke_c	c	n/a
262.052	0.1045	524104	keystroke_i	i	n/a
262.18	0.112	524360	keystroke_a	a	n/a
262.436	0.1285	524872	keystroke_Key.space	Key.space	n/a
262.5965	0.096	525193	keystroke_t	t	n/a
262.8365	0.12	525673	keystroke_r	r	n/a
262.9235	0.104	525847	keystroke_a	a	n/a
263.0765	0.0955	526153	keystroke_n	n	n/a
263.1965	0.088	526393	keystroke_s	s	n/a
263.38	0.105	526760	keystroke_l	l	n/a
263.5235	0.056	527047	keystroke_a	a	n/a
263.588	0.144	527176	keystroke_t	t	n/a
264.22	0.0885	528440	keystroke_r	r	n/a
264.5795	0.072	529159	keystroke_Key.backspace	Key.backspace	n/a
264.82	0.096	529640	keystroke_o	o	n/a
264.9	0.112	529800	keystroke_r	r	n/a
265.1875	0.088	530375	keystroke_Key.enter	Key.enter	n/a
265.283	7.979	530566	prompt	n/a	collaboration experimental licensing accent\n
266.012	0.16	532024	keystroke_c	c	n/a
266.116	0.064	532232	keystroke_o	o	n/a
266.3315	0.065	532663	keystroke_l	l	n/a
266.4845	0.072	532969	keystroke_l	l	n/a
266.5965	0.0795	533193	keystroke_a	a	n/a
266.836	0.096	533672	keystroke_b	b	n/a
267.1	0.104	534200	keystroke_o	o	n/a
267.196	0.144	534392	keystroke_r	r	n/a
267.428	0.08	534856	keystroke_a	a	n/a
267.612	0.1285	535224	keystroke_t	t	n/a
267.7245	0.1355	535449	keystroke_i	i	n/a
267.82	0.104	535640	keystroke_o	o	n/a
267.964	0.1355	535928	keystroke_n	n	n/a
268.084	0.1435	536168	keystroke_Key.space	Key.space	n/a
268.2365	0.1035	536473	keystroke_e	e	n/a
268.5	0.104	537000	keystroke_x	x	n/a
268.5965	0.1355	537193	keystroke_p	p	n/a
268.8045	0.1995	537609	keystroke_e	e	n/a
268.932	0.16	537864	keystroke_r	r	n/a
269.1085	0.08	538217	keystroke_i	i	n/a
269.3165	0.104	538633	keystroke_m	m	n/a
269.4445	0.176	538889	keystroke_e	e	n/a
269.5885	0.111	539177	keystroke_n	n	n/a
269.6595	0.184	539319	keystroke_t	t	n/a
269.8675	0.096	539735	keystroke_a	a	n/a
269.9795	0.1125	539959	keystroke_l	l	n/a
270.06	0.1675	540120	keystroke_Key.space	Key.space	n/a
270.2605	0.055	540521	keystroke_l	l	n/a
270.444	0.0965	540888	keystroke_i	i	n/a
270.5085	0.136	541017	keystroke_c	c	n/a
270.972	0.16	541944	keystroke_e	e	n/a
271.1795	0.1125	542359	keystroke_n	n	n/a
271.3555	0.0645	542711	keystroke_s	s	n/a
271.4595	0.096	542919	keystroke_i	i	n/a
271.6285	0.136	543257	keystroke_n	n	n/a
271.7075	0.1205	543415	keystroke_g	g	n/a
271.82	0.152	543640	keystroke_Key.space	Key.space	n/a
272.2285	0.079	544457	keystroke_a	a	n/a
272.4195	0.08	544839	keystroke_c	c	n/a
272.5955	0.113	545191	keystroke_c	c	n/a
272.6915	0.1605	545383	keystroke_e	e	n/a
272.8275	0.112	545655	keystroke_n	n	n/a
272.924	0.1765	545848	keystroke_t	t	n/a
273.1715	0.0885	546343	keystroke_Key.enter	Key.enter	n/a
273.269	6.1925	546538	prompt	n/a	scientist dial maritime employment\n
273.964	0.12	547928	keystroke_s	s	n/a
274.228	0.12	548456	keystroke_c	c	n/a
274.284	0.12	548568	keystroke_i	i	n/a
274.4365	0.176	548873	keystroke_e	e	n/a
274.5885	0.1115	549177	keystroke_n	n	n/a
274.684	0.16	549368	keystroke_t	t	n/a
274.972	0.112	549944	keystroke_i	i	n/a
275.0755	0.1285	550151	keystroke_s	s	n/a
275.2115	0.152	550423	keystroke_t	t	n/a
275.348	0.144	550696	keystroke_Key.space	Key.space	n/a
275.6915	0.072	551383	keystroke_d	d	n/a
275.7715	0.097	551543	keystroke_i	i	n/a
275.9085	0.1115	551817	keystroke_a	a	n/a
276.0125	0.1115	552025	keystroke_l	l	n/a
276.1245	0.1675	552249	keystroke_Key.space	Key.space	n/a
276.3565	0.1115	552713	keystroke_m	m	n/a
276.4605	0.1035	552921	keystroke_a	a	n/a
276.556	0.1115	553112	keystroke_r	r	n/a
276.6595	0.1205	553319	keystroke_i	i	n/a
276.828	0.1365	553656	keystroke_t	t	n/a
276.956	0.088	553912	keystroke_i	i	n/a
277.092	0.144	554184	keystroke_m	m	n/a
277.212	0.1285	554424	keystroke_e	e	n/a
277.3235	0.1525	554647	keystroke_Key.space	Key.space	n/a
277.6205	0.112	555241	keystroke_e	e	n/a
277.7565	0.0955	555513	keystroke_m	m	n/a
277.956	0.1605	555912	keystroke_p	p	n/a
278.052	0.1595	556104	keystroke_l	l	n/a
278.2995	0.0965	556599	keystroke_o	o	n/a
278.5645	0.095	557129	keystroke_y	y	n/a
278.8365	0.103	557673	keystroke_m	m	n/a
278.9715	0.1365	557943	keystroke_e	e	n/a
279.0605	0.104	558121	keystroke_n	n	n/a
279.157	0.1585	558314	keystroke_t	t	n/a
279.4035	0.056	558807	keystroke_Key.enter	Key.enter	n/a
279.4655	7.3485	558931	prompt	n/a	harvest charges lambda deposits\n
280.116	0.128	560232	keystroke_h	h	n/a
280.212	0.104	560424	keystroke_a	a	n/a
280.292	0.112	560584	keystroke_r	r	n/a
280.6035	0.1365	561207	keystroke_v	v	n/a
280.7245	0.1835	561449	keystroke_e	e	n/a
280.82	0.2	561640	keystroke_s	s	n/a
280.996	0.144	561992	keystroke_t	t	n/a
281.148	0.136	562296	keystroke_Key.space	Key.space	n/a
281.34	0.104	562680	keystroke_c	c	n/a
281.4365	0.0795	562873	keystroke_h	h	n/a
281.556	0.16	563112	keystroke_a	a	n/a
281.676	0.12	563352	keystroke_r	r	n/a
281.9805	0.1595	563961	keystroke_g	g	n/a
282.1	0.12	564200	keystroke_e	e	n/a
282.156	0.144	564312	keystroke_s	s	n/a
282.292	0.152	564584	keystroke_Key.space	Key.space	n/a
282.452	0.12	564904	keystroke_l	l	n/a
282.596	0.08	565192	keystroke_a	a	n/a
282.7075	0.088	565415	keystroke_m	m	n/a
283.1875	0.0965	566375	keystroke_b	b	n/a
283.396	0.128	566792	keystroke_d	d	n/a
283.652	0.088	567304	keystroke_a	a	n/a
284.076	0.119	568152	keystroke_Key.space	Key.space	n/a
284.34	0.096	568680	keystroke_d	d	n/a
284.396	0.1605	568792	keystroke_e	e	n/a
284.564	0.112	569128	keystroke_p	p	n/a
285.012	0.12	570024	keystroke_o	o	n/a
285.14	0.104	570280	keystroke_s	s	n/a
285.34	0.096	570680	keystroke_i	i	n/a
285.444	0.192	570888	keystroke_t	t	n/a
285.58	0.176	571160	keystroke_e	e	n/a
285.724	0.1285	571448	keystroke_s	s	n/a
286.236	0.072	572472	keystroke_Key.backspace	Key.backspace	n/a
286.428	0.04	572856	keystroke_Key.backspace	Key.backspace	n/a
286.4845	0.0795	572969	keystroke_s	s	n/a
286.748	0.0635	573496	keystroke_Key.enter	Key.enter	n/a
286.817	7.397	573634	prompt	n/a	mechanical prayers evans pregnancy\n
287.652	0.1125	575304	keystroke_m	m	n/a
287.74	0.1285	575480	keystroke_e	e	n/a
287.979	0.153	575958	keystroke_c	c	n/a
288.172	0.096	576344	keystroke_h	h	n/a
288.4355	0.096	576871	keystroke_a	a	n/a
288.78	0.103	577560	keystroke_n	n	n/a
288.996	0.0885	577992	keystroke_i	i	n/a
289.1085	0.1355	578217	keystroke_c	c	n/a
289.236	0.144	578472	keystroke_a	a	n/a
289.364	0.128	578728	keystroke_l	l	n/a
289.524	0.1515	579048	keystroke_Key.space	Key.space	n/a
289.8275	0.1045	579655	keystroke_p	p	n/a
289.9475	0.1605	579895	keystroke_r	r	n/a
290.0675	0.1285	580135	keystroke_a	a	n/a
290.236	0.1045	580472	keystroke_y	y	n/a
290.388	0.095	580776	keystroke_e	e	n/a
290.4195	0.168	580839	keystroke_r	r	n/a
290.571	0.121	581142	keystroke_s	s	n/a
290.7315	0.104	581463	keystroke_Key.space	Key.space	n/a
290.9075	0.12	581815	keystroke_e	e	n/a
291.14	0.096	582280	keystroke_v	v	n/a
291.3235	0.0885	582647	keystroke_a	a	n/a
291.412	0.1195	582824	keystroke_n	n	n/a
291.516	0.096	583032	keystroke_s	s	n/a
291.6595	0.136	583319	keystroke_Key.space	Key.space	n/a
291.8515	0.112	583703	keystroke_p	p	n/a
291.9235	0.104	583847	keystroke_r	r	n/a
291.9795	0.144	583959	keystroke_e	e	n/a
292.2115	0.112	584423	keystroke_g	g	n/a
292.364	0.1355	584728	keystroke_n	n	n/a
292.5555	0.056	585111	keystroke_a	a	n/a
292.644	0.104	585288	keystroke_n	n	n/a
292.9	0.048	585800	keystroke_z	z	n/a
293.3	0.095	586600	keystroke_Key.backspace	Key.backspace	n/a
293.419	0.1125	586838	keystroke_c	c	n/a
293.6115	0.1125	587223	keystroke_y	y	n/a
294.1555	0.0565	588311	keystroke_Key.enter	Key.enter	n/a
294.218	7.1075	588436	prompt	n/a	knows donor intellectual possibly\n
294.9555	0.072	589911	keystroke_k	k	n/a
295.1475	0.096	590295	keystroke_n	n	n/a
295.316	0.0955	590632	keystroke_o	o	n/a
295.3795	0.072	590759	keystroke_w	w	n/a
295.5955	0.0725	591191	keystroke_s	s	n/a
295.6755	0.136	591351	keystroke_Key.space	Key.space	n/a
295.8275	0.08	591655	keystroke_d	d	n/a
295.8915	0.1045	591783	keystroke_o	o	n/a
296.0755	0.1045	592151	keystroke_n	n	n/a
296.228	0.1275	592456	keystroke_o	o	n/a
296.4915	0.104	592983	keystroke_r	r	n/a
296.843	0.1285	593686	keystroke_Key.space	Key.space	n/a
297.5155	0.064	595031	keystroke_i	i	n/a
297.6755	0.12	595351	keystroke_n	n	n/a
297.7795	0.144	595559	keystroke_t	t	n/a
297.9395	0.1285	595879	keystroke_e	e	n/a
298.0915	0.064	596183	keystroke_l	l	n/a
298.2595	0.104	596519	keystroke_l	l	n/a
298.404	0.1275	596808	keystroke_e	e	n/a
298.6115	0.0715	597223	keystroke_c	c	n/a
298.868	0.1435	597736	keystroke_t	t	n/a
298.956	0.1195	597912	keystroke_u	u	n/a
299.1075	0.088	598215	keystroke_a	a	n/a
299.2435	0.136	598487	keystroke_l	l	n/a
299.412	0.136	598824	keystroke_Key.space	Key.space	n/a
299.6995	0.12	599399	keystroke_p	p	n/a
299.9235	0.112	599847	keystroke_o	o	n/a
300.0755	0.064	600151	keystroke_s	s	n/a
300.2595	0.056	600519	keystroke_s	s	n/a
300.308	0.088	600616	keystroke_i	i	n/a
300.476	0.087	600952	keystroke_b	b	n/a
300.652	0.0955	601304	keystroke_l	l	n/a
300.867	0.072	601734	keystroke_y	y	n/a
301.259	0.064	602518	keystroke_Key.enter	Key.enter	n/a
301.33	7.4355	602660	prompt	n/a	manner considered what've jenny\n
301.988	0.072	603976	keystroke_m	m	n/a
302.0835	0.136	604167	keystroke_a	a	n/a
302.2275	0.072	604455	keystroke_n	n	n/a
302.396	0.088	604792	keystroke_n	n	n/a
302.556	0.151	605112	keystroke_r	r	n/a
302.747	0.144	605494	keystroke_Key.space	Key.space	n/a
303.283	0.0885	606566	keystroke_Key.backspace	Key.backspace	n/a
303.4595	0.088	606919	keystroke_Key.backspace	Key.backspace	n/a
303.5795	0.096	607159	keystroke_e	e	n/a
303.6355	0.112	607271	keystroke_r	r	n/a
303.7395	0.16	607479	keystroke_Key.space	Key.space	n/a
303.9715	0.144	607943	keystroke_c	c	n/a
304.028	0.0875	608056	keystroke_o	o	n/a
304.196	0.128	608392	keystroke_n	n	n/a
304.2995	0.1035	608599	keystroke_s	s	n/a
304.435	0.112	608870	keystroke_i	i	n/a
304.5395	0.136	609079	keystroke_d	d	n/a
304.6515	0.208	609303	keystroke_e	e	n/a
304.8195	0.152	609639	keystroke_r	r	n/a
304.9795	0.192	609959	keystroke_e	e	n/a
305.1635	0.1365	610327	keystroke_d	d	n/a
305.3635	0.1445	610727	keystroke_Key.space	Key.space	n/a
305.684	0.104	611368	keystroke_w	w	n/a
305.7955	0.096	611591	keystroke_h	h	n/a
305.924	0.088	611848	keystroke_a	a	n/a
306.028	0.1195	612056	keystroke_t	t	n/a
306.26	0.08	612520	keystroke_'	'	n/a
306.388	0.0955	612776	keystroke_v	v	n/a
306.644	0.072	613288	keystroke_e	e	n/a
307.036	0.151	614072	keystroke_Key.space	Key.space	n/a
307.2595	0.0795	614519	keystroke_j	j	n/a
307.347	0.097	614694	keystroke_e	e	n/a
307.747	0.112	615494	keystroke_n	n	n/a
307.883	0.12	615766	keystroke_n	n	n/a
308.235	0.104	616470	keystroke_y	y	n/a
308.683	0.08	617366	keystroke_Key.enter	Key.enter	n/a
308.77	9.6685	617540	prompt	n/a	bearing advertisement gratuit weighted\n
309.54	0.1035	619080	keystroke_b	b	n/a
309.6355	0.1525	619271	keystroke_e	e	n/a
309.771	0.1285	619542	keystroke_a	a	n/a
309.8675	0.128	619735	keystroke_r	r	n/a
309.9545	0.097	619909	keystroke_i	i	n/a
310.1315	0.112	620263	keystroke_n	n	n/a
310.228	0.1355	620456	keystroke_g	g	n/a
310.3155	0.16	620631	keystroke_Key.space	Key.space	n/a
310.563	0.145	621126	keystroke_a	a	n/a
310.7	0.096	621400	keystroke_d	d	n/a
310.9475	0.104	621895	keystroke_v	v	n/a
311.1235	0.1835	622247	keystroke_e	e	n/a
311.2515	0.16	622503	keystroke_r	r	n/a
311.628	0.143	623256	keystroke_t	t	n/a
311.756	0.0875	623512	keystroke_i	i	n/a
311.8995	0.0875	623799	keystroke_s	s	n/a
312.148	0.087	624296	keystroke_m	m	n/a
312.6595	0.0635	625319	keystroke_Key.backspace	Key.backspace	n/a
312.756	0.072	625512	keystroke_e	e	n/a
312.964	0.1115	625928	keystroke_m	m	n/a
313.0905	0.113	626181	keystroke_e	e	n/a
313.2195	0.112	626439	keystroke_n	n	n/a
313.2915	0.1845	626583	keystroke_t	t	n/a
313.459	0.1365	626918	keystroke_Key.space	Key.space	n/a
313.724	0.079	627448	keystroke_g	g	n/a
313.996	0.143	627992	keystroke_r	r	n/a
314.1555	0.1195	628311	keystroke_a	a	n/a
314.347	0.129	628694	keystroke_t	t	n/a
314.6355	0.1125	629271	keystroke_u	u	n/a
315.019	0.12	630038	keystroke_i	i	n/a
315.147	0.16	630294	keystroke_t	t	n/a
316.115	0.12	632230	keystroke_Key.space	Key.space	n/a
316.419	0.0885	632838	keystroke_w	w	n/a
316.6515	0.0955	633303	keystroke_e	e	n/a
316.7555	0.096	633511	keystroke_i	i	n/a
316.867	0.1125	633734	keystroke_g	g	n/a
316.9885	0.127	633977	keystroke_h	h	n/a
317.1795	0.144	634359	keystroke_t	t	n/a
317.3315	0.2	634663	keystroke_e	e	n/a
317.5155	0.0955	635031	keystroke_d	d	n/a
318.315	0.12	636630	keystroke_Key.enter	Key.enter	n/a
318.4425	6.947	636885	prompt	n/a	number visited conf conversion\n
319.2115	0.104	638423	keystroke_n	n	n/a
319.3875	0.088	638775	keystroke_u	u	n/a
319.5955	0.0955	639191	keystroke_m	m	n/a
319.8515	0.096	639703	keystroke_b	b	n/a
319.915	0.128	639830	keystroke_e	e	n/a
319.9875	0.128	639975	keystroke_r	r	n/a
320.107	0.144	640214	keystroke_Key.space	Key.space	n/a
320.331	0.0965	640662	keystroke_v	v	n/a
320.404	0.095	640808	keystroke_i	i	n/a
320.5635	0.0965	641127	keystroke_s	s	n/a
320.6355	0.104	641271	keystroke_i	i	n/a
320.772	0.143	641544	keystroke_t	t	n/a
321.012	0.1275	642024	keystroke_e	e	n/a
321.123	0.128	642246	keystroke_d	d	n/a
321.283	0.12	642566	keystroke_Key.space	Key.space	n/a
321.515	0.088	643030	keystroke_c	c	n/a
321.5555	0.1275	643111	keystroke_o	o	n/a
321.7715	0.12	643543	keystroke_n	n	n/a
321.852	0.103	643704	keystroke_f	f	n/a
322.1715	0.1355	644343	keystroke_Key.space	Key.space	n/a
322.3795	0.1115	644759	keystroke_c	c	n/a
322.4515	0.08	644903	keystroke_o	o	n/a
322.604	0.135	645208	keystroke_n	n	n/a
322.7155	0.088	645431	keystroke_v	v	n/a
322.859	0.208	645718	keystroke_e	e	n/a
323.004	0.167	646008	keystroke_r	r	n/a
323.147	0.1365	646294	keystroke_s	s	n/a
323.2515	0.1195	646503	keystroke_o	o	n/a
323.2675	0.0715	646535	keystroke_i	i	n/a
323.331	0.16	646662	keystroke_n	n	n/a
324.091	0.056	648182	keystroke_Key.backspace	Key.backspace	n/a
324.235	0.072	648470	keystroke_Key.backspace	Key.backspace	n/a
324.395	0.072	648790	keystroke_Key.backspace	Key.backspace	n/a
324.708	0.1435	649416	keystroke_i	i	n/a
324.7955	0.1675	649591	keystroke_o	o	n/a
324.9395	0.12	649879	keystroke_n	n	n/a
325.307	0.08	650614	keystroke_Key.enter	Key.enter	n/a
325.3925	8.0525	650785	prompt	n/a	dirt vehicles specialists cocktail\n
326.1875	0.104	652375	keystroke_d	d	n/a
326.284	0.1115	652568	keystroke_i	i	n/a
326.4435	0.0955	652887	keystroke_r	r	n/a
326.883	0.1525	653766	keystroke_t	t	n/a
327.1225	0.136	654245	keystroke_Key.space	Key.space	n/a
327.5075	0.1445	655015	keystroke_v	v	n/a
327.691	0.144	655382	keystroke_e	e	n/a
327.9715	0.112	655943	keystroke_h	h	n/a
328.2585	0.113	656517	keystroke_i	i	n/a
328.3875	0.104	656775	keystroke_c	c	n/a
328.6425	0.057	657285	keystroke_l	l	n/a
328.7075	0.199	657415	keystroke_e	e	n/a
328.819	0.216	657638	keystroke_s	s	n/a
328.987	0.128	657974	keystroke_Key.space	Key.space	n/a
329.411	0.1045	658822	keystroke_p	p	n/a
329.787	0.0725	659574	keystroke_Key.backspace	Key.backspace	n/a
329.9075	0.088	659815	keystroke_s	s	n/a
330.051	0.1045	660102	keystroke_p	p	n/a
330.1785	0.1685	660357	keystroke_e	e	n/a
330.395	0.144	660790	keystroke_c	c	n/a
330.507	0.1045	661014	keystroke_i	i	n/a
330.675	0.0885	661350	keystroke_a	a	n/a
330.78	0.1115	661560	keystroke_l	l	n/a
330.9955	0.1195	661991	keystroke_i	i	n/a
331.116	0.135	662232	keystroke_s	s	n/a
331.227	0.144	662454	keystroke_t	t	n/a
331.3635	0.1035	662727	keystroke_s	s	n/a
331.547	0.144	663094	keystroke_Key.space	Key.space	n/a
331.7865	0.105	663573	keystroke_c	c	n/a
331.8355	0.104	663671	keystroke_o	o	n/a
332.1395	0.096	664279	keystroke_c	c	n/a
332.2195	0.112	664439	keystroke_k	k	n/a
332.5395	0.1435	665079	keystroke_t	t	n/a
332.6835	0.088	665367	keystroke_a	a	n/a
332.7635	0.1445	665527	keystroke_i	i	n/a
332.851	0.152	665702	keystroke_l	l	n/a
333.3395	0.1035	666679	keystroke_Key.enter	Key.enter	n/a
333.45	7.158	666900	prompt	n/a	deadline prix matched instrument\n
334.2435	0.152	668487	keystroke_d	d	n/a
334.347	0.168	668694	keystroke_e	e	n/a
334.8515	0.056	669703	keystroke_d	d	n/a
335.347	0.072	670694	keystroke_Key.backspace	Key.backspace	n/a
335.428	0.095	670856	keystroke_a	a	n/a
335.611	0.096	671222	keystroke_d	d	n/a
335.7155	0.1195	671431	keystroke_l	l	n/a
335.891	0.104	671782	keystroke_i	i	n/a
336.107	0.088	672214	keystroke_n	n	n/a
336.1955	0.1035	672391	keystroke_e	e	n/a
336.355	0.144	672710	keystroke_Key.space	Key.space	n/a
336.555	0.112	673110	keystroke_p	p	n/a
336.635	0.136	673270	keystroke_r	r	n/a
336.803	0.1045	673606	keystroke_i	i	n/a
336.963	0.128	673926	keystroke_x	x	n/a
337.099	0.112	674198	keystroke_Key.space	Key.space	n/a
337.3475	0.128	674695	keystroke_m	m	n/a
337.4435	0.112	674887	keystroke_a	a	n/a
337.5955	0.096	675191	keystroke_t	t	n/a
337.9075	0.08	675815	keystroke_c	c	n/a
337.9795	0.088	675959	keystroke_h	h	n/a
338.0755	0.168	676151	keystroke_e	e	n/a
338.2035	0.1515	676407	keystroke_d	d	n/a
338.427	0.12	676854	keystroke_Key.space	Key.space	n/a
338.6675	0.087	677335	keystroke_i	i	n/a
338.8745	0.112	677749	keystroke_n	n	n/a
339.0105	0.1205	678021	keystroke_s	s	n/a
339.1075	0.111	678215	keystroke_t	t	n/a
339.3385	0.144	678677	keystroke_r	r	n/a
339.4745	0.0645	678949	keystroke_u	u	n/a
339.7065	0.128	679413	keystroke_m	m	n/a
339.8665	0.1365	679733	keystroke_e	e	n/a
339.979	0.1195	679958	keystroke_n	n	n/a
340.067	0.1515	680134	keystroke_t	t	n/a
340.523	0.08	681046	keystroke_Key.enter	Key.enter	n/a
340.6115	6.305	681223	prompt	n/a	dominican creek circular regions\n
341.387	0.1045	682774	keystroke_d	d	n/a
341.475	0.1045	682950	keystroke_o	o	n/a
341.6675	0.1675	683335	keystroke_m	m	n/a
341.819	0.1285	683638	keystroke_i	i	n/a
342.1145	0.0965	684229	keystroke_n	n	n/a
342.3145	0.112	684629	keystroke_i	i	n/a
342.5955	0.136	685191	keystroke_c	c	n/a
342.7705	0.128	685541	keystroke_a	a	n/a
342.875	0.1195	685750	keystroke_n	n	n/a
343.067	0.112	686134	keystroke_Key.space	Key.space	n/a
343.3075	0.088	686615	keystroke_c	c	n/a
343.587	0.12	687174	keystroke_r	r	n/a
343.6355	0.1355	687271	keystroke_e	e	n/a
343.843	0.144	687686	keystroke_e	e	n/a
343.9635	0.1195	687927	keystroke_k	k	n/a
344.099	0.104	688198	keystroke_Key.space	Key.space	n/a
344.243	0.136	688486	keystroke_c	c	n/a
344.467	0.152	688934	keystroke_i	i	n/a
344.6755	0.088	689351	keystroke_r	r	n/a
344.9715	0.119	689943	keystroke_c	c	n/a
345.003	0.0965	690006	keystroke_u	u	n/a
345.2595	0.0795	690519	keystroke_l	l	n/a
345.355	0.152	690710	keystroke_a	a	n/a
345.491	0.12	690982	keystroke_r	r	n/a
345.6585	0.12	691317	keystroke_Key.space	Key.space	n/a
345.8195	0.111	691639	keystroke_r	r	n/a
345.8995	0.143	691799	keystroke_e	e	n/a
346.1395	0.12	692279	keystroke_g	g	n/a
346.243	0.12	692486	keystroke_i	i	n/a
346.3065	0.1365	692613	keystroke_o	o	n/a
346.435	0.1365	692870	keystroke_n	n	n/a
346.5785	0.056	693157	keystroke_s	s	n/a
346.8505	0.064	693701	keystroke_Key.enter	Key.enter	n/a
346.921	5.7075	693842	prompt	n/a	univ electronics absent worm\n
347.8115	0.103	695623	keystroke_u	u	n/a
347.9635	0.103	695927	keystroke_n	n	n/a
348.1385	0.113	696277	keystroke_i	i	n/a
348.2435	0.0955	696487	keystroke_v	v	n/a
348.507	0.1365	697014	keystroke_Key.space	Key.space	n/a
348.7795	0.096	697559	keystroke_e	e	n/a
348.9155	0.1035	697831	keystroke_l	l	n/a
348.9875	0.1665	697975	keystroke_e	e	n/a
349.147	0.1205	698294	keystroke_c	c	n/a
349.459	0.1285	698918	keystroke_t	t	n/a
349.7075	0.104	699415	keystroke_r	r	n/a
349.7795	0.096	699559	keystroke_o	o	n/a
349.9555	0.112	699911	keystroke_n	n	n/a
350.0835	0.1205	700167	keystroke_i	i	n/a
350.1555	0.159	700311	keystroke_c	c	n/a
350.2995	0.144	700599	keystroke_s	s	n/a
350.4905	0.1525	700981	keystroke_Key.space	Key.space	n/a
350.779	0.08	701558	keystroke_a	a	n/a
350.891	0.144	701782	keystroke_b	b	n/a
351.051	0.0715	702102	keystroke_s	s	n/a
351.2745	0.1365	702549	keystroke_e	e	n/a
351.395	0.136	702790	keystroke_n	n	n/a
351.4355	0.2075	702871	keystroke_t	t	n/a
351.579	0.16	703158	keystroke_Key.space	Key.space	n/a
351.891	0.1285	703782	keystroke_w	w	n/a
352.0025	0.08	704005	keystroke_o	o	n/a
352.091	0.128	704182	keystroke_r	r	n/a
352.1625	0.1525	704325	keystroke_m	m	n/a
352.499	0.128	704998	keystroke_Key.enter	Key.enter	n/a
352.637	5.607	705274	prompt	n/a	asian movies repair rachel\n
353.3635	0.0475	706727	keystroke_s	s	n/a
353.771	0.0315	707542	keystroke_Key.backspace	Key.backspace	n/a
353.8665	0.128	707733	keystroke_a	a	n/a
354.0595	0.112	708119	keystroke_s	s	n/a
354.2025	0.12	708405	keystroke_i	i	n/a
354.387	0.0795	708774	keystroke_a	a	n/a
354.4985	0.1205	708997	keystroke_n	n	n/a
354.6665	0.12	709333	keystroke_Key.space	Key.space	n/a
355.219	0.112	710438	keystroke_m	m	n/a
355.371	0.096	710742	keystroke_o	o	n/a
355.467	0.112	710934	keystroke_v	v	n/a
355.563	0.128	711126	keystroke_i	i	n/a
355.723	0.248	711446	keystroke_e	e	n/a
355.899	0.168	711798	keystroke_s	s	n/a
356.1145	0.1365	712229	keystroke_Key.space	Key.space	n/a
356.331	0.152	712662	keystroke_r	r	n/a
356.395	0.168	712790	keystroke_e	e	n/a
356.579	0.096	713158	keystroke_p	p	n/a
356.715	0.1045	713430	keystroke_a	a	n/a
356.827	0.112	713654	keystroke_i	i	n/a
356.955	0.112	713910	keystroke_r	r	n/a
357.075	0.152	714150	keystroke_Key.space	Key.space	n/a
357.235	0.112	714470	keystroke_r	r	n/a
357.355	0.088	714710	keystroke_a	a	n/a
357.5625	0.1045	715125	keystroke_c	c	n/a
357.619	0.112	715238	keystroke_h	h	n/a
357.739	0.104	715478	keystroke_e	e	n/a
357.859	0.1035	715718	keystroke_l	l	n/a
358.1545	0.088	716309	keystroke_Key.enter	Key.enter	n/a
358.248	6.724	716496	prompt	n/a	resource shouldn't secrets isbn\n
358.915	0.128	717830	keystroke_r	r	n/a
358.979	0.16	717958	keystroke_e	e	n/a
359.259	0.08	718518	keystroke_s	s	n/a
359.435	0.072	718870	keystroke_o	o	n/a
359.6035	0.1195	719207	keystroke_u	u	n/a
359.699	0.08	719398	keystroke_r	r	n/a
359.963	0.104	719926	keystroke_c	c	n/a
360.0275	0.1355	720055	keystroke_e	e	n/a
360.187	0.152	720374	keystroke_Key.space	Key.space	n/a
360.514	0.0965	721028	keystroke_s	s	n/a
360.595	0.12	721190	keystroke_h	h	n/a
360.691	0.136	721382	keystroke_o	o	n/a
360.819	0.096	721638	keystroke_u	u	n/a
361.051	0.072	722102	keystroke_l	l	n/a
361.211	0.1035	722422	keystroke_n	n	n/a
361.563	0.0795	723126	keystroke_Key.backspace	Key.backspace	n/a
361.731	0.088	723462	keystroke_d	d	n/a
361.843	0.088	723686	keystroke_n	n	n/a
362.115	0.08	724230	keystroke_'	'	n/a
362.243	0.111	724486	keystroke_t	t	n/a
362.37	0.145	724740	keystroke_Key.space	Key.space	n/a
362.6675	0.143	725335	keystroke_s	s	n/a
362.7465	0.1525	725493	keystroke_e	e	n/a
363.019	0.0875	726038	keystroke_c	c	n/a
363.267	0.144	726534	keystroke_r	r	n/a
363.323	0.1915	726646	keystroke_e	e	n/a
363.539	0.167	727078	keystroke_t	t	n/a
363.666	0.121	727332	keystroke_s	s	n/a
363.946	0.136	727892	keystroke_Key.space	Key.space	n/a
364.091	0.0955	728182	keystroke_i	i	n/a
364.178	0.12	728356	keystroke_s	s	n/a
364.3225	0.0965	728645	keystroke_b	b	n/a
364.555	0.096	729110	keystroke_n	n	n/a
364.8905	0.08	729781	keystroke_Key.enter	Key.enter	n/a
364.976	5.316	729952	prompt	n/a	bedding loss republican reid\n
365.81	0.0885	731620	keystroke_b	b	n/a
365.8985	0.1285	731797	keystroke_e	e	n/a
366.0585	0.08	732117	keystroke_d	d	n/a
366.251	0.0725	732502	keystroke_d	d	n/a
366.307	0.0875	732614	keystroke_i	i	n/a
366.4425	0.1285	732885	keystroke_n	n	n/a
366.5305	0.1525	733061	keystroke_g	g	n/a
366.6425	0.152	733285	keystroke_Key.space	Key.space	n/a
366.7785	0.088	733557	keystroke_l	l	n/a
366.9785	0.096	733957	keystroke_o	o	n/a
367.1235	0.0635	734247	keystroke_s	s	n/a
367.315	0.0555	734630	keystroke_s	s	n/a
367.5225	0.128	735045	keystroke_Key.space	Key.space	n/a
367.6665	0.104	735333	keystroke_r	r	n/a
367.7065	0.184	735413	keystroke_e	e	n/a
367.9865	0.096	735973	keystroke_p	p	n/a
368.2025	0.096	736405	keystroke_u	u	n/a
368.386	0.104	736772	keystroke_b	b	n/a
368.618	0.0965	737236	keystroke_l	l	n/a
368.7065	0.112	737413	keystroke_i	i	n/a
368.8105	0.1515	737621	keystroke_c	c	n/a
368.955	0.119	737910	keystroke_a	a	n/a
369.05	0.1365	738100	keystroke_n	n	n/a
369.1785	0.1435	738357	keystroke_Key.space	Key.space	n/a
369.4185	0.144	738837	keystroke_r	r	n/a
369.539	0.1595	739078	keystroke_e	e	n/a
369.6825	0.104	739365	keystroke_i	i	n/a
369.875	0.136	739750	keystroke_d	d	n/a
370.1865	0.104	740373	keystroke_Key.enter	Key.enter	n/a
370.2985	6.162	740597	prompt	n/a	mirror afternoon mini debian\n
371.0595	0.103	742119	keystroke_m	m	n/a
371.203	0.1115	742406	keystroke_i	i	n/a
371.299	0.0715	742598	keystroke_r	r	n/a
371.4585	0.08	742917	keystroke_r	r	n/a
371.587	0.08	743174	keystroke_o	o	n/a
371.706	0.104	743412	keystroke_r	r	n/a
371.922	0.136	743844	keystroke_Key.space	Key.space	n/a
372.122	0.088	744244	keystroke_a	a	n/a
372.3235	0.0475	744647	keystroke_f	f	n/a
372.786	0.104	745572	keystroke_t	t	n/a
372.947	0.175	745894	keystroke_e	e	n/a
373.0905	0.1045	746181	keystroke_r	r	n/a
373.379	0.0875	746758	keystroke_n	n	n/a
373.5945	0.0805	747189	keystroke_o	o	n/a
373.7545	0.088	747509	keystroke_o	o	n/a
373.9545	0.1435	747909	keystroke_n	n	n/a
374.082	0.128	748164	keystroke_Key.space	Key.space	n/a
374.4105	0.112	748821	keystroke_m	m	n/a
374.506	0.1205	749012	keystroke_i	i	n/a
374.6825	0.1355	749365	keystroke_n	n	n/a
374.7785	0.1435	749557	keystroke_i	i	n/a
374.994	0.168	749988	keystroke_Key.space	Key.space	n/a
375.315	0.144	750630	keystroke_d	d	n/a
375.45	0.121	750900	keystroke_e	e	n/a
375.603	0.12	751206	keystroke_b	b	n/a
375.827	0.104	751654	keystroke_i	i	n/a
375.947	0.136	751894	keystroke_a	a	n/a
376.043	0.112	752086	keystroke_n	n	n/a
376.386	0.073	752772	keystroke_Key.enter	Key.enter	n/a
376.465	8.795	752930	prompt	n/a	weak submitting receiver contributions\n
377.194	0.081	754388	keystroke_w	w	n/a
377.41	0.144	754820	keystroke_e	e	n/a
377.547	0.135	755094	keystroke_a	a	n/a
377.674	0.096	755348	keystroke_k	k	n/a
377.818	0.16	755636	keystroke_Key.space	Key.space	n/a
378.1385	0.096	756277	keystroke_s	s	n/a
378.1865	0.0965	756373	keystroke_u	u	n/a
378.3865	0.0725	756773	keystroke_b	b	n/a
378.674	0.144	757348	keystroke_m	m	n/a
378.771	0.127	757542	keystroke_i	i	n/a
378.8745	0.1035	757749	keystroke_t	t	n/a
379.0745	0.088	758149	keystroke_t	t	n/a
379.1305	0.064	758261	keystroke_i	i	n/a
379.2745	0.112	758549	keystroke_n	n	n/a
379.3705	0.1285	758741	keystroke_g	g	n/a
379.7625	0.1195	759525	keystroke_Key.space	Key.space	n/a
379.978	0.121	759956	keystroke_r	r	n/a
380.043	0.176	760086	keystroke_e	e	n/a
380.33	0.137	760660	keystroke_c	c	n/a
380.443	0.159	760886	keystroke_e	e	n/a
380.6505	0.1035	761301	keystroke_i	i	n/a
380.779	0.103	761558	keystroke_v	v	n/a
380.923	0.184	761846	keystroke_e	e	n/a
381.083	0.128	762166	keystroke_r	r	n/a
381.243	0.1515	762486	keystroke_Key.space	Key.space	n/a
381.5065	0.1195	763013	keystroke_c	c	n/a
381.5945	0.0955	763189	keystroke_o	o	n/a
381.77	0.152	763540	keystroke_n	n	n/a
381.9145	0.1115	763829	keystroke_t	t	n/a
382.1545	0.128	764309	keystroke_r	r	n/a
382.2425	0.096	764485	keystroke_i	i	n/a
382.562	0.145	765124	keystroke_b	b	n/a
382.7705	0.1445	765541	keystroke_u	u	n/a
382.9305	0.1365	765861	keystroke_t	t	n/a
383.227	0.1595	766454	keystroke_i	i	n/a
383.2425	0.1845	766485	keystroke_o	o	n/a
383.6265	0.096	767253	keystroke_s	s	n/a
384.33	0.088	768660	keystroke_Key.backspace	Key.backspace	n/a
384.6345	0.0885	769269	keystroke_n	n	n/a
384.7625	0.072	769525	keystroke_s	s	n/a
385.186	0.0725	770372	keystroke_Key.enter	Key.enter	n/a
385.264	9.1395	770528	prompt	n/a	impression government stunning canberra\n
386.0185	0.0955	772037	keystroke_i	i	n/a
386.218	0.096	772436	keystroke_m	m	n/a
386.442	0.112	772884	keystroke_p	p	n/a
386.5465	0.1675	773093	keystroke_r	r	n/a
386.6425	0.1605	773285	keystroke_e	e	n/a
386.77	0.104	773540	keystroke_s	s	n/a
386.9545	0.096	773909	keystroke_s	s	n/a
387.059	0.12	774118	keystroke_i	i	n/a
387.1305	0.12	774261	keystroke_o	o	n/a
387.2585	0.152	774517	keystroke_n	n	n/a
387.3785	0.1515	774757	keystroke_Key.space	Key.space	n/a
387.8265	0.064	775653	keystroke_g	g	n/a
387.9305	0.0885	775861	keystroke_o	o	n/a
388.0505	0.096	776101	keystroke_v	v	n/a
388.2265	0.136	776453	keystroke_e	e	n/a
388.323	0.1275	776646	keystroke_r	r	n/a
388.53	0.0965	777060	keystroke_n	n	n/a
388.8825	0.104	777765	keystroke_m	m	n/a
389.019	0.143	778038	keystroke_e	e	n/a
389.0985	0.1355	778197	keystroke_n	n	n/a
389.218	0.161	778436	keystroke_t	t	n/a
389.394	0.16	778788	keystroke_Key.space	Key.space	n/a
389.578	0.104	779156	keystroke_s	s	n/a
389.674	0.088	779348	keystroke_u	u	n/a
390.066	0.08	780132	keystroke_Key.backspace	Key.backspace	n/a
390.579	0.1035	781158	keystroke_t	t	n/a
390.699	0.0875	781398	keystroke_u	u	n/a
390.834	0.089	781668	keystroke_n	n	n/a
391.002	0.081	782004	keystroke_n	n	n/a
391.146	0.1285	782292	keystroke_i	i	n/a
391.25	0.1125	782500	keystroke_n	n	n/a
391.3145	0.1275	782629	keystroke_g	g	n/a
391.426	0.1685	782852	keystroke_Key.space	Key.space	n/a
391.683	0.136	783366	keystroke_c	c	n/a
391.8985	0.112	783797	keystroke_n	n	n/a
392.3945	0.048	784789	keystroke_Key.backspace	Key.backspace	n/a
392.539	0.0875	785078	keystroke_a	a	n/a
392.6585	0.096	785317	keystroke_n	n	n/a
392.8905	0.1045	785781	keystroke_b	b	n/a
393.026	0.184	786052	keystroke_r	r	n/a
393.482	0.0885	786964	keystroke_Key.backspace	Key.backspace	n/a
393.5785	0.1045	787157	keystroke_e	e	n/a
393.6425	0.16	787285	keystroke_r	r	n/a
393.9785	0.1195	787957	keystroke_r	r	n/a
394.1145	0.104	788229	keystroke_a	a	n/a
394.2905	0.1115	788581	keystroke_Key.enter	Key.enter	n/a
394.4085	8.4835	788817	prompt	n/a	educated bizarre programmers activists\n
395.2105	0.1195	790421	keystroke_e	e	n/a
395.482	0.0645	790964	keystroke_d	d	n/a
395.5945	0.1035	791189	keystroke_u	u	n/a
395.8175	0.121	791635	keystroke_c	c	n/a
395.9865	0.176	791973	keystroke_a	a	n/a
396.259	0.1195	792518	keystroke_t	t	n/a
396.5865	0.128	793173	keystroke_e	e	n/a
396.6985	0.103	793397	keystroke_d	d	n/a
396.7945	0.112	793589	keystroke_Key.space	Key.space	n/a
397.0025	0.096	794005	keystroke_b	b	n/a
397.21	0.096	794420	keystroke_i	i	n/a
397.2905	0.0875	794581	keystroke_z	z	n/a
397.546	0.144	795092	keystroke_a	a	n/a
397.683	0.1035	795366	keystroke_r	r	n/a
397.8745	0.112	795749	keystroke_r	r	n/a
397.9705	0.176	795941	keystroke_e	e	n/a
398.178	0.136	796356	keystroke_Key.space	Key.space	n/a
398.4665	0.072	796933	keystroke_p	p	n/a
398.5545	0.087	797109	keystroke_r	r	n/a
398.674	0.1205	797348	keystroke_o	o	n/a
398.8505	0.072	797701	keystroke_g	g	n/a
399.066	0.1365	798132	keystroke_r	r	n/a
399.178	0.12	798356	keystroke_a	a	n/a
399.3545	0.1035	798709	keystroke_m	m	n/a
399.5705	0.0875	799141	keystroke_m	m	n/a
399.6665	0.12	799333	keystroke_e	e	n/a
399.73	0.128	799460	keystroke_r	r	n/a
399.802	0.1595	799604	keystroke_s	s	n/a
400.0095	0.112	800019	keystroke_Key.space	Key.space	n/a
400.3465	0.071	800693	keystroke_a	a	n/a
400.5305	0.104	801061	keystroke_c	c	n/a
400.803	0.1115	801606	keystroke_t	t	n/a
400.9705	0.112	801941	keystroke_i	i	n/a
401.1545	0.08	802309	keystroke_v	v	n/a
401.266	0.128	802532	keystroke_i	i	n/a
402.1705	0.112	804341	keystroke_s	s	n/a
402.2585	0.168	804517	keystroke_t	t	n/a
402.3945	0.104	804789	keystroke_s	s	n/a
402.754	0.1125	805508	keystroke_Key.enter	Key.enter	n/a
402.9015	5.5185	805803	prompt	n/a	grace volumes nepal minds\n
403.6345	0.1035	807269	keystroke_g	g	n/a
403.882	0.0885	807764	keystroke_r	r	n/a
403.9465	0.1365	807893	keystroke_a	a	n/a
404.1945	0.16	808389	keystroke_c	c	n/a
404.3065	0.144	808613	keystroke_e	e	n/a
404.6585	0.152	809317	keystroke_Key.space	Key.space	n/a
404.9945	0.104	809989	keystroke_v	v	n/a
405.05	0.08	810100	keystroke_o	o	n/a
405.258	0.064	810516	keystroke_l	l	n/a
405.4585	0.08	810917	keystroke_u	u	n/a
405.6665	0.1195	811333	keystroke_m	m	n/a
405.762	0.1685	811524	keystroke_e	e	n/a
405.8585	0.152	811717	keystroke_s	s	n/a
406.0025	0.128	812005	keystroke_Key.space	Key.space	n/a
406.2265	0.104	812453	keystroke_n	n	n/a
406.3225	0.096	812645	keystroke_e	e	n/a
406.4985	0.0875	812997	keystroke_p	p	n/a
406.627	0.0955	813254	keystroke_a	a	n/a
406.7625	0.112	813525	keystroke_l	l	n/a
407.018	0.1115	814036	keystroke_Key.space	Key.space	n/a
407.258	0.0955	814516	keystroke_m	m	n/a
407.6665	0.087	815333	keystroke_i	i	n/a
407.858	0.136	815716	keystroke_n	n	n/a
407.946	0.1205	815892	keystroke_d	d	n/a
408.0345	0.1115	816069	keystroke_s	s	n/a
408.354	0.0635	816708	keystroke_Key.enter	Key.enter	n/a
408.423	7.861	816846	prompt	n/a	dare holidays ensuring issn\n
409.258	0.1285	818516	keystroke_d	d	n/a
409.4025	0.096	818805	keystroke_a	a	n/a
409.586	0.104	819172	keystroke_r	r	n/a
409.642	0.16	819284	keystroke_e	e	n/a
409.754	0.12	819508	keystroke_Key.space	Key.space	n/a
410.018	0.0965	820036	keystroke_h	h	n/a
410.202	0.104	820404	keystroke_o	o	n/a
410.451	0.048	820902	keystroke_l	l	n/a
410.61	0.089	821220	keystroke_i	i	n/a
410.7225	0.128	821445	keystroke_d	d	n/a
410.8585	0.151	821717	keystroke_a	a	n/a
411.2975	0.145	822595	keystroke_y	y	n/a
411.498	0.1365	822996	keystroke_s	s	n/a
411.6815	0.088	823363	keystroke_Key.space	Key.space	n/a
412.0025	0.0955	824005	keystroke_n	n	n/a
412.058	0.072	824116	keystroke_e	e	n/a
412.3615	0.088	824723	keystroke_Key.backspace	Key.backspace	n/a
412.5385	0.0875	825077	keystroke_Key.backspace	Key.backspace	n/a
412.65	0.104	825300	keystroke_e	e	n/a
412.8345	0.128	825669	keystroke_n	n	n/a
413.53	0.112	827060	keystroke_s	s	n/a
413.6025	0.096	827205	keystroke_u	u	n/a
413.778	0.144	827556	keystroke_r	r	n/a
413.8905	0.0875	827781	keystroke_i	i	n/a
414.091	0.1035	828182	keystroke_n	n	n/a
414.1785	0.1435	828357	keystroke_g	g	n/a
414.442	0.136	828884	keystroke_Key.space	Key.space	n/a
414.7865	0.0635	829573	keystroke_e	e	n/a
415.13	0.0795	830260	keystroke_Key.backspace	Key.backspace	n/a
415.402	0.088	830804	keystroke_i	i	n/a
415.4825	0.072	830965	keystroke_s	s	n/a
415.658	0.0475	831316	keystroke_s	s	n/a
415.77	0.1045	831540	keystroke_n	n	n/a
416.202	0.08	832404	keystroke_Key.enter	Key.enter	n/a
416.2885	7.131	832577	prompt	n/a	processing form jerry period\n
417.418	0.08	834836	keystroke_p	p	n/a
417.538	0.104	835076	keystroke_r	r	n/a
417.6505	0.1115	835301	keystroke_o	o	n/a
417.866	0.136	835732	keystroke_c	c	n/a
417.946	0.144	835892	keystroke_e	e	n/a
418.05	0.1125	836100	keystroke_s	s	n/a
418.266	0.0565	836532	keystroke_s	s	n/a
418.346	0.072	836692	keystroke_i	i	n/a
418.514	0.1205	837028	keystroke_n	n	n/a
418.602	0.0965	837204	keystroke_g	g	n/a
418.714	0.152	837428	keystroke_Key.space	Key.space	n/a
418.9225	0.1275	837845	keystroke_f	f	n/a
419.066	0.12	838132	keystroke_r	r	n/a
419.554	0.072	839108	keystroke_Key.backspace	Key.backspace	n/a
419.8345	0.08	839669	keystroke_o	o	n/a
419.962	0.112	839924	keystroke_r	r	n/a
420.082	0.112	840164	keystroke_m	m	n/a
420.258	0.1435	840516	keystroke_Key.space	Key.space	n/a
420.5055	0.113	841011	keystroke_j	j	n/a
420.6095	0.113	841219	keystroke_e	e	n/a
420.69	0.096	841380	keystroke_r	r	n/a
420.898	0.072	841796	keystroke_r	r	n/a
421.0095	0.1365	842019	keystroke_y	y	n/a
421.2655	0.128	842531	keystroke_Key.space	Key.space	n/a
421.786	0.0965	843572	keystroke_p	p	n/a
421.9215	0.073	843843	keystroke_e	e	n/a
421.9465	0.1195	843893	keystroke_r	r	n/a
422.2105	0.168	844421	keystroke_i	i	n/a
422.3145	0.144	844629	keystroke_o	o	n/a
422.4895	0.08	844979	keystroke_d	d	n/a
423.314	0.104	846628	keystroke_Key.enter	Key.enter	n/a
423.425	8.051	846850	prompt	n/a	join investigated picnic georgia\n
424.3785	0.0635	848757	keystroke_i	i	n/a
424.7535	0.0805	849507	keystroke_Key.backspace	Key.backspace	n/a
425.0585	0.191	850117	keystroke_j	j	n/a
425.218	0.1605	850436	keystroke_o	o	n/a
425.3055	0.128	850611	keystroke_i	i	n/a
425.4905	0.159	850981	keystroke_n	n	n/a
425.666	0.1355	851332	keystroke_Key.space	Key.space	n/a
425.7935	0.1045	851587	keystroke_i	i	n/a
425.9545	0.1435	851909	keystroke_n	n	n/a
426.106	0.1605	852212	keystroke_v	v	n/a
426.2665	0.215	852533	keystroke_e	e	n/a
426.433	0.168	852866	keystroke_s	s	n/a
426.577	0.161	853154	keystroke_t	t	n/a
426.722	0.112	853444	keystroke_i	i	n/a
426.898	0.112	853796	keystroke_g	g	n/a
427.114	0.168	854228	keystroke_a	a	n/a
427.2745	0.183	854549	keystroke_t	t	n/a
427.4505	0.2075	854901	keystroke_e	e	n/a
427.6415	0.1125	855283	keystroke_d	d	n/a
427.738	0.144	855476	keystroke_Key.space	Key.space	n/a
427.954	0.096	855908	keystroke_p	p	n/a
428.202	0.103	856404	keystroke_i	i	n/a
428.274	0.12	856548	keystroke_c	c	n/a
428.45	0.12	856900	keystroke_n	n	n/a
428.603	0.1265	857206	keystroke_i	i	n/a
428.938	0.1035	857876	keystroke_c	c	n/a
429.066	0.1355	858132	keystroke_Key.space	Key.space	n/a
429.642	0.12	859284	keystroke_g	g	n/a
429.994	0.104	859988	keystroke_e	e	n/a
430.13	0.08	860260	keystroke_o	o	n/a
430.394	0.111	860788	keystroke_r	r	n/a
430.722	0.0955	861444	keystroke_g	g	n/a
430.7935	0.1045	861587	keystroke_i	i	n/a
431.1535	0.112	862307	keystroke_a	a	n/a
431.378	0.096	862756	keystroke_Key.enter	Key.enter	n/a
431.4845	7.5915	862969	prompt	n/a	conversations azerbaijan gnome persons\n
432.354	0.12	864708	keystroke_c	c	n/a
432.45	0.072	864900	keystroke_o	o	n/a
432.602	0.1355	865204	keystroke_n	n	n/a
432.722	0.096	865444	keystroke_v	v	n/a
432.9055	0.16	865811	keystroke_e	e	n/a
433.0105	0.1915	866021	keystroke_r	r	n/a
433.21	0.136	866420	keystroke_s	s	n/a
433.497	0.1125	866994	keystroke_a	a	n/a
433.5935	0.137	867187	keystroke_t	t	n/a
433.6815	0.136	867363	keystroke_i	i	n/a
433.7855	0.096	867571	keystroke_o	o	n/a
433.8975	0.128	867795	keystroke_n	n	n/a
434.0175	0.072	868035	keystroke_s	s	n/a
434.0975	0.144	868195	keystroke_Key.space	Key.space	n/a
434.25	0.064	868500	keystroke_a	a	n/a
434.474	0.104	868948	keystroke_z	z	n/a
434.746	0.144	869492	keystroke_e	e	n/a
434.834	0.1755	869668	keystroke_r	r	n/a
435.1055	0.1045	870211	keystroke_b	b	n/a
435.2415	0.1205	870483	keystroke_a	a	n/a
435.45	0.112	870900	keystroke_i	i	n/a
435.6505	0.1355	871301	keystroke_j	j	n/a
435.89	0.112	871780	keystroke_a	a	n/a
436.01	0.112	872020	keystroke_n	n	n/a
436.1855	0.144	872371	keystroke_Key.space	Key.space	n/a
436.874	0.1275	873748	keystroke_g	g	n/a
436.994	0.1285	873988	keystroke_n	n	n/a
437.178	0.0965	874356	keystroke_o	o	n/a
437.4495	0.088	874899	keystroke_m	m	n/a
437.562	0.103	875124	keystroke_e	e	n/a
437.666	0.151	875332	keystroke_Key.space	Key.space	n/a
437.905	0.105	875810	keystroke_p	p	n/a
437.994	0.104	875988	keystroke_e	e	n/a
438.0735	0.1445	876147	keystroke_r	r	n/a
438.194	0.096	876388	keystroke_s	s	n/a
438.298	0.0885	876596	keystroke_o	o	n/a
438.4255	0.0965	876851	keystroke_n	n	n/a
438.514	0.08	877028	keystroke_s	s	n/a
438.9855	0.088	877971	keystroke_Key.enter	Key.enter	n/a
439.081	6.778	878162	prompt	n/a	recall princess according voted\n
439.954	0.168	879908	keystroke_r	r	n/a
440.09	0.152	880180	keystroke_e	e	n/a
440.3375	0.1285	880675	keystroke_c	c	n/a
440.49	0.0955	880980	keystroke_a	a	n/a
440.778	0.0725	881556	keystroke_l	l	n/a
440.9695	0.0725	881939	keystroke_l	l	n/a
441.1055	0.1595	882211	keystroke_Key.space	Key.space	n/a
441.289	0.112	882578	keystroke_p	p	n/a
441.409	0.096	882818	keystroke_r	r	n/a
441.538	0.088	883076	keystroke_i	i	n/a
441.7375	0.1525	883475	keystroke_n	n	n/a
441.8335	0.1605	883667	keystroke_c	c	n/a
441.906	0.192	883812	keystroke_e	e	n/a
442.0175	0.1845	884035	keystroke_s	s	n/a
442.2255	0.1285	884451	keystroke_s	s	n/a
442.818	0.127	885636	keystroke_Key.space	Key.space	n/a
443.034	0.088	886068	keystroke_a	a	n/a
443.25	0.104	886500	keystroke_c	c	n/a
443.378	0.1765	886756	keystroke_c	c	n/a
443.7295	0.0965	887459	keystroke_o	o	n/a
443.834	0.0955	887668	keystroke_r	r	n/a
444.1215	0.1125	888243	keystroke_d	d	n/a
444.25	0.064	888500	keystroke_i	i	n/a
444.426	0.112	888852	keystroke_n	n	n/a
444.506	0.127	889012	keystroke_g	g	n/a
444.6655	0.1595	889331	keystroke_Key.space	Key.space	n/a
444.945	0.097	889890	keystroke_v	v	n/a
445.074	0.127	890148	keystroke_o	o	n/a
445.242	0.128	890484	keystroke_t	t	n/a
445.322	0.176	890644	keystroke_e	e	n/a
445.7375	0.1205	891475	keystroke_Key.enter	Key.enter	n/a
445.862	7.381	891724	prompt	n/a	o'er northeast heritage collar\n
447.0175	0.104	894035	keystroke_o	o	n/a
447.625	0.081	895250	keystroke_'	'	n/a
447.69	0.136	895380	keystroke_v	v	n/a
448.3535	0.1285	896707	keystroke_e	e	n/a
448.729	0.1285	897458	keystroke_Key.space	Key.space	n/a
449.0575	0.0965	898115	keystroke_n	n	n/a
449.2655	0.096	898531	keystroke_o	o	n/a
449.3295	0.128	898659	keystroke_r	r	n/a
449.5695	0.192	899139	keystroke_t	t	n/a
449.6575	0.12	899315	keystroke_h	h	n/a
450.2415	0.0885	900483	keystroke_e	e	n/a
450.409	0.153	900818	keystroke_a	a	n/a
450.537	0.097	901074	keystroke_s	s	n/a
450.673	0.168	901346	keystroke_t	t	n/a
450.777	0.1525	901554	keystroke_Key.space	Key.space	n/a
450.93	0.1035	901860	keystroke_h	h	n/a
451.001	0.144	902002	keystroke_e	e	n/a
451.089	0.1045	902178	keystroke_r	r	n/a
451.194	0.1035	902388	keystroke_i	i	n/a
451.4015	0.1435	902803	keystroke_t	t	n/a
451.586	0.0955	903172	keystroke_a	a	n/a
451.8255	0.177	903651	keystroke_g	g	n/a
451.9455	0.1845	903891	keystroke_e	e	n/a
452.0575	0.144	904115	keystroke_Key.space	Key.space	n/a
452.2815	0.12	904563	keystroke_c	c	n/a
452.3695	0.064	904739	keystroke_o	o	n/a
452.5775	0.0645	905155	keystroke_l	l	n/a
452.7375	0.0805	905475	keystroke_l	l	n/a
452.7535	0.144	905507	keystroke_a	a	n/a
452.8655	0.144	905731	keystroke_r	r	n/a
453.169	0.0725	906338	keystroke_Key.enter	Key.enter	n/a
453.246	6.213	906492	prompt	n/a	extending agent national informed\n
453.914	0.095	907828	keystroke_e	e	n/a
454.186	0.111	908372	keystroke_x	x	n/a
454.3615	0.168	908723	keystroke_t	t	n/a
454.497	0.161	908994	keystroke_e	e	n/a
454.6495	0.1115	909299	keystroke_n	n	n/a
454.7935	0.1035	909587	keystroke_d	d	n/a
454.905	0.08	909810	keystroke_i	i	n/a
455.0815	0.104	910163	keystroke_n	n	n/a
455.2655	0.1275	910531	keystroke_g	g	n/a
455.5935	0.12	911187	keystroke_Key.space	Key.space	n/a
455.8015	0.0795	911603	keystroke_a	a	n/a
456.009	0.128	912018	keystroke_g	g	n/a
456.105	0.192	912210	keystroke_e	e	n/a
456.265	0.1285	912530	keystroke_n	n	n/a
456.345	0.1845	912690	keystroke_t	t	n/a
456.481	0.1445	912962	keystroke_Key.space	Key.space	n/a
456.778	0.0955	913556	keystroke_n	n	n/a
456.882	0.1195	913764	keystroke_a	a	n/a
457.0095	0.1595	914019	keystroke_t	t	n/a
457.106	0.135	914212	keystroke_i	i	n/a
457.1615	0.1675	914323	keystroke_o	o	n/a
457.3055	0.1285	914611	keystroke_n	n	n/a
457.449	0.08	914898	keystroke_a	a	n/a
457.5455	0.144	915091	keystroke_l	l	n/a
457.665	0.232	915330	keystroke_Key.space	Key.space	n/a
457.865	0.08	915730	keystroke_i	i	n/a
458.041	0.1365	916082	keystroke_n	n	n/a
458.162	0.1115	916324	keystroke_f	f	n/a
458.377	0.104	916754	keystroke_o	o	n/a
458.553	0.096	917106	keystroke_r	r	n/a
458.6255	0.111	917251	keystroke_m	m	n/a
458.8165	0.201	917633	keystroke_e	e	n/a
458.994	0.1195	917988	keystroke_d	d	n/a
459.3685	0.089	918737	keystroke_Key.enter	Key.enter	n/a
459.4635	6.235	918927	prompt	n/a	reno bennett canon annotation\n
460.4335	0.1275	920867	keystroke_r	r	n/a
460.529	0.1365	921058	keystroke_e	e	n/a
460.641	0.104	921282	keystroke_n	n	n/a
460.8015	0.144	921603	keystroke_o	o	n/a
461.137	0.1125	922274	keystroke_Key.space	Key.space	n/a
461.3375	0.112	922675	keystroke_b	b	n/a
461.4095	0.152	922819	keystroke_e	e	n/a
461.7445	0.089	923489	keystroke_n	n	n/a
462.0495	0.08	924099	keystroke_n	n	n/a
462.2095	0.128	924419	keystroke_e	e	n/a
462.4655	0.104	924931	keystroke_t	t	n/a
462.6575	0.128	925315	keystroke_t	t	n/a
462.8335	0.12	925667	keystroke_Key.space	Key.space	n/a
462.9935	0.144	925987	keystroke_c	c	n/a
463.1215	0.128	926243	keystroke_a	a	n/a
463.1935	0.096	926387	keystroke_n	n	n/a
463.4575	0.1435	926915	keystroke_o	o	n/a
463.5695	0.1445	927139	keystroke_n	n	n/a
463.833	0.152	927666	keystroke_Key.space	Key.space	n/a
464.1455	0.112	928291	keystroke_a	a	n/a
464.2495	0.088	928499	keystroke_n	n	n/a
464.4165	0.089	928833	keystroke_n	n	n/a
464.6015	0.12	929203	keystroke_o	o	n/a
464.6975	0.128	929395	keystroke_t	t	n/a
464.937	0.1445	929874	keystroke_a	a	n/a
465.065	0.1525	930130	keystroke_t	t	n/a
465.1455	0.1195	930291	keystroke_i	i	n/a
465.233	0.0885	930466	keystroke_o	o	n/a
465.297	0.1365	930594	keystroke_n	n	n/a
465.617	0.0795	931234	keystroke_Key.enter	Key.enter	n/a
465.702	5.7485	931404	prompt	n/a	packing slight paste males\n
466.3215	0.08	932643	keystroke_p	p	n/a
466.4655	0.088	932931	keystroke_a	a	n/a
466.6415	0.128	933283	keystroke_c	c	n/a
466.7215	0.088	933443	keystroke_k	k	n/a
466.9125	0.097	933825	keystroke_i	i	n/a
467.0725	0.1685	934145	keystroke_n	n	n/a
467.1205	0.169	934241	keystroke_g	g	n/a
467.2325	0.248	934465	keystroke_Key.space	Key.space	n/a
467.5605	0.097	935121	keystroke_l	l	n/a
467.6485	0.081	935297	keystroke_s	s	n/a
467.929	0.0635	935858	keystroke_Key.backspace	Key.backspace	n/a
468.073	0.0725	936146	keystroke_Key.backspace	Key.backspace	n/a
468.1935	0.08	936387	keystroke_s	s	n/a
468.3615	0.096	936723	keystroke_l	l	n/a
468.5455	0.1125	937091	keystroke_i	i	n/a
468.633	0.1435	937266	keystroke_g	g	n/a
468.7685	0.129	937537	keystroke_h	h	n/a
468.9295	0.1595	937859	keystroke_t	t	n/a
469.033	0.136	938066	keystroke_Key.space	Key.space	n/a
469.2495	0.1195	938499	keystroke_p	p	n/a
469.329	0.1845	938658	keystroke_a	a	n/a
469.5045	0.112	939009	keystroke_s	s	n/a
469.721	0.128	939442	keystroke_t	t	n/a
469.7935	0.1355	939587	keystroke_e	e	n/a
469.9765	0.1125	939953	keystroke_Key.space	Key.space	n/a
470.4575	0.136	940915	keystroke_m	m	n/a
470.6015	0.0875	941203	keystroke_a	a	n/a
470.761	0.0875	941522	keystroke_l	l	n/a
470.8175	0.2005	941635	keystroke_e	e	n/a
470.921	0.176	941842	keystroke_s	s	n/a
471.3695	0.0795	942739	keystroke_Key.enter	Key.enter	n/a
471.456	7.043	942912	prompt	n/a	pacific permalink networks citation\n
472.2095	0.144	944419	keystroke_p	p	n/a
472.3615	0.088	944723	keystroke_a	a	n/a
472.6735	0.152	945347	keystroke_c	c	n/a
472.9535	0.096	945907	keystroke_i	i	n/a
473.0975	0.08	946195	keystroke_f	f	n/a
473.2095	0.079	946419	keystroke_i	i	n/a
473.385	0.0885	946770	keystroke_c	c	n/a
473.7125	0.12	947425	keystroke_Key.space	Key.space	n/a
474.033	0.096	948066	keystroke_p	p	n/a
474.121	0.128	948242	keystroke_e	e	n/a
474.209	0.152	948418	keystroke_r	r	n/a
