onset	duration	sample	value	key	prompt_text
1.5375	6.1645	3075	prompt	n/a	the quick brown fox jumps over a lazy dog\n
3.1835	0.112	6367	keystroke_t	t	n/a
3.311	0.12	6622	keystroke_h	h	n/a
3.4075	0.144	6815	keystroke_e	e	n/a
3.5035	0.088	7007	keystroke_Key.space	Key.space	n/a
3.6385	0.089	7277	keystroke_q	q	n/a
3.743	0.1125	7486	keystroke_u	u	n/a
3.8065	0.0565	7613	keystroke_i	i	n/a
3.8235	0.119	7647	keystroke_c	c	n/a
3.9515	0.144	7903	keystroke_k	k	n/a
4.055	0.0795	8110	keystroke_Key.space	Key.space	n/a
4.1835	0.0475	8367	keystroke_b	b	n/a
4.351	0.0725	8702	keystroke_r	r	n/a
4.4385	0.065	8877	keystroke_o	o	n/a
4.5115	0.112	9023	keystroke_w	w	n/a
4.5835	0.0875	9167	keystroke_n	n	n/a
4.6315	0.096	9263	keystroke_Key.space	Key.space	n/a
5.04	0.072	10080	keystroke_f	f	n/a
5.1675	0.12	10335	keystroke_o	o	n/a
5.2795	0.12	10559	keystroke_x	x	n/a
5.351	0.0875	10702	keystroke_Key.space	Key.space	n/a
5.4705	0.0575	10941	keystroke_j	j	n/a
5.607	0.0645	11214	keystroke_u	u	n/a
5.784	0.16	11568	keystroke_m	m	n/a
5.8635	0.1205	11727	keystroke_p	p	n/a
5.9275	0.104	11855	keystroke_s	s	n/a
5.9675	0.0875	11935	keystroke_Key.space	Key.space	n/a
6.095	0.129	12190	keystroke_o	o	n/a
6.159	0.0725	12318	keystroke_v	v	n/a
6.2955	0.136	12591	keystroke_e	e	n/a
6.375	0.113	12750	keystroke_r	r	n/a
6.391	0.072	12782	keystroke_Key.space	Key.space	n/a
6.48	0.128	12960	keystroke_a	a	n/a
6.5995	0.064	13199	keystroke_Key.space	Key.space	n/a
6.8245	0.096	13649	keystroke_l	l	n/a
6.9365	0.063	13873	keystroke_a	a	n/a
7.0885	0.1465	14177	keystroke_z	z	n/a
7.1935	0.0975	14387	keystroke_y	y	n/a
7.226	0.08	14452	keystroke_Key.space	Key.space	n/a
7.3305	0.0805	14661	keystroke_d	d	n/a
7.4265	0.0795	14853	keystroke_o	o	n/a
7.4985	0.072	14997	keystroke_g	g	n/a
7.6345	0.0635	15269	keystroke_Key.enter	Key.enter	n/a
7.7085	4.1035	15417	prompt	n/a	wars answer freeware kathy\n
8.258	0.1035	16516	keystroke_w	w	n/a
8.33	0.112	16660	keystroke_a	a	n/a
8.426	0.096	16852	keystroke_r	r	n/a
8.546	0.1195	17092	keystroke_s	s	n/a
8.634	0.064	17268	keystroke_Key.space	Key.space	n/a
8.738	0.096	17476	keystroke_a	a	n/a
8.85	0.1115	17700	keystroke_n	n	n/a
8.914	0.104	17828	keystroke_s	s	n/a
9.09	0.1515	18180	keystroke_w	w	n/a
9.186	0.1355	18372	keystroke_e	e	n/a
9.2255	0.1125	18451	keystroke_r	r	n/a
9.2975	0.0955	18595	keystroke_Key.space	Key.space	n/a
9.442	0.072	18884	keystroke_f	f	n/a
9.61	0.0555	19220	keystroke_r	r	n/a
9.745	0.049	19490	keystroke_e	e	n/a
9.866	0.072	19732	keystroke_e	e	n/a
10.0255	0.0965	20051	keystroke_w	w	n/a
10.234	0.0875	20468	keystroke_a	a	n/a
10.3775	0.16	20755	keystroke_r	r	n/a
10.4655	0.104	20931	keystroke_e	e	n/a
10.505	0.1045	21010	keystroke_Key.space	Key.space	n/a
10.682	0.0875	21364	keystroke_f	f	n/a
11.018	0.04	22036	keystroke_Key.backspace	Key.backspace	n/a
11.1695	0.121	22339	keystroke_k	k	n/a
11.2415	0.08	22483	keystroke_a	a	n/a
11.3385	0.095	22677	keystroke_t	t	n/a
11.4255	0.0645	22851	keystroke_h	h	n/a
11.5695	0.0645	23139	keystroke_y	y	n/a
11.738	0.072	23476	keystroke_Key.enter	Key.enter	n/a
11.8165	3.388	23633	prompt	n/a	sessions none worried messenger\n
12.338	0.071	24676	keystroke_s	s	n/a
12.4735	0.0635	24947	keystroke_e	e	n/a
12.634	0.04	25268	keystroke_s	s	n/a
12.738	0.064	25476	keystroke_s	s	n/a
12.85	0.088	25700	keystroke_i	i	n/a
12.913	0.1205	25826	keystroke_o	o	n/a
12.9465	0.095	25893	keystroke_n	n	n/a
12.9855	0.1045	25971	keystroke_s	s	n/a
13.0495	0.0645	26099	keystroke_Key.space	Key.space	n/a
13.138	0.072	26276	keystroke_n	n	n/a
13.218	0.104	26436	keystroke_o	o	n/a
13.29	0.0965	26580	keystroke_n	n	n/a
13.338	0.0875	26676	keystroke_e	e	n/a
13.3935	0.0805	26787	keystroke_Key.space	Key.space	n/a
13.506	0.088	27012	keystroke_w	w	n/a
13.618	0.0965	27236	keystroke_o	o	n/a
13.705	0.056	27410	keystroke_r	r	n/a
13.834	0.04	27668	keystroke_r	r	n/a
13.93	0.12	27860	keystroke_i	i	n/a
13.962	0.024	27924	keystroke_e	e	n/a
14.074	0.072	28148	keystroke_d	d	n/a
14.122	0.064	28244	keystroke_Key.space	Key.space	n/a
14.241	0.113	28482	keystroke_m	m	n/a
14.2895	0.0645	28579	keystroke_e	e	n/a
14.434	0.0635	28868	keystroke_s	s	n/a
14.562	0.0725	29124	keystroke_s	s	n/a
14.666	0.08	29332	keystroke_e	e	n/a
14.754	0.104	29508	keystroke_n	n	n/a
14.8345	0.0555	29669	keystroke_g	g	n/a
14.921	0.113	29842	keystroke_e	e	n/a
15.002	0.088	30004	keystroke_r	r	n/a
15.138	0.0635	30276	keystroke_Key.enter	Key.enter	n/a
15.2095	7.4585	30419	prompt	n/a	blowing conclusions brochures latitude\n
15.7465	0.088	31493	keystroke_b	b	n/a
15.8505	0.056	31701	keystroke_l	l	n/a
15.9785	0.087	31957	keystroke_o	o	n/a
16.0825	0.0875	32165	keystroke_w	w	n/a
16.1305	0.056	32261	keystroke_i	i	n/a
16.2175	0.0965	32435	keystroke_n	n	n/a
16.2745	0.0715	32549	keystroke_g	g	n/a
16.322	0.056	32644	keystroke_Key.space	Key.space	n/a
16.4425	0.0715	32885	keystroke_o	o	n/a
16.466	0.0875	32932	keystroke_c	c	n/a
16.5455	0.0805	33091	keystroke_n	n	n/a
16.666	0.072	33332	keystroke_c	c	n/a
16.745	0.081	33490	keystroke_l	l	n/a
16.849	0.0895	33698	keystroke_u	u	n/a
16.93	0.088	33860	keystroke_s	s	n/a
17.0015	0.088	34003	keystroke_i	i	n/a
17.0655	0.1045	34131	keystroke_o	o	n/a
17.122	0.112	34244	keystroke_n	n	n/a
17.1615	0.0725	34323	keystroke_s	s	n/a
17.21	0.064	34420	keystroke_Key.space	Key.space	n/a
17.314	0.064	34628	keystroke_b	b	n/a
17.482	0.0795	34964	keystroke_r	r	n/a
17.57	0.104	35140	keystroke_o	o	n/a
17.681	0.073	35362	keystroke_c	c	n/a
17.762	0.072	35524	keystroke_h	h	n/a
17.9385	0.0955	35877	keystroke_u	u	n/a
18.01	0.16	36020	keystroke_r	r	n/a
18.098	0.152	36196	keystroke_e	e	n/a
18.362	0.12	36724	keystroke_s	s	n/a
18.45	0.0715	36900	keystroke_Key.space	Key.space	n/a
18.658	0.104	37316	keystroke_l	l	n/a
18.73	0.096	37460	keystroke_a	a	n/a
18.85	0.072	37700	keystroke_t	t	n/a
18.978	0.088	37956	keystroke_i	i	n/a
19.074	0.056	38148	keystroke_t	t	n/a
19.193	0.065	38386	keystroke_u	u	n/a
19.2025	0.0475	38405	keystroke_t	t	n/a
19.3375	0.0645	38675	keystroke_d	d	n/a
19.489	0.056	38978	keystroke_e	e	n/a
19.986	0.063	39972	keystroke_=	=	n/a
20.105	0.041	40210	keystroke_=	=	n/a
20.194	0.055	40388	keystroke_=	=	n/a
20.306	0.0555	40612	keystroke_=	=	n/a
20.5375	0.0805	41075	keystroke_Key.backspace	Key.backspace	n/a
20.674	0.056	41348	keystroke_Key.backspace	Key.backspace	n/a
20.786	0.056	41572	keystroke_Key.backspace	Key.backspace	n/a
20.89	0.064	41780	keystroke_Key.backspace	Key.backspace	n/a
21.002	0.064	42004	keystroke_Key.backspace	Key.backspace	n/a
21.114	0.064	42228	keystroke_Key.backspace	Key.backspace	n/a
21.233	0.057	42466	keystroke_Key.backspace	Key.backspace	n/a
21.354	0.08	42708	keystroke_Key.backspace	Key.backspace	n/a
22.1945	0.0875	44389	keystroke_u	u	n/a
22.2825	0.04	44565	keystroke_d	d	n/a
22.4175	0.048	44835	keystroke_e	e	n/a
22.61	0.056	45220	keystroke_Key.enter	Key.enter	n/a
22.6715	4.4755	45343	prompt	n/a	arabia beings temple xbox\n
23.234	0.096	46468	keystroke_a	a	n/a
23.362	0.112	46724	keystroke_r	r	n/a
23.458	0.104	46916	keystroke_a	a	n/a
23.626	0.071	47252	keystroke_b	b	n/a
23.7295	0.1205	47459	keystroke_i	i	n/a
23.81	0.1115	47620	keystroke_a	a	n/a
23.882	0.071	47764	keystroke_Key.space	Key.space	n/a
24.0095	0.064	48019	keystroke_b	b	n/a
24.1295	0.104	48259	keystroke_e	e	n/a
24.2015	0.056	48403	keystroke_i	i	n/a
24.2495	0.152	48499	keystroke_n	n	n/a
24.322	0.12	48644	keystroke_g	g	n/a
24.3935	0.104	48787	keystroke_s	s	n/a
24.442	0.08	48884	keystroke_Key.space	Key.space	n/a
24.594	0.096	49188	keystroke_t	t	n/a
24.6575	0.0965	49315	keystroke_e	e	n/a
24.7615	0.112	49523	keystroke_m	m	n/a
24.842	0.048	49684	keystroke_p	p	n/a
24.954	0.1355	49908	keystroke_l	l	n/a
25.01	0.0875	50020	keystroke_e	e	n/a
25.0735	0.048	50147	keystroke_Key.space	Key.space	n/a
25.2335	0.0885	50467	keystroke_x	x	n/a
25.4665	0.095	50933	keystroke_v	v	n/a
25.634	0.096	51268	keystroke_o	o	n/a
25.77	0.104	51540	keystroke_x	x	n/a
26.1455	0.056	52291	keystroke_Key.backspace	Key.backspace	n/a
26.266	0.0635	52532	keystroke_Key.backspace	Key.backspace	n/a
26.474	0.047	52948	keystroke_Key.backspace	Key.backspace	n/a
26.5455	0.0725	53091	keystroke_b	b	n/a
26.6985	0.1035	53397	keystroke_o	o	n/a
26.8175	0.128	53635	keystroke_x	x	n/a
27.0815	0.064	54163	keystroke_Key.enter	Key.enter	n/a
27.157	3.6625	54314	prompt	n/a	burton mines playlist tomatoes\n
27.77	0.0715	55540	keystroke_b	b	n/a
27.906	0.103	55812	keystroke_u	u	n/a
27.986	0.08	55972	keystroke_r	r	n/a
28.146	0.112	56292	keystroke_t	t	n/a
28.202	0.136	56404	keystroke_o	o	n/a
28.274	0.096	56548	keystroke_n	n	n/a
28.329	0.08	56658	keystroke_Key.space	Key.space	n/a
28.474	0.112	56948	keystroke_m	m	n/a
28.5695	0.048	57139	keystroke_i	i	n/a
28.6735	0.1035	57347	keystroke_n	n	n/a
28.762	0.152	57524	keystroke_e	e	n/a
28.842	0.128	57684	keystroke_s	s	n/a
28.905	0.0885	57810	keystroke_Key.space	Key.space	n/a
29.026	0.0475	58052	keystroke_p	p	n/a
29.106	0.071	58212	keystroke_l	l	n/a
29.202	0.0795	58404	keystroke_a	a	n/a
29.29	0.072	58580	keystroke_y	y	n/a
29.434	0.072	58868	keystroke_l	l	n/a
29.593	0.088	59186	keystroke_i	i	n/a
29.6335	0.104	59267	keystroke_s	s	n/a
29.69	0.104	59380	keystroke_t	t	n/a
29.746	0.079	59492	keystroke_Key.space	Key.space	n/a
29.889	0.088	59778	keystroke_t	t	n/a
29.954	0.112	59908	keystroke_o	o	n/a
30.0575	0.1045	60115	keystroke_m	m	n/a
30.146	0.1355	60292	keystroke_a	a	n/a
30.2575	0.096	60515	keystroke_t	t	n/a
30.3775	0.12	60755	keystroke_o	o	n/a
30.4895	0.1445	60979	keystroke_e	e	n/a
30.57	0.112	61140	keystroke_s	s	n/a
30.73	0.088	61460	keystroke_Key.enter	Key.enter	n/a
30.826	4.4825	61652	prompt	n/a	likewise angry geography fires\n
31.354	0.064	62708	keystroke_l	l	n/a
31.49	0.096	62980	keystroke_i	i	n/a
31.746	0.096	63492	keystroke_k	k	n/a
31.978	0.08	63956	keystroke_e	e	n/a
32.426	0.064	64852	keystroke_w	w	n/a
32.5455	0.12	65091	keystroke_i	i	n/a
32.6335	0.096	65267	keystroke_s	s	n/a
32.7055	0.1045	65411	keystroke_e	e	n/a
32.785	0.048	65570	keystroke_Key.space	Key.space	n/a
32.865	0.121	65730	keystroke_a	a	n/a
32.97	0.104	65940	keystroke_n	n	n/a
33.065	0.073	66130	keystroke_g	g	n/a
33.226	0.128	66452	keystroke_r	r	n/a
33.297	0.104	66594	keystroke_y	y	n/a
33.362	0.055	66724	keystroke_Key.space	Key.space	n/a
33.49	0.056	66980	keystroke_g	g	n/a
33.586	0.112	67172	keystroke_e	e	n/a
33.722	0.104	67444	keystroke_o	o	n/a
34.026	0.056	68052	keystroke_g	g	n/a
34.1695	0.104	68339	keystroke_r	r	n/a
34.2095	0.072	68419	keystroke_a	a	n/a
34.2655	0.088	68531	keystroke_p	p	n/a
34.3455	0.112	68691	keystroke_h	h	n/a
34.5935	0.112	69187	keystroke_y	y	n/a
34.69	0.0795	69380	keystroke_Key.space	Key.space	n/a
34.7855	0.088	69571	keystroke_f	f	n/a
34.914	0.12	69828	keystroke_i	i	n/a
34.97	0.1435	69940	keystroke_r	r	n/a
35.0415	0.0965	70083	keystroke_e	e	n/a
35.082	0.087	70164	keystroke_s	s	n/a
35.2335	0.0715	70467	keystroke_Key.enter	Key.enter	n/a
35.313	6.2745	70626	prompt	n/a	toolbox demographic regarding delay\n
35.9375	0.072	71875	keystroke_t	t	n/a
36.1455	0.064	72291	keystroke_o	o	n/a
36.266	0.0635	72532	keystroke_o	o	n/a
36.418	0.0955	72836	keystroke_l	l	n/a
36.626	0.0875	73252	keystroke_v	v	n/a
36.762	0.0875	73524	keystroke_o	o	n/a
36.8655	0.144	73731	keystroke_x	x	n/a
36.9935	0.08	73987	keystroke_Key.space	Key.space	n/a
37.3615	0.056	74723	keystroke_Key.backspace	Key.backspace	n/a
37.466	0.0475	74932	keystroke_Key.backspace	Key.backspace	n/a
37.5615	0.064	75123	keystroke_Key.backspace	Key.backspace	n/a
37.6815	0.064	75363	keystroke_Key.backspace	Key.backspace	n/a
37.7935	0.072	75587	keystroke_b	b	n/a
37.914	0.112	75828	keystroke_o	o	n/a
38.0495	0.1285	76099	keystroke_x	x	n/a
38.138	0.0875	76276	keystroke_Key.space	Key.space	n/a
38.3215	0.0645	76643	keystroke_d	d	n/a
38.474	0.0795	76948	keystroke_e	e	n/a
38.5695	0.128	77139	keystroke_m	m	n/a
38.8895	0.0795	77779	keystroke_o	o	n/a
39.177	0.056	78354	keystroke_g	g	n/a
39.321	0.1205	78642	keystroke_r	r	n/a
39.3855	0.08	78771	keystroke_a	a	n/a
39.4175	0.096	78835	keystroke_p	p	n/a
39.506	0.167	79012	keystroke_h	h	n/a
39.594	0.096	79188	keystroke_i	i	n/a
39.649	0.0885	79298	keystroke_c	c	n/a
39.7215	0.1035	79443	keystroke_Key.space	Key.space	n/a
39.857	0.1045	79714	keystroke_r	r	n/a
39.937	0.056	79874	keystroke_e	e	n/a
40.05	0.0955	80100	keystroke_g	g	n/a
40.1215	0.0885	80243	keystroke_a	a	n/a
40.25	0.079	80500	keystroke_r	r	n/a
40.402	0.095	80804	keystroke_d	d	n/a
40.4895	0.08	80979	keystroke_i	i	n/a
40.6495	0.112	81299	keystroke_n	n	n/a
40.6975	0.08	81395	keystroke_g	g	n/a
40.7535	0.088	81507	keystroke_Key.space	Key.space	n/a
40.8655	0.096	81731	keystroke_d	d	n/a
41.01	0.0885	82020	keystroke_e	e	n/a
41.099	0.095	82198	keystroke_l	l	n/a
41.202	0.088	82404	keystroke_a	a	n/a
41.33	0.08	82660	keystroke_y	y	n/a
41.506	0.08	83012	keystroke_Key.enter	Key.enter	n/a
41.5935	3.8495	83187	prompt	n/a	delete using earliest selective\n
42.0575	0.072	84115	keystroke_d	d	n/a
42.202	0.088	84404	keystroke_e	e	n/a
42.2975	0.096	84595	keystroke_l	l	n/a
42.3855	0.0645	84771	keystroke_e	e	n/a
42.5455	0.088	85091	keystroke_t	t	n/a
42.6895	0.1205	85379	keystroke_e	e	n/a
42.7775	0.104	85555	keystroke_Key.space	Key.space	n/a
43.0335	0.08	86067	keystroke_u	u	n/a
43.1055	0.104	86211	keystroke_s	s	n/a
43.1935	0.064	86387	keystroke_i	i	n/a
43.2815	0.136	86563	keystroke_n	n	n/a
43.346	0.0795	86692	keystroke_g	g	n/a
43.4015	0.0645	86803	keystroke_Key.space	Key.space	n/a
43.4975	0.144	86995	keystroke_e	e	n/a
43.5695	0.121	87139	keystroke_a	a	n/a
43.6575	0.096	87315	keystroke_r	r	n/a
43.7455	0.088	87491	keystroke_l	l	n/a
43.8175	0.1125	87635	keystroke_i	i	n/a
43.9375	0.096	87875	keystroke_e	e	n/a
43.9775	0.12	87955	keystroke_s	s	n/a
44.0495	0.104	88099	keystroke_t	t	n/a
44.1055	0.104	88211	keystroke_Key.space	Key.space	n/a
44.2655	0.088	88531	keystroke_s	s	n/a
44.4015	0.0805	88803	keystroke_e	e	n/a
44.53	0.0875	89060	keystroke_l	l	n/a
44.5775	0.064	89155	keystroke_e	e	n/a
44.722	0.0715	89444	keystroke_c	c	n/a
44.8975	0.064	89795	keystroke_t	t	n/a
44.9935	0.12	89987	keystroke_i	i	n/a
45.0735	0.096	90147	keystroke_v	v	n/a
45.2015	0.0805	90403	keystroke_e	e	n/a
45.3775	0.064	90755	keystroke_Key.enter	Key.enter	n/a
45.4475	3.628	90895	prompt	n/a	zoning jump spray for\n
46.6255	0.184	93251	keystroke_z	z	n/a
47.0175	0.08	94035	keystroke_o	o	n/a
47.1375	0.096	94275	keystroke_n	n	n/a
47.226	0.0395	94452	keystroke_i	i	n/a
47.3215	0.088	94643	keystroke_n	n	n/a
47.4015	0.072	94803	keystroke_g	g	n/a
47.4255	0.088	94851	keystroke_Key.space	Key.space	n/a
47.546	0.0555	95092	keystroke_j	j	n/a
47.6735	0.0635	95347	keystroke_u	u	n/a
47.8575	0.1205	95715	keystroke_m	m	n/a
47.8975	0.1285	95795	keystroke_p	p	n/a
47.986	0.0955	95972	keystroke_Key.space	Key.space	n/a
48.1535	0.0885	96307	keystroke_s	s	n/a
48.282	0.128	96564	keystroke_p	p	n/a
48.37	0.12	96740	keystroke_r	r	n/a
48.45	0.064	96900	keystroke_a	a	n/a
48.537	0.105	97074	keystroke_y	y	n/a
48.601	0.08	97202	keystroke_Key.space	Key.space	n/a
48.697	0.064	97394	keystroke_f	f	n/a
48.786	0.088	97572	keystroke_o	o	n/a
48.882	0.071	97764	keystroke_r	r	n/a
48.986	0.0875	97972	keystroke_Key.enter	Key.enter	n/a
49.08	3.203	98160	prompt	n/a	shelter fallen trade glory\n
49.5615	0.0555	99123	keystroke_s	s	n/a
49.681	0.0885	99362	keystroke_h	h	n/a
49.7615	0.072	99523	keystroke_e	e	n/a
49.8815	0.104	99763	keystroke_l	l	n/a
49.9935	0.048	99987	keystroke_t	t	n/a
50.066	0.1685	100132	keystroke_e	e	n/a
50.1615	0.088	100323	keystroke_r	r	n/a
50.218	0.0875	100436	keystroke_Key.space	Key.space	n/a
50.3535	0.088	100707	keystroke_f	f	n/a
50.417	0.0725	100834	keystroke_a	a	n/a
50.513	0.0565	101026	keystroke_l	l	n/a
50.65	0.0645	101300	keystroke_l	l	n/a
50.7305	0.1105	101461	keystroke_e	e	n/a
50.8015	0.1125	101603	keystroke_n	n	n/a
50.8655	0.0955	101731	keystroke_Key.space	Key.space	n/a
50.945	0.081	101890	keystroke_t	t	n/a
51.0895	0.1045	102179	keystroke_r	r	n/a
51.17	0.0475	102340	keystroke_a	a	n/a
51.2735	0.0805	102547	keystroke_d	d	n/a
51.41	0.104	102820	keystroke_e	e	n/a
51.49	0.087	102980	keystroke_Key.space	Key.space	n/a
51.594	0.08	103188	keystroke_g	g	n/a
51.714	0.048	103428	keystroke_l	l	n/a
51.842	0.088	103684	keystroke_o	o	n/a
51.938	0.08	103876	keystroke_r	r	n/a
52.042	0.072	104084	keystroke_y	y	n/a
52.202	0.079	104404	keystroke_Key.enter	Key.enter	n/a
52.2865	5.1495	104573	prompt	n/a	instrumental detection fleece morocco\n
52.826	0.064	105652	keystroke_i	i	n/a
52.946	0.096	105892	keystroke_n	n	n/a
52.994	0.088	105988	keystroke_s	s	n/a
53.049	0.056	106098	keystroke_t	t	n/a
53.177	0.0965	106354	keystroke_r	r	n/a
53.242	0.055	106484	keystroke_u	u	n/a
53.401	0.0805	106802	keystroke_m	m	n/a
53.473	0.0975	106946	keystroke_e	e	n/a
53.562	0.0875	107124	keystroke_n	n	n/a
53.618	0.119	107236	keystroke_t	t	n/a
53.681	0.112	107362	keystroke_a	a	n/a
53.762	0.095	107524	keystroke_l	l	n/a
53.825	0.088	107650	keystroke_Key.space	Key.space	n/a
53.937	0.057	107874	keystroke_d	d	n/a
54.0575	0.0715	108115	keystroke_e	e	n/a
54.177	0.08	108354	keystroke_t	t	n/a
54.2735	0.096	108547	keystroke_e	e	n/a
54.498	0.056	108996	keystroke_c	c	n/a
54.674	0.08	109348	keystroke_t	t	n/a
54.746	0.056	109492	keystroke_i	i	n/a
54.778	0.112	109556	keystroke_o	o	n/a
54.81	0.12	109620	keystroke_n	n	n/a
54.873	0.081	109746	keystroke_Key.space	Key.space	n/a
54.97	0.064	109940	keystroke_f	f	n/a
55.082	0.088	110164	keystroke_l	l	n/a
55.201	0.057	110402	keystroke_e	e	n/a
55.322	0.055	110644	keystroke_e	e	n/a
55.458	0.088	110916	keystroke_c	c	n/a
55.554	0.088	111108	keystroke_e	e	n/a
55.6255	0.0715	111251	keystroke_Key.space	Key.space	n/a
55.802	0.08	111604	keystroke_m	m	n/a
55.946	0.0955	111892	keystroke_o	o	n/a
56.0735	0.064	112147	keystroke_r	r	n/a
56.4175	0.0965	112835	keystroke_o	o	n/a
56.666	0.063	113332	keystroke_c	c	n/a
57.0095	0.0565	114019	keystroke_c	c	n/a
57.1615	0.064	114323	keystroke_o	o	n/a
57.377	0.056	114754	keystroke_Key.enter	Key.enter	n/a
57.4395	4.459	114879	prompt	n/a	boys restaurant wind maximize\n
57.993	0.08	115986	keystroke_b	b	n/a
58.066	0.079	116132	keystroke_o	o	n/a
58.2015	0.112	116403	keystroke_y	y	n/a
58.2655	0.112	116531	keystroke_s	s	n/a
58.3135	0.072	116627	keystroke_Key.space	Key.space	n/a
58.426	0.136	116852	keystroke_r	r	n/a
58.482	0.135	116964	keystroke_e	e	n/a
58.578	0.144	117156	keystroke_s	s	n/a
58.698	0.112	117396	keystroke_t	t	n/a
58.786	0.104	117572	keystroke_a	a	n/a
58.962	0.112	117924	keystroke_u	u	n/a
59.0895	0.1205	118179	keystroke_r	r	n/a
59.194	0.072	118388	keystroke_a	a	n/a
59.5055	0.144	119011	keystroke_n	n	n/a
59.6335	0.088	119267	keystroke_t	t	n/a
59.6895	0.08	119379	keystroke_Key.space	Key.space	n/a
59.8975	0.08	119795	keystroke_w	w	n/a
60.0815	0.041	120163	keystroke_i	i	n/a
60.1535	0.136	120307	keystroke_n	n	n/a
60.2415	0.0805	120483	keystroke_d	d	n/a
60.3055	0.072	120611	keystroke_Key.space	Key.space	n/a
60.4815	0.0725	120963	keystroke_m	m	n/a
60.761	0.064	121522	keystroke_a	a	n/a
61.0575	0.12	122115	keystroke_x	x	n/a
61.249	0.048	122498	keystroke_i	i	n/a
61.361	0.0965	122722	keystroke_m	m	n/a
61.4655	0.0805	122931	keystroke_i	i	n/a
61.537	0.0885	123074	keystroke_z	z	n/a
61.6815	0.08	123363	keystroke_e	e	n/a
61.8255	0.072	123651	keystroke_Key.enter	Key.enter	n/a
61.902	3.5725	123804	prompt	n/a	designed mother sherman calling\n
62.3615	0.064	124723	keystroke_d	d	n/a
62.5135	0.12	125027	keystroke_e	e	n/a
62.5775	0.1045	125155	keystroke_s	s	n/a
62.881	0.1125	125762	keystroke_i	i	n/a
63.009	0.072	126018	keystroke_g	g	n/a
63.137	0.153	126274	keystroke_n	n	n/a
63.201	0.056	126402	keystroke_e	e	n/a
63.338	0.0955	126676	keystroke_d	d	n/a
63.409	0.032	126818	keystroke_Key.space	Key.space	n/a
63.473	0.112	126946	keystroke_m	m	n/a
63.553	0.0725	127106	keystroke_o	o	n/a
63.602	0.063	127204	keystroke_t	t	n/a
63.706	0.119	127412	keystroke_h	h	n/a
63.721	0.128	127442	keystroke_e	e	n/a
63.81	0.0715	127620	keystroke_r	r	n/a
63.841	0.056	127682	keystroke_Key.space	Key.space	n/a
63.937	0.08	127874	keystroke_s	s	n/a
64.018	0.103	128036	keystroke_h	h	n/a
64.074	0.1115	128148	keystroke_e	e	n/a
64.2335	0.088	128467	keystroke_r	r	n/a
64.3215	0.112	128643	keystroke_m	m	n/a
64.4415	0.08	128883	keystroke_a	a	n/a
64.5295	0.0955	129059	keystroke_n	n	n/a
64.585	0.088	129170	keystroke_Key.space	Key.space	n/a
64.713	0.1125	129426	keystroke_c	c	n/a
64.8175	0.04	129635	keystroke_a	a	n/a
64.865	0.057	129730	keystroke_l	l	n/a
64.9855	0.04	129971	keystroke_l	l	n/a
65.0815	0.072	130163	keystroke_i	i	n/a
65.1775	0.088	130355	keystroke_n	n	n/a
65.2575	0.088	130515	keystroke_g	g	n/a
65.3935	0.08	130787	keystroke_Key.enter	Key.enter	n/a
65.478	3.629	130956	prompt	n/a	rides offset powerseller enemies\n
66.0095	0.0955	132019	keystroke_r	r	n/a
66.113	0.12	132226	keystroke_i	i	n/a
66.201	0.064	132402	keystroke_d	d	n/a
66.337	0.129	132674	keystroke_e	e	n/a
66.4095	0.104	132819	keystroke_s	s	n/a
66.457	0.064	132914	keystroke_Key.space	Key.space	n/a
66.586	0.096	133172	keystroke_o	o	n/a
66.6655	0.0565	133331	keystroke_f	f	n/a
66.7765	0.073	133553	keystroke_f	f	n/a
66.93	0.119	133860	keystroke_s	s	n/a
67.025	0.1525	134050	keystroke_e	e	n/a
67.1455	0.112	134291	keystroke_t	t	n/a
67.2335	0.064	134467	keystroke_Key.space	Key.space	n/a
67.3375	0.064	134675	keystroke_p	p	n/a
67.4335	0.112	134867	keystroke_o	o	n/a
67.4975	0.056	134995	keystroke_w	w	n/a
67.5055	0.1285	135011	keystroke_e	e	n/a
67.6015	0.048	135203	keystroke_r	r	n/a
67.7295	0.1115	135459	keystroke_s	s	n/a
67.817	0.073	135634	keystroke_e	e	n/a
67.9775	0.048	135955	keystroke_l	l	n/a
68.0815	0.088	136163	keystroke_l	l	n/a
68.1375	0.1195	136275	keystroke_e	e	n/a
68.2095	0.0955	136419	keystroke_r	r	n/a
68.273	0.072	136546	keystroke_Key.space	Key.space	n/a
68.386	0.072	136772	keystroke_e	e	n/a
68.4655	0.0645	136931	keystroke_n	n	n/a
68.5375	0.0715	137075	keystroke_e	e	n/a
68.625	0.088	137250	keystroke_m	m	n/a
68.754	0.0875	137508	keystroke_i	i	n/a
68.817	0.128	137634	keystroke_e	e	n/a
68.8895	0.0875	137779	keystroke_s	s	n/a
69.017	0.0885	138034	keystroke_Key.enter	Key.enter	n/a
69.114	4.266	138228	prompt	n/a	grey grad anyway guardian\n
69.634	0.055	139268	keystroke_g	g	n/a
69.786	0.1195	139572	keystroke_r	r	n/a
69.833	0.1045	139666	keystroke_e	e	n/a
70.025	0.1205	140050	keystroke_y	y	n/a
70.146	0.087	140292	keystroke_Key.space	Key.space	n/a
70.458	0.0635	140916	keystroke_g	g	n/a
70.6095	0.0795	141219	keystroke_r	r	n/a
70.641	0.0805	141282	keystroke_a	a	n/a
70.841	0.072	141682	keystroke_Key.space	Key.space	n/a
71.2655	0.0715	142531	keystroke_Key.backspace	Key.backspace	n/a
71.313	0.088	142626	keystroke_d	d	n/a
71.409	0.0565	142818	keystroke_Key.space	Key.space	n/a
71.4975	0.072	142995	keystroke_a	a	n/a
71.5855	0.0715	143171	keystroke_n	n	n/a
71.786	0.0795	143572	keystroke_y	y	n/a
71.906	0.095	143812	keystroke_w	w	n/a
71.961	0.0885	143922	keystroke_a	a	n/a
72.0495	0.0955	144099	keystroke_y	y	n/a
72.137	0.0965	144274	keystroke_Key.space	Key.space	n/a
72.466	0.0635	144932	keystroke_g	g	n/a
72.5695	0.104	145139	keystroke_u	u	n/a
72.6415	0.104	145283	keystroke_a	a	n/a
72.7215	0.064	145443	keystroke_r	r	n/a
72.8575	0.08	145715	keystroke_d	d	n/a
72.9455	0.0885	145891	keystroke_i	i	n/a
73.034	0.0635	146068	keystroke_a	a	n/a
73.1215	0.072	146243	keystroke_n	n	n/a
73.2895	0.088	146579	keystroke_Key.enter	Key.enter	n/a
73.3845	6.2105	146769	prompt	n/a	revision zimbabwe constitute streaming\n
74.0175	0.096	148035	keystroke_r	r	n/a
74.0735	0.072	148147	keystroke_e	e	n/a
74.2415	0.064	148483	keystroke_v	v	n/a
74.3375	0.072	148675	keystroke_i	i	n/a
74.4335	0.096	148867	keystroke_s	s	n/a
74.5055	0.0725	149011	keystroke_i	i	n/a
74.586	0.079	149172	keystroke_o	o	n/a
74.609	0.121	149218	keystroke_n	n	n/a
74.713	0.08	149426	keystroke_Key.space	Key.space	n/a
74.929	0.1045	149858	keystroke_z	z	n/a
75.0575	0.056	150115	keystroke_i	i	n/a
75.1935	0.0965	150387	keystroke_m	m	n/a
75.4975	0.0725	150995	keystroke_a	a	n/a
75.6095	0.088	151219	keystroke_b	b	n/a
76.0735	0.048	152147	keystroke_w	w	n/a
76.3055	0.016	152611	keystroke_Key.backspace	Key.backspace	n/a
76.3935	0.024	152787	keystroke_Key.backspace	Key.backspace	n/a
76.4815	0.0635	152963	keystroke_Key.backspace	Key.backspace	n/a
76.5925	0.112	153185	keystroke_b	b	n/a
76.6895	0.0795	153379	keystroke_a	a	n/a
76.794	0.079	153588	keystroke_b	b	n/a
77.025	0.072	154050	keystroke_w	w	n/a
77.114	0.159	154228	keystroke_e	e	n/a
77.265	0.08	154530	keystroke_Key.space	Key.space	n/a
77.586	0.1115	155172	keystroke_c	c	n/a
77.6495	0.12	155299	keystroke_o	o	n/a
77.7215	0.088	155443	keystroke_n	n	n/a
77.826	0.095	155652	keystroke_s	s	n/a
77.913	0.0725	155826	keystroke_t	t	n/a
77.994	0.087	155988	keystroke_i	i	n/a
78.089	0.0645	156178	keystroke_t	t	n/a
78.177	0.104	156354	keystroke_u	u	n/a
78.2575	0.1595	156515	keystroke_t	t	n/a
78.337	0.128	156674	keystroke_e	e	n/a
78.4335	0.08	156867	keystroke_Key.space	Key.space	n/a
78.705	0.096	157410	keystroke_s	s	n/a
78.777	0.057	157554	keystroke_t	t	n/a
78.9215	0.1275	157843	keystroke_r	r	n/a
78.977	0.112	157954	keystroke_e	e	n/a
79.033	0.088	158066	keystroke_a	a	n/a
79.1295	0.072	158259	keystroke_m	m	n/a
79.1855	0.056	158371	keystroke_i	i	n/a
79.2895	0.0805	158579	keystroke_n	n	n/a
79.3855	0.072	158771	keystroke_g	g	n/a
79.5125	0.081	159025	keystroke_Key.enter	Key.enter	n/a
79.602	4.417	159204	prompt	n/a	constitution interpreted bear who\n
80.097	0.049	160194	keystroke_s	s	n/a
80.3935	0.064	160787	keystroke_Key.backspace	Key.backspace	n/a
80.5615	0.0795	161123	keystroke_c	c	n/a
80.617	0.1365	161234	keystroke_o	o	n/a
80.697	0.112	161394	keystroke_n	n	n/a
80.762	0.1035	161524	keystroke_s	s	n/a
80.9055	0.0715	161811	keystroke_t	t	n/a
80.977	0.088	161954	keystroke_i	i	n/a
81.09	0.063	162180	keystroke_t	t	n/a
81.161	0.0805	162322	keystroke_u	u	n/a
81.257	0.08	162514	keystroke_t	t	n/a
81.322	0.1115	162644	keystroke_i	i	n/a
81.346	0.151	162692	keystroke_o	o	n/a
81.434	0.103	162868	keystroke_n	n	n/a
81.5055	0.0635	163011	keystroke_Key.space	Key.space	n/a
81.705	0.032	163410	keystroke_i	i	n/a
81.753	0.1045	163506	keystroke_n	n	n/a
81.8815	0.072	163763	keystroke_t	t	n/a
81.9935	0.088	163987	keystroke_e	e	n/a
82.0975	0.072	164195	keystroke_r	r	n/a
82.3215	0.088	164643	keystroke_p	p	n/a
82.3845	0.097	164769	keystroke_r	r	n/a
82.4415	0.096	164883	keystroke_e	e	n/a
82.6015	0.16	165203	keystroke_t	t	n/a
82.7215	0.072	165443	keystroke_e	e	n/a
82.8895	0.079	165779	keystroke_d	d	n/a
82.9445	0.072	165889	keystroke_Key.space	Key.space	n/a
83.1055	0.064	166211	keystroke_b	b	n/a
83.2415	0.2075	166483	keystroke_e	e	n/a
83.337	0.113	166674	keystroke_a	a	n/a
83.4095	0.12	166819	keystroke_r	r	n/a
83.513	0.0725	167026	keystroke_Key.space	Key.space	n/a
83.6015	0.0715	167203	keystroke_w	w	n/a
83.705	0.112	167410	keystroke_h	h	n/a
83.762	0.072	167524	keystroke_o	o	n/a
83.929	0.088	167858	keystroke_Key.enter	Key.enter	n/a
84.024	4.659	168048	prompt	n/a	fill additional payment inputs\n
84.5535	0.08	169107	keystroke_f	f	n/a
84.665	0.048	169330	keystroke_i	i	n/a
84.801	0.056	169602	keystroke_l	l	n/a
84.922	0.0795	169844	keystroke_l	l	n/a
84.985	0.088	169970	keystroke_Key.space	Key.space	n/a
85.081	0.072	170162	keystroke_a	a	n/a
85.217	0.041	170434	keystroke_d	d	n/a
85.337	0.08	170674	keystroke_d	d	n/a
85.5455	0.0715	171091	keystroke_i	i	n/a
85.633	0.072	171266	keystroke_t	t	n/a
85.7615	0.1205	171523	keystroke_i	i	n/a
85.777	0.1365	171554	keystroke_o	o	n/a
85.857	0.0965	171714	keystroke_n	n	n/a
85.97	0.0785	171940	keystroke_a	a	n/a
86.113	0.121	172226	keystroke_l	l	n/a
86.185	0.104	172370	keystroke_Key.space	Key.space	n/a
86.433	0.112	172866	keystroke_p	p	n/a
86.521	0.096	173042	keystroke_a	a	n/a
86.641	0.064	173282	keystroke_y	y	n/a
86.833	0.08	173666	keystroke_m	m	n/a
86.9215	0.088	173843	keystroke_e	e	n/a
87.01	0.1035	174020	keystroke_n	n	n/a
87.089	0.1045	174178	keystroke_t	t	n/a
87.201	0.064	174402	keystroke_i	i	n/a
87.305	0.1045	174610	keystroke_n	n	n/a
87.6175	0.056	175235	keystroke_Key.backspace	Key.backspace	n/a
87.7295	0.056	175459	keystroke_Key.backspace	Key.backspace	n/a
87.8335	0.104	175667	keystroke_Key.space	Key.space	n/a
87.9695	0.08	175939	keystroke_i	i	n/a
88.0335	0.096	176067	keystroke_n	n	n/a
88.1535	0.088	176307	keystroke_p	p	n/a
88.3055	0.1355	176611	keystroke_u	u	n/a
88.3775	0.128	176755	keystroke_t	t	n/a
88.457	0.096	176914	keystroke_s	s	n/a
88.585	0.096	177170	keystroke_Key.enter	Key.enter	n/a
88.689	4.6255	177378	prompt	n/a	footage servers passed watches\n
89.2575	0.08	178515	keystroke_f	f	n/a
89.361	0.048	178722	keystroke_o	o	n/a
89.465	0.104	178930	keystroke_o	o	n/a
89.577	0.08	179154	keystroke_t	t	n/a
89.641	0.1125	179282	keystroke_a	a	n/a
90.0255	0.16	180051	keystroke_g	g	n/a
90.0975	0.128	180195	keystroke_e	e	n/a
90.1615	0.112	180323	keystroke_Key.space	Key.space	n/a
90.449	0.12	180898	keystroke_s	s	n/a
90.553	0.1045	181106	keystroke_e	e	n/a
90.618	0.087	181236	keystroke_r	r	n/a
90.825	0.072	181650	keystroke_v	v	n/a
90.961	0.129	181922	keystroke_e	e	n/a
91.0495	0.1835	182099	keystroke_r	r	n/a
91.137	0.104	182274	keystroke_s	s	n/a
91.217	0.072	182434	keystroke_Key.space	Key.space	n/a
91.345	0.0875	182690	keystroke_p	p	n/a
91.4725	0.033	182945	keystroke_a	a	n/a
91.633	0.0485	183266	keystroke_s	s	n/a
91.7445	0.081	183489	keystroke_s	s	n/a
91.8815	0.063	183763	keystroke_e	e	n/a
92.0565	0.064	184113	keystroke_d	d	n/a
92.0815	0.112	184163	keystroke_Key.space	Key.space	n/a
92.4165	0.089	184833	keystroke_w	w	n/a
92.5055	0.0875	185011	keystroke_a	a	n/a
92.5935	0.08	185187	keystroke_t	t	n/a
92.8175	0.087	185635	keystroke_c	c	n/a
92.921	0.1045	185842	keystroke_h	h	n/a
93.0085	0.105	186017	keystroke_e	e	n/a
93.041	0.1125	186082	keystroke_s	s	n/a
93.209	0.1045	186418	keystroke_Key.enter	Key.enter	n/a
93.3175	5.2525	186635	prompt	n/a	royalty death fisher isolated\n
93.6885	0.04	187377	keystroke_f	f	n/a
94.0255	0.0555	188051	keystroke_Key.backspace	Key.backspace	n/a
94.1055	0.072	188211	keystroke_r	r	n/a
94.2015	0.104	188403	keystroke_o	o	n/a
94.3295	0.072	188659	keystroke_y	y	n/a
94.4575	0.064	188915	keystroke_a	a	n/a
94.569	0.104	189138	keystroke_l	l	n/a
94.745	0.072	189490	keystroke_t	t	n/a
94.825	0.12	189650	keystroke_y	y	n/a
94.897	0.096	189794	keystroke_Key.space	Key.space	n/a
95.049	0.04	190098	keystroke_s	s	n/a
95.3375	0.0635	190675	keystroke_Key.backspace	Key.backspace	n/a
95.377	0.0565	190754	keystroke_d	d	n/a
95.521	0.1285	191042	keystroke_e	e	n/a
95.609	0.104	191218	keystroke_a	a	n/a
95.7295	0.0955	191459	keystroke_t	t	n/a
95.777	0.1125	191554	keystroke_h	h	n/a
95.841	0.08	191682	keystroke_Key.space	Key.space	n/a
95.969	0.0725	191938	keystroke_f	f	n/a
96.0415	0.096	192083	keystroke_i	i	n/a
96.1295	0.087	192259	keystroke_s	s	n/a
96.2415	0.128	192483	keystroke_h	h	n/a
96.2895	0.12	192579	keystroke_e	e	n/a
96.3455	0.104	192691	keystroke_r	r	n/a
96.5125	0.097	193025	keystroke_i	i	n/a
96.6015	0.096	193203	keystroke_s	s	n/a
96.7055	0.0635	193411	keystroke_o	o	n/a
96.8655	0.064	193731	keystroke_l	l	n/a
97.0655	0.039	194131	keystroke_Key.backspace	Key.backspace	n/a
97.1535	0.048	194307	keystroke_Key.backspace	Key.backspace	n/a
97.2565	0.065	194513	keystroke_Key.backspace	Key.backspace	n/a
97.3775	0.0635	194755	keystroke_Key.backspace	Key.backspace	n/a
97.4495	0.072	194899	keystroke_Key.space	Key.space	n/a
97.601	0.08	195202	keystroke_i	i	n/a
97.682	0.0955	195364	keystroke_s	s	n/a
97.7845	0.0645	195569	keystroke_o	o	n/a
97.953	0.112	195906	keystroke_l	l	n/a
98.049	0.088	196098	keystroke_a	a	n/a
98.177	0.112	196354	keystroke_t	t	n/a
98.241	0.072	196482	keystroke_e	e	n/a
98.393	0.08	196786	keystroke_d	d	n/a
98.505	0.064	197010	keystroke_Key.enter	Key.enter	n/a
98.5735	3.918	197147	prompt	n/a	goal elliott policy wheels\n
99.137	0.0885	198274	keystroke_g	g	n/a
99.241	0.088	198482	keystroke_o	o	n/a
99.345	0.104	198690	keystroke_a	a	n/a
99.441	0.096	198882	keystroke_l	l	n/a
99.481	0.104	198962	keystroke_Key.space	Key.space	n/a
99.617	0.0725	199234	keystroke_e	e	n/a
99.7365	0.033	199473	keystroke_l	l	n/a
99.833	0.072	199666	keystroke_l	l	n/a
100.009	0.08	200018	keystroke_i	i	n/a
100.225	0.088	200450	keystroke_o	o	n/a
100.473	0.0635	200946	keystroke_t	t	n/a
100.5845	0.0885	201169	keystroke_t	t	n/a
100.7525	0.072	201505	keystroke_Key.space	Key.space	n/a
100.889	0.056	201778	keystroke_p	p	n/a
101.0325	0.056	202065	keystroke_o	o	n/a
101.1685	0.08	202337	keystroke_l	l	n/a
101.2885	0.0805	202577	keystroke_i	i	n/a
101.426	0.1025	202852	keystroke_c	c	n/a
101.4725	0.129	202945	keystroke_y	y	n/a
101.5525	0.121	203105	keystroke_Key.space	Key.space	n/a
101.7605	0.081	203521	keystroke_w	w	n/a
101.8655	0.079	203731	keystroke_h	h	n/a
101.953	0.056	203906	keystroke_e	e	n/a
102.0565	0.072	204113	keystroke_e	e	n/a
102.1855	0.104	204371	keystroke_l	l	n/a
102.2735	0.0795	204547	keystroke_s	s	n/a
102.425	0.064	204850	keystroke_Key.enter	Key.enter	n/a
102.4955	3.819	204991	prompt	n/a	citation feelings whale circles\n
103.121	0.0955	206242	keystroke_c	c	n/a
103.225	0.1125	206450	keystroke_i	i	n/a
103.369	0.08	206738	keystroke_t	t	n/a
103.4495	0.1115	206899	keystroke_a	a	n/a
103.537	0.1115	207074	keystroke_t	t	n/a
103.625	0.1205	207250	keystroke_i	i	n/a
103.689	0.112	207378	keystroke_o	o	n/a
103.7135	0.136	207427	keystroke_n	n	n/a
103.793	0.08	207586	keystroke_Key.space	Key.space	n/a
103.929	0.064	207858	keystroke_f	f	n/a
104.057	0.072	208114	keystroke_e	e	n/a
104.193	0.0805	208386	keystroke_e	e	n/a
104.281	0.056	208562	keystroke_l	l	n/a
104.377	0.0725	208754	keystroke_i	i	n/a
104.4815	0.1595	208963	keystroke_n	n	n/a
104.561	0.144	209122	keystroke_g	g	n/a
104.633	0.096	209266	keystroke_s	s	n/a
104.697	0.088	209394	keystroke_Key.space	Key.space	n/a
104.905	0.08	209810	keystroke_w	w	n/a
104.977	0.08	209954	keystroke_h	h	n/a
105.065	0.088	210130	keystroke_a	a	n/a
105.161	0.152	210322	keystroke_l	l	n/a
105.225	0.104	210450	keystroke_e	e	n/a
105.3135	0.0635	210627	keystroke_Key.space	Key.space	n/a
105.441	0.064	210882	keystroke_c	c	n/a
105.521	0.128	211042	keystroke_i	i	n/a
105.633	0.048	211266	keystroke_r	r	n/a
105.81	0.0795	211620	keystroke_c	c	n/a
105.921	0.112	211842	keystroke_l	l	n/a
105.993	0.152	211986	keystroke_e	e	n/a
106.065	0.128	212130	keystroke_s	s	n/a
106.233	0.08	212466	keystroke_Key.enter	Key.enter	n/a
106.3185	5.388	212637	prompt	n/a	elections recommends leonard empirical\n
106.9855	0.072	213971	keystroke_e	e	n/a
107.1045	0.096	214209	keystroke_l	l	n/a
107.1615	0.048	214323	keystroke_e	e	n/a
107.2885	0.081	214577	keystroke_c	c	n/a
107.5045	0.105	215009	keystroke_t	t	n/a
107.5855	0.095	215171	keystroke_i	i	n/a
107.6415	0.1195	215283	keystroke_o	o	n/a
107.6895	0.143	215379	keystroke_n	n	n/a
107.793	0.0795	215586	keystroke_Key.space	Key.space	n/a
107.953	0.104	215906	keystroke_r	r	n/a
108.033	0.0805	216066	keystroke_e	e	n/a
108.217	0.0875	216434	keystroke_c	c	n/a
108.3135	0.0555	216627	keystroke_o	o	n/a
108.4485	0.0485	216897	keystroke_m	m	n/a
108.561	0.08	217122	keystroke_m	m	n/a
108.657	0.0805	217314	keystroke_e	e	n/a
108.7695	0.1115	217539	keystroke_n	n	n/a
108.857	0.216	217714	keystroke_d	d	n/a
109.009	0.104	218018	keystroke_s	s	n/a
109.065	0.072	218130	keystroke_Key.space	Key.space	n/a
109.233	0.056	218466	keystroke_l	l	n/a
109.345	0.0805	218690	keystroke_e	e	n/a
109.5215	0.1755	219043	keystroke_o	o	n/a
109.641	0.112	219282	keystroke_n	n	n/a
109.737	0.12	219474	keystroke_a	a	n/a
109.833	0.08	219666	keystroke_r	r	n/a
109.985	0.12	219970	keystroke_d	d	n/a
110.081	0.072	220162	keystroke_Key.space	Key.space	n/a
110.193	0.088	220386	keystroke_e	e	n/a
110.282	0.0955	220564	keystroke_m	m	n/a
110.337	0.0645	220674	keystroke_p	p	n/a
110.4655	0.096	220931	keystroke_i	i	n/a
110.5615	0.055	221123	keystroke_r	r	n/a
110.6485	0.096	221297	keystroke_i	i	n/a
110.737	0.12	221474	keystroke_c	c	n/a
110.913	0.0725	221826	keystroke_l	l	n/a
111.257	0.0635	222514	keystroke_Key.backspace	Key.backspace	n/a
111.3615	0.087	222723	keystroke_a	a	n/a
111.4565	0.0885	222913	keystroke_l	l	n/a
111.6405	0.0645	223281	keystroke_Key.enter	Key.enter	n/a
111.7115	6.083	223423	prompt	n/a	washington tribes approaches violin\n
112.5455	0.071	225091	keystroke_w	w	n/a
112.6325	0.128	225265	keystroke_a	a	n/a
112.713	0.0955	225426	keystroke_s	s	n/a
112.785	0.1125	225570	keystroke_h	h	n/a
112.841	0.072	225682	keystroke_i	i	n/a
113.0085	0.12	226017	keystroke_n	n	n/a
113.0885	0.073	226177	keystroke_g	g	n/a
113.2805	0.096	226561	keystroke_t	t	n/a
113.3695	0.1435	226739	keystroke_o	o	n/a
113.4325	0.129	226865	keystroke_n	n	n/a
113.4965	0.089	226993	keystroke_Key.space	Key.space	n/a
113.721	0.079	227442	keystroke_t	t	n/a
113.888	0.072	227776	keystroke_r	r	n/a
114.0015	0.1515	228003	keystroke_i	i	n/a
114.089	0.0795	228178	keystroke_b	b	n/a
114.265	0.16	228530	keystroke_e	e	n/a
114.345	0.1205	228690	keystroke_s	s	n/a
114.409	0.095	228818	keystroke_Key.space	Key.space	n/a
114.609	0.0875	229218	keystroke_a	a	n/a
114.7125	0.072	229425	keystroke_p	p	n/a
114.809	0.1195	229618	keystroke_p	p	n/a
115.225	0.1035	230450	keystroke_r	r	n/a
115.3455	0.1355	230691	keystroke_o	o	n/a
115.4325	0.0725	230865	keystroke_a	a	n/a
115.561	0.08	231122	keystroke_c	c	n/a
115.673	0.152	231346	keystroke_h	h	n/a
115.7365	0.1435	231473	keystroke_e	e	n/a
115.801	0.112	231602	keystroke_s	s	n/a
115.865	0.071	231730	keystroke_Key.space	Key.space	n/a
116.073	0.056	232146	keystroke_w	w	n/a
116.345	0.064	232690	keystroke_Key.backspace	Key.backspace	n/a
116.417	0.096	232834	keystroke_v	v	n/a
116.529	0.1355	233058	keystroke_i	i	n/a
116.593	0.0955	233186	keystroke_o	o	n/a
117.1535	0.055	234307	keystroke_l	l	n/a
117.2725	0.064	234545	keystroke_i	i	n/a
117.393	0.08	234786	keystroke_n	n	n/a
117.705	0.088	235410	keystroke_Key.enter	Key.enter	n/a
117.799	6.0675	235598	prompt	n/a	threshold heat reproduction ministries\n
118.881	0.0715	237762	keystroke_t	t	n/a
119.185	0.112	238370	keystroke_h	h	n/a
119.289	0.16	238578	keystroke_r	r	n/a
119.385	0.0875	238770	keystroke_e	e	n/a
119.753	0.08	239506	keystroke_s	s	n/a
120.0325	0.105	240065	keystroke_h	h	n/a
120.089	0.056	240178	keystroke_o	o	n/a
120.2575	0.1115	240515	keystroke_l	l	n/a
120.2805	0.1045	240561	keystroke_d	d	n/a
120.337	0.072	240674	keystroke_Key.space	Key.space	n/a
120.489	0.1435	240978	keystroke_h	h	n/a
120.537	0.1275	241074	keystroke_e	e	n/a
120.601	0.112	241202	keystroke_a	a	n/a
120.6965	0.0885	241393	keystroke_t	t	n/a
120.7525	0.0875	241505	keystroke_Key.space	Key.space	n/a
120.904	0.137	241808	keystroke_r	r	n/a
120.9935	0.0795	241987	keystroke_e	e	n/a
121.129	0.056	242258	keystroke_p	p	n/a
121.545	0.064	243090	keystroke_r	r	n/a
121.704	0.097	243408	keystroke_o	o	n/a
121.809	0.0715	243618	keystroke_d	d	n/a
121.944	0.0725	243888	keystroke_u	u	n/a
122	0.0975	244000	keystroke_c	c	n/a
122.216	0.104	244432	keystroke_t	t	n/a
122.272	0.0965	244544	keystroke_i	i	n/a
122.312	0.137	244624	keystroke_o	o	n/a
122.369	0.104	244738	keystroke_n	n	n/a
122.416	0.121	244832	keystroke_Key.space	Key.space	n/a
122.641	0.112	245282	keystroke_m	m	n/a
122.7535	0.0395	245507	keystroke_i	i	n/a
122.8645	0.0965	245729	keystroke_n	n	n/a
122.9365	0.0645	245873	keystroke_i	i	n/a
123.0805	0.12	246161	keystroke_s	s	n/a
123.169	0.0715	246338	keystroke_t	t	n/a
123.329	0.0875	246658	keystroke_r	r	n/a
123.4565	0.136	246913	keystroke_i	i	n/a
123.5125	0.1525	247025	keystroke_e	e	n/a
123.6085	0.1125	247217	keystroke_s	s	n/a
123.777	0.088	247554	keystroke_Key.enter	Key.enter	n/a
123.871	3.8595	247742	prompt	n/a	recover appear tablet land\n
124.489	0.1115	248978	keystroke_r	r	n/a
124.5605	0.0965	249121	keystroke_e	e	n/a
124.7285	0.0805	249457	keystroke_c	c	n/a
124.841	0.128	249682	keystroke_o	o	n/a
124.961	0.048	249922	keystroke_v	v	n/a
125.081	0.152	250162	keystroke_e	e	n/a
125.145	0.112	250290	keystroke_r	r	n/a
125.4885	0.088	250977	keystroke_Key.space	Key.space	n/a
125.641	0.072	251282	keystroke_a	a	n/a
125.7445	0.072	251489	keystroke_p	p	n/a
125.9125	0.0645	251825	keystroke_p	p	n/a
126.0085	0.2	252017	keystroke_e	e	n/a
126.0565	0.104	252113	keystroke_a	a	n/a
126.121	0.1195	252242	keystroke_r	r	n/a
126.1925	0.088	252385	keystroke_Key.space	Key.space	n/a
126.4255	0.079	252851	keystroke_t	t	n/a
126.5685	0.0725	253137	keystroke_a	a	n/a
126.7045	0.0805	253409	keystroke_b	b	n/a
126.8325	0.1205	253665	keystroke_l	l	n/a
126.8885	0.1525	253777	keystroke_e	e	n/a
126.993	0.104	253986	keystroke_t	t	n/a
127.049	0.104	254098	keystroke_Key.space	Key.space	n/a
127.257	0.08	254514	keystroke_l	l	n/a
127.313	0.096	254626	keystroke_a	a	n/a
127.417	0.08	254834	keystroke_n	n	n/a
127.473	0.08	254946	keystroke_d	d	n/a
127.633	0.095	255266	keystroke_Key.enter	Key.enter	n/a
127.7355	4.427	255471	prompt	n/a	shorter msgstr clocks estate\n
128.241	0.095	256482	keystroke_s	s	n/a
128.337	0.1115	256674	keystroke_h	h	n/a
128.408	0.089	256816	keystroke_o	o	n/a
128.4565	0.096	256913	keystroke_r	r	n/a
128.6085	0.104	257217	keystroke_t	t	n/a
128.7205	0.168	257441	keystroke_e	e	n/a
128.8005	0.112	257601	keystroke_r	r	n/a
128.8725	0.072	257745	keystroke_Key.space	Key.space	n/a
129.025	0.128	258050	keystroke_m	m	n/a
129.2335	0.0955	258467	keystroke_s	s	n/a
129.425	0.0955	258850	keystroke_g	g	n/a
129.673	0.1275	259346	keystroke_s	s	n/a
129.9925	0.12	259985	keystroke_t	t	n/a
130.2485	0.104	260497	keystroke_r	r	n/a
130.4805	0.096	260961	keystroke_Key.space	Key.space	n/a
130.649	0.0795	261298	keystroke_c	c	n/a
130.7365	0.048	261473	keystroke_l	l	n/a
130.8805	0.0715	261761	keystroke_o	o	n/a
130.977	0.079	261954	keystroke_c	c	n/a
131.065	0.1515	262130	keystroke_k	k	n/a
131.1605	0.1205	262321	keystroke_s	s	n/a
131.24	0.0805	262480	keystroke_Key.space	Key.space	n/a
131.433	0.1355	262866	keystroke_e	e	n/a
131.553	0.104	263106	keystroke_s	s	n/a
131.633	0.072	263266	keystroke_t	t	n/a
131.753	0.104	263506	keystroke_a	a	n/a
131.8005	0.1355	263601	keystroke_t	t	n/a
131.88	0.097	263760	keystroke_e	e	n/a
132.056	0.1045	264112	keystroke_Key.enter	Key.enter	n/a
132.169	3.921	264338	prompt	n/a	kennedy warren handy rivers\n
132.681	0.087	265362	keystroke_k	k	n/a
132.809	0.0715	265618	keystroke_e	e	n/a
132.9525	0.0555	265905	keystroke_n	n	n/a
133.0645	0.0955	266129	keystroke_n	n	n/a
133.1765	0.0475	266353	keystroke_e	e	n/a
133.3125	0.1115	266625	keystroke_d	d	n/a
133.4405	0.1115	266881	keystroke_y	y	n/a
133.52	0.064	267040	keystroke_Key.space	Key.space	n/a
133.6565	0.12	267313	keystroke_w	w	n/a
133.8085	0.08	267617	keystroke_a	a	n/a
134.0405	0.048	268081	keystroke_r	r	n/a
134.1685	0.088	268337	keystroke_r	r	n/a
134.2235	0.113	268447	keystroke_e	e	n/a
134.3515	0.113	268703	keystroke_n	n	n/a
134.4405	0.072	268881	keystroke_Key.space	Key.space	n/a
134.6245	0.063	269249	keystroke_h	h	n/a
134.7275	0.1045	269455	keystroke_a	a	n/a
134.8885	0.096	269777	keystroke_n	n	n/a
134.9925	0.1365	269985	keystroke_d	d	n/a
135.1525	0.1115	270305	keystroke_y	y	n/a
135.224	0.0885	270448	keystroke_Key.space	Key.space	n/a
135.337	0.087	270674	keystroke_r	r	n/a
135.4325	0.136	270865	keystroke_i	i	n/a
135.536	0.072	271072	keystroke_v	v	n/a
135.657	0.208	271314	keystroke_e	e	n/a
135.7525	0.1435	271505	keystroke_r	r	n/a
135.824	0.112	271648	keystroke_s	s	n/a
136	0.0885	272000	keystroke_Key.enter	Key.enter	n/a
136.0925	4.238	272185	prompt	n/a	customer certification insertion ones\n
136.689	0.103	273378	keystroke_c	c	n/a
136.801	0.079	273602	keystroke_u	u	n/a
136.8725	0.1195	273745	keystroke_s	s	n/a
137.001	0.088	274002	keystroke_t	t	n/a
137.033	0.168	274066	keystroke_o	o	n/a
137.136	0.137	274272	keystroke_m	m	n/a
137.1925	0.1685	274385	keystroke_e	e	n/a
137.281	0.0875	274562	keystroke_r	r	n/a
137.3285	0.0875	274657	keystroke_Key.space	Key.space	n/a
137.505	0.063	275010	keystroke_c	c	n/a
137.592	0.137	275184	keystroke_e	e	n/a
137.705	0.087	275410	keystroke_r	r	n/a
137.8805	0.088	275761	keystroke_t	t	n/a
138.0565	0.112	276113	keystroke_i	i	n/a
138.2005	0.072	276401	keystroke_f	f	n/a
138.3285	0.0965	276657	keystroke_i	i	n/a
138.409	0.104	276818	keystroke_c	c	n/a
138.4965	0.0795	276993	keystroke_a	a	n/a
138.672	0.104	277344	keystroke_t	t	n/a
138.721	0.088	277442	keystroke_i	i	n/a
138.793	0.039	277586	keystroke_o	o	n/a
138.801	0.095	277602	keystroke_n	n	n/a
138.864	0.096	277728	keystroke_Key.space	Key.space	n/a
138.976	0.0965	277952	keystroke_i	i	n/a
139.0645	0.112	278129	keystroke_n	n	n/a
139.1365	0.088	278273	keystroke_s	s	n/a
139.1685	0.1675	278337	keystroke_e	e	n/a
139.28	0.112	278560	keystroke_r	r	n/a
139.48	0.1125	278960	keystroke_t	t	n/a
139.5845	0.0965	279169	keystroke_i	i	n/a
139.6405	0.096	279281	keystroke_o	o	n/a
139.656	0.12	279312	keystroke_n	n	n/a
139.752	0.0645	279504	keystroke_Key.space	Key.space	n/a
139.8645	0.1125	279729	keystroke_o	o	n/a
139.929	0.104	279858	keystroke_n	n	n/a
139.977	0.151	279954	keystroke_e	e	n/a
140.073	0.1115	280146	keystroke_s	s	n/a
140.232	0.096	280464	keystroke_Key.enter	Key.enter	n/a
140.3345	3.2275	280669	prompt	n/a	planet center quotes high\n
140.9045	0.056	281809	keystroke_p	p	n/a
141.048	0.097	282096	keystroke_l	l	n/a
141.1365	0.096	282273	keystroke_a	a	n/a
141.249	0.1275	282498	keystroke_n	n	n/a
141.313	0.1425	282626	keystroke_e	e	n/a
141.424	0.0805	282848	keystroke_t	t	n/a
141.4635	0.1045	282927	keystroke_Key.space	Key.space	n/a
141.689	0.08	283378	keystroke_c	c	n/a
141.777	0.112	283554	keystroke_e	e	n/a
141.92	0.0965	283840	keystroke_n	n	n/a
142	0.0565	284000	keystroke_t	t	n/a
142.1125	0.1605	284225	keystroke_e	e	n/a
142.1995	0.1125	284399	keystroke_r	r	n/a
142.249	0.1025	284498	keystroke_Key.space	Key.space	n/a
142.376	0.0885	284752	keystroke_q	q	n/a
142.4805	0.144	284961	keystroke_u	u	n/a
142.536	0.129	285072	keystroke_o	o	n/a
142.608	0.2405	285216	keystroke_t	t	n/a
142.7125	0.1595	285425	keystroke_e	e	n/a
142.793	0.1275	285586	keystroke_s	s	n/a
142.8245	0.104	285649	keystroke_Key.space	Key.space	n/a
143.016	0.12	286032	keystroke_h	h	n/a
143.105	0.096	286210	keystroke_i	i	n/a
143.225	0.0875	286450	keystroke_g	g	n/a
143.28	0.088	286560	keystroke_h	h	n/a
143.472	0.088	286944	keystroke_Key.enter	Key.enter	n/a
143.5665	5.4835	287133	prompt	n/a	mediterranean riders engage atlanta\n
144.193	0.0875	288386	keystroke_m	m	n/a
144.3295	0.055	288659	keystroke_e	e	n/a
144.472	0.096	288944	keystroke_d	d	n/a
144.569	0.079	289138	keystroke_i	i	n/a
144.696	0.056	289392	keystroke_t	t	n/a
145.016	0.048	290032	keystroke_t	t	n/a
145.336	0.0645	290672	keystroke_Key.backspace	Key.backspace	n/a
145.625	0.063	291250	keystroke_e	e	n/a
145.8	0.0485	291600	keystroke_r	r	n/a
145.928	0.0805	291856	keystroke_r	r	n/a
146.0565	0.096	292113	keystroke_a	a	n/a
146.2005	0.0955	292401	keystroke_n	n	n/a
146.3045	0.1195	292609	keystroke_e	e	n/a
146.3765	0.136	292753	keystroke_a	a	n/a
146.48	0.0965	292960	keystroke_n	n	n/a
146.5605	0.0635	293121	keystroke_Key.space	Key.space	n/a
146.825	0.0715	293650	keystroke_r	r	n/a
146.9365	0.1125	293873	keystroke_i	i	n/a
147.0085	0.08	294017	keystroke_d	d	n/a
147.153	0.183	294306	keystroke_e	e	n/a
147.2325	0.152	294465	keystroke_r	r	n/a
147.304	0.096	294608	keystroke_s	s	n/a
147.337	0.095	294674	keystroke_Key.space	Key.space	n/a
147.521	0.079	295042	keystroke_e	e	n/a
147.64	0.097	295280	keystroke_n	n	n/a
147.737	0.056	295474	keystroke_g	g	n/a
147.8005	0.1195	295601	keystroke_a	a	n/a
147.897	0.119	295794	keystroke_g	g	n/a
147.9685	0.12	295937	keystroke_e	e	n/a
148.032	0.088	296064	keystroke_Key.space	Key.space	n/a
148.152	0.12	296304	keystroke_a	a	n/a
148.329	0.0795	296658	keystroke_t	t	n/a
148.449	0.0875	296898	keystroke_l	l	n/a
148.528	0.097	297056	keystroke_a	a	n/a
148.6405	0.112	297281	keystroke_n	n	n/a
148.736	0.0885	297472	keystroke_t	t	n/a
148.7845	0.088	297569	keystroke_a	a	n/a
148.952	0.096	297904	keystroke_Key.enter	Key.enter	n/a
149.0545	6.572	298109	prompt	n/a	experiences resistant fold liechtenstein\n
149.6085	0.064	299217	keystroke_e	e	n/a
149.7765	0.072	299553	keystroke_x	x	n/a
149.8805	0.087	299761	keystroke_p	p	n/a
149.9525	0.08	299905	keystroke_e	e	n/a
150.0325	0.088	300065	keystroke_r	r	n/a
150.1125	0.072	300225	keystroke_i	i	n/a
150.1925	0.08	300385	keystroke_e	e	n/a
150.2795	0.153	300559	keystroke_n	n	n/a
150.3515	0.105	300703	keystroke_c	c	n/a
150.4325	0.104	300865	keystroke_e	e	n/a
150.4805	0.112	300961	keystroke_s	s	n/a
150.5205	0.095	301041	keystroke_Key.space	Key.space	n/a
150.8725	0.12	301745	keystroke_r	r	n/a
150.936	0.12	301872	keystroke_e	e	n/a
151.0085	0.0955	302017	keystroke_s	s	n/a
151.16	0.08	302320	keystroke_i	i	n/a
151.2325	0.12	302465	keystroke_s	s	n/a
151.328	0.096	302656	keystroke_t	t	n/a
151.432	0.104	302864	keystroke_a	a	n/a
151.6645	0.1355	303329	keystroke_n	n	n/a
151.744	0.0885	303488	keystroke_t	t	n/a
151.8085	0.0795	303617	keystroke_Key.space	Key.space	n/a
151.968	0.08	303936	keystroke_f	f	n/a
152.049	0.0715	304098	keystroke_o	o	n/a
152.2005	0.1115	304401	keystroke_l	l	n/a
152.256	0.1045	304512	keystroke_d	d	n/a
152.313	0.087	304626	keystroke_Key.space	Key.space	n/a
152.432	0.048	304864	keystroke_l	l	n/a
152.5525	0.096	305105	keystroke_i	i	n/a
153.24	0.096	306480	keystroke_e	e	n/a
153.5365	0.0875	307073	keystroke_c	c	n/a
153.6725	0.096	307345	keystroke_h	h	n/a
153.9045	0.1035	307809	keystroke_t	t	n/a
154.128	0.1045	308256	keystroke_n	n	n/a
154.416	0.0725	308832	keystroke_Key.backspace	Key.backspace	n/a
154.5205	0.072	309041	keystroke_e	e	n/a
154.6	0.1045	309200	keystroke_n	n	n/a
154.9045	0.0795	309809	keystroke_s	s	n/a
155.016	0.1045	310032	keystroke_t	t	n/a
155.0725	0.104	310145	keystroke_e	e	n/a
155.2165	0.096	310433	keystroke_i	i	n/a
155.2965	0.112	310593	keystroke_n	n	n/a
155.544	0.08	311088	keystroke_Key.enter	Key.enter	n/a
155.6305	4.7465	311261	prompt	n/a	registry we continental financing\n
156.0885	0.0475	312177	keystroke_e	e	n/a
156.5125	0.071	313025	keystroke_Key.backspace	Key.backspace	n/a
156.5605	0.096	313121	keystroke_r	r	n/a
156.6165	0.071	313233	keystroke_e	e	n/a
156.744	0.088	313488	keystroke_g	g	n/a
156.8565	0.1195	313713	keystroke_i	i	n/a
156.936	0.1125	313872	keystroke_s	s	n/a
157.448	0.064	314896	keystroke_t	t	n/a
157.616	0.1035	315232	keystroke_r	r	n/a
157.7365	0.1035	315473	keystroke_y	y	n/a
157.8085	0.0795	315617	keystroke_Key.space	Key.space	n/a
157.96	0.088	315920	keystroke_w	w	n/a
158.024	0.1605	316048	keystroke_e	e	n/a
158.144	0.08	316288	keystroke_Key.space	Key.space	n/a
158.312	0.0805	316624	keystroke_c	c	n/a
158.376	0.12	316752	keystroke_o	o	n/a
158.464	0.096	316928	keystroke_n	n	n/a
158.5765	0.0955	317153	keystroke_t	t	n/a
158.656	0.08	317312	keystroke_i	i	n/a
158.7445	0.0795	317489	keystroke_n	n	n/a
158.84	0.104	317680	keystroke_e	e	n/a
158.928	0.112	317856	keystroke_n	n	n/a
159.024	0.12	318048	keystroke_t	t	n/a
159.088	0.104	318176	keystroke_a	a	n/a
159.208	0.104	318416	keystroke_l	l	n/a
159.272	0.088	318544	keystroke_Key.space	Key.space	n/a
159.392	0.072	318784	keystroke_f	f	n/a
159.4325	0.0715	318865	keystroke_i	i	n/a
159.5685	0.08	319137	keystroke_n	n	n/a
159.6635	0.0965	319327	keystroke_a	a	n/a
159.7525	0.0795	319505	keystroke_n	n	n/a
159.848	0.08	319696	keystroke_c	c	n/a
159.936	0.104	319872	keystroke_i	i	n/a
160.032	0.096	320064	keystroke_n	n	n/a
160.128	0.072	320256	keystroke_g	g	n/a
160.28	0.096	320560	keystroke_Key.enter	Key.enter	n/a
160.389	4.0285	320778	prompt	n/a	limousines hampton wine shot\n
160.928	0.064	321856	keystroke_l	l	n/a
161.056	0.0725	322112	keystroke_i	i	n/a
161.216	0.08	322432	keystroke_m	m	n/a
161.3595	0.145	322719	keystroke_o	o	n/a
161.5045	0.104	323009	keystroke_u	u	n/a
161.6725	0.072	323345	keystroke_s	s	n/a
161.7525	0.08	323505	keystroke_i	i	n/a
161.8805	0.168	323761	keystroke_n	n	n/a
162.0405	0.144	324081	keystroke_e	e	n/a
162.0965	0.136	324193	keystroke_s	s	n/a
162.1685	0.088	324337	keystroke_Key.space	Key.space	n/a
162.296	0.072	324592	keystroke_h	h	n/a
162.384	0.0965	324768	keystroke_a	a	n/a
162.5205	0.1595	325041	keystroke_m	m	n/a
162.6	0.12	325200	keystroke_p	p	n/a
162.7845	0.1115	325569	keystroke_t	t	n/a
162.904	0.088	325808	keystroke_o	o	n/a
163.008	0.16	326016	keystroke_n	n	n/a
163.1765	0.08	326353	keystroke_Key.space	Key.space	n/a
163.4005	0.096	326801	keystroke_w	w	n/a
163.4565	0.08	326913	keystroke_i	i	n/a
163.5445	0.128	327089	keystroke_n	n	n/a
163.6085	0.1035	327217	keystroke_e	e	n/a
163.6805	0.0635	327361	keystroke_Key.space	Key.space	n/a
163.9205	0.088	327841	keystroke_s	s	n/a
163.976	0.144	327952	keystroke_h	h	n/a
164.056	0.1125	328112	keystroke_o	o	n/a
164.1525	0.0715	328305	keystroke_t	t	n/a
164.328	0.088	328656	keystroke_Key.enter	Key.enter	n/a
164.4205	4.07	328841	prompt	n/a	dollars regards bytes prophet\n
164.9445	0.0315	329889	keystroke_d	d	n/a
165.1525	0.055	330305	keystroke_o	o	n/a
165.3205	0.032	330641	keystroke_l	l	n/a
165.4075	0.081	330815	keystroke_l	l	n/a
165.496	0.0885	330992	keystroke_a	a	n/a
165.5675	0.169	331135	keystroke_r	r	n/a
165.6485	0.127	331297	keystroke_s	s	n/a
165.7365	0.063	331473	keystroke_Key.space	Key.space	n/a
165.8955	0.0965	331791	keystroke_r	r	n/a
165.9515	0.081	331903	keystroke_e	e	n/a
166.0885	0.088	332177	keystroke_g	g	n/a
166.1685	0.096	332337	keystroke_a	a	n/a
166.304	0.0725	332608	keystroke_r	r	n/a
166.4645	0.16	332929	keystroke_d	d	n/a
166.552	0.12	333104	keystroke_s	s	n/a
166.616	0.0885	333232	keystroke_Key.space	Key.space	n/a
166.792	0.0805	333584	keystroke_b	b	n/a
166.9525	0.088	333905	keystroke_y	y	n/a
167.0725	0.191	334145	keystroke_t	t	n/a
167.1925	0.1675	334385	keystroke_e	e	n/a
167.2565	0.1435	334513	keystroke_s	s	n/a
167.336	0.088	334672	keystroke_Key.space	Key.space	n/a
167.552	0.096	335104	keystroke_p	p	n/a
167.712	0.0885	335424	keystroke_r	r	n/a
167.8085	0.1355	335617	keystroke_o	o	n/a
167.864	0.1115	335728	keystroke_p	p	n/a
168.048	0.1365	336096	keystroke_h	h	n/a
168.1525	0.111	336305	keystroke_e	e	n/a
168.232	0.1035	336464	keystroke_t	t	n/a
168.392	0.0955	336784	keystroke_Key.enter	Key.enter	n/a
168.4945	4.211	336989	prompt	n/a	sigma suddenly fishing prevention\n
169.0725	0.072	338145	keystroke_s	s	n/a
169.1605	0.096	338321	keystroke_i	i	n/a
169.272	0.072	338544	keystroke_g	g	n/a
169.376	0.1685	338752	keystroke_m	m	n/a
169.489	0.111	338978	keystroke_a	a	n/a
169.56	0.0885	339120	keystroke_Key.space	Key.space	n/a
169.72	0.0645	339440	keystroke_s	s	n/a
169.824	0.0885	339648	keystroke_u	u	n/a
169.936	0.056	339872	keystroke_d	d	n/a
170.056	0.0645	340112	keystroke_d	d	n/a
170.192	0.072	340384	keystroke_e	e	n/a
170.248	0.08	340496	keystroke_n	n	n/a
170.44	0.0485	340880	keystroke_l	l	n/a
170.5675	0.0965	341135	keystroke_y	y	n/a
170.6075	0.0885	341215	keystroke_Key.space	Key.space	n/a
170.736	0.104	341472	keystroke_f	f	n/a
170.8715	0.12	341743	keystroke_i	i	n/a
171.056	0.0955	342112	keystroke_s	s	n/a
171.1525	0.111	342305	keystroke_h	h	n/a
171.216	0.08	342432	keystroke_i	i	n/a
171.376	0.1275	342752	keystroke_n	n	n/a
171.4395	0.0725	342879	keystroke_g	g	n/a
171.4955	0.0805	342991	keystroke_Key.space	Key.space	n/a
171.5995	0.144	343199	keystroke_p	p	n/a
171.688	0.0875	343376	keystroke_r	r	n/a
171.7515	0.072	343503	keystroke_e	e	n/a
171.904	0.0875	343808	keystroke_v	v	n/a
171.9995	0.081	343999	keystroke_e	e	n/a
172.104	0.0795	344208	keystroke_n	n	n/a
172.2325	0.071	344465	keystroke_t	t	n/a
172.2805	0.143	344561	keystroke_i	i	n/a
172.3435	0.104	344687	keystroke_o	o	n/a
172.3755	0.104	344751	keystroke_n	n	n/a
172.608	0.096	345216	keystroke_Key.enter	Key.enter	n/a
172.71	4.4835	345420	prompt	n/a	tribal satellite producing only\n
173.304	0.072	346608	keystroke_t	t	n/a
173.472	0.064	346944	keystroke_r	r	n/a
173.56	0.136	347120	keystroke_i	i	n/a
173.664	0.096	347328	keystroke_b	b	n/a
173.712	0.088	347424	keystroke_a	a	n/a
173.856	0.12	347712	keystroke_l	l	n/a
173.92	0.104	347840	keystroke_Key.space	Key.space	n/a
174.064	0.064	348128	keystroke_s	s	n/a
174.336	0.072	348672	keystroke_a	a	n/a
174.5365	0.0555	349073	keystroke_t	t	n/a
174.672	0.056	349344	keystroke_e	e	n/a
174.808	0.0715	349616	keystroke_l	l	n/a
174.9445	0.0625	349889	keystroke_l	l	n/a
175.0885	0.1115	350177	keystroke_i	i	n/a
175.176	0.1195	350352	keystroke_t	t	n/a
175.224	0.1365	350448	keystroke_e	e	n/a
175.336	0.072	350672	keystroke_Key.space	Key.space	n/a
175.464	0.08	350928	keystroke_p	p	n/a
175.552	0.0725	351104	keystroke_r	r	n/a
175.64	0.096	351280	keystroke_o	o	n/a
175.728	0.0965	351456	keystroke_d	d	n/a
175.848	0.0795	351696	keystroke_u	u	n/a
176.008	0.0955	352016	keystroke_c	c	n/a
176.096	0.0795	352192	keystroke_i	i	n/a
176.2395	0.1285	352479	keystroke_n	n	n/a
176.2955	0.088	352591	keystroke_g	g	n/a
176.3515	0.089	352703	keystroke_Key.space	Key.space	n/a
176.5205	0.0795	353041	keystroke_o	o	n/a
176.5925	0.08	353185	keystroke_n	n	n/a
176.7525	0.072	353505	keystroke_l	l	n/a
176.9125	0.071	353825	keystroke_y	y	n/a
177.0955	0.096	354191	keystroke_Key.enter	Key.enter	n/a
177.198	5.2205	354396	prompt	n/a	nebraska convergence netscape tune\n
177.7995	0.112	355599	keystroke_n	n	n/a
177.9125	0.0555	355825	keystroke_e	e	n/a
178.1755	0.0565	356351	keystroke_b	b	n/a
178.3515	0.112	356703	keystroke_r	r	n/a
178.4235	0.088	356847	keystroke_a	a	n/a
178.6155	0.089	357231	keystroke_s	s	n/a
178.768	0.12	357536	keystroke_k	k	n/a
178.848	0.104	357696	keystroke_a	a	n/a
178.968	0.064	357936	keystroke_Key.space	Key.space	n/a
179.1445	0.095	358289	keystroke_c	c	n/a
179.248	0.1195	358496	keystroke_o	o	n/a
179.3195	0.1365	358639	keystroke_n	n	n/a
179.3595	0.0485	358719	keystroke_v	v	n/a
179.488	0.1525	358976	keystroke_e	e	n/a
179.5685	0.0875	359137	keystroke_r	r	n/a
179.7355	0.097	359471	keystroke_g	g	n/a
179.8155	0.104	359631	keystroke_e	e	n/a
179.9675	0.1365	359935	keystroke_n	n	n/a
180.024	0.104	360048	keystroke_c	c	n/a
180.104	0.088	360208	keystroke_e	e	n/a
180.1355	0.1205	360271	keystroke_Key.space	Key.space	n/a
180.384	0.1035	360768	keystroke_n	n	n/a
180.424	0.0955	360848	keystroke_e	e	n/a
180.5525	0.055	361105	keystroke_t	t	n/a
180.8635	0.08	361727	keystroke_s	s	n/a
181.1045	0.119	362209	keystroke_c	c	n/a
181.1995	0.0885	362399	keystroke_a	a	n/a
181.3835	0.112	362767	keystroke_p	p	n/a
181.5195	0.0805	363039	keystroke_e	e	n/a
181.736	0.0875	363472	keystroke_Key.space	Key.space	n/a
181.88	0.0795	363760	keystroke_t	t	n/a
181.9445	0.047	363889	keystroke_u	u	n/a
182.0885	0.08	364177	keystroke_n	n	n/a
182.1765	0.055	364353	keystroke_e	e	n/a
182.3275	0.088	364655	keystroke_Key.enter	Key.enter	n/a
182.4225	4.8105	364845	prompt	n/a	conference visual brutal calculations\n
182.92	0.064	365840	keystroke_n	n	n/a
183.216	0.064	366432	keystroke_Key.backspace	Key.backspace	n/a
183.352	0.112	366704	keystroke_c	c	n/a
183.424	0.136	366848	keystroke_o	o	n/a
183.496	0.112	366992	keystroke_n	n	n/a
183.592	0.0725	367184	keystroke_f	f	n/a
183.728	0.112	367456	keystroke_e	e	n/a
183.8725	0.1195	367745	keystroke_r	r	n/a
183.976	0.08	367952	keystroke_e	e	n/a
184.1195	0.152	368239	keystroke_n	n	n/a
184.208	0.0645	368416	keystroke_c	c	n/a
184.2725	0.071	368545	keystroke_e	e	n/a
184.3035	0.08	368607	keystroke_Key.space	Key.space	n/a
184.5275	0.032	369055	keystroke_v	v	n/a
184.5755	0.1045	369151	keystroke_i	i	n/a
184.664	0.12	369328	keystroke_s	s	n/a
184.7995	0.08	369599	keystroke_u	u	n/a
184.8805	0.127	369761	keystroke_a	a	n/a
184.9995	0.1125	369999	keystroke_l	l	n/a
185.064	0.08	370128	keystroke_Key.space	Key.space	n/a
185.192	0.056	370384	keystroke_b	b	n/a
185.36	0.088	370720	keystroke_r	r	n/a
185.52	0.104	371040	keystroke_u	u	n/a
185.5915	0.12	371183	keystroke_t	t	n/a
185.655	0.0885	371310	keystroke_a	a	n/a
185.7355	0.1205	371471	keystroke_l	l	n/a
185.8235	0.08	371647	keystroke_Key.space	Key.space	n/a
185.9515	0.104	371903	keystroke_c	c	n/a
186.016	0.1035	372032	keystroke_a	a	n/a
186.1515	0.112	372303	keystroke_l	l	n/a
186.248	0.1035	372496	keystroke_c	c	n/a
186.376	0.072	372752	keystroke_u	u	n/a
186.5115	0.104	373023	keystroke_l	l	n/a
186.5675	0.1205	373135	keystroke_a	a	n/a
186.695	0.089	373390	keystroke_t	t	n/a
186.768	0.096	373536	keystroke_i	i	n/a
186.8155	0.128	373631	keystroke_o	o	n/a
186.888	0.0875	373776	keystroke_n	n	n/a
186.9835	0.0805	373967	keystroke_s	s	n/a
187.1355	0.096	374271	keystroke_Key.enter	Key.enter	n/a
187.237	6.5335	374474	prompt	n/a	birds occurred memphis toolbox\n
187.872	0.048	375744	keystroke_b	b	n/a
187.952	0.104	375904	keystroke_i	i	n/a
188.048	0.0715	376096	keystroke_r	r	n/a
188.208	0.136	376416	keystroke_d	d	n/a
188.279	0.121	376558	keystroke_s	s	n/a
188.335	0.0885	376670	keystroke_Key.space	Key.space	n/a
188.52	0.096	377040	keystroke_o	o	n/a
188.592	0.056	377184	keystroke_c	c	n/a
188.736	0.056	377472	keystroke_c	c	n/a
189.16	0.0715	378320	keystroke_u	u	n/a
189.28	0.064	378560	keystroke_r	r	n/a
189.3995	0.0645	378799	keystroke_r	r	n/a
189.543	0.064	379086	keystroke_e	e	n/a
189.688	0.103	379376	keystroke_d	d	n/a
189.767	0.048	379534	keystroke_Key.space	Key.space	n/a
189.9355	0.04	379871	keystroke_n	n	n/a
190.272	0.0555	380544	keystroke_Key.backspace	Key.backspace	n/a
190.4635	0.072	380927	keystroke_m	m	n/a
190.5275	0.0725	381055	keystroke_e	e	n/a
190.656	0.0555	381312	keystroke_m	m	n/a
190.8395	0.1045	381679	keystroke_p	p	n/a
191	0.176	382000	keystroke_h	h	n/a
191.072	0.12	382144	keystroke_i	i	n/a
191.177	0.111	382354	keystroke_s	s	n/a
191.24	0.048	382480	keystroke_Key.space	Key.space	n/a
191.472	0.0635	382944	keystroke_t	t	n/a
191.512	0.1595	383024	keystroke_o	o	n/a
191.92	0.048	383840	keystroke_o	o	n/a
192.087	0.089	384174	keystroke_l	l	n/a
192.296	0.104	384592	keystroke_g	g	n/a
192.431	0.104	384862	keystroke_o	o	n/a
192.576	0.096	385152	keystroke_x	x	n/a
192.912	0.039	385824	keystroke_Key.backspace	Key.backspace	n/a
192.999	0.056	385998	keystroke_Key.backspace	Key.backspace	n/a
193.111	0.064	386222	keystroke_Key.backspace	Key.backspace	n/a
193.192	0.072	386384	keystroke_b	b	n/a
193.32	0.1035	386640	keystroke_o	o	n/a
193.448	0.096	386896	keystroke_x	x	n/a
193.688	0.08	387376	keystroke_Key.enter	Key.enter	n/a
193.7775	4.568	387555	prompt	n/a	replaced joins against upgrading\n
194.2395	0.0485	388479	keystroke_b	b	n/a
194.527	0.0725	389054	keystroke_Key.backspace	Key.backspace	n/a
194.6155	0.112	389231	keystroke_r	r	n/a
194.6715	0.0965	389343	keystroke_e	e	n/a
194.744	0.0875	389488	keystroke_p	p	n/a
194.904	0.16	389808	keystroke_l	l	n/a
194.9995	0.08	389999	keystroke_a	a	n/a
195.0395	0.1365	390079	keystroke_c	c	n/a
195.152	0.08	390304	keystroke_e	e	n/a
195.312	0.111	390624	keystroke_d	d	n/a
195.376	0.088	390752	keystroke_Key.space	Key.space	n/a
195.536	0.072	391072	keystroke_j	j	n/a
195.544	0.176	391088	keystroke_o	o	n/a
195.656	0.104	391312	keystroke_i	i	n/a
195.928	0.128	391856	keystroke_n	n	n/a
196.088	0.096	392176	keystroke_s	s	n/a
196.143	0.08	392286	keystroke_Key.space	Key.space	n/a
196.495	0.0885	392990	keystroke_a	a	n/a
196.5995	0.12	393199	keystroke_g	g	n/a
196.688	0.0955	393376	keystroke_a	a	n/a
196.76	0.1035	393520	keystroke_i	i	n/a
196.8395	0.1285	393679	keystroke_n	n	n/a
196.8875	0.136	393775	keystroke_s	s	n/a
196.96	0.0875	393920	keystroke_t	t	n/a
197.0075	0.064	394015	keystroke_Key.space	Key.space	n/a
197.1515	0.144	394303	keystroke_u	u	n/a
197.2315	0.1045	394463	keystroke_p	p	n/a
197.455	0.08	394910	keystroke_g	g	n/a
197.623	0.097	395246	keystroke_r	r	n/a
197.664	0.096	395328	keystroke_a	a	n/a
197.816	0.136	395632	keystroke_d	d	n/a
197.9115	0.088	395823	keystroke_i	i	n/a
197.9675	0.1125	395935	keystroke_n	n	n/a
198.104	0.088	396208	keystroke_g	g	n/a
198.2635	0.0795	396527	keystroke_Key.enter	Key.enter	n/a
198.349	6.108	396698	prompt	n/a	dial reconstruction robertson exercises\n
198.839	0.072	397678	keystroke_d	d	n/a
198.9515	0.0875	397903	keystroke_i	i	n/a
199.031	0.113	398062	keystroke_a	a	n/a
199.16	0.103	398320	keystroke_l	l	n/a
199.223	0.104	398446	keystroke_Key.space	Key.space	n/a
199.384	0.104	398768	keystroke_r	r	n/a
199.4475	0.0875	398895	keystroke_e	e	n/a
199.6475	0.0875	399295	keystroke_c	c	n/a
199.7115	0.144	399423	keystroke_o	o	n/a
199.8	0.1115	399600	keystroke_n	n	n/a
199.9035	0.048	399807	keystroke_g	g	n/a
200.328	0.071	400656	keystroke_Key.backspace	Key.backspace	n/a
200.407	0.0885	400814	keystroke_s	s	n/a
200.463	0.081	400926	keystroke_t	t	n/a
200.8315	0.1045	401663	keystroke_r	r	n/a
200.9995	0.096	401999	keystroke_u	u	n/a
201.1435	0.096	402287	keystroke_c	c	n/a
201.368	0.111	402736	keystroke_t	t	n/a
201.44	0.12	402880	keystroke_i	i	n/a
201.456	0.184	402912	keystroke_o	o	n/a
201.535	0.144	403070	keystroke_n	n	n/a
201.647	0.072	403294	keystroke_Key.space	Key.space	n/a
201.8955	0.0645	403791	keystroke_r	r	n/a
201.9995	0.1445	403999	keystroke_o	o	n/a
202.0955	0.056	404191	keystroke_b	b	n/a
202.2395	0.144	404479	keystroke_e	e	n/a
202.3275	0.1035	404655	keystroke_r	r	n/a
202.511	0.1685	405022	keystroke_t	t	n/a
202.6715	0.12	405343	keystroke_s	s	n/a
202.7995	0.1445	405599	keystroke_o	o	n/a
202.8235	0.16	405647	keystroke_n	n	n/a
202.9115	0.104	405823	keystroke_Key.space	Key.space	n/a
203.0235	0.072	406047	keystroke_e	e	n/a
203.1835	0.104	406367	keystroke_x	x	n/a
203.336	0.1355	406672	keystroke_e	e	n/a
203.4395	0.08	406879	keystroke_r	r	n/a
203.6555	0.0885	407311	keystroke_c	c	n/a
203.7595	0.104	407519	keystroke_i	i	n/a
203.8715	0.104	407743	keystroke_s	s	n/a
204.1035	0.144	408207	keystroke_e	e	n/a
204.208	0.1035	408416	keystroke_s	s	n/a
204.3595	0.096	408719	keystroke_Key.enter	Key.enter	n/a
204.4605	6.9085	408921	prompt	n/a	stake isaac adolescent interference\n
204.9755	0.0965	409951	keystroke_s	s	n/a
205.0875	0.1275	410175	keystroke_k	k	n/a
205.4395	0.0555	410879	keystroke_Key.backspace	Key.backspace	n/a
205.512	0.1035	411024	keystroke_t	t	n/a
205.5755	0.056	411151	keystroke_a	a	n/a
205.7435	0.112	411487	keystroke_e	e	n/a
205.8155	0.088	411631	keystroke_Key.space	Key.space	n/a
206.0875	0.072	412175	keystroke_Key.backspace	Key.backspace	n/a
206.2155	0.08	412431	keystroke_Key.backspace	Key.backspace	n/a
206.4075	0.12	412815	keystroke_k	k	n/a
206.4795	0.096	412959	keystroke_e	e	n/a
206.5355	0.064	413071	keystroke_Key.space	Key.space	n/a
206.6715	0.104	413343	keystroke_i	i	n/a
206.7675	0.088	413535	keystroke_s	s	n/a
206.9755	0.048	413951	keystroke_a	a	n/a
207.0955	0.096	414191	keystroke_a	a	n/a
207.2395	0.136	414479	keystroke_c	c	n/a
207.3595	0.104	414719	keystroke_Key.space	Key.space	n/a
207.7825	0.0815	415565	keystroke_a	a	n/a
207.943	0.081	415886	keystroke_d	d	n/a
208.111	0.0485	416222	keystroke_o	o	n/a
208.255	0.0965	416510	keystroke_l	l	n/a
208.4315	0.0875	416863	keystroke_e	e	n/a
208.607	0.0805	417214	keystroke_s	s	n/a
208.751	0.08	417502	keystroke_c	c	n/a
208.8715	0.104	417743	keystroke_e	e	n/a
209.0235	0.144	418047	keystroke_n	n	n/a
209.168	0.128	418336	keystroke_t	t	n/a
209.3195	0.0395	418639	keystroke_Key.space	Key.space	n/a
209.4715	0.0645	418943	keystroke_i	i	n/a
209.583	0.1125	419166	keystroke_n	n	n/a
209.632	0.071	419264	keystroke_t	t	n/a
209.704	0.1115	419408	keystroke_e	e	n/a
209.8235	0.112	419647	keystroke_r	r	n/a
210.0715	0.064	420143	keystroke_e	e	n/a
210.543	0.072	421086	keystroke_Key.backspace	Key.backspace	n/a
210.6	0.063	421200	keystroke_f	f	n/a
210.695	0.08	421390	keystroke_e	e	n/a
210.7835	0.1115	421567	keystroke_r	r	n/a
210.864	0.08	421728	keystroke_e	e	n/a
210.9515	0.1115	421903	keystroke_n	n	n/a
211.0475	0.1035	422095	keystroke_c	c	n/a
211.111	0.08	422222	keystroke_e	e	n/a
211.279	0.088	422558	keystroke_Key.enter	Key.enter	n/a
211.374	5.7875	422748	prompt	n/a	looksmart warner catalogue chest\n
211.8955	0.072	423791	keystroke_l	l	n/a
212.0555	0.048	424111	keystroke_o	o	n/a
212.152	0.0715	424304	keystroke_o	o	n/a
212.3515	0.048	424703	keystroke_s	s	n/a
212.4315	0.056	424863	keystroke_k	k	n/a
212.679	0.064	425358	keystroke_Key.backspace	Key.backspace	n/a
212.815	0.0325	425630	keystroke_Key.backspace	Key.backspace	n/a
212.975	0.104	425950	keystroke_k	k	n/a
213.0875	0.0885	426175	keystroke_s	s	n/a
213.312	0.112	426624	keystroke_m	m	n/a
213.408	0.136	426816	keystroke_a	a	n/a
213.519	0.0965	427038	keystroke_r	r	n/a
213.664	0.128	427328	keystroke_t	t	n/a
213.76	0.0875	427520	keystroke_Key.space	Key.space	n/a
213.872	0.136	427744	keystroke_w	w	n/a
213.96	0.1435	427920	keystroke_a	a	n/a
214.056	0.0955	428112	keystroke_r	r	n/a
214.3275	0.16	428655	keystroke_n	n	n/a
214.4395	0.1355	428879	keystroke_e	e	n/a
214.4955	0.1035	428991	keystroke_r	r	n/a
214.559	0.0805	429118	keystroke_Key.space	Key.space	n/a
214.7675	0.095	429535	keystroke_c	c	n/a
214.815	0.1285	429630	keystroke_a	a	n/a
215.008	0.1115	430016	keystroke_t	t	n/a
215.111	0.04	430222	keystroke_e	e	n/a
215.5025	0.065	431005	keystroke_Key.backspace	Key.backspace	n/a
215.608	0.0715	431216	keystroke_a	a	n/a
215.7755	0.064	431551	keystroke_l	l	n/a
215.9195	0.104	431839	keystroke_o	o	n/a
216.0715	0.064	432143	keystroke_g	g	n/a
216.192	0.1435	432384	keystroke_u	u	n/a
216.2795	0.103	432559	keystroke_e	e	n/a
216.3505	0.0725	432701	keystroke_Key.space	Key.space	n/a
216.6075	0.08	433215	keystroke_c	c	n/a
216.6885	0.095	433377	keystroke_h	h	n/a
216.7595	0.1205	433519	keystroke_e	e	n/a
216.848	0.1195	433696	keystroke_s	s	n/a
216.935	0.089	433870	keystroke_t	t	n/a
217.071	0.088	434142	keystroke_Key.enter	Key.enter	n/a
217.166	3.019	434332	prompt	n/a	signed 'tis hero mere\n
217.775	0.0965	435550	keystroke_s	s	n/a
217.855	0.12	435710	keystroke_i	i	n/a
217.983	0.081	435966	keystroke_g	g	n/a
218.095	0.1445	436190	keystroke_n	n	n/a
218.167	0.056	436334	keystroke_e	e	n/a
218.303	0.08	436606	keystroke_d	d	n/a
218.351	0.072	436702	keystroke_Key.space	Key.space	n/a
218.5355	0.0955	437071	keystroke_'	'	n/a
218.8075	0.08	437615	keystroke_t	t	n/a
218.9105	0.129	437821	keystroke_i	i	n/a
219.0235	0.1285	438047	keystroke_s	s	n/a
219.0865	0.08	438173	keystroke_Key.space	Key.space	n/a
219.2315	0.103	438463	keystroke_h	h	n/a
219.3195	0.12	438639	keystroke_e	e	n/a
219.3915	0.136	438783	keystroke_r	r	n/a
219.4955	0.1115	438991	keystroke_o	o	n/a
219.567	0.088	439134	keystroke_Key.space	Key.space	n/a
219.727	0.1045	439454	keystroke_m	m	n/a
219.783	0.072	439566	keystroke_e	e	n/a
219.887	0.121	439774	keystroke_r	r	n/a
219.9435	0.0965	439887	keystroke_e	e	n/a
220.0955	0.088	440191	keystroke_Key.enter	Key.enter	n/a
220.1895	5.051	440379	prompt	n/a	ministries worldcat developing libs\n
220.791	0.0725	441582	keystroke_m	m	n/a
220.9435	0.056	441887	keystroke_i	i	n/a
221.0555	0.096	442111	keystroke_n	n	n/a
221.1435	0.0565	442287	keystroke_i	i	n/a
221.2315	0.104	442463	keystroke_s	s	n/a
221.3115	0.056	442623	keystroke_t	t	n/a
221.463	0.088	442926	keystroke_r	r	n/a
221.5915	0.144	443183	keystroke_i	i	n/a
221.6625	0.16	443325	keystroke_e	e	n/a
221.7425	0.105	443485	keystroke_s	s	n/a
221.8065	0.08	443613	keystroke_Key.space	Key.space	n/a
221.9515	0.1045	443903	keystroke_w	w	n/a
222.0475	0.0875	444095	keystroke_o	o	n/a
222.2075	0.08	444415	keystroke_r	r	n/a
222.3195	0.12	444639	keystroke_l	l	n/a
222.424	0.0795	444848	keystroke_d	d	n/a
222.6235	0.12	445247	keystroke_c	c	n/a
222.7275	0.1275	445455	keystroke_a	a	n/a
222.8715	0.1355	445743	keystroke_t	t	n/a
222.999	0.088	445998	keystroke_Key.space	Key.space	n/a
223.159	0.072	446318	keystroke_d	d	n/a
223.2875	0.0555	446575	keystroke_e	e	n/a
223.4395	0.0555	446879	keystroke_v	v	n/a
223.5355	0.0955	447071	keystroke_e	e	n/a
223.887	0.0645	447774	keystroke_l	l	n/a
224.048	0.087	448096	keystroke_o	o	n/a
224.191	0.096	448382	keystroke_p	p	n/a
224.343	0.056	448686	keystroke_i	i	n/a
224.423	0.1445	448846	keystroke_n	n	n/a
224.503	0.0805	449006	keystroke_g	g	n/a
224.5435	0.072	449087	keystroke_Key.space	Key.space	n/a
224.6795	0.072	449359	keystroke_l	l	n/a
224.7755	0.119	449551	keystroke_i	i	n/a
224.8785	0.081	449757	keystroke_b	b	n/a
224.967	0.1285	449934	keystroke_s	s	n/a
225.1435	0.096	450287	keystroke_Key.enter	Key.enter	n/a
225.244	4.901	450488	prompt	n/a	rocky okay massachusetts today\n
225.8715	0.064	451743	keystroke_r	r	n/a
225.9595	0.088	451919	keystroke_o	o	n/a
226.0715	0.12	452143	keystroke_c	c	n/a
226.1355	0.08	452271	keystroke_k	k	n/a
226.3355	0.103	452671	keystroke_y	y	n/a
226.415	0.0875	452830	keystroke_Key.space	Key.space	n/a
226.5345	0.089	453069	keystroke_o	o	n/a
226.8875	0.104	453775	keystroke_k	k	n/a
227.0305	0.104	454061	keystroke_a	a	n/a
227.1515	0.104	454303	keystroke_y	y	n/a
227.2065	0.0965	454413	keystroke_Key.space	Key.space	n/a
227.407	0.104	454814	keystroke_m	m	n/a
227.503	0.04	455006	keystroke_a	a	n/a
227.663	0.0805	455326	keystroke_s	s	n/a
227.7995	0.072	455599	keystroke_s	s	n/a
227.9595	0.08	455919	keystroke_a	a	n/a
228.0795	0.096	456159	keystroke_c	c	n/a
228.1995	0.056	456399	keystroke_h	h	n/a
228.3515	0.08	456703	keystroke_u	u	n/a
228.4475	0.08	456895	keystroke_s	s	n/a
228.6555	0.08	457311	keystroke_e	e	n/a
228.9195	0.048	457839	keystroke_t	t	n/a
229.0315	0.0795	458063	keystroke_t	t	n/a
229.167	0.104	458334	keystroke_s	s	n/a
229.223	0.0645	458446	keystroke_Key.space	Key.space	n/a
229.519	0.072	459038	keystroke_t	t	n/a
229.583	0.112	459166	keystroke_o	o	n/a
229.6795	0.1275	459359	keystroke_d	d	n/a
229.751	0.08	459502	keystroke_a	a	n/a
229.855	0.08	459710	keystroke_y	y	n/a
230.055	0.0885	460110	keystroke_Key.enter	Key.enter	n/a
230.15	7.483	460300	prompt	n/a	dynamics videos fundamental operational\n
230.831	0.104	461662	keystroke_d	d	n/a
230.967	0.072	461934	keystroke_y	y	n/a
231.151	0.088	462302	keystroke_n	n	n/a
231.263	0.08	462526	keystroke_a	a	n/a
231.3355	0.1915	462671	keystroke_m	m	n/a
231.4235	0.1045	462847	keystroke_i	i	n/a
231.4955	0.1275	462991	keystroke_c	c	n/a
232.0795	0.1675	464159	keystroke_s	s	n/a
232.1995	0.0955	464399	keystroke_Key.space	Key.space	n/a
232.567	0.064	465134	keystroke_v	v	n/a
232.663	0.1045	465326	keystroke_i	i	n/a
232.743	0.0725	465486	keystroke_d	d	n/a
232.903	0.08	465806	keystroke_e	e	n/a
233.015	0.152	466030	keystroke_o	o	n/a
233.079	0.1205	466158	keystroke_s	s	n/a
233.175	0.0645	466350	keystroke_Key.space	Key.space	n/a
233.399	0.0875	466798	keystroke_f	f	n/a
233.5185	0.065	467037	keystroke_u	u	n/a
233.6785	0.073	467357	keystroke_n	n	n/a
233.7355	0.1355	467471	keystroke_d	d	n/a
233.8385	0.104	467677	keystroke_a	a	n/a
233.8865	0.0885	467773	keystroke_m	m	n/a
234.0225	0.088	468045	keystroke_e	e	n/a
234.0875	0.096	468175	keystroke_n	n	n/a
234.207	0.136	468414	keystroke_t	t	n/a
234.271	0.1125	468542	keystroke_a	a	n/a
234.3755	0.112	468751	keystroke_l	l	n/a
234.4555	0.079	468911	keystroke_Key.space	Key.space	n/a
234.6155	0.111	469231	keystroke_o	o	n/a
234.743	0.1115	469486	keystroke_p	p	n/a
234.8475	0.136	469695	keystroke_e	e	n/a
234.8795	0.119	469759	keystroke_r	r	n/a
234.951	0.1275	469902	keystroke_a	a	n/a
235.0795	0.0955	470159	keystroke_t	t	n/a
235.1585	0.1605	470317	keystroke_o	o	n/a
235.167	0.056	470334	keystroke_i	i	n/a
235.2465	0.104	470493	keystroke_n	n	n/a
235.3515	0.072	470703	keystroke_a	a	n/a
235.519	0.072	471038	keystroke_l	l	n/a
236.223	0.04	472446	keystroke_Key.backspace	Key.backspace	n/a
236.335	0.032	472670	keystroke_Key.backspace	Key.backspace	n/a
236.423	0.048	472846	keystroke_Key.backspace	Key.backspace	n/a
236.527	0.072	473054	keystroke_Key.backspace	Key.backspace	n/a
236.823	0.056	473646	keystroke_Key.backspace	Key.backspace	n/a
237.015	0.1445	474030	keystroke_i	i	n/a
237.055	0.1525	474110	keystroke_o	o	n/a
237.1675	0.079	474335	keystroke_n	n	n/a
237.2635	0.088	474527	keystroke_a	a	n/a
237.3835	0.064	474767	keystroke_l	l	n/a
237.5435	0.088	475087	keystroke_Key.enter	Key.enter	n/a
237.6375	3.5885	475275	prompt	n/a	temp tourist florists giants\n
238.2155	0.112	476431	keystroke_t	t	n/a
238.2955	0.112	476591	keystroke_e	e	n/a
238.3755	0.1595	476751	keystroke_m	m	n/a
238.439	0.1195	476878	keystroke_p	p	n/a
238.527	0.0875	477054	keystroke_Key.space	Key.space	n/a
238.7745	0.081	477549	keystroke_t	t	n/a
238.8715	0.1275	477743	keystroke_o	o	n/a
238.9345	0.1205	477869	keystroke_u	u	n/a
239.0235	0.0715	478047	keystroke_r	r	n/a
239.2225	0.16	478445	keystroke_i	i	n/a
239.327	0.1275	478654	keystroke_s	s	n/a
239.3915	0.095	478783	keystroke_t	t	n/a
239.4625	0.088	478925	keystroke_Key.space	Key.space	n/a
239.6545	0.0805	479309	keystroke_f	f	n/a
239.7185	0.056	479437	keystroke_l	l	n/a
239.863	0.0965	479726	keystroke_o	o	n/a
239.967	0.088	479934	keystroke_r	r	n/a
240.079	0.1355	480158	keystroke_i	i	n/a
240.1505	0.096	480301	keystroke_s	s	n/a
240.2155	0.175	480431	keystroke_t	t	n/a
240.3275	0.1115	480655	keystroke_s	s	n/a
240.3915	0.071	480783	keystroke_Key.space	Key.space	n/a
240.511	0.0875	481022	keystroke_g	g	n/a
240.6145	0.096	481229	keystroke_i	i	n/a
240.695	0.1035	481390	keystroke_a	a	n/a
240.8065	0.105	481613	keystroke_n	n	n/a
240.8945	0.105	481789	keystroke_t	t	n/a
240.9345	0.1045	481869	keystroke_s	s	n/a
241.1425	0.08	482285	keystroke_Key.enter	Key.enter	n/a
241.23	3.7625	482460	prompt	n/a	sell jake humanitarian conf\n
241.791	0.0795	483582	keystroke_s	s	n/a
241.9425	0.081	483885	keystroke_e	e	n/a
242.0385	0.056	484077	keystroke_l	l	n/a
242.167	0.0715	484334	keystroke_l	l	n/a
242.2545	0.0645	484509	keystroke_Key.space	Key.space	n/a
242.3595	0.104	484719	keystroke_j	j	n/a
242.4795	0.0795	484959	keystroke_a	a	n/a
242.567	0.1275	485134	keystroke_k	k	n/a
242.6465	0.088	485293	keystroke_e	e	n/a
242.7025	0.0645	485405	keystroke_Key.space	Key.space	n/a
242.8545	0.0565	485709	keystroke_h	h	n/a
242.9985	0.0565	485997	keystroke_u	u	n/a
243.1665	0.0805	486333	keystroke_m	m	n/a
243.279	0.072	486558	keystroke_a	a	n/a
243.3355	0.071	486671	keystroke_n	n	n/a
243.4235	0.0955	486847	keystroke_i	i	n/a
243.5745	0.089	487149	keystroke_t	t	n/a
243.6385	0.105	487277	keystroke_a	a	n/a
243.7905	0.0965	487581	keystroke_r	r	n/a
243.927	0.0965	487854	keystroke_i	i	n/a
244.0305	0.0805	488061	keystroke_a	a	n/a
244.1345	0.12	488269	keystroke_n	n	n/a
244.2065	0.088	488413	keystroke_Key.space	Key.space	n/a
244.399	0.1285	488798	keystroke_c	c	n/a
244.463	0.128	488926	keystroke_o	o	n/a
244.5435	0.0715	489087	keystroke_n	n	n/a
244.687	0.096	489374	keystroke_f	f	n/a
244.903	0.088	489806	keystroke_Key.enter	Key.enter	n/a
244.9975	4.131	489995	prompt	n/a	faith vista edwards step\n
245.511	0.064	491022	keystroke_f	f	n/a
245.615	0.096	491230	keystroke_a	a	n/a
245.719	0.088	491438	keystroke_i	i	n/a
245.839	0.128	491678	keystroke_t	t	n/a
245.903	0.128	491806	keystroke_h	h	n/a
245.975	0.08	491950	keystroke_Key.space	Key.space	n/a
246.279	0.096	492558	keystroke_i	i	n/a
246.591	0.0475	493182	keystroke_Key.backspace	Key.backspace	n/a
246.6305	0.089	493261	keystroke_v	v	n/a
246.7825	0.1125	493565	keystroke_i	i	n/a
246.871	0.088	493742	keystroke_s	s	n/a
246.983	0.136	493966	keystroke_t	t	n/a
247.071	0.152	494142	keystroke_a	a	n/a
247.207	0.088	494414	keystroke_Key.space	Key.space	n/a
247.527	0.08	495054	keystroke_e	e	n/a
247.711	0.072	495422	keystroke_d	d	n/a
247.871	0.144	495742	keystroke_w	w	n/a
247.975	0.1285	495950	keystroke_a	a	n/a
248.079	0.0875	496158	keystroke_r	r	n/a
248.2715	0.151	496543	keystroke_d	d	n/a
248.343	0.136	496686	keystroke_s	s	n/a
248.439	0.088	496878	keystroke_Key.space	Key.space	n/a
248.567	0.096	497134	keystroke_s	s	n/a
248.679	0.095	497358	keystroke_t	t	n/a
248.727	0.104	497454	keystroke_e	e	n/a
248.855	0.064	497710	keystroke_p	p	n/a
249.023	0.104	498046	keystroke_Key.enter	Key.enter	n/a
249.132	4.6445	498264	prompt	n/a	awareness cell picked sympathy\n
249.759	0.072	499518	keystroke_a	a	n/a
249.8875	0.1115	499775	keystroke_w	w	n/a
249.991	0.0875	499982	keystroke_a	a	n/a
250.087	0.1275	500174	keystroke_r	r	n/a
250.175	0.104	500350	keystroke_e	e	n/a
250.343	0.104	500686	keystroke_n	n	n/a
250.463	0.056	500926	keystroke_e	e	n/a
250.599	0.08	501198	keystroke_s	s	n/a
250.7345	0.0965	501469	keystroke_s	s	n/a
251.2625	0.088	502525	keystroke_Key.space	Key.space	n/a
251.415	0.08	502830	keystroke_c	c	n/a
251.5505	0.088	503101	keystroke_e	e	n/a
251.6715	0.064	503343	keystroke_l	l	n/a
251.791	0.0875	503582	keystroke_l	l	n/a
251.8865	0.1045	503773	keystroke_Key.space	Key.space	n/a
251.991	0.0635	503982	keystroke_p	p	n/a
252.1105	0.064	504221	keystroke_i	i	n/a
252.191	0.08	504382	keystroke_c	c	n/a
252.287	0.152	504574	keystroke_k	k	n/a
252.359	0.0635	504718	keystroke_e	e	n/a
252.4945	0.0885	504989	keystroke_d	d	n/a
252.55	0.057	505100	keystroke_Key.space	Key.space	n/a
252.654	0.113	505308	keystroke_s	s	n/a
252.735	0.071	505470	keystroke_y	y	n/a
252.942	0.136	505884	keystroke_m	m	n/a
253.007	0.144	506014	keystroke_p	p	n/a
253.111	0.128	506222	keystroke_a	a	n/a
253.231	0.0955	506462	keystroke_t	t	n/a
253.3275	0.064	506655	keystroke_h	h	n/a
253.495	0.072	506990	keystroke_y	y	n/a
253.679	0.0955	507358	keystroke_Key.enter	Key.enter	n/a
253.784	4.3045	507568	prompt	n/a	divisions marine customs dietary\n
254.327	0.104	508654	keystroke_d	d	n/a
254.4315	0.0865	508863	keystroke_i	i	n/a
254.5425	0.0725	509085	keystroke_v	v	n/a
254.639	0.08	509278	keystroke_i	i	n/a
254.7265	0.08	509453	keystroke_s	s	n/a
254.8075	0.111	509615	keystroke_i	i	n/a
254.879	0.1195	509758	keystroke_o	o	n/a
254.927	0.12	509854	keystroke_n	n	n/a
255.0145	0.088	510029	keystroke_s	s	n/a
255.0545	0.088	510109	keystroke_Key.space	Key.space	n/a
255.207	0.1195	510414	keystroke_m	m	n/a
255.311	0.0955	510622	keystroke_a	a	n/a
255.3985	0.096	510797	keystroke_r	r	n/a
255.4955	0.087	510991	keystroke_i	i	n/a
255.5905	0.152	511181	keystroke_n	n	n/a
255.679	0.0955	511358	keystroke_e	e	n/a
255.7345	0.096	511469	keystroke_Key.space	Key.space	n/a
255.91	0.113	511820	keystroke_c	c	n/a
256.015	0.096	512030	keystroke_u	u	n/a
256.103	0.0715	512206	keystroke_s	s	n/a
256.191	0.0875	512382	keystroke_t	t	n/a
256.246	0.1685	512492	keystroke_o	o	n/a
256.335	0.1515	512670	keystroke_m	m	n/a
256.4465	0.1115	512893	keystroke_s	s	n/a
256.5185	0.0795	513037	keystroke_Key.space	Key.space	n/a
256.735	0.064	513470	keystroke_d	d	n/a
256.935	0.096	513870	keystroke_i	i	n/a
257.215	0.096	514430	keystroke_e	e	n/a
257.399	0.072	514798	keystroke_t	t	n/a
257.535	0.128	515070	keystroke_a	a	n/a
257.638	0.0965	515276	keystroke_r	r	n/a
257.7985	0.0805	515597	keystroke_y	y	n/a
257.9825	0.104	515965	keystroke_Key.enter	Key.enter	n/a
258.092	4.604	516184	prompt	n/a	blanket investigators early requested\n
258.6945	0.088	517389	keystroke_b	b	n/a
258.8305	0.112	517661	keystroke_l	l	n/a
258.9345	0.088	517869	keystroke_a	a	n/a
259.0065	0.136	518013	keystroke_n	n	n/a
259.0625	0.152	518125	keystroke_k	k	n/a
259.191	0.1435	518382	keystroke_e	e	n/a
259.3025	0.104	518605	keystroke_t	t	n/a
259.3745	0.088	518749	keystroke_Key.space	Key.space	n/a
259.5345	0.064	519069	keystroke_i	i	n/a
259.6625	0.1195	519325	keystroke_n	n	n/a
259.7185	0.0715	519437	keystroke_v	v	n/a
259.831	0.1435	519662	keystroke_e	e	n/a
259.9505	0.1115	519901	keystroke_s	s	n/a
260.0305	0.088	520061	keystroke_t	t	n/a
260.191	0.12	520382	keystroke_i	i	n/a
260.303	0.104	520606	keystroke_g	g	n/a
260.391	0.1275	520782	keystroke_a	a	n/a
260.5265	0.0795	521053	keystroke_t	t	n/a
260.646	0.129	521292	keystroke_o	o	n/a
260.735	0.1355	521470	keystroke_r	r	n/a
260.782	0.1285	521564	keystroke_s	s	n/a
260.8625	0.0795	521725	keystroke_Key.space	Key.space	n/a
261.0065	0.1755	522013	keystroke_e	e	n/a
261.086	0.113	522172	keystroke_a	a	n/a
261.166	0.1125	522332	keystroke_r	r	n/a
261.303	0.055	522606	keystroke_l	l	n/a
261.43	0.128	522860	keystroke_y	y	n/a
261.518	0.096	523036	keystroke_Key.space	Key.space	n/a
261.662	0.16	523324	keystroke_r	r	n/a
261.735	0.136	523470	keystroke_e	e	n/a
261.839	0.08	523678	keystroke_q	q	n/a
261.9665	0.1045	523933	keystroke_u	u	n/a
262.039	0.112	524078	keystroke_e	e	n/a
262.1265	0.128	524253	keystroke_s	s	n/a
262.2065	0.128	524413	keystroke_t	t	n/a
262.2785	0.088	524557	keystroke_e	e	n/a
262.4545	0.08	524909	keystroke_d	d	n/a
262.5985	0.0955	525197	keystroke_Key.enter	Key.enter	n/a
262.7005	4.6525	525401	prompt	n/a	arab dealtime varied flashers\n
263.206	0.0965	526412	keystroke_a	a	n/a
263.326	0.1045	526652	keystroke_r	r	n/a
263.4225	0.0965	526845	keystroke_a	a	n/a
263.566	0.1125	527132	keystroke_b	b	n/a
263.7185	0.112	527437	keystroke_Key.space	Key.space	n/a
263.8625	0.072	527725	keystroke_d	d	n/a
264.014	0.0965	528028	keystroke_e	e	n/a
264.0545	0.0885	528109	keystroke_a	a	n/a
264.1825	0.0805	528365	keystroke_l	l	n/a
264.3025	0.08	528605	keystroke_t	t	n/a
264.367	0.0555	528734	keystroke_i	i	n/a
264.5105	0.136	529021	keystroke_m	m	n/a
264.5745	0.08	529149	keystroke_e	e	n/a
264.6225	0.104	529245	keystroke_Key.space	Key.space	n/a
264.7825	0.064	529565	keystroke_v	v	n/a
264.823	0.104	529646	keystroke_a	a	n/a
264.9835	0.079	529967	keystroke_r	r	n/a
265.1105	0.144	530221	keystroke_i	i	n/a
265.191	0.0715	530382	keystroke_e	e	n/a
265.3425	0.088	530685	keystroke_d	d	n/a
265.4065	0.112	530813	keystroke_Key.space	Key.space	n/a
265.5345	0.104	531069	keystroke_f	f	n/a
265.6305	0.04	531261	keystroke_a	a	n/a
265.6945	0.112	531389	keystroke_l	l	n/a
266.142	0.064	532284	keystroke_Key.backspace	Key.backspace	n/a
266.2625	0.0635	532525	keystroke_Key.backspace	Key.backspace	n/a
266.4785	0.104	532957	keystroke_l	l	n/a
266.5985	0.08	533197	keystroke_a	a	n/a
266.7425	0.104	533485	keystroke_s	s	n/a
266.8705	0.104	533741	keystroke_h	h	n/a
266.9345	0.176	533869	keystroke_e	e	n/a
267.031	0.1435	534062	keystroke_r	r	n/a
267.1025	0.104	534205	keystroke_s	s	n/a
267.2785	0.0725	534557	keystroke_Key.enter	Key.enter	n/a
267.357	7.499	534714	prompt	n/a	continuously acid georgia opposition\n
267.847	0.032	535694	keystroke_a	a	n/a
267.966	0.097	535932	keystroke_c	c	n/a
268.23	0.152	536460	keystroke_Key.backspace	Key.backspace	n/a
268.5665	0.055	537133	keystroke_Key.backspace	Key.backspace	n/a
268.735	0.0955	537470	keystroke_c	c	n/a
268.9745	0.056	537949	keystroke_t	t	n/a
269.2705	0.056	538541	keystroke_Key.backspace	Key.backspace	n/a
269.4385	0.096	538877	keystroke_o	o	n/a
269.5665	0.096	539133	keystroke_n	n	n/a
269.7185	0.08	539437	keystroke_t	t	n/a
269.7905	0.0645	539581	keystroke_i	i	n/a
269.919	0.0555	539838	keystroke_n	n	n/a
270.0785	0.1045	540157	keystroke_u	u	n/a
270.3025	0.128	540605	keystroke_o	o	n/a
270.431	0.095	540862	keystroke_u	u	n/a
270.5745	0.0965	541149	keystroke_s	s	n/a
270.6785	0.072	541357	keystroke_l	l	n/a
270.8305	0.12	541661	keystroke_y	y	n/a
270.926	0.0965	541852	keystroke_Key.space	Key.space	n/a
271.5505	0.1275	543101	keystroke_a	a	n/a
271.662	0.088	543324	keystroke_c	c	n/a
271.7825	0.136	543565	keystroke_i	i	n/a
271.854	0.104	543708	keystroke_d	d	n/a
271.9665	0.0715	543933	keystroke_Key.space	Key.space	n/a
272.0785	0.0475	544157	keystroke_g	g	n/a
272.1825	0.1035	544365	keystroke_e	e	n/a
272.3425	0.12	544685	keystroke_o	o	n/a
272.4305	0.064	544861	keystroke_r	r	n/a
272.598	0.096	545196	keystroke_g	g	n/a
272.703	0.1515	545406	keystroke_i	i	n/a
272.8225	0.112	545645	keystroke_a	a	n/a
272.8865	0.088	545773	keystroke_Key.space	Key.space	n/a
273.0225	0.072	546045	keystroke_o	o	n/a
273.1825	0.2005	546365	keystroke_p	p	n/a
273.4785	0.056	546957	keystroke_p	p	n/a
273.7665	0.104	547533	keystroke_o	o	n/a
273.959	0.0795	547918	keystroke_s	s	n/a
274.103	0.088	548206	keystroke_i	i	n/a
274.311	0.071	548622	keystroke_t	t	n/a
274.399	0.135	548798	keystroke_i	i	n/a
274.454	0.112	548908	keystroke_o	o	n/a
274.51	0.081	549020	keystroke_n	n	n/a
274.774	0.08	549548	keystroke_Key.enter	Key.enter	n/a
274.861	5.611	549722	prompt	n/a	czech probe ranch skirt\n
276.343	0.087	552686	keystroke_v	v	n/a
276.758	0.064	553516	keystroke_Key.backspace	Key.backspace	n/a
276.8385	0.0805	553677	keystroke_c	c	n/a
277.046	0.08	554092	keystroke_z	z	n/a
277.23	0.049	554460	keystroke_z	z	n/a
277.638	0.057	555276	keystroke_Key.backspace	Key.backspace	n/a
277.686	0.072	555372	keystroke_e	e	n/a
277.8305	0.1035	555661	keystroke_c	c	n/a
277.9505	0.12	555901	keystroke_h	h	n/a
278.022	0.0805	556044	keystroke_Key.space	Key.space	n/a
278.1425	0.104	556285	keystroke_p	p	n/a
278.2545	0.064	556509	keystroke_r	r	n/a
278.503	0.0875	557006	keystroke_o	o	n/a
278.6785	0.056	557357	keystroke_b	b	n/a
278.8305	0.104	557661	keystroke_e	e	n/a
278.8945	0.088	557789	keystroke_Key.space	Key.space	n/a
279.078	0.0645	558156	keystroke_r	r	n/a
279.1745	0.08	558349	keystroke_a	a	n/a
279.3665	0.088	558733	keystroke_n	n	n/a
279.4625	0.096	558925	keystroke_c	c	n/a
279.5825	0.112	559165	keystroke_h	h	n/a
279.6545	0.104	559309	keystroke_Key.space	Key.space	n/a
279.7985	0.08	559597	keystroke_s	s	n/a
279.8705	0.0635	559741	keystroke_k	k	n/a
280.0145	0.08	560029	keystroke_i	i	n/a
280.0865	0.0805	560173	keystroke_r	r	n/a
280.246	0.056	560492	keystroke_t	t	n/a
280.39	0.0805	560780	keystroke_Key.enter	Key.enter	n/a
280.4765	4.819	560953	prompt	n/a	blanket dates distributors launch\n
281.0375	0.073	562075	keystroke_b	b	n/a
281.1505	0.088	562301	keystroke_l	l	n/a
281.2545	0.064	562509	keystroke_a	a	n/a
281.2945	0.1595	562589	keystroke_n	n	n/a
281.3665	0.1525	562733	keystroke_k	k	n/a
281.4545	0.128	562909	keystroke_e	e	n/a
281.5505	0.088	563101	keystroke_t	t	n/a
281.6065	0.088	563213	keystroke_Key.space	Key.space	n/a
281.7825	0.136	563565	keystroke_d	d	n/a
281.9185	0.1035	563837	keystroke_a	a	n/a
282.006	0.184	564012	keystroke_t	t	n/a
282.078	0.16	564156	keystroke_e	e	n/a
282.1585	0.1195	564317	keystroke_s	s	n/a
282.206	0.0965	564412	keystroke_Key.space	Key.space	n/a
282.4225	0.096	564845	keystroke_d	d	n/a
282.55	0.104	565100	keystroke_i	i	n/a
282.623	0.1035	565246	keystroke_s	s	n/a
282.702	0.064	565404	keystroke_t	t	n/a
282.862	0.081	565724	keystroke_r	r	n/a
282.943	0.0955	565886	keystroke_i	i	n/a
283.102	0.04	566204	keystroke_b	b	n/a
283.486	0.088	566972	keystroke_u	u	n/a
283.694	0.08	567388	keystroke_t	t	n/a
283.8385	0.12	567677	keystroke_o	o	n/a
283.9665	0.2	567933	keystroke_r	r	n/a
284.0705	0.144	568141	keystroke_s	s	n/a
284.1575	0.089	568315	keystroke_Key.space	Key.space	n/a
284.4145	0.088	568829	keystroke_l	l	n/a
284.5105	0.0635	569021	keystroke_a	a	n/a
284.622	0.048	569244	keystroke_u	u	n/a
284.814	0.072	569628	keystroke_n	n	n/a
284.942	0.0565	569884	keystroke_c	c	n/a
285.014	0.0645	570028	keystroke_h	h	n/a
285.2545	0.0395	570509	keystroke_Key.enter	Key.enter	n/a
285.2995	6.4925	570599	prompt	n/a	optimize lighter groundwater philip\n
286.1665	0.08	572333	keystroke_o	o	n/a
286.318	0.1045	572636	keystroke_p	p	n/a
286.6705	0.08	573341	keystroke_i	i	n/a
286.9825	0.064	573965	keystroke_Key.backspace	Key.backspace	n/a
287.0945	0.072	574189	keystroke_t	t	n/a
287.1745	0.064	574349	keystroke_i	i	n/a
287.3105	0.088	574621	keystroke_m	m	n/a
287.4545	0.112	574909	keystroke_i	i	n/a
287.5665	0.12	575133	keystroke_z	z	n/a
287.6695	0.161	575339	keystroke_e	e	n/a
287.7665	0.08	575533	keystroke_Key.space	Key.space	n/a
287.8785	0.056	575757	keystroke_l	l	n/a
287.9665	0.088	575933	keystroke_i	i	n/a
288.0705	0.088	576141	keystroke_g	g	n/a
288.1585	0.144	576317	keystroke_h	h	n/a
288.2625	0.088	576525	keystroke_t	t	n/a
288.3745	0.176	576749	keystroke_e	e	n/a
288.47	0.0885	576940	keystroke_r	r	n/a
288.51	0.0795	577020	keystroke_Key.space	Key.space	n/a
288.6625	0.056	577325	keystroke_g	g	n/a
288.7985	0.104	577597	keystroke_r	r	n/a
288.8945	0.087	577789	keystroke_o	o	n/a
288.935	0.0715	577870	keystroke_u	u	n/a
289.11	0.1285	578220	keystroke_n	n	n/a
289.174	0.088	578348	keystroke_d	d	n/a
289.35	0.144	578700	keystroke_w	w	n/a
289.4625	0.112	578925	keystroke_a	a	n/a
289.542	0.0885	579084	keystroke_t	t	n/a
289.662	0.16	579324	keystroke_e	e	n/a
289.742	0.112	579484	keystroke_r	r	n/a
289.79	0.088	579580	keystroke_Key.space	Key.space	n/a
289.926	0.104	579852	keystroke_p	p	n/a
290.0945	0.136	580189	keystroke_h	h	n/a
290.166	0.0885	580332	keystroke_i	i	n/a
290.9825	0.136	581965	keystroke_l	l	n/a
291.214	0.0965	582428	keystroke_i	i	n/a
291.446	0.088	582892	keystroke_p	p	n/a
291.686	0.1035	583372	keystroke_Key.enter	Key.enter	n/a
291.796	5.0035	583592	prompt	n/a	gender attending kirk moms\n
292.4545	0.0635	584909	keystroke_g	g	n/a
292.5575	0.089	585115	keystroke_e	e	n/a
292.6785	0.112	585357	keystroke_n	n	n/a
292.7505	0.08	585501	keystroke_d	d	n/a
292.9265	0.128	585853	keystroke_e	e	n/a
292.9505	0.128	585901	keystroke_r	r	n/a
293.0385	0.071	586077	keystroke_Key.space	Key.space	n/a
293.1335	0.104	586267	keystroke_a	a	n/a
293.3415	0.049	586683	keystroke_t	t	n/a
293.4785	0.072	586957	keystroke_t	t	n/a
293.598	0.1045	587196	keystroke_e	e	n/a
293.7425	0.079	587485	keystroke_n	n	n/a
293.8705	0.0875	587741	keystroke_d	d	n/a
293.9585	0.0635	587917	keystroke_i	i	n/a
294.0625	0.1035	588125	keystroke_n	n	n/a
294.118	0.0795	588236	keystroke_g	g	n/a
294.1665	0.0715	588333	keystroke_Key.space	Key.space	n/a
294.286	0.048	588572	keystroke_k	k	n/a
294.4135	0.097	588827	keystroke_i	i	n/a
294.4775	0.0725	588955	keystroke_r	r	n/a
294.662	0.08	589324	keystroke_b	b	n/a
294.75	0.112	589500	keystroke_k	k	n/a
295.0695	0.064	590139	keystroke_Key.backspace	Key.backspace	n/a
295.254	0.0475	590508	keystroke_Key.backspace	Key.backspace	n/a
295.43	0.12	590860	keystroke_k	k	n/a
295.702	0.0885	591404	keystroke_m	m	n/a
296.094	0.0555	592188	keystroke_Key.backspace	Key.backspace	n/a
296.1505	0.079	592301	keystroke_Key.space	Key.space	n/a
296.2625	0.087	592525	keystroke_m	m	n/a
296.3255	0.145	592651	keystroke_o	o	n/a
296.438	0.0635	592876	keystroke_m	m	n/a
296.5815	0.0725	593163	keystroke_s	s	n/a
296.7175	0.0805	593435	keystroke_Key.enter	Key.enter	n/a
296.8035	5.542	593607	prompt	n/a	williams compensation promptly inform\n
297.382	0.096	594764	keystroke_w	w	n/a
297.4865	0.0475	594973	keystroke_i	i	n/a
297.622	0.056	595244	keystroke_l	l	n/a
297.726	0.064	595452	keystroke_l	l	n/a
297.8785	0.0715	595757	keystroke_i	i	n/a
298.014	0.08	596028	keystroke_a	a	n/a
298.078	0.144	596156	keystroke_m	m	n/a
298.2385	0.1115	596477	keystroke_s	s	n/a
298.31	0.088	596620	keystroke_Key.space	Key.space	n/a
298.43	0.096	596860	keystroke_c	c	n/a
298.502	0.088	597004	keystroke_o	o	n/a
298.6215	0.112	597243	keystroke_m	m	n/a
298.654	0.1285	597308	keystroke_p	p	n/a
298.766	0.1125	597532	keystroke_e	e	n/a
298.8935	0.1205	597787	keystroke_n	n	n/a
299.0375	0.12	598075	keystroke_s	s	n/a
299.214	0.144	598428	keystroke_a	a	n/a
299.342	0.104	598684	keystroke_t	t	n/a
299.4215	0.1285	598843	keystroke_i	i	n/a
299.4695	0.112	598939	keystroke_o	o	n/a
299.5015	0.12	599003	keystroke_n	n	n/a
299.5815	0.0885	599163	keystroke_Key.space	Key.space	n/a
299.7345	0.0795	599469	keystroke_o	o	n/a
300.0705	0.047	600141	keystroke_Key.backspace	Key.backspace	n/a
300.2625	0.103	600525	keystroke_p	p	n/a
300.3745	0.1035	600749	keystroke_r	r	n/a
300.4545	0.072	600909	keystroke_o	o	n/a
300.582	0.1285	601164	keystroke_m	m	n/a
300.6625	0.1275	601325	keystroke_p	p	n/a
300.854	0.0875	601708	keystroke_t	t	n/a
301.0865	0.063	602173	keystroke_l	l	n/a
301.286	0.112	602572	keystroke_y	y	n/a
301.366	0.104	602732	keystroke_Key.space	Key.space	n/a
301.582	0.072	603164	keystroke_i	i	n/a
301.718	0.088	603436	keystroke_n	n	n/a
301.814	0.056	603628	keystroke_f	f	n/a
301.878	0.104	603756	keystroke_o	o	n/a
302.006	0.0715	604012	keystroke_r	r	n/a
302.054	0.0725	604108	keystroke_m	m	n/a
302.254	0.0885	604508	keystroke_Key.enter	Key.enter	n/a
302.349	5.3465	604698	prompt	n/a	please walls you'd challenges\n
302.9015	0.089	605803	keystroke_p	p	n/a
303.0625	0.159	606125	keystroke_l	l	n/a
303.1345	0.079	606269	keystroke_e	e	n/a
303.19	0.1685	606380	keystroke_a	a	n/a
303.2455	0.1525	606491	keystroke_s	s	n/a
303.334	0.1125	606668	keystroke_e	e	n/a
303.4535	0.064	606907	keystroke_Key.space	Key.space	n/a
303.5425	0.0955	607085	keystroke_w	w	n/a
303.7095	0.0565	607419	keystroke_l	l	n/a
304.014	0.0635	608028	keystroke_Key.backspace	Key.backspace	n/a
304.1105	0.095	608221	keystroke_a	a	n/a
304.2305	0.0555	608461	keystroke_l	l	n/a
304.3345	0.08	608669	keystroke_l	l	n/a
304.446	0.1365	608892	keystroke_s	s	n/a
304.5095	0.12	609019	keystroke_Key.space	Key.space	n/a
304.8305	0.071	609661	keystroke_y	y	n/a
304.9095	0.1365	609819	keystroke_o	o	n/a
304.998	0.104	609996	keystroke_u	u	n/a
305.2225	0.111	610445	keystroke_'	'	n/a
305.3505	0.1275	610701	keystroke_d	d	n/a
305.43	0.12	610860	keystroke_Key.space	Key.space	n/a
305.942	0.088	611884	keystroke_c	c	n/a
306.07	0.072	612140	keystroke_h	h	n/a
306.094	0.072	612188	keystroke_a	a	n/a
306.4775	0.0565	612955	keystroke_Key.backspace	Key.backspace	n/a
306.798	0.088	613596	keystroke_a	a	n/a
306.902	0.048	613804	keystroke_l	l	n/a
307.022	0.08	614044	keystroke_l	l	n/a
307.11	0.096	614220	keystroke_e	e	n/a
307.198	0.12	614396	keystroke_n	n	n/a
307.302	0.1685	614604	keystroke_g	g	n/a
307.366	0.152	614732	keystroke_e	e	n/a
307.4545	0.0955	614909	keystroke_s	s	n/a
307.622	0.0725	615244	keystroke_Key.enter	Key.enter	n/a
307.7	5.8675	615400	prompt	n/a	tactics operations logistics lexington\n
308.2945	0.119	616589	keystroke_t	t	n/a
308.3735	0.1045	616747	keystroke_a	a	n/a
308.598	0.136	617196	keystroke_c	c	n/a
308.854	0.08	617708	keystroke_t	t	n/a
308.982	0.128	617964	keystroke_i	i	n/a
309.1185	0.16	618237	keystroke_c	c	n/a
309.2065	0.1105	618413	keystroke_s	s	n/a
309.2785	0.0705	618557	keystroke_Key.space	Key.space	n/a
309.4305	0.095	618861	keystroke_o	o	n/a
309.582	0.1205	619164	keystroke_p	p	n/a
309.6935	0.1525	619387	keystroke_e	e	n/a
309.766	0.136	619532	keystroke_r	r	n/a
309.838	0.144	619676	keystroke_a	a	n/a
309.974	0.128	619948	keystroke_t	t	n/a
310.094	0.12	620188	keystroke_i	i	n/a
310.1105	0.1915	620221	keystroke_o	o	n/a
310.182	0.168	620364	keystroke_n	n	n/a
310.31	0.08	620620	keystroke_s	s	n/a
310.334	0.096	620668	keystroke_Key.space	Key.space	n/a
310.534	0.0475	621068	keystroke_l	l	n/a
310.654	0.0955	621308	keystroke_o	o	n/a
310.758	0.08	621516	keystroke_g	g	n/a
310.854	0.1115	621708	keystroke_i	i	n/a
310.958	0.1125	621916	keystroke_s	s	n/a
311.0375	0.096	622075	keystroke_t	t	n/a
311.1415	0.144	622283	keystroke_i	i	n/a
311.302	0.1435	622604	keystroke_c	c	n/a
311.406	0.12	622812	keystroke_s	s	n/a
311.517	0.121	623034	keystroke_Key.space	Key.space	n/a
311.766	0.12	623532	keystroke_l	l	n/a
311.846	0.072	623692	keystroke_e	e	n/a
312.126	0.104	624252	keystroke_x	x	n/a
312.31	0.096	624620	keystroke_i	i	n/a
312.6295	0.096	625259	keystroke_n	n	n/a
312.9105	0.071	625821	keystroke_g	g	n/a
313.1095	0.089	626219	keystroke_t	t	n/a
313.1895	0.129	626379	keystroke_o	o	n/a
313.262	0.0805	626524	keystroke_n	n	n/a
313.4695	0.0955	626939	keystroke_Key.enter	Key.enter	n/a
313.5715	5.789	627143	prompt	n/a	sentences accessories valves headers\n
314.158	0.0795	628316	keystroke_s	s	n/a
314.2855	0.112	628571	keystroke_e	e	n/a
314.4055	0.0805	628811	keystroke_n	n	n/a
314.5015	0.0725	629003	keystroke_t	t	n/a
314.55	0.104	629100	keystroke_e	e	n/a
314.6705	0.1435	629341	keystroke_n	n	n/a
314.766	0.128	629532	keystroke_c	c	n/a
314.854	0.128	629708	keystroke_e	e	n/a
314.9175	0.12	629835	keystroke_s	s	n/a
314.958	0.112	629916	keystroke_Key.space	Key.space	n/a
315.262	0.12	630524	keystroke_a	a	n/a
315.5495	0.0805	631099	keystroke_c	c	n/a
315.75	0.096	631500	keystroke_c	c	n/a
316.03	0.0555	632060	keystroke_e	e	n/a
316.1975	0.0725	632395	keystroke_s	s	n/a
316.334	0.0795	632668	keystroke_s	s	n/a
316.501	0.105	633002	keystroke_o	o	n/a
316.653	0.065	633306	keystroke_r	r	n/a
316.7335	0.1205	633467	keystroke_i	i	n/a
316.846	0.159	633692	keystroke_e	e	n/a
316.925	0.097	633850	keystroke_s	s	n/a
316.989	0.08	633978	keystroke_Key.space	Key.space	n/a
317.2375	0.1115	634475	keystroke_v	v	n/a
317.293	0.0885	634586	keystroke_a	a	n/a
317.5175	0.0725	635035	keystroke_l	l	n/a
317.8055	0.0965	635611	keystroke_v	v	n/a
318.014	0.104	636028	keystroke_e	e	n/a
318.2455	0.136	636491	keystroke_s	s	n/a
318.3735	0.048	636747	keystroke_Key.space	Key.space	n/a
318.5175	0.1125	637035	keystroke_h	h	n/a
318.582	0.095	637164	keystroke_e	e	n/a
318.662	0.0715	637324	keystroke_a	a	n/a
318.7815	0.0805	637563	keystroke_d	d	n/a
318.9335	0.1845	637867	keystroke_e	e	n/a
319.0065	0.1355	638013	keystroke_r	r	n/a
319.078	0.104	638156	keystroke_s	s	n/a
319.254	0.103	638508	keystroke_Key.enter	Key.enter	n/a
319.367	4.8885	638734	prompt	n/a	staying mailing strict casinos\n
319.83	0.1045	639660	keystroke_s	s	n/a
319.998	0.096	639996	keystroke_t	t	n/a
320.054	0.08	640108	keystroke_a	a	n/a
320.182	0.1045	640364	keystroke_y	y	n/a
320.246	0.08	640492	keystroke_i	i	n/a
320.4055	0.1125	640811	keystroke_n	n	n/a
320.47	0.0955	640940	keystroke_g	g	n/a
320.5015	0.08	641003	keystroke_Key.space	Key.space	n/a
320.6535	0.0885	641307	keystroke_m	m	n/a
320.7735	0.064	641547	keystroke_a	a	n/a
320.9415	0.0645	641883	keystroke_i	i	n/a
321.11	0.0635	642220	keystroke_l	l	n/a
321.2455	0.056	642491	keystroke_i	i	n/a
321.3415	0.128	642683	keystroke_n	n	n/a
321.422	0.0715	642844	keystroke_g	g	n/a
321.4455	0.104	642891	keystroke_Key.space	Key.space	n/a
321.718	0.0635	643436	keystroke_t	t	n/a
322.0935	0.0885	644187	keystroke_Key.backspace	Key.backspace	n/a
322.1575	0.0725	644315	keystroke_s	s	n/a
322.1825	0.079	644365	keystroke_t	t	n/a
322.35	0.0955	644700	keystroke_r	r	n/a
322.4695	0.0965	644939	keystroke_i	i	n/a
322.614	0.08	645228	keystroke_c	c	n/a
322.806	0.096	645612	keystroke_t	t	n/a
322.862	0.112	645724	keystroke_Key.space	Key.space	n/a
323.134	0.1515	646268	keystroke_c	c	n/a
323.2375	0.104	646475	keystroke_a	a	n/a
323.366	0.104	646732	keystroke_s	s	n/a
323.5015	0.088	647003	keystroke_i	i	n/a
323.6135	0.1765	647227	keystroke_n	n	n/a
323.7335	0.104	647467	keystroke_o	o	n/a
323.9495	0.096	647899	keystroke_s	s	n/a
324.158	0.095	648316	keystroke_Key.enter	Key.enter	n/a
324.259	4.6845	648518	prompt	n/a	mustn't saves collaborative arms\n
