onset	duration	sample	value	key	prompt_text
4.918	8.7845	9836	prompt	n/a	the quick brown fox jumps over a lazy dog\n
7.1315	0.029	14263	keystroke_t	t	n/a
7.1905	0.1045	14381	keystroke_h	h	n/a
7.2505	0.1195	14501	keystroke_e	e	n/a
7.355	0.09	14710	keystroke_Key.space	Key.space	n/a
7.475	0.1205	14950	keystroke_q	q	n/a
7.5795	0.105	15159	keystroke_u	u	n/a
7.6395	0.121	15279	keystroke_i	i	n/a
7.775	0.135	15550	keystroke_c	c	n/a
7.865	0.105	15730	keystroke_k	k	n/a
7.955	0.105	15910	keystroke_Key.space	Key.space	n/a
8.15	0.0755	16300	keystroke_b	b	n/a
8.3295	0.0905	16659	keystroke_r	r	n/a
8.435	0.09	16870	keystroke_o	o	n/a
8.54	0.09	17080	keystroke_w	w	n/a
8.645	0.105	17290	keystroke_n	n	n/a
8.735	0.075	17470	keystroke_Key.space	Key.space	n/a
8.885	0.09	17770	keystroke_f	f	n/a
8.99	0.09	17980	keystroke_o	o	n/a
9.095	0.12	18190	keystroke_x	x	n/a
9.17	0.105	18340	keystroke_Key.space	Key.space	n/a
9.395	0.105	18790	keystroke_j	j	n/a
9.59	0.075	19180	keystroke_u	u	n/a
9.815	0.03	19630	keystroke_m	m	n/a
9.83	0.03	19660	keystroke_j	j	n/a
9.846	0.134	19692	keystroke_p	p	n/a
9.95	0.135	19900	keystroke_s	s	n/a
10.04	0.105	20080	keystroke_Key.space	Key.space	n/a
10.49	0.06	20980	keystroke_Key.backspace	Key.backspace	n/a
10.64	0.06	21280	keystroke_Key.backspace	Key.backspace	n/a
10.79	0.045	21580	keystroke_Key.backspace	Key.backspace	n/a
10.91	0.075	21820	keystroke_Key.backspace	Key.backspace	n/a
11.225	0.12	22450	keystroke_p	p	n/a
11.39	0.12	22780	keystroke_s	s	n/a
11.495	0.075	22990	keystroke_Key.space	Key.space	n/a
11.705	0.09	23410	keystroke_o	o	n/a
11.81	0.105	23620	keystroke_v	v	n/a
11.975	0.09	23950	keystroke_e	e	n/a
12.035	0.12	24070	keystroke_r	r	n/a
12.095	0.045	24190	keystroke_Key.space	Key.space	n/a
12.185	0.165	24370	keystroke_a	a	n/a
12.29	0.105	24580	keystroke_Key.space	Key.space	n/a
12.515	0.09	25030	keystroke_l	l	n/a
12.62	0.09	25240	keystroke_a	a	n/a
12.815	0.12	25630	keystroke_z	z	n/a
12.95	0.09	25900	keystroke_y	y	n/a
13.055	0.075	26110	keystroke_Key.space	Key.space	n/a
13.19	0.105	26380	keystroke_d	d	n/a
13.28	0.105	26560	keystroke_o	o	n/a
13.386	0.074	26772	keystroke_g	g	n/a
13.625	0.075	27250	keystroke_Key.enter	Key.enter	n/a
13.7065	7.3005	27413	prompt	n/a	lucia dispatched writer eddie\n
14.435	0.09	28870	keystroke_l	l	n/a
14.555	0.0755	29110	keystroke_u	u	n/a
14.6605	0.105	29321	keystroke_c	c	n/a
14.7505	0.105	29501	keystroke_i	i	n/a
14.8705	0.165	29741	keystroke_a	a	n/a
14.9905	0.105	29981	keystroke_Key.space	Key.space	n/a
15.1855	0.06	30371	keystroke_d	d	n/a
15.2605	0.105	30521	keystroke_i	i	n/a
15.3805	0.105	30761	keystroke_s	s	n/a
15.5155	0.105	31031	keystroke_p	p	n/a
15.6355	0.12	31271	keystroke_a	a	n/a
15.7255	0.105	31451	keystroke_t	t	n/a
15.8455	0.09	31691	keystroke_h	h	n/a
16.0855	0.12	32171	keystroke_c	c	n/a
16.745	0.075	33490	keystroke_Key.backspace	Key.backspace	n/a
16.94	0.09	33880	keystroke_Key.backspace	Key.backspace	n/a
17.585	0.12	35170	keystroke_c	c	n/a
17.72	0.09	35440	keystroke_h	h	n/a
17.825	0.075	35650	keystroke_e	e	n/a
17.9755	0.135	35951	keystroke_d	d	n/a
18.0955	0.0895	36191	keystroke_Key.space	Key.space	n/a
18.3205	0.15	36641	keystroke_w	w	n/a
18.4555	0.12	36911	keystroke_r	r	n/a
18.845	0.09	37690	keystroke_i	i	n/a
19.07	0.075	38140	keystroke_t	t	n/a
19.205	0.105	38410	keystroke_e	e	n/a
19.265	0.135	38530	keystroke_r	r	n/a
19.355	0.09	38710	keystroke_Key.space	Key.space	n/a
19.61	0.09	39220	keystroke_d	d	n/a
19.94	0.075	39880	keystroke_Key.backspace	Key.backspace	n/a
20.06	0.06	40120	keystroke_e	e	n/a
20.21	0.06	40420	keystroke_d	d	n/a
20.36	0.06	40720	keystroke_d	d	n/a
20.435	0.09	40870	keystroke_i	i	n/a
20.54	0.0755	41080	keystroke_e	e	n/a
20.9155	0.09	41831	keystroke_Key.enter	Key.enter	n/a
21.0105	5.3365	42021	prompt	n/a	tradition weights watching dollar\n
21.77	0.06	43540	keystroke_t	t	n/a
21.92	0.105	43840	keystroke_r	r	n/a
22.01	0.105	44020	keystroke_a	a	n/a
22.19	0.105	44380	keystroke_d	d	n/a
22.325	0.09	44650	keystroke_i	i	n/a
22.46	0.075	44920	keystroke_t	t	n/a
22.565	0.2255	45130	keystroke_i	i	n/a
22.685	0.1205	45370	keystroke_o	o	n/a
22.7755	0.12	45551	keystroke_n	n	n/a
22.8805	0.09	45761	keystroke_Key.space	Key.space	n/a
23.0755	0.09	46151	keystroke_w	w	n/a
23.1505	0.1195	46301	keystroke_e	e	n/a
23.3305	0.1045	46661	keystroke_i	i	n/a
23.465	0.105	46930	keystroke_g	g	n/a
23.63	0.09	47260	keystroke_h	h	n/a
23.735	0.0605	47470	keystroke_t	t	n/a
23.9305	0.1195	47861	keystroke_s	s	n/a
24.05	0.09	48100	keystroke_Key.space	Key.space	n/a
24.41	0.09	48820	keystroke_w	w	n/a
24.485	0.1505	48970	keystroke_a	a	n/a
24.591	0.0895	49182	keystroke_t	t	n/a
24.815	0.105	49630	keystroke_c	c	n/a
24.935	0.09	49870	keystroke_h	h	n/a
25.01	0.135	50020	keystroke_i	i	n/a
25.1	0.165	50200	keystroke_n	n	n/a
25.175	0.12	50350	keystroke_g	g	n/a
25.28	0.075	50560	keystroke_Key.space	Key.space	n/a
25.43	0.09	50860	keystroke_d	d	n/a
25.505	0.075	51010	keystroke_o	o	n/a
25.685	0.045	51370	keystroke_l	l	n/a
25.79	0.09	51580	keystroke_l	l	n/a
25.865	0.15	51730	keystroke_a	a	n/a
25.956	0.104	51912	keystroke_r	r	n/a
26.255	0.09	52510	keystroke_Key.enter	Key.enter	n/a
26.35	9.672	52700	prompt	n/a	nudist stories wikipedia essence\n
27.006	0.09	54012	keystroke_n	n	n/a
27.17	0.075	54340	keystroke_u	u	n/a
27.306	0.09	54612	keystroke_d	d	n/a
27.455	0.105	54910	keystroke_i	i	n/a
27.605	0.12	55210	keystroke_s	s	n/a
27.785	0.091	55570	keystroke_t	t	n/a
27.9195	0.076	55839	keystroke_Key.space	Key.space	n/a
28.1155	0.03	56231	keystroke_t	t	n/a
28.431	0.0735	56862	keystroke_Key.backspace	Key.backspace	n/a
28.6105	0.0895	57221	keystroke_s	s	n/a
28.775	0.06	57550	keystroke_t	t	n/a
28.85	0.09	57700	keystroke_o	o	n/a
28.941	0.0895	57882	keystroke_r	r	n/a
29.0755	0.09	58151	keystroke_i	i	n/a
29.1805	0.06	58361	keystroke_e	e	n/a
29.3155	0.12	58631	keystroke_s	s	n/a
29.3905	0.105	58781	keystroke_Key.space	Key.space	n/a
29.6755	0.09	59351	keystroke_w	w	n/a
29.7805	0.075	59561	keystroke_i	i	n/a
29.9305	0.075	59861	keystroke_k	k	n/a
30.0655	0.105	60131	keystroke_i	i	n/a
30.2455	0.12	60491	keystroke_p	p	n/a
30.3805	0.06	60761	keystroke_e	e	n/a
30.5155	0.105	61031	keystroke_d	d	n/a
30.6355	0.09	61271	keystroke_i	i	n/a
30.7405	0.15	61481	keystroke_a	a	n/a
30.8755	0.09	61751	keystroke_Key.space	Key.space	n/a
34.4925	0.001	68985	keystroke_e	e	n/a
34.5655	0.075	69131	keystroke_s	s	n/a
34.7155	0.06	69431	keystroke_s	s	n/a
34.8655	0.06	69731	keystroke_e	e	n/a
34.9555	0.105	69911	keystroke_n	n	n/a
35.4655	0.21	70931	keystroke_c	c	n/a
35.6455	0.105	71291	keystroke_e	e	n/a
35.9455	0.075	71891	keystroke_Key.enter	Key.enter	n/a
36.031	9.6965	72062	prompt	n/a	exceptional conspiracy drivers alphabetical\n
36.756	0.0595	73512	keystroke_e	e	n/a
36.9355	0.105	73871	keystroke_x	x	n/a
37.1755	0.105	74351	keystroke_c	c	n/a
37.2955	0.075	74591	keystroke_e	e	n/a
37.4305	0.09	74861	keystroke_p	p	n/a
37.551	0.0745	75102	keystroke_t	t	n/a
37.6405	0.12	75281	keystroke_i	i	n/a
37.7305	0.1205	75461	keystroke_o	o	n/a
37.836	0.1045	75672	keystroke_n	n	n/a
37.9405	0.1355	75881	keystroke_a	a	n/a
38.046	0.105	76092	keystroke_l	l	n/a
38.136	0.075	76272	keystroke_Key.space	Key.space	n/a
38.346	0.105	76692	keystroke_c	c	n/a
38.436	0.09	76872	keystroke_o	o	n/a
38.511	0.09	77022	keystroke_n	n	n/a
38.586	0.09	77172	keystroke_s	s	n/a
38.691	0.09	77382	keystroke_i	i	n/a
38.856	0.105	77712	keystroke_p	p	n/a
39.141	0.09	78282	keystroke_i	i	n/a
40.01	0.06	80020	keystroke_Key.backspace	Key.backspace	n/a
40.145	0.0755	80290	keystroke_Key.backspace	Key.backspace	n/a
40.5355	0.0755	81071	keystroke_Key.backspace	Key.backspace	n/a
41.166	0.075	82332	keystroke_p	p	n/a
41.316	0.09	82632	keystroke_i	i	n/a
41.466	0.1495	82932	keystroke_r	r	n/a
41.631	0.165	83262	keystroke_a	a	n/a
41.84	0.135	83680	keystroke_c	c	n/a
41.976	0.0745	83952	keystroke_y	y	n/a
42.1405	0.075	84281	keystroke_Key.space	Key.space	n/a
42.7105	0.075	85421	keystroke_d	d	n/a
42.9655	0.06	85931	keystroke_r	r	n/a
43.0555	0.12	86111	keystroke_i	i	n/a
43.1605	0.075	86321	keystroke_v	v	n/a
43.3405	0.105	86681	keystroke_e	e	n/a
43.4005	0.12	86801	keystroke_r	r	n/a
43.5505	0.105	87101	keystroke_s	s	n/a
43.6705	0.045	87341	keystroke_Key.space	Key.space	n/a
43.7755	0.135	87551	keystroke_a	a	n/a
43.9555	0.075	87911	keystroke_l	l	n/a
44.1355	0.1055	88271	keystroke_p	p	n/a
44.2255	0.105	88451	keystroke_h	h	n/a
44.3455	0.12	88691	keystroke_a	a	n/a
44.6005	0.09	89201	keystroke_b	b	n/a
44.7955	0.09	89591	keystroke_e	e	n/a
44.9005	0.075	89801	keystroke_t	t	n/a
45.0205	0.09	90041	keystroke_i	i	n/a
45.1255	0.105	90251	keystroke_c	c	n/a
45.2005	0.135	90401	keystroke_a	a	n/a
45.2905	0.12	90581	keystroke_l	l	n/a
45.6355	0.09	91271	keystroke_Key.enter	Key.enter	n/a
45.732	4.7205	91464	prompt	n/a	travel reproduce used clearance\n
46.4605	0.06	92921	keystroke_t	t	n/a
46.5805	0.1055	93161	keystroke_r	r	n/a
46.701	0.164	93402	keystroke_a	a	n/a
46.82	0.09	93640	keystroke_v	v	n/a
47	0.105	94000	keystroke_e	e	n/a
47.09	0.105	94180	keystroke_l	l	n/a
47.18	0.06	94360	keystroke_Key.space	Key.space	n/a
47.4355	0.1205	94871	keystroke_r	r	n/a
47.5405	0.075	95081	keystroke_e	e	n/a
47.6605	0.0895	95321	keystroke_p	p	n/a
47.825	0.075	95650	keystroke_r	r	n/a
47.915	0.075	95830	keystroke_o	o	n/a
48.08	0.06	96160	keystroke_d	d	n/a
48.23	0.09	96460	keystroke_u	u	n/a
48.3355	0.12	96671	keystroke_c	c	n/a
48.4855	0.135	96971	keystroke_e	e	n/a
48.5905	0.075	97181	keystroke_Key.space	Key.space	n/a
48.7555	0.06	97511	keystroke_u	u	n/a
48.8305	0.06	97661	keystroke_s	s	n/a
48.9805	0.045	97961	keystroke_e	e	n/a
49.1155	0.105	98231	keystroke_d	d	n/a
49.1605	0.09	98321	keystroke_Key.space	Key.space	n/a
49.3555	0.075	98711	keystroke_c	c	n/a
49.4455	0.105	98891	keystroke_l	l	n/a
49.5355	0.15	99071	keystroke_e	e	n/a
49.5955	0.135	99191	keystroke_a	a	n/a
49.6865	0.134	99373	keystroke_r	r	n/a
49.8355	0.09	99671	keystroke_a	a	n/a
49.9105	0.105	99821	keystroke_n	n	n/a
50.0305	0.105	100061	keystroke_c	c	n/a
50.1055	0.135	100211	keystroke_e	e	n/a
50.3765	0.074	100753	keystroke_Key.enter	Key.enter	n/a
50.456	7.0015	100912	prompt	n/a	relief shore looking mandatory\n
51.1555	0.105	102311	keystroke_r	r	n/a
51.2755	0.105	102551	keystroke_e	e	n/a
51.4255	0.105	102851	keystroke_l	l	n/a
51.4855	0.12	102971	keystroke_i	i	n/a
51.6205	0.06	103241	keystroke_f	f	n/a
51.9955	0.06	103991	keystroke_Key.backspace	Key.backspace	n/a
52.3555	0.075	104711	keystroke_e	e	n/a
52.716	0.105	105432	keystroke_f	f	n/a
52.911	0.09	105822	keystroke_Key.space	Key.space	n/a
53.1505	0.075	106301	keystroke_s	s	n/a
53.2405	0.075	106481	keystroke_h	h	n/a
53.2855	0.105	106571	keystroke_o	o	n/a
53.3605	0.06	106721	keystroke_r	r	n/a
53.5555	0.135	107111	keystroke_e	e	n/a
53.6455	0.075	107291	keystroke_Key.space	Key.space	n/a
53.7505	0.075	107501	keystroke_l	l	n/a
53.9155	0.105	107831	keystroke_o	o	n/a
54.0955	0.09	108191	keystroke_o	o	n/a
54.2455	0.075	108491	keystroke_k	k	n/a
54.3955	0.12	108791	keystroke_i	i	n/a
54.4855	0.12	108971	keystroke_n	n	n/a
54.5905	0.1045	109181	keystroke_g	g	n/a
54.665	0.09	109330	keystroke_Key.space	Key.space	n/a
54.8	0.12	109600	keystroke_m	m	n/a
54.995	0.12	109990	keystroke_a	a	n/a
55.1	0.105	110200	keystroke_n	n	n/a
55.235	0.075	110470	keystroke_d	d	n/a
55.355	0.195	110710	keystroke_a	a	n/a
55.475	0.045	110950	keystroke_t	t	n/a
55.866	0.105	111732	keystroke_o	o	n/a
56.256	0.045	112512	keystroke_r	r	n/a
56.736	0.06	113472	keystroke_Key.backspace	Key.backspace	n/a
57.021	0.075	114042	keystroke_r	r	n/a
57.111	0.075	114222	keystroke_y	y	n/a
57.351	0.105	114702	keystroke_Key.enter	Key.enter	n/a
57.4635	9.714	114927	prompt	n/a	department wisconsin remarks recognized\n
58.1755	0.075	116351	keystroke_d	d	n/a
58.3555	0.06	116711	keystroke_e	e	n/a
58.4755	0.105	116951	keystroke_p	p	n/a
58.5505	0.135	117101	keystroke_a	a	n/a
58.6405	0.075	117281	keystroke_r	r	n/a
58.8205	0.075	117641	keystroke_t	t	n/a
58.9105	0.09	117821	keystroke_m	m	n/a
59.0305	0.06	118061	keystroke_e	e	n/a
59.1205	0.1195	118241	keystroke_n	n	n/a
59.1955	0.1045	118391	keystroke_t	t	n/a
59.27	0.075	118540	keystroke_Key.space	Key.space	n/a
60.035	0.015	120070	keystroke_w	w	n/a
60.065	0.06	120130	keystroke_i	i	n/a
60.14	0.105	120280	keystroke_s	s	n/a
60.441	0.119	120882	keystroke_c	c	n/a
60.545	0.0755	121090	keystroke_o	o	n/a
60.7105	0.09	121421	keystroke_n	n	n/a
60.8155	0.075	121631	keystroke_s	s	n/a
60.9205	0.09	121841	keystroke_i	i	n/a
61.0405	0.105	122081	keystroke_n	n	n/a
61.1755	0.075	122351	keystroke_Key.space	Key.space	n/a
61.4305	0.105	122861	keystroke_r	r	n/a
61.5205	0.075	123041	keystroke_e	e	n/a
61.6105	0.105	123221	keystroke_m	m	n/a
61.7905	0.165	123581	keystroke_a	a	n/a
61.8805	0.12	123761	keystroke_r	r	n/a
62.0305	0.105	124061	keystroke_k	k	n/a
62.1655	0.12	124331	keystroke_s	s	n/a
64.448	0.028	128896	keystroke_k	k	n/a
64.8505	0.075	129701	keystroke_Key.backspace	Key.backspace	n/a
65.406	0.089	130812	keystroke_Key.space	Key.space	n/a
65.585	0.09	131170	keystroke_r	r	n/a
65.705	0.1055	131410	keystroke_e	e	n/a
65.9305	0.09	131861	keystroke_c	c	n/a
66.0505	0.09	132101	keystroke_o	o	n/a
66.2455	0.075	132491	keystroke_g	g	n/a
66.3505	0.105	132701	keystroke_n	n	n/a
66.4255	0.12	132851	keystroke_i	i	n/a
66.5305	0.1045	133061	keystroke_z	z	n/a
66.695	0.06	133390	keystroke_e	e	n/a
66.815	0.135	133630	keystroke_d	d	n/a
67.085	0.09	134170	keystroke_Key.enter	Key.enter	n/a
67.181	5.066	134362	prompt	n/a	obtain quarter laptop securely\n
68.0155	0.09	136031	keystroke_o	o	n/a
68.1355	0.09	136271	keystroke_b	b	n/a
68.3605	0.135	136721	keystroke_t	t	n/a
68.4655	0.135	136931	keystroke_a	a	n/a
68.5705	0.105	137141	keystroke_i	i	n/a
68.6455	0.1205	137291	keystroke_n	n	n/a
68.7205	0.09	137441	keystroke_Key.space	Key.space	n/a
68.9605	0.075	137921	keystroke_q	q	n/a
69.0505	0.09	138101	keystroke_u	u	n/a
69.1555	0.18	138311	keystroke_a	a	n/a
69.3205	0.12	138641	keystroke_r	r	n/a
69.5155	0.09	139031	keystroke_t	t	n/a
69.6655	0.1205	139331	keystroke_e	e	n/a
69.74	0.12	139480	keystroke_r	r	n/a
69.8	0.12	139600	keystroke_Key.space	Key.space	n/a
69.9805	0.09	139961	keystroke_l	l	n/a
70.0555	0.1505	140111	keystroke_a	a	n/a
70.191	0.105	140382	keystroke_p	p	n/a
70.311	0.075	140622	keystroke_t	t	n/a
70.401	0.2395	140802	keystroke_o	o	n/a
70.566	0.1495	141132	keystroke_p	p	n/a
70.7305	0.09	141461	keystroke_Key.space	Key.space	n/a
70.9405	0.075	141881	keystroke_s	s	n/a
71.0905	0.06	142181	keystroke_e	e	n/a
71.2255	0.12	142451	keystroke_c	c	n/a
71.3605	0.091	142721	keystroke_u	u	n/a
71.4655	0.15	142931	keystroke_r	r	n/a
71.6305	0.09	143261	keystroke_e	e	n/a
71.7355	0.135	143471	keystroke_l	l	n/a
71.8405	0.105	143681	keystroke_y	y	n/a
72.1405	0.105	144281	keystroke_Key.enter	Key.enter	n/a
72.251	4.466	144502	prompt	n/a	sauce beds such libraries\n
73.0405	0.12	146081	keystroke_s	s	n/a
73.2205	0.135	146441	keystroke_a	a	n/a
73.3705	0.1055	146741	keystroke_u	u	n/a
73.566	0.15	147132	keystroke_c	c	n/a
73.73	0.136	147460	keystroke_e	e	n/a
73.836	0.075	147672	keystroke_Key.space	Key.space	n/a
74.016	0.075	148032	keystroke_b	b	n/a
74.136	0.075	148272	keystroke_e	e	n/a
74.2705	0.12	148541	keystroke_d	d	n/a
74.4505	0.12	148901	keystroke_s	s	n/a
74.5855	0.0905	149171	keystroke_Key.space	Key.space	n/a
74.706	0.075	149412	keystroke_s	s	n/a
74.826	0.075	149652	keystroke_u	u	n/a
74.916	0.12	149832	keystroke_c	c	n/a
75.021	0.105	150042	keystroke_h	h	n/a
75.081	0.09	150162	keystroke_Key.space	Key.space	n/a
75.246	0.12	150492	keystroke_l	l	n/a
75.351	0.09	150702	keystroke_i	i	n/a
75.516	0.075	151032	keystroke_b	b	n/a
75.7105	0.09	151421	keystroke_r	r	n/a
75.8155	0.165	151631	keystroke_a	a	n/a
75.9205	0.12	151841	keystroke_r	r	n/a
76.0255	0.105	152051	keystroke_i	i	n/a
76.1455	0.06	152291	keystroke_e	e	n/a
76.2655	0.165	152531	keystroke_s	s	n/a
76.6405	0.075	153281	keystroke_Key.enter	Key.enter	n/a
76.72	8.622	153440	prompt	n/a	appraisal amazon controlled fires\n
77.466	0.105	154932	keystroke_a	a	n/a
77.616	0.0445	155232	keystroke_p	p	n/a
77.7355	0.075	155471	keystroke_p	p	n/a
77.8405	0.09	155681	keystroke_r	r	n/a
78.0055	0.09	156011	keystroke_a	a	n/a
78.1255	0.09	156251	keystroke_i	i	n/a
79.0705	0.12	158141	keystroke_s	s	n/a
79.1915	0.134	158383	keystroke_a	a	n/a
79.3265	0.119	158653	keystroke_l	l	n/a
79.4905	0.105	158981	keystroke_Key.space	Key.space	n/a
79.7305	0.075	159461	keystroke_a	a	n/a
79.8205	0.105	159641	keystroke_m	m	n/a
79.8955	0.09	159791	keystroke_a	a	n/a
80.1805	0.09	160361	keystroke_o	o	n/a
80.93	0.0755	161860	keystroke_Key.backspace	Key.backspace	n/a
81.0205	0.165	162041	keystroke_z	z	n/a
81.2005	0.12	162401	keystroke_o	o	n/a
81.2605	0.135	162521	keystroke_n	n	n/a
81.4405	0.12	162881	keystroke_Key.space	Key.space	n/a
82.041	0.105	164082	keystroke_c	c	n/a
82.116	0.075	164232	keystroke_o	o	n/a
82.176	0.105	164352	keystroke_n	n	n/a
82.266	0.045	164532	keystroke_t	t	n/a
82.371	0.105	164742	keystroke_r	r	n/a
82.461	0.06	164922	keystroke_o	o	n/a
82.626	0.045	165252	keystroke_l	l	n/a
82.746	0.119	165492	keystroke_l	l	n/a
83.106	0.045	166212	keystroke_e	e	n/a
83.256	0.135	166512	keystroke_d	d	n/a
83.361	0.104	166722	keystroke_Key.space	Key.space	n/a
83.6905	0.0455	167381	keystroke_r	r	n/a
84.006	0.075	168012	keystroke_Key.backspace	Key.backspace	n/a
84.171	0.09	168342	keystroke_f	f	n/a
84.276	0.09	168552	keystroke_i	i	n/a
84.366	0.135	168732	keystroke_r	r	n/a
84.486	0.105	168972	keystroke_e	e	n/a
84.651	0.149	169302	keystroke_s	s	n/a
85.2205	0.12	170441	keystroke_Key.enter	Key.enter	n/a
85.3465	5.591	170693	prompt	n/a	pipes strip superb issue\n
86.0905	0.075	172181	keystroke_p	p	n/a
86.241	0.09	172482	keystroke_i	i	n/a
86.361	0.105	172722	keystroke_p	p	n/a
86.511	0.135	173022	keystroke_e	e	n/a
86.631	0.15	173262	keystroke_s	s	n/a
86.751	0.105	173502	keystroke_Key.space	Key.space	n/a
86.886	0.165	173772	keystroke_s	s	n/a
87.021	0.075	174042	keystroke_t	t	n/a
87.171	0.105	174342	keystroke_r	r	n/a
87.261	0.105	174522	keystroke_i	i	n/a
87.411	0.105	174822	keystroke_p	p	n/a
87.531	0.075	175062	keystroke_Key.space	Key.space	n/a
87.681	0.09	175362	keystroke_s	s	n/a
87.786	0.09	175572	keystroke_u	u	n/a
88.116	0.105	176232	keystroke_p	p	n/a
88.236	0.165	176472	keystroke_e	e	n/a
88.326	0.09	176652	keystroke_r	r	n/a
88.5355	0.12	177071	keystroke_b	b	n/a
88.7755	0.12	177551	keystroke_Key.space	Key.space	n/a
89.1655	0.1055	178331	keystroke_l	l	n/a
89.255	0.045	178510	keystroke_i	i	n/a
89.48	0.075	178960	keystroke_Key.backspace	Key.backspace	n/a
89.781	0.075	179562	keystroke_Key.backspace	Key.backspace	n/a
90.0505	0.105	180101	keystroke_i	i	n/a
90.1705	0.06	180341	keystroke_s	s	n/a
90.3055	0.09	180611	keystroke_s	s	n/a
90.4105	0.075	180821	keystroke_u	u	n/a
90.5305	0.0895	181061	keystroke_e	e	n/a
90.845	0.09	181690	keystroke_Key.enter	Key.enter	n/a
90.94	7.587	181880	prompt	n/a	talent exhibitions supervisors attacks\n
91.85	0.09	183700	keystroke_t	t	n/a
91.955	0.12	183910	keystroke_a	a	n/a
92.105	0.135	184210	keystroke_l	l	n/a
92.21	0.075	184420	keystroke_e	e	n/a
92.315	0.12	184630	keystroke_n	n	n/a
92.42	0.105	184840	keystroke_t	t	n/a
92.495	0.075	184990	keystroke_Key.space	Key.space	n/a
92.631	0.0745	185262	keystroke_e	e	n/a
93.261	0.104	186522	keystroke_x	x	n/a
93.441	0.09	186882	keystroke_h	h	n/a
93.546	0.09	187092	keystroke_i	i	n/a
93.711	0.12	187422	keystroke_b	b	n/a
93.816	0.09	187632	keystroke_i	i	n/a
93.996	0.06	187992	keystroke_t	t	n/a
94.071	0.135	188142	keystroke_i	i	n/a
94.146	0.165	188292	keystroke_o	o	n/a
94.251	0.12	188502	keystroke_n	n	n/a
94.356	0.135	188712	keystroke_s	s	n/a
94.461	0.09	188922	keystroke_Key.space	Key.space	n/a
94.971	0.105	189942	keystroke_s	s	n/a
95.121	0.105	190242	keystroke_u	u	n/a
95.826	0.135	191652	keystroke_p	p	n/a
96.276	0.15	192552	keystroke_e	e	n/a
96.336	0.105	192672	keystroke_r	r	n/a
96.561	0.1195	193122	keystroke_v	v	n/a
96.6815	0.089	193363	keystroke_i	i	n/a
96.8005	0.105	193601	keystroke_s	s	n/a
96.8905	0.12	193781	keystroke_o	o	n/a
97.0555	0.09	194111	keystroke_r	r	n/a
97.2205	0.12	194441	keystroke_s	s	n/a
97.3555	0.045	194711	keystroke_Key.space	Key.space	n/a
97.4605	0.1495	194921	keystroke_a	a	n/a
97.5655	0.0595	195131	keystroke_t	t	n/a
97.67	0.105	195340	keystroke_t	t	n/a
97.79	0.166	195580	keystroke_a	a	n/a
97.925	0.12	195850	keystroke_c	c	n/a
98.015	0.135	196030	keystroke_k	k	n/a
98.135	0.105	196270	keystroke_s	s	n/a
98.4355	0.09	196871	keystroke_Key.enter	Key.enter	n/a
98.531	5.7865	197062	prompt	n/a	locked victory guided souls\n
99.1705	0.06	198341	keystroke_l	l	n/a
99.3055	0.1055	198611	keystroke_o	o	n/a
99.426	0.135	198852	keystroke_c	c	n/a
99.531	0.12	199062	keystroke_k	k	n/a
99.666	0.06	199332	keystroke_e	e	n/a
99.786	0.119	199572	keystroke_d	d	n/a
99.876	0.089	199752	keystroke_Key.space	Key.space	n/a
100.145	0.075	200290	keystroke_v	v	n/a
100.265	0.135	200530	keystroke_i	i	n/a
100.401	0.059	200802	keystroke_c	c	n/a
100.58	0.0455	201160	keystroke_t	t	n/a
100.6555	0.09	201311	keystroke_o	o	n/a
100.7305	0.075	201461	keystroke_r	r	n/a
100.8805	0.09	201761	keystroke_y	y	n/a
100.9405	0.075	201881	keystroke_Key.space	Key.space	n/a
101.1805	0.045	202361	keystroke_f	f	n/a
101.1955	0.045	202391	keystroke_g	g	n/a
101.2855	0.075	202571	keystroke_u	u	n/a
101.3615	0.119	202723	keystroke_i	i	n/a
101.7505	0.06	203501	keystroke_Key.backspace	Key.backspace	n/a
101.9155	0.045	203831	keystroke_Key.backspace	Key.backspace	n/a
102.0505	0.045	204101	keystroke_Key.backspace	Key.backspace	n/a
102.2005	0.06	204401	keystroke_Key.backspace	Key.backspace	n/a
102.3355	0.09	204671	keystroke_g	g	n/a
102.4405	0.105	204881	keystroke_u	u	n/a
102.5605	0.12	205121	keystroke_i	i	n/a
102.7255	0.06	205451	keystroke_d	d	n/a
102.8605	0.075	205721	keystroke_e	e	n/a
103.0105	0.15	206021	keystroke_d	d	n/a
103.2055	0.105	206411	keystroke_Key.space	Key.space	n/a
103.5205	0.105	207041	keystroke_s	s	n/a
103.6105	0.105	207221	keystroke_o	o	n/a
103.7005	0.06	207401	keystroke_u	u	n/a
103.8055	0.12	207611	keystroke_l	l	n/a
103.9105	0.105	207821	keystroke_s	s	n/a
104.2255	0.09	208451	keystroke_Key.enter	Key.enter	n/a
104.3215	5.6205	208643	prompt	n/a	critical navy laughing half\n
105.1555	0.12	210311	keystroke_c	c	n/a
105.3655	0.105	210731	keystroke_r	r	n/a
105.5005	0.09	211001	keystroke_i	i	n/a
105.6055	0.09	211211	keystroke_t	t	n/a
105.7255	0.105	211451	keystroke_i	i	n/a
105.86	0.12	211720	keystroke_c	c	n/a
106.31	0.15	212620	keystroke_a	a	n/a
106.461	0.119	212922	keystroke_l	l	n/a
106.595	0.091	213190	keystroke_Key.space	Key.space	n/a
106.776	0.105	213552	keystroke_n	n	n/a
106.851	0.15	213702	keystroke_a	a	n/a
106.956	0.15	213912	keystroke_v	v	n/a
107.121	0.074	214242	keystroke_y	y	n/a
107.376	0.104	214752	keystroke_Key.space	Key.space	n/a
107.631	0.09	215262	keystroke_l	l	n/a
107.706	0.119	215412	keystroke_a	a	n/a
107.841	0.06	215682	keystroke_u	u	n/a
107.946	0.09	215892	keystroke_g	g	n/a
108.02	0.091	216040	keystroke_h	h	n/a
108.156	0.135	216312	keystroke_i	i	n/a
108.246	0.135	216492	keystroke_n	n	n/a
108.351	0.12	216702	keystroke_g	g	n/a
108.441	0.105	216882	keystroke_Key.space	Key.space	n/a
108.6805	0.09	217361	keystroke_h	h	n/a
108.8005	0.12	217601	keystroke_a	a	n/a
108.9055	0.105	217811	keystroke_l	l	n/a
109.0255	0.105	218051	keystroke_f	f	n/a
109.836	0.1045	219672	keystroke_Key.enter	Key.enter	n/a
109.9455	8.6965	219891	prompt	n/a	junction intelligent brian precision\n
110.631	0.06	221262	keystroke_j	j	n/a
110.751	0.075	221502	keystroke_u	u	n/a
110.931	0.105	221862	keystroke_n	n	n/a
111.051	0.18	222102	keystroke_c	c	n/a
111.591	0.075	223182	keystroke_t	t	n/a
111.696	0.12	223392	keystroke_i	i	n/a
111.831	0.09	223662	keystroke_o	o	n/a
111.906	0.105	223812	keystroke_n	n	n/a
112.026	0.09	224052	keystroke_Key.space	Key.space	n/a
112.7005	0.075	225401	keystroke_i	i	n/a
112.8205	0.12	225641	keystroke_n	n	n/a
112.9255	0.105	225851	keystroke_t	t	n/a
113.0455	0.105	226091	keystroke_e	e	n/a
113.1355	0.06	226271	keystroke_l	l	n/a
113.2555	0.09	226511	keystroke_l	l	n/a
113.4205	0.09	226841	keystroke_i	i	n/a
113.5405	0.075	227081	keystroke_g	g	n/a
113.7205	0.0755	227441	keystroke_e	e	n/a
113.811	0.12	227622	keystroke_n	n	n/a
113.901	0.12	227802	keystroke_t	t	n/a
114.006	0.105	228012	keystroke_Key.space	Key.space	n/a
114.2905	0.075	228581	keystroke_b	b	n/a
114.455	0.106	228910	keystroke_r	r	n/a
114.545	0.091	229090	keystroke_i	i	n/a
114.621	0.12	229242	keystroke_a	a	n/a
114.741	0.105	229482	keystroke_n	n	n/a
115.1755	0.09	230351	keystroke_Key.space	Key.space	n/a
115.3855	0.12	230771	keystroke_p	p	n/a
115.4905	0.105	230981	keystroke_r	r	n/a
116.8555	0.0755	233711	keystroke_e	e	n/a
117.111	0.1345	234222	keystroke_c	c	n/a
117.3655	0.0905	234731	keystroke_i	i	n/a
117.5455	0.12	235091	keystroke_s	s	n/a
117.621	0.18	235242	keystroke_i	i	n/a
117.711	0.1045	235422	keystroke_o	o	n/a
117.7855	0.12	235571	keystroke_n	n	n/a
118.5955	0.0445	237191	keystroke_Key.enter	Key.enter	n/a
118.6475	7.8695	237295	prompt	n/a	strain florence drinks polish\n
119.391	0.105	238782	keystroke_s	s	n/a
119.616	0.06	239232	keystroke_t	t	n/a
119.781	0.12	239562	keystroke_r	r	n/a
119.916	0.135	239832	keystroke_a	a	n/a
120.066	0.105	240132	keystroke_i	i	n/a
120.156	0.12	240312	keystroke_n	n	n/a
120.276	0.09	240552	keystroke_Key.space	Key.space	n/a
120.516	0.104	241032	keystroke_f	f	n/a
120.636	0.06	241272	keystroke_l	l	n/a
120.771	0.105	241542	keystroke_o	o	n/a
120.905	0.121	241810	keystroke_r	r	n/a
121.026	0.089	242052	keystroke_e	e	n/a
121.13	0.106	242260	keystroke_n	n	n/a
121.265	0.15	242530	keystroke_c	c	n/a
121.401	0.135	242802	keystroke_e	e	n/a
121.49	0.106	242980	keystroke_Key.space	Key.space	n/a
121.641	0.104	243282	keystroke_d	d	n/a
121.73	0.106	243460	keystroke_r	r	n/a
121.836	0.1045	243672	keystroke_i	i	n/a
121.97	0.12	243940	keystroke_n	n	n/a
122.045	0.15	244090	keystroke_k	k	n/a
122.211	0.135	244422	keystroke_s	s	n/a
122.315	0.105	244630	keystroke_Key.space	Key.space	n/a
122.9	0.106	245800	keystroke_p	p	n/a
123.05	0.12	246100	keystroke_o	o	n/a
123.23	0.1655	246460	keystroke_l	l	n/a
123.3355	0.12	246671	keystroke_i	i	n/a
123.5155	0.12	247031	keystroke_s	s	n/a
123.6205	0.09	247241	keystroke_h	h	n/a
126.4575	0.058	252915	keystroke_Key.enter	Key.enter	n/a
126.5205	5.472	253041	prompt	n/a	architect reads complex cook\n
127.371	0.1045	254742	keystroke_a	a	n/a
127.6405	0.09	255281	keystroke_r	r	n/a
127.8805	0.18	255761	keystroke_c	c	n/a
128.0455	0.06	256091	keystroke_h	h	n/a
128.1655	0.105	256331	keystroke_i	i	n/a
128.3005	0.09	256601	keystroke_t	t	n/a
128.4055	0.09	256811	keystroke_e	e	n/a
128.675	0.12	257350	keystroke_c	c	n/a
128.915	0.075	257830	keystroke_t	t	n/a
128.991	0.074	257982	keystroke_Key.space	Key.space	n/a
129.155	0.135	258310	keystroke_r	r	n/a
129.276	0.089	258552	keystroke_e	e	n/a
129.35	0.105	258700	keystroke_a	a	n/a
129.47	0.15	258940	keystroke_d	d	n/a
129.59	0.165	259180	keystroke_s	s	n/a
129.71	0.0755	259420	keystroke_Key.space	Key.space	n/a
130.0105	0.12	260021	keystroke_c	c	n/a
130.0865	0.164	260173	keystroke_o	o	n/a
130.1605	0.18	260321	keystroke_m	m	n/a
130.3855	0.12	260771	keystroke_p	p	n/a
130.5955	0.09	261191	keystroke_l	l	n/a
130.6555	0.06	261311	keystroke_e	e	n/a
130.8505	0.12	261701	keystroke_x	x	n/a
131.0005	0.06	262001	keystroke_Key.space	Key.space	n/a
131.226	0.12	262452	keystroke_c	c	n/a
131.316	0.075	262632	keystroke_o	o	n/a
131.451	0.1195	262902	keystroke_o	o	n/a
131.5405	0.165	263081	keystroke_k	k	n/a
131.8855	0.105	263771	keystroke_Key.enter	Key.enter	n/a
131.996	7.1215	263992	prompt	n/a	promising pittsburgh clan prisoner\n
132.756	0.09	265512	keystroke_p	p	n/a
132.876	0.089	265752	keystroke_r	r	n/a
132.966	0.104	265932	keystroke_o	o	n/a
133.1905	0.09	266381	keystroke_i	i	n/a
133.5205	0.06	267041	keystroke_Key.backspace	Key.backspace	n/a
133.7155	0.105	267431	keystroke_m	m	n/a
133.9405	0.09	267881	keystroke_i	i	n/a
134.0605	0.105	268121	keystroke_s	s	n/a
134.1805	0.15	268361	keystroke_i	i	n/a
134.3605	0.12	268721	keystroke_n	n	n/a
134.5705	0.12	269141	keystroke_g	g	n/a
134.6605	0.12	269321	keystroke_Key.space	Key.space	n/a
135.0805	0.0895	270161	keystroke_p	p	n/a
135.2455	0.105	270491	keystroke_i	i	n/a
135.3805	0.0445	270761	keystroke_t	t	n/a
135.5005	0.0755	271001	keystroke_t	t	n/a
135.666	0.105	271332	keystroke_s	s	n/a
136.625	0.09	273250	keystroke_b	b	n/a
136.73	0.075	273460	keystroke_u	u	n/a
136.82	0.06	273640	keystroke_r	r	n/a
136.9855	0.09	273971	keystroke_g	g	n/a
137.0605	0.09	274121	keystroke_h	h	n/a
137.2105	0.075	274421	keystroke_Key.space	Key.space	n/a
137.5255	0.12	275051	keystroke_c	c	n/a
137.6155	0.105	275231	keystroke_l	l	n/a
137.6905	0.135	275381	keystroke_a	a	n/a
137.8105	0.12	275621	keystroke_n	n	n/a
137.9155	0.09	275831	keystroke_Key.space	Key.space	n/a
138.1105	0.09	276221	keystroke_p	p	n/a
138.2155	0.075	276431	keystroke_r	r	n/a
138.2915	0.104	276583	keystroke_i	i	n/a
138.4105	0.09	276821	keystroke_s	s	n/a
138.4855	0.075	276971	keystroke_o	o	n/a
138.5455	0.12	277091	keystroke_n	n	n/a
138.6355	0.135	277271	keystroke_e	e	n/a
138.7105	0.12	277421	keystroke_r	r	n/a
139.0105	0.105	278021	keystroke_Key.enter	Key.enter	n/a
139.1225	6.13	278245	prompt	n/a	compensation intl vehicles ballet\n
140.0005	0.165	280001	keystroke_c	c	n/a
140.1355	0.165	280271	keystroke_o	o	n/a
140.3155	0.105	280631	keystroke_m	m	n/a
140.4655	0.1495	280931	keystroke_p	p	n/a
140.63	0.06	281260	keystroke_e	e	n/a
140.72	0.105	281440	keystroke_n	n	n/a
140.84	0.105	281680	keystroke_s	s	n/a
140.99	0.1805	281980	keystroke_a	a	n/a
141.111	0.1195	282222	keystroke_t	t	n/a
141.2155	0.1805	282431	keystroke_i	i	n/a
141.3205	0.0905	282641	keystroke_o	o	n/a
141.3805	0.1355	282761	keystroke_n	n	n/a
141.4705	0.0905	282941	keystroke_Key.space	Key.space	n/a
141.636	0.1045	283272	keystroke_i	i	n/a
141.7105	0.1205	283421	keystroke_n	n	n/a
141.786	0.075	283572	keystroke_t	t	n/a
141.9055	0.1055	283811	keystroke_l	l	n/a
142.0255	0.075	284051	keystroke_Key.space	Key.space	n/a
142.251	0.09	284502	keystroke_v	v	n/a
142.4605	0.105	284921	keystroke_e	e	n/a
142.5805	0.09	285161	keystroke_h	h	n/a
142.7005	0.06	285401	keystroke_c	c	n/a
142.7905	0.09	285581	keystroke_i	i	n/a
143.2555	0.06	286511	keystroke_Key.backspace	Key.backspace	n/a
143.4505	0.0755	286901	keystroke_Key.backspace	Key.backspace	n/a
143.721	0.1045	287442	keystroke_i	i	n/a
143.8405	0.135	287681	keystroke_c	c	n/a
143.9605	0.105	287921	keystroke_l	l	n/a
144.0805	0.075	288161	keystroke_e	e	n/a
144.1705	0.165	288341	keystroke_s	s	n/a
144.3055	0.09	288611	keystroke_Key.space	Key.space	n/a
144.4705	0.09	288941	keystroke_b	b	n/a
144.5455	0.135	289091	keystroke_a	a	n/a
144.6355	0.06	289271	keystroke_l	l	n/a
144.7555	0.1045	289511	keystroke_l	l	n/a
144.875	0.12	289750	keystroke_e	e	n/a
144.935	0.105	289870	keystroke_t	t	n/a
145.1605	0.09	290321	keystroke_Key.enter	Key.enter	n/a
145.2555	7.2415	290511	prompt	n/a	rich pond metropolitan recognized\n
147.428	0.027	294856	keystroke_r	r	n/a
147.47	0.075	294940	keystroke_i	i	n/a
147.575	0.15	295150	keystroke_c	c	n/a
147.665	0.106	295330	keystroke_h	h	n/a
147.74	0.105	295480	keystroke_Key.space	Key.space	n/a
147.86	0.09	295720	keystroke_p	p	n/a
148.01	0.105	296020	keystroke_o	o	n/a
148.19	0.106	296380	keystroke_n	n	n/a
148.326	0.104	296652	keystroke_d	d	n/a
148.4	0.105	296800	keystroke_Key.space	Key.space	n/a
148.52	0.091	297040	keystroke_m	m	n/a
148.641	0.045	297282	keystroke_e	e	n/a
149.151	0.0595	298302	keystroke_t	t	n/a
149.2705	0.105	298541	keystroke_r	r	n/a
149.3905	0.09	298781	keystroke_o	o	n/a
149.5855	0.105	299171	keystroke_p	p	n/a
149.7355	0.12	299471	keystroke_o	o	n/a
149.9305	0.12	299861	keystroke_l	l	n/a
150.0355	0.105	300071	keystroke_i	i	n/a
150.1555	0.075	300311	keystroke_t	t	n/a
150.2905	0.135	300581	keystroke_a	a	n/a
150.4105	0.105	300821	keystroke_n	n	n/a
150.5305	0.09	301061	keystroke_Key.space	Key.space	n/a
151.0405	0.1055	302081	keystroke_r	r	n/a
151.1605	0.091	302321	keystroke_e	e	n/a
151.341	0.0745	302682	keystroke_c	c	n/a
151.4315	0.089	302863	keystroke_o	o	n/a
151.5355	0.09	303071	keystroke_g	g	n/a
151.6405	0.105	303281	keystroke_n	n	n/a
151.7305	0.091	303461	keystroke_i	i	n/a
151.8055	0.105	303611	keystroke_z	z	n/a
152.0005	0.06	304001	keystroke_e	e	n/a
152.1205	0.135	304241	keystroke_d	d	n/a
152.4055	0.09	304811	keystroke_Key.enter	Key.enter	n/a
152.503	10.254	305006	prompt	n/a	affects prep survival ballot\n
153.1705	0.09	306341	keystroke_a	a	n/a
153.3355	0.06	306671	keystroke_f	f	n/a
153.4565	0.089	306913	keystroke_f	f	n/a
153.6355	0.105	307271	keystroke_e	e	n/a
153.7555	0.12	307511	keystroke_c	c	n/a
153.7705	0.015	307541	keystroke_e	e	n/a
153.9805	0.09	307961	keystroke_t	t	n/a
154.1455	0.12	308291	keystroke_s	s	n/a
154.2205	0.075	308441	keystroke_Key.space	Key.space	n/a
154.3555	0.12	308711	keystroke_p	p	n/a
154.4455	0.105	308891	keystroke_r	r	n/a
154.5355	0.105	309071	keystroke_e	e	n/a
154.8955	0.06	309791	keystroke_Key.backspace	Key.backspace	n/a
155.1205	0.045	310241	keystroke_Key.backspace	Key.backspace	n/a
155.3305	0.045	310661	keystroke_Key.backspace	Key.backspace	n/a
155.5405	0.0605	311081	keystroke_Key.backspace	Key.backspace	n/a
155.751	0.075	311502	keystroke_Key.backspace	Key.backspace	n/a
155.991	0.1045	311982	keystroke_Key.backspace	Key.backspace	n/a
156.6505	0.075	313301	keystroke_Key.backspace	Key.backspace	n/a
156.9055	0.075	313811	keystroke_t	t	n/a
157.056	0.105	314112	keystroke_s	s	n/a
157.311	0.09	314622	keystroke_Key.space	Key.space	n/a
157.491	0.105	314982	keystroke_p	p	n/a
157.581	0.1645	315162	keystroke_r	r	n/a
157.7005	0.12	315401	keystroke_e	e	n/a
157.7905	0.12	315581	keystroke_p	p	n/a
158.1055	0.09	316211	keystroke_Key.space	Key.space	n/a
158.3455	0.105	316691	keystroke_s	s	n/a
158.5105	0.09	317021	keystroke_u	u	n/a
158.5855	0.0605	317171	keystroke_r	r	n/a
158.7805	0.06	317561	keystroke_v	v	n/a
158.8555	0.09	317711	keystroke_i	i	n/a
158.9605	0.15	317921	keystroke_v	v	n/a
159.1255	0.165	318251	keystroke_a	a	n/a
159.2605	0.105	318521	keystroke_l	l	n/a
159.4105	0.0755	318821	keystroke_Key.space	Key.space	n/a
159.696	0.105	319392	keystroke_b	b	n/a
159.786	0.165	319572	keystroke_a	a	n/a
159.876	0.06	319752	keystroke_l	l	n/a
159.981	0.105	319962	keystroke_l	l	n/a
160.1905	0.12	320381	keystroke_e	e	n/a
160.5205	0.06	321041	keystroke_Key.backspace	Key.backspace	n/a
160.5955	0.015	321191	keystroke_e	e	n/a
160.6855	0.135	321371	keystroke_o	o	n/a
160.8655	0.09	321731	keystroke_t	t	n/a
161.0755	0.045	322151	keystroke_Key.backspace	Key.backspace	n/a
161.1955	0.06	322391	keystroke_Key.backspace	Key.backspace	n/a
161.3455	0.045	322691	keystroke_Key.backspace	Key.backspace	n/a
161.5405	0.015	323081	keystroke_Key.backspace	Key.backspace	n/a
162.036	0.0745	324072	keystroke_l	l	n/a
162.2305	0.075	324461	keystroke_o	o	n/a
162.3355	0.09	324671	keystroke_t	t	n/a
162.6655	0.09	325331	keystroke_Key.enter	Key.enter	n/a
162.76	7.153	325520	prompt	n/a	interfaces stand products american\n
163.401	0.075	326802	keystroke_i	i	n/a
163.55	0.091	327100	keystroke_n	n	n/a
163.671	0.075	327342	keystroke_t	t	n/a
163.821	0.09	327642	keystroke_e	e	n/a
163.881	0.075	327762	keystroke_r	r	n/a
164.061	0.075	328122	keystroke_f	f	n/a
164.166	0.15	328332	keystroke_a	a	n/a
164.271	0.15	328542	keystroke_c	c	n/a
164.406	0.075	328812	keystroke_e	e	n/a
164.541	0.135	329082	keystroke_s	s	n/a
164.646	0.09	329292	keystroke_Key.space	Key.space	n/a
164.796	0.045	329592	keystroke_t	t	n/a
165.276	0.12	330552	keystroke_s	s	n/a
165.7255	0.06	331451	keystroke_Key.backspace	Key.backspace	n/a
165.9355	0.045	331871	keystroke_Key.backspace	Key.backspace	n/a
166.1165	0.105	332233	keystroke_s	s	n/a
166.1905	0.09	332381	keystroke_t	t	n/a
166.2955	0.09	332591	keystroke_a	a	n/a
166.4155	0.12	332831	keystroke_n	n	n/a
166.5365	0.1045	333073	keystroke_d	d	n/a
166.611	0.09	333222	keystroke_Key.space	Key.space	n/a
166.806	0.09	333612	keystroke_p	p	n/a
166.9105	0.0905	333821	keystroke_r	r	n/a
167.016	0.105	334032	keystroke_o	o	n/a
167.136	0.06	334272	keystroke_d	d	n/a
167.226	0.075	334452	keystroke_u	u	n/a
167.316	0.09	334632	keystroke_c	c	n/a
167.511	0.075	335022	keystroke_t	t	n/a
167.646	0.105	335292	keystroke_s	s	n/a
167.736	0.06	335472	keystroke_Key.space	Key.space	n/a
167.916	0.03	335832	keystroke_m	m	n/a
167.961	0.09	335922	keystroke_a	a	n/a
168.381	0.045	336762	keystroke_Key.backspace	Key.backspace	n/a
168.546	0.06	337092	keystroke_Key.backspace	Key.backspace	n/a
168.696	0.12	337392	keystroke_a	a	n/a
168.801	0.105	337602	keystroke_m	m	n/a
168.921	0.12	337842	keystroke_e	e	n/a
168.996	0.09	337992	keystroke_r	r	n/a
169.146	0.105	338292	keystroke_i	i	n/a
169.236	0.12	338472	keystroke_c	c	n/a
169.311	0.135	338622	keystroke_a	a	n/a
169.401	0.09	338802	keystroke_n	n	n/a
169.821	0.09	339642	keystroke_Key.enter	Key.enter	n/a
169.918	6.039	339836	prompt	n/a	upcoming serving young liabilities\n
170.586	0.075	341172	keystroke_u	u	n/a
170.721	0.12	341442	keystroke_p	p	n/a
170.916	0.12	341832	keystroke_c	c	n/a
171.036	0.12	342072	keystroke_o	o	n/a
171.156	0.09	342312	keystroke_m	m	n/a
171.351	0.12	342702	keystroke_i	i	n/a
171.486	0.075	342972	keystroke_n	n	n/a
171.576	0.135	343152	keystroke_g	g	n/a
171.696	0.075	343392	keystroke_Key.space	Key.space	n/a
171.846	0.06	343692	keystroke_s	s	n/a
171.966	0.12	343932	keystroke_e	e	n/a
172.041	0.075	344082	keystroke_r	r	n/a
172.221	0.09	344442	keystroke_v	v	n/a
172.326	0.12	344652	keystroke_i	i	n/a
172.731	0.09	345462	keystroke_n	n	n/a
172.911	0.12	345822	keystroke_g	g	n/a
173.001	0.09	346002	keystroke_Key.space	Key.space	n/a
173.406	0.06	346812	keystroke_y	y	n/a
173.511	0.09	347022	keystroke_o	o	n/a
173.571	0.075	347142	keystroke_u	u	n/a
173.736	0.105	347472	keystroke_n	n	n/a
173.826	0.12	347652	keystroke_g	g	n/a
173.916	0.105	347832	keystroke_Key.space	Key.space	n/a
174.321	0.105	348642	keystroke_l	l	n/a
174.396	0.105	348792	keystroke_i	i	n/a
174.6055	0.135	349211	keystroke_a	a	n/a
174.8305	0.09	349661	keystroke_b	b	n/a
174.9355	0.09	349871	keystroke_i	i	n/a
175.0855	0.12	350171	keystroke_l	l	n/a
175.1755	0.09	350351	keystroke_i	i	n/a
175.2955	0.09	350591	keystroke_t	t	n/a
175.4005	0.09	350801	keystroke_i	i	n/a
175.4605	0.09	350921	keystroke_e	e	n/a
175.5805	0.15	351161	keystroke_s	s	n/a
175.8505	0.105	351701	keystroke_Key.enter	Key.enter	n/a
175.9625	5.1695	351925	prompt	n/a	feet highs lifetime protective\n
176.5705	0.105	353141	keystroke_f	f	n/a
176.7355	0.06	353471	keystroke_e	e	n/a
176.8555	0.15	353711	keystroke_e	e	n/a
176.9905	0.135	353981	keystroke_t	t	n/a
177.1105	0.075	354221	keystroke_Key.space	Key.space	n/a
177.3205	0.09	354641	keystroke_h	h	n/a
177.3955	0.09	354791	keystroke_i	i	n/a
177.5455	0.075	355091	keystroke_g	g	n/a
177.6215	0.089	355243	keystroke_h	h	n/a
177.7705	0.105	355541	keystroke_s	s	n/a
178.0405	0.06	356081	keystroke_Key.space	Key.space	n/a
178.2355	0.1205	356471	keystroke_l	l	n/a
178.3105	0.1055	356621	keystroke_i	i	n/a
178.431	0.09	356862	keystroke_f	f	n/a
178.566	0.075	357132	keystroke_e	e	n/a
178.716	0.09	357432	keystroke_t	t	n/a
178.761	0.12	357522	keystroke_i	i	n/a
178.851	0.135	357702	keystroke_m	m	n/a
178.926	0.12	357852	keystroke_e	e	n/a
179.031	0.09	358062	keystroke_Key.space	Key.space	n/a
179.346	0.105	358692	keystroke_p	p	n/a
179.481	0.09	358962	keystroke_r	r	n/a
179.601	0.105	359202	keystroke_o	o	n/a
179.736	0.135	359472	keystroke_t	t	n/a
179.916	0.09	359832	keystroke_e	e	n/a
180.126	0.09	360252	keystroke_c	c	n/a
180.306	0.06	360612	keystroke_t	t	n/a
180.411	0.135	360822	keystroke_i	i	n/a
180.531	0.09	361062	keystroke_v	v	n/a
180.711	0.09	361422	keystroke_e	e	n/a
181.041	0.09	362082	keystroke_Key.enter	Key.enter	n/a
181.137	4.855	362274	prompt	n/a	phase lucia correctly durham\n
181.821	0.105	363642	keystroke_p	p	n/a
182.001	0.09	364002	keystroke_h	h	n/a
182.136	0.105	364272	keystroke_a	a	n/a
182.271	0.12	364542	keystroke_s	s	n/a
182.451	0.15	364902	keystroke_e	e	n/a
182.571	0.075	365142	keystroke_Key.space	Key.space	n/a
182.691	0.09	365382	keystroke_l	l	n/a
182.796	0.09	365592	keystroke_u	u	n/a
182.901	0.105	365802	keystroke_c	c	n/a
183.006	0.12	366012	keystroke_i	i	n/a
183.111	0.135	366222	keystroke_a	a	n/a
183.261	0.06	366522	keystroke_Key.space	Key.space	n/a
183.456	0.105	366912	keystroke_c	c	n/a
183.576	0.105	367152	keystroke_o	o	n/a
183.696	0.06	367392	keystroke_r	r	n/a
183.801	0.105	367602	keystroke_r	r	n/a
183.921	0.09	367842	keystroke_e	e	n/a
184.116	0.09	368232	keystroke_c	c	n/a
184.2805	0.09	368561	keystroke_t	t	n/a
184.4305	0.12	368861	keystroke_l	l	n/a
184.5205	0.105	369041	keystroke_y	y	n/a
184.6405	0.06	369281	keystroke_Key.space	Key.space	n/a
184.8355	0.105	369671	keystroke_d	d	n/a
184.9855	0.09	369971	keystroke_u	u	n/a
185.1355	0.075	370271	keystroke_r	r	n/a
185.3455	0.075	370691	keystroke_h	h	n/a
185.4655	0.12	370931	keystroke_a	a	n/a
185.5855	0.105	371171	keystroke_m	m	n/a
185.9005	0.09	371801	keystroke_Key.enter	Key.enter	n/a
185.995	5.232	371990	prompt	n/a	mortgage laptop wise poker\n
186.6355	0.09	373271	keystroke_m	m	n/a
186.7705	0.105	373541	keystroke_o	o	n/a
186.8905	0.045	373781	keystroke_r	r	n/a
187.0405	0.105	374081	keystroke_t	t	n/a
187.3255	0.09	374651	keystroke_g	g	n/a
187.9705	0.1495	375941	keystroke_a	a	n/a
188.195	0.09	376390	keystroke_g	g	n/a
188.39	0.15	376780	keystroke_e	e	n/a
188.525	0.045	377050	keystroke_Key.space	Key.space	n/a
188.675	0.091	377350	keystroke_l	l	n/a
188.871	0.105	377742	keystroke_a	a	n/a
188.961	0.105	377922	keystroke_p	p	n/a
189.0805	0.0905	378161	keystroke_t	t	n/a
189.172	0.119	378344	keystroke_o	o	n/a
189.231	0.12	378462	keystroke_p	p	n/a
189.3805	0.0905	378761	keystroke_Key.space	Key.space	n/a
189.606	0.09	379212	keystroke_w	w	n/a
189.711	0.09	379422	keystroke_i	i	n/a
189.801	0.09	379602	keystroke_s	s	n/a
189.936	0.12	379872	keystroke_e	e	n/a
190.011	0.0895	380022	keystroke_Key.space	Key.space	n/a
190.1015	0.104	380203	keystroke_p	p	n/a
190.1905	0.18	380381	keystroke_o	o	n/a
190.3255	0.135	380651	keystroke_k	k	n/a
190.5355	0.135	381071	keystroke_e	e	n/a
190.6255	0.12	381251	keystroke_r	r	n/a
191.1055	0.12	382211	keystroke_Key.enter	Key.enter	n/a
191.23	6.432	382460	prompt	n/a	reserved hollywood white charter\n
191.946	0.12	383892	keystroke_r	r	n/a
192.081	0.06	384162	keystroke_e	e	n/a
192.336	0.105	384672	keystroke_s	s	n/a
192.516	0.12	385032	keystroke_e	e	n/a
192.591	0.075	385182	keystroke_r	r	n/a
192.7705	0.09	385541	keystroke_v	v	n/a
192.9205	0.06	385841	keystroke_e	e	n/a
193.0405	0.12	386081	keystroke_d	d	n/a
193.1155	0.09	386231	keystroke_Key.space	Key.space	n/a
193.3255	0.09	386651	keystroke_h	h	n/a
193.4005	0.09	386801	keystroke_o	o	n/a
193.596	0.045	387192	keystroke_l	l	n/a
193.731	0.075	387462	keystroke_l	l	n/a
194.226	0.075	388452	keystroke_y	y	n/a
194.511	0.09	389022	keystroke_w	w	n/a
194.616	0.06	389232	keystroke_o	o	n/a
194.721	0.075	389442	keystroke_o	o	n/a
194.826	0.135	389652	keystroke_d	d	n/a
194.976	0.105	389952	keystroke_Key.space	Key.space	n/a
195.336	0.105	390672	keystroke_w	w	n/a
195.426	0.09	390852	keystroke_h	h	n/a
195.501	0.09	391002	keystroke_i	i	n/a
195.561	0.135	391122	keystroke_t	t	n/a
195.666	0.12	391332	keystroke_e	e	n/a
195.771	0.06	391542	keystroke_Key.space	Key.space	n/a
195.906	0.105	391812	keystroke_c	c	n/a
195.996	0.105	391992	keystroke_h	h	n/a
196.086	0.135	392172	keystroke_a	a	n/a
196.176	0.075	392352	keystroke_r	r	n/a
196.341	0.06	392682	keystroke_t	t	n/a
196.461	0.12	392922	keystroke_e	e	n/a
196.521	0.12	393042	keystroke_r	r	n/a
197.571	0.089	395142	keystroke_Key.enter	Key.enter	n/a
197.6665	5.6955	395333	prompt	n/a	suggests they've chart keeping\n
198.395	0.046	396790	keystroke_s	s	n/a
198.486	0.09	396972	keystroke_u	u	n/a
198.62	0.046	397240	keystroke_g	g	n/a
198.726	0.074	397452	keystroke_g	g	n/a
198.876	0.164	397752	keystroke_e	e	n/a
198.996	0.104	397992	keystroke_s	s	n/a
199.055	0.091	398110	keystroke_t	t	n/a
199.191	0.105	398382	keystroke_s	s	n/a
199.355	0.06	398710	keystroke_Key.space	Key.space	n/a
199.491	0.074	398982	keystroke_t	t	n/a
199.581	0.044	399162	keystroke_h	h	n/a
199.64	0.075	399280	keystroke_e	e	n/a
199.73	0.09	399460	keystroke_y	y	n/a
199.865	0.12	399730	keystroke_v	v	n/a
200.465	0.075	400930	keystroke_Key.backspace	Key.backspace	n/a
200.765	0.09	401530	keystroke_'	'	n/a
200.901	0.15	401802	keystroke_v	v	n/a
201.14	0.12	402280	keystroke_e	e	n/a
201.261	0.059	402522	keystroke_Key.space	Key.space	n/a
201.455	0.105	402910	keystroke_c	c	n/a
201.53	0.0905	403060	keystroke_h	h	n/a
201.636	0.1495	403272	keystroke_a	a	n/a
201.725	0.09	403450	keystroke_r	r	n/a
201.921	0.09	403842	keystroke_t	t	n/a
202.025	0.045	404050	keystroke_Key.space	Key.space	n/a
202.13	0.105	404260	keystroke_k	k	n/a
202.25	0.06	404500	keystroke_e	e	n/a
202.356	0.105	404712	keystroke_e	e	n/a
202.431	0.09	404862	keystroke_p	p	n/a
202.641	0.09	405282	keystroke_i	i	n/a
202.926	0.015	405852	keystroke_n	n	n/a
202.956	0.09	405912	keystroke_g	g	n/a
203.271	0.09	406542	keystroke_Key.enter	Key.enter	n/a
203.365	6.642	406730	prompt	n/a	levy intense highways university\n
203.976	0.075	407952	keystroke_l	l	n/a
204.141	0.075	408282	keystroke_e	e	n/a
204.276	0.15	408552	keystroke_v	v	n/a
204.411	0.075	408822	keystroke_y	y	n/a
204.546	0.09	409092	keystroke_Key.space	Key.space	n/a
204.681	0.09	409362	keystroke_i	i	n/a
204.801	0.12	409602	keystroke_n	n	n/a
204.876	0.12	409752	keystroke_t	t	n/a
204.981	0.075	409962	keystroke_e	e	n/a
205.071	0.105	410142	keystroke_n	n	n/a
205.191	0.135	410382	keystroke_s	s	n/a
205.311	0.15	410622	keystroke_e	e	n/a
205.431	0.09	410862	keystroke_Key.space	Key.space	n/a
205.581	0.09	411162	keystroke_h	h	n/a
205.656	0.09	411312	keystroke_i	i	n/a
205.791	0.075	411582	keystroke_g	g	n/a
205.896	0.075	411792	keystroke_h	h	n/a
206.031	0.03	412062	keystroke_w	w	n/a
206.421	0.105	412842	keystroke_a	a	n/a
206.586	0.09	413172	keystroke_y	y	n/a
206.691	0.135	413382	keystroke_s	s	n/a
206.796	0.09	413592	keystroke_Key.space	Key.space	n/a
206.946	0.06	413892	keystroke_i	i	n/a
207.261	0.075	414522	keystroke_Key.backspace	Key.backspace	n/a
207.486	0.075	414972	keystroke_u	u	n/a
207.666	0.09	415332	keystroke_n	n	n/a
207.711	0.1045	415422	keystroke_i	i	n/a
207.876	0.105	415752	keystroke_v	v	n/a
208.056	0.15	416112	keystroke_e	e	n/a
208.146	0.12	416292	keystroke_r	r	n/a
208.281	0.075	416562	keystroke_i	i	n/a
208.401	0.075	416802	keystroke_s	s	n/a
209.091	0.045	418182	keystroke_Key.backspace	Key.backspace	n/a
209.195	0.075	418390	keystroke_Key.backspace	Key.backspace	n/a
209.36	0.09	418720	keystroke_s	s	n/a
209.451	0.104	418902	keystroke_i	i	n/a
209.57	0.06	419140	keystroke_t	t	n/a
209.66	0.075	419320	keystroke_y	y	n/a
209.93	0.075	419860	keystroke_Key.enter	Key.enter	n/a
210.014	6.623	420028	prompt	n/a	spanish wrestling supporting featuring\n
210.605	0.09	421210	keystroke_s	s	n/a
210.71	0.1055	421420	keystroke_p	p	n/a
210.7855	0.09	421571	keystroke_a	a	n/a
210.8905	0.09	421781	keystroke_n	n	n/a
210.9955	0.075	421991	keystroke_i	i	n/a
210.9965	0.075	421993	keystroke_s	s	n/a
211.5955	0.09	423191	keystroke_h	h	n/a
211.7005	0.075	423401	keystroke_Key.space	Key.space	n/a
211.895	0.1505	423790	keystroke_w	w	n/a
212.0155	0.135	424031	keystroke_r	r	n/a
212.1205	0.135	424241	keystroke_e	e	n/a
212.2705	0.18	424541	keystroke_s	s	n/a
212.4055	0.105	424811	keystroke_t	t	n/a
212.5555	0.075	425111	keystroke_l	l	n/a
212.5855	0.12	425171	keystroke_i	i	n/a
212.6605	0.135	425321	keystroke_n	n	n/a
212.7355	0.12	425471	keystroke_g	g	n/a
212.8405	0.09	425681	keystroke_Key.space	Key.space	n/a
213.2905	0.09	426581	keystroke_s	s	n/a
213.3955	0.06	426791	keystroke_u	u	n/a
213.5005	0.075	427001	keystroke_p	p	n/a
213.6355	0.075	427271	keystroke_p	p	n/a
213.7855	0.09	427571	keystroke_o	o	n/a
213.8605	0.06	427721	keystroke_r	r	n/a
214.0105	0.075	428021	keystroke_t	t	n/a
214.0555	0.12	428111	keystroke_i	i	n/a
214.1605	0.12	428321	keystroke_n	n	n/a
214.2205	0.09	428441	keystroke_g	g	n/a
214.2955	0.09	428591	keystroke_Key.space	Key.space	n/a
214.5805	0.15	429161	keystroke_e	e	n/a
215.0005	0.045	430001	keystroke_Key.backspace	Key.backspace	n/a
215.1655	0.105	430331	keystroke_f	f	n/a
215.3605	0.12	430721	keystroke_e	e	n/a
215.4355	0.18	430871	keystroke_a	a	n/a
215.6305	0.09	431261	keystroke_t	t	n/a
215.7355	0.105	431471	keystroke_u	u	n/a
215.8555	0.105	431711	keystroke_r	r	n/a
215.9755	0.105	431951	keystroke_i	i	n/a
216.0505	0.135	432101	keystroke_n	n	n/a
216.1255	0.09	432251	keystroke_g	g	n/a
216.5455	0.09	433091	keystroke_Key.enter	Key.enter	n/a
216.6435	8.169	433287	prompt	n/a	shake executives gibraltar gotta\n
217.3405	0.06	434681	keystroke_s	s	n/a
217.4305	0.105	434861	keystroke_h	h	n/a
217.5055	0.09	435011	keystroke_a	a	n/a
217.6255	0.12	435251	keystroke_k	k	n/a
217.6855	0.105	435371	keystroke_e	e	n/a
217.8055	0.075	435611	keystroke_Key.space	Key.space	n/a
217.9405	0.075	435881	keystroke_e	e	n/a
218.1655	0.09	436331	keystroke_x	x	n/a
218.3755	0.075	436751	keystroke_e	e	n/a
218.5255	0.12	437051	keystroke_c	c	n/a
218.6305	0.0895	437261	keystroke_u	u	n/a
218.735	0.06	437470	keystroke_t	t	n/a
218.825	0.12	437650	keystroke_i	i	n/a
218.93	0.0755	437860	keystroke_v	v	n/a
219.065	0.136	438130	keystroke_e	e	n/a
219.186	0.165	438372	keystroke_s	s	n/a
219.306	0.09	438612	keystroke_Key.space	Key.space	n/a
220.071	0.074	440142	keystroke_g	g	n/a
220.161	0.104	440322	keystroke_i	i	n/a
220.28	0.09	440560	keystroke_b	b	n/a
220.475	0.12	440950	keystroke_r	r	n/a
220.581	0.149	441162	keystroke_a	a	n/a
220.7	0.12	441400	keystroke_l	l	n/a
221	0.075	442000	keystroke_t	t	n/a
221.135	0.1655	442270	keystroke_a	a	n/a
221.2255	0.18	442451	keystroke_r	r	n/a
221.3755	0.075	442751	keystroke_Key.space	Key.space	n/a
221.615	0.09	443230	keystroke_g	g	n/a
221.706	0.089	443412	keystroke_o	o	n/a
221.796	0.059	443592	keystroke_t	t	n/a
221.9305	0.105	443861	keystroke_t	t	n/a
222.1705	0.15	444341	keystroke_a	a	n/a
224.783	0.028	449566	keystroke_Key.enter	Key.enter	n/a
224.815	5.518	449630	prompt	n/a	miracle buyer potato require\n
225.6505	0.09	451301	keystroke_m	m	n/a
225.7415	0.105	451483	keystroke_i	i	n/a
226.0555	0.105	452111	keystroke_r	r	n/a
226.2655	0.18	452531	keystroke_a	a	n/a
226.5055	0.15	453011	keystroke_c	c	n/a
226.7005	0.1355	453401	keystroke_l	l	n/a
226.821	0.135	453642	keystroke_e	e	n/a
226.941	0.09	453882	keystroke_Key.space	Key.space	n/a
227.361	0.09	454722	keystroke_b	b	n/a
227.436	0.06	454872	keystroke_u	u	n/a
227.601	0.09	455202	keystroke_y	y	n/a
227.736	0.135	455472	keystroke_e	e	n/a
227.841	0.12	455682	keystroke_r	r	n/a
227.916	0.09	455832	keystroke_Key.space	Key.space	n/a
228.036	0.135	456072	keystroke_p	p	n/a
228.126	0.1345	456252	keystroke_o	o	n/a
228.3055	0.075	456611	keystroke_t	t	n/a
228.4255	0.15	456851	keystroke_a	a	n/a
228.5155	0.12	457031	keystroke_t	t	n/a
228.6505	0.09	457301	keystroke_o	o	n/a
229.1905	0.09	458381	keystroke_Key.space	Key.space	n/a
229.3555	0.105	458711	keystroke_r	r	n/a
229.4755	0.12	458951	keystroke_e	e	n/a
229.5805	0.135	459161	keystroke_q	q	n/a
229.6855	0.075	459371	keystroke_u	u	n/a
229.7455	0.105	459491	keystroke_i	i	n/a
229.8205	0.12	459641	keystroke_r	r	n/a
229.9105	0.12	459821	keystroke_e	e	n/a
230.2405	0.09	460481	keystroke_Key.enter	Key.enter	n/a
230.3355	7.152	460671	prompt	n/a	opened national developmental viruses\n
231.156	0.0895	462312	keystroke_o	o	n/a
231.3055	0.105	462611	keystroke_p	p	n/a
231.4705	0.09	462941	keystroke_e	e	n/a
231.5755	0.12	463151	keystroke_n	n	n/a
232.0405	0.075	464081	keystroke_e	e	n/a
232.2055	0.135	464411	keystroke_d	d	n/a
232.4605	0.075	464921	keystroke_Key.space	Key.space	n/a
232.7755	0.15	465551	keystroke_n	n	n/a
233.0005	0.15	466001	keystroke_a	a	n/a
233.1055	0.135	466211	keystroke_t	t	n/a
233.1805	0.165	466361	keystroke_i	i	n/a
233.2555	0.091	466511	keystroke_o	o	n/a
233.3155	0.12	466631	keystroke_n	n	n/a
233.4215	0.119	466843	keystroke_a	a	n/a
233.5105	0.12	467021	keystroke_l	l	n/a
233.901	0.09	467802	keystroke_Key.space	Key.space	n/a
234.081	0.075	468162	keystroke_d	d	n/a
234.246	0.06	468492	keystroke_e	e	n/a
234.381	0.09	468762	keystroke_v	v	n/a
234.531	0.075	469062	keystroke_e	e	n/a
234.621	0.075	469242	keystroke_l	l	n/a
234.786	0.165	469572	keystroke_o	o	n/a
234.861	0.15	469722	keystroke_p	p	n/a
235.056	0.105	470112	keystroke_m	m	n/a
235.191	0.09	470382	keystroke_e	e	n/a
235.266	0.09	470532	keystroke_n	n	n/a
235.371	0.09	470742	keystroke_t	t	n/a
235.521	0.135	471042	keystroke_a	a	n/a
235.626	0.12	471252	keystroke_l	l	n/a
236.061	0.105	472122	keystroke_Key.space	Key.space	n/a
236.286	0.105	472572	keystroke_v	v	n/a
236.361	0.1195	472722	keystroke_i	i	n/a
236.5105	0.09	473021	keystroke_r	r	n/a
236.6155	0.09	473231	keystroke_u	u	n/a
236.7505	0.075	473501	keystroke_s	s	n/a
236.9005	0.12	473801	keystroke_e	e	n/a
237.0655	0.09	474131	keystroke_s	s	n/a
237.3655	0.12	474731	keystroke_Key.enter	Key.enter	n/a
237.4905	6.642	474981	prompt	n/a	lived compiled butter epson\n
238.491	0.09	476982	keystroke_l	l	n/a
238.566	0.09	477132	keystroke_i	i	n/a
238.686	0.09	477372	keystroke_v	v	n/a
238.836	0.06	477672	keystroke_e	e	n/a
238.956	0.15	477912	keystroke_d	d	n/a
239.076	0.0895	478152	keystroke_Key.space	Key.space	n/a
239.346	0.12	478692	keystroke_c	c	n/a
239.406	0.12	478812	keystroke_o	o	n/a
239.511	0.15	479022	keystroke_m	m	n/a
239.646	0.12	479292	keystroke_p	p	n/a
239.871	0.09	479742	keystroke_i	i	n/a
240.231	0.105	480462	keystroke_l	l	n/a
240.366	0.075	480732	keystroke_e	e	n/a
240.545	0.166	481090	keystroke_d	d	n/a
240.695	0.12	481390	keystroke_Key.space	Key.space	n/a
241.025	0.12	482050	keystroke_b	b	n/a
241.16	0.075	482320	keystroke_u	u	n/a
241.25	0.0455	482500	keystroke_t	t	n/a
241.3405	0.09	482681	keystroke_t	t	n/a
241.5205	0.135	483041	keystroke_e	e	n/a
241.6105	0.135	483221	keystroke_r	r	n/a
241.6855	0.105	483371	keystroke_Key.space	Key.space	n/a
242.21	0.075	484420	keystroke_e	e	n/a
242.345	0.12	484690	keystroke_p	p	n/a
242.496	0.104	484992	keystroke_s	s	n/a
242.6155	0.061	485231	keystroke_i	i	n/a
242.9455	0.075	485891	keystroke_Key.backspace	Key.backspace	n/a
243.1555	0.12	486311	keystroke_o	o	n/a
243.261	0.1045	486522	keystroke_n	n	n/a
243.9955	0.135	487991	keystroke_Key.enter	Key.enter	n/a
244.1355	6.8525	488271	prompt	n/a	star certain tackle chinese\n
244.9265	0.134	489853	keystroke_s	s	n/a
245.1205	0.0905	490241	keystroke_t	t	n/a
245.241	0.15	490482	keystroke_a	a	n/a
245.331	0.15	490662	keystroke_r	r	n/a
245.496	0.09	490992	keystroke_Key.space	Key.space	n/a
245.736	0.12	491472	keystroke_c	c	n/a
245.931	0.135	491862	keystroke_e	e	n/a
246.006	0.075	492012	keystroke_r	r	n/a
246.171	0.105	492342	keystroke_t	t	n/a
246.261	0.135	492522	keystroke_a	a	n/a
246.411	0.075	492822	keystroke_i	i	n/a
246.531	0.105	493062	keystroke_n	n	n/a
246.666	0.075	493332	keystroke_Key.space	Key.space	n/a
246.801	0.12	493602	keystroke_t	t	n/a
246.906	0.12	493812	keystroke_a	a	n/a
247.056	0.12	494112	keystroke_c	c	n/a
247.146	0.09	494292	keystroke_k	k	n/a
247.626	0.12	495252	keystroke_l	l	n/a
247.761	0.15	495522	keystroke_e	e	n/a
247.956	0.12	495912	keystroke_Key.space	Key.space	n/a
248.376	0.135	496752	keystroke_c	c	n/a
248.481	0.1195	496962	keystroke_h	h	n/a
248.555	0.1355	497110	keystroke_i	i	n/a
248.6455	0.135	497291	keystroke_n	n	n/a
248.7505	0.09	497501	keystroke_e	e	n/a
248.8855	0.15	497771	keystroke_s	s	n/a
248.9905	0.15	497981	keystroke_e	e	n/a
249.0955	0.12	498191	keystroke_Key.space	Key.space	n/a
250.8805	0.106	501761	keystroke_Key.enter	Key.enter	n/a
250.991	16.361	501982	prompt	n/a	pushing practitioners interview land\n
251.7655	0.105	503531	keystroke_p	p	n/a
251.8555	0.09	503711	keystroke_u	u	n/a
251.9905	0.09	503981	keystroke_s	s	n/a
252.0655	0.1055	504131	keystroke_h	h	n/a
252.186	0.12	504372	keystroke_i	i	n/a
252.276	0.12	504552	keystroke_n	n	n/a
252.336	0.105	504672	keystroke_g	g	n/a
252.411	0.105	504822	keystroke_Key.space	Key.space	n/a
252.576	0.105	505152	keystroke_p	p	n/a
252.666	0.105	505332	keystroke_r	r	n/a
252.786	0.165	505572	keystroke_a	a	n/a
252.906	0.105	505812	keystroke_c	c	n/a
253.086	0.075	506172	keystroke_t	t	n/a
253.176	0.09	506352	keystroke_i	i	n/a
253.371	0.12	506742	keystroke_o	o	n/a
253.461	0.12	506922	keystroke_n	n	n/a
253.746	0.105	507492	keystroke_e	e	n/a
253.821	0.09	507642	keystroke_r	r	n/a
253.971	0.165	507942	keystroke_s	s	n/a
254.121	0.0895	508242	keystroke_Key.space	Key.space	n/a
254.571	0.1045	509142	keystroke_i	i	n/a
254.6905	0.12	509381	keystroke_n	n	n/a
254.7955	0.09	509591	keystroke_t	t	n/a
254.9155	0.105	509831	keystroke_e	e	n/a
254.9755	0.105	509951	keystroke_r	r	n/a
255.2005	0.0905	510401	keystroke_v	v	n/a
255.32	0.105	510640	keystroke_i	i	n/a
255.441	0.119	510882	keystroke_e	e	n/a
255.5	0.135	511000	keystroke_w	w	n/a
255.605	0.105	511210	keystroke_Key.space	Key.space	n/a
255.726	0.09	511452	keystroke_l	l	n/a
255.801	0.089	511602	keystroke_a	a	n/a
255.905	0.09	511810	keystroke_n	n	n/a
255.966	0.09	511932	keystroke_d	d	n/a
259.3585	0.027	518717	keystroke_Key.backspace	Key.backspace	n/a
259.5205	0.045	519041	keystroke_Key.backspace	Key.backspace	n/a
259.7	0.046	519400	keystroke_Key.backspace	Key.backspace	n/a
259.911	0.06	519822	keystroke_Key.backspace	Key.backspace	n/a
260.121	0.045	520242	keystroke_Key.backspace	Key.backspace	n/a
260.316	0.06	520632	keystroke_Key.backspace	Key.backspace	n/a
260.526	0.06	521052	keystroke_Key.backspace	Key.backspace	n/a
260.735	0.046	521470	keystroke_Key.backspace	Key.backspace	n/a
260.93	0.045	521860	keystroke_Key.backspace	Key.backspace	n/a
261.111	0.059	522222	keystroke_Key.backspace	Key.backspace	n/a
261.306	0.045	522612	keystroke_Key.backspace	Key.backspace	n/a
261.53	0.06	523060	keystroke_Key.backspace	Key.backspace	n/a
261.89	0.06	523780	keystroke_Key.backspace	Key.backspace	n/a
262.1	0.06	524200	keystroke_Key.backspace	Key.backspace	n/a
262.34	0.061	524680	keystroke_Key.backspace	Key.backspace	n/a
262.565	0.06	525130	keystroke_Key.backspace	Key.backspace	n/a
262.775	0.06	525550	keystroke_Key.backspace	Key.backspace	n/a
263.001	0.06	526002	keystroke_Key.backspace	Key.backspace	n/a
263.226	0.075	526452	keystroke_Key.backspace	Key.backspace	n/a
263.466	0.075	526932	keystroke_Key.backspace	Key.backspace	n/a
264.366	0.075	528732	keystroke_t	t	n/a
264.516	0.09	529032	keystroke_i	i	n/a
264.651	0.09	529302	keystroke_o	o	n/a
264.741	0.09	529482	keystroke_n	n	n/a
264.876	0.12	529752	keystroke_e	e	n/a
264.966	0.09	529932	keystroke_r	r	n/a
265.131	0.12	530262	keystroke_s	s	n/a
265.221	0.105	530442	keystroke_Key.space	Key.space	n/a
265.341	0.06	530682	keystroke_i	i	n/a
265.431	0.105	530862	keystroke_n	n	n/a
265.521	0.06	531042	keystroke_t	t	n/a
265.611	0.135	531222	keystroke_e	e	n/a
265.701	0.09	531402	keystroke_r	r	n/a
265.926	0.12	531852	keystroke_v	v	n/a
266.031	0.105	532062	keystroke_i	i	n/a
266.181	0.15	532362	keystroke_e	e	n/a
266.256	0.1195	532512	keystroke_w	w	n/a
266.3905	0.075	532781	keystroke_Key.space	Key.space	n/a
266.4805	0.09	532961	keystroke_l	l	n/a
266.5555	0.105	533111	keystroke_a	a	n/a
266.6455	0.09	533291	keystroke_n	n	n/a
266.7205	0.105	533441	keystroke_d	d	n/a
267.261	0.09	534522	keystroke_Key.enter	Key.enter	n/a
267.3545	13.303	534709	prompt	n/a	ease civilization semester manage\n
268.026	0.09	536052	keystroke_e	e	n/a
268.356	0.135	536712	keystroke_a	a	n/a
268.506	0.12	537012	keystroke_s	s	n/a
268.716	0.15	537432	keystroke_e	e	n/a
268.836	0.09	537672	keystroke_Key.space	Key.space	n/a
269.3755	0.135	538751	keystroke_c	c	n/a
269.5255	0.09	539051	keystroke_i	i	n/a
269.6305	0.09	539261	keystroke_v	v	n/a
269.7505	0.075	539501	keystroke_i	i	n/a
269.8855	0.105	539771	keystroke_l	l	n/a
269.9605	0.165	539921	keystroke_a	a	n/a
270.0805	0.105	540161	keystroke_t	t	n/a
270.2005	0.165	540401	keystroke_i	i	n/a
270.3055	0.12	540611	keystroke_o	o	n/a
270.3805	0.105	540761	keystroke_n	n	n/a
270.9055	0.09	541811	keystroke_Key.space	Key.space	n/a
271.2205	0.045	542441	keystroke_s	s	n/a
271.3405	0.075	542681	keystroke_e	e	n/a
271.4455	0.12	542891	keystroke_m	m	n/a
271.5655	0.09	543131	keystroke_e	e	n/a
271.7155	0.135	543431	keystroke_s	s	n/a
271.8205	0.09	543641	keystroke_t	t	n/a
271.9405	0.12	543881	keystroke_e	e	n/a
272.0305	0.105	544061	keystroke_r	r	n/a
273.1255	0.075	546251	keystroke_Key.backspace	Key.backspace	n/a
273.3655	0.045	546731	keystroke_Key.backspace	Key.backspace	n/a
273.5605	0.075	547121	keystroke_Key.backspace	Key.backspace	n/a
273.8005	0.045	547601	keystroke_Key.backspace	Key.backspace	n/a
273.9805	0.06	547961	keystroke_Key.backspace	Key.backspace	n/a
274.2055	0.06	548411	keystroke_Key.backspace	Key.backspace	n/a
274.4005	0.075	548801	keystroke_Key.backspace	Key.backspace	n/a
274.6105	0.06	549221	keystroke_Key.backspace	Key.backspace	n/a
274.8055	0.06	549611	keystroke_Key.backspace	Key.backspace	n/a
275.0005	0.06	550001	keystroke_Key.backspace	Key.backspace	n/a
275.1805	0.06	550361	keystroke_Key.backspace	Key.backspace	n/a
275.4355	0.06	550871	keystroke_Key.backspace	Key.backspace	n/a
275.6605	0.09	551321	keystroke_Key.backspace	Key.backspace	n/a
276.006	0.09	552012	keystroke_Key.backspace	Key.backspace	n/a
276.846	0.09	553692	keystroke_i	i	n/a
277.026	0.105	554052	keystroke_z	z	n/a
277.236	0.12	554472	keystroke_a	a	n/a
277.461	0.075	554922	keystroke_t	t	n/a
277.611	0.12	555222	keystroke_i	i	n/a
277.716	0.104	555432	keystroke_o	o	n/a
277.791	0.105	555582	keystroke_n	n	n/a
278.2705	0.075	556541	keystroke_Key.space	Key.space	n/a
278.5255	0.0895	557051	keystroke_s	s	n/a
278.675	0.075	557350	keystroke_e	e	n/a
278.766	0.104	557532	keystroke_m	m	n/a
278.856	0.089	557712	keystroke_e	e	n/a
279.035	0.135	558070	keystroke_s	s	n/a
279.156	0.089	558312	keystroke_t	t	n/a
279.305	0.121	558610	keystroke_e	e	n/a
279.365	0.135	558730	keystroke_r	r	n/a
279.47	0.075	558940	keystroke_Key.space	Key.space	n/a
279.665	0.09	559330	keystroke_m	m	n/a
279.726	0.104	559452	keystroke_a	a	n/a
279.86	0.105	559720	keystroke_n	n	n/a
279.951	0.135	559902	keystroke_a	a	n/a
280.0555	0.0905	560111	keystroke_g	g	n/a
280.1905	0.12	560381	keystroke_e	e	n/a
280.5655	0.0905	561131	keystroke_Key.enter	Key.enter	n/a
280.664	6.0235	561328	prompt	n/a	posing lips breath reducing\n
281.331	0.135	562662	keystroke_p	p	n/a
281.511	0.105	563022	keystroke_o	o	n/a
281.631	0.135	563262	keystroke_s	s	n/a
281.946	0.105	563892	keystroke_i	i	n/a
282.021	0.15	564042	keystroke_n	n	n/a
282.111	0.105	564222	keystroke_g	g	n/a
282.201	0.105	564402	keystroke_Key.space	Key.space	n/a
282.366	0.09	564732	keystroke_l	l	n/a
282.516	0.1195	565032	keystroke_i	i	n/a
282.7105	0.12	565421	keystroke_p	p	n/a
282.8155	0.15	565631	keystroke_s	s	n/a
282.9355	0.105	565871	keystroke_Key.space	Key.space	n/a
283.1905	0.105	566381	keystroke_b	b	n/a
283.4155	0.15	566831	keystroke_r	r	n/a
283.5505	0.135	567101	keystroke_e	e	n/a
283.6105	0.1805	567221	keystroke_a	a	n/a
283.7305	0.12	567461	keystroke_t	t	n/a
283.8355	0.12	567671	keystroke_h	h	n/a
284.2855	0.105	568571	keystroke_Key.space	Key.space	n/a
284.691	0.12	569382	keystroke_r	r	n/a
284.826	0.06	569652	keystroke_e	e	n/a
284.976	0.105	569952	keystroke_d	d	n/a
285.096	0.105	570192	keystroke_u	u	n/a
285.216	0.12	570432	keystroke_c	c	n/a
285.411	0.105	570822	keystroke_i	i	n/a
285.471	0.135	570942	keystroke_n	n	n/a
285.576	0.105	571152	keystroke_g	g	n/a
286.611	0.075	573222	keystroke_Key.enter	Key.enter	n/a
286.6905	4.392	573381	prompt	n/a	nearly unit alloy folk\n
287.2705	0.12	574541	keystroke_n	n	n/a
287.4205	0.2255	574841	keystroke_e	e	n/a
287.5105	0.1805	575021	keystroke_a	a	n/a
287.616	0.165	575232	keystroke_r	r	n/a
287.841	0.105	575682	keystroke_l	l	n/a
288.006	0.09	576012	keystroke_y	y	n/a
288.111	0.075	576222	keystroke_Key.space	Key.space	n/a
288.231	0.075	576462	keystroke_u	u	n/a
288.366	0.135	576732	keystroke_n	n	n/a
288.456	0.12	576912	keystroke_i	i	n/a
288.591	0.12	577182	keystroke_t	t	n/a
288.681	0.075	577362	keystroke_Key.space	Key.space	n/a
288.906	0.105	577812	keystroke_a	a	n/a
289.026	0.06	578052	keystroke_l	l	n/a
289.146	0.09	578292	keystroke_l	l	n/a
289.641	0.09	579282	keystroke_o	o	n/a
289.941	0.075	579882	keystroke_y	y	n/a
290.061	0.09	580122	keystroke_Key.space	Key.space	n/a
290.271	0.12	580542	keystroke_f	f	n/a
290.346	0.075	580692	keystroke_o	o	n/a
290.481	0.06	580962	keystroke_l	l	n/a
290.676	0.12	581352	keystroke_k	k	n/a
290.99	0.0905	581980	keystroke_Key.enter	Key.enter	n/a
291.091	8.2875	582182	prompt	n/a	concern equilibrium demonstration shipping\n
292.0105	0.135	584021	keystroke_c	c	n/a
292.1305	0.06	584261	keystroke_o	o	n/a
292.2205	0.12	584441	keystroke_n	n	n/a
292.3255	0.12	584651	keystroke_c	c	n/a
292.5355	0.135	585071	keystroke_e	e	n/a
292.6105	0.135	585221	keystroke_r	r	n/a
292.7305	0.12	585461	keystroke_n	n	n/a
292.8205	0.09	585641	keystroke_Key.space	Key.space	n/a
293.3155	0.09	586631	keystroke_e	e	n/a
293.4355	0.135	586871	keystroke_q	q	n/a
293.5855	0.105	587171	keystroke_u	u	n/a
293.7055	0.105	587411	keystroke_i	i	n/a
293.9005	0.15	587801	keystroke_l	l	n/a
294.0205	0.12	588041	keystroke_i	i	n/a
294.3355	0.09	588671	keystroke_b	b	n/a
294.621	0.105	589242	keystroke_i	i	n/a
294.741	0.0745	589482	keystroke_r	r	n/a
295.071	0.045	590142	keystroke_Key.backspace	Key.backspace	n/a
295.221	0.06	590442	keystroke_Key.backspace	Key.backspace	n/a
295.431	0.105	590862	keystroke_r	r	n/a
295.581	0.105	591162	keystroke_i	i	n/a
295.701	0.09	591402	keystroke_u	u	n/a
295.896	0.12	591792	keystroke_m	m	n/a
296.106	0.105	592212	keystroke_Key.space	Key.space	n/a
296.406	0.045	592812	keystroke_d	d	n/a
296.541	0.105	593082	keystroke_e	e	n/a
296.601	0.09	593202	keystroke_m	m	n/a
296.736	0.105	593472	keystroke_o	o	n/a
296.826	0.105	593652	keystroke_n	n	n/a
296.871	0.105	593742	keystroke_s	s	n/a
296.991	0.06	593982	keystroke_t	t	n/a
297.126	0.12	594252	keystroke_r	r	n/a
297.231	0.18	594462	keystroke_a	a	n/a
297.351	0.12	594702	keystroke_t	t	n/a
297.441	0.195	594882	keystroke_i	i	n/a
297.516	0.135	595032	keystroke_o	o	n/a
297.606	0.135	595212	keystroke_n	n	n/a
297.8455	0.075	595691	keystroke_Key.space	Key.space	n/a
297.9955	0.105	595991	keystroke_s	s	n/a
298.0705	0.09	596141	keystroke_h	h	n/a
298.1755	0.106	596351	keystroke_i	i	n/a
298.3405	0.075	596681	keystroke_p	p	n/a
298.4755	0.075	596951	keystroke_p	p	n/a
298.6555	0.105	597311	keystroke_i	i	n/a
298.7305	0.136	597461	keystroke_n	n	n/a
298.8355	0.09	597671	keystroke_g	g	n/a
299.271	0.105	598542	keystroke_Key.enter	Key.enter	n/a
299.3815	4.256	598763	prompt	n/a	secret signs hugo married\n
300.081	0.075	600162	keystroke_s	s	n/a
300.261	0.075	600522	keystroke_e	e	n/a
300.531	0.015	601062	keystroke_c	c	n/a
300.621	0.135	601242	keystroke_r	r	n/a
300.741	0.15	601482	keystroke_e	e	n/a
300.861	0.12	601722	keystroke_t	t	n/a
300.966	0.075	601932	keystroke_Key.space	Key.space	n/a
301.101	0.09	602202	keystroke_s	s	n/a
301.206	0.09	602412	keystroke_i	i	n/a
301.311	0.075	602622	keystroke_g	g	n/a
301.401	0.105	602802	keystroke_n	n	n/a
301.551	0.09	603102	keystroke_s	s	n/a
301.671	0.06	603342	keystroke_Key.space	Key.space	n/a
301.836	0.0745	603672	keystroke_h	h	n/a
301.9555	0.09	603911	keystroke_u	u	n/a
302.1055	0.09	604211	keystroke_g	g	n/a
302.2255	0.105	604451	keystroke_o	o	n/a
302.3455	0.075	604691	keystroke_Key.space	Key.space	n/a
302.4655	0.075	604931	keystroke_m	m	n/a
302.5105	0.135	605021	keystroke_a	a	n/a
302.6155	0.06	605231	keystroke_r	r	n/a
302.7355	0.075	605471	keystroke_r	r	n/a
302.8255	0.09	605651	keystroke_i	i	n/a
302.9305	0.06	605861	keystroke_e	e	n/a
303.066	0.12	606132	keystroke_d	d	n/a
303.531	0.1045	607062	keystroke_Key.enter	Key.enter	n/a
303.6405	5.637	607281	prompt	n/a	hold oval finest granted\n
304.4605	0.09	608921	keystroke_h	h	n/a
304.6405	0.075	609281	keystroke_o	o	n/a
304.7905	0.105	609581	keystroke_l	l	n/a
304.9555	0.135	609911	keystroke_d	d	n/a
305.0455	0.09	610091	keystroke_Key.space	Key.space	n/a
305.1805	0.12	610361	keystroke_o	o	n/a
305.302	0.1035	610604	keystroke_v	v	n/a
305.5105	0.06	611021	keystroke_e	e	n/a
305.5855	0.045	611171	keystroke_r	r	n/a
305.9455	0.075	611891	keystroke_Key.backspace	Key.backspace	n/a
306.1405	0.06	612281	keystroke_Key.backspace	Key.backspace	n/a
306.3205	0.165	612641	keystroke_a	a	n/a
306.4555	0.09	612911	keystroke_l	l	n/a
306.5755	0.0605	613151	keystroke_Key.space	Key.space	n/a
306.741	0.09	613482	keystroke_f	f	n/a
306.816	0.1195	613632	keystroke_i	i	n/a
306.8905	0.12	613781	keystroke_n	n	n/a
307.0255	0.075	614051	keystroke_e	e	n/a
307.2655	0.1805	614531	keystroke_s	s	n/a
307.401	0.105	614802	keystroke_t	t	n/a
307.491	0.06	614982	keystroke_Key.space	Key.space	n/a
307.641	0.075	615282	keystroke_g	g	n/a
307.761	0.21	615522	keystroke_r	r	n/a
307.956	0.15	615912	keystroke_a	a	n/a
308.001	0.12	616002	keystroke_n	n	n/a
308.541	0.09	617082	keystroke_t	t	n/a
308.616	0.09	617232	keystroke_e	e	n/a
308.751	0.15	617502	keystroke_d	d	n/a
309.156	0.12	618312	keystroke_Key.enter	Key.enter	n/a
309.2795	4.408	618559	prompt	n/a	foam leather wings oldest\n
310.356	0.09	620712	keystroke_f	f	n/a
310.461	0.105	620922	keystroke_o	o	n/a
310.521	0.135	621042	keystroke_a	a	n/a
310.641	0.12	621282	keystroke_m	m	n/a
310.776	0.075	621552	keystroke_Key.space	Key.space	n/a
310.971	0.12	621942	keystroke_l	l	n/a
311.061	0.12	622122	keystroke_e	e	n/a
311.121	0.18	622242	keystroke_a	a	n/a
311.256	0.105	622512	keystroke_t	t	n/a
311.4055	0.1055	622811	keystroke_h	h	n/a
311.496	0.12	622992	keystroke_e	e	n/a
311.556	0.135	623112	keystroke_r	r	n/a
311.646	0.075	623292	keystroke_Key.space	Key.space	n/a
311.781	0.09	623562	keystroke_w	w	n/a
311.856	0.12	623712	keystroke_i	i	n/a
311.946	0.135	623892	keystroke_n	n	n/a
312.036	0.09	624072	keystroke_g	g	n/a
312.186	0.12	624372	keystroke_s	s	n/a
312.321	0.075	624642	keystroke_Key.space	Key.space	n/a
312.696	0.075	625392	keystroke_o	o	n/a
312.831	0.135	625662	keystroke_l	l	n/a
312.936	0.06	625872	keystroke_d	d	n/a
313.086	0.09	626172	keystroke_e	e	n/a
313.191	0.1645	626382	keystroke_s	s	n/a
313.3105	0.12	626621	keystroke_t	t	n/a
313.5805	0.105	627161	keystroke_Key.enter	Key.enter	n/a
313.692	5.7105	627384	prompt	n/a	groove aged avoid victorian\n
314.496	0.06	628992	keystroke_g	g	n/a
314.661	0.075	629322	keystroke_r	r	n/a
314.811	0.06	629622	keystroke_o	o	n/a
314.946	0.09	629892	keystroke_o	o	n/a
315.051	0.075	630102	keystroke_v	v	n/a
315.231	0.09	630462	keystroke_e	e	n/a
315.321	0.075	630642	keystroke_Key.space	Key.space	n/a
315.456	0.105	630912	keystroke_a	a	n/a
315.576	0.075	631152	keystroke_g	g	n/a
315.726	0.06	631452	keystroke_e	e	n/a
315.876	0.105	631752	keystroke_d	d	n/a
315.966	0.06	631932	keystroke_Key.space	Key.space	n/a
316.071	0.12	632142	keystroke_a	a	n/a
316.161	0.12	632322	keystroke_v	v	n/a
316.326	0.12	632652	keystroke_o	o	n/a
316.416	0.12	632832	keystroke_i	i	n/a
316.656	0.12	633312	keystroke_d	d	n/a
316.791	0.105	633582	keystroke_Key.space	Key.space	n/a
317.496	0.105	634992	keystroke_v	v	n/a
317.586	0.12	635172	keystroke_i	i	n/a
317.721	0.15	635442	keystroke_c	c	n/a
317.976	0.075	635952	keystroke_t	t	n/a
318.066	0.09	636132	keystroke_o	o	n/a
318.141	0.12	636282	keystroke_r	r	n/a
318.246	0.075	636492	keystroke_i	i	n/a
318.321	0.135	636642	keystroke_a	a	n/a
318.561	0.105	637122	keystroke_n	n	n/a
319.296	0.105	638592	keystroke_Key.enter	Key.enter	n/a
319.405	6.8525	638810	prompt	n/a	muslims controller collectors flush\n
320.166	0.09	640332	keystroke_m	m	n/a
320.361	0.105	640722	keystroke_u	u	n/a
320.421	0.105	640842	keystroke_s	s	n/a
320.6005	0.135	641201	keystroke_l	l	n/a
320.7055	0.15	641411	keystroke_i	i	n/a
320.8105	0.15	641621	keystroke_m	m	n/a
321.1405	0.1355	642281	keystroke_s	s	n/a
321.261	0.12	642522	keystroke_Key.space	Key.space	n/a
321.591	0.135	643182	keystroke_c	c	n/a
321.711	0.135	643422	keystroke_o	o	n/a
321.801	0.135	643602	keystroke_n	n	n/a
321.951	0.06	643902	keystroke_t	t	n/a
322.056	0.135	644112	keystroke_r	r	n/a
322.161	0.06	644322	keystroke_o	o	n/a
322.341	0.06	644682	keystroke_l	l	n/a
322.446	0.105	644892	keystroke_l	l	n/a
322.581	0.1195	645162	keystroke_e	e	n/a
322.6555	0.135	645311	keystroke_r	r	n/a
322.7455	0.105	645491	keystroke_Key.space	Key.space	n/a
322.9705	0.12	645941	keystroke_c	c	n/a
323.0455	0.09	646091	keystroke_o	o	n/a
323.2255	0.0755	646451	keystroke_l	l	n/a
323.331	0.105	646662	keystroke_l	l	n/a
323.421	0.135	646842	keystroke_e	e	n/a
323.526	0.12	647052	keystroke_c	c	n/a
323.736	0.0745	647472	keystroke_t	t	n/a
323.8405	0.105	647681	keystroke_o	o	n/a
323.9305	0.09	647861	keystroke_r	r	n/a
324.0805	0.135	648161	keystroke_s	s	n/a
324.2005	0.09	648401	keystroke_Key.space	Key.space	n/a
324.5155	0.09	649031	keystroke_f	f	n/a
324.5905	0.075	649181	keystroke_l	l	n/a
324.6955	0.075	649391	keystroke_u	u	n/a
324.801	0.09	649602	keystroke_s	s	n/a
324.876	0.105	649752	keystroke_h	h	n/a
326.1505	0.105	652301	keystroke_Key.enter	Key.enter	n/a
326.2635	6.384	652527	prompt	n/a	cork beverage configured date\n
327.2005	0.135	654401	keystroke_c	c	n/a
327.3205	0.105	654641	keystroke_o	o	n/a
327.4405	0.06	654881	keystroke_r	r	n/a
327.5155	0.12	655031	keystroke_k	k	n/a
327.5905	0.06	655181	keystroke_Key.space	Key.space	n/a
327.8155	0.075	655631	keystroke_b	b	n/a
328.0405	0.075	656081	keystroke_e	e	n/a
328.2205	0.0905	656441	keystroke_v	v	n/a
328.416	0.06	656832	keystroke_e	e	n/a
328.446	0.09	656892	keystroke_r	r	n/a
328.551	0.135	657102	keystroke_a	a	n/a
328.656	0.09	657312	keystroke_g	g	n/a
328.806	0.12	657612	keystroke_e	e	n/a
328.911	0.06	657822	keystroke_Key.space	Key.space	n/a
329.046	0.12	658092	keystroke_c	c	n/a
329.151	0.09	658302	keystroke_o	o	n/a
329.226	0.12	658452	keystroke_n	n	n/a
329.316	0.09	658632	keystroke_f	f	n/a
329.421	0.09	658842	keystroke_i	i	n/a
329.541	0.09	659082	keystroke_r	r	n/a
330.201	0.06	660402	keystroke_Key.backspace	Key.backspace	n/a
330.441	0.06	660882	keystroke_g	g	n/a
330.561	0.0745	661122	keystroke_u	u	n/a
330.6805	0.135	661361	keystroke_r	r	n/a
330.8455	0.09	661691	keystroke_e	e	n/a
330.9805	0.165	661961	keystroke_d	d	n/a
331.1155	0.12	662231	keystroke_Key.space	Key.space	n/a
331.9555	0.105	663911	keystroke_d	d	n/a
332.0455	0.135	664091	keystroke_a	a	n/a
332.1355	0.135	664271	keystroke_t	t	n/a
332.2405	0.1055	664481	keystroke_e	e	n/a
332.556	0.09	665112	keystroke_Key.enter	Key.enter	n/a
332.66	4.457	665320	prompt	n/a	answer emerald click racing\n
333.336	0.105	666672	keystroke_a	a	n/a
333.426	0.1195	666852	keystroke_n	n	n/a
333.5605	0.12	667121	keystroke_s	s	n/a
333.7855	0.21	667571	keystroke_w	w	n/a
333.9805	0.18	667961	keystroke_e	e	n/a
334.0855	0.18	668171	keystroke_r	r	n/a
334.2055	0.105	668411	keystroke_Key.space	Key.space	n/a
334.4455	0.135	668891	keystroke_e	e	n/a
334.6105	0.12	669221	keystroke_m	m	n/a
334.7455	0.12	669491	keystroke_e	e	n/a
334.8505	0.105	669701	keystroke_r	r	n/a
334.9705	0.135	669941	keystroke_a	a	n/a
335.1355	0.12	670271	keystroke_l	l	n/a
335.2405	0.105	670481	keystroke_d	d	n/a
335.3155	0.075	670631	keystroke_Key.space	Key.space	n/a
335.4955	0.09	670991	keystroke_c	c	n/a
335.5705	0.09	671141	keystroke_l	l	n/a
335.6305	0.12	671261	keystroke_i	i	n/a
335.7515	0.104	671503	keystroke_c	c	n/a
335.8255	0.1355	671651	keystroke_k	k	n/a
335.976	0.075	671952	keystroke_Key.space	Key.space	n/a
336.111	0.09	672222	keystroke_r	r	n/a
336.202	0.179	672404	keystroke_a	a	n/a
336.351	0.1495	672702	keystroke_c	c	n/a
336.486	0.1045	672972	keystroke_i	i	n/a
336.561	0.1345	673122	keystroke_n	n	n/a
336.6055	0.105	673211	keystroke_g	g	n/a
337.0105	0.105	674021	keystroke_Key.enter	Key.enter	n/a
337.1215	8.666	674243	prompt	n/a	implications bike covering durham\n
337.836	0.12	675672	keystroke_i	i	n/a
337.941	0.135	675882	keystroke_m	m	n/a
338.091	0.105	676182	keystroke_p	p	n/a
338.301	0.12	676602	keystroke_l	l	n/a
338.376	0.12	676752	keystroke_i	i	n/a
338.481	0.1645	676962	keystroke_c	c	n/a
338.6305	0.135	677261	keystroke_a	a	n/a
338.7805	0.045	677561	keystroke_a	a	n/a
338.8405	0.09	677681	keystroke_t	t	n/a
338.9455	0.18	677891	keystroke_i	i	n/a
339.0355	0.105	678071	keystroke_o	o	n/a
339.0955	0.12	678191	keystroke_n	n	n/a
339.2165	0.134	678433	keystroke_s	s	n/a
339.3205	0.105	678641	keystroke_Key.space	Key.space	n/a
339.5905	0.12	679181	keystroke_b	b	n/a
340.2355	0.06	680471	keystroke_Key.backspace	Key.backspace	n/a
340.4605	0.06	680921	keystroke_Key.backspace	Key.backspace	n/a
340.6855	0.06	681371	keystroke_Key.backspace	Key.backspace	n/a
340.9405	0.045	681881	keystroke_Key.backspace	Key.backspace	n/a
341.1505	0.06	682301	keystroke_Key.backspace	Key.backspace	n/a
341.4055	0.075	682811	keystroke_Key.backspace	Key.backspace	n/a
341.6605	0.06	683321	keystroke_Key.backspace	Key.backspace	n/a
341.9155	0.06	683831	keystroke_Key.backspace	Key.backspace	n/a
342.5905	0.075	685181	keystroke_t	t	n/a
342.7105	0.135	685421	keystroke_i	i	n/a
342.8005	0.105	685601	keystroke_o	o	n/a
342.8905	0.105	685781	keystroke_n	n	n/a
342.9505	0.12	685901	keystroke_s	s	n/a
343.0715	0.074	686143	keystroke_Key.space	Key.space	n/a
343.2055	0.105	686411	keystroke_b	b	n/a
343.2805	0.09	686561	keystroke_i	i	n/a
343.4005	0.12	686801	keystroke_k	k	n/a
343.4905	0.135	686981	keystroke_e	e	n/a
343.6405	0.09	687281	keystroke_Key.space	Key.space	n/a
343.8805	0.105	687761	keystroke_c	c	n/a
343.9705	0.105	687941	keystroke_o	o	n/a
344.0905	0.0755	688181	keystroke_v	v	n/a
344.256	0.135	688512	keystroke_e	e	n/a
344.316	0.105	688632	keystroke_r	r	n/a
344.451	0.135	688902	keystroke_i	i	n/a
344.526	0.1345	689052	keystroke_n	n	n/a
344.6005	0.09	689201	keystroke_g	g	n/a
344.6755	0.0755	689351	keystroke_Key.space	Key.space	n/a
344.841	0.09	689682	keystroke_d	d	n/a
344.946	0.075	689892	keystroke_u	u	n/a
345.006	0.075	690012	keystroke_r	r	n/a
345.141	0.09	690282	keystroke_h	h	n/a
345.231	0.12	690462	keystroke_a	a	n/a
345.336	0.105	690672	keystroke_m	m	n/a
345.696	0.09	691392	keystroke_Key.enter	Key.enter	n/a
345.7905	5.577	691581	prompt	n/a	modular beds tracker genetic\n
346.431	0.09	692862	keystroke_m	m	n/a
346.536	0.12	693072	keystroke_o	o	n/a
346.641	0.09	693282	keystroke_d	d	n/a
346.732	0.074	693464	keystroke_u	u	n/a
346.821	0.12	693642	keystroke_l	l	n/a
346.911	0.165	693822	keystroke_a	a	n/a
347.091	0.12	694182	keystroke_r	r	n/a
347.181	0.075	694362	keystroke_Key.space	Key.space	n/a
347.406	0.105	694812	keystroke_m	m	n/a
347.676	0.06	695352	keystroke_Key.backspace	Key.backspace	n/a
348.141	0.06	696282	keystroke_b	b	n/a
348.291	0.0745	696582	keystroke_e	e	n/a
348.4555	0.075	696911	keystroke_d	d	n/a
348.591	0.1495	697182	keystroke_s	s	n/a
348.7105	0.075	697421	keystroke_Key.space	Key.space	n/a
348.8605	0.075	697721	keystroke_t	t	n/a
349.0415	0.119	698083	keystroke_r	r	n/a
349.1755	0.18	698351	keystroke_a	a	n/a
349.3105	0.12	698621	keystroke_c	c	n/a
349.4155	0.12	698831	keystroke_k	k	n/a
349.5665	0.134	699133	keystroke_e	e	n/a
349.6555	0.135	699311	keystroke_r	r	n/a
349.7455	0.06	699491	keystroke_Key.space	Key.space	n/a
350.0155	0.06	700031	keystroke_g	g	n/a
350.1355	0.075	700271	keystroke_e	e	n/a
350.2405	0.105	700481	keystroke_n	n	n/a
350.3605	0.15	700721	keystroke_e	e	n/a
350.4955	0.105	700991	keystroke_t	t	n/a
350.6455	0.09	701291	keystroke_i	i	n/a
350.7505	0.165	701501	keystroke_c	c	n/a
351.2755	0.09	702551	keystroke_Key.enter	Key.enter	n/a
351.3705	7.962	702741	prompt	n/a	bernard execute glory scheduled\n
352.356	0.09	704712	keystroke_b	b	n/a
352.581	0.15	705162	keystroke_e	e	n/a
352.776	0.105	705552	keystroke_r	r	n/a
353.016	0.09	706032	keystroke_n	n	n/a
353.15	0.165	706300	keystroke_a	a	n/a
353.271	0.1345	706542	keystroke_r	r	n/a
353.466	0.1345	706932	keystroke_d	d	n/a
353.555	0.105	707110	keystroke_Key.space	Key.space	n/a
353.7215	0.074	707443	keystroke_e	e	n/a
353.9155	0.076	707831	keystroke_x	x	n/a
354.0965	0.089	708193	keystroke_e	e	n/a
354.3065	0.105	708613	keystroke_c	c	n/a
354.4255	0.09	708851	keystroke_u	u	n/a
354.5455	0.09	709091	keystroke_t	t	n/a
354.6805	0.09	709361	keystroke_e	e	n/a
354.7555	0.075	709511	keystroke_Key.space	Key.space	n/a
354.9355	0.075	709871	keystroke_g	g	n/a
354.9955	0.0605	709991	keystroke_l	l	n/a
355.131	0.105	710262	keystroke_o	o	n/a
355.266	0.12	710532	keystroke_r	r	n/a
355.371	0.09	710742	keystroke_Key.space	Key.space	n/a
356.271	0.075	712542	keystroke_Key.backspace	Key.backspace	n/a
356.556	0.09	713112	keystroke_y	y	n/a
356.946	0.12	713892	keystroke_Key.space	Key.space	n/a
357.381	0.09	714762	keystroke_s	s	n/a
357.546	0.135	715092	keystroke_c	c	n/a
357.711	0.105	715422	keystroke_h	h	n/a
357.891	0.06	715782	keystroke_e	e	n/a
358.041	0.075	716082	keystroke_d	d	n/a
358.101	0.09	716202	keystroke_u	u	n/a
358.221	0.15	716442	keystroke_l	l	n/a
358.386	0.045	716772	keystroke_e	e	n/a
358.491	0.135	716982	keystroke_d	d	n/a
358.596	0.105	717192	keystroke_Key.space	Key.space	n/a
359.151	0.18	718302	keystroke_Key.enter	Key.enter	n/a
359.3355	8.712	718671	prompt	n/a	reported hurricane clinics elephant\n
360.6355	0.135	721271	keystroke_r	r	n/a
360.7555	0.09	721511	keystroke_e	e	n/a
361.2205	0.09	722441	keystroke_p	p	n/a
361.3555	0.105	722711	keystroke_o	o	n/a
361.4755	0.075	722951	keystroke_r	r	n/a
361.6405	0.1055	723281	keystroke_t	t	n/a
361.716	0.0895	723432	keystroke_e	e	n/a
361.866	0.12	723732	keystroke_d	d	n/a
361.956	0.105	723912	keystroke_Key.space	Key.space	n/a
362.196	0.06	724392	keystroke_h	h	n/a
362.331	0.09	724662	keystroke_u	u	n/a
362.526	0.03	725052	keystroke_r	r	n/a
362.616	0.09	725232	keystroke_r	r	n/a
362.766	0.105	725532	keystroke_i	i	n/a
362.901	0.12	725802	keystroke_c	c	n/a
363.006	0.105	726012	keystroke_a	a	n/a
363.096	0.105	726192	keystroke_n	n	n/a
363.231	0.105	726462	keystroke_e	e	n/a
363.351	0.0595	726702	keystroke_Key.space	Key.space	n/a
363.546	0.075	727092	keystroke_c	c	n/a
363.636	0.075	727272	keystroke_l	l	n/a
363.696	0.105	727392	keystroke_i	i	n/a
363.906	0.105	727812	keystroke_n	n	n/a
363.996	0.105	727992	keystroke_i	i	n/a
364.131	0.12	728262	keystroke_c	c	n/a
364.266	0.165	728532	keystroke_s	s	n/a
364.446	0.09	728892	keystroke_Key.space	Key.space	n/a
364.8055	0.06	729611	keystroke_e	e	n/a
364.8955	0.12	729791	keystroke_l	l	n/a
365.0165	0.044	730033	keystroke_e	e	n/a
365.4805	0.105	730961	keystroke_p	p	n/a
365.5405	0.1055	731081	keystroke_h	h	n/a
365.661	0.1195	731322	keystroke_a	a	n/a
365.7655	0.105	731531	keystroke_n	n	n/a
365.931	0.075	731862	keystroke_t	t	n/a
366.096	0.1345	732192	keystroke_s	s	n/a
366.216	0.0745	732432	keystroke_Key.space	Key.space	n/a
366.6355	0.075	733271	keystroke_Key.backspace	Key.backspace	n/a
366.9805	0.06	733961	keystroke_Key.backspace	Key.backspace	n/a
367.9555	0.09	735911	keystroke_Key.enter	Key.enter	n/a
368.055	5.198	736110	prompt	n/a	disagree rays characterized pull\n
368.8705	0.075	737741	keystroke_d	d	n/a
369.0055	0.105	738011	keystroke_i	i	n/a
369.0955	0.06	738191	keystroke_s	s	n/a
369.2605	0.15	738521	keystroke_a	a	n/a
369.3955	0.075	738791	keystroke_g	g	n/a
369.5455	0.105	739091	keystroke_r	r	n/a
369.6355	0.195	739271	keystroke_e	e	n/a
369.9205	0.09	739841	keystroke_e	e	n/a
370.071	0.075	740142	keystroke_Key.space	Key.space	n/a
370.221	0.135	740442	keystroke_r	r	n/a
370.341	0.12	740682	keystroke_a	a	n/a
370.491	0.09	740982	keystroke_y	y	n/a
370.5955	0.105	741191	keystroke_s	s	n/a
370.6705	0.09	741341	keystroke_Key.space	Key.space	n/a
370.8805	0.105	741761	keystroke_c	c	n/a
370.9705	0.09	741941	keystroke_h	h	n/a
371.0455	0.121	742091	keystroke_a	a	n/a
371.1505	0.09	742301	keystroke_r	r	n/a
371.2555	0.105	742511	keystroke_a	a	n/a
371.3455	0.091	742691	keystroke_c	c	n/a
371.5405	0.06	743081	keystroke_t	t	n/a
371.6455	0.121	743291	keystroke_e	e	n/a
371.7055	0.12	743411	keystroke_r	r	n/a
371.8555	0.105	743711	keystroke_i	i	n/a
371.9765	0.089	743953	keystroke_z	z	n/a
372.1255	0.075	744251	keystroke_e	e	n/a
372.2605	0.105	744521	keystroke_d	d	n/a
372.3205	0.105	744641	keystroke_Key.space	Key.space	n/a
372.4405	0.105	744881	keystroke_p	p	n/a
372.5315	0.089	745063	keystroke_u	u	n/a
372.6805	0.075	745361	keystroke_l	l	n/a
372.8305	0.06	745661	keystroke_l	l	n/a
373.1605	0.09	746321	keystroke_Key.enter	Key.enter	n/a
373.256	4.7215	746512	prompt	n/a	extraction header privacy cape\n
373.9705	0.045	747941	keystroke_e	e	n/a
374.1205	0.075	748241	keystroke_x	x	n/a
374.3155	0.075	748631	keystroke_t	t	n/a
374.4655	0.105	748931	keystroke_r	r	n/a
374.5855	0.165	749171	keystroke_a	a	n/a
374.7055	0.135	749411	keystroke_c	c	n/a
374.9455	0.075	749891	keystroke_t	t	n/a
375.0355	0.18	750071	keystroke_i	i	n/a
375.1255	0.105	750251	keystroke_o	o	n/a
375.1855	0.075	750371	keystroke_n	n	n/a
375.2755	0.075	750551	keystroke_Key.space	Key.space	n/a
375.3655	0.09	750731	keystroke_h	h	n/a
375.4405	0.09	750881	keystroke_e	e	n/a
375.5155	0.12	751031	keystroke_a	a	n/a
375.6205	0.09	751241	keystroke_d	d	n/a
375.8305	0.121	751661	keystroke_e	e	n/a
375.9055	0.12	751811	keystroke_r	r	n/a
375.9955	0.075	751991	keystroke_Key.space	Key.space	n/a
376.266	0.09	752532	keystroke_p	p	n/a
376.371	0.075	752742	keystroke_r	r	n/a
376.461	0.09	752922	keystroke_i	i	n/a
376.566	0.135	753132	keystroke_v	v	n/a
376.731	0.15	753462	keystroke_a	a	n/a
376.821	0.165	753642	keystroke_c	c	n/a
376.971	0.105	753942	keystroke_y	y	n/a
377.106	0.075	754212	keystroke_Key.space	Key.space	n/a
377.316	0.105	754632	keystroke_c	c	n/a
377.391	0.12	754782	keystroke_a	a	n/a
377.481	0.12	754962	keystroke_p	p	n/a
377.646	0.06	755292	keystroke_e	e	n/a
377.871	0.105	755742	keystroke_Key.enter	Key.enter	n/a
377.98	9.5525	755960	prompt	n/a	config sherman margaret innovative\n
378.711	0.09	757422	keystroke_c	c	n/a
378.771	0.075	757542	keystroke_o	o	n/a
378.831	0.09	757662	keystroke_n	n	n/a
378.906	0.075	757812	keystroke_f	f	n/a
378.966	0.105	757932	keystroke_i	i	n/a
379.101	0.09	758202	keystroke_g	g	n/a
379.221	0.075	758442	keystroke_Key.space	Key.space	n/a
379.416	0.075	758832	keystroke_s	s	n/a
379.506	0.105	759012	keystroke_h	h	n/a
379.596	0.105	759192	keystroke_e	e	n/a
379.656	0.09	759312	keystroke_r	r	n/a
379.746	0.105	759492	keystroke_m	m	n/a
379.881	0.12	759762	keystroke_a	a	n/a
379.971	0.12	759942	keystroke_n	n	n/a
380.076	0.075	760152	keystroke_Key.space	Key.space	n/a
380.391	0.09	760782	keystroke_m	m	n/a
380.601	0.1495	761202	keystroke_a	a	n/a
380.7055	0.075	761411	keystroke_r	r	n/a
380.8855	0.0755	761771	keystroke_g	g	n/a
380.991	0.18	761982	keystroke_a	a	n/a
381.126	0.09	762252	keystroke_r	r	n/a
381.906	0.075	763812	keystroke_Key.backspace	Key.backspace	n/a
382.2805	0.12	764561	keystroke_r	r	n/a
382.656	0.12	765312	keystroke_e	e	n/a
382.746	0.149	765492	keystroke_t	t	n/a
382.866	0.075	765732	keystroke_Key.space	Key.space	n/a
383.03	0.106	766060	keystroke_i	i	n/a
383.106	0.089	766212	keystroke_n	n	n/a
383.631	0.0745	767262	keystroke_Key.backspace	Key.backspace	n/a
383.9615	0.059	767923	keystroke_n	n	n/a
384.0955	0.0755	768191	keystroke_n	n	n/a
384.261	0.105	768522	keystroke_o	o	n/a
384.396	0.105	768792	keystroke_v	v	n/a
384.516	0.15	769032	keystroke_a	a	n/a
384.636	0.075	769272	keystroke_t	t	n/a
384.726	0.09	769452	keystroke_i	i	n/a
384.921	0.1045	769842	keystroke_v	v	n/a
385.0855	0.12	770171	keystroke_e	e	n/a
385.2205	0.09	770441	keystroke_Key.space	Key.space	n/a
387.5185	0.0125	775037	keystroke_Key.enter	Key.enter	n/a
387.538	5.2295	775076	prompt	n/a	academic matt weed maldives\n
388.296	0.105	776592	keystroke_a	a	n/a
388.446	0.12	776892	keystroke_c	c	n/a
388.551	0.105	777102	keystroke_a	a	n/a
388.716	0.075	777432	keystroke_d	d	n/a
388.896	0.075	777792	keystroke_e	e	n/a
388.986	0.12	777972	keystroke_m	m	n/a
389.091	0.105	778182	keystroke_i	i	n/a
389.166	0.135	778332	keystroke_c	c	n/a
389.451	0.12	778902	keystroke_m	m	n/a
389.811	0.075	779622	keystroke_Key.backspace	Key.backspace	n/a
389.916	0.105	779832	keystroke_Key.space	Key.space	n/a
390.081	0.105	780162	keystroke_m	m	n/a
390.216	0.135	780432	keystroke_a	a	n/a
390.366	0.06	780732	keystroke_t	t	n/a
390.501	0.09	781002	keystroke_t	t	n/a
390.6205	0.075	781241	keystroke_Key.space	Key.space	n/a
390.7255	0.09	781451	keystroke_w	w	n/a
390.8305	0.075	781661	keystroke_e	e	n/a
390.9515	0.074	781903	keystroke_e	e	n/a
391.1305	0.105	782261	keystroke_d	d	n/a
391.2205	0.09	782441	keystroke_Key.space	Key.space	n/a
391.5655	0.105	783131	keystroke_m	m	n/a
391.6855	0.09	783371	keystroke_a	a	n/a
391.7905	0.12	783581	keystroke_l	l	n/a
392.0005	0.075	784001	keystroke_d	d	n/a
392.0905	0.105	784181	keystroke_i	i	n/a
392.2105	0.06	784421	keystroke_v	v	n/a
392.3305	0.12	784661	keystroke_e	e	n/a
392.4515	0.134	784903	keystroke_s	s	n/a
392.646	0.12	785292	keystroke_Key.enter	Key.enter	n/a
392.7705	17.952	785541	prompt	n/a	tuesday classification preview ensure\n
393.5155	0.075	787031	keystroke_t	t	n/a
393.6505	0.09	787301	keystroke_u	u	n/a
393.7555	0.045	787511	keystroke_e	e	n/a
393.8605	0.091	787721	keystroke_s	s	n/a
394.0255	0.12	788051	keystroke_d	d	n/a
394.1155	0.12	788231	keystroke_a	a	n/a
394.2205	0.09	788441	keystroke_y	y	n/a
394.3405	0.075	788681	keystroke_Key.space	Key.space	n/a
394.7305	0.135	789461	keystroke_c	c	n/a
394.8055	0.105	789611	keystroke_a	a	n/a
394.9115	0.089	789823	keystroke_l	l	n/a
395.3905	0.06	790781	keystroke_Key.backspace	Key.backspace	n/a
395.6455	0.06	791291	keystroke_Key.backspace	Key.backspace	n/a
395.7655	0.18	791531	keystroke_f	f	n/a
395.9305	0.12	791861	keystroke_l	l	n/a
396.0955	0.12	792191	keystroke_a	a	n/a
396.2905	0.075	792581	keystroke_s	s	n/a
396.4255	0.09	792851	keystroke_s	s	n/a
396.5605	0.075	793121	keystroke_i	i	n/a
396.6655	0.105	793331	keystroke_f	f	n/a
396.7855	0.075	793571	keystroke_i	i	n/a
396.8905	0.12	793781	keystroke_c	c	n/a
396.9955	0.18	793991	keystroke_a	a	n/a
397.1305	0.135	794261	keystroke_t	t	n/a
397.2205	0.18	794441	keystroke_i	i	n/a
397.326	0.105	794652	keystroke_o	o	n/a
397.386	0.1195	794772	keystroke_n	n	n/a
397.626	0.0895	795252	keystroke_Key.space	Key.space	n/a
397.9105	0.12	795821	keystroke_p	p	n/a
397.9705	0.135	795941	keystroke_r	r	n/a
398.0905	0.06	796181	keystroke_e	e	n/a
398.2255	0.105	796451	keystroke_v	v	n/a
398.3455	0.105	796691	keystroke_i	i	n/a
398.4355	0.135	796871	keystroke_e	e	n/a
398.5105	0.165	797021	keystroke_w	w	n/a
399.3805	0.09	798761	keystroke_Key.backspace	Key.backspace	n/a
399.5905	0.06	799181	keystroke_Key.backspace	Key.backspace	n/a
399.8015	0.06	799603	keystroke_Key.backspace	Key.backspace	n/a
399.9955	0.0755	799991	keystroke_Key.backspace	Key.backspace	n/a
400.236	0.06	800472	keystroke_Key.backspace	Key.backspace	n/a
400.446	0.06	800892	keystroke_Key.backspace	Key.backspace	n/a
400.6405	0.075	801281	keystroke_Key.backspace	Key.backspace	n/a
400.8505	0.06	801701	keystroke_Key.backspace	Key.backspace	n/a
401.0455	0.075	802091	keystroke_Key.backspace	Key.backspace	n/a
401.2405	0.075	802481	keystroke_Key.backspace	Key.backspace	n/a
401.4805	0.06	802961	keystroke_Key.backspace	Key.backspace	n/a
401.6755	0.075	803351	keystroke_Key.backspace	Key.backspace	n/a
401.8705	0.075	803741	keystroke_Key.backspace	Key.backspace	n/a
402.0655	0.075	804131	keystroke_Key.backspace	Key.backspace	n/a
402.2605	0.075	804521	keystroke_Key.backspace	Key.backspace	n/a
402.4555	0.09	804911	keystroke_Key.backspace	Key.backspace	n/a
402.6655	0.075	805331	keystroke_Key.backspace	Key.backspace	n/a
402.8605	0.075	805721	keystroke_Key.backspace	Key.backspace	n/a
403.0555	0.075	806111	keystroke_Key.backspace	Key.backspace	n/a
403.2955	0.075	806591	keystroke_Key.backspace	Key.backspace	n/a
403.5355	0.075	807071	keystroke_Key.backspace	Key.backspace	n/a
404.106	0.045	808212	keystroke_Key.backspace	Key.backspace	n/a
404.7355	0.105	809471	keystroke_l	l	n/a
404.8705	0.135	809741	keystroke_a	a	n/a
404.9905	0.165	809981	keystroke_s	s	n/a
405.2605	0.045	810521	keystroke_s	s	n/a
405.6055	0.0755	811211	keystroke_i	i	n/a
405.7255	0.09	811451	keystroke_f	f	n/a
405.831	0.1045	811662	keystroke_i	i	n/a
405.9655	0.135	811931	keystroke_c	c	n/a
406.1305	0.18	812261	keystroke_a	a	n/a
406.2655	0.105	812531	keystroke_t	t	n/a
406.3555	0.15	812711	keystroke_i	i	n/a
406.4455	0.09	812891	keystroke_o	o	n/a
406.5205	0.0905	813041	keystroke_n	n	n/a
406.9705	0.09	813941	keystroke_Key.space	Key.space	n/a
408.2005	0.105	816401	keystroke_Key.backspace	Key.backspace	n/a
408.7565	0.104	817513	keystroke_Key.space	Key.space	n/a
409.011	0.1045	818022	keystroke_p	p	n/a
409.1465	0.1345	818293	keystroke_r	r	n/a
409.2515	0.09	818503	keystroke_e	e	n/a
409.4165	0.105	818833	keystroke_v	v	n/a
409.5065	0.1045	819013	keystroke_i	i	n/a
409.626	0.135	819252	keystroke_e	e	n/a
409.716	0.105	819432	keystroke_w	w	n/a
409.806	0.09	819612	keystroke_Key.space	Key.space	n/a
409.971	0.075	819942	keystroke_e	e	n/a
410.031	0.105	820062	keystroke_n	n	n/a
410.151	0.12	820302	keystroke_s	s	n/a
410.256	0.09	820512	keystroke_u	u	n/a
410.331	0.15	820662	keystroke_r	r	n/a
410.421	0.135	820842	keystroke_e	e	n/a
410.6305	0.09	821261	keystroke_Key.enter	Key.enter	n/a
410.7255	7.228	821451	prompt	n/a	schemes internship novels certification\n
411.651	0.1495	823302	keystroke_s	s	n/a
411.8755	0.135	823751	keystroke_c	c	n/a
412.0555	0.106	824111	keystroke_h	h	n/a
412.2205	0.06	824441	keystroke_e	e	n/a
412.3705	0.12	824741	keystroke_m	m	n/a
412.4605	0.09	824921	keystroke_e	e	n/a
413.1955	0.105	826391	keystroke_s	s	n/a
413.3455	0.075	826691	keystroke_Key.space	Key.space	n/a
413.5405	0.075	827081	keystroke_i	i	n/a
413.6305	0.12	827261	keystroke_n	n	n/a
413.7355	0.075	827471	keystroke_t	t	n/a
413.8555	0.105	827711	keystroke_e	e	n/a
413.9155	0.09	827831	keystroke_r	r	n/a
413.9755	0.12	827951	keystroke_n	n	n/a
414.1705	0.105	828341	keystroke_s	s	n/a
414.2905	0.075	828581	keystroke_h	h	n/a
414.4405	0.09	828881	keystroke_i	i	n/a
414.606	0.1195	829212	keystroke_p	p	n/a
414.7705	0.075	829541	keystroke_Key.space	Key.space	n/a
414.9055	0.075	829811	keystroke_n	n	n/a
414.9655	0.1355	829931	keystroke_o	o	n/a
415.116	0.0895	830232	keystroke_v	v	n/a
415.2655	0.09	830531	keystroke_e	e	n/a
415.3705	0.12	830741	keystroke_l	l	n/a
415.4915	0.134	830983	keystroke_s	s	n/a
415.6405	0.075	831281	keystroke_Key.space	Key.space	n/a
416.0455	0.105	832091	keystroke_c	c	n/a
416.2115	0.134	832423	keystroke_e	e	n/a
416.2855	0.075	832571	keystroke_r	r	n/a
416.466	0.075	832932	keystroke_t	t	n/a
416.616	0.09	833232	keystroke_i	i	n/a
416.736	0.075	833472	keystroke_f	f	n/a
416.826	0.12	833652	keystroke_i	i	n/a
416.961	0.075	833922	keystroke_c	c	n/a
417.051	0.165	834102	keystroke_a	a	n/a
417.171	0.105	834342	keystroke_t	t	n/a
417.231	0.18	834462	keystroke_i	i	n/a
417.336	0.105	834672	keystroke_o	o	n/a
417.396	0.135	834792	keystroke_n	n	n/a
417.861	0.09	835722	keystroke_Key.enter	Key.enter	n/a
417.9575	5.605	835915	prompt	n/a	mary residence explicit trades\n
418.551	0.1045	837102	keystroke_m	m	n/a
418.6255	0.196	837251	keystroke_a	a	n/a
418.7755	0.195	837551	keystroke_r	r	n/a
418.9255	0.091	837851	keystroke_y	y	n/a
418.9715	0.059	837943	keystroke_Key.space	Key.space	n/a
419.2105	0.105	838421	keystroke_r	r	n/a
419.3005	0.18	838601	keystroke_e	e	n/a
419.4055	0.135	838811	keystroke_s	s	n/a
419.7655	0.105	839531	keystroke_i	i	n/a
419.9155	0.09	839831	keystroke_d	d	n/a
420.0655	0.105	840131	keystroke_e	e	n/a
420.1855	0.105	840371	keystroke_n	n	n/a
420.3055	0.105	840611	keystroke_c	c	n/a
420.3805	0.165	840761	keystroke_e	e	n/a
420.5005	0.09	841001	keystroke_Key.space	Key.space	n/a
420.6505	0.06	841301	keystroke_e	e	n/a
420.8305	0.105	841661	keystroke_x	x	n/a
421.0105	0.105	842021	keystroke_p	p	n/a
421.2205	0.135	842441	keystroke_l	l	n/a
421.3105	0.105	842621	keystroke_i	i	n/a
421.4305	0.15	842861	keystroke_c	c	n/a
421.5955	0.105	843191	keystroke_i	i	n/a
421.7155	0.075	843431	keystroke_t	t	n/a
422.061	0.045	844122	keystroke_Key.space	Key.space	n/a
422.3015	0.0595	844603	keystroke_t	t	n/a
422.4965	0.12	844993	keystroke_r	r	n/a
422.6015	0.105	845203	keystroke_a	a	n/a
422.7215	0.075	845443	keystroke_d	d	n/a
422.8715	0.135	845743	keystroke_e	e	n/a
422.9015	0.18	845803	keystroke_s	s	n/a
423.456	0.105	846912	keystroke_Key.enter	Key.enter	n/a
423.5675	6.28	847135	prompt	n/a	theaters sword weird notices\n
425.346	0.0895	850692	keystroke_t	t	n/a
425.4355	0.12	850871	keystroke_h	h	n/a
425.511	0.15	851022	keystroke_e	e	n/a
425.631	0.135	851262	keystroke_a	a	n/a
425.706	0.105	851412	keystroke_t	t	n/a
425.856	0.0895	851712	keystroke_e	e	n/a
425.9155	0.12	851831	keystroke_r	r	n/a
426.0505	0.136	852101	keystroke_s	s	n/a
426.1705	0.09	852341	keystroke_Key.space	Key.space	n/a
426.7405	0.075	853481	keystroke_s	s	n/a
426.9055	0.075	853811	keystroke_w	w	n/a
426.9955	0.1205	853991	keystroke_o	o	n/a
427.0705	0.1505	854141	keystroke_r	r	n/a
427.206	0.1645	854412	keystroke_d	d	n/a
427.3255	0.1055	854651	keystroke_Key.space	Key.space	n/a
427.5355	0.15	855071	keystroke_w	w	n/a
427.6555	0.1355	855311	keystroke_e	e	n/a
427.776	0.0895	855552	keystroke_i	i	n/a
427.8505	0.24	855701	keystroke_r	r	n/a
428.076	0.1645	856152	keystroke_d	d	n/a
428.6455	0.12	857291	keystroke_Key.space	Key.space	n/a
428.8255	0.09	857651	keystroke_n	n	n/a
428.8855	0.075	857771	keystroke_o	o	n/a
428.9615	0.074	857923	keystroke_t	t	n/a
429.0505	0.09	858101	keystroke_i	i	n/a
429.1705	0.105	858341	keystroke_c	c	n/a
429.2905	0.12	858581	keystroke_e	e	n/a
429.3955	0.165	858791	keystroke_s	s	n/a
429.7555	0.09	859511	keystroke_Key.enter	Key.enter	n/a
429.851	9.5665	859702	prompt	n/a	algebra curious knowledgestorm figure\n
430.536	0.15	861072	keystroke_a	a	n/a
430.641	0.12	861282	keystroke_l	l	n/a
430.986	0.045	861972	keystroke_g	g	n/a
431.106	0.075	862212	keystroke_e	e	n/a
431.271	0.06	862542	keystroke_b	b	n/a
431.406	0.135	862812	keystroke_r	r	n/a
431.511	0.15	863022	keystroke_a	a	n/a
431.616	0.09	863232	keystroke_Key.space	Key.space	n/a
431.781	0.075	863562	keystroke_c	c	n/a
431.841	0.075	863682	keystroke_u	u	n/a
431.961	0.09	863922	keystroke_r	r	n/a
432.052	0.194	864104	keystroke_i	i	n/a
432.141	0.105	864282	keystroke_o	o	n/a
432.216	0.12	864432	keystroke_u	u	n/a
432.3805	0.165	864761	keystroke_s	s	n/a
432.5155	0.0905	865031	keystroke_Key.space	Key.space	n/a
432.831	0.165	865662	keystroke_k	k	n/a
432.951	0.12	865902	keystroke_n	n	n/a
433.026	0.09	866052	keystroke_o	o	n/a
433.206	0.105	866412	keystroke_l	l	n/a
433.296	0.075	866592	keystroke_w	w	n/a
433.476	0.045	866952	keystroke_e	e	n/a
433.596	0.1045	867192	keystroke_d	d	n/a
433.6855	0.135	867371	keystroke_l	l	n/a
433.8805	0.09	867761	keystroke_e	e	n/a
434.8705	0.075	869741	keystroke_Key.backspace	Key.backspace	n/a
435.3805	0.0905	870761	keystroke_Key.backspace	Key.backspace	n/a
436.401	0.0605	872802	keystroke_g	g	n/a
436.5665	0.0595	873133	keystroke_e	e	n/a
436.746	0.09	873492	keystroke_s	s	n/a
436.971	0.06	873942	keystroke_t	t	n/a
437.121	0.09	874242	keystroke_o	o	n/a
437.212	0.089	874424	keystroke_r	r	n/a
437.316	0.075	874632	keystroke_m	m	n/a
437.481	0.075	874962	keystroke_Key.space	Key.space	n/a
438.321	0.105	876642	keystroke_f	f	n/a
438.441	0.06	876882	keystroke_i	i	n/a
438.531	0.06	877062	keystroke_g	g	n/a
438.6055	0.09	877211	keystroke_u	u	n/a
438.6655	0.15	877331	keystroke_r	r	n/a
438.7705	0.135	877541	keystroke_e	e	n/a
439.3255	0.09	878651	keystroke_Key.enter	Key.enter	n/a
439.42	5.4725	878840	prompt	n/a	weblogs carried scanner half\n
440.376	0.12	880752	keystroke_w	w	n/a
440.451	0.12	880902	keystroke_e	e	n/a
440.6765	0.119	881353	keystroke_b	b	n/a
440.8565	0.074	881713	keystroke_l	l	n/a
440.9755	0.105	881951	keystroke_o	o	n/a
441.0955	0.075	882191	keystroke_g	g	n/a
441.2315	0.134	882463	keystroke_s	s	n/a
441.3355	0.075	882671	keystroke_Key.space	Key.space	n/a
441.5155	0.105	883031	keystroke_m	m	n/a
441.8155	0.06	883631	keystroke_Key.backspace	Key.backspace	n/a
442.1005	0.12	884201	keystroke_c	c	n/a
442.266	0.15	884532	keystroke_a	a	n/a
442.446	0.06	884892	keystroke_r	r	n/a
442.566	0.075	885132	keystroke_r	r	n/a
442.701	0.09	885402	keystroke_i	i	n/a
442.836	0.075	885672	keystroke_e	e	n/a
443.001	0.12	886002	keystroke_d	d	n/a
443.076	0.105	886152	keystroke_Key.space	Key.space	n/a
443.241	0.105	886482	keystroke_s	s	n/a
443.376	0.12	886752	keystroke_c	c	n/a
443.511	0.12	887022	keystroke_a	a	n/a
443.616	0.075	887232	keystroke_n	n	n/a
443.751	0.075	887502	keystroke_n	n	n/a
443.931	0.135	887862	keystroke_e	e	n/a
444.006	0.135	888012	keystroke_r	r	n/a
444.111	0.075	888222	keystroke_Key.space	Key.space	n/a
444.321	0.075	888642	keystroke_h	h	n/a
444.381	0.105	888762	keystroke_a	a	n/a
444.471	0.105	888942	keystroke_l	l	n/a
444.561	0.09	889122	keystroke_f	f	n/a
444.786	0.105	889572	keystroke_Key.enter	Key.enter	n/a
444.897	5.8305	889794	prompt	n/a	willow united physically increased\n
445.6705	0.09	891341	keystroke_w	w	n/a
445.8055	0.09	891611	keystroke_i	i	n/a
445.9855	0.06	891971	keystroke_l	l	n/a
446.0905	0.075	892181	keystroke_l	l	n/a
446.2555	0.09	892511	keystroke_o	o	n/a
446.3605	0.105	892721	keystroke_w	w	n/a
446.4665	0.104	892933	keystroke_Key.space	Key.space	n/a
446.7655	0.075	893531	keystroke_u	u	n/a
446.931	0.1045	893862	keystroke_n	n	n/a
447.0055	0.12	894011	keystroke_i	i	n/a
447.1555	0.105	894311	keystroke_t	t	n/a
447.2755	0.06	894551	keystroke_e	e	n/a
447.4105	0.12	894821	keystroke_d	d	n/a
447.4855	0.09	894971	keystroke_Key.space	Key.space	n/a
447.6205	0.121	895241	keystroke_p	p	n/a
447.7565	0.075	895513	keystroke_h	h	n/a
447.9065	0.09	895813	keystroke_y	y	n/a
448.026	0.1205	896052	keystroke_s	s	n/a
