onset	duration	sample	value	key	prompt_text
6.1685	9.9625	12337	prompt	n/a	the quick brown fox jumps over a lazy dog\n
8.5235	0.0585	17047	keystroke_t	t	n/a
8.583	0.119	17166	keystroke_h	h	n/a
8.6865	0.0905	17373	keystroke_e	e	n/a
8.762	0.1345	17524	keystroke_Key.space	Key.space	n/a
9.287	0.0755	18574	keystroke_q	q	n/a
9.5425	0.1645	19085	keystroke_u	u	n/a
9.632	0.135	19264	keystroke_i	i	n/a
9.827	0.1345	19654	keystroke_c	c	n/a
9.9175	0.15	19835	keystroke_k	k	n/a
10.022	0.18	20044	keystroke_Key.space	Key.space	n/a
10.187	0.12	20374	keystroke_b	b	n/a
10.292	0.0895	20584	keystroke_r	r	n/a
10.4115	0.1055	20823	keystroke_o	o	n/a
10.7125	0.06	21425	keystroke_w	w	n/a
10.9815	0.151	21963	keystroke_n	n	n/a
11.0715	0.166	22143	keystroke_Key.space	Key.space	n/a
11.207	0.1355	22414	keystroke_f	f	n/a
11.3265	0.1205	22653	keystroke_o	o	n/a
11.4625	0.135	22925	keystroke_x	x	n/a
11.567	0.1645	23134	keystroke_Key.space	Key.space	n/a
11.642	0.1055	23284	keystroke_j	j	n/a
11.8225	0.074	23645	keystroke_u	u	n/a
12.032	0.1645	24064	keystroke_m	m	n/a
12.1365	0.15	24273	keystroke_p	p	n/a
12.272	0.105	24544	keystroke_s	s	n/a
12.3625	0.1795	24725	keystroke_Key.space	Key.space	n/a
12.4815	0.1205	24963	keystroke_o	o	n/a
12.557	0.105	25114	keystroke_v	v	n/a
12.782	0.15	25564	keystroke_e	e	n/a
12.8875	0.089	25775	keystroke_r	r	n/a
13.0075	0.104	26015	keystroke_Key.space	Key.space	n/a
13.0975	0.119	26195	keystroke_a	a	n/a
13.262	0.1195	26524	keystroke_Key.space	Key.space	n/a
13.397	0.12	26794	keystroke_l	l	n/a
13.472	0.0905	26944	keystroke_a	a	n/a
13.8175	0.0155	27635	keystroke_x	x	n/a
13.8475	0.1345	27695	keystroke_y	y	n/a
13.9225	0.1195	27845	keystroke_Key.space	Key.space	n/a
14.492	0.0155	28984	keystroke_Key.backspace	Key.backspace	n/a
14.522	0.0605	29044	keystroke_Key.backspace	Key.backspace	n/a
14.777	0.0755	29554	keystroke_Key.backspace	Key.backspace	n/a
14.912	0.1355	29824	keystroke_z	z	n/a
15.122	0.1655	30244	keystroke_y	y	n/a
15.2715	0.0905	30543	keystroke_Key.space	Key.space	n/a
15.392	0.1205	30784	keystroke_d	d	n/a
15.5425	0.12	31085	keystroke_o	o	n/a
15.7515	0.0915	31503	keystroke_g	g	n/a
16.052	0.075	32104	keystroke_Key.enter	Key.enter	n/a
16.1375	7.897	32275	prompt	n/a	monroe cartoon motivation entered\n
17.3125	0.15	34625	keystroke_o	o	n/a
17.3125	0.014	34625	keystroke_m	m	n/a
17.702	0.0445	35404	keystroke_Key.backspace	Key.backspace	n/a
17.807	0.075	35614	keystroke_Key.backspace	Key.backspace	n/a
18.0625	0.0895	36125	keystroke_m	m	n/a
18.243	0.059	36486	keystroke_o	o	n/a
18.467	0.1055	36934	keystroke_n	n	n/a
18.752	0.105	37504	keystroke_r	r	n/a
18.963	0.104	37926	keystroke_o	o	n/a
19.082	0.06	38164	keystroke_e	e	n/a
19.172	0.1345	38344	keystroke_Key.space	Key.space	n/a
19.292	0.1505	38584	keystroke_c	c	n/a
19.4865	0.1955	38973	keystroke_a	a	n/a
19.6375	0.1345	39275	keystroke_r	r	n/a
19.922	0.0905	39844	keystroke_t	t	n/a
20.072	0.0595	40144	keystroke_o	o	n/a
20.2065	0.166	40413	keystroke_o	o	n/a
20.3125	0.194	40625	keystroke_n	n	n/a
20.417	0.1655	40834	keystroke_Key.space	Key.space	n/a
20.822	0.075	41644	keystroke_m	m	n/a
20.987	0.1045	41974	keystroke_o	o	n/a
21.782	0.1055	43564	keystroke_t	t	n/a
21.977	0.0755	43954	keystroke_i	i	n/a
22.112	0.0895	44224	keystroke_v	v	n/a
22.3065	0.121	44613	keystroke_a	a	n/a
22.5315	0.0905	45063	keystroke_t	t	n/a
22.592	0.2405	45184	keystroke_i	i	n/a
22.6815	0.195	45363	keystroke_o	o	n/a
22.7565	0.1355	45513	keystroke_n	n	n/a
22.8165	0.135	45633	keystroke_Key.space	Key.space	n/a
22.907	0.105	45814	keystroke_e	e	n/a
23.0425	0.0895	46085	keystroke_n	n	n/a
23.1465	0.091	46293	keystroke_t	t	n/a
23.2815	0.12	46563	keystroke_e	e	n/a
23.3865	0.1355	46773	keystroke_r	r	n/a
23.4925	0.1645	46985	keystroke_e	e	n/a
23.717	0.12	47434	keystroke_d	d	n/a
23.912	0.1195	47824	keystroke_Key.enter	Key.enter	n/a
24.0395	8.035	48079	prompt	n/a	sexuality accept mauritius experts\n
24.617	0.09	49234	keystroke_s	s	n/a
24.7975	0.075	49595	keystroke_e	e	n/a
25.0065	0.121	50013	keystroke_x	x	n/a
25.1865	0.1055	50373	keystroke_u	u	n/a
25.472	0.1045	50944	keystroke_a	a	n/a
25.6215	0.1955	51243	keystroke_l	l	n/a
25.7575	0.1495	51515	keystroke_i	i	n/a
25.8465	0.106	51693	keystroke_t	t	n/a
26.0575	0.0755	52115	keystroke_y	y	n/a
26.1625	0.104	52325	keystroke_Key.space	Key.space	n/a
26.2675	0.1045	52535	keystroke_a	a	n/a
26.492	0.09	52984	keystroke_c	c	n/a
26.777	0.1355	53554	keystroke_e	e	n/a
27.542	0.075	55084	keystroke_Key.backspace	Key.backspace	n/a
27.632	0.1495	55264	keystroke_c	c	n/a
27.7215	0.136	55443	keystroke_e	e	n/a
27.902	0.1355	55804	keystroke_p	p	n/a
28.022	0.12	56044	keystroke_t	t	n/a
28.127	0.1205	56254	keystroke_Key.space	Key.space	n/a
28.487	0.1045	56974	keystroke_m	m	n/a
28.6525	0.1345	57305	keystroke_a	a	n/a
29.012	0.105	58024	keystroke_u	u	n/a
29.717	0.1055	59434	keystroke_r	r	n/a
29.9725	0.105	59945	keystroke_i	i	n/a
30.107	0.106	60214	keystroke_t	t	n/a
30.2135	0.1785	60427	keystroke_i	i	n/a
30.317	0.1655	60634	keystroke_u	u	n/a
30.452	0.1055	60904	keystroke_s	s	n/a
30.572	0.12	61144	keystroke_Key.space	Key.space	n/a
30.677	0.105	61354	keystroke_e	e	n/a
30.902	0.135	61804	keystroke_x	x	n/a
31.1875	0.149	62375	keystroke_p	p	n/a
31.2615	0.166	62523	keystroke_e	e	n/a
31.3825	0.105	62765	keystroke_r	r	n/a
31.6225	0.0905	63245	keystroke_t	t	n/a
31.772	0.135	63544	keystroke_s	s	n/a
31.9215	0.15	63843	keystroke_Key.enter	Key.enter	n/a
32.079	6.865	64158	prompt	n/a	toyota lovers identity values\n
32.747	0.105	65494	keystroke_t	t	n/a
32.867	0.12	65734	keystroke_o	o	n/a
33.1515	0.106	66303	keystroke_y	y	n/a
33.393	0.1045	66786	keystroke_o	o	n/a
33.4675	0.104	66935	keystroke_t	t	n/a
33.6475	0.15	67295	keystroke_a	a	n/a
33.8125	0.1045	67625	keystroke_Key.space	Key.space	n/a
34.0215	0.091	68043	keystroke_l	l	n/a
34.2025	0.09	68405	keystroke_o	o	n/a
34.2475	0.09	68495	keystroke_v	v	n/a
34.4425	0.12	68885	keystroke_e	e	n/a
34.4875	0.12	68975	keystroke_r	r	n/a
34.712	0.0905	69424	keystroke_s	s	n/a
34.817	0.135	69634	keystroke_Key.space	Key.space	n/a
35.057	0.1195	70114	keystroke_i	i	n/a
35.1915	0.151	70383	keystroke_d	d	n/a
35.2975	0.1795	70595	keystroke_e	e	n/a
35.6875	0.104	71375	keystroke_n	n	n/a
35.9125	0.105	71825	keystroke_t	t	n/a
36.1825	0.1045	72365	keystroke_i	i	n/a
36.3325	0.12	72665	keystroke_t	t	n/a
36.4375	0.1045	72875	keystroke_i	i	n/a
36.587	0.1655	73174	keystroke_Key.space	Key.space	n/a
36.782	0.12	73564	keystroke_v	v	n/a
37.202	0.0445	74404	keystroke_Key.backspace	Key.backspace	n/a
37.3075	0.0895	74615	keystroke_Key.backspace	Key.backspace	n/a
37.5025	0.06	75005	keystroke_Key.backspace	Key.backspace	n/a
37.773	0.1495	75546	keystroke_y	y	n/a
37.8925	0.165	75785	keystroke_Key.space	Key.space	n/a
38.0725	0.075	76145	keystroke_v	v	n/a
38.2675	0.105	76535	keystroke_a	a	n/a
38.3875	0.15	76775	keystroke_l	l	n/a
38.5075	0.135	77015	keystroke_u	u	n/a
38.5975	0.18	77195	keystroke_e	e	n/a
38.6875	0.1205	77375	keystroke_s	s	n/a
38.8375	0.105	77675	keystroke_Key.enter	Key.enter	n/a
38.949	9.955	77898	prompt	n/a	absorption berlin robot efficiently\n
39.617	0.1205	79234	keystroke_a	a	n/a
39.827	0.0905	79654	keystroke_b	b	n/a
39.9475	0.1045	79895	keystroke_s	s	n/a
40.202	0.0755	80404	keystroke_o	o	n/a
40.4125	0.1045	80825	keystroke_p	p	n/a
40.5775	0.09	81155	keystroke_r	r	n/a
40.7875	0.09	81575	keystroke_t	t	n/a
40.8625	0.24	81725	keystroke_i	i	n/a
40.9525	0.195	81905	keystroke_o	o	n/a
41.0425	0.15	82085	keystroke_n	n	n/a
41.132	0.1505	82264	keystroke_Key.space	Key.space	n/a
41.3425	0.09	82685	keystroke_b	b	n/a
41.4175	0.12	82835	keystroke_e	e	n/a
41.5075	0.15	83015	keystroke_r	r	n/a
41.6125	0.165	83225	keystroke_l	l	n/a
41.7175	0.24	83435	keystroke_i	i	n/a
41.8825	0.0155	83765	keystroke_n	n	n/a
41.9425	0.18	83885	keystroke_Key.space	Key.space	n/a
42.512	0.045	85024	keystroke_Key.backspace	Key.backspace	n/a
42.887	0.12	85774	keystroke_Key.space	Key.space	n/a
44.8075	0.1195	89615	keystroke_r	r	n/a
44.9725	0.105	89945	keystroke_o	o	n/a
45.182	0.075	90364	keystroke_b	b	n/a
45.392	0.1055	90784	keystroke_o	o	n/a
45.5275	0.0895	91055	keystroke_t	t	n/a
45.677	0.1205	91354	keystroke_Key.space	Key.space	n/a
45.767	0.135	91534	keystroke_a	a	n/a
46.3675	0.059	92735	keystroke_Key.backspace	Key.backspace	n/a
46.4125	0.105	92825	keystroke_e	e	n/a
46.6825	0.06	93365	keystroke_f	f	n/a
46.8475	0.075	93695	keystroke_f	f	n/a
47.3125	0.09	94625	keystroke_i	i	n/a
47.627	0.1205	95254	keystroke_c	c	n/a
47.852	0.1205	95704	keystroke_i	i	n/a
47.9875	0.1195	95975	keystroke_e	e	n/a
48.152	0.1055	96304	keystroke_n	n	n/a
48.287	0.0755	96574	keystroke_t	t	n/a
48.3915	0.196	96783	keystroke_l	l	n/a
48.5275	0.12	97055	keystroke_y	y	n/a
48.8275	0.075	97655	keystroke_Key.enter	Key.enter	n/a
48.908	10.092	97816	prompt	n/a	vessels pizza enhance regarded\n
49.562	0.1055	99124	keystroke_v	v	n/a
49.833	0.074	99666	keystroke_e	e	n/a
50.1925	0.075	100385	keystroke_s	s	n/a
50.3875	0.09	100775	keystroke_s	s	n/a
50.6125	0.06	101225	keystroke_e	e	n/a
50.7775	0.12	101555	keystroke_l	l	n/a
50.8975	0.09	101795	keystroke_s	s	n/a
51.0175	0.195	102035	keystroke_Key.space	Key.space	n/a
51.107	0.2255	102214	keystroke_p	p	n/a
51.2425	0.165	102485	keystroke_i	i	n/a
51.917	0.1205	103834	keystroke_z	z	n/a
52.1875	0.105	104375	keystroke_z	z	n/a
52.443	0.0895	104886	keystroke_a	a	n/a
52.592	0.1655	105184	keystroke_Key.space	Key.space	n/a
52.772	0.12	105544	keystroke_e	e	n/a
52.9375	0.105	105875	keystroke_n	n	n/a
53.207	0.12	106414	keystroke_h	h	n/a
53.312	0.105	106624	keystroke_a	a	n/a
53.4475	0.105	106895	keystroke_n	n	n/a
53.6565	0.1215	107313	keystroke_e	e	n/a
53.7915	0.1205	107583	keystroke_Key.space	Key.space	n/a
54.347	0.045	108694	keystroke_Key.backspace	Key.backspace	n/a
54.4965	0.075	108993	keystroke_Key.backspace	Key.backspace	n/a
54.7825	0.135	109565	keystroke_e	e	n/a
55.2625	0.09	110525	keystroke_Key.backspace	Key.backspace	n/a
56.7175	0.135	113435	keystroke_c	c	n/a
56.972	0.09	113944	keystroke_e	e	n/a
57.122	0.1505	114244	keystroke_Key.space	Key.space	n/a
57.2575	0.09	114515	keystroke_r	r	n/a
57.3025	0.119	114605	keystroke_e	e	n/a
57.498	0.105	114996	keystroke_g	g	n/a
57.7075	0.12	115415	keystroke_a	a	n/a
57.858	0.119	115716	keystroke_r	r	n/a
58.127	0.0905	116254	keystroke_d	d	n/a
58.382	0.1055	116764	keystroke_e	e	n/a
58.6965	0.1065	117393	keystroke_d	d	n/a
58.907	0.0905	117814	keystroke_Key.enter	Key.enter	n/a
59.006	8.739	118012	prompt	n/a	notebooks hybrid bright desperate\n
59.6875	0.09	119375	keystroke_n	n	n/a
59.8815	0.1055	119763	keystroke_o	o	n/a
59.928	0.1495	119856	keystroke_t	t	n/a
60.017	0.1205	120034	keystroke_e	e	n/a
60.1515	0.106	120303	keystroke_b	b	n/a
60.3025	0.075	120605	keystroke_o	o	n/a
60.468	0.1645	120936	keystroke_o	o	n/a
60.5575	0.15	121115	keystroke_k	k	n/a
60.7225	0.1195	121445	keystroke_s	s	n/a
60.827	0.12	121654	keystroke_Key.space	Key.space	n/a
60.992	0.075	121984	keystroke_h	h	n/a
61.157	0.09	122314	keystroke_y	y	n/a
61.3975	0.09	122795	keystroke_b	b	n/a
61.547	0.105	123094	keystroke_r	r	n/a
61.682	0.091	123364	keystroke_i	i	n/a
61.787	0.045	123574	keystroke_r	r	n/a
61.8625	0.1195	123725	keystroke_Key.space	Key.space	n/a
62.042	0.09	124084	keystroke_b	b	n/a
62.148	0.104	124296	keystroke_r	r	n/a
62.5375	0.06	125075	keystroke_Key.backspace	Key.backspace	n/a
62.6575	0.06	125315	keystroke_Key.backspace	Key.backspace	n/a
62.7925	0.06	125585	keystroke_Key.backspace	Key.backspace	n/a
62.9275	0.075	125855	keystroke_Key.backspace	Key.backspace	n/a
63.0775	0.06	126155	keystroke_Key.backspace	Key.backspace	n/a
63.422	0.075	126844	keystroke_Key.backspace	Key.backspace	n/a
64.4425	0.0145	128885	keystroke_r	r	n/a
64.5175	0.1195	129035	keystroke_i	i	n/a
64.6225	0.1045	129245	keystroke_d	d	n/a
64.712	0.1355	129424	keystroke_Key.space	Key.space	n/a
64.877	0.105	129754	keystroke_b	b	n/a
65.012	0.0605	130024	keystroke_r	r	n/a
65.102	0.0755	130204	keystroke_i	i	n/a
65.2375	0.1055	130475	keystroke_g	g	n/a
65.4025	0.105	130805	keystroke_h	h	n/a
65.7015	0.091	131403	keystroke_t	t	n/a
65.9275	0.1195	131855	keystroke_Key.space	Key.space	n/a
66.242	0.075	132484	keystroke_d	d	n/a
66.332	0.12	132664	keystroke_e	e	n/a
66.6025	0.089	133205	keystroke_s	s	n/a
66.8125	0.104	133625	keystroke_p	p	n/a
66.8865	0.1055	133773	keystroke_e	e	n/a
66.9475	0.119	133895	keystroke_r	r	n/a
67.1125	0.15	134225	keystroke_a	a	n/a
67.2475	0.18	134495	keystroke_t	t	n/a
67.3825	0.135	134765	keystroke_e	e	n/a
67.652	0.09	135304	keystroke_Key.enter	Key.enter	n/a
67.753	5.766	135506	prompt	n/a	patterns stats wagner performing\n
68.387	0.09	136774	keystroke_p	p	n/a
68.6125	0.0595	137225	keystroke_a	a	n/a
68.972	0.075	137944	keystroke_t	t	n/a
69.108	0.0745	138216	keystroke_t	t	n/a
69.2725	0.1045	138545	keystroke_e	e	n/a
69.332	0.1055	138664	keystroke_r	r	n/a
69.4675	0.12	138935	keystroke_n	n	n/a
69.6025	0.075	139205	keystroke_s	s	n/a
69.7075	0.1195	139415	keystroke_Key.space	Key.space	n/a
69.812	0.075	139624	keystroke_s	s	n/a
69.977	0.1055	139954	keystroke_t	t	n/a
70.112	0.151	140224	keystroke_a	a	n/a
70.248	0.104	140496	keystroke_t	t	n/a
70.5025	0.1045	141005	keystroke_s	s	n/a
70.6825	0.1195	141365	keystroke_Key.space	Key.space	n/a
70.862	0.1055	141724	keystroke_w	w	n/a
70.9825	0.119	141965	keystroke_a	a	n/a
71.2075	0.105	142415	keystroke_g	g	n/a
71.4325	0.12	142865	keystroke_n	n	n/a
71.5375	0.1505	143075	keystroke_e	e	n/a
71.6425	0.135	143285	keystroke_r	r	n/a
71.7615	0.1505	143523	keystroke_Key.space	Key.space	n/a
71.883	0.134	143766	keystroke_p	p	n/a
71.942	0.105	143884	keystroke_e	e	n/a
72.002	0.1055	144004	keystroke_r	r	n/a
72.212	0.09	144424	keystroke_f	f	n/a
72.422	0.105	144844	keystroke_o	o	n/a
72.5125	0.06	145025	keystroke_r	r	n/a
72.7525	0.0905	145505	keystroke_m	m	n/a
72.9475	0.1805	145895	keystroke_i	i	n/a
73.0975	0.09	146195	keystroke_n	n	n/a
73.2025	0.074	146405	keystroke_g	g	n/a
73.4425	0.0745	146885	keystroke_Key.enter	Key.enter	n/a
73.5235	5.651	147047	prompt	n/a	intersection burke saints cindy\n
74.1625	0.12	148325	keystroke_i	i	n/a
74.2075	0.15	148415	keystroke_n	n	n/a
74.3125	0.105	148625	keystroke_t	t	n/a
74.432	0.12	148864	keystroke_e	e	n/a
74.5225	0.1195	149045	keystroke_r	r	n/a
74.747	0.1055	149494	keystroke_s	s	n/a
74.9425	0.075	149885	keystroke_e	e	n/a
75.168	0.09	150336	keystroke_c	c	n/a
75.437	0.06	150874	keystroke_t	t	n/a
75.512	0.225	151024	keystroke_i	i	n/a
75.603	0.24	151206	keystroke_o	o	n/a
75.677	0.18	151354	keystroke_n	n	n/a
76.037	0.105	152074	keystroke_Key.space	Key.space	n/a
76.247	0.1955	152494	keystroke_b	b	n/a
76.3825	0.15	152765	keystroke_u	u	n/a
76.757	0.105	153514	keystroke_r	r	n/a
76.9225	0.105	153845	keystroke_k	k	n/a
77.0425	0.0745	154085	keystroke_e	e	n/a
77.132	0.12	154264	keystroke_Key.space	Key.space	n/a
77.3125	0.149	154625	keystroke_s	s	n/a
77.4175	0.134	154835	keystroke_a	a	n/a
77.643	0.194	155286	keystroke_i	i	n/a
77.7775	0.1345	155555	keystroke_n	n	n/a
77.852	0.15	155704	keystroke_t	t	n/a
77.9425	0.1355	155885	keystroke_s	s	n/a
78.2125	0.1495	156425	keystroke_Key.space	Key.space	n/a
78.348	0.104	156696	keystroke_c	c	n/a
78.467	0.151	156934	keystroke_i	i	n/a
78.5425	0.1195	157085	keystroke_n	n	n/a
78.663	0.119	157326	keystroke_d	d	n/a
78.8425	0.09	157685	keystroke_y	y	n/a
79.0825	0.089	158165	keystroke_Key.enter	Key.enter	n/a
79.179	7.87	158358	prompt	n/a	enterprises ross mandatory replied\n
79.8925	0.06	159785	keystroke_e	e	n/a
80.057	0.0755	160114	keystroke_e	e	n/a
80.507	0.0605	161014	keystroke_Key.backspace	Key.backspace	n/a
80.7015	0.1205	161403	keystroke_n	n	n/a
80.807	0.1205	161614	keystroke_t	t	n/a
81.0025	0.1355	162005	keystroke_e	e	n/a
81.0925	0.1495	162185	keystroke_r	r	n/a
81.347	0.106	162694	keystroke_p	p	n/a
81.482	0.0895	162964	keystroke_r	r	n/a
81.7675	0.105	163535	keystroke_i	i	n/a
82.0675	0.1045	164135	keystroke_s	s	n/a
82.2925	0.09	164585	keystroke_e	e	n/a
82.547	0.0605	165094	keystroke_s	s	n/a
82.652	0.12	165304	keystroke_Key.space	Key.space	n/a
83.0265	0.0915	166053	keystroke_r	r	n/a
83.1775	0.12	166355	keystroke_o	o	n/a
83.4625	0.075	166925	keystroke_s	s	n/a
83.6425	0.075	167285	keystroke_s	s	n/a
83.7475	0.135	167495	keystroke_Key.space	Key.space	n/a
83.9275	0.12	167855	keystroke_m	m	n/a
84.0925	0.12	168185	keystroke_a	a	n/a
84.2725	0.105	168545	keystroke_n	n	n/a
84.587	0.106	169174	keystroke_d	d	n/a
84.7825	0.104	169565	keystroke_a	a	n/a
85.0525	0.0745	170105	keystroke_t	t	n/a
85.2325	0.0895	170465	keystroke_o	o	n/a
85.3225	0.0605	170645	keystroke_r	r	n/a
85.4725	0.18	170945	keystroke_y	y	n/a
85.5925	0.165	171185	keystroke_Key.space	Key.space	n/a
85.877	0.18	171754	keystroke_r	r	n/a
85.9825	0.1355	171965	keystroke_e	e	n/a
86.118	0.1045	172236	keystroke_p	p	n/a
86.342	0.075	172684	keystroke_l	l	n/a
86.5525	0.09	173105	keystroke_i	i	n/a
86.627	0.15	173254	keystroke_e	e	n/a
86.763	0.1195	173526	keystroke_d	d	n/a
86.9725	0.075	173945	keystroke_Key.enter	Key.enter	n/a
87.0535	7.6005	174107	prompt	n/a	jpeg glory surrey poor\n
87.8565	0.106	175713	keystroke_j	j	n/a
88.2175	0.06	176435	keystroke_e	e	n/a
88.472	0.0605	176944	keystroke_Key.backspace	Key.backspace	n/a
88.712	0.075	177424	keystroke_p	p	n/a
88.802	0.105	177604	keystroke_e	e	n/a
89.042	0.0455	178084	keystroke_g	g	n/a
89.6415	0.136	179283	keystroke_Key.space	Key.space	n/a
90.0175	0.09	180035	keystroke_f	f	n/a
90.1525	0.09	180305	keystroke_l	l	n/a
90.3475	0.06	180695	keystroke_o	o	n/a
90.4675	0.06	180935	keystroke_r	r	n/a
90.7225	0.03	181445	keystroke_Key.backspace	Key.backspace	n/a
90.8425	0.06	181685	keystroke_Key.backspace	Key.backspace	n/a
90.9625	0.06	181925	keystroke_Key.backspace	Key.backspace	n/a
91.0825	0.075	182165	keystroke_Key.backspace	Key.backspace	n/a
91.757	0.0755	183514	keystroke_g	g	n/a
91.847	0.0755	183694	keystroke_l	l	n/a
92.027	0.0755	184054	keystroke_o	o	n/a
92.2675	0.075	184535	keystroke_r	r	n/a
92.4775	0.091	184955	keystroke_y	y	n/a
92.6575	0.1345	185315	keystroke_Key.space	Key.space	n/a
92.972	0.105	185944	keystroke_s	s	n/a
93.1525	0.075	186305	keystroke_u	u	n/a
93.332	0.0455	186664	keystroke_r	r	n/a
93.4675	0.09	186935	keystroke_r	r	n/a
93.5875	0.1195	187175	keystroke_e	e	n/a
93.6775	0.165	187355	keystroke_y	y	n/a
93.7675	0.105	187535	keystroke_Key.space	Key.space	n/a
94.007	0.18	188014	keystroke_p	p	n/a
94.1275	0.09	188255	keystroke_o	o	n/a
94.292	0.1055	188584	keystroke_o	o	n/a
94.4275	0.0755	188855	keystroke_r	r	n/a
94.5925	0.06	189185	keystroke_Key.enter	Key.enter	n/a
94.6585	12.1755	189317	prompt	n/a	integrated mechanics fall consistently\n
95.208	0.1645	190416	keystroke_i	i	n/a
95.3275	0.15	190655	keystroke_n	n	n/a
95.462	0.091	190924	keystroke_t	t	n/a
95.6275	0.0895	191255	keystroke_e	e	n/a
95.807	0.091	191614	keystroke_g	g	n/a
96.587	0.09	193174	keystroke_r	r	n/a
97.847	0.0605	195694	keystroke_Key.backspace	Key.backspace	n/a
97.937	0.1355	195874	keystroke_a	a	n/a
98.1775	0.18	196355	keystroke_t	t	n/a
98.3425	0.15	196685	keystroke_e	e	n/a
98.6725	0.12	197345	keystroke_d	d	n/a
98.7325	0.1195	197465	keystroke_Key.space	Key.space	n/a
98.9575	0.105	197915	keystroke_m	m	n/a
99.0775	0.0295	198155	keystroke_e	e	n/a
100.127	0.09	200254	keystroke_Key.backspace	Key.backspace	n/a
100.262	0.075	200524	keystroke_Key.backspace	Key.backspace	n/a
100.397	0.06	200794	keystroke_Key.backspace	Key.backspace	n/a
100.5325	0.0595	201065	keystroke_Key.backspace	Key.backspace	n/a
100.682	0.045	201364	keystroke_Key.backspace	Key.backspace	n/a
100.787	0.075	201574	keystroke_Key.backspace	Key.backspace	n/a
101.1325	0.075	202265	keystroke_Key.backspace	Key.backspace	n/a
101.358	0.1335	202716	keystroke_r	r	n/a
101.523	0.1345	203046	keystroke_a	a	n/a
101.7775	0.135	203555	keystroke_t	t	n/a
101.898	0.1195	203796	keystroke_e	e	n/a
102.0625	0.1195	204125	keystroke_d	d	n/a
102.167	0.12	204334	keystroke_Key.space	Key.space	n/a
102.332	0.12	204664	keystroke_m	m	n/a
102.422	0.105	204844	keystroke_e	e	n/a
102.6475	0.1205	205295	keystroke_c	c	n/a
102.8575	0.1045	205715	keystroke_h	h	n/a
103.0525	0.09	206105	keystroke_a	a	n/a
103.172	0.0895	206344	keystroke_n	n	n/a
103.3975	0.09	206795	keystroke_i	i	n/a
103.4725	0.0905	206945	keystroke_c	c	n/a
103.637	0.1205	207274	keystroke_s	s	n/a
103.758	0.1345	207516	keystroke_Key.space	Key.space	n/a
103.862	0.105	207724	keystroke_f	f	n/a
104.012	0.105	208024	keystroke_a	a	n/a
104.162	0.0605	208324	keystroke_l	l	n/a
104.2965	0.151	208593	keystroke_l	l	n/a
104.3725	0.165	208745	keystroke_Key.space	Key.space	n/a
104.5975	0.12	209195	keystroke_c	c	n/a
104.733	0.165	209466	keystroke_o	o	n/a
104.8225	0.1195	209645	keystroke_n	n	n/a
104.987	0.1205	209974	keystroke_s	s	n/a
105.2575	0.105	210515	keystroke_i	i	n/a
105.4075	0.09	210815	keystroke_s	s	n/a
105.648	0.1345	211296	keystroke_t	t	n/a
105.7675	0.105	211535	keystroke_e	e	n/a
106.0675	0.1205	212135	keystroke_n	n	n/a
106.172	0.091	212344	keystroke_t	t	n/a
106.2775	0.1645	212555	keystroke_l	l	n/a
106.4125	0.1195	212825	keystroke_y	y	n/a
106.7575	0.0745	213515	keystroke_Key.enter	Key.enter	n/a
106.8375	8.5465	213675	prompt	n/a	observations immigrants closely resolved\n
107.6575	0.105	215315	keystroke_o	o	n/a
107.8375	0.105	215675	keystroke_b	b	n/a
107.9575	0.105	215915	keystroke_s	s	n/a
108.167	0.1055	216334	keystroke_e	e	n/a
108.2275	0.1205	216455	keystroke_r	r	n/a
108.482	0.06	216964	keystroke_v	v	n/a
108.8875	0.12	217775	keystroke_a	a	n/a
109.128	0.09	218256	keystroke_t	t	n/a
109.2325	0.2405	218465	keystroke_i	i	n/a
109.308	0.18	218616	keystroke_o	o	n/a
109.3825	0.1495	218765	keystroke_n	n	n/a
109.4575	0.09	218915	keystroke_s	s	n/a
109.652	0.12	219304	keystroke_Key.space	Key.space	n/a
109.802	0.09	219604	keystroke_i	i	n/a
110.0275	0.045	220055	keystroke_m	m	n/a
110.1625	0.075	220325	keystroke_m	m	n/a
110.312	0.0755	220624	keystroke_i	i	n/a
110.4025	0.06	220805	keystroke_g	g	n/a
110.5665	0.075	221133	keystroke_r	r	n/a
110.7465	0.091	221493	keystroke_a	a	n/a
110.9575	0.135	221915	keystroke_n	n	n/a
111.0625	0.135	222125	keystroke_t	t	n/a
111.1375	0.1495	222275	keystroke_s	s	n/a
111.2725	0.1195	222545	keystroke_Key.space	Key.space	n/a
111.437	0.0755	222874	keystroke_s	s	n/a
111.8125	0.0595	223625	keystroke_Key.backspace	Key.backspace	n/a
111.887	0.121	223774	keystroke_c	c	n/a
112.037	0.076	224074	keystroke_l	l	n/a
112.218	0.0895	224436	keystroke_o	o	n/a
112.427	0.135	224854	keystroke_s	s	n/a
112.577	0.0905	225154	keystroke_e	e	n/a
112.787	0.09	225574	keystroke_l	l	n/a
113.1025	0.075	226205	keystroke_y	y	n/a
113.4325	0.1195	226865	keystroke_Key.space	Key.space	n/a
113.838	0.1645	227676	keystroke_r	r	n/a
113.9425	0.12	227885	keystroke_e	e	n/a
114.1375	0.09	228275	keystroke_s	s	n/a
114.272	0.06	228544	keystroke_o	o	n/a
114.423	0.1345	228846	keystroke_l	l	n/a
114.5425	0.045	229085	keystroke_v	v	n/a
114.902	0.061	229804	keystroke_e	e	n/a
115.053	0.0895	230106	keystroke_d	d	n/a
115.307	0.0755	230614	keystroke_Key.enter	Key.enter	n/a
115.3875	5.877	230775	prompt	n/a	enterprise globe antibody optional\n
115.953	0.104	231906	keystroke_e	e	n/a
116.147	0.0905	232294	keystroke_n	n	n/a
116.267	0.105	232534	keystroke_t	t	n/a
116.402	0.1655	232804	keystroke_e	e	n/a
116.5075	0.105	233015	keystroke_r	r	n/a
116.658	0.1045	233316	keystroke_p	p	n/a
116.7775	0.0605	233555	keystroke_r	r	n/a
116.882	0.1055	233764	keystroke_i	i	n/a
117.002	0.09	234004	keystroke_s	s	n/a
117.1975	0.09	234395	keystroke_e	e	n/a
117.3175	0.105	234635	keystroke_Key.space	Key.space	n/a
117.5875	0.015	235175	keystroke_g	g	n/a
117.6175	0.06	235235	keystroke_l	l	n/a
117.9925	0.105	235985	keystroke_o	o	n/a
118.2925	0.105	236585	keystroke_b	b	n/a
118.4125	0.09	236825	keystroke_e	e	n/a
118.5475	0.135	237095	keystroke_Key.space	Key.space	n/a
118.6675	0.104	237335	keystroke_a	a	n/a
118.8475	0.12	237695	keystroke_n	n	n/a
119.0875	0.105	238175	keystroke_t	t	n/a
119.2375	0.105	238475	keystroke_i	i	n/a
119.4475	0.075	238895	keystroke_b	b	n/a
119.6275	0.0895	239255	keystroke_o	o	n/a
119.733	0.1045	239466	keystroke_d	d	n/a
119.8675	0.1505	239735	keystroke_y	y	n/a
119.9575	0.1345	239915	keystroke_Key.space	Key.space	n/a
120.1675	0.165	240335	keystroke_o	o	n/a
120.287	0.1055	240574	keystroke_p	p	n/a
120.3775	0.105	240755	keystroke_t	t	n/a
120.4975	0.225	240995	keystroke_i	i	n/a
120.6035	0.149	241207	keystroke_o	o	n/a
120.662	0.151	241324	keystroke_n	n	n/a
120.7975	0.09	241595	keystroke_a	a	n/a
120.9325	0.105	241865	keystroke_l	l	n/a
121.2025	0.06	242405	keystroke_Key.enter	Key.enter	n/a
121.269	4.9455	242538	prompt	n/a	hong integer filed nathan\n
121.8475	0.1045	243695	keystroke_h	h	n/a
121.998	0.194	243996	keystroke_o	o	n/a
122.102	0.135	244204	keystroke_n	n	n/a
122.2225	0.1045	244445	keystroke_g	g	n/a
122.342	0.1505	244684	keystroke_Key.space	Key.space	n/a
122.4935	0.149	244987	keystroke_i	i	n/a
122.5975	0.135	245195	keystroke_n	n	n/a
122.6875	0.135	245375	keystroke_t	t	n/a
122.792	0.12	245584	keystroke_e	e	n/a
123.002	0.0905	246004	keystroke_g	g	n/a
123.198	0.1495	246396	keystroke_e	e	n/a
123.2875	0.135	246575	keystroke_r	r	n/a
123.557	0.1205	247114	keystroke_Key.space	Key.space	n/a
124.232	0.0755	248464	keystroke_f	f	n/a
124.3375	0.1955	248675	keystroke_i	i	n/a
124.4275	0.18	248855	keystroke_l	l	n/a
124.5475	0.1355	249095	keystroke_e	e	n/a
124.623	0.134	249246	keystroke_d	d	n/a
124.742	0.12	249484	keystroke_Key.space	Key.space	n/a
125.0275	0.1045	250055	keystroke_n	n	n/a
125.147	0.1055	250294	keystroke_a	a	n/a
125.4025	0.1045	250805	keystroke_t	t	n/a
125.582	0.105	251164	keystroke_h	h	n/a
125.733	0.0745	251466	keystroke_a	a	n/a
125.838	0.09	251676	keystroke_n	n	n/a
126.1375	0.0745	252275	keystroke_Key.enter	Key.enter	n/a
126.22	7.8695	252440	prompt	n/a	hunter privilege we'd security\n
126.888	0.09	253776	keystroke_h	h	n/a
127.0675	0.06	254135	keystroke_u	u	n/a
127.232	0.121	254464	keystroke_n	n	n/a
127.307	0.121	254614	keystroke_t	t	n/a
127.4575	0.1345	254915	keystroke_e	e	n/a
127.548	0.1195	255096	keystroke_r	r	n/a
127.652	0.105	255304	keystroke_Key.space	Key.space	n/a
127.847	0.1055	255694	keystroke_p	p	n/a
127.997	0.1055	255994	keystroke_r	r	n/a
129.303	0.105	258606	keystroke_i	i	n/a
130.098	0.0895	260196	keystroke_v	v	n/a
130.218	0.0745	260436	keystroke_i	i	n/a
130.383	0.1495	260766	keystroke_l	l	n/a
130.4875	0.1055	260975	keystroke_e	e	n/a
130.728	0.0745	261456	keystroke_g	g	n/a
131.0125	0.09	262025	keystroke_e	e	n/a
131.0875	0.1495	262175	keystroke_Key.space	Key.space	n/a
131.4025	0.12	262805	keystroke_w	w	n/a
131.4775	0.1045	262955	keystroke_e	e	n/a
131.718	0.105	263436	keystroke_'	'	n/a
131.883	0.1045	263766	keystroke_d	d	n/a
132.1515	0.1355	264303	keystroke_Key.space	Key.space	n/a
132.3325	0.1205	264665	keystroke_s	s	n/a
132.5575	0.1055	265115	keystroke_e	e	n/a
132.7825	0.119	265565	keystroke_c	c	n/a
132.9625	0.1055	265925	keystroke_u	u	n/a
133.158	0.0895	266316	keystroke_r	r	n/a
133.4575	0.105	266915	keystroke_i	i	n/a
133.5925	0.1055	267185	keystroke_t	t	n/a
133.803	0.0745	267606	keystroke_y	y	n/a
133.9825	0.105	267965	keystroke_Key.enter	Key.enter	n/a
134.094	9.7905	268188	prompt	n/a	excellence prizes smtp hockey\n
134.7475	0.045	269495	keystroke_e	e	n/a
134.9275	0.1045	269855	keystroke_x	x	n/a
135.1675	0.1045	270335	keystroke_c	c	n/a
135.3475	0.0905	270695	keystroke_e	e	n/a
135.5125	0.135	271025	keystroke_l	l	n/a
135.6325	0.03	271265	keystroke_e	e	n/a
135.7675	0.045	271535	keystroke_e	e	n/a
136.0675	0.045	272135	keystroke_Key.backspace	Key.backspace	n/a
136.1875	0.06	272375	keystroke_Key.backspace	Key.backspace	n/a
136.4135	0.1045	272827	keystroke_l	l	n/a
136.488	0.12	272976	keystroke_e	e	n/a
136.683	0.12	273366	keystroke_n	n	n/a
136.908	0.12	273816	keystroke_e	e	n/a
137.012	0.121	274024	keystroke_Key.space	Key.space	n/a
137.193	0.089	274386	keystroke_p	p	n/a
137.297	0.1055	274594	keystroke_r	r	n/a
137.582	0.0455	275164	keystroke_Key.backspace	Key.backspace	n/a
137.717	0.06	275434	keystroke_Key.backspace	Key.backspace	n/a
137.8375	0.06	275675	keystroke_Key.backspace	Key.backspace	n/a
137.9875	0.0745	275975	keystroke_Key.backspace	Key.backspace	n/a
138.453	0.1195	276906	keystroke_c	c	n/a
138.5875	0.1505	277175	keystroke_e	e	n/a
138.7525	0.1045	277505	keystroke_Key.space	Key.space	n/a
139.2025	0.0605	278405	keystroke_p	p	n/a
139.2635	0.1195	278527	keystroke_r	r	n/a
139.682	0.1055	279364	keystroke_i	i	n/a
139.878	0.1045	279756	keystroke_z	z	n/a
140.102	0.09	280204	keystroke_e	e	n/a
140.3125	0.105	280625	keystroke_s	s	n/a
140.4625	0.12	280925	keystroke_Key.space	Key.space	n/a
140.673	0.0895	281346	keystroke_s	s	n/a
140.9425	0.09	281885	keystroke_m	m	n/a
141.1525	0.1195	282305	keystroke_t	t	n/a
141.377	0.091	282754	keystroke_p	p	n/a
141.7365	0.12	283473	keystroke_Key.space	Key.space	n/a
142.0675	0.09	284135	keystroke_h	h	n/a
142.218	0.1195	284436	keystroke_o	o	n/a
142.3525	0.09	284705	keystroke_c	c	n/a
142.4725	0.105	284945	keystroke_k	k	n/a
142.5925	0.134	285185	keystroke_e	e	n/a
142.743	0.105	285486	keystroke_t	t	n/a
143.2675	0.045	286535	keystroke_Key.backspace	Key.backspace	n/a
143.508	0.0745	287016	keystroke_y	y	n/a
143.8525	0.03	287705	keystroke_Key.enter	Key.enter	n/a
143.889	6.1605	287778	prompt	n/a	combines sake netherlands notebook\n
144.7375	0.045	289475	keystroke_c	c	n/a
144.7975	0.0755	289595	keystroke_o	o	n/a
145.1725	0.09	290345	keystroke_m	m	n/a
145.412	0.046	290824	keystroke_b	b	n/a
145.5925	0.1505	291185	keystroke_i	i	n/a
145.683	0.1045	291366	keystroke_n	n	n/a
145.773	0.1795	291546	keystroke_e	e	n/a
145.8775	0.105	291755	keystroke_s	s	n/a
145.9675	0.12	291935	keystroke_Key.space	Key.space	n/a
146.1025	0.1055	292205	keystroke_s	s	n/a
146.5825	0.105	293165	keystroke_a	a	n/a
146.7175	0.105	293435	keystroke_k	k	n/a
146.838	0.0745	293676	keystroke_e	e	n/a
146.8975	0.12	293795	keystroke_Key.space	Key.space	n/a
147.0775	0.075	294155	keystroke_n	n	n/a
147.168	0.075	294336	keystroke_e	e	n/a
147.512	0.105	295024	keystroke_t	t	n/a
147.708	0.1045	295416	keystroke_h	h	n/a
147.798	0.1345	295596	keystroke_e	e	n/a
147.873	0.1045	295746	keystroke_r	r	n/a
148.0225	0.135	296045	keystroke_l	l	n/a
148.1425	0.09	296285	keystroke_a	a	n/a
148.2775	0.12	296555	keystroke_n	n	n/a
148.4125	0.135	296825	keystroke_d	d	n/a
148.4725	0.1195	296945	keystroke_s	s	n/a
148.608	0.104	297216	keystroke_Key.space	Key.space	n/a
148.8175	0.18	297635	keystroke_n	n	n/a
148.953	0.149	297906	keystroke_o	o	n/a
149.057	0.135	298114	keystroke_t	t	n/a
149.1475	0.1195	298295	keystroke_e	e	n/a
149.268	0.1185	298536	keystroke_b	b	n/a
149.4025	0.09	298805	keystroke_o	o	n/a
149.598	0.15	299196	keystroke_o	o	n/a
149.6875	0.1205	299375	keystroke_k	k	n/a
149.9425	0.105	299885	keystroke_Key.enter	Key.enter	n/a
150.054	8.575	300108	prompt	n/a	reset witnesses elimination preferred\n
150.7975	0.1345	301595	keystroke_r	r	n/a
150.8725	0.1045	301745	keystroke_e	e	n/a
151.082	0.076	302164	keystroke_s	s	n/a
151.262	0.106	302524	keystroke_e	e	n/a
151.3375	0.105	302675	keystroke_t	t	n/a
151.472	0.1355	302944	keystroke_Key.space	Key.space	n/a
151.6225	0.12	303245	keystroke_w	w	n/a
151.683	0.1495	303366	keystroke_e	e	n/a
152.1175	0.045	304235	keystroke_Key.backspace	Key.backspace	n/a
152.298	0.1195	304596	keystroke_i	i	n/a
152.387	0.105	304774	keystroke_t	t	n/a
152.6125	0.105	305225	keystroke_n	n	n/a
152.7325	0.105	305465	keystroke_e	e	n/a
153.0475	0.045	306095	keystroke_s	s	n/a
153.1825	0.0755	306365	keystroke_s	s	n/a
153.408	0.074	306816	keystroke_e	e	n/a
153.618	0.0895	307236	keystroke_s	s	n/a
153.737	0.135	307474	keystroke_Key.space	Key.space	n/a
153.8875	0.075	307775	keystroke_e	e	n/a
153.993	0.1195	307986	keystroke_l	l	n/a
154.2475	0.1055	308495	keystroke_i	i	n/a
155.5075	0.09	311015	keystroke_m	m	n/a
155.748	0.1645	311496	keystroke_i	i	n/a
155.8975	0.12	311795	keystroke_n	n	n/a
155.9875	0.135	311975	keystroke_a	a	n/a
156.153	0.1195	312306	keystroke_t	t	n/a
156.243	0.2085	312486	keystroke_i	i	n/a
156.3625	0.12	312725	keystroke_o	o	n/a
156.3775	0.12	312755	keystroke_n	n	n/a
156.4675	0.12	312935	keystroke_Key.space	Key.space	n/a
156.677	0.1055	313354	keystroke_p	p	n/a
156.7525	0.1645	313505	keystroke_r	r	n/a
156.843	0.149	313686	keystroke_e	e	n/a
157.2475	0.12	314495	keystroke_f	f	n/a
157.5925	0.1195	315185	keystroke_e	e	n/a
157.8025	0.0595	315605	keystroke_r	r	n/a
157.9375	0.09	315875	keystroke_r	r	n/a
158.0425	0.1505	316085	keystroke_e	e	n/a
158.2675	0.105	316535	keystroke_d	d	n/a
158.5525	0.075	317105	keystroke_Key.enter	Key.enter	n/a
158.636	4.899	317272	prompt	n/a	attach affair takes relax\n
159.2425	0.105	318485	keystroke_a	a	n/a
159.5125	0.045	319025	keystroke_t	t	n/a
159.6325	0.06	319265	keystroke_t	t	n/a
159.768	0.0895	319536	keystroke_a	a	n/a
159.9325	0.135	319865	keystroke_c	c	n/a
160.0525	0.18	320105	keystroke_h	h	n/a
160.1425	0.165	320285	keystroke_Key.space	Key.space	n/a
160.2325	0.09	320465	keystroke_a	a	n/a
160.4125	0.0755	320825	keystroke_f	f	n/a
160.548	0.0745	321096	keystroke_f	f	n/a
160.6825	0.1195	321365	keystroke_a	a	n/a
160.8325	0.1195	321665	keystroke_i	i	n/a
160.923	0.104	321846	keystroke_r	r	n/a
161.012	0.1505	322024	keystroke_Key.space	Key.space	n/a
161.1775	0.1195	322355	keystroke_t	t	n/a
161.3125	0.1495	322625	keystroke_a	a	n/a
161.7175	0.1345	323435	keystroke_k	k	n/a
161.838	0.224	323676	keystroke_e	e	n/a
161.927	0.166	323854	keystroke_s	s	n/a
162.1075	0.135	324215	keystroke_Key.space	Key.space	n/a
162.423	0.0895	324846	keystroke_r	r	n/a
162.4375	0.135	324875	keystroke_e	e	n/a
162.7975	0.15	325595	keystroke_l	l	n/a
162.978	0.164	325956	keystroke_a	a	n/a
163.1125	0.135	326225	keystroke_x	x	n/a
163.4275	0.105	326855	keystroke_Key.enter	Key.enter	n/a
163.54	5.199	327080	prompt	n/a	wake reforms intervention don't\n
164.0875	0.1495	328175	keystroke_w	w	n/a
164.1625	0.1495	328325	keystroke_a	a	n/a
164.327	0.1205	328654	keystroke_k	k	n/a
164.4625	0.105	328925	keystroke_e	e	n/a
164.5975	0.15	329195	keystroke_Key.space	Key.space	n/a
164.6725	0.1505	329345	keystroke_r	r	n/a
164.7775	0.105	329555	keystroke_e	e	n/a
164.9875	0.105	329975	keystroke_f	f	n/a
165.1075	0.1495	330215	keystroke_o	o	n/a
165.242	0.09	330484	keystroke_r	r	n/a
165.422	0.09	330844	keystroke_m	m	n/a
165.527	0.121	331054	keystroke_s	s	n/a
165.632	0.135	331264	keystroke_Key.space	Key.space	n/a
165.752	0.195	331504	keystroke_i	i	n/a
165.872	0.1505	331744	keystroke_n	n	n/a
165.962	0.091	331924	keystroke_t	t	n/a
166.098	0.1345	332196	keystroke_e	e	n/a
166.172	0.1205	332344	keystroke_r	r	n/a
166.8475	0.1195	333695	keystroke_v	v	n/a
167.087	0.1055	334174	keystroke_e	e	n/a
167.283	0.1035	334566	keystroke_n	n	n/a
167.3725	0.1055	334745	keystroke_t	t	n/a
167.508	0.2245	335016	keystroke_i	i	n/a
167.6275	0.18	335255	keystroke_o	o	n/a
167.6575	0.165	335315	keystroke_n	n	n/a
167.7925	0.15	335585	keystroke_Key.space	Key.space	n/a
167.9125	0.135	335825	keystroke_d	d	n/a
168.0325	0.135	336065	keystroke_o	o	n/a
168.1075	0.105	336215	keystroke_n	n	n/a
168.3625	0.105	336725	keystroke_'	'	n/a
168.4525	0.105	336905	keystroke_t	t	n/a
168.6625	0.075	337325	keystroke_Key.enter	Key.enter	n/a
168.7435	6.2205	337487	prompt	n/a	xanax hope river oecd\n
169.6225	0.135	339245	keystroke_x	x	n/a
169.937	0.091	339874	keystroke_a	a	n/a
170.1775	0.12	340355	keystroke_n	n	n/a
170.2975	0.165	340595	keystroke_a	a	n/a
170.403	0.1495	340806	keystroke_x	x	n/a
170.5825	0.105	341165	keystroke_Key.space	Key.space	n/a
170.7625	0.2855	341525	keystroke_h	h	n/a
170.9125	0.224	341825	keystroke_o	o	n/a
171.032	0.121	342064	keystroke_p	p	n/a
171.1225	0.1945	342245	keystroke_e	e	n/a
171.2265	0.1365	342453	keystroke_s	s	n/a
172.202	0.06	344404	keystroke_Key.backspace	Key.backspace	n/a
172.457	0.135	344914	keystroke_Key.space	Key.space	n/a
172.637	0.121	345274	keystroke_r	r	n/a
172.817	0.121	345634	keystroke_i	i	n/a
172.922	0.0905	345844	keystroke_v	v	n/a
173.1325	0.1055	346265	keystroke_e	e	n/a
173.1925	0.1205	346385	keystroke_r	r	n/a
173.3425	0.105	346685	keystroke_Key.space	Key.space	n/a
173.523	0.134	347046	keystroke_o	o	n/a
173.6725	0.1045	347345	keystroke_e	e	n/a
174.3325	0.1045	348665	keystroke_c	c	n/a
174.617	0.105	349234	keystroke_d	d	n/a
174.872	0.09	349744	keystroke_Key.enter	Key.enter	n/a
174.969	9.79	349938	prompt	n/a	launch licenses rally occasions\n
175.5775	0.03	351155	keystroke_o	o	n/a
176.1325	0.075	352265	keystroke_Key.backspace	Key.backspace	n/a
176.7175	0.09	353435	keystroke_o	o	n/a
177.0775	0.045	354155	keystroke_Key.backspace	Key.backspace	n/a
177.3325	0.075	354665	keystroke_l	l	n/a
177.4975	0.09	354995	keystroke_a	a	n/a
177.6175	0.1495	355235	keystroke_u	u	n/a
177.708	0.105	355416	keystroke_n	n	n/a
177.843	0.134	355686	keystroke_c	c	n/a
177.978	0.1795	355956	keystroke_h	h	n/a
178.1125	0.165	356225	keystroke_Key.space	Key.space	n/a
178.337	0.09	356674	keystroke_h	h	n/a
178.8325	0.0445	357665	keystroke_Key.backspace	Key.backspace	n/a
179.2375	0.0605	358475	keystroke_l	l	n/a
179.2825	0.03	358565	keystroke_i	i	n/a
179.6875	0.135	359375	keystroke_c	c	n/a
180.0315	0.076	360063	keystroke_e	e	n/a
180.2275	0.1055	360455	keystroke_n	n	n/a
180.3625	0.09	360725	keystroke_s	s	n/a
180.5425	0.06	361085	keystroke_e	e	n/a
180.7075	0.06	361415	keystroke_s	s	n/a
180.8125	0.135	361625	keystroke_Key.space	Key.space	n/a
180.9625	0.12	361925	keystroke_r	r	n/a
181.202	0.0455	362404	keystroke_l	l	n/a
181.562	0.0605	363124	keystroke_Key.backspace	Key.backspace	n/a
181.653	0.1045	363306	keystroke_a	a	n/a
181.803	0.074	363606	keystroke_l	l	n/a
181.9675	0.0905	363935	keystroke_l	l	n/a
182.238	0.0895	364476	keystroke_y	y	n/a
182.4325	0.1045	364865	keystroke_Key.space	Key.space	n/a
182.627	0.105	365254	keystroke_o	o	n/a
183.092	0.105	366184	keystroke_c	c	n/a
183.408	0.105	366816	keystroke_c	c	n/a
183.828	0.119	367656	keystroke_a	a	n/a
184.068	0.104	368136	keystroke_s	s	n/a
184.157	0.2405	368314	keystroke_i	i	n/a
184.248	0.21	368496	keystroke_o	o	n/a
184.3525	0.1195	368705	keystroke_n	n	n/a
184.502	0.09	369004	keystroke_s	s	n/a
184.6675	0.0895	369335	keystroke_Key.enter	Key.enter	n/a
184.7635	7.5265	369527	prompt	n/a	exempt image publishing discusses\n
185.298	0.074	370596	keystroke_e	e	n/a
185.642	0.1055	371284	keystroke_x	x	n/a
186.063	0.074	372126	keystroke_e	e	n/a
186.3025	0.0745	372605	keystroke_m	m	n/a
186.512	0.135	373024	keystroke_p	p	n/a
186.6625	0.105	373325	keystroke_t	t	n/a
186.8125	0.1195	373625	keystroke_Key.space	Key.space	n/a
187.157	0.09	374314	keystroke_i	i	n/a
187.3825	0.1045	374765	keystroke_m	m	n/a
187.5025	0.1195	375005	keystroke_a	a	n/a
187.7575	0.195	375515	keystroke_g	g	n/a
187.8765	0.1515	375753	keystroke_e	e	n/a
188.237	0.1055	376474	keystroke_Key.space	Key.space	n/a
188.3875	0.1655	376775	keystroke_p	p	n/a
188.523	0.1045	377046	keystroke_u	u	n/a
188.7625	0.075	377525	keystroke_b	b	n/a
188.9425	0.1345	377885	keystroke_l	l	n/a
189.033	0.1345	378066	keystroke_i	i	n/a
189.1825	0.09	378365	keystroke_s	s	n/a
189.3175	0.12	378635	keystroke_h	h	n/a
189.423	0.1795	378846	keystroke_i	i	n/a
189.5425	0.105	379085	keystroke_n	n	n/a
189.6325	0.09	379265	keystroke_g	g	n/a
189.7675	0.105	379535	keystroke_Key.space	Key.space	n/a
189.9025	0.1195	379805	keystroke_d	d	n/a
190.037	0.0605	380074	keystroke_i	i	n/a
190.638	0.119	381276	keystroke_s	s	n/a
190.9825	0.1355	381965	keystroke_c	c	n/a
191.3125	0.105	382625	keystroke_u	u	n/a
191.4925	0.06	382985	keystroke_s	s	n/a
191.658	0.09	383316	keystroke_s	s	n/a
191.8525	0.06	383705	keystroke_e	e	n/a
192.0475	0.045	384095	keystroke_s	s	n/a
192.167	0.12	384334	keystroke_Key.enter	Key.enter	n/a
192.294	8.3655	384588	prompt	n/a	thumbzilla hobby mike cities\n
193.0675	0.1055	386135	keystroke_t	t	n/a
193.1875	0.075	386375	keystroke_h	h	n/a
193.382	0.0905	386764	keystroke_u	u	n/a
193.7275	0.045	387455	keystroke_m	m	n/a
193.9525	0.06	387905	keystroke_b	b	n/a
194.0425	0.12	388085	keystroke_z	z	n/a
194.8225	0.104	389645	keystroke_i	i	n/a
195.032	0.0755	390064	keystroke_l	l	n/a
195.1665	0.1065	390333	keystroke_l	l	n/a
195.2875	0.0755	390575	keystroke_a	a	n/a
195.3775	0.165	390755	keystroke_Key.space	Key.space	n/a
195.513	0.1645	391026	keystroke_j	j	n/a
195.6325	0.12	391265	keystroke_o	o	n/a
195.8725	0.045	391745	keystroke_b	b	n/a
196.0225	0.0455	392045	keystroke_b	b	n/a
196.3075	0.045	392615	keystroke_Key.backspace	Key.backspace	n/a
196.4425	0.045	392885	keystroke_Key.backspace	Key.backspace	n/a
196.5625	0.06	393125	keystroke_Key.backspace	Key.backspace	n/a
196.7275	0.045	393455	keystroke_Key.backspace	Key.backspace	n/a
197.7175	0.09	395435	keystroke_h	h	n/a
197.8825	0.09	395765	keystroke_o	o	n/a
198.123	0.0895	396246	keystroke_b	b	n/a
198.2575	0.1205	396515	keystroke_b	b	n/a
198.4825	0.075	396965	keystroke_y	y	n/a
198.6625	0.105	397325	keystroke_Key.space	Key.space	n/a
198.873	0.0745	397746	keystroke_m	m	n/a
199.0525	0.045	398105	keystroke_i	i	n/a
199.2025	0.0745	398405	keystroke_k	k	n/a
199.322	0.106	398644	keystroke_e	e	n/a
199.4425	0.0895	398885	keystroke_Key.space	Key.space	n/a
199.547	0.136	399094	keystroke_c	c	n/a
199.8625	0.0745	399725	keystroke_i	i	n/a
199.982	0.106	399964	keystroke_t	t	n/a
200.102	0.075	400204	keystroke_i	i	n/a
200.177	0.1655	400354	keystroke_e	e	n/a
200.252	0.1495	400504	keystroke_s	s	n/a
200.5675	0.089	401135	keystroke_Key.enter	Key.enter	n/a
200.664	4.81	401328	prompt	n/a	hollow ukraine today ellen\n
201.707	0.09	403414	keystroke_h	h	n/a
201.9175	0.09	403835	keystroke_o	o	n/a
202.142	0.03	404284	keystroke_l	l	n/a
202.2475	0.0895	404495	keystroke_l	l	n/a
202.4125	0.0595	404825	keystroke_o	o	n/a
202.533	0.104	405066	keystroke_w	w	n/a
202.607	0.12	405214	keystroke_Key.space	Key.space	n/a
202.7875	0.09	405575	keystroke_u	u	n/a
203.1025	0.09	406205	keystroke_k	k	n/a
203.253	0.0895	406506	keystroke_r	r	n/a
203.357	0.15	406714	keystroke_a	a	n/a
203.477	0.1355	406954	keystroke_i	i	n/a
203.537	0.136	407074	keystroke_n	n	n/a
203.673	0.104	407346	keystroke_e	e	n/a
203.792	0.105	407584	keystroke_Key.space	Key.space	n/a
204.062	0.09	408124	keystroke_t	t	n/a
204.168	0.0895	408336	keystroke_o	o	n/a
204.287	0.1505	408574	keystroke_d	d	n/a
204.377	0.135	408754	keystroke_a	a	n/a
204.468	0.149	408936	keystroke_y	y	n/a
204.5575	0.12	409115	keystroke_Key.space	Key.space	n/a
204.692	0.09	409384	keystroke_e	e	n/a
204.813	0.045	409626	keystroke_l	l	n/a
204.917	0.106	409834	keystroke_l	l	n/a
205.052	0.075	410104	keystroke_e	e	n/a
205.157	0.105	410314	keystroke_n	n	n/a
205.3975	0.075	410795	keystroke_Key.enter	Key.enter	n/a
205.4795	6.2795	410959	prompt	n/a	hole knight thru laura\n
206.0425	0.074	412085	keystroke_h	h	n/a
206.2365	0.076	412473	keystroke_o	o	n/a
206.4015	0.075	412803	keystroke_l	l	n/a
206.4775	0.075	412955	keystroke_e	e	n/a
206.5975	0.1055	413195	keystroke_Key.space	Key.space	n/a
206.778	0.1495	413556	keystroke_k	k	n/a
207.1525	0.12	414305	keystroke_i	i	n/a
207.4675	0.03	414935	keystroke_Key.backspace	Key.backspace	n/a
207.6775	0.135	415355	keystroke_n	n	n/a
207.8275	0.135	415655	keystroke_i	i	n/a
208.023	0.09	416046	keystroke_g	g	n/a
208.1275	0.105	416255	keystroke_h	h	n/a
208.2175	0.09	416435	keystroke_t	t	n/a
208.3225	0.12	416645	keystroke_Key.space	Key.space	n/a
208.4875	0.12	416975	keystroke_t	t	n/a
208.578	0.1045	417156	keystroke_h	h	n/a
208.7125	0.104	417425	keystroke_r	r	n/a
208.863	0.2245	417726	keystroke_u	u	n/a
208.8775	0.18	417755	keystroke_y	y	n/a
209.0425	0.1195	418085	keystroke_Key.space	Key.space	n/a
209.4625	0.105	418925	keystroke_l	l	n/a
209.8825	0.0295	419765	keystroke_Key.backspace	Key.backspace	n/a
210.017	0.075	420034	keystroke_Key.backspace	Key.backspace	n/a
210.1975	0.075	420395	keystroke_Key.backspace	Key.backspace	n/a
210.497	0.1055	420994	keystroke_Key.space	Key.space	n/a
210.708	0.105	421416	keystroke_l	l	n/a
210.828	0.134	421656	keystroke_a	a	n/a
211.158	0.1045	422316	keystroke_u	u	n/a
211.308	0.135	422616	keystroke_r	r	n/a
211.3975	0.15	422795	keystroke_a	a	n/a
211.6675	0.09	423335	keystroke_Key.enter	Key.enter	n/a
211.7635	6.191	423527	prompt	n/a	limit decade microwave suicide\n
212.3875	0.0605	424775	keystroke_l	l	n/a
212.5515	0.0765	425103	keystroke_i	i	n/a
212.747	0.1655	425494	keystroke_m	m	n/a
212.8675	0.105	425735	keystroke_i	i	n/a
212.9575	0.075	425915	keystroke_t	t	n/a
213.0475	0.134	426095	keystroke_Key.space	Key.space	n/a
213.1675	0.15	426335	keystroke_d	d	n/a
213.2725	0.119	426545	keystroke_e	e	n/a
213.4675	0.1045	426935	keystroke_c	c	n/a
213.6325	0.12	427265	keystroke_a	a	n/a
213.8125	0.1795	427625	keystroke_d	d	n/a
213.9175	0.1655	427835	keystroke_e	e	n/a
214.0675	0.1345	428135	keystroke_Key.space	Key.space	n/a
214.7115	0.106	429423	keystroke_m	m	n/a
214.9225	0.09	429845	keystroke_i	i	n/a
215.0425	0.12	430085	keystroke_c	c	n/a
215.313	0.09	430626	keystroke_r	r	n/a
215.492	0.1055	430984	keystroke_o	o	n/a
215.627	0.195	431254	keystroke_w	w	n/a
215.7175	0.1505	431435	keystroke_a	a	n/a
216.017	0.1345	432034	keystroke_v	v	n/a
216.408	0.1195	432816	keystroke_e	e	n/a
216.6025	0.12	433205	keystroke_Key.space	Key.space	n/a
216.738	0.135	433476	keystroke_s	s	n/a
216.888	0.104	433776	keystroke_u	u	n/a
217.113	0.0895	434226	keystroke_i	i	n/a
217.262	0.105	434524	keystroke_c	c	n/a
217.4275	0.12	434855	keystroke_i	i	n/a
217.563	0.149	435126	keystroke_d	d	n/a
217.6525	0.1345	435305	keystroke_e	e	n/a
217.847	0.1055	435694	keystroke_Key.enter	Key.enter	n/a
217.9585	8.3505	435917	prompt	n/a	threaded coupons beads gardening\n
218.5975	0.0755	437195	keystroke_t	t	n/a
218.8375	0.1205	437675	keystroke_h	h	n/a
218.9425	0.165	437885	keystroke_r	r	n/a
219.033	0.12	438066	keystroke_e	e	n/a
219.1975	0.15	438395	keystroke_a	a	n/a
219.4075	0.12	438815	keystroke_d	d	n/a
219.5125	0.165	439025	keystroke_e	e	n/a
219.6325	0.119	439265	keystroke_d	d	n/a
219.7675	0.09	439535	keystroke_Key.space	Key.space	n/a
219.8725	0.12	439745	keystroke_c	c	n/a
220.0225	0.195	440045	keystroke_o	o	n/a
220.1125	0.165	440225	keystroke_u	u	n/a
220.3975	0.12	440795	keystroke_p	p	n/a
220.4575	0.2245	440915	keystroke_o	o	n/a
220.6075	0.15	441215	keystroke_n	n	n/a
220.772	0.105	441544	keystroke_s	s	n/a
220.8925	0.1195	441785	keystroke_Key.space	Key.space	n/a
221.0875	0.105	442175	keystroke_b	b	n/a
221.252	0.135	442504	keystroke_e	e	n/a
221.4025	0.1345	442805	keystroke_a	a	n/a
221.5525	0.21	443105	keystroke_d	d	n/a
221.687	0.1355	443374	keystroke_s	s	n/a
221.9865	0.1205	443973	keystroke_Key.space	Key.space	n/a
222.1225	0.059	444245	keystroke_a	a	n/a
222.452	0.0755	444904	keystroke_Key.backspace	Key.backspace	n/a
222.5125	0.09	445025	keystroke_g	g	n/a
222.6775	0.1045	445355	keystroke_a	a	n/a
222.8125	0.1045	445625	keystroke_r	r	n/a
223.082	0.1055	446164	keystroke_d	d	n/a
223.307	0.12	446614	keystroke_e	e	n/a
223.5025	0.09	447005	keystroke_n	n	n/a
223.6825	0.225	447365	keystroke_i	i	n/a
223.7415	0.136	447483	keystroke_u	u	n/a
223.8025	0.165	447605	keystroke_n	n	n/a
223.9525	0.0745	447905	keystroke_g	g	n/a
224.3265	0.0605	448653	keystroke_Key.backspace	Key.backspace	n/a
224.4775	0.0445	448955	keystroke_Key.backspace	Key.backspace	n/a
224.597	0.06	449194	keystroke_Key.backspace	Key.backspace	n/a
224.9125	0.074	449825	keystroke_Key.backspace	Key.backspace	n/a
225.6325	0.18	451265	keystroke_i	i	n/a
225.7375	0.12	451475	keystroke_n	n	n/a
225.8875	0.1055	451775	keystroke_g	g	n/a
226.2325	0.075	452465	keystroke_Key.enter	Key.enter	n/a
226.3135	6.6255	452627	prompt	n/a	department deliver court customs\n
227.103	0.15	454206	keystroke_d	d	n/a
227.2225	0.1045	454445	keystroke_e	e	n/a
227.3575	0.1345	454715	keystroke_p	p	n/a
227.447	0.15	454894	keystroke_a	a	n/a
227.552	0.135	455104	keystroke_r	r	n/a
227.822	0.0755	455644	keystroke_t	t	n/a
228.018	0.104	456036	keystroke_m	m	n/a
228.782	0.12	457564	keystroke_e	e	n/a
228.9165	0.091	457833	keystroke_n	n	n/a
229.0215	0.121	458043	keystroke_t	t	n/a
229.1565	0.106	458313	keystroke_Key.space	Key.space	n/a
229.367	0.105	458734	keystroke_d	d	n/a
229.5175	0.1345	459035	keystroke_e	e	n/a
229.6375	0.1795	459275	keystroke_l	l	n/a
229.742	0.151	459484	keystroke_i	i	n/a
229.847	0.076	459694	keystroke_v	v	n/a
230.027	0.106	460054	keystroke_e	e	n/a
230.0875	0.105	460175	keystroke_r	r	n/a
230.177	0.0895	460354	keystroke_Key.space	Key.space	n/a
230.3275	0.12	460655	keystroke_c	c	n/a
230.4925	0.21	460985	keystroke_o	o	n/a
230.5815	0.151	461163	keystroke_u	u	n/a
230.7475	0.105	461495	keystroke_r	r	n/a
230.9575	0.104	461915	keystroke_t	t	n/a
231.1525	0.12	462305	keystroke_Key.space	Key.space	n/a
231.302	0.15	462604	keystroke_c	c	n/a
231.947	0.09	463894	keystroke_u	u	n/a
232.067	0.15	464134	keystroke_s	s	n/a
232.218	0.1185	464436	keystroke_t	t	n/a
232.3525	0.1795	464705	keystroke_o	o	n/a
232.427	0.12	464854	keystroke_m	m	n/a
232.562	0.105	465124	keystroke_s	s	n/a
232.847	0.0895	465694	keystroke_Key.enter	Key.enter	n/a
232.946	7.1045	465892	prompt	n/a	shine 'tis quest warming\n
233.6715	0.09	467343	keystroke_s	s	n/a
233.7475	0.134	467495	keystroke_h	h	n/a
233.8665	0.165	467733	keystroke_i	i	n/a
233.9875	0.119	467975	keystroke_n	n	n/a
234.0765	0.106	468153	keystroke_e	e	n/a
234.2115	0.12	468423	keystroke_Key.space	Key.space	n/a
234.497	0.0755	468994	keystroke_'	'	n/a
234.677	0.106	469354	keystroke_t	t	n/a
235.1875	0.09	470375	keystroke_i	i	n/a
235.3075	0.09	470615	keystroke_s	s	n/a
235.4275	0.12	470855	keystroke_Key.space	Key.space	n/a
235.5925	0.045	471185	keystroke_q	q	n/a
235.742	0.105	471484	keystroke_u	u	n/a
235.922	0.076	471844	keystroke_r	r	n/a
236.4475	0.06	472895	keystroke_Key.backspace	Key.backspace	n/a
236.582	0.09	473164	keystroke_e	e	n/a
236.732	0.135	473464	keystroke_s	s	n/a
236.987	0.121	473974	keystroke_t	t	n/a
237.1225	0.1495	474245	keystroke_Key.space	Key.space	n/a
237.302	0.105	474604	keystroke_w	w	n/a
237.4975	0.135	474995	keystroke_a	a	n/a
237.602	0.1205	475204	keystroke_r	r	n/a
237.7375	0.1195	475475	keystroke_m	m	n/a
238.8925	0.1045	477785	keystroke_Key.backspace	Key.backspace	n/a
239.3275	0.06	478655	keystroke_n	n	n/a
239.4325	0.24	478865	keystroke_i	i	n/a
239.5975	0.135	479195	keystroke_n	n	n/a
239.7175	0.089	479435	keystroke_g	g	n/a
239.9565	0.09	479913	keystroke_Key.enter	Key.enter	n/a
240.055	9.534	480110	prompt	n/a	prisoner site distributions brokers\n
240.7375	0.1795	481475	keystroke_p	p	n/a
240.8865	0.166	481773	keystroke_i	i	n/a
241.0525	0.09	482105	keystroke_s	s	n/a
241.2025	0.2095	482405	keystroke_o	o	n/a
241.322	0.1505	482644	keystroke_n	n	n/a
241.4875	0.1195	482975	keystroke_e	e	n/a
241.5625	0.12	483125	keystroke_r	r	n/a
241.6975	0.1495	483395	keystroke_Key.space	Key.space	n/a
241.8775	0.1195	483755	keystroke_s	s	n/a
242.657	0.06	485314	keystroke_Key.backspace	Key.backspace	n/a
242.792	0.0305	485584	keystroke_Key.backspace	Key.backspace	n/a
242.897	0.06	485794	keystroke_Key.backspace	Key.backspace	n/a
243.032	0.06	486064	keystroke_Key.backspace	Key.backspace	n/a
243.167	0.06	486334	keystroke_Key.backspace	Key.backspace	n/a
243.287	0.06	486574	keystroke_Key.backspace	Key.backspace	n/a
243.422	0.0605	486844	keystroke_Key.backspace	Key.backspace	n/a
243.542	0.0755	487084	keystroke_Key.backspace	Key.backspace	n/a
243.7225	0.1045	487445	keystroke_r	r	n/a
243.8875	0.09	487775	keystroke_i	i	n/a
244.0675	0.105	488135	keystroke_s	s	n/a
244.2325	0.21	488465	keystroke_o	o	n/a
244.3375	0.165	488675	keystroke_n	n	n/a
244.563	0.1345	489126	keystroke_e	e	n/a
244.6525	0.1355	489305	keystroke_r	r	n/a
244.8015	0.106	489603	keystroke_Key.space	Key.space	n/a
244.9225	0.09	489845	keystroke_s	s	n/a
245.058	0.1195	490116	keystroke_i	i	n/a
245.1915	0.121	490383	keystroke_t	t	n/a
245.2525	0.105	490505	keystroke_e	e	n/a
245.3725	0.12	490745	keystroke_Key.space	Key.space	n/a
245.5215	0.03	491043	keystroke_s	s	n/a
245.7775	0.075	491555	keystroke_Key.backspace	Key.backspace	n/a
245.8825	0.12	491765	keystroke_d	d	n/a
246.0175	0.0895	492035	keystroke_i	i	n/a
246.1525	0.104	492305	keystroke_s	s	n/a
247.0825	0.135	494165	keystroke_t	t	n/a
247.1875	0.12	494375	keystroke_r	r	n/a
247.3375	0.135	494675	keystroke_i	i	n/a
247.5625	0.075	495125	keystroke_b	b	n/a
247.743	0.075	495486	keystroke_u	u	n/a
247.8475	0.09	495695	keystroke_t	t	n/a
247.9525	0.1795	495905	keystroke_i	i	n/a
248.057	0.18	496114	keystroke_o	o	n/a
248.1025	0.1345	496205	keystroke_n	n	n/a
248.252	0.105	496504	keystroke_s	s	n/a
248.387	0.12	496774	keystroke_Key.space	Key.space	n/a
248.567	0.1055	497134	keystroke_b	b	n/a
248.702	0.076	497404	keystroke_r	r	n/a
248.8075	0.18	497615	keystroke_o	o	n/a
248.9425	0.12	497885	keystroke_k	k	n/a
249.0325	0.12	498065	keystroke_e	e	n/a
249.1075	0.105	498215	keystroke_r	r	n/a
249.3025	0.105	498605	keystroke_s	s	n/a
249.4815	0.1055	498963	keystroke_Key.enter	Key.enter	n/a
249.5945	5.214	499189	prompt	n/a	football whose textbooks shortly\n
250.203	0.09	500406	keystroke_f	f	n/a
250.322	0.0755	500644	keystroke_o	o	n/a
250.458	0.0895	500916	keystroke_o	o	n/a
250.5325	0.0895	501065	keystroke_t	t	n/a
250.6675	0.09	501335	keystroke_b	b	n/a
250.8475	0.09	501695	keystroke_a	a	n/a
250.967	0.0605	501934	keystroke_l	l	n/a
251.0875	0.1355	502175	keystroke_l	l	n/a
251.1625	0.15	502325	keystroke_Key.space	Key.space	n/a
251.2975	0.075	502595	keystroke_w	w	n/a
251.4025	0.18	502805	keystroke_h	h	n/a
251.5075	0.15	503015	keystroke_o	o	n/a
251.5675	0.135	503135	keystroke_s	s	n/a
251.6725	0.1205	503345	keystroke_e	e	n/a
251.807	0.1355	503614	keystroke_Key.space	Key.space	n/a
251.897	0.165	503794	keystroke_t	t	n/a
251.9875	0.1355	503975	keystroke_e	e	n/a
252.3175	0.0895	504635	keystroke_x	x	n/a
252.6475	0.06	505295	keystroke_t	t	n/a
252.812	0.0755	505624	keystroke_b	b	n/a
253.0525	0.06	506105	keystroke_o	o	n/a
253.232	0.181	506464	keystroke_o	o	n/a
253.308	0.09	506616	keystroke_k	k	n/a
253.427	0.075	506854	keystroke_s	s	n/a
253.487	0.0905	506974	keystroke_Key.space	Key.space	n/a
253.592	0.06	507184	keystroke_s	s	n/a
253.7425	0.1495	507485	keystroke_h	h	n/a
253.832	0.15	507664	keystroke_o	o	n/a
253.9375	0.09	507875	keystroke_r	r	n/a
254.132	0.105	508264	keystroke_t	t	n/a
254.222	0.21	508444	keystroke_l	l	n/a
254.357	0.1205	508714	keystroke_y	y	n/a
254.7325	0.074	509465	keystroke_Key.enter	Key.enter	n/a
254.812	4.4675	509624	prompt	n/a	boots temp affiliate bones\n
255.483	0.0745	510966	keystroke_b	b	n/a
255.6925	0.045	511385	keystroke_o	o	n/a
255.7825	0.0905	511565	keystroke_o	o	n/a
255.8275	0.135	511655	keystroke_t	t	n/a
255.9175	0.12	511835	keystroke_s	s	n/a
256.0075	0.12	512015	keystroke_Key.space	Key.space	n/a
256.1425	0.165	512285	keystroke_t	t	n/a
256.2475	0.135	512495	keystroke_e	e	n/a
256.3675	0.15	512735	keystroke_m	m	n/a
256.4275	0.165	512855	keystroke_p	p	n/a
256.6075	0.12	513215	keystroke_Key.space	Key.space	n/a
256.8025	0.105	513605	keystroke_a	a	n/a
257.1625	0.045	514325	keystroke_f	f	n/a
257.327	0.0755	514654	keystroke_f	f	n/a
257.537	0.09	515074	keystroke_i	i	n/a
257.7325	0.225	515465	keystroke_l	l	n/a
257.8525	0.1495	515705	keystroke_i	i	n/a
258.0175	0.09	516035	keystroke_a	a	n/a
258.212	0.165	516424	keystroke_t	t	n/a
258.317	0.105	516634	keystroke_e	e	n/a
258.4075	0.1495	516815	keystroke_Key.space	Key.space	n/a
258.5275	0.1495	517055	keystroke_b	b	n/a
258.633	0.27	517266	keystroke_o	o	n/a
258.8125	0.135	517625	keystroke_n	n	n/a
258.932	0.18	517864	keystroke_e	e	n/a
259.007	0.1655	518014	keystroke_s	s	n/a
259.1875	0.089	518375	keystroke_Key.enter	Key.enter	n/a
259.283	7.5415	518566	prompt	n/a	energy compliance allen specifics\n
260.177	0.1055	520354	keystroke_n	n	n/a
260.5215	0.076	521043	keystroke_Key.backspace	Key.backspace	n/a
260.6875	0.09	521375	keystroke_e	e	n/a
260.8075	0.105	521615	keystroke_n	n	n/a
260.8675	0.15	521735	keystroke_e	e	n/a
260.9435	0.1185	521887	keystroke_r	r	n/a
261.1675	0.089	522335	keystroke_g	g	n/a
261.2725	0.15	522545	keystroke_y	y	n/a
261.3615	0.151	522723	keystroke_Key.space	Key.space	n/a
261.4825	0.12	522965	keystroke_c	c	n/a
261.6175	0.12	523235	keystroke_o	o	n/a
261.677	0.1055	523354	keystroke_m	m	n/a
261.902	0.1505	523804	keystroke_p	p	n/a
262.0065	0.105	524013	keystroke_l	l	n/a
262.2325	0.09	524465	keystroke_i	i	n/a
262.2915	0.137	524583	keystroke_c	c	n/a
262.3975	0.179	524795	keystroke_a	a	n/a
262.9075	0.059	525815	keystroke_Key.backspace	Key.backspace	n/a
263.0425	0.059	526085	keystroke_Key.backspace	Key.backspace	n/a
263.237	0.1055	526474	keystroke_a	a	n/a
263.402	0.09	526804	keystroke_n	n	n/a
263.5225	0.1645	527045	keystroke_c	c	n/a
263.6275	0.1495	527255	keystroke_e	e	n/a
263.747	0.135	527494	keystroke_Key.space	Key.space	n/a
264.0175	0.12	528035	keystroke_a	a	n/a
264.182	0.0755	528364	keystroke_l	l	n/a
264.3025	0.105	528605	keystroke_l	l	n/a
264.4375	0.1045	528875	keystroke_e	e	n/a
264.557	0.2105	529114	keystroke_n	n	n/a
264.707	0.15	529414	keystroke_Key.space	Key.space	n/a
264.9175	0.105	529835	keystroke_s	s	n/a
265.0825	0.09	530165	keystroke_p	p	n/a
265.337	0.105	530674	keystroke_e	e	n/a
265.6375	0.15	531275	keystroke_c	c	n/a
265.8775	0.059	531755	keystroke_i	i	n/a
265.9515	0.106	531903	keystroke_f	f	n/a
266.073	0.1045	532146	keystroke_i	i	n/a
266.207	0.165	532414	keystroke_c	c	n/a
266.3415	0.136	532683	keystroke_s	s	n/a
266.7765	0.045	533553	keystroke_Key.enter	Key.enter	n/a
266.829	9.355	533658	prompt	n/a	confident capable queensland lecture\n
267.527	0.09	535054	keystroke_c	c	n/a
267.632	0.135	535264	keystroke_o	o	n/a
267.6925	0.1195	535385	keystroke_n	n	n/a
267.813	0.0895	535626	keystroke_f	f	n/a
267.918	0.105	535836	keystroke_i	i	n/a
268.0375	0.1205	536075	keystroke_d	d	n/a
268.082	0.1505	536164	keystroke_e	e	n/a
268.248	0.1045	536496	keystroke_n	n	n/a
268.338	0.1045	536676	keystroke_t	t	n/a
268.457	0.105	536914	keystroke_Key.space	Key.space	n/a
268.622	0.0905	537244	keystroke_c	c	n/a
268.952	0.0905	537904	keystroke_a	a	n/a
269.207	0.09	538414	keystroke_p	p	n/a
269.3275	0.105	538655	keystroke_a	a	n/a
269.5075	0.195	539015	keystroke_b	b	n/a
269.6425	0.1345	539285	keystroke_l	l	n/a
269.7475	0.0755	539495	keystroke_e	e	n/a
269.8975	0.12	539795	keystroke_Key.space	Key.space	n/a
270.0775	0.09	540155	keystroke_q	q	n/a
270.2275	0.09	540455	keystroke_u	u	n/a
270.4975	0.045	540995	keystroke_e	e	n/a
270.6025	0.09	541205	keystroke_e	e	n/a
270.7525	0.1055	541505	keystroke_n	n	n/a
270.8725	0.09	541745	keystroke_s	s	n/a
271.0375	0.09	542075	keystroke_l	l	n/a
271.0525	0.06	542105	keystroke_o	o	n/a
271.1125	0.075	542225	keystroke_a	a	n/a
271.2025	0.1045	542405	keystroke_n	n	n/a
271.2925	0.09	542585	keystroke_d	d	n/a
271.8025	0.0295	543605	keystroke_Key.backspace	Key.backspace	n/a
271.907	0.0455	543814	keystroke_Key.backspace	Key.backspace	n/a
272.0265	0.046	544053	keystroke_Key.backspace	Key.backspace	n/a
272.1315	0.076	544263	keystroke_Key.backspace	Key.backspace	n/a
272.4465	0.0755	544893	keystroke_Key.backspace	Key.backspace	n/a
272.6275	0.045	545255	keystroke_Key.backspace	Key.backspace	n/a
273.2125	0.104	546425	keystroke_s	s	n/a
273.4075	0.104	546815	keystroke_l	l	n/a
273.497	0.1195	546994	keystroke_a	a	n/a
273.633	0.1195	547266	keystroke_n	n	n/a
273.753	0.134	547506	keystroke_d	d	n/a
273.902	0.105	547804	keystroke_Key.space	Key.space	n/a
274.1125	0.12	548225	keystroke_l	l	n/a
274.1565	0.106	548313	keystroke_e	e	n/a
274.3675	0.1195	548735	keystroke_c	c	n/a
274.6525	0.074	549305	keystroke_t	t	n/a
274.7725	0.09	549545	keystroke_u	u	n/a
274.7875	0.06	549575	keystroke_y	y	n/a
274.8625	0.1345	549725	keystroke_r	r	n/a
274.9225	0.12	549845	keystroke_e	e	n/a
275.282	0.0305	550564	keystroke_Key.backspace	Key.backspace	n/a
275.387	0.06	550774	keystroke_Key.backspace	Key.backspace	n/a
275.507	0.075	551014	keystroke_Key.backspace	Key.backspace	n/a
275.852	0.1355	551704	keystroke_r	r	n/a
275.927	0.1205	551854	keystroke_e	e	n/a
276.0925	0.09	552185	keystroke_Key.enter	Key.enter	n/a
276.1885	6.0255	552377	prompt	n/a	prevention sagem franklin floors\n
276.782	0.09	553564	keystroke_p	p	n/a
276.842	0.1355	553684	keystroke_r	r	n/a
276.948	0.074	553896	keystroke_e	e	n/a
277.128	0.1185	554256	keystroke_v	v	n/a
277.2175	0.119	554435	keystroke_e	e	n/a
277.3825	0.09	554765	keystroke_n	n	n/a
277.4875	0.135	554975	keystroke_t	t	n/a
277.6075	0.33	555215	keystroke_i	i	n/a
277.7275	0.18	555455	keystroke_o	o	n/a
277.7575	0.1955	555515	keystroke_n	n	n/a
277.9225	0.1795	555845	keystroke_Key.space	Key.space	n/a
278.192	0.09	556384	keystroke_s	s	n/a
278.4625	0.09	556925	keystroke_a	a	n/a
278.717	0.1345	557434	keystroke_g	g	n/a
278.8365	0.136	557673	keystroke_e	e	n/a
278.9415	0.1655	557883	keystroke_m	m	n/a
279.032	0.165	558064	keystroke_Key.space	Key.space	n/a
279.2275	0.1045	558455	keystroke_f	f	n/a
279.453	0.089	558906	keystroke_r	r	n/a
279.647	0.0905	559294	keystroke_a	a	n/a
279.767	0.1505	559534	keystroke_n	n	n/a
279.932	0.03	559864	keystroke_k	k	n/a
280.5775	0.1195	561155	keystroke_l	l	n/a
280.6675	0.2245	561335	keystroke_i	i	n/a
280.7725	0.1795	561545	keystroke_n	n	n/a
280.893	0.1485	561786	keystroke_Key.space	Key.space	n/a
281.0725	0.135	562145	keystroke_f	f	n/a
281.2375	0.059	562475	keystroke_l	l	n/a
281.4325	0.029	562865	keystroke_o	o	n/a
281.5525	0.105	563105	keystroke_o	o	n/a
281.6425	0.12	563285	keystroke_r	r	n/a
281.7175	0.119	563435	keystroke_s	s	n/a
282.122	0.09	564244	keystroke_Key.enter	Key.enter	n/a
282.2175	8.172	564435	prompt	n/a	alliance bacteria regional amateur\n
282.722	0.1055	565444	keystroke_a	a	n/a
282.872	0.075	565744	keystroke_l	l	n/a
282.992	0.135	565984	keystroke_l	l	n/a
283.082	0.15	566164	keystroke_i	i	n/a
283.203	0.1045	566406	keystroke_a	a	n/a
283.3825	0.1205	566765	keystroke_n	n	n/a
283.578	0.149	567156	keystroke_e	e	n/a
283.6825	0.1045	567365	keystroke_Key.space	Key.space	n/a
283.877	0.0905	567754	keystroke_b	b	n/a
283.982	0.1355	567964	keystroke_a	a	n/a
284.7465	0.046	569493	keystroke_Key.backspace	Key.backspace	n/a
284.807	0.0455	569614	keystroke_Key.backspace	Key.backspace	n/a
284.9425	0.059	569885	keystroke_Key.backspace	Key.backspace	n/a
285.0925	0.075	570185	keystroke_Key.backspace	Key.backspace	n/a
285.287	0.15	570574	keystroke_c	c	n/a
285.3625	0.1195	570725	keystroke_e	e	n/a
285.512	0.105	571024	keystroke_Key.space	Key.space	n/a
285.932	0.105	571864	keystroke_b	b	n/a
286.1585	0.134	572317	keystroke_a	a	n/a
286.4425	0.12	572885	keystroke_c	c	n/a
286.757	0.0905	573514	keystroke_t	t	n/a
286.9375	0.105	573875	keystroke_e	e	n/a
286.9975	0.12	573995	keystroke_r	r	n/a
287.1325	0.104	574265	keystroke_i	i	n/a
287.252	0.0755	574504	keystroke_a	a	n/a
287.3575	0.12	574715	keystroke_Key.space	Key.space	n/a
287.4625	0.12	574925	keystroke_r	r	n/a
287.522	0.105	575044	keystroke_e	e	n/a
287.702	0.105	575404	keystroke_g	g	n/a
287.7925	0.2395	575585	keystroke_i	i	n/a
287.882	0.165	575764	keystroke_o	o	n/a
287.957	0.15	575914	keystroke_n	n	n/a
288.092	0.0755	576184	keystroke_a	a	n/a
288.2275	0.1945	576455	keystroke_l	l	n/a
288.347	0.18	576694	keystroke_Key.space	Key.space	n/a
288.6475	0.1045	577295	keystroke_a	a	n/a
288.8275	0.1195	577655	keystroke_m	m	n/a
288.932	0.076	577864	keystroke_a	a	n/a
289.2325	0.1345	578465	keystroke_t	t	n/a
289.7865	0.0755	579573	keystroke_e	e	n/a
289.907	0.105	579814	keystroke_u	u	n/a
290.0425	0.09	580085	keystroke_r	r	n/a
290.2975	0.0895	580595	keystroke_Key.enter	Key.enter	n/a
290.327	0.03	580654	keystroke_\	\	n/a
290.393	5.4705	580786	prompt	n/a	wicked should've orbit walker\n
290.9725	0.0895	581945	keystroke_w	w	n/a
291.182	0.09	582364	keystroke_i	i	n/a
291.302	0.105	582604	keystroke_c	c	n/a
291.452	0.1355	582904	keystroke_k	k	n/a
291.542	0.1195	583084	keystroke_e	e	n/a
291.7225	0.119	583445	keystroke_d	d	n/a
291.9025	0.119	583805	keystroke_Key.space	Key.space	n/a
292.3365	0.0905	584673	keystroke_s	s	n/a
292.4115	0.091	584823	keystroke_h	h	n/a
292.5325	0.15	585065	keystroke_o	o	n/a
292.6525	0.195	585305	keystroke_u	u	n/a
292.7875	0.1205	585575	keystroke_l	l	n/a
292.9225	0.09	585845	keystroke_d	d	n/a
293.1165	0.0905	586233	keystroke_'	'	n/a
293.327	0.09	586654	keystroke_v	v	n/a
293.8225	0.12	587645	keystroke_e	e	n/a
294.017	0.165	588034	keystroke_Key.space	Key.space	n/a
294.1525	0.1355	588305	keystroke_o	o	n/a
294.2715	0.1055	588543	keystroke_r	r	n/a
294.5125	0.195	589025	keystroke_b	b	n/a
294.647	0.151	589294	keystroke_i	i	n/a
294.737	0.091	589474	keystroke_t	t	n/a
294.872	0.135	589744	keystroke_Key.space	Key.space	n/a
295.022	0.1655	590044	keystroke_w	w	n/a
295.1125	0.1345	590225	keystroke_a	a	n/a
295.2625	0.1495	590525	keystroke_l	l	n/a
295.3375	0.1195	590675	keystroke_k	k	n/a
295.427	0.165	590854	keystroke_e	e	n/a
295.518	0.1345	591036	keystroke_r	r	n/a
295.757	0.1055	591514	keystroke_Key.enter	Key.enter	n/a
295.867	7.3475	591734	prompt	n/a	speak fonts bargains starsmerchant\n
296.6275	0.12	593255	keystroke_s	s	n/a
296.7325	0.1045	593465	keystroke_p	p	n/a
296.852	0.1655	593704	keystroke_e	e	n/a
296.9275	0.15	593855	keystroke_a	a	n/a
297.0475	0.1945	594095	keystroke_k	k	n/a
297.1825	0.1945	594365	keystroke_Key.space	Key.space	n/a
297.5275	0.104	595055	keystroke_f	f	n/a
297.693	0.2395	595386	keystroke_o	o	n/a
297.8275	0.165	595655	keystroke_n	n	n/a
297.9475	0.18	595895	keystroke_t	t	n/a
298.0675	0.15	596135	keystroke_s	s	n/a
298.2475	0.119	596495	keystroke_Key.space	Key.space	n/a
298.487	0.105	596974	keystroke_b	b	n/a
298.5475	0.1495	597095	keystroke_a	a	n/a
298.6825	0.1045	597365	keystroke_r	r	n/a
298.923	0.075	597846	keystroke_g	g	n/a
299.103	0.105	598206	keystroke_a	a	n/a
299.2375	0.21	598475	keystroke_i	i	n/a
299.3275	0.165	598655	keystroke_n	n	n/a
299.4775	0.09	598955	keystroke_s	s	n/a
299.5975	0.135	599195	keystroke_Key.space	Key.space	n/a
299.913	0.119	599826	keystroke_s	s	n/a
300.1675	0.0895	600335	keystroke_t	t	n/a
300.3625	0.18	600725	keystroke_a	a	n/a
300.4975	0.15	600995	keystroke_r	r	n/a
301.277	0.0755	602554	keystroke_s	s	n/a
301.952	0.105	603904	keystroke_m	m	n/a
302.0725	0.1195	604145	keystroke_e	e	n/a
302.133	0.119	604266	keystroke_r	r	n/a
302.387	0.105	604774	keystroke_c	c	n/a
302.5075	0.0895	605015	keystroke_h	h	n/a
302.627	0.0745	605254	keystroke_a	a	n/a
302.7475	0.09	605495	keystroke_n	n	n/a
302.8825	0.12	605765	keystroke_t	t	n/a
303.1075	0.105	606215	keystroke_Key.enter	Key.enter	n/a
303.2185	5.7255	606437	prompt	n/a	trout disability morning booking\n
303.8275	0.0895	607655	keystroke_t	t	n/a
304.007	0.0905	608014	keystroke_r	r	n/a
304.067	0.1805	608134	keystroke_o	o	n/a
304.1575	0.1195	608315	keystroke_u	u	n/a
304.2625	0.075	608525	keystroke_t	t	n/a
304.367	0.12	608734	keystroke_Key.space	Key.space	n/a
304.5325	0.1345	609065	keystroke_d	d	n/a
304.713	0.074	609426	keystroke_i	i	n/a
304.9075	0.1045	609815	keystroke_s	s	n/a
305.2065	0.091	610413	keystroke_a	a	n/a
305.4325	0.075	610865	keystroke_b	b	n/a
305.6585	0.134	611317	keystroke_i	i	n/a
305.7775	0.2255	611555	keystroke_l	l	n/a
305.9125	0.164	611825	keystroke_i	i	n/a
305.9875	0.074	611975	keystroke_t	t	n/a
306.1365	0.076	612273	keystroke_y	y	n/a
306.2275	0.12	612455	keystroke_Key.space	Key.space	n/a
306.4215	0.1655	612843	keystroke_m	m	n/a
306.5275	0.12	613055	keystroke_o	o	n/a
306.602	0.06	613204	keystroke_r	r	n/a
306.797	0.1655	613594	keystroke_n	n	n/a
306.9325	0.1345	613865	keystroke_i	i	n/a
306.992	0.106	613984	keystroke_n	n	n/a
307.112	0.06	614224	keystroke_g	g	n/a
307.2775	0.1195	614555	keystroke_Key.space	Key.space	n/a
307.442	0.09	614884	keystroke_b	b	n/a
307.637	0.0455	615274	keystroke_o	o	n/a
307.803	0.149	615606	keystroke_o	o	n/a
307.892	0.12	615784	keystroke_k	k	n/a
308.417	0.1355	616834	keystroke_i	i	n/a
308.4925	0.135	616985	keystroke_n	n	n/a
308.6425	0.0895	617285	keystroke_g	g	n/a
308.852	0.09	617704	keystroke_Key.enter	Key.enter	n/a
308.9515	9.5175	617903	prompt	n/a	halifax separation edinburgh invasion\n
309.9475	0.1045	619895	keystroke_h	h	n/a
310.097	0.105	620194	keystroke_a	a	n/a
310.262	0.1955	620524	keystroke_l	l	n/a
310.382	0.15	620764	keystroke_i	i	n/a
310.592	0.105	621184	keystroke_f	f	n/a
310.7875	0.105	621575	keystroke_a	a	n/a
310.967	0.1205	621934	keystroke_x	x	n/a
311.4325	0.1195	622865	keystroke_Key.space	Key.space	n/a
311.5665	0.106	623133	keystroke_s	s	n/a
311.7925	0.075	623585	keystroke_e	e	n/a
312.0625	0.105	624125	keystroke_p	p	n/a
312.3925	0.12	624785	keystroke_a	a	n/a
312.6625	0.105	625325	keystroke_r	r	n/a
312.7975	0.12	625595	keystroke_a	a	n/a
313.0225	0.0905	626045	keystroke_t	t	n/a
313.1425	0.2105	626285	keystroke_i	i	n/a
313.2775	0.1345	626555	keystroke_o	o	n/a
313.293	0.134	626586	keystroke_n	n	n/a
313.3825	0.15	626765	keystroke_Key.space	Key.space	n/a
313.5475	0.105	627095	keystroke_e	e	n/a
314.103	0.0895	628206	keystroke_d	d	n/a
314.2675	0.27	628535	keystroke_i	i	n/a
314.4325	0.15	628865	keystroke_n	n	n/a
314.7475	0.105	629495	keystroke_b	b	n/a
314.8675	0.135	629735	keystroke_u	u	n/a
315.9615	0.121	631923	keystroke_r	r	n/a
316.382	0.121	632764	keystroke_f	f	n/a
316.757	0.0905	633514	keystroke_g	g	n/a
317.0125	0.1045	634025	keystroke_Key.space	Key.space	n/a
317.1775	0.15	634355	keystroke_i	i	n/a
317.2815	0.1355	634563	keystroke_n	n	n/a
317.4325	0.0755	634865	keystroke_v	v	n/a
317.627	0.105	635254	keystroke_a	a	n/a
317.792	0.12	635584	keystroke_s	s	n/a
317.897	0.21	635794	keystroke_i	i	n/a
318.002	0.195	636004	keystroke_o	o	n/a
318.0775	0.135	636155	keystroke_n	n	n/a
318.392	0.075	636784	keystroke_Key.enter	Key.enter	n/a
318.473	6.2815	636946	prompt	n/a	finnish pacific stored when's\n
319.0825	0.0745	638165	keystroke_f	f	n/a
319.2015	0.106	638403	keystroke_i	i	n/a
319.4275	0.045	638855	keystroke_n	n	n/a
319.5625	0.104	639125	keystroke_n	n	n/a
319.6525	0.1055	639305	keystroke_i	i	n/a
319.7725	0.09	639545	keystroke_s	s	n/a
319.8775	0.15	639755	keystroke_h	h	n/a
319.9675	0.12	639935	keystroke_Key.space	Key.space	n/a
320.192	0.075	640384	keystroke_p	p	n/a
320.297	0.0905	640594	keystroke_a	a	n/a
320.5075	0.135	641015	keystroke_c	c	n/a
320.7175	0.0755	641435	keystroke_i	i	n/a
320.837	0.09	641674	keystroke_f	f	n/a
320.958	0.105	641916	keystroke_i	i	n/a
321.047	0.09	642094	keystroke_c	c	n/a
321.182	0.0905	642364	keystroke_Key.space	Key.space	n/a
321.377	0.105	642754	keystroke_s	s	n/a
321.812	0.075	643624	keystroke_t	t	n/a
322.022	0.12	644044	keystroke_o	o	n/a
322.097	0.18	644194	keystroke_r	r	n/a
322.2025	0.1345	644405	keystroke_e	e	n/a
322.2925	0.1495	644585	keystroke_s	s	n/a
322.6825	0.1045	645365	keystroke_Key.space	Key.space	n/a
323.2825	0.0445	646565	keystroke_Key.backspace	Key.backspace	n/a
323.3875	0.044	646775	keystroke_Key.backspace	Key.backspace	n/a
323.4775	0.105	646955	keystroke_d	d	n/a
323.6715	0.105	647343	keystroke_Key.space	Key.space	n/a
323.7625	0.09	647525	keystroke_w	w	n/a
323.8675	0.1055	647735	keystroke_h	h	n/a
323.987	0.0755	647974	keystroke_e	e	n/a
324.0925	0.09	648185	keystroke_n	n	n/a
324.3325	0.106	648665	keystroke_'	'	n/a
324.4525	0.105	648905	keystroke_s	s	n/a
324.6625	0.09	649325	keystroke_Key.enter	Key.enter	n/a
324.759	7.375	649518	prompt	n/a	rebel relations went porsche\n
325.4575	0.135	650915	keystroke_r	r	n/a
325.5325	0.15	651065	keystroke_e	e	n/a
325.7715	0.09	651543	keystroke_b	b	n/a
325.8775	0.105	651755	keystroke_e	e	n/a
326.027	0.0905	652054	keystroke_l	l	n/a
326.267	0.1355	652534	keystroke_Key.space	Key.space	n/a
326.432	0.18	652864	keystroke_r	r	n/a
326.522	0.1355	653044	keystroke_e	e	n/a
326.717	0.121	653434	keystroke_l	l	n/a
326.792	0.105	653584	keystroke_a	a	n/a
326.9575	0.1195	653915	keystroke_t	t	n/a
327.0625	0.1805	654125	keystroke_i	i	n/a
327.167	0.1355	654334	keystroke_n	n	n/a
327.182	0.1055	654364	keystroke_o	o	n/a
327.3025	0.09	654605	keystroke_s	s	n/a
327.4375	0.1045	654875	keystroke_Key.space	Key.space	n/a
327.5575	0.1195	655115	keystroke_w	w	n/a
327.632	0.151	655264	keystroke_e	e	n/a
328.0675	0.0595	656135	keystroke_Key.backspace	Key.backspace	n/a
328.202	0.06	656404	keystroke_Key.backspace	Key.backspace	n/a
328.3225	0.075	656645	keystroke_Key.backspace	Key.backspace	n/a
328.4725	0.06	656945	keystroke_Key.backspace	Key.backspace	n/a
328.5925	0.06	657185	keystroke_Key.backspace	Key.backspace	n/a
328.7275	0.045	657455	keystroke_Key.backspace	Key.backspace	n/a
329.0725	0.1495	658145	keystroke_o	o	n/a
329.177	0.1205	658354	keystroke_n	n	n/a
329.3415	0.106	658683	keystroke_s	s	n/a
329.4765	0.105	658953	keystroke_Key.space	Key.space	n/a
329.5675	0.1195	659135	keystroke_w	w	n/a
329.643	0.1345	659286	keystroke_e	e	n/a
329.778	0.119	659556	keystroke_n	n	n/a
329.928	0.1195	659856	keystroke_t	t	n/a
330.062	0.075	660124	keystroke_Key.space	Key.space	n/a
330.258	0.12	660516	keystroke_p	p	n/a
330.467	0.12	660934	keystroke_o	o	n/a
330.9175	0.09	661835	keystroke_r	r	n/a
331.337	0.105	662674	keystroke_s	s	n/a
331.562	0.09	663124	keystroke_c	c	n/a
331.668	0.104	663336	keystroke_h	h	n/a
331.802	0.09	663604	keystroke_e	e	n/a
332.042	0.09	664084	keystroke_Key.enter	Key.enter	n/a
332.1375	13.2265	664275	prompt	n/a	cycling annotation countries legislative\n
332.748	0.074	665496	keystroke_c	c	n/a
333.1825	0.09	666365	keystroke_y	y	n/a
333.318	0.1045	666636	keystroke_c	c	n/a
333.5425	0.165	667085	keystroke_l	l	n/a
333.6475	0.15	667295	keystroke_i	i	n/a
333.7225	0.1205	667445	keystroke_n	n	n/a
333.8125	0.0895	667625	keystroke_g	g	n/a
333.9625	0.105	667925	keystroke_Key.space	Key.space	n/a
334.1425	0.12	668285	keystroke_a	a	n/a
334.5775	0.06	669155	keystroke_n	n	n/a
334.7425	0.06	669485	keystroke_n	n	n/a
334.9525	0.09	669905	keystroke_o	o	n/a
335.1025	0.1045	670205	keystroke_t	t	n/a
335.417	0.1055	670834	keystroke_a	a	n/a
335.658	0.0745	671316	keystroke_t	t	n/a
335.747	0.2405	671494	keystroke_i	i	n/a
335.897	0.165	671794	keystroke_n	n	n/a
335.913	0.164	671826	keystroke_o	o	n/a
336.017	0.135	672034	keystroke_Key.space	Key.space	n/a
336.212	0.1055	672424	keystroke_c	c	n/a
336.632	0.045	673264	keystroke_Key.backspace	Key.backspace	n/a
336.752	0.06	673504	keystroke_Key.backspace	Key.backspace	n/a
336.887	0.075	673774	keystroke_Key.backspace	Key.backspace	n/a
337.2175	0.0445	674435	keystroke_Key.backspace	Key.backspace	n/a
337.457	0.0755	674914	keystroke_o	o	n/a
337.622	0.09	675244	keystroke_n	n	n/a
337.742	0.09	675484	keystroke_c	c	n/a
337.8775	0.09	675755	keystroke_Key.space	Key.space	n/a
338.267	0.03	676534	keystroke_Key.backspace	Key.backspace	n/a
338.3725	0.0595	676745	keystroke_Key.backspace	Key.backspace	n/a
338.6275	0.0895	677255	keystroke_Key.space	Key.space	n/a
338.762	0.135	677524	keystroke_c	c	n/a
338.882	0.135	677764	keystroke_o	o	n/a
338.958	0.1045	677916	keystroke_u	u	n/a
339.2275	0.1045	678455	keystroke_n	n	n/a
339.317	0.15	678634	keystroke_t	t	n/a
339.422	0.105	678844	keystroke_r	r	n/a
339.707	0.09	679414	keystroke_i	i	n/a
339.858	0.1645	679716	keystroke_e	e	n/a
339.917	0.165	679834	keystroke_s	s	n/a
340.097	0.105	680194	keystroke_Key.space	Key.space	n/a
340.2925	0.09	680585	keystroke_l	l	n/a
340.367	0.09	680734	keystroke_e	e	n/a
340.727	0.09	681454	keystroke_g	g	n/a
342.347	0.1205	684694	keystroke_i	i	n/a
342.527	0.12	685054	keystroke_z	z	n/a
343.202	0.06	686404	keystroke_Key.backspace	Key.backspace	n/a
343.9825	0.09	687965	keystroke_s	s	n/a
344.133	0.1345	688266	keystroke_l	l	n/a
344.2525	0.075	688505	keystroke_a	a	n/a
344.5525	0.045	689105	keystroke_t	t	n/a
344.657	0.105	689314	keystroke_i	i	n/a
344.793	0.1645	689586	keystroke_v	v	n/a
344.897	0.135	689794	keystroke_e	e	n/a
345.287	0.0755	690574	keystroke_Key.enter	Key.enter	n/a
345.3685	7.6755	690737	prompt	n/a	elderly founded thong relaxation\n
346.113	0.09	692226	keystroke_e	e	n/a
346.727	0.105	693454	keystroke_l	l	n/a
346.8775	0.1195	693755	keystroke_d	d	n/a
347.043	0.134	694086	keystroke_e	e	n/a
347.132	0.135	694264	keystroke_r	r	n/a
347.237	0.15	694474	keystroke_l	l	n/a
347.372	0.1805	694744	keystroke_y	y	n/a
347.4775	0.12	694955	keystroke_Key.space	Key.space	n/a
347.5825	0.09	695165	keystroke_f	f	n/a
347.703	0.1345	695406	keystroke_o	o	n/a
347.7475	0.1355	695495	keystroke_u	u	n/a
348.0775	0.105	696155	keystroke_n	n	n/a
348.1835	0.164	696367	keystroke_d	d	n/a
348.3325	0.165	696665	keystroke_e	e	n/a
348.453	0.1345	696906	keystroke_d	d	n/a
348.6175	0.12	697235	keystroke_Key.space	Key.space	n/a
348.842	0.076	697684	keystroke_t	t	n/a
348.9325	0.1355	697865	keystroke_h	h	n/a
349.0525	0.195	698105	keystroke_o	o	n/a
349.1725	0.12	698345	keystroke_n	n	n/a
349.293	0.0745	698586	keystroke_g	g	n/a
349.4125	0.105	698825	keystroke_Key.space	Key.space	n/a
349.6225	0.165	699245	keystroke_r	r	n/a
349.728	0.1195	699456	keystroke_e	e	n/a
349.8925	0.105	699785	keystroke_l	l	n/a
349.9975	0.1355	699995	keystroke_a	a	n/a
350.8675	0.105	701735	keystroke_c	c	n/a
351.437	0.075	702874	keystroke_Key.backspace	Key.backspace	n/a
351.542	0.1355	703084	keystroke_x	x	n/a
351.9625	0.09	703925	keystroke_a	a	n/a
352.2325	0.09	704465	keystroke_t	t	n/a
352.353	0.225	704706	keystroke_i	i	n/a
352.4875	0.1505	704975	keystroke_o	o	n/a
352.5025	0.1655	705005	keystroke_n	n	n/a
352.982	0.06	705964	keystroke_Key.enter	Key.enter	n/a
353.0485	7.481	706097	prompt	n/a	placed decorative officer tremendous\n
353.7325	0.194	707465	keystroke_p	p	n/a
353.8525	0.135	707705	keystroke_l	l	n/a
353.9725	0.105	707945	keystroke_a	a	n/a
354.1375	0.12	708275	keystroke_c	c	n/a
354.3325	0.135	708665	keystroke_e	e	n/a
354.5425	0.12	709085	keystroke_d	d	n/a
354.6935	0.119	709387	keystroke_Key.space	Key.space	n/a
354.7975	0.135	709595	keystroke_d	d	n/a
354.8725	0.12	709745	keystroke_e	e	n/a
355.2175	0.12	710435	keystroke_c	c	n/a
355.4275	0.105	710855	keystroke_o	o	n/a
355.682	0.075	711364	keystroke_r	r	n/a
356.2375	0.12	712475	keystroke_a	a	n/a
356.5975	0.09	713195	keystroke_t	t	n/a
356.8975	0.1205	713795	keystroke_i	i	n/a
357.0025	0.15	714005	keystroke_v	v	n/a
357.0925	0.135	714185	keystroke_e	e	n/a
357.2425	0.1795	714485	keystroke_Key.space	Key.space	n/a
357.362	0.12	714724	keystroke_o	o	n/a
357.483	0.0595	714966	keystroke_f	f	n/a
357.6025	0.1045	715205	keystroke_f	f	n/a
357.7825	0.0745	715565	keystroke_i	i	n/a
357.8725	0.0745	715745	keystroke_c	c	n/a
357.977	0.18	715954	keystroke_e	e	n/a
358.098	0.119	716196	keystroke_r	r	n/a
358.202	0.135	716404	keystroke_Key.space	Key.space	n/a
358.4575	0.075	716915	keystroke_t	t	n/a
358.877	0.09	717754	keystroke_r	r	n/a
359.1025	0.0745	718205	keystroke_e	e	n/a
359.4625	0.09	718925	keystroke_m	m	n/a
359.6425	0.09	719285	keystroke_e	e	n/a
359.807	0.09	719614	keystroke_n	n	n/a
359.927	0.091	719854	keystroke_d	d	n/a
360.063	0.1645	720126	keystroke_o	o	n/a
360.1375	0.15	720275	keystroke_u	u	n/a
360.272	0.076	720544	keystroke_s	s	n/a
360.422	0.105	720844	keystroke_Key.enter	Key.enter	n/a
360.534	8.3805	721068	prompt	n/a	washer developed go stylus\n
361.1125	0.12	722225	keystroke_w	w	n/a
361.2775	0.1795	722555	keystroke_a	a	n/a
361.397	0.1055	722794	keystroke_s	s	n/a
361.5325	0.0895	723065	keystroke_h	h	n/a
361.637	0.12	723274	keystroke_e	e	n/a
361.712	0.135	723424	keystroke_r	r	n/a
361.832	0.1355	723664	keystroke_Key.space	Key.space	n/a
361.9975	0.135	723995	keystroke_d	d	n/a
362.087	0.1355	724174	keystroke_e	e	n/a
362.357	0.105	724714	keystroke_v	v	n/a
362.568	0.075	725136	keystroke_e	e	n/a
362.687	0.06	725374	keystroke_k	k	n/a
362.8675	0.06	725735	keystroke_i	i	n/a
362.972	0.12	725944	keystroke_p	p	n/a
363.048	0.1195	726096	keystroke_e	e	n/a
363.1375	0.105	726275	keystroke_d	d	n/a
363.3025	0.135	726605	keystroke_Key.space	Key.space	n/a
363.4525	0.06	726905	keystroke_g	g	n/a
363.6775	0.059	727355	keystroke_Key.backspace	Key.backspace	n/a
363.8265	0.046	727653	keystroke_Key.backspace	Key.backspace	n/a
363.9325	0.06	727865	keystroke_Key.backspace	Key.backspace	n/a
364.0675	0.06	728135	keystroke_Key.backspace	Key.backspace	n/a
364.2025	0.06	728405	keystroke_Key.backspace	Key.backspace	n/a
364.3375	0.06	728675	keystroke_Key.backspace	Key.backspace	n/a
364.5925	0.06	729185	keystroke_Key.backspace	Key.backspace	n/a
364.983	0.0895	729966	keystroke_l	l	n/a
365.298	0.0745	730596	keystroke_o	o	n/a
365.5525	0.1055	731105	keystroke_p	p	n/a
365.672	0.1805	731344	keystroke_e	e	n/a
365.792	0.1505	731584	keystroke_d	d	n/a
365.9575	0.135	731915	keystroke_Key.space	Key.space	n/a
366.228	0.075	732456	keystroke_g	g	n/a
366.3475	0.21	732695	keystroke_o	o	n/a
366.4825	0.149	732965	keystroke_Key.space	Key.space	n/a
366.9325	0.1355	733865	keystroke_s	s	n/a
367.1875	0.105	734375	keystroke_t	t	n/a
367.4865	0.0765	734973	keystroke_y	y	n/a
367.9225	0.09	735845	keystroke_l	l	n/a
368.1325	0.0895	736265	keystroke_u	u	n/a
368.343	0.0745	736686	keystroke_s	s	n/a
368.852	0.06	737704	keystroke_Key.enter	Key.enter	n/a
368.919	6.115	737838	prompt	n/a	horizontal concept minnesota edge\n
369.6625	0.075	739325	keystroke_h	h	n/a
369.7975	0.12	739595	keystroke_o	o	n/a
369.9025	0.105	739805	keystroke_r	r	n/a
370.0825	0.105	740165	keystroke_i	i	n/a
370.2475	0.12	740495	keystroke_z	z	n/a
370.4425	0.195	740885	keystroke_o	o	n/a
370.5175	0.15	741035	keystroke_n	n	n/a
370.652	0.09	741304	keystroke_t	t	n/a
370.8025	0.12	741605	keystroke_a	a	n/a
370.8925	0.15	741785	keystroke_l	l	n/a
370.997	0.12	741994	keystroke_Key.space	Key.space	n/a
371.087	0.0755	742174	keystroke_c	c	n/a
371.192	0.1355	742384	keystroke_o	o	n/a
371.2675	0.12	742535	keystroke_n	n	n/a
371.343	0.1345	742686	keystroke_c	c	n/a
371.433	0.1345	742866	keystroke_e	e	n/a
371.5525	0.105	743105	keystroke_p	p	n/a
371.7025	0.06	743405	keystroke_t	t	n/a
371.7775	0.12	743555	keystroke_Key.space	Key.space	n/a
372.0025	0.0905	744005	keystroke_m	m	n/a
372.1975	0.075	744395	keystroke_i	i	n/a
372.483	0.059	744966	keystroke_n	n	n/a
372.6625	0.075	745325	keystroke_n	n	n/a
372.887	0.0605	745774	keystroke_e	e	n/a
373.082	0.105	746164	keystroke_s	s	n/a
373.3975	0.1055	746795	keystroke_o	o	n/a
373.517	0.0905	747034	keystroke_t	t	n/a
373.6825	0.1195	747365	keystroke_a	a	n/a
373.8175	0.1345	747635	keystroke_Key.space	Key.space	n/a
373.922	0.1055	747844	keystroke_e	e	n/a
374.162	0.1055	748324	keystroke_d	d	n/a
374.567	0.076	749134	keystroke_g	g	n/a
374.7625	0.0895	749525	keystroke_e	e	n/a
374.942	0.0905	749884	keystroke_Key.enter	Key.enter	n/a
374.9575	0.0605	749915	keystroke_\	\	n/a
375.039	4.915	750078	prompt	n/a	adware afraid despite stops\n
375.692	0.105	751384	keystroke_a	a	n/a
375.842	0.135	751684	keystroke_d	d	n/a
376.112	0.1805	752224	keystroke_w	w	n/a
376.217	0.135	752434	keystroke_a	a	n/a
376.4275	0.15	752855	keystroke_r	r	n/a
376.5175	0.1195	753035	keystroke_e	e	n/a
376.6675	0.135	753335	keystroke_Key.space	Key.space	n/a
377.0125	0.0895	754025	keystroke_a	a	n/a
377.222	0.091	754444	keystroke_f	f	n/a
377.4775	0.09	754955	keystroke_r	r	n/a
377.6125	0.1345	755225	keystroke_a	a	n/a
377.762	0.1055	755524	keystroke_i	i	n/a
377.9125	0.075	755825	keystroke_d	d	n/a
378.0025	0.12	756005	keystroke_Key.space	Key.space	n/a
378.1375	0.15	756275	keystroke_d	d	n/a
378.243	0.1045	756486	keystroke_e	e	n/a
378.4675	0.09	756935	keystroke_s	s	n/a
378.5875	0.165	757175	keystroke_p	p	n/a
378.6925	0.12	757385	keystroke_i	i	n/a
378.7825	0.12	757565	keystroke_t	t	n/a
378.8575	0.119	757715	keystroke_e	e	n/a
378.962	0.1045	757924	keystroke_Key.space	Key.space	n/a
379.1125	0.0905	758225	keystroke_s	s	n/a
379.3075	0.09	758615	keystroke_t	t	n/a
379.4125	0.165	758825	keystroke_o	o	n/a
379.5025	0.1505	759005	keystroke_p	p	n/a
379.6675	0.09	759335	keystroke_s	s	n/a
379.8325	0.12	759665	keystroke_Key.enter	Key.enter	n/a
379.9585	5.5455	759917	prompt	n/a	reed documents tight components\n
380.582	0.075	761164	keystroke_r	r	n/a
380.747	0.1055	761494	keystroke_e	e	n/a
380.9575	0.074	761915	keystroke_e	e	n/a
381.1225	0.089	762245	keystroke_d	d	n/a
381.227	0.1355	762454	keystroke_Key.space	Key.space	n/a
381.4225	0.12	762845	keystroke_d	d	n/a
381.558	0.105	763116	keystroke_o	o	n/a
381.678	0.1045	763356	keystroke_c	c	n/a
381.827	0.091	763654	keystroke_u	u	n/a
382.142	0.09	764284	keystroke_m	m	n/a
382.233	0.0895	764466	keystroke_e	e	n/a
382.352	0.0455	764704	keystroke_n	n	n/a
382.413	0.149	764826	keystroke_t	t	n/a
382.4875	0.1195	764975	keystroke_s	s	n/a
382.622	0.105	765244	keystroke_Key.space	Key.space	n/a
382.742	0.121	765484	keystroke_t	t	n/a
382.847	0.105	765694	keystroke_i	i	n/a
382.982	0.105	765964	keystroke_g	g	n/a
383.1175	0.135	766235	keystroke_h	h	n/a
383.237	0.0755	766474	keystroke_t	t	n/a
383.357	0.105	766714	keystroke_Key.space	Key.space	n/a
383.507	0.12	767014	keystroke_c	c	n/a
383.732	0.1205	767464	keystroke_o	o	n/a
383.972	0.076	767944	keystroke_m	m	n/a
384.197	0.165	768394	keystroke_p	p	n/a
384.302	0.15	768604	keystroke_o	o	n/a
384.7975	0.045	769595	keystroke_n	n	n/a
384.9025	0.075	769805	keystroke_e	e	n/a
384.9925	0.06	769985	keystroke_n	n	n/a
385.0975	0.135	770195	keystroke_t	t	n/a
385.203	0.1345	770406	keystroke_s	s	n/a
385.4275	0.075	770855	keystroke_Key.enter	Key.enter	n/a
385.512	7.178	771024	prompt	n/a	beyond enhancement realize judge\n
386.192	0.0905	772384	keystroke_b	b	n/a
386.3275	0.105	772655	keystroke_e	e	n/a
386.462	0.105	772924	keystroke_y	y	n/a
386.567	0.255	773134	keystroke_o	o	n/a
386.732	0.121	773464	keystroke_n	n	n/a
386.868	0.104	773736	keystroke_d	d	n/a
386.987	0.105	773974	keystroke_Key.space	Key.space	n/a
387.137	0.091	774274	keystroke_e	e	n/a
387.242	0.091	774484	keystroke_n	n	n/a
387.6775	0.105	775355	keystroke_h	h	n/a
387.813	0.074	775626	keystroke_a	a	n/a
387.9325	0.1045	775865	keystroke_n	n	n/a
388.067	0.135	776134	keystroke_c	c	n/a
388.142	0.1205	776284	keystroke_e	e	n/a
388.2925	0.0905	776585	keystroke_m	m	n/a
388.3975	0.09	776795	keystroke_e	e	n/a
388.502	0.0755	777004	keystroke_n	n	n/a
388.592	0.1655	777184	keystroke_t	t	n/a
388.682	0.09	777364	keystroke_s	s	n/a
389.357	0.045	778714	keystroke_Key.backspace	Key.backspace	n/a
389.7625	0.105	779525	keystroke_Key.space	Key.space	n/a
390.0925	0.2105	780185	keystroke_r	r	n/a
390.2275	0.15	780455	keystroke_e	e	n/a
390.5875	0.075	781175	keystroke_a	a	n/a
391.0375	0.1495	782075	keystroke_l	l	n/a
391.173	0.164	782346	keystroke_i	i	n/a
391.307	0.12	782614	keystroke_z	z	n/a
391.487	0.0905	782974	keystroke_e	e	n/a
391.592	0.165	783184	keystroke_Key.space	Key.space	n/a
391.712	0.0905	783424	keystroke_j	j	n/a
391.8925	0.0895	783785	keystroke_u	u	n/a
391.967	0.1205	783934	keystroke_d	d	n/a
392.237	0.09	784474	keystroke_g	g	n/a
392.4325	0.0895	784865	keystroke_e	e	n/a
392.582	0.105	785164	keystroke_Key.enter	Key.enter	n/a
392.694	8.2	785388	prompt	n/a	research earrings travels removing\n
393.257	0.121	786514	keystroke_r	r	n/a
393.317	0.15	786634	keystroke_e	e	n/a
393.557	0.0905	787114	keystroke_s	s	n/a
393.7375	0.1345	787475	keystroke_w	w	n/a
393.7525	0.1045	787505	keystroke_e	e	n/a
393.873	0.134	787746	keystroke_a	a	n/a
394.067	0.076	788134	keystroke_r	r	n/a
394.2925	0.075	788585	keystroke_c	c	n/a
394.5475	0.045	789095	keystroke_Key.backspace	Key.backspace	n/a
394.6675	0.075	789335	keystroke_Key.backspace	Key.backspace	n/a
394.8175	0.045	789635	keystroke_Key.backspace	Key.backspace	n/a
394.9225	0.075	789845	keystroke_Key.backspace	Key.backspace	n/a
395.0725	0.06	790145	keystroke_Key.backspace	Key.backspace	n/a
395.417	0.105	790834	keystroke_e	e	n/a
395.627	0.09	791254	keystroke_a	a	n/a
395.837	0.06	791674	keystroke_r	r	n/a
396.0475	0.0895	792095	keystroke_c	c	n/a
396.182	0.1955	792364	keystroke_h	h	n/a
396.302	0.1655	792604	keystroke_Key.space	Key.space	n/a
396.4225	0.1195	792845	keystroke_e	e	n/a
396.6175	0.105	793235	keystroke_a	a	n/a
396.8875	0.045	793775	keystroke_r	r	n/a
396.9925	0.0755	793985	keystroke_r	r	n/a
397.0825	0.1655	794165	keystroke_i	i	n/a
397.173	0.1195	794346	keystroke_n	n	n/a
397.2775	0.105	794555	keystroke_g	g	n/a
397.3075	0.12	794615	keystroke_s	s	n/a
397.4415	0.106	794883	keystroke_Key.space	Key.space	n/a
397.593	0.0745	795186	keystroke_t	t	n/a
397.7875	0.104	795575	keystroke_r	r	n/a
398.042	0.105	796084	keystroke_a	a	n/a
398.327	0.075	796654	keystroke_v	v	n/a
398.507	0.06	797014	keystroke_e	e	n/a
398.627	0.1055	797254	keystroke_l	l	n/a
398.718	0.0595	797436	keystroke_s	s	n/a
398.8225	0.1045	797645	keystroke_Key.space	Key.space	n/a
398.943	0.134	797886	keystroke_r	r	n/a
399.0025	0.1205	798005	keystroke_e	e	n/a
399.2275	0.105	798455	keystroke_o	o	n/a
399.3325	0.12	798665	keystroke_v	v	n/a
399.617	0.0445	799234	keystroke_Key.backspace	Key.backspace	n/a
399.7215	0.061	799443	keystroke_Key.backspace	Key.backspace	n/a
399.9925	0.1495	799985	keystroke_m	m	n/a
400.0825	0.1195	800165	keystroke_o	o	n/a
400.2175	0.0895	800435	keystroke_v	v	n/a
400.322	0.181	800644	keystroke_i	i	n/a
400.442	0.106	800884	keystroke_n	n	n/a
400.563	0.0745	801126	keystroke_g	g	n/a
400.8175	0.075	801635	keystroke_Key.enter	Key.enter	n/a
400.8975	5.157	801795	prompt	n/a	ashley domain mirror retailer\n
401.5825	0.089	803165	keystroke_a	a	n/a
401.7025	0.1045	803405	keystroke_s	s	n/a
401.8375	0.075	803675	keystroke_h	h	n/a
402.017	0.1055	804034	keystroke_l	l	n/a
402.242	0.0605	804484	keystroke_e	e	n/a
402.347	0.195	804694	keystroke_y	y	n/a
402.467	0.1805	804934	keystroke_Key.space	Key.space	n/a
402.828	0.1045	805656	keystroke_d	d	n/a
402.9325	0.12	805865	keystroke_o	o	n/a
403.172	0.1055	806344	keystroke_m	m	n/a
403.3375	0.09	806675	keystroke_a	a	n/a
403.428	0.179	806856	keystroke_i	i	n/a
403.5015	0.196	807003	keystroke_n	n	n/a
403.6215	0.1655	807243	keystroke_Key.space	Key.space	n/a
403.9525	0.089	807905	keystroke_m	m	n/a
404.148	0.074	808296	keystroke_i	i	n/a
404.2825	0.0905	808565	keystroke_r	r	n/a
404.448	0.0745	808896	keystroke_r	r	n/a
404.538	0.0895	809076	keystroke_o	o	n/a
404.6725	0.0595	809345	keystroke_r	r	n/a
404.777	0.12	809554	keystroke_Key.space	Key.space	n/a
404.943	0.1495	809886	keystroke_r	r	n/a
405.018	0.165	810036	keystroke_e	e	n/a
405.227	0.09	810454	keystroke_t	t	n/a
405.437	0.09	810874	keystroke_a	a	n/a
405.542	0.15	811084	keystroke_i	i	n/a
405.617	0.151	811234	keystroke_l	l	n/a
405.7375	0.1195	811475	keystroke_e	e	n/a
405.797	0.12	811594	keystroke_r	r	n/a
405.962	0.09	811924	keystroke_Key.enter	Key.enter	n/a
406.0585	6.1905	812117	prompt	n/a	passengers dollars diverse rooms\n
406.743	0.0745	813486	keystroke_p	p	n/a
406.832	0.106	813664	keystroke_a	a	n/a
407.057	0.06	814114	keystroke_s	s	n/a
407.2075	0.06	814415	keystroke_s	s	n/a
407.3725	0.0745	814745	keystroke_e	e	n/a
407.552	0.12	815104	keystroke_n	n	n/a
407.6575	0.0895	815315	keystroke_g	g	n/a
407.8225	0.1195	815645	keystroke_e	e	n/a
407.897	0.105	815794	keystroke_r	r	n/a
408.092	0.0905	816184	keystroke_s	s	n/a
408.242	0.105	816484	keystroke_Key.space	Key.space	n/a
408.332	0.075	816664	keystroke_d	d	n/a
408.4375	0.1055	816875	keystroke_o	o	n/a
408.677	0.06	817354	keystroke_l	l	n/a
408.798	0.1045	817596	keystroke_l	l	n/a
408.9175	0.12	817835	keystroke_a	a	n/a
409.023	0.1195	818046	keystroke_r	r	n/a
409.2625	0.0895	818525	keystroke_s	s	n/a
409.3675	0.1195	818735	keystroke_Key.space	Key.space	n/a
409.712	0.105	819424	keystroke_d	d	n/a
409.892	0.09	819784	keystroke_i	i	n/a
410.102	0.06	820204	keystroke_v	v	n/a
410.327	0.15	820654	keystroke_e	e	n/a
410.417	0.105	820834	keystroke_r	r	n/a
410.643	0.224	821286	keystroke_s	s	n/a
410.852	0.1055	821704	keystroke_e	e	n/a
411.1375	0.1195	822275	keystroke_Key.space	Key.space	n/a
411.4375	0.0445	822875	keystroke_r	r	n/a
411.573	0.044	823146	keystroke_o	o	n/a
411.692	0.1655	823384	keystroke_o	o	n/a
411.7975	0.1345	823595	keystroke_m	m	n/a
411.9475	0.0895	823895	keystroke_s	s	n/a
412.1725	0.0745	824345	keystroke_Key.enter	Key.enter	n/a
412.2525	4.9615	824505	prompt	n/a	limitations carpet stops liver\n
412.9075	0.075	825815	keystroke_l	l	n/a
413.0425	0.09	826085	keystroke_i	i	n/a
413.283	0.0745	826566	keystroke_m	m	n/a
413.477	0.075	826954	keystroke_i	i	n/a
413.5825	0.105	827165	keystroke_t	t	n/a
413.793	0.104	827586	keystroke_a	a	n/a
414.002	0.0755	828004	keystroke_t	t	n/a
414.122	0.165	828244	keystroke_i	i	n/a
414.2275	0.165	828455	keystroke_o	o	n/a
414.257	0.1505	828514	keystroke_n	n	n/a
414.4375	0.0745	828875	keystroke_s	s	n/a
414.6015	0.121	829203	keystroke_Key.space	Key.space	n/a
414.7525	0.105	829505	keystroke_c	c	n/a
414.9475	0.105	829895	keystroke_a	a	n/a
415.0665	0.106	830133	keystroke_r	r	n/a
415.232	0.1205	830464	keystroke_p	p	n/a
415.3225	0.12	830645	keystroke_e	e	n/a
415.398	0.1045	830796	keystroke_t	t	n/a
415.5475	0.12	831095	keystroke_Key.space	Key.space	n/a
415.6825	0.0905	831365	keystroke_s	s	n/a
415.8775	0.09	831755	keystroke_t	t	n/a
415.9825	0.195	831965	keystroke_o	o	n/a
416.0875	0.15	832175	keystroke_p	p	n/a
416.2525	0.0755	832505	keystroke_s	s	n/a
416.3575	0.1195	832715	keystroke_Key.space	Key.space	n/a
416.523	0.1795	833046	keystroke_l	l	n/a
416.6425	0.12	833285	keystroke_i	i	n/a
416.747	0.06	833494	keystroke_v	v	n/a
416.9125	0.135	833825	keystroke_e	e	n/a
416.9875	0.12	833975	keystroke_r	r	n/a
417.1215	0.091	834243	keystroke_Key.enter	Key.enter	n/a
417.2185	6.071	834437	prompt	n/a	uruguay teacher macro dangerous\n
418.097	0.09	836194	keystroke_u	u	n/a
418.532	0.0915	837064	keystroke_r	r	n/a
418.938	0.0895	837876	keystroke_u	u	n/a
419.1025	0.0745	838205	keystroke_g	g	n/a
419.3875	0.09	838775	keystroke_u	u	n/a
419.538	0.075	839076	keystroke_a	a	n/a
419.672	0.196	839344	keystroke_y	y	n/a
419.8075	0.135	839615	keystroke_Key.space	Key.space	n/a
419.957	0.0905	839914	keystroke_t	t	n/a
420.152	0.091	840304	keystroke_e	e	n/a
420.3025	0.105	840605	keystroke_a	a	n/a
420.512	0.09	841024	keystroke_c	c	n/a
420.647	0.1055	841294	keystroke_h	h	n/a
420.738	0.1045	841476	keystroke_e	e	n/a
420.7675	0.135	841535	keystroke_r	r	n/a
420.8875	0.105	841775	keystroke_Key.space	Key.space	n/a
421.1275	0.09	842255	keystroke_m	m	n/a
421.2175	0.09	842435	keystroke_a	a	n/a
421.4875	0.0755	842975	keystroke_c	c	n/a
421.727	0.0755	843454	keystroke_r	r	n/a
421.8625	0.1645	843725	keystroke_o	o	n/a
421.952	0.1505	843904	keystroke_Key.space	Key.space	n/a
422.0425	0.1345	844085	keystroke_d	d	n/a
422.1475	0.1195	844295	keystroke_a	a	n/a
422.342	0.105	844684	keystroke_n	n	n/a
422.4625	0.0745	844925	keystroke_g	g	n/a
422.642	0.1055	845284	keystroke_e	e	n/a
422.717	0.0905	845434	keystroke_r	r	n/a
422.8525	0.1055	845705	keystroke_o	o	n/a
422.8825	0.1195	845765	keystroke_u	u	n/a
423.017	0.075	846034	keystroke_s	s	n/a
423.1825	0.105	846365	keystroke_Key.enter	Key.enter	n/a
423.2935	7.781	846587	prompt	n/a	transition prepare router shareholders\n
424.0075	0.06	848015	keystroke_t	t	n/a
424.173	0.1195	848346	keystroke_r	r	n/a
424.3225	0.1505	848645	keystroke_a	a	n/a
424.7275	0.09	849455	keystroke_n	n	n/a
425.0875	0.09	850175	keystroke_s	s	n/a
425.418	0.074	850836	keystroke_i	i	n/a
425.567	0.09	851134	keystroke_t	t	n/a
425.642	0.2105	851284	keystroke_i	i	n/a
425.717	0.166	851434	keystroke_o	o	n/a
425.7775	0.1505	851555	keystroke_n	n	n/a
425.957	0.12	851914	keystroke_Key.space	Key.space	n/a
426.1525	0.105	852305	keystroke_p	p	n/a
426.2725	0.1205	852545	keystroke_r	r	n/a
426.3465	0.121	852693	keystroke_e	e	n/a
426.498	0.105	852996	keystroke_p	p	n/a
426.5875	0.1055	853175	keystroke_a	a	n/a
426.7075	0.165	853415	keystroke_r	r	n/a
426.813	0.1195	853626	keystroke_e	e	n/a
426.9625	0.12	853925	keystroke_Key.space	Key.space	n/a
427.2775	0.0895	854555	keystroke_r	r	n/a
427.3825	0.1805	854765	keystroke_o	o	n/a
427.442	0.15	854884	keystroke_u	u	n/a
427.577	0.075	855154	keystroke_t	t	n/a
427.6975	0.15	855395	keystroke_e	e	n/a
427.7875	0.12	855575	keystroke_r	r	n/a
427.8925	0.12	855785	keystroke_Key.space	Key.space	n/a
428.0425	0.075	856085	keystroke_s	s	n/a
428.1325	0.0905	856265	keystroke_h	h	n/a
428.2375	0.0755	856475	keystroke_a	a	n/a
428.4175	0.1205	856835	keystroke_r	r	n/a
428.4625	0.135	856925	keystroke_e	e	n/a
428.867	0.075	857734	keystroke_h	h	n/a
429.288	0.089	858576	keystroke_o	o	n/a
429.4825	0.1045	858965	keystroke_l	l	n/a
429.662	0.135	859324	keystroke_e	e	n/a
429.752	0.135	859504	keystroke_r	r	n/a
430.1265	0.046	860253	keystroke_Key.backspace	Key.backspace	n/a
430.2465	0.076	860493	keystroke_Key.backspace	Key.backspace	n/a
430.3525	0.1045	860705	keystroke_d	d	n/a
430.5025	0.105	861005	keystroke_e	e	n/a
430.5775	0.09	861155	keystroke_r	r	n/a
430.803	0.09	861606	keystroke_s	s	n/a
430.9675	0.105	861935	keystroke_Key.enter	Key.enter	n/a
431.079	7.2255	862158	prompt	n/a	president citizens employ environmental\n
431.762	0.09	863524	keystroke_p	p	n/a
431.837	0.12	863674	keystroke_r	r	n/a
431.897	0.12	863794	keystroke_e	e	n/a
432.1225	0.075	864245	keystroke_s	s	n/a
432.2425	0.1195	864485	keystroke_i	i	n/a
432.3775	0.1195	864755	keystroke_d	d	n/a
432.452	0.12	864904	keystroke_e	e	n/a
432.5575	0.105	865115	keystroke_n	n	n/a
432.7075	0.105	865415	keystroke_t	t	n/a
432.8275	0.105	865655	keystroke_Key.space	Key.space	n/a
433.0525	0.06	866105	keystroke_c	c	n/a
433.2325	0.075	866465	keystroke_i	i	n/a
433.353	0.075	866706	keystroke_t	t	n/a
433.5175	0.075	867035	keystroke_i	i	n/a
433.638	0.1045	867276	keystroke_z	z	n/a
433.892	0.045	867784	keystroke_e	e	n/a
434.012	0.1055	868024	keystroke_n	n	n/a
434.162	0.0755	868324	keystroke_s	s	n/a
434.312	0.1205	868624	keystroke_Key.space	Key.space	n/a
434.6125	0.075	869225	keystroke_e	e	n/a
434.762	0.091	869524	keystroke_m	m	n/a
434.9575	0.1945	869915	keystroke_p	p	n/a
435.078	0.1195	870156	keystroke_l	l	n/a
435.303	0.0745	870606	keystroke_o	o	n/a
435.617	0.0605	871234	keystroke_y	y	n/a
435.992	0.1055	871984	keystroke_Key.space	Key.space	n/a
436.1275	0.105	872255	keystroke_e	e	n/a
436.2625	0.075	872525	keystroke_n	n	n/a
436.4875	0.015	872975	keystroke_v	v	n/a
436.652	0.09	873304	keystroke_i	i	n/a
436.8025	0.0745	873605	keystroke_r	r	n/a
436.907	0.1805	873814	keystroke_o	o	n/a
437.027	0.1205	874054	keystroke_n	n	n/a
437.297	0.075	874594	keystroke_m	m	n/a
437.402	0.06	874804	keystroke_e	e	n/a
437.507	0.09	875014	keystroke_n	n	n/a
437.567	0.09	875134	keystroke_t	t	n/a
437.7625	0.1195	875525	keystroke_a	a	n/a
437.867	0.105	875734	keystroke_l	l	n/a
438.212	0.09	876424	keystroke_Key.enter	Key.enter	n/a
438.309	5.485	876618	prompt	n/a	lingerie cold adam latter\n
439.547	0.015	879094	keystroke_l	l	n/a
439.637	0.15	879274	keystroke_i	i	n/a
439.757	0.135	879514	keystroke_n	n	n/a
439.9075	0.045	879815	keystroke_g	g	n/a
440.057	0.1355	880114	keystroke_e	e	n/a
440.162	0.1205	880324	keystroke_r	r	n/a
440.3875	0.0895	880775	keystroke_i	i	n/a
440.5375	0.075	881075	keystroke_e	e	n/a
440.6425	0.1195	881285	keystroke_Key.space	Key.space	n/a
440.9725	0.105	881945	keystroke_c	c	n/a
441.0925	0.075	882185	keystroke_o	o	n/a
441.2725	0.1045	882545	keystroke_l	l	n/a
441.347	0.1205	882694	keystroke_d	d	n/a
441.4975	0.0745	882995	keystroke_Key.space	Key.space	n/a
441.617	0.1355	883234	keystroke_a	a	n/a
441.8275	0.075	883655	keystroke_d	d	n/a
442.0525	0.0905	884105	keystroke_a	a	n/a
442.2025	0.165	884405	keystroke_m	m	n/a
442.3225	0.15	884645	keystroke_Key.space	Key.space	n/a
442.7125	0.12	885425	keystroke_l	l	n/a
442.8475	0.12	885695	keystroke_a	a	n/a
443.1625	0.045	886325	keystroke_t	t	n/a
443.3125	0.06	886625	keystroke_t	t	n/a
443.4475	0.1195	886895	keystroke_e	e	n/a
443.507	0.12	887014	keystroke_r	r	n/a
443.687	0.1055	887374	keystroke_Key.enter	Key.enter	n/a
443.798	7.586	887596	prompt	n/a	stanford nobody replace corner\n
444.393	0.1045	888786	keystroke_s	s	n/a
444.6325	0.09	889265	keystroke_t	t	n/a
444.7975	0.135	889595	keystroke_a	a	n/a
444.9775	0.105	889955	keystroke_n	n	n/a
445.0835	0.119	890167	keystroke_d	d	n/a
445.3075	0.105	890615	keystroke_f	f	n/a
445.4725	0.1045	890945	keystroke_o	o	n/a
445.547	0.061	891094	keystroke_r	r	n/a
445.7275	0.09	891455	keystroke_d	d	n/a
445.8475	0.09	891695	keystroke_Key.space	Key.space	n/a
445.9975	0.195	891995	keystroke_n	n	n/a
446.148	0.1045	892296	keystroke_o	o	n/a
446.613	0.105	893226	keystroke_d	d	n/a
446.972	0.045	893944	keystroke_Key.backspace	Key.backspace	n/a
447.2125	0.09	894425	keystroke_b	b	n/a
447.4075	0.105	894815	keystroke_o	o	n/a
447.6625	0.135	895325	keystroke_d	d	n/a
447.8125	0.18	895625	keystroke_y	y	n/a
447.9175	0.15	895835	keystroke_Key.space	Key.space	n/a
448.0525	0.12	896105	keystroke_r	r	n/a
448.1275	0.105	896255	keystroke_e	e	n/a
448.2475	0.195	896495	keystroke_p	p	n/a
448.383	0.1495	896766	keystroke_l	l	n/a
448.5175	0.09	897035	keystroke_a	a	n/a
448.743	0.1345	897486	keystroke_e	e	n/a
448.8625	0.1345	897725	keystroke_Key.space	Key.space	n/a
448.982	0.105	897964	keystroke_c	c	n/a
449.6125	0.075	899225	keystroke_Key.backspace	Key.backspace	n/a
449.702	0.0305	899404	keystroke_Key.backspace	Key.backspace	n/a
449.8375	0.06	899675	keystroke_Key.backspace	Key.backspace	n/a
450.0025	0.15	900005	keystroke_c	c	n/a
450.0775	0.135	900155	keystroke_e	e	n/a
450.3025	0.12	900605	keystroke_Key.space	Key.space	n/a
450.4075	0.1205	900815	keystroke_c	c	n/a
450.6025	0.105	901205	keystroke_o	o	n/a
450.737	0.1055	901474	keystroke_r	r	n/a
450.9625	0.105	901925	keystroke_n	n	n/a
451.037	0.135	902074	keystroke_e	e	n/a
451.0975	0.1045	902195	keystroke_r	r	n/a
451.3075	0.074	902615	keystroke_Key.enter	Key.enter	n/a
451.3905	6.3385	902781	prompt	n/a	wrestling elections stream tobago\n
451.9675	0.12	903935	keystroke_w	w	n/a
452.328	0.1495	904656	keystroke_r	r	n/a
452.4165	0.1205	904833	keystroke_e	e	n/a
452.673	0.0895	905346	keystroke_s	s	n/a
452.912	0.0905	905824	keystroke_t	t	n/a
453.047	0.136	906094	keystroke_l	l	n/a
453.152	0.15	906304	keystroke_i	i	n/a
453.2275	0.1205	906455	keystroke_n	n	n/a
453.3175	0.0745	906635	keystroke_g	g	n/a
453.4525	0.1195	906905	keystroke_Key.space	Key.space	n/a
453.5425	0.0895	907085	keystroke_e	e	n/a
453.662	0.1055	907324	keystroke_l	l	n/a
453.7525	0.0895	907505	keystroke_e	e	n/a
453.962	0.1205	907924	keystroke_c	c	n/a
