onset	duration	sample	value	key	prompt_text
1.599	8.485	3198	prompt	n/a	the quick brown fox jumps over a lazy dog\n
3.4985	0.043	6997	keystroke	t	n/a
3.4995	0.072	6999	keystroke	h	n/a
3.8865	0.09	7773	keystroke	e	n/a
3.9915	0.105	7983	keystroke	Key.space	n/a
4.1415	0.075	8283	keystroke	q	n/a
4.3225	0.135	8645	keystroke	u	n/a
4.4125	0.105	8825	keystroke	i	n/a
4.5775	0.09	9155	keystroke	c	n/a
4.6965	0.09	9393	keystroke	k	n/a
4.7715	0.105	9543	keystroke	Key.space	n/a
4.9965	0.105	9993	keystroke	b	n/a
5.1165	0.09	10233	keystroke	r	n/a
5.2215	0.12	10443	keystroke	o	n/a
5.3415	0.09	10683	keystroke	w	n/a
5.4465	0.06	10893	keystroke	n	n/a
5.5815	0.0895	11163	keystroke	Key.space	n/a
5.821	0.075	11642	keystroke	f	n/a
5.911	0.105	11822	keystroke	o	n/a
6.196	0.09	12392	keystroke	x	n/a
6.271	0.09	12542	keystroke	Key.space	n/a
6.5115	0.075	13023	keystroke	j	n/a
6.6765	0.06	13353	keystroke	u	n/a
6.8865	0.12	13773	keystroke	m	n/a
7.0075	0.104	14015	keystroke	p	n/a
7.1565	0.105	14313	keystroke	s	n/a
7.2465	0.075	14493	keystroke	Key.space	n/a
7.3965	0.09	14793	keystroke	o	n/a
7.5015	0.09	15003	keystroke	v	n/a
7.7415	0.12	15483	keystroke	e	n/a
7.8165	0.09	15633	keystroke	r	n/a
8.0865	0.15	16173	keystroke	Key.space	n/a
8.3715	0.09	16743	keystroke	a	n/a
8.4765	0.045	16953	keystroke	Key.space	n/a
8.6265	0.12	17253	keystroke	l	n/a
8.8515	0.165	17703	keystroke	a	n/a
8.9565	0.12	17913	keystroke	z	n/a
9.2715	0.105	18543	keystroke	y	n/a
9.3615	0.09	18723	keystroke	Key.space	n/a
9.6015	0.09	19203	keystroke	d	n/a
9.7365	0.09	19473	keystroke	o	n/a
9.8415	0.075	19683	keystroke	g	n/a
9.9765	0.105	19953	keystroke	Key.enter	n/a
10.0895	6.879	20179	prompt	n/a	recommendation lauren problem comp\n
10.8765	0.105	21753	keystroke	r	n/a
10.9515	0.105	21903	keystroke	e	n/a
11.1465	0.075	22293	keystroke	c	n/a
11.2225	0.134	22445	keystroke	o	n/a
11.3115	0.06	22623	keystroke	m	n/a
11.4465	0.0895	22893	keystroke	m	n/a
11.566	0.0905	23132	keystroke	e	n/a
11.8215	0.045	23643	keystroke	d	n/a
12.2265	0.06	24453	keystroke	Key.backspace	n/a
12.4215	0.105	24843	keystroke	n	n/a
12.5565	0.12	25113	keystroke	d	n/a
12.9615	0.1055	25923	keystroke	a	n/a
13.1565	0.075	26313	keystroke	t	n/a
13.2165	0.105	26433	keystroke	i	n/a
13.277	0.12	26554	keystroke	o	n/a
13.4265	0.105	26853	keystroke	n	n/a
13.5165	0.0745	27033	keystroke	Key.space	n/a
13.652	0.0745	27304	keystroke	l	n/a
13.772	0.089	27544	keystroke	a	n/a
13.996	0.075	27992	keystroke	u	n/a
14.101	0.12	28202	keystroke	r	n/a
14.191	0.0905	28382	keystroke	e	n/a
14.2965	0.0745	28593	keystroke	n	n/a
14.476	0.06	28952	keystroke	Key.space	n/a
14.686	0.09	29372	keystroke	p	n/a
14.791	0.075	29582	keystroke	r	n/a
14.911	0.0605	29822	keystroke	o	n/a
15.1065	0.075	30213	keystroke	b	n/a
15.2115	0.09	30423	keystroke	l	n/a
15.3465	0.075	30693	keystroke	e	n/a
15.4365	0.06	30873	keystroke	m	n/a
15.5565	0.075	31113	keystroke	Key.space	n/a
15.8415	0.075	31683	keystroke	c	n/a
15.8865	0.12	31773	keystroke	o	n/a
15.9615	0.09	31923	keystroke	m	n/a
16.1265	0.09	32253	keystroke	p	n/a
16.8315	0.135	33663	keystroke	Key.enter	n/a
16.971	7.422	33942	prompt	n/a	shed birth clara reform\n
18.2715	0.105	36543	keystroke	s	n/a
18.3915	0.09	36783	keystroke	h	n/a
18.4965	0.06	36993	keystroke	d	n/a
18.6615	0.06	37323	keystroke	e	n/a
19.0515	0.06	38103	keystroke	Key.backspace	n/a
19.1865	0.06	38373	keystroke	Key.backspace	n/a
19.2765	0.075	38553	keystroke	e	n/a
19.4265	0.09	38853	keystroke	d	n/a
19.5315	0.105	39063	keystroke	Key.space	n/a
19.936	0.12	39872	keystroke	b	n/a
20.026	0.106	40052	keystroke	i	n/a
20.206	0.09	40412	keystroke	r	n/a
20.476	0.105	40952	keystroke	t	n/a
20.536	0.075	41072	keystroke	h	n/a
20.671	0.105	41342	keystroke	Key.space	n/a
21.046	0.0905	42092	keystroke	c	n/a
21.1665	0.105	42333	keystroke	l	n/a
21.3015	0.12	42603	keystroke	a	n/a
21.3915	0.15	42783	keystroke	r	n/a
21.5265	0.105	43053	keystroke	a	n/a
22.307	0.075	44614	keystroke	Key.space	n/a
22.5015	0.105	45003	keystroke	r	n/a
22.5615	0.105	45123	keystroke	e	n/a
22.9065	0.045	45813	keystroke	o	n/a
23.2965	0.06	46593	keystroke	Key.backspace	n/a
23.6565	0.075	47313	keystroke	f	n/a
23.7915	0.075	47583	keystroke	o	n/a
23.8815	0.045	47763	keystroke	r	n/a
24.0015	0.105	48003	keystroke	m	n/a
24.2865	0.105	48573	keystroke	Key.enter	n/a
24.397	4.571	48794	prompt	n/a	gonna power outcomes abuse\n
25.232	0.06	50464	keystroke	g	n/a
25.307	0.09	50614	keystroke	o	n/a
25.487	0.06	50974	keystroke	n	n/a
25.607	0.075	51214	keystroke	n	n/a
25.726	0.12	51452	keystroke	a	n/a
25.876	0.09	51752	keystroke	Key.space	n/a
26.146	0.165	52292	keystroke	p	n/a
26.236	0.12	52472	keystroke	o	n/a
26.387	0.12	52774	keystroke	w	n/a
26.431	0.135	52862	keystroke	e	n/a
26.641	0.091	53282	keystroke	r	n/a
26.746	0.06	53492	keystroke	Key.space	n/a
27.031	0.165	54062	keystroke	o	n/a
27.121	0.121	54242	keystroke	u	n/a
27.181	0.045	54362	keystroke	t	n/a
27.361	0.09	54722	keystroke	c	n/a
27.466	0.151	54932	keystroke	o	n/a
27.556	0.105	55112	keystroke	m	n/a
27.646	0.075	55292	keystroke	e	n/a
27.796	0.105	55592	keystroke	s	n/a
27.916	0.075	55832	keystroke	Key.space	n/a
28.261	0.075	56522	keystroke	a	n/a
28.411	0.15	56822	keystroke	b	n/a
28.516	0.105	57032	keystroke	u	n/a
28.666	0.12	57332	keystroke	s	n/a
28.7415	0.0745	57483	keystroke	e	n/a
28.8615	0.105	57723	keystroke	Key.enter	n/a
28.971	7.6325	57942	prompt	n/a	cowboy supplier posting level\n
29.7315	0.075	59463	keystroke	c	n/a
29.8365	0.09	59673	keystroke	o	n/a
29.957	0.104	59914	keystroke	w	n/a
30.256	0.09	60512	keystroke	b	n/a
30.406	0.105	60812	keystroke	o	n/a
30.556	0.0605	61112	keystroke	y	n/a
30.6765	0.09	61353	keystroke	Key.space	n/a
31.1565	0.09	62313	keystroke	s	n/a
31.2765	0.06	62553	keystroke	u	n/a
31.4715	0.06	62943	keystroke	o	n/a
32.116	0.091	64232	keystroke	Key.backspace	n/a
32.701	0.076	65402	keystroke	p	n/a
32.837	0.09	65674	keystroke	p	n/a
33.017	0.075	66034	keystroke	l	n/a
33.227	0.075	66454	keystroke	i	n/a
33.362	0.12	66724	keystroke	e	n/a
33.407	0.12	66814	keystroke	r	n/a
33.557	0.075	67114	keystroke	Key.space	n/a
33.812	0.1345	67624	keystroke	p	n/a
33.8715	0.105	67743	keystroke	o	n/a
33.9615	0.0905	67923	keystroke	s	n/a
34.1415	0.045	68283	keystroke	t	n/a
34.2015	0.09	68403	keystroke	i	n/a
34.2615	0.09	68523	keystroke	n	n/a
34.3215	0.09	68643	keystroke	g	n/a
34.3965	0.09	68793	keystroke	Key.space	n/a
34.5465	0.105	69093	keystroke	l	n/a
34.6215	0.15	69243	keystroke	e	n/a
34.952	0.105	69904	keystroke	e	n/a
34.967	0.075	69934	keystroke	c	n/a
35.342	0.075	70684	keystroke	Key.backspace	n/a
35.432	0.12	70864	keystroke	Key.backspace	n/a
36.152	0.09	72304	keystroke	v	n/a
36.212	0.106	72424	keystroke	e	n/a
36.272	0.105	72544	keystroke	l	n/a
36.512	0.09	73024	keystroke	Key.enter	n/a
36.6065	6.822	73213	prompt	n/a	universe enlarge tribes amateur\n
37.547	0.1945	75094	keystroke	u	n/a
37.6515	0.12	75303	keystroke	n	n/a
37.8615	0.0905	75723	keystroke	i	n/a
37.982	0.105	75964	keystroke	v	n/a
38.717	0.09	77434	keystroke	e	n/a
38.777	0.09	77554	keystroke	r	n/a
38.957	0.1195	77914	keystroke	s	n/a
39.0915	0.075	78183	keystroke	e	n/a
39.2715	0.105	78543	keystroke	Key.space	n/a
39.4815	0.09	78963	keystroke	e	n/a
39.5865	0.0755	79173	keystroke	n	n/a
39.812	0.09	79624	keystroke	l	n/a
39.947	0.15	79894	keystroke	a	n/a
40.112	0.03	80224	keystroke	r	n/a
40.3065	0.135	80613	keystroke	g	n/a
40.3815	0.1055	80763	keystroke	e	n/a
40.517	0.105	81034	keystroke	Key.space	n/a
40.802	0.09	81604	keystroke	t	n/a
40.847	0.105	81694	keystroke	r	n/a
40.967	0.105	81934	keystroke	i	n/a
41.087	0.075	82174	keystroke	b	n/a
41.2515	0.075	82503	keystroke	e	n/a
41.4015	0.1055	82803	keystroke	s	n/a
41.537	0.075	83074	keystroke	Key.space	n/a
41.657	0.12	83314	keystroke	a	n/a
41.762	0.09	83524	keystroke	m	n/a
41.837	0.105	83674	keystroke	a	n/a
42.257	0.075	84514	keystroke	t	n/a
42.5715	0.09	85143	keystroke	e	n/a
42.7215	0.09	85443	keystroke	u	n/a
42.7965	0.0905	85593	keystroke	r	n/a
43.322	0.105	86644	keystroke	Key.enter	n/a
43.4315	11.757	86863	prompt	n/a	anna suicide specialized memorabilia\n
44.282	0.104	88564	keystroke	a	n/a
44.402	0.075	88804	keystroke	n	n/a
44.506	0.106	89012	keystroke	n	n/a
44.626	0.091	89252	keystroke	a	n/a
44.701	0.121	89402	keystroke	Key.space	n/a
44.971	0.09	89942	keystroke	s	n/a
45.092	0.12	90184	keystroke	u	n/a
45.226	0.09	90452	keystroke	i	n/a
45.467	0.134	90934	keystroke	c	n/a
46.3065	0.075	92613	keystroke	i	n/a
46.3965	0.09	92793	keystroke	d	n/a
46.5465	0.09	93093	keystroke	e	n/a
46.6515	0.09	93303	keystroke	Key.space	n/a
47.0415	0.105	94083	keystroke	s	n/a
47.2065	0.12	94413	keystroke	p	n/a
47.4615	0.12	94923	keystroke	e	n/a
47.5665	0.0895	95133	keystroke	c	n/a
47.911	0.12	95822	keystroke	i	n/a
48.121	0.09	96242	keystroke	s	n/a
48.7515	0.09	97503	keystroke	Key.backspace	n/a
49.0965	0.075	98193	keystroke	a	n/a
49.8765	0.075	99753	keystroke	l	n/a
50.0715	0.075	100143	keystroke	i	n/a
50.1615	0.105	100323	keystroke	z	n/a
50.4015	0.06	100803	keystroke	e	n/a
50.5515	0.075	101103	keystroke	d	n/a
50.6415	0.09	101283	keystroke	Key.space	n/a
51.0015	0.0745	102003	keystroke	m	n/a
51.091	0.105	102182	keystroke	e	n/a
51.197	0.089	102394	keystroke	m	n/a
51.406	0.105	102812	keystroke	o	n/a
52.6815	0.015	105363	keystroke	r	n/a
52.8465	0.09	105693	keystroke	a	n/a
53.2065	0.06	106413	keystroke	b	n/a
53.3115	0.105	106623	keystroke	i	n/a
53.4615	0.105	106923	keystroke	l	n/a
54.7965	0.09	109593	keystroke	i	n/a
54.9015	0.075	109803	keystroke	a	n/a
55.0815	0.104	110163	keystroke	Key.enter	n/a
55.193	9.9995	110386	prompt	n/a	secrets scripting beam observation\n
56.0555	0.075	112111	keystroke	s	n/a
56.2505	0.135	112501	keystroke	e	n/a
56.3415	0.104	112683	keystroke	c	n/a
56.5965	0.119	113193	keystroke	r	n/a
56.6555	0.136	113311	keystroke	e	n/a
56.8205	0.09	113641	keystroke	t	n/a
57.0015	0.104	114003	keystroke	s	n/a
57.136	0.105	114272	keystroke	Key.space	n/a
57.421	0.12	114842	keystroke	s	n/a
57.481	0.09	114962	keystroke	c	n/a
58.1255	0.09	116251	keystroke	r	n/a
58.561	0.06	117122	keystroke	i	n/a
58.846	0.09	117692	keystroke	p	n/a
59.071	0.09	118142	keystroke	t	n/a
59.791	0.12	119582	keystroke	i	n/a
59.851	0.09	119702	keystroke	n	n/a
59.926	0.0895	119852	keystroke	g	n/a
60.0605	0.105	120121	keystroke	Key.space	n/a
60.3455	0.06	120691	keystroke	b	n/a
60.4355	0.12	120871	keystroke	e	n/a
60.661	0.105	121322	keystroke	a	n/a
60.781	0.105	121562	keystroke	m	n/a
60.916	0.09	121832	keystroke	Key.space	n/a
62.1455	0.135	124291	keystroke	o	n/a
62.1905	0.12	124381	keystroke	b	n/a
62.5805	0.06	125161	keystroke	s	n/a
62.7755	0.09	125551	keystroke	e	n/a
62.8205	0.09	125641	keystroke	r	n/a
63.0755	0.075	126151	keystroke	b	n/a
63.691	0.105	127382	keystroke	Key.backspace	n/a
64.171	0.09	128342	keystroke	v	n/a
64.216	0.105	128432	keystroke	a	n/a
64.411	0.075	128822	keystroke	t	n/a
64.501	0.105	129002	keystroke	i	n/a
64.546	0.12	129092	keystroke	o	n/a
64.741	0.09	129482	keystroke	n	n/a
65.0855	0.105	130171	keystroke	Key.enter	n/a
65.1955	8.9365	130391	prompt	n/a	lasting respected bacteria electoral\n
65.8505	0.105	131701	keystroke	l	n/a
65.9405	0.15	131881	keystroke	a	n/a
66.0155	0.09	132031	keystroke	s	n/a
66.2105	0.075	132421	keystroke	t	n/a
66.3155	0.12	132631	keystroke	i	n/a
66.3905	0.06	132781	keystroke	n	n/a
66.4655	0.09	132931	keystroke	g	n/a
66.6455	0.105	133291	keystroke	Key.space	n/a
66.9755	0.09	133951	keystroke	r	n/a
67.0055	0.105	134011	keystroke	e	n/a
67.246	0.1045	134492	keystroke	s	n/a
67.4705	0.1205	134941	keystroke	p	n/a
67.606	0.075	135212	keystroke	e	n/a
67.801	0.075	135602	keystroke	c	n/a
68.2955	0.1055	136591	keystroke	t	n/a
68.386	0.105	136772	keystroke	e	n/a
68.566	0.075	137132	keystroke	d	n/a
68.686	0.075	137372	keystroke	Key.space	n/a
68.896	0.09	137792	keystroke	b	n/a
68.956	0.12	137912	keystroke	a	n/a
69.016	0.15	138032	keystroke	c	n/a
69.271	0.075	138542	keystroke	t	n/a
69.376	0.12	138752	keystroke	e	n/a
69.451	0.09	138902	keystroke	r	n/a
69.675	0.076	139350	keystroke	i	n/a
69.81	0.12	139620	keystroke	a	n/a
69.945	0.0905	139890	keystroke	Key.space	n/a
70.2005	0.09	140401	keystroke	e	n/a
70.32	0.105	140640	keystroke	l	n/a
70.395	0.0905	140790	keystroke	e	n/a
70.53	0.105	141060	keystroke	c	n/a
70.8	0.075	141600	keystroke	t	n/a
70.8605	0.1205	141721	keystroke	r	n/a
71.28	0.076	142560	keystroke	o	n/a
71.505	0.061	143010	keystroke	a	n/a
71.7605	0.076	143521	keystroke	l	n/a
72.0605	0.06	144121	keystroke	Key.backspace	n/a
72.1955	0.09	144391	keystroke	Key.backspace	n/a
72.3605	0.09	144721	keystroke	Key.backspace	n/a
72.4805	0.12	144961	keystroke	Key.backspace	n/a
72.9905	0.09	145981	keystroke	o	n/a
73.5455	0.075	147091	keystroke	r	n/a
73.741	0.075	147482	keystroke	a	n/a
73.831	0.09	147662	keystroke	l	n/a
74.026	0.105	148052	keystroke	Key.enter	n/a
74.1365	6.1905	148273	prompt	n/a	years funds teach employer\n
75.046	0.03	150092	keystroke	y	n/a
75.106	0.0895	150212	keystroke	e	n/a
75.2855	0.105	150571	keystroke	a	n/a
75.5405	0.09	151081	keystroke	r	n/a
75.7655	0.12	151531	keystroke	s	n/a
76.0055	0.135	152011	keystroke	Key.space	n/a
76.816	0.075	153632	keystroke	f	n/a
77.0105	0.1355	154021	keystroke	u	n/a
77.0855	0.0755	154171	keystroke	n	n/a
77.116	0.15	154232	keystroke	d	n/a
77.206	0.1195	154412	keystroke	s	n/a
77.296	0.1195	154592	keystroke	Key.space	n/a
77.7305	0.12	155461	keystroke	t	n/a
77.9105	0.12	155821	keystroke	e	n/a
78.1055	0.105	156211	keystroke	a	n/a
78.1805	0.105	156361	keystroke	c	n/a
78.3005	0.0755	156601	keystroke	h	n/a
78.361	0.105	156722	keystroke	Key.space	n/a
78.736	0.105	157472	keystroke	e	n/a
78.826	0.105	157652	keystroke	m	n/a
79.051	0.165	158102	keystroke	p	n/a
79.171	0.09	158342	keystroke	l	n/a
79.681	0.105	159362	keystroke	o	n/a
79.981	0.0745	159962	keystroke	y	n/a
80.041	0.1045	160082	keystroke	e	n/a
80.1005	0.09	160201	keystroke	r	n/a
80.2355	0.09	160471	keystroke	Key.enter	n/a
80.3305	7.2865	160661	prompt	n/a	positions stage text recall\n
81.1655	0.135	162331	keystroke	p	n/a
81.2105	0.105	162421	keystroke	o	n/a
81.6755	0.09	163351	keystroke	s	n/a
81.7955	0.06	163591	keystroke	i	n/a
82.035	0.046	164070	keystroke	Key.backspace	n/a
82.156	0.059	164312	keystroke	Key.backspace	n/a
82.3205	0.045	164641	keystroke	i	n/a
82.4105	0.105	164821	keystroke	s	n/a
82.7855	0.06	165571	keystroke	Key.backspace	n/a
82.9205	0.06	165841	keystroke	Key.backspace	n/a
83.01	0.106	166020	keystroke	s	n/a
83.415	0.106	166830	keystroke	i	n/a
83.595	0.0905	167190	keystroke	t	n/a
83.6705	0.12	167341	keystroke	i	n/a
83.7455	0.105	167491	keystroke	o	n/a
84.691	0.135	169382	keystroke	n	n/a
84.915	0.121	169830	keystroke	s	n/a
85.02	0.09	170040	keystroke	Key.space	n/a
85.216	0.075	170432	keystroke	s	n/a
85.35	0.105	170700	keystroke	t	n/a
85.486	0.09	170972	keystroke	a	n/a
85.65	0.135	171300	keystroke	g	n/a
85.71	0.135	171420	keystroke	e	n/a
85.861	0.104	171722	keystroke	Key.space	n/a
85.995	0.136	171990	keystroke	t	n/a
86.1	0.075	172200	keystroke	e	n/a
86.28	0.105	172560	keystroke	x	n/a
86.49	0.076	172980	keystroke	t	n/a
86.625	0.105	173250	keystroke	Key.space	n/a
86.775	0.09	173550	keystroke	r	n/a
86.805	0.121	173610	keystroke	e	n/a
86.986	0.134	173972	keystroke	c	n/a
87.105	0.105	174210	keystroke	a	n/a
87.225	0.091	174450	keystroke	l	n/a
87.36	0.091	174720	keystroke	l	n/a
87.511	0.104	175022	keystroke	Key.enter	n/a
87.6215	7.496	175243	prompt	n/a	contributing money store cute\n
88.5605	0.075	177121	keystroke	c	n/a
88.6205	0.135	177241	keystroke	o	n/a
88.6805	0.135	177361	keystroke	n	n/a
88.8005	0.06	177601	keystroke	t	n/a
88.8305	0.105	177661	keystroke	r	n/a
89.4305	0.075	178861	keystroke	i	n/a
89.5655	0.105	179131	keystroke	b	n/a
89.7155	0.09	179431	keystroke	u	n/a
89.8205	0.09	179641	keystroke	t	n/a
90.016	0.165	180032	keystroke	i	n/a
90.106	0.09	180212	keystroke	n	n/a
90.286	0.09	180572	keystroke	Key.space	n/a
90.826	0.075	181652	keystroke	Key.backspace	n/a
91.156	0.06	182312	keystroke	g	n/a
91.231	0.09	182462	keystroke	Key.space	n/a
91.456	0.0895	182912	keystroke	m	n/a
91.516	0.1195	183032	keystroke	o	n/a
91.7105	0.105	183421	keystroke	n	n/a
91.8005	0.135	183601	keystroke	e	n/a
91.8905	0.0755	183781	keystroke	y	n/a
91.98	0.105	183960	keystroke	Key.space	n/a
92.34	0.091	184680	keystroke	s	n/a
92.566	0.059	185132	keystroke	t	n/a
92.73	0.105	185460	keystroke	o	n/a
92.805	0.12	185610	keystroke	r	n/a
92.881	0.104	185762	keystroke	e	n/a
93	0.12	186000	keystroke	Key.space	n/a
93.24	0.0905	186480	keystroke	c	n/a
93.3905	0.105	186781	keystroke	u	n/a
93.5855	0.06	187171	keystroke	r	n/a
93.5855	0.06	187171	keystroke	t	n/a
93.6155	0.15	187231	keystroke	e	n/a
94.0955	0.075	188191	keystroke	Key.backspace	n/a
94.2455	0.0595	188491	keystroke	Key.backspace	n/a
94.395	0.045	188790	keystroke	Key.backspace	n/a
94.47	0.105	188940	keystroke	t	n/a
94.755	0.105	189510	keystroke	e	n/a
95.025	0.09	190050	keystroke	Key.enter	n/a
95.1285	5.2835	190257	prompt	n/a	karl host covers mobility\n
95.971	0.105	191942	keystroke	k	n/a
96.586	0.12	193172	keystroke	a	n/a
96.781	0.075	193562	keystroke	r	n/a
96.916	0.105	193832	keystroke	l	n/a
97.036	0.09	194072	keystroke	Key.space	n/a
97.336	0.15	194672	keystroke	h	n/a
97.471	0.105	194942	keystroke	o	n/a
97.531	0.12	195062	keystroke	s	n/a
97.591	0.09	195182	keystroke	t	n/a
97.696	0.105	195392	keystroke	Key.space	n/a
97.816	0.09	195632	keystroke	c	n/a
97.936	0.105	195872	keystroke	o	n/a
98.056	0.075	196112	keystroke	v	n/a
98.236	0.09	196472	keystroke	e	n/a
98.296	0.09	196592	keystroke	r	n/a
98.446	0.09	196892	keystroke	s	n/a
98.566	0.105	197132	keystroke	Key.space	n/a
98.7755	0.12	197551	keystroke	m	n/a
98.8805	0.12	197761	keystroke	o	n/a
99.6605	0.03	199321	keystroke	b	n/a
99.6915	0.089	199383	keystroke	i	n/a
99.8855	0.075	199771	keystroke	l	n/a
100.0505	0.075	200101	keystroke	i	n/a
100.1405	0.105	200281	keystroke	t	n/a
100.1855	0.09	200371	keystroke	y	n/a
100.2905	0.12	200581	keystroke	Key.enter	n/a
100.4165	8.9955	200833	prompt	n/a	fotos bags legendary visitors\n
101.431	0.09	202862	keystroke	f	n/a
101.535	0.06	203070	keystroke	o	n/a
101.626	0.0745	203252	keystroke	t	n/a
101.6855	0.075	203371	keystroke	o	n/a
101.8655	0.09	203731	keystroke	s	n/a
101.9855	0.09	203971	keystroke	Key.space	n/a
102.2105	0.075	204421	keystroke	b	n/a
102.3005	0.105	204601	keystroke	a	n/a
102.6005	0.135	205201	keystroke	h	n/a
102.7505	0.09	205501	keystroke	s	n/a
102.9155	0.075	205831	keystroke	Key.space	n/a
103.1705	0.045	206341	keystroke	Key.backspace	n/a
103.2905	0.12	206581	keystroke	Key.backspace	n/a
103.4555	0.1805	206911	keystroke	g	n/a
103.756	0.074	207512	keystroke	Key.backspace	n/a
103.875	0.076	207750	keystroke	Key.backspace	n/a
103.996	0.135	207992	keystroke	g	n/a
104.101	0.135	208202	keystroke	s	n/a
104.626	0.12	209252	keystroke	Key.space	n/a
105.076	0.06	210152	keystroke	l	n/a
105.436	0.089	210872	keystroke	e	n/a
105.571	0.105	211142	keystroke	g	n/a
105.84	0.106	211680	keystroke	e	n/a
106.021	0.105	212042	keystroke	n	n/a
106.186	0.119	212372	keystroke	d	n/a
106.381	0.135	212762	keystroke	a	n/a
106.516	0.135	213032	keystroke	r	n/a
106.8455	0.06	213691	keystroke	y	n/a
106.9955	0.105	213991	keystroke	Key.space	n/a
107.5355	0.075	215071	keystroke	v	n/a
107.6255	0.06	215251	keystroke	i	n/a
107.7155	0.09	215431	keystroke	s	n/a
107.8205	0.09	215641	keystroke	i	n/a
108.0005	0.03	216001	keystroke	t	n/a
108.7355	0.09	217471	keystroke	o	n/a
108.8555	0.075	217711	keystroke	r	n/a
109.1255	0.12	218251	keystroke	s	n/a
109.3055	0.105	218611	keystroke	Key.enter	n/a
109.415	10.947	218830	prompt	n/a	joint reality who'd lectures\n
110.3705	0.12	220741	keystroke	j	n/a
110.4455	0.105	220891	keystroke	o	n/a
110.8205	0.165	221641	keystroke	i	n/a
110.9105	0.1195	221821	keystroke	n	n/a
111.045	0.12	222090	keystroke	t	n/a
111.225	0.1205	222450	keystroke	Key.space	n/a
111.5555	0.12	223111	keystroke	r	n/a
111.6155	0.12	223231	keystroke	e	n/a
111.7955	0.135	223591	keystroke	a	n/a
111.9155	0.105	223831	keystroke	l	n/a
112.1405	0.105	224281	keystroke	i	n/a
112.3355	0.15	224671	keystroke	t	n/a
112.4255	0.09	224851	keystroke	y	n/a
112.6055	0.09	225211	keystroke	Key.space	n/a
113.0105	0.12	226021	keystroke	w	n/a
113.1155	0.12	226231	keystroke	h	n/a
113.1905	0.09	226381	keystroke	o	n/a
113.6855	0.1205	227371	keystroke	;	n/a
114.196	0.119	228392	keystroke	Key.backspace	n/a
114.526	0.12	229052	keystroke	'	n/a
115.08	0.105	230160	keystroke	d	n/a
115.26	0.0755	230520	keystroke	Key.space	n/a
115.7255	0.09	231451	keystroke	l	n/a
115.8005	0.09	231601	keystroke	e	n/a
115.9955	0.135	231991	keystroke	a	n/a
116.1155	0.105	232231	keystroke	c	n/a
116.445	0.06	232890	keystroke	t	n/a
116.535	0.09	233070	keystroke	u	n/a
116.655	0.135	233310	keystroke	r	n/a
116.76	0.12	233520	keystroke	e	n/a
116.94	0.105	233880	keystroke	s	n/a
117.3755	0.075	234751	keystroke	Key.backspace	n/a
117.5255	0.06	235051	keystroke	Key.backspace	n/a
117.6455	0.075	235291	keystroke	Key.backspace	n/a
117.7805	0.06	235561	keystroke	Key.backspace	n/a
117.9005	0.075	235801	keystroke	Key.backspace	n/a
118.0055	0.075	236011	keystroke	Key.backspace	n/a
118.4255	0.045	236851	keystroke	Key.backspace	n/a
118.6355	0.075	237271	keystroke	c	n/a
119.206	0.09	238412	keystroke	t	n/a
119.356	0.075	238712	keystroke	u	n/a
119.446	0.135	238892	keystroke	r	n/a
119.536	0.09	239072	keystroke	e	n/a
119.716	0.105	239432	keystroke	s	n/a
120.286	0.075	240572	keystroke	Key.enter	n/a
120.365	10.197	240730	prompt	n/a	livecam historic dark shed\n
121.5455	0.075	243091	keystroke	l	n/a
121.8005	0.075	243601	keystroke	i	n/a
121.8305	0.135	243661	keystroke	v	n/a
121.9055	0.12	243811	keystroke	e	n/a
122.101	0.135	244202	keystroke	c	n/a
122.295	0.121	244590	keystroke	a	n/a
122.461	0.09	244922	keystroke	m	n/a
122.565	0.105	245130	keystroke	e	n/a
122.685	0.106	245370	keystroke	Key.space	n/a
122.971	0.09	245942	keystroke	h	n/a
123	0.121	246000	keystroke	i	n/a
123.106	0.075	246212	keystroke	s	n/a
123.271	0.075	246542	keystroke	t	n/a
123.391	0.0745	246782	keystroke	o	n/a
123.4505	0.09	246901	keystroke	r	n/a
123.6005	0.06	247201	keystroke	i	n/a
123.7805	0.105	247561	keystroke	k	n/a
123.9005	0.075	247801	keystroke	Key.space	n/a
124.7405	0.075	249481	keystroke	Key.backspace	n/a
124.9055	0.045	249811	keystroke	Key.backspace	n/a
125.0255	0.075	250051	keystroke	Key.backspace	n/a
125.1755	0.06	250351	keystroke	Key.backspace	n/a
125.2955	0.075	250591	keystroke	Key.backspace	n/a
125.4305	0.06	250861	keystroke	Key.backspace	n/a
125.5505	0.06	251101	keystroke	Key.backspace	n/a
125.6705	0.045	251341	keystroke	Key.backspace	n/a
125.7605	0.06	251521	keystroke	Key.backspace	n/a
125.9255	0.075	251851	keystroke	Key.backspace	n/a
126.12	0.0605	252240	keystroke	Key.backspace	n/a
126.3605	0.075	252721	keystroke	Key.space	n/a
127.2605	0.105	254521	keystroke	h	n/a
127.38	0.105	254760	keystroke	i	n/a
127.545	0.09	255090	keystroke	s	n/a
127.7105	0.09	255421	keystroke	t	n/a
127.8155	0.09	255631	keystroke	o	n/a
127.9205	0.075	255841	keystroke	r	n/a
128.0255	0.075	256051	keystroke	i	n/a
128.1455	0.105	256291	keystroke	c	n/a
128.2805	0.1045	256561	keystroke	Key.space	n/a
128.9405	0.105	257881	keystroke	d	n/a
129.1655	0.135	258331	keystroke	a	n/a
129.3755	0.045	258751	keystroke	r	n/a
129.5105	0.09	259021	keystroke	k	n/a
129.7055	0.09	259411	keystroke	Key.space	n/a
130.0205	0.06	260041	keystroke	s	n/a
130.0955	0.0895	260191	keystroke	h	n/a
130.215	0.06	260430	keystroke	e	n/a
130.38	0.06	260760	keystroke	d	n/a
130.47	0.09	260940	keystroke	Key.enter	n/a
130.565	6.057	261130	prompt	n/a	display heads glasses wind\n
131.311	0.105	262622	keystroke	d	n/a
131.446	0.0895	262892	keystroke	i	n/a
131.5505	0.09	263101	keystroke	s	n/a
131.685	0.15	263370	keystroke	p	n/a
131.805	0.061	263610	keystroke	l	n/a
131.881	0.104	263762	keystroke	a	n/a
132.12	0.075	264240	keystroke	y	n/a
132.27	0.09	264540	keystroke	Key.space	n/a
132.616	0.089	265232	keystroke	h	n/a
132.69	0.106	265380	keystroke	e	n/a
132.946	0.074	265892	keystroke	a	n/a
133.71	0.12	267420	keystroke	d	n/a
133.755	0.135	267510	keystroke	s	n/a
133.92	0.1055	267840	keystroke	Key.space	n/a
134.445	0.075	268890	keystroke	g	n/a
134.55	0.106	269100	keystroke	l	n/a
134.625	0.12	269250	keystroke	a	n/a
134.715	0.075	269430	keystroke	s	n/a
134.85	0.121	269700	keystroke	s	n/a
135.075	0.075	270150	keystroke	e	n/a
135.226	0.104	270452	keystroke	s	n/a
135.345	0.09	270690	keystroke	Key.space	n/a
135.525	0.075	271050	keystroke	w	n/a
135.63	0.09	271260	keystroke	i	n/a
135.66	0.105	271320	keystroke	n	n/a
135.976	0.104	271952	keystroke	d	n/a
136.5155	0.105	273031	keystroke	Key.enter	n/a
136.625	12.0275	273250	prompt	n/a	specification profiles illustrations portland\n
137.3705	0.105	274741	keystroke	s	n/a
137.4605	0.105	274921	keystroke	c	n/a
137.5955	0.1205	275191	keystroke	p	n/a
137.851	0.075	275702	keystroke	e	n/a
138.466	0.06	276932	keystroke	Key.backspace	n/a
138.586	0.06	277172	keystroke	Key.backspace	n/a
138.721	0.09	277442	keystroke	Key.backspace	n/a
139.216	0.09	278432	keystroke	p	n/a
139.321	0.12	278642	keystroke	e	n/a
139.381	0.12	278762	keystroke	c	n/a
140.101	0.075	280202	keystroke	i	n/a
140.236	0.075	280472	keystroke	d	n/a
140.326	0.09	280652	keystroke	i	n/a
140.7905	0.045	281581	keystroke	Key.backspace	n/a
140.9105	0.075	281821	keystroke	Key.backspace	n/a
141.526	0.06	283052	keystroke	f	n/a
141.601	0.075	283202	keystroke	i	n/a
141.691	0.119	283382	keystroke	c	n/a
141.781	0.104	283562	keystroke	a	n/a
141.991	0.09	283982	keystroke	t	n/a
142.021	0.12	284042	keystroke	i	n/a
142.096	0.105	284192	keystroke	o	n/a
142.276	0.1045	284552	keystroke	n	n/a
142.366	0.0895	284732	keystroke	Key.space	n/a
142.6655	0.09	285331	keystroke	p	n/a
142.7555	0.09	285511	keystroke	r	n/a
142.8905	0.075	285781	keystroke	o	n/a
142.9955	0.075	285991	keystroke	g	n/a
143.1005	0.075	286201	keystroke	i	n/a
143.3555	0.06	286711	keystroke	Key.backspace	n/a
143.4755	0.075	286951	keystroke	Key.backspace	n/a
143.5655	0.075	287131	keystroke	f	n/a
143.9255	0.09	287851	keystroke	i	n/a
144.1505	0.09	288301	keystroke	l	n/a
144.2555	0.045	288511	keystroke	e	n/a
144.3905	0.105	288781	keystroke	s	n/a
144.5105	0.09	289021	keystroke	Key.space	n/a
144.9605	0.06	289921	keystroke	i	n/a
145.141	0.045	290282	keystroke	l	n/a
145.246	0.075	290492	keystroke	l	n/a
145.441	0.06	290882	keystroke	u	n/a
145.516	0.09	291032	keystroke	s	n/a
145.756	0.12	291512	keystroke	t	n/a
145.771	0.09	291542	keystroke	r	n/a
145.981	0.09	291962	keystroke	a	n/a
146.026	0.09	292052	keystroke	t	n/a
146.146	0.105	292292	keystroke	i	n/a
146.221	0.09	292442	keystroke	o	n/a
146.416	0.0595	292832	keystroke	n	n/a
146.5055	0.09	293011	keystroke	s	n/a
146.5805	0.09	293161	keystroke	Key.space	n/a
146.7905	0.12	293581	keystroke	p	n/a
146.8505	0.135	293701	keystroke	o	n/a
146.9555	0.12	293911	keystroke	r	n/a
147.0155	0.105	294031	keystroke	t	n/a
147.2255	0.06	294451	keystroke	a	n/a
147.5555	0.06	295111	keystroke	Key.backspace	n/a
147.6905	0.12	295381	keystroke	l	n/a
147.7955	0.0745	295591	keystroke	a	n/a
147.945	0.075	295890	keystroke	n	n/a
148.035	0.091	296070	keystroke	d	n/a
148.545	0.105	297090	keystroke	Key.enter	n/a
148.665	10.0225	297330	prompt	n/a	perspective assumption males organisations\n
149.5655	0.06	299131	keystroke	p	n/a
149.7755	0.105	299551	keystroke	e	n/a
149.8205	0.105	299641	keystroke	r	n/a
150.0005	0.105	300001	keystroke	s	n/a
150.4805	0.09	300961	keystroke	p	n/a
150.6155	0.075	301231	keystroke	e	n/a
150.8105	0.075	301621	keystroke	c	n/a
151.17	0.09	302340	keystroke	t	n/a
151.4255	0.09	302851	keystroke	i	n/a
151.5305	0.1645	303061	keystroke	v	n/a
151.6205	0.1045	303241	keystroke	e	n/a
151.74	0.075	303480	keystroke	Key.space	n/a
151.905	0.1205	303810	keystroke	a	n/a
152.4155	0.06	304831	keystroke	s	n/a
152.5355	0.105	305071	keystroke	s	n/a
152.6255	0.075	305251	keystroke	u	n/a
152.8355	0.09	305671	keystroke	m	n/a
153.0305	0.09	306061	keystroke	p	n/a
153.3	0.09	306600	keystroke	t	n/a
153.435	0.1205	306870	keystroke	i	n/a
153.495	0.1055	306990	keystroke	o	n/a
153.6605	0.09	307321	keystroke	n	n/a
153.7355	0.06	307471	keystroke	Key.space	n/a
153.9305	0.105	307861	keystroke	m	n/a
154.0505	0.075	308101	keystroke	a	n/a
154.8005	0.105	309601	keystroke	l	n/a
154.9205	0.06	309841	keystroke	e	n/a
155.0705	0.09	310141	keystroke	s	n/a
155.2055	0.06	310411	keystroke	Key.space	n/a
156.165	0.06	312330	keystroke	o	n/a
156.33	0.15	312660	keystroke	r	n/a
156.42	0.075	312840	keystroke	g	n/a
156.645	0.09	313290	keystroke	a	n/a
156.75	0.075	313500	keystroke	n	n/a
157.08	0.075	314160	keystroke	i	n/a
157.2	0.12	314400	keystroke	z	n/a
157.275	0.106	314550	keystroke	a	n/a
157.516	0.075	315032	keystroke	t	n/a
157.606	0.1045	315212	keystroke	i	n/a
157.651	0.1045	315302	keystroke	o	n/a
157.8155	0.12	315631	keystroke	n	n/a
158.4155	0.09	316831	keystroke	s	n/a
158.5955	0.09	317191	keystroke	Key.enter	n/a
158.6985	5.418	317397	prompt	n/a	customs dealing possible counting\n
159.4805	0.075	318961	keystroke	c	n/a
159.5855	0.06	319171	keystroke	u	n/a
159.6605	0.0605	319321	keystroke	s	n/a
159.826	0.059	319652	keystroke	t	n/a
159.931	0.12	319862	keystroke	o	n/a
160.006	0.104	320012	keystroke	m	n/a
160.14	0.12	320280	keystroke	s	n/a
160.245	0.09	320490	keystroke	Key.space	n/a
160.5455	0.06	321091	keystroke	d	n/a
160.7255	0.075	321451	keystroke	e	n/a
160.8305	0.09	321661	keystroke	a	n/a
160.9505	0.105	321901	keystroke	l	n/a
161.176	0.089	322352	keystroke	i	n/a
161.22	0.09	322440	keystroke	n	n/a
161.295	0.106	322590	keystroke	g	n/a
161.415	0.0755	322830	keystroke	Key.space	n/a
161.6255	0.12	323251	keystroke	p	n/a
161.6855	0.12	323371	keystroke	o	n/a
161.7905	0.09	323581	keystroke	s	n/a
161.9255	0.09	323851	keystroke	s	n/a
162.1655	0.0895	324331	keystroke	i	n/a
162.27	0.075	324540	keystroke	b	n/a
162.375	0.075	324750	keystroke	l	n/a
162.465	0.09	324930	keystroke	e	n/a
162.57	0.09	325140	keystroke	Key.space	n/a
162.96	0.075	325920	keystroke	c	n/a
163.05	0.1055	326100	keystroke	o	n/a
163.1105	0.105	326221	keystroke	u	n/a
163.2755	0.06	326551	keystroke	t	n/a
163.3655	0.12	326731	keystroke	i	n/a
163.4405	0.135	326881	keystroke	n	n/a
163.5155	0.075	327031	keystroke	g	n/a
164.04	0.075	328080	keystroke	Key.enter	n/a
164.121	6.971	328242	prompt	n/a	files rage recent metallica\n
165.0755	0.075	330151	keystroke	f	n/a
165.4805	0.045	330961	keystroke	i	n/a
165.66	0.075	331320	keystroke	l	n/a
165.72	0.105	331440	keystroke	e	n/a
165.78	0.105	331560	keystroke	s	n/a
165.9	0.09	331800	keystroke	Key.space	n/a
166.05	0.075	332100	keystroke	r	n/a
166.185	0.075	332370	keystroke	a	n/a
166.261	0.074	332522	keystroke	n	n/a
166.4405	0.105	332881	keystroke	g	n/a
166.5005	0.105	333001	keystroke	e	n/a
166.6205	0.1045	333241	keystroke	Key.space	n/a
166.8	0.1205	333600	keystroke	r	n/a
166.905	0.0605	333810	keystroke	e	n/a
167.0105	0.1495	334021	keystroke	c	n/a
167.13	0.09	334260	keystroke	e	n/a
167.235	0.075	334470	keystroke	n	n/a
167.34	0.075	334680	keystroke	t	n/a
167.43	0.075	334860	keystroke	Key.space	n/a
167.94	0.105	335880	keystroke	m	n/a
168.03	0.075	336060	keystroke	e	n/a
168.15	0.075	336300	keystroke	t	n/a
168.66	0.09	337320	keystroke	a	n/a
168.795	0.105	337590	keystroke	l	n/a
169.53	0.105	339060	keystroke	l	n/a
169.785	0.0755	339570	keystroke	i	n/a
170.8205	0.09	341641	keystroke	c	n/a
170.8805	0.09	341761	keystroke	a	n/a
171.0155	0.075	342031	keystroke	Key.enter	n/a
171.095	8.172	342190	prompt	n/a	progressive worm markers basically\n
171.886	0.09	343772	keystroke	p	n/a
171.9905	0.045	343981	keystroke	r	n/a
172.0805	0.09	344161	keystroke	o	n/a
172.2305	0.105	344461	keystroke	g	n/a
172.2755	0.105	344551	keystroke	r	n/a
172.726	0.06	345452	keystroke	e	n/a
172.951	0.0745	345902	keystroke	s	n/a
173.1005	0.075	346201	keystroke	s	n/a
173.2205	0.09	346441	keystroke	o	n/a
174.3305	0.105	348661	keystroke	Key.backspace	n/a
174.5255	0.105	349051	keystroke	i	n/a
174.6755	0.12	349351	keystroke	v	n/a
174.7655	0.09	349531	keystroke	e	n/a
174.9155	0.105	349831	keystroke	Key.space	n/a
175.2455	0.075	350491	keystroke	w	n/a
175.2905	0.105	350581	keystroke	o	n/a
175.4405	0.06	350881	keystroke	r	n/a
175.5155	0.075	351031	keystroke	m	n/a
175.695	0.075	351390	keystroke	Key.space	n/a
175.86	0.09	351720	keystroke	m	n/a
175.965	0.09	351930	keystroke	a	n/a
176.07	0.12	352140	keystroke	r	n/a
176.205	0.09	352410	keystroke	k	n/a
176.355	0.105	352710	keystroke	e	n/a
176.415	0.075	352830	keystroke	t	n/a
176.8655	0.09	353731	keystroke	Key.backspace	n/a
177.4055	0.09	354811	keystroke	r	n/a
177.6005	0.0905	355201	keystroke	s	n/a
177.691	0.104	355382	keystroke	Key.space	n/a
177.99	0.12	355980	keystroke	b	n/a
178.066	0.149	356132	keystroke	a	n/a
178.126	0.119	356252	keystroke	s	n/a
178.231	0.09	356462	keystroke	i	n/a
178.335	0.105	356670	keystroke	c	n/a
178.455	0.09	356910	keystroke	a	n/a
178.53	0.06	357060	keystroke	l	n/a
178.635	0.09	357270	keystroke	l	n/a
178.755	0.105	357510	keystroke	y	n/a
179.175	0.09	358350	keystroke	Key.enter	n/a
179.27	5.712	358540	prompt	n/a	saves movers talented interviews\n
180.045	0.135	360090	keystroke	s	n/a
180.225	0.09	360450	keystroke	a	n/a
180.405	0.105	360810	keystroke	v	n/a
180.48	0.0905	360960	keystroke	e	n/a
180.6755	0.075	361351	keystroke	s	n/a
180.9755	0.09	361951	keystroke	Key.space	n/a
181.4105	0.075	362821	keystroke	m	n/a
181.5605	0.075	363121	keystroke	o	n/a
181.6655	0.0895	363331	keystroke	v	n/a
181.815	0.135	363630	keystroke	e	n/a
181.905	0.105	363810	keystroke	r	n/a
182.056	0.104	364112	keystroke	s	n/a
182.235	0.12	364470	keystroke	Key.space	n/a
182.505	0.09	365010	keystroke	t	n/a
182.64	0.075	365280	keystroke	a	n/a
182.73	0.09	365460	keystroke	l	n/a
182.835	0.09	365670	keystroke	e	n/a
182.94	0.075	365880	keystroke	n	n/a
183.03	0.09	366060	keystroke	t	n/a
183.135	0.105	366270	keystroke	e	n/a
183.3155	0.105	366631	keystroke	d	n/a
183.4055	0.105	366811	keystroke	Key.space	n/a
183.5855	0.1195	367171	keystroke	i	n/a
183.6605	0.0745	367321	keystroke	n	n/a
183.72	0.075	367440	keystroke	t	n/a
183.825	0.105	367650	keystroke	e	n/a
183.885	0.09	367770	keystroke	r	n/a
184.095	0.075	368190	keystroke	v	n/a
184.2	0.09	368400	keystroke	i	n/a
184.32	0.105	368640	keystroke	e	n/a
184.395	0.09	368790	keystroke	w	n/a
184.62	0.105	369240	keystroke	s	n/a
184.89	0.09	369780	keystroke	Key.enter	n/a
184.985	13.0025	369970	prompt	n/a	particularly concern bare advertising\n
185.67	0.09	371340	keystroke	p	n/a
185.775	0.09	371550	keystroke	a	n/a
186.0455	0.12	372091	keystroke	r	n/a
186.1205	0.09	372241	keystroke	t	n/a
187.1405	0.06	374281	keystroke	i	n/a
187.3355	0.045	374671	keystroke	u	n/a
188.145	0.045	376290	keystroke	Key.backspace	n/a
188.295	0.03	376590	keystroke	Key.backspace	n/a
189.12	0.0455	378240	keystroke	i	n/a
189.495	0.0455	378990	keystroke	u	n/a
190.231	0.059	380462	keystroke	Key.backspace	n/a
191.0855	0.06	382171	keystroke	c	n/a
191.191	0.075	382382	keystroke	u	n/a
191.7005	0.09	383401	keystroke	l	n/a
192.1805	0.105	384361	keystroke	a	n/a
192.3455	0.105	384691	keystroke	r	n/a
193.125	0.09	386250	keystroke	l	n/a
193.23	0.061	386460	keystroke	y	n/a
193.545	0.075	387090	keystroke	Key.space	n/a
193.89	0.075	387780	keystroke	c	n/a
193.95	0.12	387900	keystroke	o	n/a
194.01	0.106	388020	keystroke	n	n/a
194.085	0.06	388170	keystroke	c	n/a
194.265	0.09	388530	keystroke	e	n/a
194.311	0.089	388622	keystroke	r	n/a
194.416	0.06	388832	keystroke	n	n/a
194.58	0.09	389160	keystroke	Key.space	n/a
194.865	0.091	389730	keystroke	b	n/a
194.94	0.105	389880	keystroke	a	n/a
195.105	0.135	390210	keystroke	r	n/a
195.18	0.105	390360	keystroke	e	n/a
195.27	0.09	390540	keystroke	Key.space	n/a
195.7355	0.12	391471	keystroke	a	n/a
195.8105	0.105	391621	keystroke	d	n/a
196.0655	0.09	392131	keystroke	v	n/a
196.2305	0.105	392461	keystroke	e	n/a
196.2905	0.105	392581	keystroke	r	n/a
196.98	0.09	393960	keystroke	t	n/a
197.085	0.09	394170	keystroke	i	n/a
197.19	0.075	394380	keystroke	s	n/a
197.28	0.135	394560	keystroke	i	n/a
197.37	0.105	394740	keystroke	n	n/a
197.49	0.12	394980	keystroke	g	n/a
197.8505	0.135	395701	keystroke	Key.enter	n/a
197.999	10.758	395998	prompt	n/a	judy channel complimentary bookmark\n
199.2455	0.045	398491	keystroke	j	n/a
199.4105	0.075	398821	keystroke	u	n/a
200.1005	0.09	400201	keystroke	d	n/a
200.3555	0.06	400711	keystroke	y	n/a
200.5655	0.075	401131	keystroke	Key.space	n/a
200.9405	0.075	401881	keystroke	c	n/a
201.1355	0.075	402271	keystroke	h	n/a
201.2405	0.06	402481	keystroke	a	n/a
201.3455	0.06	402691	keystroke	n	n/a
201.4655	0.09	402931	keystroke	n	n/a
201.5705	0.105	403141	keystroke	e	n/a
201.7055	0.09	403411	keystroke	l	n/a
202.0205	0.09	404041	keystroke	Key.space	n/a
202.5755	0.06	405151	keystroke	c	n/a
202.6505	0.135	405301	keystroke	o	n/a
202.7255	0.09	405451	keystroke	m	n/a
203.4305	0.15	406861	keystroke	p	n/a
203.4905	0.105	406981	keystroke	l	n/a
203.835	0.12	407670	keystroke	i	n/a
204.4055	0.09	408811	keystroke	m	n/a
204.5705	0.09	409141	keystroke	e	n/a
204.6455	0.09	409291	keystroke	n	n/a
205.56	0.105	411120	keystroke	t	n/a
205.74	0.15	411480	keystroke	a	n/a
205.815	0.135	411630	keystroke	r	n/a
206.115	0.075	412230	keystroke	y	n/a
206.25	0.105	412500	keystroke	Key.space	n/a
206.925	0.075	413850	keystroke	b	n/a
207.375	0.0905	414750	keystroke	o	n/a
207.541	0.164	415082	keystroke	o	n/a
207.675	0.09	415350	keystroke	k	n/a
208.065	0.075	416130	keystroke	m	n/a
208.17	0.075	416340	keystroke	a	n/a
208.38	0.09	416760	keystroke	r	n/a
208.485	0.09	416970	keystroke	k	n/a
208.695	0.06	417390	keystroke	Key.enter	n/a
208.76	6.897	417520	prompt	n/a	expensive at students distances\n
209.565	0.0905	419130	keystroke	e	n/a
210.1505	0.09	420301	keystroke	x	n/a
210.3005	0.06	420601	keystroke	p	n/a
210.5405	0.09	421081	keystroke	e	n/a
210.6755	0.0895	421351	keystroke	n	n/a
211.245	0.105	422490	keystroke	s	n/a
211.44	0.09	422880	keystroke	i	n/a
211.635	0.0905	423270	keystroke	v	n/a
211.6805	0.135	423361	keystroke	e	n/a
212.28	0.09	424560	keystroke	Key.space	n/a
212.385	0.12	424770	keystroke	a	n/a
212.55	0.09	425100	keystroke	t	n/a
212.685	0.105	425370	keystroke	Key.space	n/a
212.895	0.075	425790	keystroke	s	n/a
213.045	0.075	426090	keystroke	t	n/a
213.18	0.075	426360	keystroke	u	n/a
213.3	0.09	426600	keystroke	d	n/a
213.51	0.06	427020	keystroke	e	n/a
213.615	0.0905	427230	keystroke	n	n/a
213.7205	0.06	427441	keystroke	t	n/a
213.8855	0.105	427771	keystroke	s	n/a
214.0055	0.09	428011	keystroke	Key.space	n/a
214.5005	0.09	429001	keystroke	d	n/a
214.6055	0.075	429211	keystroke	i	n/a
214.6955	0.075	429391	keystroke	s	n/a
214.8605	0.075	429721	keystroke	t	n/a
214.9955	0.06	429991	keystroke	a	n/a
215.1305	0.06	430261	keystroke	n	n/a
215.2055	0.105	430411	keystroke	c	n/a
215.2505	0.09	430501	keystroke	e	n/a
215.4455	0.075	430891	keystroke	s	n/a
215.5655	0.09	431131	keystroke	Key.enter	n/a
215.6765	9.5805	431353	prompt	n/a	trains resolutions orchestra neighbor\n
216.4055	0.06	432811	keystroke	t	n/a
216.4205	0.09	432841	keystroke	r	n/a
216.6155	0.075	433231	keystroke	a	n/a
216.7055	0.12	433411	keystroke	i	n/a
216.7655	0.09	433531	keystroke	n	n/a
216.8405	0.09	433681	keystroke	s	n/a
216.9455	0.09	433891	keystroke	Key.space	n/a
217.2905	0.09	434581	keystroke	r	n/a
217.3205	0.09	434641	keystroke	e	n/a
217.5155	0.09	435031	keystroke	s	n/a
217.6205	0.105	435241	keystroke	o	n/a
217.8155	0.075	435631	keystroke	l	n/a
217.9955	0.075	435991	keystroke	u	n/a
218.1005	0.06	436201	keystroke	t	n/a
218.2055	0.105	436411	keystroke	i	n/a
218.2805	0.105	436561	keystroke	o	n/a
218.4155	0.075	436831	keystroke	n	n/a
218.5055	0.09	437011	keystroke	s	n/a
218.5805	0.09	437161	keystroke	Key.space	n/a
218.79	0.09	437580	keystroke	o	n/a
218.97	0.061	437940	keystroke	r	n/a
219.3	0.09	438600	keystroke	c	n/a
219.541	0.074	439082	keystroke	h	n/a
219.826	0.029	439652	keystroke	s	n/a
220.215	0.075	440430	keystroke	Key.backspace	n/a
220.32	0.09	440640	keystroke	e	n/a
220.485	0.105	440970	keystroke	s	n/a
221.056	0.119	442112	keystroke	t	n/a
221.07	0.135	442140	keystroke	r	n/a
221.295	0.105	442590	keystroke	a	n/a
221.43	0.105	442860	keystroke	Key.space	n/a
221.6705	0.0445	443341	keystroke	m	n/a
222.135	0.06	444270	keystroke	Key.backspace	n/a
222.33	0.09	444660	keystroke	n	n/a
222.525	0.075	445050	keystroke	i	n/a
223.065	0.075	446130	keystroke	Key.backspace	n/a
223.185	0.105	446370	keystroke	e	n/a
223.59	0.06	447180	keystroke	i	n/a
223.9205	0.075	447841	keystroke	g	n/a
223.9955	0.09	447991	keystroke	h	n/a
224.715	0.06	449430	keystroke	b	n/a
224.9105	0.105	449821	keystroke	o	n/a
225.0305	0.075	450061	keystroke	r	n/a
225.1505	0.1045	450301	keystroke	Key.enter	n/a
225.2605	6.3265	450521	prompt	n/a	sony andreas hence addressed\n
225.9155	0.09	451831	keystroke	s	n/a
226.0205	0.135	452041	keystroke	o	n/a
226.0805	0.105	452161	keystroke	n	n/a
226.4555	0.0745	452911	keystroke	y	n/a
226.56	0.12	453120	keystroke	Key.space	n/a
227.28	0.105	454560	keystroke	a	n/a
227.386	0.074	454772	keystroke	n	n/a
227.565	0.09	455130	keystroke	d	n/a
227.7905	0.075	455581	keystroke	r	n/a
227.8055	0.135	455611	keystroke	e	n/a
228.0005	0.12	456001	keystroke	a	n/a
228.27	0.09	456540	keystroke	s	n/a
228.435	0.12	456870	keystroke	Key.space	n/a
229.44	0.06	458880	keystroke	h	n/a
229.501	0.089	459002	keystroke	e	n/a
229.605	0.09	459210	keystroke	n	n/a
229.725	0.12	459450	keystroke	c	n/a
229.8	0.105	459600	keystroke	e	n/a
229.906	0.089	459812	keystroke	Key.space	n/a
230.25	0.105	460500	keystroke	a	n/a
230.34	0.09	460680	keystroke	d	n/a
230.505	0.09	461010	keystroke	d	n/a
230.715	0.075	461430	keystroke	r	n/a
230.745	0.105	461490	keystroke	e	n/a
230.925	0.1055	461850	keystroke	s	n/a
231.0905	0.105	462181	keystroke	s	n/a
231.2855	0.06	462571	keystroke	e	n/a
231.4055	0.075	462811	keystroke	d	n/a
231.4955	0.09	462991	keystroke	Key.enter	n/a
231.591	8.996	463182	prompt	n/a	visits corresponding messages differential\n
232.4855	0.045	464971	keystroke	v	n/a
232.5605	0.075	465121	keystroke	i	n/a
232.6655	0.074	465331	keystroke	s	n/a
232.7555	0.075	465511	keystroke	i	n/a
233.5505	0.075	467101	keystroke	t	n/a
233.7605	0.075	467521	keystroke	s	n/a
233.8645	0.09	467729	keystroke	Key.space	n/a
234.0895	0.091	468179	keystroke	c	n/a
234.2555	0.089	468511	keystroke	o	n/a
234.3755	0.059	468751	keystroke	r	n/a
234.4955	0.12	468991	keystroke	r	n/a
234.6005	0.09	469201	keystroke	e	n/a
234.7655	0.075	469531	keystroke	s	n/a
234.9455	0.075	469891	keystroke	p	n/a
235.1555	0.135	470311	keystroke	o	n/a
235.2305	0.12	470461	keystroke	n	n/a
235.3955	0.134	470791	keystroke	d	n/a
235.9205	0.12	471841	keystroke	i	n/a
235.9805	0.075	471961	keystroke	n	n/a
236.0255	0.089	472051	keystroke	g	n/a
236.1595	0.09	472319	keystroke	Key.space	n/a
236.3555	0.074	472711	keystroke	m	n/a
236.3995	0.06	472799	keystroke	e	n/a
236.5505	0.284	473101	keystroke	s	n/a
237.0455	0.059	474091	keystroke	s	n/a
237.2695	0.12	474539	keystroke	a	n/a
237.4495	0.12	474899	keystroke	g	n/a
237.5255	0.089	475051	keystroke	e	n/a
237.69	0.105	475380	keystroke	s	n/a
237.84	0.105	475680	keystroke	Key.space	n/a
238.35	0.075	476700	keystroke	d	n/a
238.41	0.09	476820	keystroke	i	n/a
238.53	0.105	477060	keystroke	f	n/a
238.68	0.12	477360	keystroke	f	n/a
239.1305	0.15	478261	keystroke	e	n/a
239.2055	0.135	478411	keystroke	r	n/a
239.3555	0.12	478711	keystroke	e	n/a
239.6555	0.1045	479311	keystroke	n	n/a
239.88	0.105	479760	keystroke	t	n/a
240.045	0.09	480090	keystroke	i	n/a
240.15	0.09	480300	keystroke	a	n/a
240.27	0.105	480540	keystroke	l	n/a
240.495	0.09	480990	keystroke	Key.enter	n/a
240.5895	10.8875	481179	prompt	n/a	recorder definitions arrive simulations\n
241.215	0.105	482430	keystroke	r	n/a
241.275	0.105	482550	keystroke	e	n/a
241.47	0.105	482940	keystroke	c	n/a
241.59	0.075	483180	keystroke	o	n/a
241.68	0.06	483360	keystroke	r	n/a
241.815	0.0905	483630	keystroke	d	n/a
241.9805	0.09	483961	keystroke	e	n/a
242.0255	0.09	484051	keystroke	r	n/a
242.1455	0.105	484291	keystroke	Key.space	n/a
242.3555	0.105	484711	keystroke	d	n/a
242.4755	0.09	484951	keystroke	i	n/a
242.5805	0.105	485161	keystroke	e	n/a
242.6705	0.075	485341	keystroke	f	n/a
242.7755	0.12	485551	keystroke	i	n/a
242.8655	0.105	485731	keystroke	n	n/a
242.985	0.105	485970	keystroke	i	n/a
243.12	0.09	486240	keystroke	t	n/a
243.24	0.1205	486480	keystroke	i	n/a
243.3155	0.135	486631	keystroke	o	n/a
243.4655	0.075	486931	keystroke	n	n/a
243.7355	0.015	487471	keystroke	Key.backspace	n/a
243.8405	0.075	487681	keystroke	Key.backspace	n/a
243.9755	0.09	487951	keystroke	Key.backspace	n/a
244.1105	0.075	488221	keystroke	Key.backspace	n/a
244.2305	0.045	488461	keystroke	Key.backspace	n/a
244.3805	0.12	488761	keystroke	Key.backspace	n/a
244.5905	0.0595	489181	keystroke	Key.backspace	n/a
244.71	0.06	489420	keystroke	Key.backspace	n/a
244.83	0.12	489660	keystroke	Key.backspace	n/a
245.085	0.075	490170	keystroke	Key.backspace	n/a
245.46	0.075	490920	keystroke	e	n/a
245.8055	0.06	491611	keystroke	f	n/a
245.9705	0.1195	491941	keystroke	i	n/a
246.18	0.12	492360	keystroke	n	n/a
246.345	0.105	492690	keystroke	i	n/a
246.51	0.06	493020	keystroke	t	n/a
246.63	0.105	493260	keystroke	i	n/a
246.705	0.105	493410	keystroke	o	n/a
246.855	0.075	493710	keystroke	n	n/a
246.975	0.09	493950	keystroke	s	n/a
247.05	0.09	494100	keystroke	Key.space	n/a
247.29	0.0605	494580	keystroke	a	n/a
247.6055	0.045	495211	keystroke	r	n/a
247.7405	0.075	495481	keystroke	r	n/a
247.8755	0.09	495751	keystroke	i	n/a
247.9955	0.105	495991	keystroke	v	n/a
248.0705	0.09	496141	keystroke	e	n/a
248.1605	0.105	496321	keystroke	Key.space	n/a
249.06	0.06	498120	keystroke	s	n/a
250.005	0.12	500010	keystroke	i	n/a
250.065	0.105	500130	keystroke	m	n/a
250.291	0.044	500582	keystroke	u	n/a
250.5605	0.09	501121	keystroke	l	n/a
250.6805	0.105	501361	keystroke	a	n/a
250.8605	0.075	501721	keystroke	t	n/a
250.9655	0.09	501931	keystroke	i	n/a
250.9955	0.105	501991	keystroke	o	n/a
251.1605	0.105	502321	keystroke	n	n/a
251.2505	0.12	502501	keystroke	s	n/a
251.3855	0.09	502771	keystroke	Key.enter	n/a
251.4795	6.8975	502959	prompt	n/a	salad discussing atlas footwear\n
252.15	0.15	504300	keystroke	s	n/a
252.285	0.105	504570	keystroke	a	n/a
252.375	0.105	504750	keystroke	l	n/a
252.45	0.12	504900	keystroke	a	n/a
252.66	0.075	505320	keystroke	d	n/a
252.7955	0.105	505591	keystroke	Key.space	n/a
253.3205	0.09	506641	keystroke	d	n/a
253.4105	0.09	506821	keystroke	i	n/a
253.4855	0.09	506971	keystroke	s	n/a
253.6505	0.075	507301	keystroke	c	n/a
253.8155	0.075	507631	keystroke	u	n/a
253.9205	0.045	507841	keystroke	s	n/a
254.0555	0.09	508111	keystroke	s	n/a
254.1605	0.12	508321	keystroke	i	n/a
254.2355	0.075	508471	keystroke	n	n/a
254.9405	0.09	509881	keystroke	g	n/a
255.0605	0.105	510121	keystroke	Key.space	n/a
255.1505	0.09	510301	keystroke	a	n/a
255.3005	0.075	510601	keystroke	t	n/a
255.4205	0.105	510841	keystroke	l	n/a
255.5105	0.135	511021	keystroke	a	n/a
255.6005	0.135	511201	keystroke	s	n/a
256.38	0.105	512760	keystroke	Key.space	n/a
256.9205	0.06	513841	keystroke	f	n/a
256.9955	0.045	513991	keystroke	o	n/a
257.1455	0.075	514291	keystroke	o	n/a
257.2355	0.09	514471	keystroke	t	n/a
257.4605	0.09	514921	keystroke	w	n/a
257.7905	0.075	515581	keystroke	e	n/a
257.9245	0.166	515849	keystroke	a	n/a
258.0905	0.074	516181	keystroke	r	n/a
258.27	0.105	516540	keystroke	Key.enter	n/a
258.3795	8.8925	516759	prompt	n/a	providence economic newman particle\n
259.0195	0.121	518039	keystroke	p	n/a
259.1555	0.059	518311	keystroke	r	n/a
259.2895	0.091	518579	keystroke	o	n/a
259.4245	0.0755	518849	keystroke	v	n/a
260.31	0.075	520620	keystroke	i	n/a
260.415	0.075	520830	keystroke	d	n/a
260.61	0.075	521220	keystroke	e	n/a
260.715	0.09	521430	keystroke	n	n/a
260.85	0.15	521700	keystroke	c	n/a
260.925	0.135	521850	keystroke	e	n/a
261.075	0.075	522150	keystroke	Key.space	n/a
261.165	0.105	522330	keystroke	e	n/a
261.495	0.15	522990	keystroke	o	n/a
261.9	0.06	523800	keystroke	Key.backspace	n/a
262.005	0.075	524010	keystroke	c	n/a
262.14	0.1955	524280	keystroke	o	n/a
262.26	0.1205	524520	keystroke	n	n/a
262.4255	0.12	524851	keystroke	o	n/a
263.055	0.075	526110	keystroke	m	n/a
263.2205	0.09	526441	keystroke	i	n/a
263.3855	0.09	526771	keystroke	c	n/a
263.5205	0.075	527041	keystroke	Key.space	n/a
263.8055	0.12	527611	keystroke	n	n/a
263.94	0.165	527880	keystroke	e	n/a
264.045	0.09	528090	keystroke	w	n/a
264.3	0.09	528600	keystroke	m	n/a
264.36	0.105	528720	keystroke	a	n/a
264.51	0.06	529020	keystroke	n	n/a
264.645	0.105	529290	keystroke	Key.space	n/a
264.84	0.12	529680	keystroke	p	n/a
264.975	0.1055	529950	keystroke	a	n/a
265.0955	0.12	530191	keystroke	r	n/a
265.3205	0.075	530641	keystroke	t	n/a
265.4105	0.09	530821	keystroke	i	n/a
265.6505	0.045	531301	keystroke	c	n/a
265.9055	0.12	531811	keystroke	l	n/a
266.0105	0.09	532021	keystroke	e	n/a
267.15	0.12	534300	keystroke	Key.enter	n/a
267.277	10.4355	534554	prompt	n/a	savings consumer looks freeware\n
268.1105	0.075	536221	keystroke	s	n/a
268.1255	0.06	536251	keystroke	d	n/a
268.6055	0.06	537211	keystroke	Key.backspace	n/a
268.8455	0.015	537691	keystroke	Key.backspace	n/a
269.4305	0.135	538861	keystroke	s	n/a
269.4905	0.105	538981	keystroke	a	n/a
269.7905	0.06	539581	keystroke	v	n/a
269.9255	0.12	539851	keystroke	i	n/a
270.0005	0.105	540001	keystroke	n	n/a
270.1205	0.06	540241	keystroke	g	n/a
270.8555	0.075	541711	keystroke	a	n/a
270.9155	0.12	541831	keystroke	Key.space	n/a
271.0955	0.105	542191	keystroke	c	n/a
271.1555	0.105	542311	keystroke	o	n/a
271.2155	0.105	542431	keystroke	n	n/a
271.3355	0.06	542671	keystroke	a	n/a
271.4105	0.075	542821	keystroke	u	n/a
272.175	0.045	544350	keystroke	Key.backspace	n/a
272.325	0.075	544650	keystroke	Key.backspace	n/a
272.46	0.09	544920	keystroke	Key.backspace	n/a
272.61	0.075	545220	keystroke	Key.backspace	n/a
272.745	0.06	545490	keystroke	Key.backspace	n/a
272.8805	0.075	545761	keystroke	Key.backspace	n/a
273.435	0.03	546870	keystroke	Key.backspace	n/a
273.645	0.075	547290	keystroke	s	n/a
273.735	0.09	547470	keystroke	Key.space	n/a
273.945	0.075	547890	keystroke	c	n/a
274.275	0.135	548550	keystroke	o	n/a
274.365	0.105	548730	keystroke	n	n/a
274.53	0.0905	549060	keystroke	s	n/a
274.605	0.0595	549210	keystroke	u	n/a
274.7855	0.075	549571	keystroke	m	n/a
274.9205	0.105	549841	keystroke	e	n/a
274.9805	0.105	549961	keystroke	r	n/a
275.0705	0.06	550141	keystroke	Key.space	n/a
275.2055	0.074	550411	keystroke	l	n/a
275.4005	0.045	550801	keystroke	o	n/a
275.5345	0.1655	551069	keystroke	o	n/a
275.6405	0.1045	551281	keystroke	k	n/a
275.775	0.105	551550	keystroke	s	n/a
275.865	0.09	551730	keystroke	Key.space	n/a
276.42	0.09	552840	keystroke	f	n/a
276.63	0.09	553260	keystroke	r	n/a
276.735	0.105	553470	keystroke	e	n/a
276.9	0.105	553800	keystroke	e	n/a
277.11	0.09	554220	keystroke	w	n/a
277.275	0.09	554550	keystroke	a	n/a
277.41	0.12	554820	keystroke	r	n/a
277.5	0.075	555000	keystroke	e	n/a
277.605	0.105	555210	keystroke	Key.enter	n/a
277.7235	6.483	555447	prompt	n/a	started scores subdivision appliances\n
278.3405	0.075	556681	keystroke	s	n/a
278.505	0.09	557010	keystroke	t	n/a
278.61	0.1355	557220	keystroke	a	n/a
278.7305	0.12	557461	keystroke	r	n/a
278.9555	0.105	557911	keystroke	t	n/a
279.0455	0.075	558091	keystroke	e	n/a
279.1805	0.105	558361	keystroke	d	n/a
279.3155	0.12	558631	keystroke	Key.space	n/a
279.3905	0.135	558781	keystroke	a	n/a
279.765	0.09	559530	keystroke	Key.backspace	n/a
279.901	0.104	559802	keystroke	s	n/a
279.96	0.09	559920	keystroke	c	n/a
280.11	0.075	560220	keystroke	o	n/a
280.2	0.0605	560400	keystroke	r	n/a
280.245	0.0905	560490	keystroke	e	n/a
280.4105	0.105	560821	keystroke	s	n/a
280.5305	0.105	561061	keystroke	Key.space	n/a
280.6205	0.09	561241	keystroke	s	n/a
281.0105	0.12	562021	keystroke	u	n/a
281.0855	0.105	562171	keystroke	b	n/a
281.3705	0.0745	562741	keystroke	d	n/a
281.58	0.135	563160	keystroke	i	n/a
281.745	0.075	563490	keystroke	v	n/a
281.835	0.09	563670	keystroke	i	n/a
281.985	0.105	563970	keystroke	s	n/a
282.105	0.105	564210	keystroke	i	n/a
282.165	0.12	564330	keystroke	o	n/a
282.315	0.105	564630	keystroke	n	n/a
282.45	0.09	564900	keystroke	Key.space	n/a
282.87	0.105	565740	keystroke	a	n/a
282.99	0.075	565980	keystroke	p	n/a
283.14	0.135	566280	keystroke	p	n/a
283.26	0.09	566520	keystroke	l	n/a
283.485	0.06	566970	keystroke	i	n/a
283.56	0.09	567120	keystroke	a	n/a
283.7105	0.09	567421	keystroke	n	n/a
283.8155	0.09	567631	keystroke	c	n/a
283.8455	0.075	567691	keystroke	e	n/a
284.0105	0.09	568021	keystroke	s	n/a
284.1155	0.09	568231	keystroke	Key.enter	n/a
284.2095	7.4675	568419	prompt	n/a	accessible screening magnet center\n
284.9855	0.135	569971	keystroke	a	n/a
285.1055	0.09	570211	keystroke	c	n/a
285.2555	0.105	570511	keystroke	c	n/a
285.4205	0.0895	570841	keystroke	e	n/a
285.6	0.06	571200	keystroke	s	n/a
285.72	0.12	571440	keystroke	s	n/a
287.0855	0.09	574171	keystroke	i	n/a
287.2355	0.075	574471	keystroke	b	n/a
287.3555	0.09	574711	keystroke	l	n/a
287.4455	0.09	574891	keystroke	e	n/a
287.5655	0.12	575131	keystroke	Key.space	n/a
287.8505	0.15	575701	keystroke	s	n/a
287.9855	0.075	575971	keystroke	c	n/a
288.1955	0.0745	576391	keystroke	r	n/a
288.255	0.06	576510	keystroke	e	n/a
288.39	0.075	576780	keystroke	e	n/a
288.495	0.105	576990	keystroke	n	n/a
288.645	0.135	577290	keystroke	i	n/a
288.705	0.09	577410	keystroke	n	n/a
288.765	0.105	577530	keystroke	g	n/a
288.915	0.06	577830	keystroke	Key.space	n/a
289.11	0.06	578220	keystroke	m	n/a
289.185	0.075	578370	keystroke	a	n/a
289.815	0.075	579630	keystroke	g	n/a
290.055	0.06	580110	keystroke	n	n/a
290.19	0.09	580380	keystroke	e	n/a
290.235	0.09	580470	keystroke	t	n/a
290.355	0.075	580710	keystroke	Key.space	n/a
290.9855	0.12	581971	keystroke	c	n/a
291.0905	0.09	582181	keystroke	e	n/a
291.2105	0.09	582421	keystroke	n	n/a
291.2705	0.09	582541	keystroke	t	n/a
291.4205	0.09	582841	keystroke	e	n/a
291.4805	0.075	582961	keystroke	r	n/a
291.5855	0.0895	583171	keystroke	Key.enter	n/a
291.6795	15.1025	583359	prompt	n/a	brunei classics puerto equal\n
292.65	0.105	585300	keystroke	b	n/a
292.71	0.105	585420	keystroke	u	n/a
292.86	0.09	585720	keystroke	r	n/a
293.505	0.09	587010	keystroke	n	n/a
293.61	0.0905	587220	keystroke	e	n/a
293.7155	0.09	587431	keystroke	i	n/a
293.9395	0.075	587879	keystroke	Key.space	n/a
294.975	0.105	589950	keystroke	c	n/a
295.065	0.09	590130	keystroke	l	n/a
295.14	0.135	590280	keystroke	a	n/a
295.335	0.105	590670	keystroke	s	n/a
295.5	0.135	591000	keystroke	s	n/a
295.695	0.105	591390	keystroke	i	n/a
295.86	0.15	591720	keystroke	c	n/a
295.981	0.089	591962	keystroke	a	n/a
296.4	0.1055	592800	keystroke	Key.backspace	n/a
296.7005	0.075	593401	keystroke	s	n/a
296.8505	0.105	593701	keystroke	Key.space	n/a
297.3305	0.075	594661	keystroke	p	n/a
297.6155	0.045	595231	keystroke	u	n/a
297.96	0.15	595920	keystroke	r	n/a
298.05	0.075	596100	keystroke	t	n/a
298.215	0.12	596430	keystroke	o	n/a
298.5	0.09	597000	keystroke	Key.space	n/a
298.98	0.15	597960	keystroke	e	n/a
299.04	0.105	598080	keystroke	q	n/a
299.115	0.09	598230	keystroke	u	n/a
299.355	0.09	598710	keystroke	a	n/a
299.505	0.06	599010	keystroke	l	n/a
300.5255	0.09	601051	keystroke	Key.backspace	n/a
300.6905	0.06	601381	keystroke	Key.backspace	n/a
300.8255	0.09	601651	keystroke	Key.backspace	n/a
300.9755	0.06	601951	keystroke	Key.backspace	n/a
301.0955	0.06	602191	keystroke	Key.backspace	n/a
301.2155	0.075	602431	keystroke	Key.backspace	n/a
301.3355	0.06	602671	keystroke	Key.backspace	n/a
301.4105	0.09	602821	keystroke	Key.backspace	n/a
301.5455	0.09	603091	keystroke	Key.backspace	n/a
302.0555	0.075	604111	keystroke	Key.backspace	n/a
303.1205	0.075	606241	keystroke	u	n/a
303.2255	0.089	606451	keystroke	e	n/a
303.5855	0.15	607171	keystroke	r	n/a
303.7055	0.105	607411	keystroke	t	n/a
303.8705	0.075	607741	keystroke	o	n/a
304.1245	0.091	608249	keystroke	Key.space	n/a
304.3795	0.091	608759	keystroke	e	n/a
305.0995	0.1055	610199	keystroke	q	n/a
305.22	0.06	610440	keystroke	u	n/a
305.37	0.09	610740	keystroke	a	n/a
305.475	0.075	610950	keystroke	l	n/a
306.7045	0.075	613409	keystroke	Key.enter	n/a
306.793	10.7585	613586	prompt	n/a	designer flight street journalist\n
307.6345	0.09	615269	keystroke	s	n/a
308.0255	0.09	616051	keystroke	Key.backspace	n/a
309.8695	0.09	619739	keystroke	d	n/a
310.0795	0.135	620159	keystroke	e	n/a
310.1695	0.135	620339	keystroke	s	n/a
310.3345	0.09	620669	keystroke	i	n/a
310.5745	0.045	621149	keystroke	g	n/a
311.2955	0.09	622591	keystroke	n	n/a
311.4005	0.1195	622801	keystroke	e	n/a
311.46	0.09	622920	keystroke	r	n/a
311.551	0.104	623102	keystroke	Key.space	n/a
312.345	0.0755	624690	keystroke	f	n/a
312.4355	0.075	624871	keystroke	l	n/a
312.6455	0.09	625291	keystroke	i	n/a
312.795	0.09	625590	keystroke	g	n/a
312.945	0.105	625890	keystroke	h	n/a
313.05	0.075	626100	keystroke	t	n/a
313.275	0.105	626550	keystroke	Key.space	n/a
314.235	0.105	628470	keystroke	s	n/a
314.49	0.15	628980	keystroke	t	n/a
314.535	0.15	629070	keystroke	r	n/a
314.655	0.105	629310	keystroke	e	n/a
314.805	0.15	629610	keystroke	e	n/a
314.925	0.12	629850	keystroke	t	n/a
315.09	0.105	630180	keystroke	Key.space	n/a
315.6755	0.105	631351	keystroke	j	n/a
315.7655	0.135	631531	keystroke	o	n/a
315.8855	0.09	631771	keystroke	u	n/a
316.0505	0.105	632101	keystroke	r	n/a
316.1855	0.105	632371	keystroke	n	n/a
316.3355	0.105	632671	keystroke	a	n/a
316.9505	0.06	633901	keystroke	l	n/a
317.1755	0.03	634351	keystroke	i	n/a
317.2205	0.1195	634441	keystroke	s	n/a
317.295	0.09	634590	keystroke	t	n/a
317.475	0.075	634950	keystroke	Key.enter	n/a
317.557	11.7405	635114	prompt	n/a	producing cartridges george necessity\n
319.1555	0.075	638311	keystroke	p	n/a
319.2905	0.06	638581	keystroke	r	n/a
319.3655	0.075	638731	keystroke	o	n/a
319.5155	0.105	639031	keystroke	d	n/a
319.6055	0.09	639211	keystroke	u	n/a
319.7405	0.06	639481	keystroke	c	n/a
319.9055	0.15	639811	keystroke	i	n/a
319.9805	0.09	639961	keystroke	n	n/a
320.0405	0.105	640081	keystroke	g	n/a
320.1605	0.105	640321	keystroke	Key.space	n/a
320.8205	0.12	641641	keystroke	c	n/a
320.9095	0.105	641819	keystroke	a	n/a
321.0445	0.105	642089	keystroke	r	n/a
321.2545	0.075	642509	keystroke	t	n/a
321.6145	0.0755	643229	keystroke	r	n/a
321.78	0.075	643560	keystroke	i	n/a
322.3645	0.075	644729	keystroke	d	n/a
323.325	0.09	646650	keystroke	g	n/a
323.655	0.0755	647310	keystroke	e	n/a
323.82	0.105	647640	keystroke	s	n/a
323.91	0.105	647820	keystroke	Key.space	n/a
325.005	0.135	650010	keystroke	g	n/a
325.155	0.12	650310	keystroke	e	n/a
325.305	0.09	650610	keystroke	o	n/a
325.44	0.09	650880	keystroke	r	n/a
325.5	0.12	651000	keystroke	g	n/a
325.665	0.1055	651330	keystroke	e	n/a
325.7855	0.09	651571	keystroke	Key.space	n/a
325.9805	0.09	651961	keystroke	n	n/a
326.0255	0.105	652051	keystroke	e	n/a
326.2055	0.06	652411	keystroke	x	n/a
326.3705	0.0895	652741	keystroke	e	n/a
326.73	0.075	653460	keystroke	Key.backspace	n/a
327.24	0.0905	654480	keystroke	Key.backspace	n/a
327.3905	0.12	654781	keystroke	c	n/a
327.4655	0.09	654931	keystroke	e	n/a
328.4405	0.075	656881	keystroke	s	n/a
328.6055	0.075	657211	keystroke	s	n/a
328.8305	0.09	657661	keystroke	i	n/a
329.0555	0.075	658111	keystroke	t	n/a
329.1005	0.075	658201	keystroke	y	n/a
329.1755	0.12	658351	keystroke	Key.enter	n/a
329.3095	5.312	658619	prompt	n/a	tracks colin every houston\n
330.1055	0.09	660211	keystroke	t	n/a
330.1355	0.105	660271	keystroke	r	n/a
330.3455	0.12	660691	keystroke	a	n/a
330.4205	0.1195	660841	keystroke	c	n/a
330.51	0.09	661020	keystroke	k	n/a
330.615	0.09	661230	keystroke	s	n/a
330.72	0.105	661440	keystroke	Key.space	n/a
330.855	0.105	661710	keystroke	c	n/a
330.945	0.075	661890	keystroke	o	n/a
331.125	0.045	662250	keystroke	l	n/a
331.305	0.09	662610	keystroke	i	n/a
331.35	0.105	662700	keystroke	n	n/a
331.44	0.06	662880	keystroke	Key.space	n/a
331.62	0.12	663240	keystroke	e	n/a
331.71	0.09	663420	keystroke	v	n/a
331.89	0.105	663780	keystroke	e	n/a
331.95	0.09	663900	keystroke	r	n/a
332.16	0.06	664320	keystroke	y	n/a
332.235	0.105	664470	keystroke	Key.space	n/a
332.445	0.09	664890	keystroke	h	n/a
332.565	0.165	665130	keystroke	o	n/a
332.64	0.105	665280	keystroke	u	n/a
332.746	0.119	665492	keystroke	s	n/a
332.82	0.12	665640	keystroke	t	n/a
333.18	0.1055	666360	keystroke	a	n/a
333.3005	0.105	666601	keystroke	n	n/a
334.5155	0.1045	669031	keystroke	Key.enter	n/a
334.6245	7.737	669249	prompt	n/a	presenting twelve jefferson ladder\n
335.55	0.105	671100	keystroke	p	n/a
335.625	0.1355	671250	keystroke	r	n/a
335.6855	0.135	671371	keystroke	e	n/a
335.8955	0.105	671791	keystroke	s	n/a
336.1205	0.075	672241	keystroke	e	n/a
336.2555	0.135	672511	keystroke	n	n/a
336.4655	0.105	672931	keystroke	t	n/a
336.6755	0.12	673351	keystroke	i	n/a
336.7205	0.09	673441	keystroke	n	n/a
336.7805	0.09	673561	keystroke	g	n/a
336.9005	0.104	673801	keystroke	Key.space	n/a
337.1855	0.104	674371	keystroke	t	n/a
337.38	0.09	674760	keystroke	w	n/a
337.635	0.105	675270	keystroke	e	n/a
337.77	0.09	675540	keystroke	l	n/a
338.115	0.18	676230	keystroke	c	n/a
338.205	0.135	676410	keystroke	e	n/a
338.341	0.089	676682	keystroke	Key.space	n/a
338.58	0.075	677160	keystroke	j	n/a
338.97	0.12	677940	keystroke	e	n/a
339.045	0.075	678090	keystroke	f	n/a
339.195	0.09	678390	keystroke	f	n/a
339.36	0.105	678720	keystroke	e	n/a
339.42	0.105	678840	keystroke	r	n/a
339.555	0.105	679110	keystroke	s	n/a
339.675	0.09	679350	keystroke	o	n/a
339.72	0.09	679440	keystroke	n	n/a
339.915	0.09	679830	keystroke	Key.space	n/a
340.065	0.075	680130	keystroke	t	n/a
340.4545	0.046	680909	keystroke	Key.backspace	n/a
340.6355	0.105	681271	keystroke	l	n/a
340.7555	0.105	681511	keystroke	a	n/a
341.58	0.075	683160	keystroke	d	n/a
341.7	0.105	683400	keystroke	d	n/a
342.12	0.12	684240	keystroke	e	n/a
342.165	0.105	684330	keystroke	r	n/a
342.255	0.105	684510	keystroke	Key.enter	n/a
342.365	7.2865	684730	prompt	n/a	rated gentle promoting christopher\n
343.0795	0.12	686159	keystroke	r	n/a
343.1545	0.06	686309	keystroke	e	n/a
343.3195	0.12	686639	keystroke	a	n/a
343.6045	0.06	687209	keystroke	Key.backspace	n/a
343.7545	0.075	687509	keystroke	Key.backspace	n/a
344.0695	0.121	688139	keystroke	a	n/a
344.2195	0.136	688439	keystroke	t	n/a
344.3395	0.09	688679	keystroke	e	n/a
344.5045	0.09	689009	keystroke	d	n/a
344.6245	0.09	689249	keystroke	Key.space	n/a
345.1795	0.106	690359	keystroke	g	n/a
345.2545	0.136	690509	keystroke	e	n/a
345.3745	0.075	690749	keystroke	n	n/a
345.4645	0.075	690929	keystroke	t	n/a
345.5545	0.09	691109	keystroke	l	n/a
345.675	0.09	691350	keystroke	e	n/a
345.75	0.105	691500	keystroke	Key.space	n/a
346.2	0.105	692400	keystroke	p	n/a
346.32	0.06	692640	keystroke	r	n/a
346.44	0.075	692880	keystroke	o	n/a
346.5	0.12	693000	keystroke	m	n/a
346.635	0.06	693270	keystroke	o	n/a
346.755	0.075	693510	keystroke	t	n/a
346.8895	0.12	693779	keystroke	i	n/a
346.9495	0.09	693899	keystroke	n	n/a
347.0245	0.06	694049	keystroke	g	n/a
347.1145	0.105	694229	keystroke	Key.space	n/a
347.8645	0.09	695729	keystroke	c	n/a
347.9395	0.1205	695879	keystroke	h	n/a
348.2255	0.015	696451	keystroke	r	n/a
348.3755	0.075	696751	keystroke	i	n/a
348.4805	0.105	696961	keystroke	s	n/a
348.6605	0.075	697321	keystroke	t	n/a
348.8405	0.12	697681	keystroke	o	n/a
348.9005	0.12	697801	keystroke	p	n/a
349.1405	0.075	698281	keystroke	h	n/a
349.3355	0.105	698671	keystroke	e	n/a
349.3805	0.105	698761	keystroke	r	n/a
349.5605	0.09	699121	keystroke	Key.enter	n/a
349.654	6.748	699308	prompt	n/a	scotia before prices helps\n
350.4005	0.135	700801	keystroke	s	n/a
350.4755	0.105	700951	keystroke	c	n/a
350.5955	0.105	701191	keystroke	o	n/a
350.7305	0.09	701461	keystroke	t	n/a
350.8655	0.06	701731	keystroke	i	n/a
350.9405	0.105	701881	keystroke	a	n/a
351.0905	0.075	702181	keystroke	Key.space	n/a
351.3455	0.075	702691	keystroke	b	n/a
351.4655	0.12	702931	keystroke	e	n/a
351.5555	0.09	703111	keystroke	f	n/a
351.7205	0.12	703441	keystroke	o	n/a
351.8255	0.135	703651	keystroke	r	n/a
351.9155	0.12	703831	keystroke	e	n/a
352.0055	0.09	704011	keystroke	Key.space	n/a
352.2455	0.075	704491	keystroke	p	n/a
352.3055	0.075	704611	keystroke	r	n/a
352.5305	0.12	705061	keystroke	c	n/a
352.6055	0.105	705211	keystroke	e	n/a
352.7855	0.135	705571	keystroke	s	n/a
353.175	0.075	706350	keystroke	Key.backspace	n/a
353.325	0.06	706650	keystroke	Key.backspace	n/a
353.46	0.105	706920	keystroke	Key.backspace	n/a
353.58	0.12	707160	keystroke	Key.backspace	n/a
353.79	0.09	707580	keystroke	Key.backspace	n/a
354.345	0.105	708690	keystroke	p	n/a
354.465	0.06	708930	keystroke	r	n/a
354.585	0.075	709170	keystroke	i	n/a
354.675	0.135	709350	keystroke	c	n/a
354.765	0.075	709530	keystroke	e	n/a
354.915	0.12	709830	keystroke	s	n/a
355.02	0.0905	710040	keystroke	Key.space	n/a
355.6205	0.09	711241	keystroke	h	n/a
355.7105	0.09	711421	keystroke	e	n/a
355.9055	0.21	711811	keystroke	l	n/a
356.0405	0.12	712081	keystroke	p	n/a
356.1755	0.09	712351	keystroke	s	n/a
356.2955	0.1045	712591	keystroke	Key.enter	n/a
356.4045	7.4375	712809	prompt	n/a	short subscription relation properties\n
357.105	0.06	714210	keystroke	s	n/a
357.195	0.12	714390	keystroke	h	n/a
357.285	0.09	714570	keystroke	o	n/a
357.405	0.12	714810	keystroke	r	n/a
357.465	0.105	714930	keystroke	t	n/a
357.54	0.105	715080	keystroke	Key.space	n/a
357.675	0.105	715350	keystroke	s	n/a
357.795	0.135	715590	keystroke	u	n/a
357.87	0.105	715740	keystroke	b	n/a
358.08	0.12	716160	keystroke	s	n/a
358.155	0.1055	716310	keystroke	c	n/a
358.5455	0.075	717091	keystroke	r	n/a
358.6805	0.105	717361	keystroke	i	n/a
359.3405	0.09	718681	keystroke	p	n/a
359.79	0.06	719580	keystroke	t	n/a
359.881	0.105	719762	keystroke	i	n/a
359.926	0.09	719852	keystroke	o	n/a
360.15	0.106	720300	keystroke	n	n/a
360.24	0.075	720480	keystroke	Key.space	n/a
360.5405	0.105	721081	keystroke	r	n/a
360.5855	0.105	721171	keystroke	e	n/a
360.7055	0.0895	721411	keystroke	l	n/a
360.751	0.089	721502	keystroke	a	n/a
360.916	0.044	721832	keystroke	t	n/a
360.975	0.105	721950	keystroke	i	n/a
361.035	0.105	722070	keystroke	o	n/a
361.17	0.09	722340	keystroke	n	n/a
361.29	0.09	722580	keystroke	Key.space	n/a
361.6205	0.105	723241	keystroke	p	n/a
361.7405	0.09	723481	keystroke	r	n/a
361.9205	0.135	723841	keystroke	o	n/a
362.0705	0.045	724141	keystroke	p	n/a
362.2655	0.15	724531	keystroke	e	n/a
362.3405	0.15	724681	keystroke	r	n/a
363.165	0.09	726330	keystroke	t	n/a
363.405	0.075	726810	keystroke	i	n/a
363.481	0.074	726962	keystroke	e	n/a
363.63	0.12	727260	keystroke	s	n/a
363.765	0.075	727530	keystroke	Key.enter	n/a
363.8445	5.1125	727689	prompt	n/a	depending parker packs belle\n
364.53	0.09	729060	keystroke	d	n/a
364.7255	0.06	729451	keystroke	e	n/a
364.8005	0.105	729601	keystroke	p	n/a
364.8605	0.105	729721	keystroke	e	n/a
365.0255	0.09	730051	keystroke	n	n/a
365.1005	0.09	730201	keystroke	d	n/a
365.2205	0.105	730441	keystroke	i	n/a
365.2805	0.075	730561	keystroke	n	n/a
365.3405	0.09	730681	keystroke	g	n/a
365.4455	0.075	730891	keystroke	Key.space	n/a
365.6255	0.0745	731251	keystroke	p	n/a
365.67	0.135	731340	keystroke	a	n/a
365.895	0.076	731790	keystroke	r	n/a
366.001	0.105	732002	keystroke	k	n/a
366.511	0.12	733022	keystroke	e	n/a
366.571	0.09	733142	keystroke	r	n/a
366.706	0.09	733412	keystroke	Key.space	n/a
366.886	0.09	733772	keystroke	p	n/a
366.961	0.12	733922	keystroke	a	n/a
367.036	0.12	734072	keystroke	c	n/a
367.126	0.089	734252	keystroke	k	n/a
367.276	0.09	734552	keystroke	s	n/a
367.425	0.105	734850	keystroke	Key.space	n/a
368.0255	0.105	736051	keystroke	b	n/a
368.2955	0.105	736591	keystroke	e	n/a
368.4605	0.075	736921	keystroke	l	n/a
368.5955	0.0895	737191	keystroke	l	n/a
368.715	0.09	737430	keystroke	e	n/a
368.865	0.09	737730	keystroke	Key.enter	n/a
368.962	6.2955	737924	prompt	n/a	powerpoint going mastercard vertex\n
369.6755	0.165	739351	keystroke	p	n/a
369.7655	0.105	739531	keystroke	o	n/a
370.0055	0.1205	740011	keystroke	w	n/a
370.05	0.106	740100	keystroke	e	n/a
370.261	0.075	740522	keystroke	r	n/a
370.426	0.149	740852	keystroke	p	n/a
370.515	0.121	741030	keystroke	o	n/a
370.77	0.151	741540	keystroke	i	n/a
370.86	0.091	741720	keystroke	n	n/a
370.965	0.075	741930	keystroke	t	n/a
371.056	0.104	742112	keystroke	Key.space	n/a
371.6855	0.075	743371	keystroke	g	n/a
371.7905	0.12	743581	keystroke	o	n/a
372.0155	0.105	744031	keystroke	i	n/a
372.0605	0.075	744121	keystroke	n	n/a
372.1505	0.06	744301	keystroke	g	n/a
372.2255	0.09	744451	keystroke	Key.space	n/a
372.42	0.091	744840	keystroke	m	n/a
372.48	0.1505	744960	keystroke	a	n/a
372.5705	0.1055	745141	keystroke	s	n/a
372.7655	0.105	745531	keystroke	t	n/a
372.9005	0.135	745801	keystroke	e	n/a
372.9905	0.06	745981	keystroke	r	n/a
373.186	0.1195	746372	keystroke	c	n/a
373.291	0.1195	746582	keystroke	a	n/a
373.4705	0.075	746941	keystroke	r	n/a
373.6355	0.09	747271	keystroke	d	n/a
373.7705	0.105	747541	keystroke	Key.space	n/a
374.236	0.09	748472	keystroke	v	n/a
374.431	0.105	748862	keystroke	e	n/a
374.491	0.075	748982	keystroke	r	n/a
374.656	0.09	749312	keystroke	t	n/a
374.761	0.075	749522	keystroke	e	n/a
375.001	0.0895	750002	keystroke	x	n/a
375.1355	0.12	750271	keystroke	Key.enter	n/a
375.2655	10.042	750531	prompt	n/a	mapping cartridges expansion adidas\n
375.9605	0.105	751921	keystroke	m	n/a
376.0805	0.075	752161	keystroke	a	n/a
376.1705	0.045	752341	keystroke	p	n/a
376.3055	0.075	752611	keystroke	p	n/a
376.5605	0.09	753121	keystroke	i	n/a
376.6055	0.075	753211	keystroke	n	n/a
376.6655	0.09	753331	keystroke	g	n/a
376.7855	0.1055	753571	keystroke	Key.space	n/a
377.146	0.105	754292	keystroke	c	n/a
377.266	0.12	754532	keystroke	a	n/a
377.401	0.075	754802	keystroke	r	n/a
377.596	0.0895	755192	keystroke	t	n/a
378.9615	0.059	757923	keystroke	i	n/a
380.311	0.105	760622	keystroke	Key.backspace	n/a
380.851	0.045	761702	keystroke	r	n/a
380.926	0.0895	761852	keystroke	i	n/a
381.0305	0.0605	762061	keystroke	d	n/a
381.211	0.09	762422	keystroke	g	n/a
381.316	0.075	762632	keystroke	e	n/a
381.481	0.135	762962	keystroke	s	n/a
381.601	0.09	763202	keystroke	Key.space	n/a
381.901	0.06	763802	keystroke	e	n/a
382.081	0.09	764162	keystroke	x	n/a
382.201	0.105	764402	keystroke	p	n/a
382.291	0.0895	764582	keystroke	a	n/a
382.4255	0.075	764851	keystroke	n	n/a
382.6805	0.09	765361	keystroke	s	n/a
382.8155	0.165	765631	keystroke	i	n/a
382.8905	0.1055	765781	keystroke	o	n/a
383.806	0.09	767612	keystroke	n	n/a
383.896	0.075	767792	keystroke	Key.space	n/a
384.151	0.105	768302	keystroke	a	n/a
384.226	0.105	768452	keystroke	d	n/a
384.526	0.075	769052	keystroke	i	n/a
384.586	0.06	769172	keystroke	d	n/a
385.021	0.12	770042	keystroke	a	n/a
385.081	0.105	770162	keystroke	s	n/a
385.201	0.105	770402	keystroke	Key.enter	n/a
385.3195	4.728	770639	prompt	n/a	occur ship theme provider\n
386.296	0.075	772592	keystroke	o	n/a
386.401	0.045	772802	keystroke	c	n/a
386.521	0.09	773042	keystroke	c	n/a
386.7605	0.075	773521	keystroke	u	n/a
386.8505	0.075	773701	keystroke	r	n/a
387.0155	0.045	774031	keystroke	Key.space	n/a
387.1205	0.105	774241	keystroke	s	n/a
387.2105	0.09	774421	keystroke	h	n/a
387.2555	0.09	774511	keystroke	i	n/a
387.4805	0.09	774961	keystroke	p	n/a
387.5855	0.12	775171	keystroke	Key.space	n/a
387.8405	0.09	775681	keystroke	t	n/a
387.9005	0.075	775801	keystroke	h	n/a
388.0655	0.06	776131	keystroke	e	n/a
388.1855	0.09	776371	keystroke	m	n/a
388.2305	0.09	776461	keystroke	e	n/a
388.3805	0.09	776761	keystroke	Key.space	n/a
388.5605	0.09	777121	keystroke	p	n/a
388.6205	0.0755	777241	keystroke	r	n/a
388.756	0.074	777512	keystroke	o	n/a
388.951	0.074	777902	keystroke	v	n/a
389.041	0.09	778082	keystroke	i	n/a
389.176	0.0895	778352	keystroke	d	n/a
389.3555	0.075	778711	keystroke	e	n/a
389.5205	0.09	779041	keystroke	r	n/a
389.9405	0.105	779881	keystroke	Key.enter	n/a
390.05	6.507	780100	prompt	n/a	maps gale save touched\n
390.736	0.105	781472	keystroke	m	n/a
390.856	0.09	781712	keystroke	a	n/a
390.931	0.09	781862	keystroke	p	n/a
391.051	0.09	782102	keystroke	s	n/a
391.156	0.09	782312	keystroke	Key.space	n/a
392.5505	0.09	785101	keystroke	g	n/a
392.6705	0.12	785341	keystroke	a	n/a
392.8355	0.075	785671	keystroke	l	n/a
392.8955	0.075	785791	keystroke	e	n/a
393.075	0.09	786150	keystroke	s	n/a
393.226	0.075	786452	keystroke	Key.space	n/a
393.601	0.03	787202	keystroke	Key.backspace	n/a
393.721	0.09	787442	keystroke	Key.backspace	n/a
393.826	0.09	787652	keystroke	Key.space	n/a
394.171	0.15	788342	keystroke	s	n/a
394.306	0.105	788612	keystroke	a	n/a
394.471	0.1345	788942	keystroke	v	n/a
394.5905	0.105	789181	keystroke	e	n/a
395.3855	0.09	790771	keystroke	Key.space	n/a
395.5505	0.09	791101	keystroke	t	n/a
395.6255	0.12	791251	keystroke	o	n/a
395.7305	0.09	791461	keystroke	u	n/a
395.7905	0.12	791581	keystroke	c	n/a
395.9405	0.075	791881	keystroke	h	n/a
396.0005	0.075	792001	keystroke	e	n/a
396.1805	0.075	792361	keystroke	d	n/a
396.4805	0.075	792961	keystroke	Key.enter	n/a
396.5615	10.346	793123	prompt	n/a	armor hosting applicant downloadable\n
397.2455	0.105	794491	keystroke	a	n/a
397.4405	0.06	794881	keystroke	r	n/a
397.5455	0.075	795091	keystroke	m	n/a
397.6655	0.105	795331	keystroke	o	n/a
397.785	0.076	795570	keystroke	r	n/a
397.891	0.06	795782	keystroke	Key.space	n/a
398.221	0.075	796442	keystroke	h	n/a
398.281	0.105	796562	keystroke	o	n/a
398.401	0.075	796802	keystroke	s	n/a
398.581	0.045	797162	keystroke	t	n/a
399.3455	0.105	798691	keystroke	i	n/a
399.4055	0.075	798811	keystroke	n	n/a
399.4355	0.075	798871	keystroke	g	n/a
399.5555	0.105	799111	keystroke	Key.space	n/a
400.5455	0.105	801091	keystroke	a	n/a
400.6655	0.09	801331	keystroke	p	n/a
400.8305	0.105	801661	keystroke	p	n/a
401.0255	0.09	802051	keystroke	l	n/a
401.2355	0.06	802471	keystroke	i	n/a
401.3255	0.1055	802651	keystroke	c	n/a
401.401	0.075	802802	keystroke	a	n/a
401.596	0.03	803192	keystroke	t	n/a
401.656	0.1045	803312	keystroke	n	n/a
401.8655	0.09	803731	keystroke	Key.space	n/a
402.376	0.075	804752	keystroke	Key.backspace	n/a
402.526	0.075	805052	keystroke	Key.backspace	n/a
402.631	0.075	805262	keystroke	Key.backspace	n/a
402.9905	0.09	805981	keystroke	n	n/a
403.0955	0.075	806191	keystroke	t	n/a
403.2155	0.105	806431	keystroke	Key.space	n/a
403.951	0.06	807902	keystroke	d	n/a
404.011	0.105	808022	keystroke	o	n/a
404.131	0.075	808262	keystroke	w	n/a
404.191	0.105	808382	keystroke	n	n/a
404.356	0.06	808712	keystroke	l	n/a
404.521	0.105	809042	keystroke	o	n/a
404.641	0.105	809282	keystroke	a	n/a
404.701	0.105	809402	keystroke	d	n/a
404.896	0.09	809792	keystroke	e	n/a
406.0655	0.06	812131	keystroke	Key.backspace	n/a
406.2305	0.09	812461	keystroke	a	n/a
406.3955	0.075	812791	keystroke	b	n/a
406.5605	0.105	813121	keystroke	l	n/a
406.6805	0.075	813361	keystroke	e	n/a
406.8155	0.09	813631	keystroke	Key.enter	n/a
406.91	8.877	813820	prompt	n/a	cabinets england accreditation talent\n
407.701	0.09	815402	keystroke	c	n/a
407.746	0.09	815492	keystroke	a	n/a
408.031	0.09	816062	keystroke	b	n/a
408.106	0.15	816212	keystroke	i	n/a
408.241	0.105	816482	keystroke	n	n/a
408.331	0.105	816662	keystroke	e	n/a
408.481	0.03	816962	keystroke	n	n/a
408.526	0.075	817052	keystroke	t	n/a
408.991	0.075	817982	keystroke	Key.backspace	n/a
409.126	0.075	818252	keystroke	Key.backspace	n/a
411.046	0.105	822092	keystroke	t	n/a
411.271	0.075	822542	keystroke	s	n/a
411.361	0.09	822722	keystroke	Key.space	n/a
411.496	0.12	822992	keystroke	e	n/a
411.601	0.075	823202	keystroke	n	n/a
411.706	0.09	823412	keystroke	g	n/a
411.826	0.09	823652	keystroke	l	n/a
411.931	0.09	823862	keystroke	a	n/a
412.036	0.075	824072	keystroke	n	n/a
412.171	0.1345	824342	keystroke	d	n/a
412.3205	0.105	824641	keystroke	Key.space	n/a
412.7555	0.135	825511	keystroke	a	n/a
412.9055	0.1495	825811	keystroke	c	n/a
413.13	0.105	826260	keystroke	c	n/a
413.355	0.091	826710	keystroke	r	n/a
413.4	0.09	826800	keystroke	e	n/a
413.595	0.0755	827190	keystroke	d	n/a
413.7005	0.075	827401	keystroke	i	n/a
413.8205	0.12	827641	keystroke	a	n/a
413.9705	0.09	827941	keystroke	t	n/a
414.1355	0.12	828271	keystroke	i	n/a
414.1955	0.12	828391	keystroke	o	n/a
414.3605	0.105	828721	keystroke	n	n/a
414.5555	0.12	829111	keystroke	Key.space	n/a
414.8855	0.09	829771	keystroke	t	n/a
415.0055	0.09	830011	keystroke	a	n/a
415.0655	0.105	830131	keystroke	l	n/a
415.2005	0.09	830401	keystroke	e	n/a
415.2755	0.12	830551	keystroke	n	n/a
415.3805	0.075	830761	keystroke	t	n/a
415.6955	0.09	831391	keystroke	Key.enter	n/a
415.7905	9.597	831581	prompt	n/a	suits refresh subsidiaries times\n
416.581	0.104	833162	keystroke	s	n/a
416.7	0.075	833400	keystroke	u	n/a
416.761	0.074	833522	keystroke	i	n/a
416.851	0.089	833702	keystroke	t	n/a
416.985	0.135	833970	keystroke	s	n/a
417.075	0.075	834150	keystroke	Key.space	n/a
417.255	0.12	834510	keystroke	r	n/a
417.346	0.104	834692	keystroke	e	n/a
417.63	0.076	835260	keystroke	f	n/a
418.4555	0.105	836911	keystroke	r	n/a
418.5005	0.09	837001	keystroke	e	n/a
418.6955	0.09	837391	keystroke	s	n/a
418.8005	0.075	837601	keystroke	h	n/a
419.0705	0.09	838141	keystroke	Key.space	n/a
419.7005	0.075	839401	keystroke	s	n/a
419.8355	0.15	839671	keystroke	u	n/a
419.9105	0.12	839821	keystroke	b	n/a
420.1055	0.105	840211	keystroke	s	n/a
420.3605	0.09	840721	keystroke	i	n/a
420.4655	0.135	840931	keystroke	d	n/a
421.6205	0.06	843241	keystroke	i	n/a
421.8305	0.12	843661	keystroke	a	n/a
422.0555	0.135	844111	keystroke	r	n/a
422.1605	0.12	844321	keystroke	e	n/a
423.285	0.09	846570	keystroke	Key.backspace	n/a
424.3505	0.09	848701	keystroke	i	n/a
424.4555	0.045	848911	keystroke	e	n/a
424.5755	0.09	849151	keystroke	s	n/a
424.7105	0.075	849421	keystroke	Key.space	n/a
424.7865	0.074	849573	keystroke	t	n/a
424.9055	0.1345	849811	keystroke	i	n/a
424.9505	0.12	849901	keystroke	m	n/a
425.0555	0.045	850111	keystroke	e	n/a
425.1605	0.105	850321	keystroke	s	n/a
425.3255	0.06	850651	keystroke	Key.enter	n/a
425.3985	11.044	850797	prompt	n/a	poison kidney resistant expansion\n
426.196	0.1795	852392	keystroke	p	n/a
426.256	0.1645	852512	keystroke	o	n/a
426.5405	0.09	853081	keystroke	i	n/a
427.531	0.09	855062	keystroke	s	n/a
427.741	0.075	855482	keystroke	e	n/a
427.831	0.075	855662	keystroke	n	n/a
427.996	0.1195	855992	keystroke	Key.space	n/a
429.2855	0.09	858571	keystroke	Key.backspace	n/a
429.4505	0.06	858901	keystroke	Key.backspace	n/a
429.6005	0.06	859201	keystroke	Key.backspace	n/a
429.9605	0.12	859921	keystroke	o	n/a
430.0355	0.09	860071	keystroke	n	n/a
430.0955	0.09	860191	keystroke	Key.space	n/a
430.8155	0.105	861631	keystroke	k	n/a
431.0255	0.075	862051	keystroke	i	n/a
431.1155	0.0605	862231	keystroke	d	n/a
431.446	0.089	862892	keystroke	n	n/a
431.715	0.135	863430	keystroke	e	n/a
431.82	0.105	863640	keystroke	y	n/a
432.045	0.105	864090	keystroke	Key.space	n/a
432.36	0.12	864720	keystroke	r	n/a
432.405	0.09	864810	keystroke	e	n/a
432.6	0.09	865200	keystroke	s	n/a
432.705	0.0755	865410	keystroke	i	n/a
432.7655	0.12	865531	keystroke	s	n/a
433.0655	0.0745	866131	keystroke	t	n/a
433.23	0.0605	866460	keystroke	a	n/a
433.3805	0.105	866761	keystroke	n	n/a
433.5305	0.09	867061	keystroke	t	n/a
433.6355	0.09	867271	keystroke	Key.space	n/a
434.0405	0.09	868081	keystroke	e	n/a
434.475	0.1055	868950	keystroke	x	n/a
434.7005	0.09	869401	keystroke	p	n/a
434.8055	0.105	869611	keystroke	a	n/a
434.9555	0.09	869911	keystroke	n	n/a
435.706	0.015	871412	keystroke	s	n/a
435.736	0.12	871472	keystroke	i	n/a
435.811	0.09	871622	keystroke	o	n/a
435.961	0.075	871922	keystroke	n	n/a
436.141	0.075	872282	keystroke	Key.space	n/a
436.321	0.12	872642	keystroke	Key.enter	n/a
436.4535	6.679	872907	prompt	n/a	remainder destruction he'll imagine\n
437.191	0.075	874382	keystroke	r	n/a
437.221	0.105	874442	keystroke	e	n/a
437.341	0.09	874682	keystroke	m	n/a
437.416	0.09	874832	keystroke	a	n/a
437.551	0.105	875102	keystroke	i	n/a
437.626	0.0895	875252	keystroke	n	n/a
437.7605	0.105	875521	keystroke	d	n/a
437.9855	0.105	875971	keystroke	e	n/a
438.0455	0.09	876091	keystroke	r	n/a
438.1505	0.0905	876301	keystroke	Key.space	n/a
438.376	0.09	876752	keystroke	d	n/a
438.571	0.105	877142	keystroke	e	n/a
438.631	0.09	877262	keystroke	s	n/a
438.901	0.09	877802	keystroke	t	n/a
438.946	0.09	877892	keystroke	r	n/a
439.081	0.075	878162	keystroke	u	n/a
439.186	0.075	878372	keystroke	c	n/a
439.396	0.03	878792	keystroke	t	n/a
439.471	0.0895	878942	keystroke	i	n/a
439.516	0.0895	879032	keystroke	o	n/a
439.6655	0.09	879331	keystroke	n	n/a
439.6955	0.09	879391	keystroke	Key.space	n/a
439.9205	0.105	879841	keystroke	h	n/a
440.0555	0.105	880111	keystroke	e	n/a
440.8655	0.045	881731	keystroke	'	n/a
441.5255	0.045	883051	keystroke	l	n/a
441.6905	0.1045	883381	keystroke	Key.space	n/a
442.2905	0.12	884581	keystroke	i	n/a
442.3505	0.105	884701	keystroke	m	n/a
442.4405	0.105	884881	keystroke	a	n/a
442.6505	0.06	885301	keystroke	g	n/a
442.7405	0.09	885481	keystroke	i	n/a
442.7855	0.09	885571	keystroke	n	n/a
442.8765	0.074	885753	keystroke	e	n/a
443.0555	0.0755	886111	keystroke	Key.enter	n/a
443.1355	7.1065	886271	prompt	n/a	difficulties into execution caring\n
444.27	0.09	888540	keystroke	d	n/a
444.391	0.09	888782	keystroke	i	n/a
444.5105	0.06	889021	keystroke	f	n/a
444.6605	0.045	889321	keystroke	f	n/a
444.8705	0.06	889741	keystroke	i	n/a
445.1255	0.075	890251	keystroke	c	n/a
445.2305	0.06	890461	keystroke	u	n/a
445.4255	0.045	890851	keystroke	l	n/a
445.5755	0.06	891151	keystroke	t	n/a
446.8055	0.0905	893611	keystroke	i	n/a
446.896	0.1495	893792	keystroke	e	n/a
446.9855	0.12	893971	keystroke	s	n/a
447.0605	0.09	894121	keystroke	Key.space	n/a
447.3005	0.15	894601	keystroke	i	n/a
447.3905	0.09	894781	keystroke	n	n/a
447.4655	0.09	894931	keystroke	t	n/a
447.5855	0.045	895171	keystroke	o	n/a
447.7055	0.105	895411	keystroke	Key.space	n/a
447.93	0.09	895860	keystroke	e	n/a
448.155	0.12	896310	keystroke	x	n/a
448.365	0.12	896730	keystroke	e	n/a
448.5	0.09	897000	keystroke	c	n/a
448.755	0.075	897510	keystroke	u	n/a
448.875	0.0905	897750	keystroke	t	n/a
449.01	0.105	898020	keystroke	i	n/a
449.07	0.1205	898140	keystroke	o	n/a
449.2205	0.12	898441	keystroke	n	n/a
449.3255	0.075	898651	keystroke	Key.space	n/a
449.5505	0.1345	899101	keystroke	c	n/a
449.6555	0.1045	899311	keystroke	a	n/a
449.79	0.105	899580	keystroke	r	n/a
449.896	0.119	899792	keystroke	i	n/a
449.955	0.09	899910	keystroke	n	n/a
450.03	0.06	900060	keystroke	g	n/a
450.135	0.105	900270	keystroke	Key.enter	n/a
450.2445	7.5875	900489	prompt	n/a	student tennessee ensure an\n
451.2	0.09	902400	keystroke	s	n/a
451.365	0.075	902730	keystroke	t	n/a
451.4705	0.0895	902941	keystroke	u	n/a
451.575	0.1055	903150	keystroke	d	n/a
451.7705	0.075	903541	keystroke	e	n/a
451.8755	0.06	903751	keystroke	n	n/a
451.9655	0.075	903931	keystroke	t	n/a
452.0555	0.09	904111	keystroke	Key.space	n/a
453.0155	0.105	906031	keystroke	t	n/a
453.1055	0.105	906211	keystroke	e	n/a
453.2405	0.075	906481	keystroke	n	n/a
453.4055	0.09	906811	keystroke	e	n/a
454.5605	0.09	909121	keystroke	Key.backspace	n/a
454.9055	0.105	909811	keystroke	n	n/a
455.0555	0.105	910111	keystroke	e	n/a
455.4305	0.06	910861	keystroke	s	n/a
455.5655	0.09	911131	keystroke	s	n/a
455.7905	0.045	911581	keystroke	e	n/a
455.925	0.075	911850	keystroke	e	n/a
456.045	0.105	912090	keystroke	Key.space	n/a
456.4055	0.075	912811	keystroke	e	n/a
456.4955	0.075	912991	keystroke	n	n/a
456.69	0.075	913380	keystroke	s	n/a
456.87	0.105	913740	keystroke	u	n/a
456.99	0.075	913980	keystroke	r	n/a
457.02	0.105	914040	keystroke	e	n/a
457.14	0.075	914280	keystroke	Key.space	n/a
457.515	0.075	915030	keystroke	a	n/a
457.545	0.075	915090	keystroke	n	n/a
457.7555	0.0745	915511	keystroke	Key.enter	n/a
457.8435	5.448	915687	prompt	n/a	pork selling content promoted\n
458.505	0.1355	917010	keystroke	p	n/a
458.58	0.0905	917160	keystroke	o	n/a
458.7605	0.075	917521	keystroke	r	n/a
458.8805	0.09	917761	keystroke	k	n/a
459.1055	0.075	918211	keystroke	Key.space	n/a
459.1955	0.06	918391	keystroke	s	n/a
459.3905	0.03	918781	keystroke	e	n/a
459.4505	0.06	918901	keystroke	l	n/a
459.5705	0.105	919141	keystroke	l	n/a
459.81	0.09	919620	keystroke	i	n/a
459.855	0.06	919710	keystroke	n	n/a
459.93	0.0755	919860	keystroke	g	n/a
459.99	0.1055	919980	keystroke	Key.space	n/a
460.2305	0.0895	920461	keystroke	c	n/a
460.305	0.12	920610	keystroke	o	n/a
460.38	0.105	920760	keystroke	n	n/a
460.47	0.075	920940	keystroke	t	n/a
460.62	0.12	921240	keystroke	e	n/a
460.755	0.09	921510	keystroke	n	n/a
460.86	0.045	921720	keystroke	t	n/a
460.92	0.105	921840	keystroke	Key.space	n/a
461.16	0.061	922320	keystroke	p	n/a
461.251	0.089	922502	keystroke	r	n/a
462.0605	0.135	924121	keystroke	o	n/a
462.2105	0.09	924421	keystroke	m	n/a
462.3155	0.045	924631	keystroke	o	n/a
462.78	0.12	925560	keystroke	t	n/a
462.87	0.105	925740	keystroke	e	n/a
463.05	0.075	926100	keystroke	d	n/a
463.2	0.09	926400	keystroke	Key.enter	n/a
463.294	7.2125	926588	prompt	n/a	argued active newcastle survivors\n
464.2355	0.12	928471	keystroke	a	n/a
464.3705	0.075	928741	keystroke	r	n/a
464.5805	0.075	929161	keystroke	g	n/a
464.7005	0.06	929401	keystroke	u	n/a
464.8205	0.135	929641	keystroke	e	n/a
464.8955	0.12	929791	keystroke	s	n/a
465.0305	0.09	930061	keystroke	Key.space	n/a
465.2095	0.121	930419	keystroke	a	n/a
465.3605	0.12	930721	keystroke	c	n/a
465.5855	0.059	931171	keystroke	t	n/a
465.6755	0.09	931351	keystroke	i	n/a
465.7955	0.135	931591	keystroke	v	n/a
465.8705	0.12	931741	keystroke	e	n/a
465.9755	0.105	931951	keystroke	Key.space	n/a
466.2905	0.105	932581	keystroke	n	n/a
466.4105	0.135	932821	keystroke	e	n/a
466.4855	0.09	932971	keystroke	w	n/a
466.7105	0.1195	933421	keystroke	c	n/a
466.815	0.12	933630	keystroke	a	n/a
466.89	0.105	933780	keystroke	s	n/a
467.115	0.06	934230	keystroke	t	n/a
467.205	0.09	934410	keystroke	l	n/a
467.31	0.09	934620	keystroke	e	n/a
467.415	0.09	934830	keystroke	Key.space	n/a
468.0295	0.091	936059	keystroke	s	n/a
468.1505	0.0895	936301	keystroke	u	n/a
468.255	0.045	936510	keystroke	r	n/a
469.515	0.0755	939030	keystroke	v	n/a
469.6805	0.09	939361	keystroke	i	n/a
469.7855	0.06	939571	keystroke	v	n/a
470.0255	0.105	940051	keystroke	o	n/a
470.1155	0.075	940231	keystroke	r	n/a
470.2805	0.09	940561	keystroke	s	n/a
470.4155	0.09	940831	keystroke	Key.enter	n/a
470.51	11.187	941020	prompt	n/a	bernard conservation how'd that're\n
471.345	0.075	942690	keystroke	b	n/a
471.435	0.105	942870	keystroke	e	n/a
471.495	0.105	942990	keystroke	r	n/a
471.57	0.105	943140	keystroke	n	n/a
471.69	0.09	943380	keystroke	a	n/a
472.965	0.075	945930	keystroke	r	n/a
473.145	0.09	946290	keystroke	d	n/a
473.31	0.12	946620	keystroke	Key.space	n/a
473.55	0.075	947100	keystroke	c	n/a
473.67	0.1045	947340	keystroke	o	n/a
473.7455	0.105	947491	keystroke	n	n/a
473.8045	0.075	947609	keystroke	v	n/a
473.9995	0.121	947999	keystroke	e	n/a
474.0895	0.121	948179	keystroke	r	n/a
474.5995	0.045	949199	keystroke	Key.backspace	n/a
474.7345	0.075	949469	keystroke	Key.backspace	n/a
474.8995	0.091	949799	keystroke	Key.backspace	n/a
475.996	0.059	951992	keystroke	s	n/a
476.28	0.135	952560	keystroke	e	n/a
476.34	0.09	952680	keystroke	r	n/a
476.9105	0.09	953821	keystroke	v	n/a
476.9855	0.105	953971	keystroke	a	n/a
477.1505	0.06	954301	keystroke	t	n/a
477.2405	0.09	954481	keystroke	i	n/a
477.2855	0.12	954571	keystroke	o	n/a
477.4505	0.09	954901	keystroke	n	n/a
477.5555	0.075	955111	keystroke	Key.space	n/a
478.23	0.075	956460	keystroke	h	n/a
478.35	0.09	956700	keystroke	o	n/a
478.455	0.105	956910	keystroke	w	n/a
478.965	0.09	957930	keystroke	'	n/a
479.07	0.105	958140	keystroke	d	n/a
479.25	0.06	958500	keystroke	Key.space	n/a
479.565	0.105	959130	keystroke	t	n/a
479.61	0.1045	959220	keystroke	h	n/a
480.0745	0.15	960149	keystroke	a	n/a
480.2395	0.09	960479	keystroke	t	n/a
480.81	0.075	961620	keystroke	'	n/a
481.14	0.135	962280	keystroke	r	n/a
481.215	0.105	962430	keystroke	e	n/a
481.59	0.105	963180	keystroke	Key.enter	n/a
481.7095	4.787	963419	prompt	n/a	fought sons drum metabolism\n
482.67	0.09	965340	keystroke	f	n/a
482.745	0.12	965490	keystroke	o	n/a
482.79	0.09	965580	keystroke	u	n/a
482.88	0.075	965760	keystroke	g	n/a
482.985	0.075	965970	keystroke	h	n/a
483.075	0.06	966150	keystroke	t	n/a
483.18	0.09	966360	keystroke	Key.space	n/a
483.435	0.09	966870	keystroke	s	n/a
483.526	0.119	967052	keystroke	o	n/a
483.57	0.1055	967140	keystroke	n	n/a
483.66	0.09	967320	keystroke	s	n/a
483.78	0.105	967560	keystroke	Key.space	n/a
484.05	0.09	968100	keystroke	d	n/a
484.245	0.06	968490	keystroke	r	n/a
484.35	0.09	968700	keystroke	u	n/a
484.575	0.075	969150	keystroke	m	n/a
484.68	0.09	969360	keystroke	Key.space	n/a
484.95	0.09	969900	keystroke	m	n/a
485.07	0.105	970140	keystroke	e	n/a
485.16	0.09	970320	keystroke	t	n/a
485.355	0.075	970710	keystroke	a	n/a
485.565	0.06	971130	keystroke	b	n/a
485.7305	0.06	971461	keystroke	o	n/a
485.8805	0.0895	971761	keystroke	l	n/a
486.075	0.075	972150	keystroke	i	n/a
486.18	0.09	972360	keystroke	s	n/a
486.24	0.09	972480	keystroke	m	n/a
486.405	0.09	972810	keystroke	Key.enter	n/a
486.499	6.0875	972998	prompt	n/a	relate coin cast interventions\n
487.185	0.12	974370	keystroke	r	n/a
487.245	0.12	974490	keystroke	e	n/a
487.44	0.075	974880	keystroke	a	n/a
487.9355	0.074	975871	keystroke	Key.backspace	n/a
488.1305	0.104	976261	keystroke	l	n/a
488.2205	0.12	976441	keystroke	a	n/a
488.3255	0.119	976651	keystroke	t	n/a
488.4155	0.105	976831	keystroke	e	n/a
488.5045	0.091	977009	keystroke	Key.space	n/a
488.6855	0.075	977371	keystroke	c	n/a
489.5105	0.06	979021	keystroke	o	n/a
489.72	0.06	979440	keystroke	i	n/a
489.75	0.105	979500	keystroke	n	n/a
489.825	0.105	979650	keystroke	Key.space	n/a
490.065	0.105	980130	keystroke	c	n/a
490.17	0.15	980340	keystroke	a	n/a
490.29	0.075	980580	keystroke	s	n/a
490.575	0.09	981150	keystroke	t	n/a
490.785	0.105	981570	keystroke	Key.space	n/a
491.025	0.09	982050	keystroke	i	n/a
491.07	0.105	982140	keystroke	n	n/a
491.16	0.075	982320	keystroke	t	n/a
491.265	0.1195	982530	keystroke	e	n/a
491.34	0.0755	982680	keystroke	r	n/a
491.5355	0.089	983071	keystroke	v	n/a
491.73	0.075	983460	keystroke	e	n/a
491.82	0.09	983640	keystroke	n	n/a
491.91	0.075	983820	keystroke	t	n/a
492.075	0.105	984150	keystroke	i	n/a
492.15	0.105	984300	keystroke	o	n/a
492.285	0.105	984570	keystroke	n	n/a
492.405	0.075	984810	keystroke	s	n/a
492.51	0.075	985020	keystroke	Key.enter	n/a
492.5895	5.232	985179	prompt	n/a	something available daddy wilson\n
493.2745	0.09	986549	keystroke	s	n/a
493.3495	0.135	986699	keystroke	o	n/a
493.4095	0.12	986819	keystroke	m	n/a
493.5145	0.06	987029	keystroke	e	n/a
493.755	0.075	987510	keystroke	t	n/a
493.785	0.09	987570	keystroke	h	n/a
493.845	0.12	987690	keystroke	i	n/a
493.92	0.075	987840	keystroke	n	n/a
494.01	0.075	988020	keystroke	g	n/a
494.1	0.0895	988200	keystroke	Key.space	n/a
494.2495	0.105	988499	keystroke	a	n/a
494.5195	0.06	989039	keystroke	v	n/a
494.7145	0.06	989429	keystroke	a	n/a
494.8195	0.075	989639	keystroke	i	n/a
495.0145	0.0755	990029	keystroke	l	n/a
495.195	0.0745	990390	keystroke	a	n/a
495.3745	0.0605	990749	keystroke	b	n/a
495.5245	0.045	991049	keystroke	l	n/a
495.6145	0.0905	991229	keystroke	e	n/a
495.72	0.09	991440	keystroke	Key.space	n/a
496.065	0.135	992130	keystroke	d	n/a
496.2	0.09	992400	keystroke	a	n/a
496.305	0.075	992610	keystroke	d	n/a
496.425	0.075	992850	keystroke	d	n/a
496.68	0.06	993360	keystroke	y	n/a
496.8145	0.09	993629	keystroke	Key.space	n/a
496.9495	0.075	993899	keystroke	w	n/a
497.0545	0.09	994109	keystroke	i	n/a
497.2645	0.075	994529	keystroke	l	n/a
497.3695	0.09	994739	keystroke	s	n/a
497.4755	0.12	994951	keystroke	o	n/a
497.5345	0.12	995069	keystroke	n	n/a
497.7145	0.105	995429	keystroke	Key.enter	n/a
497.824	4.8425	995648	prompt	n/a	uses stands collective optional\n
498.5545	0.075	997109	keystroke	u	n/a
498.7345	0.135	997469	keystroke	s	n/a
498.8545	0.135	997709	keystroke	e	n/a
498.9595	0.12	997919	keystroke	s	n/a
499.1245	0.09	998249	keystroke	Key.space	n/a
499.2445	0.075	998489	keystroke	s	n/a
499.3945	0.075	998789	keystroke	t	n/a
499.53	0.0895	999060	keystroke	a	n/a
499.6655	0.0895	999331	keystroke	n	n/a
499.815	0.135	999630	keystroke	d	n/a
499.92	0.075	999840	keystroke	s	n/a
499.965	0.105	999930	keystroke	Key.space	n/a
500.205	0.105	1000410	keystroke	c	n/a
500.28	0.075	1000560	keystroke	o	n/a
500.445	0.06	1000890	keystroke	l	n/a
500.565	0.06	1001130	keystroke	l	n/a
500.626	0.074	1001252	keystroke	e	n/a
500.655	0.09	1001310	keystroke	c	n/a
500.8945	0.015	1001789	keystroke	t	n/a
500.9695	0.09	1001939	keystroke	i	n/a
501.1195	0.105	1002239	keystroke	v	n/a
501.1795	0.09	1002359	keystroke	e	n/a
501.2995	0.12	1002599	keystroke	Key.space	n/a
501.5995	0.165	1003199	keystroke	o	n/a
501.6155	0.119	1003231	keystroke	p	n/a
501.8095	0.09	1003619	keystroke	t	n/a
501.9895	0.09	1003979	keystroke	i	n/a
502.0195	0.105	1004039	keystroke	o	n/a
502.1845	0.09	1004369	keystroke	n	n/a
502.2595	0.105	1004519	keystroke	a	n/a
502.3795	0.06	1004759	keystroke	l	n/a
502.5745	0.09	1005149	keystroke	Key.enter	n/a
502.669	4.6625	1005338	prompt	n/a	vocals compute fire pray\n
503.4745	0.045	1006949	keystroke	c	n/a
503.6395	0.0455	1007279	keystroke	o	n/a
503.895	0.03	1007790	keystroke	Key.backspace	n/a
504.015	0.06	1008030	keystroke	Key.backspace	n/a
504.12	0.06	1008240	keystroke	v	n/a
504.225	0.09	1008450	keystroke	o	n/a
504.375	0.135	1008750	keystroke	c	n/a
504.495	0.075	1008990	keystroke	a	n/a
504.645	0.075	1009290	keystroke	l	n/a
504.75	0.075	1009500	keystroke	s	n/a
504.87	0.09	1009740	keystroke	Key.space	n/a
505.17	0.075	1010340	keystroke	c	n/a
505.23	0.12	1010460	keystroke	o	n/a
505.305	0.09	1010610	keystroke	m	n/a
505.47	0.15	1010940	keystroke	p	n/a
505.605	0.075	1011210	keystroke	u	n/a
505.71	0.105	1011420	keystroke	t	n/a
505.8	0.075	1011600	keystroke	e	n/a
505.89	0.09	1011780	keystroke	Key.space	n/a
506.07	0.105	1012140	keystroke	f	n/a
506.22	0.075	1012440	keystroke	i	n/a
506.325	0.135	1012650	keystroke	r	n/a
506.415	0.105	1012830	keystroke	e	n/a
506.49	0.09	1012980	keystroke	Key.space	n/a
506.67	0.075	1013340	keystroke	p	n/a
506.73	0.09	1013460	keystroke	r	n/a
506.835	0.105	1013670	keystroke	a	n/a
507.09	0.0745	1014180	keystroke	y	n/a
507.2545	0.075	1014509	keystroke	Key.enter	n/a
507.34	5.1965	1014680	prompt	n/a	case breed legacy gonna\n
507.9895	0.09	1015979	keystroke	c	n/a
508.1245	0.135	1016249	keystroke	a	n/a
508.1995	0.075	1016399	keystroke	s	n/a
508.3795	0.09	1016759	keystroke	e	n/a
508.4845	0.105	1016969	keystroke	Key.space	n/a
508.6645	0.075	1017329	keystroke	v	n/a
508.9495	0.075	1017899	keystroke	Key.backspace	n/a
509.0395	0.0905	1018079	keystroke	b	n/a
509.28	0.12	1018560	keystroke	r	n/a
509.355	0.06	1018710	keystroke	e	n/a
509.505	0.075	1019010	keystroke	e	n/a
509.685	0.075	1019370	keystroke	d	n/a
509.775	0.12	1019550	keystroke	Key.space	n/a
509.985	0.09	1019970	keystroke	l	n/a
510.345	0.105	1020690	keystroke	e	n/a
510.735	0.045	1021470	keystroke	g	n/a
510.885	0.105	1021770	keystroke	a	n/a
511.125	0.045	1022250	keystroke	c	n/a
511.275	0.06	1022550	keystroke	y	n/a
511.425	0.105	1022850	keystroke	Key.space	n/a
511.9955	0.06	1023991	keystroke	g	n/a
512.0695	0.091	1024139	keystroke	o	n/a
512.1155	0.074	1024231	keystroke	n	n/a
512.2495	0.091	1024499	keystroke	n	n/a
512.3555	0.075	1024711	keystroke	a	n/a
512.4455	0.09	1024891	keystroke	Key.enter	n/a
512.539	7.7225	1025078	prompt	n/a	basically appeared streams meat\n
513.375	0.12	1026750	keystroke	b	n/a
513.525	0.1505	1027050	keystroke	a	n/a
513.585	0.1355	1027170	keystroke	s	n/a
513.7345	0.045	1027469	keystroke	i	n/a
513.8245	0.105	1027649	keystroke	c	n/a
513.9445	0.09	1027889	keystroke	a	n/a
514.0195	0.075	1028039	keystroke	l	n/a
514.1405	0.074	1028281	keystroke	l	n/a
514.2445	0.076	1028489	keystroke	y	n/a
514.3645	0.105	1028729	keystroke	Key.space	n/a
515.1895	0.076	1030379	keystroke	a	n/a
515.2495	0.075	1030499	keystroke	p	n/a
515.3995	0.106	1030799	keystroke	p	n/a
515.4895	0.09	1030979	keystroke	e	n/a
515.5505	0.09	1031101	keystroke	w	n/a
515.6245	0.121	1031249	keystroke	a	n/a
515.7895	0.1355	1031579	keystroke	r	n/a
516.36	0.06	1032720	keystroke	Key.backspace	n/a
516.495	0.075	1032990	keystroke	Key.backspace	n/a
516.6	0.105	1033200	keystroke	Key.backspace	n/a
517.05	0.12	1034100	keystroke	a	n/a
517.2745	0.12	1034549	keystroke	r	n/a
517.4095	0.075	1034819	keystroke	e	n/a
517.56	0.12	1035120	keystroke	d	n/a
517.755	0.09	1035510	keystroke	Key.space	n/a
517.86	0.09	1035720	keystroke	s	n/a
518.16	0.15	1036320	keystroke	t	n/a
518.235	0.225	1036470	keystroke	r	n/a
518.415	0.135	1036830	keystroke	e	n/a
518.745	0.105	1037490	keystroke	a	n/a
518.925	0.105	1037850	keystroke	m	n/a
519.06	0.135	1038120	keystroke	s	n/a
519.18	0.105	1038360	keystroke	Key.space	n/a
519.51	0.075	1039020	keystroke	m	n/a
519.6	0.09	1039200	keystroke	e	n/a
519.9	0.1195	1039800	keystroke	a	n/a
520.0345	0.075	1040069	keystroke	t	n/a
520.1845	0.075	1040369	keystroke	Key.enter	n/a
520.264	5.907	1040528	prompt	n/a	issue bracelets clerk flesh\n
521.0095	0.075	1042019	keystroke	i	n/a
521.1295	0.075	1042259	keystroke	s	n/a
521.2795	0.09	1042559	keystroke	s	n/a
521.4145	0.09	1042829	keystroke	u	n/a
521.5195	0.075	1043039	keystroke	e	n/a
521.6395	0.105	1043279	keystroke	Key.space	n/a
522.0895	0.09	1044179	keystroke	b	n/a
522.1945	0.06	1044389	keystroke	r	n/a
522.6895	0.105	1045379	keystroke	a	n/a
522.7495	0.135	1045499	keystroke	c	n/a
522.8995	0.09	1045799	keystroke	e	n/a
523.0495	0.0905	1046099	keystroke	l	n/a
523.185	0.09	1046370	keystroke	e	n/a
523.335	0.075	1046670	keystroke	t	n/a
523.515	0.09	1047030	keystroke	s	n/a
523.62	0.105	1047240	keystroke	Key.space	n/a
523.785	0.105	1047570	keystroke	c	n/a
523.92	0.12	1047840	keystroke	l	n/a
524.025	0.075	1048050	keystroke	e	n/a
524.355	0.06	1048710	keystroke	r	n/a
524.46	0.075	1048920	keystroke	k	n/a
524.6845	0.105	1049369	keystroke	Key.space	n/a
525.4195	0.09	1050839	keystroke	f	n/a
525.5245	0.091	1051049	keystroke	l	n/a
525.6305	0.074	1051261	keystroke	e	n/a
525.795	0.105	1051590	keystroke	s	n/a
525.9	0.075	1051800	keystroke	h	n/a
526.11	0.06	1052220	keystroke	Key.enter	n/a
526.1755	9.6415	1052351	prompt	n/a	bowling pennsylvania boundaries outstanding\n
527.025	0.075	1054050	keystroke	b	n/a
527.19	0.06	1054380	keystroke	o	n/a
527.265	0.09	1054530	keystroke	w	n/a
527.37	0.075	1054740	keystroke	l	n/a
527.565	0.09	1055130	keystroke	i	n/a
527.61	0.075	1055220	keystroke	n	n/a
527.67	0.075	1055340	keystroke	g	n/a
527.73	0.105	1055460	keystroke	Key.space	n/a
527.925	0.075	1055850	keystroke	p	n/a
528.045	0.105	1056090	keystroke	e	n/a
528.135	0.045	1056270	keystroke	n	n/a
528.24	0.09	1056480	keystroke	n	n/a
528.63	0.075	1057260	keystroke	s	n/a
529.005	0.0745	1058010	keystroke	y	n/a
529.1095	0.09	1058219	keystroke	l	n/a
529.3495	0.09	1058699	keystroke	v	n/a
529.4545	0.09	1058909	keystroke	a	n/a
529.5595	0.09	1059119	keystroke	n	n/a
529.695	0.09	1059390	keystroke	i	n/a
529.815	0.075	1059630	keystroke	e	n/a
529.92	0.09	1059840	keystroke	Key.space	n/a
531.33	0.075	1062660	keystroke	Key.backspace	n/a
531.48	0.06	1062960	keystroke	Key.backspace	n/a
531.585	0.1045	1063170	keystroke	a	n/a
531.7045	0.075	1063409	keystroke	Key.space	n/a
532.634	0.0605	1065268	keystroke	b	n/a
532.6795	0.09	1065359	keystroke	o	n/a
532.724	0.0755	1065448	keystroke	u	n/a
532.9045	0.075	1065809	keystroke	n	n/a
532.935	0.1345	1065870	keystroke	d	n/a
533.0545	0.0895	1066109	keystroke	a	n/a
533.1895	0.0595	1066379	keystroke	r	n/a
533.384	0.106	1066768	keystroke	i	n/a
533.4745	0.15	1066949	keystroke	e	n/a
533.58	0.104	1067160	keystroke	s	n/a
533.699	0.075	1067398	keystroke	Key.space	n/a
534.014	0.105	1068028	keystroke	o	n/a
534.089	0.075	1068178	keystroke	u	n/a
534.179	0.09	1068358	keystroke	t	n/a
534.374	0.075	1068748	keystroke	s	n/a
534.615	0.059	1069230	keystroke	t	n/a
534.779	0.091	1069558	keystroke	a	n/a
534.959	0.09	1069918	keystroke	n	n/a
535.079	0.06	1070158	keystroke	d	n/a
535.214	0.09	1070428	keystroke	i	n/a
535.289	0.045	1070578	keystroke	n	n/a
535.305	0.0595	1070610	keystroke	g	n/a
535.7095	0.105	1071419	keystroke	Key.enter	n/a
535.828	8.7935	1071656	prompt	n/a	fixes bleeding conjunction gordon\n
536.6845	0.06	1073369	keystroke	f	n/a
536.7895	0.075	1073579	keystroke	i	n/a
536.9995	0.09	1073999	keystroke	x	n/a
537.2095	0.045	1074419	keystroke	e	n/a
537.3745	0.0305	1074749	keystroke	s	n/a
537.5095	0.105	1075019	keystroke	Key.space	n/a
538.109	0.075	1076218	keystroke	b	n/a
538.2445	0.105	1076489	keystroke	l	n/a
538.3645	0.24	1076729	keystroke	e	n/a
539.2945	0.075	1078589	keystroke	e	n/a
539.5045	0.06	1079009	keystroke	d	n/a
539.6095	0.135	1079219	keystroke	i	n/a
539.6845	0.075	1079369	keystroke	n	n/a
539.7605	0.059	1079521	keystroke	g	n/a
539.8495	0.105	1079699	keystroke	Key.space	n/a
540.1345	0.06	1080269	keystroke	c	n/a
540.1795	0.12	1080359	keystroke	o	n/a
540.2545	0.105	1080509	keystroke	n	n/a
540.4645	0.09	1080929	keystroke	j	n/a
540.6745	0.12	1081349	keystroke	u	n/a
540.7645	0.09	1081529	keystroke	n	n/a
540.8695	0.075	1081739	keystroke	c	n/a
541.1845	0.12	1082369	keystroke	i	n/a
541.2145	0.12	1082429	keystroke	o	n/a
542.0395	0.105	1084079	keystroke	Key.backspace	n/a
542.2045	0.075	1084409	keystroke	Key.backspace	n/a
542.5495	0.06	1085099	keystroke	t	n/a
542.6395	0.105	1085279	keystroke	i	n/a
