onset	duration	sample	value	key	prompt_text
4.6685	12.766	9337	prompt	n/a	the quick brown fox jumps over a lazy dog\n
9.3495	0	18699	keystroke_t	t	n/a
9.3505	0.0565	18701	keystroke_h	h	n/a
9.3515	0.0855	18703	keystroke_e	e	n/a
9.467	0.074	18934	keystroke_Key.space	Key.space	n/a
10.0225	0.0895	20045	keystroke_q	q	n/a
10.097	0.075	20194	keystroke_u	u	n/a
10.201	0.121	20402	keystroke_i	i	n/a
10.2925	0.1045	20585	keystroke_c	c	n/a
10.4275	0.1045	20855	keystroke_k	k	n/a
10.546	0.0755	21092	keystroke_Key.space	Key.space	n/a
10.772	0.0595	21544	keystroke_b	b	n/a
10.9365	0.0755	21873	keystroke_r	r	n/a
11.072	0.09	22144	keystroke_o	o	n/a
11.237	0.09	22474	keystroke_w	w	n/a
11.312	0.105	22624	keystroke_n	n	n/a
11.492	0.075	22984	keystroke_Key.space	Key.space	n/a
11.762	0.0895	23524	keystroke_f	f	n/a
11.8665	0.1055	23733	keystroke_o	o	n/a
12.016	0.1205	24032	keystroke_x	x	n/a
12.2565	0.06	24513	keystroke_Key.space	Key.space	n/a
12.436	0.076	24872	keystroke_j	j	n/a
12.6015	0.0605	25203	keystroke_u	u	n/a
12.7515	0.0905	25503	keystroke_m	m	n/a
12.932	0.1055	25864	keystroke_p	p	n/a
13.187	0.1055	26374	keystroke_s	s	n/a
13.337	0.089	26674	keystroke_Key.space	Key.space	n/a
13.6525	0.0885	27305	keystroke_o	o	n/a
13.757	0.074	27514	keystroke_v	v	n/a
13.877	0.12	27754	keystroke_e	e	n/a
13.982	0.09	27964	keystroke_r	r	n/a
14.072	0.09	28144	keystroke_Key.space	Key.space	n/a
14.267	0.1195	28534	keystroke_a	a	n/a
14.401	0.0755	28802	keystroke_Key.space	Key.space	n/a
15.137	0.12	30274	keystroke_l	l	n/a
15.332	0.12	30664	keystroke_a	a	n/a
15.812	0.1195	31624	keystroke_z	z	n/a
15.917	0.105	31834	keystroke_y	y	n/a
16.1565	0.06	32313	keystroke_Key.space	Key.space	n/a
16.4115	0.1195	32823	keystroke_d	d	n/a
16.5465	0.1055	33093	keystroke_o	o	n/a
16.7115	0.105	33423	keystroke_g	g	n/a
17.3415	0.09	34683	keystroke_Key.enter	Key.enter	n/a
17.441	6.2325	34882	prompt	n/a	trick optimum hitting master\n
18.077	0.0895	36154	keystroke_t	t	n/a
18.182	0.09	36364	keystroke_h	h	n/a
18.7665	0.0145	37533	keystroke_Key.backspace	Key.backspace	n/a
18.797	0.09	37594	keystroke_r	r	n/a
18.902	0.105	37804	keystroke_i	i	n/a
19.0375	0.1045	38075	keystroke_c	c	n/a
19.172	0.105	38344	keystroke_k	k	n/a
19.306	0.076	38612	keystroke_Key.space	Key.space	n/a
19.547	0.1205	39094	keystroke_o	o	n/a
19.757	0.1045	39514	keystroke_p	p	n/a
20.2375	0.089	40475	keystroke_t	t	n/a
20.342	0.0745	40684	keystroke_i	i	n/a
20.7915	0.105	41583	keystroke_m	m	n/a
21.2115	0.075	42423	keystroke_u	u	n/a
21.4215	0.105	42843	keystroke_m	m	n/a
21.5565	0.105	43113	keystroke_Key.space	Key.space	n/a
21.7665	0.075	43533	keystroke_h	h	n/a
21.9015	0.1055	43803	keystroke_i	i	n/a
22.0215	0.0605	44043	keystroke_t	t	n/a
22.1715	0.075	44343	keystroke_t	t	n/a
22.2615	0.135	44523	keystroke_i	i	n/a
22.3365	0.1645	44673	keystroke_n	n	n/a
22.4115	0.1045	44823	keystroke_g	g	n/a
22.501	0.1045	45002	keystroke_Key.space	Key.space	n/a
22.6815	0.1195	45363	keystroke_m	m	n/a
22.8165	0.0895	45633	keystroke_a	a	n/a
22.9215	0.12	45843	keystroke_s	s	n/a
23.0715	0.09	46143	keystroke_t	t	n/a
23.1915	0.1045	46383	keystroke_e	e	n/a
23.2815	0.0895	46563	keystroke_r	r	n/a
23.5805	0.091	47161	keystroke_Key.enter	Key.enter	n/a
23.6835	8.7205	47367	prompt	n/a	chuck similar province success\n
23.8365	0.06	47673	keystroke_Key.space	Key.space	n/a
24.496	0.0895	48992	keystroke_Key.backspace	Key.backspace	n/a
24.7655	0.1055	49531	keystroke_c	c	n/a
24.8865	0.075	49773	keystroke_h	h	n/a
25.1115	0.075	50223	keystroke_u	u	n/a
25.2615	0.105	50523	keystroke_c	c	n/a
25.3965	0.089	50793	keystroke_k	k	n/a
25.5005	0.091	51001	keystroke_Key.space	Key.space	n/a
25.6965	0.09	51393	keystroke_s	s	n/a
25.7715	0.091	51543	keystroke_i	i	n/a
25.906	0.1055	51812	keystroke_m	m	n/a
26.3415	0.075	52683	keystroke_i	i	n/a
26.597	0.09	53194	keystroke_l	l	n/a
26.656	0.1505	53312	keystroke_a	a	n/a
26.762	0.1045	53524	keystroke_r	r	n/a
26.9715	0.075	53943	keystroke_Key.space	Key.space	n/a
27.1215	0.12	54243	keystroke_p	p	n/a
27.2565	0.09	54513	keystroke_r	r	n/a
27.3765	0.09	54753	keystroke_o	o	n/a
27.6165	0.09	55233	keystroke_v	v	n/a
27.7215	0.0895	55443	keystroke_i	i	n/a
28.126	0.09	56252	keystroke_c	c	n/a
28.9365	0.15	57873	keystroke_Key.backspace	Key.backspace	n/a
29.7465	0.0905	59493	keystroke_n	n	n/a
29.896	0.0755	59792	keystroke_c	c	n/a
30.0915	0.0745	60183	keystroke_e	e	n/a
30.256	0.09	60512	keystroke_Key.space	Key.space	n/a
31.1115	0.0755	62223	keystroke_s	s	n/a
31.277	0.0745	62554	keystroke_u	u	n/a
31.4575	0.074	62915	keystroke_c	c	n/a
31.6215	0.075	63243	keystroke_c	c	n/a
31.786	0.09	63572	keystroke_e	e	n/a
31.997	0.075	63994	keystroke_s	s	n/a
32.146	0.076	64292	keystroke_s	s	n/a
32.3105	0.09	64621	keystroke_Key.enter	Key.enter	n/a
32.408	7.69	64816	prompt	n/a	september matthew webmaster generation\n
33.257	0.09	66514	keystroke_s	s	n/a
33.4515	0.075	66903	keystroke_e	e	n/a
33.617	0.0905	67234	keystroke_p	p	n/a
33.9015	0.0755	67803	keystroke_t	t	n/a
34.052	0.0895	68104	keystroke_e	e	n/a
34.1715	0.105	68343	keystroke_m	m	n/a
34.3815	0.0755	68763	keystroke_b	b	n/a
34.5165	0.09	69033	keystroke_e	e	n/a
34.6215	0.105	69243	keystroke_r	r	n/a
34.711	0.0905	69422	keystroke_Key.space	Key.space	n/a
34.8915	0.1205	69783	keystroke_m	m	n/a
35.027	0.104	70054	keystroke_a	a	n/a
35.222	0.06	70444	keystroke_t	t	n/a
35.372	0.06	70744	keystroke_t	t	n/a
35.462	0.105	70924	keystroke_h	h	n/a
35.6865	0.0905	71373	keystroke_e	e	n/a
35.927	0.09	71854	keystroke_w	w	n/a
36.0915	0.09	72183	keystroke_Key.space	Key.space	n/a
36.467	0.0895	72934	keystroke_w	w	n/a
36.7365	0.075	73473	keystroke_e	e	n/a
36.947	0.075	73894	keystroke_b	b	n/a
37.337	0.1045	74674	keystroke_m	m	n/a
37.427	0.1045	74854	keystroke_a	a	n/a
37.637	0.0745	75274	keystroke_s	s	n/a
37.7865	0.0755	75573	keystroke_t	t	n/a
37.907	0.09	75814	keystroke_e	e	n/a
37.982	0.104	75964	keystroke_r	r	n/a
38.1015	0.0745	76203	keystroke_Key.space	Key.space	n/a
38.326	0.09	76652	keystroke_g	g	n/a
38.596	0.061	77192	keystroke_e	e	n/a
38.8215	0.1045	77643	keystroke_n	n	n/a
38.957	0.06	77914	keystroke_e	e	n/a
39.062	0.105	78124	keystroke_r	r	n/a
39.1965	0.121	78393	keystroke_a	a	n/a
39.451	0.075	78902	keystroke_t	t	n/a
39.496	0.15	78992	keystroke_i	i	n/a
39.602	0.1495	79204	keystroke_o	o	n/a
39.692	0.1795	79384	keystroke_n	n	n/a
39.9915	0.105	79983	keystroke_Key.enter	Key.enter	n/a
40.102	8.1275	80204	prompt	n/a	started antonio analyzed complement\n
40.846	0.09	81692	keystroke_s	s	n/a
40.9665	0.0905	81933	keystroke_t	t	n/a
41.071	0.1355	82142	keystroke_a	a	n/a
41.176	0.1205	82352	keystroke_r	r	n/a
41.4015	0.0755	82803	keystroke_t	t	n/a
41.6115	0.0755	83223	keystroke_e	e	n/a
41.8075	0.089	83615	keystroke_d	d	n/a
41.9265	0.075	83853	keystroke_Key.space	Key.space	n/a
42.3465	0.105	84693	keystroke_a	a	n/a
42.4815	0.09	84963	keystroke_n	n	n/a
42.7515	0.09	85503	keystroke_t	t	n/a
42.8715	0.1055	85743	keystroke_o	o	n/a
43.2015	0.075	86403	keystroke_n	n	n/a
43.4565	0.09	86913	keystroke_i	i	n/a
43.817	0.0745	87634	keystroke_o	o	n/a
44.0115	0.0745	88023	keystroke_Key.space	Key.space	n/a
44.221	0.1055	88442	keystroke_a	a	n/a
44.342	0.0895	88684	keystroke_n	n	n/a
44.581	0.1055	89162	keystroke_a	a	n/a
44.956	0.09	89912	keystroke_l	l	n/a
45.2115	0.0895	90423	keystroke_y	y	n/a
45.557	0.0895	91114	keystroke_z	z	n/a
45.7815	0.061	91563	keystroke_e	e	n/a
45.947	0.0895	91894	keystroke_d	d	n/a
46.0215	0.105	92043	keystroke_Key.space	Key.space	n/a
46.3215	0.09	92643	keystroke_c	c	n/a
46.4265	0.12	92853	keystroke_o	o	n/a
46.517	0.149	93034	keystroke_m	m	n/a
46.786	0.105	93572	keystroke_p	p	n/a
47.027	0.12	94054	keystroke_l	l	n/a
47.1615	0.0905	94323	keystroke_e	e	n/a
47.552	0.0895	95104	keystroke_m	m	n/a
47.6565	0.06	95313	keystroke_e	e	n/a
47.7465	0.105	95493	keystroke_n	n	n/a
47.8815	0.0745	95763	keystroke_t	t	n/a
48.1215	0.1045	96243	keystroke_Key.enter	Key.enter	n/a
48.2355	7.9885	96471	prompt	n/a	southwest milan mustang frank\n
49.3365	0.0905	98673	keystroke_s	s	n/a
49.442	0.1345	98884	keystroke_o	o	n/a
49.5315	0.1355	99063	keystroke_u	u	n/a
49.906	0.105	99812	keystroke_t	t	n/a
50.026	0.09	100052	keystroke_h	h	n/a
50.2965	0.105	100593	keystroke_w	w	n/a
50.506	0.075	101012	keystroke_e	e	n/a
50.732	0.09	101464	keystroke_s	s	n/a
50.881	0.09	101762	keystroke_t	t	n/a
51.031	0.06	102062	keystroke_Key.space	Key.space	n/a
51.2565	0.0745	102513	keystroke_m	m	n/a
51.406	0.075	102812	keystroke_i	i	n/a
51.617	0.104	103234	keystroke_l	l	n/a
51.7365	0.105	103473	keystroke_a	a	n/a
51.857	0.104	103714	keystroke_n	n	n/a
51.9465	0.075	103893	keystroke_Key.space	Key.space	n/a
52.292	0.0895	104584	keystroke_m	m	n/a
52.486	0.0755	104972	keystroke_u	u	n/a
52.6215	0.1045	105243	keystroke_s	s	n/a
52.921	0.091	105842	keystroke_t	t	n/a
53.072	0.12	106144	keystroke_a	a	n/a
53.2065	0.1205	106413	keystroke_n	n	n/a
53.4765	0.0905	106953	keystroke_g	g	n/a
53.6265	0.075	107253	keystroke_Key.space	Key.space	n/a
53.972	0.0895	107944	keystroke_g	g	n/a
54.301	0.105	108602	keystroke_r	r	n/a
54.8265	0.075	109653	keystroke_Key.backspace	Key.backspace	n/a
55.0815	0.015	110163	keystroke_Key.backspace	Key.backspace	n/a
55.1115	0.075	110223	keystroke_f	f	n/a
55.307	0.075	110614	keystroke_r	r	n/a
55.472	0.0895	110944	keystroke_a	a	n/a
55.6215	0.09	111243	keystroke_n	n	n/a
56.1015	0.12	112203	keystroke_Key.enter	Key.enter	n/a
56.229	6.9985	112458	prompt	n/a	mistress eggs fail meaningful\n
57.3015	0.075	114603	keystroke_m	m	n/a
57.467	0.0745	114934	keystroke_i	i	n/a
57.5715	0.105	115143	keystroke_s	s	n/a
57.812	0.0745	115624	keystroke_t	t	n/a
58.082	0.074	116164	keystroke_r	r	n/a
58.217	0.075	116434	keystroke_e	e	n/a
58.427	0.075	116854	keystroke_s	s	n/a
58.5915	0.075	117183	keystroke_s	s	n/a
58.7115	0.075	117423	keystroke_Key.space	Key.space	n/a
58.862	0.0745	117724	keystroke_e	e	n/a
59.0415	0.075	118083	keystroke_g	g	n/a
59.1915	0.076	118383	keystroke_g	g	n/a
59.327	0.105	118654	keystroke_s	s	n/a
59.461	0.075	118922	keystroke_Key.space	Key.space	n/a
59.641	0.1055	119282	keystroke_f	f	n/a
59.776	0.121	119552	keystroke_a	a	n/a
59.956	0.0755	119912	keystroke_i	i	n/a
60.0915	0.1345	120183	keystroke_l	l	n/a
60.241	0.06	120482	keystroke_Key.space	Key.space	n/a
60.676	0.105	121352	keystroke_m	m	n/a
60.932	0.075	121864	keystroke_e	e	n/a
61.112	0.1495	122224	keystroke_a	a	n/a
61.5465	0.0905	123093	keystroke_n	n	n/a
62.1015	0.12	124203	keystroke_i	i	n/a
62.1915	0.1805	124383	keystroke_n	n	n/a
62.3115	0.0905	124623	keystroke_g	g	n/a
62.5365	0.09	125073	keystroke_f	f	n/a
62.6405	0.106	125281	keystroke_u	u	n/a
62.8665	0.1205	125733	keystroke_l	l	n/a
63.1365	0.0895	126273	keystroke_Key.enter	Key.enter	n/a
63.2345	7.1935	126469	prompt	n/a	shot flexibility troy describe\n
63.8715	0.0905	127743	keystroke_s	s	n/a
63.963	0.059	127926	keystroke_h	h	n/a
64.081	0.121	128162	keystroke_o	o	n/a
64.217	0.075	128434	keystroke_t	t	n/a
64.3215	0.075	128643	keystroke_Key.space	Key.space	n/a
64.5765	0.09	129153	keystroke_f	f	n/a
64.802	0.12	129604	keystroke_l	l	n/a
64.9515	0.0895	129903	keystroke_e	e	n/a
65.237	0.105	130474	keystroke_x	x	n/a
65.536	0.076	131072	keystroke_i	i	n/a
65.807	0.0745	131614	keystroke_b	b	n/a
65.912	0.089	131824	keystroke_i	i	n/a
66.046	0.091	132092	keystroke_t	t	n/a
66.152	0.165	132304	keystroke_l	l	n/a
66.272	0.1495	132544	keystroke_i	i	n/a
66.617	0.0895	133234	keystroke_y	y	n/a
66.826	0.0605	133652	keystroke_Key.space	Key.space	n/a
67.022	0.089	134044	keystroke_t	t	n/a
67.216	0.0755	134432	keystroke_r	r	n/a
67.3825	0.0895	134765	keystroke_o	o	n/a
67.5615	0.09	135123	keystroke_y	y	n/a
67.7565	0.06	135513	keystroke_Key.space	Key.space	n/a
67.9665	0.09	135933	keystroke_d	d	n/a
68.1615	0.06	136323	keystroke_e	e	n/a
68.4615	0.075	136923	keystroke_c	c	n/a
68.8665	0.0895	137733	keystroke_Key.backspace	Key.backspace	n/a
69.0315	0.1055	138063	keystroke_s	s	n/a
69.2565	0.0755	138513	keystroke_c	c	n/a
69.4665	0.075	138933	keystroke_r	r	n/a
69.602	0.1045	139204	keystroke_i	i	n/a
69.7965	0.091	139593	keystroke_b	b	n/a
70.082	0.075	140164	keystroke_e	e	n/a
70.351	0.0755	140702	keystroke_Key.enter	Key.enter	n/a
70.4775	6.7005	140955	prompt	n/a	cuba competent complaints lance\n
71.2365	0.0895	142473	keystroke_c	c	n/a
71.416	0.105	142832	keystroke_u	u	n/a
71.6715	0.09	143343	keystroke_b	b	n/a
71.8065	0.105	143613	keystroke_a	a	n/a
71.9415	0.0895	143883	keystroke_Key.space	Key.space	n/a
72.1965	0.0905	144393	keystroke_c	c	n/a
72.316	0.135	144632	keystroke_o	o	n/a
72.421	0.15	144842	keystroke_m	m	n/a
73.052	0.1045	146104	keystroke_p	p	n/a
73.217	0.074	146434	keystroke_e	e	n/a
73.652	0.014	147304	keystroke_t	t	n/a
73.787	0.09	147574	keystroke_e	e	n/a
74.012	0.0745	148024	keystroke_n	n	n/a
74.1765	0.0755	148353	keystroke_t	t	n/a
74.311	0.09	148622	keystroke_Key.space	Key.space	n/a
74.582	0.075	149164	keystroke_c	c	n/a
74.686	0.121	149372	keystroke_o	o	n/a
74.792	0.1195	149584	keystroke_m	m	n/a
75.002	0.1045	150004	keystroke_p	p	n/a
75.2565	0.09	150513	keystroke_l	l	n/a
75.5265	0.105	151053	keystroke_a	a	n/a
75.6465	0.1355	151293	keystroke_i	i	n/a
75.7215	0.1945	151443	keystroke_n	n	n/a
75.8565	0.09	151713	keystroke_t	t	n/a
76.006	0.121	152012	keystroke_s	s	n/a
76.156	0.075	152312	keystroke_Key.space	Key.space	n/a
76.367	0.119	152734	keystroke_l	l	n/a
76.471	0.105	152942	keystroke_a	a	n/a
76.592	0.105	153184	keystroke_n	n	n/a
76.712	0.075	153424	keystroke_c	c	n/a
76.9065	0.06	153813	keystroke_e	e	n/a
77.1165	0.06	154233	keystroke_Key.enter	Key.enter	n/a
77.183	10.6905	154366	prompt	n/a	deborah bureau strings mistake\n
77.8965	0.09	155793	keystroke_d	d	n/a
78.077	0.0605	156154	keystroke_e	e	n/a
78.287	0.074	156574	keystroke_b	b	n/a
78.5115	0.0755	157023	keystroke_r	r	n/a
78.647	0.1195	157294	keystroke_o	o	n/a
80.989	0.001	161978	keystroke_Key.backspace	Key.backspace	n/a
81.076	0.075	162152	keystroke_Key.backspace	Key.backspace	n/a
81.332	0.089	162664	keystroke_o	o	n/a
81.587	0.075	163174	keystroke_r	r	n/a
81.737	0.105	163474	keystroke_a	a	n/a
81.977	0.074	163954	keystroke_c	c	n/a
82.426	0.09	164852	keystroke_Key.backspace	Key.backspace	n/a
82.6665	0.1055	165333	keystroke_h	h	n/a
82.862	0.0745	165724	keystroke_Key.space	Key.space	n/a
83.266	0.09	166532	keystroke_b	b	n/a
83.401	0.09	166802	keystroke_u	u	n/a
83.837	0.045	167674	keystroke_r	r	n/a
84.0765	0.075	168153	keystroke_e	e	n/a
84.1965	0.12	168393	keystroke_a	a	n/a
84.481	0.106	168962	keystroke_u	u	n/a
84.9165	0.075	169833	keystroke_Key.space	Key.space	n/a
85.1715	0.075	170343	keystroke_s	s	n/a
85.3065	0.075	170613	keystroke_t	t	n/a
85.4715	0.075	170943	keystroke_r	r	n/a
85.6375	0.164	171275	keystroke_i	i	n/a
85.7415	0.226	171483	keystroke_n	n	n/a
85.8615	0.0905	171723	keystroke_g	g	n/a
86.0265	0.09	172053	keystroke_s	s	n/a
86.1765	0.075	172353	keystroke_Key.space	Key.space	n/a
86.3865	0.09	172773	keystroke_m	m	n/a
86.5215	0.105	173043	keystroke_i	i	n/a
86.656	0.0905	173312	keystroke_s	s	n/a
86.8065	0.09	173613	keystroke_t	t	n/a
86.9565	0.105	173913	keystroke_a	a	n/a
87.3765	0.1195	174753	keystroke_k	k	n/a
87.572	0.074	175144	keystroke_e	e	n/a
87.7665	0.1045	175533	keystroke_Key.enter	Key.enter	n/a
87.902	6.376	175804	prompt	n/a	toolbox third bills author\n
88.8025	0.089	177605	keystroke_t	t	n/a
88.9515	0.0595	177903	keystroke_o	o	n/a
89.1165	0.06	178233	keystroke_o	o	n/a
89.296	0.1055	178592	keystroke_l	l	n/a
89.671	0.0755	179342	keystroke_b	b	n/a
89.7765	0.09	179553	keystroke_o	o	n/a
89.912	0.1045	179824	keystroke_x	x	n/a
90.0615	0.09	180123	keystroke_Key.space	Key.space	n/a
90.842	0.0745	181684	keystroke_t	t	n/a
90.962	0.0595	181924	keystroke_h	h	n/a
91.1715	0.075	182343	keystroke_i	i	n/a
91.3065	0.0755	182613	keystroke_r	r	n/a
91.6365	0.091	183273	keystroke_d	d	n/a
91.8315	0.075	183663	keystroke_Key.space	Key.space	n/a
92.161	0.075	184322	keystroke_b	b	n/a
92.2515	0.0905	184503	keystroke_i	i	n/a
92.446	0.09	184892	keystroke_l	l	n/a
92.5965	0.0895	185193	keystroke_l	l	n/a
92.656	0.1055	185312	keystroke_s	s	n/a
92.7915	0.0745	185583	keystroke_Key.space	Key.space	n/a
93.0615	0.1045	186123	keystroke_a	a	n/a
93.2115	0.0905	186423	keystroke_u	u	n/a
93.377	0.0895	186754	keystroke_t	t	n/a
93.481	0.0905	186962	keystroke_h	h	n/a
93.812	0.09	187624	keystroke_o	o	n/a
93.977	0.0745	187954	keystroke_r	r	n/a
94.186	0.0905	188372	keystroke_Key.enter	Key.enter	n/a
94.2825	5.636	188565	prompt	n/a	wendy freebsd mono anger\n
94.9815	0.1045	189963	keystroke_w	w	n/a
95.147	0.089	190294	keystroke_e	e	n/a
95.266	0.105	190532	keystroke_n	n	n/a
95.447	0.104	190894	keystroke_d	d	n/a
95.6415	0.105	191283	keystroke_y	y	n/a
95.7915	0.075	191583	keystroke_Key.space	Key.space	n/a
96.106	0.076	192212	keystroke_f	f	n/a
96.2865	0.0755	192573	keystroke_r	r	n/a
96.5565	0.0755	193113	keystroke_e	e	n/a
96.737	0.0595	193474	keystroke_e	e	n/a
97.0365	0.075	194073	keystroke_b	b	n/a
97.352	0.105	194704	keystroke_s	s	n/a
97.8015	0.075	195603	keystroke_d	d	n/a
98.0115	0.0745	196023	keystroke_Key.space	Key.space	n/a
98.251	0.076	196502	keystroke_m	m	n/a
98.3715	0.1055	196743	keystroke_o	o	n/a
98.522	0.104	197044	keystroke_n	n	n/a
98.641	0.105	197282	keystroke_o	o	n/a
98.821	0.075	197642	keystroke_Key.space	Key.space	n/a
99.0165	0.105	198033	keystroke_a	a	n/a
99.1815	0.105	198363	keystroke_n	n	n/a
99.407	0.0745	198814	keystroke_g	g	n/a
99.5565	0.09	199113	keystroke_e	e	n/a
99.6315	0.0905	199263	keystroke_r	r	n/a
99.7965	0.12	199593	keystroke_Key.enter	Key.enter	n/a
99.929	5.419	199858	prompt	n/a	tubes hands exports spaces\n
100.5915	0.09	201183	keystroke_t	t	n/a
100.7115	0.1045	201423	keystroke_u	u	n/a
100.8915	0.0895	201783	keystroke_b	b	n/a
101.0715	0.075	202143	keystroke_e	e	n/a
101.2365	0.0905	202473	keystroke_s	s	n/a
101.3565	0.09	202713	keystroke_Key.space	Key.space	n/a
101.567	0.09	203134	keystroke_h	h	n/a
101.687	0.119	203374	keystroke_a	a	n/a
101.791	0.121	203582	keystroke_n	n	n/a
101.913	0.074	203826	keystroke_d	d	n/a
102.061	0.076	204122	keystroke_s	s	n/a
102.181	0.09	204362	keystroke_Key.space	Key.space	n/a
102.436	0.076	204872	keystroke_e	e	n/a
102.6615	0.1055	205323	keystroke_x	x	n/a
102.827	0.104	205654	keystroke_p	p	n/a
103.006	0.0905	206012	keystroke_o	o	n/a
103.1115	0.0755	206223	keystroke_r	r	n/a
103.2915	0.045	206583	keystroke_t	t	n/a
103.3965	0.1205	206793	keystroke_s	s	n/a
103.5465	0.0905	207093	keystroke_Key.space	Key.space	n/a
103.9815	0.09	207963	keystroke_s	s	n/a
104.326	0.1205	208652	keystroke_p	p	n/a
104.5965	0.09	209193	keystroke_a	a	n/a
104.7915	0.0755	209583	keystroke_c	c	n/a
104.957	0.0745	209914	keystroke_e	e	n/a
105.1065	0.09	210213	keystroke_s	s	n/a
105.2565	0.09	210513	keystroke_Key.enter	Key.enter	n/a
105.353	8.0345	210706	prompt	n/a	cornell saints subscriptions cities\n
106.337	0.0895	212674	keystroke_c	c	n/a
106.5465	0.09	213093	keystroke_o	o	n/a
106.7115	0.0905	213423	keystroke_r	r	n/a
106.9365	0.0755	213873	keystroke_n	n	n/a
107.0715	0.0755	214143	keystroke_e	e	n/a
107.237	0.075	214474	keystroke_l	l	n/a
107.387	0.09	214774	keystroke_l	l	n/a
107.5515	0.075	215103	keystroke_Key.space	Key.space	n/a
107.852	0.09	215704	keystroke_s	s	n/a
108.031	0.106	216062	keystroke_a	a	n/a
108.166	0.15	216332	keystroke_i	i	n/a
108.256	0.2105	216512	keystroke_n	n	n/a
108.4965	0.105	216993	keystroke_t	t	n/a
108.797	0.1045	217594	keystroke_s	s	n/a
109.201	0.0905	218402	keystroke_Key.space	Key.space	n/a
109.4415	0.09	218883	keystroke_s	s	n/a
109.6215	0.0745	219243	keystroke_u	u	n/a
109.8915	0.0745	219783	keystroke_b	b	n/a
110.2665	0.105	220533	keystroke_s	s	n/a
110.4915	0.06	220983	keystroke_c	c	n/a
110.6855	0.0765	221371	keystroke_r	r	n/a
110.837	0.1045	221674	keystroke_i	i	n/a
111.2405	0.1065	222481	keystroke_p	p	n/a
111.4815	0.105	222963	keystroke_t	t	n/a
111.572	0.12	223144	keystroke_i	i	n/a
111.6615	0.1495	223323	keystroke_o	o	n/a
111.7665	0.2095	223533	keystroke_n	n	n/a
111.991	0.105	223982	keystroke_s	s	n/a
112.171	0.075	224342	keystroke_Key.space	Key.space	n/a
112.4265	0.0895	224853	keystroke_c	c	n/a
112.531	0.1055	225062	keystroke_i	i	n/a
112.6815	0.0745	225363	keystroke_t	t	n/a
112.8465	0.0895	225693	keystroke_i	i	n/a
112.982	0.059	225964	keystroke_e	e	n/a
113.1015	0.1195	226203	keystroke_s	s	n/a
113.281	0.105	226562	keystroke_Key.enter	Key.enter	n/a
113.3925	5.0205	226785	prompt	n/a	height tales joke spam\n
114.166	0.09	228332	keystroke_h	h	n/a
114.3165	0.0745	228633	keystroke_e	e	n/a
114.421	0.09	228842	keystroke_i	i	n/a
114.541	0.106	229082	keystroke_g	g	n/a
114.661	0.0905	229322	keystroke_h	h	n/a
114.7665	0.075	229533	keystroke_t	t	n/a
114.901	0.0755	229802	keystroke_Key.space	Key.space	n/a
115.1115	0.0895	230223	keystroke_t	t	n/a
115.247	0.12	230494	keystroke_a	a	n/a
115.7715	0.136	231543	keystroke_l	l	n/a
116.026	0.0755	232052	keystroke_e	e	n/a
116.177	0.0895	232354	keystroke_s	s	n/a
116.2815	0.0895	232563	keystroke_Key.space	Key.space	n/a
116.491	0.091	232982	keystroke_j	j	n/a
116.642	0.105	233284	keystroke_o	o	n/a
116.851	0.105	233702	keystroke_k	k	n/a
116.9865	0.09	233973	keystroke_e	e	n/a
117.1065	0.0895	234213	keystroke_Key.space	Key.space	n/a
117.301	0.0905	234602	keystroke_s	s	n/a
117.481	0.09	234962	keystroke_p	p	n/a
117.677	0.104	235354	keystroke_a	a	n/a
118.037	0.09	236074	keystroke_m	m	n/a
118.3215	0.09	236643	keystroke_Key.enter	Key.enter	n/a
118.419	6.5495	236838	prompt	n/a	josh nervous derek frank\n
119.191	0.075	238382	keystroke_j	j	n/a
119.311	0.1055	238622	keystroke_o	o	n/a
119.4315	0.105	238863	keystroke_s	s	n/a
119.5515	0.0905	239103	keystroke_h	h	n/a
119.6715	0.105	239343	keystroke_Key.space	Key.space	n/a
119.9715	0.0905	239943	keystroke_n	n	n/a
120.121	0.091	240242	keystroke_e	e	n/a
120.197	0.1045	240394	keystroke_r	r	n/a
120.557	0.09	241114	keystroke_v	v	n/a
121.0065	0.15	242013	keystroke_o	o	n/a
121.1115	0.135	242223	keystroke_u	u	n/a
121.2615	0.12	242523	keystroke_s	s	n/a
121.4715	0.075	242943	keystroke_Key.space	Key.space	n/a
121.6965	0.075	243393	keystroke_d	d	n/a
121.8915	0.0605	243783	keystroke_e	e	n/a
122.012	0.0895	244024	keystroke_r	r	n/a
122.1465	0.0905	244293	keystroke_e	e	n/a
122.312	0.104	244624	keystroke_k	k	n/a
122.461	0.075	244922	keystroke_Key.space	Key.space	n/a
123.677	0.06	247354	keystroke_f	f	n/a
123.767	0.074	247534	keystroke_r	r	n/a
124.096	0.105	248192	keystroke_a	a	n/a
124.217	0.074	248434	keystroke_n	n	n/a
124.412	0.075	248824	keystroke_k	k	n/a
124.876	0.09	249752	keystroke_Key.enter	Key.enter	n/a
124.982	8.3555	249964	prompt	n/a	tactics nested reviews every\n
125.6865	0.074	251373	keystroke_t	t	n/a
125.8505	0.076	251701	keystroke_a	a	n/a
126.0455	0.075	252091	keystroke_c	c	n/a
126.4515	0.0755	252903	keystroke_t	t	n/a
126.5715	0.09	253143	keystroke_i	i	n/a
126.7515	0.09	253503	keystroke_c	c	n/a
126.977	0.0895	253954	keystroke_s	s	n/a
127.1415	0.075	254283	keystroke_Key.space	Key.space	n/a
127.427	0.0895	254854	keystroke_n	n	n/a
127.621	0.075	255242	keystroke_e	e	n/a
127.816	0.09	255632	keystroke_s	s	n/a
128.0115	0.06	256023	keystroke_t	t	n/a
128.3115	0.075	256623	keystroke_e	e	n/a
128.4915	0.09	256983	keystroke_d	d	n/a
128.656	0.075	257312	keystroke_Key.space	Key.space	n/a
128.8965	0.1045	257793	keystroke_r	r	n/a
129.062	0.074	258124	keystroke_e	e	n/a
129.5115	0.075	259023	keystroke_v	v	n/a
129.7065	0.075	259413	keystroke_e	e	n/a
129.946	0.105	259892	keystroke_i	i	n/a
130.4415	0.195	260883	keystroke_Key.backspace	Key.backspace	n/a
131.086	0.075	262172	keystroke_Key.backspace	Key.backspace	n/a
131.3265	0.105	262653	keystroke_i	i	n/a
131.4765	0.1055	262953	keystroke_e	e	n/a
131.6265	0.0895	263253	keystroke_w	w	n/a
132.0765	0.105	264153	keystroke_s	s	n/a
132.2415	0.1045	264483	keystroke_Key.space	Key.space	n/a
132.452	0.074	264904	keystroke_e	e	n/a
132.5865	0.09	265173	keystroke_v	v	n/a
132.7065	0.121	265413	keystroke_e	e	n/a
132.7965	0.1205	265593	keystroke_r	r	n/a
132.9465	0.1055	265893	keystroke_y	y	n/a
133.2305	0.105	266461	keystroke_Key.enter	Key.enter	n/a
133.352	7.3975	266704	prompt	n/a	matrix innovations limitations progress\n
134.2065	0.12	268413	keystroke_m	m	n/a
134.3415	0.1045	268683	keystroke_a	a	n/a
134.521	0.076	269042	keystroke_t	t	n/a
134.686	0.076	269372	keystroke_r	r	n/a
134.807	0.09	269614	keystroke_i	i	n/a
134.9415	0.1055	269883	keystroke_x	x	n/a
135.076	0.105	270152	keystroke_Key.space	Key.space	n/a
135.376	0.061	270752	keystroke_i	i	n/a
135.511	0.091	271022	keystroke_n	n	n/a
135.6915	0.075	271383	keystroke_n	n	n/a
135.8415	0.105	271683	keystroke_o	o	n/a
136.216	0.0605	272432	keystroke_v	v	n/a
136.3215	0.135	272643	keystroke_a	a	n/a
136.442	0.0895	272884	keystroke_t	t	n/a
136.547	0.119	273094	keystroke_i	i	n/a
136.6365	0.1645	273273	keystroke_o	o	n/a
136.7415	0.195	273483	keystroke_n	n	n/a
136.8765	0.09	273753	keystroke_s	s	n/a
136.9965	0.105	273993	keystroke_Key.space	Key.space	n/a
137.207	0.0745	274414	keystroke_l	l	n/a
137.3415	0.1045	274683	keystroke_i	i	n/a
137.567	0.0895	275134	keystroke_m	m	n/a
137.7015	0.09	275403	keystroke_i	i	n/a
138.0165	0.059	276033	keystroke_t	t	n/a
138.1355	0.1205	276271	keystroke_a	a	n/a
138.2865	0.09	276573	keystroke_t	t	n/a
138.392	0.135	276784	keystroke_i	i	n/a
138.4955	0.1505	276991	keystroke_o	o	n/a
138.5865	0.1945	277173	keystroke_n	n	n/a
138.736	0.106	277472	keystroke_s	s	n/a
138.871	0.075	277742	keystroke_Key.space	Key.space	n/a
139.1565	0.1055	278313	keystroke_p	p	n/a
139.2765	0.091	278553	keystroke_r	r	n/a
139.3965	0.104	278793	keystroke_o	o	n/a
139.7415	0.0755	279483	keystroke_g	g	n/a
139.921	0.106	279842	keystroke_r	r	n/a
140.042	0.089	280084	keystroke_e	e	n/a
140.297	0.075	280594	keystroke_s	s	n/a
140.447	0.09	280894	keystroke_s	s	n/a
140.641	0.105	281282	keystroke_Key.enter	Key.enter	n/a
140.7535	9.745	281507	prompt	n/a	proceedings clock husband haven't\n
141.5565	0.03	283113	keystroke_p	p	n/a
141.5715	0.045	283143	keystroke_r	r	n/a
141.6465	0.105	283293	keystroke_o	o	n/a
142.0215	0.09	284043	keystroke_c	c	n/a
142.2465	0.0755	284493	keystroke_e	e	n/a
142.5615	0.0755	285123	keystroke_e	e	n/a
142.817	0.075	285634	keystroke_d	d	n/a
143.0105	0.1205	286021	keystroke_i	i	n/a
143.101	0.1655	286202	keystroke_n	n	n/a
143.191	0.0905	286382	keystroke_g	g	n/a
143.357	0.119	286714	keystroke_s	s	n/a
143.506	0.09	287012	keystroke_Key.space	Key.space	n/a
144.0015	0.045	288003	keystroke_c	c	n/a
144.0615	0.09	288123	keystroke_l	l	n/a
144.2415	0.09	288483	keystroke_o	o	n/a
144.4065	0.09	288813	keystroke_s	s	n/a
144.8565	0.045	289713	keystroke_Key.backspace	Key.backspace	n/a
145.0075	0.074	290015	keystroke_c	c	n/a
145.1415	0.09	290283	keystroke_k	k	n/a
145.306	0.0755	290612	keystroke_Key.space	Key.space	n/a
146.1765	0.0755	292353	keystroke_h	h	n/a
146.357	0.0745	292714	keystroke_u	u	n/a
146.552	0.0745	293104	keystroke_s	s	n/a
146.762	0.0745	293524	keystroke_b	b	n/a
147.331	0.105	294662	keystroke_a	a	n/a
147.421	0.105	294842	keystroke_n	n	n/a
147.557	0.0895	295114	keystroke_d	d	n/a
147.707	0.089	295414	keystroke_Key.space	Key.space	n/a
147.991	0.0905	295982	keystroke_h	h	n/a
148.097	0.1195	296194	keystroke_a	a	n/a
148.2915	0.09	296583	keystroke_v	v	n/a
148.6215	0.0905	297243	keystroke_e	e	n/a
148.7565	0.09	297513	keystroke_n	n	n/a
148.8915	0.09	297783	keystroke_t	t	n/a
149.5515	0.0145	299103	keystroke_Key.backspace	Key.backspace	n/a
149.717	0.135	299434	keystroke_'	'	n/a
150.1515	0.075	300303	keystroke_t	t	n/a
150.4065	0.09	300813	keystroke_Key.enter	Key.enter	n/a
150.507	5.016	301014	prompt	n/a	elevation cent seek were\n
151.2015	0.09	302403	keystroke_e	e	n/a
151.3665	0.1055	302733	keystroke_l	l	n/a
151.532	0.075	303064	keystroke_e	e	n/a
151.787	0.089	303574	keystroke_v	v	n/a
151.951	0.106	303902	keystroke_a	a	n/a
152.147	0.06	304294	keystroke_t	t	n/a
152.192	0.1195	304384	keystroke_i	i	n/a
152.2965	0.15	304593	keystroke_o	o	n/a
152.4015	0.18	304803	keystroke_n	n	n/a
152.5365	0.074	305073	keystroke_Key.space	Key.space	n/a
152.7765	0.075	305553	keystroke_c	c	n/a
153.0015	0.075	306003	keystroke_e	e	n/a
153.1215	0.09	306243	keystroke_n	n	n/a
153.2865	0.075	306573	keystroke_t	t	n/a
153.4365	0.0895	306873	keystroke_Key.space	Key.space	n/a
153.721	0.09	307442	keystroke_s	s	n/a
153.9165	0.0455	307833	keystroke_e	e	n/a
154.051	0.075	308102	keystroke_e	e	n/a
154.1865	0.105	308373	keystroke_k	k	n/a
154.3065	0.075	308613	keystroke_Key.space	Key.space	n/a
154.562	0.09	309124	keystroke_w	w	n/a
154.7715	0.09	309543	keystroke_e	e	n/a
154.847	0.1645	309694	keystroke_r	r	n/a
154.996	0.106	309992	keystroke_e	e	n/a
155.4315	0.089	310863	keystroke_Key.enter	Key.enter	n/a
155.528	7.795	311056	prompt	n/a	sunrise docs haven affairs\n
156.7515	0.09	313503	keystroke_s	s	n/a
157.0815	0.089	314163	keystroke_u	u	n/a
157.772	0.089	315544	keystroke_n	n	n/a
158.2665	0.075	316533	keystroke_r	r	n/a
158.3715	0.105	316743	keystroke_i	i	n/a
158.522	0.1045	317044	keystroke_s	s	n/a
158.6555	0.091	317311	keystroke_e	e	n/a
158.7905	0.076	317581	keystroke_Key.space	Key.space	n/a
159.151	0.06	318302	keystroke_d	d	n/a
159.2715	0.1055	318543	keystroke_o	o	n/a
159.3915	0.09	318783	keystroke_c	c	n/a
159.5865	0.09	319173	keystroke_s	s	n/a
159.7515	0.075	319503	keystroke_Key.space	Key.space	n/a
160.126	0.091	320252	keystroke_h	h	n/a
160.246	0.121	320492	keystroke_a	a	n/a
160.531	0.075	321062	keystroke_v	v	n/a
160.877	0.074	321754	keystroke_e	e	n/a
161.012	0.089	322024	keystroke_n	n	n/a
161.341	0.0755	322682	keystroke_Key.space	Key.space	n/a
161.6865	0.1045	323373	keystroke_a	a	n/a
162.0015	0.0905	324003	keystroke_f	f	n/a
162.1965	0.0905	324393	keystroke_f	f	n/a
162.6015	0.12	325203	keystroke_a	a	n/a
162.7365	0.09	325473	keystroke_i	i	n/a
162.8715	0.0745	325743	keystroke_r	r	n/a
163.066	0.09	326132	keystroke_s	s	n/a
163.231	0.09	326462	keystroke_Key.enter	Key.enter	n/a
163.3355	13.2775	326671	prompt	n/a	sleeping transaction interpreted connection\n
164.147	0.09	328294	keystroke_s	s	n/a
164.326	0.1505	328652	keystroke_l	l	n/a
164.581	0.076	329162	keystroke_e	e	n/a
164.731	0.0755	329462	keystroke_e	e	n/a
164.8365	0.0895	329673	keystroke_p	p	n/a
165.0015	0.15	330003	keystroke_i	i	n/a
165.091	0.2255	330182	keystroke_n	n	n/a
165.166	0.135	330332	keystroke_g	g	n/a
165.286	0.075	330572	keystroke_Key.space	Key.space	n/a
165.4665	0.0755	330933	keystroke_t	t	n/a
165.617	0.075	331234	keystroke_r	r	n/a
165.8425	0.119	331685	keystroke_a	a	n/a
166.0065	0.1055	332013	keystroke_n	n	n/a
166.5625	0.089	333125	keystroke_s	s	n/a
166.7425	0.089	333485	keystroke_a	a	n/a
166.9965	0.0905	333993	keystroke_c	c	n/a
167.102	0.254	334204	keystroke_i	i	n/a
167.266	0.075	334532	keystroke_t	t	n/a
168.8115	0.075	337623	keystroke_Key.backspace	Key.backspace	n/a
171.7395	0.012	343479	keystroke_Key.backspace	Key.backspace	n/a
172.157	0.09	344314	keystroke_t	t	n/a
172.216	0.151	344432	keystroke_i	i	n/a
172.322	0.1495	344644	keystroke_o	o	n/a
172.412	0.165	344824	keystroke_n	n	n/a
172.532	0.075	345064	keystroke_Key.space	Key.space	n/a
172.727	0.075	345454	keystroke_i	i	n/a
172.862	0.104	345724	keystroke_n	n	n/a
172.997	0.075	345994	keystroke_t	t	n/a
173.147	0.105	346294	keystroke_e	e	n/a
173.236	0.105	346472	keystroke_r	r	n/a
173.5215	0.12	347043	keystroke_p	p	n/a
173.6715	0.12	347343	keystroke_r	r	n/a
173.8065	0.09	347613	keystroke_e	e	n/a
174.1965	0.0905	348393	keystroke_t	t	n/a
174.4065	0.0905	348813	keystroke_e	e	n/a
174.647	0.09	349294	keystroke_d	d	n/a
174.782	0.105	349564	keystroke_Key.space	Key.space	n/a
175.082	0.105	350164	keystroke_c	c	n/a
175.171	0.105	350342	keystroke_o	o	n/a
175.262	0.105	350524	keystroke_n	n	n/a
175.442	0.09	350884	keystroke_n	n	n/a
175.534	0.073	351068	keystroke_e	e	n/a
175.742	0.045	351484	keystroke_c	c	n/a
175.861	0.0605	351722	keystroke_t	t	n/a
176.0265	0.12	352053	keystroke_i	i	n/a
176.1165	0.15	352233	keystroke_o	o	n/a
176.207	0.1795	352414	keystroke_n	n	n/a
176.5215	0.09	353043	keystroke_Key.enter	Key.enter	n/a
176.6275	8.236	353255	prompt	n/a	knights dictionary motivation delivering\n
177.3015	0.0895	354603	keystroke_k	k	n/a
177.526	0.076	355052	keystroke_n	n	n/a
177.692	0.075	355384	keystroke_i	i	n/a
177.871	0.076	355742	keystroke_g	g	n/a
177.932	0.09	355864	keystroke_h	h	n/a
178.037	0.075	356074	keystroke_t	t	n/a
178.2615	0.1045	356523	keystroke_s	s	n/a
178.547	0.0595	357094	keystroke_Key.space	Key.space	n/a
178.8015	0.0755	357603	keystroke_d	d	n/a
178.9215	0.105	357843	keystroke_i	i	n/a
179.0565	0.09	358113	keystroke_c	c	n/a
179.297	0.0745	358594	keystroke_t	t	n/a
179.5965	0.09	359193	keystroke_i	i	n/a
179.717	0.135	359434	keystroke_o	o	n/a
179.822	0.179	359644	keystroke_n	n	n/a
180.0465	0.1195	360093	keystroke_a	a	n/a
180.212	0.0745	360424	keystroke_y	y	n/a
180.8115	0.075	361623	keystroke_Key.backspace	Key.backspace	n/a
180.9315	0.0905	361863	keystroke_r	r	n/a
181.067	0.0895	362134	keystroke_y	y	n/a
181.1715	0.09	362343	keystroke_Key.space	Key.space	n/a
181.577	0.0745	363154	keystroke_m	m	n/a
181.712	0.1045	363424	keystroke_o	o	n/a
181.9215	0.075	363843	keystroke_t	t	n/a
182.0565	0.0905	364113	keystroke_i	i	n/a
182.357	0.075	364714	keystroke_v	v	n/a
182.477	0.135	364954	keystroke_a	a	n/a
182.614	0.058	365228	keystroke_t	t	n/a
182.7025	0.1195	365405	keystroke_i	i	n/a
182.792	0.165	365584	keystroke_o	o	n/a
182.912	0.164	365824	keystroke_n	n	n/a
183.047	0.074	366094	keystroke_Key.space	Key.space	n/a
183.227	0.09	366454	keystroke_d	d	n/a
183.421	0.0605	366842	keystroke_e	e	n/a
183.5565	0.1055	367113	keystroke_l	l	n/a
183.766	0.061	367532	keystroke_i	i	n/a
183.9015	0.075	367803	keystroke_v	v	n/a
184.0515	0.09	368103	keystroke_e	e	n/a
184.1275	0.104	368255	keystroke_r	r	n/a
184.351	0.136	368702	keystroke_i	i	n/a
184.427	0.1945	368854	keystroke_n	n	n/a
184.562	0.0895	369124	keystroke_g	g	n/a
184.772	0.0895	369544	keystroke_Key.enter	Key.enter	n/a
184.868	7.645	369736	prompt	n/a	float designer palmer secretary\n
185.5665	0.09	371133	keystroke_f	f	n/a
185.6715	0.09	371343	keystroke_l	l	n/a
185.8515	0.076	371703	keystroke_o	o	n/a
186.0315	0.0905	372063	keystroke_a	a	n/a
186.1525	0.0895	372305	keystroke_t	t	n/a
186.287	0.0595	372574	keystroke_Key.space	Key.space	n/a
186.452	0.105	372904	keystroke_d	d	n/a
186.6325	0.0745	373265	keystroke_e	e	n/a
186.827	0.075	373654	keystroke_s	s	n/a
186.932	0.09	373864	keystroke_i	i	n/a
187.037	0.076	374074	keystroke_g	g	n/a
187.127	0.135	374254	keystroke_n	n	n/a
187.547	0.0895	375094	keystroke_e	e	n/a
187.6215	0.136	375243	keystroke_r	r	n/a
187.772	0.0745	375544	keystroke_Key.space	Key.space	n/a
188.252	0.09	376504	keystroke_p	p	n/a
188.4025	0.1195	376805	keystroke_a	a	n/a
189.347	0.0895	378694	keystroke_l	l	n/a
189.617	0.09	379234	keystroke_m	m	n/a
189.722	0.104	379444	keystroke_e	e	n/a
189.811	0.1205	379622	keystroke_r	r	n/a
189.917	0.104	379834	keystroke_Key.space	Key.space	n/a
190.157	0.104	380314	keystroke_s	s	n/a
190.697	0.09	381394	keystroke_e	e	n/a
191.0865	0.0605	382173	keystroke_c	c	n/a
191.2965	0.075	382593	keystroke_r	r	n/a
191.432	0.075	382864	keystroke_e	e	n/a
191.718	0.074	383436	keystroke_t	t	n/a
191.882	0.12	383764	keystroke_a	a	n/a
192.032	0.089	384064	keystroke_r	r	n/a
192.166	0.09	384332	keystroke_y	y	n/a
192.436	0.075	384872	keystroke_Key.enter	Key.enter	n/a
192.5165	6.5975	385033	prompt	n/a	trinity competing pour blvd\n
193.3215	0.075	386643	keystroke_t	t	n/a
193.502	0.075	387004	keystroke_r	r	n/a
193.7115	0.0755	387423	keystroke_i	i	n/a
193.9365	0.0755	387873	keystroke_n	n	n/a
194.0715	0.09	388143	keystroke_i	i	n/a
194.222	0.074	388444	keystroke_t	t	n/a
194.327	0.105	388654	keystroke_y	y	n/a
194.447	0.075	388894	keystroke_Key.space	Key.space	n/a
194.657	0.089	389314	keystroke_c	c	n/a
194.7765	0.1205	389553	keystroke_o	o	n/a
194.8665	0.1505	389733	keystroke_m	m	n/a
195.182	0.09	390364	keystroke_p	p	n/a
195.301	0.105	390602	keystroke_e	e	n/a
195.436	0.106	390872	keystroke_t	t	n/a
195.812	0.12	391624	keystroke_i	i	n/a
195.8715	0.2105	391743	keystroke_n	n	n/a
195.977	0.135	391954	keystroke_g	g	n/a
196.0965	0.09	392193	keystroke_Key.space	Key.space	n/a
196.3065	0.0905	392613	keystroke_p	p	n/a
196.6215	0.0455	393243	keystroke_u	u	n/a
197.0125	0.059	394025	keystroke_Key.backspace	Key.backspace	n/a
197.2665	0.09	394533	keystroke_o	o	n/a
197.327	0.12	394654	keystroke_u	u	n/a
197.477	0.09	394954	keystroke_r	r	n/a
197.642	0.075	395284	keystroke_Key.space	Key.space	n/a
197.8515	0.075	395703	keystroke_b	b	n/a
197.9865	0.105	395973	keystroke_l	l	n/a
198.5115	0.0745	397023	keystroke_v	v	n/a
198.796	0.0905	397592	keystroke_d	d	n/a
199.022	0.089	398044	keystroke_Key.enter	Key.enter	n/a
199.1275	8.731	398255	prompt	n/a	combining brisbane standing achieved\n
199.891	0.091	399782	keystroke_c	c	n/a
199.9965	0.1505	399993	keystroke_o	o	n/a
200.087	0.18	400174	keystroke_m	m	n/a
200.417	0.015	400834	keystroke_b	b	n/a
200.492	0.135	400984	keystroke_i	i	n/a
200.581	0.1505	401162	keystroke_n	n	n/a
201.1065	0.105	402213	keystroke_i	i	n/a
201.1815	0.21	402363	keystroke_n	n	n/a
201.3015	0.105	402603	keystroke_g	g	n/a
201.4215	0.0905	402843	keystroke_Key.space	Key.space	n/a
201.8415	0.09	403683	keystroke_b	b	n/a
202.1115	0.0755	404223	keystroke_r	r	n/a
202.637	0.1045	405274	keystroke_i	i	n/a
202.817	0.1045	405634	keystroke_s	s	n/a
203.0715	0.075	406143	keystroke_b	b	n/a
203.267	0.089	406534	keystroke_a	a	n/a
203.372	0.105	406744	keystroke_n	n	n/a
203.7015	0.09	407403	keystroke_c	c	n/a
204.1525	0.089	408305	keystroke_Key.backspace	Key.backspace	n/a
204.3175	0.0895	408635	keystroke_e	e	n/a
204.436	0.1055	408872	keystroke_Key.space	Key.space	n/a
204.677	0.089	409354	keystroke_s	s	n/a
204.812	0.089	409624	keystroke_t	t	n/a
204.9615	0.1055	409923	keystroke_a	a	n/a
205.3215	0.0905	410643	keystroke_n	n	n/a
205.5315	0.075	411063	keystroke_d	d	n/a
205.6815	0.1505	411363	keystroke_i	i	n/a
205.7715	0.1955	411543	keystroke_n	n	n/a
205.8615	0.1055	411723	keystroke_g	g	n/a
205.982	0.074	411964	keystroke_Key.space	Key.space	n/a
206.2815	0.1055	412563	keystroke_a	a	n/a
206.552	0.075	413104	keystroke_c	c	n/a
206.597	0.12	413194	keystroke_h	h	n/a
206.822	0.105	413644	keystroke_i	i	n/a
207.047	0.074	414094	keystroke_e	e	n/a
207.152	0.12	414304	keystroke_v	v	n/a
207.302	0.09	414604	keystroke_e	e	n/a
207.5555	0.0615	415111	keystroke_d	d	n/a
207.7515	0.1045	415503	keystroke_Key.enter	Key.enter	n/a
207.8655	13.6575	415731	prompt	n/a	visibility paperbacks meter compatibility\n
208.622	0.0905	417244	keystroke_v	v	n/a
208.801	0.0595	417602	keystroke_i	i	n/a
208.9815	0.1055	417963	keystroke_s	s	n/a
209.102	0.1035	418204	keystroke_i	i	n/a
209.342	0.0745	418684	keystroke_b	b	n/a
209.4915	0.075	418983	keystroke_i	i	n/a
209.6415	0.075	419283	keystroke_t	t	n/a
209.7175	0.1495	419435	keystroke_l	l	n/a
209.8365	0.136	419673	keystroke_i	i	n/a
211.517	0.074	423034	keystroke_Key.backspace	Key.backspace	n/a
212.461	0.09	424922	keystroke_Key.backspace	Key.backspace	n/a
213.7065	0.075	427413	keystroke_Key.backspace	Key.backspace	n/a
214.0215	0.0895	428043	keystroke_l	l	n/a
214.1715	0.06	428343	keystroke_i	i	n/a
214.3065	0.0755	428613	keystroke_t	t	n/a
214.4415	0.0905	428883	keystroke_y	y	n/a
214.6365	0.06	429273	keystroke_Key.space	Key.space	n/a
214.9815	0.1055	429963	keystroke_p	p	n/a
215.117	0.105	430234	keystroke_a	a	n/a
215.237	0.105	430474	keystroke_p	p	n/a
215.327	0.1045	430654	keystroke_e	e	n/a
215.417	0.119	430834	keystroke_r	r	n/a
215.521	0.0905	431042	keystroke_Key.space	Key.space	n/a
216.0165	0.09	432033	keystroke_Key.backspace	Key.backspace	n/a
216.302	0.074	432604	keystroke_b	b	n/a
216.421	0.1215	432842	keystroke_a	a	n/a
216.631	0.09	433262	keystroke_c	c	n/a
216.752	0.089	433504	keystroke_k	k	n/a
216.8715	0.106	433743	keystroke_s	s	n/a
217.022	0.075	434044	keystroke_Key.space	Key.space	n/a
217.232	0.09	434464	keystroke_m	m	n/a
217.3515	0.0745	434703	keystroke_e	e	n/a
217.441	0.09	434882	keystroke_t	t	n/a
217.5765	0.1055	435153	keystroke_e	e	n/a
217.667	0.1645	435334	keystroke_r	r	n/a
217.8615	0.075	435723	keystroke_Key.space	Key.space	n/a
218.1915	0.09	436383	keystroke_c	c	n/a
218.4015	0.09	436803	keystroke_o	o	n/a
218.5365	0.0905	437073	keystroke_m	m	n/a
218.7165	0.09	437433	keystroke_p	p	n/a
218.821	0.106	437642	keystroke_a	a	n/a
219.647	0.089	439294	keystroke_t	t	n/a
219.9915	0.075	439983	keystroke_i	i	n/a
220.396	0.091	440792	keystroke_b	b	n/a
220.532	0.09	441064	keystroke_i	i	n/a
220.7565	0.09	441513	keystroke_l	l	n/a
220.892	0.0745	441784	keystroke_i	i	n/a
221.0115	0.075	442023	keystroke_t	t	n/a
221.117	0.0895	442234	keystroke_y	y	n/a
221.4165	0.105	442833	keystroke_Key.enter	Key.enter	n/a
221.53	5.693	443060	prompt	n/a	expanded quoted now enemy\n
222.227	0.089	444454	keystroke_e	e	n/a
222.452	0.09	444904	keystroke_x	x	n/a
222.631	0.0895	445262	keystroke_p	p	n/a
222.8115	0.105	445623	keystroke_a	a	n/a
222.9015	0.106	445803	keystroke_n	n	n/a
223.036	0.0905	446072	keystroke_d	d	n/a
223.247	0.059	446494	keystroke_e	e	n/a
223.412	0.074	446824	keystroke_d	d	n/a
223.5015	0.0895	447003	keystroke_Key.space	Key.space	n/a
223.892	0.015	447784	keystroke_q	q	n/a
223.936	0.075	447872	keystroke_u	u	n/a
224.132	0.105	448264	keystroke_o	o	n/a
224.282	0.075	448564	keystroke_t	t	n/a
224.4015	0.0755	448803	keystroke_e	e	n/a
224.5975	0.0745	449195	keystroke_d	d	n/a
224.7015	0.075	449403	keystroke_Key.space	Key.space	n/a
224.8975	0.074	449795	keystroke_n	n	n/a
225.0165	0.1195	450033	keystroke_o	o	n/a
225.496	0.105	450992	keystroke_w	w	n/a
225.6615	0.09	451323	keystroke_Key.space	Key.space	n/a
225.917	0.089	451834	keystroke_e	e	n/a
226.052	0.09	452104	keystroke_n	n	n/a
226.321	0.09	452642	keystroke_e	e	n/a
226.636	0.076	453272	keystroke_m	m	n/a
226.846	0.075	453692	keystroke_y	y	n/a
227.1315	0.09	454263	keystroke_Key.enter	Key.enter	n/a
227.231	7.087	454462	prompt	n/a	signatures carried boating apollo\n
227.987	0.089	455974	keystroke_s	s	n/a
228.106	0.076	456212	keystroke_i	i	n/a
228.241	0.0905	456482	keystroke_g	g	n/a
228.497	0.09	456994	keystroke_n	n	n/a
228.617	0.12	457234	keystroke_a	a	n/a
228.9465	0.0595	457893	keystroke_t	t	n/a
229.021	0.0915	458042	keystroke_u	u	n/a
229.142	0.105	458284	keystroke_r	r	n/a
229.232	0.074	458464	keystroke_e	e	n/a
229.441	0.091	458882	keystroke_s	s	n/a
229.5615	0.0745	459123	keystroke_Key.space	Key.space	n/a
229.757	0.0895	459514	keystroke_c	c	n/a
229.906	0.1055	459812	keystroke_a	a	n/a
230.1165	0.0595	460233	keystroke_r	r	n/a
230.2515	0.075	460503	keystroke_r	r	n/a
230.401	0.1055	460802	keystroke_i	i	n/a
230.5515	0.075	461103	keystroke_e	e	n/a
230.7315	0.0755	461463	keystroke_d	d	n/a
230.8365	0.09	461673	keystroke_Key.space	Key.space	n/a
231.1365	0.0605	462273	keystroke_b	b	n/a
231.302	0.09	462604	keystroke_o	o	n/a
231.437	0.105	462874	keystroke_a	a	n/a
231.632	0.075	463264	keystroke_t	t	n/a
231.797	0.1195	463594	keystroke_i	i	n/a
231.872	0.1795	463744	keystroke_n	n	n/a
231.9615	0.12	463923	keystroke_g	g	n/a
232.0665	0.09	464133	keystroke_Key.space	Key.space	n/a
232.4565	0.105	464913	keystroke_a	a	n/a
232.6215	0.0905	465243	keystroke_p	p	n/a
233.222	0.09	466444	keystroke_o	o	n/a
233.5365	0.045	467073	keystroke_l	l	n/a
233.672	0.0745	467344	keystroke_l	l	n/a
233.8365	0.09	467673	keystroke_o	o	n/a
234.2265	0.09	468453	keystroke_Key.enter	Key.enter	n/a
234.341	7.492	468682	prompt	n/a	hang german ultimately literally\n
235.112	0.074	470224	keystroke_h	h	n/a
235.201	0.12	470402	keystroke_a	a	n/a
235.291	0.12	470582	keystroke_n	n	n/a
235.456	0.09	470912	keystroke_d	d	n/a
235.591	0.0755	471182	keystroke_Key.space	Key.space	n/a
235.786	0.0755	471572	keystroke_g	g	n/a
236.042	0.1045	472084	keystroke_e	e	n/a
236.116	0.106	472232	keystroke_r	r	n/a
236.3415	0.0895	472683	keystroke_m	m	n/a
236.461	0.1205	472922	keystroke_a	a	n/a
236.5665	0.105	473133	keystroke_n	n	n/a
236.7015	0.0905	473403	keystroke_Key.space	Key.space	n/a
237.1065	0.09	474213	keystroke_u	u	n/a
237.4665	0.105	474933	keystroke_l	l	n/a
238.171	0.075	476342	keystroke_t	t	n/a
238.336	0.091	476672	keystroke_i	i	n/a
238.621	0.1055	477242	keystroke_m	m	n/a
238.772	0.119	477544	keystroke_a	a	n/a
238.862	0.119	477724	keystroke_t	t	n/a
239.0115	0.1055	478023	keystroke_e	e	n/a
239.1915	0.15	478383	keystroke_l	l	n/a
239.3115	0.1205	478623	keystroke_y	y	n/a
239.4615	0.0595	478923	keystroke_Key.space	Key.space	n/a
239.641	0.0905	479282	keystroke_l	l	n/a
239.777	0.09	479554	keystroke_i	i	n/a
240.017	0.0745	480034	keystroke_t	t	n/a
240.1665	0.105	480333	keystroke_e	e	n/a
240.257	0.1195	480514	keystroke_r	r	n/a
240.5565	0.1205	481113	keystroke_a	a	n/a
240.7665	0.0755	481533	keystroke_l	l	n/a
240.961	0.0455	481922	keystroke_l	l	n/a
241.412	0.0295	482824	keystroke_y	y	n/a
241.7565	0.0745	483513	keystroke_Key.enter	Key.enter	n/a
241.844	8.224	483688	prompt	n/a	compile arbitration karen accurately\n
242.597	0.089	485194	keystroke_c	c	n/a
242.701	0.1205	485402	keystroke_o	o	n/a
242.776	0.166	485552	keystroke_m	m	n/a
243.1365	0.0905	486273	keystroke_p	p	n/a
243.3465	0.0745	486693	keystroke_i	i	n/a
243.6915	0.045	487383	keystroke_l	l	n/a
244.217	0.0445	488434	keystroke_e	e	n/a
244.3515	0.09	488703	keystroke_Key.space	Key.space	n/a
244.7115	0.1205	489423	keystroke_a	a	n/a
244.877	0.0745	489754	keystroke_r	r	n/a
245.3565	0.075	490713	keystroke_b	b	n/a
245.686	0.0905	491372	keystroke_i	i	n/a
245.9575	0.0745	491915	keystroke_t	t	n/a
246.302	0.075	492604	keystroke_r	r	n/a
246.452	0.105	492904	keystroke_a	a	n/a
246.706	0.061	493412	keystroke_t	t	n/a
246.752	0.135	493504	keystroke_i	i	n/a
246.857	0.15	493714	keystroke_o	o	n/a
246.976	0.151	493952	keystroke_n	n	n/a
247.097	0.074	494194	keystroke_Key.space	Key.space	n/a
247.321	0.091	494642	keystroke_k	k	n/a
247.426	0.106	494852	keystroke_a	a	n/a
247.562	0.135	495124	keystroke_r	r	n/a
247.712	0.089	495424	keystroke_e	e	n/a
247.862	0.1055	495724	keystroke_n	n	n/a
247.9965	0.075	495993	keystroke_Key.space	Key.space	n/a
248.236	0.09	496472	keystroke_a	a	n/a
248.492	0.074	496984	keystroke_c	c	n/a
248.656	0.0765	497312	keystroke_c	c	n/a
248.777	0.089	497554	keystroke_u	u	n/a
248.9865	0.075	497973	keystroke_r	r	n/a
249.1065	0.1055	498213	keystroke_a	a	n/a
249.2565	0.09	498513	keystroke_t	t	n/a
249.3765	0.075	498753	keystroke_e	e	n/a
249.5565	0.12	499113	keystroke_l	l	n/a
249.6915	0.105	499383	keystroke_y	y	n/a
249.977	0.089	499954	keystroke_Key.enter	Key.enter	n/a
250.075	6.788	500150	prompt	n/a	marion weighted consist arabia\n
250.7715	0.105	501543	keystroke_m	m	n/a
250.8465	0.12	501693	keystroke_a	a	n/a
251.192	0.09	502384	keystroke_r	r	n/a
251.296	0.1355	502592	keystroke_i	i	n/a
251.402	0.149	502804	keystroke_o	o	n/a
251.521	0.1505	503042	keystroke_n	n	n/a
251.7015	0.09	503403	keystroke_Key.space	Key.space	n/a
251.9865	0.12	503973	keystroke_w	w	n/a
252.1815	0.0905	504363	keystroke_e	e	n/a
252.346	0.091	504692	keystroke_i	i	n/a
252.572	0.0755	505144	keystroke_g	g	n/a
252.662	0.105	505324	keystroke_h	h	n/a
252.752	0.0755	505504	keystroke_t	t	n/a
252.946	0.0605	505892	keystroke_e	e	n/a
253.112	0.075	506224	keystroke_d	d	n/a
253.2165	0.0895	506433	keystroke_Key.space	Key.space	n/a
253.427	0.089	506854	keystroke_c	c	n/a
253.5315	0.1345	507063	keystroke_o	o	n/a
253.636	0.151	507272	keystroke_n	n	n/a
253.877	0.075	507754	keystroke_s	s	n/a
253.9825	0.105	507965	keystroke_i	i	n/a
254.1015	0.09	508203	keystroke_s	s	n/a
254.2525	0.0895	508505	keystroke_t	t	n/a
254.6415	0.0745	509283	keystroke_Key.space	Key.space	n/a
255.482	0.0445	510964	keystroke_a	a	n/a
255.6315	0.09	511263	keystroke_r	r	n/a
255.8715	0.1055	511743	keystroke_a	a	n/a
256.2615	0.061	512523	keystroke_b	b	n/a
256.3825	0.119	512765	keystroke_i	i	n/a
256.4865	0.106	512973	keystroke_a	a	n/a
256.7565	0.105	513513	keystroke_Key.enter	Key.enter	n/a
256.871	7.747	513742	prompt	n/a	legacy dakota reproductive port\n
257.597	0.12	515194	keystroke_l	l	n/a
257.702	0.074	515404	keystroke_e	e	n/a
257.8815	0.075	515763	keystroke_g	g	n/a
258.016	0.105	516032	keystroke_a	a	n/a
258.3015	0.075	516603	keystroke_c	c	n/a
258.452	0.0745	516904	keystroke_y	y	n/a
258.6165	0.075	517233	keystroke_Key.space	Key.space	n/a
259.0215	0.075	518043	keystroke_d	d	n/a
259.306	0.106	518612	keystroke_a	a	n/a
259.697	0.075	519394	keystroke_k	k	n/a
259.891	0.0915	519782	keystroke_o	o	n/a
260.146	0.076	520292	keystroke_t	t	n/a
260.297	0.105	520594	keystroke_a	a	n/a
260.462	0.075	520924	keystroke_Key.space	Key.space	n/a
260.642	0.105	521284	keystroke_r	r	n/a
260.807	0.09	521614	keystroke_e	e	n/a
261.062	0.105	522124	keystroke_p	p	n/a
261.257	0.09	522514	keystroke_r	r	n/a
261.392	0.09	522784	keystroke_o	o	n/a
262.067	0.089	524134	keystroke_d	d	n/a
262.217	0.09	524434	keystroke_u	u	n/a
262.336	0.076	524672	keystroke_c	c	n/a
262.486	0.076	524972	keystroke_t	t	n/a
262.577	0.1645	525154	keystroke_i	i	n/a
263.012	0.0895	526024	keystroke_v	v	n/a
263.1615	0.0905	526323	keystroke_e	e	n/a
263.2815	0.0605	526563	keystroke_Key.space	Key.space	n/a
263.9715	0.075	527943	keystroke_p	p	n/a
264.1065	0.105	528213	keystroke_o	o	n/a
264.1815	0.075	528363	keystroke_r	r	n/a
264.332	0.0895	528664	keystroke_t	t	n/a
264.5265	0.09	529053	keystroke_Key.enter	Key.enter	n/a
264.623	8.9205	529246	prompt	n/a	hierarchy preparing mightn't walls\n
265.4265	0.075	530853	keystroke_h	h	n/a
265.802	0.0745	531604	keystroke_i	i	n/a
266.1165	0.09	532233	keystroke_e	e	n/a
266.4015	0.075	532803	keystroke_r	r	n/a
266.5365	0.105	533073	keystroke_a	a	n/a
267.211	0.09	534422	keystroke_r	r	n/a
267.5565	0.0905	535113	keystroke_c	c	n/a
267.677	0.074	535354	keystroke_h	h	n/a
267.856	0.0755	535712	keystroke_y	y	n/a
267.946	0.061	535892	keystroke_Key.space	Key.space	n/a
268.187	0.1045	536374	keystroke_p	p	n/a
268.3215	0.105	536643	keystroke_r	r	n/a
268.5765	0.0755	537153	keystroke_e	e	n/a
268.9665	0.045	537933	keystroke_p	p	n/a
269.0415	0.12	538083	keystroke_a	a	n/a
269.282	0.09	538564	keystroke_r	r	n/a
269.507	0.135	539014	keystroke_i	i	n/a
269.582	0.18	539164	keystroke_n	n	n/a
269.643	0.134	539286	keystroke_g	g	n/a
269.747	0.0895	539494	keystroke_Key.space	Key.space	n/a
269.957	0.0905	539914	keystroke_m	m	n/a
270.121	0.0905	540242	keystroke_i	i	n/a
270.286	0.091	540572	keystroke_g	g	n/a
270.6765	0.075	541353	keystroke_h	h	n/a
270.9315	0.09	541863	keystroke_t	t	n/a
271.3965	0.09	542793	keystroke_n	n	n/a
271.6065	0.1195	543213	keystroke_'	'	n/a
271.756	0.091	543512	keystroke_t	t	n/a
272.1605	0.0615	544321	keystroke_Key.space	Key.space	n/a
272.342	0.075	544684	keystroke_w	w	n/a
272.462	0.12	544924	keystroke_a	a	n/a
272.777	0.06	545554	keystroke_l	l	n/a
272.912	0.09	545824	keystroke_l	l	n/a
273.077	0.12	546154	keystroke_s	s	n/a
273.4365	0.104	546873	keystroke_Key.enter	Key.enter	n/a
273.5475	6.266	547095	prompt	n/a	select gets stationery bloggers\n
274.2315	0.0905	548463	keystroke_s	s	n/a
274.3965	0.0755	548793	keystroke_e	e	n/a
274.5465	0.09	549093	keystroke_l	l	n/a
274.6815	0.09	549363	keystroke_e	e	n/a
274.9215	0.0595	549843	keystroke_c	c	n/a
275.0865	0.0755	550173	keystroke_t	t	n/a
275.221	0.06	550442	keystroke_Key.space	Key.space	n/a
275.402	0.0745	550804	keystroke_g	g	n/a
275.5515	0.075	551103	keystroke_e	e	n/a
275.6565	0.0905	551313	keystroke_t	t	n/a
275.837	0.0745	551674	keystroke_s	s	n/a
275.9565	0.0755	551913	keystroke_Key.space	Key.space	n/a
276.1825	0.104	552365	keystroke_s	s	n/a
276.332	0.0745	552664	keystroke_t	t	n/a
276.482	0.1045	552964	keystroke_a	a	n/a
276.751	0.09	553502	keystroke_t	t	n/a
276.826	0.136	553652	keystroke_i	i	n/a
276.931	0.166	553862	keystroke_o	o	n/a
277.036	0.225	554072	keystroke_n	n	n/a
277.367	0.1045	554734	keystroke_e	e	n/a
277.4865	0.09	554973	keystroke_r	r	n/a
277.6215	0.1055	555243	keystroke_y	y	n/a
277.8325	0.059	555665	keystroke_Key.space	Key.space	n/a
278.0565	0.0905	556113	keystroke_b	b	n/a
278.192	0.09	556384	keystroke_l	l	n/a
278.386	0.076	556772	keystroke_o	o	n/a
278.971	0.09	557942	keystroke_g	g	n/a
279.091	0.046	558182	keystroke_g	g	n/a
279.211	0.12	558422	keystroke_e	e	n/a
279.3165	0.105	558633	keystroke_r	r	n/a
279.6315	0.015	559263	keystroke_s	s	n/a
279.7065	0.105	559413	keystroke_Key.enter	Key.enter	n/a
279.827	6.736	559654	prompt	n/a	cube filtering my pulled\n
280.592	0.0895	561184	keystroke_c	c	n/a
280.7415	0.075	561483	keystroke_u	u	n/a
280.8765	0.09	561753	keystroke_b	b	n/a
281.2665	0.0905	562533	keystroke_e	e	n/a
281.4465	0.09	562893	keystroke_Key.space	Key.space	n/a
281.927	0.09	563854	keystroke_f	f	n/a
282.061	0.076	564122	keystroke_i	i	n/a
282.332	0.105	564664	keystroke_l	l	n/a
282.6775	0.0595	565355	keystroke_t	t	n/a
282.872	0.1045	565744	keystroke_e	e	n/a
282.9615	0.09	565923	keystroke_r	r	n/a
283.1565	0.135	566313	keystroke_i	i	n/a
283.2465	0.21	566493	keystroke_n	n	n/a
283.3515	0.12	566703	keystroke_g	g	n/a
283.4415	0.09	566883	keystroke_Key.space	Key.space	n/a
283.6515	0.0755	567303	keystroke_m	m	n/a
284.0115	0.045	568023	keystroke_Key.space	Key.space	n/a
284.6565	0.0745	569313	keystroke_Key.backspace	Key.backspace	n/a
284.911	0.0755	569822	keystroke_y	y	n/a
285.1665	0.0595	570333	keystroke_Key.space	Key.space	n/a
285.4665	0.0905	570933	keystroke_p	p	n/a
285.6465	0.0745	571293	keystroke_u	u	n/a
285.9165	0.0745	571833	keystroke_l	l	n/a
286.067	0.0745	572134	keystroke_l	l	n/a
286.1715	0.075	572343	keystroke_e	e	n/a
286.352	0.0595	572704	keystroke_d	d	n/a
286.4715	0.09	572943	keystroke_Key.enter	Key.enter	n/a
286.568	8.065	573136	prompt	n/a	pills attended editorial detector\n
287.3415	0.075	574683	keystroke_p	p	n/a
287.5065	0.09	575013	keystroke_i	i	n/a
287.716	0.0755	575432	keystroke_l	l	n/a
287.8665	0.1045	575733	keystroke_l	l	n/a
288.0015	0.0595	576003	keystroke_s	s	n/a
288.091	0.075	576182	keystroke_Key.space	Key.space	n/a
288.3465	0.105	576693	keystroke_s	s	n/a
288.781	0.015	577562	keystroke_Key.backspace	Key.backspace	n/a
288.901	0.106	577802	keystroke_a	a	n/a
289.126	0.0755	578252	keystroke_t	t	n/a
289.3065	0.0595	578613	keystroke_t	t	n/a
289.486	0.0755	578972	keystroke_e	e	n/a
289.636	0.1055	579272	keystroke_n	n	n/a
289.8765	0.105	579753	keystroke_d	d	n/a
290.162	0.075	580324	keystroke_e	e	n/a
290.311	0.0905	580622	keystroke_d	d	n/a
290.4615	0.09	580923	keystroke_Key.space	Key.space	n/a
290.6865	0.0745	581373	keystroke_e	e	n/a
291.092	0.0895	582184	keystroke_d	d	n/a
291.2565	0.09	582513	keystroke_i	i	n/a
291.5565	0.075	583113	keystroke_t	t	n/a
291.7065	0.09	583413	keystroke_o	o	n/a
291.857	0.075	583714	keystroke_r	r	n/a
291.976	0.0905	583952	keystroke_i	i	n/a
292.0815	0.12	584163	keystroke_a	a	n/a
292.2165	0.135	584433	keystroke_l	l	n/a
292.3665	0.075	584733	keystroke_Key.space	Key.space	n/a
292.741	0.09	585482	keystroke_d	d	n/a
292.9365	0.0595	585873	keystroke_e	e	n/a
293.282	0.074	586564	keystroke_t	t	n/a
293.611	0.06	587222	keystroke_e	e	n/a
293.8365	0.0905	587673	keystroke_c	c	n/a
294.0615	0.0595	588123	keystroke_t	t	n/a
294.197	0.104	588394	keystroke_o	o	n/a
294.286	0.091	588572	keystroke_r	r	n/a
294.5265	0.105	589053	keystroke_Key.enter	Key.enter	n/a
294.6375	6.341	589275	prompt	n/a	missed mystery showcase groove\n
295.397	0.0445	590794	keystroke_m	m	n/a
295.456	0.0605	590912	keystroke_i	i	n/a
295.576	0.0915	591152	keystroke_s	s	n/a
295.727	0.0895	591454	keystroke_s	s	n/a
295.8915	0.0755	591783	keystroke_e	e	n/a
296.072	0.075	592144	keystroke_d	d	n/a
296.1615	0.0745	592323	keystroke_Key.space	Key.space	n/a
296.358	0.0735	592716	keystroke_m	m	n/a
296.567	0.06	593134	keystroke_y	y	n/a
296.792	0.0895	593584	keystroke_s	s	n/a
296.9865	0.0895	593973	keystroke_t	t	n/a
297.1515	0.075	594303	keystroke_e	e	n/a
297.2415	0.0895	594483	keystroke_r	r	n/a
297.3765	0.1195	594753	keystroke_y	y	n/a
297.601	0.0605	595202	keystroke_Key.space	Key.space	n/a
297.7965	0.1055	595593	keystroke_s	s	n/a
297.887	0.074	595774	keystroke_h	h	n/a
298.0365	0.105	596073	keystroke_o	o	n/a
298.1565	0.1055	596313	keystroke_w	w	n/a
298.4865	0.09	596973	keystroke_c	c	n/a
298.6365	0.1055	597273	keystroke_a	a	n/a
298.847	0.0905	597694	keystroke_s	s	n/a
298.9225	0.089	597845	keystroke_e	e	n/a
299.0415	0.0755	598083	keystroke_Key.space	Key.space	n/a
299.4325	0.06	598865	keystroke_g	g	n/a
299.6265	0.0755	599253	keystroke_r	r	n/a
299.8365	0.09	599673	keystroke_o	o	n/a
300.2865	0.076	600573	keystroke_o	o	n/a
300.4965	0.075	600993	keystroke_v	v	n/a
300.6915	0.06	601383	keystroke_e	e	n/a
300.8715	0.105	601743	keystroke_Key.enter	Key.enter	n/a
300.983	7.285	601966	prompt	n/a	ensemble athletic route craps\n
301.8165	0.09	603633	keystroke_e	e	n/a
301.9515	0.105	603903	keystroke_n	n	n/a
302.2215	0.105	604443	keystroke_s	s	n/a
302.402	0.09	604804	keystroke_e	e	n/a
303.107	0.09	606214	keystroke_m	m	n/a
303.3765	0.0755	606753	keystroke_b	b	n/a
303.571	0.106	607142	keystroke_l	l	n/a
303.6915	0.0905	607383	keystroke_e	e	n/a
303.856	0.0755	607712	keystroke_Key.space	Key.space	n/a
304.1275	0.1195	608255	keystroke_a	a	n/a
304.3815	0.0755	608763	keystroke_t	t	n/a
304.4415	0.12	608883	keystroke_h	h	n/a
305.0425	0.0895	610085	keystroke_l	l	n/a
305.207	0.0755	610414	keystroke_e	e	n/a
305.462	0.074	610924	keystroke_t	t	n/a
305.566	0.091	611132	keystroke_i	i	n/a
305.702	0.0745	611404	keystroke_c	c	n/a
305.851	0.09	611702	keystroke_Key.space	Key.space	n/a
306.287	0.075	612574	keystroke_r	r	n/a
306.422	0.12	612844	keystroke_o	o	n/a
306.512	0.1345	613024	keystroke_u	u	n/a
306.6765	0.075	613353	keystroke_t	t	n/a
306.872	0.06	613744	keystroke_e	e	n/a
306.992	0.074	613984	keystroke_Key.space	Key.space	n/a
307.187	0.075	614374	keystroke_c	c	n/a
307.397	0.061	614794	keystroke_r	r	n/a
307.5765	0.1045	615153	keystroke_a	a	n/a
307.727	0.1045	615454	keystroke_p	p	n/a
307.9825	0.1045	615965	keystroke_s	s	n/a
308.176	0.0905	616352	keystroke_Key.enter	Key.enter	n/a
308.275	7.8535	616550	prompt	n/a	kerry paradise archived elimination\n
308.9725	0.09	617945	keystroke_k	k	n/a
309.0915	0.061	618183	keystroke_e	e	n/a
309.227	0.09	618454	keystroke_r	r	n/a
309.3765	0.09	618753	keystroke_r	r	n/a
309.4975	0.105	618995	keystroke_y	y	n/a
309.617	0.0745	619234	keystroke_Key.space	Key.space	n/a
309.7965	0.12	619593	keystroke_p	p	n/a
309.976	0.106	619952	keystroke_a	a	n/a
310.142	0.075	620284	keystroke_r	r	n/a
310.262	0.1055	620524	keystroke_a	a	n/a
310.5765	0.09	621153	keystroke_d	d	n/a
310.7265	0.09	621453	keystroke_i	i	n/a
310.8465	0.105	621693	keystroke_s	s	n/a
310.997	0.09	621994	keystroke_e	e	n/a
311.3415	0.0605	622683	keystroke_Key.space	Key.space	n/a
311.7765	0.105	623553	keystroke_a	a	n/a
311.8965	0.075	623793	keystroke_r	r	n/a
312.1365	0.091	624273	keystroke_c	c	n/a
312.2415	0.091	624483	keystroke_h	h	n/a
312.3175	0.164	624635	keystroke_i	i	n/a
312.677	0.09	625354	keystroke_v	v	n/a
312.842	0.09	625684	keystroke_e	e	n/a
313.442	0.09	626884	keystroke_d	d	n/a
313.607	0.075	627214	keystroke_Key.space	Key.space	n/a
314.027	0.0145	628054	keystroke_e	e	n/a
314.0565	0.076	628113	keystroke_l	l	n/a
314.5225	0.045	629045	keystroke_i	i	n/a
314.7765	0.075	629553	keystroke_m	m	n/a
314.9415	0.075	629883	keystroke_i	i	n/a
315.0915	0.12	630183	keystroke_n	n	n/a
315.272	0.12	630544	keystroke_a	a	n/a
315.346	0.105	630692	keystroke_t	t	n/a
315.497	0.135	630994	keystroke_i	i	n/a
315.602	0.1505	631204	keystroke_o	o	n/a
315.7075	0.18	631415	keystroke_n	n	n/a
316.0365	0.09	632073	keystroke_Key.enter	Key.enter	n/a
316.1365	7.897	632273	prompt	n/a	started scientific pipes sandra\n
316.772	0.075	633544	keystroke_s	s	n/a
316.907	0.09	633814	keystroke_t	t	n/a
317.012	0.1345	634024	keystroke_a	a	n/a
317.1015	0.135	634203	keystroke_r	r	n/a
317.372	0.0445	634744	keystroke_t	t	n/a
317.7765	0.06	635553	keystroke_e	e	n/a
318.002	0.075	636004	keystroke_d	d	n/a
318.106	0.0755	636212	keystroke_Key.space	Key.space	n/a
318.3465	0.0905	636693	keystroke_s	s	n/a
318.6775	0.074	637355	keystroke_c	c	n/a
318.9315	0.06	637863	keystroke_i	i	n/a
319.697	0.075	639394	keystroke_e	e	n/a
319.817	0.09	639634	keystroke_n	n	n/a
319.952	0.0745	639904	keystroke_t	t	n/a
320.057	0.09	640114	keystroke_i	i	n/a
320.3865	0.0605	640773	keystroke_f	f	n/a
320.4915	0.09	640983	keystroke_i	i	n/a
320.6125	0.074	641225	keystroke_c	c	n/a
320.7765	0.105	641553	keystroke_Key.space	Key.space	n/a
321.017	0.0905	642034	keystroke_p	p	n/a
321.182	0.091	642364	keystroke_i	i	n/a
321.347	0.105	642694	keystroke_p	p	n/a
321.497	0.075	642994	keystroke_e	e	n/a
321.632	0.1055	643264	keystroke_s	s	n/a
321.782	0.075	643564	keystroke_Key.space	Key.space	n/a
322.037	0.075	644074	keystroke_s	s	n/a
322.2165	0.09	644433	keystroke_a	a	n/a
322.4715	0.0905	644943	keystroke_n	n	n/a
322.817	0.074	645634	keystroke_d	d	n/a
323.0715	0.0745	646143	keystroke_r	r	n/a
323.642	0.105	647284	keystroke_a	a	n/a
323.942	0.0895	647884	keystroke_Key.enter	Key.enter	n/a
324.038	9.55	648076	prompt	n/a	announcements generates worlds welfare\n
324.797	0.105	649594	keystroke_a	a	n/a
324.933	0.074	649866	keystroke_n	n	n/a
325.067	0.075	650134	keystroke_n	n	n/a
325.202	0.1495	650404	keystroke_o	o	n/a
325.3065	0.15	650613	keystroke_u	u	n/a
325.6065	0.0755	651213	keystroke_c	c	n/a
325.787	0.0745	651574	keystroke_e	e	n/a
325.8925	0.0895	651785	keystroke_n	n	n/a
326.671	0.075	653342	keystroke_Key.backspace	Key.backspace	n/a
326.986	0.0755	653972	keystroke_m	m	n/a
327.0765	0.075	654153	keystroke_e	e	n/a
327.1815	0.105	654363	keystroke_n	n	n/a
327.3015	0.06	654603	keystroke_t	t	n/a
327.5265	0.105	655053	keystroke_s	s	n/a
327.722	0.059	655444	keystroke_Key.space	Key.space	n/a
328.3665	0.06	656733	keystroke_g	g	n/a
328.5015	0.0755	657003	keystroke_e	e	n/a
328.6365	0.09	657273	keystroke_n	n	n/a
328.7425	0.074	657485	keystroke_e	e	n/a
328.8315	0.09	657663	keystroke_r	r	n/a
328.982	0.1195	657964	keystroke_a	a	n/a
329.0865	0.105	658173	keystroke_t	t	n/a
329.222	0.0895	658444	keystroke_e	e	n/a
329.5815	0.105	659163	keystroke_s	s	n/a
329.7765	0.0895	659553	keystroke_Key.space	Key.space	n/a
330.046	0.091	660092	keystroke_w	w	n/a
330.2115	0.12	660423	keystroke_o	o	n/a
330.7525	0.0445	661505	keystroke_r	r	n/a
331.441	0.106	662882	keystroke_l	l	n/a
331.577	0.075	663154	keystroke_d	d	n/a
331.7415	0.0745	663483	keystroke_s	s	n/a
331.876	0.0755	663752	keystroke_Key.space	Key.space	n/a
332.2365	0.0905	664473	keystroke_w	w	n/a
332.3865	0.0915	664773	keystroke_e	e	n/a
332.567	0.1045	665134	keystroke_l	l	n/a
332.8365	0.0755	665673	keystroke_f	f	n/a
333.0165	0.121	666033	keystroke_a	a	n/a
333.152	0.105	666304	keystroke_r	r	n/a
333.271	0.076	666542	keystroke_e	e	n/a
333.496	0.0905	666992	keystroke_Key.enter	Key.enter	n/a
333.595	7.8835	667190	prompt	n/a	star acids donations hindu\n
334.817	0.045	669634	keystroke_w	w	n/a
335.297	0.075	670594	keystroke_Key.backspace	Key.backspace	n/a
335.537	0.09	671074	keystroke_s	s	n/a
335.701	0.091	671402	keystroke_t	t	n/a
335.867	0.1345	671734	keystroke_a	a	n/a
335.9565	0.1205	671913	keystroke_r	r	n/a
336.227	0.0745	672454	keystroke_Key.space	Key.space	n/a
336.4975	0.104	672995	keystroke_a	a	n/a
336.7365	0.0905	673473	keystroke_c	c	n/a
336.9165	0.09	673833	keystroke_i	i	n/a
337.0665	0.12	674133	keystroke_d	d	n/a
337.3525	0.089	674705	keystroke_s	s	n/a
337.5015	0.0905	675003	keystroke_Key.space	Key.space	n/a
338.0875	0.075	676175	keystroke_d	d	n/a
338.1915	0.106	676383	keystroke_o	o	n/a
338.3275	0.12	676655	keystroke_n	n	n/a
338.4625	0.119	676925	keystroke_a	a	n/a
338.5515	0.105	677103	keystroke_t	t	n/a
338.6575	0.119	677315	keystroke_i	i	n/a
338.7315	0.1505	677463	keystroke_o	o	n/a
338.8375	0.1785	677675	keystroke_n	n	n/a
338.9575	0.1045	677915	keystroke_s	s	n/a
339.092	0.075	678184	keystroke_Key.space	Key.space	n/a
339.286	0.06	678572	keystroke_h	h	n/a
339.4215	0.1045	678843	keystroke_i	i	n/a
339.662	0.06	679324	keystroke_d	d	n/a
340.5165	0.06	681033	keystroke_Key.backspace	Key.backspace	n/a
340.757	0.0895	681514	keystroke_n	n	n/a
340.982	0.0745	681964	keystroke_d	d	n/a
341.0715	0.076	682143	keystroke_u	u	n/a
341.3865	0.09	682773	keystroke_Key.enter	Key.enter	n/a
341.486	10.3145	682972	prompt	n/a	bonds popular conditions biographies\n
342.4375	0.0745	684875	keystroke_b	b	n/a
342.5275	0.1195	685055	keystroke_o	o	n/a
342.6175	0.1055	685235	keystroke_u	u	n/a
342.8275	0.0895	685655	keystroke_n	n	n/a
343.082	0.075	686164	keystroke_d	d	n/a
343.622	0.105	687244	keystroke_s	s	n/a
343.951	0.0605	687902	keystroke_Key.backspace	Key.backspace	n/a
344.102	0.075	688204	keystroke_Key.backspace	Key.backspace	n/a
344.2825	0.075	688565	keystroke_Key.backspace	Key.backspace	n/a
344.9115	0.06	689823	keystroke_Key.backspace	Key.backspace	n/a
345.6175	0.09	691235	keystroke_n	n	n/a
345.9165	0.0755	691833	keystroke_d	d	n/a
346.0975	0.0745	692195	keystroke_s	s	n/a
346.201	0.09	692402	keystroke_Key.space	Key.space	n/a
346.412	0.09	692824	keystroke_p	p	n/a
346.607	0.06	693214	keystroke_o	o	n/a
346.757	0.0755	693514	keystroke_p	p	n/a
346.922	0.06	693844	keystroke_u	u	n/a
347.1325	0.105	694265	keystroke_l	l	n/a
347.2225	0.15	694445	keystroke_a	a	n/a
347.3275	0.104	694655	keystroke_r	r	n/a
347.5965	0.06	695193	keystroke_Key.space	Key.space	n/a
347.8515	0.091	695703	keystroke_c	c	n/a
347.9115	0.1655	695823	keystroke_o	o	n/a
348.0325	0.1195	696065	keystroke_n	n	n/a
348.182	0.075	696364	keystroke_d	d	n/a
348.272	0.09	696544	keystroke_i	i	n/a
348.377	0.0745	696754	keystroke_t	t	n/a
348.4665	0.151	696933	keystroke_i	i	n/a
348.5715	0.15	697143	keystroke_o	o	n/a
348.6765	0.165	697353	keystroke_n	n	n/a
348.7825	0.089	697565	keystroke_s	s	n/a
348.9025	0.0895	697805	keystroke_Key.space	Key.space	n/a
349.0815	0.0755	698163	keystroke_b	b	n/a
349.2465	0.061	698493	keystroke_i	i	n/a
349.3965	0.105	698793	keystroke_o	o	n/a
349.697	0.074	699394	keystroke_g	g	n/a
349.8775	0.0745	699755	keystroke_r	r	n/a
350.027	0.105	700054	keystroke_a	a	n/a
350.2215	0.075	700443	keystroke_p	p	n/a
350.372	0.0745	700744	keystroke_h	h	n/a
350.5065	0.12	701013	keystroke_i	i	n/a
350.7765	0.0905	701553	keystroke_e	e	n/a
351.407	0.09	702814	keystroke_s	s	n/a
351.707	0.09	703414	keystroke_Key.enter	Key.enter	n/a
351.8115	6.512	703623	prompt	n/a	atomic went assignments fonts\n
352.741	0.09	705482	keystroke_a	a	n/a
352.891	0.076	705782	keystroke_t	t	n/a
353.1025	0.0895	706205	keystroke_o	o	n/a
353.8525	0.1045	707705	keystroke_m	m	n/a
354.0615	0.075	708123	keystroke_i	i	n/a
354.1975	0.0895	708395	keystroke_c	c	n/a
354.3315	0.105	708663	keystroke_Key.space	Key.space	n/a
354.572	0.0755	709144	keystroke_w	w	n/a
354.7365	0.075	709473	keystroke_e	e	n/a
354.8415	0.105	709683	keystroke_n	n	n/a
354.9615	0.075	709923	keystroke_t	t	n/a
355.0815	0.075	710163	keystroke_Key.space	Key.space	n/a
355.292	0.105	710584	keystroke_a	a	n/a
355.5465	0.0305	711093	keystroke_s	s	n/a
355.667	0.075	711334	keystroke_s	s	n/a
355.802	0.09	711604	keystroke_i	i	n/a
356.0125	0.0745	712025	keystroke_g	g	n/a
356.1615	0.0905	712323	keystroke_n	n	n/a
356.507	0.09	713014	keystroke_m	m	n/a
356.612	0.075	713224	keystroke_e	e	n/a
356.732	0.0905	713464	keystroke_n	n	n/a
356.807	0.075	713614	keystroke_t	t	n/a
356.972	0.105	713944	keystroke_s	s	n/a
357.1215	0.0755	714243	keystroke_Key.space	Key.space	n/a
357.422	0.075	714844	keystroke_f	f	n/a
357.512	0.135	715024	keystroke_o	o	n/a
357.617	0.18	715234	keystroke_n	n	n/a
357.782	0.09	715564	keystroke_t	t	n/a
358.037	0.075	716074	keystroke_s	s	n/a
358.232	0.089	716464	keystroke_Key.enter	Key.enter	n/a
358.3285	9.175	716657	prompt	n/a	grand indonesian kissing hyundai\n
359.147	0.015	718294	keystroke_g	g	n/a
359.267	0.06	718534	keystroke_r	r	n/a
359.4025	0.09	718805	keystroke_a	a	n/a
359.5675	0.105	719135	keystroke_n	n	n/a
359.6875	0.075	719375	keystroke_d	d	n/a
359.807	0.0745	719614	keystroke_Key.space	Key.space	n/a
360.077	0.075	720154	keystroke_i	i	n/a
360.2575	0.0745	720515	keystroke_n	n	n/a
360.527	0.0895	721054	keystroke_d	d	n/a
360.7375	0.104	721475	keystroke_o	o	n/a
362.357	0.09	724714	keystroke_n	n	n/a
362.552	0.09	725104	keystroke_e	e	n/a
362.882	0.0895	725764	keystroke_s	s	n/a
363.002	0.105	726004	keystroke_i	i	n/a
363.091	0.106	726182	keystroke_a	a	n/a
363.302	0.089	726604	keystroke_n	n	n/a
363.452	0.075	726904	keystroke_Key.space	Key.space	n/a
363.827	0.06	727654	keystroke_k	k	n/a
364.007	0.06	728014	keystroke_i	i	n/a
364.127	0.0905	728254	keystroke_s	s	n/a
364.277	0.075	728554	keystroke_s	s	n/a
364.3825	0.1495	728765	keystroke_i	i	n/a
364.472	0.165	728944	keystroke_n	n	n/a
364.562	0.09	729124	keystroke_g	g	n/a
364.6675	0.074	729335	keystroke_Key.space	Key.space	n/a
364.997	0.015	729994	keystroke_h	h	n/a
365.312	0.09	730624	keystroke_y	y	n/a
366.1515	0.09	732303	keystroke_u	u	n/a
366.4375	0.09	732875	keystroke_n	n	n/a
366.6765	0.076	733353	keystroke_d	d	n/a
366.8265	0.12	733653	keystroke_a	a	n/a
367.097	0.0745	734194	keystroke_i	i	n/a
367.397	0.105	734794	keystroke_Key.enter	Key.enter	n/a
367.5115	7.882	735023	prompt	n/a	scholar profession existing wholesale\n
368.3875	0.09	736775	keystroke_s	s	n/a
368.6415	0.076	737283	keystroke_c	c	n/a
368.7325	0.074	737465	keystroke_h	h	n/a
368.8975	0.09	737795	keystroke_o	o	n/a
369.1075	0.105	738215	keystroke_l	l	n/a
369.2275	0.135	738455	keystroke_a	a	n/a
369.3465	0.106	738693	keystroke_r	r	n/a
369.6175	0.014	739235	keystroke_Key.space	Key.space	n/a
369.7225	0.12	739445	keystroke_p	p	n/a
369.8565	0.09	739713	keystroke_r	r	n/a
369.9615	0.091	739923	keystroke_o	o	n/a
370.232	0.1045	740464	keystroke_f	f	n/a
370.442	0.0745	740884	keystroke_e	e	n/a
370.6815	0.06	741363	keystroke_s	s	n/a
370.8315	0.075	741663	keystroke_s	s	n/a
370.937	0.1045	741874	keystroke_i	i	n/a
371.012	0.1795	742024	keystroke_o	o	n/a
371.1175	0.1945	742235	keystroke_n	n	n/a
371.2515	0.075	742503	keystroke_Key.space	Key.space	n/a
371.4315	0.0755	742863	keystroke_e	e	n/a
371.6575	0.105	743315	keystroke_x	x	n/a
372.0325	0.09	744065	keystroke_i	i	n/a
372.227	0.0755	744454	keystroke_s	s	n/a
372.3925	0.06	744785	keystroke_t	t	n/a
372.4975	0.135	744995	keystroke_i	i	n/a
372.5575	0.21	745115	keystroke_n	n	n/a
372.6775	0.1195	745355	keystroke_g	g	n/a
372.7815	0.076	745563	keystroke_Key.space	Key.space	n/a
373.0515	0.091	746103	keystroke_w	w	n/a
373.1725	0.0745	746345	keystroke_h	h	n/a
373.307	0.1195	746614	keystroke_o	o	n/a
373.592	0.105	747184	keystroke_l	l	n/a
373.772	0.0745	747544	keystroke_e	e	n/a
374.0275	0.075	748055	keystroke_s	s	n/a
374.1925	0.105	748385	keystroke_a	a	n/a
374.2985	0.088	748597	keystroke_f	f	n/a
374.7025	0.059	749405	keystroke_Key.backspace	Key.backspace	n/a
374.9725	0.1195	749945	keystroke_l	l	n/a
375.077	0.0755	750154	keystroke_e	e	n/a
375.302	0.09	750604	keystroke_Key.enter	Key.enter	n/a
375.411	6.8675	750822	prompt	n/a	departments johnson reset kenny\n
376.1875	0.0895	752375	keystroke_d	d	n/a
376.352	0.075	752704	keystroke_e	e	n/a
376.517	0.12	753034	keystroke_p	p	n/a
376.622	0.1205	753244	keystroke_a	a	n/a
376.697	0.135	753394	keystroke_r	r	n/a
377.0715	0.075	754143	keystroke_t	t	n/a
377.3115	0.09	754623	keystroke_m	m	n/a
377.4165	0.0755	754833	keystroke_e	e	n/a
377.522	0.105	755044	keystroke_n	n	n/a
377.612	0.075	755224	keystroke_t	t	n/a
377.762	0.1055	755524	keystroke_s	s	n/a
377.9115	0.06	755823	keystroke_Key.space	Key.space	n/a
378.182	0.0895	756364	keystroke_j	j	n/a
378.5275	0.09	757055	keystroke_o	o	n/a
379.037	0.0145	758074	keystroke_h	h	n/a
379.1415	0.0905	758283	keystroke_n	n	n/a
379.4575	0.09	758915	keystroke_s	s	n/a
379.5625	0.119	759125	keystroke_o	o	n/a
379.6525	0.1495	759305	keystroke_n	n	n/a
379.817	0.075	759634	keystroke_Key.space	Key.space	n/a
380.0415	0.105	760083	keystroke_r	r	n/a
380.1615	0.075	760323	keystroke_e	e	n/a
380.4465	0.0905	760893	keystroke_s	s	n/a
380.5965	0.09	761193	keystroke_e	e	n/a
380.7615	0.0755	761523	keystroke_t	t	n/a
380.9115	0.06	761823	keystroke_Key.space	Key.space	n/a
381.0915	0.075	762183	keystroke_k	k	n/a
381.3625	0.06	762725	keystroke_e	e	n/a
381.5565	0.0605	763113	keystroke_n	n	n/a
381.6765	0.076	763353	keystroke_n	n	n/a
381.8415	0.075	763683	keystroke_y	y	n/a
382.187	0.09	764374	keystroke_Key.enter	Key.enter	n/a
382.286	8.7525	764572	prompt	n/a	lookup effectively philips johnson\n
383.0715	0.09	766143	keystroke_l	l	n/a
383.2975	0.03	766595	keystroke_o	o	n/a
383.4165	0.091	766833	keystroke_o	o	n/a
383.5975	0.09	767195	keystroke_k	k	n/a
383.972	0.06	767944	keystroke_u	u	n/a
384.077	0.09	768154	keystroke_p	p	n/a
384.557	0.045	769114	keystroke_Key.space	Key.space	n/a
384.842	0.075	769684	keystroke_e	e	n/a
385.067	0.0745	770134	keystroke_f	f	n/a
385.2015	0.075	770403	keystroke_f	f	n/a
385.336	0.076	770672	keystroke_e	e	n/a
385.967	0.105	771934	keystroke_c	c	n/a
386.3115	0.076	772623	keystroke_t	t	n/a
386.4315	0.075	772863	keystroke_i	i	n/a
386.5365	0.09	773073	keystroke_v	v	n/a
386.8075	0.074	773615	keystroke_e	e	n/a
387.0025	0.1345	774005	keystroke_l	l	n/a
387.107	0.1205	774214	keystroke_y	y	n/a
387.257	0.074	774514	keystroke_Key.space	Key.space	n/a
387.4215	0.09	774843	keystroke_p	p	n/a
387.557	0.089	775114	keystroke_h	h	n/a
387.887	0.075	775774	keystroke_i	i	n/a
388.157	0.09	776314	keystroke_l	l	n/a
388.427	0.06	776854	keystroke_i	i	n/a
388.547	0.105	777094	keystroke_p	p	n/a
388.667	0.105	777334	keystroke_s	s	n/a
388.817	0.09	777634	keystroke_Key.space	Key.space	n/a
389.0575	0.09	778115	keystroke_j	j	n/a
389.267	0.09	778534	keystroke_o	o	n/a
389.5825	0.075	779165	keystroke_h	h	n/a
390.1225	0.0745	780245	keystroke_n	n	n/a
390.4975	0.0895	780995	keystroke_s	s	n/a
390.572	0.12	781144	keystroke_o	o	n/a
390.677	0.135	781354	keystroke_n	n	n/a
390.962	0.075	781924	keystroke_Key.enter	Key.enter	n/a
391.0475	7.403	782095	prompt	n/a	advertiser hands examined marcus\n
391.9375	0.1045	783875	keystroke_a	a	n/a
392.0875	0.075	784175	keystroke_d	d	n/a
392.417	0.0905	784834	keystroke_v	v	n/a
393.032	0.1055	786064	keystroke_e	e	n/a
393.122	0.1055	786244	keystroke_r	r	n/a
393.4375	0.06	786875	keystroke_t	t	n/a
393.5125	0.105	787025	keystroke_i	i	n/a
393.6925	0.1055	787385	keystroke_s	s	n/a
393.8125	0.0885	787625	keystroke_e	e	n/a
394.3065	0.09	788613	keystroke_r	r	n/a
394.5315	0.061	789063	keystroke_Key.space	Key.space	n/a
394.7575	0.0895	789515	keystroke_h	h	n/a
394.847	0.1205	789694	keystroke_a	a	n/a
394.982	0.1055	789964	keystroke_n	n	n/a
395.1025	0.0885	790205	keystroke_d	d	n/a
395.252	0.075	790504	keystroke_s	s	n/a
395.3715	0.0755	790743	keystroke_Key.space	Key.space	n/a
395.537	0.0605	791074	keystroke_e	e	n/a
395.747	0.09	791494	keystroke_x	x	n/a
396.0015	0.106	792003	keystroke_a	a	n/a
396.1365	0.121	792273	keystroke_m	m	n/a
396.4665	0.0765	792933	keystroke_i	i	n/a
396.558	0.1495	793116	keystroke_n	n	n/a
396.7225	0.09	793445	keystroke_e	e	n/a
396.9175	0.074	793835	keystroke_d	d	n/a
397.0365	0.075	794073	keystroke_Key.space	Key.space	n/a
397.3365	0.1205	794673	keystroke_m	m	n/a
397.442	0.135	794884	keystroke_a	a	n/a
397.532	0.105	795064	keystroke_r	r	n/a
397.832	0.105	795664	keystroke_c	c	n/a
397.997	0.09	795994	keystroke_u	u	n/a
398.162	0.0905	796324	keystroke_s	s	n/a
398.327	0.12	796654	keystroke_Key.enter	Key.enter	n/a
398.4605	10.1605	796921	prompt	n/a	native andorra wildlife surfaces\n
399.1515	0.0905	798303	keystroke_n	n	n/a
399.242	0.1345	798484	keystroke_a	a	n/a
399.3915	0.09	798783	keystroke_t	t	n/a
399.557	0.0895	799114	keystroke_i	i	n/a
399.662	0.0895	799324	keystroke_v	v	n/a
399.8115	0.0905	799623	keystroke_e	e	n/a
399.9165	0.09	799833	keystroke_Key.space	Key.space	n/a
400.127	0.12	800254	keystroke_a	a	n/a
400.397	0.12	800794	keystroke_n	n	n/a
400.652	0.09	801304	keystroke_d	d	n/a
400.878	0.089	801756	keystroke_o	o	n/a
401.042	0.075	802084	keystroke_r	r	n/a
401.193	0.059	802386	keystroke_r	r	n/a
401.312	0.1055	802624	keystroke_a	a	n/a
401.462	0.09	802924	keystroke_Key.space	Key.space	n/a
401.7175	0.105	803435	keystroke_w	w	n/a
401.8375	0.045	803675	keystroke_i	i	n/a
401.987	0.105	803974	keystroke_l	l	n/a
402.107	0.105	804214	keystroke_d	d	n/a
402.272	0.075	804544	keystroke_Key.space	Key.space	n/a
402.752	0.0745	805504	keystroke_Key.backspace	Key.backspace	n/a
402.9325	0.09	805865	keystroke_f	f	n/a
403.067	0.09	806134	keystroke_i	i	n/a
404.2965	0.0155	808593	keystroke_Key.backspace	Key.backspace	n/a
404.432	0.074	808864	keystroke_Key.backspace	Key.backspace	n/a
405.6175	0.104	811235	keystroke_l	l	n/a
405.692	0.135	811384	keystroke_i	i	n/a
406.247	0.09	812494	keystroke_f	f	n/a
406.352	0.105	812704	keystroke_e	e	n/a
406.5165	0.09	813033	keystroke_Key.space	Key.space	n/a
406.8475	0.09	813695	keystroke_s	s	n/a
407.327	0.09	814654	keystroke_u	u	n/a
407.462	0.09	814924	keystroke_r	r	n/a
407.6875	0.0745	815375	keystroke_f	f	n/a
407.777	0.1045	815554	keystroke_a	a	n/a
408.002	0.075	816004	keystroke_c	c	n/a
408.183	0.059	816366	keystroke_e	e	n/a
408.3175	0.089	816635	keystroke_s	s	n/a
408.512	0.1045	817024	keystroke_Key.enter	Key.enter	n/a
408.631	7.652	817262	prompt	n/a	columbia tile yearly vocational\n
409.7125	0.029	819425	keystroke_c	c	n/a
409.7725	0.09	819545	keystroke_o	o	n/a
409.9825	0.0595	819965	keystroke_l	l	n/a
410.1015	0.105	820203	keystroke_u	u	n/a
410.447	0.09	820894	keystroke_m	m	n/a
410.8825	0.0735	821765	keystroke_b	b	n/a
410.986	0.0755	821972	keystroke_i	i	n/a
411.1215	0.121	822243	keystroke_a	a	n/a
411.3025	0.074	822605	keystroke_Key.space	Key.space	n/a
411.7515	0.075	823503	keystroke_t	t	n/a
411.841	0.0755	823682	keystroke_i	i	n/a
411.962	0.165	823924	keystroke_l	l	n/a
412.111	0.105	824222	keystroke_e	e	n/a
412.381	0.076	824762	keystroke_Key.space	Key.space	n/a
412.592	0.09	825184	keystroke_y	y	n/a
412.742	0.075	825484	keystroke_e	e	n/a
412.951	0.12	825902	keystroke_a	a	n/a
413.1315	0.076	826263	keystroke_r	r	n/a
413.372	0.1045	826744	keystroke_l	l	n/a
413.537	0.1195	827074	keystroke_y	y	n/a
413.7315	0.0605	827463	keystroke_Key.space	Key.space	n/a
414.137	0.09	828274	keystroke_v	v	n/a
414.587	0.09	829174	keystroke_o	o	n/a
414.902	0.09	829804	keystroke_c	c	n/a
415.082	0.1205	830164	keystroke_a	a	n/a
415.277	0.0745	830554	keystroke_t	t	n/a
415.337	0.15	830674	keystroke_i	i	n/a
415.4425	0.1645	830885	keystroke_o	o	n/a
415.547	0.165	831094	keystroke_n	n	n/a
415.697	0.12	831394	keystroke_a	a	n/a
415.847	0.1205	831694	keystroke_l	l	n/a
416.1765	0.105	832353	keystroke_Key.enter	Key.enter	n/a
416.2945	9.904	832589	prompt	n/a	limitation traveling inspection coordinate\n
417.167	0.09	834334	keystroke_l	l	n/a
417.317	0.0755	834634	keystroke_i	i	n/a
417.497	0.09	834994	keystroke_m	m	n/a
417.647	0.075	835294	keystroke_i	i	n/a
417.902	0.06	835804	keystroke_t	t	n/a
418.007	0.12	836014	keystroke_a	a	n/a
418.187	0.075	836374	keystroke_t	t	n/a
418.277	0.135	836554	keystroke_i	i	n/a
418.367	0.15	836734	keystroke_o	o	n/a
418.487	0.1505	836974	keystroke_n	n	n/a
418.607	0.075	837214	keystroke_Key.space	Key.space	n/a
418.772	0.075	837544	keystroke_t	t	n/a
418.922	0.075	837844	keystroke_r	r	n/a
419.072	0.09	838144	keystroke_a	a	n/a
419.432	0.09	838864	keystroke_v	v	n/a
419.657	0.0745	839314	keystroke_e	e	n/a
419.8665	0.061	839733	keystroke_l	l	n/a
420.002	0.09	840004	keystroke_l	l	n/a
420.5715	0.06	841143	keystroke_Key.backspace	Key.backspace	n/a
420.992	0.135	841984	keystroke_i	i	n/a
421.067	0.2095	842134	keystroke_n	n	n/a
421.172	0.12	842344	keystroke_g	g	n/a
421.262	0.105	842524	keystroke_Key.space	Key.space	n/a
421.517	0.075	843034	keystroke_i	i	n/a
421.607	0.135	843214	keystroke_n	n	n/a
421.802	0.105	843604	keystroke_s	s	n/a
422.012	0.09	844024	keystroke_p	p	n/a
422.192	0.06	844384	keystroke_e	e	n/a
422.387	0.075	844774	keystroke_c	c	n/a
422.7315	0.0755	845463	keystroke_t	t	n/a
422.8665	0.09	845733	keystroke_i	i	n/a
423.167	0.1055	846334	keystroke_o	o	n/a
423.2565	0.15	846513	keystroke_n	n	n/a
423.4215	0.06	846843	keystroke_Key.space	Key.space	n/a
423.632	0.0895	847264	keystroke_c	c	n/a
423.7815	0.075	847563	keystroke_o	o	n/a
423.977	0.06	847954	keystroke_o	o	n/a
424.186	0.0915	848372	keystroke_r	r	n/a
425.1165	0.09	850233	keystroke_d	d	n/a
425.3865	0.045	850773	keystroke_i	i	n/a
425.5815	0.09	851163	keystroke_n	n	n/a
425.657	0.1345	851314	keystroke_a	a	n/a
425.747	0.1195	851494	keystroke_t	t	n/a
425.8515	0.105	851703	keystroke_e	e	n/a
426.0915	0.105	852183	keystroke_Key.enter	Key.enter	n/a
426.2025	6.3255	852405	prompt	n/a	boot hunting proxy command\n
427.0225	0.0745	854045	keystroke_b	b	n/a
427.172	0.075	854344	keystroke_o	o	n/a
427.322	0.075	854644	keystroke_o	o	n/a
427.457	0.089	854914	keystroke_t	t	n/a
427.562	0.06	855124	keystroke_Key.space	Key.space	n/a
427.9365	0.0755	855873	keystroke_h	h	n/a
428.132	0.06	856264	keystroke_u	u	n/a
428.3115	0.075	856623	keystroke_n	n	n/a
428.507	0.0595	857014	keystroke_t	t	n/a
428.627	0.134	857254	keystroke_i	i	n/a
428.7015	0.1805	857403	keystroke_n	n	n/a
428.806	0.1215	857612	keystroke_g	g	n/a
428.9115	0.0755	857823	keystroke_Key.space	Key.space	n/a
429.107	0.09	858214	keystroke_p	p	n/a
429.272	0.09	858544	keystroke_r	r	n/a
429.4075	0.0895	858815	keystroke_o	o	n/a
430.0665	0.105	860133	keystroke_x	x	n/a
430.2465	0.09	860493	keystroke_y	y	n/a
430.592	0.0745	861184	keystroke_Key.space	Key.space	n/a
430.8465	0.075	861693	keystroke_c	c	n/a
430.9525	0.165	861905	keystroke_o	o	n/a
431.477	0.0905	862954	keystroke_m	m	n/a
431.8365	0.091	863673	keystroke_m	m	n/a
431.956	0.106	863912	keystroke_a	a	n/a
432.0775	0.0895	864155	keystroke_n	n	n/a
432.182	0.075	864364	keystroke_d	d	n/a
432.421	0.105	864842	keystroke_Key.enter	Key.enter	n/a
432.5325	6.731	865065	prompt	n/a	proved colony hampton asks\n
433.232	0.1055	866464	keystroke_p	p	n/a
433.322	0.105	866644	keystroke_r	r	n/a
433.907	0.075	867814	keystroke_o	o	n/a
434.192	0.091	868384	keystroke_v	v	n/a
434.402	0.0755	868804	keystroke_e	e	n/a
434.567	0.09	869134	keystroke_d	d	n/a
434.687	0.075	869374	keystroke_Key.space	Key.space	n/a
434.942	0.075	869884	keystroke_c	c	n/a
435.062	0.09	870124	keystroke_o	o	n/a
435.257	0.075	870514	keystroke_l	l	n/a
435.4515	0.091	870903	keystroke_o	o	n/a
435.7515	0.076	871503	keystroke_n	n	n/a
435.962	0.0755	871924	keystroke_y	y	n/a
436.157	0.06	872314	keystroke_Key.space	Key.space	n/a
436.367	0.075	872734	keystroke_h	h	n/a
436.487	0.105	872974	keystroke_a	a	n/a
436.607	0.09	873214	keystroke_m	m	n/a
436.9965	0.1205	873993	keystroke_p	p	n/a
437.4175	0.0895	874835	keystroke_t	t	n/a
437.537	0.0895	875074	keystroke_o	o	n/a
437.656	0.105	875312	keystroke_n	n	n/a
437.807	0.074	875614	keystroke_Key.space	Key.space	n/a
437.972	0.12	875944	keystroke_a	a	n/a
438.1375	0.1045	876275	keystroke_s	s	n/a
438.302	0.105	876604	keystroke_k	k	n/a
438.9315	0.075	877863	keystroke_s	s	n/a
439.1565	0.105	878313	keystroke_Key.enter	Key.enter	n/a
439.2675	6.851	878535	prompt	n/a	king mozilla understanding royal\n
440.0275	0.0745	880055	keystroke_k	k	n/a
440.2075	0.075	880415	keystroke_i	i	n/a
440.2975	0.149	880595	keystroke_n	n	n/a
440.432	0.09	880864	keystroke_g	g	n/a
440.5365	0.076	881073	keystroke_Key.space	Key.space	n/a
440.7625	0.089	881525	keystroke_m	m	n/a
441.017	0.0895	882034	keystroke_o	o	n/a
441.332	0.1045	882664	keystroke_z	z	n/a
441.4965	0.075	882993	keystroke_i	i	n/a
441.692	0.0745	883384	keystroke_l	l	n/a
441.8415	0.0905	883683	keystroke_l	l	n/a
441.946	0.106	883892	keystroke_a	a	n/a
442.082	0.104	884164	keystroke_Key.space	Key.space	n/a
442.322	0.075	884644	keystroke_u	u	n/a
442.517	0.0895	885034	keystroke_n	n	n/a
442.6975	0.09	885395	keystroke_d	d	n/a
442.8775	0.089	885755	keystroke_e	e	n/a
442.9675	0.104	885935	keystroke_r	r	n/a
443.237	0.09	886474	keystroke_s	s	n/a
443.387	0.075	886774	keystroke_t	t	n/a
443.567	0.1195	887134	keystroke_a	a	n/a
443.927	0.075	887854	keystroke_n	n	n/a
444.317	0.0445	888634	keystroke_d	d	n/a
444.4665	0.136	888933	keystroke_i	i	n/a
444.5575	0.194	889115	keystroke_n	n	n/a
444.6625	0.1045	889325	keystroke_g	g	n/a
444.7815	0.0755	889563	keystroke_Key.space	Key.space	n/a
444.992	0.0895	889984	keystroke_r	r	n/a
445.1425	0.0745	890285	keystroke_o	o	n/a
445.667	0.075	891334	keystroke_y	y	n/a
445.832	0.105	891664	keystroke_a	a	n/a
446.0115	0.105	892023	keystroke_Key.enter	Key.enter	n/a
446.1225	9.296	892245	prompt	n/a	seminar guarantees cover lamb\n
446.837	0.075	893674	keystroke_s	s	n/a
447.257	0.09	894514	keystroke_e	e	n/a
447.5565	0.075	895113	keystroke_m	m	n/a
447.7215	0.076	895443	keystroke_i	i	n/a
447.902	0.0745	895804	keystroke_n	n	n/a
447.9915	0.122	895983	keystroke_a	a	n/a
448.097	0.1045	896194	keystroke_r	r	n/a
448.3065	0.075	896613	keystroke_Key.space	Key.space	n/a
448.6225	0.0895	897245	keystroke_g	g	n/a
448.7715	0.0755	897543	keystroke_u	u	n/a
449.1615	0.106	898323	keystroke_a	a	n/a
449.432	0.09	898864	keystroke_r	r	n/a
449.777	0.12	899554	keystroke_a	a	n/a
450.062	0.105	900124	keystroke_n	n	n/a
450.302	0.075	900604	keystroke_t	t	n/a
450.527	0.0595	901054	keystroke_e	e	n/a
450.692	0.059	901384	keystroke_e	e	n/a
450.842	0.075	901684	keystroke_s	s	n/a
450.977	0.0745	901954	keystroke_Key.space	Key.space	n/a
451.2475	0.09	902495	keystroke_o	o	n/a
451.607	0.09	903214	keystroke_Key.backspace	Key.backspace	n/a
451.802	0.089	903604	keystroke_c	c	n/a
451.952	0.0895	903904	keystroke_o	o	n/a
452.1015	0.0605	904203	keystroke_v	v	n/a
452.237	0.09	904474	keystroke_e	e	n/a
452.312	0.105	904624	keystroke_r	r	n/a
452.447	0.09	904894	keystroke_Key.space	Key.space	n/a
452.672	0.105	905344	keystroke_l	l	n/a
452.7925	0.105	905585	keystroke_a	a	n/a
452.912	0.12	905824	keystroke_m	m	n/a
453.722	0.105	907444	keystroke_m	m	n/a
454.126	0.106	908252	keystroke_Key.backspace	Key.backspace	n/a
454.4275	0.0745	908855	keystroke_b	b	n/a
455.3415	0.075	910683	keystroke_Key.enter	Key.enter	n/a
455.4225	7.0005	910845	prompt	n/a	societies ebook aims believed\n
456.3315	0.105	912663	keystroke_s	s	n/a
456.4515	0.09	912903	keystroke_o	o	n/a
456.6915	0.075	913383	keystroke_c	c	n/a
456.8265	0.09	913653	keystroke_i	i	n/a
457.0515	0.0755	914103	keystroke_e	e	n/a
457.5175	0.0745	915035	keystroke_t	t	n/a
457.6815	0.0745	915363	keystroke_i	i	n/a
457.877	0.075	915754	keystroke_e	e	n/a
458.027	0.1045	916054	keystroke_s	s	n/a
458.1615	0.09	916323	keystroke_Key.space	Key.space	n/a
458.5665	0.075	917133	keystroke_e	e	n/a
458.852	0.075	917704	keystroke_b	b	n/a
459.063	0.074	918126	keystroke_o	o	n/a
459.197	0.105	918394	keystroke_o	o	n/a
459.361	0.106	918722	keystroke_k	k	n/a
459.527	0.075	919054	keystroke_Key.space	Key.space	n/a
459.722	0.1195	919444	keystroke_a	a	n/a
459.857	0.09	919714	keystroke_i	i	n/a
459.992	0.1345	919984	keystroke_m	m	n/a
460.2925	0.0895	920585	keystroke_s	s	n/a
460.486	0.0915	920972	keystroke_Key.space	Key.space	n/a
460.7425	0.059	921485	keystroke_b	b	n/a
460.922	0.06	921844	keystroke_e	e	n/a
461.057	0.104	922114	keystroke_l	l	n/a
461.2215	0.0895	922443	keystroke_i	i	n/a
461.341	0.075	922682	keystroke_e	e	n/a
461.491	0.091	922982	keystroke_v	v	n/a
461.6265	0.1055	923253	keystroke_e	e	n/a
462.077	0.075	924154	keystroke_d	d	n/a
462.3165	0.105	924633	keystroke_Key.enter	Key.enter	n/a
462.428	6.07	924856	prompt	n/a	disposition wendy dive viewed\n
463.1565	0.0895	926313	keystroke_d	d	n/a
463.351	0.0905	926702	keystroke_i	i	n/a
463.5465	0.105	927093	keystroke_s	s	n/a
463.757	0.1045	927514	keystroke_p	p	n/a
463.9515	0.105	927903	keystroke_o	o	n/a
464.222	0.0895	928444	keystroke_s	s	n/a
464.3715	0.0905	928743	keystroke_i	i	n/a
464.5515	0.0755	929103	keystroke_t	t	n/a
464.6425	0.1345	929285	keystroke_i	i	n/a
464.7465	0.15	929493	keystroke_o	o	n/a
464.8665	0.1805	929733	keystroke_n	n	n/a
465.182	0.0595	930364	keystroke_Key.space	Key.space	n/a
465.4215	0.091	930843	keystroke_w	w	n/a
465.5865	0.0905	931173	keystroke_e	e	n/a
465.737	0.105	931474	keystroke_n	n	n/a
465.932	0.09	931864	keystroke_d	d	n/a
466.082	0.09	932164	keystroke_y	y	n/a
466.216	0.075	932432	keystroke_Key.space	Key.space	n/a
466.502	0.06	933004	keystroke_d	d	n/a
466.592	0.0905	933184	keystroke_i	i	n/a
466.697	0.075	933394	keystroke_v	v	n/a
466.847	0.075	933694	keystroke_e	e	n/a
466.9665	0.0755	933933	keystroke_Key.space	Key.space	n/a
467.342	0.075	934684	keystroke_v	v	n/a
467.462	0.105	934924	keystroke_i	i	n/a
467.612	0.075	935224	keystroke_e	e	n/a
467.702	0.12	935404	keystroke_w	w	n/a
468.0015	0.075	936003	keystroke_e	e	n/a
468.1815	0.075	936363	keystroke_d	d	n/a
468.3915	0.105	936783	keystroke_Key.enter	Key.enter	n/a
468.51	5.6285	937020	prompt	n/a	jane tape firefox nvidia\n
469.5915	0.045	939183	keystroke_j	j	n/a
469.6365	0.015	939273	keystroke_a	a	n/a
469.6665	0.0155	939333	keystroke_n	n	n/a
469.937	0.0745	939874	keystroke_e	e	n/a
470.0865	0.09	940173	keystroke_Key.space	Key.space	n/a
470.3115	0.0755	940623	keystroke_t	t	n/a
470.432	0.105	940864	keystroke_a	a	n/a
470.627	0.1045	941254	keystroke_p	p	n/a
470.7615	0.076	941523	keystroke_e	e	n/a
470.8665	0.06	941733	keystroke_Key.space	Key.space	n/a
471.077	0.09	942154	keystroke_f	f	n/a
471.1965	0.0905	942393	keystroke_i	i	n/a
471.317	0.0905	942634	keystroke_r	r	n/a
471.647	0.09	943294	keystroke_f	f	n/a
471.9175	0.1045	943835	keystroke_o	o	n/a
472.127	0.09	944254	keystroke_x	x	n/a
472.292	0.075	944584	keystroke_Key.space	Key.space	n/a
472.547	0.09	945094	keystroke_n	n	n/a
472.921	0.0915	945842	keystroke_v	v	n/a
473.237	0.0755	946474	keystroke_i	i	n/a
473.642	0.0745	947284	keystroke_d	d	n/a
473.7615	0.0745	947523	keystroke_i	i	n/a
473.852	0.09	947704	keystroke_a	a	n/a
474.0315	0.1055	948063	keystroke_Key.enter	Key.enter	n/a
474.1435	6.9715	948287	prompt	n/a	portrait inch hundreds sciences\n
475.0215	0.105	950043	keystroke_p	p	n/a
475.2015	0.0895	950403	keystroke_o	o	n/a
475.337	0.105	950674	keystroke_r	r	n/a
476.0565	0.075	952113	keystroke_t	t	n/a
476.281	0.0755	952562	keystroke_r	r	n/a
476.4315	0.106	952863	keystroke_a	a	n/a
476.5535	0.1035	953107	keystroke_i	i	n/a
476.702	0.075	953404	keystroke_t	t	n/a
476.8515	0.061	953703	keystroke_Key.space	Key.space	n/a
477.0625	0.074	954125	keystroke_i	i	n/a
477.1675	0.134	954335	keystroke_n	n	n/a
477.4065	0.105	954813	keystroke_c	c	n/a
477.5265	0.091	955053	keystroke_h	h	n/a
477.632	0.075	955264	keystroke_Key.space	Key.space	n/a
477.8425	0.075	955685	keystroke_h	h	n/a
478.0225	0.059	956045	keystroke_u	u	n/a
478.187	0.0895	956374	keystroke_n	n	n/a
478.3515	0.091	956703	keystroke_d	d	n/a
478.606	0.09	957212	keystroke_r	r	n/a
478.757	0.06	957514	keystroke_e	e	n/a
479.0265	0.075	958053	keystroke_d	d	n/a
479.2215	0.09	958443	keystroke_s	s	n/a
479.372	0.0895	958744	keystroke_Key.space	Key.space	n/a
479.702	0.0895	959404	keystroke_s	s	n/a
479.911	0.0905	959822	keystroke_c	c	n/a
480.0765	0.0905	960153	keystroke_i	i	n/a
480.2415	0.09	960483	keystroke_e	e	n/a
480.3165	0.1205	960633	keystroke_n	n	n/a
480.527	0.089	961054	keystroke_c	c	n/a
480.736	0.061	961472	keystroke_e	e	n/a
480.857	0.09	961714	keystroke_s	s	n/a
480.992	0.12	961984	keystroke_Key.enter	Key.enter	n/a
481.131	7.109	962262	prompt	n/a	trap goto everybody refresh\n
481.967	0.075	963934	keystroke_t	t	n/a
482.131	0.0765	964262	keystroke_r	r	n/a
482.252	0.1055	964504	keystroke_a	a	n/a
482.402	0.105	964804	keystroke_p	p	n/a
482.537	0.06	965074	keystroke_Key.space	Key.space	n/a
482.7465	0.075	965493	keystroke_t	t	n/a
482.867	0.09	965734	keystroke_o	o	n/a
483.8275	0.074	967655	keystroke_Key.backspace	Key.backspace	n/a
483.977	0.075	967954	keystroke_Key.backspace	Key.backspace	n/a
484.188	0.089	968376	keystroke_g	g	n/a
484.321	0.091	968642	keystroke_o	o	n/a
484.502	0.075	969004	keystroke_t	t	n/a
484.622	0.09	969244	keystroke_o	o	n/a
484.742	0.0595	969484	keystroke_Key.space	Key.space	n/a
484.9215	0.0755	969843	keystroke_e	e	n/a
485.0725	0.089	970145	keystroke_v	v	n/a
485.2075	0.104	970415	keystroke_e	e	n/a
485.2965	0.0905	970593	keystroke_r	r	n/a
485.4325	0.105	970865	keystroke_y	y	n/a
485.867	0.09	971734	keystroke_b	b	n/a
486.107	0.09	972214	keystroke_o	o	n/a
486.317	0.0755	972634	keystroke_d	d	n/a
486.4225	0.1045	972845	keystroke_y	y	n/a
486.541	0.06	973082	keystroke_Key.space	Key.space	n/a
486.767	0.1055	973534	keystroke_r	r	n/a
486.857	0.0895	973714	keystroke_e	e	n/a
487.1115	0.075	974223	keystroke_f	f	n/a
487.2915	0.12	974583	keystroke_r	r	n/a
487.4275	0.0895	974855	keystroke_e	e	n/a
487.622	0.1055	975244	keystroke_s	s	n/a
487.8465	0.09	975693	keystroke_h	h	n/a
488.131	0.105	976262	keystroke_Key.enter	Key.enter	n/a
488.2455	7.4625	976491	prompt	n/a	bomb thousand explanation decline\n
489.0475	0.074	978095	keystroke_b	b	n/a
489.1515	0.1205	978303	keystroke_o	o	n/a
489.4065	0.1055	978813	keystroke_m	m	n/a
489.7215	0.09	979443	keystroke_b	b	n/a
489.9615	0.06	979923	keystroke_Key.space	Key.space	n/a
490.3525	0.0745	980705	keystroke_t	t	n/a
490.4275	0.09	980855	keystroke_h	h	n/a
490.5325	0.1945	981065	keystroke_o	o	n/a
490.6815	0.135	981363	keystroke_u	u	n/a
491.0425	0.1045	982085	keystroke_s	s	n/a
491.4025	0.09	982805	keystroke_a	a	n/a
491.4945	0.147	982989	keystroke_n	n	n/a
491.6115	0.0905	983223	keystroke_d	d	n/a
491.7615	0.075	983523	keystroke_Key.space	Key.space	n/a
492.122	0.075	984244	keystroke_e	e	n/a
492.317	0.105	984634	keystroke_x	x	n/a
492.497	0.09	984994	keystroke_p	p	n/a
492.662	0.15	985324	keystroke_l	l	n/a
492.872	0.1205	985744	keystroke_a	a	n/a
493.1865	0.075	986373	keystroke_n	n	n/a
493.3225	0.089	986645	keystroke_a	a	n/a
493.5325	0.059	987065	keystroke_t	t	n/a
493.6225	0.119	987245	keystroke_i	i	n/a
493.6975	0.1645	987395	keystroke_o	o	n/a
493.8025	0.1645	987605	keystroke_n	n	n/a
493.9215	0.0755	987843	keystroke_Key.space	Key.space	n/a
494.117	0.075	988234	keystroke_d	d	n/a
494.2965	0.0605	988593	keystroke_e	e	n/a
494.537	0.0745	989074	keystroke_c	c	n/a
494.6865	0.105	989373	keystroke_l	l	n/a
494.8215	0.1055	989643	keystroke_i	i	n/a
495.2415	0.09	990483	keystroke_n	n	n/a
495.4215	0.0755	990843	keystroke_e	e	n/a
495.6165	0.09	991233	keystroke_Key.enter	Key.enter	n/a
495.7235	8.4	991447	prompt	n/a	jeremy hebrew generated bookmark\n
496.5465	0.091	993093	keystroke_j	j	n/a
496.6825	0.075	993365	keystroke_e	e	n/a
496.9215	0.09	993843	keystroke_r	r	n/a
497.0565	0.09	994113	keystroke_e	e	n/a
497.2815	0.09	994563	keystroke_m	m	n/a
497.537	0.075	995074	keystroke_y	y	n/a
497.7315	0.045	995463	keystroke_Key.space	Key.space	n/a
497.9865	0.075	995973	keystroke_h	h	n/a
498.3465	0.075	996693	keystroke_e	e	n/a
499.037	0.0745	998074	keystroke_b	b	n/a
499.457	0.0745	998914	keystroke_r	r	n/a
499.652	0.0745	999304	keystroke_e	e	n/a
499.8015	0.0905	999603	keystroke_w	w	n/a
499.967	0.075	999934	keystroke_Key.space	Key.space	n/a
500.2525	0.075	1000505	keystroke_g	g	n/a
500.762	0.075	1001524	keystroke_e	e	n/a
501.1225	0.105	1002245	keystroke_n	n	n/a
501.2865	0.076	1002573	keystroke_e	e	n/a
501.4215	0.105	1002843	keystroke_r	r	n/a
501.556	0.1205	1003112	keystroke_a	a	n/a
501.737	0.1045	1003474	keystroke_t	t	n/a
501.8865	0.075	1003773	keystroke_e	e	n/a
502.0515	0.0755	1004103	keystroke_d	d	n/a
502.1715	0.075	1004343	keystroke_Key.space	Key.space	n/a
502.4415	0.0605	1004883	keystroke_b	b	n/a
502.6075	0.0595	1005215	keystroke_o	o	n/a
502.757	0.09	1005514	keystroke_o	o	n/a
502.922	0.105	1005844	keystroke_k	k	n/a
503.267	0.0895	1006534	keystroke_m	m	n/a
503.402	0.135	1006804	keystroke_a	a	n/a
503.507	0.105	1007014	keystroke_r	r	n/a
503.717	0.09	1007434	keystroke_k	k	n/a
504.002	0.1195	1008004	keystroke_Key.enter	Key.enter	n/a
504.1385	6.675	1008277	prompt	n/a	emily returns communist visible\n
504.8425	0.0895	1009685	keystroke_e	e	n/a
504.977	0.09	1009954	keystroke_m	m	n/a
505.127	0.0905	1010254	keystroke_i	i	n/a
505.3065	0.1355	1010613	keystroke_l	l	n/a
505.4265	0.106	1010853	keystroke_y	y	n/a
505.577	0.09	1011154	keystroke_Key.space	Key.space	n/a
505.967	0.09	1011934	keystroke_r	r	n/a
506.1615	0.075	1012323	keystroke_e	e	n/a
506.387	0.075	1012774	keystroke_t	t	n/a
506.507	0.09	1013014	keystroke_u	u	n/a
506.612	0.075	1013224	keystroke_r	r	n/a
506.7165	0.1045	1013433	keystroke_n	n	n/a
506.957	0.1195	1013914	keystroke_s	s	n/a
507.152	0.075	1014304	keystroke_Key.space	Key.space	n/a
507.587	0.06	1015174	keystroke_c	c	n/a
507.677	0.12	1015354	keystroke_o	o	n/a
507.768	0.104	1015536	keystroke_m	m	n/a
507.9915	0.075	1015983	keystroke_m	m	n/a
508.187	0.0745	1016374	keystroke_u	u	n/a
508.7715	0.06	1017543	keystroke_n	n	n/a
509.0115	0.075	1018023	keystroke_i	i	n/a
509.132	0.0895	1018264	keystroke_s	s	n/a
509.2515	0.0755	1018503	keystroke_t	t	n/a
509.386	0.076	1018772	keystroke_Key.space	Key.space	n/a
509.598	0.074	1019196	keystroke_v	v	n/a
509.777	0.09	1019554	keystroke_i	i	n/a
509.972	0.0895	1019944	keystroke_s	s	n/a
510.1215	0.06	1020243	keystroke_i	i	n/a
510.257	0.0745	1020514	keystroke_b	b	n/a
510.437	0.105	1020874	keystroke_l	l	n/a
510.557	0.0455	1021114	keystroke_e	e	n/a
510.722	0.0895	1021444	keystroke_Key.enter	Key.enter	n/a
510.8295	8.564	1021659	prompt	n/a	observations eventually assured britain\n
511.6665	0.09	1023333	keystroke_o	o	n/a
511.8765	0.09	1023753	keystroke_b	b	n/a
512.237	0.0905	1024474	keystroke_s	s	n/a
512.4465	0.091	1024893	keystroke_e	e	n/a
512.5225	0.105	1025045	keystroke_r	r	n/a
512.8375	0.09	1025675	keystroke_v	v	n/a
512.9875	0.1195	1025975	keystroke_a	a	n/a
513.122	0.075	1026244	keystroke_t	t	n/a
513.2125	0.119	1026425	keystroke_i	i	n/a
513.2865	0.1945	1026573	keystroke_o	o	n/a
513.407	0.179	1026814	keystroke_n	n	n/a
513.527	0.0895	1027054	keystroke_s	s	n/a
513.6315	0.0745	1027263	keystroke_Key.space	Key.space	n/a
513.797	0.075	1027594	keystroke_e	e	n/a
513.947	0.105	1027894	keystroke_v	v	n/a
514.097	0.089	1028194	keystroke_e	e	n/a
514.262	0.09	1028524	keystroke_n	n	n/a
514.502	0.0605	1029004	keystroke_t	t	n/a
514.622	0.074	1029244	keystroke_u	u	n/a
514.757	0.105	1029514	keystroke_a	a	n/a
514.907	0.075	1029814	keystroke_l	l	n/a
515.0575	0.075	1030115	keystroke_l	l	n/a
515.177	0.119	1030354	keystroke_y	y	n/a
515.311	0.0905	1030622	keystroke_Key.space	Key.space	n/a
515.957	0.1195	1031914	keystroke_a	a	n/a
516.2865	0.0605	1032573	keystroke_s	s	n/a
516.422	0.1045	1032844	keystroke_s	s	n/a
516.5715	0.105	1033143	keystroke_u	u	n/a
516.8865	0.0905	1033773	keystroke_r	r	n/a
517.0215	0.076	1034043	keystroke_e	e	n/a
517.2165	0.076	1034433	keystroke_d	d	n/a
517.3365	0.09	1034673	keystroke_Key.space	Key.space	n/a
517.5915	0.075	1035183	keystroke_b	b	n/a
517.7875	0.0585	1035575	keystroke_r	r	n/a
517.966	0.106	1035932	keystroke_i	i	n/a
518.5825	0.0585	1037165	keystroke_t	t	n/a
518.7615	0.105	1037523	keystroke_a	a	n/a
518.881	0.105	1037762	keystroke_i	i	n/a
518.971	0.1805	1037942	keystroke_n	n	n/a
519.301	0.09	1038602	keystroke_Key.enter	Key.enter	n/a
519.398	6.8805	1038796	prompt	n/a	otherwise reading smilies expiration\n
520.127	0.0745	1040254	keystroke_o	o	n/a
520.2615	0.075	1040523	keystroke_t	t	n/a
520.3515	0.1355	1040703	keystroke_h	h	n/a
520.4415	0.151	1040883	keystroke_e	e	n/a
520.7425	0.075	1041485	keystroke_r	r	n/a
521.282	0.0895	1042564	keystroke_w	w	n/a
521.3865	0.09	1042773	keystroke_i	i	n/a
521.567	0.1055	1043134	keystroke_s	s	n/a
521.762	0.09	1043524	keystroke_e	e	n/a
521.896	0.075	1043792	keystroke_Key.space	Key.space	n/a
522.137	0.09	1044274	keystroke_r	r	n/a
522.2425	0.0745	1044485	keystroke_e	e	n/a
522.377	0.119	1044754	keystroke_a	a	n/a
522.602	0.045	1045204	keystroke_d	d	n/a
522.737	0.15	1045474	keystroke_i	i	n/a
522.8115	0.1945	1045623	keystroke_n	n	n/a
522.917	0.119	1045834	keystroke_g	g	n/a
523.021	0.091	1046042	keystroke_Key.space	Key.space	n/a
523.217	0.105	1046434	keystroke_s	s	n/a
523.352	0.089	1046704	keystroke_m	m	n/a
523.502	0.105	1047004	keystroke_i	i	n/a
523.6815	0.136	1047363	keystroke_l	l	n/a
523.8025	0.0895	1047605	keystroke_e	e	n/a
523.952	0.1045	1047904	keystroke_s	s	n/a
524.086	0.0755	1048172	keystroke_Key.space	Key.space	n/a
524.3565	0.0755	1048713	keystroke_e	e	n/a
524.627	0.105	1049254	keystroke_x	x	n/a
524.8665	0.091	1049733	keystroke_p	p	n/a
525.0765	0.09	1050153	keystroke_i	i	n/a
525.2565	0.075	1050513	keystroke_r	r	n/a
525.3915	0.1205	1050783	keystroke_a	a	n/a
525.527	0.075	1051054	keystroke_t	t	n/a
525.6315	0.1355	1051263	keystroke_i	i	n/a
525.737	0.1655	1051474	keystroke_o	o	n/a
525.857	0.1795	1051714	keystroke_n	n	n/a
526.172	0.1045	1052344	keystroke_Key.enter	Key.enter	n/a
526.282	7.7365	1052564	prompt	n/a	each photographers yourself aircraft\n
526.967	0.0745	1053934	keystroke_e	e	n/a
527.1165	0.1055	1054233	keystroke_a	a	n/a
527.416	0.0765	1054832	keystroke_c	c	n/a
527.522	0.089	1055044	keystroke_h	h	n/a
527.627	0.074	1055254	keystroke_Key.space	Key.space	n/a
527.866	0.076	1055732	keystroke_p	p	n/a
527.9875	0.0895	1055975	keystroke_h	h	n/a
528.0775	0.12	1056155	keystroke_o	o	n/a
528.3025	0.0745	1056605	keystroke_t	t	n/a
528.452	0.089	1056904	keystroke_o	o	n/a
528.632	0.06	1057264	keystroke_g	g	n/a
528.827	0.0445	1057654	keystroke_r	r	n/a
528.931	0.106	1057862	keystroke_a	a	n/a
529.1565	0.105	1058313	keystroke_p	p	n/a
529.307	0.09	1058614	keystroke_h	h	n/a
529.5615	0.105	1059123	keystroke_e	e	n/a
529.6515	0.105	1059303	keystroke_r	r	n/a
529.8625	0.1035	1059725	keystroke_s	s	n/a
529.996	0.076	1059992	keystroke_Key.space	Key.space	n/a
530.252	0.075	1060504	keystroke_y	y	n/a
530.402	0.135	1060804	keystroke_o	o	n/a
530.492	0.135	1060984	keystroke_u	u	n/a
530.9125	0.0885	1061825	keystroke_r	r	n/a
531.242	0.105	1062484	keystroke_s	s	n/a
531.392	0.075	1062784	keystroke_e	e	n/a
531.527	0.1355	1063054	keystroke_l	l	n/a
531.647	0.09	1063294	keystroke_f	f	n/a
531.812	0.075	1063624	keystroke_Key.space	Key.space	n/a
532.186	0.1065	1064372	keystroke_a	a	n/a
532.337	0.105	1064674	keystroke_i	i	n/a
532.607	0.075	1065214	keystroke_r	r	n/a
532.9375	0.0895	1065875	keystroke_c	c	n/a
533.147	0.06	1066294	keystroke_r	r	n/a
533.312	0.1045	1066624	keystroke_a	a	n/a
533.507	0.0595	1067014	keystroke_f	f	n/a
