onset	duration	sample	value	key	prompt_text
8.3665	19.2085	16733	prompt	n/a	the quick brown fox jumps over a lazy dog\n
10.0995	0.001	20199	keystroke_t	t	n/a
10.1275	0.074	20255	keystroke_h	h	n/a
10.2025	0.045	20405	keystroke_e	e	n/a
10.6365	0.12	21273	keystroke_Key.space	Key.space	n/a
10.9215	0.015	21843	keystroke_w	w	n/a
11.0115	0.046	22023	keystroke_u	u	n/a
11.4775	0.059	22955	keystroke_Key.backspace	Key.backspace	n/a
11.6115	0.061	23223	keystroke_Key.backspace	Key.backspace	n/a
12.3315	0.046	24663	keystroke_q	q	n/a
12.4665	0.121	24933	keystroke_u	u	n/a
12.5565	0.076	25113	keystroke_i	i	n/a
12.6775	0.074	25355	keystroke_c	c	n/a
12.7975	0.075	25595	keystroke_k	k	n/a
12.9915	0.075	25983	keystroke_Key.space	Key.space	n/a
13.1865	0.075	26373	keystroke_b	b	n/a
13.3815	0.075	26763	keystroke_r	r	n/a
13.7725	0.089	27545	keystroke_o	o	n/a
13.9065	0.061	27813	keystroke_w	w	n/a
14.0115	0.061	28023	keystroke_n	n	n/a
21.5145	0.057	43029	keystroke_Key.space	Key.space	n/a
21.5865	0.016	43173	keystroke_f	f	n/a
21.6615	0.075	43323	keystroke_o	o	n/a
21.8115	0.075	43623	keystroke_x	x	n/a
22.1565	0.1355	44313	keystroke_Key.space	Key.space	n/a
22.757	0.0755	45514	keystroke_j	j	n/a
22.8925	0.074	45785	keystroke_u	u	n/a
23.087	0.1195	46174	keystroke_m	m	n/a
23.1925	0.09	46385	keystroke_p	p	n/a
23.3575	0.0595	46715	keystroke_s	s	n/a
23.462	0.105	46924	keystroke_Key.space	Key.space	n/a
23.6725	0.059	47345	keystroke_o	o	n/a
23.793	0.075	47586	keystroke_v	v	n/a
24.0015	0.1355	48003	keystroke_e	e	n/a
24.122	0.0755	48244	keystroke_r	r	n/a
24.2565	0.1055	48513	keystroke_Key.space	Key.space	n/a
24.5425	0.089	49085	keystroke_a	a	n/a
24.6475	0.104	49295	keystroke_Key.space	Key.space	n/a
24.7975	0.075	49595	keystroke_l	l	n/a
24.9015	0.075	49803	keystroke_a	a	n/a
25.2175	0.105	50435	keystroke_z	z	n/a
25.3065	0.06	50613	keystroke_y	y	n/a
25.4875	0.09	50975	keystroke_Key.space	Key.space	n/a
25.6065	0.091	51213	keystroke_d	d	n/a
25.7115	0.045	51423	keystroke_o	o	n/a
25.8315	0.046	51663	keystroke_g	g	n/a
27.5115	0.061	55023	keystroke_Key.enter	Key.enter	n/a
27.579	8.6955	55158	prompt	n/a	location domestic franklin shepherd\n
28.5325	0.09	57065	keystroke_l	l	n/a
28.7275	0.06	57455	keystroke_o	o	n/a
28.8025	0.074	57605	keystroke_c	c	n/a
29.2975	0.075	58595	keystroke_a	a	n/a
29.4625	0.075	58925	keystroke_t	t	n/a
29.5225	0.12	59045	keystroke_i	i	n/a
29.5825	0.09	59165	keystroke_o	o	n/a
29.7775	0.075	59555	keystroke_n	n	n/a
29.9125	0.105	59825	keystroke_Key.space	Key.space	n/a
30.0475	0.12	60095	keystroke_d	d	n/a
30.5875	0.06	61175	keystroke_o	o	n/a
30.7825	0.06	61565	keystroke_m	m	n/a
31.0075	0.06	62015	keystroke_e	e	n/a
31.1875	0.09	62375	keystroke_s	s	n/a
31.4275	0.06	62855	keystroke_t	t	n/a
31.5175	0.06	63035	keystroke_i	i	n/a
31.7125	0.06	63425	keystroke_c	c	n/a
31.9975	0.105	63995	keystroke_Key.space	Key.space	n/a
32.5525	0.045	65105	keystroke_f	f	n/a
32.6725	0.075	65345	keystroke_r	r	n/a
32.8075	0.075	65615	keystroke_a	a	n/a
32.9275	0.135	65855	keystroke_n	n	n/a
33.0775	0.06	66155	keystroke_k	k	n/a
33.2875	0.075	66575	keystroke_l	l	n/a
33.4525	0.06	66905	keystroke_i	i	n/a
33.6175	0.045	67235	keystroke_n	n	n/a
33.8275	0.09	67655	keystroke_Key.space	Key.space	n/a
34.3525	0.075	68705	keystroke_s	s	n/a
34.4425	0.06	68885	keystroke_h	h	n/a
34.6675	0.045	69335	keystroke_e	e	n/a
34.7725	0.06	69545	keystroke_p	p	n/a
35.1625	0.06	70325	keystroke_h	h	n/a
35.2675	0.09	70535	keystroke_e	e	n/a
35.7325	0.06	71465	keystroke_r	r	n/a
35.9275	0.075	71855	keystroke_d	d	n/a
36.2125	0.06	72425	keystroke_Key.enter	Key.enter	n/a
36.278	6.5515	72556	prompt	n/a	builder tuition annotated matt\n
36.9325	0.075	73865	keystroke_b	b	n/a
37.0525	0.105	74105	keystroke_u	u	n/a
37.1725	0.075	74345	keystroke_i	i	n/a
37.4125	0.075	74825	keystroke_l	l	n/a
37.5325	0.075	75065	keystroke_d	d	n/a
37.7275	0.12	75455	keystroke_e	e	n/a
37.8325	0.075	75665	keystroke_r	r	n/a
37.9675	0.105	75935	keystroke_Key.space	Key.space	n/a
38.2375	0.045	76475	keystroke_t	t	n/a
38.2975	0.06	76595	keystroke_u	u	n/a
38.7475	0.06	77495	keystroke_i	i	n/a
38.8525	0.06	77705	keystroke_t	t	n/a
38.9875	0.15	77975	keystroke_i	i	n/a
39.0775	0.075	78155	keystroke_o	o	n/a
39.2575	0.12	78515	keystroke_n	n	n/a
39.3625	0.135	78725	keystroke_Key.space	Key.space	n/a
39.5275	0.12	79055	keystroke_a	a	n/a
39.6175	0.045	79235	keystroke_n	n	n/a
39.7525	0.105	79505	keystroke_n	n	n/a
39.8725	0.09	79745	keystroke_o	o	n/a
40.0525	0.045	80105	keystroke_t	t	n/a
41.2375	0.09	82475	keystroke_a	a	n/a
41.3875	0.075	82775	keystroke_t	t	n/a
41.5525	0.06	83105	keystroke_e	e	n/a
41.7625	0.06	83525	keystroke_d	d	n/a
41.8675	0.105	83735	keystroke_Key.space	Key.space	n/a
42.1225	0.045	84245	keystroke_m	m	n/a
42.2725	0.06	84545	keystroke_a	a	n/a
42.4675	0.06	84935	keystroke_t	t	n/a
42.5875	0.06	85175	keystroke_t	t	n/a
42.7675	0.06	85535	keystroke_Key.enter	Key.enter	n/a
42.8335	9.386	85667	prompt	n/a	anymore oriented warner jacksonville\n
43.5925	0.06	87185	keystroke_a	a	n/a
43.6975	0.09	87395	keystroke_n	n	n/a
43.9375	0.045	87875	keystroke_y	y	n/a
44.4325	0.105	88865	keystroke_m	m	n/a
44.5825	0.045	89165	keystroke_o	o	n/a
44.6575	0.06	89315	keystroke_r	r	n/a
44.7775	0.075	89555	keystroke_e	e	n/a
44.9425	0.075	89885	keystroke_Key.space	Key.space	n/a
45.1375	0.06	90275	keystroke_o	o	n/a
45.3475	0.045	90695	keystroke_r	r	n/a
45.4525	0.06	90905	keystroke_i	i	n/a
45.6775	0.06	91355	keystroke_e	e	n/a
45.8125	0.06	91625	keystroke_n	n	n/a
46.0225	0.045	92045	keystroke_t	t	n/a
46.1725	0.06	92345	keystroke_e	e	n/a
46.3525	0.06	92705	keystroke_d	d	n/a
46.5625	0.105	93125	keystroke_Key.space	Key.space	n/a
46.7725	0.015	93545	keystroke_w	w	n/a
47.1625	0.09	94325	keystroke_a	a	n/a
47.3275	0.06	94655	keystroke_r	r	n/a
47.8525	0.06	95705	keystroke_n	n	n/a
48.0325	0.135	96065	keystroke_e	e	n/a
48.1825	0.06	96365	keystroke_r	r	n/a
48.4825	0.105	96965	keystroke_Key.space	Key.space	n/a
48.7375	0.075	97475	keystroke_a	a	n/a
49.0975	0.075	98195	keystroke_Key.backspace	Key.backspace	n/a
49.7125	0.075	99425	keystroke_j	j	n/a
49.7875	0.075	99575	keystroke_a	a	n/a
49.9975	0.06	99995	keystroke_c	c	n/a
50.0725	0.06	100145	keystroke_k	k	n/a
50.1925	0.075	100385	keystroke_s	s	n/a
50.2975	0.045	100595	keystroke_o	o	n/a
50.4625	0.075	100925	keystroke_n	n	n/a
51.0625	0.06	102125	keystroke_v	v	n/a
51.1375	0.075	102275	keystroke_i	i	n/a
51.3475	0.045	102695	keystroke_l	l	n/a
51.4675	0.075	102935	keystroke_l	l	n/a
51.5575	0.075	103115	keystroke_e	e	n/a
52.1575	0.06	104315	keystroke_Key.enter	Key.enter	n/a
52.2225	8.0515	104445	prompt	n/a	seconds that'll sagem don't\n
52.9825	0.09	105965	keystroke_s	s	n/a
53.1475	0.045	106295	keystroke_e	e	n/a
53.3425	0.075	106685	keystroke_c	c	n/a
53.4325	0.06	106865	keystroke_o	o	n/a
53.5825	0.06	107165	keystroke_n	n	n/a
53.6875	0.045	107375	keystroke_d	d	n/a
53.9425	0.06	107885	keystroke_s	s	n/a
54.2575	0.105	108515	keystroke_Key.space	Key.space	n/a
54.5725	0.06	109145	keystroke_t	t	n/a
54.6475	0.075	109295	keystroke_h	h	n/a
54.7235	0.119	109447	keystroke_a	a	n/a
54.7975	0.075	109595	keystroke_t	t	n/a
55.0825	0.045	110165	keystroke_'	'	n/a
55.6225	0.075	111245	keystroke_l	l	n/a
55.7575	0.09	111515	keystroke_l	l	n/a
55.8925	0.105	111785	keystroke_Key.space	Key.space	n/a
56.1775	0.06	112355	keystroke_s	s	n/a
56.3425	0.06	112685	keystroke_a	a	n/a
58.0675	0.03	116135	keystroke_g	g	n/a
58.2175	0.03	116435	keystroke_e	e	n/a
58.3375	0.06	116675	keystroke_m	m	n/a
58.6975	0.09	117395	keystroke_Key.space	Key.space	n/a
59.0125	0.075	118025	keystroke_d	d	n/a
59.1025	0.06	118205	keystroke_o	o	n/a
59.2075	0.075	118415	keystroke_n	n	n/a
59.4775	0.06	118955	keystroke_'	'	n/a
59.8075	0.03	119615	keystroke_t	t	n/a
60.2125	0.06	120425	keystroke_Key.enter	Key.enter	n/a
60.2775	5.247	120555	prompt	n/a	prospective apple foot bids\n
61.0375	0.06	122075	keystroke_p	p	n/a
61.1275	0.045	122255	keystroke_r	r	n/a
61.2175	0.06	122435	keystroke_o	o	n/a
61.3825	0.075	122765	keystroke_s	s	n/a
61.6375	0.075	123275	keystroke_p	p	n/a
61.7425	0.046	123485	keystroke_e	e	n/a
61.9375	0.075	123875	keystroke_c	c	n/a
62.2525	0.045	124505	keystroke_t	t	n/a
62.4325	0.06	124865	keystroke_i	i	n/a
62.5225	0.06	125045	keystroke_v	v	n/a
62.7025	0.06	125405	keystroke_e	e	n/a
62.7635	0.089	125527	keystroke_Key.space	Key.space	n/a
62.8975	0.09	125795	keystroke_a	a	n/a
62.9725	0.045	125945	keystroke_p	p	n/a
63.0925	0.075	126185	keystroke_p	p	n/a
63.2725	0.06	126545	keystroke_l	l	n/a
63.3625	0.06	126725	keystroke_e	e	n/a
63.4675	0.075	126935	keystroke_Key.space	Key.space	n/a
63.6775	0.045	127355	keystroke_f	f	n/a
63.7525	0.06	127505	keystroke_o	o	n/a
63.8875	0.09	127775	keystroke_o	o	n/a
64.0225	0.045	128045	keystroke_t	t	n/a
64.1275	0.09	128255	keystroke_Key.space	Key.space	n/a
64.3075	0.075	128615	keystroke_b	b	n/a
64.4725	0.06	128945	keystroke_i	i	n/a
64.5475	0.06	129095	keystroke_d	d	n/a
64.6825	0.075	129365	keystroke_s	s	n/a
65.4475	0.075	130895	keystroke_Key.enter	Key.enter	n/a
65.5295	6.6245	131059	prompt	n/a	creek counsel versions allocated\n
66.2275	0.09	132455	keystroke_c	c	n/a
66.4975	0.046	132995	keystroke_r	r	n/a
66.6475	0.046	133295	keystroke_e	e	n/a
66.7685	0.075	133537	keystroke_e	e	n/a
66.9025	0.075	133805	keystroke_k	k	n/a
67.0975	0.09	134195	keystroke_Key.space	Key.space	n/a
67.4425	0.076	134885	keystroke_c	c	n/a
67.5325	0.075	135065	keystroke_o	o	n/a
67.6825	0.0455	135365	keystroke_u	u	n/a
67.818	0.09	135636	keystroke_n	n	n/a
67.938	0.06	135876	keystroke_s	s	n/a
68.223	0.03	136446	keystroke_e	e	n/a
68.313	0.075	136626	keystroke_l	l	n/a
68.478	0.105	136956	keystroke_Key.space	Key.space	n/a
68.928	0.03	137856	keystroke_v	v	n/a
69.168	0.09	138336	keystroke_e	e	n/a
69.303	0.06	138606	keystroke_r	r	n/a
69.468	0.075	138936	keystroke_s	s	n/a
69.558	0.15	139116	keystroke_i	i	n/a
69.648	0.075	139296	keystroke_o	o	n/a
69.813	0.075	139626	keystroke_n	n	n/a
70.383	0.09	140766	keystroke_s	s	n/a
70.548	0.105	141096	keystroke_Key.space	Key.space	n/a
70.698	0.075	141396	keystroke_a	a	n/a
70.788	0.06	141576	keystroke_l	l	n/a
70.923	0.09	141846	keystroke_l	l	n/a
71.088	0.045	142176	keystroke_o	o	n/a
71.163	0.09	142326	keystroke_c	c	n/a
71.403	0.075	142806	keystroke_a	a	n/a
71.523	0.06	143046	keystroke_t	t	n/a
71.688	0.045	143376	keystroke_e	e	n/a
71.883	0.03	143766	keystroke_d	d	n/a
72.108	0.045	144216	keystroke_Key.enter	Key.enter	n/a
72.158	5.8465	144316	prompt	n/a	piano carb fully resistant\n
72.888	0.06	145776	keystroke_p	p	n/a
73.053	0.075	146106	keystroke_i	i	n/a
73.173	0.075	146346	keystroke_a	a	n/a
73.263	0.105	146526	keystroke_n	n	n/a
73.398	0.075	146796	keystroke_o	o	n/a
74.118	0.12	148236	keystroke_Key.space	Key.space	n/a
74.253	0.075	148506	keystroke_c	c	n/a
74.448	0.105	148896	keystroke_a	a	n/a
74.613	0.06	149226	keystroke_r	r	n/a
74.748	0.045	149496	keystroke_b	b	n/a
75.1975	0.135	150395	keystroke_Key.space	Key.space	n/a
75.3475	0.046	150695	keystroke_f	f	n/a
75.4075	0.061	150815	keystroke_u	u	n/a
75.6025	0.06	151205	keystroke_l	l	n/a
75.7225	0.09	151445	keystroke_l	l	n/a
75.9925	0.045	151985	keystroke_y	y	n/a
76.2625	0.09	152525	keystroke_Key.space	Key.space	n/a
76.5175	0.076	153035	keystroke_r	r	n/a
76.6675	0.045	153335	keystroke_e	e	n/a
76.8175	0.06	153635	keystroke_s	s	n/a
76.9075	0.045	153815	keystroke_i	i	n/a
77.0125	0.06	154025	keystroke_s	s	n/a
77.2825	0.045	154565	keystroke_t	t	n/a
77.3875	0.09	154775	keystroke_a	a	n/a
77.5225	0.06	155045	keystroke_n	n	n/a
77.6125	0.06	155225	keystroke_t	t	n/a
77.9435	0.059	155887	keystroke_Key.enter	Key.enter	n/a
78.0075	6.912	156015	prompt	n/a	molecules minutes craig sprint\n
78.7975	0.12	157595	keystroke_m	m	n/a
78.9475	0.045	157895	keystroke_o	o	n/a
79.1285	0.059	158257	keystroke_l	l	n/a
79.2475	0.06	158495	keystroke_e	e	n/a
79.4875	0.076	158975	keystroke_c	c	n/a
79.8175	0.076	159635	keystroke_u	u	n/a
80.0135	0.059	160027	keystroke_l	l	n/a
80.1185	0.059	160237	keystroke_e	e	n/a
80.2975	0.075	160595	keystroke_s	s	n/a
80.4175	0.105	160835	keystroke_Key.space	Key.space	n/a
80.5525	0.135	161105	keystroke_m	m	n/a
80.7475	0.06	161495	keystroke_i	i	n/a
80.8825	0.076	161765	keystroke_n	n	n/a
81.0325	0.075	162065	keystroke_u	u	n/a
81.2135	0.045	162427	keystroke_t	t	n/a
81.3635	0.15	162727	keystroke_e	e	n/a
81.5285	0.06	163057	keystroke_s	s	n/a
81.7225	0.105	163445	keystroke_Key.space	Key.space	n/a
82.1135	0.075	164227	keystroke_c	c	n/a
82.3385	0.059	164677	keystroke_r	r	n/a
82.4575	0.106	164915	keystroke_a	a	n/a
82.5935	0.059	165187	keystroke_i	i	n/a
82.7135	0.045	165427	keystroke_g	g	n/a
83.1775	0.075	166355	keystroke_Key.space	Key.space	n/a
83.3885	0.06	166777	keystroke_s	s	n/a
83.4785	0.06	166957	keystroke_p	p	n/a
83.6285	0.044	167257	keystroke_r	r	n/a
83.7035	0.06	167407	keystroke_i	i	n/a
83.8385	0.074	167677	keystroke_n	n	n/a
83.9585	0.06	167917	keystroke_t	t	n/a
84.8585	0.06	169717	keystroke_Key.enter	Key.enter	n/a
84.9225	9.7765	169845	prompt	n/a	wheat predictions medication glucose\n
85.938	0.075	171876	keystroke_w	w	n/a
86.028	0.09	172056	keystroke_h	h	n/a
86.133	0.075	172266	keystroke_e	e	n/a
86.373	0.105	172746	keystroke_a	a	n/a
86.523	0.075	173046	keystroke_t	t	n/a
87.018	0.09	174036	keystroke_Key.space	Key.space	n/a
87.168	0.06	174336	keystroke_p	p	n/a
87.438	0.06	174876	keystroke_r	r	n/a
87.543	0.075	175086	keystroke_e	e	n/a
87.768	0.06	175536	keystroke_d	d	n/a
88.263	0.045	176526	keystroke_i	i	n/a
88.353	0.09	176706	keystroke_c	c	n/a
88.608	0.09	177216	keystroke_a	a	n/a
88.773	0.09	177546	keystroke_t	t	n/a
88.848	0.135	177696	keystroke_i	i	n/a
88.923	0.075	177846	keystroke_o	o	n/a
89.088	0.045	178176	keystroke_n	n	n/a
89.163	0.075	178326	keystroke_s	s	n/a
89.988	0.105	179976	keystroke_Key.space	Key.space	n/a
90.153	0.075	180306	keystroke_m	m	n/a
90.243	0.06	180486	keystroke_e	e	n/a
90.798	0.06	181596	keystroke_d	d	n/a
90.888	0.06	181776	keystroke_i	i	n/a
90.963	0.075	181926	keystroke_c	c	n/a
91.263	0.075	182526	keystroke_a	a	n/a
91.398	0.06	182796	keystroke_t	t	n/a
91.443	0.12	182886	keystroke_i	i	n/a
91.518	0.075	183036	keystroke_o	o	n/a
91.908	0.045	183816	keystroke_n	n	n/a
92.103	0.105	184206	keystroke_Key.space	Key.space	n/a
92.463	0.045	184926	keystroke_g	g	n/a
92.538	0.075	185076	keystroke_l	l	n/a
92.733	0.06	185466	keystroke_u	u	n/a
92.883	0.0745	185766	keystroke_c	c	n/a
93.2575	0.075	186515	keystroke_o	o	n/a
93.4075	0.045	186815	keystroke_s	s	n/a
93.6025	0.03	187205	keystroke_e	e	n/a
94.6375	0.06	189275	keystroke_Key.enter	Key.enter	n/a
94.7015	9.913	189403	prompt	n/a	fruits responding embassy exhaust\n
95.5525	0.045	191105	keystroke_f	f	n/a
95.8375	0.03	191675	keystroke_r	r	n/a
95.9425	0.135	191885	keystroke_u	u	n/a
96.0625	0.06	192125	keystroke_i	i	n/a
96.1975	0.06	192395	keystroke_t	t	n/a
96.4825	0.06	192965	keystroke_s	s	n/a
97.1125	0.105	194225	keystroke_Key.space	Key.space	n/a
97.2325	0.06	194465	keystroke_r	r	n/a
97.3825	0.06	194765	keystroke_e	e	n/a
97.5325	0.075	195065	keystroke_s	s	n/a
97.6375	0.075	195275	keystroke_p	p	n/a
97.8325	0.06	195665	keystroke_o	o	n/a
97.9525	0.09	195905	keystroke_n	n	n/a
98.0575	0.06	196115	keystroke_d	d	n/a
98.162	0.0455	196324	keystroke_i	i	n/a
98.2825	0.075	196565	keystroke_n	n	n/a
98.3875	0.045	196775	keystroke_g	g	n/a
98.5525	0.105	197105	keystroke_Key.space	Key.space	n/a
98.9425	0.06	197885	keystroke_e	e	n/a
99.0325	0.075	198065	keystroke_m	m	n/a
99.1675	0.075	198335	keystroke_a	a	n/a
99.2875	0.045	198575	keystroke_b	b	n/a
99.8725	0.03	199745	keystroke_Key.backspace	Key.backspace	n/a
99.9925	0.06	199985	keystroke_Key.backspace	Key.backspace	n/a
100.2775	0.03	200555	keystroke_b	b	n/a
100.4275	0.045	200855	keystroke_a	a	n/a
100.6225	0.075	201245	keystroke_s	s	n/a
100.8025	0.09	201605	keystroke_s	s	n/a
101.0575	0.09	202115	keystroke_y	y	n/a
101.2675	0.09	202535	keystroke_Key.space	Key.space	n/a
101.5975	0.075	203195	keystroke_e	e	n/a
101.9425	0.06	203885	keystroke_x	x	n/a
102.1825	0.045	204365	keystroke_h	h	n/a
103.5175	0.06	207035	keystroke_a	a	n/a
103.5925	0.075	207185	keystroke_u	u	n/a
103.6975	0.09	207395	keystroke_s	s	n/a
104.0275	0.045	208055	keystroke_t	t	n/a
104.5525	0.06	209105	keystroke_Key.enter	Key.enter	n/a
104.6195	7.3295	209239	prompt	n/a	happened hunter ricky refuse\n
105.3925	0.075	210785	keystroke_h	h	n/a
105.5275	0.06	211055	keystroke_a	a	n/a
105.6025	0.09	211205	keystroke_p	p	n/a
105.7525	0.075	211505	keystroke_p	p	n/a
106.1875	0.045	212375	keystroke_e	e	n/a
106.2925	0.06	212585	keystroke_n	n	n/a
106.3825	0.09	212765	keystroke_e	e	n/a
106.6375	0.06	213275	keystroke_d	d	n/a
106.8475	0.075	213695	keystroke_Key.space	Key.space	n/a
107.0575	0.09	214115	keystroke_h	h	n/a
107.1325	0.105	214265	keystroke_u	u	n/a
107.3275	0.09	214655	keystroke_n	n	n/a
107.4325	0.075	214865	keystroke_t	t	n/a
107.6125	0.12	215225	keystroke_e	e	n/a
107.6875	0.09	215375	keystroke_r	r	n/a
107.9875	0.12	215975	keystroke_Key.space	Key.space	n/a
108.467	0.075	216934	keystroke_r	r	n/a
108.647	0.06	217294	keystroke_i	i	n/a
108.767	0.046	217534	keystroke_c	c	n/a
108.872	0.045	217744	keystroke_k	k	n/a
109.413	0.075	218826	keystroke_y	y	n/a
109.757	0.106	219514	keystroke_Key.space	Key.space	n/a
109.938	0.059	219876	keystroke_r	r	n/a
110.042	0.06	220084	keystroke_e	e	n/a
110.657	0.06	221314	keystroke_f	f	n/a
110.822	0.045	221644	keystroke_u	u	n/a
110.927	0.09	221854	keystroke_s	s	n/a
111.317	0.03	222634	keystroke_e	e	n/a
111.888	0.059	223776	keystroke_Key.enter	Key.enter	n/a
111.952	8.337	223904	prompt	n/a	nevertheless mouse expense require\n
112.743	0.074	225486	keystroke_n	n	n/a
112.833	0.044	225666	keystroke_e	e	n/a
112.983	0.074	225966	keystroke_v	v	n/a
113.177	0.106	226354	keystroke_e	e	n/a
113.298	0.074	226596	keystroke_r	r	n/a
113.702	0.061	227404	keystroke_t	t	n/a
113.777	0.076	227554	keystroke_h	h	n/a
113.913	0.06	227826	keystroke_e	e	n/a
114.258	0.075	228516	keystroke_l	l	n/a
114.543	0.059	229086	keystroke_e	e	n/a
114.858	0.06	229716	keystroke_s	s	n/a
115.023	0.06	230046	keystroke_s	s	n/a
115.292	0.09	230584	keystroke_Key.space	Key.space	n/a
115.443	0.18	230886	keystroke_m	m	n/a
115.608	0.059	231216	keystroke_o	o	n/a
115.773	0.06	231546	keystroke_u	u	n/a
115.848	0.105	231696	keystroke_s	s	n/a
116.102	0.031	232204	keystroke_e	e	n/a
116.327	0.091	232654	keystroke_Key.space	Key.space	n/a
116.448	0.015	232896	keystroke_e	e	n/a
116.688	0.06	233376	keystroke_x	x	n/a
116.763	0.06	233526	keystroke_p	p	n/a
116.973	0.045	233946	keystroke_e	e	n/a
117.063	0.045	234126	keystroke_n	n	n/a
117.168	0.075	234336	keystroke_s	s	n/a
117.363	0.045	234726	keystroke_e	e	n/a
117.827	0.091	235654	keystroke_Key.space	Key.space	n/a
118.218	0.075	236436	keystroke_r	r	n/a
118.338	0.06	236676	keystroke_e	e	n/a
118.938	0.06	237876	keystroke_q	q	n/a
119.358	0.075	238716	keystroke_u	u	n/a
119.508	0.09	239016	keystroke_i	i	n/a
119.703	0.06	239406	keystroke_r	r	n/a
119.823	0.06	239646	keystroke_e	e	n/a
120.228	0.06	240456	keystroke_Key.enter	Key.enter	n/a
120.292	8.697	240584	prompt	n/a	dual whilst conversation how're\n
121.188	0.105	242376	keystroke_d	d	n/a
121.308	0.06	242616	keystroke_u	u	n/a
121.413	0.09	242826	keystroke_a	a	n/a
121.548	0.045	243096	keystroke_l	l	n/a
121.638	0.09	243276	keystroke_Key.space	Key.space	n/a
121.803	0.06	243606	keystroke_w	w	n/a
121.878	0.105	243756	keystroke_h	h	n/a
121.968	0.075	243936	keystroke_i	i	n/a
122.148	0.06	244296	keystroke_l	l	n/a
122.253	0.09	244506	keystroke_s	s	n/a
122.673	0.045	245346	keystroke_t	t	n/a
122.883	0.075	245766	keystroke_Key.space	Key.space	n/a
123.108	0.09	246216	keystroke_c	c	n/a
123.183	0.06	246366	keystroke_o	o	n/a
123.303	0.06	246606	keystroke_n	n	n/a
123.438	0.075	246876	keystroke_c	c	n/a
123.738	0.105	247476	keystroke_e	e	n/a
124.068	0.03	248136	keystroke_Key.backspace	Key.backspace	n/a
124.203	0.06	248406	keystroke_Key.backspace	Key.backspace	n/a
124.503	0.06	249006	keystroke_v	v	n/a
124.758	0.045	249516	keystroke_e	e	n/a
125.298	0.06	250596	keystroke_r	r	n/a
125.598	0.075	251196	keystroke_s	s	n/a
125.778	0.075	251556	keystroke_a	a	n/a
125.928	0.075	251856	keystroke_t	t	n/a
126.018	0.09	252036	keystroke_i	i	n/a
126.048	0.105	252096	keystroke_o	o	n/a
126.258	0.03	252516	keystroke_n	n	n/a
126.348	0.075	252696	keystroke_Key.space	Key.space	n/a
126.498	0.105	252996	keystroke_h	h	n/a
126.618	0.06	253236	keystroke_o	o	n/a
127.023	0.06	254046	keystroke_w	w	n/a
127.878	0.06	255756	keystroke_'	'	n/a
128.103	0.045	256206	keystroke_r	r	n/a
128.208	0.06	256416	keystroke_e	e	n/a
128.928	0.06	257856	keystroke_Key.enter	Key.enter	n/a
128.9925	6.462	257985	prompt	n/a	excluded courage passing deals\n
129.618	0.03	259236	keystroke_e	e	n/a
129.873	0.03	259746	keystroke_x	x	n/a
130.083	0.045	260166	keystroke_c	c	n/a
130.203	0.06	260406	keystroke_l	l	n/a
130.443	0.06	260886	keystroke_u	u	n/a
130.638	0.075	261276	keystroke_d	d	n/a
130.818	0.045	261636	keystroke_e	e	n/a
130.998	0.045	261996	keystroke_d	d	n/a
131.193	0.105	262386	keystroke_Key.space	Key.space	n/a
131.388	0.09	262776	keystroke_c	c	n/a
131.5225	0.06	263045	keystroke_o	o	n/a
131.7625	0.045	263525	keystroke_u	u	n/a
131.9425	0.045	263885	keystroke_r	r	n/a
132.1075	0.1055	264215	keystroke_a	a	n/a
132.2425	0.06	264485	keystroke_g	g	n/a
132.4225	0.06	264845	keystroke_e	e	n/a
132.6325	0.075	265265	keystroke_Key.space	Key.space	n/a
132.7525	0.09	265505	keystroke_p	p	n/a
133.3225	0.06	266645	keystroke_a	a	n/a
133.5175	0.015	267035	keystroke_s	s	n/a
133.6525	0.045	267305	keystroke_s	s	n/a
133.7575	0.075	267515	keystroke_i	i	n/a
133.9375	0.06	267875	keystroke_n	n	n/a
134.0125	0.045	268025	keystroke_g	g	n/a
134.1025	0.06	268205	keystroke_Key.space	Key.space	n/a
134.2225	0.045	268445	keystroke_d	d	n/a
134.3725	0.045	268745	keystroke_e	e	n/a
134.4925	0.09	268985	keystroke_a	a	n/a
134.5825	0.075	269165	keystroke_l	l	n/a
135.1075	0.075	270215	keystroke_s	s	n/a
135.4075	0.045	270815	keystroke_Key.enter	Key.enter	n/a
135.4575	10.9015	270915	prompt	n/a	verify celebrate kate enlargement\n
136.3525	0.06	272705	keystroke_v	v	n/a
136.5475	0.105	273095	keystroke_e	e	n/a
136.6675	0.075	273335	keystroke_r	r	n/a
136.8025	0.06	273605	keystroke_i	i	n/a
136.9075	0.015	273815	keystroke_f	f	n/a
137.1625	0.045	274325	keystroke_y	y	n/a
137.7325	0.09	275465	keystroke_Key.space	Key.space	n/a
137.8075	0.06	275615	keystroke_d	d	n/a
138.1675	0.045	276335	keystroke_Key.backspace	Key.backspace	n/a
138.2575	0.075	276515	keystroke_c	c	n/a
138.4225	0.045	276845	keystroke_e	e	n/a
138.5875	0.045	277175	keystroke_l	l	n/a
138.9175	0.06	277835	keystroke_e	e	n/a
139.2925	0.045	278585	keystroke_b	b	n/a
139.3825	0.06	278765	keystroke_r	r	n/a
139.5625	0.06	279125	keystroke_a	a	n/a
139.6975	0.075	279395	keystroke_t	t	n/a
139.8475	0.06	279695	keystroke_e	e	n/a
139.9675	0.105	279935	keystroke_Key.space	Key.space	n/a
140.1925	0.06	280385	keystroke_k	k	n/a
140.3125	0.075	280625	keystroke_a	a	n/a
140.4325	0.075	280865	keystroke_t	t	n/a
140.5975	0.045	281195	keystroke_e	e	n/a
141.3625	0.075	282725	keystroke_Key.space	Key.space	n/a
141.4675	0.06	282935	keystroke_e	e	n/a
141.5875	0.09	283175	keystroke_n	n	n/a
142.6225	0.06	285245	keystroke_l	l	n/a
143.0425	0.075	286085	keystroke_r	r	n/a
143.1925	0.12	286385	keystroke_a	a	n/a
143.4025	0.045	286805	keystroke_g	g	n/a
144.1525	0.045	288305	keystroke_Key.backspace	Key.backspace	n/a
144.2875	0.06	288575	keystroke_Key.backspace	Key.backspace	n/a
144.4375	0.06	288875	keystroke_Key.backspace	Key.backspace	n/a
144.6775	0.075	289355	keystroke_a	a	n/a
144.9925	0.06	289985	keystroke_r	r	n/a
145.1725	0.045	290345	keystroke_g	g	n/a
145.5175	0.045	291035	keystroke_e	e	n/a
145.7125	0.075	291425	keystroke_m	m	n/a
145.8475	0.06	291695	keystroke_e	e	n/a
145.9525	0.045	291905	keystroke_n	n	n/a
146.0425	0.06	292085	keystroke_t	t	n/a
146.2975	0.06	292595	keystroke_Key.enter	Key.enter	n/a
146.364	7.555	292728	prompt	n/a	norfolk done neighborhood iowa\n
147.1075	0.105	294215	keystroke_n	n	n/a
147.2275	0.075	294455	keystroke_o	o	n/a
147.3325	0.03	294665	keystroke_r	r	n/a
147.6025	0.06	295205	keystroke_f	f	n/a
147.6775	0.06	295355	keystroke_o	o	n/a
147.9175	0.06	295835	keystroke_l	l	n/a
148.0375	0.075	296075	keystroke_k	k	n/a
148.2925	0.105	296585	keystroke_Key.space	Key.space	n/a
148.5475	0.06	297095	keystroke_d	d	n/a
148.6375	0.06	297275	keystroke_o	o	n/a
148.7725	0.075	297545	keystroke_n	n	n/a
148.8625	0.045	297725	keystroke_e	e	n/a
149.1325	0.105	298265	keystroke_Key.space	Key.space	n/a
149.3575	0.06	298715	keystroke_n	n	n/a
149.4325	0.06	298865	keystroke_e	e	n/a
149.5375	0.06	299075	keystroke_i	i	n/a
149.6275	0.06	299255	keystroke_g	g	n/a
149.7175	0.045	299435	keystroke_h	h	n/a
150.8725	0.075	301745	keystroke_b	b	n/a
150.9775	0.09	301955	keystroke_o	o	n/a
151.1125	0.045	302225	keystroke_r	r	n/a
151.4125	0.105	302825	keystroke_h	h	n/a
151.5025	0.09	303005	keystroke_o	o	n/a
151.6975	0.045	303395	keystroke_o	o	n/a
152.2975	0.045	304595	keystroke_d	d	n/a
152.5525	0.075	305105	keystroke_Key.space	Key.space	n/a
152.7175	0.03	305435	keystroke_i	i	n/a
152.8975	0.045	305795	keystroke_o	o	n/a
153.243	0.075	306486	keystroke_w	w	n/a
153.453	0.075	306906	keystroke_a	a	n/a
153.858	0.06	307716	keystroke_Key.enter	Key.enter	n/a
153.922	5.712	307844	prompt	n/a	constant midlands involved crimes\n
154.623	0.105	309246	keystroke_c	c	n/a
154.728	0.06	309456	keystroke_o	o	n/a
154.848	0.06	309696	keystroke_n	n	n/a
154.923	0.1045	309846	keystroke_s	s	n/a
155.1175	0.06	310235	keystroke_t	t	n/a
155.2075	0.09	310415	keystroke_a	a	n/a
155.3275	0.06	310655	keystroke_n	n	n/a
155.4175	0.06	310835	keystroke_t	t	n/a
155.493	0.1045	310986	keystroke_Key.space	Key.space	n/a
155.6125	0.105	311225	keystroke_m	m	n/a
155.7475	0.06	311495	keystroke_i	i	n/a
155.8225	0.045	311645	keystroke_d	d	n/a
156.0175	0.015	312035	keystroke_l	l	n/a
156.1375	0.06	312275	keystroke_a	a	n/a
156.2275	0.045	312455	keystroke_n	n	n/a
156.3175	0.075	312635	keystroke_d	d	n/a
156.4825	0.045	312965	keystroke_s	s	n/a
156.6475	0.09	313295	keystroke_Key.space	Key.space	n/a
156.7975	0.06	313595	keystroke_i	i	n/a
156.9325	0.06	313865	keystroke_n	n	n/a
157.0825	0.03	314165	keystroke_v	v	n/a
157.2175	0.045	314435	keystroke_o	o	n/a
157.4425	0.045	314885	keystroke_l	l	n/a
157.8625	0.045	315725	keystroke_v	v	n/a
158.0425	0.06	316085	keystroke_e	e	n/a
158.2375	0.06	316475	keystroke_d	d	n/a
158.4325	0.105	316865	keystroke_Key.space	Key.space	n/a
158.7025	0.105	317405	keystroke_c	c	n/a
158.9125	0.09	317825	keystroke_r	r	n/a
158.9875	0.045	317975	keystroke_i	i	n/a
159.1075	0.09	318215	keystroke_m	m	n/a
159.1975	0.06	318395	keystroke_e	e	n/a
159.4075	0.06	318815	keystroke_s	s	n/a
159.5875	0.045	319175	keystroke_Key.enter	Key.enter	n/a
159.6375	8.5315	319275	prompt	n/a	dance slots efficiency apartments\n
160.3975	0.09	320795	keystroke_d	d	n/a
160.5475	0.09	321095	keystroke_a	a	n/a
160.6525	0.06	321305	keystroke_n	n	n/a
160.7425	0.135	321485	keystroke_c	c	n/a
160.9225	0.075	321845	keystroke_e	e	n/a
161.1625	0.105	322325	keystroke_Key.space	Key.space	n/a
161.2525	0.06	322505	keystroke_s	s	n/a
161.3275	0.09	322655	keystroke_l	l	n/a
161.5075	0.075	323015	keystroke_o	o	n/a
161.5975	0.075	323195	keystroke_t	t	n/a
161.7925	0.09	323585	keystroke_s	s	n/a
162.3925	0.105	324785	keystroke_Key.space	Key.space	n/a
162.5725	0.06	325145	keystroke_e	e	n/a
162.7375	0.03	325475	keystroke_f	f	n/a
162.8875	0.03	325775	keystroke_f	f	n/a
163.0225	0.03	326045	keystroke_i	i	n/a
163.4275	0.075	326855	keystroke_c	c	n/a
163.6225	0.06	327245	keystroke_i	i	n/a
163.8025	0.045	327605	keystroke_e	e	n/a
163.8925	0.03	327785	keystroke_n	n	n/a
164.0425	0.03	328085	keystroke_t	t	n/a
164.6125	0.06	329225	keystroke_Key.backspace	Key.backspace	n/a
165.0475	0.045	330095	keystroke_c	c	n/a
165.1525	0.075	330305	keystroke_y	y	n/a
165.7825	0.105	331565	keystroke_Key.space	Key.space	n/a
165.9925	0.09	331985	keystroke_a	a	n/a
166.0675	0.06	332135	keystroke_p	p	n/a
166.3975	0.045	332795	keystroke_a	a	n/a
166.7275	0.06	333455	keystroke_r	r	n/a
167.1025	0.045	334205	keystroke_t	t	n/a
167.3875	0.09	334775	keystroke_m	m	n/a
167.4625	0.045	334925	keystroke_e	e	n/a
167.5975	0.045	335195	keystroke_n	n	n/a
167.6575	0.06	335315	keystroke_t	t	n/a
167.8675	0.09	335735	keystroke_s	s	n/a
168.1225	0.045	336245	keystroke_Key.enter	Key.enter	n/a
168.172	8.412	336344	prompt	n/a	betty protest peas chose\n
168.9475	0.03	337895	keystroke_b	b	n/a
169.0375	0.03	338075	keystroke_e	e	n/a
169.3975	0.06	338795	keystroke_t	t	n/a
169.5475	0.045	339095	keystroke_t	t	n/a
169.8025	0.075	339605	keystroke_y	y	n/a
170.4175	0.105	340835	keystroke_Key.space	Key.space	n/a
170.5675	0.06	341135	keystroke_p	p	n/a
170.7025	0.045	341405	keystroke_r	r	n/a
170.9275	0.045	341855	keystroke_o	o	n/a
171.3025	0.075	342605	keystroke_t	t	n/a
171.4525	0.075	342905	keystroke_e	e	n/a
171.6325	0.09	343265	keystroke_s	s	n/a
171.8425	0.06	343685	keystroke_t	t	n/a
172.0075	0.09	344015	keystroke_s	s	n/a
173.0425	0.06	346085	keystroke_Key.backspace	Key.backspace	n/a
173.2675	0.09	346535	keystroke_Key.space	Key.space	n/a
174.093	0.06	348186	keystroke_p	p	n/a
174.198	0.09	348396	keystroke_e	e	n/a
174.378	0.09	348756	keystroke_a	a	n/a
174.588	0.074	349176	keystroke_s	s	n/a
174.828	0.09	349656	keystroke_Key.space	Key.space	n/a
175.023	0.06	350046	keystroke_c	c	n/a
175.098	0.105	350196	keystroke_h	h	n/a
175.173	0.075	350346	keystroke_o	o	n/a
175.293	0.075	350586	keystroke_s	s	n/a
175.503	0.045	351006	keystroke_e	e	n/a
176.508	0.075	353016	keystroke_Key.enter	Key.enter	n/a
176.588	11.096	353176	prompt	n/a	affiliated marie namibia treasure\n
177.258	0.06	354516	keystroke_a	a	n/a
177.468	0.03	354936	keystroke_f	f	n/a
177.603	0.06	355206	keystroke_f	f	n/a
177.888	0.09	355776	keystroke_l	l	n/a
178.083	0.06	356166	keystroke_i	i	n/a
179.763	0.045	359526	keystroke_Key.backspace	Key.backspace	n/a
179.943	0.015	359886	keystroke_Key.backspace	Key.backspace	n/a
180.303	0.06	360606	keystroke_i	i	n/a
180.513	0.075	361026	keystroke_l	l	n/a
180.813	0.075	361626	keystroke_i	i	n/a
181.098	0.075	362196	keystroke_a	a	n/a
181.278	0.06	362556	keystroke_t	t	n/a
181.653	0.045	363306	keystroke_e	e	n/a
181.833	0.06	363666	keystroke_d	d	n/a
181.953	0.105	363906	keystroke_Key.space	Key.space	n/a
182.118	0.09	364236	keystroke_m	m	n/a
182.223	0.09	364446	keystroke_a	a	n/a
182.358	0.075	364716	keystroke_r	r	n/a
182.508	0.06	365016	keystroke_i	i	n/a
182.613	0.03	365226	keystroke_e	e	n/a
182.883	0.075	365766	keystroke_Key.space	Key.space	n/a
183.213	0.06	366426	keystroke_n	n	n/a
183.348	0.075	366696	keystroke_a	a	n/a
183.468	0.045	366936	keystroke_m	m	n/a
183.738	0.03	367476	keystroke_b	b	n/a
183.888	0.075	367776	keystroke_i	i	n/a
183.993	0.09	367986	keystroke_a	a	n/a
184.6975	0.105	369395	keystroke_Key.space	Key.space	n/a
184.9975	0.06	369995	keystroke_t	t	n/a
185.118	0.0745	370236	keystroke_r	r	n/a
185.2675	0.09	370535	keystroke_a	a	n/a
185.7625	0.075	371525	keystroke_Key.backspace	Key.backspace	n/a
185.8525	0.075	371705	keystroke_e	e	n/a
186.0175	0.09	372035	keystroke_a	a	n/a
186.2875	0.045	372575	keystroke_s	s	n/a
186.3925	0.06	372785	keystroke_u	u	n/a
186.7225	0.045	373445	keystroke_r	r	n/a
186.8275	0.075	373655	keystroke_e	e	n/a
187.6225	0.06	375245	keystroke_Key.enter	Key.enter	n/a
187.687	6.2675	375374	prompt	n/a	caught ships spas can\n
188.4775	0.075	376955	keystroke_c	c	n/a
188.657	0.075	377314	keystroke_a	a	n/a
188.777	0.06	377554	keystroke_u	u	n/a
188.928	0.029	377856	keystroke_g	g	n/a
189.002	0.045	378004	keystroke_h	h	n/a
189.152	0.03	378304	keystroke_t	t	n/a
189.842	0.12	379684	keystroke_Key.space	Key.space	n/a
189.978	0.044	379956	keystroke_s	s	n/a
190.142	0.061	380284	keystroke_h	h	n/a
190.322	0.045	380644	keystroke_i	i	n/a
190.517	0.045	381034	keystroke_p	p	n/a
190.832	0.06	381664	keystroke_s	s	n/a
191.117	0.09	382234	keystroke_Key.space	Key.space	n/a
191.282	0.075	382564	keystroke_s	s	n/a
191.372	0.06	382744	keystroke_p	p	n/a
191.537	0.075	383074	keystroke_a	a	n/a
191.762	0.075	383524	keystroke_s	s	n/a
192.362	0.09	384724	keystroke_Key.space	Key.space	n/a
192.557	0.09	385114	keystroke_c	c	n/a
192.812	0.091	385624	keystroke_a	a	n/a
192.917	0.075	385834	keystroke_n	n	n/a
193.892	0.061	387784	keystroke_Key.enter	Key.enter	n/a
193.958	7.4365	387916	prompt	n/a	lake wright exec tray\n
194.703	0.045	389406	keystroke_l	l	n/a
194.778	0.074	389556	keystroke_a	a	n/a
194.867	0.075	389734	keystroke_k	k	n/a
194.957	0.046	389914	keystroke_e	e	n/a
196.037	0.105	392074	keystroke_Key.space	Key.space	n/a
196.112	0.075	392224	keystroke_w	w	n/a
196.322	0.045	392644	keystroke_r	r	n/a
196.473	0.03	392946	keystroke_i	i	n/a
196.757	0.075	393514	keystroke_g	g	n/a
196.847	0.075	393694	keystroke_h	h	n/a
196.937	0.075	393874	keystroke_t	t	n/a
198.378	0.119	396756	keystroke_Key.space	Key.space	n/a
198.603	0.0445	397206	keystroke_e	e	n/a
198.8125	0.135	397625	keystroke_x	x	n/a
199.1125	0.06	398225	keystroke_e	e	n/a
199.2925	0.045	398585	keystroke_c	c	n/a
199.7125	0.075	399425	keystroke_Key.space	Key.space	n/a
199.8925	0.045	399785	keystroke_t	t	n/a
200.0425	0.045	400085	keystroke_r	r	n/a
200.4025	0.075	400805	keystroke_a	a	n/a
200.4925	0.06	400985	keystroke_y	y	n/a
201.3325	0.06	402665	keystroke_Key.enter	Key.enter	n/a
201.3975	6.6865	402795	prompt	n/a	zoom clara spice laws\n
202.2925	0.075	404585	keystroke_z	z	n/a
202.4725	0.06	404945	keystroke_o	o	n/a
202.6225	0.0605	405245	keystroke_o	o	n/a
202.788	0.09	405576	keystroke_m	m	n/a
203.298	0.089	406596	keystroke_Key.space	Key.space	n/a
203.643	0.089	407286	keystroke_c	c	n/a
203.763	0.045	407526	keystroke_l	l	n/a
203.928	0.075	407856	keystroke_a	a	n/a
204.198	0.06	408396	keystroke_r	r	n/a
204.318	0.09	408636	keystroke_a	a	n/a
205.307	0.106	410614	keystroke_Key.space	Key.space	n/a
205.368	0.09	410736	keystroke_s	s	n/a
205.473	0.075	410946	keystroke_p	p	n/a
205.728	0.045	411456	keystroke_i	i	n/a
205.848	0.06	411696	keystroke_c	c	n/a
206.358	0.03	412716	keystroke_e	e	n/a
206.718	0.09	413436	keystroke_Key.space	Key.space	n/a
206.898	0.06	413796	keystroke_l	l	n/a
207.033	0.09	414066	keystroke_a	a	n/a
207.4075	0.06	414815	keystroke_w	w	n/a
207.6625	0.075	415325	keystroke_s	s	n/a
208.0075	0.075	416015	keystroke_Key.enter	Key.enter	n/a
208.087	6.567	416174	prompt	n/a	realistic come shame addresses\n
208.9225	0.06	417845	keystroke_r	r	n/a
209.0425	0.09	418085	keystroke_e	e	n/a
209.1775	0.105	418355	keystroke_a	a	n/a
209.2975	0.09	418595	keystroke_l	l	n/a
210.3925	0.03	420785	keystroke_i	i	n/a
210.4525	0.09	420905	keystroke_s	s	n/a
210.7225	0.045	421445	keystroke_t	t	n/a
210.7975	0.075	421595	keystroke_i	i	n/a
210.977	0.06	421954	keystroke_c	c	n/a
211.217	0.09	422434	keystroke_Key.space	Key.space	n/a
211.382	0.09	422764	keystroke_c	c	n/a
211.457	0.075	422914	keystroke_o	o	n/a
211.607	0.075	423214	keystroke_m	m	n/a
211.742	0.045	423484	keystroke_e	e	n/a
211.892	0.075	423784	keystroke_Key.space	Key.space	n/a
212.012	0.09	424024	keystroke_s	s	n/a
212.117	0.06	424234	keystroke_h	h	n/a
212.207	0.09	424414	keystroke_a	a	n/a
212.327	0.075	424654	keystroke_m	m	n/a
212.417	0.06	424834	keystroke_e	e	n/a
212.507	0.105	425014	keystroke_Key.space	Key.space	n/a
212.867	0.075	425734	keystroke_a	a	n/a
213.047	0.045	426094	keystroke_d	d	n/a
213.182	0.06	426364	keystroke_d	d	n/a
213.542	0.075	427084	keystroke_r	r	n/a
213.647	0.09	427294	keystroke_e	e	n/a
213.842	0.06	427684	keystroke_s	s	n/a
213.977	0.09	427954	keystroke_s	s	n/a
214.142	0.06	428284	keystroke_e	e	n/a
214.277	0.09	428554	keystroke_s	s	n/a
214.592	0.06	429184	keystroke_Key.enter	Key.enter	n/a
214.657	14.067	429314	prompt	n/a	phenomenon photographic louisville deutsch\n
215.447	0.075	430894	keystroke_p	p	n/a
215.642	0.06	431284	keystroke_h	h	n/a
215.732	0.045	431464	keystroke_e	e	n/a
215.852	0.045	431704	keystroke_n	n	n/a
216.062	0.06	432124	keystroke_o	o	n/a
216.242	0.09	432484	keystroke_m	m	n/a
216.362	0.045	432724	keystroke_e	e	n/a
216.467	0.045	432934	keystroke_n	n	n/a
217.007	0.06	434014	keystroke_o	o	n/a
217.157	0.06	434314	keystroke_n	n	n/a
217.442	0.09	434884	keystroke_Key.space	Key.space	n/a
217.637	0.075	435274	keystroke_p	p	n/a
217.847	0.09	435694	keystroke_h	h	n/a
218.492	0.0755	436984	keystroke_o	o	n/a
218.5975	0.075	437195	keystroke_t	t	n/a
218.7025	0.06	437405	keystroke_o	o	n/a
219.0325	0.045	438065	keystroke_g	g	n/a
219.1225	0.09	438245	keystroke_r	r	n/a
219.2575	0.12	438515	keystroke_a	a	n/a
219.3925	0.06	438785	keystroke_p	p	n/a
219.5575	0.09	439115	keystroke_h	h	n/a
219.6475	0.075	439295	keystroke_i	i	n/a
219.7525	0.075	439505	keystroke_c	c	n/a
220.4575	0.135	440915	keystroke_Key.space	Key.space	n/a
220.7875	0.06	441575	keystroke_l	l	n/a
220.9525	0.06	441905	keystroke_o	o	n/a
221.1175	0.045	442235	keystroke_u	u	n/a
221.5075	0.03	443015	keystroke_i	i	n/a
221.5975	0.075	443195	keystroke_s	s	n/a
221.9425	0.045	443885	keystroke_v	v	n/a
222.0025	0.06	444005	keystroke_i	i	n/a
222.2425	0.06	444485	keystroke_l	l	n/a
222.3775	0.075	444755	keystroke_l	l	n/a
222.4675	0.045	444935	keystroke_e	e	n/a
222.7825	0.06	445565	keystroke_Key.space	Key.space	n/a
223.1275	0.06	446255	keystroke_d	d	n/a
223.2925	0.045	446585	keystroke_e	e	n/a
224.0125	0.015	448025	keystroke_u	u	n/a
225.5425	0.06	451085	keystroke_t	t	n/a
225.7825	0.06	451565	keystroke_s	s	n/a
225.8875	0.075	451775	keystroke_h	h	n/a
226.3525	0.09	452705	keystroke_Key.backspace	Key.backspace	n/a
227.4175	0.045	454835	keystroke_c	c	n/a
227.4775	0.075	454955	keystroke_h	h	n/a
228.6475	0.075	457295	keystroke_Key.enter	Key.enter	n/a
228.729	7.975	457458	prompt	n/a	chelsea forward feed understanding\n
229.6375	0.075	459275	keystroke_c	c	n/a
229.7275	0.09	459455	keystroke_h	h	n/a
229.8475	0.06	459695	keystroke_e	e	n/a
229.9825	0.045	459965	keystroke_l	l	n/a
230.3875	0.075	460775	keystroke_s	s	n/a
230.5375	0.075	461075	keystroke_e	e	n/a
230.6725	0.105	461345	keystroke_a	a	n/a
231.2875	0.105	462575	keystroke_Key.space	Key.space	n/a
231.4675	0.06	462935	keystroke_f	f	n/a
231.5725	0.075	463145	keystroke_o	o	n/a
231.7375	0.06	463475	keystroke_r	r	n/a
232.3225	0.06	464645	keystroke_w	w	n/a
232.4575	0.075	464915	keystroke_a	a	n/a
232.5925	0.06	465185	keystroke_r	r	n/a
232.8325	0.045	465665	keystroke_d	d	n/a
232.9525	0.12	465905	keystroke_Key.space	Key.space	n/a
233.2225	0.075	466445	keystroke_f	f	n/a
233.3575	0.06	466715	keystroke_e	e	n/a
233.4925	0.06	466985	keystroke_e	e	n/a
233.7025	0.075	467405	keystroke_d	d	n/a
234.0325	0.06	468065	keystroke_Key.space	Key.space	n/a
234.2575	0.06	468515	keystroke_u	u	n/a
234.407	0.0905	468814	keystroke_n	n	n/a
234.5125	0.06	469025	keystroke_d	d	n/a
234.6775	0.06	469355	keystroke_e	e	n/a
234.7525	0.105	469505	keystroke_r	r	n/a
234.9775	0.0755	469955	keystroke_s	s	n/a
235.158	0.075	470316	keystroke_t	t	n/a
235.263	0.105	470526	keystroke_a	a	n/a
235.412	0.045	470824	keystroke_n	n	n/a
235.518	0.06	471036	keystroke_d	d	n/a
235.938	0.075	471876	keystroke_i	i	n/a
236.103	0.075	472206	keystroke_n	n	n/a
236.193	0.03	472386	keystroke_g	g	n/a
236.628	0.074	473256	keystroke_Key.enter	Key.enter	n/a
236.7065	7.557	473413	prompt	n/a	sewing hadn't coastal population\n
237.5425	0.06	475085	keystroke_s	s	n/a
237.8125	0.045	475625	keystroke_w	w	n/a
238.1125	0.075	476225	keystroke_Key.backspace	Key.backspace	n/a
238.1875	0.09	476375	keystroke_e	e	n/a
238.3225	0.09	476645	keystroke_w	w	n/a
238.5325	0.06	477065	keystroke_i	i	n/a
238.6975	0.075	477395	keystroke_n	n	n/a
238.7875	0.06	477575	keystroke_g	g	n/a
238.9675	0.105	477935	keystroke_Key.space	Key.space	n/a
239.1325	0.075	478265	keystroke_h	h	n/a
239.2225	0.06	478445	keystroke_a	a	n/a
239.3575	0.075	478715	keystroke_d	d	n/a
239.9575	0.06	479915	keystroke_n	n	n/a
240.2275	0.045	480455	keystroke_'	'	n/a
240.4375	0.03	480875	keystroke_t	t	n/a
240.4825	0.105	480965	keystroke_Key.space	Key.space	n/a
240.7525	0.075	481505	keystroke_c	c	n/a
240.9625	0.045	481925	keystroke_o	o	n/a
241.0825	0.09	482165	keystroke_a	a	n/a
241.3075	0.06	482615	keystroke_s	s	n/a
241.6975	0.03	483395	keystroke_t	t	n/a
241.9075	0.015	483815	keystroke_a	a	n/a
241.9375	0.045	483875	keystroke_l	l	n/a
242.0725	0.09	484145	keystroke_Key.space	Key.space	n/a
242.3275	0.075	484655	keystroke_p	p	n/a
242.4925	0.135	484985	keystroke_o	o	n/a
242.5825	0.105	485165	keystroke_p	p	n/a
242.9575	0.06	485915	keystroke_u	u	n/a
243.1525	0.06	486305	keystroke_l	l	n/a
243.3325	0.06	486665	keystroke_a	a	n/a
243.5875	0.06	487175	keystroke_t	t	n/a
243.7225	0.135	487445	keystroke_i	i	n/a
243.7975	0.075	487595	keystroke_o	o	n/a
243.9325	0.075	487865	keystroke_n	n	n/a
244.2175	0.045	488435	keystroke_Key.enter	Key.enter	n/a
244.2665	6.823	488533	prompt	n/a	shareware inspection spray knew\n
245.2225	0.06	490445	keystroke_s	s	n/a
245.3275	0.09	490655	keystroke_h	h	n/a
245.7175	0.045	491435	keystroke_Key.backspace	Key.backspace	n/a
246.2125	0.06	492425	keystroke_h	h	n/a
246.3775	0.075	492755	keystroke_a	a	n/a
246.5125	0.075	493025	keystroke_r	r	n/a
246.6475	0.06	493295	keystroke_e	e	n/a
246.9475	0.075	493895	keystroke_w	w	n/a
247.1125	0.075	494225	keystroke_a	a	n/a
247.2025	0.06	494405	keystroke_r	r	n/a
247.2775	0.09	494555	keystroke_e	e	n/a
247.9075	0.12	495815	keystroke_Key.space	Key.space	n/a
248.0875	0.06	496175	keystroke_i	i	n/a
248.2375	0.045	496475	keystroke_n	n	n/a
248.2675	0.06	496535	keystroke_s	s	n/a
248.4025	0.06	496805	keystroke_p	p	n/a
248.5075	0.045	497015	keystroke_e	e	n/a
248.6725	0.09	497345	keystroke_c	c	n/a
249.0475	0.09	498095	keystroke_t	t	n/a
249.1525	0.12	498305	keystroke_i	i	n/a
249.2125	0.09	498425	keystroke_o	o	n/a
249.3925	0.075	498785	keystroke_n	n	n/a
249.4975	0.075	498995	keystroke_Key.space	Key.space	n/a
249.5875	0.06	499175	keystroke_s	s	n/a
249.6775	0.06	499355	keystroke_p	p	n/a
249.8125	0.06	499625	keystroke_r	r	n/a
249.9475	0.105	499895	keystroke_a	a	n/a
250.0825	0.09	500165	keystroke_y	y	n/a
250.2775	0.09	500555	keystroke_Key.space	Key.space	n/a
250.4575	0.09	500915	keystroke_k	k	n/a
250.6075	0.075	501215	keystroke_n	n	n/a
250.6975	0.06	501395	keystroke_e	e	n/a
250.8325	0.06	501665	keystroke_w	w	n/a
251.0275	0.06	502055	keystroke_Key.enter	Key.enter	n/a
251.0925	10.736	502185	prompt	n/a	hierarchy prayers judy expansys\n
251.9725	0.105	503945	keystroke_h	h	n/a
252.1075	0.075	504215	keystroke_i	i	n/a
252.2125	0.03	504425	keystroke_r	r	n/a
252.8575	0.075	505715	keystroke_Key.backspace	Key.backspace	n/a
252.947	0.12	505894	keystroke_e	e	n/a
253.3075	0.06	506615	keystroke_r	r	n/a
253.8475	0.09	507695	keystroke_a	a	n/a
253.9975	0.09	507995	keystroke_r	r	n/a
254.2975	0.045	508595	keystroke_c	c	n/a
254.387	0.09	508774	keystroke_h	h	n/a
255.0475	0.0595	510095	keystroke_y	y	n/a
255.2725	0.0895	510545	keystroke_Key.space	Key.space	n/a
255.437	0.09	510874	keystroke_p	p	n/a
255.662	0.0605	511324	keystroke_r	r	n/a
255.917	0.045	511834	keystroke_a	a	n/a
256.172	0.06	512344	keystroke_y	y	n/a
256.307	0.075	512614	keystroke_e	e	n/a
256.397	0.075	512794	keystroke_r	r	n/a
256.607	0.06	513214	keystroke_s	s	n/a
257.057	0.09	514114	keystroke_Key.space	Key.space	n/a
257.192	0.075	514384	keystroke_j	j	n/a
257.357	0.045	514714	keystroke_u	u	n/a
257.447	0.075	514894	keystroke_d	d	n/a
257.822	0.075	515644	keystroke_y	y	n/a
258.377	0.09	516754	keystroke_Key.space	Key.space	n/a
258.587	0.03	517174	keystroke_e	e	n/a
259.082	0.09	518164	keystroke_x	x	n/a
259.907	0.075	519814	keystroke_p	p	n/a
260.072	0.075	520144	keystroke_a	a	n/a
260.162	0.06	520324	keystroke_n	n	n/a
260.777	0.06	521554	keystroke_s	s	n/a
261.002	0.06	522004	keystroke_y	y	n/a
261.152	0.075	522304	keystroke_s	s	n/a
261.782	0.045	523564	keystroke_Key.enter	Key.enter	n/a
261.8315	9.4775	523663	prompt	n/a	happy butts formatting phone\n
262.922	0.06	525844	keystroke_g	g	n/a
263.027	0.09	526054	keystroke_a	a	n/a
263.132	0.045	526264	keystroke_o	o	n/a
263.612	0.045	527224	keystroke_=	=	n/a
263.777	0.03	527554	keystroke_Key.backspace	Key.backspace	n/a
264.107	0.075	528214	keystroke_Key.backspace	Key.backspace	n/a
264.272	0.06	528544	keystroke_Key.backspace	Key.backspace	n/a
264.422	0.045	528844	keystroke_Key.backspace	Key.backspace	n/a
265.6975	0.075	531395	keystroke_h	h	n/a
266.1025	0.105	532205	keystroke_a	a	n/a
266.2375	0.03	532475	keystroke_p	p	n/a
266.3425	0.045	532685	keystroke_p	p	n/a
266.5365	0.061	533073	keystroke_y	y	n/a
267.0615	0.06	534123	keystroke_Key.space	Key.space	n/a
267.3025	0.075	534605	keystroke_b	b	n/a
267.4215	0.076	534843	keystroke_u	u	n/a
267.5725	0.06	535145	keystroke_t	t	n/a
267.6925	0.09	535385	keystroke_t	t	n/a
267.9325	0.045	535865	keystroke_s	s	n/a
268.0375	0.105	536075	keystroke_Key.space	Key.space	n/a
268.1875	0.06	536375	keystroke_f	f	n/a
268.2925	0.075	536585	keystroke_o	o	n/a
268.4425	0.03	536885	keystroke_r	r	n/a
269.282	0.06	538564	keystroke_m	m	n/a
269.432	0.075	538864	keystroke_a	a	n/a
269.627	0.06	539254	keystroke_t	t	n/a
269.762	0.075	539524	keystroke_t	t	n/a
269.852	0.09	539704	keystroke_i	i	n/a
270.047	0.06	540094	keystroke_n	n	n/a
270.122	0.075	540244	keystroke_g	g	n/a
270.198	0.074	540396	keystroke_Key.space	Key.space	n/a
270.347	0.105	540694	keystroke_p	p	n/a
270.557	0.12	541114	keystroke_h	h	n/a
270.662	0.105	541324	keystroke_o	o	n/a
270.827	0.105	541654	keystroke_n	n	n/a
270.947	0.046	541894	keystroke_e	e	n/a
271.232	0.075	542464	keystroke_Key.enter	Key.enter	n/a
271.312	8.4115	542624	prompt	n/a	brokers performs strength nutrition\n
272.043	0.075	544086	keystroke_b	b	n/a
272.177	0.061	544354	keystroke_r	r	n/a
272.268	0.044	544536	keystroke_o	o	n/a
272.447	0.06	544894	keystroke_k	k	n/a
272.582	0.12	545164	keystroke_e	e	n/a
272.687	0.075	545374	keystroke_r	r	n/a
272.897	0.045	545794	keystroke_s	s	n/a
273.167	0.12	546334	keystroke_Key.space	Key.space	n/a
273.393	0.075	546786	keystroke_p	p	n/a
273.482	0.136	546964	keystroke_e	e	n/a
273.602	0.0605	547204	keystroke_r	r	n/a
273.932	0.075	547864	keystroke_f	f	n/a
274.022	0.075	548044	keystroke_o	o	n/a
274.157	0.045	548314	keystroke_r	r	n/a
274.232	0.061	548464	keystroke_m	m	n/a
274.352	0.06	548704	keystroke_s	s	n/a
275.0565	0.09	550113	keystroke_Key.space	Key.space	n/a
275.2215	0.106	550443	keystroke_s	s	n/a
275.4315	0.06	550863	keystroke_t	t	n/a
275.5225	0.089	551045	keystroke_r	r	n/a
275.7615	0.031	551523	keystroke_e	e	n/a
275.8515	0.06	551703	keystroke_n	n	n/a
275.9715	0.03	551943	keystroke_g	g	n/a
276.1665	0.045	552333	keystroke_t	t	n/a
276.2425	0.059	552485	keystroke_h	h	n/a
276.4965	0.075	552993	keystroke_Key.space	Key.space	n/a
276.7365	0.075	553473	keystroke_n	n	n/a
276.8875	0.06	553775	keystroke_u	u	n/a
276.9915	0.06	553983	keystroke_r	r	n/a
277.4565	0.06	554913	keystroke_Key.backspace	Key.backspace	n/a
277.5625	0.075	555125	keystroke_t	t	n/a
277.7425	0.029	555485	keystroke_r	r	n/a
277.9965	0.06	555993	keystroke_i	i	n/a
278.2075	0.06	556415	keystroke_t	t	n/a
278.6125	0.18	557225	keystroke_i	i	n/a
278.7165	0.105	557433	keystroke_o	o	n/a
278.8965	0.076	557793	keystroke_n	n	n/a
279.6465	0.075	559293	keystroke_Key.enter	Key.enter	n/a
279.727	7.8575	559454	prompt	n/a	airport statute chain mean\n
280.5465	0.075	561093	keystroke_a	a	n/a
280.8015	0.06	561603	keystroke_i	i	n/a
280.9375	0.03	561875	keystroke_r	r	n/a
281.3265	0.091	562653	keystroke_p	p	n/a
281.5375	0.075	563075	keystroke_o	o	n/a
281.6715	0.046	563343	keystroke_r	r	n/a
281.8675	0.045	563735	keystroke_t	t	n/a
282.4965	0.121	564993	keystroke_Key.space	Key.space	n/a
282.6925	0.089	565385	keystroke_s	s	n/a
282.8875	0.044	565775	keystroke_t	t	n/a
282.9625	0.12	565925	keystroke_a	a	n/a
283.0675	0.075	566135	keystroke_t	t	n/a
284.357	0.06	568714	keystroke_u	u	n/a
284.522	0.06	569044	keystroke_t	t	n/a
284.702	0.015	569404	keystroke_e	e	n/a
284.912	0.105	569824	keystroke_Key.space	Key.space	n/a
285.092	0.075	570184	keystroke_c	c	n/a
285.512	0.06	571024	keystroke_h	h	n/a
285.647	0.09	571294	keystroke_a	a	n/a
285.738	0.059	571476	keystroke_i	i	n/a
285.902	0.06	571804	keystroke_n	n	n/a
286.127	0.09	572254	keystroke_Key.space	Key.space	n/a
286.472	0.09	572944	keystroke_m	m	n/a
286.547	0.06	573094	keystroke_e	e	n/a
286.682	0.075	573364	keystroke_a	a	n/a
286.772	0.06	573544	keystroke_n	n	n/a
287.492	0.09	574984	keystroke_Key.enter	Key.enter	n/a
287.5865	12.328	575173	prompt	n/a	develops properly clothes villa\n
288.512	0.03	577024	keystroke_v	v	n/a
289.007	0.075	578014	keystroke_Key.backspace	Key.backspace	n/a
289.067	0.105	578134	keystroke_d	d	n/a
289.532	0.06	579064	keystroke_e	e	n/a
289.697	0.045	579394	keystroke_v	v	n/a
290.162	0.06	580324	keystroke_e	e	n/a
290.267	0.09	580534	keystroke_l	l	n/a
290.477	0.15	580954	keystroke_o	o	n/a
290.582	0.075	581164	keystroke_p	p	n/a
290.807	0.075	581614	keystroke_s	s	n/a
291.437	0.075	582874	keystroke_Key.space	Key.space	n/a
291.572	0.075	583144	keystroke_p	p	n/a
292.472	0.045	584944	keystroke_r	r	n/a
293.207	0.15	586414	keystroke_o	o	n/a
293.327	0.075	586654	keystroke_p	p	n/a
294.872	0.09	589744	keystroke_e	e	n/a
295.007	0.09	590014	keystroke_r	r	n/a
295.112	0.09	590224	keystroke_l	l	n/a
295.382	0.105	590764	keystroke_y	y	n/a
295.562	0.09	591124	keystroke_Key.space	Key.space	n/a
295.637	0.09	591274	keystroke_c	c	n/a
295.742	0.075	591484	keystroke_l	l	n/a
295.922	0.075	591844	keystroke_o	o	n/a
296.027	0.06	592054	keystroke_t	t	n/a
296.117	0.06	592234	keystroke_h	h	n/a
296.267	0.06	592534	keystroke_e	e	n/a
296.417	0.075	592834	keystroke_s	s	n/a
296.567	0.06	593134	keystroke_e	e	n/a
296.852	0.105	593704	keystroke_Key.space	Key.space	n/a
297.063	0.059	594126	keystroke_v	v	n/a
297.152	0.06	594304	keystroke_i	i	n/a
297.782	0.075	595564	keystroke_Key.backspace	Key.backspace	n/a
297.962	0.06	595924	keystroke_Key.backspace	Key.backspace	n/a
298.112	0.06	596224	keystroke_Key.backspace	Key.backspace	n/a
298.307	0.03	596614	keystroke_Key.backspace	Key.backspace	n/a
298.727	0.045	597454	keystroke_Key.space	Key.space	n/a
299.192	0.046	598384	keystroke_v	v	n/a
299.282	0.06	598564	keystroke_i	i	n/a
299.462	0.045	598924	keystroke_l	l	n/a
299.582	0.075	599164	keystroke_l	l	n/a
299.658	0.089	599316	keystroke_a	a	n/a
299.867	0.045	599734	keystroke_Key.enter	Key.enter	n/a
299.919	9.355	599838	prompt	n/a	jill scotia angeles acknowledged\n
300.692	0.09	601384	keystroke_j	j	n/a
300.842	0.06	601684	keystroke_i	i	n/a
301.097	0.06	602194	keystroke_l	l	n/a
301.232	0.06	602464	keystroke_l	l	n/a
301.352	0.12	602704	keystroke_Key.space	Key.space	n/a
301.652	0.06	603304	keystroke_s	s	n/a
302.177	0.045	604354	keystroke_c	c	n/a
302.252	0.075	604504	keystroke_o	o	n/a
302.597	0.06	605194	keystroke_t	t	n/a
302.882	0.075	605764	keystroke_i	i	n/a
303.047	0.091	606094	keystroke_a	a	n/a
303.512	0.075	607024	keystroke_Key.space	Key.space	n/a
303.902	0.075	607804	keystroke_a	a	n/a
303.992	0.06	607984	keystroke_n	n	n/a
304.097	0.06	608194	keystroke_g	g	n/a
304.263	0.044	608526	keystroke_l	l	n/a
304.757	0.075	609514	keystroke_Key.backspace	Key.backspace	n/a
304.892	0.06	609784	keystroke_e	e	n/a
305.103	0.06	610206	keystroke_l	l	n/a
305.207	0.06	610414	keystroke_e	e	n/a
305.403	0.044	610806	keystroke_s	s	n/a
305.792	0.06	611584	keystroke_Key.space	Key.space	n/a
306.032	0.061	612064	keystroke_a	a	n/a
306.242	0.06	612484	keystroke_c	c	n/a
306.663	0.119	613326	keystroke_k	k	n/a
306.797	0.135	613594	keystroke_n	n	n/a
306.917	0.075	613834	keystroke_o	o	n/a
307.022	0.075	614044	keystroke_w	w	n/a
307.172	0.061	614344	keystroke_l	l	n/a
307.427	0.045	614854	keystroke_e	e	n/a
307.653	0.074	615306	keystroke_d	d	n/a
307.863	0.014	615726	keystroke_g	g	n/a
307.952	0.061	615904	keystroke_e	e	n/a
308.763	0.075	617526	keystroke_d	d	n/a
309.197	0.075	618394	keystroke_Key.enter	Key.enter	n/a
309.277	6.7625	618554	prompt	n/a	paint trouble activity agent\n
310.008	0.075	620016	keystroke_p	p	n/a
310.233	0.075	620466	keystroke_a	a	n/a
310.293	0.059	620586	keystroke_i	i	n/a
310.458	0.045	620916	keystroke_n	n	n/a
310.578	0.044	621156	keystroke_t	t	n/a
310.847	0.091	621694	keystroke_Key.space	Key.space	n/a
311.117	0.03	622234	keystroke_t	t	n/a
311.238	0.06	622476	keystroke_r	r	n/a
311.313	0.075	622626	keystroke_o	o	n/a
311.463	0.09	622926	keystroke_u	u	n/a
311.597	0.061	623194	keystroke_b	b	n/a
311.777	0.061	623554	keystroke_l	l	n/a
311.867	0.061	623734	keystroke_e	e	n/a
311.943	0.074	623886	keystroke_Key.space	Key.space	n/a
312.183	0.06	624366	keystroke_a	a	n/a
312.348	0.09	624696	keystroke_c	c	n/a
312.603	0.045	625206	keystroke_t	t	n/a
312.708	0.059	625416	keystroke_i	i	n/a
312.813	0.045	625626	keystroke_v	v	n/a
312.933	0.06	625866	keystroke_i	i	n/a
313.563	0.06	627126	keystroke_t	t	n/a
313.758	0.03	627516	keystroke_y	y	n/a
314.118	0.105	628236	keystroke_Key.space	Key.space	n/a
314.268	0.12	628536	keystroke_a	a	n/a
314.388	0.075	628776	keystroke_g	g	n/a
314.838	0.075	629676	keystroke_e	e	n/a
314.973	0.075	629946	keystroke_n	n	n/a
315.078	0.075	630156	keystroke_t	t	n/a
315.978	0.06	631956	keystroke_Key.enter	Key.enter	n/a
316.042	6.432	632084	prompt	n/a	robots pick telling section\n
317.493	0.045	634986	keystroke_r	r	n/a
317.583	0.06	635166	keystroke_o	o	n/a
317.718	0.09	635436	keystroke_b	b	n/a
318.3625	0.06	636725	keystroke_o	o	n/a
318.4825	0.075	636965	keystroke_t	t	n/a
318.7075	0.06	637415	keystroke_s	s	n/a
318.7975	0.09	637595	keystroke_Key.space	Key.space	n/a
318.9625	0.075	637925	keystroke_p	p	n/a
319.1575	0.06	638315	keystroke_i	i	n/a
319.2325	0.06	638465	keystroke_c	c	n/a
319.3375	0.06	638675	keystroke_k	k	n/a
319.9525	0.105	639905	keystroke_Key.space	Key.space	n/a
320.1025	0.045	640205	keystroke_t	t	n/a
320.2525	0.06	640505	keystroke_e	e	n/a
320.3575	0.075	640715	keystroke_l	l	n/a
320.4925	0.09	640985	keystroke_l	l	n/a
320.6875	0.045	641375	keystroke_i	i	n/a
320.8225	0.06	641645	keystroke_n	n	n/a
320.8975	0.06	641795	keystroke_g	g	n/a
320.9425	0.105	641885	keystroke_Key.space	Key.space	n/a
321.1525	0.06	642305	keystroke_s	s	n/a
321.3925	0.06	642785	keystroke_e	e	n/a
321.5875	0.045	643175	keystroke_c	c	n/a
321.8275	0.045	643655	keystroke_t	t	n/a
321.8425	0.135	643685	keystroke_i	i	n/a
321.9175	0.09	643835	keystroke_o	o	n/a
322.0525	0.06	644105	keystroke_n	n	n/a
322.4275	0.045	644855	keystroke_Key.enter	Key.enter	n/a
322.4845	9.8145	644969	prompt	n/a	athletes fees tablets seen\n
326.4055	0.012	652811	keystroke_a	a	n/a
326.4925	0.075	652985	keystroke_t	t	n/a
326.5825	0.06	653165	keystroke_h	h	n/a
328.0375	0.06	656075	keystroke_l	l	n/a
328.1875	0.075	656375	keystroke_e	e	n/a
328.4575	0.06	656915	keystroke_t	t	n/a
328.6375	0.03	657275	keystroke_e	e	n/a
328.8625	0.06	657725	keystroke_s	s	n/a
329.0425	0.105	658085	keystroke_Key.space	Key.space	n/a
329.2225	0.06	658445	keystroke_f	f	n/a
329.3725	0.06	658745	keystroke_e	e	n/a
329.5075	0.06	659015	keystroke_e	e	n/a
329.7475	0.06	659495	keystroke_s	s	n/a
329.9875	0.105	659975	keystroke_Key.space	Key.space	n/a
330.2585	0.044	660517	keystroke_t	t	n/a
330.3625	0.09	660725	keystroke_a	a	n/a
330.4835	0.044	660967	keystroke_b	b	n/a
330.7075	0.03	661415	keystroke_l	l	n/a
330.8125	0.09	661625	keystroke_e	e	n/a
330.9775	0.06	661955	keystroke_t	t	n/a
331.1275	0.075	662255	keystroke_s	s	n/a
331.2925	0.105	662585	keystroke_Key.space	Key.space	n/a
331.4275	0.075	662855	keystroke_s	s	n/a
331.6225	0.045	663245	keystroke_e	e	n/a
331.7575	0.045	663515	keystroke_e	e	n/a
331.8775	0.045	663755	keystroke_n	n	n/a
332.2525	0.045	664505	keystroke_Key.enter	Key.enter	n/a
332.303	7.602	664606	prompt	n/a	undergraduate remote spam justify\n
333.0335	0.059	666067	keystroke_u	u	n/a
333.2425	0.045	666485	keystroke_n	n	n/a
333.3335	0.074	666667	keystroke_d	d	n/a
333.5275	0.105	667055	keystroke_e	e	n/a
333.6175	0.09	667235	keystroke_r	r	n/a
333.8425	0.06	667685	keystroke_g	g	n/a
333.9475	0.075	667895	keystroke_r	r	n/a
334.0675	0.09	668135	keystroke_a	a	n/a
334.2625	0.06	668525	keystroke_d	d	n/a
334.3835	0.059	668767	keystroke_u	u	n/a
334.5625	0.075	669125	keystroke_a	a	n/a
334.6825	0.076	669365	keystroke_t	t	n/a
335.5835	0.059	671167	keystroke_e	e	n/a
335.8375	0.09	671675	keystroke_Key.space	Key.space	n/a
336.1225	0.045	672245	keystroke_r	r	n/a
336.2275	0.09	672455	keystroke_e	e	n/a
336.3625	0.121	672725	keystroke_m	m	n/a
336.5125	0.076	673025	keystroke_o	o	n/a
336.6175	0.06	673235	keystroke_t	t	n/a
336.8275	0.015	673655	keystroke_e	e	n/a
336.9775	0.09	673955	keystroke_Key.space	Key.space	n/a
337.0825	0.09	674165	keystroke_s	s	n/a
337.2025	0.075	674405	keystroke_p	p	n/a
337.3985	0.06	674797	keystroke_a	a	n/a
337.4875	0.06	674975	keystroke_m	m	n/a
337.9525	0.09	675905	keystroke_Key.space	Key.space	n/a
338.2085	0.075	676417	keystroke_j	j	n/a
338.4025	0.045	676805	keystroke_u	u	n/a
338.4625	0.121	676925	keystroke_s	s	n/a
338.733	0.0755	677466	keystroke_t	t	n/a
339.033	0.029	678066	keystroke_i	i	n/a
339.392	0.061	678784	keystroke_f	f	n/a
339.497	0.075	678994	keystroke_y	y	n/a
339.842	0.06	679684	keystroke_Key.enter	Key.enter	n/a
339.9075	10.092	679815	prompt	n/a	lang walls hospitality she'd\n
343.19	0.013	686380	keystroke_l	l	n/a
343.248	0.09	686496	keystroke_a	a	n/a
343.368	0.045	686736	keystroke_n	n	n/a
343.487	0.06	686974	keystroke_g	g	n/a
343.758	0.075	687516	keystroke_Key.space	Key.space	n/a
343.878	0.06	687756	keystroke_w	w	n/a
344.043	0.075	688086	keystroke_a	a	n/a
344.133	0.06	688266	keystroke_l	l	n/a
344.343	0.015	688686	keystroke_l	l	n/a
344.643	0.06	689286	keystroke_s	s	n/a
344.928	0.09	689856	keystroke_Key.space	Key.space	n/a
345.123	0.075	690246	keystroke_h	h	n/a
345.243	0.045	690486	keystroke_a	a	n/a
345.617	0.046	691234	keystroke_Key.backspace	Key.backspace	n/a
345.858	0.045	691716	keystroke_o	o	n/a
345.948	0.06	691896	keystroke_s	s	n/a
346.173	0.03	692346	keystroke_p	p	n/a
346.653	0.06	693306	keystroke_i	i	n/a
346.938	0.045	693876	keystroke_t	t	n/a
347.058	0.075	694116	keystroke_a	a	n/a
347.163	0.045	694326	keystroke_l	l	n/a
347.583	0.075	695166	keystroke_i	i	n/a
347.718	0.06	695436	keystroke_t	t	n/a
347.853	0.06	695706	keystroke_y	y	n/a
348.183	0.075	696366	keystroke_Key.space	Key.space	n/a
348.423	0.075	696846	keystroke_s	s	n/a
348.513	0.06	697026	keystroke_h	h	n/a
348.693	0.03	697386	keystroke_e	e	n/a
349.443	0.06	698886	keystroke_'	'	n/a
349.533	0.045	699066	keystroke_d	d	n/a
349.938	0.06	699876	keystroke_Key.enter	Key.enter	n/a
350.002	8.6075	700004	prompt	n/a	isolated neutral expanded lesbians\n
350.688	0.06	701376	keystroke_i	i	n/a
350.763	0.06	701526	keystroke_s	s	n/a
350.943	0.06	701886	keystroke_o	o	n/a
351.138	0.045	702276	keystroke_l	l	n/a
351.288	0.09	702576	keystroke_a	a	n/a
351.408	0.075	702816	keystroke_t	t	n/a
351.558	0.075	703116	keystroke_e	e	n/a
351.768	0.06	703536	keystroke_d	d	n/a
351.843	0.075	703686	keystroke_Key.space	Key.space	n/a
352.008	0.045	704016	keystroke_n	n	n/a
352.068	0.03	704136	keystroke_e	e	n/a
352.593	0.075	705186	keystroke_u	u	n/a
353.073	0.045	706146	keystroke_r	r	n/a
353.583	0.06	707166	keystroke_Key.backspace	Key.backspace	n/a
353.673	0.06	707346	keystroke_t	t	n/a
353.793	0.075	707586	keystroke_r	r	n/a
353.928	0.09	707856	keystroke_a	a	n/a
354.048	0.09	708096	keystroke_l	l	n/a
354.768	0.12	709536	keystroke_Key.space	Key.space	n/a
355.188	0.045	710376	keystroke_e	e	n/a
355.413	0.105	710826	keystroke_x	x	n/a
355.638	0.03	711276	keystroke_p	p	n/a
355.803	0.09	711606	keystroke_a	a	n/a
355.908	0.045	711816	keystroke_n	n	n/a
356.013	0.06	712026	keystroke_d	d	n/a
356.178	0.06	712356	keystroke_e	e	n/a
356.373	0.03	712746	keystroke_d	d	n/a
356.463	0.105	712926	keystroke_Key.space	Key.space	n/a
356.733	0.075	713466	keystroke_l	l	n/a
356.838	0.06	713676	keystroke_e	e	n/a
357.018	0.075	714036	keystroke_s	s	n/a
357.363	0.045	714726	keystroke_b	b	n/a
357.843	0.075	715686	keystroke_i	i	n/a
358.008	0.075	716016	keystroke_a	a	n/a
358.113	0.045	716226	keystroke_n	n	n/a
358.218	0.06	716436	keystroke_s	s	n/a
358.563	0.045	717126	keystroke_Key.enter	Key.enter	n/a
358.612	7.932	717224	prompt	n/a	santa habits mcdonald project\n
359.343	0.075	718686	keystroke_a	a	n/a
359.643	0.06	719286	keystroke_Key.backspace	Key.backspace	n/a
359.718	0.075	719436	keystroke_s	s	n/a
359.883	0.075	719766	keystroke_a	a	n/a
360.258	0.06	720516	keystroke_n	n	n/a
360.453	0.075	720906	keystroke_t	t	n/a
360.573	0.105	721146	keystroke_a	a	n/a
360.723	0.105	721446	keystroke_Key.space	Key.space	n/a
361.023	0.075	722046	keystroke_h	h	n/a
361.788	0.075	723576	keystroke_a	a	n/a
361.878	0.06	723756	keystroke_b	b	n/a
362.088	0.045	724176	keystroke_i	i	n/a
362.178	0.06	724356	keystroke_t	t	n/a
362.418	0.09	724836	keystroke_s	s	n/a
362.568	0.06	725136	keystroke_Key.space	Key.space	n/a
362.793	0.045	725586	keystroke_m	m	n/a
362.928	0.06	725856	keystroke_c	c	n/a
363.3475	0.09	726695	keystroke_d	d	n/a
363.4675	0.06	726935	keystroke_o	o	n/a
363.6025	0.06	727205	keystroke_n	n	n/a
364.0075	0.06	728015	keystroke_a	a	n/a
364.2475	0.045	728495	keystroke_l	l	n/a
364.3075	0.06	728615	keystroke_d	d	n/a
364.6825	0.075	729365	keystroke_Key.space	Key.space	n/a
364.8775	0.075	729755	keystroke_p	p	n/a
365.013	0.0445	730026	keystroke_r	r	n/a
365.1025	0.06	730205	keystroke_o	o	n/a
365.2375	0.06	730475	keystroke_j	j	n/a
365.3275	0.045	730655	keystroke_e	e	n/a
365.5225	0.075	731045	keystroke_c	c	n/a
365.8675	0.03	731735	keystroke_t	t	n/a
366.4675	0.075	732935	keystroke_Key.enter	Key.enter	n/a
366.5475	8.4115	733095	prompt	n/a	harvard clicking headset impressive\n
367.3525	0.09	734705	keystroke_h	h	n/a
367.4725	0.09	734945	keystroke_a	a	n/a
367.8475	0.045	735695	keystroke_r	r	n/a
368.0875	0.075	736175	keystroke_v	v	n/a
368.2375	0.09	736475	keystroke_a	a	n/a
368.3725	0.06	736745	keystroke_r	r	n/a
368.5825	0.06	737165	keystroke_d	d	n/a
369.1225	0.075	738245	keystroke_Key.space	Key.space	n/a
369.4375	0.105	738875	keystroke_c	c	n/a
369.5725	0.075	739145	keystroke_l	l	n/a
369.7375	0.06	739475	keystroke_i	i	n/a
369.8275	0.045	739655	keystroke_c	c	n/a
369.9325	0.06	739865	keystroke_k	k	n/a
370.2475	0.06	740495	keystroke_i	i	n/a
370.4575	0.06	740915	keystroke_n	n	n/a
370.5325	0.045	741065	keystroke_g	g	n/a
370.7125	0.105	741425	keystroke_Key.space	Key.space	n/a
371.1175	0.075	742235	keystroke_h	h	n/a
371.2225	0.0905	742445	keystroke_e	e	n/a
371.403	0.075	742806	keystroke_a	a	n/a
371.583	0.059	743166	keystroke_d	d	n/a
371.853	0.075	743706	keystroke_s	s	n/a
372.048	0.105	744096	keystroke_e	e	n/a
372.242	0.061	744484	keystroke_t	t	n/a
372.603	0.03	745206	keystroke_Key.space	Key.space	n/a
372.784	0.074	745568	keystroke_i	i	n/a
372.993	0.105	745986	keystroke_m	m	n/a
373.578	0.045	747156	keystroke_p	p	n/a
373.743	0.06	747486	keystroke_r	r	n/a
373.863	0.06	747726	keystroke_e	e	n/a
374.043	0.045	748086	keystroke_s	s	n/a
374.193	0.075	748386	keystroke_s	s	n/a
374.313	0.06	748626	keystroke_i	i	n/a
374.418	0.06	748836	keystroke_v	v	n/a
374.598	0.045	749196	keystroke_e	e	n/a
374.883	0.075	749766	keystroke_Key.enter	Key.enter	n/a
374.962	6.252	749924	prompt	n/a	reflection digest trouble how'll\n
375.7225	0.0605	751445	keystroke_r	r	n/a
375.8275	0.075	751655	keystroke_e	e	n/a
375.9925	0.06	751985	keystroke_f	f	n/a
376.1575	0.06	752315	keystroke_l	l	n/a
376.2625	0.045	752525	keystroke_e	e	n/a
376.5175	0.075	753035	keystroke_c	c	n/a
376.8025	0.06	753605	keystroke_t	t	n/a
376.9075	0.105	753815	keystroke_i	i	n/a
376.9525	0.105	753905	keystroke_o	o	n/a
377.1325	0.075	754265	keystroke_n	n	n/a
377.2675	0.09	754535	keystroke_Key.space	Key.space	n/a
377.3425	0.075	754685	keystroke_d	d	n/a
377.4325	0.06	754865	keystroke_i	i	n/a
377.568	0.0445	755136	keystroke_g	g	n/a
377.7175	0.045	755435	keystroke_e	e	n/a
377.8675	0.075	755735	keystroke_s	s	n/a
378.0775	0.045	756155	keystroke_t	t	n/a
378.1525	0.09	756305	keystroke_Key.space	Key.space	n/a
378.3175	0.075	756635	keystroke_t	t	n/a
378.4675	0.075	756935	keystroke_r	r	n/a
378.5725	0.075	757145	keystroke_o	o	n/a
378.7375	0.06	757475	keystroke_u	u	n/a
378.8875	0.075	757775	keystroke_b	b	n/a
379.0825	0.09	758165	keystroke_l	l	n/a
379.1875	0.045	758375	keystroke_e	e	n/a
379.5175	0.075	759035	keystroke_Key.space	Key.space	n/a
379.8025	0.105	759605	keystroke_h	h	n/a
379.8775	0.09	759755	keystroke_o	o	n/a
380.0275	0.06	760055	keystroke_w	w	n/a
380.3275	0.06	760655	keystroke_'	'	n/a
380.6275	0.075	761255	keystroke_l	l	n/a
380.7775	0.075	761555	keystroke_l	l	n/a
381.1675	0.045	762335	keystroke_Key.enter	Key.enter	n/a
381.2175	7.407	762435	prompt	n/a	caribbean arrive seems zoning\n
381.9775	0.09	763955	keystroke_c	c	n/a
382.2175	0.075	764435	keystroke_a	a	n/a
382.3975	0.06	764795	keystroke_r	r	n/a
382.8025	0.075	765605	keystroke_i	i	n/a
383.5225	0.045	767045	keystroke_b	b	n/a
383.6725	0.045	767345	keystroke_b	b	n/a
383.7475	0.075	767495	keystroke_e	e	n/a
383.9275	0.09	767855	keystroke_a	a	n/a
384.0175	0.06	768035	keystroke_n	n	n/a
384.1675	0.09	768335	keystroke_Key.space	Key.space	n/a
384.3325	0.09	768665	keystroke_a	a	n/a
384.4825	0.06	768965	keystroke_r	r	n/a
384.6175	0.09	769235	keystroke_r	r	n/a
384.7675	0.075	769535	keystroke_i	i	n/a
384.8575	0.03	769715	keystroke_v	v	n/a
385.0225	0.06	770045	keystroke_e	e	n/a
385.0975	0.105	770195	keystroke_Key.space	Key.space	n/a
385.3675	0.09	770735	keystroke_s	s	n/a
385.5775	0.015	771155	keystroke_e	e	n/a
385.7125	0.045	771425	keystroke_e	e	n/a
385.9525	0.06	771905	keystroke_m	m	n/a
386.0725	0.09	772145	keystroke_s	s	n/a
386.5225	0.06	773045	keystroke_Key.space	Key.space	n/a
386.9575	0.06	773915	keystroke_z	z	n/a
387.0925	0.09	774185	keystroke_o	o	n/a
387.2575	0.09	774515	keystroke_n	n	n/a
388.0675	0.045	776135	keystroke_i	i	n/a
388.1875	0.075	776375	keystroke_n	n	n/a
388.2925	0.06	776585	keystroke_g	g	n/a
388.5625	0.06	777125	keystroke_Key.enter	Key.enter	n/a
388.6275	8.2165	777255	prompt	n/a	highly subject research symptoms\n
389.4025	0.09	778805	keystroke_h	h	n/a
389.4625	0.105	778925	keystroke_i	i	n/a
389.6725	0.03	779345	keystroke_g	g	n/a
389.7175	0.075	779435	keystroke_h	h	n/a
389.9125	0.045	779825	keystroke_l	l	n/a
390.1675	0.03	780335	keystroke_y	y	n/a
390.3025	0.105	780605	keystroke_Key.space	Key.space	n/a
390.3925	0.075	780785	keystroke_s	s	n/a
390.8275	0.06	781655	keystroke_u	u	n/a
390.9775	0.045	781955	keystroke_b	b	n/a
391.1875	0.06	782375	keystroke_j	j	n/a
391.2625	0.06	782525	keystroke_e	e	n/a
391.4125	0.075	782825	keystroke_c	c	n/a
391.7425	0.045	783485	keystroke_t	t	n/a
391.8175	0.06	783635	keystroke_l	l	n/a
392.0725	0.06	784145	keystroke_y	y	n/a
392.2375	0.09	784475	keystroke_Key.space	Key.space	n/a
392.3425	0.06	784685	keystroke_r	r	n/a
392.4625	0.075	784925	keystroke_e	e	n/a
392.6575	0.075	785315	keystroke_s	s	n/a
392.8075	0.09	785615	keystroke_e	e	n/a
392.9725	0.105	785945	keystroke_a	a	n/a
393.1375	0.09	786275	keystroke_r	r	n/a
393.4975	0.075	786995	keystroke_c	c	n/a
393.6025	0.075	787205	keystroke_h	h	n/a
393.8425	0.09	787685	keystroke_Key.space	Key.space	n/a
394.0225	0.06	788045	keystroke_s	s	n/a
394.1725	0.09	788345	keystroke_y	y	n/a
394.6975	0.09	789395	keystroke_m	m	n/a
394.8775	0.075	789755	keystroke_p	p	n/a
395.0875	0.06	790175	keystroke_o	o	n/a
395.5825	0.06	791165	keystroke_Key.backspace	Key.backspace	n/a
395.7175	0.06	791435	keystroke_t	t	n/a
395.8525	0.06	791705	keystroke_o	o	n/a
396.0775	0.075	792155	keystroke_m	m	n/a
396.2275	0.06	792455	keystroke_s	s	n/a
396.7825	0.06	793565	keystroke_Key.enter	Key.enter	n/a
396.8465	7.123	793693	prompt	n/a	magazines engage symptoms avon\n
397.412	0.091	794824	keystroke_m	m	n/a
397.548	0.075	795096	keystroke_a	a	n/a
397.667	0.061	795334	keystroke_g	g	n/a
397.757	0.106	795514	keystroke_a	a	n/a
398.118	0.0735	796236	keystroke_z	z	n/a
398.2065	0.0465	796413	keystroke_i	i	n/a
398.343	0.074	796686	keystroke_n	n	n/a
398.432	0.061	796864	keystroke_e	e	n/a
398.567	0.061	797134	keystroke_Key.space	Key.space	n/a
398.703	0.075	797406	keystroke_s	s	n/a
399.453	0.075	798906	keystroke_Key.backspace	Key.backspace	n/a
399.573	0.0435	799146	keystroke_e	e	n/a
399.7075	0.0455	799415	keystroke_n	n	n/a
399.828	0.075	799656	keystroke_g	g	n/a
399.932	0.1055	799864	keystroke_a	a	n/a
400.053	0.0745	800106	keystroke_g	g	n/a
400.353	0.0295	800706	keystroke_e	e	n/a
400.6965	0.06	801393	keystroke_Key.space	Key.space	n/a
400.8175	0.075	801635	keystroke_s	s	n/a
401.0125	0.03	802025	keystroke_y	y	n/a
401.3425	0.105	802685	keystroke_m	m	n/a
401.5375	0.06	803075	keystroke_p	p	n/a
402.1375	0.045	804275	keystroke_t	t	n/a
402.2275	0.06	804455	keystroke_o	o	n/a
402.3925	0.075	804785	keystroke_m	m	n/a
402.5275	0.06	805055	keystroke_s	s	n/a
402.7215	0.061	805443	keystroke_Key.space	Key.space	n/a
402.8415	0.091	805683	keystroke_a	a	n/a
403.0075	0.06	806015	keystroke_v	v	n/a
403.5025	0.075	807005	keystroke_o	o	n/a
403.6525	0.06	807305	keystroke_n	n	n/a
403.9075	0.06	807815	keystroke_Key.enter	Key.enter	n/a
403.972	11.562	807944	prompt	n/a	gage belarus unnecessary circulation\n
404.8225	0.045	809645	keystroke_g	g	n/a
404.9425	0.075	809885	keystroke_a	a	n/a
405.0625	0.06	810125	keystroke_g	g	n/a
405.2875	0.03	810575	keystroke_e	e	n/a
405.8275	0.09	811655	keystroke_Key.space	Key.space	n/a
406.1425	0.075	812285	keystroke_b	b	n/a
406.2325	0.045	812465	keystroke_e	e	n/a
406.4125	0.045	812825	keystroke_l	l	n/a
406.7125	0.075	813425	keystroke_a	a	n/a
407.0425	0.045	814085	keystroke_r	r	n/a
407.1625	0.045	814325	keystroke_u	u	n/a
407.2525	0.075	814505	keystroke_s	s	n/a
407.6575	0.075	815315	keystroke_Key.space	Key.space	n/a
408.0325	0.09	816065	keystroke_u	u	n/a
408.2725	0.045	816545	keystroke_n	n	n/a
408.4375	0.03	816875	keystroke_n	n	n/a
409.1425	0.045	818285	keystroke_e	e	n/a
409.3375	0.075	818675	keystroke_c	c	n/a
409.7725	0.06	819545	keystroke_e	e	n/a
409.9375	0.105	819875	keystroke_s	s	n/a
410.1925	0.09	820385	keystroke_s	s	n/a
410.4025	0.105	820805	keystroke_a	a	n/a
410.5825	0.06	821165	keystroke_r	r	n/a
410.7475	0.06	821495	keystroke_y	y	n/a
411.0775	0.09	822155	keystroke_Key.space	Key.space	n/a
411.3925	0.075	822785	keystroke_c	c	n/a
411.4975	0.045	822995	keystroke_i	i	n/a
412.5625	0.06	825125	keystroke_r	r	n/a
412.8475	0.06	825695	keystroke_c	c	n/a
412.9975	0.06	825995	keystroke_u	u	n/a
413.9425	0.06	827885	keystroke_l	l	n/a
414.1075	0.09	828215	keystroke_a	a	n/a
414.2575	0.075	828515	keystroke_t	t	n/a
414.3475	0.135	828695	keystroke_i	i	n/a
414.4225	0.09	828845	keystroke_o	o	n/a
414.5575	0.075	829115	keystroke_n	n	n/a
415.4725	0.06	830945	keystroke_Key.enter	Key.enter	n/a
415.5385	6.6405	831077	prompt	n/a	package coal locks richards\n
416.2825	0.045	832565	keystroke_p	p	n/a
416.3875	0.06	832775	keystroke_a	a	n/a
416.5525	0.09	833105	keystroke_c	c	n/a
416.6575	0.045	833315	keystroke_k	k	n/a
416.7625	0.105	833525	keystroke_a	a	n/a
416.8975	0.06	833795	keystroke_g	g	n/a
417.0775	0.045	834155	keystroke_e	e	n/a
417.2575	0.09	834515	keystroke_Key.space	Key.space	n/a
417.4825	0.075	834965	keystroke_c	c	n/a
417.5725	0.045	835145	keystroke_o	o	n/a
417.6925	0.09	835385	keystroke_a	a	n/a
417.8125	0.015	835625	keystroke_l	l	n/a
418.4575	0.09	836915	keystroke_Key.space	Key.space	n/a
418.7575	0.075	837515	keystroke_l	l	n/a
418.9375	0.045	837875	keystroke_o	o	n/a
418.9975	0.075	837995	keystroke_c	c	n/a
419.1175	0.06	838235	keystroke_k	k	n/a
419.2375	0.06	838475	keystroke_s	s	n/a
420.2275	0.06	840455	keystroke_Key.space	Key.space	n/a
420.7375	0.06	841475	keystroke_r	r	n/a
420.8425	0.06	841685	keystroke_i	i	n/a
420.9775	0.075	841955	keystroke_c	c	n/a
421.0675	0.075	842135	keystroke_h	h	n/a
421.1875	0.105	842375	keystroke_a	a	n/a
421.3225	0.075	842645	keystroke_r	r	n/a
421.5475	0.03	843095	keystroke_d	d	n/a
421.6975	0.03	843395	keystroke_s	s	n/a
422.1175	0.06	844235	keystroke_Key.enter	Key.enter	n/a
422.1815	7.107	844363	prompt	n/a	cardiff spice axis summaries\n
422.9125	0.105	845825	keystroke_c	c	n/a
423.1075	0.09	846215	keystroke_a	a	n/a
423.2275	0.075	846455	keystroke_r	r	n/a
423.4525	0.045	846905	keystroke_d	d	n/a
423.6025	0.075	847205	keystroke_i	i	n/a
423.7525	0.075	847505	keystroke_f	f	n/a
424.2025	0.06	848405	keystroke_f	f	n/a
425.0425	0.105	850085	keystroke_Key.space	Key.space	n/a
425.1325	0.075	850265	keystroke_s	s	n/a
425.2225	0.075	850445	keystroke_p	p	n/a
425.4175	0.075	850835	keystroke_i	i	n/a
425.5075	0.09	851015	keystroke_c	c	n/a
425.8825	0.06	851765	keystroke_e	e	n/a
426.0775	0.105	852155	keystroke_Key.space	Key.space	n/a
426.3925	0.045	852785	keystroke_a	a	n/a
426.6625	0.045	853325	keystroke_x	x	n/a
426.7675	0.06	853535	keystroke_i	i	n/a
426.9475	0.06	853895	keystroke_s	s	n/a
427.5025	0.06	855005	keystroke_Key.space	Key.space	n/a
427.6825	0.075	855365	keystroke_s	s	n/a
427.7875	0.06	855575	keystroke_u	u	n/a
427.9825	0.075	855965	keystroke_m	m	n/a
428.1475	0.06	856295	keystroke_m	m	n/a
428.2225	0.09	856445	keystroke_a	a	n/a
428.3875	0.075	856775	keystroke_r	r	n/a
428.5075	0.045	857015	keystroke_i	i	n/a
428.5975	0.06	857195	keystroke_e	e	n/a
428.7475	0.06	857495	keystroke_s	s	n/a
429.2125	0.075	858425	keystroke_Key.enter	Key.enter	n/a
429.292	6.867	858584	prompt	n/a	officers tumor debt opponents\n
430.1125	0.06	860225	keystroke_o	o	n/a
430.2025	0.045	860405	keystroke_f	f	n/a
430.3675	0.045	860735	keystroke_f	f	n/a
430.4725	0.075	860945	keystroke_i	i	n/a
430.6525	0.09	861305	keystroke_c	c	n/a
430.8775	0.12	861755	keystroke_e	e	n/a
430.9825	0.075	861965	keystroke_r	r	n/a
431.1625	0.06	862325	keystroke_s	s	n/a
431.4775	0.09	862955	keystroke_Key.space	Key.space	n/a
431.6875	0.09	863375	keystroke_t	t	n/a
431.7625	0.075	863525	keystroke_u	u	n/a
432.0475	0.06	864095	keystroke_m	m	n/a
432.3625	0.06	864725	keystroke_o	o	n/a
432.4375	0.06	864875	keystroke_r	r	n/a
432.6925	0.09	865385	keystroke_Key.space	Key.space	n/a
432.8275	0.075	865655	keystroke_d	d	n/a
433.0375	0.045	866075	keystroke_e	e	n/a
433.1275	0.075	866255	keystroke_b	b	n/a
433.2625	0.06	866525	keystroke_t	t	n/a
433.5475	0.075	867095	keystroke_Key.space	Key.space	n/a
434.0125	0.135	868025	keystroke_o	o	n/a
434.1775	0.075	868355	keystroke_p	p	n/a
434.3425	0.06	868685	keystroke_p	p	n/a
434.5825	0.075	869165	keystroke_o	o	n/a
434.7775	0.06	869555	keystroke_n	n	n/a
434.9275	0.06	869855	keystroke_e	e	n/a
435.0775	0.045	870155	keystroke_n	n	n/a
435.3925	0.075	870785	keystroke_t	t	n/a
435.7825	0.06	871565	keystroke_s	s	n/a
436.0975	0.06	872195	keystroke_Key.enter	Key.enter	n/a
436.1625	7.6615	872325	prompt	n/a	rush remained corresponding side\n
436.9825	0.06	873965	keystroke_r	r	n/a
437.0575	0.105	874115	keystroke_u	u	n/a
437.1775	0.06	874355	keystroke_s	s	n/a
437.2675	0.06	874535	keystroke_h	h	n/a
437.8225	0.09	875645	keystroke_Key.space	Key.space	n/a
438.6475	0.045	877295	keystroke_r	r	n/a
438.7825	0.045	877565	keystroke_e	e	n/a
438.8725	0.105	877745	keystroke_m	m	n/a
439.0225	0.09	878045	keystroke_a	a	n/a
439.1425	0.06	878285	keystroke_i	i	n/a
439.3075	0.06	878615	keystroke_n	n	n/a
439.4725	0.06	878945	keystroke_e	e	n/a
439.6675	0.045	879335	keystroke_d	d	n/a
440.0125	0.06	880025	keystroke_Key.space	Key.space	n/a
440.4775	0.06	880955	keystroke_c	c	n/a
440.5975	0.045	881195	keystroke_o	o	n/a
440.8075	0.06	881615	keystroke_r	r	n/a
440.9275	0.045	881855	keystroke_r	r	n/a
441.1825	0.03	882365	keystroke_e	e	n/a
441.5275	0.015	883055	keystroke_s	s	n/a
441.6175	0.075	883235	keystroke_p	p	n/a
441.9025	0.075	883805	keystroke_o	o	n/a
442.0825	0.045	884165	keystroke_n	n	n/a
442.1735	0.059	884347	keystroke_d	d	n/a
442.2625	0.06	884525	keystroke_i	i	n/a
442.3975	0.076	884795	keystroke_n	n	n/a
442.5175	0.03	885035	keystroke_g	g	n/a
442.8325	0.09	885665	keystroke_Key.space	Key.space	n/a
442.9975	0.075	885995	keystroke_s	s	n/a
443.1025	0.06	886205	keystroke_i	i	n/a
443.1925	0.045	886385	keystroke_d	d	n/a
443.3725	0.06	886745	keystroke_e	e	n/a
443.7775	0.045	887555	keystroke_Key.enter	Key.enter	n/a
443.8275	9.942	887655	prompt	n/a	page support fundraising easy\n
445.1735	0.044	890347	keystroke_p	p	n/a
445.2925	0.09	890585	keystroke_a	a	n/a
445.4275	0.06	890855	keystroke_g	g	n/a
445.5925	0.045	891185	keystroke_e	e	n/a
445.9975	0.075	891995	keystroke_Key.space	Key.space	n/a
446.3875	0.045	892775	keystroke_s	s	n/a
446.4925	0.06	892985	keystroke_u	u	n/a
446.8825	0.075	893765	keystroke_p	p	n/a
447.0485	0.045	894097	keystroke_p	p	n/a
447.2125	0.06	894425	keystroke_o	o	n/a
447.3025	0.075	894605	keystroke_r	r	n/a
447.5125	0.045	895025	keystroke_t	t	n/a
448.4125	0.09	896825	keystroke_Key.space	Key.space	n/a
448.9825	0.045	897965	keystroke_d	d	n/a
449.3875	0.06	898775	keystroke_Key.backspace	Key.backspace	n/a
449.5225	0.06	899045	keystroke_f	f	n/a
449.6435	0.059	899287	keystroke_u	u	n/a
449.8235	0.104	899647	keystroke_n	n	n/a
449.9125	0.045	899825	keystroke_d	d	n/a
450.2735	0.059	900547	keystroke_r	r	n/a
450.6625	0.09	901325	keystroke_a	a	n/a
450.9775	0.06	901955	keystroke_i	i	n/a
451.443	0.0745	902886	keystroke_s	s	n/a
451.532	0.075	903064	keystroke_i	i	n/a
451.698	0.074	903396	keystroke_n	n	n/a
451.787	0.0455	903574	keystroke_g	g	n/a
452.117	0.105	904234	keystroke_Key.space	Key.space	n/a
452.327	0.0605	904654	keystroke_e	e	n/a
452.477	0.091	904954	keystroke_a	a	n/a
452.673	0.074	905346	keystroke_s	s	n/a
452.912	0.091	905824	keystroke_y	y	n/a
453.707	0.06	907414	keystroke_Key.enter	Key.enter	n/a
453.772	11.9675	907544	prompt	n/a	output deep engagement yellow\n
454.848	0.075	909696	keystroke_o	o	n/a
455.027	0.091	910054	keystroke_u	u	n/a
455.133	0.044	910266	keystroke_t	t	n/a
455.372	0.06	910744	keystroke_p	p	n/a
455.598	0.075	911196	keystroke_u	u	n/a
455.732	0.046	911464	keystroke_t	t	n/a
456.333	0.074	912666	keystroke_Key.space	Key.space	n/a
456.438	0.075	912876	keystroke_d	d	n/a
456.648	0.045	913296	keystroke_e	e	n/a
456.768	0.06	913536	keystroke_e	e	n/a
456.872	0.06	913744	keystroke_p	p	n/a
457.157	0.105	914314	keystroke_Key.space	Key.space	n/a
457.443	0.075	914886	keystroke_e	e	n/a
457.578	0.06	915156	keystroke_n	n	n/a
457.728	0.06	915456	keystroke_g	g	n/a
457.863	0.09	915726	keystroke_a	a	n/a
457.998	0.06	915996	keystroke_g	g	n/a
458.358	0.09	916716	keystroke_m	m	n/a
458.463	0.03	916926	keystroke_e	e	n/a
458.568	0.045	917136	keystroke_n	n	n/a
458.658	0.06	917316	keystroke_t	t	n/a
458.958	0.09	917916	keystroke_Key.space	Key.space	n/a
461.24	0.001	922480	keystroke_Key.backspace	Key.backspace	n/a
461.508	0.06	923016	keystroke_Key.backspace	Key.backspace	n/a
461.673	0.06	923346	keystroke_Key.backspace	Key.backspace	n/a
461.838	0.06	923676	keystroke_Key.backspace	Key.backspace	n/a
462.002	0.061	924004	keystroke_Key.backspace	Key.backspace	n/a
462.438	0.015	924876	keystroke_e	e	n/a
462.663	0.09	925326	keystroke_m	m	n/a
462.828	0.045	925656	keystroke_e	e	n/a
462.918	0.045	925836	keystroke_n	n	n/a
463.023	0.06	926046	keystroke_t	t	n/a
463.188	0.09	926376	keystroke_Key.space	Key.space	n/a
464.208	0.045	928416	keystroke_y	y	n/a
464.673	0.06	929346	keystroke_e	e	n/a
464.853	0.06	929706	keystroke_l	l	n/a
465.003	0.075	930006	keystroke_l	l	n/a
465.243	0.045	930486	keystroke_o	o	n/a
465.333	0.075	930666	keystroke_w	w	n/a
465.663	0.075	931326	keystroke_Key.enter	Key.enter	n/a
465.7425	5.2315	931485	prompt	n/a	cleanup tone sofa atom\n
466.428	0.09	932856	keystroke_c	c	n/a
467.013	0.06	934026	keystroke_l	l	n/a
467.133	0.09	934266	keystroke_e	e	n/a
467.298	0.09	934596	keystroke_a	a	n/a
467.433	0.075	934866	keystroke_n	n	n/a
467.673	0.06	935346	keystroke_u	u	n/a
467.883	0.045	935766	keystroke_p	p	n/a
468.048	0.09	936096	keystroke_Key.space	Key.space	n/a
468.348	0.045	936696	keystroke_t	t	n/a
468.393	0.06	936786	keystroke_o	o	n/a
468.528	0.06	937056	keystroke_n	n	n/a
468.618	0.045	937236	keystroke_e	e	n/a
468.693	0.09	937386	keystroke_Key.space	Key.space	n/a
469.008	0.06	938016	keystroke_s	s	n/a
469.113	0.06	938226	keystroke_o	o	n/a
469.218	0.105	938436	keystroke_f	f	n/a
469.353	0.09	938706	keystroke_a	a	n/a
469.7425	0.09	939485	keystroke_Key.space	Key.space	n/a
470.2375	0.105	940475	keystroke_a	a	n/a
470.3725	0.075	940745	keystroke_t	t	n/a
470.4925	0.076	940985	keystroke_o	o	n/a
470.6425	0.09	941285	keystroke_m	m	n/a
470.9275	0.045	941855	keystroke_Key.enter	Key.enter	n/a
470.977	7.1675	941954	prompt	n/a	beaches sees thailand laptop\n
471.6775	0.06	943355	keystroke_b	b	n/a
471.7525	0.045	943505	keystroke_e	e	n/a
471.8575	0.105	943715	keystroke_a	a	n/a
472.2185	0.044	944437	keystroke_h	h	n/a
472.5475	0.06	945095	keystroke_Key.backspace	Key.backspace	n/a
472.6385	0.089	945277	keystroke_c	c	n/a
472.8775	0.016	945755	keystroke_h	h	n/a
472.9075	0.045	945815	keystroke_e	e	n/a
473.0725	0.075	946145	keystroke_s	s	n/a
473.2525	0.075	946505	keystroke_Key.space	Key.space	n/a
473.4175	0.075	946835	keystroke_s	s	n/a
473.5825	0.06	947165	keystroke_e	e	n/a
473.7625	0.06	947525	keystroke_e	e	n/a
473.8975	0.09	947795	keystroke_s	s	n/a
474.2875	0.075	948575	keystroke_Key.space	Key.space	n/a
474.5875	0.075	949175	keystroke_t	t	n/a
474.6775	0.075	949355	keystroke_h	h	n/a
474.7375	0.106	949475	keystroke_a	a	n/a
474.9185	0.044	949837	keystroke_i	i	n/a
475.3525	0.105	950705	keystroke_l	l	n/a
475.5625	0.075	951125	keystroke_a	a	n/a
475.6685	0.044	951337	keystroke_n	n	n/a
475.7575	0.06	951515	keystroke_d	d	n/a
476.0125	0.09	952025	keystroke_Key.space	Key.space	n/a
476.1925	0.06	952385	keystroke_l	l	n/a
476.3575	0.075	952715	keystroke_a	a	n/a
477.2425	0.06	954485	keystroke_p	p	n/a
477.4685	0.059	954937	keystroke_t	t	n/a
477.5425	0.135	955085	keystroke_o	o	n/a
477.6185	0.104	955237	keystroke_p	p	n/a
478.0975	0.045	956195	keystroke_Key.enter	Key.enter	n/a
478.1475	5.997	956295	prompt	n/a	prefix soup culture packard\n
479.0725	0.06	958145	keystroke_p	p	n/a
479.1775	0.06	958355	keystroke_r	r	n/a
479.2825	0.061	958565	keystroke_e	e	n/a
479.4485	0.074	958897	keystroke_f	f	n/a
479.5375	0.06	959075	keystroke_i	i	n/a
479.7325	0.075	959465	keystroke_x	x	n/a
479.9725	0.105	959945	keystroke_Key.space	Key.space	n/a
480.1685	0.075	960337	keystroke_s	s	n/a
480.2575	0.075	960515	keystroke_o	o	n/a
480.4225	0.06	960845	keystroke_u	u	n/a
480.6475	0.03	961295	keystroke_p	p	n/a
480.7825	0.12	961565	keystroke_Key.space	Key.space	n/a
481.1875	0.09	962375	keystroke_c	c	n/a
481.3535	0.074	962707	keystroke_u	u	n/a
481.5625	0.06	963125	keystroke_l	l	n/a
482.1185	0.075	964237	keystroke_t	t	n/a
482.2235	0.074	964447	keystroke_u	u	n/a
482.3275	0.03	964655	keystroke_r	r	n/a
482.4185	0.089	964837	keystroke_e	e	n/a
482.8685	0.075	965737	keystroke_Key.space	Key.space	n/a
483.0475	0.075	966095	keystroke_p	p	n/a
483.1385	0.09	966277	keystroke_a	a	n/a
483.3335	0.105	966667	keystroke_c	c	n/a
483.4235	0.045	966847	keystroke_k	k	n/a
483.5575	0.075	967115	keystroke_a	a	n/a
483.6775	0.045	967355	keystroke_r	r	n/a
483.8725	0.046	967745	keystroke_d	d	n/a
484.0825	0.061	968165	keystroke_Key.enter	Key.enter	n/a
484.1475	8.427	968295	prompt	n/a	robinson christians contract setting\n
484.9535	0.06	969907	keystroke_r	r	n/a
485.0585	0.089	970117	keystroke_o	o	n/a
486.2435	0.06	972487	keystroke_b	b	n/a
486.3785	0.06	972757	keystroke_i	i	n/a
486.4985	0.105	972997	keystroke_n	n	n/a
486.6035	0.075	973207	keystroke_s	s	n/a
486.6785	0.075	973357	keystroke_o	o	n/a
486.8275	0.046	973655	keystroke_n	n	n/a
486.9935	0.089	973987	keystroke_Key.space	Key.space	n/a
487.1735	0.075	974347	keystroke_c	c	n/a
487.2635	0.06	974527	keystroke_h	h	n/a
488.0885	0.03	976177	keystroke_r	r	n/a
488.6885	0.06	977377	keystroke_i	i	n/a
488.7785	0.09	977557	keystroke_s	s	n/a
489.0635	0.03	978127	keystroke_t	t	n/a
489.1085	0.09	978217	keystroke_i	i	n/a
489.2435	0.075	978487	keystroke_a	a	n/a
489.3485	0.045	978697	keystroke_n	n	n/a
489.5885	0.06	979177	keystroke_s	s	n/a
489.8885	0.075	979777	keystroke_Key.space	Key.space	n/a
490.0385	0.075	980077	keystroke_c	c	n/a
490.0985	0.06	980197	keystroke_o	o	n/a
490.2035	0.105	980407	keystroke_n	n	n/a
490.3235	0.06	980647	keystroke_t	t	n/a
490.4435	0.105	980887	keystroke_r	r	n/a
490.5785	0.075	981157	keystroke_a	a	n/a
490.7585	0.09	981517	keystroke_c	c	n/a
491.0585	0.045	982117	keystroke_t	t	n/a
491.1035	0.12	982207	keystroke_Key.space	Key.space	n/a
491.2685	0.105	982537	keystroke_s	s	n/a
491.5085	0.06	983017	keystroke_e	e	n/a
491.7185	0.06	983437	keystroke_t	t	n/a
491.8835	0.06	983767	keystroke_t	t	n/a
492.0335	0.06	984067	keystroke_i	i	n/a
492.1685	0.075	984337	keystroke_n	n	n/a
492.2585	0.045	984517	keystroke_g	g	n/a
492.5135	0.06	985027	keystroke_Key.enter	Key.enter	n/a
492.5775	7.947	985155	prompt	n/a	applicants lows battle gothic\n
493.3985	0.075	986797	keystroke_a	a	n/a
493.5035	0.06	987007	keystroke_p	p	n/a
493.6235	0.09	987247	keystroke_p	p	n/a
493.7885	0.09	987577	keystroke_l	l	n/a
493.9535	0.06	987907	keystroke_i	i	n/a
494.0435	0.075	988087	keystroke_c	c	n/a
494.2085	0.09	988417	keystroke_a	a	n/a
494.3285	0.075	988657	keystroke_n	n	n/a
494.4335	0.06	988867	keystroke_t	t	n/a
494.7785	0.075	989557	keystroke_s	s	n/a
495.1535	0.075	990307	keystroke_Key.space	Key.space	n/a
495.3035	0.075	990607	keystroke_l	l	n/a
495.4835	0.06	990967	keystroke_o	o	n/a
495.5585	0.075	991117	keystroke_w	w	n/a
495.7985	0.0745	991597	keystroke_s	s	n/a
498.05	0.028	996100	keystroke_Key.space	Key.space	n/a
498.228	0.075	996456	keystroke_b	b	n/a
498.408	0.045	996816	keystroke_a	a	n/a
498.558	0.045	997116	keystroke_t	t	n/a
498.678	0.075	997356	keystroke_t	t	n/a
498.768	0.075	997536	keystroke_l	l	n/a
498.8735	0.0595	997747	keystroke_e	e	n/a
498.948	0.105	997896	keystroke_Key.space	Key.space	n/a
499.368	0.12	998736	keystroke_g	g	n/a
499.503	0.09	999006	keystroke_o	o	n/a
499.623	0.06	999246	keystroke_t	t	n/a
499.728	0.09	999456	keystroke_h	h	n/a
499.848	0.075	999696	keystroke_i	i	n/a
499.953	0.06	999906	keystroke_c	c	n/a
500.448	0.075	1000896	keystroke_Key.enter	Key.enter	n/a
500.529	8.606	1001058	prompt	n/a	biographies alumni respectively seek\n
501.663	0.06	1003326	keystroke_b	b	n/a
501.783	0.0905	1003566	keystroke_i	i	n/a
502.593	0.045	1005186	keystroke_o	o	n/a
503.268	0.045	1006536	keystroke_g	g	n/a
503.343	0.09	1006686	keystroke_r	r	n/a
503.493	0.09	1006986	keystroke_a	a	n/a
503.613	0.09	1007226	keystroke_p	p	n/a
503.823	0.105	1007646	keystroke_h	h	n/a
503.898	0.105	1007796	keystroke_i	i	n/a
504.033	0.06	1008066	keystroke_e	e	n/a
504.198	0.06	1008396	keystroke_s	s	n/a
504.468	0.075	1008936	keystroke_Key.space	Key.space	n/a
504.648	0.09	1009296	keystroke_a	a	n/a
504.723	0.09	1009446	keystroke_l	l	n/a
504.933	0.06	1009866	keystroke_u	u	n/a
505.113	0.105	1010226	keystroke_m	m	n/a
505.368	0.015	1010736	keystroke_n	n	n/a
505.503	0.06	1011006	keystroke_i	i	n/a
505.833	0.105	1011666	keystroke_Key.space	Key.space	n/a
506.088	0.045	1012176	keystroke_r	r	n/a
506.193	0.075	1012386	keystroke_e	e	n/a
506.358	0.06	1012716	keystroke_s	s	n/a
506.508	0.06	1013016	keystroke_p	p	n/a
506.673	0.06	1013346	keystroke_e	e	n/a
506.853	0.09	1013706	keystroke_c	c	n/a
507.168	0.045	1014336	keystroke_t	t	n/a
507.258	0.075	1014516	keystroke_i	i	n/a
507.393	0.045	1014786	keystroke_v	v	n/a
507.543	0.06	1015086	keystroke_e	e	n/a
507.678	0.045	1015356	keystroke_l	l	n/a
507.978	0.09	1015956	keystroke_y	y	n/a
508.188	0.075	1016376	keystroke_Key.space	Key.space	n/a
508.278	0.09	1016556	keystroke_s	s	n/a
508.503	0.045	1017006	keystroke_e	e	n/a
508.623	0.075	1017246	keystroke_e	e	n/a
508.758	0.075	1017516	keystroke_k	k	n/a
509.073	0.06	1018146	keystroke_Key.enter	Key.enter	n/a
509.1375	7.002	1018275	prompt	n/a	practical casa statement commander\n
509.823	0.075	1019646	keystroke_p	p	n/a
510.093	0.075	1020186	keystroke_r	r	n/a
510.213	0.09	1020426	keystroke_a	a	n/a
510.528	0.075	1021056	keystroke_c	c	n/a
510.813	0.045	1021626	keystroke_t	t	n/a
510.873	0.075	1021746	keystroke_i	i	n/a
511.038	0.075	1022076	keystroke_c	c	n/a
511.233	0.105	1022466	keystroke_a	a	n/a
511.308	0.09	1022616	keystroke_l	l	n/a
511.413	0.12	1022826	keystroke_Key.space	Key.space	n/a
511.548	0.105	1023096	keystroke_c	c	n/a
511.698	0.075	1023396	keystroke_a	a	n/a
511.878	0.06	1023756	keystroke_s	s	n/a
512.208	0.105	1024416	keystroke_a	a	n/a
512.373	0.12	1024746	keystroke_Key.space	Key.space	n/a
512.673	0.165	1025346	keystroke_s	s	n/a
513.078	0.06	1026156	keystroke_t	t	n/a
513.228	0.09	1026456	keystroke_a	a	n/a
513.288	0.075	1026576	keystroke_t	t	n/a
513.843	0.03	1027686	keystroke_e	e	n/a
514.038	0.06	1028076	keystroke_m	m	n/a
514.143	0.06	1028286	keystroke_e	e	n/a
514.248	0.06	1028496	keystroke_n	n	n/a
514.338	0.09	1028676	keystroke_t	t	n/a
514.563	0.09	1029126	keystroke_Key.space	Key.space	n/a
514.743	0.075	1029486	keystroke_c	c	n/a
514.863	0.06	1029726	keystroke_o	o	n/a
515.073	0.03	1030146	keystroke_m	m	n/a
515.193	0.075	1030386	keystroke_m	m	n/a
515.253	0.075	1030506	keystroke_a	a	n/a
515.388	0.06	1030776	keystroke_n	n	n/a
515.463	0.045	1030926	keystroke_d	d	n/a
515.628	0.15	1031256	keystroke_e	e	n/a
515.733	0.075	1031466	keystroke_r	r	n/a
516.078	0.06	1032156	keystroke_Key.enter	Key.enter	n/a
516.1425	9.702	1032285	prompt	n/a	attraction clinical bracelet premiere\n
516.813	0.075	1033626	keystroke_a	a	n/a
516.978	0.06	1033956	keystroke_t	t	n/a
517.083	0.09	1034166	keystroke_t	t	n/a
517.218	0.09	1034436	keystroke_r	r	n/a
517.353	0.06	1034706	keystroke_a	a	n/a
518.013	0.09	1036026	keystroke_c	c	n/a
518.328	0.06	1036656	keystroke_t	t	n/a
518.403	0.12	1036806	keystroke_i	i	n/a
518.463	0.12	1036926	keystroke_o	o	n/a
518.628	0.075	1037256	keystroke_n	n	n/a
518.793	0.09	1037586	keystroke_Key.space	Key.space	n/a
518.928	0.075	1037856	keystroke_c	c	n/a
518.988	0.09	1037976	keystroke_l	l	n/a
519.213	0.03	1038426	keystroke_i	i	n/a
519.348	0.075	1038696	keystroke_n	n	n/a
519.468	0.075	1038936	keystroke_i	i	n/a
520.053	0.09	1040106	keystroke_c	c	n/a
520.308	0.09	1040616	keystroke_a	a	n/a
520.443	0.045	1040886	keystroke_l	l	n/a
520.668	0.09	1041336	keystroke_Key.space	Key.space	n/a
520.923	0.09	1041846	keystroke_b	b	n/a
520.998	0.06	1041996	keystroke_r	r	n/a
521.103	0.075	1042206	keystroke_a	a	n/a
521.298	0.075	1042596	keystroke_c	c	n/a
521.478	0.045	1042956	keystroke_e	e	n/a
522.573	0.045	1045146	keystroke_l	l	n/a
522.633	0.075	1045266	keystroke_e	e	n/a
522.813	0.06	1045626	keystroke_t	t	n/a
522.918	0.09	1045836	keystroke_Key.space	Key.space	n/a
523.143	0.075	1046286	keystroke_p	p	n/a
523.248	0.03	1046496	keystroke_r	r	n/a
523.593	0.06	1047186	keystroke_e	e	n/a
523.833	0.12	1047666	keystroke_m	m	n/a
523.998	0.075	1047996	keystroke_i	i	n/a
524.613	0.06	1049226	keystroke_e	e	n/a
524.748	0.075	1049496	keystroke_r	r	n/a
524.868	0.06	1049736	keystroke_e	e	n/a
525.768	0.075	1051536	keystroke_Key.enter	Key.enter	n/a
525.8475	5.3825	1051695	prompt	n/a	hired horizon sorts pepper\n
526.503	0.075	1053006	keystroke_h	h	n/a
526.593	0.09	1053186	keystroke_i	i	n/a
526.698	0.06	1053396	keystroke_r	r	n/a
526.893	0.06	1053786	keystroke_e	e	n/a
527.088	0.045	1054176	keystroke_d	d	n/a
527.208	0.105	1054416	keystroke_Key.space	Key.space	n/a
527.4475	0.12	1054895	keystroke_h	h	n/a
527.5825	0.06	1055165	keystroke_o	o	n/a
527.7025	0.06	1055405	keystroke_r	r	n/a
527.8385	0.059	1055677	keystroke_i	i	n/a
528.1075	0.075	1056215	keystroke_z	z	n/a
528.3325	0.075	1056665	keystroke_o	o	n/a
528.4825	0.06	1056965	keystroke_n	n	n/a
528.6025	0.135	1057205	keystroke_Key.space	Key.space	n/a
528.8125	0.06	1057625	keystroke_s	s	n/a
528.9025	0.06	1057805	keystroke_o	o	n/a
529.0225	0.045	1058045	keystroke_r	r	n/a
529.1575	0.075	1058315	keystroke_t	t	n/a
529.3675	0.06	1058735	keystroke_s	s	n/a
529.5175	0.075	1059035	keystroke_Key.space	Key.space	n/a
529.7425	0.03	1059485	keystroke_p	p	n/a
529.8475	0.06	1059695	keystroke_e	e	n/a
530.1475	0.03	1060295	keystroke_p	p	n/a
530.2675	0.06	1060535	keystroke_p	p	n/a
530.4475	0.09	1060895	keystroke_e	e	n/a
530.5525	0.09	1061105	keystroke_r	r	n/a
531.1525	0.075	1062305	keystroke_Key.enter	Key.enter	n/a
531.2325	9.582	1062465	prompt	n/a	peripherals oaks dialogue summit\n
531.8875	0.075	1063775	keystroke_p	p	n/a
532.0075	0.06	1064015	keystroke_e	e	n/a
532.3975	0.045	1064795	keystroke_r	r	n/a
532.6385	0.059	1065277	keystroke_i	i	n/a
532.8175	0.045	1065635	keystroke_p	p	n/a
534.2585	0.089	1068517	keystroke_h	h	n/a
534.5425	0.06	1069085	keystroke_e	e	n/a
534.8275	0.03	1069655	keystroke_r	r	n/a
534.9325	0.06	1069865	keystroke_i	i	n/a
535.6975	0.045	1071395	keystroke_Key.backspace	Key.backspace	n/a
535.8175	0.09	1071635	keystroke_a	a	n/a
535.9675	0.045	1071935	keystroke_l	l	n/a
536.4185	0.059	1072837	keystroke_s	s	n/a
536.5525	0.12	1073105	keystroke_Key.space	Key.space	n/a
536.7925	0.076	1073585	keystroke_o	o	n/a
536.8975	0.105	1073795	keystroke_a	a	n/a
537.2725	0.045	1074545	keystroke_k	k	n/a
537.3925	0.046	1074785	keystroke_s	s	n/a
538.0975	0.12	1076195	keystroke_Key.space	Key.space	n/a
538.2475	0.09	1076495	keystroke_d	d	n/a
538.3525	0.061	1076705	keystroke_i	i	n/a
538.4725	0.075	1076945	keystroke_a	a	n/a
538.5925	0.061	1077185	keystroke_l	l	n/a
538.9525	0.075	1077905	keystroke_o	o	n/a
539.0725	0.061	1078145	keystroke_g	g	n/a
539.1925	0.06	1078385	keystroke_u	u	n/a
539.2835	0.059	1078567	keystroke_e	e	n/a
539.5225	0.09	1079045	keystroke_Key.space	Key.space	n/a
539.6275	0.076	1079255	keystroke_s	s	n/a
539.7625	0.09	1079525	keystroke_u	u	n/a
540.0175	0.061	1080035	keystroke_m	m	n/a
540.1535	0.09	1080307	keystroke_m	m	n/a
540.3485	0.044	1080697	keystroke_i	i	n/a
540.4085	0.059	1080817	keystroke_t	t	n/a
540.7525	0.061	1081505	keystroke_Key.enter	Key.enter	n/a
540.8175	11.307	1081635	prompt	n/a	bother kazakhstan jordan spread\n
541.6385	0.09	1083277	keystroke_b	b	n/a
541.7725	0.06	1083545	keystroke_r	r	n/a
542.2085	0.059	1084417	keystroke_Key.backspace	Key.backspace	n/a
542.4475	0.061	1084895	keystroke_o	o	n/a
542.7185	0.06	1085437	keystroke_t	t	n/a
542.9435	0.06	1085887	keystroke_h	h	n/a
543.0485	0.12	1086097	keystroke_e	e	n/a
543.1235	0.09	1086247	keystroke_r	r	n/a
543.3635	0.089	1086727	keystroke_Key.space	Key.space	n/a
543.5875	0.075	1087175	keystroke_k	k	n/a
543.6935	0.105	1087387	keystroke_a	a	n/a
544.1735	0.045	1088347	keystroke_s	s	n/a
544.7885	0.075	1089577	keystroke_Key.backspace	Key.backspace	n/a
545.298	0.06	1090596	keystroke_z	z	n/a
545.508	0.06	1091016	keystroke_a	a	n/a
545.613	0.06	1091226	keystroke_k	k	n/a
546.423	0.09	1092846	keystroke_s	s	n/a
547.083	0.09	1094166	keystroke_Key.backspace	Key.backspace	n/a
548.433	0.06	1096866	keystroke_h	h	n/a
548.688	0.105	1097376	keystroke_s	s	n/a
548.943	0.06	1097886	keystroke_t	t	n/a
549.093	0.075	1098186	keystroke_a	a	n/a
549.183	0.06	1098366	keystroke_n	n	n/a
549.333	0.075	1098666	keystroke_Key.space	Key.space	n/a
549.483	0.165	1098966	keystroke_j	j	n/a
549.603	0.09	1099206	keystroke_o	o	n/a
550.083	0.06	1100166	keystroke_r	r	n/a
550.413	0.075	1100826	keystroke_d	d	n/a
550.638	0.09	1101276	keystroke_a	a	n/a
550.773	0.03	1101546	keystroke_n	n	n/a
550.938	0.09	1101876	keystroke_Key.space	Key.space	n/a
551.058	0.09	1102116	keystroke_s	s	n/a
551.178	0.075	1102356	keystroke_p	p	n/a
551.343	0.045	1102686	keystroke_r	r	n/a
551.448	0.09	1102896	keystroke_e	e	n/a
551.583	0.105	1103166	keystroke_a	a	n/a
551.793	0.06	1103586	keystroke_d	d	n/a
552.048	0.075	1104096	keystroke_Key.enter	Key.enter	n/a
552.1275	8.292	1104255	prompt	n/a	faced penn zshops renaissance\n
552.753	0.075	1105506	keystroke_f	f	n/a
552.888	0.075	1105776	keystroke_a	a	n/a
553.098	0.06	1106196	keystroke_c	c	n/a
553.248	0.06	1106496	keystroke_e	e	n/a
553.458	0.03	1106916	keystroke_d	d	n/a
553.683	0.105	1107366	keystroke_Key.space	Key.space	n/a
553.878	0.06	1107756	keystroke_p	p	n/a
554.088	0.06	1108176	keystroke_e	e	n/a
554.433	0.045	1108866	keystroke_n	n	n/a
554.553	0.06	1109106	keystroke_n	n	n/a
554.718	0.105	1109436	keystroke_Key.space	Key.space	n/a
555.573	0.06	1111146	keystroke_z	z	n/a
555.843	0.06	1111686	keystroke_s	s	n/a
555.918	0.09	1111836	keystroke_h	h	n/a
556.113	0.135	1112226	keystroke_o	o	n/a
556.188	0.105	1112376	keystroke_p	p	n/a
556.353	0.075	1112706	keystroke_s	s	n/a
556.998	0.12	1113996	keystroke_Key.space	Key.space	n/a
557.178	0.075	1114356	keystroke_r	r	n/a
557.373	0.03	1114746	keystroke_e	e	n/a
557.493	0.045	1114986	keystroke_n	n	n/a
558.708	0.06	1117416	keystroke_a	a	n/a
559.053	0.06	1118106	keystroke_i	i	n/a
559.293	0.075	1118586	keystroke_s	s	n/a
559.473	0.075	1118946	keystroke_s	s	n/a
559.623	0.09	1119246	keystroke_a	a	n/a
559.758	0.06	1119516	keystroke_n	n	n/a
559.863	0.09	1119726	keystroke_c	c	n/a
560.013	0.06	1120026	keystroke_e	e	n/a
560.373	0.045	1120746	keystroke_Key.enter	Key.enter	n/a
560.4225	13.5125	1120845	prompt	n/a	juice specified translation afghanistan\n
561.228	0.09	1122456	keystroke_j	j	n/a
561.408	0.06	1122816	keystroke_u	u	n/a
561.558	0.06	1123116	keystroke_i	i	n/a
561.603	0.12	1123206	keystroke_c	c	n/a
561.798	0.06	1123596	keystroke_e	e	n/a
562.503	0.075	1125006	keystroke_Key.space	Key.space	n/a
562.638	0.09	1125276	keystroke_s	s	n/a
562.758	0.06	1125516	keystroke_p	p	n/a
562.893	0.03	1125786	keystroke_e	e	n/a
563.058	0.045	1126116	keystroke_c	c	n/a
563.133	0.06	1126266	keystroke_i	i	n/a
563.358	0.075	1126716	keystroke_f	f	n/a
563.478	0.06	1126956	keystroke_i	i	n/a
563.628	0.045	1127256	keystroke_c	c	n/a
563.913	0.06	1127826	keystroke_e	e	n/a
564.483	0.06	1128966	keystroke_Key.backspace	Key.backspace	n/a
564.648	0.075	1129296	keystroke_Key.backspace	Key.backspace	n/a
565.008	0.03	1130016	keystroke_e	e	n/a
565.188	0.045	1130376	keystroke_d	d	n/a
565.323	0.09	1130646	keystroke_Key.space	Key.space	n/a
566.148	0.06	1132296	keystroke_t	t	n/a
566.268	0.075	1132536	keystroke_r	r	n/a
566.373	0.12	1132746	keystroke_a	a	n/a
566.523	0.045	1133046	keystroke_n	n	n/a
566.733	0.09	1133466	keystroke_s	s	n/a
566.958	0.045	1133916	keystroke_l	l	n/a
567.033	0.09	1134066	keystroke_a	a	n/a
567.213	0.06	1134426	keystroke_t	t	n/a
567.318	0.135	1134636	keystroke_i	i	n/a
567.393	0.09	1134786	keystroke_o	o	n/a
567.588	0.045	1135176	keystroke_n	n	n/a
567.708	0.09	1135416	keystroke_Key.space	Key.space	n/a
567.963	0.105	1135926	keystroke_a	a	n/a
568.893	0.06	1137786	keystroke_f	f	n/a
569.193	0.045	1138386	keystroke_g	g	n/a
570.168	0.075	1140336	keystroke_h	h	n/a
570.333	0.06	1140666	keystroke_a	a	n/a
570.408	0.045	1140816	keystroke_n	n	n/a
572.705	0	1145410	keystroke_i	i	n/a
572.898	0.075	1145796	keystroke_s	s	n/a
573.333	0.03	1146666	keystroke_t	t	n/a
573.423	0.075	1146846	keystroke_a	a	n/a
573.558	0.03	1147116	keystroke_n	n	n/a
573.873	0.06	1147746	keystroke_Key.enter	Key.enter	n/a
573.938	7.692	1147876	prompt	n/a	blues poster margaret ware\n
574.788	0.045	1149576	keystroke_b	b	n/a
575.103	0.045	1150206	keystroke_l	l	n/a
575.298	0.06	1150596	keystroke_u	u	n/a
575.403	0.06	1150806	keystroke_e	e	n/a
575.568	0.06	1151136	keystroke_s	s	n/a
575.733	0.075	1151466	keystroke_Key.space	Key.space	n/a
575.868	0.06	1151736	keystroke_p	p	n/a
576.063	0.06	1152126	keystroke_o	o	n/a
576.138	0.09	1152276	keystroke_s	s	n/a
576.348	0.06	1152696	keystroke_t	t	n/a
576.708	0.105	1153416	keystroke_e	e	n/a
576.768	0.09	1153536	keystroke_r	r	n/a
577.023	0.105	1154046	keystroke_Key.space	Key.space	n/a
577.248	0.06	1154496	keystroke_m	m	n/a
577.323	0.06	1154646	keystroke_a	a	n/a
577.548	0.03	1155096	keystroke_r	r	n/a
579.063	0.03	1158126	keystroke_g	g	n/a
579.183	0.09	1158366	keystroke_a	a	n/a
579.348	0.045	1158696	keystroke_r	r	n/a
579.678	0.06	1159356	keystroke_e	e	n/a
579.828	0.06	1159656	keystroke_t	t	n/a
580.113	0.075	1160226	keystroke_Key.space	Key.space	n/a
580.878	0.06	1161756	keystroke_w	w	n/a
580.998	0.105	1161996	keystroke_a	a	n/a
581.148	0.06	1162296	keystroke_r	r	n/a
581.298	0.045	1162596	keystroke_e	e	n/a
581.583	0.045	1163166	keystroke_Key.enter	Key.enter	n/a
581.633	10.3765	1163266	prompt	n/a	ain't he'll santa messaging\n
582.318	0.075	1164636	keystroke_a	a	n/a
582.453	0.06	1164906	keystroke_i	i	n/a
582.573	0.075	1165146	keystroke_n	n	n/a
582.858	0.06	1165716	keystroke_'	'	n/a
583.068	0.045	1166136	keystroke_t	t	n/a
583.368	0.06	1166736	keystroke_Key.space	Key.space	n/a
583.548	0.045	1167096	keystroke_h	h	n/a
583.638	0.045	1167276	keystroke_e	e	n/a
584.4475	0.03	1168895	keystroke_'	'	n/a
584.8225	0.0155	1169645	keystroke_k	k	n/a
584.973	0.0595	1169946	keystroke_l	l	n/a
585.7075	0.045	1171415	keystroke_Key.backspace	Key.backspace	n/a
585.8875	0.045	1171775	keystroke_Key.backspace	Key.backspace	n/a
586.5475	0.045	1173095	keystroke_l	l	n/a
586.6825	0.06	1173365	keystroke_l	l	n/a
587.2675	0.105	1174535	keystroke_Key.space	Key.space	n/a
587.3875	0.091	1174775	keystroke_s	s	n/a
587.5675	0.09	1175135	keystroke_a	a	n/a
587.7625	0.075	1175525	keystroke_t	t	n/a
587.8675	0.075	1175735	keystroke_a	a	n/a
588.1675	0.06	1176335	keystroke_Key.backspace	Key.backspace	n/a
588.3175	0.075	1176635	keystroke_Key.backspace	Key.backspace	n/a
588.5725	0.06	1177145	keystroke_n	n	n/a
588.7975	0.06	1177595	keystroke_t	t	n/a
588.9175	0.075	1177835	keystroke_a	a	n/a
589.1575	0.075	1178315	keystroke_Key.space	Key.space	n/a
589.3825	0.06	1178765	keystroke_m	m	n/a
589.4285	0.059	1178857	keystroke_e	e	n/a
589.5775	0.076	1179155	keystroke_s	s	n/a
589.7425	0.06	1179485	keystroke_s	s	n/a
589.8785	0.119	1179757	keystroke_a	a	n/a
590.0125	0.075	1180025	keystroke_g	g	n/a
591.1535	0.059	1182307	keystroke_i	i	n/a
591.2875	0.075	1182575	keystroke_n	n	n/a
591.3785	0.074	1182757	keystroke_g	g	n/a
591.9475	0.06	1183895	keystroke_Key.enter	Key.enter	n/a
592.0125	10.2875	1184025	prompt	n/a	gore surge vbulletin systematic\n
593.9425	0.075	1187885	keystroke_g	g	n/a
594.0475	0.075	1188095	keystroke_o	o	n/a
594.1375	0.06	1188275	keystroke_r	r	n/a
594.2575	0.061	1188515	keystroke_e	e	n/a
