onset	duration	sample	value	key	prompt_text
17.295	14.989	34590	prompt	n/a	the quick brown fox jumps over a lazy dog\n
18.724	0.013	37448	keystroke_t	t	n/a
19.082	0.045	38164	keystroke_h	h	n/a
19.172	0.135	38344	keystroke_e	e	n/a
19.262	0.105	38524	keystroke_Key.space	Key.space	n/a
19.742	0.09	39484	keystroke_q	q	n/a
19.892	0.0905	39784	keystroke_u	u	n/a
20.042	0.105	40084	keystroke_i	i	n/a
20.162	0.06	40324	keystroke_c	c	n/a
20.297	0.09	40594	keystroke_k	k	n/a
20.432	0.105	40864	keystroke_Key.space	Key.space	n/a
20.987	0.12	41974	keystroke_b	b	n/a
21.137	0.075	42274	keystroke_r	r	n/a
21.287	0.075	42574	keystroke_o	o	n/a
22.157	0.075	44314	keystroke_w	w	n/a
22.292	0.09	44584	keystroke_n	n	n/a
22.412	0.105	44824	keystroke_Key.space	Key.space	n/a
23.1615	0.075	46323	keystroke_f	f	n/a
23.2665	0.075	46533	keystroke_o	o	n/a
23.5965	0.105	47193	keystroke_x	x	n/a
23.7165	0.075	47433	keystroke_Key.space	Key.space	n/a
23.8515	0.075	47703	keystroke_j	j	n/a
24.0015	0.075	48003	keystroke_u	u	n/a
24.2115	0.06	48423	keystroke_m	m	n/a
24.3615	0.0745	48723	keystroke_p	p	n/a
24.481	0.105	48962	keystroke_s	s	n/a
24.572	0.119	49144	keystroke_Key.space	Key.space	n/a
25.216	0.075	50432	keystroke_o	o	n/a
26.162	0.074	52324	keystroke_v	v	n/a
26.251	0.075	52502	keystroke_e	e	n/a
26.417	0.105	52834	keystroke_r	r	n/a
26.461	0.09	52922	keystroke_Key.space	Key.space	n/a
26.642	0.119	53284	keystroke_a	a	n/a
26.701	0.12	53402	keystroke_Key.space	Key.space	n/a
26.911	0.105	53822	keystroke_l	l	n/a
27.047	0.12	54094	keystroke_a	a	n/a
27.302	0.075	54604	keystroke_x	x	n/a
27.616	0.075	55232	keystroke_Key.backspace	Key.backspace	n/a
27.707	0.09	55414	keystroke_z	z	n/a
27.917	0.09	55834	keystroke_t	t	n/a
28.066	0.09	56132	keystroke_Key.space	Key.space	n/a
28.892	0.075	57784	keystroke_d	d	n/a
29.011	0.075	58022	keystroke_o	o	n/a
29.341	0.075	58682	keystroke_Key.backspace	Key.backspace	n/a
29.476	0.075	58952	keystroke_Key.backspace	Key.backspace	n/a
29.626	0.105	59252	keystroke_Key.backspace	Key.backspace	n/a
30.076	0.06	60152	keystroke_Key.backspace	Key.backspace	n/a
30.6005	0.09	61201	keystroke_y	y	n/a
30.7805	0.091	61561	keystroke_Key.space	Key.space	n/a
30.9305	0.091	61861	keystroke_d	d	n/a
31.2015	0.075	62403	keystroke_o	o	n/a
31.3815	0.074	62763	keystroke_g	g	n/a
32.2215	0.059	64443	keystroke_Key.enter	Key.enter	n/a
32.29	14.9625	64580	prompt	n/a	definitely cooper zshops diameter\n
33.226	0.075	66452	keystroke_d	d	n/a
33.346	0.06	66692	keystroke_e	e	n/a
33.421	0.09	66842	keystroke_f	f	n/a
33.526	0.075	67052	keystroke_e	e	n/a
34.5315	0.12	69063	keystroke_Key.backspace	Key.backspace	n/a
35.0565	0.045	70113	keystroke_i	i	n/a
35.206	0.0905	70412	keystroke_n	n	n/a
35.3865	0.06	70773	keystroke_i	i	n/a
35.536	0.045	71072	keystroke_t	t	n/a
36.946	0.03	73892	keystroke_e	e	n/a
36.961	0.03	73922	keystroke_l	l	n/a
37.231	0.075	74462	keystroke_y	y	n/a
37.366	0.105	74732	keystroke_Key.space	Key.space	n/a
38.2665	0.06	76533	keystroke_c	c	n/a
38.3265	0.075	76653	keystroke_o	o	n/a
38.4765	0.06	76953	keystroke_o	o	n/a
38.641	0.06	77282	keystroke_p	p	n/a
38.716	0.06	77432	keystroke_e	e	n/a
38.881	0.105	77762	keystroke_r	r	n/a
38.956	0.09	77912	keystroke_Key.space	Key.space	n/a
39.7805	0.09	79561	keystroke_z	z	n/a
40.0355	0.06	80071	keystroke_s	s	n/a
40.3355	0.075	80671	keystroke_h	h	n/a
40.9055	0.06	81811	keystroke_o	o	n/a
41.0555	0.09	82111	keystroke_p	p	n/a
41.1305	0.12	82261	keystroke_s	s	n/a
42.3155	0.105	84631	keystroke_Key.space	Key.space	n/a
42.5105	0.09	85021	keystroke_d	d	n/a
42.6755	0.075	85351	keystroke_i	i	n/a
42.7655	0.105	85531	keystroke_a	a	n/a
42.8855	0.105	85771	keystroke_m	m	n/a
43.1405	0.06	86281	keystroke_t	t	n/a
43.1855	0.09	86371	keystroke_e	e	n/a
45.046	0.06	90092	keystroke_Key.backspace	Key.backspace	n/a
45.376	0.09	90752	keystroke_Key.backspace	Key.backspace	n/a
45.961	0.06	91922	keystroke_e	e	n/a
46.126	0.09	92252	keystroke_t	t	n/a
46.201	0.105	92402	keystroke_e	e	n/a
46.351	0.075	92702	keystroke_r	r	n/a
47.191	0.06	94382	keystroke_Key.enter	Key.enter	n/a
47.2565	12.011	94513	prompt	n/a	positions meditation pumps lace\n
48.106	0.075	96212	keystroke_p	p	n/a
48.256	0.09	96512	keystroke_o	o	n/a
48.346	0.105	96692	keystroke_s	s	n/a
48.496	0.09	96992	keystroke_i	i	n/a
48.758	0.068	97516	keystroke_t	t	n/a
48.841	0.09	97682	keystroke_i	i	n/a
48.976	0.09	97952	keystroke_o	o	n/a
49.156	0.09	98312	keystroke_n	n	n/a
49.261	0.12	98522	keystroke_s	s	n/a
49.351	0.12	98702	keystroke_Key.space	Key.space	n/a
53.3725	0.013	106745	keystroke_m	m	n/a
53.3855	0.06	106771	keystroke_e	e	n/a
53.5805	0.075	107161	keystroke_d	d	n/a
53.6705	0.075	107341	keystroke_i	i	n/a
54.2555	0.075	108511	keystroke_t	t	n/a
54.3755	0.105	108751	keystroke_a	a	n/a
54.4955	0.105	108991	keystroke_t	t	n/a
55.4405	0.075	110881	keystroke_i	i	n/a
55.6355	0.06	111271	keystroke_o	o	n/a
55.7855	0.105	111571	keystroke_n	n	n/a
55.9205	0.1195	111841	keystroke_Key.space	Key.space	n/a
56.4305	0.09	112861	keystroke_p	p	n/a
57.0155	0.165	114031	keystroke_u	u	n/a
57.1955	0.075	114391	keystroke_m	m	n/a
57.3755	0.06	114751	keystroke_p	p	n/a
57.5105	0.135	115021	keystroke_s	s	n/a
57.6155	0.105	115231	keystroke_Key.space	Key.space	n/a
58.2005	0.09	116401	keystroke_l	l	n/a
58.3655	0.105	116731	keystroke_a	a	n/a
58.546	0.075	117092	keystroke_c	c	n/a
58.636	0.075	117272	keystroke_e	e	n/a
59.191	0.075	118382	keystroke_Key.enter	Key.enter	n/a
59.2705	12.6265	118541	prompt	n/a	antibodies word emotional maintenance\n
60.256	0.105	120512	keystroke_a	a	n/a
60.961	0.075	121922	keystroke_n	n	n/a
61.081	0.075	122162	keystroke_t	t	n/a
61.186	0.075	122372	keystroke_i	i	n/a
61.366	0.09	122732	keystroke_b	b	n/a
61.576	0.045	123152	keystroke_o	o	n/a
61.861	0.09	123722	keystroke_d	d	n/a
61.966	0.075	123932	keystroke_i	i	n/a
62.071	0.075	124142	keystroke_e	e	n/a
62.266	0.12	124532	keystroke_s	s	n/a
62.356	0.105	124712	keystroke_Key.space	Key.space	n/a
62.6405	0.105	125281	keystroke_w	w	n/a
62.7755	0.09	125551	keystroke_o	o	n/a
63.3905	0.045	126781	keystroke_r	r	n/a
63.5405	0.12	127081	keystroke_d	d	n/a
63.6755	0.09	127351	keystroke_Key.space	Key.space	n/a
64.2605	0.12	128521	keystroke_a	a	n/a
64.4105	0.105	128821	keystroke_m	m	n/a
65.46	0.075	130920	keystroke_Key.backspace	Key.backspace	n/a
65.61	0.105	131220	keystroke_Key.backspace	Key.backspace	n/a
65.73	0.075	131460	keystroke_e	e	n/a
65.865	0.105	131730	keystroke_m	m	n/a
66.045	0.09	132090	keystroke_o	o	n/a
66.48	0.075	132960	keystroke_t	t	n/a
66.585	0.09	133170	keystroke_i	i	n/a
66.735	0.09	133470	keystroke_o	o	n/a
66.93	0.09	133860	keystroke_n	n	n/a
67.021	0.104	134042	keystroke_a	a	n/a
67.185	0.09	134370	keystroke_l	l	n/a
67.35	0.09	134700	keystroke_Key.space	Key.space	n/a
67.741	0.089	135482	keystroke_m	m	n/a
67.845	0.105	135690	keystroke_a	a	n/a
68.055	0.06	136110	keystroke_i	i	n/a
68.235	0.09	136470	keystroke_n	n	n/a
69.135	0.09	138270	keystroke_t	t	n/a
69.255	0.061	138510	keystroke_e	e	n/a
69.705	0.075	139410	keystroke_n	n	n/a
69.841	0.119	139682	keystroke_a	a	n/a
70.095	0.09	140190	keystroke_n	n	n/a
70.65	0.061	141300	keystroke_c	c	n/a
70.711	0.074	141422	keystroke_e	e	n/a
71.835	0.06	143670	keystroke_Key.enter	Key.enter	n/a
71.9005	8.067	143801	prompt	n/a	result kernel incomplete jones\n
72.885	0.06	145770	keystroke_r	r	n/a
72.96	0.06	145920	keystroke_e	e	n/a
73.111	0.0895	146222	keystroke_s	s	n/a
73.2605	0.075	146521	keystroke_u	u	n/a
73.4855	0.075	146971	keystroke_l	l	n/a
73.6195	0.075	147239	keystroke_t	t	n/a
74.1745	0.12	148349	keystroke_Key.space	Key.space	n/a
74.6995	0.061	149399	keystroke_k	k	n/a
74.7445	0.076	149489	keystroke_e	e	n/a
74.8795	0.106	149759	keystroke_r	r	n/a
75.0305	0.09	150061	keystroke_n	n	n/a
75.1355	0.075	150271	keystroke_e	e	n/a
75.2695	0.075	150539	keystroke_l	l	n/a
75.7355	0.089	151471	keystroke_Key.space	Key.space	n/a
76.1695	0.075	152339	keystroke_i	i	n/a
76.4405	0.089	152881	keystroke_n	n	n/a
76.6355	0.075	153271	keystroke_c	c	n/a
76.7255	0.074	153451	keystroke_o	o	n/a
76.9355	0.075	153871	keystroke_m	m	n/a
77.13	0.076	154260	keystroke_p	p	n/a
77.251	0.06	154502	keystroke_l	l	n/a
77.326	0.09	154652	keystroke_e	e	n/a
77.6255	0.06	155251	keystroke_t	t	n/a
77.7455	0.105	155491	keystroke_e	e	n/a
78.0605	0.105	156121	keystroke_Key.space	Key.space	n/a
78.5705	0.074	157141	keystroke_j	j	n/a
78.6905	0.09	157381	keystroke_o	o	n/a
79.036	0.06	158072	keystroke_n	n	n/a
79.111	0.09	158222	keystroke_e	e	n/a
79.321	0.074	158642	keystroke_s	s	n/a
79.906	0.06	159812	keystroke_Key.enter	Key.enter	n/a
79.972	8.5915	159944	prompt	n/a	legs deutsche plans permissions\n
80.806	0.075	161612	keystroke_l	l	n/a
80.926	0.075	161852	keystroke_e	e	n/a
81.106	0.075	162212	keystroke_g	g	n/a
81.241	0.12	162482	keystroke_s	s	n/a
81.331	0.12	162662	keystroke_Key.space	Key.space	n/a
82.1555	0.09	164311	keystroke_d	d	n/a
82.2605	0.075	164521	keystroke_e	e	n/a
82.861	0.075	165722	keystroke_u	u	n/a
82.996	0.09	165992	keystroke_t	t	n/a
83.8205	0.075	167641	keystroke_s	s	n/a
84.0455	0.06	168091	keystroke_c	c	n/a
84.1505	0.075	168301	keystroke_h	h	n/a
84.3005	0.09	168601	keystroke_e	e	n/a
84.9755	0.12	169951	keystroke_Key.space	Key.space	n/a
85.1855	0.075	170371	keystroke_p	p	n/a
85.3205	0.105	170641	keystroke_l	l	n/a
85.4555	0.105	170911	keystroke_a	a	n/a
85.6055	0.075	171211	keystroke_n	n	n/a
85.7255	0.165	171451	keystroke_s	s	n/a
85.8755	0.09	171751	keystroke_Key.space	Key.space	n/a
86.2505	0.06	172501	keystroke_p	p	n/a
86.3405	0.09	172681	keystroke_e	e	n/a
86.7755	0.075	173551	keystroke_r	r	n/a
86.8805	0.09	173761	keystroke_m	m	n/a
87.1055	0.09	174211	keystroke_i	i	n/a
87.2105	0.075	174421	keystroke_s	s	n/a
87.3615	0.089	174723	keystroke_s	s	n/a
87.4655	0.075	174931	keystroke_i	i	n/a
87.6155	0.09	175231	keystroke_o	o	n/a
87.7655	0.09	175531	keystroke_n	n	n/a
87.8405	0.105	175681	keystroke_s	s	n/a
88.5005	0.06	177001	keystroke_Key.enter	Key.enter	n/a
88.5695	11.8135	177139	prompt	n/a	generic mandate bestsellers hypothetical\n
89.4905	0.06	178981	keystroke_g	g	n/a
89.5955	0.075	179191	keystroke_e	e	n/a
89.7155	0.06	179431	keystroke_n	n	n/a
89.7765	0.074	179553	keystroke_e	e	n/a
89.9555	0.075	179911	keystroke_r	r	n/a
90.0615	0.074	180123	keystroke_i	i	n/a
90.3305	0.09	180661	keystroke_c	c	n/a
90.8855	0.105	181771	keystroke_Key.space	Key.space	n/a
91.1115	0.075	182223	keystroke_m	m	n/a
91.1705	0.105	182341	keystroke_a	a	n/a
91.3055	0.075	182611	keystroke_n	n	n/a
91.4555	0.12	182911	keystroke_d	d	n/a
91.6365	0.119	183273	keystroke_a	a	n/a
91.9655	0.06	183931	keystroke_t	t	n/a
92.0705	0.12	184141	keystroke_e	e	n/a
92.8055	0.105	185611	keystroke_Key.space	Key.space	n/a
93.2115	0.089	186423	keystroke_b	b	n/a
93.2865	0.089	186573	keystroke_e	e	n/a
93.6005	0.09	187201	keystroke_s	s	n/a
93.7205	0.091	187441	keystroke_t	t	n/a
95.0405	0.075	190081	keystroke_s	s	n/a
95.2505	0.076	190501	keystroke_e	e	n/a
95.4005	0.061	190801	keystroke_l	l	n/a
95.5805	0.06	191161	keystroke_l	l	n/a
95.6255	0.075	191251	keystroke_e	e	n/a
95.7905	0.075	191581	keystroke_r	r	n/a
96.0155	0.135	192031	keystroke_s	s	n/a
96.1365	0.119	192273	keystroke_Key.space	Key.space	n/a
96.8405	0.075	193681	keystroke_h	h	n/a
97.0365	0.089	194073	keystroke_y	y	n/a
97.3655	0.075	194731	keystroke_p	p	n/a
97.5905	0.075	195181	keystroke_o	o	n/a
98.4615	0.06	196923	keystroke_t	t	n/a
98.5365	0.089	197073	keystroke_h	h	n/a
98.7455	0.061	197491	keystroke_e	e	n/a
99.0755	0.076	198151	keystroke_t	t	n/a
99.1655	0.091	198331	keystroke_i	i	n/a
99.3005	0.106	198601	keystroke_c	c	n/a
99.4515	0.12	198903	keystroke_a	a	n/a
99.5865	0.089	199173	keystroke_l	l	n/a
100.3065	0.074	200613	keystroke_Key.enter	Key.enter	n/a
100.3865	9.6415	200773	prompt	n/a	languages circumstances metal feat\n
101.4315	0.075	202863	keystroke_l	l	n/a
101.5815	0.089	203163	keystroke_a	a	n/a
101.6565	0.075	203313	keystroke_n	n	n/a
101.8665	0.075	203733	keystroke_g	g	n/a
102.0165	0.09	204033	keystroke_u	u	n/a
102.1215	0.135	204243	keystroke_a	a	n/a
102.3315	0.06	204663	keystroke_g	g	n/a
102.4365	0.075	204873	keystroke_e	e	n/a
102.6315	0.105	205263	keystroke_s	s	n/a
102.7215	0.12	205443	keystroke_Key.space	Key.space	n/a
103.4265	0.075	206853	keystroke_c	c	n/a
103.5165	0.06	207033	keystroke_i	i	n/a
103.6665	0.09	207333	keystroke_n	n	n/a
104.2215	0.09	208443	keystroke_Key.backspace	Key.backspace	n/a
104.5365	0.06	209073	keystroke_r	r	n/a
105.1965	0.12	210393	keystroke_c	c	n/a
105.2715	0.09	210543	keystroke_u	u	n/a
105.4965	0.075	210993	keystroke_m	m	n/a
105.5865	0.075	211173	keystroke_s	s	n/a
106.2915	0.075	212583	keystroke_t	t	n/a
106.3965	0.105	212793	keystroke_a	a	n/a
106.5465	0.06	213093	keystroke_n	n	n/a
106.7565	0.06	213513	keystroke_c	c	n/a
106.8315	0.06	213663	keystroke_e	e	n/a
107.0115	0.09	214023	keystroke_s	s	n/a
107.2815	0.0895	214563	keystroke_Key.space	Key.space	n/a
107.626	0.06	215252	keystroke_m	m	n/a
107.701	0.075	215402	keystroke_e	e	n/a
107.881	0.09	215762	keystroke_t	t	n/a
108.016	0.12	216032	keystroke_a	a	n/a
108.196	0.075	216392	keystroke_l	l	n/a
108.301	0.105	216602	keystroke_Key.space	Key.space	n/a
108.901	0.09	217802	keystroke_f	f	n/a
108.976	0.09	217952	keystroke_e	e	n/a
109.171	0.135	218342	keystroke_a	a	n/a
109.291	0.075	218582	keystroke_t	t	n/a
109.951	0.075	219902	keystroke_Key.enter	Key.enter	n/a
110.033	16.2395	220066	prompt	n/a	sanyo couldn't conflict searches\n
111.076	0.075	222152	keystroke_s	s	n/a
111.181	0.075	222362	keystroke_n	n	n/a
111.286	0.105	222572	keystroke_a	a	n/a
111.466	0.09	222932	keystroke_y	y	n/a
111.661	0.1055	223322	keystroke_o	o	n/a
111.7515	0.12	223503	keystroke_Key.space	Key.space	n/a
112.0215	0.075	224043	keystroke_c	c	n/a
112.1115	0.075	224223	keystroke_o	o	n/a
112.2915	0.09	224583	keystroke_u	u	n/a
112.7865	0.075	225573	keystroke_l	l	n/a
113.5365	0.075	227073	keystroke_Key.backspace	Key.backspace	n/a
113.7165	0.075	227433	keystroke_Key.backspace	Key.backspace	n/a
113.8815	0.075	227763	keystroke_Key.backspace	Key.backspace	n/a
114.0915	0.06	228183	keystroke_Key.backspace	Key.backspace	n/a
114.2565	0.075	228513	keystroke_Key.backspace	Key.backspace	n/a
114.4215	0.075	228843	keystroke_Key.backspace	Key.backspace	n/a
114.6165	0.075	229233	keystroke_Key.backspace	Key.backspace	n/a
114.8415	0.09	229683	keystroke_Key.backspace	Key.backspace	n/a
115.0815	0.09	230163	keystroke_Key.backspace	Key.backspace	n/a
115.6215	0.09	231243	keystroke_a	a	n/a
115.7265	0.09	231453	keystroke_n	n	n/a
115.9065	0.06	231813	keystroke_s	s	n/a
116.2515	0.06	232503	keystroke_Key.backspace	Key.backspace	n/a
116.5215	0.075	233043	keystroke_y	y	n/a
116.7315	0.09	233463	keystroke_o	o	n/a
116.8365	0.09	233673	keystroke_Key.space	Key.space	n/a
117.0765	0.09	234153	keystroke_c	c	n/a
117.1815	0.075	234363	keystroke_o	o	n/a
117.3915	0.075	234783	keystroke_u	u	n/a
117.6015	0.09	235203	keystroke_l	l	n/a
117.7665	0.09	235533	keystroke_d	d	n/a
118.1265	0.0745	236253	keystroke_n	n	n/a
118.306	0.075	236612	keystroke_t	t	n/a
119.086	0.06	238172	keystroke_Key.backspace	Key.backspace	n/a
119.206	0.09	238412	keystroke_'	'	n/a
119.311	0.09	238622	keystroke_t	t	n/a
119.386	0.12	238772	keystroke_Key.space	Key.space	n/a
120.211	0.075	240422	keystroke_c	c	n/a
120.301	0.075	240602	keystroke_o	o	n/a
120.481	0.105	240962	keystroke_n	n	n/a
120.886	0.06	241772	keystroke_f	f	n/a
121.021	0.105	242042	keystroke_l	l	n/a
121.261	0.075	242522	keystroke_i	i	n/a
121.681	0.105	243362	keystroke_c	c	n/a
121.876	0.03	243752	keystroke_y	y	n/a
121.891	0.03	243782	keystroke_t	t	n/a
121.951	0.105	243902	keystroke_Key.space	Key.space	n/a
122.281	0.09	244562	keystroke_Key.backspace	Key.backspace	n/a
122.476	0.09	244952	keystroke_Key.backspace	Key.backspace	n/a
122.716	0.075	245432	keystroke_Key.backspace	Key.backspace	n/a
123.151	0.06	246302	keystroke_t	t	n/a
123.226	0.105	246452	keystroke_Key.space	Key.space	n/a
123.766	0.09	247532	keystroke_s	s	n/a
123.946	0.06	247892	keystroke_e	e	n/a
124.141	0.15	248282	keystroke_a	a	n/a
124.621	0.06	249242	keystroke_r	r	n/a
124.906	0.075	249812	keystroke_c	c	n/a
124.996	0.105	249992	keystroke_h	h	n/a
125.116	0.06	250232	keystroke_e	e	n/a
125.296	0.075	250592	keystroke_s	s	n/a
126.211	0.06	252422	keystroke_Key.enter	Key.enter	n/a
126.2755	7.092	252551	prompt	n/a	adaptive asus causes exactly\n
126.991	0.09	253982	keystroke_a	a	n/a
127.276	0.09	254552	keystroke_d	d	n/a
127.381	0.105	254762	keystroke_a	a	n/a
127.606	0.06	255212	keystroke_p	p	n/a
127.786	0.06	255572	keystroke_t	t	n/a
127.861	0.075	255722	keystroke_i	i	n/a
128.086	0.075	256172	keystroke_v	v	n/a
128.176	0.105	256352	keystroke_e	e	n/a
128.296	0.09	256592	keystroke_Key.space	Key.space	n/a
128.806	0.12	257612	keystroke_a	a	n/a
128.971	0.045	257942	keystroke_s	s	n/a
129.061	0.075	258122	keystroke_u	u	n/a
129.181	0.12	258362	keystroke_s	s	n/a
129.286	0.12	258572	keystroke_Key.space	Key.space	n/a
129.586	0.105	259172	keystroke_c	c	n/a
129.796	0.09	259592	keystroke_a	a	n/a
129.916	0.075	259832	keystroke_u	u	n/a
129.976	0.12	259952	keystroke_s	s	n/a
130.171	0.075	260342	keystroke_e	e	n/a
130.366	0.12	260732	keystroke_s	s	n/a
130.441	0.12	260882	keystroke_Key.space	Key.space	n/a
130.696	0.075	261392	keystroke_e	e	n/a
130.996	0.075	261992	keystroke_x	x	n/a
131.131	0.105	262262	keystroke_a	a	n/a
131.356	0.075	262712	keystroke_c	c	n/a
131.641	0.075	263282	keystroke_t	t	n/a
131.791	0.075	263582	keystroke_l	l	n/a
132.031	0.09	264062	keystroke_y	y	n/a
133.291	0.075	266582	keystroke_Key.enter	Key.enter	n/a
133.371	14.022	266742	prompt	n/a	distributor aqua handbags verification\n
134.551	0.09	269102	keystroke_d	d	n/a
135.091	0.06	270182	keystroke_i	i	n/a
135.166	0.105	270332	keystroke_s	s	n/a
135.481	0.06	270962	keystroke_t	t	n/a
135.616	0.105	271232	keystroke_r	r	n/a
135.736	0.075	271472	keystroke_i	i	n/a
135.9315	0.075	271863	keystroke_n	n	n/a
135.9465	0.045	271893	keystroke_b	b	n/a
136.1265	0.045	272253	keystroke_u	u	n/a
136.7415	0.06	273483	keystroke_Key.backspace	Key.backspace	n/a
136.9215	0.075	273843	keystroke_Key.backspace	Key.backspace	n/a
137.1165	0.09	274233	keystroke_Key.backspace	Key.backspace	n/a
137.791	0.075	275582	keystroke_b	b	n/a
137.9415	0.09	275883	keystroke_u	u	n/a
138.0465	0.06	276093	keystroke_t	t	n/a
138.1815	0.075	276363	keystroke_o	o	n/a
138.3465	0.15	276693	keystroke_r	r	n/a
138.4815	0.09	276963	keystroke_Key.space	Key.space	n/a
138.7515	0.105	277503	keystroke_a	a	n/a
139.0065	0.09	278013	keystroke_q	q	n/a
139.1265	0.075	278253	keystroke_u	u	n/a
139.2465	0.105	278493	keystroke_q	q	n/a
139.6365	0.075	279273	keystroke_Key.backspace	Key.backspace	n/a
139.7415	0.06	279483	keystroke_a	a	n/a
139.8615	0.105	279723	keystroke_Key.space	Key.space	n/a
140.5815	0.075	281163	keystroke_h	h	n/a
140.7015	0.09	281403	keystroke_a	a	n/a
140.7765	0.09	281553	keystroke_n	n	n/a
141.0765	0.075	282153	keystroke_d	d	n/a
141.3915	0.03	282783	keystroke_g	g	n/a
141.7065	0.06	283413	keystroke_Key.backspace	Key.backspace	n/a
141.9315	0.075	283863	keystroke_b	b	n/a
142.0065	0.12	284013	keystroke_a	a	n/a
142.1865	0.06	284373	keystroke_g	g	n/a
142.3065	0.105	284613	keystroke_s	s	n/a
143.2815	0.0895	286563	keystroke_Key.space	Key.space	n/a
144.0165	0.09	288033	keystroke_v	v	n/a
144.0915	0.075	288183	keystroke_e	e	n/a
144.2415	0.105	288483	keystroke_r	r	n/a
144.4215	0.09	288843	keystroke_i	i	n/a
144.7065	0.075	289413	keystroke_f	f	n/a
144.7965	0.09	289593	keystroke_i	i	n/a
145.2165	0.09	290433	keystroke_c	c	n/a
145.2915	0.105	290583	keystroke_a	a	n/a
145.3815	0.09	290763	keystroke_t	t	n/a
145.6365	0.075	291273	keystroke_i	i	n/a
145.7865	0.09	291573	keystroke_o	o	n/a
145.9815	0.075	291963	keystroke_n	n	n/a
147.3315	0.06	294663	keystroke_Key.enter	Key.enter	n/a
147.3965	9.9565	294793	prompt	n/a	author referred replication jump\n
148.097	0.105	296194	keystroke_a	a	n/a
148.292	0.045	296584	keystroke_u	u	n/a
148.427	0.06	296854	keystroke_t	t	n/a
148.577	0.075	297154	keystroke_h	h	n/a
148.742	0.0745	297484	keystroke_o	o	n/a
148.9215	0.135	297843	keystroke_r	r	n/a
149.5665	0.135	299133	keystroke_Key.space	Key.space	n/a
149.9865	0.06	299973	keystroke_r	r	n/a
150.0615	0.09	300123	keystroke_e	e	n/a
150.1665	0.075	300333	keystroke_f	f	n/a
150.512	0.075	301024	keystroke_e	e	n/a
150.647	0.075	301294	keystroke_r	r	n/a
150.7965	0.075	301593	keystroke_r	r	n/a
150.9015	0.075	301803	keystroke_e	e	n/a
151.1115	0.12	302223	keystroke_d	d	n/a
151.2315	0.0905	302463	keystroke_Key.space	Key.space	n/a
152.132	0.06	304264	keystroke_r	r	n/a
152.312	0.09	304624	keystroke_e	e	n/a
152.927	0.09	305854	keystroke_p	p	n/a
153.062	0.105	306124	keystroke_k	k	n/a
153.287	0.06	306574	keystroke_i	i	n/a
153.362	0.09	306724	keystroke_c	c	n/a
153.692	0.075	307384	keystroke_Key.backspace	Key.backspace	n/a
153.857	0.105	307714	keystroke_Key.backspace	Key.backspace	n/a
154.127	0.0895	308254	keystroke_Key.backspace	Key.backspace	n/a
154.5615	0.06	309123	keystroke_l	l	n/a
154.7415	0.075	309483	keystroke_i	i	n/a
154.8765	0.075	309753	keystroke_c	c	n/a
155.0115	0.12	310023	keystroke_a	a	n/a
155.1315	0.09	310263	keystroke_t	t	n/a
155.3415	0.09	310683	keystroke_i	i	n/a
155.5515	0.075	311103	keystroke_o	o	n/a
155.7315	0.09	311463	keystroke_n	n	n/a
155.7915	0.12	311583	keystroke_Key.space	Key.space	n/a
155.9565	0.09	311913	keystroke_j	j	n/a
156.1365	0.045	312273	keystroke_u	u	n/a
156.3315	0.075	312663	keystroke_m	m	n/a
157.0365	0.09	314073	keystroke_p	p	n/a
157.2765	0.075	314553	keystroke_Key.enter	Key.enter	n/a
157.3575	10.466	314715	prompt	n/a	island summer commitment excellence\n
158.2365	0.075	316473	keystroke_i	i	n/a
158.3265	0.12	316653	keystroke_s	s	n/a
158.4765	0.09	316953	keystroke_l	l	n/a
158.6115	0.12	317223	keystroke_a	a	n/a
159.4215	0.075	318843	keystroke_n	n	n/a
159.5415	0.105	319083	keystroke_f	f	n/a
159.6315	0.105	319263	keystroke_Key.space	Key.space	n/a
160.4565	0.075	320913	keystroke_Key.backspace	Key.backspace	n/a
160.5915	0.075	321183	keystroke_Key.backspace	Key.backspace	n/a
160.6365	0.105	321273	keystroke_d	d	n/a
160.8615	0.12	321723	keystroke_Key.space	Key.space	n/a
161.1165	0.09	322233	keystroke_s	s	n/a
161.2365	0.09	322473	keystroke_u	u	n/a
161.4615	0.075	322923	keystroke_m	m	n/a
161.5965	0.105	323193	keystroke_m	m	n/a
161.6865	0.06	323373	keystroke_e	e	n/a
161.8215	0.12	323643	keystroke_r	r	n/a
161.9115	0.12	323823	keystroke_Key.space	Key.space	n/a
162.4515	0.06	324903	keystroke_c	c	n/a
162.4665	0.09	324933	keystroke_o	o	n/a
162.6315	0.09	325263	keystroke_m	m	n/a
162.7815	0.09	325563	keystroke_m	m	n/a
162.9465	0.075	325893	keystroke_i	i	n/a
163.0965	0.105	326193	keystroke_m	m	n/a
163.5165	0.09	327033	keystroke_Key.backspace	Key.backspace	n/a
163.7115	0.075	327423	keystroke_t	t	n/a
164.1315	0.075	328263	keystroke_m	m	n/a
164.2215	0.09	328443	keystroke_e	e	n/a
164.4465	0.075	328893	keystroke_n	n	n/a
164.5365	0.09	329073	keystroke_t	t	n/a
165.1665	0.09	330333	keystroke_Key.space	Key.space	n/a
165.4065	0.075	330813	keystroke_e	e	n/a
165.7965	0.075	331593	keystroke_x	x	n/a
165.9615	0.06	331923	keystroke_c	c	n/a
166.1415	0.045	332283	keystroke_e	e	n/a
166.2465	0.075	332493	keystroke_l	l	n/a
166.3965	0.09	332793	keystroke_l	l	n/a
166.4875	0.074	332975	keystroke_e	e	n/a
166.6065	0.09	333213	keystroke_n	n	n/a
166.7415	0.075	333483	keystroke_c	c	n/a
166.9665	0.075	333933	keystroke_e	e	n/a
167.7615	0.06	335523	keystroke_Key.enter	Key.enter	n/a
167.827	6.806	335654	prompt	n/a	artistic rolling wash alpine\n
168.6015	0.09	337203	keystroke_a	a	n/a
168.8265	0.06	337653	keystroke_r	r	n/a
169.0065	0.06	338013	keystroke_t	t	n/a
169.1415	0.075	338283	keystroke_i	i	n/a
169.2915	0.09	338583	keystroke_s	s	n/a
169.7265	0.06	339453	keystroke_t	t	n/a
169.8165	0.105	339633	keystroke_i	i	n/a
169.9365	0.09	339873	keystroke_c	c	n/a
170.0865	0.09	340173	keystroke_Key.space	Key.space	n/a
170.7015	0.06	341403	keystroke_r	r	n/a
170.7765	0.075	341553	keystroke_o	o	n/a
170.9265	0.09	341853	keystroke_l	l	n/a
171.0765	0.075	342153	keystroke_l	l	n/a
171.2715	0.06	342543	keystroke_i	i	n/a
171.4515	0.105	342903	keystroke_n	n	n/a
171.8415	0.075	343683	keystroke_g	g	n/a
171.9315	0.105	343863	keystroke_Key.space	Key.space	n/a
172.4265	0.015	344853	keystroke_w	w	n/a
172.5765	0.12	345153	keystroke_a	a	n/a
172.6815	0.09	345363	keystroke_s	s	n/a
172.9365	0.09	345873	keystroke_h	h	n/a
173.0115	0.12	346023	keystroke_Key.space	Key.space	n/a
173.5215	0.105	347043	keystroke_a	a	n/a
173.5965	0.12	347193	keystroke_l	l	n/a
173.8515	0.09	347703	keystroke_p	p	n/a
174.0465	0.075	348093	keystroke_i	i	n/a
174.3015	0.015	348603	keystroke_n	n	n/a
174.3175	0.059	348635	keystroke_e	e	n/a
174.5715	0.06	349143	keystroke_Key.enter	Key.enter	n/a
174.637	8.441	349274	prompt	n/a	gold seminar stories initiated\n
175.7565	0.015	351513	keystroke_g	g	n/a
175.7865	0.045	351573	keystroke_o	o	n/a
175.9365	0.075	351873	keystroke_l	l	n/a
176.0265	0.105	352053	keystroke_d	d	n/a
176.2065	0.075	352413	keystroke_Key.space	Key.space	n/a
176.8215	0.076	353643	keystroke_s	s	n/a
177.0015	0.06	354003	keystroke_e	e	n/a
177.0625	0.089	354125	keystroke_m	m	n/a
177.2265	0.075	354453	keystroke_i	i	n/a
177.3915	0.09	354783	keystroke_n	n	n/a
177.4515	0.09	354903	keystroke_a	a	n/a
177.6315	0.121	355263	keystroke_r	r	n/a
177.7365	0.075	355473	keystroke_Key.space	Key.space	n/a
177.9315	0.12	355863	keystroke_s	s	n/a
178.2315	0.075	356463	keystroke_t	t	n/a
178.3365	0.09	356673	keystroke_o	o	n/a
178.4725	0.059	356945	keystroke_r	r	n/a
178.5475	0.074	357095	keystroke_i	i	n/a
178.6665	0.075	357333	keystroke_e	e	n/a
178.8615	0.136	357723	keystroke_s	s	n/a
178.9815	0.075	357963	keystroke_Key.space	Key.space	n/a
179.941	0.06	359882	keystroke_i	i	n/a
180.106	0.075	360212	keystroke_n	n	n/a
180.241	0.09	360482	keystroke_i	i	n/a
180.346	0.06	360692	keystroke_t	t	n/a
181.186	0.06	362372	keystroke_i	i	n/a
181.321	0.105	362642	keystroke_a	a	n/a
182.101	0.09	364202	keystroke_t	t	n/a
182.176	0.06	364352	keystroke_e	e	n/a
182.341	0.075	364682	keystroke_d	d	n/a
183.0315	0.045	366063	keystroke_Key.enter	Key.enter	n/a
183.081	15.0425	366162	prompt	n/a	clients manager enrollment nevertheless\n
184.2015	0.075	368403	keystroke_c	c	n/a
184.2465	0.075	368493	keystroke_l	l	n/a
184.4565	0.075	368913	keystroke_i	i	n/a
184.5465	0.075	369093	keystroke_e	e	n/a
184.6365	0.105	369273	keystroke_n	n	n/a
184.8315	0.09	369663	keystroke_d	d	n/a
185.3715	0.12	370743	keystroke_Key.backspace	Key.backspace	n/a
185.8815	0.075	371763	keystroke_t	t	n/a
185.9715	0.12	371943	keystroke_s	s	n/a
186.0615	0.135	372123	keystroke_Key.space	Key.space	n/a
186.6015	0.0745	373203	keystroke_m	m	n/a
186.722	0.1055	373444	keystroke_a	a	n/a
186.8115	0.075	373623	keystroke_n	n	n/a
186.9475	0.104	373895	keystroke_a	a	n/a
187.1865	0.105	374373	keystroke_h	h	n/a
187.4115	0.105	374823	keystroke_a	a	n/a
187.6965	0.03	375393	keystroke_Key.backspace	Key.backspace	n/a
187.8165	0.075	375633	keystroke_Key.backspace	Key.backspace	n/a
188.2975	0.045	376595	keystroke_f	f	n/a
188.6565	0.06	377313	keystroke_Key.backspace	Key.backspace	n/a
189.1365	0.061	378273	keystroke_g	g	n/a
189.1825	0.09	378365	keystroke_e	e	n/a
189.3765	0.105	378753	keystroke_r	r	n/a
189.4365	0.105	378873	keystroke_Key.space	Key.space	n/a
189.7365	0.075	379473	keystroke_e	e	n/a
189.9315	0.09	379863	keystroke_r	r	n/a
190.4415	0.09	380883	keystroke_Key.backspace	Key.backspace	n/a
190.6515	0.105	381303	keystroke_n	n	n/a
190.7715	0.06	381543	keystroke_r	r	n/a
190.8465	0.075	381693	keystroke_o	o	n/a
191.0265	0.075	382053	keystroke_l	l	n/a
191.1615	0.075	382323	keystroke_l	l	n/a
191.3265	0.075	382653	keystroke_m	m	n/a
191.3725	0.089	382745	keystroke_e	e	n/a
191.5815	0.075	383163	keystroke_n	n	n/a
191.7015	0.06	383403	keystroke_t	t	n/a
191.7165	0.03	383433	keystroke_y	y	n/a
192.3765	0.09	384753	keystroke_Key.backspace	Key.backspace	n/a
192.5265	0.09	385053	keystroke_Key.space	Key.space	n/a
194.0725	0.075	388145	keystroke_n	n	n/a
194.1765	0.075	388353	keystroke_e	e	n/a
194.4915	0.075	388983	keystroke_v	v	n/a
194.5815	0.0605	389163	keystroke_e	e	n/a
194.7315	0.075	389463	keystroke_r	r	n/a
194.9565	0.06	389913	keystroke_t	t	n/a
195.9765	0.075	391953	keystroke_h	h	n/a
196.1415	0.09	392283	keystroke_e	e	n/a
197.2815	0.15	394563	keystroke_l	l	n/a
197.4475	0.014	394895	keystroke_e	e	n/a
197.6115	0.075	395223	keystroke_s	s	n/a
197.7615	0.09	395523	keystroke_s	s	n/a
198.0765	0.045	396153	keystroke_Key.enter	Key.enter	n/a
198.1285	9.7155	396257	prompt	n/a	variables moderator wonder manhattan\n
199.1425	0.059	398285	keystroke_c	c	n/a
199.4115	0.105	398823	keystroke_Key.backspace	Key.backspace	n/a
199.5015	0.091	399003	keystroke_v	v	n/a
199.6815	0.135	399363	keystroke_a	a	n/a
200.0565	0.075	400113	keystroke_r	r	n/a
200.1615	0.105	400323	keystroke_i	i	n/a
200.3115	0.136	400623	keystroke_a	a	n/a
200.4915	0.106	400983	keystroke_b	b	n/a
200.7315	0.091	401463	keystroke_l	l	n/a
200.8065	0.091	401613	keystroke_e	e	n/a
201.0165	0.135	402033	keystroke_s	s	n/a
201.1365	0.105	402273	keystroke_Key.space	Key.space	n/a
201.3775	0.105	402755	keystroke_m	m	n/a
201.6015	0.06	403203	keystroke_o	o	n/a
201.8565	0.03	403713	keystroke_Key.backspace	Key.backspace	n/a
202.5325	0.074	405065	keystroke_o	o	n/a
202.5925	0.089	405185	keystroke_d	d	n/a
202.7565	0.091	405513	keystroke_e	e	n/a
203.0565	0.105	406113	keystroke_r	r	n/a
203.1475	0.089	406295	keystroke_a	a	n/a
203.2515	0.091	406503	keystroke_t	t	n/a
203.5075	0.074	407015	keystroke_o	o	n/a
203.6125	0.119	407225	keystroke_r	r	n/a
203.7015	0.105	407403	keystroke_Key.space	Key.space	n/a
204.2275	0.075	408455	keystroke_w	w	n/a
204.3175	0.06	408635	keystroke_o	o	n/a
204.467	0.09	408934	keystroke_n	n	n/a
204.572	0.06	409144	keystroke_d	d	n/a
204.767	0.09	409534	keystroke_e	e	n/a
204.992	0.15	409984	keystroke_r	r	n/a
205.157	0.09	410314	keystroke_Key.space	Key.space	n/a
205.607	0.075	411214	keystroke_m	m	n/a
205.727	0.105	411454	keystroke_a	a	n/a
205.802	0.09	411604	keystroke_n	n	n/a
205.982	0.075	411964	keystroke_h	h	n/a
206.237	0.015	412474	keystroke_a	a	n/a
206.267	0.045	412534	keystroke_t	t	n/a
206.402	0.075	412804	keystroke_t	t	n/a
206.552	0.09	413104	keystroke_a	a	n/a
206.672	0.075	413344	keystroke_n	n	n/a
207.782	0.06	415564	keystroke_Key.enter	Key.enter	n/a
207.8485	13.1805	415697	prompt	n/a	philips accurately complex tolerance\n
208.787	0.06	417574	keystroke_p	p	n/a
209.147	0.075	418294	keystroke_h	h	n/a
209.282	0.09	418564	keystroke_i	i	n/a
209.492	0.09	418984	keystroke_l	l	n/a
209.747	0.045	419494	keystroke_l	l	n/a
209.867	0.045	419734	keystroke_l	l	n/a
210.302	0.075	420604	keystroke_Key.backspace	Key.backspace	n/a
211.517	0.06	423034	keystroke_i	i	n/a
211.682	0.075	423364	keystroke_p	p	n/a
211.802	0.135	423604	keystroke_s	s	n/a
211.922	0.105	423844	keystroke_Key.space	Key.space	n/a
212.312	0.075	424624	keystroke_a	a	n/a
212.522	0.06	425044	keystroke_c	c	n/a
212.672	0.09	425344	keystroke_c	c	n/a
212.822	0.075	425644	keystroke_u	u	n/a
212.942	0.075	425884	keystroke_r	r	n/a
213.512	0.106	427024	keystroke_a	a	n/a
213.647	0.105	427294	keystroke_t	t	n/a
213.797	0.09	427594	keystroke_e	e	n/a
214.067	0.09	428134	keystroke_k	k	n/a
214.397	0.075	428794	keystroke_y	y	n/a
214.727	0.075	429454	keystroke_Key.backspace	Key.backspace	n/a
214.877	0.09	429754	keystroke_Key.backspace	Key.backspace	n/a
215.102	0.075	430204	keystroke_l	l	n/a
215.342	0.075	430684	keystroke_y	y	n/a
215.462	0.09	430924	keystroke_Key.space	Key.space	n/a
216.692	0.075	433384	keystroke_c	c	n/a
216.752	0.075	433504	keystroke_o	o	n/a
216.887	0.106	433774	keystroke_m	m	n/a
217.082	0.105	434164	keystroke_p	p	n/a
217.172	0.075	434344	keystroke_l	l	n/a
217.307	0.06	434614	keystroke_e	e	n/a
217.772	0.105	435544	keystroke_x	x	n/a
217.982	0.09	435964	keystroke_Key.space	Key.space	n/a
218.732	0.061	437464	keystroke_t	t	n/a
218.8065	0.0755	437613	keystroke_o	o	n/a
218.972	0.105	437944	keystroke_l	l	n/a
219.093	0.075	438186	keystroke_e	e	n/a
219.437	0.075	438874	keystroke_r	r	n/a
219.8265	0.091	439653	keystroke_a	a	n/a
219.9925	0.059	439985	keystroke_n	n	n/a
220.232	0.0605	440464	keystroke_c	c	n/a
220.3215	0.091	440643	keystroke_e	e	n/a
220.9665	0.06	441933	keystroke_Key.enter	Key.enter	n/a
221.033	7.9915	442066	prompt	n/a	problems party wonder newport\n
221.8675	0.075	443735	keystroke_p	p	n/a
221.9865	0.091	443973	keystroke_r	r	n/a
222.0615	0.075	444123	keystroke_o	o	n/a
222.2865	0.09	444573	keystroke_b	b	n/a
222.4815	0.105	444963	keystroke_l	l	n/a
222.5875	0.059	445175	keystroke_e	e	n/a
222.6925	0.089	445385	keystroke_m	m	n/a
222.8265	0.166	445653	keystroke_s	s	n/a
222.9765	0.105	445953	keystroke_Key.space	Key.space	n/a
223.2465	0.06	446493	keystroke_p	p	n/a
223.3375	0.104	446675	keystroke_a	a	n/a
223.5465	0.09	447093	keystroke_r	r	n/a
223.7425	0.059	447485	keystroke_t	t	n/a
223.8615	0.075	447723	keystroke_y	y	n/a
224.2365	0.09	448473	keystroke_Key.space	Key.space	n/a
224.7625	0.089	449525	keystroke_w	w	n/a
224.8525	0.074	449705	keystroke_o	o	n/a
225.0325	0.089	450065	keystroke_n	n	n/a
225.2425	0.014	450485	keystroke_d	d	n/a
225.9025	0.075	451805	keystroke_e	e	n/a
226.0965	0.106	452193	keystroke_r	r	n/a
226.1865	0.09	452373	keystroke_Key.space	Key.space	n/a
226.3975	0.104	452795	keystroke_n	n	n/a
226.6075	0.074	453215	keystroke_e	e	n/a
227.2525	0.09	454505	keystroke_w	w	n/a
227.3575	0.09	454715	keystroke_p	p	n/a
227.5065	0.091	455013	keystroke_o	o	n/a
228.2425	0.06	456485	keystroke_r	r	n/a
228.4225	0.105	456845	keystroke_t	t	n/a
228.9025	0.119	457805	keystroke_Key.enter	Key.enter	n/a
229.029	19.1805	458058	prompt	n/a	assumption rapidly face fifteen\n
230.0725	0.105	460145	keystroke_a	a	n/a
230.2375	0.074	460475	keystroke_s	s	n/a
230.5075	0.075	461015	keystroke_s	s	n/a
230.7475	0.105	461495	keystroke_u	u	n/a
230.9575	0.105	461915	keystroke_m	m	n/a
231.1675	0.09	462335	keystroke_p	p	n/a
231.7525	0.06	463505	keystroke_t	t	n/a
231.8275	0.105	463655	keystroke_i	i	n/a
231.9775	0.075	463955	keystroke_o	o	n/a
232.1425	0.09	464285	keystroke_n	n	n/a
232.5475	0.105	465095	keystroke_Key.space	Key.space	n/a
232.9975	0.105	465995	keystroke_r	r	n/a
233.0875	0.075	466175	keystroke_a	a	n/a
233.2525	0.075	466505	keystroke_d	d	n/a
233.4625	0.075	466925	keystroke_i	i	n/a
234.3625	0.06	468725	keystroke_d	d	n/a
234.4375	0.12	468875	keystroke_l	l	n/a
234.7375	0.06	469475	keystroke_u	u	n/a
234.9775	0.12	469955	keystroke_Key.space	Key.space	n/a
235.5475	0.06	471095	keystroke_Key.backspace	Key.backspace	n/a
235.6825	0.09	471365	keystroke_Key.backspace	Key.backspace	n/a
236.2375	0.06	472475	keystroke_y	y	n/a
236.3275	0.09	472655	keystroke_Key.space	Key.space	n/a
236.5225	0.075	473045	keystroke_f	f	n/a
236.6125	0.15	473225	keystroke_a	a	n/a
236.7175	0.09	473435	keystroke_c	c	n/a
236.8975	0.09	473795	keystroke_e	e	n/a
241.3845	0.013	482769	keystroke_f	f	n/a
241.3975	0.09	482795	keystroke_i	i	n/a
242.5975	0.075	485195	keystroke_=	=	n/a
242.8075	0.015	485615	keystroke_Key.backspace	Key.backspace	n/a
243.3475	0.09	486695	keystroke_Key.backspace	Key.backspace	n/a
243.4825	0.06	486965	keystroke_Key.backspace	Key.backspace	n/a
243.5875	0.12	487175	keystroke_Key.space	Key.space	n/a
244.1275	0.075	488255	keystroke_f	f	n/a
244.3075	0.075	488615	keystroke_i	i	n/a
244.3975	0.075	488795	keystroke_f	f	n/a
244.5925	0.075	489185	keystroke_t	t	n/a
244.893	0.0745	489786	keystroke_e	e	n/a
245.0275	0.06	490055	keystroke_n	n	n/a
245.1625	0.06	490325	keystroke_e	e	n/a
245.5225	0.09	491045	keystroke_Key.backspace	Key.backspace	n/a
245.7025	0.045	491405	keystroke_e	e	n/a
245.8525	0.09	491705	keystroke_Key.backspace	Key.backspace	n/a
246.0625	0.09	492125	keystroke_Key.backspace	Key.backspace	n/a
246.1825	0.075	492365	keystroke_e	e	n/a
246.5725	0.075	493145	keystroke_n	n	n/a
248.1325	0.075	496265	keystroke_Key.enter	Key.enter	n/a
248.212	9.807	496424	prompt	n/a	legal fetish jungle screen\n
249.1975	0.075	498395	keystroke_l	l	n/a
249.2875	0.075	498575	keystroke_e	e	n/a
249.4375	0.09	498875	keystroke_g	g	n/a
249.5575	0.105	499115	keystroke_a	a	n/a
249.6775	0.09	499355	keystroke_l	l	n/a
249.7975	0.105	499595	keystroke_Key.space	Key.space	n/a
250.3825	0.075	500765	keystroke_f	f	n/a
250.4725	0.075	500945	keystroke_e	e	n/a
250.5775	0.09	501155	keystroke_t	t	n/a
250.7575	0.09	501515	keystroke_h	h	n/a
251.0725	0.105	502145	keystroke_Key.backspace	Key.backspace	n/a
251.2825	0.06	502565	keystroke_i	i	n/a
251.7925	0.105	503585	keystroke_s	s	n/a
252.0625	0.075	504125	keystroke_h	h	n/a
253.3975	0.105	506795	keystroke_Key.space	Key.space	n/a
253.8475	0.075	507695	keystroke_j	j	n/a
253.9975	0.075	507995	keystroke_u	u	n/a
254.1925	0.075	508385	keystroke_n	n	n/a
254.2075	0.045	508415	keystroke_Key.space	Key.space	n/a
254.3875	0.09	508775	keystroke_g	g	n/a
254.7175	0.09	509435	keystroke_Key.backspace	Key.backspace	n/a
254.9125	0.09	509825	keystroke_Key.backspace	Key.backspace	n/a
255.5885	0.074	511177	keystroke_g	g	n/a
255.8575	0.106	511715	keystroke_l	l	n/a
255.9775	0.105	511955	keystroke_e	e	n/a
256.0675	0.12	512135	keystroke_Key.space	Key.space	n/a
256.6825	0.09	513365	keystroke_s	s	n/a
256.8775	0.075	513755	keystroke_e	e	n/a
257.1325	0.09	514265	keystroke_c	c	n/a
257.2825	0.09	514565	keystroke_r	r	n/a
257.4025	0.06	514805	keystroke_e	e	n/a
257.5385	0.104	515077	keystroke_e	e	n/a
257.6575	0.12	515315	keystroke_n	n	n/a
257.9425	0.075	515885	keystroke_Key.enter	Key.enter	n/a
258.0225	9.7015	516045	prompt	n/a	wizard component idol image\n
259.023	0.075	518046	keystroke_w	w	n/a
259.113	0.09	518226	keystroke_i	i	n/a
259.383	0.105	518766	keystroke_z	z	n/a
259.668	0.105	519336	keystroke_a	a	n/a
259.818	0.09	519636	keystroke_r	r	n/a
259.968	0.15	519936	keystroke_d	d	n/a
260.103	0.1195	520206	keystroke_Key.space	Key.space	n/a
260.6275	0.09	521255	keystroke_c	c	n/a
260.6725	0.105	521345	keystroke_o	o	n/a
260.8225	0.105	521645	keystroke_m	m	n/a
261.0025	0.09	522005	keystroke_o	o	n/a
261.5725	0.075	523145	keystroke_Key.backspace	Key.backspace	n/a
261.7385	0.089	523477	keystroke_p	p	n/a
261.9475	0.09	523895	keystroke_o	o	n/a
262.3975	0.105	524795	keystroke_n	n	n/a
262.5175	0.075	525035	keystroke_e	e	n/a
262.8475	0.091	525695	keystroke_n	n	n/a
263.102	0.06	526204	keystroke_t	t	n/a
263.267	0.105	526534	keystroke_Key.space	Key.space	n/a
263.838	0.104	527676	keystroke_i	i	n/a
263.972	0.105	527944	keystroke_f	f	n/a
264.152	0.09	528304	keystroke_u	u	n/a
264.512	0.06	529024	keystroke_Key.backspace	Key.backspace	n/a
264.632	0.0905	529264	keystroke_Key.backspace	Key.backspace	n/a
264.7375	0.075	529475	keystroke_d	d	n/a
264.8275	0.09	529655	keystroke_i	i	n/a
265.2625	0.105	530525	keystroke_Key.backspace	Key.backspace	n/a
265.5025	0.06	531005	keystroke_o	o	n/a
265.6375	0.105	531275	keystroke_l	l	n/a
265.7575	0.105	531515	keystroke_Key.space	Key.space	n/a
266.4175	0.09	532835	keystroke_i	i	n/a
266.6275	0.12	533255	keystroke_m	m	n/a
266.7625	0.12	533525	keystroke_a	a	n/a
266.9725	0.06	533945	keystroke_g	g	n/a
267.0775	0.09	534155	keystroke_e	e	n/a
267.6625	0.06	535325	keystroke_Key.enter	Key.enter	n/a
267.7275	13.7225	535455	prompt	n/a	product screensavers ignore advisors\n
268.6075	0.09	537215	keystroke_p	p	n/a
268.7425	0.0755	537485	keystroke_r	r	n/a
268.847	0.091	537694	keystroke_o	o	n/a
269.373	0.09	538746	keystroke_d	d	n/a
269.493	0.105	538986	keystroke_u	u	n/a
269.673	0.075	539346	keystroke_t	t	n/a
269.943	0.12	539886	keystroke_c	c	n/a
270.122	0.121	540244	keystroke_Key.space	Key.space	n/a
270.963	0.075	541926	keystroke_Key.backspace	Key.backspace	n/a
271.113	0.105	542226	keystroke_Key.backspace	Key.backspace	n/a
271.233	0.075	542466	keystroke_c	c	n/a
271.863	0.105	543726	keystroke_Key.backspace	Key.backspace	n/a
272.373	0.015	544746	keystroke_Key.backspace	Key.backspace	n/a
272.9725	0.06	545945	keystroke_c	c	n/a
273.0775	0.06	546155	keystroke_t	t	n/a
273.1975	0.105	546395	keystroke_Key.space	Key.space	n/a
274.1425	0.12	548285	keystroke_s	s	n/a
274.7425	0.075	549485	keystroke_c	c	n/a
274.9225	0.06	549845	keystroke_r	r	n/a
275.0125	0.06	550025	keystroke_e	e	n/a
275.1775	0.075	550355	keystroke_e	e	n/a
275.3425	0.09	550685	keystroke_n	n	n/a
275.4925	0.09	550985	keystroke_s	s	n/a
275.7925	0.105	551585	keystroke_a	a	n/a
275.9275	0.075	551855	keystroke_v	v	n/a
276.0325	0.09	552065	keystroke_e	e	n/a
276.2125	0.075	552425	keystroke_r	r	n/a
276.5425	0.12	553085	keystroke_s	s	n/a
276.7225	0.105	553445	keystroke_Key.space	Key.space	n/a
277.5325	0.075	555065	keystroke_i	i	n/a
277.6375	0.075	555275	keystroke_g	g	n/a
277.7275	0.09	555455	keystroke_n	n	n/a
277.8775	0.09	555755	keystroke_o	o	n/a
277.9225	0.09	555845	keystroke_r	r	n/a
278.1025	0.135	556205	keystroke_e	e	n/a
278.2075	0.12	556415	keystroke_Key.space	Key.space	n/a
278.4775	0.105	556955	keystroke_a	a	n/a
278.6575	0.09	557315	keystroke_d	d	n/a
279.2125	0.06	558425	keystroke_v	v	n/a
279.2875	0.09	558575	keystroke_i	i	n/a
279.4825	0.075	558965	keystroke_r	r	n/a
279.9625	0.105	559925	keystroke_Key.backspace	Key.backspace	n/a
280.0525	0.09	560105	keystroke_s	s	n/a
280.1585	0.119	560317	keystroke_o	o	n/a
280.3225	0.075	560645	keystroke_r	r	n/a
280.5475	0.075	561095	keystroke_s	s	n/a
281.3875	0.06	562775	keystroke_Key.enter	Key.enter	n/a
281.4545	12.417	562909	prompt	n/a	implications angel kruger tampa\n
282.3635	0.045	564727	keystroke_i	i	n/a
282.4525	0.106	564905	keystroke_m	m	n/a
282.6475	0.09	565295	keystroke_p	p	n/a
282.7525	0.105	565505	keystroke_l	l	n/a
282.9775	0.075	565955	keystroke_i	i	n/a
283.0375	0.09	566075	keystroke_c	c	n/a
283.2175	0.1205	566435	keystroke_a	a	n/a
283.563	0.06	567126	keystroke_t	t	n/a
283.638	0.075	567276	keystroke_i	i	n/a
283.759	0.104	567518	keystroke_o	o	n/a
283.923	0.105	567846	keystroke_n	n	n/a
284.043	0.15	568086	keystroke_s	s	n/a
284.178	0.09	568356	keystroke_Key.space	Key.space	n/a
284.5385	0.105	569077	keystroke_a	a	n/a
284.824	0.075	569648	keystroke_n	n	n/a
285.8135	0.075	571627	keystroke_g	g	n/a
285.9035	0.075	571807	keystroke_e	e	n/a
286.0535	0.1055	572107	keystroke_l	l	n/a
286.309	0.105	572618	keystroke_Key.space	Key.space	n/a
287.4045	0.06	574809	keystroke_k	k	n/a
287.5695	0.045	575139	keystroke_r	r	n/a
287.7945	0.06	575589	keystroke_y	y	n/a
288.0045	0.075	576009	keystroke_g	g	n/a
288.0645	0.09	576129	keystroke_e	e	n/a
288.2445	0.158	576489	keystroke_r	r	n/a
288.3785	0.106	576757	keystroke_Key.space	Key.space	n/a
288.829	0.075	577658	keystroke_Key.backspace	Key.backspace	n/a
289.009	0.105	578018	keystroke_Key.backspace	Key.backspace	n/a
289.159	0.075	578318	keystroke_Key.backspace	Key.backspace	n/a
289.399	0.09	578798	keystroke_Key.backspace	Key.backspace	n/a
289.654	0.09	579308	keystroke_Key.backspace	Key.backspace	n/a
290.119	0.075	580238	keystroke_u	u	n/a
290.374	0.075	580748	keystroke_g	g	n/a
290.45	0.074	580900	keystroke_e	e	n/a
290.615	0.134	581230	keystroke_r	r	n/a
290.704	0.106	581408	keystroke_Key.space	Key.space	n/a
291.41	0.075	582820	keystroke_t	t	n/a
291.514	0.1055	583028	keystroke_a	a	n/a
291.6945	0.075	583389	keystroke_m	m	n/a
293.0295	0.015	586059	keystroke_p	p	n/a
293.0895	0.045	586179	keystroke_a	a	n/a
293.7795	0.09	587559	keystroke_Key.enter	Key.enter	n/a
293.8745	9.7515	587749	prompt	n/a	officer template lived consecutive\n
294.875	0.0455	589750	keystroke_o	o	n/a
295.07	0.0605	590140	keystroke_f	f	n/a
295.2205	0.075	590441	keystroke_f	f	n/a
295.3405	0.09	590681	keystroke_i	i	n/a
295.4605	0.09	590921	keystroke_c	c	n/a
295.6555	0.09	591311	keystroke_e	e	n/a
295.8505	0.15	591701	keystroke_r	r	n/a
295.9555	0.12	591911	keystroke_Key.space	Key.space	n/a
296.5105	0.075	593021	keystroke_t	t	n/a
296.5705	0.09	593141	keystroke_e	e	n/a
296.7805	0.075	593561	keystroke_m	m	n/a
296.9605	0.09	593921	keystroke_p	p	n/a
297.0805	0.105	594161	keystroke_l	l	n/a
297.2155	0.12	594431	keystroke_a	a	n/a
297.3655	0.105	594731	keystroke_t	t	n/a
297.4705	0.15	594941	keystroke_e	e	n/a
297.6055	0.12	595211	keystroke_Key.space	Key.space	n/a
298.281	0.075	596562	keystroke_l	l	n/a
298.476	0.075	596952	keystroke_i	i	n/a
298.656	0.09	597312	keystroke_v	v	n/a
298.716	0.09	597432	keystroke_e	e	n/a
298.926	0.105	597852	keystroke_d	d	n/a
299.001	0.09	598002	keystroke_Key.space	Key.space	n/a
299.196	0.12	598392	keystroke_a	a	n/a
299.511	0.06	599022	keystroke_Key.backspace	Key.backspace	n/a
299.616	0.09	599232	keystroke_c	c	n/a
299.706	0.105	599412	keystroke_o	o	n/a
299.931	0.105	599862	keystroke_n	n	n/a
300.021	0.09	600042	keystroke_s	s	n/a
300.216	0.09	600432	keystroke_e	e	n/a
300.471	0.105	600942	keystroke_c	c	n/a
300.591	0.075	601182	keystroke_u	u	n/a
301.011	0.09	602022	keystroke_t	t	n/a
301.116	0.09	602232	keystroke_i	i	n/a
301.356	0.09	602712	keystroke_v	v	n/a
301.461	0.06	602922	keystroke_e	e	n/a
303.6235	0.001	607247	keystroke_Key.enter	Key.enter	n/a
303.629	7.0755	607258	prompt	n/a	submit iron jaguar garmin\n
304.4165	0.09	608833	keystroke_s	s	n/a
304.5215	0.06	609043	keystroke_u	u	n/a
304.7015	0.105	609403	keystroke_b	b	n/a
305.0015	0.09	610003	keystroke_m	m	n/a
305.1965	0.09	610393	keystroke_i	i	n/a
305.2715	0.12	610543	keystroke_t	t	n/a
305.3765	0.105	610753	keystroke_Key.space	Key.space	n/a
305.9465	0.075	611893	keystroke_i	i	n/a
306.052	0.106	612104	keystroke_r	r	n/a
306.1865	0.0905	612373	keystroke_o	o	n/a
306.3665	0.1055	612733	keystroke_n	n	n/a
306.457	0.105	612914	keystroke_Key.space	Key.space	n/a
306.862	0.075	613724	keystroke_j	j	n/a
306.982	0.12	613964	keystroke_a	a	n/a
307.117	0.075	614234	keystroke_g	g	n/a
307.252	0.105	614504	keystroke_u	u	n/a
307.327	0.105	614654	keystroke_a	a	n/a
307.507	0.06	615014	keystroke_r	r	n/a
308.287	0.105	616574	keystroke_Key.space	Key.space	n/a
308.782	0.091	617564	keystroke_g	g	n/a
308.887	0.105	617774	keystroke_a	a	n/a
309.082	0.076	618164	keystroke_r	r	n/a
309.172	0.075	618344	keystroke_m	m	n/a
309.337	0.075	618674	keystroke_i	i	n/a
309.487	0.105	618974	keystroke_n	n	n/a
310.6425	0.0595	621285	keystroke_Key.enter	Key.enter	n/a
310.709	8.756	621418	prompt	n/a	estate adipex parental voip\n
311.828	0.059	623656	keystroke_e	e	n/a
311.977	0.09	623954	keystroke_s	s	n/a
312.068	0.105	624136	keystroke_t	t	n/a
312.187	0.091	624374	keystroke_a	a	n/a
312.292	0.106	624584	keystroke_t	t	n/a
312.413	0.134	624826	keystroke_e	e	n/a
312.533	0.089	625066	keystroke_Key.space	Key.space	n/a
312.833	0.075	625666	keystroke_a	a	n/a
312.997	0.091	625994	keystroke_d	d	n/a
313.132	0.091	626264	keystroke_i	i	n/a
313.3725	0.091	626745	keystroke_p	p	n/a
313.7925	0.105	627585	keystroke_e	e	n/a
314.1385	0.059	628277	keystroke_x	x	n/a
315.1425	0.105	630285	keystroke_Key.space	Key.space	n/a
315.3675	0.061	630735	keystroke_p	p	n/a
315.5035	0.12	631007	keystroke_a	a	n/a
315.7435	0.074	631487	keystroke_r	r	n/a
315.8475	0.091	631695	keystroke_e	e	n/a
316.0285	0.075	632057	keystroke_n	n	n/a
316.2535	0.06	632507	keystroke_t	t	n/a
316.3285	0.134	632657	keystroke_a	a	n/a
316.5235	0.089	633047	keystroke_l	l	n/a
316.6275	0.106	633255	keystroke_Key.space	Key.space	n/a
317.4235	0.075	634847	keystroke_v	v	n/a
317.5135	0.09	635027	keystroke_o	o	n/a
317.6925	0.0915	635385	keystroke_i	i	n/a
317.888	0.06	635776	keystroke_p	p	n/a
319.404	0.06	638808	keystroke_Key.enter	Key.enter	n/a
319.468	13.152	638936	prompt	n/a	victoria workshop closing regulations\n
321.459	0.075	642918	keystroke_v	v	n/a
321.549	0.09	643098	keystroke_i	i	n/a
321.654	0.09	643308	keystroke_c	c	n/a
321.879	0.075	643758	keystroke_t	t	n/a
321.969	0.09	643938	keystroke_o	o	n/a
322.089	0.105	644178	keystroke_r	r	n/a
322.224	0.09	644448	keystroke_i	i	n/a
322.359	0.135	644718	keystroke_a	a	n/a
322.479	0.09	644958	keystroke_Key.space	Key.space	n/a
323.649	0.105	647298	keystroke_w	w	n/a
323.739	0.075	647478	keystroke_o	o	n/a
323.889	0.075	647778	keystroke_r	r	n/a
324.144	0.075	648288	keystroke_k	k	n/a
324.924	0.075	649848	keystroke_s	s	n/a
325.479	0.075	650958	keystroke_h	h	n/a
325.644	0.075	651288	keystroke_o	o	n/a
325.839	0.075	651678	keystroke_p	p	n/a
326.079	0.09	652158	keystroke_Key.space	Key.space	n/a
326.889	0.075	653778	keystroke_c	c	n/a
326.979	0.09	653958	keystroke_l	l	n/a
327.174	0.075	654348	keystroke_o	o	n/a
327.234	0.075	654468	keystroke_s	s	n/a
327.384	0.075	654768	keystroke_i	i	n/a
327.579	0.075	655158	keystroke_n	n	n/a
328.044	0.105	656088	keystroke_g	g	n/a
328.134	0.12	656268	keystroke_Key.space	Key.space	n/a
328.584	0.075	657168	keystroke_r	r	n/a
328.689	0.09	657378	keystroke_e	e	n/a
329.229	0.06	658458	keystroke_g	g	n/a
329.289	0.075	658578	keystroke_y	y	n/a
329.874	0.075	659748	keystroke_Key.backspace	Key.backspace	n/a
330.264	0.06	660528	keystroke_u	u	n/a
330.444	0.075	660888	keystroke_l	l	n/a
330.534	0.09	661068	keystroke_a	a	n/a
331.479	0.09	662958	keystroke_t	t	n/a
331.554	0.09	663108	keystroke_i	i	n/a
331.674	0.09	663348	keystroke_o	o	n/a
331.809	0.12	663618	keystroke_n	n	n/a
331.914	0.15	663828	keystroke_s	s	n/a
332.559	0.06	665118	keystroke_Key.enter	Key.enter	n/a
332.6235	11.85	665247	prompt	n/a	angry scientists recognize backgrounds\n
333.519	0.105	667038	keystroke_a	a	n/a
333.609	0.09	667218	keystroke_n	n	n/a
333.849	0.09	667698	keystroke_g	g	n/a
333.984	0.075	667968	keystroke_r	r	n/a
334.089	0.0445	668178	keystroke_y	y	n/a
334.104	0.0295	668208	keystroke_u	u	n/a
334.2085	0.09	668417	keystroke_Key.space	Key.space	n/a
334.6435	0.075	669287	keystroke_Key.backspace	Key.backspace	n/a
334.809	0.09	669618	keystroke_Key.backspace	Key.backspace	n/a
334.914	0.105	669828	keystroke_Key.space	Key.space	n/a
335.7085	0.045	671417	keystroke_s	s	n/a
335.8885	0.09	671777	keystroke_c	c	n/a
336.0235	0.075	672047	keystroke_i	i	n/a
336.1435	0.09	672287	keystroke_e	e	n/a
336.2485	0.09	672497	keystroke_n	n	n/a
336.5335	0.09	673067	keystroke_t	t	n/a
336.7885	0.09	673577	keystroke_i	i	n/a
337.3435	0.105	674687	keystroke_s	s	n/a
337.5985	0.075	675197	keystroke_t	t	n/a
337.6885	0.135	675377	keystroke_s	s	n/a
337.7785	0.135	675557	keystroke_Key.space	Key.space	n/a
338.7985	0.075	677597	keystroke_r	r	n/a
338.8885	0.075	677777	keystroke_e	e	n/a
339.1135	0.075	678227	keystroke_c	c	n/a
339.3085	0.075	678617	keystroke_o	o	n/a
339.4435	0.06	678887	keystroke_g	g	n/a
339.5635	0.09	679127	keystroke_n	n	n/a
339.7435	0.075	679487	keystroke_i	i	n/a
339.8785	0.105	679757	keystroke_z	z	n/a
340.1335	0.105	680267	keystroke_e	e	n/a
340.2685	0.105	680537	keystroke_Key.space	Key.space	n/a
341.213	0.091	682426	keystroke_b	b	n/a
341.289	0.09	682578	keystroke_a	a	n/a
341.499	0.09	682998	keystroke_c	c	n/a
341.619	0.075	683238	keystroke_k	k	n/a
342.039	0.075	684078	keystroke_g	g	n/a
342.174	0.06	684348	keystroke_r	r	n/a
342.324	0.075	684648	keystroke_o	o	n/a
342.519	0.075	685038	keystroke_u	u	n/a
342.744	0.09	685488	keystroke_n	n	n/a
342.834	0.105	685668	keystroke_d	d	n/a
343.074	0.06	686148	keystroke_s	s	n/a
343.089	0.03	686178	keystroke_a	a	n/a
343.644	0.074	687288	keystroke_Key.backspace	Key.backspace	n/a
344.409	0.06	688818	keystroke_Key.enter	Key.enter	n/a
344.4765	6.534	688953	prompt	n/a	pale neural why's note\n
345.519	0.075	691038	keystroke_p	p	n/a
345.654	0.105	691308	keystroke_a	a	n/a
345.744	0.105	691488	keystroke_l	l	n/a
345.864	0.135	691728	keystroke_e	e	n/a
345.939	0.12	691878	keystroke_Key.space	Key.space	n/a
346.119	0.075	692238	keystroke_n	n	n/a
346.239	0.09	692478	keystroke_a	a	n/a
346.539	0.09	693078	keystroke_Key.backspace	Key.backspace	n/a
346.629	0.075	693258	keystroke_e	e	n/a
346.749	0.105	693498	keystroke_u	u	n/a
346.899	0.09	693798	keystroke_r	r	n/a
347.169	0.105	694338	keystroke_a	a	n/a
347.289	0.075	694578	keystroke_l	l	n/a
347.439	0.105	694878	keystroke_Key.space	Key.space	n/a
347.829	0.09	695658	keystroke_w	w	n/a
347.994	0.09	695988	keystroke_h	h	n/a
348.204	0.06	696408	keystroke_y	y	n/a
349.029	0.045	698058	keystroke_'	'	n/a
349.119	0.12	698238	keystroke_s	s	n/a
349.254	0.12	698508	keystroke_Key.space	Key.space	n/a
349.854	0.075	699708	keystroke_n	n	n/a
350.034	0.075	700068	keystroke_o	o	n/a
350.124	0.075	700248	keystroke_t	t	n/a
350.379	0.075	700758	keystroke_e	e	n/a
350.949	0.06	701898	keystroke_Key.enter	Key.enter	n/a
351.0135	14.0665	702027	prompt	n/a	mightn't outreach consumers organisations\n
352.134	0.09	704268	keystroke_m	m	n/a
352.329	0.075	704658	keystroke_i	i	n/a
353.769	0.075	707538	keystroke_g	g	n/a
353.889	0.075	707778	keystroke_h	h	n/a
354.039	0.075	708078	keystroke_t	t	n/a
354.309	0.075	708618	keystroke_b	b	n/a
355.119	0.075	710238	keystroke_Key.backspace	Key.backspace	n/a
355.374	0.06	710748	keystroke_n	n	n/a
355.809	0.075	711618	keystroke_'	'	n/a
355.899	0.105	711798	keystroke_t	t	n/a
355.989	0.12	711978	keystroke_Key.space	Key.space	n/a
357.099	0.09	714198	keystroke_o	o	n/a
357.369	0.075	714738	keystroke_u	u	n/a
357.5485	0.075	715097	keystroke_t	t	n/a
358.0135	0.075	716027	keystroke_r	r	n/a
358.1485	0.09	716297	keystroke_e	e	n/a
358.4485	0.09	716897	keystroke_a	a	n/a
358.6285	0.09	717257	keystroke_c	c	n/a
358.7485	0.075	717497	keystroke_h	h	n/a
358.9435	0.105	717887	keystroke_Key.space	Key.space	n/a
359.4085	0.075	718817	keystroke_c	c	n/a
359.4535	0.09	718907	keystroke_o	o	n/a
359.6185	0.105	719237	keystroke_n	n	n/a
359.7235	0.105	719447	keystroke_s	s	n/a
359.8735	0.075	719747	keystroke_u	u	n/a
360.0685	0.12	720137	keystroke_m	m	n/a
360.1735	0.075	720347	keystroke_e	e	n/a
360.3535	0.09	720707	keystroke_r	r	n/a
360.6385	0.12	721277	keystroke_s	s	n/a
360.8635	0.105	721727	keystroke_Key.space	Key.space	n/a
361.7785	0.09	723557	keystroke_o	o	n/a
361.8835	0.075	723767	keystroke_r	r	n/a
362.0785	0.09	724157	keystroke_g	g	n/a
362.1985	0.09	724397	keystroke_a	a	n/a
362.2895	0.104	724579	keystroke_n	n	n/a
362.4685	0.09	724937	keystroke_i	i	n/a
362.5735	0.09	725147	keystroke_s	s	n/a
363.7135	0.075	727427	keystroke_a	a	n/a
363.9685	0.06	727937	keystroke_t	t	n/a
364.0435	0.075	728087	keystroke_i	i	n/a
364.1935	0.09	728387	keystroke_o	o	n/a
364.3735	0.09	728747	keystroke_n	n	n/a
364.4485	0.0895	728897	keystroke_s	s	n/a
365.003	0.075	730006	keystroke_Key.enter	Key.enter	n/a
365.0835	14.6255	730167	prompt	n/a	savage louisville coaches tsunami\n
365.948	0.09	731896	keystroke_s	s	n/a
366.128	0.09	732256	keystroke_a	a	n/a
366.248	0.09	732496	keystroke_v	v	n/a
366.593	0.03	733186	keystroke_g	g	n/a
367.028	0.06	734056	keystroke_Key.backspace	Key.backspace	n/a
367.103	0.105	734206	keystroke_a	a	n/a
367.313	0.09	734626	keystroke_g	g	n/a
367.418	0.12	734836	keystroke_e	e	n/a
367.508	0.105	735016	keystroke_Key.space	Key.space	n/a
367.943	0.09	735886	keystroke_l	l	n/a
368.153	0.09	736306	keystroke_o	o	n/a
368.363	0.075	736726	keystroke_u	u	n/a
369.278	0.075	738556	keystroke_i	i	n/a
369.803	0.075	739606	keystroke_s	s	n/a
370.043	0.105	740086	keystroke_v	v	n/a
370.149	0.074	740298	keystroke_i	i	n/a
370.358	0.075	740716	keystroke_l	l	n/a
370.538	0.06	741076	keystroke_l	l	n/a
370.568	0.135	741136	keystroke_e	e	n/a
370.658	0.105	741316	keystroke_Key.space	Key.space	n/a
370.913	0.09	741826	keystroke_c	c	n/a
371.153	0.09	742306	keystroke_o	o	n/a
371.543	0.12	743086	keystroke_a	a	n/a
372.083	0.09	744166	keystroke_c	c	n/a
372.188	0.075	744376	keystroke_h	h	n/a
372.323	0.06	744646	keystroke_e	e	n/a
372.518	0.136	745036	keystroke_s	s	n/a
372.638	0.09	745276	keystroke_Key.space	Key.space	n/a
373.133	0.06	746266	keystroke_t	t	n/a
373.493	0.06	746986	keystroke_s	s	n/a
373.598	0.09	747196	keystroke_u	u	n/a
373.7775	0.105	747555	keystroke_n	n	n/a
373.8675	0.09	747735	keystroke_a	a	n/a
373.9875	0.09	747975	keystroke_m	m	n/a
374.1075	0.06	748215	keystroke_e	e	n/a
374.3925	0.075	748785	keystroke_Key.backspace	Key.backspace	n/a
375.474	0.044	750948	keystroke_i	i	n/a
379.7055	0.001	759411	keystroke_Key.enter	Key.enter	n/a
379.7125	13.417	759425	prompt	n/a	essays reported durham hypothesis\n
380.6185	0.075	761237	keystroke_e	e	n/a
380.8435	0.06	761687	keystroke_s	s	n/a
380.9935	0.12	761987	keystroke_s	s	n/a
381.0985	0.105	762197	keystroke_a	a	n/a
381.2935	0.09	762587	keystroke_y	y	n/a
381.3985	0.135	762797	keystroke_s	s	n/a
381.5185	0.09	763037	keystroke_Key.space	Key.space	n/a
381.8035	0.09	763607	keystroke_r	r	n/a
381.9385	0.105	763877	keystroke_e	e	n/a
382.2985	0.105	764597	keystroke_p	p	n/a
382.4635	0.09	764927	keystroke_o	o	n/a
382.6435	0.075	765287	keystroke_r	r	n/a
382.7635	0.09	765527	keystroke_t	t	n/a
382.8985	0.12	765797	keystroke_e	e	n/a
383.1385	0.135	766277	keystroke_d	d	n/a
384.3835	0.105	768767	keystroke_Key.space	Key.space	n/a
385.1335	0.105	770267	keystroke_d	d	n/a
385.2835	0.075	770567	keystroke_u	u	n/a
385.4035	0.09	770807	keystroke_r	r	n/a
385.5985	0.075	771197	keystroke_h	h	n/a
385.7335	0.06	771467	keystroke_s	s	n/a
385.8535	0.09	771707	keystroke_m	m	n/a
386.2135	0.075	772427	keystroke_Key.backspace	Key.backspace	n/a
386.4235	0.09	772847	keystroke_Key.backspace	Key.backspace	n/a
386.5285	0.105	773057	keystroke_a	a	n/a
386.6635	0.09	773327	keystroke_m	m	n/a
386.7985	0.15	773597	keystroke_Key.space	Key.space	n/a
388.028	0.075	776056	keystroke_h	h	n/a
388.208	0.09	776416	keystroke_y	y	n/a
388.868	0.09	777736	keystroke_p	p	n/a
389.033	0.09	778066	keystroke_o	o	n/a
389.258	0.075	778516	keystroke_t	t	n/a
389.468	0.045	778936	keystroke_g	g	n/a
389.483	0.015	778966	keystroke_h	h	n/a
389.558	0.09	779116	keystroke_e	e	n/a
390.158	0.075	780316	keystroke_Key.backspace	Key.backspace	n/a
390.323	0.09	780646	keystroke_Key.backspace	Key.backspace	n/a
390.698	0.075	781396	keystroke_Key.backspace	Key.backspace	n/a
391.058	0.06	782116	keystroke_h	h	n/a
391.148	0.075	782296	keystroke_e	e	n/a
391.358	0.075	782716	keystroke_s	s	n/a
391.478	0.06	782956	keystroke_i	i	n/a
391.553	0.06	783106	keystroke_s	s	n/a
393.068	0.06	786136	keystroke_Key.enter	Key.enter	n/a
393.1325	18.0865	786265	prompt	n/a	couldn't throat icons committed\n
394.658	0.075	789316	keystroke_c	c	n/a
394.733	0.075	789466	keystroke_o	o	n/a
394.898	0.075	789796	keystroke_u	u	n/a
395.063	0.09	790126	keystroke_l	l	n/a
395.198	0.0755	790396	keystroke_d	d	n/a
395.5125	0.061	791025	keystroke_n	n	n/a
395.7075	0.06	791415	keystroke_t	t	n/a
396.1425	0.06	792285	keystroke_'	'	n/a
396.9525	0.09	793905	keystroke_Key.backspace	Key.backspace	n/a
397.1175	0.075	794235	keystroke_Key.backspace	Key.backspace	n/a
397.598	0.059	795196	keystroke_'	'	n/a
397.9275	0.0755	795855	keystroke_y	y	n/a
398.017	0.106	796034	keystroke_Key.space	Key.space	n/a
398.257	0.075	796514	keystroke_Key.backspace	Key.backspace	n/a
398.452	0.06	796904	keystroke_Key.backspace	Key.backspace	n/a
398.5875	0.1055	797175	keystroke_y	y	n/a
398.722	0.105	797444	keystroke_Key.space	Key.space	n/a
399.143	0.089	798286	keystroke_Key.backspace	Key.backspace	n/a
399.322	0.09	798644	keystroke_Key.backspace	Key.backspace	n/a
399.442	0.106	798884	keystroke_t	t	n/a
399.517	0.106	799034	keystroke_Key.space	Key.space	n/a
400.703	0.06	801406	keystroke_t	t	n/a
400.748	0.09	801496	keystroke_h	h	n/a
400.898	0.105	801796	keystroke_o	o	n/a
401.048	0.075	802096	keystroke_r	r	n/a
401.287	0.09	802574	keystroke_a	a	n/a
401.393	0.089	802786	keystroke_t	t	n/a
402.263	0.074	804526	keystroke_Key.backspace	Key.backspace	n/a
402.413	0.09	804826	keystroke_Key.backspace	Key.backspace	n/a
402.563	0.119	805126	keystroke_Key.backspace	Key.backspace	n/a
402.833	0.104	805666	keystroke_Key.backspace	Key.backspace	n/a
403.313	0.075	806626	keystroke_r	r	n/a
403.433	0.075	806866	keystroke_o	o	n/a
403.613	0.09	807226	keystroke_a	a	n/a
403.748	0.09	807496	keystroke_t	t	n/a
403.883	0.12	807766	keystroke_Key.space	Key.space	n/a
404.663	0.075	809326	keystroke_i	i	n/a
404.813	0.09	809626	keystroke_c	c	n/a
404.948	0.075	809896	keystroke_o	o	n/a
405.578	0.09	811156	keystroke_n	n	n/a
405.698	0.15	811396	keystroke_s	s	n/a
405.863	0.075	811726	keystroke_Key.space	Key.space	n/a
406.133	0.075	812266	keystroke_c	c	n/a
406.238	0.075	812476	keystroke_o	o	n/a
406.523	0.06	813046	keystroke_m	m	n/a
406.673	0.0895	813346	keystroke_m	m	n/a
406.8525	0.075	813705	keystroke_i	i	n/a
407.3475	0.045	814695	keystroke_t	t	n/a
407.4675	0.09	814935	keystroke_t	t	n/a
407.5425	0.075	815085	keystroke_e	e	n/a
407.7075	0.075	815415	keystroke_r	r	n/a
408.0525	0.06	816105	keystroke_=	=	n/a
408.1575	0.09	816315	keystroke_d	d	n/a
408.7275	0.075	817455	keystroke_Key.backspace	Key.backspace	n/a
408.9075	0.075	817815	keystroke_Key.backspace	Key.backspace	n/a
409.1925	0.045	818385	keystroke_Key.backspace	Key.backspace	n/a
410.0475	0.075	820095	keystroke_d	d	n/a
411.1575	0.06	822315	keystroke_Key.enter	Key.enter	n/a
411.2225	10.3165	822445	prompt	n/a	recipients rolled african discuss\n
412.2825	0.075	824565	keystroke_r	r	n/a
412.4175	0.105	824835	keystroke_e	e	n/a
412.6425	0.09	825285	keystroke_c	c	n/a
412.7475	0.0745	825495	keystroke_i	i	n/a
412.972	0.075	825944	keystroke_p	p	n/a
413.137	0.09	826274	keystroke_i	i	n/a
413.242	0.076	826484	keystroke_e	e	n/a
413.332	0.105	826664	keystroke_n	n	n/a
413.572	0.075	827144	keystroke_t	t	n/a
413.677	0.135	827354	keystroke_s	s	n/a
413.782	0.12	827564	keystroke_Key.space	Key.space	n/a
414.307	0.061	828614	keystroke_r	r	n/a
414.382	0.075	828764	keystroke_o	o	n/a
414.562	0.06	829124	keystroke_l	l	n/a
414.682	0.105	829364	keystroke_l	l	n/a
414.772	0.075	829544	keystroke_e	e	n/a
414.968	0.104	829936	keystroke_d	d	n/a
415.057	0.105	830114	keystroke_Key.space	Key.space	n/a
415.282	0.09	830564	keystroke_a	a	n/a
415.552	0.06	831104	keystroke_f	f	n/a
416.018	0.075	832036	keystroke_r	r	n/a
416.137	0.09	832274	keystroke_i	i	n/a
416.452	0.045	832904	keystroke_c	c	n/a
416.557	0.12	833114	keystroke_a	a	n/a
416.768	0.104	833536	keystroke_n	n	n/a
417.352	0.09	834704	keystroke_Key.space	Key.space	n/a
417.502	0.09	835004	keystroke_d	d	n/a
417.622	0.075	835244	keystroke_i	i	n/a
417.727	0.09	835454	keystroke_s	s	n/a
417.952	0.091	835904	keystroke_c	c	n/a
418.3865	0.075	836773	keystroke_u	u	n/a
420.3225	0.059	840645	keystroke_s	s	n/a
420.4565	0.09	840913	keystroke_s	s	n/a
421.4765	0.06	842953	keystroke_Key.enter	Key.enter	n/a
421.5415	8.352	843083	prompt	n/a	pamela buildings remember jill\n
422.4065	0.061	844813	keystroke_p	p	n/a
422.4965	0.105	844993	keystroke_a	a	n/a
422.5875	0.105	845175	keystroke_m	m	n/a
422.7065	0.091	845413	keystroke_e	e	n/a
422.8125	0.075	845625	keystroke_l	l	n/a
422.9325	0.119	845865	keystroke_a	a	n/a
423.0215	0.135	846043	keystroke_Key.space	Key.space	n/a
423.4725	0.075	846945	keystroke_b	b	n/a
423.6675	0.075	847335	keystroke_u	u	n/a
424.147	0.03	848294	keystroke_i	i	n/a
424.297	0.09	848594	keystroke_l	l	n/a
424.417	0.09	848834	keystroke_d	d	n/a
424.582	0.09	849164	keystroke_i	i	n/a
424.747	0.105	849494	keystroke_n	n	n/a
424.882	0.075	849764	keystroke_g	g	n/a
425.302	0.135	850604	keystroke_s	s	n/a
425.407	0.105	850814	keystroke_Key.space	Key.space	n/a
426.202	0.075	852404	keystroke_r	r	n/a
426.367	0.105	852734	keystroke_e	e	n/a
426.457	0.105	852914	keystroke_m	m	n/a
426.577	0.105	853154	keystroke_e	e	n/a
426.967	0.075	853934	keystroke_m	m	n/a
427.192	0.075	854384	keystroke_b	b	n/a
427.237	0.09	854474	keystroke_e	e	n/a
427.387	0.15	854774	keystroke_r	r	n/a
427.492	0.105	854984	keystroke_Key.space	Key.space	n/a
428.197	0.045	856394	keystroke_j	j	n/a
428.272	0.09	856544	keystroke_i	i	n/a
428.527	0.075	857054	keystroke_l	l	n/a
428.692	0.075	857384	keystroke_l	l	n/a
429.832	0.06	859664	keystroke_Key.enter	Key.enter	n/a
429.8985	11.14	859797	prompt	n/a	values newspapers learned specified\n
430.882	0.06	861764	keystroke_v	v	n/a
430.972	0.105	861944	keystroke_a	a	n/a
431.137	0.105	862274	keystroke_l	l	n/a
431.362	0.09	862724	keystroke_u	u	n/a
431.467	0.06	862934	keystroke_e	e	n/a
431.632	0.12	863264	keystroke_s	s	n/a
431.722	0.12	863444	keystroke_Key.space	Key.space	n/a
432.3065	0.075	864613	keystroke_n	n	n/a
432.3965	0.075	864793	keystroke_e	e	n/a
432.5915	0.09	865183	keystroke_w	w	n/a
432.8015	0.075	865603	keystroke_s	s	n/a
433.0715	0.075	866143	keystroke_p	p	n/a
433.2365	0.105	866473	keystroke_a	a	n/a
433.3265	0.075	866653	keystroke_p	p	n/a
433.6115	0.075	867223	keystroke_r	r	n/a
433.7165	0.09	867433	keystroke_e	e	n/a
433.9415	0.06	867883	keystroke_s	s	n/a
434.0915	0.075	868183	keystroke_Key.backspace	Key.backspace	n/a
434.2565	0.09	868513	keystroke_Key.backspace	Key.backspace	n/a
434.5265	0.045	869053	keystroke_Key.backspace	Key.backspace	n/a
434.6315	0.075	869263	keystroke_e	e	n/a
434.7965	0.075	869593	keystroke_r	r	n/a
435.0365	0.12	870073	keystroke_s	s	n/a
435.2165	0.105	870433	keystroke_Key.space	Key.space	n/a
436.7315	0.06	873463	keystroke_l	l	n/a
436.7765	0.075	873553	keystroke_e	e	n/a
436.9565	0.105	873913	keystroke_a	a	n/a
437.1665	0.075	874333	keystroke_r	r	n/a
437.4815	0.09	874963	keystroke_n	n	n/a
437.5565	0.075	875113	keystroke_e	e	n/a
437.7365	0.12	875473	keystroke_d	d	n/a
437.8415	0.12	875683	keystroke_Key.space	Key.space	n/a
438.2615	0.045	876523	keystroke_s	s	n/a
438.5015	0.12	877003	keystroke_p	p	n/a
438.6365	0.06	877273	keystroke_e	e	n/a
438.9215	0.075	877843	keystroke_c	c	n/a
439.0415	0.075	878083	keystroke_i	i	n/a
439.7765	0.016	879553	keystroke_f	f	n/a
439.8075	0.059	879615	keystroke_i	i	n/a
439.8965	0.075	879793	keystroke_e	e	n/a
440.0625	0.074	880125	keystroke_d	d	n/a
440.9915	0.045	881983	keystroke_Key.enter	Key.enter	n/a
441.0415	8.037	882083	prompt	n/a	contests skirt blogging manuals\n
441.8925	0.074	883785	keystroke_c	c	n/a
442.1625	0.06	884325	keystroke_o	o	n/a
442.3265	0.09	884653	keystroke_n	n	n/a
442.5825	0.075	885165	keystroke_t	t	n/a
442.6725	0.074	885345	keystroke_e	e	n/a
442.8665	0.091	885733	keystroke_s	s	n/a
442.9875	0.075	885975	keystroke_t	t	n/a
443.1065	0.136	886213	keystroke_s	s	n/a
443.2265	0.12	886453	keystroke_Key.space	Key.space	n/a
444.4875	0.089	888975	keystroke_s	s	n/a
444.5915	0.09	889183	keystroke_k	k	n/a
444.7715	0.061	889543	keystroke_i	i	n/a
444.8765	0.091	889753	keystroke_r	r	n/a
445.0875	0.134	890175	keystroke_t	t	n/a
445.2065	0.12	890413	keystroke_Key.space	Key.space	n/a
445.8965	0.075	891793	keystroke_b	b	n/a
446.0925	0.089	892185	keystroke_l	l	n/a
446.3015	0.061	892603	keystroke_o	o	n/a
446.5275	0.06	893055	keystroke_g	g	n/a
446.6625	0.089	893325	keystroke_g	g	n/a
446.7825	0.09	893565	keystroke_i	i	n/a
446.992	0.09	893984	keystroke_n	n	n/a
447.112	0.105	894224	keystroke_g	g	n/a
447.202	0.12	894404	keystroke_Key.space	Key.space	n/a
447.742	0.015	895484	keystroke_m	m	n/a
447.771	0.106	895542	keystroke_a	a	n/a
447.877	0.105	895754	keystroke_n	n	n/a
448.072	0.075	896144	keystroke_u	u	n/a
448.177	0.089	896354	keystroke_a	a	n/a
448.312	0.075	896624	keystroke_l	l	n/a
448.432	0.09	896864	keystroke_s	s	n/a
448.987	0.09	897974	keystroke_Key.enter	Key.enter	n/a
449.0815	11.216	898163	prompt	n/a	vincent rouge scotia furnished\n
449.857	0.06	899714	keystroke_v	v	n/a
450.007	0.09	900014	keystroke_i	i	n/a
450.112	0.09	900224	keystroke_c	c	n/a
450.277	0.12	900554	keystroke_n	n	n/a
451.432	0.06	902864	keystroke_Key.backspace	Key.backspace	n/a
451.582	0.075	903164	keystroke_Key.backspace	Key.backspace	n/a
451.792	0.075	903584	keystroke_n	n	n/a
451.882	0.075	903764	keystroke_c	c	n/a
452.092	0.06	904184	keystroke_e	e	n/a
452.287	0.075	904574	keystroke_n	n	n/a
452.407	0.075	904814	keystroke_t	t	n/a
453.202	0.09	906404	keystroke_Key.space	Key.space	n/a
453.472	0.075	906944	keystroke_r	r	n/a
453.562	0.09	907124	keystroke_o	o	n/a
453.757	0.075	907514	keystroke_u	u	n/a
453.952	0.09	907904	keystroke_g	g	n/a
454.027	0.12	908054	keystroke_e	e	n/a
454.132	0.09	908264	keystroke_Key.space	Key.space	n/a
454.852	0.075	909704	keystroke_s	s	n/a
455.092	0.09	910184	keystroke_c	c	n/a
455.182	0.09	910364	keystroke_o	o	n/a
455.392	0.045	910784	keystroke_t	t	n/a
455.497	0.09	910994	keystroke_i	i	n/a
455.662	0.135	911324	keystroke_a	a	n/a
455.857	0.12	911714	keystroke_Key.space	Key.space	n/a
457.102	0.075	914204	keystroke_f	f	n/a
457.192	0.075	914384	keystroke_u	u	n/a
457.312	0.09	914624	keystroke_r	r	n/a
457.732	0.09	915464	keystroke_n	n	n/a
457.912	0.09	915824	keystroke_i	i	n/a
457.972	0.105	915944	keystroke_s	s	n/a
458.182	0.075	916364	keystroke_h	h	n/a
458.242	0.09	916484	keystroke_c	c	n/a
458.6915	0.06	917383	keystroke_Key.backspace	Key.backspace	n/a
458.8265	0.075	917653	keystroke_e	e	n/a
459.0965	0.09	918193	keystroke_d	d	n/a
460.2215	0.075	920443	keystroke_Key.enter	Key.enter	n/a
460.301	9.567	920602	prompt	n/a	exterior lithuania lady theory\n
461.3465	0.06	922693	keystroke_e	e	n/a
461.6915	0.09	923383	keystroke_x	x	n/a
461.8415	0.105	923683	keystroke_t	t	n/a
461.9465	0.075	923893	keystroke_e	e	n/a
462.0965	0.12	924193	keystroke_r	r	n/a
462.2765	0.06	924553	keystroke_i	i	n/a
462.4415	0.09	924883	keystroke_o	o	n/a
462.5765	0.12	925153	keystroke_r	r	n/a
462.6815	0.12	925363	keystroke_Key.space	Key.space	n/a
463.4765	0.105	926953	keystroke_l	l	n/a
464.2865	0.075	928573	keystroke_i	i	n/a
464.4365	0.06	928873	keystroke_t	t	n/a
464.5415	0.09	929083	keystroke_h	h	n/a
464.6615	0.105	929323	keystroke_u	u	n/a
464.7815	0.105	929563	keystroke_a	a	n/a
464.9015	0.105	929803	keystroke_n	n	n/a
465.8315	0.075	931663	keystroke_i	i	n/a
465.9365	0.12	931873	keystroke_a	a	n/a
466.0265	0.135	932053	keystroke_Key.space	Key.space	n/a
466.2965	0.105	932593	keystroke_l	l	n/a
466.3865	0.12	932773	keystroke_a	a	n/a
466.9115	0.075	933823	keystroke_d	d	n/a
467.3765	0.075	934753	keystroke_y	y	n/a
467.4665	0.105	934933	keystroke_Key.space	Key.space	n/a
467.6315	0.075	935263	keystroke_t	t	n/a
467.8115	0.105	935623	keystroke_h	h	n/a
467.8565	0.09	935713	keystroke_e	e	n/a
468.5165	0.09	937033	keystroke_o	o	n/a
468.6215	0.075	937243	keystroke_r	r	n/a
468.8165	0.09	937633	keystroke_y	y	n/a
469.8065	0.06	939613	keystroke_Key.enter	Key.enter	n/a
469.8705	10.6325	939741	prompt	n/a	postcards indoor jpeg oral\n
470.7515	0.075	941503	keystroke_p	p	n/a
470.8865	0.075	941773	keystroke_o	o	n/a
471.0965	0.105	942193	keystroke_s	s	n/a
471.2315	0.09	942463	keystroke_t	t	n/a
472.161	0.075	944322	keystroke_v	v	n/a
472.566	0.075	945132	keystroke_Key.backspace	Key.backspace	n/a
472.626	0.09	945252	keystroke_c	c	n/a
472.806	0.105	945612	keystroke_a	a	n/a
473.031	0.06	946062	keystroke_r	r	n/a
473.211	0.12	946422	keystroke_d	d	n/a
473.586	0.12	947172	keystroke_s	s	n/a
473.707	0.119	947414	keystroke_Key.space	Key.space	n/a
474.576	0.06	949152	keystroke_i	i	n/a
474.711	0.12	949422	keystroke_n	n	n/a
474.846	0.105	949692	keystroke_d	d	n/a
474.981	0.09	949962	keystroke_o	o	n/a
475.146	0.09	950292	keystroke_r	r	n/a
475.386	0.075	950772	keystroke_r	r	n/a
475.611	0.06	951222	keystroke_Key.backspace	Key.backspace	n/a
475.761	0.09	951522	keystroke_Key.backspace	Key.backspace	n/a
475.971	0.075	951942	keystroke_o	o	n/a
476.241	0.105	952482	keystroke_r	r	n/a
476.586	0.135	953172	keystroke_Key.space	Key.space	n/a
477.201	0.075	954402	keystroke_j	j	n/a
477.366	0.105	954732	keystroke_p	p	n/a
477.516	0.075	955032	keystroke_e	e	n/a
478.011	0.06	956022	keystroke_g	g	n/a
478.791	0.105	957582	keystroke_Key.space	Key.space	n/a
478.926	0.09	957852	keystroke_o	o	n/a
479.031	0.076	958062	keystroke_r	r	n/a
479.226	0.09	958452	keystroke_a	a	n/a
479.286	0.105	958572	keystroke_l	l	n/a
480.426	0.075	960852	keystroke_Key.enter	Key.enter	n/a
480.506	13.647	961012	prompt	n/a	deadline homeless preview keyword\n
481.596	0.105	963192	keystroke_d	d	n/a
481.776	0.09	963552	keystroke_e	e	n/a
482.016	0.12	964032	keystroke_a	a	n/a
482.2415	0.104	964483	keystroke_d	d	n/a
482.6315	0.059	965263	keystroke_l	l	n/a
482.811	0.075	965622	keystroke_i	i	n/a
482.961	0.12	965922	keystroke_n	n	n/a
483.036	0.135	966072	keystroke_e	e	n/a
483.141	0.09	966282	keystroke_Key.space	Key.space	n/a
483.666	0.09	967332	keystroke_h	h	n/a
483.831	0.105	967662	keystroke_o	o	n/a
484.041	0.105	968082	keystroke_m	m	n/a
484.191	0.105	968382	keystroke_e	e	n/a
484.416	0.09	968832	keystroke_l	l	n/a
484.581	0.075	969162	keystroke_l	l	n/a
484.926	0.075	969852	keystroke_Key.backspace	Key.backspace	n/a
485.106	0.09	970212	keystroke_e	e	n/a
485.331	0.015	970662	keystroke_s	s	n/a
485.976	0.09	971952	keystroke_s	s	n/a
486.156	0.09	972312	keystroke_Key.space	Key.space	n/a
486.516	0.075	973032	keystroke_p	p	n/a
486.636	0.075	973272	keystroke_r	r	n/a
486.801	0.09	973602	keystroke_e	e	n/a
487.131	0.09	974262	keystroke_v	v	n/a
487.311	0.09	974622	keystroke_i	i	n/a
487.386	0.075	974772	keystroke_e	e	n/a
487.596	0.06	975192	keystroke_e	e	n/a
487.941	0.09	975882	keystroke_Key.backspace	Key.backspace	n/a
488.826	0.105	977652	keystroke_w	w	n/a
488.916	0.12	977832	keystroke_Key.space	Key.space	n/a
490.626	0.06	981252	keystroke_k	k	n/a
490.716	0.09	981432	keystroke_e	e	n/a
491.016	0.075	982032	keystroke_y	y	n/a
491.601	0.105	983202	keystroke_w	w	n/a
491.736	0.09	983472	keystroke_o	o	n/a
491.886	0.105	983772	keystroke_r	r	n/a
492.096	0.075	984192	keystroke_k	k	n/a
492.471	0.06	984942	keystroke_Key.backspace	Key.backspace	n/a
492.576	0.075	985152	keystroke_d	d	n/a
494.106	0.045	988212	keystroke_Key.enter	Key.enter	n/a
494.1575	10.105	988315	prompt	n/a	legacy inquiries prison time\n
495.4865	0.0595	990973	keystroke_l	l	n/a
495.576	0.105	991152	keystroke_e	e	n/a
495.786	0.075	991572	keystroke_g	g	n/a
495.876	0.105	991752	keystroke_a	a	n/a
496.476	0.06	992952	keystroke_c	c	n/a
496.551	0.075	993102	keystroke_y	y	n/a
496.656	0.12	993312	keystroke_Key.space	Key.space	n/a
497.346	0.09	994692	keystroke_i	i	n/a
497.496	0.105	994992	keystroke_n	n	n/a
497.676	0.12	995352	keystroke_q	q	n/a
497.781	0.075	995562	keystroke_u	u	n/a
497.901	0.105	995802	keystroke_i	i	n/a
498.936	0.09	997872	keystroke_r	r	n/a
499.176	0.045	998352	keystroke_u	u	n/a
499.236	0.105	998472	keystroke_e	e	n/a
499.476	0.105	998952	keystroke_s	s	n/a
499.566	0.105	999132	keystroke_Key.space	Key.space	n/a
499.746	0.09	999492	keystroke_Key.backspace	Key.backspace	n/a
499.911	0.075	999822	keystroke_Key.backspace	Key.backspace	n/a
500.061	0.09	1000122	keystroke_Key.backspace	Key.backspace	n/a
500.271	0.09	1000542	keystroke_Key.backspace	Key.backspace	n/a
500.796	0.06	1001592	keystroke_i	i	n/a
500.826	0.09	1001652	keystroke_e	e	n/a
501.006	0.12	1002012	keystroke_s	s	n/a
501.081	0.135	1002162	keystroke_Key.space	Key.space	n/a
501.906	0.09	1003812	keystroke_p	p	n/a
502.056	0.09	1004112	keystroke_r	r	n/a
502.266	0.075	1004532	keystroke_i	i	n/a
502.956	0.09	1005912	keystroke_s	s	n/a
503.061	0.03	1006122	keystroke_o	o	n/a
503.196	0.12	1006392	keystroke_n	n	n/a
503.286	0.12	1006572	keystroke_Key.space	Key.space	n/a
503.586	0.075	1007172	keystroke_t	t	n/a
503.646	0.075	1007292	keystroke_i	i	n/a
503.826	0.105	1007652	keystroke_m	m	n/a
503.901	0.075	1007802	keystroke_e	e	n/a
504.186	0.075	1008372	keystroke_Key.enter	Key.enter	n/a
504.2655	9.177	1008531	prompt	n/a	linear jamie league eclipse\n
505.146	0.075	1010292	keystroke_l	l	n/a
505.341	0.06	1010682	keystroke_i	i	n/a
505.506	0.12	1011012	keystroke_n	n	n/a
505.611	0.06	1011222	keystroke_e	e	n/a
505.7755	0.1205	1011551	keystroke_a	a	n/a
505.971	0.135	1011942	keystroke_r	r	n/a
506.061	0.12	1012122	keystroke_Key.space	Key.space	n/a
506.6755	0.09	1013351	keystroke_j	j	n/a
506.7805	0.1205	1013561	keystroke_a	a	n/a
506.916	0.0895	1013832	keystroke_m	m	n/a
507.1105	0.03	1014221	keystroke_o	o	n/a
507.486	0.075	1014972	keystroke_Key.backspace	Key.backspace	n/a
507.7105	0.06	1015421	keystroke_i	i	n/a
507.7855	0.0455	1015571	keystroke_e	e	n/a
507.966	0.105	1015932	keystroke_Key.space	Key.space	n/a
509.1655	0.075	1018331	keystroke_l	l	n/a
509.2855	0.105	1018571	keystroke_e	e	n/a
509.7955	0.12	1019591	keystroke_a	a	n/a
509.8855	0.09	1019771	keystroke_g	g	n/a
510.1555	0.075	1020311	keystroke_u	u	n/a
510.2455	0.12	1020491	keystroke_e	e	n/a
510.3505	0.105	1020701	keystroke_Key.space	Key.space	n/a
511.0405	0.09	1022081	keystroke_e	e	n/a
511.2955	0.075	1022591	keystroke_c	c	n/a
511.9105	0.075	1023821	keystroke_l	l	n/a
512.0755	0.075	1024151	keystroke_i	i	n/a
512.2255	0.09	1024451	keystroke_p	p	n/a
512.3305	0.09	1024661	keystroke_s	s	n/a
512.4955	0.105	1024991	keystroke_e	e	n/a
513.3805	0.06	1026761	keystroke_Key.enter	Key.enter	n/a
513.4455	8.7415	1026891	prompt	n/a	sleeping volvo jake boots\n
514.2355	0.075	1028471	keystroke_s	s	n/a
514.3555	0.075	1028711	keystroke_l	l	n/a
514.4755	0.075	1028951	keystroke_e	e	n/a
514.6255	0.0905	1029251	keystroke_e	e	n/a
514.7755	0.015	1029551	keystroke_p	p	n/a
515.4505	0.075	1030901	keystroke_i	i	n/a
515.6305	0.105	1031261	keystroke_n	n	n/a
515.7505	0.12	1031501	keystroke_g	g	n/a
515.8405	0.12	1031681	keystroke_Key.space	Key.space	n/a
516.9355	0.06	1033871	keystroke_v	v	n/a
517.0105	0.09	1034021	keystroke_o	o	n/a
517.2355	0.075	1034471	keystroke_l	l	n/a
517.2955	0.075	1034591	keystroke_v	v	n/a
517.4605	0.09	1034921	keystroke_o	o	n/a
517.6405	0.105	1035281	keystroke_Key.space	Key.space	n/a
518.0905	0.12	1036181	keystroke_j	j	n/a
518.2255	0.06	1036451	keystroke_a	a	n/a
519.4855	0.075	1038971	keystroke_k	k	n/a
519.5755	0.12	1039151	keystroke_e	e	n/a
519.6505	0.135	1039301	keystroke_Key.space	Key.space	n/a
519.8605	0.105	1039721	keystroke_b	b	n/a
520.0855	0.075	1040171	keystroke_o	o	n/a
520.2505	0.09	1040501	keystroke_o	o	n/a
520.3555	0.09	1040711	keystroke_t	t	n/a
520.6705	0.09	1041341	keystroke_s	s	n/a
522.125	0.06	1044250	keystroke_Key.enter	Key.enter	n/a
522.19	12.072	1044380	prompt	n/a	stewart agree leaves expenditure\n
523.295	0.045	1046590	keystroke_s	s	n/a
523.43	0.075	1046860	keystroke_t	t	n/a
523.55	0.09	1047100	keystroke_w	w	n/a
524.225	0.075	1048450	keystroke_Key.backspace	Key.backspace	n/a
524.345	0.09	1048690	keystroke_e	e	n/a
524.93	0.075	1049860	keystroke_w	w	n/a
525.11	0.135	1050220	keystroke_a	a	n/a
525.29	0.09	1050580	keystroke_r	r	n/a
525.5	0.076	1051000	keystroke_t	t	n/a
526.445	0.135	1052890	keystroke_Key.space	Key.space	n/a
526.701	0.089	1053402	keystroke_a	a	n/a
526.776	0.0745	1053552	keystroke_g	g	n/a
527.0155	0.09	1054031	keystroke_r	r	n/a
527.2405	0.075	1054481	keystroke_e	e	n/a
527.4055	0.075	1054811	keystroke_e	e	n/a
527.8555	0.045	1055711	keystroke_Key.space	Key.space	n/a
528.2755	0.075	1056551	keystroke_l	l	n/a
528.3205	0.09	1056641	keystroke_e	e	n/a
528.5455	0.12	1057091	keystroke_a	a	n/a
528.6805	0.09	1057361	keystroke_v	v	n/a
528.8305	0.075	1057661	keystroke_e	e	n/a
529.0405	0.12	1058081	keystroke_s	s	n/a
529.1455	0.105	1058291	keystroke_Key.space	Key.space	n/a
529.4005	0.09	1058801	keystroke_e	e	n/a
530.6155	0.075	1061231	keystroke_x	x	n/a
530.8105	0.075	1061621	keystroke_p	p	n/a
530.9605	0.075	1061921	keystroke_e	e	n/a
531.0955	0.105	1062191	keystroke_n	n	n/a
531.8755	0.09	1063751	keystroke_d	d	n/a
531.9955	0.075	1063991	keystroke_i	i	n/a
532.2355	0.09	1064471	keystroke_t	t	n/a
532.4005	0.09	1064801	keystroke_u	u	n/a
532.8355	0.045	1065671	keystroke_r	r	n/a
533.0005	0.09	1066001	keystroke_e	e	n/a
534.2005	0.06	1068401	keystroke_Key.enter	Key.enter	n/a
534.267	9.8965	1068534	prompt	n/a	helicopter sponsor longer awful\n
535.1755	0.06	1070351	keystroke_h	h	n/a
535.2505	0.075	1070501	keystroke_e	e	n/a
535.3855	0.105	1070771	keystroke_l	l	n/a
535.6105	0.075	1071221	keystroke_i	i	n/a
535.9255	0.075	1071851	keystroke_c	c	n/a
536.0455	0.06	1072091	keystroke_o	o	n/a
536.1955	0.075	1072391	keystroke_p	p	n/a
536.4505	0.105	1072901	keystroke_t	t	n/a
536.5405	0.075	1073081	keystroke_e	e	n/a
536.7205	0.105	1073441	keystroke_r	r	n/a
536.7805	0.105	1073561	keystroke_Key.space	Key.space	n/a
537.2455	0.09	1074491	keystroke_s	s	n/a
537.6505	0.075	1075301	keystroke_p	p	n/a
537.7705	0.12	1075541	keystroke_o	o	n/a
537.9055	0.105	1075811	keystroke_s	s	n/a
538.2505	0.075	1076501	keystroke_Key.backspace	Key.backspace	n/a
538.4605	0.105	1076921	keystroke_n	n	n/a
538.5505	0.09	1077101	keystroke_s	s	n/a
538.6855	0.09	1077371	keystroke_o	o	n/a
538.8655	0.12	1077731	keystroke_r	r	n/a
539.4505	0.09	1078901	keystroke_Key.space	Key.space	n/a
539.5555	0.09	1079111	keystroke_l	l	n/a
539.7505	0.06	1079501	keystroke_o	o	n/a
539.9005	0.09	1079801	keystroke_n	n	n/a
540.3955	0.075	1080791	keystroke_g	g	n/a
540.4555	0.09	1080911	keystroke_e	e	n/a
540.7105	0.045	1081421	keystroke_r	r	n/a
540.7255	0.09	1081451	keystroke_Key.space	Key.space	n/a
541.4605	0.09	1082921	keystroke_a	a	n/a
541.7005	0.075	1083401	keystroke_w	w	n/a
542.1505	0.075	1084301	keystroke_f	f	n/a
542.2405	0.09	1084481	keystroke_u	u	n/a
542.4355	0.075	1084871	keystroke_k	k	n/a
543.2755	0.075	1086551	keystroke_Key.backspace	Key.backspace	n/a
543.9205	0.075	1087841	keystroke_l	l	n/a
544.0705	0.091	1088141	keystroke_Key.enter	Key.enter	n/a
544.166	9.146	1088332	prompt	n/a	minimize drama rise catalogue\n
545.0155	0.09	1090031	keystroke_m	m	n/a
545.1955	0.075	1090391	keystroke_i	i	n/a
545.3305	0.1045	1090661	keystroke_n	n	n/a
545.48	0.075	1090960	keystroke_i	i	n/a
545.615	0.12	1091230	keystroke_m	m	n/a
545.75	0.075	1091500	keystroke_e	e	n/a
546.021	0.119	1092042	keystroke_z	z	n/a
546.38	0.075	1092760	keystroke_Key.backspace	Key.backspace	n/a
546.545	0.06	1093090	keystroke_Key.backspace	Key.backspace	n/a
546.621	0.074	1093242	keystroke_z	z	n/a
547.37	0.09	1094740	keystroke_Key.backspace	Key.backspace	n/a
548.135	0.06	1096270	keystroke_i	i	n/a
548.27	0.105	1096540	keystroke_z	z	n/a
548.496	0.164	1096992	keystroke_e	e	n/a
548.615	0.105	1097230	keystroke_Key.space	Key.space	n/a
549.275	0.06	1098550	keystroke_d	d	n/a
549.44	0.075	1098880	keystroke_r	r	n/a
549.621	0.104	1099242	keystroke_a	a	n/a
549.74	0.09	1099480	keystroke_m	m	n/a
549.846	0.089	1099692	keystroke_a	a	n/a
549.92	0.12	1099840	keystroke_Key.space	Key.space	n/a
550.205	0.091	1100410	keystroke_r	r	n/a
550.325	0.075	1100650	keystroke_i	i	n/a
550.46	0.09	1100920	keystroke_s	s	n/a
550.655	0.135	1101310	keystroke_e	e	n/a
550.73	0.105	1101460	keystroke_Key.space	Key.space	n/a
551.06	0.09	1102120	keystroke_c	c	n/a
551.225	0.105	1102450	keystroke_a	a	n/a
551.435	0.061	1102870	keystroke_t	t	n/a
551.525	0.105	1103050	keystroke_a	a	n/a
551.871	0.075	1103742	keystroke_l	l	n/a
552.05	0.046	1104100	keystroke_o	o	n/a
552.26	0.075	1104520	keystroke_g	g	n/a
552.41	0.09	1104820	keystroke_u	u	n/a
552.485	0.105	1104970	keystroke_e	e	n/a
553.296	0.014	1106592	keystroke_Key.enter	Key.enter	n/a
553.3145	18.898	1106629	prompt	n/a	comfort camel swedish compatibility\n
554.255	0.091	1108510	keystroke_c	c	n/a
554.33	0.075	1108660	keystroke_o	o	n/a
554.48	0.105	1108960	keystroke_m	m	n/a
554.615	0.076	1109230	keystroke_f	f	n/a
554.765	0.09	1109530	keystroke_o	o	n/a
554.885	0.075	1109770	keystroke_r	r	n/a
555.065	0.075	1110130	keystroke_t	t	n/a
556.04	0.09	1112080	keystroke_Key.space	Key.space	n/a
556.311	0.06	1112622	keystroke_c	c	n/a
556.401	0.105	1112802	keystroke_a	a	n/a
556.671	0.09	1113342	keystroke_m	m	n/a
556.8055	0.0295	1113611	keystroke_e	e	n/a
556.88	0.091	1113760	keystroke_l	l	n/a
557.075	0.075	1114150	keystroke_Key.space	Key.space	n/a
557.6755	0.09	1115351	keystroke_s	s	n/a
557.9155	0.075	1115831	keystroke_w	w	n/a
558.0805	0.09	1116161	keystroke_e	e	n/a
559.0255	0.075	1118051	keystroke_d	d	n/a
559.1605	0.075	1118321	keystroke_i	i	n/a
559.3555	0.09	1118711	keystroke_s	s	n/a
559.4905	0.075	1118981	keystroke_h	h	n/a
562.0275	0.028	1124055	keystroke_Key.space	Key.space	n/a
562.3255	0.075	1124651	keystroke_c	c	n/a
562.4155	0.075	1124831	keystroke_o	o	n/a
562.5355	0.105	1125071	keystroke_m	m	n/a
562.7005	0.09	1125401	keystroke_p	p	n/a
562.8205	0.105	1125641	keystroke_a	a	n/a
563.0155	0.09	1126031	keystroke_l	l	n/a
563.4355	0.075	1126871	keystroke_Key.backspace	Key.backspace	n/a
563.7505	0.105	1127501	keystroke_b	b	n/a
563.9005	0.09	1127801	keystroke_i	i	n/a
564.1405	0.105	1128281	keystroke_l	l	n/a
564.3655	0.09	1128731	keystroke_i	i	n/a
564.5005	0.075	1129001	keystroke_t	t	n/a
566.0155	0.075	1132031	keystroke_y	y	n/a
568.8525	0.028	1137705	keystroke_Key.backspace	Key.backspace	n/a
568.9405	0.075	1137881	keystroke_Key.backspace	Key.backspace	n/a
569.0905	0.09	1138181	keystroke_Key.backspace	Key.backspace	n/a
569.3155	0.09	1138631	keystroke_Key.backspace	Key.backspace	n/a
569.5255	0.075	1139051	keystroke_Key.backspace	Key.backspace	n/a
569.8105	0.075	1139621	keystroke_Key.backspace	Key.backspace	n/a
570.3355	0.06	1140671	keystroke_t	t	n/a
570.4105	0.09	1140821	keystroke_i	i	n/a
570.6955	0.06	1141391	keystroke_b	b	n/a
570.8305	0.09	1141661	keystroke_i	i	n/a
571.0405	0.09	1142081	keystroke_l	l	n/a
571.2655	0.06	1142531	keystroke_i	i	n/a
571.4005	0.075	1142801	keystroke_t	t	n/a
571.5205	0.075	1143041	keystroke_y	y	n/a
572.1505	0.06	1144301	keystroke_Key.enter	Key.enter	n/a
572.215	6.0865	1144430	prompt	n/a	jose speed watches standard\n
573.02	0.075	1146040	keystroke_j	j	n/a
573.17	0.06	1146340	keystroke_o	o	n/a
573.245	0.075	1146490	keystroke_s	s	n/a
573.41	0.135	1146820	keystroke_e	e	n/a
573.485	0.12	1146970	keystroke_Key.space	Key.space	n/a
573.74	0.105	1147480	keystroke_s	s	n/a
573.905	0.09	1147810	keystroke_p	p	n/a
574.025	0.075	1148050	keystroke_e	e	n/a
574.175	0.09	1148350	keystroke_e	e	n/a
574.355	0.15	1148710	keystroke_d	d	n/a
574.445	0.12	1148890	keystroke_Key.space	Key.space	n/a
575.15	0.075	1150300	keystroke_w	w	n/a
575.345	0.105	1150690	keystroke_a	a	n/a
575.495	0.075	1150990	keystroke_t	t	n/a
575.63	0.09	1151260	keystroke_c	c	n/a
575.78	0.06	1151560	keystroke_h	h	n/a
575.87	0.09	1151740	keystroke_e	e	n/a
576.065	0.15	1152130	keystroke_s	s	n/a
576.185	0.105	1152370	keystroke_Key.space	Key.space	n/a
576.545	0.09	1153090	keystroke_s	s	n/a
576.815	0.09	1153630	keystroke_t	t	n/a
576.92	0.09	1153840	keystroke_a	a	n/a
577.085	0.075	1154170	keystroke_n	n	n/a
577.205	0.09	1154410	keystroke_d	d	n/a
577.34	0.135	1154680	keystroke_a	a	n/a
577.49	0.06	1154980	keystroke_r	r	n/a
578.225	0.075	1156450	keystroke_Key.enter	Key.enter	n/a
578.3045	8.1575	1156609	prompt	n/a	maintains smilies concord turn\n
579.08	0.075	1158160	keystroke_m	m	n/a
579.2	0.09	1158400	keystroke_a	a	n/a
579.275	0.06	1158550	keystroke_i	i	n/a
579.41	0.105	1158820	keystroke_n	n	n/a
579.65	0.075	1159300	keystroke_t	t	n/a
579.74	0.105	1159480	keystroke_a	a	n/a
579.89	0.075	1159780	keystroke_i	i	n/a
580.04	0.09	1160080	keystroke_n	n	n/a
580.145	0.165	1160290	keystroke_s	s	n/a
580.295	0.105	1160590	keystroke_Key.space	Key.space	n/a
580.76	0.075	1161520	keystroke_s	s	n/a
580.955	0.075	1161910	keystroke_m	m	n/a
581.105	0.06	1162210	keystroke_i	i	n/a
581.315	0.075	1162630	keystroke_l	l	n/a
581.405	0.075	1162810	keystroke_e	e	n/a
581.585	0.12	1163170	keystroke_s	s	n/a
581.66	0.105	1163320	keystroke_Key.space	Key.space	n/a
581.885	0.075	1163770	keystroke_c	c	n/a
581.96	0.075	1163920	keystroke_o	o	n/a
582.125	0.105	1164250	keystroke_n	n	n/a
582.485	0.075	1164970	keystroke_c	c	n/a
582.575	0.09	1165150	keystroke_o	o	n/a
582.71	0.09	1165420	keystroke_r	r	n/a
583.085	0.03	1166170	keystroke_d	d	n/a
583.16	0.09	1166320	keystroke_Key.space	Key.space	n/a
583.985	0.075	1167970	keystroke_u	u	n/a
584	0.075	1168000	keystroke_t	t	n/a
584.735	0.06	1169470	keystroke_Key.backspace	Key.backspace	n/a
584.915	0.09	1169830	keystroke_Key.backspace	Key.backspace	n/a
585.035	0.09	1170070	keystroke_t	t	n/a
585.17	0.075	1170340	keystroke_u	u	n/a
585.26	0.075	1170520	keystroke_r	r	n/a
585.44	0.075	1170880	keystroke_n	n	n/a
586.4	0.06	1172800	keystroke_Key.enter	Key.enter	n/a
586.465	9.658	1172930	prompt	n/a	brakes oriental minus mechanism\n
587.285	0.075	1174570	keystroke_b	b	n/a
587.495	0.0905	1174990	keystroke_r	r	n/a
587.63	0.105	1175260	keystroke_a	a	n/a
587.81	0.06	1175620	keystroke_k	k	n/a
587.9	0.091	1175800	keystroke_e	e	n/a
588.0955	0.105	1176191	keystroke_s	s	n/a
588.1555	0.135	1176311	keystroke_Key.space	Key.space	n/a
588.4705	0.09	1176941	keystroke_o	o	n/a
588.6355	0.1055	1177271	keystroke_t	t	n/a
588.756	0.075	1177512	keystroke_i	i	n/a
588.876	0.09	1177752	keystroke_e	e	n/a
588.996	0.09	1177992	keystroke_n	n	n/a
589.296	0.075	1178592	keystroke_Key.backspace	Key.backspace	n/a
589.506	0.09	1179012	keystroke_Key.backspace	Key.backspace	n/a
589.716	0.09	1179432	keystroke_Key.backspace	Key.backspace	n/a
590.061	0.03	1180122	keystroke_Key.backspace	Key.backspace	n/a
590.361	0.075	1180722	keystroke_r	r	n/a
590.481	0.075	1180962	keystroke_i	i	n/a
590.571	0.09	1181142	keystroke_e	e	n/a
590.661	0.105	1181322	keystroke_n	n	n/a
590.916	0.075	1181832	keystroke_t	t	n/a
591.006	0.105	1182012	keystroke_a	a	n/a
591.231	0.09	1182462	keystroke_l	l	n/a
591.366	0.09	1182732	keystroke_Key.space	Key.space	n/a
591.816	0.09	1183632	keystroke_m	m	n/a
592.101	0.045	1184202	keystroke_u	u	n/a
592.461	0.075	1184922	keystroke_Key.backspace	Key.backspace	n/a
592.641	0.075	1185282	keystroke_i	i	n/a
592.851	0.075	1185702	keystroke_n	n	n/a
593.031	0.075	1186062	keystroke_u	u	n/a
593.121	0.12	1186242	keystroke_s	s	n/a
593.211	0.12	1186422	keystroke_Key.space	Key.space	n/a
593.451	0.075	1186902	keystroke_m	m	n/a
593.541	0.075	1187082	keystroke_e	e	n/a
593.766	0.09	1187532	keystroke_c	c	n/a
593.871	0.075	1187742	keystroke_h	h	n/a
593.991	0.09	1187982	keystroke_a	a	n/a
594.126	0.09	1188252	keystroke_n	n	n/a
594.291	0.09	1188582	keystroke_i	i	n/a
594.396	0.075	1188792	keystroke_s	s	n/a
594.516	0.09	1189032	keystroke_m	m	n/a
596.0615	0.06	1192123	keystroke_Key.enter	Key.enter	n/a
596.126	8.7875	1192252	prompt	n/a	miami jonathan surgeon omega\n
597.321	0.075	1194642	keystroke_m	m	n/a
597.471	0.09	1194942	keystroke_i	i	n/a
597.576	0.091	1195152	keystroke_a	a	n/a
597.667	0.104	1195334	keystroke_m	m	n/a
597.831	0.076	1195662	keystroke_i	i	n/a
597.891	0.105	1195782	keystroke_Key.space	Key.space	n/a
598.192	0.03	1196384	keystroke_h	h	n/a
598.371	0.075	1196742	keystroke_i	i	n/a
598.701	0.09	1197402	keystroke_Key.backspace	Key.backspace	n/a
598.941	0.06	1197882	keystroke_Key.backspace	Key.backspace	n/a
599.212	0.089	1198424	keystroke_j	j	n/a
599.391	0.09	1198782	keystroke_o	o	n/a
599.646	0.091	1199292	keystroke_n	n	n/a
599.781	0.136	1199562	keystroke_a	a	n/a
600.142	0.075	1200284	keystroke_t	t	n/a
600.337	0.075	1200674	keystroke_h	h	n/a
600.427	0.119	1200854	keystroke_a	a	n/a
600.606	0.075	1201212	keystroke_n	n	n/a
600.742	0.104	1201484	keystroke_Key.space	Key.space	n/a
601.012	0.089	1202024	keystroke_s	s	n/a
601.162	0.075	1202324	keystroke_u	u	n/a
601.356	0.075	1202712	keystroke_r	r	n/a
601.7925	0.029	1203585	keystroke_g	g	n/a
602.5425	0.075	1205085	keystroke_e	e	n/a
602.6475	0.09	1205295	keystroke_o	o	n/a
602.9475	0.074	1205895	keystroke_n	n	n/a
603.1265	0.091	1206253	keystroke_Key.space	Key.space	n/a
603.3075	0.075	1206615	keystroke_o	o	n/a
603.4575	0.105	1206915	keystroke_m	m	n/a
603.5475	0.09	1207095	keystroke_e	e	n/a
603.8775	0.09	1207755	keystroke_g	g	n/a
603.9975	0.09	1207995	keystroke_a	a	n/a
604.8825	0.03	1209765	keystroke_Key.enter	Key.enter	n/a
604.917	9.822	1209834	prompt	n/a	economies delight ambassador samuel\n
605.7975	0.075	1211595	keystroke_e	e	n/a
606.2175	0.075	1212435	keystroke_c	c	n/a
606.3075	0.075	1212615	keystroke_o	o	n/a
606.4875	0.09	1212975	keystroke_n	n	n/a
606.6525	0.06	1213305	keystroke_o	o	n/a
606.8175	0.09	1213635	keystroke_m	m	n/a
606.9825	0.075	1213965	keystroke_i	i	n/a
607.0575	0.075	1214115	keystroke_e	e	n/a
607.2525	0.12	1214505	keystroke_s	s	n/a
607.3615	0.1005	1214723	keystroke_Key.space	Key.space	n/a
608.017	0.075	1216034	keystroke_d	d	n/a
608.197	0.075	1216394	keystroke_e	e	n/a
608.257	0.09	1216514	keystroke_l	l	n/a
608.467	0.075	1216934	keystroke_i	i	n/a
608.707	0.045	1217414	keystroke_g	g	n/a
608.797	0.075	1217594	keystroke_h	h	n/a
608.902	0.105	1217804	keystroke_t	t	n/a
609.7565	0.09	1219513	keystroke_Key.space	Key.space	n/a
609.9515	0.09	1219903	keystroke_a	a	n/a
610.0565	0.06	1220113	keystroke_m	m	n/a
610.3265	0.075	1220653	keystroke_b	b	n/a
610.9265	0.105	1221853	keystroke_a	a	n/a
611.0615	0.12	1222123	keystroke_s	s	n/a
611.3465	0.091	1222693	keystroke_s	s	n/a
611.5565	0.12	1223113	keystroke_a	a	n/a
612.1265	0.09	1224253	keystroke_d	d	n/a
612.2625	0.075	1224525	keystroke_o	o	n/a
612.3515	0.09	1224703	keystroke_r	r	n/a
613.1165	0.09	1226233	keystroke_Key.space	Key.space	n/a
613.3865	0.12	1226773	keystroke_s	s	n/a
613.5215	0.12	1227043	keystroke_a	a	n/a
613.5815	0.106	1227163	keystroke_m	m	n/a
613.8065	0.09	1227613	keystroke_u	u	n/a
613.8815	0.075	1227763	keystroke_e	e	n/a
614.0315	0.09	1228063	keystroke_l	l	n/a
614.6765	0.06	1229353	keystroke_Key.enter	Key.enter	n/a
614.742	9.447	1229484	prompt	n/a	trials ethics structures true\n
615.6815	0.075	1231363	keystroke_t	t	n/a
615.7875	0.075	1231575	keystroke_r	r	n/a
615.9365	0.076	1231873	keystroke_i	i	n/a
616.0715	0.105	1232143	keystroke_a	a	n/a
616.2065	0.075	1232413	keystroke_l	l	n/a
616.3415	0.15	1232683	keystroke_s	s	n/a
616.4765	0.105	1232953	keystroke_Key.space	Key.space	n/a
616.8065	0.0605	1233613	keystroke_e	e	n/a
617.0765	0.045	1234153	keystroke_t	t	n/a
617.288	0.074	1234576	keystroke_c	c	n/a
617.438	0.089	1234876	keystroke_h	h	n/a
617.857	0.075	1235714	keystroke_Key.backspace	Key.backspace	n/a
618.007	0.06	1236014	keystroke_Key.backspace	Key.backspace	n/a
618.233	0.059	1236466	keystroke_h	h	n/a
618.397	0.075	1236794	keystroke_i	i	n/a
618.488	0.075	1236976	keystroke_c	c	n/a
618.728	0.089	1237456	keystroke_s	s	n/a
619.538	0.119	1239076	keystroke_Key.space	Key.space	n/a
619.778	0.089	1239556	keystroke_s	s	n/a
620.092	0.061	1240184	keystroke_t	t	n/a
620.258	0.059	1240516	keystroke_r	r	n/a
620.572	0.061	1241144	keystroke_u	u	n/a
620.798	0.074	1241596	keystroke_c	c	n/a
621.263	0.06	1242526	keystroke_t	t	n/a
621.442	0.076	1242884	keystroke_u	u	n/a
621.698	0.06	1243396	keystroke_r	r	n/a
621.773	0.074	1243546	keystroke_e	e	n/a
621.968	0.12	1243936	keystroke_s	s	n/a
622.102	0.076	1244204	keystroke_Key.space	Key.space	n/a
622.597	0.061	1245194	keystroke_t	t	n/a
622.748	0.075	1245496	keystroke_r	r	n/a
622.838	0.06	1245676	keystroke_y	y	n/a
623.1375	0.09	1246275	keystroke_Key.backspace	Key.backspace	n/a
623.3775	0.075	1246755	keystroke_u	u	n/a
623.4525	0.06	1246905	keystroke_e	e	n/a
624.128	0.06	1248256	keystroke_Key.enter	Key.enter	n/a
624.1925	10.5415	1248385	prompt	n/a	afternoon holocaust award hydrogen\n
625.043	0.105	1250086	keystroke_a	a	n/a
625.253	0.075	1250506	keystroke_f	f	n/a
625.403	0.0895	1250806	keystroke_t	t	n/a
625.5065	0.061	1251013	keystroke_e	e	n/a
625.672	0.0755	1251344	keystroke_r	r	n/a
625.792	0.09	1251584	keystroke_n	n	n/a
625.987	0.06	1251974	keystroke_o	o	n/a
626.122	0.09	1252244	keystroke_o	o	n/a
626.287	0.12	1252574	keystroke_n	n	n/a
626.392	0.105	1252784	keystroke_Key.space	Key.space	n/a
626.737	0.075	1253474	keystroke_h	h	n/a
626.902	0.09	1253804	keystroke_o	o	n/a
627.112	0.075	1254224	keystroke_l	l	n/a
627.292	0.075	1254584	keystroke_o	o	n/a
627.397	0.075	1254794	keystroke_c	c	n/a
627.517	0.075	1255034	keystroke_o	o	n/a
628.132	0.15	1256264	keystroke_Key.backspace	Key.backspace	n/a
628.297	0.015	1256594	keystroke_a	a	n/a
628.642	0.0755	1257284	keystroke_u	u	n/a
628.732	0.075	1257464	keystroke_s	s	n/a
628.852	0.09	1257704	keystroke_t	t	n/a
628.987	0.105	1257974	keystroke_Key.space	Key.space	n/a
630.007	0.09	1260014	keystroke_a	a	n/a
630.217	0.09	1260434	keystroke_w	w	n/a
630.337	0.09	1260674	keystroke_a	a	n/a
630.577	0.075	1261154	keystroke_r	r	n/a
630.712	0.105	1261424	keystroke_d	d	n/a
630.907	0.105	1261814	keystroke_Key.space	Key.space	n/a
631.702	0.06	1263404	keystroke_h	h	n/a
632.167	0.075	1264334	keystroke_y	y	n/a
632.527	0.075	1265054	keystroke_d	d	n/a
632.708	0.074	1265416	keystroke_r	r	n/a
632.887	0.09	1265774	keystroke_o	o	n/a
633.262	0.09	1266524	keystroke_g	g	n/a
633.367	0.075	1266734	keystroke_e	e	n/a
633.472	0.12	1266944	keystroke_n	n	n/a
634.672	0.06	1269344	keystroke_Key.enter	Key.enter	n/a
634.739	9.865	1269478	prompt	n/a	muscles temperatures graphics zero\n
635.587	0.09	1271174	keystroke_m	m	n/a
635.783	0.075	1271566	keystroke_u	u	n/a
635.872	0.075	1271744	keystroke_s	s	n/a
636.067	0.09	1272134	keystroke_c	c	n/a
636.202	0.09	1272404	keystroke_l	l	n/a
636.308	0.075	1272616	keystroke_e	e	n/a
636.502	0.165	1273004	keystroke_s	s	n/a
636.652	0.09	1273304	keystroke_Key.space	Key.space	n/a
637.297	0.075	1274594	keystroke_t	t	n/a
637.417	0.045	1274834	keystroke_e	e	n/a
637.567	0.09	1275134	keystroke_m	m	n/a
637.747	0.09	1275494	keystroke_p	p	n/a
637.867	0.075	1275734	keystroke_e	e	n/a
638.107	0.076	1276214	keystroke_r	r	n/a
638.242	0.105	1276484	keystroke_a	a	n/a
638.377	0.075	1276754	keystroke_t	t	n/a
638.633	0.044	1277266	keystroke_u	u	n/a
638.887	0.06	1277774	keystroke_r	r	n/a
639.367	0.075	1278734	keystroke_e	e	n/a
639.562	0.121	1279124	keystroke_s	s	n/a
639.667	0.1045	1279334	keystroke_Key.space	Key.space	n/a
640.8665	0.075	1281733	keystroke_g	g	n/a
641.0325	0.089	1282065	keystroke_r	r	n/a
641.1825	0.104	1282365	keystroke_a	a	n/a
641.3615	0.09	1282723	keystroke_p	p	n/a
641.6325	0.075	1283265	keystroke_h	h	n/a
641.8115	0.075	1283623	keystroke_i	i	n/a
641.9625	0.09	1283925	keystroke_c	c	n/a
642.1715	0.15	1284343	keystroke_s	s	n/a
642.2915	0.12	1284583	keystroke_Key.space	Key.space	n/a
643.0125	0.09	1286025	keystroke_z	z	n/a
643.2825	0.075	1286565	keystroke_e	e	n/a
643.4615	0.076	1286923	keystroke_r	r	n/a
643.5675	0.09	1287135	keystroke_o	o	n/a
644.5265	0.075	1289053	keystroke_Key.enter	Key.enter	n/a
644.6065	15.432	1289213	prompt	n/a	reputation royalty lounge parliament\n
645.6225	0.075	1291245	keystroke_r	r	n/a
645.7115	0.046	1291423	keystroke_e	e	n/a
645.9375	0.074	1291875	keystroke_p	p	n/a
646.1475	0.075	1292295	keystroke_u	u	n/a
646.3575	0.09	1292715	keystroke_t	t	n/a
646.4775	0.089	1292955	keystroke_a	a	n/a
646.7625	0.06	1293525	keystroke_t	t	n/a
646.8375	0.074	1293675	keystroke_i	i	n/a
646.9725	0.105	1293945	keystroke_o	o	n/a
647.1525	0.105	1294305	keystroke_n	n	n/a
647.2865	0.105	1294573	keystroke_Key.space	Key.space	n/a
647.9175	0.045	1295835	keystroke_r	r	n/a
648.0225	0.06	1296045	keystroke_o	o	n/a
648.2325	0.075	1296465	keystroke_y	y	n/a
648.3375	0.09	1296675	keystroke_a	a	n/a
648.4425	0.075	1296885	keystroke_t	t	n/a
648.7125	0.045	1297425	keystroke_l	l	n/a
648.9225	0.06	1297845	keystroke_t	t	n/a
649.0875	0.045	1298175	keystroke_y	y	n/a
650.407	0.075	1300814	keystroke_Key.backspace	Key.backspace	n/a
651.4565	0.105	1302913	keystroke_Key.backspace	Key.backspace	n/a
651.6665	0.09	1303333	keystroke_Key.backspace	Key.backspace	n/a
652.192	0.075	1304384	keystroke_Key.backspace	Key.backspace	n/a
652.8065	0.075	1305613	keystroke_l	l	n/a
652.9265	0.075	1305853	keystroke_t	t	n/a
653.0465	0.075	1306093	keystroke_y	y	n/a
653.9165	0.105	1307833	keystroke_Key.space	Key.space	n/a
654.0515	0.09	1308103	keystroke_l	l	n/a
654.2465	0.06	1308493	keystroke_o	o	n/a
654.5915	0.06	1309183	keystroke_u	u	n/a
654.8015	0.06	1309603	keystroke_n	n	n/a
654.9965	0.075	1309993	keystroke_g	g	n/a
655.0865	0.105	1310173	keystroke_e	e	n/a
655.1615	0.135	1310323	keystroke_Key.space	Key.space	n/a
655.6415	0.09	1311283	keystroke_p	p	n/a
655.7465	0.105	1311493	keystroke_a	a	n/a
656.0165	0.091	1312033	keystroke_r	r	n/a
656.2115	0.075	1312423	keystroke_l	l	n/a
656.3765	0.075	1312753	keystroke_a	a	n/a
656.4825	0.089	1312965	keystroke_m	m	n/a
657.0215	0.06	1314043	keystroke_i	i	n/a
657.4115	0.06	1314823	keystroke_Key.backspace	Key.backspace	n/a
657.5615	0.105	1315123	keystroke_Key.backspace	Key.backspace	n/a
657.9965	0.075	1315993	keystroke_Key.backspace	Key.backspace	n/a
658.2075	0.089	1316415	keystroke_i	i	n/a
658.3275	0.089	1316655	keystroke_a	a	n/a
658.4615	0.09	1316923	keystroke_m	m	n/a
659.0165	0.075	1318033	keystroke_e	e	n/a
659.1075	0.059	1318215	keystroke_n	n	n/a
659.3165	0.075	1318633	keystroke_t	t	n/a
659.9765	0.06	1319953	keystroke_Key.enter	Key.enter	n/a
660.0415	10.227	1320083	prompt	n/a	force complaint lincoln classical\n
660.9515	0.06	1321903	keystroke_f	f	n/a
661.1465	0.09	1322293	keystroke_o	o	n/a
661.2515	0.075	1322503	keystroke_r	r	n/a
661.4325	0.075	1322865	keystroke_c	c	n/a
661.5215	0.136	1323043	keystroke_e	e	n/a
661.6415	0.12	1323283	keystroke_Key.space	Key.space	n/a
662.3325	0.075	1324665	keystroke_c	c	n/a
662.4665	0.075	1324933	keystroke_o	o	n/a
662.6165	0.09	1325233	keystroke_m	m	n/a
662.7825	0.089	1325565	keystroke_p	p	n/a
662.9165	0.0905	1325833	keystroke_l	l	n/a
663.082	0.104	1326164	keystroke_a	a	n/a
663.277	0.06	1326554	keystroke_i	i	n/a
663.441	0.075	1326882	keystroke_t	t	n/a
663.907	0.059	1327814	keystroke_Key.backspace	Key.backspace	n/a
664.1025	0.075	1328205	keystroke_n	n	n/a
664.1925	0.09	1328385	keystroke_t	t	n/a
664.2965	0.12	1328593	keystroke_Key.space	Key.space	n/a
664.7025	0.074	1329405	keystroke_l	l	n/a
664.9415	0.06	1329883	keystroke_i	i	n/a
665.1375	0.09	1330275	keystroke_n	n	n/a
665.6165	0.091	1331233	keystroke_c	c	n/a
665.6925	0.074	1331385	keystroke_o	o	n/a
665.8715	0.075	1331743	keystroke_l	l	n/a
666.066	0.076	1332132	keystroke_n	n	n/a
666.726	0.09	1333452	keystroke_Key.space	Key.space	n/a
667.057	0.075	1334114	keystroke_c	c	n/a
667.191	0.091	1334382	keystroke_l	l	n/a
667.311	0.121	1334622	keystroke_a	a	n/a
667.447	0.09	1334894	keystroke_s	s	n/a
667.717	0.075	1335434	keystroke_s	s	n/a
668.587	0.075	1337174	keystroke_i	i	n/a
668.692	0.075	1337384	keystroke_c	c	n/a
668.872	0.105	1337744	keystroke_a	a	n/a
668.992	0.06	1337984	keystroke_l	l	n/a
670.192	0.075	1340384	keystroke_Key.enter	Key.enter	n/a
670.2715	6.5965	1340543	prompt	n/a	sweet vacations lived dennis\n
671.167	0.075	1342334	keystroke_s	s	n/a
671.332	0.075	1342664	keystroke_w	w	n/a
671.497	0.075	1342994	keystroke_e	e	n/a
671.647	0.075	1343294	keystroke_e	e	n/a
671.782	0.09	1343564	keystroke_t	t	n/a
