onset	duration	sample	value	key	prompt_text
5.134	10.7505	10268	prompt	n/a	the quick brown fox jumps over a lazy dog\n
6.7775	0.0135	13555	keystroke_t	t	n/a
6.881	0.0905	13762	keystroke_h	h	n/a
7.002	0.09	14004	keystroke_e	e	n/a
7.212	0.075	14424	keystroke_Key.space	Key.space	n/a
7.6475	0.1055	15295	keystroke_q	q	n/a
7.828	0.104	15656	keystroke_u	u	n/a
8.039	0.0765	16078	keystroke_i	i	n/a
8.251	0.1045	16502	keystroke_c	c	n/a
8.3715	0.0745	16743	keystroke_k	k	n/a
8.5515	0.105	17103	keystroke_Key.space	Key.space	n/a
8.7615	0.0745	17523	keystroke_b	b	n/a
8.911	0.06	17822	keystroke_r	r	n/a
9.091	0.075	18182	keystroke_o	o	n/a
9.241	0.1055	18482	keystroke_w	w	n/a
9.3465	0.1045	18693	keystroke_n	n	n/a
9.556	0.09	19112	keystroke_Key.space	Key.space	n/a
9.766	0.075	19532	keystroke_f	f	n/a
9.99	0.0765	19980	keystroke_o	o	n/a
10.291	0.075	20582	keystroke_x	x	n/a
10.471	0.09	20942	keystroke_Key.space	Key.space	n/a
10.711	0.0895	21422	keystroke_j	j	n/a
10.9215	0.0745	21843	keystroke_u	u	n/a
11.176	0.105	22352	keystroke_m	m	n/a
11.416	0.105	22832	keystroke_p	p	n/a
11.566	0.104	23132	keystroke_s	s	n/a
11.7605	0.075	23521	keystroke_Key.space	Key.space	n/a
12.076	0.075	24152	keystroke_o	o	n/a
12.27	0.09	24540	keystroke_v	v	n/a
12.495	0.09	24990	keystroke_e	e	n/a
12.616	0.119	25232	keystroke_r	r	n/a
12.8405	0.089	25681	keystroke_Key.space	Key.space	n/a
13.0355	0.0895	26071	keystroke_a	a	n/a
13.23	0.06	26460	keystroke_Key.space	Key.space	n/a
13.845	0.0745	27690	keystroke_l	l	n/a
14.0095	0.0755	28019	keystroke_a	a	n/a
14.2955	0.1045	28591	keystroke_z	z	n/a
14.4755	0.09	28951	keystroke_y	y	n/a
14.7	0.0905	29400	keystroke_Key.space	Key.space	n/a
14.9705	0.0905	29941	keystroke_d	d	n/a
15.2105	0.0605	30421	keystroke_o	o	n/a
15.3605	0.06	30721	keystroke_g	g	n/a
15.796	0.074	31592	keystroke_Key.enter	Key.enter	n/a
15.894	10.104	31788	prompt	n/a	starring died conventional starsmerchant\n
17.1455	0.1505	34291	keystroke_s	s	n/a
17.4155	0.075	34831	keystroke_t	t	n/a
17.566	0.12	35132	keystroke_a	a	n/a
17.7305	0.0755	35461	keystroke_r	r	n/a
17.8955	0.09	35791	keystroke_r	r	n/a
18.0005	0.1355	36001	keystroke_i	i	n/a
18.211	0.1345	36422	keystroke_n	n	n/a
18.3605	0.0605	36721	keystroke_g	g	n/a
18.4955	0.0905	36991	keystroke_Key.space	Key.space	n/a
18.7055	0.09	37411	keystroke_d	d	n/a
18.8255	0.12	37651	keystroke_i	i	n/a
19.0055	0.135	38011	keystroke_e	e	n/a
19.2615	0.119	38523	keystroke_d	d	n/a
19.3955	0.105	38791	keystroke_Key.space	Key.space	n/a
19.786	0.0895	39572	keystroke_c	c	n/a
19.9355	0.075	39871	keystroke_o	o	n/a
20.1305	0.105	40261	keystroke_n	n	n/a
20.3255	0.06	40651	keystroke_v	v	n/a
20.506	0.1195	41012	keystroke_e	e	n/a
20.671	0.0755	41342	keystroke_n	n	n/a
20.776	0.0895	41552	keystroke_t	t	n/a
20.9405	0.21	41881	keystroke_i	i	n/a
21.1205	0.1655	42241	keystroke_o	o	n/a
21.3305	0.1355	42661	keystroke_n	n	n/a
21.571	0.119	43142	keystroke_a	a	n/a
21.6915	0.09	43383	keystroke_l	l	n/a
21.915	0.09	43830	keystroke_Key.space	Key.space	n/a
22.335	0.091	44670	keystroke_s	s	n/a
22.561	0.075	45122	keystroke_t	t	n/a
22.741	0.15	45482	keystroke_a	a	n/a
22.891	0.12	45782	keystroke_r	r	n/a
23.3565	0.1045	46713	keystroke_s	s	n/a
23.806	0.105	47612	keystroke_m	m	n/a
23.9555	0.12	47911	keystroke_e	e	n/a
24.0905	0.1055	48181	keystroke_r	r	n/a
24.376	0.1045	48752	keystroke_c	c	n/a
24.496	0.09	48992	keystroke_h	h	n/a
24.6605	0.12	49321	keystroke_a	a	n/a
25.126	0.105	50252	keystroke_n	n	n/a
25.426	0.1055	50852	keystroke_t	t	n/a
25.9205	0.075	51841	keystroke_Key.enter	Key.enter	n/a
26.0025	7.076	52005	prompt	n/a	format prediction horror loose\n
27.196	0.1195	54392	keystroke_f	f	n/a
27.375	0.076	54750	keystroke_o	o	n/a
27.48	0.091	54960	keystroke_r	r	n/a
27.646	0.1195	55292	keystroke_m	m	n/a
27.796	0.1195	55592	keystroke_a	a	n/a
28.021	0.09	56042	keystroke_t	t	n/a
28.605	0.105	57210	keystroke_Key.space	Key.space	n/a
28.921	0.09	57842	keystroke_p	p	n/a
29.086	0.12	58172	keystroke_r	r	n/a
29.1905	0.1055	58381	keystroke_e	e	n/a
29.446	0.09	58892	keystroke_d	d	n/a
29.58	0.091	59160	keystroke_i	i	n/a
29.7005	0.0755	59401	keystroke_c	c	n/a
29.94	0.09	59880	keystroke_t	t	n/a
30.061	0.165	60122	keystroke_i	i	n/a
30.24	0.166	60480	keystroke_o	o	n/a
30.346	0.165	60692	keystroke_n	n	n/a
30.616	0.105	61232	keystroke_Key.space	Key.space	n/a
31.021	0.09	62042	keystroke_h	h	n/a
31.216	0.1045	62432	keystroke_o	o	n/a
31.291	0.0595	62582	keystroke_r	r	n/a
31.4405	0.0755	62881	keystroke_r	r	n/a
31.5455	0.105	63091	keystroke_o	o	n/a
31.6955	0.06	63391	keystroke_r	r	n/a
31.8005	0.1055	63601	keystroke_Key.space	Key.space	n/a
32.026	0.0895	64052	keystroke_l	l	n/a
32.236	0.075	64472	keystroke_o	o	n/a
32.416	0.045	64832	keystroke_o	o	n/a
32.4765	0.1345	64953	keystroke_s	s	n/a
32.73	0.106	65460	keystroke_e	e	n/a
32.971	0.1045	65942	keystroke_Key.enter	Key.enter	n/a
33.0825	9.2055	66165	prompt	n/a	description minolta budgets heard\n
34.0055	0.0905	68011	keystroke_d	d	n/a
34.231	0.0595	68462	keystroke_e	e	n/a
34.4705	0.0905	68941	keystroke_s	s	n/a
34.7105	0.1055	69421	keystroke_c	c	n/a
35.6555	0.0905	71311	keystroke_r	r	n/a
35.9105	0.09	71821	keystroke_i	i	n/a
36.091	0.045	72182	keystroke_p	p	n/a
36.1505	0.0755	72301	keystroke_t	t	n/a
36.271	0.18	72542	keystroke_i	i	n/a
36.436	0.15	72872	keystroke_o	o	n/a
36.556	0.1495	73112	keystroke_n	n	n/a
36.8555	0.0905	73711	keystroke_Key.space	Key.space	n/a
37.1705	0.121	74341	keystroke_m	m	n/a
37.576	0.105	75152	keystroke_i	i	n/a
37.756	0.1045	75512	keystroke_n	n	n/a
37.996	0.0745	75992	keystroke_o	o	n/a
38.236	0.09	76472	keystroke_l	l	n/a
38.401	0.09	76802	keystroke_t	t	n/a
38.6865	0.119	77373	keystroke_a	a	n/a
38.851	0.135	77702	keystroke_Key.space	Key.space	n/a
39.151	0.045	78302	keystroke_b	b	n/a
39.571	0.0895	79142	keystroke_u	u	n/a
39.736	0.1195	79472	keystroke_d	d	n/a
40.1255	0.0455	80251	keystroke_g	g	n/a
40.3055	0.0905	80611	keystroke_e	e	n/a
40.501	0.0755	81002	keystroke_t	t	n/a
40.786	0.15	81572	keystroke_s	s	n/a
40.9955	0.12	81991	keystroke_Key.space	Key.space	n/a
41.3105	0.1355	82621	keystroke_h	h	n/a
41.4165	0.089	82833	keystroke_e	e	n/a
41.5505	0.2255	83101	keystroke_a	a	n/a
41.7315	0.0895	83463	keystroke_r	r	n/a
41.971	0.1205	83942	keystroke_d	d	n/a
42.1655	0.1205	84331	keystroke_Key.enter	Key.enter	n/a
42.291	6.612	84582	prompt	n/a	lift colin html issue\n
43.306	0.09	86612	keystroke_l	l	n/a
43.501	0.1195	87002	keystroke_i	i	n/a
43.6215	0.0895	87243	keystroke_f	f	n/a
43.8615	0.105	87723	keystroke_t	t	n/a
44.071	0.12	88142	keystroke_Key.space	Key.space	n/a
44.6405	0.1205	89281	keystroke_c	c	n/a
44.835	0.091	89670	keystroke_o	o	n/a
45.0605	0.075	90121	keystroke_l	l	n/a
45.3755	0.1055	90751	keystroke_i	i	n/a
45.586	0.09	91172	keystroke_n	n	n/a
45.7805	0.09	91561	keystroke_Key.space	Key.space	n/a
46.7565	0.075	93513	keystroke_h	h	n/a
46.9955	0.0905	93991	keystroke_t	t	n/a
47.191	0.09	94382	keystroke_m	m	n/a
47.386	0.12	94772	keystroke_l	l	n/a
47.641	0.075	95282	keystroke_Key.space	Key.space	n/a
47.896	0.105	95792	keystroke_i	i	n/a
48.076	0.06	96152	keystroke_s	s	n/a
48.271	0.0895	96542	keystroke_s	s	n/a
48.436	0.1045	96872	keystroke_u	u	n/a
48.571	0.1045	97142	keystroke_e	e	n/a
48.7805	0.12	97561	keystroke_Key.enter	Key.enter	n/a
48.907	6.9715	97814	prompt	n/a	bearing ne'er talks jordan\n
49.846	0.12	99692	keystroke_b	b	n/a
49.9515	0.1045	99903	keystroke_e	e	n/a
50.1005	0.135	100201	keystroke_a	a	n/a
50.221	0.0895	100442	keystroke_r	r	n/a
50.326	0.105	100652	keystroke_i	i	n/a
50.49	0.121	100980	keystroke_n	n	n/a
50.6255	0.06	101251	keystroke_g	g	n/a
50.746	0.09	101492	keystroke_Key.space	Key.space	n/a
50.9855	0.1205	101971	keystroke_n	n	n/a
51.286	0.1045	102572	keystroke_e	e	n/a
52.006	0.0445	104012	keystroke_'	'	n/a
52.1255	0.1055	104251	keystroke_e	e	n/a
52.861	0.075	105722	keystroke_r	r	n/a
53.041	0.12	106082	keystroke_Key.space	Key.space	n/a
53.296	0.0895	106592	keystroke_t	t	n/a
53.5205	0.1505	107041	keystroke_a	a	n/a
53.641	0.1355	107282	keystroke_l	l	n/a
53.7305	0.121	107461	keystroke_k	k	n/a
54.226	0.105	108452	keystroke_s	s	n/a
54.436	0.09	108872	keystroke_Key.space	Key.space	n/a
54.721	0.105	109442	keystroke_j	j	n/a
54.931	0.09	109862	keystroke_o	o	n/a
55.0065	0.0735	110013	keystroke_r	r	n/a
55.246	0.105	110492	keystroke_d	d	n/a
55.411	0.15	110822	keystroke_a	a	n/a
55.546	0.09	111092	keystroke_n	n	n/a
55.771	0.105	111542	keystroke_Key.enter	Key.enter	n/a
55.884	6.3685	111768	prompt	n/a	veterans streams luke screens\n
57.3305	0.09	114661	keystroke_v	v	n/a
57.571	0.12	115142	keystroke_e	e	n/a
57.781	0.0745	115562	keystroke_t	t	n/a
57.946	0.1045	115892	keystroke_e	e	n/a
58.0355	0.09	116071	keystroke_r	r	n/a
58.246	0.09	116492	keystroke_a	a	n/a
58.381	0.105	116762	keystroke_n	n	n/a
58.5465	0.104	117093	keystroke_s	s	n/a
58.666	0.09	117332	keystroke_Key.space	Key.space	n/a
58.8155	0.1355	117631	keystroke_s	s	n/a
59.071	0.03	118142	keystroke_t	t	n/a
59.236	0.09	118472	keystroke_r	r	n/a
59.371	0.105	118742	keystroke_e	e	n/a
59.491	0.0905	118982	keystroke_a	a	n/a
59.626	0.075	119252	keystroke_m	m	n/a
59.761	0.0745	119522	keystroke_s	s	n/a
59.8805	0.09	119761	keystroke_Key.space	Key.space	n/a
60.0605	0.09	120121	keystroke_l	l	n/a
60.2855	0.076	120571	keystroke_u	u	n/a
60.511	0.045	121022	keystroke_k	k	n/a
60.601	0.105	121202	keystroke_e	e	n/a
60.781	0.105	121562	keystroke_Key.space	Key.space	n/a
60.9165	0.12	121833	keystroke_s	s	n/a
61.171	0.1045	122342	keystroke_c	c	n/a
61.4255	0.1055	122851	keystroke_r	r	n/a
61.5905	0.09	123181	keystroke_e	e	n/a
61.741	0.0905	123482	keystroke_e	e	n/a
61.846	0.1045	123692	keystroke_n	n	n/a
61.9955	0.106	123991	keystroke_s	s	n/a
62.146	0.105	124292	keystroke_Key.enter	Key.enter	n/a
62.256	6.9575	124512	prompt	n/a	catalogs members contracts causing\n
63.3915	0.104	126783	keystroke_c	c	n/a
63.5715	0.089	127143	keystroke_a	a	n/a
63.766	0.09	127532	keystroke_t	t	n/a
63.9755	0.1055	127951	keystroke_a	a	n/a
64.0955	0.105	128191	keystroke_l	l	n/a
64.2755	0.12	128551	keystroke_o	o	n/a
64.4105	0.06	128821	keystroke_g	g	n/a
64.606	0.135	129212	keystroke_s	s	n/a
64.831	0.09	129662	keystroke_Key.space	Key.space	n/a
65.086	0.1345	130172	keystroke_m	m	n/a
65.2055	0.09	130411	keystroke_e	e	n/a
65.311	0.0905	130622	keystroke_m	m	n/a
65.506	0.0895	131012	keystroke_b	b	n/a
65.581	0.1345	131162	keystroke_e	e	n/a
65.7005	0.1055	131401	keystroke_r	r	n/a
65.926	0.12	131852	keystroke_s	s	n/a
66.061	0.09	132122	keystroke_Key.space	Key.space	n/a
66.286	0.165	132572	keystroke_c	c	n/a
66.436	0.09	132872	keystroke_o	o	n/a
66.631	0.0895	133262	keystroke_n	n	n/a
66.7055	0.0905	133411	keystroke_t	t	n/a
66.8855	0.09	133771	keystroke_r	r	n/a
67.066	0.09	134132	keystroke_a	a	n/a
67.261	0.09	134522	keystroke_c	c	n/a
67.516	0.075	135032	keystroke_t	t	n/a
67.7265	0.089	135453	keystroke_s	s	n/a
67.8905	0.0905	135781	keystroke_Key.space	Key.space	n/a
68.0255	0.106	136051	keystroke_c	c	n/a
68.1915	0.1045	136383	keystroke_a	a	n/a
68.281	0.105	136562	keystroke_u	u	n/a
68.416	0.1195	136832	keystroke_s	s	n/a
68.5205	0.1805	137041	keystroke_i	i	n/a
68.671	0.195	137342	keystroke_n	n	n/a
68.8805	0.0905	137761	keystroke_g	g	n/a
69.1055	0.1055	138211	keystroke_Key.enter	Key.enter	n/a
69.217	8.727	138434	prompt	n/a	vocal infant basic civilian\n
70.4415	0.0895	140883	keystroke_v	v	n/a
70.7115	0.1045	141423	keystroke_o	o	n/a
70.801	0.075	141602	keystroke_c	c	n/a
71.011	0.12	142022	keystroke_a	a	n/a
71.1455	0.0455	142291	keystroke_l	l	n/a
71.3255	0.1055	142651	keystroke_Key.space	Key.space	n/a
71.5665	0.0745	143133	keystroke_i	i	n/a
71.7305	0.106	143461	keystroke_n	n	n/a
71.8515	0.0745	143703	keystroke_g	g	n/a
72.5255	0.075	145051	keystroke_Key.backspace	Key.backspace	n/a
72.706	0.1045	145412	keystroke_f	f	n/a
73.981	0.09	147962	keystroke_a	a	n/a
74.221	0.0605	148442	keystroke_n	n	n/a
74.401	0.0905	148802	keystroke_t	t	n/a
74.596	0.09	149192	keystroke_Key.space	Key.space	n/a
74.866	0.105	149732	keystroke_b	b	n/a
74.986	0.1805	149972	keystroke_a	a	n/a
75.121	0.09	150242	keystroke_s	s	n/a
75.226	0.12	150452	keystroke_i	i	n/a
75.406	0.105	150812	keystroke_c	c	n/a
75.616	0.105	151232	keystroke_Key.space	Key.space	n/a
76.381	0.12	152762	keystroke_c	c	n/a
76.636	0.105	153272	keystroke_i	i	n/a
76.846	0.105	153692	keystroke_v	v	n/a
76.966	0.105	153932	keystroke_i	i	n/a
77.1915	0.0595	154383	keystroke_l	l	n/a
77.326	0.105	154652	keystroke_i	i	n/a
77.491	0.1355	154982	keystroke_a	a	n/a
77.5665	0.119	155133	keystroke_n	n	n/a
77.836	0.105	155672	keystroke_Key.enter	Key.enter	n/a
77.949	20.1245	155898	prompt	n/a	iraq australia forgotten affiliated\n
79.0365	0.1195	158073	keystroke_i	i	n/a
79.141	0.0755	158282	keystroke_r	r	n/a
79.366	0.0905	158732	keystroke_a	a	n/a
80.5215	0.135	161043	keystroke_q	q	n/a
81.2105	0.1055	162421	keystroke_Key.space	Key.space	n/a
81.6165	0.059	163233	keystroke_a	a	n/a
82.111	0.1055	164222	keystroke_u	u	n/a
82.3215	0.12	164643	keystroke_s	s	n/a
82.546	0.075	165092	keystroke_t	t	n/a
82.696	0.09	165392	keystroke_r	r	n/a
82.906	0.105	165812	keystroke_a	a	n/a
83.356	0.075	166712	keystroke_l	l	n/a
83.506	0.12	167012	keystroke_i	i	n/a
83.9265	0.1195	167853	keystroke_a	a	n/a
84.601	0.12	169202	keystroke_Key.space	Key.space	n/a
84.961	0.105	169922	keystroke_f	f	n/a
85.276	0.135	170552	keystroke_o	o	n/a
85.651	0.09	171302	keystroke_r	r	n/a
85.876	0.0905	171752	keystroke_g	g	n/a
86.0715	0.104	172143	keystroke_o	o	n/a
86.1915	0.059	172383	keystroke_t	t	n/a
86.3555	0.0755	172711	keystroke_t	t	n/a
86.5655	0.135	173131	keystroke_e	e	n/a
86.6715	0.089	173343	keystroke_n	n	n/a
86.881	0.0895	173762	keystroke_Key.space	Key.space	n/a
87.016	0.1055	174032	keystroke_a	a	n/a
87.241	0.0745	174482	keystroke_f	f	n/a
87.406	0.0755	174812	keystroke_f	f	n/a
87.4965	0.09	174993	keystroke_i	i	n/a
87.8565	0.1195	175713	keystroke_i	i	n/a
88.651	0.1195	177302	keystroke_a	a	n/a
88.9055	0.075	177811	keystroke_t	t	n/a
89.086	0.09	178172	keystroke_e	e	n/a
89.296	0.1345	178592	keystroke_d	d	n/a
89.9105	0.105	179821	keystroke_Key.space	Key.space	n/a
91.321	0.09	182642	keystroke_Key.backspace	Key.backspace	n/a
91.5905	0.0155	183181	keystroke_Key.backspace	Key.backspace	n/a
91.7105	0.0755	183421	keystroke_Key.backspace	Key.backspace	n/a
91.9055	0.09	183811	keystroke_Key.backspace	Key.backspace	n/a
92.2505	0.12	184501	keystroke_Key.backspace	Key.backspace	n/a
92.6555	0.1355	185311	keystroke_Key.backspace	Key.backspace	n/a
95.0125	0.0285	190025	keystroke_l	l	n/a
96.316	0.075	192632	keystroke_i	i	n/a
96.466	0.0905	192932	keystroke_a	a	n/a
96.661	0.0745	193322	keystroke_t	t	n/a
96.7955	0.12	193591	keystroke_e	e	n/a
97.066	0.0895	194132	keystroke_d	d	n/a
97.546	0.09	195092	keystroke_Key.space	Key.space	n/a
97.966	0.105	195932	keystroke_Key.enter	Key.enter	n/a
98.078	5.83	196156	prompt	n/a	baking launch madness star\n
99.3315	0.09	198663	keystroke_b	b	n/a
99.6155	0.016	199231	keystroke_a	a	n/a
99.6915	0.09	199383	keystroke_k	k	n/a
99.8855	0.0755	199771	keystroke_i	i	n/a
100.0815	0.105	200163	keystroke_n	n	n/a
100.246	0.09	200492	keystroke_g	g	n/a
100.396	0.09	200792	keystroke_Key.space	Key.space	n/a
100.5605	0.1055	201121	keystroke_l	l	n/a
100.6955	0.105	201391	keystroke_a	a	n/a
100.816	0.09	201632	keystroke_u	u	n/a
101.011	0.105	202022	keystroke_n	n	n/a
101.146	0.105	202292	keystroke_c	c	n/a
101.296	0.0895	202592	keystroke_h	h	n/a
101.491	0.075	202982	keystroke_Key.space	Key.space	n/a
101.716	0.06	203432	keystroke_m	m	n/a
101.791	0.1045	203582	keystroke_a	a	n/a
101.986	0.105	203972	keystroke_d	d	n/a
102.226	0.1355	204452	keystroke_n	n	n/a
102.376	0.09	204752	keystroke_e	e	n/a
102.586	0.06	205172	keystroke_s	s	n/a
102.7365	0.1045	205473	keystroke_s	s	n/a
102.856	0.09	205712	keystroke_Key.space	Key.space	n/a
102.976	0.1205	205952	keystroke_s	s	n/a
103.231	0.0895	206462	keystroke_t	t	n/a
103.456	0.135	206912	keystroke_a	a	n/a
103.561	0.105	207122	keystroke_r	r	n/a
103.8165	0.089	207633	keystroke_Key.enter	Key.enter	n/a
103.912	12.521	207824	prompt	n/a	specified unexpected separation label\n
104.821	0.105	209642	keystroke_s	s	n/a
104.971	0.12	209942	keystroke_p	p	n/a
105.076	0.1045	210152	keystroke_e	e	n/a
105.316	0.12	210632	keystroke_c	c	n/a
105.466	0.105	210932	keystroke_i	i	n/a
105.6315	0.105	211263	keystroke_f	f	n/a
105.8255	0.0905	211651	keystroke_i	i	n/a
105.9305	0.076	211861	keystroke_e	e	n/a
106.141	0.0895	212282	keystroke_d	d	n/a
106.456	0.12	212912	keystroke_Key.space	Key.space	n/a
106.846	0.09	213692	keystroke_u	u	n/a
107.101	0.075	214202	keystroke_n	n	n/a
107.191	0.075	214382	keystroke_e	e	n/a
107.476	0.1205	214952	keystroke_x	x	n/a
107.641	0.075	215282	keystroke_p	p	n/a
107.761	0.105	215522	keystroke_e	e	n/a
108.016	0.0305	216032	keystroke_c	c	n/a
108.1205	0.015	216241	keystroke_c	c	n/a
108.3015	0.0745	216603	keystroke_t	t	n/a
108.451	0.0745	216902	keystroke_e	e	n/a
108.6465	0.09	217293	keystroke_d	d	n/a
108.7505	0.105	217501	keystroke_Key.space	Key.space	n/a
109.111	0.09	218222	keystroke_s	s	n/a
110.056	0.12	220112	keystroke_Key.backspace	Key.backspace	n/a
110.401	0.105	220802	keystroke_Key.backspace	Key.backspace	n/a
110.626	0.075	221252	keystroke_Key.backspace	Key.backspace	n/a
110.821	0.075	221642	keystroke_Key.backspace	Key.backspace	n/a
111.031	0.0745	222062	keystroke_Key.backspace	Key.backspace	n/a
111.331	0.075	222662	keystroke_Key.backspace	Key.backspace	n/a
112.1255	0.076	224251	keystroke_t	t	n/a
112.3055	0.091	224611	keystroke_e	e	n/a
112.5315	0.09	225063	keystroke_d	d	n/a
112.6505	0.0905	225301	keystroke_Key.space	Key.space	n/a
113.596	0.165	227192	keystroke_s	s	n/a
113.866	0.1045	227732	keystroke_e	e	n/a
114.061	0.09	228122	keystroke_p	p	n/a
114.2115	0.135	228423	keystroke_a	a	n/a
114.3765	0.105	228753	keystroke_r	r	n/a
114.5255	0.106	229051	keystroke_a	a	n/a
114.7065	0.105	229413	keystroke_t	t	n/a
114.8415	0.15	229683	keystroke_i	i	n/a
114.9765	0.1495	229953	keystroke_o	o	n/a
115.111	0.1195	230222	keystroke_n	n	n/a
115.3515	0.09	230703	keystroke_Key.space	Key.space	n/a
115.5915	0.105	231183	keystroke_l	l	n/a
115.7255	0.1055	231451	keystroke_a	a	n/a
115.8615	0.1045	231723	keystroke_b	b	n/a
115.996	0.09	231992	keystroke_e	e	n/a
116.101	0.12	232202	keystroke_l	l	n/a
116.341	0.0905	232682	keystroke_Key.enter	Key.enter	n/a
116.4455	10.3675	232891	prompt	n/a	reynolds frame abandoned cancer\n
117.7815	0.074	235563	keystroke_r	r	n/a
117.916	0.0905	235832	keystroke_e	e	n/a
118.3065	0.075	236613	keystroke_y	y	n/a
118.5615	0.075	237123	keystroke_n	n	n/a
118.8615	0.06	237723	keystroke_o	o	n/a
119.2215	0.1195	238443	keystroke_l	l	n/a
119.476	0.09	238952	keystroke_d	d	n/a
119.716	0.105	239432	keystroke_s	s	n/a
120.736	0.09	241472	keystroke_Key.space	Key.space	n/a
122.5365	0.0895	245073	keystroke_f	f	n/a
122.746	0.0605	245492	keystroke_r	r	n/a
122.9715	0.1045	245943	keystroke_a	a	n/a
123.166	0.0755	246332	keystroke_m	m	n/a
123.2715	0.09	246543	keystroke_e	e	n/a
123.4065	0.1045	246813	keystroke_Key.space	Key.space	n/a
123.6165	0.12	247233	keystroke_a	a	n/a
123.826	0.105	247652	keystroke_b	b	n/a
123.961	0.12	247922	keystroke_a	a	n/a
124.096	0.0905	248192	keystroke_n	n	n/a
124.276	0.12	248552	keystroke_d	d	n/a
124.4265	0.0895	248853	keystroke_o	o	n/a
124.741	0.1055	249482	keystroke_n	n	n/a
124.9365	0.0895	249873	keystroke_e	e	n/a
125.1615	0.1195	250323	keystroke_d	d	n/a
125.3565	0.104	250713	keystroke_Key.space	Key.space	n/a
125.7305	0.075	251461	keystroke_c	c	n/a
125.9115	0.105	251823	keystroke_a	a	n/a
126.0165	0.105	252033	keystroke_n	n	n/a
126.1515	0.0895	252303	keystroke_c	c	n/a
126.3615	0.1345	252723	keystroke_e	e	n/a
126.511	0.0905	253022	keystroke_r	r	n/a
126.691	0.1205	253382	keystroke_Key.enter	Key.enter	n/a
126.816	8.517	253632	prompt	n/a	observations rick chairs eventually\n
128.1615	0.105	256323	keystroke_o	o	n/a
128.566	0.105	257132	keystroke_b	b	n/a
128.7455	0.15	257491	keystroke_s	s	n/a
129.016	0.15	258032	keystroke_e	e	n/a
129.1065	0.105	258213	keystroke_r	r	n/a
129.3615	0.105	258723	keystroke_v	v	n/a
130.0515	0.1795	260103	keystroke_a	a	n/a
130.3065	0.104	260613	keystroke_t	t	n/a
130.546	0.18	261092	keystroke_i	i	n/a
130.9805	0.091	261961	keystroke_o	o	n/a
131.1465	0.135	262293	keystroke_n	n	n/a
131.3115	0.09	262623	keystroke_s	s	n/a
132.211	0.105	264422	keystroke_Key.space	Key.space	n/a
132.4515	0.0895	264903	keystroke_r	r	n/a
132.691	0.0905	265382	keystroke_i	i	n/a
132.9615	0.09	265923	keystroke_c	c	n/a
133.1565	0.045	266313	keystroke_k	k	n/a
133.3365	0.105	266673	keystroke_Key.space	Key.space	n/a
133.8465	0.09	267693	keystroke_c	c	n/a
133.9665	0.105	267933	keystroke_h	h	n/a
134.0865	0.105	268173	keystroke_a	a	n/a
134.2515	0.105	268503	keystroke_i	i	n/a
134.371	0.075	268742	keystroke_r	r	n/a
134.5815	0.1345	269163	keystroke_s	s	n/a
135.2255	0.106	270451	keystroke_Key.enter	Key.enter	n/a
135.336	10.0625	270672	prompt	n/a	jerusalem modified aurora mild\n
136.6365	0.12	273273	keystroke_j	j	n/a
136.726	0.15	273452	keystroke_e	e	n/a
136.8455	0.075	273691	keystroke_r	r	n/a
138.4365	0.105	276873	keystroke_u	u	n/a
139.0505	0.091	278101	keystroke_s	s	n/a
139.1865	0.1495	278373	keystroke_a	a	n/a
139.321	0.09	278642	keystroke_l	l	n/a
139.471	0.105	278942	keystroke_e	e	n/a
139.591	0.105	279182	keystroke_m	m	n/a
139.816	0.09	279632	keystroke_Key.space	Key.space	n/a
140.0705	0.09	280141	keystroke_m	m	n/a
140.326	0.1055	280652	keystroke_o	o	n/a
140.4915	0.075	280983	keystroke_d	d	n/a
140.6115	0.12	281223	keystroke_i	i	n/a
141.0465	0.105	282093	keystroke_f	f	n/a
141.1815	0.119	282363	keystroke_i	i	n/a
141.3155	0.09	282631	keystroke_e	e	n/a
141.5255	0.106	283051	keystroke_d	d	n/a
141.8415	0.09	283683	keystroke_Key.space	Key.space	n/a
142.0815	0.09	284163	keystroke_a	a	n/a
142.2915	0.1195	284583	keystroke_u	u	n/a
142.486	0.045	284972	keystroke_r	r	n/a
142.6815	0.12	285363	keystroke_o	o	n/a
142.846	0.045	285692	keystroke_r	r	n/a
143.0255	0.121	286051	keystroke_a	a	n/a
143.1765	0.104	286353	keystroke_Key.space	Key.space	n/a
143.5955	0.105	287191	keystroke_m	m	n/a
143.896	0.09	287792	keystroke_i	i	n/a
144.0615	0.1345	288123	keystroke_l	l	n/a
144.241	0.12	288482	keystroke_d	d	n/a
145.321	0.075	290642	keystroke_Key.enter	Key.enter	n/a
145.403	9.61	290806	prompt	n/a	oman occasional government dance\n
146.356	0.0755	292712	keystroke_o	o	n/a
146.566	0.105	293132	keystroke_m	m	n/a
146.6715	0.1495	293343	keystroke_a	a	n/a
146.836	0.0755	293672	keystroke_n	n	n/a
147.031	0.0755	294062	keystroke_Key.space	Key.space	n/a
147.241	0.0905	294482	keystroke_o	o	n/a
147.376	0.09	294752	keystroke_c	c	n/a
147.5565	0.0745	295113	keystroke_c	c	n/a
147.736	0.105	295472	keystroke_a	a	n/a
147.871	0.105	295742	keystroke_s	s	n/a
147.9615	0.15	295923	keystroke_i	i	n/a
148.1415	0.105	296283	keystroke_o	o	n/a
148.1565	0.15	296313	keystroke_n	n	n/a
148.4115	0.15	296823	keystroke_a	a	n/a
148.6515	0.105	297303	keystroke_l	l	n/a
149.0255	0.0905	298051	keystroke_Key.space	Key.space	n/a
149.5515	0.09	299103	keystroke_f	f	n/a
149.6865	0.09	299373	keystroke_o	o	n/a
149.7915	0.12	299583	keystroke_v	v	n/a
150.0315	0.1795	300063	keystroke_e	e	n/a
150.5115	0.059	301023	keystroke_Key.backspace	Key.backspace	n/a
150.6905	0.061	301381	keystroke_Key.backspace	Key.backspace	n/a
150.8555	0.06	301711	keystroke_Key.backspace	Key.backspace	n/a
150.991	0.105	301982	keystroke_Key.backspace	Key.backspace	n/a
151.7415	0.0895	303483	keystroke_g	g	n/a
151.966	0.0905	303932	keystroke_o	o	n/a
152.2655	0.061	304531	keystroke_v	v	n/a
152.4615	0.149	304923	keystroke_e	e	n/a
152.5655	0.091	305131	keystroke_r	r	n/a
152.7165	0.075	305433	keystroke_n	n	n/a
152.957	0.0745	305914	keystroke_m	m	n/a
153.2565	0.0895	306513	keystroke_e	e	n/a
153.4065	0.1345	306813	keystroke_n	n	n/a
153.556	0.1055	307112	keystroke_t	t	n/a
153.856	0.09	307712	keystroke_Key.space	Key.space	n/a
154.0815	0.09	308163	keystroke_d	d	n/a
154.2755	0.0755	308551	keystroke_a	a	n/a
154.3655	0.09	308731	keystroke_n	n	n/a
154.5155	0.121	309031	keystroke_c	c	n/a
154.6815	0.105	309363	keystroke_e	e	n/a
154.9065	0.105	309813	keystroke_Key.enter	Key.enter	n/a
155.0185	9.835	310037	prompt	n/a	youth detail courtesy mambo\n
156.4055	0.0905	312811	keystroke_y	y	n/a
156.6615	0.1195	313323	keystroke_o	o	n/a
156.7515	0.105	313503	keystroke_u	u	n/a
156.946	0.121	313892	keystroke_n	n	n/a
157.366	0.0905	314732	keystroke_t	t	n/a
158.146	0.0905	316292	keystroke_Key.backspace	Key.backspace	n/a
158.3255	0.061	316651	keystroke_Key.backspace	Key.backspace	n/a
158.476	0.0755	316952	keystroke_t	t	n/a
158.6265	0.074	317253	keystroke_h	h	n/a
159.1815	0.12	318363	keystroke_Key.space	Key.space	n/a
159.421	0.1055	318842	keystroke_d	d	n/a
159.616	0.1505	319232	keystroke_e	e	n/a
159.8115	0.075	319623	keystroke_t	t	n/a
160.006	0.105	320012	keystroke_a	a	n/a
160.0805	0.1805	320161	keystroke_i	i	n/a
160.2165	0.12	320433	keystroke_l	l	n/a
160.4705	0.105	320941	keystroke_Key.space	Key.space	n/a
160.6215	0.15	321243	keystroke_c	c	n/a
160.7865	0.105	321573	keystroke_o	o	n/a
160.8465	0.134	321693	keystroke_u	u	n/a
161.0255	0.091	322051	keystroke_r	r	n/a
161.2215	0.075	322443	keystroke_t	t	n/a
161.416	0.06	322832	keystroke_e	e	n/a
161.5955	0.1055	323191	keystroke_s	s	n/a
161.686	0.1055	323372	keystroke_y	y	n/a
161.911	0.0755	323822	keystroke_Key.space	Key.space	n/a
162.1515	0.104	324303	keystroke_m	m	n/a
162.301	0.12	324602	keystroke_a	a	n/a
162.4815	0.0895	324963	keystroke_m	m	n/a
162.9905	0.0755	325981	keystroke_b	b	n/a
163.2615	0.09	326523	keystroke_o	o	n/a
164.761	0.0905	329522	keystroke_Key.enter	Key.enter	n/a
164.8575	20.7555	329715	prompt	n/a	consolidation versions affiliated lies\n
165.901	0.045	331802	keystroke_c	c	n/a
165.9765	0.075	331953	keystroke_o	o	n/a
166.2015	0.0745	332403	keystroke_n	n	n/a
166.411	0.09	332822	keystroke_s	s	n/a
166.531	0.0905	333062	keystroke_o	o	n/a
166.8915	0.119	333783	keystroke_l	l	n/a
168.4815	0.0895	336963	keystroke_i	i	n/a
168.841	0.1055	337682	keystroke_d	d	n/a
169.0965	0.1195	338193	keystroke_a	a	n/a
169.2465	0.105	338493	keystroke_t	t	n/a
169.366	0.2395	338732	keystroke_u	u	n/a
169.5915	0.15	339183	keystroke_i	i	n/a
169.786	0.06	339572	keystroke_b	b	n/a
170.251	0.1205	340502	keystroke_Key.backspace	Key.backspace	n/a
170.506	0.045	341012	keystroke_Key.backspace	Key.backspace	n/a
170.6565	0.0895	341313	keystroke_Key.backspace	Key.backspace	n/a
173.238	0.073	346476	keystroke_i	i	n/a
173.341	0.15	346682	keystroke_o	o	n/a
173.416	0.12	346832	keystroke_n	n	n/a
174.091	0.105	348182	keystroke_Key.space	Key.space	n/a
176.5825	0.059	353165	keystroke_v	v	n/a
176.881	0.1345	353762	keystroke_e	e	n/a
177.1205	0.076	354241	keystroke_r	r	n/a
177.5405	0.0905	355081	keystroke_s	s	n/a
177.6915	0.15	355383	keystroke_i	i	n/a
177.857	0.1645	355714	keystroke_o	o	n/a
177.9765	0.1495	355953	keystroke_n	n	n/a
178.426	0.1205	356852	keystroke_s	s	n/a
178.6065	0.134	357213	keystroke_Key.space	Key.space	n/a
178.9065	0.1195	357813	keystroke_a	a	n/a
179.4315	0.0745	358863	keystroke_f	f	n/a
179.611	0.105	359222	keystroke_f	f	n/a
180.5565	0.12	361113	keystroke_i	i	n/a
180.7965	0.045	361593	keystroke_l	l	n/a
180.931	0.1055	361862	keystroke_i	i	n/a
181.0965	0.135	362193	keystroke_a	a	n/a
181.2765	0.12	362553	keystroke_t	t	n/a
181.5015	0.045	363003	keystroke_e	e	n/a
181.9215	0.105	363843	keystroke_d	d	n/a
182.986	0.1355	365972	keystroke_Key.space	Key.space	n/a
183.796	0.06	367592	keystroke_l	l	n/a
184.1715	0.135	368343	keystroke_i	i	n/a
184.3815	0.09	368763	keystroke_e	e	n/a
184.771	0.09	369542	keystroke_s	s	n/a
185.5515	0.0595	371103	keystroke_Key.enter	Key.enter	n/a
185.6175	14.1575	371235	prompt	n/a	research attendance agrees decide\n
186.4965	0.12	372993	keystroke_r	r	n/a
186.661	0.135	373322	keystroke_e	e	n/a
186.9765	0.0895	373953	keystroke_s	s	n/a
187.141	0.1355	374282	keystroke_e	e	n/a
187.5465	0.105	375093	keystroke_a	a	n/a
187.7705	0.076	375541	keystroke_r	r	n/a
188.7315	0.1195	377463	keystroke_c	c	n/a
188.941	0.1205	377882	keystroke_h	h	n/a
189.4665	0.135	378933	keystroke_Key.space	Key.space	n/a
189.841	0.165	379682	keystroke_a	a	n/a
190.7715	0.06	381543	keystroke_t	t	n/a
190.9365	0.06	381873	keystroke_t	t	n/a
191.1465	0.075	382293	keystroke_e	e	n/a
191.611	0.1355	383222	keystroke_n	n	n/a
191.8065	0.1495	383613	keystroke_d	d	n/a
192.0465	0.105	384093	keystroke_a	a	n/a
192.2565	0.135	384513	keystroke_n	n	n/a
192.4365	0.12	384873	keystroke_c	c	n/a
192.7815	0.0145	385563	keystroke_e	e	n/a
192.886	0.0905	385772	keystroke_e	e	n/a
193.4715	0.0895	386943	keystroke_Key.backspace	Key.backspace	n/a
193.801	0.1205	387602	keystroke_Key.space	Key.space	n/a
194.4465	0.105	388893	keystroke_a	a	n/a
195.3315	0.075	390663	keystroke_g	g	n/a
195.571	0.09	391142	keystroke_r	r	n/a
195.721	0.0755	391442	keystroke_e	e	n/a
195.8715	0.1195	391743	keystroke_e	e	n/a
196.111	0.1355	392222	keystroke_s	s	n/a
196.561	0.12	393122	keystroke_Key.space	Key.space	n/a
197.116	0.091	394232	keystroke_d	d	n/a
197.3565	0.12	394713	keystroke_e	e	n/a
197.8365	0.105	395673	keystroke_c	c	n/a
198.047	0.1045	396094	keystroke_u	u	n/a
198.511	0.06	397022	keystroke_Key.backspace	Key.backspace	n/a
198.9765	0.09	397953	keystroke_i	i	n/a
199.0965	0.105	398193	keystroke_d	d	n/a
199.3215	0.12	398643	keystroke_e	e	n/a
199.6365	0.135	399273	keystroke_Key.enter	Key.enter	n/a
199.7795	12.7585	399559	prompt	n/a	heat execution timber volunteers\n
201.0015	0.12	402003	keystroke_h	h	n/a
201.152	0.1345	402304	keystroke_e	e	n/a
201.3915	0.1505	402783	keystroke_a	a	n/a
201.557	0.12	403114	keystroke_t	t	n/a
201.811	0.1045	403622	keystroke_Key.space	Key.space	n/a
202.0815	0.0455	404163	keystroke_e	e	n/a
202.5915	0.1505	405183	keystroke_x	x	n/a
202.8765	0.105	405753	keystroke_e	e	n/a
203.146	0.1055	406292	keystroke_c	c	n/a
203.3415	0.09	406683	keystroke_u	u	n/a
203.4615	0.104	406923	keystroke_t	t	n/a
203.5965	0.18	407193	keystroke_i	i	n/a
203.7915	0.165	407583	keystroke_o	o	n/a
204.0015	0.135	408003	keystroke_n	n	n/a
205.007	0.1345	410014	keystroke_Key.space	Key.space	n/a
205.321	0.0905	410642	keystroke_t	t	n/a
205.4865	0.1055	410973	keystroke_i	i	n/a
206.3865	0.12	412773	keystroke_m	m	n/a
206.6565	0.075	413313	keystroke_b	b	n/a
206.7465	0.18	413493	keystroke_e	e	n/a
206.9415	0.12	413883	keystroke_r	r	n/a
207.5715	0.135	415143	keystroke_Key.space	Key.space	n/a
208.5615	0.105	417123	keystroke_v	v	n/a
208.8765	0.09	417753	keystroke_u	u	n/a
209.7765	0.135	419553	keystroke_Key.backspace	Key.backspace	n/a
210.2115	0.105	420423	keystroke_o	o	n/a
210.4965	0.09	420993	keystroke_l	l	n/a
210.7215	0.1055	421443	keystroke_u	u	n/a
211.0065	0.0895	422013	keystroke_n	n	n/a
211.141	0.12	422282	keystroke_t	t	n/a
211.426	0.0455	422852	keystroke_e	e	n/a
211.562	0.1495	423124	keystroke_e	e	n/a
211.6965	0.135	423393	keystroke_r	r	n/a
211.9815	0.0905	423963	keystroke_s	s	n/a
212.4615	0.0745	424923	keystroke_Key.enter	Key.enter	n/a
212.542	10.3475	425084	prompt	n/a	errors diane darwin careful\n
213.5265	0.1205	427053	keystroke_e	e	n/a
213.8865	0.1345	427773	keystroke_r	r	n/a
214.1265	0.1045	428253	keystroke_r	r	n/a
214.306	0.1055	428612	keystroke_o	o	n/a
214.4415	0.09	428883	keystroke_r	r	n/a
214.8915	0.1195	429783	keystroke_s	s	n/a
215.3865	0.135	430773	keystroke_Key.space	Key.space	n/a
215.7165	0.135	431433	keystroke_d	d	n/a
215.8965	0.06	431793	keystroke_i	i	n/a
216.0315	0.1355	432063	keystroke_a	a	n/a
216.197	0.149	432394	keystroke_n	n	n/a
216.361	0.1205	432722	keystroke_e	e	n/a
216.8565	0.12	433713	keystroke_Key.space	Key.space	n/a
217.847	0.119	435694	keystroke_d	d	n/a
218.057	0.165	436114	keystroke_a	a	n/a
218.207	0.12	436414	keystroke_r	r	n/a
218.626	0.105	437252	keystroke_w	w	n/a
218.791	0.121	437582	keystroke_i	i	n/a
219.016	0.12	438032	keystroke_n	n	n/a
219.5265	0.1495	439053	keystroke_Key.space	Key.space	n/a
220.3365	0.1045	440673	keystroke_c	c	n/a
220.546	0.12	441092	keystroke_a	a	n/a
220.7265	0.1655	441453	keystroke_r	r	n/a
220.892	0.1345	441784	keystroke_e	e	n/a
221.2965	0.1205	442593	keystroke_f	f	n/a
221.5515	0.12	443103	keystroke_u	u	n/a
221.8665	0.03	443733	keystroke_l	l	n/a
222.8115	0.075	445623	keystroke_Key.enter	Key.enter	n/a
222.893	17.486	445786	prompt	n/a	practical windsor fathers logitech\n
224.9875	0.029	449975	keystroke_p	p	n/a
225.3315	0.1045	450663	keystroke_r	r	n/a
225.542	0.119	451084	keystroke_a	a	n/a
225.811	0.0905	451622	keystroke_c	c	n/a
226.096	0.105	452192	keystroke_t	t	n/a
226.486	0.1205	452972	keystroke_i	i	n/a
226.681	0.106	453362	keystroke_c	c	n/a
226.9965	0.1195	453993	keystroke_a	a	n/a
227.341	0.121	454682	keystroke_l	l	n/a
227.971	0.121	455942	keystroke_Key.space	Key.space	n/a
228.752	0.089	457504	keystroke_w	w	n/a
228.932	0.0895	457864	keystroke_i	i	n/a
229.141	0.1055	458282	keystroke_n	n	n/a
229.396	0.1355	458792	keystroke_d	d	n/a
229.621	0.106	459242	keystroke_s	s	n/a
229.7565	0.105	459513	keystroke_o	o	n/a
229.9365	0.105	459873	keystroke_r	r	n/a
230.3565	0.12	460713	keystroke_Key.space	Key.space	n/a
231.302	0.1045	462604	keystroke_f	f	n/a
231.4965	0.12	462993	keystroke_a	a	n/a
231.872	0.0595	463744	keystroke_t	t	n/a
232.0365	0.075	464073	keystroke_h	h	n/a
232.606	0.1205	465212	keystroke_e	e	n/a
232.772	0.1345	465544	keystroke_r	r	n/a
233.041	0.1355	466082	keystroke_s	s	n/a
233.3565	0.1205	466713	keystroke_Key.space	Key.space	n/a
234.406	0.1205	468812	keystroke_l	l	n/a
234.6315	0.105	469263	keystroke_o	o	n/a
234.9765	0.12	469953	keystroke_g	g	n/a
235.6365	0.135	471273	keystroke_i	i	n/a
235.7565	0.0605	471513	keystroke_t	t	n/a
236.3115	0.12	472623	keystroke_e	e	n/a
236.5665	0.075	473133	keystroke_c	c	n/a
236.7315	0.0455	473463	keystroke_j	j	n/a
237.6015	0.12	475203	keystroke_Key.backspace	Key.backspace	n/a
237.9765	0.105	475953	keystroke_j	j	n/a
238.727	0.1195	477454	keystroke_Key.backspace	Key.backspace	n/a
239.1015	0.09	478203	keystroke_h	h	n/a
240.2565	0.12	480513	keystroke_Key.enter	Key.enter	n/a
240.383	11.9055	480766	prompt	n/a	nail lyric inner showtimes\n
241.7865	0.105	483573	keystroke_n	n	n/a
241.982	0.1195	483964	keystroke_a	a	n/a
242.1165	0.18	484233	keystroke_i	i	n/a
242.2515	0.15	484503	keystroke_l	l	n/a
242.5215	0.1195	485043	keystroke_Key.space	Key.space	n/a
242.971	0.106	485942	keystroke_l	l	n/a
243.272	0.15	486544	keystroke_t	t	n/a
243.8865	0.12	487773	keystroke_Key.backspace	Key.backspace	n/a
244.0815	0.0905	488163	keystroke_y	y	n/a
244.8165	0.075	489633	keystroke_r	r	n/a
245.147	0.089	490294	keystroke_i	i	n/a
245.536	0.0905	491072	keystroke_c	c	n/a
246.0315	0.075	492063	keystroke_Key.space	Key.space	n/a
246.302	0.0895	492604	keystroke_i	i	n/a
246.5115	0.09	493023	keystroke_n	n	n/a
246.6765	0.12	493353	keystroke_n	n	n/a
246.781	0.241	493562	keystroke_e	e	n/a
246.9165	0.15	493833	keystroke_r	r	n/a
247.231	0.1355	494462	keystroke_Key.space	Key.space	n/a
248.611	0.0905	497222	keystroke_s	s	n/a
248.762	0.09	497524	keystroke_h	h	n/a
249.272	0.089	498544	keystroke_o	o	n/a
249.437	0.12	498874	keystroke_w	w	n/a
249.886	0.1055	499772	keystroke_t	t	n/a
250.0665	0.1055	500133	keystroke_i	i	n/a
251.147	0.15	502294	keystroke_m	m	n/a
251.297	0.09	502594	keystroke_e	e	n/a
251.612	0.15	503224	keystroke_s	s	n/a
252.181	0.105	504362	keystroke_Key.enter	Key.enter	n/a
252.292	10.2565	504584	prompt	n/a	lingerie mature tolerance michelle\n
253.697	0.105	507394	keystroke_l	l	n/a
253.8915	0.0605	507783	keystroke_i	i	n/a
254.086	0.1355	508172	keystroke_n	n	n/a
254.2965	0.075	508593	keystroke_g	g	n/a
254.461	0.03	508922	keystroke_e	e	n/a
254.566	0.165	509132	keystroke_r	r	n/a
254.761	0.121	509522	keystroke_i	i	n/a
254.912	0.1195	509824	keystroke_e	e	n/a
255.1365	0.12	510273	keystroke_Key.space	Key.space	n/a
255.5415	0.105	511083	keystroke_m	m	n/a
255.6615	0.2255	511323	keystroke_a	a	n/a
255.842	0.105	511684	keystroke_t	t	n/a
256.097	0.09	512194	keystroke_u	u	n/a
256.232	0.149	512464	keystroke_r	r	n/a
256.3665	0.1195	512733	keystroke_e	e	n/a
256.5465	0.0895	513093	keystroke_Key.space	Key.space	n/a
257.0115	0.09	514023	keystroke_t	t	n/a
257.5215	0.06	515043	keystroke_o	o	n/a
257.8665	0.105	515733	keystroke_e	e	n/a
258.4215	0.09	516843	keystroke_Key.backspace	Key.backspace	n/a
258.737	0.1345	517474	keystroke_l	l	n/a
258.9165	0.21	517833	keystroke_e	e	n/a
259.0665	0.105	518133	keystroke_r	r	n/a
259.3965	0.12	518793	keystroke_a	a	n/a
259.6665	0.1355	519333	keystroke_n	n	n/a
259.8465	0.15	519693	keystroke_c	c	n/a
260.0115	0.105	520023	keystroke_e	e	n/a
260.5815	0.12	521163	keystroke_Key.space	Key.space	n/a
261.002	0.1195	522004	keystroke_m	m	n/a
261.271	0.1055	522542	keystroke_i	i	n/a
261.452	0.1045	522904	keystroke_c	c	n/a
261.601	0.09	523202	keystroke_h	h	n/a
261.722	0.164	523444	keystroke_e	e	n/a
261.932	0.105	523864	keystroke_l	l	n/a
262.1115	0.105	524223	keystroke_l	l	n/a
262.2615	0.075	524523	keystroke_e	e	n/a
262.441	0.105	524882	keystroke_Key.enter	Key.enter	n/a
262.5515	16.992	525103	prompt	n/a	occasion relates dramatically reproduced\n
263.686	0.12	527372	keystroke_o	o	n/a
263.8665	0.075	527733	keystroke_c	c	n/a
264.047	0.075	528094	keystroke_c	c	n/a
264.2415	0.0905	528483	keystroke_a	a	n/a
264.9165	0.1195	529833	keystroke_s	s	n/a
265.1265	0.1355	530253	keystroke_i	i	n/a
265.247	0.165	530494	keystroke_o	o	n/a
265.337	0.149	530674	keystroke_n	n	n/a
265.8165	0.1345	531633	keystroke_Key.space	Key.space	n/a
266.191	0.1355	532382	keystroke_r	r	n/a
266.341	0.1355	532682	keystroke_e	e	n/a
266.9415	0.12	533883	keystroke_l	l	n/a
267.0465	0.1945	534093	keystroke_a	a	n/a
267.2265	0.1045	534453	keystroke_t	t	n/a
267.421	0.1205	534842	keystroke_e	e	n/a
267.9615	0.1055	535923	keystroke_s	s	n/a
268.6065	0.135	537213	keystroke_Key.space	Key.space	n/a
269.537	0.1645	539074	keystroke_d	d	n/a
269.7765	0.12	539553	keystroke_r	r	n/a
270.361	0.121	540722	keystroke_a	a	n/a
270.811	0.15	541622	keystroke_m	m	n/a
271.0665	0.135	542133	keystroke_a	a	n/a
271.7115	0.09	543423	keystroke_t	t	n/a
271.9665	0.09	543933	keystroke_i	i	n/a
272.1165	0.12	544233	keystroke_c	c	n/a
272.3265	0.12	544653	keystroke_a	a	n/a
272.4315	0.06	544863	keystroke_k	k	n/a
272.6265	0.1195	545253	keystroke_k	k	n/a
273.0915	0.075	546183	keystroke_Key.backspace	Key.backspace	n/a
273.2415	0.0895	546483	keystroke_Key.backspace	Key.backspace	n/a
273.9465	0.075	547893	keystroke_l	l	n/a
274.0965	0.09	548193	keystroke_l	l	n/a
274.2015	0.105	548403	keystroke_y	y	n/a
274.936	0.12	549872	keystroke_Key.space	Key.space	n/a
275.2965	0.12	550593	keystroke_r	r	n/a
275.5215	0.135	551043	keystroke_e	e	n/a
276.6315	0.09	553263	keystroke_p	p	n/a
276.8565	0.075	553713	keystroke_r	r	n/a
277.562	0.105	555124	keystroke_o	o	n/a
277.907	0.09	555814	keystroke_d	d	n/a
278.102	0.119	556204	keystroke_u	u	n/a
278.251	0.1055	556502	keystroke_c	c	n/a
278.506	0.075	557012	keystroke_e	e	n/a
278.7015	0.135	557403	keystroke_d	d	n/a
279.3765	0.165	558753	keystroke_Key.enter	Key.enter	n/a
279.547	11.126	559094	prompt	n/a	trustee cuba associations madison\n
280.9665	0.09	561933	keystroke_t	t	n/a
281.221	0.0755	562442	keystroke_r	r	n/a
281.3865	0.105	562773	keystroke_u	u	n/a
281.5515	0.135	563103	keystroke_s	s	n/a
281.8515	0.1055	563703	keystroke_t	t	n/a
282.0165	0.1055	564033	keystroke_e	e	n/a
282.211	0.121	564422	keystroke_e	e	n/a
282.6165	0.15	565233	keystroke_Key.space	Key.space	n/a
283.5915	0.135	567183	keystroke_c	c	n/a
283.742	0.1045	567484	keystroke_u	u	n/a
284.011	0.121	568022	keystroke_b	b	n/a
284.206	0.136	568412	keystroke_a	a	n/a
284.521	0.1205	569042	keystroke_Key.space	Key.space	n/a
284.8365	0.1195	569673	keystroke_a	a	n/a
285.1815	0.15	570363	keystroke_s	s	n/a
285.3765	0.135	570753	keystroke_s	s	n/a
286.2765	0.09	572553	keystroke_o	o	n/a
286.5015	0.15	573003	keystroke_c	c	n/a
286.712	0.0745	573424	keystroke_i	i	n/a
286.8465	0.1505	573693	keystroke_a	a	n/a
286.9815	0.1045	573963	keystroke_t	t	n/a
287.1765	0.12	574353	keystroke_i	i	n/a
287.3115	0.15	574623	keystroke_o	o	n/a
287.387	0.15	574774	keystroke_n	n	n/a
287.6115	0.1355	575223	keystroke_s	s	n/a
288.0765	0.105	576153	keystroke_Key.space	Key.space	n/a
288.5865	0.15	577173	keystroke_m	m	n/a
288.751	0.1055	577502	keystroke_a	a	n/a
289.066	0.1355	578132	keystroke_d	d	n/a
289.2315	0.135	578463	keystroke_i	i	n/a
289.3815	0.195	578763	keystroke_s	s	n/a
289.5165	0.105	579033	keystroke_o	o	n/a
289.757	0.104	579514	keystroke_n	n	n/a
290.6565	0.015	581313	keystroke_Key.enter	Key.enter	n/a
290.679	16.704	581358	prompt	n/a	follow bend uncle selected\n
292.036	0.091	584072	keystroke_f	f	n/a
292.2015	0.0895	584403	keystroke_o	o	n/a
292.622	0.0145	585244	keystroke_l	l	n/a
293.657	0.1045	587314	keystroke_l	l	n/a
295.9075	0.074	591815	keystroke_o	o	n/a
295.9965	0.0155	591993	keystroke_w	w	n/a
297.2415	0.105	594483	keystroke_Key.space	Key.space	n/a
297.7515	0.1355	595503	keystroke_b	b	n/a
297.8715	0.1055	595743	keystroke_e	e	n/a
298.187	0.105	596374	keystroke_n	n	n/a
298.382	0.12	596764	keystroke_d	d	n/a
298.816	0.12	597632	keystroke_Key.space	Key.space	n/a
299.3115	0.09	598623	keystroke_u	u	n/a
299.657	0.105	599314	keystroke_n	n	n/a
300.661	0.091	601322	keystroke_c	c	n/a
301.186	0.091	602372	keystroke_l	l	n/a
301.292	0.1195	602584	keystroke_e	e	n/a
301.877	0.105	603754	keystroke_Key.space	Key.space	n/a
304.893	0.029	609786	keystroke_s	s	n/a
305.5065	0.0905	611013	keystroke_e	e	n/a
305.7165	0.0755	611433	keystroke_l	l	n/a
305.897	0.089	611794	keystroke_e	e	n/a
306.1065	0.0755	612213	keystroke_c	c	n/a
306.362	0.0745	612724	keystroke_t	t	n/a
306.512	0.1045	613024	keystroke_e	e	n/a
306.7965	0.09	613593	keystroke_d	d	n/a
307.2765	0.105	614553	keystroke_Key.enter	Key.enter	n/a
307.387	10.0915	614774	prompt	n/a	result their dover court\n
308.401	0.105	616802	keystroke_r	r	n/a
308.5365	0.1045	617073	keystroke_e	e	n/a
308.822	0.0895	617644	keystroke_s	s	n/a
308.9565	0.12	617913	keystroke_u	u	n/a
309.347	0.075	618694	keystroke_t	t	n/a
310.3665	0.12	620733	keystroke_Key.backspace	Key.backspace	n/a
311.1765	0.0455	622353	keystroke_l	l	n/a
311.5065	0.075	623013	keystroke_t	t	n/a
311.8665	0.12	623733	keystroke_Key.space	Key.space	n/a
312.182	0.09	624364	keystroke_t	t	n/a
312.317	0.135	624634	keystroke_h	h	n/a
312.467	0.135	624934	keystroke_e	e	n/a
312.632	0.134	625264	keystroke_i	i	n/a
312.752	0.104	625504	keystroke_r	r	n/a
313.0665	0.135	626133	keystroke_Key.space	Key.space	n/a
313.847	0.12	627694	keystroke_d	d	n/a
314.132	0.1345	628264	keystroke_o	o	n/a
314.372	0.075	628744	keystroke_v	v	n/a
314.761	0.1355	629522	keystroke_e	e	n/a
314.9265	0.105	629853	keystroke_r	r	n/a
315.391	0.12	630782	keystroke_Key.space	Key.space	n/a
315.6615	0.1205	631323	keystroke_c	c	n/a
316.292	0.0895	632584	keystroke_o	o	n/a
316.3665	0.135	632733	keystroke_u	u	n/a
316.5165	0.1055	633033	keystroke_r	r	n/a
316.742	0.075	633484	keystroke_t	t	n/a
317.4015	0.075	634803	keystroke_Key.enter	Key.enter	n/a
317.483	15.5955	634966	prompt	n/a	springer bean diagnostic collapse\n
318.6015	0.0895	637203	keystroke_s	s	n/a
318.782	0.075	637564	keystroke_p	p	n/a
318.932	0.06	637864	keystroke_r	r	n/a
319.516	0.121	639032	keystroke_i	i	n/a
319.801	0.135	639602	keystroke_n	n	n/a
319.922	0.075	639844	keystroke_g	g	n/a
320.192	0.09	640384	keystroke_e	e	n/a
320.297	0.1045	640594	keystroke_r	r	n/a
320.566	0.1205	641132	keystroke_Key.space	Key.space	n/a
320.881	0.135	641762	keystroke_b	b	n/a
321.046	0.105	642092	keystroke_e	e	n/a
321.272	0.075	642544	keystroke_s	s	n/a
321.886	0.09	643772	keystroke_Key.backspace	Key.backspace	n/a
322.0525	0.149	644105	keystroke_a	a	n/a
323.1465	0.0905	646293	keystroke_n	n	n/a
323.5515	0.12	647103	keystroke_Key.space	Key.space	n/a
324.077	0.119	648154	keystroke_d	d	n/a
324.842	0.12	649684	keystroke_i	i	n/a
324.9765	0.15	649953	keystroke_a	a	n/a
325.231	0.0755	650462	keystroke_g	g	n/a
325.456	0.135	650912	keystroke_n	n	n/a
325.651	0.12	651302	keystroke_o	o	n/a
326.7165	0.06	653433	keystroke_s	s	n/a
327.0315	0.09	654063	keystroke_t	t	n/a
327.2115	0.1055	654423	keystroke_i	i	n/a
327.527	0.1495	655054	keystroke_c	c	n/a
328.0665	0.1345	656133	keystroke_Key.space	Key.space	n/a
329.1615	0.1505	658323	keystroke_c	c	n/a
329.6265	0.105	659253	keystroke_o	o	n/a
330.0015	0.12	660003	keystroke_l	l	n/a
330.1815	0.0905	660363	keystroke_l	l	n/a
331.441	0.12	662882	keystroke_a	a	n/a
332.206	0.106	664412	keystroke_p	p	n/a
332.371	0.121	664742	keystroke_s	s	n/a
332.6415	0.1355	665283	keystroke_e	e	n/a
332.956	0.12	665912	keystroke_Key.enter	Key.enter	n/a
333.0815	11.081	666163	prompt	n/a	inputs shuttle selecting frames\n
334.5315	0.0605	669063	keystroke_i	i	n/a
334.8015	0.1055	669603	keystroke_n	n	n/a
335.0865	0.0745	670173	keystroke_p	p	n/a
335.371	0.106	670742	keystroke_u	u	n/a
335.6115	0.0445	671223	keystroke_t	t	n/a
335.806	0.0905	671612	keystroke_s	s	n/a
336.4665	0.135	672933	keystroke_Key.space	Key.space	n/a
337.216	0.1205	674432	keystroke_s	s	n/a
337.426	0.0605	674852	keystroke_h	h	n/a
337.5465	0.105	675093	keystroke_u	u	n/a
337.6365	0.075	675273	keystroke_t	t	n/a
337.816	0.061	675632	keystroke_t	t	n/a
338.0115	0.0745	676023	keystroke_l	l	n/a
338.206	0.0905	676412	keystroke_e	e	n/a
338.7165	0.1345	677433	keystroke_Key.space	Key.space	n/a
339.406	0.075	678812	keystroke_s	s	n/a
339.5715	0.105	679143	keystroke_e	e	n/a
339.751	0.0905	679502	keystroke_l	l	n/a
339.8565	0.105	679713	keystroke_e	e	n/a
340.1415	0.105	680283	keystroke_c	c	n/a
340.4715	0.105	680943	keystroke_t	t	n/a
340.6365	0.09	681273	keystroke_i	i	n/a
340.801	0.135	681602	keystroke_n	n	n/a
340.9215	0.1195	681843	keystroke_g	g	n/a
341.176	0.105	682352	keystroke_Key.space	Key.space	n/a
342.2265	0.089	684453	keystroke_f	f	n/a
342.4365	0.09	684873	keystroke_r	r	n/a
342.7665	0.105	685533	keystroke_a	a	n/a
343.0215	0.195	686043	keystroke_m	m	n/a
343.2315	0.12	686463	keystroke_e	e	n/a
343.5015	0.12	687003	keystroke_s	s	n/a
344.071	0.09	688142	keystroke_Key.enter	Key.enter	n/a
344.166	7.707	688332	prompt	n/a	date trust because started\n
345.406	0.135	690812	keystroke_d	d	n/a
345.602	0.179	691204	keystroke_a	a	n/a
345.8265	0.0895	691653	keystroke_t	t	n/a
346.0215	0.135	692043	keystroke_e	e	n/a
346.2755	0.1055	692551	keystroke_Key.space	Key.space	n/a
346.5315	0.0745	693063	keystroke_t	t	n/a
346.7415	0.09	693483	keystroke_r	r	n/a
346.8915	0.105	693783	keystroke_u	u	n/a
347.056	0.09	694112	keystroke_s	s	n/a
347.311	0.09	694622	keystroke_t	t	n/a
347.506	0.12	695012	keystroke_Key.space	Key.space	n/a
348.136	0.165	696272	keystroke_b	b	n/a
348.286	0.12	696572	keystroke_e	e	n/a
348.5715	0.1055	697143	keystroke_c	c	n/a
348.9015	0.135	697803	keystroke_a	a	n/a
349.1865	0.1345	698373	keystroke_u	u	n/a
349.3665	0.044	698733	keystroke_s	s	n/a
349.4865	0.135	698973	keystroke_e	e	n/a
350.1915	0.0895	700383	keystroke_Key.space	Key.space	n/a
350.417	0.134	700834	keystroke_s	s	n/a
350.627	0.104	701254	keystroke_t	t	n/a
350.8365	0.18	701673	keystroke_a	a	n/a
350.926	0.1055	701852	keystroke_r	r	n/a
351.1365	0.075	702273	keystroke_t	t	n/a
351.2715	0.1045	702543	keystroke_e	e	n/a
351.5115	0.105	703023	keystroke_d	d	n/a
351.736	0.135	703472	keystroke_Key.enter	Key.enter	n/a
351.877	11.6665	703754	prompt	n/a	italian stones decided anticipated\n
352.9665	0.1345	705933	keystroke_u	u	n/a
353.056	0.135	706112	keystroke_t	t	n/a
353.3115	0.1495	706623	keystroke_a	a	n/a
353.8665	0.075	707733	keystroke_Key.backspace	Key.backspace	n/a
354.0615	0.194	708123	keystroke_Key.backspace	Key.backspace	n/a
354.4815	0.0895	708963	keystroke_Key.backspace	Key.backspace	n/a
355.096	0.1505	710192	keystroke_i	i	n/a
355.381	0.075	710762	keystroke_t	t	n/a
355.5915	0.1795	711183	keystroke_a	a	n/a
355.786	0.09	711572	keystroke_l	l	n/a
355.996	0.09	711992	keystroke_i	i	n/a
356.116	0.165	712232	keystroke_a	a	n/a
356.296	0.1355	712592	keystroke_n	n	n/a
356.791	0.1355	713582	keystroke_Key.space	Key.space	n/a
357.1665	0.135	714333	keystroke_s	s	n/a
357.481	0.09	714962	keystroke_t	t	n/a
357.6305	0.076	715261	keystroke_o	o	n/a
357.826	0.121	715652	keystroke_n	n	n/a
357.931	0.075	715862	keystroke_e	e	n/a
358.4715	0.12	716943	keystroke_s	s	n/a
358.996	0.1355	717992	keystroke_Key.space	Key.space	n/a
359.356	0.0605	718712	keystroke_d	d	n/a
359.5355	0.106	719071	keystroke_e	e	n/a
359.7915	0.12	719583	keystroke_c	c	n/a
359.9715	0.135	719943	keystroke_i	i	n/a
360.0915	0.09	720183	keystroke_d	d	n/a
360.286	0.1055	720572	keystroke_e	e	n/a
360.5115	0.1195	721023	keystroke_d	d	n/a
360.751	0.0905	721502	keystroke_Key.space	Key.space	n/a
361.291	0.15	722582	keystroke_a	a	n/a
361.6665	0.1345	723333	keystroke_n	n	n/a
361.8315	0.0745	723663	keystroke_t	t	n/a
362.0115	0.0895	724023	keystroke_i	i	n/a
362.2365	0.105	724473	keystroke_c	c	n/a
362.3715	0.135	724743	keystroke_i	i	n/a
362.6115	0.12	725223	keystroke_p	p	n/a
362.7465	0.165	725493	keystroke_a	a	n/a
362.8665	0.1345	725733	keystroke_t	t	n/a
363.0615	0.12	726123	keystroke_e	e	n/a
363.3165	0.105	726633	keystroke_d	d	n/a
363.4365	0.105	726873	keystroke_Key.enter	Key.enter	n/a
363.548	11.6055	727096	prompt	n/a	turn kinase compound menu\n
364.786	0.075	729572	keystroke_t	t	n/a
364.9665	0.09	729933	keystroke_u	u	n/a
365.116	0.0905	730232	keystroke_r	r	n/a
365.2815	0.1195	730563	keystroke_n	n	n/a
365.551	0.105	731102	keystroke_Key.space	Key.space	n/a
366.4955	0.136	732991	keystroke_i	i	n/a
367.036	0.105	734072	keystroke_Key.backspace	Key.backspace	n/a
367.7415	0.12	735483	keystroke_k	k	n/a
368.0115	0.0745	736023	keystroke_i	i	n/a
368.1915	0.1045	736383	keystroke_n	n	n/a
368.356	0.106	736712	keystroke_a	a	n/a
368.596	0.135	737192	keystroke_s	s	n/a
368.806	0.1355	737612	keystroke_e	e	n/a
369.001	0.1205	738002	keystroke_Key.space	Key.space	n/a
369.5715	0.09	739143	keystroke_c	c	n/a
369.7365	0.12	739473	keystroke_o	o	n/a
369.9615	0.135	739923	keystroke_m	m	n/a
370.276	0.15	740552	keystroke_p	p	n/a
370.6815	0.1045	741363	keystroke_o	o	n/a
371.5515	0.0745	743103	keystroke_u	u	n/a
371.7465	0.12	743493	keystroke_n	n	n/a
371.9865	0.135	743973	keystroke_d	d	n/a
372.241	0.1205	744482	keystroke_Key.space	Key.space	n/a
372.856	0.12	745712	keystroke_m	m	n/a
372.977	0.119	745954	keystroke_e	e	n/a
373.276	0.1355	746552	keystroke_u	u	n/a
374.0865	0.12	748173	keystroke_Key.backspace	Key.backspace	n/a
374.4765	0.135	748953	keystroke_n	n	n/a
374.7165	0.12	749433	keystroke_u	u	n/a
375.0315	0.12	750063	keystroke_Key.enter	Key.enter	n/a
375.158	12.311	750316	prompt	n/a	variance struggle magnificent mall\n
376.411	0.09	752822	keystroke_v	v	n/a
376.921	0.1355	753842	keystroke_a	a	n/a
377.072	0.1195	754144	keystroke_r	r	n/a
377.2815	0.1045	754563	keystroke_i	i	n/a
377.521	0.135	755042	keystroke_a	a	n/a
377.686	0.1505	755372	keystroke_n	n	n/a
377.8665	0.1805	755733	keystroke_c	c	n/a
378.001	0.135	756002	keystroke_e	e	n/a
378.196	0.105	756392	keystroke_Key.space	Key.space	n/a
378.496	0.1205	756992	keystroke_s	s	n/a
378.7065	0.075	757413	keystroke_t	t	n/a
378.8865	0.0895	757773	keystroke_r	r	n/a
379.051	0.135	758102	keystroke_u	u	n/a
379.951	0.0605	759902	keystroke_g	g	n/a
380.116	0.0755	760232	keystroke_g	g	n/a
380.596	0.09	761192	keystroke_l	l	n/a
380.747	0.1195	761494	keystroke_e	e	n/a
381.5415	0.12	763083	keystroke_Key.space	Key.space	n/a
382.021	0.1355	764042	keystroke_m	m	n/a
382.171	0.165	764342	keystroke_a	a	n/a
382.4415	0.1045	764883	keystroke_g	g	n/a
382.636	0.12	765272	keystroke_n	n	n/a
383.731	0.105	767462	keystroke_i	i	n/a
384.0615	0.1045	768123	keystroke_f	f	n/a
384.241	0.1055	768482	keystroke_i	i	n/a
384.6165	0.105	769233	keystroke_c	c	n/a
384.8415	0.1655	769683	keystroke_e	e	n/a
385.021	0.1205	770042	keystroke_n	n	n/a
385.156	0.1355	770312	keystroke_t	t	n/a
385.396	0.1055	770792	keystroke_Key.space	Key.space	n/a
386.4005	0.1205	772801	keystroke_m	m	n/a
386.551	0.1355	773102	keystroke_a	a	n/a
386.8365	0.075	773673	keystroke_l	l	n/a
387.0315	0.06	774063	keystroke_l	l	n/a
387.3465	0.1195	774693	keystroke_Key.enter	Key.enter	n/a
387.4735	15.2655	774947	prompt	n/a	edge specialty pitch singer\n
388.501	0.0905	777002	keystroke_e	e	n/a
388.7855	0.106	777571	keystroke_d	d	n/a
389.0415	0.06	778083	keystroke_g	g	n/a
389.2065	0.135	778413	keystroke_e	e	n/a
389.686	0.12	779372	keystroke_Key.space	Key.space	n/a
390.5265	0.075	781053	keystroke_s	s	n/a
391.156	0.12	782312	keystroke_p	p	n/a
391.532	0.1195	783064	keystroke_e	e	n/a
391.9065	0.12	783813	keystroke_c	c	n/a
392.3115	0.1505	784623	keystroke_i	i	n/a
392.5365	0.15	785073	keystroke_a	a	n/a
392.7615	0.0905	785523	keystroke_l	l	n/a
393.1815	0.09	786363	keystroke_i	i	n/a
393.5565	0.105	787113	keystroke_t	t	n/a
393.8415	0.075	787683	keystroke_y	y	n/a
394.4555	0.121	788911	keystroke_Key.space	Key.space	n/a
395.0415	0.105	790083	keystroke_p	p	n/a
395.7155	0.135	791431	keystroke_Key.backspace	Key.backspace	n/a
395.9715	0.06	791943	keystroke_Key.backspace	Key.backspace	n/a
396.226	0.12	792452	keystroke_Key.backspace	Key.backspace	n/a
396.556	0.15	793112	keystroke_Key.backspace	Key.backspace	n/a
397.3965	0.0895	794793	keystroke_t	t	n/a
397.6065	0.075	795213	keystroke_y	y	n/a
398.2055	0.12	796411	keystroke_Key.space	Key.space	n/a
398.9115	0.12	797823	keystroke_p	p	n/a
399.256	0.09	798512	keystroke_i	i	n/a
399.3765	0.075	798753	keystroke_t	t	n/a
399.766	0.12	799532	keystroke_c	c	n/a
399.9315	0.12	799863	keystroke_h	h	n/a
400.126	0.12	800252	keystroke_Key.space	Key.space	n/a
400.7565	0.0895	801513	keystroke_s	s	n/a
400.937	0.1045	801874	keystroke_i	i	n/a
401.1615	0.12	802323	keystroke_n	n	n/a
401.356	0.0605	802712	keystroke_g	g	n/a
401.506	0.18	803012	keystroke_e	e	n/a
401.672	0.12	803344	keystroke_r	r	n/a
402.6305	0.105	805261	keystroke_Key.enter	Key.enter	n/a
402.7435	11.245	805487	prompt	n/a	pill caring warranty levels\n
404.1165	0.1195	808233	keystroke_p	p	n/a
404.4465	0.15	808893	keystroke_i	i	n/a
404.8215	0.075	809643	keystroke_l	l	n/a
405.001	0.091	810002	keystroke_l	l	n/a
405.4365	0.1345	810873	keystroke_Key.space	Key.space	n/a
405.8715	0.135	811743	keystroke_c	c	n/a
406.0965	0.1805	812193	keystroke_a	a	n/a
406.3215	0.09	812643	keystroke_r	r	n/a
407.2215	0.09	814443	keystroke_i	i	n/a
407.4165	0.1505	814833	keystroke_n	n	n/a
407.582	0.09	815164	keystroke_g	g	n/a
407.8955	0.15	815791	keystroke_Key.space	Key.space	n/a
408.707	0.0445	817414	keystroke_w	w	n/a
409.097	0.119	818194	keystroke_a	a	n/a
409.2915	0.1055	818583	keystroke_r	r	n/a
409.486	0.105	818972	keystroke_r	r	n/a
409.6815	0.1345	819363	keystroke_a	a	n/a
410.162	0.1345	820324	keystroke_n	n	n/a
410.3105	0.0905	820621	keystroke_t	t	n/a
410.5515	0.1345	821103	keystroke_y	y	n/a
410.791	0.12	821582	keystroke_Key.space	Key.space	n/a
411.3315	0.15	822663	keystroke_e	e	n/a
411.841	0.15	823682	keystroke_Key.backspace	Key.backspace	n/a
412.666	0.1355	825332	keystroke_l	l	n/a
412.7865	0.075	825573	keystroke_e	e	n/a
412.996	0.105	825992	keystroke_v	v	n/a
413.2665	0.105	826533	keystroke_e	e	n/a
413.476	0.1055	826952	keystroke_l	l	n/a
413.6565	0.075	827313	keystroke_s	s	n/a
413.8815	0.105	827763	keystroke_Key.enter	Key.enter	n/a
413.9935	13.705	827987	prompt	n/a	arrow opposition obtained devil\n
414.691	0.1505	829382	keystroke_a	a	n/a
414.916	0.09	829832	keystroke_r	r	n/a
415.097	0.089	830194	keystroke_r	r	n/a
415.7115	0.0745	831423	keystroke_p	p	n/a
416.4615	0.135	832923	keystroke_Key.backspace	Key.backspace	n/a
417.0015	0.105	834003	keystroke_o	o	n/a
417.301	0.1045	834602	keystroke_w	w	n/a
418.231	0.135	836462	keystroke_Key.space	Key.space	n/a
418.996	0.135	837992	keystroke_o	o	n/a
419.281	0.03	838562	keystroke_p	p	n/a
419.506	0.135	839012	keystroke_p	p	n/a
420.0165	0.1345	840033	keystroke_o	o	n/a
420.331	0.12	840662	keystroke_s	s	n/a
420.7365	0.09	841473	keystroke_i	i	n/a
420.8865	0.06	841773	keystroke_t	t	n/a
420.9915	0.165	841983	keystroke_i	i	n/a
421.1865	0.15	842373	keystroke_o	o	n/a
421.3065	0.15	842613	keystroke_n	n	n/a
422.011	0.1205	844022	keystroke_Key.space	Key.space	n/a
422.7915	0.12	845583	keystroke_o	o	n/a
423.4365	0.1045	846873	keystroke_b	b	n/a
423.856	0.1205	847712	keystroke_t	t	n/a
424.0965	0.15	848193	keystroke_a	a	n/a
424.2615	0.075	848523	keystroke_i	i	n/a
424.5015	0.135	849003	keystroke_n	n	n/a
424.8915	0.0895	849783	keystroke_e	e	n/a
425.131	0.105	850262	keystroke_d	d	n/a
425.341	0.105	850682	keystroke_Key.space	Key.space	n/a
425.521	0.09	851042	keystroke_d	d	n/a
425.7315	0.15	851463	keystroke_e	e	n/a
426.5265	0.1345	853053	keystroke_v	v	n/a
426.7815	0.09	853563	keystroke_i	i	n/a
426.976	0.09	853952	keystroke_l	l	n/a
427.6065	0.09	855213	keystroke_Key.enter	Key.enter	n/a
427.702	10.0615	855404	prompt	n/a	diary negative break madness\n
429.4515	0.15	858903	keystroke_d	d	n/a
429.872	0.104	859744	keystroke_i	i	n/a
429.977	0.209	859954	keystroke_a	a	n/a
430.1565	0.12	860313	keystroke_r	r	n/a
430.5615	0.1045	861123	keystroke_y	y	n/a
431.056	0.105	862112	keystroke_Key.space	Key.space	n/a
431.987	0.119	863974	keystroke_n	n	n/a
432.076	0.1505	864152	keystroke_e	e	n/a
432.406	0.1055	864812	keystroke_g	g	n/a
432.631	0.15	865262	keystroke_a	a	n/a
432.8265	0.0445	865653	keystroke_t	t	n/a
433.007	0.0895	866014	keystroke_i	i	n/a
433.1705	0.091	866341	keystroke_v	v	n/a
433.426	0.06	866852	keystroke_e	e	n/a
433.801	0.1355	867602	keystroke_Key.space	Key.space	n/a
434.146	0.106	868292	keystroke_b	b	n/a
434.297	0.164	868594	keystroke_r	r	n/a
434.4315	0.1495	868863	keystroke_e	e	n/a
434.687	0.1345	869374	keystroke_a	a	n/a
434.806	0.106	869612	keystroke_k	k	n/a
435.391	0.15	870782	keystroke_Key.space	Key.space	n/a
436.262	0.1185	872524	keystroke_m	m	n/a
436.3505	0.151	872701	keystroke_a	a	n/a
436.652	0.119	873304	keystroke_d	d	n/a
436.891	0.1355	873782	keystroke_n	n	n/a
437.041	0.1205	874082	keystroke_e	e	n/a
437.266	0.0755	874532	keystroke_s	s	n/a
437.4465	0.0895	874893	keystroke_s	s	n/a
437.641	0.1205	875282	keystroke_Key.enter	Key.enter	n/a
437.7665	20.6065	875533	prompt	n/a	investments transcript destiny correctly\n
439.0965	0.09	878193	keystroke_i	i	n/a
439.2915	0.1345	878583	keystroke_n	n	n/a
439.427	0.09	878854	keystroke_v	v	n/a
439.622	0.09	879244	keystroke_e	e	n/a
440.356	0.0895	880712	keystroke_s	s	n/a
440.581	0.0605	881162	keystroke_t	t	n/a
440.836	0.075	881672	keystroke_m	m	n/a
440.956	0.1205	881912	keystroke_e	e	n/a
441.256	0.12	882512	keystroke_n	n	n/a
441.361	0.0755	882722	keystroke_t	t	n/a
441.6315	0.1195	883263	keystroke_s	s	n/a
441.916	0.1205	883832	keystroke_Key.space	Key.space	n/a
442.337	0.0895	884674	keystroke_t	t	n/a
442.5315	0.105	885063	keystroke_r	r	n/a
443.0415	0.12	886083	keystroke_a	a	n/a
443.371	0.1355	886742	keystroke_n	n	n/a
443.5965	0.18	887193	keystroke_s	s	n/a
450.753	0.028	901506	keystroke_c	c	n/a
451.3965	0.0605	902793	keystroke_r	r	n/a
451.831	0.1205	903662	keystroke_i	i	n/a
452.0865	0.1205	904173	keystroke_p	p	n/a
452.2215	0.075	904443	keystroke_t	t	n/a
452.671	0.135	905342	keystroke_Key.space	Key.space	n/a
453.2115	0.075	906423	keystroke_d	d	n/a
453.407	0.12	906814	keystroke_e	e	n/a
453.631	0.091	907262	keystroke_s	s	n/a
454.022	0.0595	908044	keystroke_t	t	n/a
454.306	0.091	908612	keystroke_i	i	n/a
454.456	0.1505	908912	keystroke_n	n	n/a
454.741	0.106	909482	keystroke_y	y	n/a
455.371	0.1205	910742	keystroke_Key.space	Key.space	n/a
455.927	0.0895	911854	keystroke_c	c	n/a
456.107	0.12	912214	keystroke_o	o	n/a
456.317	0.029	912634	keystroke_r	r	n/a
456.452	0.075	912904	keystroke_r	r	n/a
456.557	0.105	913114	keystroke_e	e	n/a
456.7365	0.1055	913473	keystroke_c	c	n/a
457.067	0.1045	914134	keystroke_t	t	n/a
457.2465	0.12	914493	keystroke_l	l	n/a
457.3365	0.105	914673	keystroke_y	y	n/a
458.2365	0.1345	916473	keystroke_Key.enter	Key.enter	n/a
458.377	9.1765	916754	prompt	n/a	provides cite gamma bradford\n
459.7815	0.135	919563	keystroke_p	p	n/a
460.1715	0.0745	920343	keystroke_r	r	n/a
460.441	0.135	920882	keystroke_o	o	n/a
460.7275	0.0895	921455	keystroke_v	v	n/a
460.966	0.135	921932	keystroke_i	i	n/a
461.116	0.1055	922232	keystroke_d	d	n/a
461.327	0.119	922654	keystroke_e	e	n/a
461.566	0.091	923132	keystroke_s	s	n/a
461.791	0.1355	923582	keystroke_Key.space	Key.space	n/a
462.1665	0.1355	924333	keystroke_c	c	n/a
462.3465	0.1355	924693	keystroke_i	i	n/a
462.497	0.075	924994	keystroke_t	t	n/a
462.677	0.1045	925354	keystroke_e	e	n/a
462.872	0.119	925744	keystroke_Key.space	Key.space	n/a
463.337	0.1045	926674	keystroke_g	g	n/a
463.5615	0.1355	927123	keystroke_a	a	n/a
463.831	0.046	927662	keystroke_m	m	n/a
464.087	0.0895	928174	keystroke_m	m	n/a
464.207	0.1195	928414	keystroke_a	a	n/a
464.7165	0.1345	929433	keystroke_Key.space	Key.space	n/a
465.2715	0.135	930543	keystroke_b	b	n/a
465.377	0.12	930754	keystroke_r	r	n/a
465.557	0.15	931114	keystroke_a	a	n/a
465.9165	0.0745	931833	keystroke_d	d	n/a
466.8615	0.0605	933723	keystroke_f	f	n/a
466.997	0.1345	933994	keystroke_o	o	n/a
467.1015	0.075	934203	keystroke_r	r	n/a
467.2825	0.149	934565	keystroke_d	d	n/a
467.4615	0.0905	934923	keystroke_Key.enter	Key.enter	n/a
467.557	12.072	935114	prompt	n/a	shoot appearing scientists numbers\n
468.7365	0.1205	937473	keystroke_s	s	n/a
468.872	0.1045	937744	keystroke_h	h	n/a
469.3825	0.0745	938765	keystroke_o	o	n/a
469.997	0.104	939994	keystroke_o	o	n/a
470.132	0.06	940264	keystroke_t	t	n/a
470.327	0.135	940654	keystroke_Key.space	Key.space	n/a
470.522	0.15	941044	keystroke_a	a	n/a
470.717	0.09	941434	keystroke_p	p	n/a
470.897	0.09	941794	keystroke_p	p	n/a
471.077	0.165	942154	keystroke_e	e	n/a
471.272	0.18	942544	keystroke_a	a	n/a
471.4675	0.0895	942935	keystroke_r	r	n/a
471.692	0.12	943384	keystroke_i	i	n/a
472.037	0.09	944074	keystroke_g	g	n/a
472.502	0.075	945004	keystroke_Key.backspace	Key.backspace	n/a
472.817	0.15	945634	keystroke_n	n	n/a
472.982	0.075	945964	keystroke_g	g	n/a
473.146	0.1355	946292	keystroke_Key.space	Key.space	n/a
474.347	0.09	948694	keystroke_s	s	n/a
474.9915	0.12	949983	keystroke_c	c	n/a
475.352	0.105	950704	keystroke_i	i	n/a
475.442	0.15	950884	keystroke_e	e	n/a
475.622	0.134	951244	keystroke_n	n	n/a
475.787	0.075	951574	keystroke_t	t	n/a
475.951	0.105	951902	keystroke_i	i	n/a
476.102	0.104	952204	keystroke_s	s	n/a
476.326	0.076	952652	keystroke_t	t	n/a
477.001	0.1355	954002	keystroke_s	s	n/a
477.242	0.135	954484	keystroke_Key.space	Key.space	n/a
477.557	0.12	955114	keystroke_n	n	n/a
477.752	0.105	955504	keystroke_u	u	n/a
478.547	0.135	957094	keystroke_m	m	n/a
478.787	0.1345	957574	keystroke_b	b	n/a
478.877	0.18	957754	keystroke_e	e	n/a
479.057	0.12	958114	keystroke_r	r	n/a
479.312	0.15	958624	keystroke_s	s	n/a
479.521	0.106	959042	keystroke_Key.enter	Key.enter	n/a
479.6325	18.2965	959265	prompt	n/a	buildings upper indicators hotmail\n
480.962	0.0895	961924	keystroke_b	b	n/a
481.2915	0.0905	962583	keystroke_u	u	n/a
481.4865	0.105	962973	keystroke_i	i	n/a
481.772	0.0895	963544	keystroke_l	l	n/a
481.952	0.0905	963904	keystroke_d	d	n/a
482.972	0.0895	965944	keystroke_i	i	n/a
483.197	0.135	966394	keystroke_n	n	n/a
483.3165	0.046	966633	keystroke_g	g	n/a
483.5115	0.135	967023	keystroke_s	s	n/a
486.004	0.013	972008	keystroke_Key.space	Key.space	n/a
486.542	0.119	973084	keystroke_u	u	n/a
486.842	0.2545	973684	keystroke_p	p	n/a
487.441	0.1055	974882	keystroke_p	p	n/a
487.592	0.1495	975184	keystroke_e	e	n/a
487.757	0.12	975514	keystroke_r	r	n/a
489.953	0.024	979906	keystroke_Key.space	Key.space	n/a
490.667	0.015	981334	keystroke_i	i	n/a
490.7715	0.12	981543	keystroke_n	n	n/a
490.982	0.105	981964	keystroke_d	d	n/a
491.147	0.105	982294	keystroke_i	i	n/a
491.3115	0.0895	982623	keystroke_c	c	n/a
491.5365	0.18	983073	keystroke_a	a	n/a
491.747	0.0895	983494	keystroke_t	t	n/a
492.3465	0.09	984693	keystroke_e	e	n/a
492.7665	0.12	985533	keystroke_Key.backspace	Key.backspace	n/a
493.157	0.1345	986314	keystroke_p	p	n/a
493.4415	0.075	986883	keystroke_r	r	n/a
493.786	0.09	987572	keystroke_Key.backspace	Key.backspace	n/a
493.9515	0.1055	987903	keystroke_Key.backspace	Key.backspace	n/a
494.687	0.135	989374	keystroke_o	o	n/a
495.197	0.09	990394	keystroke_r	r	n/a
495.452	0.1195	990904	keystroke_s	s	n/a
495.7215	0.1505	991443	keystroke_Key.space	Key.space	n/a
496.472	0.119	992944	keystroke_h	h	n/a
496.607	0.105	993214	keystroke_o	o	n/a
496.712	0.105	993424	keystroke_t	t	n/a
496.9215	0.1355	993843	keystroke_m	m	n/a
497.087	0.18	994174	keystroke_a	a	n/a
497.2215	0.135	994443	keystroke_i	i	n/a
497.507	0.075	995014	keystroke_l	l	n/a
497.807	0.12	995614	keystroke_Key.enter	Key.enter	n/a
497.9325	8.5765	995865	prompt	n/a	kids functional date denied\n
499.007	0.0895	998014	keystroke_k	k	n/a
499.232	0.0895	998464	keystroke_i	i	n/a
499.3365	0.045	998673	keystroke_d	d	n/a
499.5015	0.135	999003	keystroke_s	s	n/a
499.741	0.121	999482	keystroke_Key.space	Key.space	n/a
500.657	0.074	1001314	keystroke_f	f	n/a
500.837	0.075	1001674	keystroke_u	u	n/a
501.032	0.12	1002064	keystroke_n	n	n/a
501.197	0.105	1002394	keystroke_c	c	n/a
501.481	0.0755	1002962	keystroke_t	t	n/a
501.587	0.149	1003174	keystroke_i	i	n/a
501.707	0.1945	1003414	keystroke_o	o	n/a
501.8565	0.1355	1003713	keystroke_n	n	n/a
502.0515	0.1655	1004103	keystroke_a	a	n/a
502.232	0.12	1004464	keystroke_l	l	n/a
503.3115	0.135	1006623	keystroke_Key.space	Key.space	n/a
503.492	0.09	1006984	keystroke_d	d	n/a
503.6565	0.165	1007313	keystroke_a	a	n/a
503.8065	0.1055	1007613	keystroke_t	t	n/a
504.0315	0.1195	1008063	keystroke_e	e	n/a
504.391	0.1355	1008782	keystroke_Key.space	Key.space	n/a
505.3815	0.105	1010763	keystroke_d	d	n/a
505.5915	0.12	1011183	keystroke_e	e	n/a
505.6665	0.105	1011333	keystroke_n	n	n/a
505.9065	0.105	1011813	keystroke_i	i	n/a
506.0415	0.105	1012083	keystroke_e	e	n/a
506.2815	0.12	1012563	keystroke_d	d	n/a
506.3865	0.12	1012773	keystroke_Key.enter	Key.enter	n/a
506.5125	11.321	1013025	prompt	n/a	vessel whole grow casino\n
507.6615	0.075	1015323	keystroke_v	v	n/a
507.8865	0.1045	1015773	keystroke_e	e	n/a
508.3065	0.0605	1016613	keystroke_s	s	n/a
508.472	0.1045	1016944	keystroke_s	s	n/a
508.6665	0.15	1017333	keystroke_e	e	n/a
508.8315	0.135	1017663	keystroke_k	k	n/a
509.5065	0.09	1019013	keystroke_Key.backspace	Key.backspace	n/a
509.8515	0.105	1019703	keystroke_l	l	n/a
510.1215	0.12	1020243	keystroke_Key.space	Key.space	n/a
510.4065	0.1345	1020813	keystroke_w	w	n/a
510.5565	0.06	1021113	keystroke_h	h	n/a
510.8415	0.09	1021683	keystroke_i	i	n/a
511.6515	0.135	1023303	keystroke_Key.backspace	Key.backspace	n/a
512.4165	0.09	1024833	keystroke_o	o	n/a
512.6265	0.12	1025253	keystroke_l	l	n/a
512.7615	0.105	1025523	keystroke_e	e	n/a
512.9715	0.1195	1025943	keystroke_Key.space	Key.space	n/a
513.5565	0.0595	1027113	keystroke_g	g	n/a
513.7815	0.075	1027563	keystroke_r	r	n/a
513.9315	0.15	1027863	keystroke_o	o	n/a
514.097	0.09	1028194	keystroke_w	w	n/a
514.366	0.105	1028732	keystroke_Key.space	Key.space	n/a
515.3715	0.1195	1030743	keystroke_c	c	n/a
515.6565	0.12	1031313	keystroke_a	a	n/a
515.9715	0.0895	1031943	keystroke_s	s	n/a
516.1365	0.09	1032273	keystroke_i	i	n/a
516.5265	0.06	1033053	keystroke_o	o	n/a
516.962	0.09	1033924	keystroke_Key.backspace	Key.backspace	n/a
517.261	0.135	1034522	keystroke_n	n	n/a
517.4265	0.15	1034853	keystroke_o	o	n/a
517.7265	0.105	1035453	keystroke_Key.enter	Key.enter	n/a
517.8375	10.9475	1035675	prompt	n/a	popularity bowl good dakota\n
518.822	0.1645	1037644	keystroke_p	p	n/a
519.1665	0.105	1038333	keystroke_o	o	n/a
519.3615	0.09	1038723	keystroke_p	p	n/a
519.6615	0.12	1039323	keystroke_u	u	n/a
520.0215	0.075	1040043	keystroke_l	l	n/a
520.2315	0.15	1040463	keystroke_a	a	n/a
520.4715	0.105	1040943	keystroke_r	r	n/a
520.8165	0.105	1041633	keystroke_i	i	n/a
520.9665	0.075	1041933	keystroke_t	t	n/a
521.1465	0.0905	1042293	keystroke_y	y	n/a
521.6115	0.135	1043223	keystroke_Key.space	Key.space	n/a
522.2565	0.105	1044513	keystroke_b	b	n/a
522.5415	0.1195	1045083	keystroke_o	o	n/a
522.7515	0.0895	1045503	keystroke_w	w	n/a
522.9165	0.0895	1045833	keystroke_l	l	n/a
523.4865	0.104	1046973	keystroke_Key.space	Key.space	n/a
524.2665	0.075	1048533	keystroke_g	g	n/a
524.612	0.0895	1049224	keystroke_o	o	n/a
524.777	0.1195	1049554	keystroke_o	o	n/a
524.941	0.121	1049882	keystroke_d	d	n/a
525.1665	0.1195	1050333	keystroke_Key.space	Key.space	n/a
526.9515	0.15	1053903	keystroke_d	d	n/a
527.2365	0.1205	1054473	keystroke_a	a	n/a
527.552	0.1045	1055104	keystroke_k	k	n/a
527.8065	0.1195	1055613	keystroke_o	o	n/a
527.941	0.136	1055882	keystroke_t	t	n/a
528.331	0.135	1056662	keystroke_a	a	n/a
528.6615	0.12	1057323	keystroke_Key.enter	Key.enter	n/a
528.7885	18.655	1057577	prompt	n/a	babe epson division smart\n
529.727	0.0895	1059454	keystroke_b	b	n/a
529.8315	0.1355	1059663	keystroke_a	a	n/a
529.982	0.1195	1059964	keystroke_b	b	n/a
530.1465	0.1645	1060293	keystroke_e	e	n/a
530.356	0.1505	1060712	keystroke_Key.space	Key.space	n/a
530.7315	0.105	1061463	keystroke_e	e	n/a
531.0165	0.1045	1062033	keystroke_p	p	n/a
531.197	0.1195	1062394	keystroke_s	s	n/a
531.2865	0.105	1062573	keystroke_o	o	n/a
531.527	0.1195	1063054	keystroke_n	n	n/a
531.8255	0.106	1063651	keystroke_Key.space	Key.space	n/a
532.411	0.0905	1064822	keystroke_d	d	n/a
532.606	0.1205	1065212	keystroke_i	i	n/a
532.7415	0.1195	1065483	keystroke_v	v	n/a
532.8765	0.105	1065753	keystroke_i	i	n/a
533.0115	0.12	1066023	keystroke_s	s	n/a
533.1465	0.165	1066293	keystroke_o	o	n/a
533.327	0.1945	1066654	keystroke_n	n	n/a
534.2565	0.105	1068513	keystroke_Key.space	Key.space	n/a
536.1465	0.09	1072293	keystroke_Key.backspace	Key.backspace	n/a
536.3715	0.06	1072743	keystroke_Key.backspace	Key.backspace	n/a
536.536	0.075	1073072	keystroke_Key.backspace	Key.backspace	n/a
536.7015	0.0895	1073403	keystroke_Key.backspace	Key.backspace	n/a
536.8665	0.1045	1073733	keystroke_Key.backspace	Key.backspace	n/a
540.438	0.059	1080876	keystroke_s	s	n/a
540.722	0.1195	1081444	keystroke_i	i	n/a
540.9165	0.1355	1081833	keystroke_o	o	n/a
541.112	0.149	1082224	keystroke_n	n	n/a
541.6065	0.15	1083213	keystroke_Key.space	Key.space	n/a
542.4915	0.1045	1084983	keystroke_Key.backspace	Key.backspace	n/a
542.687	0.09	1085374	keystroke_Key.backspace	Key.backspace	n/a
542.866	0.0755	1085732	keystroke_Key.backspace	Key.backspace	n/a
543.6315	0.105	1087263	keystroke_Key.backspace	Key.backspace	n/a
544.0065	0.09	1088013	keystroke_Key.backspace	Key.backspace	n/a
544.8465	0.09	1089693	keystroke_i	i	n/a
545.0115	0.0905	1090023	keystroke_s	s	n/a
545.1315	0.15	1090263	keystroke_i	i	n/a
545.252	0.15	1090504	keystroke_o	o	n/a
545.3415	0.12	1090683	keystroke_n	n	n/a
545.6565	0.1355	1091313	keystroke_Key.space	Key.space	n/a
546.2865	0.1055	1092573	keystroke_s	s	n/a
546.4075	0.104	1092815	keystroke_m	m	n/a
546.602	0.1945	1093204	keystroke_a	a	n/a
546.707	0.1345	1093414	keystroke_r	r	n/a
546.977	0.0745	1093954	keystroke_t	t	n/a
547.3365	0.105	1094673	keystroke_Key.enter	Key.enter	n/a
547.4495	11.229	1094899	prompt	n/a	citation locking potentially associates\n
548.822	0.0595	1097644	keystroke_c	c	n/a
549.0015	0.0895	1098003	keystroke_i	i	n/a
549.1515	0.1045	1098303	keystroke_t	t	n/a
549.377	0.134	1098754	keystroke_a	a	n/a
549.4515	0.1195	1098903	keystroke_t	t	n/a
549.616	0.15	1099232	keystroke_i	i	n/a
549.721	0.181	1099442	keystroke_o	o	n/a
549.811	0.1355	1099622	keystroke_n	n	n/a
550.0665	0.135	1100133	keystroke_Key.space	Key.space	n/a
550.606	0.1205	1101212	keystroke_l	l	n/a
550.8615	0.045	1101723	keystroke_o	o	n/a
551.386	0.046	1102772	keystroke_c	c	n/a
551.4915	0.0905	1102983	keystroke_k	k	n/a
551.717	0.119	1103434	keystroke_i	i	n/a
551.882	0.119	1103764	keystroke_n	n	n/a
552.0465	0.0595	1104093	keystroke_g	g	n/a
552.181	0.135	1104362	keystroke_Key.space	Key.space	n/a
552.5715	0.1055	1105143	keystroke_p	p	n/a
552.811	0.075	1105622	keystroke_o	o	n/a
553.261	0.1055	1106522	keystroke_t	t	n/a
553.472	0.18	1106944	keystroke_e	e	n/a
553.877	0.105	1107754	keystroke_n	n	n/a
554.042	0.105	1108084	keystroke_t	t	n/a
554.1915	0.1345	1108383	keystroke_i	i	n/a
554.402	0.1795	1108804	keystroke_a	a	n/a
554.5215	0.1055	1109043	keystroke_l	l	n/a
554.702	0.1195	1109404	keystroke_l	l	n/a
554.7765	0.1205	1109553	keystroke_y	y	n/a
555.017	0.105	1110034	keystroke_Key.space	Key.space	n/a
556.1115	0.135	1112223	keystroke_a	a	n/a
556.2915	0.1355	1112583	keystroke_s	s	n/a
556.5015	0.12	1113003	keystroke_s	s	n/a
557.1915	0.075	1114383	keystroke_o	o	n/a
557.3415	0.105	1114683	keystroke_c	c	n/a
557.4915	0.12	1114983	keystroke_i	i	n/a
557.627	0.1795	1115254	keystroke_a	a	n/a
557.7465	0.135	1115493	keystroke_t	t	n/a
557.9865	0.0905	1115973	keystroke_e	e	n/a
558.197	0.09	1116394	keystroke_s	s	n/a
558.556	0.1205	1117112	keystroke_Key.enter	Key.enter	n/a
558.681	7.918	1117362	prompt	n/a	page jazz transportation mean\n
559.8915	0.1045	1119783	keystroke_p	p	n/a
560.011	0.166	1120022	keystroke_a	a	n/a
560.357	0.06	1120714	keystroke_g	g	n/a
560.522	0.1195	1121044	keystroke_e	e	n/a
560.686	0.1355	1121372	keystroke_Key.space	Key.space	n/a
561.662	0.0595	1123324	keystroke_j	j	n/a
561.707	0.12	1123414	keystroke_a	a	n/a
562.0215	0.1205	1124043	keystroke_z	z	n/a
562.232	0.135	1124464	keystroke_z	z	n/a
562.636	0.105	1125272	keystroke_Key.space	Key.space	n/a
563.0265	0.0755	1126053	keystroke_t	t	n/a
563.222	0.105	1126444	keystroke_r	r	n/a
563.522	0.015	1127044	keystroke_a	a	n/a
563.642	0.104	1127284	keystroke_n	n	n/a
563.807	0.15	1127614	keystroke_s	s	n/a
564.0015	0.1055	1128003	keystroke_p	p	n/a
564.2115	0.105	1128423	keystroke_o	o	n/a
564.347	0.1345	1128694	keystroke_r	r	n/a
564.7065	0.09	1129413	keystroke_t	t	n/a
564.872	0.1495	1129744	keystroke_a	a	n/a
565.022	0.09	1130044	keystroke_t	t	n/a
565.157	0.1495	1130314	keystroke_i	i	n/a
565.262	0.1345	1130524	keystroke_o	o	n/a
565.3815	0.1345	1130763	keystroke_n	n	n/a
565.6215	0.09	1131243	keystroke_Key.space	Key.space	n/a
565.8015	0.105	1131603	keystroke_m	m	n/a
565.9215	0.1505	1131843	keystroke_e	e	n/a
566.1165	0.15	1132233	keystroke_a	a	n/a
566.222	0.1345	1132444	keystroke_n	n	n/a
566.5065	0.09	1133013	keystroke_Key.enter	Key.enter	n/a
566.602	10.586	1133204	prompt	n/a	pushed heroes determination study\n
567.661	0.0905	1135322	keystroke_p	p	n/a
567.8865	0.0905	1135773	keystroke_u	u	n/a
568.067	0.0745	1136134	keystroke_s	s	n/a
568.2615	0.0905	1136523	keystroke_h	h	n/a
568.337	0.135	1136674	keystroke_e	e	n/a
568.606	0.106	1137212	keystroke_d	d	n/a
569.086	0.1505	1138172	keystroke_Key.space	Key.space	n/a
569.7015	0.15	1139403	keystroke_e	e	n/a
569.897	0.0895	1139794	keystroke_r	r	n/a
570.4515	0.105	1140903	keystroke_Key.backspace	Key.backspace	n/a
570.6315	0.1055	1141263	keystroke_Key.backspace	Key.backspace	n/a
571.186	0.046	1142372	keystroke_h	h	n/a
571.247	0.12	1142494	keystroke_e	e	n/a
571.5165	0.09	1143033	keystroke_r	r	n/a
571.7115	0.12	1143423	keystroke_o	o	n/a
571.817	0.0895	1143634	keystroke_e	e	n/a
572.0715	0.06	1144143	keystroke_s	s	n/a
572.267	0.104	1144534	keystroke_Key.space	Key.space	n/a
572.882	0.09	1145764	keystroke_d	d	n/a
573.091	0.091	1146182	keystroke_e	e	n/a
573.272	0.09	1146544	keystroke_t	t	n/a
573.4365	0.18	1146873	keystroke_e	e	n/a
573.5715	0.105	1147143	keystroke_r	r	n/a
573.797	0.1345	1147594	keystroke_m	m	n/a
574.0065	0.0755	1148013	keystroke_i	i	n/a
574.172	0.075	1148344	keystroke_n	n	n/a
574.292	0.165	1148584	keystroke_a	a	n/a
574.442	0.105	1148884	keystroke_t	t	n/a
574.547	0.15	1149094	keystroke_i	i	n/a
574.592	0.2095	1149184	keystroke_o	o	n/a
574.7565	0.105	1149513	keystroke_n	n	n/a
575.056	0.136	1150112	keystroke_Key.space	Key.space	n/a
575.6865	0.105	1151373	keystroke_s	s	n/a
575.9565	0.061	1151913	keystroke_t	t	n/a
576.152	0.1195	1152304	keystroke_u	u	n/a
576.391	0.1055	1152782	keystroke_d	d	n/a
576.6165	0.09	1153233	keystroke_y	y	n/a
577.0665	0.1195	1154133	keystroke_Key.enter	Key.enter	n/a
577.191	14.668	1154382	prompt	n/a	diana gamespot textbook private\n
578.431	0.1205	1156862	keystroke_d	d	n/a
578.5665	0.09	1157133	keystroke_i	i	n/a
578.837	0.1345	1157674	keystroke_a	a	n/a
578.9575	0.119	1157915	keystroke_n	n	n/a
579.122	0.135	1158244	keystroke_a	a	n/a
579.271	0.1655	1158542	keystroke_Key.space	Key.space	n/a
580.682	0.15	1161364	keystroke_g	g	n/a
581.027	0.135	1162054	keystroke_a	a	n/a
581.207	0.12	1162414	keystroke_m	m	n/a
581.5075	0.1035	1163015	keystroke_e	e	n/a
581.746	0.106	1163492	keystroke_s	s	n/a
581.8965	0.045	1163793	keystroke_p	p	n/a
582.302	0.1055	1164604	keystroke_o	o	n/a
582.4215	0.076	1164843	keystroke_t	t	n/a
583.142	0.12	1166284	keystroke_Key.space	Key.space	n/a
583.382	0.0745	1166764	keystroke_t	t	n/a
585.032	0.105	1170064	keystroke_e	e	n/a
586.052	0.0745	1172104	keystroke_x	x	n/a
586.367	0.06	1172734	keystroke_t	t	n/a
588.242	0.075	1176484	keystroke_b	b	n/a
588.602	0.09	1177204	keystroke_o	o	n/a
588.767	0.0905	1177534	keystroke_o	o	n/a
589.1125	0.09	1178225	keystroke_k	k	n/a
589.6975	0.119	1179395	keystroke_Key.space	Key.space	n/a
590.3725	0.1045	1180745	keystroke_p	p	n/a
590.567	0.1055	1181134	keystroke_r	r	n/a
590.762	0.12	1181524	keystroke_i	i	n/a
591.0025	0.075	1182005	keystroke_v	v	n/a
591.1825	0.18	1182365	keystroke_a	a	n/a
591.3775	0.0895	1182755	keystroke_t	t	n/a
591.6025	0.105	1183205	keystroke_e	e	n/a
591.752	0.1045	1183504	keystroke_Key.enter	Key.enter	n/a
591.863	7.0005	1183726	prompt	n/a	knee educated incoming levels\n
592.9665	0.0605	1185933	keystroke_k	k	n/a
593.1475	0.1195	1186295	keystroke_n	n	n/a
593.312	0.06	1186624	keystroke_e	e	n/a
593.612	0.015	1187224	keystroke_e	e	n/a
593.6875	0.1495	1187375	keystroke_Key.space	Key.space	n/a
594.017	0.075	1188034	keystroke_e	e	n/a
594.227	0.105	1188454	keystroke_d	d	n/a
594.408	0.104	1188816	keystroke_u	u	n/a
594.617	0.1055	1189234	keystroke_c	c	n/a
594.827	0.135	1189654	keystroke_a	a	n/a
594.9475	0.119	1189895	keystroke_t	t	n/a
595.112	0.075	1190224	keystroke_e	e	n/a
595.2915	0.12	1190583	keystroke_d	d	n/a
595.5315	0.0755	1191063	keystroke_Key.space	Key.space	n/a
595.832	0.06	1191664	keystroke_i	i	n/a
595.997	0.12	1191994	keystroke_n	n	n/a
596.162	0.09	1192324	keystroke_c	c	n/a
596.282	0.0905	1192564	keystroke_o	o	n/a
596.507	0.12	1193014	keystroke_m	m	n/a
596.717	0.09	1193434	keystroke_i	i	n/a
596.882	0.1055	1193764	keystroke_n	n	n/a
597.032	0.1055	1194064	keystroke_g	g	n/a
597.2265	0.09	1194453	keystroke_Key.space	Key.space	n/a
597.572	0.12	1195144	keystroke_l	l	n/a
597.6315	0.09	1195263	keystroke_e	e	n/a
597.827	0.105	1195654	keystroke_v	v	n/a
598.052	0.075	1196104	keystroke_e	e	n/a
598.142	0.1195	1196284	keystroke_l	l	n/a
598.592	0.0895	1197184	keystroke_s	s	n/a
598.7725	0.089	1197545	keystroke_Key.enter	Key.enter	n/a
598.867	7.362	1197734	prompt	n/a	accuracy matching drum analyze\n
599.627	0.1045	1199254	keystroke_a	a	n/a
599.8815	0.1055	1199763	keystroke_c	c	n/a
600.0765	0.0905	1200153	keystroke_c	c	n/a
600.2115	0.1355	1200423	keystroke_u	u	n/a
600.362	0.1055	1200724	keystroke_r	r	n/a
600.5725	0.0895	1201145	keystroke_a	a	n/a
600.752	0.105	1201504	keystroke_c	c	n/a
600.962	0.12	1201924	keystroke_y	y	n/a
601.307	0.09	1202614	keystroke_Key.space	Key.space	n/a
601.667	0.1055	1203334	keystroke_m	m	n/a
601.802	0.1955	1203604	keystroke_a	a	n/a
601.937	0.0905	1203874	keystroke_t	t	n/a
602.1775	0.165	1204355	keystroke_c	c	n/a
602.2975	0.1045	1204595	keystroke_h	h	n/a
602.5075	0.0745	1205015	keystroke_i	i	n/a
602.687	0.105	1205374	keystroke_n	n	n/a
602.807	0.12	1205614	keystroke_g	g	n/a
602.972	0.1355	1205944	keystroke_Key.space	Key.space	n/a
603.3925	0.1195	1206785	keystroke_d	d	n/a
603.6025	0.104	1207205	keystroke_r	r	n/a
603.6925	0.075	1207385	keystroke_u	u	n/a
603.9165	0.136	1207833	keystroke_m	m	n/a
604.2915	0.1055	1208583	keystroke_Key.space	Key.space	n/a
604.5615	0.151	1209123	keystroke_a	a	n/a
604.8475	0.119	1209695	keystroke_n	n	n/a
604.9975	0.1345	1209995	keystroke_a	a	n/a
605.162	0.1205	1210324	keystroke_l	l	n/a
605.5075	0.119	1211015	keystroke_y	y	n/a
605.7475	0.104	1211495	keystroke_z	z	n/a
605.972	0.1345	1211944	keystroke_e	e	n/a
606.1515	0.075	1212303	keystroke_Key.enter	Key.enter	n/a
606.233	8.621	1212466	prompt	n/a	rush pole delta agriculture\n
607.2775	0.06	1214555	keystroke_r	r	n/a
607.442	0.105	1214884	keystroke_u	u	n/a
607.6075	0.104	1215215	keystroke_s	s	n/a
607.6975	0.06	1215395	keystroke_h	h	n/a
607.8325	0.1345	1215665	keystroke_Key.space	Key.space	n/a
608.312	0.105	1216624	keystroke_p	p	n/a
608.432	0.0905	1216864	keystroke_e	e	n/a
609.077	0.105	1218154	keystroke_Key.backspace	Key.backspace	n/a
609.452	0.0905	1218904	keystroke_o	o	n/a
609.677	0.105	1219354	keystroke_l	l	n/a
609.767	0.12	1219534	keystroke_e	e	n/a
609.962	0.1355	1219924	keystroke_Key.space	Key.space	n/a
610.5475	0.075	1221095	keystroke_d	d	n/a
610.727	0.1205	1221454	keystroke_e	e	n/a
610.832	0.12	1221664	keystroke_l	l	n/a
610.967	0.135	1221934	keystroke_t	t	n/a
611.2375	0.135	1222475	keystroke_a	a	n/a
611.5065	0.12	1223013	keystroke_Key.space	Key.space	n/a
612.0315	0.135	1224063	keystroke_a	a	n/a
612.797	0.045	1225594	keystroke_g	g	n/a
613.0075	0.045	1226015	keystroke_r	r	n/a
613.2165	0.106	1226433	keystroke_i	i	n/a
613.517	0.09	1227034	keystroke_c	c	n/a
613.652	0.075	1227304	keystroke_u	u	n/a
613.862	0.09	1227724	keystroke_l	l	n/a
613.953	0.074	1227906	keystroke_t	t	n/a
614.0875	0.1045	1228175	keystroke_u	u	n/a
614.222	0.1205	1228444	keystroke_r	r	n/a
614.3125	0.15	1228625	keystroke_e	e	n/a
614.7315	0.12	1229463	keystroke_Key.enter	Key.enter	n/a
614.8575	9.4315	1229715	prompt	n/a	sisters lesbians optimize focusing\n
615.9765	0.075	1231953	keystroke_s	s	n/a
616.1125	0.089	1232225	keystroke_i	i	n/a
616.2175	0.104	1232435	keystroke_s	s	n/a
616.4565	0.091	1232913	keystroke_t	t	n/a
616.6815	0.166	1233363	keystroke_e	e	n/a
616.8165	0.0905	1233633	keystroke_r	r	n/a
617.0265	0.09	1234053	keystroke_s	s	n/a
617.1615	0.106	1234323	keystroke_Key.space	Key.space	n/a
617.492	0.1205	1234984	keystroke_l	l	n/a
617.5815	0.09	1235163	keystroke_e	e	n/a
617.9875	0.119	1235975	keystroke_s	s	n/a
618.242	0.1045	1236484	keystroke_i	i	n/a
618.6175	0.1195	1237235	keystroke_Key.backspace	Key.backspace	n/a
618.827	0.0745	1237654	keystroke_b	b	n/a
619.0075	0.09	1238015	keystroke_i	i	n/a
619.157	0.1655	1238314	keystroke_a	a	n/a
619.3665	0.106	1238733	keystroke_n	n	n/a
619.5475	0.1795	1239095	keystroke_s	s	n/a
619.682	0.1195	1239364	keystroke_Key.space	Key.space	n/a
620.6425	0.1345	1241285	keystroke_o	o	n/a
620.8215	0.076	1241643	keystroke_p	p	n/a
620.972	0.0455	1241944	keystroke_t	t	n/a
621.1075	0.09	1242215	keystroke_i	i	n/a
621.3175	0.12	1242635	keystroke_m	m	n/a
621.4825	0.135	1242965	keystroke_i	i	n/a
621.6475	0.195	1243295	keystroke_z	z	n/a
621.9175	0.135	1243835	keystroke_e	e	n/a
622.1125	0.119	1244225	keystroke_Key.space	Key.space	n/a
622.5025	0.09	1245005	keystroke_f	f	n/a
622.6065	0.106	1245213	keystroke_o	o	n/a
622.8625	0.075	1245725	keystroke_c	c	n/a
622.952	0.12	1245904	keystroke_u	u	n/a
623.1775	0.12	1246355	keystroke_s	s	n/a
623.2675	0.059	1246535	keystroke_i	i	n/a
623.4475	0.12	1246895	keystroke_n	n	n/a
623.5825	0.104	1247165	keystroke_g	g	n/a
623.7475	0.135	1247495	keystroke_Key.space	Key.space	n/a
624.1825	0.105	1248365	keystroke_Key.enter	Key.enter	n/a
624.2925	9.402	1248585	prompt	n/a	spirituality files intersection jacket\n
625.353	0.134	1250706	keystroke_s	s	n/a
625.547	0.0905	1251094	keystroke_p	p	n/a
625.7275	0.09	1251455	keystroke_i	i	n/a
625.9065	0.076	1251813	keystroke_r	r	n/a
626.567	0.105	1253134	keystroke_i	i	n/a
626.702	0.075	1253404	keystroke_t	t	n/a
626.912	0.105	1253824	keystroke_u	u	n/a
627.137	0.165	1254274	keystroke_a	a	n/a
627.3175	0.09	1254635	keystroke_l	l	n/a
627.4975	0.1345	1254995	keystroke_i	i	n/a
627.5875	0.0895	1255175	keystroke_t	t	n/a
627.782	0.0905	1255564	keystroke_y	y	n/a
627.977	0.0905	1255954	keystroke_Key.space	Key.space	n/a
628.2925	0.0745	1256585	keystroke_f	f	n/a
628.4425	0.0745	1256885	keystroke_l	l	n/a
628.592	0.135	1257184	keystroke_i	i	n/a
628.667	0.1055	1257334	keystroke_e	e	n/a
628.952	0.135	1257904	keystroke_s	s	n/a
629.177	0.1355	1258354	keystroke_Key.space	Key.space	n/a
629.552	0.09	1259104	keystroke_i	i	n/a
629.7475	0.12	1259495	keystroke_n	n	n/a
629.8225	0.06	1259645	keystroke_t	t	n/a
629.988	0.164	1259976	keystroke_e	e	n/a
630.078	0.104	1260156	keystroke_r	r	n/a
630.6325	0.1045	1261265	keystroke_s	s	n/a
630.857	0.0905	1261714	keystroke_e	e	n/a
631.0525	0.074	1262105	keystroke_c	c	n/a
631.3075	0.075	1262615	keystroke_t	t	n/a
631.4875	0.105	1262975	keystroke_i	i	n/a
631.6525	0.135	1263305	keystroke_o	o	n/a
631.7425	0.15	1263485	keystroke_n	n	n/a
632.072	0.1505	1264144	keystroke_Key.space	Key.space	n/a
632.7325	0.09	1265465	keystroke_j	j	n/a
632.8375	0.12	1265675	keystroke_a	a	n/a
633.0175	0.09	1266035	keystroke_c	c	n/a
633.1675	0.09	1266335	keystroke_k	k	n/a
633.2425	0.1345	1266485	keystroke_e	e	n/a
633.4225	0.1045	1266845	keystroke_t	t	n/a
633.602	0.0905	1267204	keystroke_Key.enter	Key.enter	n/a
633.698	9.401	1267396	prompt	n/a	patents political sessions priced\n
634.7875	0.12	1269575	keystroke_p	p	n/a
634.9675	0.165	1269935	keystroke_a	a	n/a
635.1175	0.09	1270235	keystroke_t	t	n/a
635.3425	0.1045	1270685	keystroke_e	e	n/a
635.507	0.12	1271014	keystroke_n	n	n/a
635.582	0.1055	1271164	keystroke_t	t	n/a
635.822	0.135	1271644	keystroke_s	s	n/a
635.987	0.12	1271974	keystroke_Key.space	Key.space	n/a
636.6625	0.1345	1273325	keystroke_p	p	n/a
637.3375	0.1045	1274675	keystroke_o	o	n/a
637.562	0.09	1275124	keystroke_l	l	n/a
637.802	0.075	1275604	keystroke_i	i	n/a
637.8925	0.09	1275785	keystroke_t	t	n/a
638.0275	0.12	1276055	keystroke_i	i	n/a
638.2225	0.12	1276445	keystroke_c	c	n/a
638.4625	0.135	1276925	keystroke_a	a	n/a
638.5675	0.09	1277135	keystroke_l	l	n/a
638.9265	0.15	1277853	keystroke_Key.space	Key.space	n/a
639.437	0.12	1278874	keystroke_s	s	n/a
639.662	0.075	1279324	keystroke_e	e	n/a
639.8425	0.09	1279685	keystroke_s	s	n/a
640.0225	0.135	1280045	keystroke_s	s	n/a
640.1275	0.135	1280255	keystroke_i	i	n/a
640.3075	0.165	1280615	keystroke_o	o	n/a
640.4415	0.151	1280883	keystroke_n	n	n/a
640.6825	0.0895	1281365	keystroke_s	s	n/a
640.847	0.1205	1281694	keystroke_Key.space	Key.space	n/a
641.102	0.105	1282204	keystroke_p	p	n/a
641.207	0.06	1282414	keystroke_r	r	n/a
642.2425	0.12	1284485	keystroke_i	i	n/a
642.3775	0.135	1284755	keystroke_c	c	n/a
642.4975	0.135	1284995	keystroke_e	e	n/a
642.7525	0.1195	1285505	keystroke_d	d	n/a
642.992	0.105	1285984	keystroke_Key.enter	Key.enter	n/a
643.102	9.703	1286204	prompt	n/a	following cricket kenya shall\n
644.672	0.0905	1289344	keystroke_f	f	n/a
644.837	0.09	1289674	keystroke_o	o	n/a
645.047	0.075	1290094	keystroke_l	l	n/a
645.182	0.09	1290364	keystroke_l	l	n/a
645.377	0.105	1290754	keystroke_o	o	n/a
645.497	0.1205	1290994	keystroke_w	w	n/a
645.6625	0.03	1291325	keystroke_i	i	n/a
645.812	0.1205	1291624	keystroke_n	n	n/a
645.977	0.09	1291954	keystroke_g	g	n/a
646.202	0.135	1292404	keystroke_Key.space	Key.space	n/a
646.5625	0.12	1293125	keystroke_c	c	n/a
646.8475	0.0745	1293695	keystroke_r	r	n/a
646.9675	0.12	1293935	keystroke_i	i	n/a
647.252	0.1055	1294504	keystroke_c	c	n/a
647.402	0.09	1294804	keystroke_k	k	n/a
647.477	0.15	1294954	keystroke_e	e	n/a
647.672	0.1055	1295344	keystroke_t	t	n/a
648.7365	0.091	1297473	keystroke_Key.space	Key.space	n/a
649.1115	0.076	1298223	keystroke_k	k	n/a
649.2025	0.12	1298405	keystroke_e	e	n/a
649.3675	0.09	1298735	keystroke_n	n	n/a
649.563	0.1045	1299126	keystroke_y	y	n/a
649.7425	0.105	1299485	keystroke_a	a	n/a
651.242	0.12	1302484	keystroke_Key.space	Key.space	n/a
651.5575	0.105	1303115	keystroke_s	s	n/a
651.6775	0.1045	1303355	keystroke_h	h	n/a
651.8425	0.12	1303685	keystroke_a	a	n/a
652.3825	0.0745	1304765	keystroke_l	l	n/a
652.532	0.0755	1305064	keystroke_l	l	n/a
652.7265	0.075	1305453	keystroke_Key.enter	Key.enter	n/a
652.8115	7.2525	1305623	prompt	n/a	caribbean motherboard worry enables\n
653.672	0.1205	1307344	keystroke_c	c	n/a
653.8825	0.135	1307765	keystroke_a	a	n/a
654.062	0.075	1308124	keystroke_r	r	n/a
654.152	0.12	1308304	keystroke_i	i	n/a
654.407	0.075	1308814	keystroke_b	b	n/a
654.557	0.09	1309114	keystroke_b	b	n/a
654.647	0.15	1309294	keystroke_e	e	n/a
654.842	0.1655	1309684	keystroke_a	a	n/a
654.9475	0.12	1309895	keystroke_n	n	n/a
655.1425	0.075	1310285	keystroke_Key.space	Key.space	n/a
655.3665	0.076	1310733	keystroke_m	m	n/a
655.5475	0.074	1311095	keystroke_o	o	n/a
655.6675	0.075	1311335	keystroke_t	t	n/a
655.7725	0.09	1311545	keystroke_h	h	n/a
655.8765	0.135	1311753	keystroke_e	e	n/a
655.9515	0.105	1311903	keystroke_r	r	n/a
656.1465	0.106	1312293	keystroke_b	b	n/a
656.372	0.135	1312744	keystroke_o	o	n/a
656.4915	0.181	1312983	keystroke_a	a	n/a
656.5975	0.105	1313195	keystroke_r	r	n/a
656.8525	0.134	1313705	keystroke_d	d	n/a
657.1075	0.0895	1314215	keystroke_Key.space	Key.space	n/a
657.6325	0.1045	1315265	keystroke_w	w	n/a
657.7515	0.091	1315503	keystroke_o	o	n/a
657.8865	0.0605	1315773	keystroke_r	r	n/a
658.0515	0.075	1316103	keystroke_r	r	n/a
658.113	0.1045	1316226	keystroke_y	y	n/a
658.7265	0.1205	1317453	keystroke_Key.space	Key.space	n/a
658.8615	0.106	1317723	keystroke_e	e	n/a
658.9815	0.135	1317963	keystroke_n	n	n/a
659.1325	0.12	1318265	keystroke_a	a	n/a
659.2365	0.09	1318473	keystroke_b	b	n/a
659.4765	0.136	1318953	keystroke_l	l	n/a
659.5675	0.045	1319135	keystroke_e	e	n/a
659.8225	0.105	1319645	keystroke_s	s	n/a
659.9715	0.091	1319943	keystroke_Key.enter	Key.enter	n/a
660.0675	9.8975	1320135	prompt	n/a	issn changelog radius ranger\n
661.0675	0.105	1322135	keystroke_i	i	n/a
661.2315	0.106	1322463	keystroke_s	s	n/a
661.4125	0.105	1322825	keystroke_s	s	n/a
661.4875	0.105	1322975	keystroke_n	n	n/a
662.027	0.135	1324054	keystroke_c	c	n/a
662.1925	0.0595	1324385	keystroke_h	h	n/a
662.312	0.135	1324624	keystroke_a	a	n/a
662.492	0.12	1324984	keystroke_n	n	n/a
662.672	0.0905	1325344	keystroke_g	g	n/a
662.852	0.12	1325704	keystroke_e	e	n/a
663.2265	0.091	1326453	keystroke_Key.backspace	Key.backspace	n/a
663.407	0.0755	1326814	keystroke_Key.backspace	Key.backspace	n/a
663.572	0.075	1327144	keystroke_Key.backspace	Key.backspace	n/a
663.7515	0.061	1327503	keystroke_Key.backspace	Key.backspace	n/a
663.9175	0.0895	1327835	keystroke_Key.backspace	Key.backspace	n/a
664.097	0.06	1328194	keystroke_Key.backspace	Key.backspace	n/a
664.3815	0.0905	1328763	keystroke_Key.space	Key.space	n/a
664.6375	0.1345	1329275	keystroke_c	c	n/a
664.757	0.09	1329514	keystroke_h	h	n/a
664.907	0.15	1329814	keystroke_a	a	n/a
665.012	0.1205	1330024	keystroke_n	n	n/a
665.1625	0.105	1330325	keystroke_g	g	n/a
665.4025	0.09	1330805	keystroke_e	e	n/a
665.9565	0.076	1331913	keystroke_l	l	n/a
666.137	0.0905	1332274	keystroke_o	o	n/a
666.2725	0.105	1332545	keystroke_g	g	n/a
666.497	0.0905	1332994	keystroke_Key.space	Key.space	n/a
666.782	0.075	1333564	keystroke_r	r	n/a
667.3825	0.1345	1334765	keystroke_a	a	n/a
667.697	0.1205	1335394	keystroke_d	d	n/a
667.8925	0.09	1335785	keystroke_i	i	n/a
668.102	0.075	1336204	keystroke_u	u	n/a
668.2965	0.091	1336593	keystroke_s	s	n/a
668.4025	0.119	1336805	keystroke_Key.space	Key.space	n/a
668.597	0.1205	1337194	keystroke_r	r	n/a
669.152	0.12	1338304	keystroke_a	a	n/a
669.3175	0.12	1338635	keystroke_n	n	n/a
669.4525	0.075	1338905	keystroke_g	g	n/a
669.6175	0.15	1339235	keystroke_e	e	n/a
669.7225	0.105	1339445	keystroke_r	r	n/a
669.8425	0.12	1339685	keystroke_Key.enter	Key.enter	n/a
669.968	9.761	1339936	prompt	n/a	timing weather activation returned\n
671.297	0.0605	1342594	keystroke_t	t	n/a
671.432	0.09	1342864	keystroke_i	i	n/a
671.597	0.105	1343194	keystroke_m	m	n/a
671.762	0.09	1343524	keystroke_i	i	n/a
671.9425	0.1045	1343885	keystroke_n	n	n/a
672.077	0.0905	1344154	keystroke_g	g	n/a
672.302	0.1055	1344604	keystroke_Key.space	Key.space	n/a
672.5875	0.0895	1345175	keystroke_w	w	n/a
673.2615	0.136	1346523	keystroke_e	e	n/a
673.4865	0.136	1346973	keystroke_a	a	n/a
673.6675	0.059	1347335	keystroke_t	t	n/a
673.7725	0.09	1347545	keystroke_h	h	n/a
673.8765	0.136	1347753	keystroke_e	e	n/a
673.982	0.0905	1347964	keystroke_r	r	n/a
674.6715	0.121	1349343	keystroke_Key.space	Key.space	n/a
674.823	0.1335	1349646	keystroke_a	a	n/a
675.0765	0.106	1350153	keystroke_c	c	n/a
675.347	0.105	1350694	keystroke_t	t	n/a
675.5125	0.105	1351025	keystroke_i	i	n/a
675.7515	0.046	1351503	keystroke_c	c	n/a
676.4725	0.09	1352945	keystroke_Key.backspace	Key.backspace	n/a
677.0725	0.075	1354145	keystroke_v	v	n/a
677.2375	0.12	1354475	keystroke_a	a	n/a
677.4025	0.09	1354805	keystroke_t	t	n/a
677.5525	0.165	1355105	keystroke_i	i	n/a
677.6425	0.18	1355285	keystroke_o	o	n/a
677.7625	0.105	1355525	keystroke_n	n	n/a
678.0025	0.105	1356005	keystroke_Key.space	Key.space	n/a
678.4825	0.075	1356965	keystroke_r	r	n/a
678.5875	0.135	1357175	keystroke_e	e	n/a
678.7825	0.075	1357565	keystroke_t	t	n/a
678.9175	0.09	1357835	keystroke_u	u	n/a
679.0525	0.105	1358105	keystroke_r	r	n/a
679.2175	0.075	1358435	keystroke_n	n	n/a
679.337	0.0755	1358674	keystroke_e	e	n/a
679.532	0.12	1359064	keystroke_d	d	n/a
679.637	0.09	1359274	keystroke_Key.enter	Key.enter	n/a
679.7335	9.086	1359467	prompt	n/a	interpreted silent advise actually\n
680.7925	0.075	1361585	keystroke_i	i	n/a
680.972	0.1355	1361944	keystroke_n	n	n/a
681.0625	0.0595	1362125	keystroke_t	t	n/a
681.227	0.1655	1362454	keystroke_e	e	n/a
681.332	0.1055	1362664	keystroke_r	r	n/a
681.5275	0.104	1363055	keystroke_p	p	n/a
681.6775	0.09	1363355	keystroke_r	r	n/a
681.7075	0.119	1363415	keystroke_e	e	n/a
681.9015	0.106	1363803	keystroke_t	t	n/a
682.0225	0.1505	1364045	keystroke_e	e	n/a
682.2775	0.09	1364555	keystroke_d	d	n/a
682.4265	0.166	1364853	keystroke_Key.space	Key.space	n/a
683.0575	0.09	1366115	keystroke_s	s	n/a
683.1765	0.091	1366353	keystroke_i	i	n/a
683.3725	0.075	1366745	keystroke_l	l	n/a
683.4625	0.12	1366925	keystroke_e	e	n/a
683.5975	0.104	1367195	keystroke_n	n	n/a
683.732	0.0905	1367464	keystroke_t	t	n/a
683.8975	0.029	1367795	keystroke_Key.space	Key.space	n/a
683.9565	0.016	1367913	keystroke_Key.space	Key.space	n/a
684.392	0.1345	1368784	keystroke_a	a	n/a
684.5875	0.0895	1369175	keystroke_d	d	n/a
684.8725	0.105	1369745	keystroke_v	v	n/a
685.052	0.1055	1370104	keystroke_i	i	n/a
685.1875	0.089	1370375	keystroke_c	c	n/a
685.682	0.1055	1371364	keystroke_Key.backspace	Key.backspace	n/a
685.788	0.044	1371576	keystroke_s	s	n/a
686.0425	0.135	1372085	keystroke_e	e	n/a
686.2525	0.105	1372505	keystroke_Key.space	Key.space	n/a
686.927	0.121	1373854	keystroke_a	a	n/a
687.3175	0.1045	1374635	keystroke_c	c	n/a
687.7075	0.0745	1375415	keystroke_t	t	n/a
687.992	0.105	1375984	keystroke_u	u	n/a
688.172	0.1205	1376344	keystroke_a	a	n/a
688.277	0.12	1376554	keystroke_l	l	n/a
688.457	0.09	1376914	keystroke_l	l	n/a
688.517	0.12	1377034	keystroke_y	y	n/a
688.7125	0.1045	1377425	keystroke_Key.enter	Key.enter	n/a
688.823	17.0965	1377646	prompt	n/a	scenes westminster individually screen\n
689.6425	0.1045	1379285	keystroke_s	s	n/a
689.852	0.09	1379704	keystroke_c	c	n/a
690.092	0.1505	1380184	keystroke_e	e	n/a
690.348	0.09	1380696	keystroke_n	n	n/a
690.752	0.06	1381504	keystroke_s	s	n/a
691.112	0.12	1382224	keystroke_e	e	n/a
691.8465	0.075	1383693	keystroke_Key.backspace	Key.backspace	n/a
691.9825	0.075	1383965	keystroke_Key.backspace	Key.backspace	n/a
692.6425	0.075	1385285	keystroke_Key.backspace	Key.backspace	n/a
693.3925	0.09	1386785	keystroke_n	n	n/a
693.5275	0.104	1387055	keystroke_e	e	n/a
693.7075	0.1045	1387415	keystroke_s	s	n/a
694.292	0.1195	1388584	keystroke_Key.space	Key.space	n/a
694.817	0.0905	1389634	keystroke_w	w	n/a
695.1475	0.104	1390295	keystroke_e	e	n/a
695.5375	0.105	1391075	keystroke_s	s	n/a
695.8075	0.075	1391615	keystroke_t	t	n/a
696.1675	0.1055	1392335	keystroke_m	m	n/a
696.362	0.105	1392724	keystroke_i	i	n/a
696.8275	0.135	1393655	keystroke_n	n	n/a
697.052	0.091	1394104	keystroke_s	s	n/a
697.217	0.0905	1394434	keystroke_t	t	n/a
697.4275	0.0895	1394855	keystroke_e	e	n/a
697.5025	0.0895	1395005	keystroke_r	r	n/a
697.6525	0.1195	1395305	keystroke_Key.space	Key.space	n/a
700.969	0.0575	1401938	keystroke_i	i	n/a
701.1175	0.1045	1402235	keystroke_n	n	n/a
701.267	0.09	1402534	keystroke_d	d	n/a
701.417	0.1205	1402834	keystroke_i	i	n/a
702.3775	0.075	1404755	keystroke_v	v	n/a
702.5875	0.09	1405175	keystroke_i	i	n/a
702.7975	0.105	1405595	keystroke_d	d	n/a
702.9175	0.09	1405835	keystroke_u	u	n/a
703.1125	0.15	1406225	keystroke_a	a	n/a
703.203	0.0895	1406406	keystroke_l	l	n/a
703.3525	0.105	1406705	keystroke_l	l	n/a
703.4425	0.075	1406885	keystroke_y	y	n/a
703.6525	0.12	1407305	keystroke_Key.space	Key.space	n/a
703.9225	0.06	1407845	keystroke_s	s	n/a
704.327	0.0905	1408654	keystroke_c	c	n/a
704.7025	0.105	1409405	keystroke_r	r	n/a
705.3025	0.09	1410605	keystroke_e	e	n/a
705.4825	0.1195	1410965	keystroke_e	e	n/a
705.588	0.104	1411176	keystroke_n	n	n/a
705.8275	0.0895	1411655	keystroke_Key.enter	Key.enter	n/a
705.923	7.196	1411846	prompt	n/a	ship mistakes urls stages\n
706.8475	0.0745	1413695	keystroke_s	s	n/a
707.1025	0.1045	1414205	keystroke_h	h	n/a
707.313	0.104	1414626	keystroke_i	i	n/a
707.477	0.105	1414954	keystroke_p	p	n/a
707.792	0.075	1415584	keystroke_Key.space	Key.space	n/a
708.0775	0.075	1416155	keystroke_m	m	n/a
708.227	0.1055	1416454	keystroke_i	i	n/a
708.347	0.0755	1416694	keystroke_s	s	n/a
708.5275	0.075	1417055	keystroke_t	t	n/a
708.7225	0.075	1417445	keystroke_a	a	n/a
709.232	0.0755	1418464	keystroke_k	k	n/a
709.322	0.12	1418644	keystroke_e	e	n/a
709.6375	0.0895	1419275	keystroke_s	s	n/a
709.802	0.1205	1419604	keystroke_Key.space	Key.space	n/a
710.402	0.0605	1420804	keystroke_u	u	n/a
710.5075	0.06	1421015	keystroke_r	r	n/a
710.7025	0.135	1421405	keystroke_l	l	n/a
710.8525	0.1055	1421705	keystroke_s	s	n/a
710.9875	0.1045	1421975	keystroke_Key.space	Key.space	n/a
711.858	0.0595	1423716	keystroke_s	s	n/a
712.038	0.059	1424076	keystroke_t	t	n/a
712.1875	0.0745	1424375	keystroke_a	a	n/a
712.5175	0.0905	1425035	keystroke_g	g	n/a
712.697	0.1205	1425394	keystroke_e	e	n/a
712.9375	0.075	1425875	keystroke_s	s	n/a
713.0275	0.09	1426055	keystroke_Key.enter	Key.enter	n/a
713.122	8.6375	1426244	prompt	n/a	beatles habitat juvenile burn\n
714.0175	0.119	1428035	keystroke_b	b	n/a
714.0925	0.119	1428185	keystroke_e	e	n/a
714.2415	0.106	1428483	keystroke_a	a	n/a
714.392	0.105	1428784	keystroke_t	t	n/a
714.8875	0.106	1429775	keystroke_l	l	n/a
715.0675	0.1045	1430135	keystroke_e	e	n/a
715.3525	0.1195	1430705	keystroke_s	s	n/a
715.5465	0.136	1431093	keystroke_Key.space	Key.space	n/a
716.1625	0.12	1432325	keystroke_h	h	n/a
716.3275	0.12	1432655	keystroke_a	a	n/a
716.463	0.089	1432926	keystroke_b	b	n/a
716.703	0.09	1433406	keystroke_i	i	n/a
716.823	0.044	1433646	keystroke_t	t	n/a
717.152	0.1355	1434304	keystroke_a	a	n/a
717.332	0.106	1434664	keystroke_t	t	n/a
717.8275	0.135	1435655	keystroke_Key.space	Key.space	n/a
718.3815	0.0765	1436763	keystroke_h	h	n/a
719.1775	0.0895	1438355	keystroke_Key.backspace	Key.backspace	n/a
719.537	0.091	1439074	keystroke_j	j	n/a
719.7475	0.0905	1439495	keystroke_u	u	n/a
719.822	0.075	1439644	keystroke_v	v	n/a
720.0025	0.1195	1440005	keystroke_e	e	n/a
720.092	0.09	1440184	keystroke_n	n	n/a
720.257	0.12	1440514	keystroke_i	i	n/a
720.392	0.135	1440784	keystroke_l	l	n/a
720.542	0.12	1441084	keystroke_e	e	n/a
720.677	0.135	1441354	keystroke_Key.space	Key.space	n/a
721.1125	0.075	1442225	keystroke_b	b	n/a
721.262	0.105	1442524	keystroke_u	u	n/a
721.3525	0.06	1442705	keystroke_r	r	n/a
721.457	0.1205	1442914	keystroke_n	n	n/a
721.652	0.105	1443304	keystroke_Key.enter	Key.enter	n/a
721.7635	12.6405	1443527	prompt	n/a	computational sight sing establishment\n
723.2275	0.104	1446455	keystroke_c	c	n/a
723.4375	0.09	1446875	keystroke_o	o	n/a
723.6175	0.15	1447235	keystroke_m	m	n/a
723.7975	0.1355	1447595	keystroke_p	p	n/a
724.0825	0.15	1448165	keystroke_t	t	n/a
724.637	0.105	1449274	keystroke_Key.backspace	Key.backspace	n/a
725.162	0.105	1450324	keystroke_u	u	n/a
725.402	0.105	1450804	keystroke_t	t	n/a
725.642	0.195	1451284	keystroke_a	a	n/a
725.867	0.0905	1451734	keystroke_t	t	n/a
725.972	0.1805	1451944	keystroke_i	i	n/a
726.1375	0.1645	1452275	keystroke_o	o	n/a
726.1975	0.1495	1452395	keystroke_n	n	n/a
726.407	0.1805	1452814	keystroke_a	a	n/a
726.5125	0.1345	1453025	keystroke_l	l	n/a
726.8275	0.0895	1453655	keystroke_n	n	n/a
727.442	0.1045	1454884	keystroke_Key.backspace	Key.backspace	n/a
727.742	0.09	1455484	keystroke_Key.space	Key.space	n/a
728.7775	0.089	1457555	keystroke_s	s	n/a
728.8515	0.106	1457703	keystroke_i	i	n/a
729.0175	0.104	1458035	keystroke_g	g	n/a
729.2875	0.12	1458575	keystroke_h	h	n/a
729.5425	0.06	1459085	keystroke_t	t	n/a
729.6625	0.12	1459325	keystroke_Key.space	Key.space	n/a
729.932	0.1205	1459864	keystroke_s	s	n/a
730.0075	0.06	1460015	keystroke_i	i	n/a
730.1575	0.105	1460315	keystroke_n	n	n/a
730.277	0.1045	1460554	keystroke_g	g	n/a
730.592	0.12	1461184	keystroke_Key.space	Key.space	n/a
731.1175	0.09	1462235	keystroke_e	e	n/a
731.358	0.089	1462716	keystroke_s	s	n/a
731.5525	0.0895	1463105	keystroke_t	t	n/a
731.7465	0.151	1463493	keystroke_a	a	n/a
731.8525	0.09	1463705	keystroke_b	b	n/a
732.2275	0.075	1464455	keystroke_l	l	n/a
732.6165	0.0905	1465233	keystroke_i	i	n/a
733.2025	0.09	1466405	keystroke_s	s	n/a
733.3975	0.105	1466795	keystroke_h	h	n/a
733.7275	0.1055	1467455	keystroke_m	m	n/a
733.833	0.119	1467666	keystroke_e	e	n/a
733.9525	0.135	1467905	keystroke_n	n	n/a
734.102	0.091	1468204	keystroke_t	t	n/a
734.312	0.09	1468624	keystroke_Key.enter	Key.enter	n/a
734.4085	7.5555	1468817	prompt	n/a	roll custody remarkable greg\n
