onset	duration	sample	value	key	prompt_text
5.684	7.1925	11368	prompt	n/a	the quick brown fox jumps over a lazy dog\n
6.966	0.012	13932	keystroke	t	n/a
6.967	0.101	13934	keystroke	h	n/a
7.173	0.105	14346	keystroke	e	n/a
7.263	0.09	14526	keystroke	Key.space	n/a
7.458	0.09	14916	keystroke	q	n/a
7.563	0.075	15126	keystroke	u	n/a
7.742	0.0305	15484	keystroke	i	n/a
7.848	0.09	15696	keystroke	c	n/a
7.953	0.135	15906	keystroke	k	n/a
8.118	0.104	16236	keystroke	Key.space	n/a
8.312	0.091	16624	keystroke	b	n/a
8.448	0.09	16896	keystroke	r	n/a
8.523	0.12	17046	keystroke	o	n/a
8.673	0.104	17346	keystroke	w	n/a
8.763	0.09	17526	keystroke	n	n/a
8.928	0.0895	17856	keystroke	Key.space	n/a
9.0325	0.075	18065	keystroke	f	n/a
9.1225	0.09	18245	keystroke	o	n/a
9.2725	0.1045	18545	keystroke	x	n/a
9.4075	0.0905	18815	keystroke	Key.space	n/a
9.528	0.09	19056	keystroke	j	n/a
9.723	0.09	19446	keystroke	u	n/a
9.948	0.09	19896	keystroke	m	n/a
10.083	0.09	20166	keystroke	p	n/a
10.203	0.105	20406	keystroke	s	n/a
10.368	0.075	20736	keystroke	Key.space	n/a
10.503	0.09	21006	keystroke	o	n/a
10.593	0.09	21186	keystroke	v	n/a
10.758	0.075	21516	keystroke	e	n/a
10.938	0.09	21876	keystroke	r	n/a
11.103	0.09	22206	keystroke	Key.space	n/a
11.388	0.09	22776	keystroke	a	n/a
11.493	0.075	22986	keystroke	Key.space	n/a
11.628	0.1045	23256	keystroke	l	n/a
11.7175	0.045	23435	keystroke	a	n/a
11.8975	0.075	23795	keystroke	z	n/a
11.9875	0.105	23975	keystroke	y	n/a
12.2125	0.075	24425	keystroke	Key.space	n/a
12.3325	0.09	24665	keystroke	d	n/a
12.4075	0.105	24815	keystroke	o	n/a
12.5725	0.105	25145	keystroke	g	n/a
12.7975	0.0755	25595	keystroke	Key.enter	n/a
12.882	8.1375	25764	prompt	n/a	governance precise expects pace\n
13.593	0.06	27186	keystroke	g	n/a
13.668	0.09	27336	keystroke	o	n/a
13.833	0.075	27666	keystroke	v	n/a
13.953	0.09	27906	keystroke	e	n/a
14.118	0.09	28236	keystroke	r	n/a
14.5975	0.075	29195	keystroke	n	n/a
14.7325	0.09	29465	keystroke	a	n/a
14.7935	0.104	29587	keystroke	n	n/a
15.3625	0.075	30725	keystroke	c	n/a
15.4825	0.09	30965	keystroke	e	n/a
15.5735	0.074	31147	keystroke	Key.space	n/a
15.7675	0.09	31535	keystroke	p	n/a
15.8725	0.06	31745	keystroke	e	n/a
16.3375	0.06	32675	keystroke	Key.backspace	n/a
16.4425	0.075	32885	keystroke	r	n/a
16.6375	0.06	33275	keystroke	e	n/a
16.923	0.075	33846	keystroke	s	n/a
17.1025	0.105	34205	keystroke	c	n/a
17.6275	0.045	35255	keystroke	Key.backspace	n/a
17.7475	0.075	35495	keystroke	Key.backspace	n/a
18.1985	0.074	36397	keystroke	c	n/a
18.528	0.09	37056	keystroke	i	n/a
18.663	0.06	37326	keystroke	s	n/a
18.843	0.06	37686	keystroke	e	n/a
18.918	0.075	37836	keystroke	Key.space	n/a
19.038	0.06	38076	keystroke	e	n/a
19.233	0.104	38466	keystroke	x	n/a
19.353	0.075	38706	keystroke	p	n/a
19.443	0.119	38886	keystroke	e	n/a
19.668	0.104	39336	keystroke	c	n/a
19.893	0.089	39786	keystroke	t	n/a
20.117	0.075	40234	keystroke	s	n/a
20.237	0.045	40474	keystroke	Key.space	n/a
20.402	0.091	40804	keystroke	p	n/a
20.478	0.089	40956	keystroke	a	n/a
20.643	0.12	41286	keystroke	c	n/a
20.777	0.121	41554	keystroke	e	n/a
20.943	0.074	41886	keystroke	Key.enter	n/a
21.026	8.6785	42052	prompt	n/a	caroline fridge crowd cork\n
21.6625	0.03	43325	keystroke	c	n/a
21.7535	0.0895	43507	keystroke	a	n/a
21.918	0.09	43836	keystroke	r	n/a
22.083	0.075	44166	keystroke	o	n/a
22.293	0.09	44586	keystroke	l	n/a
22.488	0.135	44976	keystroke	i	n/a
22.638	0.09	45276	keystroke	n	n/a
22.8475	0.09	45695	keystroke	e	n/a
22.9525	0.105	45905	keystroke	Key.space	n/a
23.2375	0.06	46475	keystroke	f	n/a
23.3125	0.105	46625	keystroke	r	n/a
23.4325	0.09	46865	keystroke	i	n/a
23.5675	0.06	47135	keystroke	d	n/a
24.2575	0.045	48515	keystroke	Key.backspace	n/a
24.4375	0.015	48875	keystroke	Key.backspace	n/a
24.5425	0.06	49085	keystroke	Key.backspace	n/a
24.7075	0.045	49415	keystroke	Key.backspace	n/a
24.8425	0.075	49685	keystroke	Key.backspace	n/a
25.4125	0.105	50825	keystroke	Key.space	n/a
25.5935	0.089	51187	keystroke	f	n/a
25.7425	0.075	51485	keystroke	r	n/a
26.3125	0.09	52625	keystroke	i	n/a
26.4485	0.074	52897	keystroke	d	n/a
26.5975	0.105	53195	keystroke	g	n/a
26.6725	0.165	53345	keystroke	e	n/a
26.8825	0.09	53765	keystroke	Key.space	n/a
27.1225	0.09	54245	keystroke	c	n/a
27.4375	0.075	54875	keystroke	r	n/a
27.5425	0.105	55085	keystroke	o	n/a
27.6625	0.105	55325	keystroke	w	n/a
28.4875	0.12	56975	keystroke	d	n/a
28.6975	0.075	57395	keystroke	Key.space	n/a
28.7875	0.076	57575	keystroke	c	n/a
28.8775	0.135	57755	keystroke	o	n/a
28.9975	0.075	57995	keystroke	r	n/a
29.3575	0.09	58715	keystroke	k	n/a
29.6275	0.075	59255	keystroke	Key.enter	n/a
29.709	7.541	59418	prompt	n/a	around funding referred departments\n
30.4085	0.089	60817	keystroke	a	n/a
30.5875	0.075	61175	keystroke	r	n/a
30.6925	0.09	61385	keystroke	i	n/a
31.0685	0.089	62137	keystroke	u	n/a
31.3975	0.045	62795	keystroke	Key.backspace	n/a
31.5025	0.075	63005	keystroke	Key.backspace	n/a
31.9385	0.09	63877	keystroke	o	n/a
32.1185	0.089	64237	keystroke	u	n/a
32.2675	0.105	64535	keystroke	n	n/a
32.3425	0.09	64685	keystroke	d	n/a
32.4625	0.09	64925	keystroke	Key.space	n/a
32.7325	0.075	65465	keystroke	f	n/a
32.8225	0.06	65645	keystroke	o	n/a
33.1375	0.06	66275	keystroke	Key.backspace	n/a
33.3935	0.089	66787	keystroke	u	n/a
33.5575	0.09	67115	keystroke	n	n/a
33.6485	0.089	67297	keystroke	d	n/a
33.6925	0.15	67385	keystroke	i	n/a
33.7975	0.12	67595	keystroke	n	n/a
33.9025	0.09	67805	keystroke	g	n/a
34.0375	0.105	68075	keystroke	Key.space	n/a
34.1585	0.089	68317	keystroke	r	n/a
34.2485	0.134	68497	keystroke	e	n/a
34.5325	0.03	69065	keystroke	f	n/a
34.8625	0.09	69725	keystroke	e	n/a
35.1175	0.06	70235	keystroke	r	n/a
35.2525	0.06	70505	keystroke	r	n/a
35.4175	0.06	70835	keystroke	e	n/a
35.5825	0.06	71165	keystroke	d	n/a
35.6875	0.105	71375	keystroke	Key.space	n/a
35.9125	0.06	71825	keystroke	d	n/a
36.0625	0.076	72125	keystroke	e	n/a
36.1825	0.03	72365	keystroke	p	n/a
36.3025	0.12	72605	keystroke	a	n/a
36.5125	0.06	73025	keystroke	r	n/a
36.6325	0.075	73265	keystroke	t	n/a
36.7225	0.075	73445	keystroke	m	n/a
36.8125	0.0745	73625	keystroke	e	n/a
36.8725	0.075	73745	keystroke	n	n/a
36.932	0.06	73864	keystroke	t	n/a
37.0975	0.0895	74195	keystroke	s	n/a
37.1575	0.0895	74315	keystroke	Key.enter	n/a
37.2555	5.2595	74511	prompt	n/a	tiffany comparison upset combine\n
37.8935	0.074	75787	keystroke	t	n/a
37.9825	0.09	75965	keystroke	i	n/a
38.1775	0.0445	76355	keystroke	f	n/a
38.2975	0.0595	76595	keystroke	f	n/a
38.417	0.0905	76834	keystroke	a	n/a
38.5225	0.0895	77045	keystroke	n	n/a
38.6575	0.1045	77315	keystroke	y	n/a
38.837	0.105	77674	keystroke	Key.space	n/a
39.0475	0.0895	78095	keystroke	c	n/a
39.092	0.181	78184	keystroke	o	n/a
39.227	0.09	78454	keystroke	m	n/a
39.362	0.105	78724	keystroke	p	n/a
39.4075	0.1045	78815	keystroke	a	n/a
39.6025	0.0755	79205	keystroke	r	n/a
39.692	0.105	79384	keystroke	i	n/a
39.828	0.0905	79656	keystroke	s	n/a
39.933	0.134	79866	keystroke	o	n/a
40.0225	0.09	80045	keystroke	n	n/a
40.2025	0.105	80405	keystroke	Key.space	n/a
40.3975	0.0755	80795	keystroke	u	n/a
40.623	0.09	81246	keystroke	p	n/a
40.773	0.06	81546	keystroke	s	n/a
40.923	0.12	81846	keystroke	e	n/a
41.118	0.09	82236	keystroke	t	n/a
41.313	0.105	82626	keystroke	Key.space	n/a
41.538	0.09	83076	keystroke	c	n/a
41.613	0.18	83226	keystroke	o	n/a
41.733	0.105	83466	keystroke	m	n/a
41.883	0.105	83766	keystroke	b	n/a
42.003	0.15	84006	keystroke	i	n/a
42.093	0.135	84186	keystroke	n	n/a
42.198	0.12	84396	keystroke	e	n/a
42.453	0.06	84906	keystroke	Key.enter	n/a
42.52	5.231	85040	prompt	n/a	script marsh dimension sphere\n
43.203	0.075	86406	keystroke	s	n/a
43.368	0.09	86736	keystroke	c	n/a
43.548	0.075	87096	keystroke	r	n/a
43.624	0.074	87248	keystroke	i	n/a
43.818	0.075	87636	keystroke	p	n/a
43.908	0.09	87816	keystroke	t	n/a
44.088	0.06	88176	keystroke	Key.space	n/a
44.238	0.09	88476	keystroke	m	n/a
44.313	0.105	88626	keystroke	a	n/a
44.523	0.075	89046	keystroke	r	n/a
44.688	0.09	89376	keystroke	s	n/a
44.808	0.105	89616	keystroke	h	n/a
44.988	0.105	89976	keystroke	Key.space	n/a
45.078	0.105	90156	keystroke	d	n/a
45.243	0.075	90486	keystroke	i	n/a
45.408	0.09	90816	keystroke	m	n/a
45.513	0.06	91026	keystroke	e	n/a
45.663	0.075	91326	keystroke	s	n/a
46.023	0.09	92046	keystroke	i	n/a
46.203	0.15	92406	keystroke	o	n/a
46.308	0.12	92616	keystroke	n	n/a
46.518	0.075	93036	keystroke	Key.space	n/a
46.638	0.12	93276	keystroke	s	n/a
46.743	0.12	93486	keystroke	p	n/a
47.028	0.06	94056	keystroke	h	n/a
47.193	0.105	94386	keystroke	e	n/a
47.313	0.18	94626	keystroke	r	n/a
47.418	0.135	94836	keystroke	e	n/a
47.628	0.12	95256	keystroke	Key.enter	n/a
47.757	5.1075	95514	prompt	n/a	pointing exhibition para guild\n
48.393	0.075	96786	keystroke	p	n/a
48.573	0.105	97146	keystroke	o	n/a
48.783	0.165	97566	keystroke	i	n/a
48.933	0.09	97866	keystroke	n	n/a
49.008	0.105	98016	keystroke	t	n/a
49.083	0.15	98166	keystroke	i	n/a
49.173	0.105	98346	keystroke	n	n/a
49.263	0.09	98526	keystroke	g	n/a
49.413	0.105	98826	keystroke	Key.space	n/a
49.533	0.06	99066	keystroke	e	n/a
49.788	0.135	99576	keystroke	x	n/a
49.938	0.09	99876	keystroke	h	n/a
50.163	0.075	100326	keystroke	i	n/a
50.358	0.105	100716	keystroke	b	n/a
50.508	0.12	101016	keystroke	i	n/a
50.643	0.06	101286	keystroke	t	n/a
50.718	0.075	101436	keystroke	i	n/a
50.883	0.18	101766	keystroke	o	n/a
51.003	0.09	102006	keystroke	n	n/a
51.213	0.06	102426	keystroke	Key.space	n/a
51.393	0.075	102786	keystroke	p	n/a
51.513	0.075	103026	keystroke	a	n/a
51.678	0.06	103356	keystroke	r	n/a
51.798	0.135	103596	keystroke	a	n/a
51.948	0.105	103896	keystroke	Key.space	n/a
52.038	0.09	104076	keystroke	g	n/a
52.158	0.06	104316	keystroke	u	n/a
52.323	0.09	104646	keystroke	i	n/a
52.518	0.06	105036	keystroke	l	n/a
52.608	0.135	105216	keystroke	d	n/a
52.773	0.09	105546	keystroke	Key.enter	n/a
52.874	5.706	105748	prompt	n/a	disease community appendix house\n
53.523	0.09	107046	keystroke	d	n/a
53.628	0.06	107256	keystroke	i	n/a
53.703	0.075	107406	keystroke	s	n/a
53.883	0.06	107766	keystroke	e	n/a
54.063	0.06	108126	keystroke	a	n/a
54.213	0.06	108426	keystroke	s	n/a
54.363	0.105	108726	keystroke	e	n/a
54.483	0.09	108966	keystroke	Key.space	n/a
54.603	0.09	109206	keystroke	c	n/a
54.678	0.105	109356	keystroke	o	n/a
54.888	0.045	109776	keystroke	m	n/a
55.098	0.015	110196	keystroke	m	n/a
55.653	0.09	111306	keystroke	u	n/a
55.818	0.105	111636	keystroke	n	n/a
55.953	0.09	111906	keystroke	i	n/a
56.058	0.075	112116	keystroke	t	n/a
56.193	0.09	112386	keystroke	y	n/a
56.343	0.06	112686	keystroke	Key.space	n/a
56.463	0.105	112926	keystroke	a	n/a
56.643	0.045	113286	keystroke	p	n/a
56.763	0.075	113526	keystroke	p	n/a
56.868	0.06	113736	keystroke	e	n/a
57.018	0.09	114036	keystroke	n	n/a
57.138	0.075	114276	keystroke	d	n/a
57.258	0.105	114516	keystroke	i	n/a
57.378	0.12	114756	keystroke	x	n/a
57.513	0.075	115026	keystroke	Key.space	n/a
57.648	0.09	115296	keystroke	h	n/a
57.858	0.075	115716	keystroke	o	n/a
58.053	0.075	116106	keystroke	u	n/a
58.143	0.075	116286	keystroke	s	n/a
58.323	0.12	116646	keystroke	e	n/a
58.518	0.06	117036	keystroke	Key.enter	n/a
58.584	10.151	117168	prompt	n/a	associations proxy syndicate platinum\n
59.403	0.075	118806	keystroke	a	n/a
59.583	0.06	119166	keystroke	s	n/a
59.703	0.075	119406	keystroke	s	n/a
59.898	0.075	119796	keystroke	c	n/a
60.003	0.12	120006	keystroke	o	n/a
60.888	0.06	121776	keystroke	Key.backspace	n/a
61.023	0.075	122046	keystroke	Key.backspace	n/a
61.308	0.075	122616	keystroke	o	n/a
61.413	0.075	122826	keystroke	c	n/a
61.503	0.105	123006	keystroke	i	n/a
61.623	0.075	123246	keystroke	a	n/a
61.848	0.135	123696	keystroke	t	n/a
61.968	0.15	123936	keystroke	e	n/a
62.358	0.105	124716	keystroke	d	n/a
62.478	0.09	124956	keystroke	Key.space	n/a
62.988	0.03	125976	keystroke	Key.backspace	n/a
63.123	0.06	126246	keystroke	Key.backspace	n/a
63.318	0.075	126636	keystroke	Key.backspace	n/a
63.783	0.075	127566	keystroke	i	n/a
63.933	0.165	127866	keystroke	o	n/a
64.053	0.105	128106	keystroke	n	n/a
64.143	0.075	128286	keystroke	s	n/a
64.263	0.09	128526	keystroke	Key.space	n/a
64.473	0.075	128946	keystroke	p	n/a
64.578	0.09	129156	keystroke	r	n/a
64.683	0.105	129366	keystroke	o	n/a
64.893	0.105	129786	keystroke	x	n/a
65.043	0.105	130086	keystroke	y	n/a
65.283	0.105	130566	keystroke	Key.space	n/a
65.433	0.075	130866	keystroke	s	n/a
65.583	0.105	131166	keystroke	y	n/a
66.003	0.105	132006	keystroke	n	n/a
66.198	0.09	132396	keystroke	d	n/a
66.348	0.09	132696	keystroke	i	n/a
66.528	0.075	133056	keystroke	c	n/a
66.663	0.12	133326	keystroke	a	n/a
66.903	0.12	133806	keystroke	t	n/a
66.978	0.12	133956	keystroke	e	n/a
67.128	0.06	134256	keystroke	Key.space	n/a
67.353	0.165	134706	keystroke	p	n/a
67.473	0.105	134946	keystroke	l	n/a
67.593	0.105	135186	keystroke	a	n/a
67.699	0.119	135398	keystroke	n	n/a
67.833	0.09	135666	keystroke	t	n/a
67.908	0.165	135816	keystroke	i	n/a
68.043	0.09	136086	keystroke	n	n/a
68.208	0.105	136416	keystroke	u	n/a
68.433	0.09	136866	keystroke	m	n/a
68.643	0.09	137286	keystroke	Key.enter	n/a
68.7405	4.8245	137481	prompt	n/a	melissa nice employees highs\n
69.363	0.105	138726	keystroke	m	n/a
69.498	0.12	138996	keystroke	e	n/a
69.633	0.12	139266	keystroke	l	n/a
69.903	0.045	139806	keystroke	i	n/a
70.023	0.075	140046	keystroke	i	n/a
70.128	0.135	140256	keystroke	s	n/a
70.248	0.075	140496	keystroke	a	n/a
70.293	0.09	140586	keystroke	Key.space	n/a
70.473	0.09	140946	keystroke	n	n/a
70.548	0.075	141096	keystroke	i	n/a
70.683	0.045	141366	keystroke	c	n/a
70.773	0.105	141546	keystroke	e	n/a
70.893	0.075	141786	keystroke	Key.space	n/a
70.998	0.06	141996	keystroke	e	n/a
71.103	0.105	142206	keystroke	m	n/a
71.313	0.18	142626	keystroke	p	n/a
71.433	0.12	142866	keystroke	l	n/a
71.613	0.105	143226	keystroke	o	n/a
71.778	0.09	143556	keystroke	y	n/a
72.063	0.09	144126	keystroke	e	n/a
72.228	0.075	144456	keystroke	e	n/a
72.423	0.075	144846	keystroke	s	n/a
72.513	0.09	145026	keystroke	Key.space	n/a
72.663	0.075	145326	keystroke	h	n/a
72.843	0.075	145686	keystroke	i	n/a
72.948	0.09	145896	keystroke	g	n/a
73.053	0.09	146106	keystroke	h	n/a
73.173	0.105	146346	keystroke	s	n/a
73.503	0.06	147006	keystroke	Key.enter	n/a
73.569	6.2505	147138	prompt	n/a	willow computation forest grenada\n
74.208	0.075	148416	keystroke	w	n/a
74.328	0.09	148656	keystroke	i	n/a
74.703	0.075	149406	keystroke	l	n/a
74.853	0.06	149706	keystroke	l	n/a
75.093	0.09	150186	keystroke	o	n/a
75.228	0.105	150456	keystroke	w	n/a
75.348	0.06	150696	keystroke	Key.space	n/a
75.528	0.09	151056	keystroke	c	n/a
75.828	0.135	151656	keystroke	o	n/a
75.993	0.105	151986	keystroke	m	n/a
76.173	0.06	152346	keystroke	p	n/a
76.398	0.03	152796	keystroke	u	n/a
76.458	0.09	152916	keystroke	t	n/a
76.728	0.105	153456	keystroke	a	n/a
76.923	0.105	153846	keystroke	t	n/a
77.043	0.075	154086	keystroke	i	n/a
77.208	0.135	154416	keystroke	o	n/a
77.298	0.09	154596	keystroke	n	n/a
77.493	0.09	154986	keystroke	Key.space	n/a
77.598	0.105	155196	keystroke	f	n/a
77.688	0.045	155376	keystroke	o	n/a
77.763	0.09	155526	keystroke	r	n/a
77.958	0.075	155916	keystroke	e	n/a
78.108	0.12	156216	keystroke	s	n/a
78.348	0.075	156696	keystroke	t	n/a
78.528	0.105	157056	keystroke	Key.space	n/a
78.678	0.06	157356	keystroke	g	n/a
78.903	0.105	157806	keystroke	r	n/a
78.978	0.09	157956	keystroke	e	n/a
79.143	0.09	158286	keystroke	n	n/a
79.218	0.075	158436	keystroke	a	n/a
79.338	0.135	158676	keystroke	d	n/a
79.413	0.15	158826	keystroke	a	n/a
79.728	0.09	159456	keystroke	Key.enter	n/a
79.8245	5.6655	159649	prompt	n/a	neon wrestling tropical hospital\n
80.418	0.105	160836	keystroke	n	n/a
80.568	0.075	161136	keystroke	e	n/a
80.688	0.18	161376	keystroke	o	n/a
80.823	0.09	161646	keystroke	n	n/a
81.018	0.09	162036	keystroke	Key.space	n/a
81.273	0.12	162546	keystroke	w	n/a
81.483	0.135	162966	keystroke	r	n/a
81.573	0.06	163146	keystroke	e	n/a
81.738	0.075	163476	keystroke	s	n/a
81.873	0.09	163746	keystroke	t	n/a
81.978	0.09	163956	keystroke	l	n/a
82.188	0.15	164376	keystroke	i	n/a
82.323	0.105	164646	keystroke	n	n/a
82.608	0.09	165216	keystroke	g	n/a
82.773	0.09	165546	keystroke	Key.space	n/a
82.953	0.12	165906	keystroke	t	n/a
83.088	0.105	166176	keystroke	r	n/a
83.163	0.09	166326	keystroke	o	n/a
83.343	0.075	166686	keystroke	p	n/a
83.538	0.075	167076	keystroke	i	n/a
83.598	0.06	167196	keystroke	c	n/a
83.718	0.09	167436	keystroke	a	n/a
83.793	0.075	167586	keystroke	l	n/a
83.958	0.105	167916	keystroke	Key.space	n/a
84.093	0.075	168186	keystroke	h	n/a
84.198	0.105	168396	keystroke	o	n/a
84.304	0.089	168608	keystroke	s	n/a
84.618	0.06	169236	keystroke	p	n/a
84.828	0.075	169656	keystroke	i	n/a
84.933	0.075	169866	keystroke	t	n/a
85.113	0.09	170226	keystroke	a	n/a
85.188	0.075	170376	keystroke	l	n/a
85.398	0.09	170796	keystroke	Key.enter	n/a
85.494	4.046	170988	prompt	n/a	versus rules fluid clark\n
86.253	0.06	172506	keystroke	v	n/a
86.373	0.075	172746	keystroke	e	n/a
86.523	0.075	173046	keystroke	r	n/a
86.733	0.075	173466	keystroke	s	n/a
86.778	0.09	173556	keystroke	u	n/a
86.883	0.075	173766	keystroke	s	n/a
87.048	0.075	174096	keystroke	Key.space	n/a
87.348	0.06	174696	keystroke	r	n/a
87.453	0.06	174906	keystroke	u	n/a
87.633	0.09	175266	keystroke	l	n/a
87.708	0.075	175416	keystroke	e	n/a
87.888	0.075	175776	keystroke	s	n/a
87.933	0.09	175866	keystroke	Key.space	n/a
88.053	0.075	176106	keystroke	f	n/a
88.143	0.06	176286	keystroke	l	n/a
88.338	0.075	176676	keystroke	u	n/a
88.488	0.09	176976	keystroke	i	n/a
88.608	0.075	177216	keystroke	d	n/a
88.758	0.09	177516	keystroke	Key.space	n/a
88.863	0.06	177726	keystroke	c	n/a
88.953	0.09	177906	keystroke	l	n/a
89.013	0.09	178026	keystroke	a	n/a
89.163	0.075	178326	keystroke	r	n/a
89.253	0.09	178506	keystroke	k	n/a
89.448	0.09	178896	keystroke	Key.enter	n/a
89.5445	5.6655	179089	prompt	n/a	dimensional banking pink bulgaria\n
90.153	0.09	180306	keystroke	d	n/a
90.273	0.09	180546	keystroke	i	n/a
90.483	0.09	180966	keystroke	m	n/a
90.558	0.06	181116	keystroke	e	n/a
90.663	0.09	181326	keystroke	n	n/a
90.738	0.09	181476	keystroke	s	n/a
90.873	0.075	181746	keystroke	i	n/a
91.038	0.135	182076	keystroke	o	n/a
91.113	0.12	182226	keystroke	n	n/a
91.218	0.075	182436	keystroke	a	n/a
91.323	0.135	182646	keystroke	l	n/a
91.458	0.105	182916	keystroke	Key.space	n/a
91.653	0.09	183306	keystroke	b	n/a
91.758	0.075	183516	keystroke	a	n/a
91.863	0.12	183726	keystroke	n	n/a
92.073	0.09	184146	keystroke	k	n/a
92.238	0.12	184476	keystroke	i	n/a
92.388	0.09	184776	keystroke	n	n/a
92.493	0.075	184986	keystroke	g	n/a
92.583	0.09	185166	keystroke	Key.space	n/a
92.823	0.075	185646	keystroke	p	n/a
93.033	0.165	186066	keystroke	i	n/a
93.183	0.12	186366	keystroke	n	n/a
93.363	0.165	186726	keystroke	k	n/a
93.543	0.09	187086	keystroke	Key.space	n/a
93.738	0.09	187476	keystroke	b	n/a
93.888	0.105	187776	keystroke	u	n/a
94.098	0.075	188196	keystroke	l	n/a
94.233	0.075	188466	keystroke	g	n/a
94.443	0.105	188886	keystroke	a	n/a
94.623	0.105	189246	keystroke	r	n/a
94.698	0.09	189396	keystroke	i	n/a
94.848	0.105	189696	keystroke	a	n/a
95.163	0.045	190326	keystroke	Key.enter	n/a
95.215	5.591	190430	prompt	n/a	lyric duty months pharmacology\n
95.883	0.105	191766	keystroke	l	n/a
96.048	0.09	192096	keystroke	y	n/a
96.243	0.09	192486	keystroke	r	n/a
96.318	0.105	192636	keystroke	i	n/a
96.543	0.06	193086	keystroke	c	n/a
96.813	0.09	193626	keystroke	Key.space	n/a
96.963	0.06	193926	keystroke	d	n/a
97.038	0.075	194076	keystroke	u	n/a
97.263	0.12	194526	keystroke	t	n/a
97.428	0.105	194856	keystroke	y	n/a
97.548	0.09	195096	keystroke	Key.space	n/a
97.743	0.06	195486	keystroke	m	n/a
97.848	0.135	195696	keystroke	o	n/a
97.938	0.135	195876	keystroke	n	n/a
98.043	0.09	196086	keystroke	t	n/a
98.208	0.09	196416	keystroke	h	n/a
98.343	0.09	196686	keystroke	s	n/a
98.448	0.075	196896	keystroke	Key.space	n/a
98.673	0.06	197346	keystroke	p	n/a
99.003	0.09	198006	keystroke	h	n/a
99.138	0.075	198276	keystroke	a	n/a
99.303	0.075	198606	keystroke	r	n/a
99.408	0.09	198816	keystroke	m	n/a
99.528	0.06	199056	keystroke	a	n/a
99.693	0.06	199386	keystroke	c	n/a
99.828	0.09	199656	keystroke	o	n/a
100.023	0.075	200046	keystroke	l	n/a
100.173	0.09	200346	keystroke	o	n/a
100.293	0.09	200586	keystroke	g	n/a
100.443	0.12	200886	keystroke	y	n/a
100.713	0.09	201426	keystroke	Key.enter	n/a
100.8115	6.833	201623	prompt	n/a	spokesman tolerance elite container\n
101.417	0.09	202834	keystroke	s	n/a
101.567	0.105	203134	keystroke	p	n/a
101.852	0.135	203704	keystroke	k	n/a
102.542	0.075	205084	keystroke	Key.backspace	n/a
102.947	0.135	205894	keystroke	o	n/a
103.037	0.09	206074	keystroke	k	n/a
103.157	0.09	206314	keystroke	e	n/a
103.322	0.105	206644	keystroke	m	n/a
103.487	0.075	206974	keystroke	a	n/a
103.577	0.105	207154	keystroke	n	n/a
103.787	0.09	207574	keystroke	Key.space	n/a
103.952	0.105	207904	keystroke	t	n/a
104.042	0.075	208084	keystroke	o	n/a
104.192	0.12	208384	keystroke	l	n/a
104.207	0.09	208414	keystroke	e	n/a
104.357	0.045	208714	keystroke	r	n/a
104.477	0.105	208954	keystroke	a	n/a
104.597	0.075	209194	keystroke	n	n/a
104.673	0.074	209346	keystroke	c	n/a
104.777	0.12	209554	keystroke	e	n/a
104.912	0.06	209824	keystroke	Key.space	n/a
105.212	0.09	210424	keystroke	e	n/a
105.347	0.105	210694	keystroke	l	n/a
105.557	0.075	211114	keystroke	i	n/a
105.632	0.09	211264	keystroke	t	n/a
105.752	0.135	211504	keystroke	e	n/a
105.977	0.09	211954	keystroke	Key.space	n/a
106.187	0.075	212374	keystroke	c	n/a
106.217	0.18	212434	keystroke	o	n/a
106.307	0.165	212614	keystroke	n	n/a
106.442	0.075	212884	keystroke	t	n/a
106.652	0.075	213304	keystroke	a	n/a
106.697	0.15	213394	keystroke	i	n/a
106.802	0.12	213604	keystroke	n	n/a
106.937	0.225	213874	keystroke	e	n/a
107.252	0.075	214504	keystroke	r	n/a
107.552	0.09	215104	keystroke	Key.enter	n/a
107.65	4.599	215300	prompt	n/a	twist close wikipedia palm\n
108.422	0.06	216844	keystroke	t	n/a
108.542	0.09	217084	keystroke	w	n/a
108.617	0.09	217234	keystroke	i	n/a
108.722	0.09	217444	keystroke	s	n/a
108.887	0.09	217774	keystroke	t	n/a
109.022	0.075	218044	keystroke	Key.space	n/a
109.217	0.075	218434	keystroke	c	n/a
109.307	0.09	218614	keystroke	l	n/a
109.472	0.105	218944	keystroke	o	n/a
109.547	0.075	219094	keystroke	s	n/a
109.712	0.075	219424	keystroke	e	n/a
109.817	0.105	219634	keystroke	Key.space	n/a
109.937	0.09	219874	keystroke	w	n/a
110.042	0.075	220084	keystroke	i	n/a
110.237	0.06	220474	keystroke	k	n/a
110.387	0.09	220774	keystroke	i	n/a
110.597	0.09	221194	keystroke	p	n/a
110.657	0.075	221314	keystroke	e	n/a
110.807	0.09	221614	keystroke	d	n/a
110.882	0.105	221764	keystroke	i	n/a
111.017	0.075	222034	keystroke	a	n/a
111.137	0.105	222274	keystroke	Key.space	n/a
111.377	0.105	222754	keystroke	p	n/a
111.497	0.105	222994	keystroke	a	n/a
111.662	0.075	223324	keystroke	l	n/a
111.887	0.09	223774	keystroke	m	n/a
112.142	0.105	224284	keystroke	Key.enter	n/a
112.2535	4.1055	224507	prompt	n/a	thong called minerals surge\n
112.937	0.075	225874	keystroke	t	n/a
113.072	0.06	226144	keystroke	h	n/a
113.237	0.15	226474	keystroke	o	n/a
113.327	0.105	226654	keystroke	n	n/a
113.418	0.044	226836	keystroke	g	n/a
113.522	0.12	227044	keystroke	Key.space	n/a
113.657	0.06	227314	keystroke	c	n/a
113.762	0.12	227524	keystroke	a	n/a
113.852	0.06	227704	keystroke	l	n/a
113.972	0.075	227944	keystroke	l	n/a
114.062	0.075	228124	keystroke	e	n/a
114.227	0.075	228454	keystroke	d	n/a
114.317	0.06	228634	keystroke	Key.space	n/a
114.482	0.09	228964	keystroke	m	n/a
114.647	0.135	229294	keystroke	i	n/a
114.707	0.15	229414	keystroke	n	n/a
114.917	0.09	229834	keystroke	e	n/a
115.082	0.06	230164	keystroke	r	n/a
115.277	0.075	230554	keystroke	a	n/a
115.367	0.075	230734	keystroke	l	n/a
115.457	0.06	230914	keystroke	s	n/a
115.532	0.105	231064	keystroke	Key.space	n/a
115.622	0.075	231244	keystroke	s	n/a
115.727	0.105	231454	keystroke	u	n/a
115.817	0.105	231634	keystroke	r	n/a
115.967	0.135	231934	keystroke	g	n/a
116.072	0.15	232144	keystroke	e	n/a
116.267	0.09	232534	keystroke	Key.enter	n/a
116.364	7.33	232728	prompt	n/a	contributor lawyer keywords contributions\n
117.272	0.09	234544	keystroke	c	n/a
117.332	0.165	234664	keystroke	o	n/a
117.437	0.105	234874	keystroke	n	n/a
117.572	0.09	235144	keystroke	t	n/a
117.632	0.105	235264	keystroke	r	n/a
117.647	0.18	235294	keystroke	i	n/a
117.797	0.105	235594	keystroke	b	n/a
117.932	0.09	235864	keystroke	u	n/a
118.052	0.075	236104	keystroke	t	n/a
118.157	0.09	236314	keystroke	o	n/a
118.262	0.135	236524	keystroke	r	n/a
118.652	0.09	237304	keystroke	Key.space	n/a
118.817	0.09	237634	keystroke	l	n/a
118.937	0.09	237874	keystroke	a	n/a
119.417	0.075	238834	keystroke	w	n/a
119.522	0.09	239044	keystroke	y	n/a
119.627	0.09	239254	keystroke	e	n/a
119.807	0.105	239614	keystroke	r	n/a
119.942	0.075	239884	keystroke	Key.space	n/a
120.107	0.09	240214	keystroke	k	n/a
120.227	0.075	240454	keystroke	e	n/a
120.602	0.09	241204	keystroke	y	n/a
120.737	0.12	241474	keystroke	w	n/a
120.842	0.105	241684	keystroke	o	n/a
120.992	0.075	241984	keystroke	r	n/a
121.202	0.12	242404	keystroke	d	n/a
121.322	0.105	242644	keystroke	s	n/a
121.397	0.075	242794	keystroke	Key.space	n/a
121.532	0.076	243064	keystroke	c	n/a
121.592	0.18	243184	keystroke	o	n/a
121.712	0.135	243424	keystroke	n	n/a
121.877	0.12	243754	keystroke	t	n/a
121.982	0.075	243964	keystroke	r	n/a
122.027	0.105	244054	keystroke	i	n/a
122.192	0.075	244384	keystroke	b	n/a
122.327	0.09	244654	keystroke	u	n/a
122.432	0.075	244864	keystroke	t	n/a
122.762	0.09	245524	keystroke	i	n/a
122.927	0.18	245854	keystroke	o	n/a
123.047	0.105	246094	keystroke	n	n/a
123.197	0.195	246394	keystroke	s	n/a
123.617	0.075	247234	keystroke	Key.enter	n/a
123.7015	5.378	247403	prompt	n/a	suggestions surrey faculty goods\n
124.337	0.09	248674	keystroke	s	n/a
124.397	0.09	248794	keystroke	u	n/a
124.562	0.18	249124	keystroke	g	n/a
125.042	0.075	250084	keystroke	g	n/a
125.147	0.09	250294	keystroke	e	n/a
125.327	0.075	250654	keystroke	s	n/a
125.507	0.09	251014	keystroke	t	n/a
125.582	0.075	251164	keystroke	i	n/a
125.732	0.12	251464	keystroke	o	n/a
125.822	0.105	251644	keystroke	n	n/a
125.882	0.09	251764	keystroke	s	n/a
126.017	0.105	252034	keystroke	Key.space	n/a
126.107	0.09	252214	keystroke	s	n/a
126.212	0.09	252424	keystroke	u	n/a
126.347	0.075	252694	keystroke	r	n/a
126.497	0.045	252994	keystroke	r	n/a
126.647	0.06	253294	keystroke	e	n/a
126.677	0.09	253354	keystroke	y	n/a
126.917	0.105	253834	keystroke	Key.space	n/a
127.007	0.06	254014	keystroke	f	n/a
127.157	0.09	254314	keystroke	a	n/a
127.307	0.09	254614	keystroke	c	n/a
127.337	0.105	254674	keystroke	u	n/a
127.562	0.075	255124	keystroke	l	n/a
127.652	0.075	255304	keystroke	t	n/a
127.787	0.12	255574	keystroke	y	n/a
127.952	0.09	255904	keystroke	Key.space	n/a
128.162	0.03	256324	keystroke	g	n/a
128.237	0.075	256474	keystroke	g	n/a
128.432	0.075	256864	keystroke	o	n/a
128.582	0.075	257164	keystroke	o	n/a
128.702	0.15	257404	keystroke	d	n/a
128.807	0.09	257614	keystroke	s	n/a
129.062	0.015	258124	keystroke	Key.enter	n/a
129.0855	9.909	258171	prompt	n/a	breach parts bridge venice\n
129.932	0.106	259864	keystroke	b	n/a
130.052	0.1055	260104	keystroke	r	n/a
130.1265	0.076	260253	keystroke	e	n/a
130.3225	0.0755	260645	keystroke	a	n/a
133.8055	0.042	267611	keystroke	r	n/a
133.8625	0.06	267725	keystroke	e	n/a
134.0565	0.09	268113	keystroke	a	n/a
134.2075	0.09	268415	keystroke	c	n/a
134.2825	0.135	268565	keystroke	h	n/a
134.4925	0.074	268985	keystroke	Key.space	n/a
134.7775	0.089	269555	keystroke	a	n/a
135.1825	0.09	270365	keystroke	Key.backspace	n/a
135.6775	0.09	271355	keystroke	p	n/a
135.7525	0.105	271505	keystroke	a	n/a
135.9175	0.09	271835	keystroke	r	n/a
136.0975	0.06	272195	keystroke	t	n/a
136.2475	0.075	272495	keystroke	s	n/a
136.4715	0.061	272943	keystroke	Key.space	n/a
136.6225	0.075	273245	keystroke	b	n/a
136.7425	0.075	273485	keystroke	r	n/a
136.8025	0.06	273605	keystroke	i	n/a
136.9825	0.09	273965	keystroke	d	n/a
137.1325	0.12	274265	keystroke	g	n/a
137.2675	0.09	274535	keystroke	e	n/a
137.4025	0.09	274805	keystroke	Key.space	n/a
138.0325	0.09	276065	keystroke	v	n/a
138.1525	0.105	276305	keystroke	e	n/a
138.2725	0.09	276545	keystroke	n	n/a
138.3925	0.09	276785	keystroke	i	n/a
138.5125	0.09	277025	keystroke	c	n/a
138.6165	0.091	277233	keystroke	e	n/a
138.8875	0.105	277775	keystroke	Key.enter	n/a
139.0005	3.8795	278001	prompt	n/a	labs tile soviet urban\n
139.6225	0.105	279245	keystroke	l	n/a
139.7575	0.075	279515	keystroke	a	n/a
139.8915	0.091	279783	keystroke	b	n/a
139.9975	0.075	279995	keystroke	s	n/a
140.1325	0.074	280265	keystroke	Key.space	n/a
140.2525	0.104	280505	keystroke	t	n/a
140.3425	0.105	280685	keystroke	i	n/a
140.5675	0.075	281135	keystroke	l	n/a
140.6575	0.075	281315	keystroke	e	n/a
140.7615	0.076	281523	keystroke	Key.space	n/a
140.8675	0.075	281735	keystroke	s	n/a
140.9275	0.09	281855	keystroke	o	n/a
141.0475	0.075	282095	keystroke	v	n/a
141.1375	0.09	282275	keystroke	i	n/a
141.2715	0.106	282543	keystroke	e	n/a
141.4975	0.075	282995	keystroke	t	n/a
141.6025	0.105	283205	keystroke	Key.space	n/a
141.9025	0.105	283805	keystroke	u	n/a
142.0825	0.06	284165	keystroke	r	n/a
142.3525	0.075	284705	keystroke	b	n/a
142.4575	0.075	284915	keystroke	a	n/a
142.5625	0.075	285125	keystroke	n	n/a
142.7875	0.09	285575	keystroke	Key.enter	n/a
142.884	6.5655	285768	prompt	n/a	discussion insulation defence rebound\n
143.7625	0.075	287525	keystroke	d	n/a
143.8825	0.105	287765	keystroke	i	n/a
143.9725	0.09	287945	keystroke	s	n/a
144.1675	0.075	288335	keystroke	c	n/a
144.2575	0.09	288515	keystroke	u	n/a
144.4375	0.06	288875	keystroke	s	n/a
144.5575	0.06	289115	keystroke	s	n/a
144.6325	0.075	289265	keystroke	i	n/a
144.7825	0.165	289565	keystroke	o	n/a
144.9025	0.09	289805	keystroke	n	n/a
145.1125	0.074	290225	keystroke	Key.space	n/a
145.2775	0.12	290555	keystroke	i	n/a
145.3525	0.12	290705	keystroke	n	n/a
145.4575	0.09	290915	keystroke	s	n/a
145.5625	0.06	291125	keystroke	u	n/a
145.7575	0.075	291515	keystroke	l	n/a
145.8475	0.06	291695	keystroke	a	n/a
146.0575	0.075	292115	keystroke	t	n/a
146.1625	0.075	292325	keystroke	i	n/a
146.3275	0.15	292655	keystroke	o	n/a
146.4925	0.045	292985	keystroke	n	n/a
146.732	0.09	293464	keystroke	Key.space	n/a
146.868	0.09	293736	keystroke	d	n/a
147.018	0.09	294036	keystroke	e	n/a
147.198	0.075	294396	keystroke	f	n/a
147.333	0.135	294666	keystroke	e	n/a
147.648	0.09	295296	keystroke	r	n/a
147.723	0.135	295446	keystroke	e	n/a
147.843	0.075	295686	keystroke	n	n/a
147.933	0.105	295866	keystroke	c	n/a
148.053	0.06	296106	keystroke	e	n/a
148.098	0.12	296196	keystroke	Key.space	n/a
148.233	0.075	296466	keystroke	r	n/a
148.413	0.075	296826	keystroke	e	n/a
148.548	0.09	297096	keystroke	b	n/a
148.728	0.105	297456	keystroke	o	n/a
148.923	0.09	297846	keystroke	u	n/a
149.043	0.12	298086	keystroke	n	n/a
149.178	0.09	298356	keystroke	d	n/a
149.343	0.105	298686	keystroke	Key.enter	n/a
149.4545	5.1255	298909	prompt	n/a	housewives turkey dispute builds\n
150.153	0.09	300306	keystroke	h	n/a
150.318	0.12	300636	keystroke	o	n/a
150.528	0.075	301056	keystroke	u	n/a
150.558	0.09	301116	keystroke	s	n/a
150.753	0.045	301506	keystroke	e	n/a
150.873	0.105	301746	keystroke	i	n/a
150.918	0.105	301836	keystroke	w	n/a
151.158	0.075	302316	keystroke	v	n/a
151.278	0.12	302556	keystroke	e	n/a
151.488	0.09	302976	keystroke	s	n/a
151.593	0.09	303186	keystroke	Key.space	n/a
151.728	0.105	303456	keystroke	t	n/a
151.818	0.075	303636	keystroke	u	n/a
151.863	0.09	303726	keystroke	r	n/a
152.013	0.09	304026	keystroke	k	n/a
152.073	0.075	304146	keystroke	e	n/a
152.208	0.09	304416	keystroke	y	n/a
152.358	0.09	304716	keystroke	Key.space	n/a
152.523	0.09	305046	keystroke	d	n/a
152.598	0.075	305196	keystroke	i	n/a
152.688	0.06	305376	keystroke	s	n/a
152.823	0.075	305646	keystroke	p	n/a
153.048	0.12	306096	keystroke	u	n/a
153.153	0.12	306306	keystroke	t	n/a
153.258	0.12	306516	keystroke	e	n/a
153.392	0.076	306784	keystroke	Key.space	n/a
153.588	0.075	307176	keystroke	b	n/a
153.723	0.075	307446	keystroke	u	n/a
153.903	0.06	307806	keystroke	i	n/a
154.068	0.06	308136	keystroke	l	n/a
154.128	0.165	308256	keystroke	d	n/a
154.233	0.075	308466	keystroke	s	n/a
154.488	0.09	308976	keystroke	Key.enter	n/a
154.5845	6.46	309169	prompt	n/a	forecast barbie ordered mercy\n
155.298	0.12	310596	keystroke	f	n/a
155.403	0.09	310806	keystroke	o	n/a
155.478	0.075	310956	keystroke	r	n/a
155.658	0.09	311316	keystroke	e	n/a
155.943	0.06	311886	keystroke	c	n/a
156.063	0.09	312126	keystroke	a	n/a
156.243	0.09	312486	keystroke	s	n/a
156.468	0.09	312936	keystroke	t	n/a
156.633	0.09	313266	keystroke	Key.space	n/a
156.828	0.09	313656	keystroke	b	n/a
156.903	0.075	313806	keystroke	a	n/a
157.053	0.09	314106	keystroke	r	n/a
157.098	0.075	314196	keystroke	b	n/a
157.218	0.105	314436	keystroke	i	n/a
157.308	0.105	314616	keystroke	e	n/a
157.473	0.09	314946	keystroke	Key.space	n/a
157.668	0.09	315336	keystroke	o	n/a
157.743	0.075	315486	keystroke	r	n/a
157.923	0.06	315846	keystroke	d	n/a
158.133	0.015	316266	keystroke	e	n/a
158.313	0.105	316626	keystroke	r	n/a
158.373	0.12	316746	keystroke	e	n/a
158.643	0.075	317286	keystroke	d	n/a
158.973	0.06	317946	keystroke	Key.space	n/a
159.183	0.06	318366	keystroke	m	n/a
159.633	0.06	319266	keystroke	a	n/a
160.128	0.09	320256	keystroke	Key.backspace	n/a
160.233	0.075	320466	keystroke	e	n/a
160.383	0.075	320766	keystroke	r	n/a
160.563	0.12	321126	keystroke	c	n/a
160.638	0.09	321276	keystroke	y	n/a
160.953	0.09	321906	keystroke	Key.enter	n/a
161.049	7.1815	322098	prompt	n/a	pavilion fancy firewire dead\n
161.763	0.12	323526	keystroke	p	n/a
161.973	0.12	323946	keystroke	a	n/a
162.288	0.075	324576	keystroke	v	n/a
162.528	0.09	325056	keystroke	i	n/a
162.828	0.045	325656	keystroke	l	n/a
162.963	0.075	325926	keystroke	l	n/a
163.728	0.06	327456	keystroke	Key.backspace	n/a
164.058	0.09	328116	keystroke	i	n/a
164.253	0.21	328506	keystroke	o	n/a
164.388	0.12	328776	keystroke	n	n/a
164.583	0.12	329166	keystroke	Key.space	n/a
164.688	0.075	329376	keystroke	f	n/a
164.823	0.105	329646	keystroke	a	n/a
164.853	0.105	329706	keystroke	n	n/a
165.018	0.09	330036	keystroke	c	n/a
165.123	0.105	330246	keystroke	y	n/a
165.393	0.06	330786	keystroke	Key.space	n/a
165.468	0.06	330936	keystroke	Key.space	n/a
165.603	0.075	331206	keystroke	f	n/a
165.693	0.09	331386	keystroke	i	n/a
165.813	0.12	331626	keystroke	r	n/a
165.918	0.06	331836	keystroke	e	n/a
166.053	0.09	332106	keystroke	w	n/a
166.128	0.075	332256	keystroke	i	n/a
166.233	0.135	332466	keystroke	r	n/a
166.323	0.075	332646	keystroke	e	n/a
166.428	0.105	332856	keystroke	Key.space	n/a
166.938	0.03	333876	keystroke	a	n/a
167.313	0.075	334626	keystroke	Key.backspace	n/a
167.418	0.09	334836	keystroke	d	n/a
167.538	0.09	335076	keystroke	e	n/a
167.748	0.075	335496	keystroke	a	n/a
167.883	0.09	335766	keystroke	d	n/a
168.153	0.075	336306	keystroke	Key.enter	n/a
168.236	4.5535	336472	prompt	n/a	usage somewhat longest mayor\n
168.933	0.075	337866	keystroke	u	n/a
168.978	0.075	337956	keystroke	s	n/a
169.158	0.075	338316	keystroke	a	n/a
169.428	0.03	338856	keystroke	g	n/a
169.443	0.09	338886	keystroke	e	n/a
169.563	0.105	339126	keystroke	Key.space	n/a
169.728	0.09	339456	keystroke	s	n/a
169.788	0.165	339576	keystroke	o	n/a
169.878	0.15	339756	keystroke	m	n/a
169.983	0.06	339966	keystroke	e	n/a
170.253	0.06	340506	keystroke	w	n/a
170.343	0.09	340686	keystroke	h	n/a
170.448	0.075	340896	keystroke	a	n/a
170.658	0.075	341316	keystroke	t	n/a
170.748	0.09	341496	keystroke	Key.space	n/a
170.943	0.075	341886	keystroke	l	n/a
171.093	0.135	342186	keystroke	o	n/a
171.138	0.165	342276	keystroke	n	n/a
171.243	0.15	342486	keystroke	g	n/a
171.363	0.075	342726	keystroke	e	n/a
171.498	0.12	342996	keystroke	s	n/a
171.693	0.09	343386	keystroke	t	n/a
171.798	0.09	343596	keystroke	Key.space	n/a
171.963	0.105	343926	keystroke	m	n/a
172.053	0.075	344106	keystroke	a	n/a
172.293	0.09	344586	keystroke	y	n/a
172.383	0.12	344766	keystroke	o	n/a
172.458	0.135	344916	keystroke	r	n/a
172.698	0.09	345396	keystroke	Key.enter	n/a
172.7955	6.2045	345591	prompt	n/a	expanded symphony wherever accessories\n
173.448	0.075	346896	keystroke	e	n/a
173.658	0.075	347316	keystroke	x	n/a
173.763	0.075	347526	keystroke	p	n/a
173.868	0.12	347736	keystroke	a	n/a
174.018	0.09	348036	keystroke	n	n/a
174.093	0.09	348186	keystroke	d	n/a
174.213	0.105	348426	keystroke	e	n/a
174.393	0.09	348786	keystroke	d	n/a
174.528	0.105	349056	keystroke	Key.space	n/a
174.708	0.09	349416	keystroke	s	n/a
174.843	0.09	349686	keystroke	y	n/a
175.128	0.075	350256	keystroke	m	n/a
175.293	0.12	350586	keystroke	p	n/a
175.443	0.09	350886	keystroke	h	n/a
175.518	0.165	351036	keystroke	o	n/a
175.638	0.105	351276	keystroke	n	n/a
175.788	0.105	351576	keystroke	y	n/a
175.953	0.105	351906	keystroke	Key.space	n/a
176.118	0.075	352236	keystroke	w	n/a
176.178	0.09	352356	keystroke	h	n/a
176.298	0.06	352596	keystroke	e	n/a
176.373	0.15	352746	keystroke	r	n/a
176.478	0.15	352956	keystroke	e	n/a
176.688	0.105	353376	keystroke	v	n/a
176.808	0.075	353616	keystroke	e	n/a
176.928	0.09	353856	keystroke	r	n/a
177.078	0.09	354156	keystroke	Key.space	n/a
177.198	0.105	354396	keystroke	a	n/a
177.438	0.045	354876	keystroke	c	n/a
177.588	0.06	355176	keystroke	c	n/a
177.753	0.09	355506	keystroke	e	n/a
177.978	0.0745	355956	keystroke	s	n/a
178.1275	0.075	356255	keystroke	s	n/a
178.2325	0.105	356465	keystroke	o	n/a
178.3525	0.12	356705	keystroke	r	n/a
178.4575	0.09	356915	keystroke	i	n/a
178.5775	0.075	357155	keystroke	e	n/a
178.7425	0.075	357485	keystroke	s	n/a
178.9225	0.075	357845	keystroke	Key.enter	n/a
179.0065	8.4985	358013	prompt	n/a	beats processing auditor interracial\n
179.7475	0.09	359495	keystroke	b	n/a
179.8225	0.075	359645	keystroke	e	n/a
179.9875	0.105	359975	keystroke	a	n/a
180.2275	0.135	360455	keystroke	t	n/a
180.3925	0.12	360785	keystroke	s	n/a
180.5275	0.09	361055	keystroke	Key.space	n/a
180.7225	0.075	361445	keystroke	p	n/a
180.8285	0.059	361657	keystroke	r	n/a
180.9325	0.09	361865	keystroke	o	n/a
181.0975	0.09	362195	keystroke	c	n/a
181.2625	0.075	362525	keystroke	e	n/a
181.4575	0.06	362915	keystroke	s	n/a
181.5775	0.105	363155	keystroke	s	n/a
181.6375	0.151	363275	keystroke	i	n/a
181.7425	0.121	363485	keystroke	n	n/a
181.8175	0.075	363635	keystroke	g	n/a
181.9675	0.105	363935	keystroke	Key.space	n/a
182.1325	0.09	364265	keystroke	a	n/a
182.3575	0.075	364715	keystroke	u	n/a
182.4935	0.074	364987	keystroke	d	n/a
182.6425	0.09	365285	keystroke	i	n/a
182.7925	0.075	365585	keystroke	t	n/a
182.9425	0.09	365885	keystroke	o	n/a
183.0625	0.105	366125	keystroke	r	n/a
183.2275	0.075	366455	keystroke	Key.space	n/a
183.4375	0.15	366875	keystroke	i	n/a
183.5575	0.105	367115	keystroke	n	n/a
183.9775	0.09	367955	keystroke	t	n/a
184.0825	0.12	368165	keystroke	e	n/a
184.2325	0.09	368465	keystroke	r	n/a
184.6225	0.09	369245	keystroke	r	n/a
184.8025	0.105	369605	keystroke	a	n/a
184.9675	0.075	369935	keystroke	c	n/a
185.1175	0.09	370235	keystroke	i	n/a
186.3775	0.075	372755	keystroke	Key.backspace	n/a
186.9625	0.075	373925	keystroke	i	n/a
187.0525	0.105	374105	keystroke	a	n/a
187.1725	0.09	374345	keystroke	l	n/a
187.4125	0.09	374825	keystroke	Key.enter	n/a
187.511	7.719	375022	prompt	n/a	shortcuts earthquake delivered comprehensive\n
188.3425	0.09	376685	keystroke	s	n/a
188.4475	0.09	376895	keystroke	h	n/a
188.5675	0.105	377135	keystroke	o	n/a
188.6735	0.104	377347	keystroke	r	n/a
188.9425	0.045	377885	keystroke	c	n/a
189.2125	0.09	378425	keystroke	Key.backspace	n/a
189.3485	0.089	378697	keystroke	t	n/a
189.5885	0.089	379177	keystroke	c	n/a
189.6625	0.09	379325	keystroke	u	n/a
189.8125	0.075	379625	keystroke	t	n/a
190.0675	0.075	380135	keystroke	s	n/a
190.2175	0.105	380435	keystroke	Key.space	n/a
190.3375	0.075	380675	keystroke	e	n/a
190.8475	0.076	381695	keystroke	a	n/a
191.0425	0.09	382085	keystroke	r	n/a
191.2085	0.074	382417	keystroke	t	n/a
191.3575	0.075	382715	keystroke	h	n/a
191.5675	0.075	383135	keystroke	q	n/a
191.6875	0.091	383375	keystroke	u	n/a
191.8525	0.105	383705	keystroke	a	n/a
191.9875	0.105	383975	keystroke	k	n/a
192.1375	0.091	384275	keystroke	e	n/a
192.2125	0.09	384425	keystroke	Key.space	n/a
192.3775	0.105	384755	keystroke	d	n/a
192.4975	0.105	384995	keystroke	e	n/a
192.5125	0.105	385025	keystroke	l	n/a
192.7075	0.06	385415	keystroke	i	n/a
192.7235	0.074	385447	keystroke	v	n/a
192.8425	0.105	385685	keystroke	e	n/a
193.0075	0.075	386015	keystroke	r	n/a
193.1875	0.075	386375	keystroke	e	n/a
193.3825	0.075	386765	keystroke	d	n/a
193.5025	0.09	387005	keystroke	Key.space	n/a
193.6375	0.075	387275	keystroke	c	n/a
193.7275	0.18	387455	keystroke	o	n/a
193.8925	0.06	387785	keystroke	m	n/a
193.9975	0.09	387995	keystroke	p	n/a
194.0885	0.104	388177	keystroke	r	n/a
194.2525	0.09	388505	keystroke	h	n/a
194.3435	0.074	388687	keystroke	e	n/a
194.4625	0.09	388925	keystroke	n	n/a
194.5675	0.12	389135	keystroke	s	n/a
194.6425	0.105	389285	keystroke	i	n/a
194.7625	0.165	389525	keystroke	v	n/a
194.8825	0.135	389765	keystroke	e	n/a
195.122	0.1055	390244	keystroke	Key.enter	n/a
195.235	6.2345	390470	prompt	n/a	preceding grew radius constraint\n
195.8875	0.075	391775	keystroke	p	n/a
195.9925	0.105	391985	keystroke	r	n/a
196.0675	0.105	392135	keystroke	e	n/a
196.3375	0.0895	392675	keystroke	c	n/a
196.4575	0.105	392915	keystroke	e	n/a
196.682	0.12	393364	keystroke	d	n/a
196.8325	0.1345	393665	keystroke	i	n/a
196.937	0.105	393874	keystroke	n	n/a
197.0125	0.09	394025	keystroke	g	n/a
197.132	0.105	394264	keystroke	Key.space	n/a
197.4775	0.1045	394955	keystroke	g	n/a
197.6125	0.1195	395225	keystroke	r	n/a
197.867	0.09	395734	keystroke	e	n/a
198.0775	0.105	396155	keystroke	w	n/a
198.2125	0.1195	396425	keystroke	Key.space	n/a
198.332	0.09	396664	keystroke	r	n/a
198.5275	0.09	397055	keystroke	a	n/a
198.662	0.09	397324	keystroke	d	n/a
198.7675	0.075	397535	keystroke	i	n/a
198.932	0.0905	397864	keystroke	u	n/a
199.037	0.105	398074	keystroke	s	n/a
199.127	0.105	398254	keystroke	Key.space	n/a
199.2475	0.0895	398495	keystroke	c	n/a
199.352	0.1355	398704	keystroke	o	n/a
199.412	0.1505	398824	keystroke	n	n/a
199.4425	0.075	398885	keystroke	s	n/a
199.622	0.1205	399244	keystroke	t	n/a
200.507	0.075	401014	keystroke	r	n/a
200.747	0.0755	401494	keystroke	a	n/a
200.823	0.1195	401646	keystroke	i	n/a
200.9275	0.1045	401855	keystroke	n	n/a
200.9725	0.075	401945	keystroke	t	n/a
201.1225	0.1045	402245	keystroke	s	n/a
201.347	0.12	402694	keystroke	Key.enter	n/a
201.476	6.3685	402952	prompt	n/a	relates amongst holmes finances\n
202.157	0.12	404314	keystroke	r	n/a
202.232	0.075	404464	keystroke	e	n/a
202.322	0.09	404644	keystroke	l	n/a
202.427	0.09	404854	keystroke	a	n/a
202.577	0.15	405154	keystroke	t	n/a
202.652	0.105	405304	keystroke	e	n/a
202.847	0.06	405694	keystroke	s	n/a
202.937	0.1055	405874	keystroke	Key.space	n/a
203.102	0.09	406204	keystroke	a	n/a
203.327	0.045	406654	keystroke	o	n/a
203.762	0.075	407524	keystroke	Key.backspace	n/a
204.002	0.105	408004	keystroke	m	n/a
204.152	0.15	408304	keystroke	o	n/a
204.227	0.15	408454	keystroke	n	n/a
204.512	0.0605	409024	keystroke	g	n/a
204.692	0.09	409384	keystroke	s	n/a
204.947	0.06	409894	keystroke	t	n/a
205.187	0.105	410374	keystroke	Key.space	n/a
205.457	0.105	410914	keystroke	h	n/a
205.712	0.075	411424	keystroke	o	n/a
205.892	0.075	411784	keystroke	l	n/a
206.012	0.135	412024	keystroke	m	n/a
206.132	0.06	412264	keystroke	e	n/a
206.297	0.045	412594	keystroke	s	n/a
206.357	0.105	412714	keystroke	Key.space	n/a
206.477	0.075	412954	keystroke	f	n/a
206.597	0.1655	413194	keystroke	i	n/a
206.747	0.075	413494	keystroke	n	n/a
206.792	0.12	413584	keystroke	a	n/a
206.927	0.075	413854	keystroke	n	n/a
206.987	0.09	413974	keystroke	c	n/a
207.182	0.09	414364	keystroke	e	n/a
207.392	0.075	414784	keystroke	s	n/a
207.767	0.075	415534	keystroke	Key.enter	n/a
207.8485	7.931	415697	prompt	n/a	legislation approximately perspectives he'll\n
208.547	0.09	417094	keystroke	l	n/a
208.652	0.06	417304	keystroke	e	n/a
208.817	0.075	417634	keystroke	g	n/a
208.907	0.09	417814	keystroke	i	n/a
209.012	0.075	418024	keystroke	s	n/a
209.417	0.09	418834	keystroke	l	n/a
209.522	0.075	419044	keystroke	a	n/a
209.702	0.075	419404	keystroke	t	n/a
209.792	0.091	419584	keystroke	i	n/a
209.957	0.165	419914	keystroke	o	n/a
210.077	0.075	420154	keystroke	n	n/a
210.257	0.09	420514	keystroke	Key.space	n/a
210.362	0.105	420724	keystroke	a	n/a
210.512	0.06	421024	keystroke	p	n/a
210.647	0.075	421294	keystroke	p	n/a
210.752	0.06	421504	keystroke	r	n/a
210.827	0.09	421654	keystroke	o	n/a
210.977	0.105	421954	keystroke	x	n/a
211.277	0.105	422554	keystroke	i	n/a
211.877	0.105	423754	keystroke	m	n/a
211.997	0.09	423994	keystroke	a	n/a
212.192	0.105	424384	keystroke	t	n/a
212.267	0.12	424534	keystroke	e	n/a
212.342	0.09	424684	keystroke	l	n/a
212.462	0.09	424924	keystroke	y	n/a
212.642	0.09	425284	keystroke	Key.space	n/a
212.837	0.09	425674	keystroke	p	n/a
212.897	0.09	425794	keystroke	e	n/a
213.017	0.075	426034	keystroke	r	n/a
213.152	0.105	426304	keystroke	s	n/a
213.287	0.075	426574	keystroke	p	n/a
213.347	0.09	426694	keystroke	e	n/a
213.572	0.12	427144	keystroke	c	n/a
213.767	0.105	427534	keystroke	t	n/a
213.827	0.09	427654	keystroke	i	n/a
213.932	0.135	427864	keystroke	v	n/a
214.082	0.09	428164	keystroke	e	n/a
214.217	0.09	428434	keystroke	Key.space	n/a
214.487	0.105	428974	keystroke	h	n/a
214.637	0.12	429274	keystroke	e	n/a
214.982	0.075	429964	keystroke	'	n/a
215.207	0.075	430414	keystroke	l	n/a
215.342	0.06	430684	keystroke	l	n/a
215.687	0.09	431374	keystroke	Key.enter	n/a
215.7845	11.065	431569	prompt	n/a	engineering checkout activists realize\n
216.392	0.09	432784	keystroke	e	n/a
216.467	0.075	432934	keystroke	n	n/a
216.572	0.09	433144	keystroke	g	n/a
216.677	0.15	433354	keystroke	i	n/a
216.797	0.12	433594	keystroke	n	n/a
216.932	0.09	433864	keystroke	e	n/a
217.082	0.075	434164	keystroke	e	n/a
217.217	0.105	434434	keystroke	r	n/a
217.292	0.135	434584	keystroke	i	n/a
217.367	0.12	434734	keystroke	n	n/a
217.472	0.075	434944	keystroke	g	n/a
217.652	0.075	435304	keystroke	Key.space	n/a
217.772	0.105	435544	keystroke	c	n/a
217.862	0.09	435724	keystroke	h	n/a
217.937	0.12	435874	keystroke	e	n/a
218.132	0.09	436264	keystroke	c	n/a
218.237	0.075	436474	keystroke	k	n/a
218.417	0.075	436834	keystroke	o	n/a
218.612	0.075	437224	keystroke	u	n/a
218.702	0.105	437404	keystroke	t	n/a
218.882	0.09	437764	keystroke	Key.space	n/a
219.017	0.075	438034	keystroke	a	n/a
219.197	0.075	438394	keystroke	c	n/a
219.422	0.09	438844	keystroke	t	n/a
219.602	0.09	439204	keystroke	i	n/a
219.707	0.105	439414	keystroke	v	n/a
219.827	0.09	439654	keystroke	i	n/a
219.992	0.105	439984	keystroke	s	n/a
220.232	0.075	440464	keystroke	t	n/a
220.382	0.105	440764	keystroke	s	n/a
220.517	0.09	441034	keystroke	Key.space	n/a
220.622	0.12	441244	keystroke	r	n/a
220.682	0.105	441364	keystroke	e	n/a
220.817	0.105	441634	keystroke	l	n/a
221.507	0.075	443014	keystroke	a	n/a
221.882	0.075	443764	keystroke	i	n/a
222.002	0.105	444004	keystroke	z	n/a
222.422	0.075	444844	keystroke	e	n/a
222.737	0.075	445474	keystroke	Key.backspace	n/a
222.902	0.045	445804	keystroke	Key.backspace	n/a
223.022	0.075	446044	keystroke	Key.backspace	n/a
223.172	0.06	446344	keystroke	Key.backspace	n/a
223.337	0.09	446674	keystroke	Key.backspace	n/a
223.877	0.06	447754	keystroke	a	n/a
224.133	0.104	448266	keystroke	l	n/a
224.357	0.06	448714	keystroke	i	n/a
224.418	0.104	448836	keystroke	z	n/a
224.942	0.105	449884	keystroke	r	n/a
225.557	0.06	451114	keystroke	Key.backspace	n/a
225.812	0.03	451624	keystroke	e	n/a
225.977	0.03	451954	keystroke	e	n/a
226.472	0.075	452944	keystroke	Key.backspace	n/a
226.772	0.075	453544	keystroke	Key.enter	n/a
226.854	5.4255	453708	prompt	n/a	experiments concert segments seating\n
227.417	0.06	454834	keystroke	e	n/a
227.687	0.075	455374	keystroke	x	n/a
227.792	0.09	455584	keystroke	p	n/a
227.897	0.105	455794	keystroke	e	n/a
228.062	0.06	456124	keystroke	r	n/a
228.137	0.09	456274	keystroke	i	n/a
228.317	0.12	456634	keystroke	m	n/a
228.422	0.075	456844	keystroke	e	n/a
228.542	0.09	457084	keystroke	n	n/a
228.617	0.06	457234	keystroke	t	n/a
228.767	0.09	457534	keystroke	s	n/a
228.917	0.075	457834	keystroke	Key.space	n/a
229.097	0.0755	458194	keystroke	c	n/a
229.157	0.135	458314	keystroke	o	n/a
229.217	0.135	458434	keystroke	n	n/a
229.293	0.089	458586	keystroke	c	n/a
229.487	0.075	458974	keystroke	e	n/a
229.637	0.09	459274	keystroke	r	n/a
229.802	0.06	459604	keystroke	t	n/a
229.952	0.09	459904	keystroke	Key.space	n/a
230.087	0.06	460174	keystroke	s	n/a
230.252	0.075	460504	keystroke	e	n/a
230.417	0.06	460834	keystroke	g	n/a
230.522	0.09	461044	keystroke	m	n/a
230.567	0.09	461134	keystroke	e	n/a
230.687	0.105	461374	keystroke	n	n/a
230.777	0.06	461554	keystroke	t	n/a
230.972	0.09	461944	keystroke	s	n/a
231.092	0.09	462184	keystroke	Key.space	n/a
231.242	0.06	462484	keystroke	s	n/a
231.392	0.045	462784	keystroke	e	n/a
231.542	0.105	463084	keystroke	a	n/a
231.767	0.09	463534	keystroke	t	n/a
231.827	0.135	463654	keystroke	i	n/a
231.917	0.12	463834	keystroke	n	n/a
232.007	0.09	464014	keystroke	g	n/a
232.202	0.075	464404	keystroke	Key.enter	n/a
232.284	8.1255	464568	prompt	n/a	alberta blades advanced world\n
232.877	0.075	465754	keystroke	a	n/a
232.982	0.075	465964	keystroke	l	n/a
233.327	0.075	466654	keystroke	b	n/a
233.477	0.105	466954	keystroke	e	n/a
233.687	0.06	467374	keystroke	r	n/a
233.852	0.06	467704	keystroke	t	n/a
234.062	0.075	468124	keystroke	a	n/a
234.197	0.075	468394	keystroke	Key.space	n/a
234.377	0.075	468754	keystroke	l	n/a
234.782	0.075	469564	keystroke	Key.backspace	n/a
234.947	0.075	469894	keystroke	b	n/a
235.097	0.12	470194	keystroke	l	n/a
235.232	0.105	470464	keystroke	a	n/a
235.457	0.12	470914	keystroke	d	n/a
235.652	0.09	471304	keystroke	e	n/a
235.847	0.075	471694	keystroke	s	n/a
235.967	0.105	471934	keystroke	Key.space	n/a
237.647	0.09	475294	keystroke	l	n/a
237.752	0.09	475504	keystroke	a	n/a
237.917	0.105	475834	keystroke	d	n/a
238.052	0.075	476104	keystroke	e	n/a
238.232	0.075	476464	keystroke	s	n/a
238.397	0.075	476794	keystroke	Key.space	n/a
238.502	0.075	477004	keystroke	a	n/a
238.652	0.06	477304	keystroke	d	n/a
238.847	0.045	477694	keystroke	v	n/a
238.952	0.12	477904	keystroke	a	n/a
239.057	0.075	478114	keystroke	n	n/a
239.147	0.09	478294	keystroke	c	n/a
239.297	0.075	478594	keystroke	e	n/a
239.507	0.09	479014	keystroke	d	n/a
239.642	0.09	479284	keystroke	Key.space	n/a
239.732	0.105	479464	keystroke	w	n/a
239.838	0.104	479676	keystroke	o	n/a
239.957	0.09	479914	keystroke	r	n/a
240.077	0.105	480154	keystroke	l	n/a
240.212	0.075	480424	keystroke	d	n/a
240.302	0.105	480604	keystroke	Key.enter	n/a
240.414	9.9105	480828	prompt	n/a	autos uncle limousines singer\n
241.082	0.075	482164	keystroke	a	n/a
241.187	0.105	482374	keystroke	u	n/a
241.367	0.09	482734	keystroke	t	n/a
241.502	0.09	483004	keystroke	o	n/a
241.667	0.06	483334	keystroke	s	n/a
241.772	0.075	483544	keystroke	Key.space	n/a
241.967	0.09	483934	keystroke	u	n/a
242.102	0.09	484204	keystroke	n	n/a
242.222	0.075	484444	keystroke	c	n/a
242.312	0.06	484624	keystroke	l	n/a
242.477	0.06	484954	keystroke	e	n/a
242.552	0.105	485104	keystroke	Key.space	n/a
242.837	0.105	485674	keystroke	l	n/a
243.122	0.105	486244	keystroke	o	n/a
243.512	0.12	487024	keystroke	m	n/a
244.172	0.09	488344	keystroke	Key.backspace	n/a
244.322	0.075	488644	keystroke	Key.backspace	n/a
244.697	0.09	489394	keystroke	i	n/a
244.877	0.075	489754	keystroke	m	n/a
245.012	0.06	490024	keystroke	o	n/a
245.237	0.09	490474	keystroke	s	n/a
245.387	0.105	490774	keystroke	u	n/a
245.567	0.195	491134	keystroke	i	n/a
246.137	0.09	492274	keystroke	Key.backspace	n/a
246.362	0.06	492724	keystroke	Key.backspace	n/a
247.022	0.075	494044	keystroke	Key.backspace	n/a
248.432	0.105	496864	keystroke	u	n/a
248.852	0.105	497704	keystroke	s	n/a
248.957	0.195	497914	keystroke	i	n/a
249.107	0.12	498214	keystroke	n	n/a
249.197	0.09	498394	keystroke	e	n/a
249.362	0.06	498724	keystroke	s	n/a
249.437	0.09	498874	keystroke	Key.space	n/a
249.512	0.09	499024	keystroke	s	n/a
249.617	0.15	499234	keystroke	i	n/a
249.692	0.135	499384	keystroke	n	n/a
249.782	0.075	499564	keystroke	g	n/a
249.902	0.09	499804	keystroke	e	n/a
250.067	0.06	500134	keystroke	r	n/a
250.232	0.09	500464	keystroke	Key.enter	n/a
250.329	5.5455	500658	prompt	n/a	greeting coding assign submitted\n
251.117	0.045	502234	keystroke	f	n/a
251.507	0.06	503014	keystroke	Key.backspace	n/a
251.597	0.105	503194	keystroke	g	n/a
251.762	0.09	503524	keystroke	r	n/a
251.972	0.06	503944	keystroke	e	n/a
252.092	0.075	504184	keystroke	e	n/a
252.257	0.09	504514	keystroke	t	n/a
252.317	0.105	504634	keystroke	i	n/a
252.392	0.105	504784	keystroke	n	n/a
252.482	0.075	504964	keystroke	g	n/a
252.647	0.09	505294	keystroke	Key.space	n/a
252.797	0.09	505594	keystroke	c	n/a
252.888	0.074	505776	keystroke	o	n/a
252.977	0.09	505954	keystroke	d	n/a
253.052	0.165	506104	keystroke	i	n/a
253.172	0.105	506344	keystroke	n	n/a
253.307	0.075	506614	keystroke	g	n/a
253.427	0.105	506854	keystroke	Key.space	n/a
253.592	0.076	507184	keystroke	a	n/a
253.802	0.075	507604	keystroke	s	n/a
253.937	0.09	507874	keystroke	s	n/a
254.012	0.105	508024	keystroke	i	n/a
254.147	0.075	508294	keystroke	g	n/a
254.192	0.09	508384	keystroke	n	n/a
254.387	0.09	508774	keystroke	Key.space	n/a
254.507	0.09	509014	keystroke	s	n/a
254.582	0.15	509164	keystroke	u	n/a
254.672	0.09	509344	keystroke	b	n/a
254.897	0.09	509794	keystroke	m	n/a
255.017	0.1055	510034	keystroke	i	n/a
255.1525	0.045	510305	keystroke	t	n/a
255.2725	0.075	510545	keystroke	t	n/a
255.4675	0.075	510935	keystroke	e	n/a
255.6475	0.075	511295	keystroke	d	n/a
255.7975	0.075	511595	keystroke	Key.enter	n/a
255.879	5.635	511758	prompt	n/a	figures everyday unique beverages\n
256.5775	0.075	513155	keystroke	f	n/a
256.6675	0.09	513335	keystroke	i	n/a
256.7425	0.06	513485	keystroke	g	n/a
256.8625	0.06	513725	keystroke	u	n/a
256.9975	0.15	513995	keystroke	r	n/a
257.1175	0.074	514235	keystroke	e	n/a
257.2975	0.09	514595	keystroke	s	n/a
257.4025	0.09	514805	keystroke	Key.space	n/a
257.4935	0.119	514987	keystroke	e	n/a
257.7025	0.075	515405	keystroke	v	n/a
257.8225	0.075	515645	keystroke	e	n/a
257.9575	0.09	515915	keystroke	r	n/a
258.0775	0.089	516155	keystroke	y	n/a
258.1975	0.135	516395	keystroke	d	n/a
258.3175	0.09	516635	keystroke	a	n/a
258.3475	0.105	516695	keystroke	y	n/a
258.5875	0.09	517175	keystroke	Key.space	n/a
258.7525	0.165	517505	keystroke	u	n/a
258.9325	0.06	517865	keystroke	n	n/a
259.0225	0.105	518045	keystroke	i	n/a
259.1425	0.075	518285	keystroke	q	n/a
259.2475	0.09	518495	keystroke	u	n/a
259.3525	0.06	518705	keystroke	e	n/a
259.4725	0.074	518945	keystroke	Key.space	n/a
259.6225	0.09	519245	keystroke	b	n/a
259.6675	0.105	519335	keystroke	e	n/a
259.8175	0.12	519635	keystroke	v	n/a
259.9665	0.106	519933	keystroke	e	n/a
260.1025	0.12	520205	keystroke	r	n/a
260.3425	0.105	520685	keystroke	a	n/a
260.5225	0.135	521045	keystroke	g	n/a
260.6125	0.135	521225	keystroke	e	n/a
261.0775	0.075	522155	keystroke	s	n/a
261.4375	0.075	522875	keystroke	Key.enter	n/a
261.5175	11.4575	523035	prompt	n/a	institutes civilian hurricane ronald\n
262.1275	0.135	524255	keystroke	i	n/a
262.2925	0.09	524585	keystroke	n	n/a
262.3365	0.106	524673	keystroke	s	n/a
262.8175	0.075	525635	keystroke	t	n/a
263.0725	0.06	526145	keystroke	i	n/a
263.8525	0.059	527705	keystroke	Key.backspace	n/a
264.3925	0.09	528785	keystroke	i	n/a
264.5875	0.09	529175	keystroke	t	n/a
264.6925	0.075	529385	keystroke	u	n/a
264.7825	0.15	529565	keystroke	t	n/a
264.9175	0.06	529835	keystroke	e	n/a
265.0975	0.105	530195	keystroke	s	n/a
265.2765	0.091	530553	keystroke	Key.space	n/a
265.4275	0.09	530855	keystroke	c	n/a
265.5475	0.105	531095	keystroke	i	n/a
265.7575	0.075	531515	keystroke	v	n/a
265.8625	0.105	531725	keystroke	i	n/a
266.3575	0.075	532715	keystroke	l	n/a
266.5225	0.12	533045	keystroke	i	n/a
266.6125	0.105	533225	keystroke	a	n/a
266.7475	0.09	533495	keystroke	n	n/a
266.9575	0.06	533915	keystroke	Key.space	n/a
267.1075	0.105	534215	keystroke	h	n/a
267.3775	0.075	534755	keystroke	u	n/a
267.5125	0.075	535025	keystroke	r	n/a
267.6475	0.09	535295	keystroke	r	n/a
267.7525	0.075	535505	keystroke	i	n/a
267.8875	0.075	535775	keystroke	c	n/a
267.9925	0.12	535985	keystroke	a	n/a
268.0975	0.075	536195	keystroke	n	n/a
268.2925	0.089	536585	keystroke	Key.space	n/a
268.4875	0.075	536975	keystroke	r	n/a
268.5775	0.12	537155	keystroke	o	n/a
268.6675	0.105	537335	keystroke	n	n/a
268.7575	0.075	537515	keystroke	a	n/a
268.8775	0.09	537755	keystroke	l	n/a
269.0875	0.135	538175	keystroke	d	n/a
269.4175	0.285	538835	keystroke	Key.backspace	n/a
269.8375	0.06	539675	keystroke	Key.backspace	n/a
269.9725	0.06	539945	keystroke	Key.backspace	n/a
270.1075	0.059	540215	keystroke	Key.backspace	n/a
270.2425	0.059	540485	keystroke	Key.backspace	n/a
270.3925	0.075	540785	keystroke	Key.backspace	n/a
270.6315	0.076	541263	keystroke	Key.backspace	n/a
270.8425	0.075	541685	keystroke	e	n/a
270.9325	0.12	541865	keystroke	Key.space	n/a
271.0525	0.075	542105	keystroke	r	n/a
271.2175	0.135	542435	keystroke	n	n/a
271.2325	0.045	542465	keystroke	i	n/a
271.6525	0.06	543305	keystroke	Key.backspace	n/a
271.7725	0.075	543545	keystroke	Key.backspace	n/a
272.1775	0.165	544355	keystroke	o	n/a
272.3275	0.09	544655	keystroke	n	n/a
272.3575	0.09	544715	keystroke	a	n/a
272.5075	0.09	545015	keystroke	l	n/a
272.5825	0.075	545165	keystroke	d	n/a
272.8825	0.09	545765	keystroke	Key.enter	n/a
272.981	5.289	545962	prompt	n/a	strength cloud levitra switching\n
273.5275	0.09	547055	keystroke	s	n/a
273.6925	0.12	547385	keystroke	t	n/a
273.9025	0.15	547805	keystroke	r	n/a
274.0225	0.12	548045	keystroke	e	n/a
274.1875	0.09	548375	keystroke	n	n/a
274.2475	0.12	548495	keystroke	g	n/a
274.3975	0.09	548795	keystroke	t	n/a
274.4425	0.105	548885	keystroke	h	n/a
274.6675	0.075	549335	keystroke	Key.space	n/a
274.8025	0.075	549605	keystroke	c	n/a
274.9075	0.075	549815	keystroke	l	n/a
275.0875	0.09	550175	keystroke	o	n/a
275.2825	0.075	550565	keystroke	u	n/a
275.4325	0.105	550865	keystroke	d	n/a
275.6125	0.06	551225	keystroke	Key.space	n/a
275.8075	0.075	551615	keystroke	l	n/a
275.9125	0.105	551825	keystroke	e	n/a
276.1375	0.09	552275	keystroke	v	n/a
276.2575	0.09	552515	keystroke	i	n/a
276.3925	0.075	552785	keystroke	t	n/a
276.5725	0.075	553145	keystroke	r	n/a
276.7825	0.06	553565	keystroke	a	n/a
276.9025	0.105	553805	keystroke	Key.space	n/a
277.0225	0.075	554045	keystroke	s	n/a
277.1725	0.09	554345	keystroke	w	n/a
277.2325	0.09	554465	keystroke	i	n/a
277.3525	0.075	554705	keystroke	t	n/a
277.5925	0.075	555185	keystroke	c	n/a
277.6525	0.06	555305	keystroke	h	n/a
277.8025	0.12	555605	keystroke	i	n/a
277.8625	0.15	555725	keystroke	n	n/a
277.9825	0.0905	555965	keystroke	g	n/a
278.193	0.075	556386	keystroke	Key.enter	n/a
278.275	6.5495	556550	prompt	n/a	negotiations spotlight reuters exhibition\n
278.823	0.09	557646	keystroke	n	n/a
278.973	0.075	557946	keystroke	e	n/a
279.123	0.09	558246	keystroke	g	n/a
279.198	0.105	558396	keystroke	o	n/a
279.348	0.09	558696	keystroke	t	n/a
279.468	0.09	558936	keystroke	i	n/a
279.603	0.105	559206	keystroke	a	n/a
279.813	0.075	559626	keystroke	t	n/a
279.873	0.09	559746	keystroke	i	n/a
280.053	0.135	560106	keystroke	o	n/a
280.143	0.09	560286	keystroke	n	n/a
280.248	0.06	560496	keystroke	s	n/a
280.353	0.075	560706	keystroke	Key.space	n/a
280.458	0.105	560916	keystroke	s	n/a
280.593	0.0595	561186	keystroke	p	n/a
280.7575	0.075	561515	keystroke	o	n/a
280.8775	0.075	561755	keystroke	t	n/a
280.9975	0.105	561995	keystroke	l	n/a
281.2225	0.075	562445	keystroke	i	n/a
281.3125	0.09	562625	keystroke	g	n/a
281.3875	0.105	562775	keystroke	h	n/a
281.5225	0.09	563045	keystroke	t	n/a
281.6875	0.09	563375	keystroke	Key.space	n/a
281.9125	0.105	563825	keystroke	r	n/a
282.0025	0.105	564005	keystroke	e	n/a
282.3325	0.09	564665	keystroke	u	n/a
282.4825	0.09	564965	keystroke	t	n/a
282.6475	0.105	565295	keystroke	e	n/a
282.7675	0.105	565535	keystroke	r	n/a
282.9325	0.09	565865	keystroke	s	n/a
283.0825	0.075	566165	keystroke	Key.space	n/a
283.2175	0.135	566435	keystroke	e	n/a
283.4725	0.105	566945	keystroke	x	n/a
283.5775	0.06	567155	keystroke	h	n/a
283.7425	0.075	567485	keystroke	i	n/a
283.8775	0.105	567755	keystroke	b	n/a
284.0275	0.09	568055	keystroke	i	n/a
284.1325	0.09	568265	keystroke	t	n/a
284.2075	0.075	568415	keystroke	i	n/a
284.3575	0.15	568715	keystroke	o	n/a
284.4475	0.135	568895	keystroke	n	n/a
284.5975	0.09	569195	keystroke	s	n/a
284.7475	0.075	569495	keystroke	Key.enter	n/a
284.8315	5.7535	569663	prompt	n/a	egyptian desk prefix administrator\n
285.6025	0.075	571205	keystroke	e	n/a
285.7675	0.075	571535	keystroke	g	n/a
285.9025	0.09	571805	keystroke	y	n/a
286.1425	0.075	572285	keystroke	p	n/a
286.2475	0.06	572495	keystroke	t	n/a
286.3375	0.105	572675	keystroke	i	n/a
286.5025	0.09	573005	keystroke	a	n/a
286.6075	0.075	573215	keystroke	n	n/a
286.8025	0.09	573605	keystroke	Key.space	n/a
286.9375	0.09	573875	keystroke	d	n/a
287.0725	0.075	574145	keystroke	e	n/a
287.2375	0.06	574475	keystroke	s	n/a
287.2825	0.105	574565	keystroke	k	n/a
287.4325	0.105	574865	keystroke	Key.space	n/a
287.643	0.0745	575286	keystroke	p	n/a
287.7025	0.105	575405	keystroke	r	n/a
287.7775	0.09	575555	keystroke	e	n/a
287.9725	0.03	575945	keystroke	f	n/a
288.0475	0.075	576095	keystroke	i	n/a
288.3325	0.12	576665	keystroke	x	n/a
288.5725	0.075	577145	keystroke	Key.space	n/a
288.5875	0.075	577175	keystroke	a	n/a
288.6925	0.105	577385	keystroke	d	n/a
288.7825	0.09	577565	keystroke	m	n/a
288.9475	0.12	577895	keystroke	i	n/a
289.0525	0.12	578105	keystroke	n	n/a
289.1875	0.105	578375	keystroke	i	n/a
289.2625	0.105	578525	keystroke	s	n/a
289.4725	0.12	578945	keystroke	t	n/a
289.5475	0.09	579095	keystroke	r	n/a
289.7725	0.06	579545	keystroke	a	n/a
289.9225	0.105	579845	keystroke	t	n/a
290.0425	0.075	580085	keystroke	o	n/a
290.1025	0.15	580205	keystroke	r	n/a
290.5075	0.075	581015	keystroke	Key.enter	n/a
290.5915	4.418	581183	prompt	n/a	crack pole chris combat\n
291.258	0.0895	582516	keystroke	c	n/a
291.4525	0.075	582905	keystroke	r	n/a
291.6775	0.075	583355	keystroke	a	n/a
291.843	0.075	583686	keystroke	c	n/a
291.9325	0.09	583865	keystroke	k	n/a
292.0525	0.105	584105	keystroke	Key.space	n/a
292.2925	0.075	584585	keystroke	p	n/a
292.5175	0.075	585035	keystroke	o	n/a
292.6975	0.09	585395	keystroke	l	n/a
292.8175	0.075	585635	keystroke	e	n/a
292.9375	0.075	585875	keystroke	Key.space	n/a
293.0575	0.075	586115	keystroke	c	n/a
293.1175	0.09	586235	keystroke	h	n/a
293.2375	0.09	586475	keystroke	r	n/a
293.3125	0.075	586625	keystroke	i	n/a
293.4475	0.09	586895	keystroke	s	n/a
293.5525	0.075	587105	keystroke	Key.space	n/a
293.6725	0.075	587345	keystroke	c	n/a
293.7325	0.15	587465	keystroke	o	n/a
293.8225	0.12	587645	keystroke	m	n/a
293.9725	0.06	587945	keystroke	b	n/a
294.168	0.0895	588336	keystroke	a	n/a
294.4075	0.015	588815	keystroke	t	n/a
294.933	0.0745	589866	keystroke	Key.enter	n/a
295.014	6.175	590028	prompt	n/a	mens geneva presents buddy\n
295.7125	0.06	591425	keystroke	m	n/a
295.8175	0.06	591635	keystroke	e	n/a
296.7325	0.09	593465	keystroke	n	n/a
297.1375	0.09	594275	keystroke	s	n/a
297.258	0.1045	594516	keystroke	Key.space	n/a
297.4075	0.09	594815	keystroke	g	n/a
297.6475	0.06	595295	keystroke	e	n/a
297.7225	0.09	595445	keystroke	n	n/a
297.7825	0.09	595565	keystroke	e	n/a
298.6075	0.06	597215	keystroke	v	n/a
298.8175	0.075	597635	keystroke	a	n/a
298.9525	0.0905	597905	keystroke	Key.space	n/a
299.1475	0.09	598295	keystroke	p	n/a
299.2225	0.09	598445	keystroke	r	n/a
299.3275	0.06	598655	keystroke	e	n/a
299.5375	0.06	599075	keystroke	s	n/a
299.6725	0.09	599345	keystroke	e	n/a
299.7775	0.09	599555	keystroke	n	n/a
299.8525	0.06	599705	keystroke	t	n/a
300.0175	0.09	600035	keystroke	s	n/a
300.1375	0.075	600275	keystroke	Key.space	n/a
300.3175	0.075	600635	keystroke	b	n/a
300.4225	0.105	600845	keystroke	u	n/a
300.5725	0.06	601145	keystroke	d	n/a
300.7075	0.045	601415	keystroke	d	n/a
300.7675	0.09	601535	keystroke	y	n/a
301.0975	0.09	602195	keystroke	Key.enter	n/a
301.194	5.8445	602388	prompt	n/a	picks mitsubishi flux out\n
302.2075	0.09	604415	keystroke	p	n/a
302.4325	0.075	604865	keystroke	i	n/a
302.5375	0.06	605075	keystroke	c	n/a
302.6575	0.075	605315	keystroke	k	n/a
302.7925	0.09	605585	keystroke	s	n/a
302.8675	0.09	605735	keystroke	Key.space	n/a
303.0925	0.015	606185	keystroke	m	n/a
303.2875	0.06	606575	keystroke	i	n/a
303.5275	0.09	607055	keystroke	t	n/a
304.0525	0.075	608105	keystroke	s	n/a
304.2025	0.09	608405	keystroke	u	n/a
304.4275	0.075	608855	keystroke	b	n/a
304.5775	0.09	609155	keystroke	i	n/a
304.7725	0.075	609545	keystroke	s	n/a
304.9375	0.06	609875	keystroke	h	n/a
305.1025	0.105	610205	keystroke	i	n/a
305.3125	0.09	610625	keystroke	Key.space	n/a
305.4325	0.09	610865	keystroke	f	n/a
305.5375	0.09	611075	keystroke	l	n/a
305.7775	0.075	611555	keystroke	u	n/a
305.8975	0.105	611795	keystroke	x	n/a
306.0175	0.09	612035	keystroke	Key.space	n/a
306.2275	0.075	612455	keystroke	o	n/a
306.4075	0.075	612815	keystroke	u	n/a
306.5875	0.06	613175	keystroke	t	n/a
306.9475	0.0895	613895	keystroke	Key.enter	n/a
307.045	6.354	614090	prompt	n/a	could hate promises curve\n
307.682	0.105	615364	keystroke	c	n/a
307.772	0.09	615544	keystroke	o	n/a
307.982	0.09	615964	keystroke	u	n/a
308.192	0.075	616384	keystroke	l	n/a
308.282	0.105	616564	keystroke	d	n/a
308.402	0.105	616804	keystroke	Key.space	n/a
308.567	0.09	617134	keystroke	h	n/a
308.627	0.075	617254	keystroke	a	n/a
308.807	0.12	617614	keystroke	t	n/a
308.882	0.12	617764	keystroke	e	n/a
309.032	0.09	618064	keystroke	Key.space	n/a
309.302	0.06	618604	keystroke	o	n/a
309.992	0.09	619984	keystroke	Key.backspace	n/a
310.232	0.105	620464	keystroke	p	n/a
310.352	0.075	620704	keystroke	r	n/a
310.442	0.105	620884	keystroke	o	n/a
310.712	0.075	621424	keystroke	i	n/a
311.072	0.06	622144	keystroke	Key.backspace	n/a
311.357	0.09	622714	keystroke	m	n/a
311.522	0.075	623044	keystroke	i	n/a
311.642	0.09	623284	keystroke	s	n/a
311.852	0.09	623704	keystroke	e	n/a
312.107	0.075	624214	keystroke	s	n/a
312.287	0.09	624574	keystroke	Key.space	n/a
312.422	0.075	624844	keystroke	c	n/a
312.572	0.09	625144	keystroke	u	n/a
312.707	0.09	625414	keystroke	r	n/a
312.872	0.12	625744	keystroke	v	n/a
312.977	0.135	625954	keystroke	e	n/a
313.292	0.105	626584	keystroke	Key.enter	n/a
313.4035	4.271	626807	prompt	n/a	cayman cuts badly paul\n
314.087	0.09	628174	keystroke	c	n/a
314.252	0.12	628504	keystroke	a	n/a
314.357	0.105	628714	keystroke	y	n/a
314.642	0.105	629284	keystroke	m	n/a
314.792	0.09	629584	keystroke	a	n/a
314.867	0.105	629734	keystroke	n	n/a
315.047	0.09	630094	keystroke	Key.space	n/a
315.122	0.09	630244	keystroke	c	n/a
315.227	0.06	630454	keystroke	u	n/a
315.347	0.075	630694	keystroke	t	n/a
315.557	0.075	631114	keystroke	s	n/a
315.662	0.075	631324	keystroke	Key.space	n/a
315.827	0.09	631654	keystroke	b	n/a
315.977	0.09	631954	keystroke	a	n/a
316.172	0.075	632344	keystroke	d	n/a
316.292	0.09	632584	keystroke	l	n/a
316.502	0.105	633004	keystroke	y	n/a
316.622	0.075	633244	keystroke	Key.space	n/a
316.832	0.075	633664	keystroke	p	n/a
316.952	0.105	633904	keystroke	a	n/a
317.087	0.09	634174	keystroke	u	n/a
317.342	0.09	634684	keystroke	l	n/a
317.582	0.09	635164	keystroke	Key.enter	n/a
317.6795	6.49	635359	prompt	n/a	arrives expand hazards connect\n
318.212	0.091	636424	keystroke	a	n/a
318.437	0.06	636874	keystroke	r	n/a
318.557	0.075	637114	keystroke	r	n/a
318.647	0.075	637294	keystroke	i	n/a
318.767	0.105	637534	keystroke	v	n/a
318.947	0.075	637894	keystroke	e	n/a
319.112	0.075	638224	keystroke	s	n/a
319.202	0.09	638404	keystroke	Key.space	n/a
319.307	0.075	638614	keystroke	e	n/a
319.517	0.105	639034	keystroke	x	n/a
319.623	0.074	639246	keystroke	p	n/a
319.742	0.12	639484	keystroke	a	n/a
319.877	0.09	639754	keystroke	n	n/a
320.042	0.075	640084	keystroke	d	n/a
320.207	0.09	640414	keystroke	Key.space	n/a
320.462	0.09	640924	keystroke	h	n/a
320.553	0.059	641106	keystroke	a	n/a
320.687	0.075	641374	keystroke	r	n/a
321.677	0.075	643354	keystroke	Key.backspace	n/a
321.917	0.075	643834	keystroke	z	n/a
322.037	0.12	644074	keystroke	a	n/a
322.232	0.09	644464	keystroke	r	n/a
322.472	0.165	644944	keystroke	d	n/a
322.592	0.105	645184	keystroke	s	n/a
322.727	0.105	645454	keystroke	Key.space	n/a
323.027	0.06	646054	keystroke	c	n/a
323.117	0.12	646234	keystroke	o	n/a
323.342	0.03	646684	keystroke	n	n/a
323.432	0.09	646864	keystroke	n	n/a
323.492	0.075	646984	keystroke	e	n/a
323.687	0.075	647374	keystroke	c	n/a
323.882	0.09	647764	keystroke	t	n/a
324.077	0.09	648154	keystroke	Key.enter	n/a
324.174	7.09	648348	prompt	n/a	settled attorneys according resort\n
324.872	0.09	649744	keystroke	s	n/a
325.052	0.09	650104	keystroke	e	n/a
325.277	0.075	650554	keystroke	t	n/a
325.397	0.075	650794	keystroke	t	n/a
325.517	0.09	651034	keystroke	l	n/a
325.592	0.075	651184	keystroke	e	n/a
325.787	0.075	651574	keystroke	s	n/a
325.892	0.105	651784	keystroke	Key.space	n/a
325.982	0.09	651964	keystroke	a	n/a
326.252	0.075	652504	keystroke	t	n/a
326.387	0.075	652774	keystroke	t	n/a
326.507	0.09	653014	keystroke	o	n/a
326.567	0.09	653134	keystroke	r	n/a
326.762	0.06	653524	keystroke	y	n/a
326.882	0.075	653764	keystroke	n	n/a
326.987	0.075	653974	keystroke	e	n/a
327.557	0.075	655114	keystroke	y	n/a
327.782	0.06	655564	keystroke	s	n/a
327.932	0.075	655864	keystroke	Key.space	n/a
328.008	0.104	656016	keystroke	a	n/a
328.262	0.045	656524	keystroke	c	n/a
328.382	0.06	656764	keystroke	c	n/a
328.532	0.09	657064	keystroke	o	n/a
328.592	0.075	657184	keystroke	r	n/a
328.757	0.09	657514	keystroke	d	n/a
328.772	0.15	657544	keystroke	i	n/a
328.907	0.105	657814	keystroke	n	n/a
328.997	0.06	657994	keystroke	g	n/a
329.147	0.105	658294	keystroke	Key.space	n/a
329.717	0.12	659434	keystroke	r	n/a
329.807	0.075	659614	keystroke	e	n/a
329.987	0.09	659974	keystroke	s	n/a
330.842	0.09	661684	keystroke	o	n/a
330.932	0.075	661864	keystroke	r	n/a
331.067	0.075	662134	keystroke	t	n/a
331.1875	0.074	662375	keystroke	Key.enter	n/a
331.2705	5.6935	662541	prompt	n/a	expand glenn opposed efforts\n
331.8625	0.104	663725	keystroke	e	n/a
332.0875	0.09	664175	keystroke	x	n/a
332.1925	0.089	664385	keystroke	p	n/a
332.3275	0.135	664655	keystroke	a	n/a
332.4315	0.09	664863	keystroke	n	n/a
332.5675	0.089	665135	keystroke	d	n/a
332.6865	0.105	665373	keystroke	Key.space	n/a
332.9725	0.105	665945	keystroke	g	n/a
333.1225	0.089	666245	keystroke	l	n/a
333.1975	0.075	666395	keystroke	e	n/a
333.3925	0.06	666785	keystroke	n	n/a
333.5275	0.075	667055	keystroke	n	n/a
333.6915	0.09	667383	keystroke	Key.space	n/a
333.9175	0.074	667835	keystroke	o	n/a
334.1865	0.045	668373	keystroke	p	n/a
334.3225	0.059	668645	keystroke	p	n/a
334.4725	0.075	668945	keystroke	o	n/a
334.5775	0.06	669155	keystroke	s	n/a
334.7415	0.061	669483	keystroke	e	n/a
334.9225	0.06	669845	keystroke	d	n/a
334.9965	0.09	669993	keystroke	Key.space	n/a
335.1475	0.09	670295	keystroke	e	n/a
335.3725	0.06	670745	keystroke	f	n/a
335.5365	0.045	671073	keystroke	f	n/a
335.5975	0.105	671195	keystroke	o	n/a
335.7165	0.09	671433	keystroke	r	n/a
336.4225	0.075	672845	keystroke	t	n/a
336.6475	0.075	673295	keystroke	s	n/a
336.8565	0.105	673713	keystroke	Key.enter	n/a
336.9685	5.965	673937	prompt	n/a	testimonials christmas sale hoped\n
337.6975	0.09	675395	keystroke	t	n/a
337.8025	0.074	675605	keystroke	e	n/a
337.9675	0.075	675935	keystroke	s	n/a
338.1475	0.06	676295	keystroke	t	n/a
338.1775	0.105	676355	keystroke	i	n/a
338.3875	0.075	676775	keystroke	m	n/a
338.5225	0.15	677045	keystroke	o	n/a
338.6125	0.12	677225	keystroke	n	n/a
338.7775	0.075	677555	keystroke	i	n/a
338.8665	0.075	677733	keystroke	a	n/a
338.9875	0.074	677975	keystroke	l	n/a
339.1375	0.09	678275	keystroke	s	n/a
339.2725	0.09	678545	keystroke	Key.space	n/a
339.3775	0.075	678755	keystroke	c	n/a
339.4525	0.075	678905	keystroke	h	n/a
339.6615	0.075	679323	keystroke	i	n/a
340.0365	0.075	680073	keystroke	Key.backspace	n/a
340.2775	0.029	680555	keystroke	r	n/a
340.6225	0.075	681245	keystroke	i	n/a
340.7875	0.06	681575	keystroke	s	n/a
340.9675	0.074	681935	keystroke	t	n/a
341.1175	0.074	682235	keystroke	m	n/a
341.2525	0.075	682505	keystroke	a	n/a
341.3875	0.105	682775	keystroke	s	n/a
341.4775	0.104	682955	keystroke	Key.space	n/a
341.5835	0.089	683167	keystroke	s	n/a
341.6425	0.09	683285	keystroke	a	n/a
341.7475	0.075	683495	keystroke	l	n/a
341.8525	0.12	683705	keystroke	e	n/a
341.9415	0.091	683883	keystroke	Key.space	n/a
342.0925	0.075	684185	keystroke	h	n/a
342.1825	0.09	684365	keystroke	o	n/a
342.3475	0.075	684695	keystroke	p	n/a
342.3925	0.075	684785	keystroke	e	n/a
342.5425	0.089	685085	keystroke	d	n/a
342.8425	0.089	685685	keystroke	Key.enter	n/a
342.9385	6.2055	685877	prompt	n/a	lopez august editions villas\n
343.5625	0.135	687125	keystroke	l	n/a
343.8025	0.075	687605	keystroke	o	n/a
343.9675	0.075	687935	keystroke	p	n/a
344.1325	0.075	688265	keystroke	e	n/a
344.702	0.075	689404	keystroke	z	n/a
344.822	0.1055	689644	keystroke	Key.space	n/a
345.0175	0.105	690035	keystroke	a	n/a
345.1525	0.09	690305	keystroke	u	n/a
345.3925	0.09	690785	keystroke	g	n/a
345.8275	0.075	691655	keystroke	u	n/a
346.0975	0.03	692195	keystroke	e	n/a
346.6375	0.075	693275	keystroke	Key.backspace	n/a
346.7425	0.105	693485	keystroke	s	n/a
346.9975	0.06	693995	keystroke	t	n/a
347.1175	0.119	694235	keystroke	Key.space	n/a
347.2065	0.061	694413	keystroke	e	n/a
347.3725	0.06	694745	keystroke	d	n/a
347.4335	0.074	694867	keystroke	i	n/a
347.5375	0.09	695075	keystroke	t	n/a
347.6125	0.075	695225	keystroke	i	n/a
347.7475	0.165	695495	keystroke	o	n/a
347.8675	0.09	695735	keystroke	n	n/a
347.9875	0.09	695975	keystroke	s	n/a
348.0775	0.105	696155	keystroke	Key.space	n/a
348.2425	0.09	696485	keystroke	v	n/a
348.3175	0.09	696635	keystroke	i	n/a
348.5275	0.059	697055	keystroke	l	n/a
348.6775	0.06	697355	keystroke	l	n/a
348.7515	0.091	697503	keystroke	a	n/a
348.9025	0.09	697805	keystroke	s	n/a
349.0375	0.105	698075	keystroke	Key.enter	n/a
349.1485	8.9995	698297	prompt	n/a	teaching heart surrey players\n
349.8475	0.045	699695	keystroke	t	n/a
349.9975	0.06	699995	keystroke	e	n/a
350.1925	0.075	700385	keystroke	a	n/a
350.3425	0.075	700685	keystroke	c	n/a
350.4325	0.075	700865	keystroke	h	n/a
350.6125	0.135	701225	keystroke	i	n/a
350.7175	0.12	701435	keystroke	n	n/a
350.8675	0.06	701735	keystroke	g	n/a
350.9725	0.09	701945	keystroke	Key.space	n/a
351.2115	0.076	702423	keystroke	e	n/a
351.4075	0.09	702815	keystroke	a	n/a
351.8575	0.0445	703715	keystroke	Key.backspace	n/a
352.0075	0.075	704015	keystroke	Key.backspace	n/a
352.3675	0.06	704735	keystroke	h	n/a
352.457	0.06	704914	keystroke	e	n/a
352.459	0.001	704918	keystroke	Key.cmd	n/a
352.459	0.001	704918	keystroke	.	n/a
352.637	0.0755	705274	keystroke	a	n/a
352.786	0.0765	705572	keystroke	r	n/a
352.9525	0.0745	705905	keystroke	t	n/a
353.042	0.105	706084	keystroke	Key.space	n/a
353.192	0.09	706384	keystroke	s	n/a
353.267	0.09	706534	keystroke	u	n/a
353.4175	0.0745	706835	keystroke	r	n/a
353.567	0.03	707134	keystroke	r	n/a
353.852	0.0755	707704	keystroke	e	n/a
353.942	0.09	707884	keystroke	y	n/a
354.257	0.075	708514	keystroke	Key.space	n/a
354.467	0.135	708934	keystroke	p	n/a
354.5725	0.0895	709145	keystroke	l	n/a
354.662	0.105	709324	keystroke	a	n/a
354.797	0.105	709594	keystroke	y	n/a
354.887	0.075	709774	keystroke	e	n/a
355.0375	0.0895	710075	keystroke	r	n/a
355.277	0.06	710554	keystroke	s	n/a
355.382	0.074	710764	keystroke	Key.enter	n/a
358.1445	0	716289	keystroke	Key.enter	n/a
358.153	5.4215	716306	prompt	n/a	campbell mark elected recovery\n
358.9815	0.045	717963	keystroke	c	n/a
359.1015	0.1205	718203	keystroke	a	n/a
359.237	0.06	718474	keystroke	m	n/a
359.3415	0.075	718683	keystroke	p	n/a
359.522	0.03	719044	keystroke	b	n/a
359.763	0.104	719526	keystroke	e	n/a
359.912	0.0595	719824	keystroke	l	n/a
360.0615	0.0605	720123	keystroke	l	n/a
360.197	0.09	720394	keystroke	Key.space	n/a
360.362	0.105	720724	keystroke	m	n/a
360.437	0.075	720874	keystroke	a	n/a
360.617	0.06	721234	keystroke	r	n/a
360.707	0.075	721414	keystroke	k	n/a
360.857	0.12	721714	keystroke	Key.space	n/a
361.007	0.045	722014	keystroke	e	n/a
361.067	0.075	722134	keystroke	l	n/a
361.127	0.09	722254	keystroke	e	n/a
361.322	0.105	722644	keystroke	c	n/a
361.637	0.105	723274	keystroke	t	n/a
361.757	0.06	723514	keystroke	e	n/a
361.937	0.075	723874	keystroke	d	n/a
362.042	0.12	724084	keystroke	Key.space	n/a
362.177	0.045	724354	keystroke	r	n/a
362.327	0.12	724654	keystroke	e	n/a
362.642	0.046	725284	keystroke	c	n/a
362.717	0.075	725434	keystroke	o	n/a
362.823	0.059	725646	keystroke	v	n/a
362.987	0.06	725974	keystroke	e	n/a
363.137	0.105	726274	keystroke	r	n/a
363.362	0.09	726724	keystroke	y	n/a
363.482	0.09	726964	keystroke	Key.enter	n/a
363.5805	6.564	727161	prompt	n/a	determines trustee prohibited transferred\n
364.247	0.09	728494	keystroke	d	n/a
364.382	0.09	728764	keystroke	e	n/a
364.547	0.075	729094	keystroke	t	n/a
364.637	0.105	729274	keystroke	e	n/a
364.757	0.09	729514	keystroke	r	n/a
364.848	0.059	729696	keystroke	m	n/a
364.982	0.15	729964	keystroke	i	n/a
365.057	0.15	730114	keystroke	n	n/a
365.133	0.059	730266	keystroke	e	n/a
365.297	0.105	730594	keystroke	s	n/a
365.387	0.105	730774	keystroke	Key.space	n/a
365.568	0.12	731136	keystroke	t	n/a
365.612	0.105	731224	keystroke	r	n/a
365.747	0.09	731494	keystroke	u	n/a
365.852	0.105	731704	keystroke	s	n/a
366.062	0.09	732124	keystroke	t	n/a
366.347	0.045	732694	keystroke	e	n/a
366.467	0.09	732934	keystroke	e	n/a
366.542	0.09	733084	keystroke	Key.space	n/a
366.737	0.09	733474	keystroke	p	n/a
366.812	0.106	733624	keystroke	r	n/a
366.932	0.075	733864	keystroke	o	n/a
367.022	0.06	734044	keystroke	h	n/a
367.187	0.105	734374	keystroke	i	n/a
367.337	0.105	734674	keystroke	b	n/a
367.457	0.09	734914	keystroke	i	n/a
367.562	0.06	735124	keystroke	t	n/a
367.742	0.06	735484	keystroke	e	n/a
367.892	0.12	735784	keystroke	d	n/a
367.997	0.105	735994	keystroke	Key.space	n/a
368.162	0.105	736324	keystroke	t	n/a
368.237	0.075	736474	keystroke	r	n/a
368.417	0.075	736834	keystroke	a	n/a
368.522	0.09	737044	keystroke	n	n/a
368.582	0.09	737164	keystroke	s	n/a
368.762	0.09	737524	keystroke	f	n/a
368.897	0.105	737794	keystroke	e	n/a
369.107	0.075	738214	keystroke	r	n/a
369.212	0.091	738424	keystroke	r	n/a
369.587	0.075	739174	keystroke	e	n/a
369.767	0.09	739534	keystroke	d	n/a
370.052	0.09	740104	keystroke	Key.enter	n/a
370.149	5.6955	740298	prompt	n/a	orlando diamonds databases arising\n
370.802	0.105	741604	keystroke	o	n/a
370.937	0.075	741874	keystroke	r	n/a
371.207	0.015	742414	keystroke	l	n/a
371.237	0.075	742474	keystroke	a	n/a
371.342	0.075	742684	keystroke	n	n/a
371.462	0.06	742924	keystroke	d	n/a
371.582	0.105	743164	keystroke	o	n/a
371.807	0.075	743614	keystroke	Key.space	n/a
371.912	0.09	743824	keystroke	d	n/a
372.017	0.075	744034	keystroke	i	n/a
372.122	0.06	744244	keystroke	a	n/a
372.227	0.075	744454	keystroke	m	n/a
372.362	0.15	744724	keystroke	o	n/a
372.437	0.135	744874	keystroke	n	n/a
372.557	0.12	745114	keystroke	d	n/a
372.662	0.105	745324	keystroke	s	n/a
372.812	0.135	745624	keystroke	Key.space	n/a
373.112	0.075	746224	keystroke	d	n/a
373.307	0.09	746614	keystroke	a	n/a
373.502	0.075	747004	keystroke	t	n/a
373.667	0.09	747334	keystroke	a	n/a
373.802	0.105	747604	keystroke	b	n/a
373.892	0.075	747784	keystroke	a	n/a
374.072	0.09	748144	keystroke	s	n/a
374.267	0.075	748534	keystroke	e	n/a
374.447	0.06	748894	keystroke	s	n/a
374.552	0.075	749104	keystroke	Key.space	n/a
374.808	0.104	749616	keystroke	a	n/a
375.047	0.076	750094	keystroke	r	n/a
375.153	0.089	750306	keystroke	i	n/a
375.227	0.09	750454	keystroke	s	n/a
375.332	0.15	750664	keystroke	i	n/a
375.437	0.12	750874	keystroke	n	n/a
375.452	0.15	750904	keystroke	g	n/a
375.737	0.105	751474	keystroke	Key.enter	n/a
375.849	5.485	751698	prompt	n/a	anywhere sense physically minutes\n
376.578	0.089	753156	keystroke	a	n/a
376.682	0.09	753364	keystroke	n	n/a
376.877	0.075	753754	keystroke	y	n/a
376.907	0.09	753814	keystroke	w	n/a
377.072	0.09	754144	keystroke	h	n/a
377.147	0.075	754294	keystroke	e	n/a
377.252	0.12	754504	keystroke	r	n/a
377.342	0.075	754684	keystroke	e	n/a
377.492	0.075	754984	keystroke	Key.space	n/a
377.597	0.09	755194	keystroke	s	n/a
377.747	0.075	755494	keystroke	e	n/a
377.837	0.091	755674	keystroke	n	n/a
377.942	0.075	755884	keystroke	s	n/a
378.092	0.075	756184	keystroke	e	n/a
378.212	0.105	756424	keystroke	Key.space	n/a
378.422	0.09	756844	keystroke	p	n/a
378.557	0.09	757114	keystroke	h	n/a
378.693	0.074	757386	keystroke	y	n/a
378.932	0.09	757864	keystroke	s	n/a
379.037	0.105	758074	keystroke	i	n/a
379.232	0.045	758464	keystroke	a	n/a
379.307	0.135	758614	keystroke	c	n/a
379.517	0.106	759034	keystroke	a	n/a
379.683	0.074	759366	keystroke	l	n/a
379.847	0.075	759694	keystroke	l	n/a
379.937	0.075	759874	keystroke	y	n/a
380.027	0.09	760054	keystroke	Key.space	n/a
380.207	0.09	760414	keystroke	m	n/a
380.342	0.151	760684	keystroke	i	n/a
380.477	0.09	760954	keystroke	n	n/a
380.613	0.104	761226	keystroke	u	n/a
380.702	0.12	761404	keystroke	t	n/a
380.837	0.075	761674	keystroke	e	n/a
381.017	0.075	762034	keystroke	s	n/a
381.257	0.075	762514	keystroke	Key.enter	n/a
381.3395	10.0895	762679	prompt	n/a	learning phases breed reduction\n
381.917	0.09	763834	keystroke	l	n/a
382.022	0.06	764044	keystroke	e	n/a
382.202	0.045	764404	keystroke	a	n/a
382.352	0.075	764704	keystroke	r	n/a
382.397	0.09	764794	keystroke	n	n/a
382.517	0.165	765034	keystroke	i	n/a
382.622	0.105	765244	keystroke	n	n/a
382.757	0.09	765514	keystroke	g	n/a
382.862	0.075	765724	keystroke	Key.space	n/a
383.057	0.06	766114	keystroke	p	n/a
383.118	0.074	766236	keystroke	h	n/a
383.372	0.06	766744	keystroke	a	n/a
383.537	0.075	767074	keystroke	s	n/a
383.747	0.06	767494	keystroke	e	n/a
383.897	0.09	767794	keystroke	s	n/a
383.972	0.06	767944	keystroke	Key.space	n/a
384.107	0.12	768214	keystroke	b	n/a
384.287	0.075	768574	keystroke	r	n/a
384.512	0.06	769024	keystroke	e	n/a
384.647	0.045	769294	keystroke	e	n/a
384.812	0.09	769624	keystroke	d	n/a
385.082	0.09	770164	keystroke	r	n/a
385.127	0.105	770254	keystroke	Key.space	n/a
385.697	0.075	771394	keystroke	Key.backspace	n/a
385.877	0.075	771754	keystroke	Key.backspace	n/a
386.147	0.091	772294	keystroke	Key.space	n/a
386.222	0.076	772444	keystroke	r	n/a
386.403	0.045	772806	keystroke	e	n/a
386.552	0.091	773104	keystroke	d	n/a
386.627	0.091	773254	keystroke	u	n/a
386.747	0.105	773494	keystroke	c	n/a
390.215	0.058	780430	keystroke	r	n/a
390.257	0.06	780514	keystroke	e	n/a
390.392	0.105	780784	keystroke	d	n/a
390.512	0.075	781024	keystroke	u	n/a
390.632	0.06	781264	keystroke	c	n/a
390.782	0.09	781564	keystroke	t	n/a
390.842	0.075	781684	keystroke	i	n/a
390.977	0.15	781954	keystroke	o	n/a
391.067	0.135	782134	keystroke	n	n/a
391.337	0.09	782674	keystroke	Key.enter	n/a
391.433	4.3305	782866	prompt	n/a	episodes vice honest doctor\n
392.103	0.089	784206	keystroke	e	n/a
392.237	0.061	784474	keystroke	p	n/a
392.418	0.044	784836	keystroke	i	n/a
392.447	0.075	784894	keystroke	s	n/a
392.552	0.09	785104	keystroke	o	n/a
392.613	0.089	785226	keystroke	d	n/a
392.732	0.105	785464	keystroke	e	n/a
392.942	0.09	785884	keystroke	s	n/a
393.047	0.09	786094	keystroke	Key.space	n/a
393.182	0.06	786364	keystroke	v	n/a
393.257	0.075	786514	keystroke	i	n/a
393.392	0.09	786784	keystroke	c	n/a
393.527	0.105	787054	keystroke	e	n/a
393.662	0.06	787324	keystroke	Key.space	n/a
393.843	0.074	787686	keystroke	h	n/a
394.038	0.149	788076	keystroke	o	n/a
394.142	0.121	788284	keystroke	n	n/a
394.202	0.075	788404	keystroke	e	n/a
394.368	0.089	788736	keystroke	s	n/a
394.577	0.09	789154	keystroke	t	n/a
394.712	0.105	789424	keystroke	Key.space	n/a
394.848	0.074	789696	keystroke	d	n/a
394.938	0.074	789876	keystroke	o	n/a
395.043	0.06	790086	keystroke	c	n/a
395.207	0.075	790414	keystroke	t	n/a
395.297	0.06	790594	keystroke	o	n/a
395.388	0.074	790776	keystroke	r	n/a
395.672	0.09	791344	keystroke	Key.enter	n/a
395.769	6.715	791538	prompt	n/a	picnic drink indicators terrain\n
396.513	0.044	793026	keystroke	p	n/a
396.618	0.09	793236	keystroke	i	n/a
396.723	0.075	793446	keystroke	c	n/a
396.932	0.076	793864	keystroke	i	n/a
397.023	0.074	794046	keystroke	n	n/a
397.472	0.075	794944	keystroke	Key.backspace	n/a
397.607	0.06	795214	keystroke	Key.backspace	n/a
397.862	0.121	795724	keystroke	n	n/a
398.012	0.09	796024	keystroke	i	n/a
398.132	0.091	796264	keystroke	c	n/a
398.237	0.09	796474	keystroke	Key.space	n/a
398.387	0.106	796774	keystroke	d	n/a
399.017	0.075	798034	keystroke	r	n/a
399.123	0.119	798246	keystroke	i	n/a
399.228	0.089	798456	keystroke	n	n/a
399.378	0.12	798756	keystroke	k	n/a
399.542	0.075	799084	keystroke	Key.space	n/a
399.752	0.106	799504	keystroke	i	n/a
399.813	0.09	799626	keystroke	n	n/a
399.917	0.061	799834	keystroke	d	n/a
399.978	0.075	799956	keystroke	i	n/a
400.067	0.06	800134	keystroke	c	n/a
400.2025	0.0595	800405	keystroke	a	n/a
400.383	0.104	800766	keystroke	t	n/a
400.472	0.105	800944	keystroke	o	n/a
400.562	0.09	801124	keystroke	r	n/a
400.773	0.075	801546	keystroke	s	n/a
400.877	0.09	801754	keystroke	Key.space	n/a
401.102	0.075	802204	keystroke	t	n/a
401.252	0.091	802504	keystroke	e	n/a
401.463	0.059	802926	keystroke	r	n/a
401.552	0.09	803104	keystroke	r	n/a
401.883	0.089	803766	keystroke	a	n/a
402.032	0.165	804064	keystroke	i	n/a
402.137	0.136	804274	keystroke	n	n/a
402.407	0.075	804814	keystroke	Key.enter	n/a
402.4875	5.8165	804975	prompt	n/a	electoral vermont insert harrison\n
403.233	0.059	806466	keystroke	e	n/a
403.307	0.105	806614	keystroke	l	n/a
403.397	0.045	806794	keystroke	e	n/a
403.562	0.075	807124	keystroke	c	n/a
403.773	0.059	807546	keystroke	t	n/a
403.847	0.061	807694	keystroke	o	n/a
403.922	0.076	807844	keystroke	r	n/a
404.117	0.105	808234	keystroke	a	n/a
404.192	0.091	808384	keystroke	l	n/a
404.372	0.105	808744	keystroke	Key.space	n/a
404.732	0.106	809464	keystroke	v	n/a
404.898	0.089	809796	keystroke	e	n/a
405.047	0.076	810094	keystroke	r	n/a
405.138	0.074	810276	keystroke	m	n/a
405.288	0.149	810576	keystroke	o	n/a
405.347	0.136	810694	keystroke	n	n/a
405.497	0.09	810994	keystroke	t	n/a
405.602	0.09	811204	keystroke	Key.space	n/a
405.782	0.151	811564	keystroke	i	n/a
405.873	0.119	811746	keystroke	n	n/a
405.993	0.074	811986	keystroke	s	n/a
406.172	0.091	812344	keystroke	e	n/a
406.337	0.105	812674	keystroke	r	n/a
406.517	0.105	813034	keystroke	t	n/a
406.667	0.105	813334	keystroke	Key.space	n/a
406.982	0.075	813964	keystroke	h	n/a
407.102	0.091	814204	keystroke	a	n/a
407.327	0.06	814654	keystroke	r	n/a
407.478	0.089	814956	keystroke	r	n/a
407.672	0.075	815344	keystroke	i	n/a
407.792	0.09	815584	keystroke	s	n/a
407.898	0.149	815796	keystroke	o	n/a
408.002	0.106	816004	keystroke	n	n/a
408.212	0.09	816424	keystroke	Key.enter	n/a
408.308	6.3565	816616	prompt	n/a	nike recover affiliates valued\n
408.947	0.06	817894	keystroke	n	n/a
409.112	0.091	818224	keystroke	i	n/a
409.307	0.075	818614	keystroke	k	n/a
409.443	0.09	818886	keystroke	e	n/a
409.547	0.09	819094	keystroke	Key.space	n/a
409.667	0.075	819334	keystroke	r	n/a
409.862	0.09	819724	keystroke	e	n/a
410.207	0.076	820414	keystroke	c	n/a
410.313	0.074	820626	keystroke	o	n/a
410.417	0.091	820834	keystroke	v	n/a
410.583	0.134	821166	keystroke	e	n/a
410.972	0.06	821944	keystroke	r	n/a
411.092	0.09	822184	keystroke	Key.space	n/a
411.318	0.06	822636	keystroke	a	n/a
411.557	0.18	823114	keystroke	f	n/a
411.992	0.09	823984	keystroke	f	n/a
412.427	0.076	824854	keystroke	i	n/a
412.668	0.105	825336	keystroke	l	n/a
412.892	0.075	825784	keystroke	i	n/a
412.982	0.075	825964	keystroke	a	n/a
413.162	0.12	826324	keystroke	t	n/a
413.238	0.105	826476	keystroke	e	n/a
413.447	0.12	826894	keystroke	s	n/a
413.612	0.09	827224	keystroke	Key.space	n/a
413.717	0.076	827434	keystroke	v	n/a
413.867	0.091	827734	keystroke	a	n/a
413.972	0.09	827944	keystroke	l	n/a
414.168	0.089	828336	keystroke	u	n/a
414.273	0.09	828546	keystroke	e	n/a
414.423	0.104	828846	keystroke	d	n/a
414.557	0.105	829114	keystroke	Key.enter	n/a
414.6715	4.5525	829343	prompt	n/a	strengths paper sports paris\n
415.307	0.091	830614	keystroke	s	n/a
415.488	0.089	830976	keystroke	t	n/a
415.682	0.105	831364	keystroke	r	n/a
415.773	0.074	831546	keystroke	e	n/a
415.863	0.104	831726	keystroke	n	n/a
415.938	0.089	831876	keystroke	g	n/a
416.057	0.075	832114	keystroke	t	n/a
416.118	0.089	832236	keystroke	h	n/a
416.312	0.076	832624	keystroke	s	n/a
416.372	0.075	832744	keystroke	Key.space	n/a
416.612	0.045	833224	keystroke	p	n/a
416.672	0.09	833344	keystroke	a	n/a
416.732	0.091	833464	keystroke	p	n/a
416.898	0.089	833796	keystroke	e	n/a
417.093	0.089	834186	keystroke	r	n/a
417.242	0.06	834484	keystroke	Key.space	n/a
417.527	0.105	835054	keystroke	s	n/a
417.618	0.075	835236	keystroke	p	n/a
417.768	0.119	835536	keystroke	o	n/a
417.858	0.075	835716	keystroke	r	n/a
417.992	0.076	835984	keystroke	t	n/a
418.188	0.075	836376	keystroke	s	n/a
418.263	0.074	836526	keystroke	Key.space	n/a
418.428	0.09	836856	keystroke	p	n/a
418.502	0.075	837004	keystroke	a	n/a
418.697	0.076	837394	keystroke	r	n/a
418.787	0.075	837574	keystroke	i	n/a
418.923	0.089	837846	keystroke	s	n/a
419.117	0.105	838234	keystroke	Key.enter	n/a
419.2285	5.636	838457	prompt	n/a	eclipse layer entrance button\n
419.882	0.076	839764	keystroke	e	n/a
420.107	0.091	840214	keystroke	c	n/a
420.212	0.106	840424	keystroke	l	n/a
420.498	0.014	840996	keystroke	i	n/a
420.603	0.09	841206	keystroke	p	n/a
420.707	0.105	841414	keystroke	s	n/a
420.887	0.091	841774	keystroke	e	n/a
420.992	0.06	841984	keystroke	Key.space	n/a
421.112	0.091	842224	keystroke	l	n/a
421.188	0.104	842376	keystroke	a	n/a
421.398	0.089	842796	keystroke	y	n/a
421.532	0.106	843064	keystroke	r	n/a
421.802	0.106	843604	keystroke	r	n/a
422.237	0.06	844474	keystroke	Key.backspace	n/a
422.3565	0.0755	844713	keystroke	Key.backspace	n/a
422.463	0.089	844926	keystroke	e	n/a
422.642	0.076	845284	keystroke	r	n/a
422.747	0.06	845494	keystroke	Key.space	n/a
422.837	0.106	845674	keystroke	e	n/a
422.928	0.09	845856	keystroke	n	n/a
423.032	0.12	846064	keystroke	t	n/a
423.122	0.076	846244	keystroke	r	n/a
423.317	0.091	846634	keystroke	a	n/a
423.437	0.091	846874	keystroke	n	n/a
423.513	0.105	847026	keystroke	c	n/a
423.647	0.121	847294	keystroke	e	n/a
423.752	0.09	847504	keystroke	Key.space	n/a
423.978	0.104	847956	keystroke	b	n/a
424.113	0.105	848226	keystroke	u	n/a
424.262	0.045	848524	keystroke	t	n/a
424.383	0.09	848766	keystroke	t	n/a
424.443	0.165	848886	keystroke	o	n/a
424.532	0.15	849064	keystroke	n	n/a
424.787	0.075	849574	keystroke	Key.enter	n/a
424.8685	5.247	849737	prompt	n/a	heading veterans pleasant reseller\n
425.493	0.09	850986	keystroke	h	n/a
425.598	0.075	851196	keystroke	e	n/a
425.793	0.06	851586	keystroke	a	n/a
425.928	0.09	851856	keystroke	d	n/a
426.018	0.15	852036	keystroke	i	n/a
426.122	0.12	852244	keystroke	n	n/a
426.258	0.09	852516	keystroke	g	n/a
426.377	0.105	852754	keystroke	Key.space	n/a
426.588	0.089	853176	keystroke	v	n/a
426.752	0.106	853504	keystroke	e	n/a
426.903	0.104	853806	keystroke	t	n/a
426.993	0.119	853986	keystroke	e	n/a
427.128	0.09	854256	keystroke	r	n/a
427.322	0.09	854644	keystroke	a	n/a
427.398	0.075	854796	keystroke	n	n/a
427.503	0.09	855006	keystroke	s	n/a
427.593	0.074	855186	keystroke	Key.space	n/a
427.802	0.151	855604	keystroke	p	n/a
427.922	0.105	855844	keystroke	l	n/a
427.998	0.075	855996	keystroke	e	n/a
428.177	0.0905	856354	keystroke	a	n/a
428.3425	0.1055	856685	keystroke	s	n/a
428.4325	0.12	856865	keystroke	a	n/a
428.523	0.1045	857046	keystroke	n	n/a
428.6875	0.0745	857375	keystroke	t	n/a
428.807	0.135	857614	keystroke	Key.space	n/a
428.912	0.1055	857824	keystroke	r	n/a
429.002	0.0445	858004	keystroke	e	n/a
429.168	0.0745	858336	keystroke	s	n/a
429.3165	0.076	858633	keystroke	e	n/a
429.4225	0.0595	858845	keystroke	l	n/a
429.557	0.0905	859114	keystroke	l	n/a
429.633	0.0885	859266	keystroke	e	n/a
429.7675	0.0895	859535	keystroke	r	n/a
430.038	0.075	860076	keystroke	Key.enter	n/a
430.1195	10.06	860239	prompt	n/a	underwear adapted ecological advertisement\n
431.012	0.1195	862024	keystroke	u	n/a
431.193	0.0745	862386	keystroke	d	n/a
431.193	0.1045	862386	keystroke	n	n/a
431.2975	0.12	862595	keystroke	e	n/a
431.493	0.0295	862986	keystroke	r	n/a
432.0015	0.0765	864003	keystroke	w	n/a
432.3465	0.0605	864693	keystroke	Key.backspace	n/a
432.4965	0.0765	864993	keystroke	Key.backspace	n/a
432.6475	0.0445	865295	keystroke	Key.backspace	n/a
432.7965	0.06	865593	keystroke	Key.backspace	n/a
433.307	0.0595	866614	keystroke	Key.backspace	n/a
433.532	0.0905	867064	keystroke	n	n/a
433.6375	0.045	867275	keystroke	d	n/a
433.7425	0.06	867485	keystroke	e	n/a
433.877	0.0745	867754	keystroke	r	n/a
434.088	0.0585	868176	keystroke	w	n/a
434.268	0.0885	868536	keystroke	a	n/a
434.4765	0.075	868953	keystroke	t	n/a
434.5675	0.09	869135	keystroke	e	n/a
434.7025	0.09	869405	keystroke	r	n/a
434.8515	0.105	869703	keystroke	Key.space	n/a
434.9875	0.0755	869975	keystroke	a	n/a
435.1215	0.105	870243	keystroke	d	n/a
435.1975	0.1045	870395	keystroke	a	n/a
435.287	0.1055	870574	keystroke	p	n/a
435.4225	0.105	870845	keystroke	t	n/a
435.632	0.0755	871264	keystroke	e	n/a
435.8425	0.0605	871685	keystroke	d	n/a
435.9925	0.059	871985	keystroke	Key.space	n/a
436.0665	0.0905	872133	keystroke	e	n/a
436.2625	0.075	872525	keystroke	c	n/a
436.7125	0.075	873425	keystroke	o	n/a
436.9225	0.0905	873845	keystroke	l	n/a
437.1025	0.0895	874205	keystroke	o	n/a
437.2225	0.0605	874445	keystroke	g	n/a
437.313	0.0895	874626	keystroke	i	n/a
437.463	0.0885	874926	keystroke	c	n/a
437.5975	0.104	875195	keystroke	a	n/a
437.6715	0.076	875343	keystroke	l	n/a
437.8515	0.091	875703	keystroke	Key.space	n/a
437.9725	0.045	875945	keystroke	a	n/a
438.0925	0.089	876185	keystroke	d	n/a
438.3175	0.09	876635	keystroke	v	n/a
438.4675	0.09	876935	keystroke	e	n/a
438.6765	0.016	877353	keystroke	r	n/a
438.7675	0.0605	877535	keystroke	t	n/a
439.2015	0.091	878403	keystroke	i	n/a
439.337	0.0755	878674	keystroke	s	n/a
439.5325	0.06	879065	keystroke	e	n/a
439.6225	0.09	879245	keystroke	m	n/a
439.7275	0.044	879455	keystroke	e	n/a
439.7875	0.105	879575	keystroke	n	n/a
439.9065	0.0915	879813	keystroke	t	n/a
440.0875	0.089	880175	keystroke	Key.enter	n/a
440.185	4.9295	880370	prompt	n/a	already hopes float yeah\n
440.7775	0.09	881555	keystroke	a	n/a
440.8675	0.09	881735	keystroke	l	n/a
441.0175	0.09	882035	keystroke	r	n/a
441.0475	0.09	882095	keystroke	e	n/a
441.2575	0.06	882515	keystroke	a	n/a
441.3925	0.075	882785	keystroke	d	n/a
441.4225	0.105	882845	keystroke	y	n/a
441.6315	0.09	883263	keystroke	Key.space	n/a
441.7825	0.074	883565	keystroke	h	n/a
442.0225	0.09	884045	keystroke	o	n/a
442.2025	0.06	884405	keystroke	p	n/a
442.308	0.0745	884616	keystroke	e	n/a
442.4725	0.105	884945	keystroke	s	n/a
442.5915	0.075	885183	keystroke	Key.space	n/a
442.713	0.0895	885426	keystroke	f	n/a
442.8325	0.074	885665	keystroke	l	n/a
442.9975	0.0895	885995	keystroke	o	n/a
443.3425	0.0895	886685	keystroke	a	n/a
443.5675	0.06	887135	keystroke	t	n/a
443.6575	0.1045	887315	keystroke	Key.space	n/a
443.7925	0.105	887585	keystroke	y	n/a
443.9125	0.09	887825	keystroke	e	n/a
444.1225	0.09	888245	keystroke	a	n/a
444.8265	0.091	889653	keystroke	h	n/a
445.0225	0.089	890045	keystroke	Key.enter	n/a
445.1225	7.432	890245	prompt	n/a	survivor dying seems yeast\n
445.7575	0.075	891515	keystroke	s	n/a
445.8475	0.09	891695	keystroke	u	n/a
445.9975	0.089	891995	keystroke	r	n/a
446.2375	0.075	892475	keystroke	v	n/a
446.3275	0.06	892655	keystroke	i	n/a
446.3875	0.075	892775	keystroke	v	n/a
446.4925	0.09	892985	keystroke	o	n/a
446.6125	0.074	893225	keystroke	r	n/a
446.7475	0.105	893495	keystroke	Key.space	n/a
446.8825	0.09	893765	keystroke	d	n/a
446.9875	0.09	893975	keystroke	y	n/a
447.1375	0.045	894275	keystroke	d	n/a
447.1975	0.149	894395	keystroke	i	n/a
447.3025	0.105	894605	keystroke	n	n/a
447.3925	0.074	894785	keystroke	g	n/a
447.5125	0.089	895025	keystroke	Key.space	n/a
447.7075	0.075	895415	keystroke	s	n/a
447.9475	0.06	895895	keystroke	e	n/a
448.1125	0.045	896225	keystroke	e	n/a
448.3065	0.061	896613	keystroke	Key.backspace	n/a
448.4725	0.045	896945	keystroke	Key.backspace	n/a
448.6225	0.044	897245	keystroke	Key.backspace	n/a
448.7875	0.014	897575	keystroke	Key.backspace	n/a
448.9375	0.045	897875	keystroke	Key.backspace	n/a
449.0725	0.059	898145	keystroke	Key.backspace	n/a
449.2225	0.06	898445	keystroke	Key.backspace	n/a
449.4315	0.075	898863	keystroke	Key.backspace	n/a
450.0775	0.045	900155	keystroke	i	n/a
450.3025	0.105	900605	keystroke	n	n/a
450.4375	0.075	900875	keystroke	g	n/a
450.5565	0.091	901113	keystroke	Key.space	n/a
450.7075	0.09	901415	keystroke	s	n/a
450.9325	0.06	901865	keystroke	e	n/a
451.0675	0.075	902135	keystroke	e	n/a
451.1575	0.045	902315	keystroke	m	n/a
451.2625	0.075	902525	keystroke	s	n/a
451.3075	0.119	902615	keystroke	Key.space	n/a
451.5775	0.059	903155	keystroke	y	n/a
451.7125	0.105	903425	keystroke	e	n/a
451.9365	0.046	903873	keystroke	a	n/a
452.0725	0.075	904145	keystroke	s	n/a
452.2975	0.075	904595	keystroke	t	n/a
452.4475	0.105	904895	keystroke	Key.enter	n/a
452.5595	4.809	905119	prompt	n/a	blessed over readings foot\n
453.2725	0.09	906545	keystroke	b	n/a
453.4675	0.075	906935	keystroke	l	n/a
453.7225	0.075	907445	keystroke	e	n/a
453.9175	0.045	907835	keystroke	s	n/a
454.0375	0.074	908075	keystroke	s	n/a
454.2175	0.075	908435	keystroke	e	n/a
454.3825	0.075	908765	keystroke	d	n/a
454.5025	0.09	909005	keystroke	Key.space	n/a
454.6675	0.09	909335	keystroke	o	n/a
454.802	0.09	909604	keystroke	v	n/a
454.952	0.074	909904	keystroke	e	n/a
455.102	0.09	910204	keystroke	r	n/a
455.207	0.12	910414	keystroke	Key.space	n/a
455.282	0.06	910564	keystroke	r	n/a
455.462	0.06	910924	keystroke	e	n/a
455.657	0.104	911314	keystroke	a	n/a
455.867	0.09	911734	keystroke	d	n/a
455.942	0.135	911884	keystroke	i	n/a
456.047	0.12	912094	keystroke	n	n/a
456.257	0.075	912514	keystroke	g	n/a
456.467	0.06	912934	keystroke	s	n/a
456.542	0.059	913084	keystroke	Key.space	n/a
456.797	0.06	913594	keystroke	f	n/a
456.917	0.06	913834	keystroke	o	n/a
457.052	0.075	914104	keystroke	o	n/a
457.127	0.105	914254	keystroke	t	n/a
457.277	0.09	914554	keystroke	Key.enter	n/a
457.3735	10.18	914747	prompt	n/a	conversion gimme respective village\n
458.042	0.075	916084	keystroke	c	n/a
458.177	0.165	916354	keystroke	o	n/a
458.596	0.076	917192	keystroke	Key.backspace	n/a
459.437	0.165	918874	keystroke	o	n/a
459.542	0.135	919084	keystroke	n	n/a
459.632	0.09	919264	keystroke	v	n/a
459.782	0.09	919564	keystroke	e	n/a
459.947	0.09	919894	keystroke	r	n/a
460.142	0.075	920284	keystroke	s	n/a
460.202	0.09	920404	keystroke	i	n/a
460.382	0.165	920764	keystroke	o	n/a
460.502	0.09	921004	keystroke	n	n/a
460.682	0.12	921364	keystroke	Key.space	n/a
461.312	0.09	922624	keystroke	g	n/a
461.387	0.105	922774	keystroke	i	n/a
461.747	0.06	923494	keystroke	m	n/a
461.882	0.105	923764	keystroke	m	n/a
462.092	0.09	924184	keystroke	i	n/a
462.197	0.09	924394	keystroke	e	n/a
462.332	0.12	924664	keystroke	Key.space	n/a
462.572	0.09	925144	keystroke	r	n/a
462.812	0.09	925624	keystroke	s	n/a
462.947	0.075	925894	keystroke	p	n/a
463.052	0.075	926104	keystroke	e	n/a
463.277	0.075	926554	keystroke	c	n/a
463.472	0.075	926944	keystroke	t	n/a
463.532	0.105	927064	keystroke	i	n/a
463.697	0.105	927394	keystroke	v	n/a
463.862	0.135	927724	keystroke	e	n/a
464.057	0.135	928114	keystroke	Key.space	n/a
464.792	0.105	929584	keystroke	v	n/a
464.912	0.075	929824	keystroke	i	n/a
465.107	0.075	930214	keystroke	a	n/a
465.242	0.045	930484	keystroke	l	n/a
465.362	0.09	930724	keystroke	l	n/a
465.887	0.06	931774	keystroke	Key.backspace	n/a
466.022	0.06	932044	keystroke	Key.backspace	n/a
466.202	0.03	932404	keystroke	Key.backspace	n/a
466.892	0.045	933784	keystroke	l	n/a
467.012	0.075	934024	keystroke	l	n/a
467.072	0.075	934144	keystroke	a	n/a
467.237	0.135	934474	keystroke	g	n/a
467.342	0.135	934684	keystroke	e	n/a
467.492	0.06	934984	keystroke	Key.enter	n/a
467.558	7.0605	935116	prompt	n/a	michigan objects lessons parties\n
468.152	0.075	936304	keystroke	m	n/a
468.317	0.075	936634	keystroke	i	n/a
468.422	0.06	936844	keystroke	c	n/a
468.572	0.075	937144	keystroke	h	n/a
469.217	0.09	938434	keystroke	Key.backspace	n/a
469.847	0.09	939694	keystroke	h	n/a
469.967	0.12	939934	keystroke	i	n/a
470.357	0.075	940714	keystroke	g	n/a
470.612	0.075	941224	keystroke	a	n/a
470.672	0.075	941344	keystroke	n	n/a
470.837	0.09	941674	keystroke	Key.space	n/a
471.062	0.105	942124	keystroke	o	n/a
471.212	0.105	942424	keystroke	b	n/a
471.347	0.105	942694	keystroke	j	n/a
471.467	0.135	942934	keystroke	e	n/a
471.722	0.105	943444	keystroke	c	n/a
471.962	0.075	943924	keystroke	t	n/a
