onset	duration	sample	value	key	prompt_text
1.586	21.4655	3172	prompt	n/a	the quick brown fox jumps over a lazy dog\n
12.836	0.001	25672	keystroke	u	n/a
12.939	0.0755	25878	keystroke	u	n/a
13.104	0.06	26208	keystroke	u	n/a
14.9185	0.0605	29837	keystroke	Key.backspace	n/a
15.084	0.06	30168	keystroke	Key.backspace	n/a
15.2495	0.0595	30499	keystroke	Key.backspace	n/a
16.7485	0.135	33497	keystroke	t	n/a
16.8685	0.105	33737	keystroke	h	n/a
16.9445	0.1945	33889	keystroke	e	n/a
17.0485	0.1805	34097	keystroke	Key.space	n/a
17.2145	0.1345	34429	keystroke	q	n/a
17.334	0.1355	34668	keystroke	u	n/a
17.454	0.09	34908	keystroke	i	n/a
17.589	0.12	35178	keystroke	c	n/a
17.7245	0.1195	35449	keystroke	k	n/a
17.829	0.135	35658	keystroke	Key.space	n/a
17.934	0.09	35868	keystroke	b	n/a
18.324	0.105	36648	keystroke	r	n/a
18.489	0.12	36978	keystroke	o	n/a
18.5945	0.1345	37189	keystroke	w	n/a
18.7445	0.1195	37489	keystroke	n	n/a
18.954	0.135	37908	keystroke	Key.space	n/a
19.2545	0.1045	38509	keystroke	f	n/a
19.419	0.1055	38838	keystroke	o	n/a
19.539	0.1505	39078	keystroke	x	n/a
19.7045	0.135	39409	keystroke	Key.space	n/a
19.8245	0.06	39649	keystroke	j	n/a
20.0045	0.06	40009	keystroke	u	n/a
20.1995	0.09	40399	keystroke	m	n/a
20.3645	0.105	40729	keystroke	p	n/a
20.5145	0.15	41029	keystroke	s	n/a
20.6495	0.12	41299	keystroke	Key.space	n/a
20.7995	0.105	41599	keystroke	o	n/a
20.8895	0.105	41779	keystroke	v	n/a
21.0685	0.121	42137	keystroke	e	n/a
21.1445	0.135	42289	keystroke	r	n/a
21.2335	0.1505	42467	keystroke	Key.space	n/a
21.369	0.15	42738	keystroke	a	n/a
21.504	0.135	43008	keystroke	Key.space	n/a
21.714	0.09	43428	keystroke	l	n/a
21.879	0.1055	43758	keystroke	a	n/a
22.074	0.1055	44148	keystroke	z	n/a
22.209	0.0905	44418	keystroke	y	n/a
22.329	0.1655	44658	keystroke	Key.space	n/a
22.479	0.09	44958	keystroke	d	n/a
22.5845	0.1495	45169	keystroke	o	n/a
22.749	0.06	45498	keystroke	g	n/a
22.959	0.09	45918	keystroke	Key.enter	n/a
23.0555	4.81	46111	prompt	n/a	gone ignore todd tourist\n
23.889	0.03	47778	keystroke	g	n/a
23.934	0.1505	47868	keystroke	o	n/a
24.3245	0.075	48649	keystroke	n	n/a
24.504	0.1505	49008	keystroke	e	n/a
24.609	0.1355	49218	keystroke	Key.space	n/a
24.7745	0.165	49549	keystroke	i	n/a
25.0895	0.105	50179	keystroke	g	n/a
25.3145	0.12	50629	keystroke	n	n/a
25.4945	0.12	50989	keystroke	o	n/a
25.5845	0.135	51169	keystroke	r	n/a
25.7195	0.1345	51439	keystroke	e	n/a
25.824	0.1505	51648	keystroke	Key.space	n/a
26.094	0.0755	52188	keystroke	t	n/a
26.184	0.12	52368	keystroke	o	n/a
26.3195	0.0745	52639	keystroke	d	n/a
26.514	0.0895	53028	keystroke	d	n/a
26.574	0.225	53148	keystroke	Key.space	n/a
26.7245	0.105	53449	keystroke	t	n/a
26.874	0.15	53748	keystroke	o	n/a
26.9945	0.105	53989	keystroke	u	n/a
27.114	0.105	54228	keystroke	r	n/a
27.2795	0.105	54559	keystroke	i	n/a
27.3995	0.1195	54799	keystroke	s	n/a
27.594	0.075	55188	keystroke	t	n/a
27.744	0.12	55488	keystroke	Key.enter	n/a
27.8685	7.9175	55737	prompt	n/a	saves surely thanksgiving lambda\n
28.434	0.1355	56868	keystroke	s	n/a
28.629	0.135	57258	keystroke	a	n/a
28.7795	0.0595	57559	keystroke	v	n/a
28.929	0.1355	57858	keystroke	e	n/a
29.0785	0.1055	58157	keystroke	Key.space	n/a
29.559	0.09	59118	keystroke	Key.backspace	n/a
29.7245	0.1045	59449	keystroke	s	n/a
29.859	0.1355	59718	keystroke	Key.space	n/a
30.009	0.165	60018	keystroke	s	n/a
30.1595	0.0745	60319	keystroke	u	n/a
30.279	0.135	60558	keystroke	r	n/a
30.429	0.12	60858	keystroke	e	n/a
30.579	0.075	61158	keystroke	l	n/a
30.7745	0.0595	61549	keystroke	y	n/a
30.879	0.09	61758	keystroke	Key.space	n/a
31.0595	0.09	62119	keystroke	t	n/a
31.1345	0.0895	62269	keystroke	h	n/a
31.3295	0.1495	62659	keystroke	a	n/a
31.434	0.0755	62868	keystroke	n	n/a
31.584	0.1055	63168	keystroke	k	n/a
31.734	0.135	63468	keystroke	s	n/a
32.319	0.1055	64638	keystroke	g	n/a
32.5735	0.076	65147	keystroke	i	n/a
32.6785	0.12	65357	keystroke	v	n/a
32.844	0.1495	65688	keystroke	i	n/a
32.9785	0.105	65957	keystroke	n	n/a
33.1145	0.1495	66229	keystroke	g	n/a
33.279	0.165	66558	keystroke	Key.space	n/a
33.4895	0.1045	66979	keystroke	l	n/a
33.609	0.135	67218	keystroke	a	n/a
33.729	0.1055	67458	keystroke	m	n/a
34.389	0.0905	68778	keystroke	b	n/a
34.764	0.105	69528	keystroke	d	n/a
34.944	0.12	69888	keystroke	a	n/a
35.6645	0.12	71329	keystroke	Key.enter	n/a
35.789	5.4425	71578	prompt	n/a	tray album deserve athletic\n
36.4445	0.075	72889	keystroke	t	n/a
36.6245	0.06	73249	keystroke	r	n/a
36.7445	0.15	73489	keystroke	a	n/a
36.8795	0.09	73759	keystroke	y	n/a
36.9995	0.1495	73999	keystroke	Key.space	n/a
37.1645	0.1495	74329	keystroke	a	n/a
37.254	0.105	74508	keystroke	l	n/a
37.5995	0.1045	75199	keystroke	b	n/a
37.779	0.075	75558	keystroke	u	n/a
37.989	0.0755	75978	keystroke	m	n/a
38.1245	0.135	76249	keystroke	Key.space	n/a
38.2895	0.09	76579	keystroke	d	n/a
38.4545	0.075	76909	keystroke	e	n/a
38.6945	0.135	77389	keystroke	s	n/a
38.9195	0.165	77839	keystroke	e	n/a
39.0395	0.09	78079	keystroke	r	n/a
39.2645	0.0895	78529	keystroke	v	n/a
39.4745	0.12	78949	keystroke	e	n/a
39.6095	0.15	79219	keystroke	Key.space	n/a
39.8345	0.15	79669	keystroke	a	n/a
40.074	0.1055	80148	keystroke	t	n/a
40.149	0.1045	80298	keystroke	h	n/a
40.374	0.09	80748	keystroke	l	n/a
40.4495	0.1495	80899	keystroke	e	n/a
40.5835	0.0905	81167	keystroke	t	n/a
40.7945	0.105	81589	keystroke	i	n/a
40.9295	0.105	81859	keystroke	c	n/a
41.1095	0.12	82219	keystroke	Key.enter	n/a
41.2365	8.3495	82473	prompt	n/a	external partnerships launch township\n
41.9195	0.104	83839	keystroke	e	n/a
42.144	0.105	84288	keystroke	x	n/a
42.459	0.0905	84918	keystroke	t	n/a
42.6395	0.105	85279	keystroke	e	n/a
42.7145	0.12	85429	keystroke	r	n/a
42.849	0.1355	85698	keystroke	n	n/a
42.999	0.1355	85998	keystroke	a	n/a
43.1495	0.105	86299	keystroke	l	n/a
43.2395	0.135	86479	keystroke	Key.space	n/a
43.4345	0.09	86869	keystroke	p	n/a
43.5545	0.15	87109	keystroke	a	n/a
43.6895	0.105	87379	keystroke	t	n/a
44.6795	0.09	89359	keystroke	Key.backspace	n/a
44.8445	0.105	89689	keystroke	r	n/a
45.3095	0.09	90619	keystroke	t	n/a
45.534	0.09	91068	keystroke	n	n/a
45.6845	0.105	91369	keystroke	e	n/a
45.7445	0.1195	91489	keystroke	r	n/a
46.0295	0.135	92059	keystroke	s	n/a
46.1645	0.1345	92329	keystroke	h	n/a
46.2845	0.135	92569	keystroke	i	n/a
46.4495	0.1195	92899	keystroke	p	n/a
46.584	0.1345	93168	keystroke	s	n/a
46.704	0.1495	93408	keystroke	Key.space	n/a
46.8385	0.106	93677	keystroke	l	n/a
46.9595	0.165	93919	keystroke	a	n/a
47.0795	0.105	94159	keystroke	u	n/a
47.3345	0.06	94669	keystroke	n	n/a
47.5595	0.1195	95119	keystroke	c	n/a
47.709	0.0905	95418	keystroke	h	n/a
47.9345	0.1345	95869	keystroke	Key.space	n/a
48.2495	0.105	96499	keystroke	t	n/a
48.3995	0.105	96799	keystroke	o	n/a
48.5195	0.135	97039	keystroke	w	n/a
48.6395	0.105	97279	keystroke	n	n/a
48.8345	0.135	97669	keystroke	s	n/a
48.9395	0.12	97879	keystroke	h	n/a
49.06	0.164	98120	keystroke	i	n/a
49.209	0.12	98418	keystroke	p	n/a
49.479	0.105	98958	keystroke	Key.enter	n/a
49.589	4.858	99178	prompt	n/a	portion branch income slot\n
50.2745	0.195	100549	keystroke	p	n/a
50.4245	0.105	100849	keystroke	o	n/a
50.544	0.0905	101088	keystroke	r	n/a
50.7395	0.075	101479	keystroke	t	n/a
50.9195	0.105	101839	keystroke	i	n/a
51.009	0.1805	102018	keystroke	o	n/a
51.1595	0.12	102319	keystroke	n	n/a
51.294	0.1355	102588	keystroke	Key.space	n/a
51.3845	0.09	102769	keystroke	b	n/a
51.579	0.0755	103158	keystroke	r	n/a
51.7295	0.135	103459	keystroke	a	n/a
51.8495	0.135	103699	keystroke	n	n/a
52.0595	0.12	104119	keystroke	c	n/a
52.2545	0.105	104509	keystroke	h	n/a
52.479	0.12	104958	keystroke	Key.space	n/a
52.75	0.164	105500	keystroke	i	n/a
52.855	0.134	105710	keystroke	n	n/a
53.004	0.135	106008	keystroke	c	n/a
53.1545	0.195	106309	keystroke	o	n/a
53.289	0.135	106578	keystroke	m	n/a
53.394	0.1805	106788	keystroke	e	n/a
53.5295	0.15	107059	keystroke	Key.space	n/a
53.7245	0.15	107449	keystroke	s	n/a
53.8295	0.0745	107659	keystroke	l	n/a
54.01	0.104	108020	keystroke	o	n/a
54.115	0.0745	108230	keystroke	t	n/a
54.339	0.105	108678	keystroke	Key.enter	n/a
54.4575	7.819	108915	prompt	n/a	nickname goal torture target\n
55.0745	0.12	110149	keystroke	n	n/a
55.3595	0.09	110719	keystroke	i	n/a
55.5545	0.12	111109	keystroke	c	n/a
55.7045	0.09	111409	keystroke	k	n/a
55.9595	0.0895	111919	keystroke	n	n/a
56.139	0.136	112278	keystroke	a	n/a
56.3045	0.12	112609	keystroke	m	n/a
56.4545	0.1345	112909	keystroke	e	n/a
56.59	0.1345	113180	keystroke	Key.space	n/a
56.799	0.09	113598	keystroke	g	n/a
56.9195	0.1045	113839	keystroke	o	n/a
57.084	0.15	114168	keystroke	a	n/a
57.2045	0.0895	114409	keystroke	l	n/a
57.399	0.1505	114798	keystroke	Key.space	n/a
57.669	0.1205	115338	keystroke	t	n/a
57.7745	0.1195	115549	keystroke	o	n/a
57.909	0.09	115818	keystroke	r	n/a
58.089	0.105	116178	keystroke	t	n/a
58.224	0.0755	116448	keystroke	u	n/a
58.4495	0.06	116899	keystroke	n	n/a
58.8395	0.075	117679	keystroke	Key.backspace	n/a
59.6195	0.09	119239	keystroke	r	n/a
59.7995	0.0895	119599	keystroke	e	n/a
60.624	0.1505	121248	keystroke	Key.space	n/a
60.9995	0.0895	121999	keystroke	t	n/a
61.254	0.166	122508	keystroke	a	n/a
61.3595	0.09	122719	keystroke	r	n/a
61.569	0.046	123138	keystroke	g	n/a
61.7345	0.135	123469	keystroke	e	n/a
61.8845	0.09	123769	keystroke	t	n/a
62.1545	0.12	124309	keystroke	Key.enter	n/a
62.2815	12.5345	124563	prompt	n/a	playstation transition analysts compaq\n
63.0395	0.1195	126079	keystroke	p	n/a
63.234	0.12	126468	keystroke	l	n/a
63.3395	0.1655	126679	keystroke	a	n/a
63.4595	0.105	126919	keystroke	y	n/a
63.654	0.075	127308	keystroke	s	n/a
63.7895	0.09	127579	keystroke	t	n/a
63.969	0.135	127938	keystroke	a	n/a
64.09	0.1045	128180	keystroke	t	n/a
64.2695	0.15	128539	keystroke	i	n/a
64.404	0.1655	128808	keystroke	o	n/a
64.5245	0.1195	129049	keystroke	n	n/a
64.749	0.1355	129498	keystroke	Key.space	n/a
64.974	0.0905	129948	keystroke	t	n/a
65.139	0.12	130278	keystroke	r	n/a
65.319	0.0905	130638	keystroke	n	n/a
65.454	0.1495	130908	keystroke	a	n/a
65.7685	0.1205	131537	keystroke	s	n/a
66.1445	0.09	132289	keystroke	i	n/a
66.279	0.075	132558	keystroke	t	n/a
66.474	0.195	132948	keystroke	i	n/a
66.6245	0.1355	133249	keystroke	o	n/a
66.91	0.0745	133820	keystroke	n	n/a
67.8695	0.075	135739	keystroke	Key.backspace	n/a
68.034	0.0605	136068	keystroke	Key.backspace	n/a
68.1835	0.06	136367	keystroke	Key.backspace	n/a
68.3485	0.03	136697	keystroke	Key.backspace	n/a
68.5145	0.0445	137029	keystroke	Key.backspace	n/a
68.664	0.0605	137328	keystroke	Key.backspace	n/a
68.829	0.06	137658	keystroke	Key.backspace	n/a
68.9795	0.06	137959	keystroke	Key.backspace	n/a
69.7745	0.21	139549	keystroke	a	n/a
69.9095	0.135	139819	keystroke	n	n/a
70.1045	0.135	140209	keystroke	s	n/a
70.2245	0.075	140449	keystroke	i	n/a
70.3145	0.09	140629	keystroke	t	n/a
70.4345	0.1795	140869	keystroke	i	n/a
70.5845	0.21	141169	keystroke	o	n/a
70.75	0.1045	141500	keystroke	n	n/a
70.8695	0.1345	141739	keystroke	Key.space	n/a
71.019	0.1355	142038	keystroke	a	n/a
71.0645	0.15	142129	keystroke	n	n/a
71.2745	0.15	142549	keystroke	a	n/a
71.7245	0.09	143449	keystroke	l	n/a
71.9945	0.09	143989	keystroke	y	n/a
72.2645	0.1045	144529	keystroke	s	n/a
72.6245	0.1345	145249	keystroke	t	n/a
73.2095	0.15	146419	keystroke	s	n/a
73.3895	0.15	146779	keystroke	Key.space	n/a
73.659	0.105	147318	keystroke	c	n/a
73.7795	0.1795	147559	keystroke	o	n/a
73.8845	0.1345	147769	keystroke	m	n/a
74.064	0.135	148128	keystroke	p	n/a
74.2	0.1195	148400	keystroke	a	n/a
74.469	0.091	148938	keystroke	q	n/a
74.709	0.1055	149418	keystroke	Key.enter	n/a
74.819	6.5815	149638	prompt	n/a	ports comic effective microwave\n
75.3845	0.15	150769	keystroke	p	n/a
75.6245	0.105	151249	keystroke	o	n/a
75.804	0.1055	151608	keystroke	r	n/a
76.014	0.0755	152028	keystroke	t	n/a
76.2095	0.15	152419	keystroke	s	n/a
76.2845	0.21	152569	keystroke	Key.space	n/a
76.4645	0.135	152929	keystroke	c	n/a
76.5695	0.18	153139	keystroke	o	n/a
76.6895	0.165	153379	keystroke	m	n/a
76.8845	0.105	153769	keystroke	i	n/a
77.0035	0.1355	154007	keystroke	c	n/a
77.184	0.1805	154368	keystroke	Key.space	n/a
77.3345	0.135	154669	keystroke	e	n/a
77.559	0.09	155118	keystroke	f	n/a
77.754	0.076	155508	keystroke	f	n/a
77.889	0.105	155778	keystroke	e	n/a
78.129	0.06	156258	keystroke	c	n/a
78.324	0.06	156648	keystroke	t	n/a
78.579	0.105	157158	keystroke	i	n/a
78.639	0.0905	157278	keystroke	v	n/a
78.834	0.1505	157668	keystroke	e	n/a
78.9545	0.165	157909	keystroke	Key.space	n/a
79.2245	0.165	158449	keystroke	m	n/a
79.4045	0.12	158809	keystroke	i	n/a
79.7345	0.105	159469	keystroke	c	n/a
79.9445	0.06	159889	keystroke	r	n/a
80.0645	0.12	160129	keystroke	o	n/a
80.4845	0.135	160969	keystroke	w	n/a
80.6795	0.135	161359	keystroke	a	n/a
80.8745	0.075	161749	keystroke	v	n/a
81.0545	0.09	162109	keystroke	e	n/a
81.2945	0.105	162589	keystroke	Key.enter	n/a
81.4035	5.3975	162807	prompt	n/a	corresponding new arch border\n
82.119	0.105	164238	keystroke	c	n/a
82.254	0.135	164508	keystroke	o	n/a
82.3745	0.06	164749	keystroke	r	n/a
82.524	0.0905	165048	keystroke	r	n/a
82.6745	0.105	165349	keystroke	e	n/a
82.8695	0.15	165739	keystroke	s	n/a
83.0645	0.165	166129	keystroke	p	n/a
83.184	0.135	166368	keystroke	o	n/a
83.394	0.105	166788	keystroke	n	n/a
83.53	0.104	167060	keystroke	d	n/a
83.664	0.1805	167328	keystroke	i	n/a
83.7845	0.1195	167569	keystroke	n	n/a
83.889	0.135	167778	keystroke	g	n/a
83.9795	0.1645	167959	keystroke	Key.space	n/a
84.114	0.1505	168228	keystroke	n	n/a
84.219	0.1355	168438	keystroke	e	n/a
84.4145	0.15	168829	keystroke	w	n/a
84.5345	0.165	169069	keystroke	Key.space	n/a
84.6845	0.18	169369	keystroke	a	n/a
84.8045	0.09	169609	keystroke	r	n/a
85.0295	0.0895	170059	keystroke	c	n/a
85.164	0.12	170328	keystroke	h	n/a
85.239	0.135	170478	keystroke	Key.space	n/a
85.479	0.0755	170958	keystroke	b	n/a
85.6295	0.15	171259	keystroke	o	n/a
85.7645	0.075	171529	keystroke	r	n/a
86.184	0.106	172368	keystroke	d	n/a
86.41	0.0745	172820	keystroke	e	n/a
86.4695	0.089	172939	keystroke	r	n/a
86.6945	0.104	173389	keystroke	Key.enter	n/a
86.805	6.3555	173610	prompt	n/a	poly risks groove nelson\n
87.4	0.164	174800	keystroke	p	n/a
87.519	0.151	175038	keystroke	o	n/a
88.1495	0.09	176299	keystroke	l	n/a
88.3745	0.0745	176749	keystroke	y	n/a
88.7495	0.15	177499	keystroke	Key.space	n/a
88.8545	0.105	177709	keystroke	r	n/a
88.9895	0.09	177979	keystroke	i	n/a
89.139	0.12	178278	keystroke	s	n/a
89.319	0.12	178638	keystroke	k	n/a
89.5595	0.1345	179119	keystroke	s	n/a
89.694	0.1805	179388	keystroke	Key.space	n/a
89.8445	0.089	179689	keystroke	g	n/a
89.9945	0.135	179989	keystroke	r	n/a
90.1145	0.12	180229	keystroke	o	n/a
90.624	0.0755	181248	keystroke	Key.backspace	n/a
91.1495	0.06	182299	keystroke	o	n/a
91.299	0.105	182598	keystroke	o	n/a
91.419	0.09	182838	keystroke	v	n/a
91.6145	0.0895	183229	keystroke	e	n/a
91.7795	0.1345	183559	keystroke	Key.space	n/a
92.0045	0.1345	184009	keystroke	n	n/a
92.244	0.1205	184488	keystroke	e	n/a
92.3795	0.119	184759	keystroke	l	n/a
92.574	0.1345	185148	keystroke	s	n/a
92.7245	0.1655	185449	keystroke	o	n/a
92.844	0.105	185688	keystroke	n	n/a
93.0395	0.12	186079	keystroke	Key.enter	n/a
93.163	7.1975	186326	prompt	n/a	wonderful turns possession grande\n
93.804	0.1205	187608	keystroke	w	n/a
93.9095	0.165	187819	keystroke	o	n/a
94.0295	0.15	188059	keystroke	n	n/a
94.1945	0.0905	188389	keystroke	d	n/a
94.4045	0.12	188809	keystroke	e	n/a
94.4645	0.12	188929	keystroke	r	n/a
94.7045	0.12	189409	keystroke	f	n/a
94.8095	0.12	189619	keystroke	u	n/a
94.9445	0.105	189889	keystroke	l	n/a
95.4235	0.121	190847	keystroke	Key.space	n/a
95.694	0.1355	191388	keystroke	t	n/a
95.8895	0.0895	191779	keystroke	u	n/a
96.174	0.1355	192348	keystroke	r	n/a
96.369	0.0755	192738	keystroke	n	n/a
96.6545	0.1495	193309	keystroke	s	n/a
96.7595	0.1645	193519	keystroke	Key.space	n/a
96.9845	0.18	193969	keystroke	p	n/a
97.1195	0.135	194239	keystroke	o	n/a
97.2395	0.09	194479	keystroke	s	n/a
97.4645	0.09	194929	keystroke	e	n/a
97.6145	0.105	195229	keystroke	s	n/a
97.7945	0.09	195589	keystroke	s	n/a
97.8995	0.135	195799	keystroke	i	n/a
98.0045	0.18	196009	keystroke	o	n/a
98.1245	0.1345	196249	keystroke	n	n/a
98.2445	0.135	196489	keystroke	Key.space	n/a
98.334	0.075	196668	keystroke	g	n/a
98.4845	0.09	196969	keystroke	r	n/a
98.6195	0.135	197239	keystroke	a	n/a
98.6645	0.135	197329	keystroke	n	n/a
98.8595	0.09	197719	keystroke	e	n/a
99.474	0.03	198948	keystroke	Key.backspace	n/a
99.4895	0.045	198979	keystroke	d	n/a
99.6245	0.0605	199249	keystroke	e	n/a
100.2545	0.105	200509	keystroke	Key.enter	n/a
100.364	5.787	200728	prompt	n/a	legally rounds misc cuisine\n
101.199	0.12	202398	keystroke	l	n/a
101.349	0.12	202698	keystroke	e	n/a
101.604	0.121	203208	keystroke	g	n/a
101.7845	0.135	203569	keystroke	a	n/a
101.8895	0.075	203779	keystroke	l	n/a
102.0395	0.1195	204079	keystroke	l	n/a
102.1895	0.1045	204379	keystroke	y	n/a
102.354	0.165	204708	keystroke	Key.space	n/a
102.4895	0.1195	204979	keystroke	r	n/a
102.61	0.194	205220	keystroke	o	n/a
102.714	0.105	205428	keystroke	u	n/a
102.924	0.09	205848	keystroke	n	n/a
103.029	0.106	206058	keystroke	d	n/a
103.224	0.1355	206448	keystroke	s	n/a
103.3295	0.135	206659	keystroke	Key.space	n/a
103.4795	0.09	206959	keystroke	m	n/a
103.6445	0.135	207289	keystroke	i	n/a
103.7645	0.105	207529	keystroke	s	n/a
103.96	0.1195	207920	keystroke	c	n/a
104.1095	0.15	208219	keystroke	Key.space	n/a
104.3795	0.1355	208759	keystroke	c	n/a
104.5295	0.09	209059	keystroke	u	n/a
104.6645	0.135	209329	keystroke	i	n/a
104.8295	0.12	209659	keystroke	s	n/a
104.9645	0.1795	209929	keystroke	i	n/a
105.084	0.1205	210168	keystroke	n	n/a
105.219	0.0755	210438	keystroke	g	n/a
105.7445	0.09	211489	keystroke	Key.backspace	n/a
105.8195	0.075	211639	keystroke	e	n/a
106.0445	0.105	212089	keystroke	Key.enter	n/a
106.1535	5.4575	212307	prompt	n/a	beat shelter at combat\n
106.974	0.09	213948	keystroke	b	n/a
107.154	0.12	214308	keystroke	e	n/a
107.35	0.1195	214700	keystroke	a	n/a
107.499	0.091	214998	keystroke	t	n/a
107.5295	0.195	215059	keystroke	Key.space	n/a
107.7095	0.1195	215419	keystroke	s	n/a
107.874	0.105	215748	keystroke	h	n/a
108.009	0.1055	216018	keystroke	e	n/a
108.1295	0.1045	216259	keystroke	l	n/a
108.369	0.03	216738	keystroke	g	n/a
108.9695	0.09	217939	keystroke	Key.backspace	n/a
109.119	0.09	218238	keystroke	t	n/a
109.329	0.1055	218658	keystroke	e	n/a
109.389	0.1655	218778	keystroke	r	n/a
109.524	0.2105	219048	keystroke	Key.space	n/a
109.7645	0.195	219529	keystroke	a	n/a
109.9445	0.18	219889	keystroke	t	n/a
110.0495	0.1645	220099	keystroke	Key.space	n/a
110.349	0.12	220698	keystroke	c	n/a
110.484	0.196	220968	keystroke	o	n/a
110.6045	0.1195	221209	keystroke	m	n/a
110.934	0.105	221868	keystroke	b	n/a
111.189	0.1205	222378	keystroke	a	n/a
111.294	0.09	222588	keystroke	t	n/a
111.5045	0.105	223009	keystroke	Key.enter	n/a
111.6135	5.3075	223227	prompt	n/a	easier out physical switched\n
112.2545	0.12	224509	keystroke	e	n/a
112.5245	0.165	225049	keystroke	a	n/a
112.6295	0.12	225259	keystroke	s	n/a
112.8395	0.12	225679	keystroke	i	n/a
112.9445	0.1655	225889	keystroke	e	n/a
113.0795	0.1345	226159	keystroke	r	n/a
113.184	0.166	226368	keystroke	Key.space	n/a
113.35	0.21	226700	keystroke	o	n/a
113.4845	0.1505	226969	keystroke	u	n/a
113.62	0.134	227240	keystroke	t	n/a
113.709	0.151	227418	keystroke	Key.space	n/a
113.89	0.135	227780	keystroke	p	n/a
114.099	0.075	228198	keystroke	h	n/a
114.279	0.0755	228558	keystroke	y	n/a
114.4445	0.165	228889	keystroke	s	n/a
114.5495	0.105	229099	keystroke	i	n/a
114.6845	0.12	229369	keystroke	c	n/a
114.8495	0.15	229699	keystroke	a	n/a
114.9845	0.105	229969	keystroke	l	n/a
115.119	0.135	230238	keystroke	Key.space	n/a
115.329	0.075	230658	keystroke	s	n/a
115.554	0.046	231108	keystroke	w	n/a
115.6445	0.105	231289	keystroke	i	n/a
115.8845	0.0755	231769	keystroke	t	n/a
116.185	0.09	232370	keystroke	c	n/a
116.32	0.105	232640	keystroke	h	n/a
116.455	0.06	232910	keystroke	e	n/a
116.65	0.075	233300	keystroke	d	n/a
116.8	0.12	233600	keystroke	Key.enter	n/a
116.925	9.326	233850	prompt	n/a	geometry uniform fine extraordinary\n
117.7895	0.1205	235579	keystroke	g	n/a
118.0145	0.12	236029	keystroke	e	n/a
118.2245	0.0905	236449	keystroke	o	n/a
118.449	0.12	236898	keystroke	m	n/a
118.5545	0.1195	237109	keystroke	e	n/a
118.75	0.089	237500	keystroke	t	n/a
118.944	0.091	237888	keystroke	r	n/a
119.11	0.104	238220	keystroke	y	n/a
119.4395	0.1495	238879	keystroke	Key.space	n/a
119.6045	0.0905	239209	keystroke	u	n/a
119.799	0.09	239598	keystroke	n	n/a
119.9345	0.09	239869	keystroke	i	n/a
120.219	0.015	240438	keystroke	f	n/a
120.294	0.12	240588	keystroke	o	n/a
120.444	0.105	240888	keystroke	r	n/a
120.609	0.105	241218	keystroke	m	n/a
120.744	0.1355	241488	keystroke	Key.space	n/a
121.0595	0.075	242119	keystroke	f	n/a
121.42	0.1495	242840	keystroke	i	n/a
121.5995	0.1205	243199	keystroke	n	n/a
121.7945	0.135	243589	keystroke	e	n/a
121.9	0.1495	243800	keystroke	Key.space	n/a
122.0645	0.09	244129	keystroke	e	n/a
122.2895	0.075	244579	keystroke	x	n/a
122.5595	0.12	245119	keystroke	t	n/a
123.4145	0.09	246829	keystroke	r	n/a
123.64	0.12	247280	keystroke	a	n/a
123.9095	0.135	247819	keystroke	o	n/a
124.9595	0.105	249919	keystroke	r	n/a
125.2	0.134	250400	keystroke	d	n/a
125.349	0.151	250698	keystroke	i	n/a
125.454	0.136	250908	keystroke	n	n/a
125.65	0.15	251300	keystroke	a	n/a
125.755	0.105	251510	keystroke	r	n/a
125.92	0.105	251840	keystroke	y	n/a
126.145	0.1045	252290	keystroke	Key.enter	n/a
126.254	6.192	252508	prompt	n/a	unlock mention created split\n
127.06	0.09	254120	keystroke	u	n/a
127.269	0.0615	254538	keystroke	n	n/a
127.405	0.06	254810	keystroke	l	n/a
127.57	0.089	255140	keystroke	o	n/a
127.689	0.105	255378	keystroke	c	n/a
127.869	0.1055	255738	keystroke	k	n/a
128.1545	0.12	256309	keystroke	Key.space	n/a
128.3795	0.0905	256759	keystroke	m	n/a
128.4995	0.105	256999	keystroke	e	n/a
128.6195	0.105	257239	keystroke	n	n/a
128.7395	0.09	257479	keystroke	t	n/a
128.8745	0.15	257749	keystroke	i	n/a
128.9945	0.1955	257989	keystroke	o	n/a
129.1445	0.075	258289	keystroke	n	n/a
129.265	0.149	258530	keystroke	Key.space	n/a
129.55	0.105	259100	keystroke	c	n/a
129.775	0.075	259550	keystroke	r	n/a
129.94	0.15	259880	keystroke	e	n/a
130.404	0.136	260808	keystroke	a	n/a
130.555	0.12	261110	keystroke	t	n/a
130.72	0.12	261440	keystroke	e	n/a
130.96	0.0895	261920	keystroke	d	n/a
131.0045	0.15	262009	keystroke	Key.space	n/a
131.2145	0.1505	262429	keystroke	s	n/a
131.425	0.1645	262850	keystroke	p	n/a
131.7395	0.21	263479	keystroke	l	n/a
131.9345	0.135	263869	keystroke	i	n/a
132.0995	0.075	264199	keystroke	t	n/a
132.34	0.1045	264680	keystroke	Key.enter	n/a
132.4485	6.2375	264897	prompt	n/a	louisville check taxes insertion\n
133.0745	0.0755	266149	keystroke	l	n/a
133.27	0.1345	266540	keystroke	o	n/a
133.584	0.09	267168	keystroke	u	n/a
133.839	0.091	267678	keystroke	i	n/a
133.9445	0.1055	267889	keystroke	s	n/a
134.155	0.105	268310	keystroke	v	n/a
134.275	0.15	268550	keystroke	i	n/a
134.38	0.075	268760	keystroke	l	n/a
134.56	0.12	269120	keystroke	l	n/a
134.605	0.135	269210	keystroke	e	n/a
134.71	0.1645	269420	keystroke	Key.space	n/a
134.875	0.1045	269750	keystroke	c	n/a
134.994	0.1205	269988	keystroke	h	n/a
135.129	0.0755	270258	keystroke	e	n/a
135.3245	0.0895	270649	keystroke	c	n/a
135.43	0.1045	270860	keystroke	k	n/a
135.55	0.1345	271100	keystroke	Key.space	n/a
135.7	0.0895	271400	keystroke	t	n/a
136.0445	0.1045	272089	keystroke	a	n/a
136.299	0.105	272598	keystroke	x	n/a
136.5545	0.09	273109	keystroke	e	n/a
136.735	0.1345	273470	keystroke	s	n/a
136.8845	0.15	273769	keystroke	Key.space	n/a
137.0945	0.1955	274189	keystroke	i	n/a
137.245	0.134	274490	keystroke	n	n/a
137.41	0.12	274820	keystroke	s	n/a
137.56	0.1645	275120	keystroke	e	n/a
137.6795	0.105	275359	keystroke	r	n/a
137.9195	0.09	275839	keystroke	t	n/a
138.0545	0.165	276109	keystroke	i	n/a
138.1745	0.225	276349	keystroke	o	n/a
138.325	0.1195	276650	keystroke	n	n/a
138.5795	0.1055	277159	keystroke	Key.enter	n/a
138.6905	8.6205	277381	prompt	n/a	disclose for humanities gates\n
139.2395	0.09	278479	keystroke	l	n/a
139.5695	0.09	279139	keystroke	Key.backspace	n/a
139.7045	0.12	279409	keystroke	d	n/a
139.8395	0.09	279679	keystroke	i	n/a
139.9595	0.105	279919	keystroke	s	n/a
140.1695	0.1205	280339	keystroke	c	n/a
140.305	0.0895	280610	keystroke	l	n/a
140.4995	0.135	280999	keystroke	o	n/a
140.6045	0.1205	281209	keystroke	u	n/a
140.785	0.0895	281570	keystroke	s	n/a
141.1	0.09	282200	keystroke	u	n/a
141.34	0.105	282680	keystroke	r	n/a
141.475	0.105	282950	keystroke	e	n/a
141.88	0.0745	283760	keystroke	Key.backspace	n/a
142.044	0.075	284088	keystroke	Key.backspace	n/a
142.2095	0.06	284419	keystroke	Key.backspace	n/a
142.3745	0.0755	284749	keystroke	Key.backspace	n/a
143.169	0.1205	286338	keystroke	Key.backspace	n/a
143.5445	0.12	287089	keystroke	s	n/a
143.6345	0.165	287269	keystroke	e	n/a
143.8	0.1945	287600	keystroke	Key.space	n/a
143.9495	0.1205	287899	keystroke	f	n/a
144.085	0.0895	288170	keystroke	o	n/a
144.1895	0.15	288379	keystroke	r	n/a
144.31	0.149	288620	keystroke	Key.space	n/a
144.474	0.105	288948	keystroke	h	n/a
144.684	0.075	289368	keystroke	u	n/a
144.924	0.0755	289848	keystroke	m	n/a
145.105	0.1345	290210	keystroke	a	n/a
145.2245	0.09	290449	keystroke	n	n/a
145.4645	0.0755	290929	keystroke	i	n/a
145.5695	0.0905	291139	keystroke	t	n/a
145.72	0.1045	291440	keystroke	i	n/a
145.8995	0.0905	291799	keystroke	e	n/a
146.125	0.1495	292250	keystroke	s	n/a
146.2295	0.15	292459	keystroke	Key.space	n/a
146.4245	0.0755	292849	keystroke	g	n/a
146.6045	0.15	293209	keystroke	a	n/a
146.74	0.0745	293480	keystroke	t	n/a
146.9045	0.09	293809	keystroke	e	n/a
147.0245	0.1355	294049	keystroke	s	n/a
147.22	0.09	294440	keystroke	Key.enter	n/a
147.3135	4.2275	294627	prompt	n/a	labs train toll hanging\n
147.94	0.105	295880	keystroke	l	n/a
148.09	0.1195	296180	keystroke	a	n/a
148.225	0.105	296450	keystroke	b	n/a
148.48	0.12	296960	keystroke	s	n/a
148.585	0.165	297170	keystroke	Key.space	n/a
148.705	0.09	297410	keystroke	t	n/a
148.87	0.075	297740	keystroke	r	n/a
148.99	0.1495	297980	keystroke	a	n/a
149.125	0.1795	298250	keystroke	i	n/a
149.2445	0.1345	298489	keystroke	n	n/a
149.364	0.18	298728	keystroke	Key.space	n/a
149.71	0.12	299420	keystroke	t	n/a
149.875	0.1045	299750	keystroke	o	n/a
150.0545	0.0755	300109	keystroke	l	n/a
150.2045	0.1055	300409	keystroke	l	n/a
150.355	0.135	300710	keystroke	Key.space	n/a
150.5045	0.09	301009	keystroke	h	n/a
150.6245	0.1655	301249	keystroke	a	n/a
150.6995	0.1055	301399	keystroke	n	n/a
150.8345	0.09	301669	keystroke	g	n/a
150.9545	0.1795	301909	keystroke	i	n/a
151.1045	0.1195	302209	keystroke	n	n/a
151.24	0.074	302480	keystroke	g	n/a
151.434	0.105	302868	keystroke	Key.enter	n/a
151.544	7.272	303088	prompt	n/a	tire circus requiring regulation\n
152.2	0.104	304400	keystroke	t	n/a
152.334	0.091	304668	keystroke	h	n/a
152.7995	0.015	305599	keystroke	Key.backspace	n/a
152.95	0.0595	305900	keystroke	i	n/a
153.174	0.09	306348	keystroke	r	n/a
153.3695	0.15	306739	keystroke	e	n/a
153.5045	0.165	307009	keystroke	Key.space	n/a
153.6995	0.15	307399	keystroke	s	n/a
154.075	0.089	308150	keystroke	Key.backspace	n/a
154.209	0.105	308418	keystroke	c	n/a
154.344	0.105	308688	keystroke	i	n/a
154.494	0.0755	308988	keystroke	r	n/a
154.735	0.075	309470	keystroke	c	n/a
154.8395	0.09	309679	keystroke	u	n/a
155.214	0.136	310428	keystroke	s	n/a
155.3345	0.1355	310669	keystroke	Key.space	n/a
155.4995	0.105	310999	keystroke	r	n/a
155.62	0.1045	311240	keystroke	e	n/a
155.859	0.106	311718	keystroke	q	n/a
155.979	0.1205	311958	keystroke	u	n/a
156.13	0.1045	312260	keystroke	i	n/a
156.249	0.105	312498	keystroke	r	n/a
156.3695	0.1945	312739	keystroke	i	n/a
156.505	0.1645	313010	keystroke	n	n/a
156.6545	0.135	313309	keystroke	g	n/a
156.805	0.1495	313610	keystroke	Key.space	n/a
156.9845	0.135	313969	keystroke	r	n/a
157.15	0.1195	314300	keystroke	e	n/a
157.4195	0.105	314839	keystroke	g	n/a
157.5395	0.09	315079	keystroke	u	n/a
157.7345	0.12	315469	keystroke	l	n/a
157.8695	0.1355	315739	keystroke	a	n/a
157.99	0.1045	315980	keystroke	t	n/a
158.1095	0.12	316219	keystroke	i	n/a
158.1845	0.21	316369	keystroke	o	n/a
158.3345	0.1355	316669	keystroke	n	n/a
158.4545	0.1205	316909	keystroke	s	n/a
158.71	0.1045	317420	keystroke	Key.enter	n/a
158.819	7.437	317638	prompt	n/a	moderators coated fought pointing\n
159.4895	0.135	318979	keystroke	m	n/a
159.6845	0.135	319369	keystroke	o	n/a
159.8345	0.075	319669	keystroke	d	n/a
160.0145	0.12	320029	keystroke	e	n/a
160.1045	0.105	320209	keystroke	r	n/a
160.284	0.1505	320568	keystroke	a	n/a
160.4045	0.12	320809	keystroke	t	n/a
160.629	0.1205	321258	keystroke	o	n/a
161.0945	0.1055	322189	keystroke	r	n/a
161.3645	0.1055	322729	keystroke	s	n/a
161.7095	0.12	323419	keystroke	Key.space	n/a
162.0245	0.1195	324049	keystroke	c	n/a
162.13	0.135	324260	keystroke	o	n/a
162.28	0.12	324560	keystroke	a	n/a
162.385	0.105	324770	keystroke	t	n/a
162.58	0.09	325160	keystroke	e	n/a
162.82	0.2395	325640	keystroke	Key.space	n/a
163.315	0.1045	326630	keystroke	Key.backspace	n/a
163.4645	0.0745	326929	keystroke	d	n/a
163.7495	0.06	327499	keystroke	Key.space	n/a
163.764	0.121	327528	keystroke	f	n/a
163.8995	0.1795	327799	keystroke	o	n/a
164.019	0.105	328038	keystroke	u	n/a
164.319	0.09	328638	keystroke	g	n/a
164.44	0.089	328880	keystroke	h	n/a
164.56	0.135	329120	keystroke	t	n/a
164.649	0.15	329298	keystroke	Key.space	n/a
164.814	0.135	329628	keystroke	p	n/a
164.904	0.241	329808	keystroke	o	n/a
165.04	0.21	330080	keystroke	i	n/a
165.175	0.135	330350	keystroke	n	n/a
165.37	0.12	330740	keystroke	t	n/a
165.55	0.1645	331100	keystroke	i	n/a
165.6545	0.1205	331309	keystroke	n	n/a
165.79	0.0895	331580	keystroke	g	n/a
165.9995	0.105	331999	keystroke	s	n/a
166.1645	0.09	332329	keystroke	Key.enter	n/a
166.259	9.357	332518	prompt	n/a	significantly delicious forgotten belle\n
166.945	0.1195	333890	keystroke	s	n/a
167.019	0.136	334038	keystroke	i	n/a
167.184	0.105	334368	keystroke	g	n/a
167.35	0.12	334700	keystroke	n	n/a
167.4995	0.1055	334999	keystroke	i	n/a
167.695	0.075	335390	keystroke	f	n/a
168.144	0.046	336288	keystroke	i	n/a
168.25	0.12	336500	keystroke	c	n/a
168.5195	0.1505	337039	keystroke	a	n/a
168.8195	0.105	337639	keystroke	n	n/a
169.12	0.09	338240	keystroke	t	n/a
169.2545	0.09	338509	keystroke	l	n/a
169.4195	0.09	338839	keystroke	y	n/a
169.5395	0.1505	339079	keystroke	Key.space	n/a
169.765	0.105	339530	keystroke	d	n/a
169.96	0.075	339920	keystroke	e	n/a
170.08	0.18	340160	keystroke	l	n/a
170.245	0.105	340490	keystroke	i	n/a
170.47	0.12	340940	keystroke	c	n/a
170.575	0.195	341150	keystroke	i	n/a
170.709	0.151	341418	keystroke	o	n/a
170.815	0.12	341630	keystroke	u	n/a
170.95	0.12	341900	keystroke	s	n/a
171.04	0.195	342080	keystroke	Key.space	n/a
171.205	0.119	342410	keystroke	f	n/a
171.37	0.105	342740	keystroke	o	n/a
171.459	0.0755	342918	keystroke	r	n/a
171.805	0.0745	343610	keystroke	g	n/a
171.9545	0.12	343909	keystroke	o	n/a
172.1045	0.0305	344209	keystroke	r	n/a
172.2545	0.1055	344509	keystroke	t	n/a
172.5095	0.09	345019	keystroke	e	n/a
172.8995	0.075	345799	keystroke	Key.backspace	n/a
173.0495	0.1055	346099	keystroke	Key.backspace	n/a
173.4245	0.075	346849	keystroke	Key.backspace	n/a
173.8745	0.09	347749	keystroke	t	n/a
174.0695	0.09	348139	keystroke	t	n/a
174.25	0.104	348500	keystroke	e	n/a
174.37	0.09	348740	keystroke	n	n/a
174.549	0.1205	349098	keystroke	Key.space	n/a
174.774	0.0755	349548	keystroke	b	n/a
174.924	0.09	349848	keystroke	e	n/a
175.0595	0.0755	350119	keystroke	l	n/a
175.21	0.105	350420	keystroke	l	n/a
175.3	0.075	350600	keystroke	e	n/a
175.5095	0.1055	351019	keystroke	Key.enter	n/a
175.619	6.312	351238	prompt	n/a	transaction fingers size sink\n
176.26	0.09	352520	keystroke	t	n/a
176.44	0.105	352880	keystroke	r	n/a
176.635	0.12	353270	keystroke	a	n/a
176.71	0.105	353420	keystroke	n	n/a
176.89	0.12	353780	keystroke	s	n/a
177.1	0.12	354200	keystroke	a	n/a
177.445	0.09	354890	keystroke	c	n/a
177.655	0.045	355310	keystroke	t	n/a
177.76	0.15	355520	keystroke	i	n/a
177.88	0.195	355760	keystroke	o	n/a
178.03	0.12	356060	keystroke	n	n/a
178.3295	0.1655	356659	keystroke	Key.space	n/a
178.5395	0.09	357079	keystroke	f	n/a
178.7345	0.18	357469	keystroke	i	n/a
178.8245	0.135	357649	keystroke	n	n/a
179.0045	0.1055	358009	keystroke	g	n/a
179.1995	0.15	358399	keystroke	e	n/a
179.305	0.105	358610	keystroke	r	n/a
179.5295	0.1055	359059	keystroke	s	n/a
179.575	0.1795	359150	keystroke	Key.space	n/a
179.7995	0.105	359599	keystroke	s	n/a
179.8745	0.1495	359749	keystroke	i	n/a
180.13	0.12	360260	keystroke	z	n/a
180.369	0.1355	360738	keystroke	e	n/a
180.564	0.1505	361128	keystroke	Key.space	n/a
180.9095	0.12	361819	keystroke	s	n/a
181.224	0.0905	362448	keystroke	i	n/a
181.3895	0.09	362779	keystroke	n	n/a
181.63	0.074	363260	keystroke	k	n/a
181.84	0.09	363680	keystroke	Key.enter	n/a
181.934	5.352	363868	prompt	n/a	play engage proposed adsl\n
182.65	0.12	365300	keystroke	p	n/a
182.86	0.105	365720	keystroke	l	n/a
183.0405	0.1045	366081	keystroke	a	n/a
183.1745	0.0905	366349	keystroke	y	n/a
183.3845	0.12	366769	keystroke	Key.space	n/a
183.61	0.104	367220	keystroke	e	n/a
183.7	0.105	367400	keystroke	n	n/a
183.8645	0.105	367729	keystroke	g	n/a
184.06	0.1195	368120	keystroke	a	n/a
184.1495	0.105	368299	keystroke	g	n/a
184.3445	0.1355	368689	keystroke	e	n/a
184.45	0.1345	368900	keystroke	Key.space	n/a
184.6145	0.12	369229	keystroke	p	n/a
184.7195	0.105	369439	keystroke	r	n/a
184.8395	0.105	369679	keystroke	o	n/a
185.0205	0.194	370041	keystroke	p	n/a
185.1695	0.105	370339	keystroke	o	n/a
185.3645	0.165	370729	keystroke	s	n/a
185.5295	0.09	371059	keystroke	e	n/a
185.7245	0.105	371449	keystroke	d	n/a
185.7695	0.18	371539	keystroke	Key.space	n/a
185.9945	0.165	371989	keystroke	a	n/a
186.1295	0.1055	372259	keystroke	d	n/a
186.85	0.165	373700	keystroke	s	n/a
187.03	0.015	374060	keystroke	l	n/a
187.1945	0.09	374389	keystroke	Key.enter	n/a
187.289	12.432	374578	prompt	n/a	bulgarian sail agent scholar\n
188.2295	0.1505	376459	keystroke	b	n/a
188.695	0.105	377390	keystroke	u	n/a
188.89	0.105	377780	keystroke	l	n/a
189.444	0.121	378888	keystroke	f	n/a
189.67	0.15	379340	keystroke	a	n/a
189.895	0.045	379790	keystroke	r	n/a
190.045	0.12	380090	keystroke	i	n/a
190.225	0.105	380450	keystroke	a	n/a
190.285	0.105	380570	keystroke	n	n/a
190.6	0.1345	381200	keystroke	Key.space	n/a
190.8095	0.1205	381619	keystroke	s	n/a
191.6345	0.0755	383269	keystroke	Key.backspace	n/a
191.7695	0.0905	383539	keystroke	Key.backspace	n/a
191.92	0.075	383840	keystroke	Key.backspace	n/a
192.07	0.075	384140	keystroke	Key.backspace	n/a
192.2345	0.06	384469	keystroke	Key.backspace	n/a
192.3845	0.06	384769	keystroke	Key.backspace	n/a
192.55	0.045	385100	keystroke	Key.backspace	n/a
192.6995	0.075	385399	keystroke	Key.backspace	n/a
193.015	0.1195	386030	keystroke	g	n/a
193.285	0.1345	386570	keystroke	a	n/a
193.5695	0.12	387139	keystroke	r	n/a
193.7345	0.105	387469	keystroke	i	n/a
193.8695	0.135	387739	keystroke	a	n/a
193.9595	0.1205	387919	keystroke	n	n/a
194.14	0.209	388280	keystroke	Key.space	n/a
194.304	0.15	388608	keystroke	s	n/a
194.47	0.164	388940	keystroke	a	n/a
195.6545	0.165	391309	keystroke	i	n/a
195.7595	0.135	391519	keystroke	l	n/a
195.91	0.194	391820	keystroke	Key.space	n/a
196.089	0.1505	392178	keystroke	a	n/a
196.255	0.0895	392510	keystroke	g	n/a
196.4945	0.105	392989	keystroke	e	n/a
196.6595	0.1205	393319	keystroke	n	n/a
197.2	0.09	394400	keystroke	t	n/a
197.32	0.165	394640	keystroke	Key.space	n/a
197.5295	0.15	395059	keystroke	s	n/a
198.5205	0.1045	397041	keystroke	c	n/a
198.82	0.1345	397640	keystroke	h	n/a
198.9995	0.106	397999	keystroke	o	n/a
199.18	0.09	398360	keystroke	l	n/a
199.3145	0.165	398629	keystroke	a	n/a
199.4345	0.105	398869	keystroke	r	n/a
199.6	0.1195	399200	keystroke	Key.enter	n/a
199.724	7.137	399448	prompt	n/a	pace bluetooth dealt grove\n
200.395	0.12	400790	keystroke	p	n/a
200.605	0.15	401210	keystroke	a	n/a
200.83	0.09	401660	keystroke	c	n/a
200.995	0.1345	401990	keystroke	e	n/a
201.1145	0.18	402229	keystroke	Key.space	n/a
201.2805	0.119	402561	keystroke	b	n/a
201.4145	0.15	402829	keystroke	l	n/a
201.5795	0.15	403159	keystroke	u	n/a
201.745	0.1345	403490	keystroke	e	n/a
202	0.105	404000	keystroke	t	n/a
202.135	0.03	404270	keystroke	o	n/a
202.255	0.135	404510	keystroke	o	n/a
202.405	0.09	404810	keystroke	t	n/a
202.525	0.105	405050	keystroke	h	n/a
202.645	0.195	405290	keystroke	Key.space	n/a
202.795	0.09	405590	keystroke	d	n/a
203.0795	0.136	406159	keystroke	a	n/a
203.4995	0.105	406999	keystroke	l	n/a
204.085	0.0745	408170	keystroke	Key.backspace	n/a
204.2195	0.1055	408439	keystroke	Key.backspace	n/a
204.445	0.105	408890	keystroke	e	n/a
204.7	0.12	409400	keystroke	a	n/a
204.895	0.09	409790	keystroke	l	n/a
205.1495	0.075	410299	keystroke	t	n/a
205.69	0.12	411380	keystroke	Key.space	n/a
205.93	0.09	411860	keystroke	g	n/a
206.1245	0.045	412249	keystroke	r	n/a
206.2	0.1045	412400	keystroke	o	n/a
206.35	0.075	412700	keystroke	v	n/a
206.545	0.06	413090	keystroke	e	n/a
206.755	0.105	413510	keystroke	Key.enter	n/a
206.8635	6.4625	413727	prompt	n/a	subsequent ross funeral edit\n
207.58	0.045	415160	keystroke	s	n/a
207.67	0.12	415340	keystroke	u	n/a
207.8045	0.105	415609	keystroke	b	n/a
208.06	0.0895	416120	keystroke	s	n/a
208.2095	0.09	416419	keystroke	e	n/a
208.57	0.105	417140	keystroke	q	n/a
208.72	0.12	417440	keystroke	u	n/a
208.825	0.1345	417650	keystroke	e	n/a
208.975	0.1045	417950	keystroke	n	n/a
209.0945	0.15	418189	keystroke	t	n/a
209.2745	0.255	418549	keystroke	Key.space	n/a
209.4545	0.1055	418909	keystroke	r	n/a
209.5745	0.12	419149	keystroke	o	n/a
209.785	0.09	419570	keystroke	s	n/a
209.9795	0.12	419959	keystroke	s	n/a
210.2195	0.1805	420439	keystroke	Key.space	n/a
210.6245	0.09	421249	keystroke	r	n/a
210.9995	0.1055	421999	keystroke	Key.backspace	n/a
211.195	0.1055	422390	keystroke	f	n/a
211.2845	0.09	422569	keystroke	u	n/a
211.4795	0.091	422959	keystroke	n	n/a
211.5995	0.151	423199	keystroke	e	n/a
211.7045	0.1055	423409	keystroke	r	n/a
211.9145	0.135	423829	keystroke	a	n/a
212.0045	0.09	424009	keystroke	l	n/a
212.1845	0.21	424369	keystroke	Key.space	n/a
212.4395	0.1205	424879	keystroke	e	n/a
212.665	0.105	425330	keystroke	d	n/a
212.8	0.12	425600	keystroke	i	n/a
212.98	0.059	425960	keystroke	t	n/a
213.235	0.0895	426470	keystroke	Key.enter	n/a
213.3305	7.9005	426661	prompt	n/a	valve northern perfectly movements\n
214.1345	0.105	428269	keystroke	v	n/a
214.3145	0.135	428629	keystroke	a	n/a
214.4345	0.12	428869	keystroke	l	n/a
214.6145	0.09	429229	keystroke	v	n/a
214.81	0.1195	429620	keystroke	e	n/a
214.9445	0.15	429889	keystroke	Key.space	n/a
215.11	0.119	430220	keystroke	n	n/a
215.245	0.1195	430490	keystroke	o	n/a
215.349	0.09	430698	keystroke	r	n/a
215.664	0.075	431328	keystroke	h	n/a
215.7545	0.09	431509	keystroke	t	n/a
216.069	0.091	432138	keystroke	Key.backspace	n/a
216.3395	0.09	432679	keystroke	t	n/a
216.6695	0.045	433339	keystroke	Key.backspace	n/a
216.79	0.1345	433580	keystroke	Key.backspace	n/a
217.0605	0.0895	434121	keystroke	t	n/a
217.165	0.09	434330	keystroke	h	n/a
217.285	0.15	434570	keystroke	e	n/a
217.39	0.12	434780	keystroke	r	n/a
217.615	0.09	435230	keystroke	n	n/a
217.8245	0.1205	435649	keystroke	Key.space	n/a
218.035	0.09	436070	keystroke	p	n/a
218.17	0.18	436340	keystroke	e	n/a
218.275	0.12	436550	keystroke	r	n/a
218.515	0.105	437030	keystroke	f	n/a
218.665	0.105	437330	keystroke	e	n/a
218.89	0.06	437780	keystroke	c	n/a
219.085	0.045	438170	keystroke	t	n/a
219.2045	0.1055	438409	keystroke	l	n/a
219.37	0.09	438740	keystroke	y	n/a
219.5495	0.1205	439099	keystroke	Key.space	n/a
219.7145	0.105	439429	keystroke	m	n/a
219.8795	0.121	439759	keystroke	o	n/a
220.1345	0.09	440269	keystroke	v	n/a
220.2995	0.09	440599	keystroke	e	n/a
220.4345	0.1055	440869	keystroke	m	n/a
220.555	0.105	441110	keystroke	e	n/a
220.645	0.12	441290	keystroke	n	n/a
220.75	0.0895	441500	keystroke	t	n/a
220.9295	0.12	441859	keystroke	s	n/a
221.125	0.1045	442250	keystroke	Key.enter	n/a
221.2335	5.6975	442467	prompt	n/a	latest occurrence senators nail\n
221.8445	0.135	443689	keystroke	l	n/a
221.9645	0.15	443929	keystroke	a	n/a
222.1155	0.089	444231	keystroke	t	n/a
222.265	0.105	444530	keystroke	e	n/a
222.4295	0.195	444859	keystroke	s	n/a
222.6095	0.1805	445219	keystroke	t	n/a
222.7595	0.1795	445519	keystroke	Key.space	n/a
222.969	0.09	445938	keystroke	o	n/a
223.119	0.1065	446238	keystroke	c	n/a
223.315	0.0745	446630	keystroke	c	n/a
223.4495	0.1055	446899	keystroke	u	n/a
223.5845	0.075	447169	keystroke	r	n/a
223.735	0.0895	447470	keystroke	r	n/a
223.885	0.1045	447770	keystroke	e	n/a
224.0345	0.1055	448069	keystroke	n	n/a
224.17	0.075	448340	keystroke	c	n/a
224.3495	0.1205	448699	keystroke	e	n/a
224.4545	0.1655	448909	keystroke	Key.space	n/a
224.6345	0.12	449269	keystroke	s	n/a
224.9045	0.0905	449809	keystroke	e	n/a
225.085	0.0895	450170	keystroke	n	n/a
225.2645	0.09	450529	keystroke	a	n/a
225.4005	0.09	450801	keystroke	t	n/a
225.5355	0.119	451071	keystroke	o	n/a
225.6845	0.075	451369	keystroke	r	n/a
225.94	0.15	451880	keystroke	s	n/a
226.06	0.15	452120	keystroke	Key.space	n/a
226.195	0.12	452390	keystroke	n	n/a
226.345	0.135	452690	keystroke	a	n/a
226.465	0.18	452930	keystroke	i	n/a
226.6	0.1355	453200	keystroke	l	n/a
226.8245	0.105	453649	keystroke	Key.enter	n/a
226.9345	8.892	453869	prompt	n/a	scanned tigers facility stretch\n
227.53	0.1345	455060	keystroke	s	n/a
227.7255	0.104	455451	keystroke	c	n/a
227.9195	0.165	455839	keystroke	a	n/a
228.0695	0.06	456139	keystroke	n	n/a
228.2195	0.105	456439	keystroke	n	n/a
228.3255	0.119	456651	keystroke	e	n/a
228.55	0.09	457100	keystroke	d	n/a
228.6095	0.21	457219	keystroke	Key.space	n/a
228.79	0.09	457580	keystroke	t	n/a
228.97	0.1505	457940	keystroke	a	n/a
229.405	0.075	458810	keystroke	Key.backspace	n/a
229.615	0.0745	459230	keystroke	i	n/a
229.7055	0.1045	459411	keystroke	g	n/a
229.915	0.12	459830	keystroke	e	n/a
229.975	0.1045	459950	keystroke	r	n/a
230.1995	0.12	460399	keystroke	s	n/a
230.26	0.2095	460520	keystroke	Key.space	n/a
230.4555	0.119	460911	keystroke	f	n/a
230.6195	0.15	461239	keystroke	a	n/a
230.74	0.1045	461480	keystroke	c	n/a
230.8595	0.165	461719	keystroke	i	n/a
231.0095	0.045	462019	keystroke	o	n/a
231.1895	0.105	462379	keystroke	l	n/a
231.505	0.0755	463010	keystroke	Key.backspace	n/a
231.64	0.0895	463280	keystroke	Key.backspace	n/a
232.0445	0.091	464089	keystroke	i	n/a
232.6295	0.015	465259	keystroke	Key.backspace	n/a
232.7345	0.15	465469	keystroke	l	n/a
232.8695	0.1205	465739	keystroke	i	n/a
233.08	0.09	466160	keystroke	t	n/a
233.215	0.09	466430	keystroke	y	n/a
233.365	0.195	466730	keystroke	Key.space	n/a
233.545	0.15	467090	keystroke	s	n/a
233.7405	0.0595	467481	keystroke	t	n/a
233.965	0.09	467930	keystroke	r	n/a
234.1895	0.135	468379	keystroke	a	n/a
234.6695	0.09	469339	keystroke	Key.backspace	n/a
234.7745	0.135	469549	keystroke	e	n/a
234.895	0.0895	469790	keystroke	t	n/a
235.3	0.09	470600	keystroke	c	n/a
235.4355	0.0745	470871	keystroke	h	n/a
235.705	0.12	471410	keystroke	Key.enter	n/a
235.829	8.6075	471658	prompt	n/a	hebrew salmon tribunal complaint\n
236.605	0.15	473210	keystroke	h	n/a
236.77	0.12	473540	keystroke	e	n/a
237.01	0.105	474020	keystroke	b	n/a
237.235	0.075	474470	keystroke	f	n/a
237.715	0.09	475430	keystroke	r	n/a
237.94	0.075	475880	keystroke	e	n/a
238.21	0.09	476420	keystroke	Key.backspace	n/a
238.375	0.105	476750	keystroke	Key.backspace	n/a
238.57	0.075	477140	keystroke	Key.backspace	n/a
238.81	0.12	477620	keystroke	r	n/a
238.9605	0.1345	477921	keystroke	e	n/a
239.5	0.18	479000	keystroke	w	n/a
239.74	0.1795	479480	keystroke	Key.space	n/a
239.905	0.12	479810	keystroke	s	n/a
240.07	0.1505	480140	keystroke	a	n/a
240.175	0.0905	480350	keystroke	l	n/a
240.37	0.09	480740	keystroke	m	n/a
240.49	0.15	480980	keystroke	o	n/a
240.625	0.105	481250	keystroke	n	n/a
240.7455	0.1185	481491	keystroke	Key.space	n/a
240.8805	0.09	481761	keystroke	t	n/a
241.045	0.0895	482090	keystroke	r	n/a
241.1495	0.1355	482299	keystroke	i	n/a
241.3	0.105	482600	keystroke	b	n/a
241.45	0.075	482900	keystroke	u	n/a
242.005	0.015	484010	keystroke	n	n/a
242.11	0.135	484220	keystroke	a	n/a
242.26	0.0755	484520	keystroke	l	n/a
242.4245	0.136	484849	keystroke	Key.space	n/a
242.6805	0.1045	485361	keystroke	c	n/a
242.83	0.18	485660	keystroke	o	n/a
242.98	0.105	485960	keystroke	m	n/a
243.145	0.12	486290	keystroke	p	n/a
243.385	0.105	486770	keystroke	l	n/a
243.5345	0.12	487069	keystroke	a	n/a
243.7	0.1945	487400	keystroke	i	n/a
243.8495	0.105	487699	keystroke	n	n/a
244.0145	0.091	488029	keystroke	t	n/a
244.3295	0.1055	488659	keystroke	Key.enter	n/a
244.4395	7.152	488879	prompt	n/a	soldiers hyundai diagram domestic\n
245.0195	0.15	490039	keystroke	s	n/a
245.1845	0.106	490369	keystroke	o	n/a
245.3795	0.105	490759	keystroke	l	n/a
245.5595	0.135	491119	keystroke	d	n/a
245.7105	0.0745	491421	keystroke	i	n/a
246.0545	0.1805	492109	keystroke	e	n/a
246.2045	0.12	492409	keystroke	r	n/a
246.4745	0.15	492949	keystroke	s	n/a
246.6395	0.12	493279	keystroke	Key.space	n/a
246.895	0.075	493790	keystroke	h	n/a
247.075	0.075	494150	keystroke	y	n/a
247.66	0.09	495320	keystroke	u	n/a
247.87	0.0745	495740	keystroke	n	n/a
247.9895	0.121	495979	keystroke	d	n/a
248.1545	0.135	496309	keystroke	a	n/a
248.2905	0.104	496581	keystroke	i	n/a
248.5145	0.15	497029	keystroke	Key.space	n/a
248.6795	0.135	497359	keystroke	d	n/a
248.8305	0.074	497661	keystroke	i	n/a
248.9945	0.12	497989	keystroke	a	n/a
249.28	0.1055	498560	keystroke	g	n/a
249.475	0.075	498950	keystroke	r	n/a
249.625	0.1495	499250	keystroke	a	n/a
249.8345	0.09	499669	keystroke	m	n/a
250.0595	0.24	500119	keystroke	Key.space	n/a
250.2845	0.105	500569	keystroke	d	n/a
250.3755	0.134	500751	keystroke	o	n/a
250.5245	0.1355	501049	keystroke	m	n/a
250.675	0.105	501350	keystroke	e	n/a
250.84	0.195	501680	keystroke	s	n/a
251.0205	0.0895	502041	keystroke	t	n/a
251.155	0.105	502310	keystroke	i	n/a
251.305	0.09	502610	keystroke	c	n/a
251.485	0.1045	502970	keystroke	Key.enter	n/a
251.594	10.6475	503188	prompt	n/a	gamespot crest motherboard played\n
252.3545	0.135	504709	keystroke	g	n/a
252.5345	0.15	505069	keystroke	a	n/a
252.6545	0.12	505309	keystroke	m	n/a
252.8045	0.075	505609	keystroke	e	n/a
253.1345	0.135	506269	keystroke	s	n/a
253.2855	0.104	506571	keystroke	p	n/a
253.3445	0.2555	506689	keystroke	o	n/a
253.705	0.135	507410	keystroke	t	n/a
253.825	0.285	507650	keystroke	Key.space	n/a
254.575	0.0905	509150	keystroke	c	n/a
254.8	0.075	509600	keystroke	r	n/a
255.055	0.105	510110	keystroke	e	n/a
255.2945	0.1355	510589	keystroke	s	n/a
255.4445	0.1355	510889	keystroke	t	n/a
255.55	0.135	511100	keystroke	Key.space	n/a
255.7	0.12	511400	keystroke	m	n/a
255.835	0.1495	511670	keystroke	o	n/a
255.97	0.1045	511940	keystroke	t	n/a
256.1055	0.0895	512211	keystroke	h	n/a
256.18	0.12	512360	keystroke	e	n/a
256.27	0.105	512540	keystroke	r	n/a
256.51	0.105	513020	keystroke	v	n/a
256.66	0.0745	513320	keystroke	o	n/a
256.825	0.1045	513650	keystroke	a	n/a
257.155	0.06	514310	keystroke	Key.backspace	n/a
257.29	0.0895	514580	keystroke	Key.backspace	n/a
257.4245	0.1205	514849	keystroke	b	n/a
257.59	0.09	515180	keystroke	o	n/a
257.725	0.12	515450	keystroke	a	n/a
258.19	0.06	516380	keystroke	Key.backspace	n/a
258.34	0.075	516680	keystroke	Key.backspace	n/a
258.52	0.045	517040	keystroke	Key.backspace	n/a
258.655	0.075	517310	keystroke	Key.backspace	n/a
259.075	0.1195	518150	keystroke	b	n/a
259.2545	0.09	518509	keystroke	o	n/a
259.4045	0.195	518809	keystroke	a	n/a
259.9305	0.149	519861	keystroke	r	n/a
260.185	0.105	520370	keystroke	e	n/a
260.425	0.09	520850	keystroke	d	n/a
260.47	0.18	520940	keystroke	Key.space	n/a
261.1755	0.105	522351	keystroke	p	n/a
261.3845	0.1205	522769	keystroke	l	n/a
261.565	0.15	523130	keystroke	a	n/a
261.7005	0.1045	523401	keystroke	y	n/a
261.835	0.075	523670	keystroke	e	n/a
262.015	0.09	524030	keystroke	d	n/a
262.135	0.105	524270	keystroke	Key.enter	n/a
262.2445	8.517	524489	prompt	n/a	scotia recruiting trend cheaper\n
262.8845	0.1505	525769	keystroke	s	n/a
263.065	0.12	526130	keystroke	c	n/a
263.23	0.12	526460	keystroke	o	n/a
263.38	0.09	526760	keystroke	t	n/a
263.53	0.12	527060	keystroke	i	n/a
263.725	0.1655	527450	keystroke	a	n/a
263.875	0.165	527750	keystroke	Key.space	n/a
264.0705	0.075	528141	keystroke	r	n/a
264.1905	0.0445	528381	keystroke	e	n/a
264.25	0.1045	528500	keystroke	e	n/a
264.5195	0.105	529039	keystroke	c	n/a
264.9855	0.06	529971	keystroke	Key.backspace	n/a
265.15	0.105	530300	keystroke	Key.backspace	n/a
265.48	0.0905	530960	keystroke	c	n/a
265.69	0.075	531380	keystroke	r	n/a
265.81	0.105	531620	keystroke	u	n/a
265.975	0.1205	531950	keystroke	i	n/a
266.08	0.09	532160	keystroke	t	n/a
266.215	0.09	532430	keystroke	i	n/a
266.38	0.105	532760	keystroke	n	n/a
266.5145	0.12	533029	keystroke	g	n/a
266.6045	0.255	533209	keystroke	Key.space	n/a
266.7705	0.119	533541	keystroke	r	n/a
267.3255	0.06	534651	keystroke	Key.backspace	n/a
267.5205	0.09	535041	keystroke	t	n/a
267.6855	0.09	535371	keystroke	r	n/a
267.8505	0.12	535701	keystroke	e	n/a
268.0155	0.09	536031	keystroke	n	n/a
268.1655	0.135	536331	keystroke	d	n/a
268.2855	0.119	536571	keystroke	Key.space	n/a
268.5545	0.105	537109	keystroke	c	n/a
268.7955	0.074	537591	keystroke	h	n/a
268.9155	0.119	537831	keystroke	e	n/a
269.305	0.12	538610	keystroke	a	n/a
269.4855	0.1045	538971	keystroke	p	n/a
269.8455	0.105	539691	keystroke	t	n/a
270.25	0.09	540500	keystroke	Key.backspace	n/a
270.355	0.1055	540710	keystroke	e	n/a
270.445	0.105	540890	keystroke	r	n/a
270.655	0.105	541310	keystroke	Key.enter	n/a
270.764	7.4225	541528	prompt	n/a	want discounted publisher controlling\n
271.615	0.09	543230	keystroke	w	n/a
271.72	0.165	543440	keystroke	a	n/a
271.8405	0.1045	543681	keystroke	n	n/a
271.975	0.105	543950	keystroke	t	n/a
272.05	0.27	544100	keystroke	Key.space	n/a
272.26	0.12	544520	keystroke	d	n/a
272.395	0.1055	544790	keystroke	i	n/a
272.485	0.1495	544970	keystroke	s	n/a
272.6945	0.18	545389	keystroke	c	n/a
273.145	0.18	546290	keystroke	o	n/a
273.25	0.09	546500	keystroke	u	n/a
273.475	0.06	546950	keystroke	n	n/a
273.55	0.09	547100	keystroke	t	n/a
273.925	0.165	547850	keystroke	e	n/a
274.315	0.135	548630	keystroke	d	n/a
274.465	0.15	548930	keystroke	Key.space	n/a
274.87	0.165	549740	keystroke	p	n/a
275.0505	0.1195	550101	keystroke	u	n/a
275.26	0.1645	550520	keystroke	b	n/a
275.4995	0.165	550999	keystroke	l	n/a
275.6195	0.105	551239	keystroke	i	n/a
275.7545	0.09	551509	keystroke	s	n/a
275.8595	0.12	551719	keystroke	h	n/a
275.95	0.2395	551900	keystroke	e	n/a
276.1155	0.149	552231	keystroke	r	n/a
276.2795	0.1505	552559	keystroke	Key.space	n/a
276.5505	0.105	553101	keystroke	c	n/a
276.6555	0.164	553311	keystroke	o	n/a
276.7745	0.135	553549	keystroke	n	n/a
276.9245	0.076	553849	keystroke	t	n/a
277.0755	0.104	554151	keystroke	r	n/a
277.195	0.09	554390	keystroke	o	n/a
277.4055	0.0595	554811	keystroke	l	n/a
277.5545	0.1355	555109	keystroke	l	n/a
277.675	0.165	555350	keystroke	i	n/a
277.7805	0.119	555561	keystroke	n	n/a
277.8845	0.0905	555769	keystroke	g	n/a
278.11	0.075	556220	keystroke	Key.enter	n/a
278.19	5.2165	556380	prompt	n/a	hospital bargain amanda diet\n
278.845	0.135	557690	keystroke	h	n/a
278.9955	0.104	557991	keystroke	o	n/a
279.13	0.105	558260	keystroke	s	n/a
279.3845	0.15	558769	keystroke	p	n/a
279.5645	0.105	559129	keystroke	i	n/a
279.6845	0.09	559369	keystroke	t	n/a
279.8645	0.165	559729	keystroke	a	n/a
279.9845	0.09	559969	keystroke	l	n/a
280.0895	0.1505	560179	keystroke	Key.space	n/a
280.2695	0.105	560539	keystroke	b	n/a
280.4495	0.18	560899	keystroke	a	n/a
280.5995	0.0755	561199	keystroke	r	n/a
280.795	0.09	561590	keystroke	g	n/a
280.945	0.1805	561890	keystroke	a	n/a
281.095	0.1805	562190	keystroke	i	n/a
281.245	0.1055	562490	keystroke	n	n/a
281.395	0.18	562790	keystroke	Key.space	n/a
281.59	0.105	563180	keystroke	a	n/a
281.68	0.09	563360	keystroke	m	n/a
281.815	0.12	563630	keystroke	a	n/a
281.95	0.135	563900	keystroke	n	n/a
282.115	0.105	564230	keystroke	d	n/a
282.325	0.1345	564650	keystroke	a	n/a
282.4295	0.2255	564859	keystroke	Key.space	n/a
282.595	0.12	565190	keystroke	d	n/a
282.7155	0.1195	565431	keystroke	i	n/a
282.88	0.09	565760	keystroke	e	n/a
283.06	0.075	566120	keystroke	t	n/a
283.3	0.105	566600	keystroke	Key.enter	n/a
283.409	7.4375	566818	prompt	n/a	varieties gentle resolution exist\n
284.29	0.135	568580	keystroke	v	n/a
284.53	0.1945	569060	keystroke	a	n/a
284.8595	0.105	569719	keystroke	r	n/a
285.0845	0.1055	570169	keystroke	i	n/a
285.265	0.12	570530	keystroke	e	n/a
285.4755	0.0895	570951	keystroke	t	n/a
285.61	0.09	571220	keystroke	i	n/a
285.7455	0.0445	571491	keystroke	t	n/a
286.135	0.075	572270	keystroke	Key.backspace	n/a
286.315	0.105	572630	keystroke	e	n/a
286.555	0.165	573110	keystroke	s	n/a
286.735	0.12	573470	keystroke	Key.space	n/a
286.96	0.105	573920	keystroke	g	n/a
287.1845	0.105	574369	keystroke	e	n/a
287.3045	0.1055	574609	keystroke	n	n/a
287.4245	0.091	574849	keystroke	t	n/a
287.59	0.105	575180	keystroke	l	n/a
287.77	0.12	575540	keystroke	e	n/a
287.875	0.18	575750	keystroke	Key.space	n/a
288.04	0.12	576080	keystroke	r	n/a
288.205	0.09	576410	keystroke	e	n/a
288.4	0.15	576800	keystroke	s	n/a
288.565	0.075	577130	keystroke	o	n/a
288.76	0.105	577520	keystroke	l	n/a
288.985	0.09	577970	keystroke	u	n/a
289.165	0.09	578330	keystroke	t	n/a
289.285	0.135	578570	keystroke	i	n/a
289.375	0.195	578750	keystroke	o	n/a
289.5105	0.1045	579021	keystroke	n	n/a
289.645	0.15	579290	keystroke	Key.space	n/a
289.7655	0.0895	579531	keystroke	e	n/a
289.975	0.105	579950	keystroke	x	n/a
290.11	0.12	580220	keystroke	i	n/a
290.2755	0.105	580551	keystroke	s	n/a
290.485	0.0755	580970	keystroke	t	n/a
290.725	0.12	581450	keystroke	Key.enter	n/a
290.851	7.6005	581702	prompt	n/a	except perceived oriental teeth\n
291.535	0.09	583070	keystroke	e	n/a
291.745	0.09	583490	keystroke	x	n/a
292.1055	0.0745	584211	keystroke	c	n/a
292.3	0.0895	584600	keystroke	e	n/a
292.4955	0.0895	584991	keystroke	p	n/a
292.6605	0.1495	585321	keystroke	t	n/a
292.7805	0.165	585561	keystroke	Key.space	n/a
293.0955	0.0895	586191	keystroke	p	n/a
293.215	0.165	586430	keystroke	e	n/a
293.32	0.105	586640	keystroke	r	n/a
293.77	0.075	587540	keystroke	c	n/a
293.965	0.09	587930	keystroke	e	n/a
294.13	0.1055	588260	keystroke	i	n/a
294.3555	0.1195	588711	keystroke	v	n/a
294.6095	0.075	589219	keystroke	e	n/a
294.775	0.105	589550	keystroke	d	n/a
294.865	0.15	589730	keystroke	Key.space	n/a
295.045	0.09	590090	keystroke	o	n/a
295.4045	0.06	590809	keystroke	e	n/a
295.75	0.0745	591500	keystroke	Key.backspace	n/a
295.8555	0.1045	591711	keystroke	r	n/a
296.05	0.0895	592100	keystroke	i	n/a
296.3495	0.12	592699	keystroke	e	n/a
296.4845	0.0905	592969	keystroke	n	n/a
296.6505	0.1045	593301	keystroke	t	n/a
296.8745	0.1505	593749	keystroke	a	n/a
297.01	0.09	594020	keystroke	l	n/a
297.13	0.15	594260	keystroke	Key.space	n/a
297.25	0.105	594500	keystroke	t	n/a
297.415	0.1055	594830	keystroke	e	n/a
297.5955	0.0595	595191	keystroke	e	n/a
298.015	0.075	596030	keystroke	t	n/a
298.12	0.075	596240	keystroke	h	n/a
298.345	0.1045	596690	keystroke	Key.enter	n/a
298.4545	5.937	596909	prompt	n/a	pockets expenses addressing nice\n
299.14	0.15	598280	keystroke	p	n/a
299.26	0.135	598520	keystroke	o	n/a
299.665	0.105	599330	keystroke	c	n/a
299.8155	0.1045	599631	keystroke	k	n/a
299.9205	0.119	599841	keystroke	e	n/a
300.13	0.09	600260	keystroke	t	n/a
300.3395	0.15	600679	keystroke	s	n/a
300.4295	0.165	600859	keystroke	Key.space	n/a
300.6095	0.075	601219	keystroke	e	n/a
300.82	0.1045	601640	keystroke	x	n/a
300.9545	0.12	601909	keystroke	p	n/a
301.1055	0.074	602211	keystroke	e	n/a
301.1955	0.105	602391	keystroke	n	n/a
301.3605	0.135	602721	keystroke	s	n/a
301.5105	0.0895	603021	keystroke	e	n/a
301.6745	0.15	603349	keystroke	s	n/a
301.7945	0.18	603589	keystroke	Key.space	n/a
302.0205	0.165	604041	keystroke	a	n/a
302.1555	0.075	604311	keystroke	d	n/a
302.3355	0.075	604671	keystroke	d	n/a
302.53	0.105	605060	keystroke	r	n/a
302.665	0.1205	605330	keystroke	e	n/a
302.8005	0.1195	605601	keystroke	s	n/a
302.9955	0.1055	605991	keystroke	s	n/a
303.1155	0.165	606231	keystroke	i	n/a
303.2205	0.12	606441	keystroke	n	n/a
303.3105	0.12	606621	keystroke	g	n/a
303.5655	0.119	607131	keystroke	Key.space	n/a
303.7155	0.09	607431	keystroke	n	n/a
303.7905	0.1495	607581	keystroke	i	n/a
303.91	0.09	607820	keystroke	c	n/a
304.105	0.0755	608210	keystroke	e	n/a
304.285	0.105	608570	keystroke	Key.enter	n/a
304.394	4.032	608788	prompt	n/a	idea mean herb aging\n
305.065	0.1805	610130	keystroke	i	n/a
305.26	0.12	610520	keystroke	d	n/a
305.485	0.075	610970	keystroke	e	n/a
305.6655	0.1645	611331	keystroke	a	n/a
305.785	0.15	611570	keystroke	Key.space	n/a
305.92	0.135	611840	keystroke	m	n/a
306.0405	0.1195	612081	keystroke	e	n/a
306.205	0.15	612410	keystroke	a	n/a
306.325	0.105	612650	keystroke	n	n/a
306.445	0.15	612890	keystroke	Key.space	n/a
306.625	0.135	613250	keystroke	h	n/a
306.7455	0.1945	613491	keystroke	e	n/a
306.8805	0.0895	613761	keystroke	r	n/a
307.09	0.105	614180	keystroke	b	n/a
307.27	0.18	614540	keystroke	Key.space	n/a
307.465	0.165	614930	keystroke	a	n/a
307.615	0.09	615230	keystroke	g	n/a
307.765	0.1655	615530	keystroke	i	n/a
307.8855	0.135	615771	keystroke	n	n/a
308.0655	0.09	616131	keystroke	g	n/a
308.3205	0.105	616641	keystroke	Key.enter	n/a
308.429	7.5275	616858	prompt	n/a	mathematics coal plenty archive\n
309.0405	0.105	618081	keystroke	m	n/a
309.1755	0.2095	618351	keystroke	a	n/a
309.445	0.0905	618890	keystroke	t	n/a
309.52	0.1055	619040	keystroke	h	n/a
309.7905	0.21	619581	keystroke	e	n/a
309.9705	0.135	619941	keystroke	r	n/a
310.225	0.075	620450	keystroke	m	n/a
310.6	0.06	621200	keystroke	Key.backspace	n/a
310.72	0.09	621440	keystroke	Key.backspace	n/a
310.96	0.06	621920	keystroke	m	n/a
311.11	0.12	622220	keystroke	a	n/a
311.245	0.09	622490	keystroke	t	n/a
311.38	0.12	622760	keystroke	i	n/a
311.515	0.0905	623030	keystroke	c	n/a
311.7405	0.135	623481	keystroke	s	n/a
311.8605	0.1495	623721	keystroke	Key.space	n/a
312.13	0.12	624260	keystroke	c	n/a
312.295	0.09	624590	keystroke	o	n/a
312.46	0.12	624920	keystroke	a	n/a
312.715	0.0745	625430	keystroke	l	n/a
312.9395	0.12	625879	keystroke	Key.space	n/a
313.165	0.1195	626330	keystroke	p	n/a
313.3755	0.135	626751	keystroke	l	n/a
313.555	0.12	627110	keystroke	e	n/a
313.69	0.09	627380	keystroke	n	n/a
313.81	0.09	627620	keystroke	t	n/a
314.005	0.09	628010	keystroke	y	n/a
314.17	0.12	628340	keystroke	Key.space	n/a
314.515	0.165	629030	keystroke	a	n/a
314.695	0.0895	629390	keystroke	r	n/a
314.9655	0.09	629931	keystroke	c	n/a
315.0705	0.09	630141	keystroke	h	n/a
315.2505	0.105	630501	keystroke	i	n/a
315.4755	0.0895	630951	keystroke	v	n/a
315.685	0.06	631370	keystroke	e	n/a
315.865	0.09	631730	keystroke	Key.enter	n/a
315.9595	8.727	631919	prompt	n/a	automatic expired psychological navigation\n
316.6895	0.151	633379	keystroke	a	n/a
316.825	0.1055	633650	keystroke	u	n/a
316.945	0.105	633890	keystroke	t	n/a
317.065	0.105	634130	keystroke	o	n/a
317.275	0.105	634550	keystroke	m	n/a
317.41	0.1355	634820	keystroke	a	n/a
317.5455	0.1045	635091	keystroke	t	n/a
317.7245	0.106	635449	keystroke	i	n/a
317.8445	0.106	635689	keystroke	c	n/a
317.9655	0.134	635931	keystroke	Key.space	n/a
318.1145	0.106	636229	keystroke	e	n/a
318.3395	0.106	636679	keystroke	x	n/a
318.4905	0.134	636981	keystroke	p	n/a
318.7145	0.075	637429	keystroke	i	n/a
318.85	0.12	637700	keystroke	r	n/a
319.105	0.12	638210	keystroke	e	n/a
319.345	0.09	638690	keystroke	d	n/a
319.4055	0.1345	638811	keystroke	Key.space	n/a
319.6895	0.1205	639379	keystroke	p	n/a
319.8545	0.136	639709	keystroke	s	n/a
319.9755	0.074	639951	keystroke	y	n/a
320.14	0.1355	640280	keystroke	c	n/a
320.2905	0.12	640581	keystroke	h	n/a
320.5155	0.09	641031	keystroke	o	n/a
320.7105	0.075	641421	keystroke	l	n/a
320.8905	0.075	641781	keystroke	o	n/a
321.0845	0.1055	642169	keystroke	g	n/a
321.2505	0.0745	642501	keystroke	i	n/a
321.37	0.1205	642740	keystroke	c	n/a
321.5495	0.165	643099	keystroke	a	n/a
321.6845	0.105	643369	keystroke	l	n/a
321.82	0.1345	643640	keystroke	Key.space	n/a
322.1195	0.0755	644239	keystroke	n	n/a
322.2995	0.091	644599	keystroke	a	n/a
322.63	0.105	645260	keystroke	v	n/a
322.8845	0.1205	645769	keystroke	i	n/a
323.4555	0.09	646911	keystroke	g	n/a
323.6355	0.149	647271	keystroke	a	n/a
323.9055	0.0745	647811	keystroke	t	n/a
324.04	0.15	648080	keystroke	i	n/a
324.16	0.21	648320	keystroke	o	n/a
324.325	0.12	648650	keystroke	n	n/a
324.565	0.12	649130	keystroke	Key.enter	n/a
324.6895	5.862	649379	prompt	n/a	mime baker dennis lindsay\n
325.5405	0.1195	651081	keystroke	m	n/a
325.675	0.1655	651350	keystroke	o	n/a
325.8105	0.134	651621	keystroke	m	n/a
325.9745	0.151	651949	keystroke	e	n/a
326.0805	0.209	652161	keystroke	Key.space	n/a
326.2455	0.104	652491	keystroke	b	n/a
326.4245	0.136	652849	keystroke	a	n/a
326.6655	0.105	653331	keystroke	k	n/a
326.7845	0.211	653569	keystroke	e	n/a
327.0105	0.105	654021	keystroke	r	n/a
327.1305	0.1795	654261	keystroke	Key.space	n/a
327.28	0.12	654560	keystroke	d	n/a
327.4755	0.1195	654951	keystroke	e	n/a
327.625	0.075	655250	keystroke	n	n/a
327.805	0.1055	655610	keystroke	n	n/a
328.06	0.09	656120	keystroke	i	n/a
328.225	0.135	656450	keystroke	s	n/a
328.72	0.1355	657440	keystroke	Key.space	n/a
328.9295	0.12	657859	keystroke	l	n/a
329.1395	0.106	658279	keystroke	i	n/a
329.3355	0.12	658671	keystroke	n	n/a
329.47	0.1045	658940	keystroke	d	n/a
329.7105	0.1045	659421	keystroke	s	n/a
330.0555	0.1195	660111	keystroke	a	n/a
330.205	0.0905	660410	keystroke	y	n/a
330.43	0.12	660860	keystroke	Key.enter	n/a
330.554	5.1125	661108	prompt	n/a	basket fact hollow vital\n
331.2555	0.104	662511	keystroke	b	n/a
331.4495	0.15	662899	keystroke	a	n/a
331.5705	0.1495	663141	keystroke	s	n/a
331.8105	0.119	663621	keystroke	k	n/a
331.8845	0.135	663769	keystroke	e	n/a
332.0205	0.1495	664041	keystroke	t	n/a
332.1395	0.255	664279	keystroke	Key.space	n/a
332.365	0.1055	664730	keystroke	f	n/a
332.5455	0.165	665091	keystroke	a	n/a
332.6795	0.0755	665359	keystroke	c	n/a
333.07	0.105	666140	keystroke	t	n/a
333.19	0.165	666380	keystroke	Key.space	n/a
333.4905	0.1195	666981	keystroke	h	n/a
333.625	0.09	667250	keystroke	o	n/a
333.8345	0.061	667669	keystroke	l	n/a
333.9705	0.075	667941	keystroke	l	n/a
334.1505	0.105	668301	keystroke	o	n/a
334.2855	0.135	668571	keystroke	w	n/a
334.4045	0.225	668809	keystroke	Key.space	n/a
334.6455	0.12	669291	keystroke	v	n/a
334.8105	0.0745	669621	keystroke	i	n/a
335.0045	0.075	670009	keystroke	t	n/a
335.2	0.105	670400	keystroke	a	n/a
335.3505	0.0895	670701	keystroke	l	n/a
335.56	0.105	671120	keystroke	Key.enter	n/a
335.669	6.7325	671338	prompt	n/a	horrible featuring jurisdiction picture\n
336.34	0.12	672680	keystroke	h	n/a
336.475	0.135	672950	keystroke	o	n/a
336.595	0.09	673190	keystroke	r	n/a
336.745	0.0905	673490	keystroke	r	n/a
336.865	0.09	673730	keystroke	i	n/a
336.9855	0.0745	673971	keystroke	b	n/a
337.15	0.09	674300	keystroke	l	n/a
337.241	0.1195	674482	keystroke	e	n/a
337.33	0.195	674660	keystroke	Key.space	n/a
337.465	0.135	674930	keystroke	f	n/a
337.645	0.12	675290	keystroke	e	n/a
337.795	0.1655	675590	keystroke	a	n/a
337.9755	0.09	675951	keystroke	t	n/a
338.1555	0.105	676311	keystroke	u	n/a
338.2755	0.105	676551	keystroke	r	n/a
338.4405	0.225	676881	keystroke	i	n/a
338.6205	0.12	677241	keystroke	n	n/a
338.7555	0.12	677511	keystroke	g	n/a
338.8455	0.195	677691	keystroke	Key.space	n/a
339.1895	0.0905	678379	keystroke	j	n/a
339.3705	0.0745	678741	keystroke	u	n/a
339.5055	0.1195	679011	keystroke	r	n/a
339.655	0.09	679310	keystroke	i	n/a
339.8495	0.091	679699	keystroke	s	n/a
340.0895	0.105	680179	keystroke	d	n/a
340.2255	0.104	680451	keystroke	i	n/a
340.3895	0.09	680779	keystroke	c	n/a
340.615	0.045	681230	keystroke	t	n/a
340.72	0.15	681440	keystroke	i	n/a
340.8555	0.1945	681711	keystroke	o	n/a
341.005	0.12	682010	keystroke	n	n/a
341.2305	0.1045	682461	keystroke	p	n/a
341.425	0.105	682850	keystroke	i	n/a
341.545	0.075	683090	keystroke	c	n/a
341.77	0.045	683540	keystroke	t	n/a
341.8905	0.0895	683781	keystroke	u	n/a
341.9945	0.0905	683989	keystroke	r	n/a
342.1145	0.1055	684229	keystroke	e	n/a
342.28	0.1195	684560	keystroke	Key.enter	n/a
342.4055	4.781	684811	prompt	n/a	could chat oxygen bones\n
343.075	0.12	686150	keystroke	c	n/a
343.165	0.15	686330	keystroke	o	n/a
343.285	0.1055	686570	keystroke	u	n/a
343.4805	0.1195	686961	keystroke	l	n/a
343.6895	0.181	687379	keystroke	d	n/a
343.7945	0.21	687589	keystroke	Key.space	n/a
343.975	0.135	687950	keystroke	c	n/a
344.125	0.09	688250	keystroke	h	n/a
344.2595	0.2105	688519	keystroke	a	n/a
344.4395	0.165	688879	keystroke	t	n/a
344.56	0.1645	689120	keystroke	Key.space	n/a
344.755	0.105	689510	keystroke	o	n/a
344.9055	0.134	689811	keystroke	x	n/a
345.1605	0.074	690321	keystroke	y	n/a
345.6395	0.09	691279	keystroke	g	n/a
345.8495	0.121	691699	keystroke	e	n/a
346.0455	0.105	692091	keystroke	n	n/a
346.1955	0.135	692391	keystroke	Key.space	n/a
346.3905	0.105	692781	keystroke	b	n/a
346.5105	0.195	693021	keystroke	o	n/a
346.6455	0.12	693291	keystroke	n	n/a
346.7655	0.105	693531	keystroke	e	n/a
346.8855	0.15	693771	keystroke	s	n/a
347.0655	0.119	694131	keystroke	Key.enter	n/a
347.1895	6.777	694379	prompt	n/a	detroit electoral lycos desired\n
347.8145	0.091	695629	keystroke	d	n/a
347.9805	0.104	695961	keystroke	e	n/a
348.1905	0.044	696381	keystroke	t	n/a
348.3405	0.075	696681	keystroke	r	n/a
348.5205	0.105	697041	keystroke	o	n/a
348.7155	0.075	697431	keystroke	i	n/a
349.105	0.0755	698210	keystroke	t	n/a
349.225	0.18	698450	keystroke	Key.space	n/a
349.3905	0.1355	698781	keystroke	e	n/a
349.5405	0.1195	699081	keystroke	l	n/a
349.645	0.1055	699290	keystroke	e	n/a
349.885	0.075	699770	keystroke	c	n/a
350.095	0.0595	700190	keystroke	t	n/a
350.2295	0.1055	700459	keystroke	o	n/a
350.35	0.0895	700700	keystroke	r	n/a
350.5595	0.12	701119	keystroke	a	n/a
350.71	0.0755	701420	keystroke	l	n/a
350.8145	0.12	701629	keystroke	Key.space	n/a
350.98	0.1195	701960	keystroke	l	n/a
351.175	0.09	702350	keystroke	y	n/a
351.4455	0.0895	702891	keystroke	c	n/a
351.7605	0.1045	703521	keystroke	o	n/a
352.0005	0.105	704001	keystroke	s	n/a
352.2105	0.2095	704421	keystroke	Key.space	n/a
352.3755	0.0745	704751	keystroke	d	n/a
352.525	0.0905	705050	keystroke	e	n/a
352.72	0.1355	705440	keystroke	s	n/a
352.885	0.0905	705770	keystroke	i	n/a
353.0505	0.03	706101	keystroke	r	n/a
353.5295	0.06	707059	keystroke	e	n/a
353.6945	0.091	707389	keystroke	d	n/a
353.86	0.1045	707720	keystroke	Key.enter	n/a
353.969	10.1225	707938	prompt	n/a	hardware applies undergraduate institutes\n
354.775	0.1055	709550	keystroke	h	n/a
354.895	0.1655	709790	keystroke	a	n/a
355.0455	0.09	710091	keystroke	r	n/a
355.225	0.1055	710450	keystroke	d	n/a
355.405	0.12	710810	keystroke	w	n/a
355.615	0.1055	711230	keystroke	a	n/a
355.7355	0.1195	711471	keystroke	r	n/a
355.945	0.135	711890	keystroke	d	n/a
356.05	0.1655	712100	keystroke	Key.space	n/a
356.216	0.1495	712432	keystroke	a	n/a
356.35	0.06	712700	keystroke	p	n/a
356.4705	0.12	712941	keystroke	p	n/a
356.74	0.1655	713480	keystroke	l	n/a
356.89	0.091	713780	keystroke	i	n/a
356.965	0.105	713930	keystroke	e	n/a
357.2055	0.1195	714411	keystroke	s	n/a
357.265	0.1355	714530	keystroke	Key.space	n/a
357.4005	0.1045	714801	keystroke	u	n/a
357.625	0.045	715250	keystroke	n	n/a
357.745	0.075	715490	keystroke	d	n/a
357.955	0.105	715910	keystroke	e	n/a
358.03	0.135	716060	keystroke	r	n/a
358.51	0.0455	717020	keystroke	g	n/a
358.615	0.0755	717230	keystroke	r	n/a
358.765	0.12	717530	keystroke	a	n/a
359.0805	0.105	718161	keystroke	d	n/a
359.32	0.09	718640	keystroke	u	n/a
359.6205	0.1195	719241	keystroke	a	n/a
359.785	0.09	719570	keystroke	t	n/a
359.9495	0.135	719899	keystroke	e	n/a
360.0695	0.1355	720139	keystroke	Key.space	n/a
360.2195	0.165	720439	keystroke	i	n/a
360.355	0.0895	720710	keystroke	n	n/a
360.5045	0.135	721009	keystroke	s	n/a
360.7005	0.0895	721401	keystroke	i	n/a
360.88	0.09	721760	keystroke	t	n/a
362.0505	0.045	724101	keystroke	u	n/a
362.62	0.0155	725240	keystroke	Key.backspace	n/a
362.845	0.09	725690	keystroke	i	n/a
362.965	0.1055	725930	keystroke	t	n/a
363.2205	0.075	726441	keystroke	u	n/a
363.4905	0.075	726981	keystroke	t	n/a
363.6705	0.105	727341	keystroke	e	n/a
363.79	0.12	727580	keystroke	s	n/a
364	0.09	728000	keystroke	Key.enter	n/a
364.096	7.0305	728192	prompt	n/a	easily provinces tribe writings\n
364.8555	0.135	729711	keystroke	e	n/a
365.0205	0.255	730041	keystroke	a	n/a
365.26	0.12	730520	keystroke	s	n/a
365.56	0.1505	731120	keystroke	i	n/a
365.6955	0.12	731391	keystroke	l	n/a
365.8755	0.105	731751	keystroke	y	n/a
365.9955	0.15	731991	keystroke	Key.space	n/a
366.1605	0.105	732321	keystroke	p	n/a
366.2805	0.09	732561	keystroke	r	n/a
366.3855	0.09	732771	keystroke	o	n/a
366.5355	0.119	733071	keystroke	v	n/a
366.6855	0.1945	733371	keystroke	i	n/a
366.85	0.1495	733700	keystroke	n	n/a
367.0145	0.0905	734029	keystroke	c	n/a
367.18	0.09	734360	keystroke	e	n/a
367.6605	0.0595	735321	keystroke	s	n/a
367.795	0.1195	735590	keystroke	Key.space	n/a
367.9305	0.089	735861	keystroke	t	n/a
368.1255	0.0595	736251	keystroke	r	n/a
368.2455	0.105	736491	keystroke	i	n/a
368.3645	0.09	736729	keystroke	b	n/a
368.575	0.09	737150	keystroke	l	n/a
368.725	0.135	737450	keystroke	e	n/a
369.205	0.0755	738410	keystroke	Key.backspace	n/a
369.3695	0.076	738739	keystroke	Key.backspace	n/a
369.4455	0.09	738891	keystroke	e	n/a
369.6855	0.105	739371	keystroke	Key.space	n/a
369.9255	0.12	739851	keystroke	w	n/a
370.075	0.12	740150	keystroke	r	n/a
370.21	0.09	740420	keystroke	i	n/a
370.33	0.09	740660	keystroke	t	n/a
370.435	0.15	740870	keystroke	i	n/a
370.5405	0.119	741081	keystroke	n	n/a
370.6745	0.0605	741349	keystroke	g	n/a
370.8395	0.1055	741679	keystroke	s	n/a
371.0045	0.121	742009	keystroke	Key.enter	n/a
371.1295	4.902	742259	prompt	n/a	drinking misc levels yeast\n
371.6805	0.164	743361	keystroke	d	n/a
371.8605	0.089	743721	keystroke	r	n/a
371.9645	0.1505	743929	keystroke	i	n/a
372.13	0.09	744260	keystroke	n	n/a
372.28	0.0605	744560	keystroke	k	n/a
372.445	0.12	744890	keystroke	i	n/a
372.5505	0.09	745101	keystroke	n	n/a
372.625	0.105	745250	keystroke	g	n/a
372.685	0.15	745370	keystroke	Key.space	n/a
372.85	0.09	745700	keystroke	m	n/a
373.0005	0.105	746001	keystroke	i	n/a
373.135	0.0905	746270	keystroke	s	n/a
373.3	0.1205	746600	keystroke	c	n/a
373.5255	0.1045	747051	keystroke	Key.space	n/a
373.6895	0.121	747379	keystroke	l	n/a
373.7955	0.104	747591	keystroke	e	n/a
374.0795	0.105	748159	keystroke	v	n/a
374.2605	0.104	748521	keystroke	e	n/a
374.4105	0.09	748821	keystroke	l	n/a
374.59	0.1495	749180	keystroke	s	n/a
374.7245	0.1355	749449	keystroke	Key.space	n/a
374.92	0.105	749840	keystroke	y	n/a
375.04	0.105	750080	keystroke	e	n/a
375.145	0.18	750290	keystroke	a	n/a
375.475	0.1045	750950	keystroke	s	n/a
375.6695	0.076	751339	keystroke	t	n/a
375.9245	0.105	751849	keystroke	Key.enter	n/a
376.0355	9.326	752071	prompt	n/a	loved jimmy analyzes bedding\n
376.735	0.09	753470	keystroke	l	n/a
376.915	0.105	753830	keystroke	o	n/a
377.035	0.09	754070	keystroke	v	n/a
377.2305	0.0895	754461	keystroke	e	n/a
377.485	0.1055	754970	keystroke	d	n/a
377.7555	0.105	755511	keystroke	j	n/a
378.2655	0.09	756531	keystroke	Key.backspace	n/a
378.4155	0.09	756831	keystroke	Key.space	n/a
378.5655	0.105	757131	keystroke	j	n/a
378.6555	0.12	757311	keystroke	i	n/a
378.8955	0.075	757791	keystroke	m	n/a
379.0455	0.06	758091	keystroke	m	n/a
379.3455	0.15	758691	keystroke	Key.space	n/a
379.75	0.0905	759500	keystroke	Key.backspace	n/a
380.065	0.075	760130	keystroke	u	n/a
380.7405	0.09	761481	keystroke	Key.backspace	n/a
381.46	0.0605	762920	keystroke	y	n/a
381.805	0.12	763610	keystroke	Key.space	n/a
381.985	0.15	763970	keystroke	a	n/a
382.075	0.105	764150	keystroke	n	n/a
382.24	0.135	764480	keystroke	a	n/a
382.39	0.09	764780	keystroke	l	n/a
382.825	0.12	765650	keystroke	y	n/a
383.35	0.105	766700	keystroke	z	n/a
383.5605	0.0895	767121	keystroke	e	n/a
383.7705	0.1045	767541	keystroke	s	n/a
383.8755	0.18	767751	keystroke	Key.space	n/a
384.19	0.0755	768380	keystroke	b	n/a
384.37	0.09	768740	keystroke	e	n/a
384.58	0.075	769160	keystroke	d	n/a
384.73	0.09	769460	keystroke	d	n/a
384.865	0.135	769730	keystroke	i	n/a
384.955	0.1205	769910	keystroke	n	n/a
385.06	0.06	770120	keystroke	g	n/a
385.255	0.105	770510	keystroke	Key.enter	n/a
385.365	7.0465	770730	prompt	n/a	similar continental inserted momentum\n
386.095	0.1055	772190	keystroke	s	n/a
386.185	0.09	772370	keystroke	i	n/a
386.38	0.105	772760	keystroke	m	n/a
386.515	0.135	773030	keystroke	i	n/a
386.65	0.135	773300	keystroke	l	n/a
386.785	0.18	773570	keystroke	a	n/a
386.9505	0.1495	773901	keystroke	r	n/a
387.07	0.24	774140	keystroke	Key.space	n/a
387.34	0.135	774680	keystroke	c	n/a
387.49	0.18	774980	keystroke	o	n/a
387.6555	0.09	775311	keystroke	n	n/a
387.8195	0.106	775639	keystroke	t	n/a
387.9555	0.18	775911	keystroke	i	n/a
388.12	0.105	776240	keystroke	n	n/a
388.3605	0.105	776721	keystroke	e	n/a
388.5555	0.09	777111	keystroke	n	n/a
388.6305	0.104	777261	keystroke	t	n/a
388.8255	0.15	777651	keystroke	a	n/a
388.9595	0.105	777919	keystroke	l	n/a
389.0805	0.1495	778161	keystroke	Key.space	n/a
389.26	0.1805	778520	keystroke	i	n/a
389.395	0.12	778790	keystroke	n	n/a
389.53	0.1205	779060	keystroke	s	n/a
389.665	0.165	779330	keystroke	e	n/a
389.815	0.105	779630	keystroke	r	n/a
390.2955	0.09	780591	keystroke	t	n/a
390.475	0.105	780950	keystroke	e	n/a
390.7	0.105	781400	keystroke	d	n/a
390.775	0.15	781550	keystroke	Key.space	n/a
390.94	0.135	781880	keystroke	m	n/a
391.0905	0.21	782181	keystroke	o	n/a
391.2405	0.135	782481	keystroke	m	n/a
391.3905	0.135	782781	keystroke	e	n/a
391.5265	0.104	783053	keystroke	n	n/a
391.6605	0.09	783321	keystroke	t	n/a
391.8555	0.104	783711	keystroke	u	n/a
392.08	0.075	784160	keystroke	m	n/a
392.3055	0.1045	784611	keystroke	Key.enter	n/a
392.4145	7.077	784829	prompt	n/a	cannon terrorist wheat compression\n
392.935	0.135	785870	keystroke	s	n/a
393.5805	0.075	787161	keystroke	Key.backspace	n/a
393.7755	0.105	787551	keystroke	c	n/a
394.0155	0.135	788031	keystroke	a	n/a
394.2705	0.075	788541	keystroke	n	n/a
394.4505	0.0745	788901	keystroke	n	n/a
394.5405	0.1795	789081	keystroke	o	n/a
394.675	0.1205	789350	keystroke	n	n/a
394.8555	0.195	789711	keystroke	Key.space	n/a
395.0205	0.105	790041	keystroke	t	n/a
395.2145	0.15	790429	keystroke	e	n/a
395.3345	0.0905	790669	keystroke	r	n/a
395.4995	0.1205	790999	keystroke	r	n/a
395.6795	0.1355	791359	keystroke	o	n/a
395.8745	0.106	791749	keystroke	r	n/a
396.025	0.1045	792050	keystroke	i	n/a
396.1745	0.1055	792349	keystroke	s	n/a
396.34	0.1505	792680	keystroke	t	n/a
396.46	0.1495	792920	keystroke	Key.space	n/a
396.6245	0.12	793249	keystroke	w	n/a
396.7595	0.105	793519	keystroke	h	n/a
396.8505	0.12	793701	keystroke	e	n/a
397.0595	0.151	794119	keystroke	a	n/a
397.2255	0.12	794451	keystroke	t	n/a
397.3305	0.165	794661	keystroke	Key.space	n/a
397.5405	0.105	795081	keystroke	c	n/a
397.6905	0.195	795381	keystroke	o	n/a
397.8105	0.135	795621	keystroke	m	n/a
398.2305	0.089	796461	keystroke	p	n/a
398.4095	0.09	796819	keystroke	r	n/a
398.5455	0.1495	797091	keystroke	e	n/a
398.68	0.1055	797360	keystroke	s	n/a
398.86	0.12	797720	keystroke	s	n/a
398.965	0.1505	797930	keystroke	i	n/a
399.0555	0.165	798111	keystroke	o	n/a
399.1745	0.0905	798349	keystroke	n	n/a
399.4	0.09	798800	keystroke	Key.enter	n/a
399.4955	6.386	798991	prompt	n/a	angels reserve disputes immediately\n
400.0755	0.164	800151	keystroke	a	n/a
400.195	0.1045	800390	keystroke	n	n/a
400.3145	0.09	800629	keystroke	g	n/a
400.48	0.1045	800960	keystroke	e	n/a
400.6145	0.09	801229	keystroke	l	n/a
400.7655	0.134	801531	keystroke	s	n/a
400.8845	0.136	801769	keystroke	Key.space	n/a
401.0805	0.105	802161	keystroke	r	n/a
401.2155	0.105	802431	keystroke	e	n/a
401.4405	0.1645	802881	keystroke	s	n/a
401.59	0.165	803180	keystroke	e	n/a
401.7105	0.09	803421	keystroke	r	n/a
401.9205	0.09	803841	keystroke	v	n/a
402.1155	0.12	804231	keystroke	e	n/a
402.2205	0.165	804441	keystroke	Key.space	n/a
402.3855	0.105	804771	keystroke	d	n/a
402.5055	0.1645	805011	keystroke	i	n/a
402.655	0.0905	805310	keystroke	s	n/a
402.9555	0.135	805911	keystroke	p	n/a
403.1055	0.1045	806211	keystroke	u	n/a
403.1955	0.0895	806391	keystroke	t	n/a
403.375	0.105	806750	keystroke	e	n/a
403.63	0.12	807260	keystroke	s	n/a
403.72	0.1505	807440	keystroke	Key.space	n/a
403.8555	0.1345	807711	keystroke	i	n/a
404.095	0.075	808190	keystroke	m	n/a
404.26	0.09	808520	keystroke	m	n/a
404.38	0.09	808760	keystroke	e	n/a
404.59	0.09	809180	keystroke	d	n/a
404.725	0.09	809450	keystroke	i	n/a
404.89	0.15	809780	keystroke	a	n/a
405.04	0.1055	810080	keystroke	t	n/a
405.22	0.1055	810440	keystroke	e	n/a
405.355	0.105	810710	keystroke	l	n/a
405.565	0.075	811130	keystroke	y	n/a
405.775	0.1055	811550	keystroke	Key.enter	n/a
405.8845	6.7475	811769	prompt	n/a	realty bumper bottles peace\n
406.5395	0.1355	813079	keystroke	r	n/a
406.6905	0.1645	813381	keystroke	e	n/a
406.945	0.1355	813890	keystroke	a	n/a
407.14	0.1655	814280	keystroke	l	n/a
407.275	0.1205	814550	keystroke	i	n/a
407.7105	0.09	815421	keystroke	Key.backspace	n/a
407.935	0.09	815870	keystroke	t	n/a
408.07	0.09	816140	keystroke	y	n/a
408.94	0.12	817880	keystroke	Key.space	n/a
409.4505	0.134	818901	keystroke	b	n/a
409.6005	0.059	819201	keystroke	u	n/a
409.8255	0.0305	819651	keystroke	m	n/a
410.0505	0.0895	820101	keystroke	p	n/a
410.17	0.2105	820340	keystroke	e	n/a
410.3355	0.15	820671	keystroke	r	n/a
410.4705	0.134	820941	keystroke	Key.space	n/a
410.6355	0.105	821271	keystroke	b	n/a
410.7855	0.105	821571	keystroke	o	n/a
410.9195	0.061	821839	keystroke	t	n/a
411.0405	0.12	822081	keystroke	t	n/a
411.2055	0.105	822411	keystroke	l	n/a
411.3405	0.12	822681	keystroke	e	n/a
411.475	0.165	822950	keystroke	s	n/a
411.58	0.1505	823160	keystroke	Key.space	n/a
411.715	0.105	823430	keystroke	p	n/a
411.8355	0.09	823671	keystroke	e	n/a
411.91	0.1655	823820	keystroke	a	n/a
412.09	0.1055	824180	keystroke	c	n/a
412.285	0.075	824570	keystroke	e	n/a
412.525	0.105	825050	keystroke	Key.enter	n/a
412.635	6.7015	825270	prompt	n/a	specially islamic versus civic\n
413.38	0.0455	826760	keystroke	s	n/a
413.47	0.105	826940	keystroke	p	n/a
413.6055	0.1045	827211	keystroke	e	n/a
413.8605	0.1045	827721	keystroke	c	n/a
414.1	0.09	828200	keystroke	i	n/a
414.235	0.1205	828470	keystroke	a	n/a
414.356	0.0895	828712	keystroke	l	n/a
414.5205	0.105	829041	keystroke	l	n/a
414.6555	0.09	829311	keystroke	y	n/a
414.7305	0.135	829461	keystroke	Key.space	n/a
414.8955	0.105	829791	keystroke	i	n/a
415.0305	0.1195	830061	keystroke	s	n/a
415.2105	0.12	830421	keystroke	l	n/a
415.3605	0.1345	830721	keystroke	a	n/a
415.4805	0.0895	830961	keystroke	m	n/a
415.6755	0.09	831351	keystroke	i	n/a
415.8105	0.1045	831621	keystroke	c	n/a
416.0805	0.1345	832161	keystroke	Key.space	n/a
416.29	0.075	832580	keystroke	v	n/a
416.485	0.15	832970	keystroke	e	n/a
416.59	0.1055	833180	keystroke	r	n/a
416.8	0.1205	833600	keystroke	s	n/a
416.9505	0.105	833901	keystroke	u	n/a
417.1	0.1345	834200	keystroke	s	n/a
417.43	0.12	834860	keystroke	Key.space	n/a
417.6845	0.106	835369	keystroke	c	n/a
418.0905	0.09	836181	keystroke	i	n/a
418.2555	0.1505	836511	keystroke	v	n/a
418.4655	0.119	836931	keystroke	i	n/a
418.9305	0.089	837861	keystroke	c	n/a
419.2305	0.105	838461	keystroke	Key.enter	n/a
419.339	6.2825	838678	prompt	n/a	delegation wall known motels\n
419.951	0.089	839902	keystroke	d	n/a
420.145	0.09	840290	keystroke	e	n/a
420.31	0.075	840620	keystroke	l	n/a
420.43	0.12	840860	keystroke	e	n/a
420.805	0.105	841610	keystroke	g	n/a
421.0455	0.12	842091	keystroke	a	n/a
421.1955	0.075	842391	keystroke	t	n/a
421.3305	0.15	842661	keystroke	i	n/a
421.4505	0.195	842901	keystroke	o	n/a
421.6005	0.12	843201	keystroke	n	n/a
421.7355	0.165	843471	keystroke	Key.space	n/a
421.9455	0.12	843891	keystroke	w	n/a
422.0955	0.1495	844191	keystroke	a	n/a
422.215	0.06	844430	keystroke	l	n/a
422.365	0.1355	844730	keystroke	l	n/a
422.455	0.1355	844910	keystroke	Key.space	n/a
422.6205	0.105	845241	keystroke	k	n/a
422.7405	0.135	845481	keystroke	n	n/a
422.9205	0.105	845841	keystroke	o	n/a
423.0555	0.12	846111	keystroke	w	n/a
423.2055	0.105	846411	keystroke	n	n/a
423.3705	0.1495	846741	keystroke	Key.space	n/a
423.5505	0.1045	847101	keystroke	m	n/a
423.686	0.119	847372	keystroke	o	n/a
423.82	0.09	847640	keystroke	t	n/a
424.015	0.0755	848030	keystroke	e	n/a
424.151	0.12	848302	keystroke	s	n/a
424.316	0.104	848632	keystroke	l	n/a
424.81	0.075	849620	keystroke	Key.backspace	n/a
424.9455	0.075	849891	keystroke	Key.backspace	n/a
425.17	0.0755	850340	keystroke	l	n/a
425.305	0.09	850610	keystroke	s	n/a
425.545	0.075	851090	keystroke	Key.enter	n/a
425.6245	6.6425	851249	prompt	n/a	troops ripe babies thunder\n
426.4305	0.09	852861	keystroke	t	n/a
426.6105	0.12	853221	keystroke	r	n/a
426.775	0.09	853550	keystroke	o	n/a
426.955	0.1805	853910	keystroke	o	n/a
427.09	0.1205	854180	keystroke	p	n/a
427.3005	0.135	854601	keystroke	s	n/a
427.3755	0.165	854751	keystroke	Key.space	n/a
427.645	0.121	855290	keystroke	r	n/a
427.751	0.18	855502	keystroke	i	n/a
427.9155	0.1345	855831	keystroke	p	n/a
428.29	0.165	856580	keystroke	e	n/a
428.395	0.165	856790	keystroke	Key.space	n/a
428.71	0.1205	857420	keystroke	b	n/a
428.905	0.165	857810	keystroke	a	n/a
429.025	0.1205	858050	keystroke	b	n/a
429.2055	0.1045	858411	keystroke	i	n/a
429.3255	0.0895	858651	keystroke	e	n/a
429.5055	0.15	859011	keystroke	s	n/a
429.6105	0.1345	859221	keystroke	Key.space	n/a
429.85	0.045	859700	keystroke	t	n/a
429.8655	0.015	859731	keystroke	r	n/a
429.9255	0.12	859851	keystroke	h	n/a
430.5405	0.0745	861081	keystroke	Key.backspace	n/a
430.7055	0.089	861411	keystroke	Key.backspace	n/a
430.9445	0.045	861889	keystroke	h	n/a
431.1105	0.045	862221	keystroke	u	n/a
431.395	0.0305	862790	keystroke	n	n/a
431.5905	0.0895	863181	keystroke	d	n/a
431.815	0.09	863630	keystroke	e	n/a
431.89	0.0905	863780	keystroke	r	n/a
432.1605	0.105	864321	keystroke	Key.enter	n/a
432.271	4.9905	864542	prompt	n/a	face dress tide examine\n
432.8955	0.12	865791	keystroke	f	n/a
433.0755	0.15	866151	keystroke	a	n/a
433.1805	0.09	866361	keystroke	c	n/a
433.3455	0.12	866691	keystroke	e	n/a
433.4355	0.2095	866871	keystroke	Key.space	n/a
433.585	0.15	867170	keystroke	d	n/a
433.75	0.12	867500	keystroke	r	n/a
433.885	0.135	867770	keystroke	e	n/a
434.0655	0.1195	868131	keystroke	s	n/a
434.275	0.12	868550	keystroke	s	n/a
434.38	0.1655	868760	keystroke	Key.space	n/a
434.5755	0.105	869151	keystroke	t	n/a
434.7255	0.135	869451	keystroke	i	n/a
434.8905	0.1045	869781	keystroke	d	n/a
435.055	0.15	870110	keystroke	e	n/a
435.175	0.1955	870350	keystroke	Key.space	n/a
435.325	0.1205	870650	keystroke	e	n/a
435.5505	0.1045	871101	keystroke	x	n/a
435.7755	0.12	871551	keystroke	a	n/a
435.91	0.1055	871820	keystroke	m	n/a
436.345	0.105	872690	keystroke	i	n/a
436.5105	0.1045	873021	keystroke	n	n/a
436.8405	0.075	873681	keystroke	e	n/a
437.1555	0.105	874311	keystroke	Key.enter	n/a
437.2655	9.911	874531	prompt	n/a	convention local reservoir nominated\n
437.9355	0.12	875871	keystroke	c	n/a
438.0705	0.165	876141	keystroke	o	n/a
438.1755	0.12	876351	keystroke	n	n/a
438.3855	0.09	876771	keystroke	v	n/a
438.5955	0.09	877191	keystroke	e	n/a
438.7005	0.105	877401	keystroke	n	n/a
438.851	0.0745	877702	keystroke	t	n/a
438.9705	0.164	877941	keystroke	i	n/a
439.1055	0.18	878211	keystroke	o	n/a
439.2545	0.1055	878509	keystroke	n	n/a
439.3755	0.104	878751	keystroke	Key.space	n/a
439.4655	0.09	878931	keystroke	l	n/a
439.6605	0.09	879321	keystroke	o	n/a
439.7645	0.091	879529	keystroke	c	n/a
439.9605	0.135	879921	keystroke	a	n/a
440.066	0.1045	880132	keystroke	l	n/a
440.2305	0.225	880461	keystroke	Key.space	n/a
440.4105	0.135	880821	keystroke	r	n/a
440.5755	0.105	881151	keystroke	e	n/a
440.7855	0.135	881571	keystroke	s	n/a
440.9805	0.1055	881961	keystroke	o	n/a
441.206	0.0895	882412	keystroke	r	n/a
441.46	0.09	882920	keystroke	v	n/a
441.596	0.2095	883192	keystroke	o	n/a
441.7605	0.12	883521	keystroke	u	n/a
442.3005	0.045	884601	keystroke	r	n/a
442.5855	0.075	885171	keystroke	Key.backspace	n/a
442.7355	0.09	885471	keystroke	Key.backspace	n/a
442.915	0.09	885830	keystroke	Key.backspace	n/a
443.6805	0.105	887361	keystroke	o	n/a
443.8905	0.09	887781	keystroke	i	n/a
444.0555	0.075	888111	keystroke	r	n/a
444.4155	0.1195	888831	keystroke	Key.space	n/a
445.345	0.0905	890690	keystroke	n	n/a
445.57	0.105	891140	keystroke	o	n/a
445.7505	0.0895	891501	keystroke	m	n/a
445.915	0.15	891830	keystroke	i	n/a
446.035	0.106	892070	keystroke	n	n/a
446.335	0.135	892670	keystroke	a	n/a
446.5155	0.075	893031	keystroke	t	n/a
446.6805	0.075	893361	keystroke	e	n/a
446.89	0.075	893780	keystroke	d	n/a
447.0555	0.12	894111	keystroke	Key.enter	n/a
447.1795	7.2725	894359	prompt	n/a	precisely elections axis belarus\n
447.986	0.0595	895972	keystroke	p	n/a
448.1055	0.105	896211	keystroke	r	n/a
448.225	0.1055	896450	keystroke	e	n/a
448.4505	0.09	896901	keystroke	c	n/a
448.5855	0.0905	897171	keystroke	i	n/a
448.871	0.105	897742	keystroke	c	n/a
449.2155	0.075	898431	keystroke	Key.backspace	n/a
449.306	0.1345	898612	keystroke	s	n/a
449.6205	0.09	899241	keystroke	e	n/a
449.7405	0.09	899481	keystroke	l	n/a
449.9955	0.0745	899991	keystroke	y	n/a
450.19	0.135	900380	keystroke	Key.space	n/a
450.355	0.09	900710	keystroke	e	n/a
450.535	0.09	901070	keystroke	l	n/a
450.6405	0.1045	901281	keystroke	e	n/a
450.85	0.075	901700	keystroke	c	n/a
451.045	0.045	902090	keystroke	t	n/a
451.15	0.1355	902300	keystroke	i	n/a
451.255	0.1655	902510	keystroke	o	n/a
451.376	0.119	902752	keystroke	n	n/a
451.481	0.104	902962	keystroke	s	n/a
451.57	0.211	903140	keystroke	Key.space	n/a
451.811	0.134	903622	keystroke	a	n/a
452.096	0.104	904192	keystroke	x	n/a
452.2605	0.0895	904521	keystroke	i	n/a
452.5005	0.09	905001	keystroke	s	n/a
452.6355	0.135	905271	keystroke	Key.space	n/a
452.8905	0.075	905781	keystroke	b	n/a
453.205	0.136	906410	keystroke	e	n/a
453.58	0.0755	907160	keystroke	l	n/a
453.73	0.136	907460	keystroke	a	n/a
453.851	0.104	907702	keystroke	r	n/a
454.03	0.106	908060	keystroke	u	n/a
454.181	0.105	908362	keystroke	s	n/a
454.346	0.104	908692	keystroke	Key.enter	n/a
454.455	7.7815	908910	prompt	n/a	lighter affecting legislative peter\n
456.1155	0.135	912231	keystroke	l	n/a
456.2355	0.135	912471	keystroke	i	n/a
456.3855	0.1045	912771	keystroke	g	n/a
456.5205	0.0895	913041	keystroke	h	n/a
456.625	0.075	913250	keystroke	t	n/a
456.8655	0.18	913731	keystroke	e	n/a
456.9705	0.15	913941	keystroke	r	n/a
457.0755	0.2095	914151	keystroke	Key.space	n/a
457.24	0.166	914480	keystroke	a	n/a
457.376	0.06	914752	keystroke	f	n/a
457.525	0.091	915050	keystroke	f	n/a
457.676	0.1045	915352	keystroke	e	n/a
458.066	0.0595	916132	keystroke	t	n/a
458.2305	0.15	916461	keystroke	i	n/a
458.3205	0.15	916641	keystroke	n	n/a
458.4855	0.09	916971	keystroke	g	n/a
458.7705	0.09	917541	keystroke	Key.space	n/a
459.2805	0.1195	918561	keystroke	l	n/a
459.3555	0.1195	918711	keystroke	e	n/a
459.6255	0.12	919251	keystroke	g	n/a
459.7905	0.12	919581	keystroke	i	n/a
459.9555	0.105	919911	keystroke	s	n/a
460.2705	0.105	920541	keystroke	l	n/a
460.4055	0.135	920811	keystroke	a	n/a
460.5255	0.1195	921051	keystroke	t	n/a
460.7205	0.1045	921441	keystroke	i	n/a
460.8705	0.0595	921741	keystroke	v	n/a
461.05	0.1355	922100	keystroke	e	n/a
461.1855	0.135	922371	keystroke	Key.space	n/a
461.3505	0.1195	922701	keystroke	p	n/a
461.485	0.1205	922970	keystroke	e	n/a
461.65	0.1055	923300	keystroke	t	n/a
461.815	0.106	923630	keystroke	e	n/a
461.921	0.1045	923842	keystroke	r	n/a
462.1455	0.09	924291	keystroke	Key.enter	n/a
462.2395	9.4775	924479	prompt	n/a	complaint geographical logitech jacksonville\n
462.9105	0.135	925821	keystroke	c	n/a
463.0605	0.18	926121	keystroke	o	n/a
463.1805	0.18	926361	keystroke	m	n/a
463.3905	0.1205	926781	keystroke	p	n/a
463.615	0.12	927230	keystroke	l	n/a
463.75	0.135	927500	keystroke	a	n/a
463.8705	0.1645	927741	keystroke	i	n/a
463.99	0.135	927980	keystroke	n	n/a
464.17	0.1505	928340	keystroke	t	n/a
464.2905	0.1795	928581	keystroke	Key.space	n/a
464.6655	0.075	929331	keystroke	g	n/a
464.801	0.1195	929602	keystroke	e	n/a
464.9355	0.105	929871	keystroke	o	n/a
465.1455	0.09	930291	keystroke	g	n/a
465.3555	0.12	930711	keystroke	r	n/a
465.5655	0.135	931131	keystroke	a	n/a
465.7455	0.135	931491	keystroke	p	n/a
465.9105	0.1195	931821	keystroke	h	n/a
466.075	0.105	932150	keystroke	i	n/a
466.225	0.105	932450	keystroke	c	n/a
466.36	0.1655	932720	keystroke	a	n/a
466.5405	0.0605	933081	keystroke	l	n/a
466.615	0.135	933230	keystroke	Key.space	n/a
466.795	0.06	933590	keystroke	l	n/a
466.9605	0.0895	933921	keystroke	o	n/a
467.11	0.105	934220	keystroke	g	n/a
467.815	0.1205	935630	keystroke	i	n/a
468.0555	0.0895	936111	keystroke	t	n/a
468.2655	0.0895	936531	keystroke	e	n/a
468.505	0.09	937010	keystroke	c	n/a
468.6705	0.1055	937341	keystroke	h	n/a
468.805	0.12	937610	keystroke	Key.space	n/a
469.091	0.1195	938182	keystroke	j	n/a
469.2855	0.165	938571	keystroke	a	n/a
469.69	0.1055	939380	keystroke	c	n/a
469.9305	0.1055	939861	keystroke	k	n/a
470.4105	0.105	940821	keystroke	s	n/a
470.5305	0.165	941061	keystroke	o	n/a
470.6505	0.12	941301	keystroke	n	n/a
470.8305	0.105	941661	keystroke	v	n/a
470.9505	0.1795	941901	keystroke	i	n/a
471.085	0.0905	942170	keystroke	l	n/a
471.251	0.149	942502	keystroke	l	n/a
471.3705	0.09	942741	keystroke	e	n/a
471.61	0.105	943220	keystroke	Key.enter	n/a
471.72	8.967	943440	prompt	n/a	lloyd intimate whereas bookstore\n
472.391	0.044	944782	keystroke	l	n/a
472.51	0.105	945020	keystroke	l	n/a
472.7955	0.105	945591	keystroke	o	n/a
473.0055	0.075	946011	keystroke	y	n/a
473.725	0.075	947450	keystroke	d	n/a
473.845	0.166	947690	keystroke	Key.space	n/a
474.055	0.1805	948110	keystroke	i	n/a
474.1905	0.165	948381	keystroke	n	n/a
474.6255	0.135	949251	keystroke	t	n/a
474.8505	0.09	949701	keystroke	i	n/a
475.0755	0.105	950151	keystroke	m	n/a
475.87	0.0755	951740	keystroke	a	n/a
476.4255	0.105	952851	keystroke	t	n/a
476.6355	0.09	953271	keystroke	e	n/a
477.4305	0.045	954861	keystroke	Key.space	n/a
477.5505	0.195	955101	keystroke	w	n/a
477.6855	0.12	955371	keystroke	h	n/a
477.8655	0.1955	955731	keystroke	e	n/a
478.0755	0.12	956151	keystroke	r	n/a
478.3005	0.1055	956601	keystroke	e	n/a
478.5555	0.135	957111	keystroke	a	n/a
478.7205	0.15	957441	keystroke	s	n/a
478.8855	0.1345	957771	keystroke	Key.space	n/a
479.111	0.0895	958222	keystroke	b	n/a
479.2305	0.06	958461	keystroke	o	n/a
479.381	0.1045	958762	keystroke	o	n/a
479.5605	0.09	959121	keystroke	k	n/a
479.695	0.105	959390	keystroke	s	n/a
479.8905	0.0895	959781	keystroke	t	n/a
480.041	0.074	960082	keystroke	o	n/a
480.16	0.09	960320	keystroke	r	n/a
480.325	0.105	960650	keystroke	e	n/a
480.565	0.12	961130	keystroke	Key.enter	n/a
480.6895	5.4735	961379	prompt	n/a	save housing affect earnings\n
481.315	0.135	962630	keystroke	s	n/a
481.4955	0.1795	962991	keystroke	a	n/a
481.6605	0.0755	963321	keystroke	v	n/a
481.825	0.12	963650	keystroke	e	n/a
481.915	0.15	963830	keystroke	Key.space	n/a
482.186	0.119	964372	keystroke	h	n/a
482.321	0.1795	964642	keystroke	o	n/a
482.4405	0.1205	964881	keystroke	u	n/a
482.636	0.1195	965272	keystroke	s	n/a
482.7405	0.165	965481	keystroke	i	n/a
482.8755	0.1055	965751	keystroke	n	n/a
482.966	0.105	965932	keystroke	g	n/a
483.0405	0.1645	966081	keystroke	Key.space	n/a
483.22	0.15	966440	keystroke	a	n/a
483.505	0.1055	967010	keystroke	f	n/a
483.8205	0.1045	967641	keystroke	f	n/a
484.0455	0.105	968091	keystroke	e	n/a
484.255	0.0905	968510	keystroke	c	n/a
484.4805	0.0905	968961	keystroke	t	n/a
484.5855	0.2395	969171	keystroke	Key.space	n/a
484.795	0.121	969590	keystroke	e	n/a
484.945	0.195	969890	keystroke	a	n/a
485.11	0.105	970220	keystroke	r	n/a
485.245	0.1055	970490	keystroke	n	n/a
485.4105	0.135	970821	keystroke	i	n/a
485.575	0.12	971150	keystroke	n	n/a
485.6805	0.105	971361	keystroke	g	n/a
485.875	0.1055	971750	keystroke	s	n/a
486.055	0.105	972110	keystroke	Key.enter	n/a
486.169	7.043	972338	prompt	n/a	specialized wikipedia johns journey\n
486.8205	0.12	973641	keystroke	s	n/a
486.9855	0.15	973971	keystroke	p	n/a
487.121	0.119	974242	keystroke	e	n/a
487.39	0.12	974780	keystroke	c	n/a
487.555	0.0905	975110	keystroke	i	n/a
487.6905	0.1645	975381	keystroke	a	n/a
487.84	0.1655	975680	keystroke	l	n/a
487.96	0.1355	975920	keystroke	i	n/a
488.111	0.1195	976222	keystroke	z	n/a
488.335	0.09	976670	keystroke	e	n/a
488.515	0.09	977030	keystroke	d	n/a
488.5905	0.18	977181	keystroke	Key.space	n/a
488.8	0.135	977600	keystroke	w	n/a
488.9655	0.0895	977931	keystroke	i	n/a
489.16	0.0755	978320	keystroke	k	n/a
489.355	0.09	978710	keystroke	i	n/a
489.6105	0.1045	979221	keystroke	p	n/a
489.76	0.091	979520	keystroke	e	n/a
489.9405	0.1195	979881	keystroke	d	n/a
490.076	0.089	980152	keystroke	i	n/a
490.301	0.119	980602	keystroke	a	n/a
490.435	0.135	980870	keystroke	Key.space	n/a
490.615	0.1205	981230	keystroke	j	n/a
490.7505	0.18	981501	keystroke	o	n/a
491.0055	0.09	982011	keystroke	h	n/a
491.3055	0.09	982611	keystroke	n	n/a
491.65	0.105	983300	keystroke	s	n/a
491.77	0.1505	983540	keystroke	Key.space	n/a
491.9955	0.105	983991	keystroke	j	n/a
492.1455	0.21	984291	keystroke	o	n/a
492.311	0.0745	984622	keystroke	u	n/a
492.4155	0.12	984831	keystroke	r	n/a
492.5805	0.105	985161	keystroke	n	n/a
492.7455	0.09	985491	keystroke	e	n/a
492.8805	0.075	985761	keystroke	y	n/a
493.09	0.12	986180	keystroke	Key.enter	n/a
493.2145	6.8075	986429	prompt	n/a	fabrics crazy turtle nuclear\n
493.99	0.045	987980	keystroke	f	n/a
494.0505	0.15	988101	keystroke	a	n/a
494.26	0.1205	988520	keystroke	b	n/a
494.9055	0.1355	989811	keystroke	r	n/a
495.056	0.059	990112	keystroke	i	n/a
495.16	0.09	990320	keystroke	c	n/a
495.34	0.121	990680	keystroke	s	n/a
495.43	0.1505	990860	keystroke	Key.space	n/a
495.7905	0.09	991581	keystroke	c	n/a
496.001	0.0595	992002	keystroke	r	n/a
496.1505	0.1195	992301	keystroke	a	n/a
496.7205	0.15	993441	keystroke	z	n/a
496.99	0.09	993980	keystroke	y	n/a
497.17	0.1055	994340	keystroke	Key.space	n/a
497.3355	0.1345	994671	keystroke	t	n/a
497.486	0.104	994972	keystroke	u	n/a
497.605	0.09	995210	keystroke	r	n/a
497.815	0.0905	995630	keystroke	t	n/a
497.981	0.1045	995962	keystroke	l	n/a
498.235	0.12	996470	keystroke	e	n/a
498.385	0.135	996770	keystroke	Key.space	n/a
498.715	0.075	997430	keystroke	n	n/a
498.895	0.0755	997790	keystroke	u	n/a
499.1205	0.09	998241	keystroke	c	n/a
499.2705	0.09	998541	keystroke	l	n/a
499.3455	0.105	998691	keystroke	e	n/a
499.5105	0.1645	999021	keystroke	a	n/a
499.69	0.09	999380	keystroke	r	n/a
499.9155	0.1045	999831	keystroke	Key.enter	n/a
500.025	4.632	1000050	prompt	n/a	pets jose cheque iowa\n
500.7105	0.1195	1001421	keystroke	p	n/a
500.8155	0.1195	1001631	keystroke	e	n/a
500.95	0.1055	1001900	keystroke	t	n/a
501.145	0.165	1002290	keystroke	s	n/a
501.25	0.15	1002500	keystroke	Key.space	n/a
501.37	0.135	1002740	keystroke	j	n/a
501.49	0.1205	1002980	keystroke	o	n/a
501.6255	0.135	1003251	keystroke	s	n/a
501.7455	0.165	1003491	keystroke	e	n/a
501.8955	0.15	1003791	keystroke	Key.space	n/a
502.1055	0.12	1004211	keystroke	c	n/a
502.2555	0.09	1004511	keystroke	h	n/a
502.4055	0.105	1004811	keystroke	e	n/a
502.87	0.046	1005740	keystroke	q	n/a
502.931	0.09	1005862	keystroke	u	n/a
503.095	0.1355	1006190	keystroke	e	n/a
503.26	0.135	1006520	keystroke	Key.space	n/a
503.4855	0.0895	1006971	keystroke	i	n/a
503.8155	0.0895	1007631	keystroke	o	n/a
504.01	0.105	1008020	keystroke	w	n/a
504.355	0.105	1008710	keystroke	a	n/a
504.5655	0.0895	1009131	keystroke	Key.enter	n/a
504.66	5.217	1009320	prompt	n/a	sink cult plugin receiver\n
505.3605	0.12	1010721	keystroke	s	n/a
505.4655	0.135	1010931	keystroke	i	n/a
505.6155	0.075	1011231	keystroke	n	n/a
505.7655	0.09	1011531	keystroke	k	n/a
505.9455	0.135	1011891	keystroke	Key.space	n/a
506.1105	0.09	1012221	keystroke	c	n/a
506.2305	0.105	1012461	keystroke	u	n/a
506.3805	0.12	1012761	keystroke	l	n/a
506.5905	0.12	1013181	keystroke	t	n/a
506.6805	0.135	1013361	keystroke	Key.space	n/a
506.8305	0.1195	1013661	keystroke	p	n/a
507.4	0.0305	1014800	keystroke	l	n/a
507.52	0.09	1015040	keystroke	u	n/a
507.715	0.1055	1015430	keystroke	g	n/a
507.8655	0.1795	1015731	keystroke	i	n/a
508.0155	0.105	1016031	keystroke	n	n/a
508.2105	0.1495	1016421	keystroke	Key.space	n/a
508.39	0.135	1016780	keystroke	r	n/a
508.541	0.104	1017082	keystroke	e	n/a
508.765	0.09	1017530	keystroke	c	n/a
508.976	0.089	1017952	keystroke	e	n/a
509.125	0.106	1018250	keystroke	i	n/a
509.2905	0.0905	1018581	keystroke	v	n/a
509.485	0.1055	1018970	keystroke	e	n/a
509.5605	0.1055	1019121	keystroke	r	n/a
509.8005	0.0745	1019601	keystroke	Key.enter	n/a
509.8795	7.3475	1019759	prompt	n/a	voip sullivan historic dublin\n
510.611	0.12	1021222	keystroke	v	n/a
510.79	0.181	1021580	keystroke	o	n/a
510.955	0.09	1021910	keystroke	i	n/a
511.195	0.0905	1022390	keystroke	p	n/a
511.435	0.165	1022870	keystroke	Key.space	n/a
511.601	0.1195	1023202	keystroke	s	n/a
511.721	0.1045	1023442	keystroke	u	n/a
511.885	0.09	1023770	keystroke	l	n/a
512.0655	0.1195	1024131	keystroke	l	n/a
512.17	0.135	1024340	keystroke	i	n/a
512.486	0.1195	1024972	keystroke	v	n/a
512.89	0.12	1025780	keystroke	a	n/a
513.07	0.0755	1026140	keystroke	n	n/a
513.2655	0.1195	1026531	keystroke	Key.space	n/a
513.535	0.09	1027070	keystroke	h	n/a
513.7005	0.1345	1027401	keystroke	i	n/a
513.85	0.105	1027700	keystroke	s	n/a
514.015	0.1055	1028030	keystroke	t	n/a
514.2105	0.0895	1028421	keystroke	o	n/a
514.601	0.09	1029202	keystroke	r	n/a
514.766	0.09	1029532	keystroke	i	n/a
515.05	0.105	1030100	keystroke	c	n/a
515.2905	0.1495	1030581	keystroke	Key.space	n/a
515.575	0.09	1031150	keystroke	d	n/a
516.07	0.0905	1032140	keystroke	u	n/a
516.281	0.104	1032562	keystroke	b	n/a
516.5355	0.1045	1033071	keystroke	l	n/a
516.715	0.195	1033430	keystroke	i	n/a
516.8655	0.0745	1033731	keystroke	n	n/a
517.12	0.105	1034240	keystroke	Key.enter	n/a
517.231	10.166	1034462	prompt	n/a	optimize entirely nutrition pamela\n
518.0505	0.12	1036101	keystroke	o	n/a
518.2305	0.135	1036461	keystroke	p	n/a
518.4705	0.09	1036941	keystroke	t	n/a
518.576	0.0745	1037152	keystroke	i	n/a
518.7405	0.09	1037481	keystroke	m	n/a
518.9205	0.105	1037841	keystroke	i	n/a
519.1305	0.1055	1038261	keystroke	z	n/a
519.385	0.121	1038770	keystroke	e	n/a
519.5205	0.195	1039041	keystroke	Key.space	n/a
519.6855	0.1355	1039371	keystroke	e	n/a
519.8355	0.075	1039671	keystroke	n	n/a
520.1055	0.09	1040211	keystroke	t	n/a
520.2555	0.105	1040511	keystroke	i	n/a
520.4655	0.18	1040931	keystroke	e	n/a
520.87	0.09	1041740	keystroke	Key.backspace	n/a
521.7705	0.1055	1043541	keystroke	r	n/a
521.9655	0.12	1043931	keystroke	e	n/a
522.1305	0.0905	1044261	keystroke	l	n/a
522.3255	0.06	1044651	keystroke	y	n/a
522.401	0.1495	1044802	keystroke	Key.space	n/a
522.6105	0.06	1045221	keystroke	n	n/a
522.7605	0.0755	1045521	keystroke	u	n/a
522.9255	0.075	1045851	keystroke	t	n/a
523.0755	0.09	1046151	keystroke	r	n/a
523.181	0.09	1046362	keystroke	i	n/a
523.57	0.12	1047140	keystroke	t	n/a
523.855	0.075	1047710	keystroke	n	n/a
524.335	0.09	1048670	keystroke	Key.backspace	n/a
524.605	0.09	1049210	keystroke	i	n/a
524.725	0.151	1049450	keystroke	o	n/a
524.891	0.074	1049782	keystroke	n	n/a
525.2205	0.075	1050441	keystroke	Key.space	n/a
526.106	0.105	1052212	keystroke	p	n/a
526.481	0.165	1052962	keystroke	a	n/a
526.631	0.089	1053262	keystroke	m	n/a
526.9	0.09	1053800	keystroke	e	n/a
527.0055	0.105	1054011	keystroke	l	n/a
527.1555	0.1205	1054311	keystroke	a	n/a
527.3055	0.09	1054611	keystroke	Key.enter	n/a
527.4005	4.9915	1054801	prompt	n/a	bleeding all disable earliest\n
528.0555	0.12	1056111	keystroke	b	n/a
528.2205	0.135	1056441	keystroke	l	n/a
528.3255	0.0755	1056651	keystroke	e	n/a
528.4905	0.075	1056981	keystroke	e	n/a
528.6405	0.105	1057281	keystroke	d	n/a
528.8205	0.135	1057641	keystroke	i	n/a
528.9105	0.105	1057821	keystroke	n	n/a
528.9705	0.1355	1057941	keystroke	g	n/a
529.061	0.195	1058122	keystroke	Key.space	n/a
529.2105	0.18	1058421	keystroke	a	n/a
529.301	0.0745	1058602	keystroke	l	n/a
529.466	0.1345	1058932	keystroke	l	n/a
529.631	0.1645	1059262	keystroke	Key.space	n/a
529.8105	0.105	1059621	keystroke	d	n/a
529.9455	0.105	1059891	keystroke	i	n/a
530.1105	0.1045	1060221	keystroke	s	n/a
530.29	0.135	1060580	keystroke	a	n/a
530.47	0.09	1060940	keystroke	b	n/a
530.6505	0.1055	1061301	keystroke	l	n/a
530.725	0.1655	1061450	keystroke	e	n/a
530.8005	0.21	1061601	keystroke	Key.space	n/a
530.9955	0.165	1061991	keystroke	e	n/a
531.2055	0.135	1062411	keystroke	a	n/a
531.296	0.1045	1062592	keystroke	r	n/a
531.4305	0.15	1062861	keystroke	l	n/a
531.5505	0.12	1063101	keystroke	i	n/a
