onset	duration	sample	value	key	prompt_text
6.3705	0.1135	12741	keystroke_n	n	n/a
6.438	0.092	12876	keystroke_o	o	n/a
6.506	0.092	13012	keystroke_t	t	n/a
6.551	0.115	13102	keystroke_e	e	n/a
7.0635	0.07	14127	keystroke_Key.enter	Key.enter	n/a
8.846	0.092	17692	keystroke_k	k	n/a
8.892	0.095	17784	keystroke_e	e	n/a
9.039	0.068	18078	keystroke_y	y	n/a
9.178	0.114	18356	keystroke_s	s	n/a
9.314	0.07	18628	keystroke_t	t	n/a
9.406	0.115	18812	keystroke_o	o	n/a
9.452	0.139	18904	keystroke_k	k	n/a
9.543	0.116	19086	keystroke_e	e	n/a
9.593	0.112	19186	keystroke_s	s	n/a
9.736	0.091	19472	keystroke_Key.space	Key.space	n/a
9.944	0.09	19888	keystroke_2	2	n/a
9.967	0.091	19934	keystroke_3	3	n/a
10.353	0.047	20706	keystroke_Key.backspace	Key.backspace	n/a
10.466	0.0905	20932	keystroke_Key.backspace	Key.backspace	n/a
10.614	0.093	21228	keystroke_Key.backspace	Key.backspace	n/a
11.114	0.116	22228	keystroke_1	1	n/a
11.183	0.093	22366	keystroke_2	2	n/a
11.378	0.07	22756	keystroke_Key.enter	Key.enter	n/a
11.618	0.093	23236	keystroke_Key.enter	Key.enter	n/a
12.581	0.069	25162	keystroke_2	2	n/a
12.71	0.092	25420	keystroke_2	2	n/a
13.144	0.093	26288	keystroke_8	8	n/a
13.335	0.1155	26670	keystroke_Key.space	Key.space	n/a
14.0955	0.137	28191	keystroke_s	s	n/a
14.1855	0.071	28371	keystroke_t	t	n/a
14.2775	0.113	28555	keystroke_a	a	n/a
14.3455	0.067	28691	keystroke_r	r	n/a
14.4595	0.07	28919	keystroke_t	t	n/a
17.136	6.5245	34272	prompt	n/a	the quick brown fox jumps over a lazy dog\n
18.44	0.001	36880	keystroke_t	t	n/a
18.453	0.06	36906	keystroke_h	h	n/a
18.514	0.059	37028	keystroke_e	e	n/a
18.588	0.0905	37176	keystroke_Key.space	Key.space	n/a
18.7235	0.06	37447	keystroke_q	q	n/a
18.7685	0.105	37537	keystroke_u	u	n/a
18.8435	0.09	37687	keystroke_i	i	n/a
18.9185	0.0895	37837	keystroke_c	c	n/a
19.008	0.09	38016	keystroke_k	k	n/a
19.099	0.074	38198	keystroke_Key.space	Key.space	n/a
19.203	0.105	38406	keystroke_b	b	n/a
19.323	0.075	38646	keystroke_r	r	n/a
19.383	0.09	38766	keystroke_o	o	n/a
19.458	0.105	38916	keystroke_w	w	n/a
19.548	0.15	39096	keystroke_n	n	n/a
19.698	0.075	39396	keystroke_Key.space	Key.space	n/a
19.803	0.06	39606	keystroke_f	f	n/a
19.864	0.104	39728	keystroke_o	o	n/a
20.043	0.0905	40086	keystroke_x	x	n/a
20.2075	0.076	40415	keystroke_Key.space	Key.space	n/a
20.4335	0.06	40867	keystroke_j	j	n/a
20.8825	0.075	41765	keystroke_u	u	n/a
21.0625	0.105	42125	keystroke_m	m	n/a
21.1385	0.119	42277	keystroke_p	p	n/a
21.2435	0.09	42487	keystroke_s	s	n/a
21.3475	0.09	42695	keystroke_Key.space	Key.space	n/a
21.3925	0.151	42785	keystroke_o	o	n/a
21.4825	0.075	42965	keystroke_v	v	n/a
21.6025	0.09	43205	keystroke_e	e	n/a
21.6625	0.06	43325	keystroke_r	r	n/a
21.7375	0.075	43475	keystroke_Key.space	Key.space	n/a
21.8275	0.105	43655	keystroke_a	a	n/a
21.9625	0.09	43925	keystroke_l	l	n/a
22.353	0.045	44706	keystroke_Key.backspace	Key.backspace	n/a
22.473	0.0895	44946	keystroke_Key.space	Key.space	n/a
22.5775	0.1355	45155	keystroke_l	l	n/a
22.728	0.09	45456	keystroke_a	a	n/a
22.938	0.0745	45876	keystroke_z	z	n/a
23.0275	0.075	46055	keystroke_y	y	n/a
23.178	0.09	46356	keystroke_Key.space	Key.space	n/a
23.313	0.06	46626	keystroke_d	d	n/a
23.358	0.09	46716	keystroke_o	o	n/a
23.463	0.075	46926	keystroke_g	g	n/a
23.583	0.075	47166	keystroke_Key.enter	Key.enter	n/a
23.6645	5.695	47329	prompt	n/a	attendance tagged annual embedded\n
24.273	0.105	48546	keystroke_a	a	n/a
24.438	0.075	48876	keystroke_t	t	n/a
24.588	0.06	49176	keystroke_t	t	n/a
24.708	0.09	49416	keystroke_e	e	n/a
24.843	0.075	49686	keystroke_n	n	n/a
25.053	0.09	50106	keystroke_d	d	n/a
25.638	0.09	51276	keystroke_a	a	n/a
25.729	0.089	51458	keystroke_n	n	n/a
25.833	0.12	51666	keystroke_c	c	n/a
25.923	0.09	51846	keystroke_e	e	n/a
25.998	0.105	51996	keystroke_Key.space	Key.space	n/a
26.133	0.105	52266	keystroke_t	t	n/a
26.193	0.12	52386	keystroke_a	a	n/a
26.343	0.09	52686	keystroke_g	g	n/a
26.523	0.09	53046	keystroke_g	g	n/a
26.658	0.09	53316	keystroke_e	e	n/a
26.868	0.09	53736	keystroke_d	d	n/a
26.973	0.09	53946	keystroke_Key.space	Key.space	n/a
27.093	0.09	54186	keystroke_a	a	n/a
27.153	0.075	54306	keystroke_n	n	n/a
27.288	0.075	54576	keystroke_n	n	n/a
27.468	0.075	54936	keystroke_u	u	n/a
27.618	0.09	55236	keystroke_a	a	n/a
27.693	0.09	55386	keystroke_l	l	n/a
27.858	0.09	55716	keystroke_Key.space	Key.space	n/a
27.978	0.09	55956	keystroke_e	e	n/a
28.188	0.075	56376	keystroke_m	m	n/a
28.368	0.105	56736	keystroke_b	b	n/a
28.5325	0.0455	57065	keystroke_e	e	n/a
28.7275	0.075	57455	keystroke_d	d	n/a
28.8635	0.059	57727	keystroke_d	d	n/a
28.9975	0.06	57995	keystroke_e	e	n/a
29.1475	0.135	58295	keystroke_d	d	n/a
29.268	0.0895	58536	keystroke_Key.enter	Key.enter	n/a
29.3625	8.1425	58725	prompt	n/a	slovakia gothic carroll compliance\n
30.1835	0.029	60367	keystroke_l	l	n/a
30.5425	0.06	61085	keystroke_Key.backspace	Key.backspace	n/a
30.6175	0.09	61235	keystroke_s	s	n/a
30.7225	0.06	61445	keystroke_l	l	n/a
30.8575	0.075	61715	keystroke_o	o	n/a
31.2035	0.089	62407	keystroke_v	v	n/a
31.5325	0.105	63065	keystroke_a	a	n/a
31.7425	0.09	63485	keystroke_k	k	n/a
31.9075	0.135	63815	keystroke_i	i	n/a
32.1625	0.09	64325	keystroke_a	a	n/a
32.2825	0.1055	64565	keystroke_Key.space	Key.space	n/a
32.763	0.09	65526	keystroke_g	g	n/a
33.123	0.105	66246	keystroke_h	h	n/a
33.243	0.105	66486	keystroke_o	o	n/a
33.603	0.045	67206	keystroke_Key.backspace	Key.backspace	n/a
33.723	0.06	67446	keystroke_Key.backspace	Key.backspace	n/a
33.9025	0.09	67805	keystroke_o	o	n/a
34.0675	0.09	68135	keystroke_t	t	n/a
34.1135	0.164	68227	keystroke_h	h	n/a
34.1885	0.164	68377	keystroke_i	i	n/a
34.3675	0.106	68735	keystroke_c	c	n/a
34.5175	0.12	69035	keystroke_Key.space	Key.space	n/a
34.9825	0.09	69965	keystroke_c	c	n/a
35.0425	0.076	70085	keystroke_a	a	n/a
35.1775	0.075	70355	keystroke_r	r	n/a
35.3135	0.059	70627	keystroke_r	r	n/a
35.4175	0.091	70835	keystroke_o	o	n/a
35.5675	0.075	71135	keystroke_l	l	n/a
35.7035	0.089	71407	keystroke_l	l	n/a
35.8375	0.09	71675	keystroke_Key.space	Key.space	n/a
36.1375	0.09	72275	keystroke_c	c	n/a
36.2125	0.105	72425	keystroke_o	o	n/a
36.2575	0.12	72515	keystroke_m	m	n/a
36.5125	0.031	73025	keystroke_p	p	n/a
36.5285	0.09	73057	keystroke_l	l	n/a
36.7075	0.12	73415	keystroke_i	i	n/a
36.9625	0.075	73925	keystroke_a	a	n/a
37.0525	0.0905	74105	keystroke_n	n	n/a
37.158	0.105	74316	keystroke_c	c	n/a
37.218	0.105	74436	keystroke_e	e	n/a
37.398	0.105	74796	keystroke_Key.enter	Key.enter	n/a
37.5075	7.048	75015	prompt	n/a	brick attacked environmental worldwide\n
38.2525	0.091	76505	keystroke_b	b	n/a
38.3575	0.075	76715	keystroke_r	r	n/a
38.5975	0.105	77195	keystroke_i	i	n/a
38.7175	0.105	77435	keystroke_c	c	n/a
38.8075	0.1205	77615	keystroke_k	k	n/a
38.958	0.09	77916	keystroke_Key.space	Key.space	n/a
39.093	0.105	78186	keystroke_a	a	n/a
39.183	0.06	78366	keystroke_t	t	n/a
39.303	0.075	78606	keystroke_t	t	n/a
39.483	0.0745	78966	keystroke_a	a	n/a
39.513	0.0895	79026	keystroke_c	c	n/a
39.6175	0.105	79235	keystroke_k	k	n/a
39.7075	0.06	79415	keystroke_e	e	n/a
39.8575	0.06	79715	keystroke_d	d	n/a
39.8875	0.105	79775	keystroke_Key.space	Key.space	n/a
40.0675	0.06	80135	keystroke_e	e	n/a
40.1285	0.104	80257	keystroke_n	n	n/a
40.4875	0.075	80975	keystroke_j	j	n/a
40.938	0.075	81876	keystroke_Key.backspace	Key.backspace	n/a
41.538	0.105	83076	keystroke_v	v	n/a
41.628	0.06	83256	keystroke_i	i	n/a
41.823	0.06	83646	keystroke_r	r	n/a
41.868	0.105	83736	keystroke_o	o	n/a
41.928	0.105	83856	keystroke_n	n	n/a
42.153	0.09	84306	keystroke_m	m	n/a
42.243	0.09	84486	keystroke_e	e	n/a
42.348	0.0755	84696	keystroke_n	n	n/a
42.4385	0.105	84877	keystroke_t	t	n/a
42.6485	0.0895	85297	keystroke_a	a	n/a
42.753	0.105	85506	keystroke_l	l	n/a
42.9035	0.0745	85807	keystroke_Key.space	Key.space	n/a
43.3985	0.0895	86797	keystroke_w	w	n/a
43.503	0.075	87006	keystroke_o	o	n/a
43.563	0.075	87126	keystroke_r	r	n/a
43.668	0.105	87336	keystroke_l	l	n/a
43.743	0.09	87486	keystroke_d	d	n/a
44.043	0.09	88086	keystroke_w	w	n/a
44.118	0.105	88236	keystroke_i	i	n/a
44.238	0.045	88476	keystroke_d	d	n/a
44.373	0.075	88746	keystroke_e	e	n/a
44.478	0.075	88956	keystroke_Key.enter	Key.enter	n/a
44.559	7.2435	89118	prompt	n/a	qualifications promotional grip declaration\n
45.2885	0.075	90577	keystroke_q	q	n/a
45.3485	0.09	90697	keystroke_u	u	n/a
45.4685	0.105	90937	keystroke_a	a	n/a
45.5585	0.105	91117	keystroke_l	l	n/a
45.7835	0.105	91567	keystroke_i	i	n/a
46.1585	0.09	92317	keystroke_f	f	n/a
46.2185	0.09	92437	keystroke_i	i	n/a
46.4135	0.135	92827	keystroke_c	c	n/a
46.4885	0.12	92977	keystroke_a	a	n/a
46.7285	0.09	93457	keystroke_t	t	n/a
46.8025	0.166	93605	keystroke_i	i	n/a
46.8785	0.12	93757	keystroke_o	o	n/a
46.9235	0.195	93847	keystroke_n	n	n/a
47.0885	0.134	94177	keystroke_s	s	n/a
47.2075	0.075	94415	keystroke_Key.space	Key.space	n/a
47.3585	0.075	94717	keystroke_p	p	n/a
47.4485	0.0745	94897	keystroke_r	r	n/a
47.493	0.12	94986	keystroke_o	o	n/a
47.898	0.09	95796	keystroke_m	m	n/a
48.018	0.135	96036	keystroke_o	o	n/a
48.258	0.09	96516	keystroke_t	t	n/a
48.303	0.12	96606	keystroke_i	i	n/a
48.378	0.135	96756	keystroke_o	o	n/a
48.453	0.135	96906	keystroke_n	n	n/a
48.648	0.12	97296	keystroke_a	a	n/a
48.723	0.15	97446	keystroke_l	l	n/a
48.888	0.09	97776	keystroke_Key.space	Key.space	n/a
49.233	0.075	98466	keystroke_g	g	n/a
49.368	0.105	98736	keystroke_r	r	n/a
49.458	0.105	98916	keystroke_i	i	n/a
49.698	0.09	99396	keystroke_p	p	n/a
49.848	0.105	99696	keystroke_Key.space	Key.space	n/a
49.998	0.06	99996	keystroke_d	d	n/a
50.133	0.075	100266	keystroke_e	e	n/a
50.3425	0.075	100685	keystroke_c	c	n/a
50.4025	0.105	100805	keystroke_l	l	n/a
50.5375	0.165	101075	keystroke_a	a	n/a
50.6575	0.105	101315	keystroke_r	r	n/a
51.0025	0.09	102005	keystroke_a	a	n/a
51.1985	0.089	102397	keystroke_t	t	n/a
51.2575	0.18	102515	keystroke_i	i	n/a
51.3325	0.12	102665	keystroke_o	o	n/a
51.3475	0.195	102695	keystroke_n	n	n/a
51.708	0.09	103416	keystroke_Key.enter	Key.enter	n/a
51.8055	7.6025	103611	prompt	n/a	dedicated prince isle specialty\n
52.3825	0.06	104765	keystroke_d	d	n/a
52.5025	0.09	105005	keystroke_e	e	n/a
52.7425	0.09	105485	keystroke_c	c	n/a
52.8925	0.121	105785	keystroke_i	i	n/a
53.2085	0.06	106417	keystroke_Key.backspace	Key.backspace	n/a
53.3135	0.075	106627	keystroke_Key.backspace	Key.backspace	n/a
53.4485	0.075	106897	keystroke_d	d	n/a
53.5535	0.09	107107	keystroke_i	i	n/a
53.8385	0.09	107677	keystroke_c	c	n/a
54.0485	0.09	108097	keystroke_a	a	n/a
54.2135	0.1195	108427	keystroke_t	t	n/a
54.363	0.075	108726	keystroke_e	e	n/a
54.543	0.105	109086	keystroke_d	d	n/a
54.6785	0.06	109357	keystroke_Key.space	Key.space	n/a
54.8135	0.09	109627	keystroke_p	p	n/a
54.9185	0.09	109837	keystroke_r	r	n/a
54.9935	0.15	109987	keystroke_i	i	n/a
55.0835	0.135	110167	keystroke_n	n	n/a
55.8635	0.135	111727	keystroke_c	c	n/a
55.9385	0.12	111877	keystroke_e	e	n/a
56.1185	0.09	112237	keystroke_Key.space	Key.space	n/a
56.3285	0.075	112657	keystroke_i	i	n/a
56.4485	0.075	112897	keystroke_s	s	n/a
56.5385	0.1195	113077	keystroke_l	l	n/a
56.673	0.075	113346	keystroke_e	e	n/a
56.778	0.09	113556	keystroke_Key.space	Key.space	n/a
57.108	0.015	114216	keystroke_e	e	n/a
57.393	0.075	114786	keystroke_Key.backspace	Key.backspace	n/a
57.528	0.105	115056	keystroke_s	s	n/a
57.603	0.09	115206	keystroke_p	p	n/a
57.753	0.09	115506	keystroke_e	e	n/a
58.098	0.09	116196	keystroke_c	c	n/a
58.173	0.09	116346	keystroke_i	i	n/a
58.308	0.1055	116616	keystroke_a	a	n/a
58.6835	0.105	117367	keystroke_l	l	n/a
58.9685	0.09	117937	keystroke_t	t	n/a
59.0735	0.09	118147	keystroke_y	y	n/a
59.2985	0.105	118597	keystroke_Key.enter	Key.enter	n/a
59.411	6.7435	118822	prompt	n/a	publicly week riverside level\n
60.0775	0.075	120155	keystroke_p	p	n/a
60.1535	0.074	120307	keystroke_r	r	n/a
60.2725	0.06	120545	keystroke_i	i	n/a
60.5575	0.06	121115	keystroke_Key.backspace	Key.backspace	n/a
60.9325	0.06	121865	keystroke_Key.backspace	Key.backspace	n/a
61.158	0.06	122316	keystroke_u	u	n/a
61.173	0.015	122346	keystroke_i	i	n/a
61.338	0.09	122676	keystroke_b	b	n/a
61.8185	0.0445	123637	keystroke_Key.backspace	Key.backspace	n/a
61.8785	0.06	123757	keystroke_Key.backspace	Key.backspace	n/a
62.118	0.06	124236	keystroke_b	b	n/a
62.298	0.135	124596	keystroke_l	l	n/a
62.358	0.105	124716	keystroke_i	i	n/a
62.763	0.0905	125526	keystroke_c	c	n/a
62.823	0.0755	125646	keystroke_i	i	n/a
63.033	0.09	126066	keystroke_t	t	n/a
63.138	0.09	126276	keystroke_y	y	n/a
63.288	0.09	126576	keystroke_Key.space	Key.space	n/a
63.453	0.105	126906	keystroke_w	w	n/a
63.513	0.06	127026	keystroke_e	e	n/a
63.633	0.0755	127266	keystroke_e	e	n/a
63.7235	0.104	127447	keystroke_k	k	n/a
63.8425	0.0755	127685	keystroke_Key.space	Key.space	n/a
64.038	0.075	128076	keystroke_r	r	n/a
64.098	0.06	128196	keystroke_i	i	n/a
64.293	0.09	128586	keystroke_v	v	n/a
64.473	0.075	128946	keystroke_e	e	n/a
64.518	0.09	129036	keystroke_r	r	n/a
64.833	0.075	129666	keystroke_s	s	n/a
64.893	0.09	129786	keystroke_i	i	n/a
64.998	0.045	129996	keystroke_d	d	n/a
65.1475	0.0455	130295	keystroke_e	e	n/a
65.2525	0.075	130505	keystroke_Key.space	Key.space	n/a
65.3725	0.09	130745	keystroke_l	l	n/a
65.4175	0.06	130835	keystroke_e	e	n/a
65.5975	0.105	131195	keystroke_v	v	n/a
65.6575	0.1055	131315	keystroke_e	e	n/a
65.778	0.0745	131556	keystroke_l	l	n/a
66.0775	0.075	132155	keystroke_Key.enter	Key.enter	n/a
66.159	4.676	132318	prompt	n/a	start print benefits abraham\n
66.7835	0.1345	133567	keystroke_s	s	n/a
66.903	0.0755	133806	keystroke_t	t	n/a
66.9935	0.1045	133987	keystroke_a	a	n/a
67.0685	0.0745	134137	keystroke_r	r	n/a
67.263	0.06	134526	keystroke_t	t	n/a
67.398	0.075	134796	keystroke_Key.space	Key.space	n/a
67.653	0.06	135306	keystroke_p	p	n/a
67.728	0.075	135456	keystroke_r	r	n/a
67.833	0.1055	135666	keystroke_i	i	n/a
67.893	0.1205	135786	keystroke_n	n	n/a
68.0285	0.09	136057	keystroke_t	t	n/a
68.1635	0.09	136327	keystroke_Key.space	Key.space	n/a
68.3735	0.075	136747	keystroke_b	b	n/a
68.4335	0.075	136867	keystroke_e	e	n/a
68.5535	0.09	137107	keystroke_n	n	n/a
68.6285	0.0895	137257	keystroke_e	e	n/a
68.853	0.075	137706	keystroke_f	f	n/a
68.943	0.075	137886	keystroke_i	i	n/a
69.033	0.15	138066	keystroke_t	t	n/a
69.168	0.12	138336	keystroke_s	s	n/a
69.288	0.09	138576	keystroke_Key.space	Key.space	n/a
69.498	0.075	138996	keystroke_a	a	n/a
69.588	0.09	139176	keystroke_b	b	n/a
69.873	0.1205	139746	keystroke_r	r	n/a
69.9485	0.12	139897	keystroke_a	a	n/a
70.3235	0.06	140647	keystroke_h	h	n/a
70.4285	0.0895	140857	keystroke_a	a	n/a
70.533	0.09	141066	keystroke_m	m	n/a
70.758	0.075	141516	keystroke_Key.enter	Key.enter	n/a
70.8415	6.278	141683	prompt	n/a	camp byte newcastle owners\n
71.5385	0.105	143077	keystroke_c	c	n/a
71.5835	0.105	143167	keystroke_a	a	n/a
71.7785	0.045	143557	keystroke_m	m	n/a
71.9435	0.0895	143887	keystroke_p	p	n/a
72.1085	0.09	144217	keystroke_Key.space	Key.space	n/a
72.4685	0.06	144937	keystroke_b	b	n/a
72.6335	0.06	145267	keystroke_y	y	n/a
73.0085	0.105	146017	keystroke_t	t	n/a
73.0835	0.045	146167	keystroke_e	e	n/a
73.4885	0.105	146977	keystroke_Key.space	Key.space	n/a
73.9085	0.09	147817	keystroke_n	n	n/a
73.9835	0.135	147967	keystroke_e	e	n/a
74.0435	0.135	148087	keystroke_w	w	n/a
74.2985	0.105	148597	keystroke_c	c	n/a
74.3585	0.15	148717	keystroke_a	a	n/a
74.4785	0.15	148957	keystroke_s	s	n/a
74.6735	0.135	149347	keystroke_t	t	n/a
74.7335	0.135	149467	keystroke_e	e	n/a
74.9135	0.12	149827	keystroke_l	l	n/a
75.2435	0.045	150487	keystroke_Key.backspace	Key.backspace	n/a
75.3485	0.075	150697	keystroke_Key.backspace	Key.backspace	n/a
75.5585	0.105	151117	keystroke_l	l	n/a
75.6485	0.09	151297	keystroke_e	e	n/a
75.7835	0.09	151567	keystroke_Key.space	Key.space	n/a
75.9485	0.09	151897	keystroke_o	o	n/a
76.0535	0.075	152107	keystroke_w	w	n/a
76.1435	0.09	152287	keystroke_n	n	n/a
76.338	0.075	152676	keystroke_s	s	n/a
76.6685	0.06	153337	keystroke_Key.backspace	Key.backspace	n/a
76.7435	0.075	153487	keystroke_e	e	n/a
76.7735	0.075	153547	keystroke_r	r	n/a
76.9085	0.105	153817	keystroke_s	s	n/a
77.0285	0.09	154057	keystroke_Key.enter	Key.enter	n/a
77.123	5.8315	154246	prompt	n/a	pdas promotional downloads scratch\n
77.823	0.09	155646	keystroke_p	p	n/a
78.273	0.09	156546	keystroke_d	d	n/a
78.333	0.12	156666	keystroke_a	a	n/a
78.588	0.075	157176	keystroke_s	s	n/a
78.828	0.0755	157656	keystroke_Key.space	Key.space	n/a
79.0085	0.075	158017	keystroke_p	p	n/a
79.0985	0.075	158197	keystroke_r	r	n/a
79.1585	0.075	158317	keystroke_o	o	n/a
79.3685	0.105	158737	keystroke_m	m	n/a
79.4585	0.15	158917	keystroke_o	o	n/a
79.7285	0.09	159457	keystroke_t	t	n/a
79.8035	0.135	159607	keystroke_i	i	n/a
79.8485	0.12	159697	keystroke_o	o	n/a
79.9085	0.105	159817	keystroke_n	n	n/a
80.0435	0.12	160087	keystroke_a	a	n/a
80.1335	0.135	160267	keystroke_l	l	n/a
80.2535	0.105	160507	keystroke_Key.space	Key.space	n/a
80.4635	0.06	160927	keystroke_d	d	n/a
80.5235	0.09	161047	keystroke_o	o	n/a
80.6285	0.0745	161257	keystroke_w	w	n/a
80.688	0.105	161376	keystroke_n	n	n/a
80.898	0.076	161796	keystroke_l	l	n/a
81.033	0.105	162066	keystroke_o	o	n/a
81.108	0.12	162216	keystroke_a	a	n/a
81.213	0.165	162426	keystroke_d	d	n/a
81.318	0.165	162636	keystroke_s	s	n/a
81.528	0.06	163056	keystroke_Key.space	Key.space	n/a
81.678	0.12	163356	keystroke_s	s	n/a
81.813	0.075	163626	keystroke_c	c	n/a
81.993	0.105	163986	keystroke_r	r	n/a
82.083	0.105	164166	keystroke_a	a	n/a
82.398	0.06	164796	keystroke_t	t	n/a
82.608	0.09	165216	keystroke_c	c	n/a
82.683	0.075	165366	keystroke_h	h	n/a
82.8785	0.0745	165757	keystroke_Key.enter	Key.enter	n/a
82.9575	5.457	165915	prompt	n/a	wright defence fridge body\n
83.688	0.09	167376	keystroke_w	w	n/a
83.718	0.105	167436	keystroke_r	r	n/a
83.838	0.1055	167676	keystroke_i	i	n/a
84.0785	0.06	168157	keystroke_g	g	n/a
84.1535	0.074	168307	keystroke_h	h	n/a
84.2135	0.075	168427	keystroke_t	t	n/a
84.333	0.075	168666	keystroke_Key.space	Key.space	n/a
84.453	0.075	168906	keystroke_d	d	n/a
84.618	0.06	169236	keystroke_e	e	n/a
84.948	0.06	169896	keystroke_f	f	n/a
84.993	0.09	169986	keystroke_e	e	n/a
85.203	0.09	170406	keystroke_n	n	n/a
85.338	0.105	170676	keystroke_c	c	n/a
85.383	0.12	170766	keystroke_e	e	n/a
85.548	0.09	171096	keystroke_Key.space	Key.space	n/a
86.043	0.12	172086	keystroke_f	f	n/a
86.118	0.105	172236	keystroke_r	r	n/a
86.238	0.09	172476	keystroke_i	i	n/a
86.418	0.06	172836	keystroke_e	e	n/a
86.7785	0.059	173557	keystroke_Key.backspace	Key.backspace	n/a
87.273	0.06	174546	keystroke_d	d	n/a
87.468	0.105	174936	keystroke_g	g	n/a
87.498	0.15	174996	keystroke_e	e	n/a
87.663	0.075	175326	keystroke_Key.space	Key.space	n/a
87.858	0.09	175716	keystroke_b	b	n/a
87.933	0.09	175866	keystroke_o	o	n/a
88.068	0.09	176136	keystroke_d	d	n/a
88.173	0.075	176346	keystroke_y	y	n/a
88.323	0.09	176646	keystroke_Key.enter	Key.enter	n/a
88.417	5.0675	176834	prompt	n/a	they'd trains masters homes\n
89.118	0.105	178236	keystroke_t	t	n/a
89.298	0.09	178596	keystroke_h	h	n/a
89.403	0.09	178806	keystroke_e	e	n/a
89.508	0.075	179016	keystroke_y	y	n/a
89.8085	0.105	179617	keystroke_'	'	n/a
89.9435	0.075	179887	keystroke_d	d	n/a
90.0485	0.105	180097	keystroke_Key.space	Key.space	n/a
90.3335	0.03	180667	keystroke_r	r	n/a
90.6485	0.0745	181297	keystroke_Key.backspace	Key.backspace	n/a
90.708	0.06	181416	keystroke_t	t	n/a
90.873	0.09	181746	keystroke_r	r	n/a
90.948	0.12	181896	keystroke_a	a	n/a
91.038	0.1355	182076	keystroke_i	i	n/a
91.098	0.1505	182196	keystroke_n	n	n/a
91.2485	0.105	182497	keystroke_s	s	n/a
91.3685	0.075	182737	keystroke_Key.space	Key.space	n/a
91.5185	0.105	183037	keystroke_m	m	n/a
91.5935	0.105	183187	keystroke_a	a	n/a
91.6535	0.105	183307	keystroke_s	s	n/a
91.8485	0.075	183697	keystroke_t	t	n/a
91.9835	0.075	183967	keystroke_e	e	n/a
92.0435	0.09	184087	keystroke_r	r	n/a
92.1635	0.09	184327	keystroke_Key.space	Key.space	n/a
92.5235	0.075	185047	keystroke_Key.backspace	Key.backspace	n/a
92.6435	0.075	185287	keystroke_s	s	n/a
92.7635	0.09	185527	keystroke_Key.space	Key.space	n/a
92.8685	0.09	185737	keystroke_h	h	n/a
92.9135	0.105	185827	keystroke_o	o	n/a
93.0785	0.135	186157	keystroke_m	m	n/a
93.1985	0.12	186397	keystroke_e	e	n/a
93.2585	0.12	186517	keystroke_s	s	n/a
93.4085	0.075	186817	keystroke_Key.enter	Key.enter	n/a
93.4875	5.187	186975	prompt	n/a	attractions benefits cleaner rats\n
94.0835	0.09	188167	keystroke_a	a	n/a
94.3085	0.03	188617	keystroke_t	t	n/a
94.3985	0.075	188797	keystroke_t	t	n/a
94.5335	0.09	189067	keystroke_r	r	n/a
94.6385	0.135	189277	keystroke_a	a	n/a
94.7585	0.09	189517	keystroke_c	c	n/a
94.968	0.06	189936	keystroke_t	t	n/a
95.058	0.135	190116	keystroke_i	i	n/a
95.118	0.105	190236	keystroke_o	o	n/a
95.148	0.18	190296	keystroke_n	n	n/a
95.313	0.105	190626	keystroke_s	s	n/a
95.448	0.075	190896	keystroke_Key.space	Key.space	n/a
95.598	0.075	191196	keystroke_b	b	n/a
95.658	0.075	191316	keystroke_e	e	n/a
95.778	0.105	191556	keystroke_n	n	n/a
95.884	0.074	191768	keystroke_e	e	n/a
96.108	0.09	192216	keystroke_f	f	n/a
96.183	0.09	192366	keystroke_i	i	n/a
96.408	0.12	192816	keystroke_t	t	n/a
96.483	0.1655	192966	keystroke_s	s	n/a
96.633	0.0905	193266	keystroke_Key.space	Key.space	n/a
96.9185	0.09	193837	keystroke_c	c	n/a
96.9785	0.12	193957	keystroke_l	l	n/a
97.1285	0.12	194257	keystroke_e	e	n/a
97.2035	0.135	194407	keystroke_a	a	n/a
97.3535	0.09	194707	keystroke_n	n	n/a
97.5635	0.075	195127	keystroke_e	e	n/a
97.6085	0.09	195217	keystroke_r	r	n/a
97.863	0.105	195726	keystroke_Key.space	Key.space	n/a
98.088	0.12	196176	keystroke_r	r	n/a
98.163	0.12	196326	keystroke_a	a	n/a
98.298	0.135	196596	keystroke_t	t	n/a
98.403	0.135	196806	keystroke_s	s	n/a
98.568	0.105	197136	keystroke_Key.enter	Key.enter	n/a
98.679	7.3905	197358	prompt	n/a	though indicated employees introduces\n
99.393	0.045	198786	keystroke_t	t	n/a
99.408	0.06	198816	keystroke_h	h	n/a
99.498	0.135	198996	keystroke_o	o	n/a
99.558	0.105	199116	keystroke_u	u	n/a
99.708	0.105	199416	keystroke_g	g	n/a
99.783	0.105	199566	keystroke_h	h	n/a
99.903	0.105	199806	keystroke_Key.space	Key.space	n/a
100.023	0.135	200046	keystroke_i	i	n/a
100.053	0.15	200106	keystroke_n	n	n/a
100.293	0.075	200586	keystroke_d	d	n/a
100.383	0.105	200766	keystroke_i	i	n/a
100.548	0.09	201096	keystroke_c	c	n/a
100.698	0.105	201396	keystroke_a	a	n/a
100.878	0.15	201756	keystroke_t	t	n/a
101.043	0.075	202086	keystroke_e	e	n/a
101.253	0.09	202506	keystroke_d	d	n/a
101.418	0.09	202836	keystroke_Key.space	Key.space	n/a
101.673	0.09	203346	keystroke_e	e	n/a
101.748	0.09	203496	keystroke_m	m	n/a
101.958	0.09	203916	keystroke_p	p	n/a
102.033	0.12	204066	keystroke_o	o	n/a
102.528	0.06	205056	keystroke_Key.backspace	Key.backspace	n/a
102.723	0.075	205446	keystroke_l	l	n/a
102.873	0.06	205746	keystroke_o	o	n/a
102.963	0.12	205926	keystroke_y	y	n/a
103.278	0.06	206556	keystroke_e	e	n/a
103.428	0.045	206856	keystroke_e	e	n/a
103.578	0.12	207156	keystroke_s	s	n/a
103.743	0.09	207486	keystroke_Key.space	Key.space	n/a
103.8935	0.1345	207787	keystroke_i	i	n/a
103.953	0.135	207906	keystroke_n	n	n/a
104.073	0.12	208146	keystroke_s	s	n/a
104.433	0.075	208866	keystroke_Key.backspace	Key.backspace	n/a
104.538	0.03	209076	keystroke_t	t	n/a
104.688	0.075	209376	keystroke_r	r	n/a
104.703	0.12	209406	keystroke_o	o	n/a
105.318	0.045	210636	keystroke_d	d	n/a
105.378	0.09	210756	keystroke_u	u	n/a
105.513	0.075	211026	keystroke_c	c	n/a
105.723	0.075	211446	keystroke_e	e	n/a
105.753	0.135	211506	keystroke_s	s	n/a
105.978	0.09	211956	keystroke_Key.enter	Key.enter	n/a
106.073	4.8865	212146	prompt	n/a	dominant blood vermont recent\n
106.6985	0.075	213397	keystroke_d	d	n/a
106.7585	0.104	213517	keystroke_o	o	n/a
106.7875	0.106	213575	keystroke_m	m	n/a
106.9385	0.12	213877	keystroke_a	a	n/a
107.2975	0.075	214595	keystroke_Key.backspace	Key.backspace	n/a
107.4935	0.119	214987	keystroke_i	i	n/a
107.5385	0.119	215077	keystroke_n	n	n/a
107.6875	0.105	215375	keystroke_a	a	n/a
107.7775	0.121	215555	keystroke_n	n	n/a
107.9125	0.09	215825	keystroke_t	t	n/a
108.0175	0.105	216035	keystroke_Key.space	Key.space	n/a
108.3625	0.075	216725	keystroke_b	b	n/a
108.4085	0.09	216817	keystroke_l	l	n/a
108.5735	0.059	217147	keystroke_o	o	n/a
108.7085	0.104	217417	keystroke_o	o	n/a
108.8285	0.089	217657	keystroke_d	d	n/a
108.9325	0.1055	217865	keystroke_Key.space	Key.space	n/a
109.128	0.0605	218256	keystroke_v	v	n/a
109.278	0.075	218556	keystroke_e	e	n/a
109.308	0.105	218616	keystroke_r	r	n/a
109.623	0.075	219246	keystroke_m	m	n/a
109.713	0.105	219426	keystroke_o	o	n/a
109.788	0.12	219576	keystroke_n	n	n/a
109.923	0.105	219846	keystroke_t	t	n/a
110.088	0.105	220176	keystroke_Key.space	Key.space	n/a
110.253	0.09	220506	keystroke_r	r	n/a
110.298	0.09	220596	keystroke_e	e	n/a
110.478	0.09	220956	keystroke_c	c	n/a
110.553	0.1045	221106	keystroke_e	e	n/a
110.6585	0.089	221317	keystroke_n	n	n/a
110.7625	0.09	221525	keystroke_t	t	n/a
110.8675	0.09	221735	keystroke_Key.enter	Key.enter	n/a
110.9625	7.842	221925	prompt	n/a	unlimited intro carmen we'd've\n
111.6925	0.09	223385	keystroke_u	u	n/a
111.7375	0.105	223475	keystroke_n	n	n/a
111.9025	0.12	223805	keystroke_l	l	n/a
111.9775	0.105	223955	keystroke_i	i	n/a
112.1275	0.135	224255	keystroke_m	m	n/a
112.3225	0.1355	224645	keystroke_i	i	n/a
112.698	0.135	225396	keystroke_t	t	n/a
112.788	0.06	225576	keystroke_e	e	n/a
112.9375	0.09	225875	keystroke_d	d	n/a
113.0725	0.075	226145	keystroke_Key.space	Key.space	n/a
113.2075	0.105	226415	keystroke_i	i	n/a
113.2375	0.12	226475	keystroke_n	n	n/a
113.4025	0.075	226805	keystroke_t	t	n/a
113.5675	0.06	227135	keystroke_r	r	n/a
113.6585	0.089	227317	keystroke_o	o	n/a
113.7925	0.105	227585	keystroke_Key.space	Key.space	n/a
114.0475	0.076	228095	keystroke_c	c	n/a
114.1375	0.12	228275	keystroke_a	a	n/a
114.2425	0.075	228485	keystroke_r	r	n/a
114.3475	0.09	228695	keystroke_m	m	n/a
114.4685	0.074	228937	keystroke_e	e	n/a
114.5575	0.121	229115	keystroke_n	n	n/a
114.6635	0.105	229327	keystroke_Key.space	Key.space	n/a
114.9635	0.12	229927	keystroke_w	w	n/a
115.0385	0.06	230077	keystroke_e	e	n/a
115.6085	0.0895	231217	keystroke_'	'	n/a
115.833	0.12	231666	keystroke_v	v	n/a
115.878	0.12	231756	keystroke_e	e	n/a
116.628	0.06	233256	keystroke_Key.backspace	Key.backspace	n/a
116.763	0.075	233526	keystroke_Key.backspace	Key.backspace	n/a
118.1735	0.06	236347	keystroke_d	d	n/a
118.2935	0.105	236587	keystroke_'	'	n/a
118.4285	0.135	236857	keystroke_v	v	n/a
118.5035	0.12	237007	keystroke_e	e	n/a
118.7285	0.075	237457	keystroke_Key.enter	Key.enter	n/a
118.8095	4.8405	237619	prompt	n/a	segments matter views fair\n
119.4185	0.09	238837	keystroke_s	s	n/a
119.5985	0.06	239197	keystroke_e	e	n/a
119.958	0.09	239916	keystroke_g	g	n/a
120.093	0.09	240186	keystroke_m	m	n/a
120.198	0.06	240396	keystroke_e	e	n/a
120.259	0.104	240518	keystroke_n	n	n/a
120.408	0.12	240816	keystroke_t	t	n/a
120.483	0.12	240966	keystroke_s	s	n/a
120.573	0.0905	241146	keystroke_Key.space	Key.space	n/a
120.7085	0.1045	241417	keystroke_m	m	n/a
120.783	0.09	241566	keystroke_a	a	n/a
120.948	0.06	241896	keystroke_t	t	n/a
121.068	0.09	242136	keystroke_t	t	n/a
121.263	0.12	242526	keystroke_e	e	n/a
121.323	0.135	242646	keystroke_w	w	n/a
121.563	0.105	243126	keystroke_Key.space	Key.space	n/a
121.923	0.075	243846	keystroke_v	v	n/a
122.043	0.105	244086	keystroke_i	i	n/a
122.118	0.12	244236	keystroke_e	e	n/a
122.178	0.105	244356	keystroke_w	w	n/a
122.343	0.09	244686	keystroke_s	s	n/a
122.448	0.1055	244896	keystroke_Key.space	Key.space	n/a
122.5385	0.1195	245077	keystroke_f	f	n/a
122.6285	0.1645	245257	keystroke_a	a	n/a
122.778	0.105	245556	keystroke_r	r	n/a
122.868	0.09	245736	keystroke_i	i	n/a
123.093	0.045	246186	keystroke_Key.backspace	Key.backspace	n/a
123.213	0.045	246426	keystroke_Key.backspace	Key.backspace	n/a
123.378	0.09	246756	keystroke_i	i	n/a
123.483	0.06	246966	keystroke_r	r	n/a
123.573	0.075	247146	keystroke_Key.enter	Key.enter	n/a
123.6525	10.4675	247305	prompt	n/a	transcription prague minute fixtures\n
124.233	0.075	248466	keystroke_t	t	n/a
124.368	0.09	248736	keystroke_r	r	n/a
124.443	0.135	248886	keystroke_a	a	n/a
124.488	0.105	248976	keystroke_n	n	n/a
124.6685	0.03	249337	keystroke_s	s	n/a
124.6835	0.06	249367	keystroke_a	a	n/a
125.1785	0.0595	250357	keystroke_Key.backspace	Key.backspace	n/a
125.523	0.12	251046	keystroke_s	s	n/a
125.598	0.105	251196	keystroke_c	c	n/a
125.763	0.075	251526	keystroke_i	i	n/a
125.868	0.12	251736	keystroke_r	r	n/a
126.153	0.06	252306	keystroke_Key.backspace	Key.backspace	n/a
126.273	0.075	252546	keystroke_Key.backspace	Key.backspace	n/a
127.1285	0.075	254257	keystroke_Key.backspace	Key.backspace	n/a
127.683	0.075	255366	keystroke_Key.backspace	Key.backspace	n/a
128.4185	0.075	256837	keystroke_c	c	n/a
128.6285	0.075	257257	keystroke_r	r	n/a
128.7185	0.15	257437	keystroke_i	i	n/a
128.7785	0.15	257557	keystroke_p	p	n/a
128.9585	0.105	257917	keystroke_t	t	n/a
129.1235	0.135	258247	keystroke_i	i	n/a
129.1835	0.1495	258367	keystroke_o	o	n/a
129.288	0.18	258576	keystroke_n	n	n/a
129.483	0.105	258966	keystroke_Key.space	Key.space	n/a
129.603	0.225	259206	keystroke_p	p	n/a
129.783	0.135	259566	keystroke_r	r	n/a
129.903	0.135	259806	keystroke_a	a	n/a
130.128	0.12	260256	keystroke_g	g	n/a
130.308	0.105	260616	keystroke_u	u	n/a
130.398	0.12	260796	keystroke_e	e	n/a
130.7735	0.105	261547	keystroke_Key.space	Key.space	n/a
131.2535	0.09	262507	keystroke_m	m	n/a
131.3585	0.105	262717	keystroke_i	i	n/a
131.4185	0.09	262837	keystroke_n	n	n/a
131.5535	0.165	263107	keystroke_u	u	n/a
131.6435	0.135	263287	keystroke_t	t	n/a
131.7185	0.09	263437	keystroke_e	e	n/a
131.8535	0.09	263707	keystroke_Key.space	Key.space	n/a
132.498	0.075	264996	keystroke_f	f	n/a
132.558	0.135	265116	keystroke_i	i	n/a
132.978	0.105	265956	keystroke_x	x	n/a
133.293	0.1055	266586	keystroke_t	t	n/a
133.4735	0.105	266947	keystroke_u	u	n/a
133.5485	0.15	267097	keystroke_r	r	n/a
133.6385	0.18	267277	keystroke_e	e	n/a
133.7585	0.195	267517	keystroke_s	s	n/a
134.0135	0.105	268027	keystroke_Key.enter	Key.enter	n/a
134.124	10.1955	268248	prompt	n/a	conclusion redeem neural wait\n
134.8385	0.105	269677	keystroke_c	c	n/a
134.9135	0.12	269827	keystroke_o	o	n/a
134.9585	0.105	269917	keystroke_n	n	n/a
135.1235	0.09	270247	keystroke_f	f	n/a
135.5285	0.075	271057	keystroke_Key.backspace	Key.backspace	n/a
135.6335	0.12	271267	keystroke_c	c	n/a
135.7685	0.12	271537	keystroke_l	l	n/a
135.8285	0.135	271657	keystroke_u	u	n/a
136.0235	0.105	272047	keystroke_s	s	n/a
136.1285	0.105	272257	keystroke_i	i	n/a
136.2485	0.105	272497	keystroke_s	s	n/a
136.3835	0.135	272767	keystroke_o	o	n/a
136.4735	0.06	272947	keystroke_n	n	n/a
136.7285	0.045	273457	keystroke_Key.backspace	Key.backspace	n/a
136.8785	0.045	273757	keystroke_Key.backspace	Key.backspace	n/a
137.0135	0.06	274027	keystroke_Key.backspace	Key.backspace	n/a
137.3885	0.0895	274777	keystroke_Key.backspace	Key.backspace	n/a
138.813	0.12	277626	keystroke_o	o	n/a
138.858	0.135	277716	keystroke_n	n	n/a
139.2485	0.0445	278497	keystroke_Key.backspace	Key.backspace	n/a
139.368	0.075	278736	keystroke_Key.backspace	Key.backspace	n/a
139.608	0.105	279216	keystroke_i	i	n/a
139.653	0.105	279306	keystroke_o	o	n/a
139.743	0.195	279486	keystroke_n	n	n/a
139.939	0.119	279878	keystroke_Key.space	Key.space	n/a
140.5985	0.1045	281197	keystroke_r	r	n/a
140.6585	0.0895	281317	keystroke_e	e	n/a
140.898	0.075	281796	keystroke_d	d	n/a
141.0785	0.045	282157	keystroke_e	e	n/a
141.1535	0.0445	282307	keystroke_m	m	n/a
141.3035	0.0745	282607	keystroke_m	m	n/a
141.648	0.0455	283296	keystroke_Key.backspace	Key.backspace	n/a
141.7535	0.0745	283507	keystroke_Key.backspace	Key.backspace	n/a
141.933	0.075	283866	keystroke_e	e	n/a
142.068	0.1205	284136	keystroke_m	m	n/a
142.2185	0.1045	284437	keystroke_Key.space	Key.space	n/a
142.578	0.1055	285156	keystroke_n	n	n/a
142.7575	0.105	285515	keystroke_e	e	n/a
142.908	0.106	285816	keystroke_u	u	n/a
143.073	0.0895	286146	keystroke_r	r	n/a
143.313	0.1045	286626	keystroke_a	a	n/a
143.4325	0.105	286865	keystroke_l	l	n/a
143.583	0.105	287166	keystroke_Key.space	Key.space	n/a
143.778	0.135	287556	keystroke_w	w	n/a
143.854	0.104	287708	keystroke_a	a	n/a
143.943	0.12	287886	keystroke_i	i	n/a
144.093	0.105	288186	keystroke_t	t	n/a
144.183	0.135	288366	keystroke_Key.enter	Key.enter	n/a
144.322	5.2775	288644	prompt	n/a	crowd station has enhanced\n
144.918	0.075	289836	keystroke_c	c	n/a
144.978	0.105	289956	keystroke_o	o	n/a
145.113	0.12	290226	keystroke_w	w	n/a
145.489	0.059	290978	keystroke_Key.backspace	Key.backspace	n/a
145.623	0.0755	291246	keystroke_Key.backspace	Key.backspace	n/a
145.7735	0.09	291547	keystroke_r	r	n/a
145.8785	0.12	291757	keystroke_o	o	n/a
145.9835	0.09	291967	keystroke_w	w	n/a
146.1935	0.105	292387	keystroke_d	d	n/a
146.3885	0.12	292777	keystroke_Key.space	Key.space	n/a
146.5685	0.09	293137	keystroke_s	s	n/a
146.7335	0.075	293467	keystroke_t	t	n/a
146.9135	0.075	293827	keystroke_a	a	n/a
147.0935	0.09	294187	keystroke_t	t	n/a
147.1685	0.12	294337	keystroke_i	i	n/a
147.2285	0.15	294457	keystroke_o	o	n/a
147.2735	0.18	294547	keystroke_n	n	n/a
147.4235	0.09	294847	keystroke_Key.space	Key.space	n/a
147.543	0.135	295086	keystroke_h	h	n/a
147.633	0.12	295266	keystroke_a	a	n/a
147.708	0.12	295416	keystroke_s	s	n/a
147.843	0.075	295686	keystroke_Key.space	Key.space	n/a
147.948	0.075	295896	keystroke_e	e	n/a
148.008	0.09	296016	keystroke_n	n	n/a
148.143	0.105	296286	keystroke_c	c	n/a
148.308	0.09	296616	keystroke_h	h	n/a
148.578	0.045	297156	keystroke_Key.backspace	Key.backspace	n/a
148.668	0.075	297336	keystroke_Key.backspace	Key.backspace	n/a
148.833	0.12	297666	keystroke_h	h	n/a
148.968	0.075	297936	keystroke_a	a	n/a
149.028	0.09	298056	keystroke_n	n	n/a
149.133	0.1055	298266	keystroke_c	c	n/a
149.1785	0.12	298357	keystroke_e	e	n/a
149.3735	0.105	298747	keystroke_d	d	n/a
149.4935	0.105	298987	keystroke_Key.enter	Key.enter	n/a
149.603	6.597	299206	prompt	n/a	recipients prepared yahoo configured\n
150.3035	0.105	300607	keystroke_r	r	n/a
150.3635	0.105	300727	keystroke_e	e	n/a
150.5735	0.104	301147	keystroke_c	c	n/a
150.6625	0.091	301325	keystroke_i	i	n/a
150.9185	0.075	301837	keystroke_p	p	n/a
151.0985	0.105	302197	keystroke_i	i	n/a
151.3535	0.03	302707	keystroke_t	t	n/a
151.6685	0.06	303337	keystroke_Key.backspace	Key.backspace	n/a
151.7435	0.075	303487	keystroke_e	e	n/a
151.8785	0.105	303757	keystroke_n	n	n/a
151.9685	0.135	303937	keystroke_t	t	n/a
152.0435	0.135	304087	keystroke_s	s	n/a
152.1485	0.105	304297	keystroke_Key.space	Key.space	n/a
152.3885	0.1055	304777	keystroke_p	p	n/a
152.613	0.135	305226	keystroke_r	r	n/a
152.688	0.105	305376	keystroke_e	e	n/a
152.9885	0.09	305977	keystroke_p	p	n/a
153.0935	0.105	306187	keystroke_a	a	n/a
153.2585	0.12	306517	keystroke_r	r	n/a
153.3185	0.09	306637	keystroke_e	e	n/a
153.4835	0.09	306967	keystroke_d	d	n/a
153.5885	0.075	307177	keystroke_Key.space	Key.space	n/a
153.6785	0.09	307357	keystroke_h	h	n/a
153.978	0.06	307956	keystroke_Key.backspace	Key.backspace	n/a
154.159	0.074	308318	keystroke_y	y	n/a
154.263	0.105	308526	keystroke_a	a	n/a
154.353	0.09	308706	keystroke_h	h	n/a
154.428	0.09	308856	keystroke_o	o	n/a
154.578	0.1205	309156	keystroke_o	o	n/a
154.7585	0.12	309517	keystroke_Key.space	Key.space	n/a
154.9985	0.09	309997	keystroke_c	c	n/a
155.0735	0.09	310147	keystroke_o	o	n/a
155.1035	0.09	310207	keystroke_n	n	n/a
155.2535	0.09	310507	keystroke_f	f	n/a
155.3285	0.09	310657	keystroke_i	i	n/a
155.583	0.09	311166	keystroke_g	g	n/a
155.688	0.105	311376	keystroke_u	u	n/a
155.778	0.09	311556	keystroke_r	r	n/a
155.838	0.06	311676	keystroke_e	e	n/a
155.973	0.0905	311946	keystroke_d	d	n/a
156.1085	0.09	312217	keystroke_Key.enter	Key.enter	n/a
156.2045	4.6905	312409	prompt	n/a	array nurse national accused\n
156.813	0.105	313626	keystroke_a	a	n/a
156.873	0.06	313746	keystroke_r	r	n/a
156.993	0.0755	313986	keystroke_r	r	n/a
157.1435	0.105	314287	keystroke_a	a	n/a
157.2635	0.09	314527	keystroke_y	y	n/a
157.3685	0.105	314737	keystroke_Key.space	Key.space	n/a
157.5485	0.105	315097	keystroke_n	n	n/a
157.6685	0.1205	315337	keystroke_u	u	n/a
157.7735	0.09	315547	keystroke_r	r	n/a
157.908	0.105	315816	keystroke_s	s	n/a
157.968	0.135	315936	keystroke_e	e	n/a
158.118	0.09	316236	keystroke_Key.space	Key.space	n/a
158.298	0.09	316596	keystroke_n	n	n/a
158.373	0.09	316746	keystroke_a	a	n/a
158.538	0.105	317076	keystroke_t	t	n/a
158.583	0.135	317166	keystroke_i	i	n/a
158.673	0.075	317346	keystroke_o	o	n/a
158.688	0.105	317376	keystroke_n	n	n/a
158.838	0.12	317676	keystroke_a	a	n/a
158.913	0.135	317826	keystroke_l	l	n/a
159.018	0.105	318036	keystroke_Key.space	Key.space	n/a
159.258	0.135	318516	keystroke_a	a	n/a
159.363	0.075	318726	keystroke_c	c	n/a
159.483	0.09	318966	keystroke_c	c	n/a
159.633	0.09	319266	keystroke_u	u	n/a
159.753	0.09	319506	keystroke_e	e	n/a
159.948	0.03	319896	keystroke_d	d	n/a
160.2635	0.06	320527	keystroke_Key.backspace	Key.backspace	n/a
160.3985	0.075	320797	keystroke_Key.backspace	Key.backspace	n/a
160.4885	0.09	320977	keystroke_s	s	n/a
160.5485	0.075	321097	keystroke_e	e	n/a
160.698	0.09	321396	keystroke_d	d	n/a
160.803	0.09	321606	keystroke_Key.enter	Key.enter	n/a
160.8975	4.497	321795	prompt	n/a	songs importance none many\n
161.478	0.09	322956	keystroke_s	s	n/a
161.553	0.09	323106	keystroke_o	o	n/a
161.569	0.164	323138	keystroke_n	n	n/a
161.673	0.165	323346	keystroke_g	g	n/a
161.748	0.15	323496	keystroke_s	s	n/a
161.868	0.105	323736	keystroke_Key.space	Key.space	n/a
161.988	0.135	323976	keystroke_i	i	n/a
162.078	0.105	324156	keystroke_m	m	n/a
162.168	0.12	324336	keystroke_p	p	n/a
162.228	0.15	324456	keystroke_o	o	n/a
162.333	0.06	324666	keystroke_r	r	n/a
162.468	0.09	324936	keystroke_t	t	n/a
162.618	0.0755	325236	keystroke_a	a	n/a
162.7085	0.105	325417	keystroke_n	n	n/a
162.7985	0.09	325597	keystroke_t	t	n/a
163.2785	0.06	326557	keystroke_Key.backspace	Key.backspace	n/a
163.504	0.12	327008	keystroke_c	c	n/a
163.579	0.105	327158	keystroke_e	e	n/a
163.698	0.106	327396	keystroke_Key.space	Key.space	n/a
164.028	0.091	328056	keystroke_n	n	n/a
164.104	0.089	328208	keystroke_o	o	n/a
164.179	0.105	328358	keystroke_n	n	n/a
164.299	0.105	328598	keystroke_e	e	n/a
164.449	0.09	328898	keystroke_Key.space	Key.space	n/a
164.659	0.119	329318	keystroke_m	m	n/a
164.928	0.076	329856	keystroke_a	a	n/a
165.019	0.119	330038	keystroke_n	n	n/a
165.154	0.105	330308	keystroke_y	y	n/a
165.288	0.105	330576	keystroke_Key.enter	Key.enter	n/a
165.397	6.103	330794	prompt	n/a	hills provided concert promise\n
166.1735	0.135	332347	keystroke_h	h	n/a
166.2485	0.12	332497	keystroke_i	i	n/a
166.2935	0.105	332587	keystroke_l	l	n/a
166.4585	0.15	332917	keystroke_l	l	n/a
166.5935	0.105	333187	keystroke_s	s	n/a
166.7735	0.1045	333547	keystroke_Key.space	Key.space	n/a
166.953	0.06	333906	keystroke_p	p	n/a
167.028	0.075	334056	keystroke_r	r	n/a
167.103	0.09	334206	keystroke_o	o	n/a
167.7485	0.09	335497	keystroke_v	v	n/a
167.8085	0.075	335617	keystroke_i	i	n/a
167.9435	0.06	335887	keystroke_d	d	n/a
168.123	0.045	336246	keystroke_e	e	n/a
168.303	0.06	336606	keystroke_d	d	n/a
168.4235	0.09	336847	keystroke_Key.space	Key.space	n/a
168.7835	0.09	337567	keystroke_c	c	n/a
168.8585	0.09	337717	keystroke_o	o	n/a
168.9035	0.12	337807	keystroke_n	n	n/a
169.2935	0.09	338587	keystroke_c	c	n/a
169.4735	0.06	338947	keystroke_e	e	n/a
169.5035	0.105	339007	keystroke_r	r	n/a
169.6235	0.09	339247	keystroke_y	y	n/a
170.0285	0.075	340057	keystroke_Key.backspace	Key.backspace	n/a
170.1185	0.0905	340237	keystroke_t	t	n/a
170.298	0.075	340596	keystroke_Key.space	Key.space	n/a
170.658	0.06	341316	keystroke_p	p	n/a
170.733	0.075	341466	keystroke_r	r	n/a
170.823	0.09	341646	keystroke_o	o	n/a
171.048	0.09	342096	keystroke_m	m	n/a
171.108	0.15	342216	keystroke_i	i	n/a
171.213	0.121	342426	keystroke_s	s	n/a
171.288	0.105	342576	keystroke_e	e	n/a
171.408	0.09	342816	keystroke_Key.enter	Key.enter	n/a
171.503	7.647	343006	prompt	n/a	promotion paperbacks video guilty\n
172.174	0.074	344348	keystroke_p	p	n/a
172.233	0.075	344466	keystroke_r	r	n/a
172.309	0.074	344618	keystroke_o	o	n/a
172.488	0.09	344976	keystroke_m	m	n/a
172.608	0.075	345216	keystroke_i	i	n/a
172.9835	0.06	345967	keystroke_Key.backspace	Key.backspace	n/a
173.1635	0.075	346327	keystroke_o	o	n/a
173.2985	0.09	346597	keystroke_t	t	n/a
173.3585	0.105	346717	keystroke_i	i	n/a
173.4485	0.12	346897	keystroke_o	o	n/a
173.4935	0.165	346987	keystroke_n	n	n/a
173.9435	0.09	347887	keystroke_Key.space	Key.space	n/a
174.1085	0.105	348217	keystroke_p	p	n/a
174.1835	0.105	348367	keystroke_a	a	n/a
174.4685	0.09	348937	keystroke_p	p	n/a
174.5735	0.075	349147	keystroke_e	e	n/a
174.6185	0.0895	349237	keystroke_r	r	n/a
174.873	0.06	349746	keystroke_b	b	n/a
174.993	0.105	349986	keystroke_a	a	n/a
175.023	0.09	350046	keystroke_c	c	n/a
175.128	0.105	350256	keystroke_k	k	n/a
175.248	0.09	350496	keystroke_s	s	n/a
175.368	0.09	350736	keystroke_Key.space	Key.space	n/a
175.548	0.075	351096	keystroke_v	v	n/a
175.608	0.105	351216	keystroke_i	i	n/a
175.728	0.06	351456	keystroke_d	d	n/a
175.893	0.045	351786	keystroke_e	e	n/a
176.253	0.075	352506	keystroke_o	o	n/a
176.433	0.105	352866	keystroke_Key.space	Key.space	n/a
176.7335	0.075	353467	keystroke_g	g	n/a
176.7935	0.105	353587	keystroke_u	u	n/a
176.8535	0.165	353707	keystroke_i	i	n/a
177.0335	0.12	354067	keystroke_t	t	n/a
177.7685	0.06	355537	keystroke_Key.backspace	Key.backspace	n/a
178.0535	0.0895	356107	keystroke_l	l	n/a
178.6385	0.0595	357277	keystroke_t	t	n/a
178.743	0.075	357486	keystroke_y	y	n/a
179.073	0.075	358146	keystroke_Key.enter	Key.enter	n/a
179.165	3.915	358330	prompt	n/a	harris crash close loves\n
179.883	0.075	359766	keystroke_h	h	n/a
179.913	0.12	359826	keystroke_a	a	n/a
179.973	0.075	359946	keystroke_r	r	n/a
180.093	0.09	360186	keystroke_r	r	n/a
180.213	0.135	360426	keystroke_i	i	n/a
180.303	0.105	360606	keystroke_s	s	n/a
180.438	0.105	360876	keystroke_Key.space	Key.space	n/a
180.738	0.12	361476	keystroke_c	c	n/a
180.963	0.105	361926	keystroke_r	r	n/a
181.038	0.105	362076	keystroke_a	a	n/a
181.233	0.09	362466	keystroke_s	s	n/a
181.368	0.1205	362736	keystroke_h	h	n/a
181.5035	0.12	363007	keystroke_Key.space	Key.space	n/a
181.7735	0.105	363547	keystroke_c	c	n/a
181.8635	0.075	363727	keystroke_l	l	n/a
182.0285	0.09	364057	keystroke_o	o	n/a
182.1035	0.0895	364207	keystroke_s	s	n/a
182.1335	0.1345	364267	keystroke_e	e	n/a
182.283	0.09	364566	keystroke_Key.space	Key.space	n/a
182.418	0.0905	364836	keystroke_l	l	n/a
182.5835	0.12	365167	keystroke_o	o	n/a
182.6135	0.105	365227	keystroke_v	v	n/a
182.7785	0.12	365557	keystroke_e	e	n/a
182.8535	0.12	365707	keystroke_s	s	n/a
182.9885	0.09	365977	keystroke_Key.enter	Key.enter	n/a
183.088	4.747	366176	prompt	n/a	later student standard paste\n
183.648	0.105	367296	keystroke_l	l	n/a
183.708	0.09	367416	keystroke_a	a	n/a
183.873	0.075	367746	keystroke_t	t	n/a
184.008	0.075	368016	keystroke_e	e	n/a
184.038	0.105	368076	keystroke_r	r	n/a
184.188	0.105	368376	keystroke_Key.space	Key.space	n/a
184.308	0.105	368616	keystroke_s	s	n/a
184.383	0.105	368766	keystroke_t	t	n/a
184.489	0.089	368978	keystroke_u	u	n/a
184.7135	0.09	369427	keystroke_d	d	n/a
184.8785	0.075	369757	keystroke_e	e	n/a
184.9985	0.105	369997	keystroke_n	n	n/a
185.0885	0.1045	370177	keystroke_t	t	n/a
185.223	0.105	370446	keystroke_Key.space	Key.space	n/a
185.553	0.12	371106	keystroke_s	s	n/a
185.643	0.075	371286	keystroke_t	t	n/a
185.748	0.12	371496	keystroke_a	a	n/a
185.883	0.075	371766	keystroke_n	n	n/a
185.988	0.105	371976	keystroke_d	d	n/a
186.288	0.12	372576	keystroke_a	a	n/a
186.483	0.12	372966	keystroke_r	r	n/a
186.573	0.105	373146	keystroke_d	d	n/a
186.963	0.09	373926	keystroke_Key.space	Key.space	n/a
187.203	0.09	374406	keystroke_p	p	n/a
187.263	0.105	374526	keystroke_a	a	n/a
187.338	0.135	374676	keystroke_s	s	n/a
187.548	0.15	375096	keystroke_t	t	n/a
187.623	0.12	375246	keystroke_e	e	n/a
187.758	0.075	375516	keystroke_Key.enter	Key.enter	n/a
187.839	6.236	375678	prompt	n/a	popular carol officers courts\n
188.373	0.075	376746	keystroke_p	p	n/a
188.8385	0.0895	377677	keystroke_o	o	n/a
189.018	0.09	378036	keystroke_p	p	n/a
189.243	0.076	378486	keystroke_u	u	n/a
189.424	0.12	378848	keystroke_l	l	n/a
189.544	0.135	379088	keystroke_a	a	n/a
189.649	0.135	379298	keystroke_r	r	n/a
189.799	0.105	379598	keystroke_Key.space	Key.space	n/a
189.994	0.045	379988	keystroke_c	c	n/a
190.129	0.105	380258	keystroke_a	a	n/a
190.159	0.18	380318	keystroke_r	r	n/a
190.414	0.105	380828	keystroke_o	o	n/a
190.579	0.1045	381158	keystroke_l	l	n/a
190.7135	0.09	381427	keystroke_Key.space	Key.space	n/a
190.8785	0.105	381757	keystroke_o	o	n/a
190.9535	0.06	381907	keystroke_f	f	n/a
191.058	0.075	382116	keystroke_f	f	n/a
191.148	0.09	382296	keystroke_i	i	n/a
191.253	0.09	382506	keystroke_c	c	n/a
191.4035	0.0745	382807	keystroke_w	w	n/a
191.4335	0.06	382867	keystroke_e	e	n/a
191.448	0.0755	382896	keystroke_r	r	n/a
191.583	0.105	383166	keystroke_s	s	n/a
191.748	0.075	383496	keystroke_Key.space	Key.space	n/a
192.078	0.045	384156	keystroke_Key.backspace	Key.backspace	n/a
192.198	0.09	384396	keystroke_Key.backspace	Key.backspace	n/a
192.363	0.06	384726	keystroke_Key.backspace	Key.backspace	n/a
192.498	0.0905	384996	keystroke_Key.backspace	Key.backspace	n/a
192.6635	0.075	385327	keystroke_Key.backspace	Key.backspace	n/a
192.7835	0.075	385567	keystroke_e	e	n/a
192.8135	0.09	385627	keystroke_r	r	n/a
192.9935	0.075	385987	keystroke_s	s	n/a
193.1135	0.09	386227	keystroke_Key.space	Key.space	n/a
193.2635	0.09	386527	keystroke_c	c	n/a
193.3235	0.09	386647	keystroke_o	o	n/a
193.3835	0.12	386767	keystroke_u	u	n/a
193.4885	0.09	386977	keystroke_r	r	n/a
193.7285	0.105	387457	keystroke_t	t	n/a
193.8485	0.135	387697	keystroke_s	s	n/a
193.9985	0.075	387997	keystroke_Key.enter	Key.enter	n/a
194.08	3.94	388160	prompt	n/a	staff liable cited hunter\n
194.689	0.105	389378	keystroke_s	s	n/a
194.824	0.09	389648	keystroke_t	t	n/a
195.019	0.105	390038	keystroke_a	a	n/a
195.169	0.075	390338	keystroke_f	f	n/a
195.304	0.089	390608	keystroke_f	f	n/a
195.408	0.151	390816	keystroke_Key.space	Key.space	n/a
195.529	0.135	391058	keystroke_l	l	n/a
195.589	0.105	391178	keystroke_i	i	n/a
195.814	0.09	391628	keystroke_a	a	n/a
195.889	0.09	391778	keystroke_b	b	n/a
195.994	0.165	391988	keystroke_l	l	n/a
196.114	0.104	392228	keystroke_e	e	n/a
196.249	0.105	392498	keystroke_Key.space	Key.space	n/a
196.579	0.09	393158	keystroke_c	c	n/a
196.669	0.12	393338	keystroke_i	i	n/a
196.804	0.105	393608	keystroke_t	t	n/a
196.864	0.075	393728	keystroke_e	e	n/a
197.044	0.074	394088	keystroke_d	d	n/a
197.148	0.105	394296	keystroke_Key.space	Key.space	n/a
197.284	0.105	394568	keystroke_h	h	n/a
197.344	0.0895	394688	keystroke_u	u	n/a
197.4935	0.12	394987	keystroke_n	n	n/a
197.5985	0.09	395197	keystroke_t	t	n/a
197.7335	0.09	395467	keystroke_e	e	n/a
197.7635	0.1055	395527	keystroke_r	r	n/a
197.9435	0.075	395887	keystroke_Key.enter	Key.enter	n/a
198.0225	5.9975	396045	prompt	n/a	moderators virtue simulation formats\n
198.829	0.03	397658	keystroke_m	m	n/a
198.889	0.15	397778	keystroke_o	o	n/a
199.0835	0.0905	398167	keystroke_d	d	n/a
199.324	0.09	398648	keystroke_e	e	n/a
199.384	0.105	398768	keystroke_r	r	n/a
199.7135	0.09	399427	keystroke_a	a	n/a
199.9085	0.075	399817	keystroke_t	t	n/a
199.9985	0.105	399997	keystroke_o	o	n/a
200.0885	0.12	400177	keystroke_r	r	n/a
200.1785	0.15	400357	keystroke_s	s	n/a
200.3135	0.105	400627	keystroke_Key.space	Key.space	n/a
200.6885	0.06	401377	keystroke_v	v	n/a
200.7635	0.075	401527	keystroke_i	i	n/a
200.8535	0.06	401707	keystroke_r	r	n/a
201.1085	0.075	402217	keystroke_t	t	n/a
201.2135	0.09	402427	keystroke_u	u	n/a
201.2885	0.105	402577	keystroke_e	e	n/a
201.4535	0.1055	402907	keystroke_Key.space	Key.space	n/a
201.694	0.105	403388	keystroke_s	s	n/a
201.769	0.12	403538	keystroke_i	i	n/a
201.814	0.12	403628	keystroke_m	m	n/a
202.084	0.075	404168	keystroke_u	u	n/a
202.204	0.135	404408	keystroke_l	l	n/a
202.354	0.105	404708	keystroke_a	a	n/a
202.549	0.105	405098	keystroke_t	t	n/a
202.594	0.18	405188	keystroke_i	i	n/a
202.669	0.09	405338	keystroke_o	o	n/a
202.714	0.18	405428	keystroke_n	n	n/a
202.999	0.12	405998	keystroke_Key.space	Key.space	n/a
203.149	0.06	406298	keystroke_f	f	n/a
203.224	0.09	406448	keystroke_o	o	n/a
203.284	0.075	406568	keystroke_r	r	n/a
203.404	0.105	406808	keystroke_m	m	n/a
203.524	0.12	407048	keystroke_a	a	n/a
203.689	0.15	407378	keystroke_t	t	n/a
203.779	0.135	407558	keystroke_s	s	n/a
203.899	0.12	407798	keystroke_Key.enter	Key.enter	n/a
204.023	8.292	408046	prompt	n/a	watching doctrine candle survivor\n
204.709	0.105	409418	keystroke_w	w	n/a
204.784	0.15	409568	keystroke_a	a	n/a
204.919	0.06	409838	keystroke_t	t	n/a
205.099	0.105	410198	keystroke_c	c	n/a
205.174	0.12	410348	keystroke_h	h	n/a
205.264	0.149	410528	keystroke_i	i	n/a
205.369	0.18	410738	keystroke_n	n	n/a
205.519	0.105	411038	keystroke_g	g	n/a
205.639	0.105	411278	keystroke_Key.space	Key.space	n/a
205.804	0.09	411608	keystroke_d	d	n/a
205.879	0.12	411758	keystroke_o	o	n/a
206.014	0.075	412028	keystroke_c	c	n/a
206.224	0.075	412448	keystroke_t	t	n/a
206.419	0.09	412838	keystroke_r	r	n/a
206.494	0.135	412988	keystroke_i	i	n/a
206.539	0.15	413078	keystroke_n	n	n/a
207.0335	0.075	414067	keystroke_e	e	n/a
207.1985	0.105	414397	keystroke_Key.space	Key.space	n/a
207.4835	0.105	414967	keystroke_c	c	n/a
207.5585	0.12	415117	keystroke_a	a	n/a
207.6185	0.09	415237	keystroke_n	n	n/a
207.8435	0.06	415687	keystroke_b	b	n/a
208.1885	0.06	416377	keystroke_Key.backspace	Key.backspace	n/a
208.2785	0.09	416557	keystroke_d	d	n/a
208.3985	0.12	416797	keystroke_l	l	n/a
208.4885	0.06	416977	keystroke_e	e	n/a
208.5935	0.105	417187	keystroke_Key.space	Key.space	n/a
208.7285	0.105	417457	keystroke_s	s	n/a
208.8785	0.12	417757	keystroke_u	u	n/a
209.0285	0.075	418057	keystroke_r	r	n/a
209.3585	0.06	418717	keystroke_v	v	n/a
209.434	0.1045	418868	keystroke_i	i	n/a
210.063	0.06	420126	keystroke_Key.backspace	Key.backspace	n/a
210.154	0.06	420308	keystroke_v	v	n/a
210.693	0.076	421386	keystroke_Key.backspace	Key.backspace	n/a
211.609	0.089	423218	keystroke_i	i	n/a
211.879	0.074	423758	keystroke_v	v	n/a
211.969	0.075	423938	keystroke_o	o	n/a
212.073	0.076	424146	keystroke_r	r	n/a
212.253	0.061	424506	keystroke_Key.enter	Key.enter	n/a
212.321	7.959	424642	prompt	n/a	xerox transferred organisation multi\n
213.018	0.045	426036	keystroke_e	e	n/a
213.198	0.09	426396	keystroke_x	x	n/a
213.498	0.045	426996	keystroke_Key.backspace	Key.backspace	n/a
213.618	0.075	427236	keystroke_Key.backspace	Key.backspace	n/a
213.678	0.09	427356	keystroke_x	x	n/a
213.858	0.06	427716	keystroke_e	e	n/a
214.113	0.09	428226	keystroke_r	r	n/a
214.308	0.12	428616	keystroke_o	o	n/a
214.488	0.12	428976	keystroke_x	x	n/a
214.668	0.12	429336	keystroke_Key.space	Key.space	n/a
214.8935	0.06	429787	keystroke_t	t	n/a
215.0585	0.06	430117	keystroke_r	r	n/a
215.1335	0.1055	430267	keystroke_a	a	n/a
215.224	0.105	430448	keystroke_n	n	n/a
215.314	0.105	430628	keystroke_s	s	n/a
215.554	0.09	431108	keystroke_f	f	n/a
215.704	0.075	431408	keystroke_e	e	n/a
215.734	0.12	431468	keystroke_r	r	n/a
215.929	0.06	431858	keystroke_r	r	n/a
216.049	0.09	432098	keystroke_e	e	n/a
216.244	0.06	432488	keystroke_d	d	n/a
216.469	0.075	432938	keystroke_Key.space	Key.space	n/a
216.724	0.105	433448	keystroke_o	o	n/a
216.844	0.06	433688	keystroke_r	r	n/a
217.084	0.075	434168	keystroke_g	g	n/a
217.189	0.105	434378	keystroke_a	a	n/a
217.279	0.09	434558	keystroke_n	n	n/a
217.474	0.075	434948	keystroke_i	i	n/a
217.594	0.09	435188	keystroke_s	s	n/a
217.789	0.075	435578	keystroke_a	a	n/a
217.9835	0.09	435967	keystroke_t	t	n/a
218.0285	0.12	436057	keystroke_i	i	n/a
218.0885	0.135	436177	keystroke_o	o	n/a
218.1335	0.195	436267	keystroke_n	n	n/a
218.2685	0.12	436537	keystroke_Key.space	Key.space	n/a
218.914	0.075	437828	keystroke_m	m	n/a
219.334	0.09	438668	keystroke_u	u	n/a
219.529	0.105	439058	keystroke_l	l	n/a
219.9335	0.09	439867	keystroke_t	t	n/a
220.0085	0.075	440017	keystroke_i	i	n/a
220.2035	0.075	440407	keystroke_Key.enter	Key.enter	n/a
220.286	5.664	440572	prompt	n/a	when interventions liquid grey\n
220.969	0.075	441938	keystroke_w	w	n/a
221.029	0.075	442058	keystroke_h	h	n/a
221.119	0.105	442238	keystroke_e	e	n/a
221.208	0.106	442416	keystroke_n	n	n/a
221.299	0.12	442598	keystroke_Key.space	Key.space	n/a
221.449	0.09	442898	keystroke_i	i	n/a
221.494	0.165	442988	keystroke_n	n	n/a
221.659	0.06	443318	keystroke_t	t	n/a
221.794	0.075	443588	keystroke_e	e	n/a
221.824	0.105	443648	keystroke_r	r	n/a
222.079	0.06	444158	keystroke_v	v	n/a
222.333	0.076	444666	keystroke_e	e	n/a
222.424	0.075	444848	keystroke_n	n	n/a
222.559	0.09	445118	keystroke_t	t	n/a
222.6635	0.12	445327	keystroke_i	i	n/a
222.7235	0.12	445447	keystroke_o	o	n/a
222.7685	0.15	445537	keystroke_n	n	n/a
222.9335	0.105	445867	keystroke_a	a	n/a
223.2935	0.0595	446587	keystroke_Key.backspace	Key.backspace	n/a
223.488	0.09	446976	keystroke_s	s	n/a
223.669	0.074	447338	keystroke_Key.space	Key.space	n/a
223.969	0.135	447938	keystroke_l	l	n/a
224.014	0.12	448028	keystroke_i	i	n/a
224.3135	0.09	448627	keystroke_q	q	n/a
224.4185	0.165	448837	keystroke_u	u	n/a
224.4935	0.195	448987	keystroke_i	i	n/a
224.7785	0.09	449557	keystroke_d	d	n/a
224.9285	0.09	449857	keystroke_Key.space	Key.space	n/a
225.2885	0.045	450577	keystroke_g	g	n/a
225.4385	0.105	450877	keystroke_r	r	n/a
225.4985	0.09	450997	keystroke_e	e	n/a
225.6935	0.0745	451387	keystroke_y	y	n/a
225.843	0.105	451686	keystroke_Key.enter	Key.enter	n/a
225.953	6.822	451906	prompt	n/a	diet expiration hands reset\n
226.6085	0.09	453217	keystroke_d	d	n/a
226.6835	0.105	453367	keystroke_i	i	n/a
226.8035	0.12	453607	keystroke_e	e	n/a
226.8935	0.15	453787	keystroke_t	t	n/a
227.0735	0.12	454147	keystroke_Key.space	Key.space	n/a
227.523	0.09	455046	keystroke_e	e	n/a
227.763	0.09	455526	keystroke_x	x	n/a
227.943	0.135	455886	keystroke_p	p	n/a
228.183	0.105	456366	keystroke_i	i	n/a
228.303	0.075	456606	keystroke_r	r	n/a
228.513	0.09	457026	keystroke_a	a	n/a
228.708	0.091	457416	keystroke_t	t	n/a
228.738	0.136	457476	keystroke_i	i	n/a
228.814	0.12	457628	keystroke_o	o	n/a
228.844	0.195	457688	keystroke_n	n	n/a
229.024	0.0745	458048	keystroke_Key.space	Key.space	n/a
229.1435	0.105	458287	keystroke_d	d	n/a
229.2335	0.09	458467	keystroke_h	h	n/a
229.5035	0.045	459007	keystroke_Key.backspace	Key.backspace	n/a
229.6085	0.06	459217	keystroke_Key.backspace	Key.backspace	n/a
229.7735	0.075	459547	keystroke_a	a	n/a
229.8035	0.075	459607	keystroke_h	h	n/a
229.9685	0.105	459937	keystroke_n	n	n/a
230.1935	0.09	460387	keystroke_d	d	n/a
230.2385	0.06	460477	keystroke_s	s	n/a
230.4035	0.06	460807	keystroke_Key.backspace	Key.backspace	n/a
230.5385	0.06	461077	keystroke_Key.backspace	Key.backspace	n/a
230.6735	0.09	461347	keystroke_Key.backspace	Key.backspace	n/a
230.8385	0.075	461677	keystroke_Key.backspace	Key.backspace	n/a
230.9885	0.075	461977	keystroke_Key.backspace	Key.backspace	n/a
231.2435	0.075	462487	keystroke_h	h	n/a
231.3485	0.09	462697	keystroke_a	a	n/a
231.4535	0.0895	462907	keystroke_n	n	n/a
231.588	0.165	463176	keystroke_d	d	n/a
231.663	0.135	463326	keystroke_s	s	n/a
231.768	0.105	463536	keystroke_Key.space	Key.space	n/a
231.963	0.105	463926	keystroke_r	r	n/a
232.0235	0.0895	464047	keystroke_e	e	n/a
232.218	0.135	464436	keystroke_s	s	n/a
232.293	0.165	464586	keystroke_e	e	n/a
232.413	0.135	464826	keystroke_t	t	n/a
232.6835	0.0895	465367	keystroke_Key.enter	Key.enter	n/a
232.7785	5.487	465557	prompt	n/a	drink types channels equity\n
233.449	0.105	466898	keystroke_d	d	n/a
233.524	0.105	467048	keystroke_r	r	n/a
233.659	0.105	467318	keystroke_i	i	n/a
233.839	0.105	467678	keystroke_n	n	n/a
233.884	0.135	467768	keystroke_k	k	n/a
234.304	0.09	468608	keystroke_Key.space	Key.space	n/a
234.499	0.06	468998	keystroke_t	t	n/a
234.544	0.09	469088	keystroke_y	y	n/a
234.709	0.1195	469418	keystroke_p	p	n/a
234.8135	0.135	469627	keystroke_e	e	n/a
234.8735	0.12	469747	keystroke_s	s	n/a
235.0085	0.09	470017	keystroke_Key.space	Key.space	n/a
235.1135	0.09	470227	keystroke_c	c	n/a
235.1885	0.075	470377	keystroke_h	h	n/a
235.2785	0.105	470557	keystroke_a	a	n/a
235.3535	0.06	470707	keystroke_n	n	n/a
235.4735	0.09	470947	keystroke_n	n	n/a
235.6235	0.06	471247	keystroke_e	e	n/a
235.6985	0.12	471397	keystroke_l	l	n/a
235.8035	0.09	471607	keystroke_s	s	n/a
235.9535	0.09	471907	keystroke_Key.space	Key.space	n/a
236.1935	0.12	472387	keystroke_q	q	n/a
236.6285	0.0745	473257	keystroke_Key.backspace	Key.backspace	n/a
237.123	0.076	474246	keystroke_e	e	n/a
237.318	0.091	474636	keystroke_q	q	n/a
237.393	0.121	474786	keystroke_u	u	n/a
237.499	0.15	474998	keystroke_i	i	n/a
237.663	0.09	475326	keystroke_t	t	n/a
237.904	0.075	475808	keystroke_y	y	n/a
238.174	0.09	476348	keystroke_Key.enter	Key.enter	n/a
238.268	5.937	476536	prompt	n/a	conceptual removable queen directed\n
239.014	0.09	478028	keystroke_c	c	n/a
239.074	0.089	478148	keystroke_o	o	n/a
239.104	0.105	478208	keystroke_n	n	n/a
239.223	0.1055	478446	keystroke_c	c	n/a
239.2985	0.12	478597	keystroke_e	e	n/a
239.4785	0.09	478957	keystroke_p	p	n/a
239.883	0.076	479766	keystroke_t	t	n/a
239.943	0.075	479886	keystroke_u	u	n/a
240.108	0.105	480216	keystroke_a	a	n/a
240.184	0.119	480368	keystroke_l	l	n/a
240.363	0.105	480726	keystroke_Key.space	Key.space	n/a
240.543	0.09	481086	keystroke_r	r	n/a
240.603	0.0905	481206	keystroke_e	e	n/a
240.7535	0.09	481507	keystroke_m	m	n/a
240.8285	0.135	481657	keystroke_o	o	n/a
240.9485	0.075	481897	keystroke_v	v	n/a
241.653	0.075	483306	keystroke_a	a	n/a
241.743	0.105	483486	keystroke_b	b	n/a
241.833	0.135	483666	keystroke_l	l	n/a
241.938	0.09	483876	keystroke_e	e	n/a
242.073	0.105	484146	keystroke_Key.space	Key.space	n/a
242.268	0.075	484536	keystroke_q	q	n/a
242.328	0.0905	484656	keystroke_u	u	n/a
242.4785	0.075	484957	keystroke_e	e	n/a
242.6285	0.0755	485257	keystroke_e	e	n/a
242.749	0.105	485498	keystroke_n	n	n/a
242.929	0.075	485858	keystroke_Key.space	Key.space	n/a
243.154	0.045	486308	keystroke_d	d	n/a
243.184	0.105	486368	keystroke_i	i	n/a
243.274	0.09	486548	keystroke_r	r	n/a
243.454	0.1345	486908	keystroke_e	e	n/a
243.5435	0.075	487087	keystroke_c	c	n/a
243.7385	0.09	487477	keystroke_t	t	n/a
243.7835	0.09	487567	keystroke_e	e	n/a
243.9335	0.09	487867	keystroke_d	d	n/a
244.0985	0.105	488197	keystroke_Key.enter	Key.enter	n/a
244.2125	7.4475	488425	prompt	n/a	corresponding designated colleges garbage\n
244.9095	0.089	489819	keystroke_c	c	n/a
244.9685	0.0755	489937	keystroke_o	o	n/a
245.104	0.06	490208	keystroke_r	r	n/a
245.224	0.075	490448	keystroke_r	r	n/a
245.329	0.165	490658	keystroke_e	e	n/a
245.659	0.105	491318	keystroke_s	s	n/a
245.914	0.075	491828	keystroke_p	p	n/a
246.064	0.105	492128	keystroke_o	o	n/a
246.124	0.105	492248	keystroke_n	n	n/a
246.289	0.105	492578	keystroke_d	d	n/a
246.424	0.12	492848	keystroke_i	i	n/a
246.484	0.135	492968	keystroke_n	n	n/a
246.604	0.1045	493208	keystroke_g	g	n/a
246.7385	0.105	493477	keystroke_Key.space	Key.space	n/a
246.8885	0.09	493777	keystroke_d	d	n/a
247.0385	0.075	494077	keystroke_e	e	n/a
247.2185	0.075	494437	keystroke_s	s	n/a
247.2785	0.09	494557	keystroke_i	i	n/a
247.5935	0.075	495187	keystroke_g	g	n/a
248.2685	0.075	496537	keystroke_n	n	n/a
248.3735	0.075	496747	keystroke_a	a	n/a
248.5535	0.0895	497107	keystroke_t	t	n/a
248.659	0.0295	497318	keystroke_e	e	n/a
248.794	0.0595	497588	keystroke_d	d	n/a
248.9735	0.075	497947	keystroke_Key.space	Key.space	n/a
249.1235	0.0755	498247	keystroke_c	c	n/a
249.184	0.06	498368	keystroke_o	o	n/a
249.319	0.075	498638	keystroke_l	l	n/a
249.454	0.105	498908	keystroke_l	l	n/a
249.574	0.09	499148	keystroke_e	e	n/a
249.754	0.06	499508	keystroke_g	g	n/a
249.904	0.12	499808	keystroke_e	e	n/a
249.979	0.12	499958	keystroke_s	s	n/a
250.174	0.09	500348	keystroke_Key.space	Key.space	n/a
250.399	0.06	500798	keystroke_g	g	n/a
250.489	0.135	500978	keystroke_a	a	n/a
250.564	0.1045	501128	keystroke_r	r	n/a
251.0285	0.12	502057	keystroke_b	b	n/a
251.1335	0.105	502267	keystroke_a	a	n/a
251.2235	0.165	502447	keystroke_g	g	n/a
251.3135	0.18	502627	keystroke_e	e	n/a
251.5385	0.1205	503077	keystroke_Key.enter	Key.enter	n/a
251.665	5.6205	503330	prompt	n/a	asylum element compounds merely\n
252.3935	0.1055	504787	keystroke_a	a	n/a
252.4685	0.09	504937	keystroke_s	s	n/a
252.6935	0.09	505387	keystroke_y	y	n/a
253.2335	0.105	506467	keystroke_l	l	n/a
253.4435	0.075	506887	keystroke_u	u	n/a
253.6535	0.075	507307	keystroke_m	m	n/a
253.7435	0.12	507487	keystroke_Key.space	Key.space	n/a
253.8935	0.075	507787	keystroke_e	e	n/a
253.9535	0.12	507907	keystroke_l	l	n/a
254.0585	0.075	508117	keystroke_e	e	n/a
254.4785	0.075	508957	keystroke_m	m	n/a
254.5685	0.075	509137	keystroke_e	e	n/a
254.6585	0.105	509317	keystroke_n	n	n/a
254.7485	0.09	509497	keystroke_t	t	n/a
254.8535	0.09	509707	keystroke_Key.space	Key.space	n/a
255.0035	0.105	510007	keystroke_c	c	n/a
255.0785	0.075	510157	keystroke_o	o	n/a
255.1235	0.09	510247	keystroke_m	m	n/a
255.2585	0.135	510517	keystroke_p	p	n/a
255.7385	0.105	511477	keystroke_o	o	n/a
255.7835	0.075	511567	keystroke_u	u	n/a
255.9635	0.15	511927	keystroke_n	n	n/a
256.0985	0.135	512197	keystroke_d	d	n/a
256.1735	0.12	512347	keystroke_s	s	n/a
256.3385	0.09	512677	keystroke_Key.space	Key.space	n/a
256.5335	0.1055	513067	keystroke_m	m	n/a
256.594	0.09	513188	keystroke_e	e	n/a
256.654	0.18	513308	keystroke_r	r	n/a
256.758	0.105	513516	keystroke_e	e	n/a
256.938	0.1205	513876	keystroke_l	l	n/a
257.0735	0.09	514147	keystroke_y	y	n/a
257.2085	0.075	514417	keystroke_Key.enter	Key.enter	n/a
257.289	4.841	514578	prompt	n/a	seem accompanied peace mild\n
257.8385	0.1055	515677	keystroke_s	s	n/a
257.974	0.075	515948	keystroke_e	e	n/a
258.124	0.0745	516248	keystroke_e	e	n/a
258.2585	0.12	516517	keystroke_m	m	n/a
258.3635	0.09	516727	keystroke_Key.space	Key.space	n/a
258.5135	0.09	517027	keystroke_a	a	n/a
258.6785	0.06	517357	keystroke_c	c	n/a
258.8135	0.09	517627	keystroke_c	c	n/a
258.9935	0.135	517987	keystroke_o	o	n/a
259.0535	0.195	518107	keystroke_m	m	n/a
259.489	0.09	518978	keystroke_p	p	n/a
259.609	0.09	519218	keystroke_a	a	n/a
259.729	0.09	519458	keystroke_n	n	n/a
259.954	0.105	519908	keystroke_i	i	n/a
260.074	0.0745	520148	keystroke_e	e	n/a
260.2535	0.045	520507	keystroke_d	d	n/a
260.3435	0.075	520687	keystroke_Key.space	Key.space	n/a
260.4785	0.09	520957	keystroke_p	p	n/a
260.5835	0.12	521167	keystroke_e	e	n/a
260.7185	0.135	521437	keystroke_a	a	n/a
260.8685	0.135	521737	keystroke_c	c	n/a
260.9585	0.135	521917	keystroke_e	e	n/a
261.1235	0.09	522247	keystroke_Key.space	Key.space	n/a
261.4685	0.105	522937	keystroke_m	m	n/a
261.5135	0.105	523027	keystroke_i	i	n/a
261.7235	0.12	523447	keystroke_l	l	n/a
261.8585	0.075	523717	keystroke_d	d	n/a
262.0535	0.075	524107	keystroke_Key.enter	Key.enter	n/a
262.146	5.6095	524292	prompt	n/a	undertaken plasma needed provided\n
262.954	0.09	525908	keystroke_u	u	n/a
262.984	0.105	525968	keystroke_n	n	n/a
263.119	0.09	526238	keystroke_d	d	n/a
263.269	0.105	526538	keystroke_e	e	n/a
263.329	0.075	526658	keystroke_r	r	n/a
263.509	0.0895	527018	keystroke_t	t	n/a
263.6135	0.105	527227	keystroke_a	a	n/a
263.7335	0.09	527467	keystroke_k	k	n/a
263.8385	0.075	527677	keystroke_e	e	n/a
263.9285	0.105	527857	keystroke_n	n	n/a
264.0485	0.075	528097	keystroke_Key.space	Key.space	n/a
264.6485	0.105	529297	keystroke_p	p	n/a
264.8585	0.105	529717	keystroke_l	l	n/a
264.9785	0.105	529957	keystroke_a	a	n/a
265.0385	0.105	530077	keystroke_s	s	n/a
265.3685	0.09	530737	keystroke_m	m	n/a
265.4735	0.105	530947	keystroke_a	a	n/a
265.594	0.119	531188	keystroke_Key.space	Key.space	n/a
265.789	0.105	531578	keystroke_n	n	n/a
265.849	0.06	531698	keystroke_e	e	n/a
265.984	0.06	531968	keystroke_e	e	n/a
266.134	0.045	532268	keystroke_d	d	n/a
266.269	0.045	532538	keystroke_e	e	n/a
266.389	0.06	532778	keystroke_d	d	n/a
266.479	0.09	532958	keystroke_Key.space	Key.space	n/a
266.614	0.12	533228	keystroke_p	p	n/a
266.719	0.06	533438	keystroke_r	r	n/a
266.794	0.075	533588	keystroke_o	o	n/a
266.989	0.105	533978	keystroke_v	v	n/a
267.124	0.075	534248	keystroke_i	i	n/a
267.214	0.075	534428	keystroke_d	d	n/a
267.364	0.075	534728	keystroke_e	e	n/a
267.499	0.075	534998	keystroke_d	d	n/a
267.649	0.105	535298	keystroke_Key.enter	Key.enter	n/a
267.7575	8.2325	535515	prompt	n/a	slides friendship transactions reservation\n
268.474	0.09	536948	keystroke_s	s	n/a
268.549	0.1345	537098	keystroke_l	l	n/a
268.624	0.1195	537248	keystroke_i	i	n/a
268.7585	0.09	537517	keystroke_d	d	n/a
268.9535	0.105	537907	keystroke_e	e	n/a
269.0135	0.12	538027	keystroke_s	s	n/a
269.1345	0.104	538269	keystroke_Key.space	Key.space	n/a
269.3885	0.045	538777	keystroke_f	f	n/a
269.5385	0.06	539077	keystroke_r	r	n/a
269.6285	0.105	539257	keystroke_i	i	n/a
269.7485	0.075	539497	keystroke_e	e	n/a
269.9735	0.105	539947	keystroke_n	n	n/a
270.4235	0.075	540847	keystroke_d	d	n/a
270.6635	0.105	541327	keystroke_s	s	n/a
270.7235	0.135	541447	keystroke_h	h	n/a
270.7835	0.135	541567	keystroke_i	i	n/a
270.8285	0.165	541657	keystroke_p	p	n/a
271.0985	0.105	542197	keystroke_Key.space	Key.space	n/a
271.2785	0.06	542557	keystroke_t	t	n/a
271.4435	0.03	542887	keystroke_r	r	n/a
271.4585	0.075	542917	keystroke_n	n	n/a
271.6235	0.135	543247	keystroke_a	a	n/a
271.9385	0.045	543877	keystroke_Key.backspace	Key.backspace	n/a
272.0735	0.06	544147	keystroke_Key.backspace	Key.backspace	n/a
272.674	0.044	545348	keystroke_a	a	n/a
272.704	0.089	545408	keystroke_n	n	n/a
272.869	0.105	545738	keystroke_s	s	n/a
273.169	0.1195	546338	keystroke_a	a	n/a
273.3635	0.075	546727	keystroke_c	c	n/a
273.543	0.09	547086	keystroke_t	t	n/a
273.618	0.135	547236	keystroke_i	i	n/a
273.678	0.1205	547356	keystroke_o	o	n/a
273.724	0.1795	547448	keystroke_n	n	n/a
273.8885	0.09	547777	keystroke_s	s	n/a
274.0385	0.105	548077	keystroke_Key.space	Key.space	n/a
274.5035	0.09	549007	keystroke_r	r	n/a
274.5485	0.105	549097	keystroke_e	e	n/a
274.818	0.105	549636	keystroke_s	s	n/a
274.863	0.135	549726	keystroke_e	e	n/a
274.938	0.12	549876	keystroke_r	r	n/a
275.164	0.105	550328	keystroke_v	v	n/a
275.314	0.105	550628	keystroke_a	a	n/a
275.539	0.09	551078	keystroke_t	t	n/a
275.614	0.165	551228	keystroke_i	i	n/a
275.689	0.075	551378	keystroke_o	o	n/a
275.719	0.105	551438	keystroke_n	n	n/a
275.914	0.075	551828	keystroke_Key.enter	Key.enter	n/a
275.9945	4.8405	551989	prompt	n/a	yellow she'd we'll invite\n
276.7685	0.075	553537	keystroke_y	y	n/a
276.8585	0.045	553717	keystroke_e	e	n/a
276.9485	0.06	553897	keystroke_l	l	n/a
277.0685	0.075	554137	keystroke_l	l	n/a
277.2935	0.015	554587	keystroke_o	o	n/a
277.3235	0.105	554647	keystroke_w	w	n/a
277.4435	0.09	554887	keystroke_Key.space	Key.space	n/a
277.8335	0.0755	555667	keystroke_s	s	n/a
277.924	0.09	555848	keystroke_h	h	n/a
278.029	0.06	556058	keystroke_e	e	n/a
278.254	0.09	556508	keystroke_'	'	n/a
278.389	0.09	556778	keystroke_d	d	n/a
278.554	0.105	557108	keystroke_Key.space	Key.space	n/a
278.869	0.09	557738	keystroke_w	w	n/a
278.884	0.135	557768	keystroke_e	e	n/a
279.004	0.06	558008	keystroke_l	l	n/a
279.409	0.06	558818	keystroke_Key.backspace	Key.backspace	n/a
279.634	0.06	559268	keystroke_'	'	n/a
279.799	0.045	559598	keystroke_l	l	n/a
279.919	0.075	559838	keystroke_l	l	n/a
280.039	0.12	560078	keystroke_Key.space	Key.space	n/a
280.174	0.12	560348	keystroke_i	i	n/a
280.249	0.09	560498	keystroke_n	n	n/a
280.369	0.075	560738	keystroke_v	v	n/a
280.459	0.1045	560918	keystroke_i	i	n/a
280.5485	0.075	561097	keystroke_g	g	n/a
280.5785	0.06	561157	keystroke_t	t	n/a
280.6245	0.089	561249	keystroke_e	e	n/a
280.7435	0.09	561487	keystroke_Key.enter	Key.enter	n/a
280.838	6.747	561676	prompt	n/a	uruguay regulation totals featured\n
281.628	0.0905	563256	keystroke_u	u	n/a
282.049	0.045	564098	keystroke_r	r	n/a
282.289	0.105	564578	keystroke_u	u	n/a
282.859	0.075	565718	keystroke_g	g	n/a
283.414	0.09	566828	keystroke_u	u	n/a
283.6235	0.105	567247	keystroke_a	a	n/a
283.7585	0.09	567517	keystroke_y	y	n/a
283.9385	0.075	567877	keystroke_Key.space	Key.space	n/a
284.1335	0.075	568267	keystroke_r	r	n/a
284.1635	0.105	568327	keystroke_e	e	n/a
284.4335	0.075	568867	keystroke_g	g	n/a
284.4935	0.075	568987	keystroke_u	u	n/a
284.6885	0.09	569377	keystroke_l	l	n/a
284.7935	0.075	569587	keystroke_a	a	n/a
284.9885	0.09	569977	keystroke_t	t	n/a
285.0935	0.135	570187	keystroke_i	i	n/a
285.1235	0.12	570247	keystroke_o	o	n/a
285.1835	0.165	570367	keystroke_n	n	n/a
285.3785	0.135	570757	keystroke_Key.space	Key.space	n/a
285.6635	0.06	571327	keystroke_t	t	n/a
285.7085	0.105	571417	keystroke_o	o	n/a
285.7985	0.09	571597	keystroke_t	t	n/a
285.9035	0.12	571807	keystroke_a	a	n/a
286.0535	0.105	572107	keystroke_l	l	n/a
286.2035	0.06	572407	keystroke_s	s	n/a
286.2935	0.105	572587	keystroke_Key.space	Key.space	n/a
286.519	0.075	573038	keystroke_f	f	n/a
286.624	0.105	573248	keystroke_e	e	n/a
286.699	0.089	573398	keystroke_a	a	n/a
286.909	0.059	573818	keystroke_t	t	n/a
287.029	0.12	574058	keystroke_u	u	n/a
287.104	0.105	574208	keystroke_r	r	n/a
287.164	0.09	574328	keystroke_e	e	n/a
287.329	0.0895	574658	keystroke_d	d	n/a
287.4935	0.09	574987	keystroke_Key.enter	Key.enter	n/a
287.588	5.052	575176	prompt	n/a	sophisticated phones votes idol\n
288.2885	0.075	576577	keystroke_s	s	n/a
288.3485	0.09	576697	keystroke_o	o	n/a
288.6335	0.0905	577267	keystroke_p	p	n/a
288.679	0.105	577358	keystroke_h	h	n/a
288.994	0.105	577988	keystroke_i	i	n/a
289.174	0.09	578348	keystroke_s	s	n/a
289.519	0.075	579038	keystroke_t	t	n/a
289.624	0.09	579248	keystroke_i	i	n/a
289.804	0.12	579608	keystroke_c	c	n/a
289.879	0.105	579758	keystroke_a	a	n/a
290.029	0.09	580058	keystroke_t	t	n/a
290.089	0.0745	580178	keystroke_e	e	n/a
290.2535	0.06	580507	keystroke_d	d	n/a
290.3285	0.135	580657	keystroke_Key.space	Key.space	n/a
290.4185	0.09	580837	keystroke_p	p	n/a
290.4785	0.105	580957	keystroke_h	h	n/a
290.5685	0.135	581137	keystroke_o	o	n/a
290.6585	0.15	581317	keystroke_n	n	n/a
290.7635	0.12	581527	keystroke_e	e	n/a
290.8535	0.105	581707	keystroke_s	s	n/a
290.9735	0.09	581947	keystroke_Key.space	Key.space	n/a
291.2285	0.03	582457	keystroke_v	v	n/a
291.2435	0.075	582487	keystroke_o	o	n/a
291.3785	0.1355	582757	keystroke_t	t	n/a
291.4385	0.1505	582877	keystroke_e	e	n/a
291.529	0.15	583058	keystroke_s	s	n/a
291.693	0.12	583386	keystroke_Key.space	Key.space	n/a
291.859	0.105	583718	keystroke_i	i	n/a
292.159	0.089	584318	keystroke_d	d	n/a
292.233	0.091	584466	keystroke_o	o	n/a
292.369	0.105	584738	keystroke_l	l	n/a
292.549	0.09	585098	keystroke_Key.enter	Key.enter	n/a
292.643	4.722	585286	prompt	n/a	moon choose professor claimed\n
293.3135	0.075	586627	keystroke_m	m	n/a
293.3585	0.075	586717	keystroke_o	o	n/a
293.5085	0.0745	587017	keystroke_o	o	n/a
293.659	0.119	587318	keystroke_n	n	n/a
293.779	0.1045	587558	keystroke_Key.space	Key.space	n/a
294.1985	0.09	588397	keystroke_c	c	n/a
294.3185	0.12	588637	keystroke_h	h	n/a
294.3785	0.075	588757	keystroke_o	o	n/a
294.5285	0.1205	589057	keystroke_o	o	n/a
294.6935	0.105	589387	keystroke_s	s	n/a
294.7385	0.105	589477	keystroke_e	e	n/a
294.8885	0.105	589777	keystroke_Key.space	Key.space	n/a
295.0985	0.09	590197	keystroke_p	p	n/a
295.249	0.0895	590498	keystroke_r	r	n/a
295.3235	0.105	590647	keystroke_o	o	n/a
295.5185	0.0595	591037	keystroke_f	f	n/a
295.638	0.09	591276	keystroke_e	e	n/a
295.819	0.059	591638	keystroke_s	s	n/a
295.968	0.06	591936	keystroke_s	s	n/a
296.088	0.09	592176	keystroke_o	o	n/a
296.193	0.075	592386	keystroke_r	r	n/a
296.298	0.09	592596	keystroke_Key.space	Key.space	n/a
296.523	0.076	593046	keystroke_c	c	n/a
296.583	0.1055	593166	keystroke_l	l	n/a
296.6895	0.104	593379	keystroke_a	a	n/a
296.8535	0.12	593707	keystroke_i	i	n/a
296.8985	0.135	593797	keystroke_m	m	n/a
297.0185	0.061	594037	keystroke_e	e	n/a
297.1685	0.075	594337	keystroke_d	d	n/a
297.2885	0.075	594577	keystroke_Key.enter	Key.enter	n/a
297.372	5.9635	594744	prompt	n/a	exception switched up screen\n
297.9635	0.075	595927	keystroke_e	e	n/a
298.1435	0.075	596287	keystroke_x	x	n/a
298.399	0.105	596798	keystroke_c	c	n/a
298.474	0.105	596948	keystroke_e	e	n/a
298.594	0.12	597188	keystroke_p	p	n/a
298.969	0.12	597938	keystroke_i	i	n/a
299.029	0.09	598058	keystroke_o	o	n/a
299.104	0.075	598208	keystroke_n	n	n/a
299.389	0.045	598778	keystroke_Key.backspace	Key.backspace	n/a
299.509	0.06	599018	keystroke_Key.backspace	Key.backspace	n/a
299.6885	0.03	599377	keystroke_Key.backspace	Key.backspace	n/a
300.1395	0.0745	600279	keystroke_t	t	n/a
300.199	0.15	600398	keystroke_i	i	n/a
300.259	0.135	600518	keystroke_o	o	n/a
300.334	0.15	600668	keystroke_n	n	n/a
300.544	0.105	601088	keystroke_Key.space	Key.space	n/a
300.8585	0.09	601717	keystroke_s	s	n/a
301.0235	0.12	602047	keystroke_w	w	n/a
301.1585	0.075	602317	keystroke_i	i	n/a
301.2635	0.075	602527	keystroke_t	t	n/a
301.4735	0.045	602947	keystroke_c	c	n/a
301.5485	0.105	603097	keystroke_h	h	n/a
301.6085	0.09	603217	keystroke_e	e	n/a
301.7735	0.06	603547	keystroke_d	d	n/a
301.8345	0.119	603669	keystroke_Key.space	Key.space	n/a
301.9545	0.104	603909	keystroke_u	u	n/a
302.0135	0.12	604027	keystroke_p	p	n/a
302.1935	0.09	604387	keystroke_Key.space	Key.space	n/a
302.3285	0.105	604657	keystroke_s	s	n/a
302.5385	0.06	605077	keystroke_c	c	n/a
302.7185	0.09	605437	keystroke_r	r	n/a
302.7485	0.09	605497	keystroke_e	e	n/a
302.9135	0.09	605827	keystroke_e	e	n/a
303.0635	0.075	606127	keystroke_n	n	n/a
303.2585	0.075	606517	keystroke_Key.enter	Key.enter	n/a
303.338	5.5175	606676	prompt	n/a	brad logitech trans folding\n
304.2195	0.104	608439	keystroke_b	b	n/a
304.3085	0.136	608617	keystroke_r	r	n/a
304.3995	0.104	608799	keystroke_a	a	n/a
304.6395	0.074	609279	keystroke_d	d	n/a
304.7885	0.075	609577	keystroke_Key.space	Key.space	n/a
305.0585	0.1205	610117	keystroke_l	l	n/a
305.299	0.105	610598	keystroke_o	o	n/a
305.569	0.075	611138	keystroke_g	g	n/a
305.644	0.105	611288	keystroke_i	i	n/a
306.019	0.09	612038	keystroke_t	t	n/a
306.394	0.06	612788	keystroke_e	e	n/a
306.559	0.1045	613118	keystroke_c	c	n/a
306.649	0.0895	613298	keystroke_h	h	n/a
306.7985	0.091	613597	keystroke_Key.space	Key.space	n/a
307.1135	0.06	614227	keystroke_t	t	n/a
307.2485	0.09	614497	keystroke_r	r	n/a
307.2935	0.12	614587	keystroke_a	a	n/a
307.3985	0.105	614797	keystroke_n	n	n/a
307.5185	0.105	615037	keystroke_s	s	n/a
307.8035	0.1205	615607	keystroke_Key.space	Key.space	n/a
307.984	0.105	615968	keystroke_f	f	n/a
308.074	0.09	616148	keystroke_o	o	n/a
308.209	0.135	616418	keystroke_l	l	n/a
308.374	0.09	616748	keystroke_d	d	n/a
308.479	0.12	616958	keystroke_i	i	n/a
308.539	0.1195	617078	keystroke_n	n	n/a
308.644	0.1045	617288	keystroke_g	g	n/a
308.7635	0.09	617527	keystroke_Key.enter	Key.enter	n/a
308.858	6.417	617716	prompt	n/a	naples consumers mortality processor\n
309.559	0.075	619118	keystroke_n	n	n/a
309.664	0.075	619328	keystroke_a	a	n/a
309.754	0.09	619508	keystroke_p	p	n/a
310.054	0.015	620108	keystroke_l	l	n/a
310.444	0.12	620888	keystroke_e	e	n/a
310.504	0.12	621008	keystroke_s	s	n/a
310.669	0.09	621338	keystroke_Key.space	Key.space	n/a
310.819	0.105	621638	keystroke_c	c	n/a
310.894	0.09	621788	keystroke_o	o	n/a
310.939	0.09	621878	keystroke_n	n	n/a
311.164	0.09	622328	keystroke_s	s	n/a
311.224	0.075	622448	keystroke_u	u	n/a
311.404	0.06	622808	keystroke_m	m	n/a
311.494	0.075	622988	keystroke_e	e	n/a
311.524	0.09	623048	keystroke_r	r	n/a
311.794	0.105	623588	keystroke_s	s	n/a
311.974	0.105	623948	keystroke_Key.space	Key.space	n/a
312.379	0.105	624758	keystroke_m	m	n/a
312.439	0.135	624878	keystroke_o	o	n/a
312.529	0.075	625058	keystroke_r	r	n/a
312.7085	0.09	625417	keystroke_t	t	n/a
312.7835	0.135	625567	keystroke_a	a	n/a
312.8885	0.105	625777	keystroke_l	l	n/a
313.0985	0.0905	626197	keystroke_i	i	n/a
313.234	0.0895	626468	keystroke_t	t	n/a
313.3245	0.089	626649	keystroke_y	y	n/a
313.4285	0.09	626857	keystroke_Key.space	Key.space	n/a
313.6385	0.075	627277	keystroke_p	p	n/a
313.7285	0.075	627457	keystroke_r	r	n/a
313.7885	0.06	627577	keystroke_o	o	n/a
314.2685	0.075	628537	keystroke_c	c	n/a
314.299	0.1045	628598	keystroke_e	e	n/a
314.6435	0.0755	629287	keystroke_s	s	n/a
314.779	0.09	629558	keystroke_s	s	n/a
314.914	0.12	629828	keystroke_o	o	n/a
315.019	0.09	630038	keystroke_r	r	n/a
315.169	0.105	630338	keystroke_Key.enter	Key.enter	n/a
315.2795	6.8505	630559	prompt	n/a	grows macromedia he'd permits\n
315.979	0.0595	631958	keystroke_g	g	n/a
316.0685	0.075	632137	keystroke_o	o	n/a
316.1285	0.075	632257	keystroke_r	r	n/a
316.2335	0.09	632467	keystroke_o	o	n/a
316.3235	0.1205	632647	keystroke_w	w	n/a
316.639	0.045	633278	keystroke_Key.backspace	Key.backspace	n/a
316.759	0.075	633518	keystroke_Key.backspace	Key.backspace	n/a
316.909	0.059	633818	keystroke_Key.backspace	Key.backspace	n/a
317.0435	0.075	634087	keystroke_Key.backspace	Key.backspace	n/a
317.1785	0.075	634357	keystroke_r	r	n/a
317.2685	0.09	634537	keystroke_o	o	n/a
317.3435	0.0905	634687	keystroke_w	w	n/a
317.494	0.105	634988	keystroke_s	s	n/a
317.6595	0.0885	635319	keystroke_Key.space	Key.space	n/a
317.8995	0.089	635799	keystroke_m	m	n/a
317.9745	0.119	635949	keystroke_a	a	n/a
318.1395	0.09	636279	keystroke_c	c	n/a
318.559	0.06	637118	keystroke_r	r	n/a
318.633	0.061	637266	keystroke_o	o	n/a
318.648	0.03	637296	keystroke_i	i	n/a
319.188	0.075	638376	keystroke_Key.backspace	Key.backspace	n/a
319.458	0.0755	638916	keystroke_m	m	n/a
319.5635	0.0605	639127	keystroke_e	e	n/a
319.743	0.091	639486	keystroke_d	d	n/a
319.8635	0.0895	639727	keystroke_i	i	n/a
319.938	0.12	639876	keystroke_a	a	n/a
320.1335	0.09	640267	keystroke_Key.space	Key.space	n/a
320.389	0.09	640778	keystroke_h	h	n/a
320.494	0.075	640988	keystroke_e	e	n/a
320.644	0.105	641288	keystroke_'	'	n/a
320.794	0.075	641588	keystroke_d	d	n/a
320.944	0.09	641888	keystroke_Key.space	Key.space	n/a
321.109	0.12	642218	keystroke_p	p	n/a
321.199	0.105	642398	keystroke_e	e	n/a
321.274	0.09	642548	keystroke_r	r	n/a
321.469	0.105	642938	keystroke_m	m	n/a
321.544	0.12	643088	keystroke_i	i	n/a
321.829	0.135	643658	keystroke_t	t	n/a
321.904	0.15	643808	keystroke_s	s	n/a
322.024	0.105	644048	keystroke_Key.enter	Key.enter	n/a
322.134	6.686	644268	prompt	n/a	organized desktops alot stockings\n
322.774	0.0595	645548	keystroke_g	g	n/a
322.819	0.105	645638	keystroke_o	o	n/a
323.104	0.03	646208	keystroke_Key.backspace	Key.backspace	n/a
323.194	0.075	646388	keystroke_Key.backspace	Key.backspace	n/a
323.404	0.09	646808	keystroke_o	o	n/a
323.509	0.075	647018	keystroke_r	r	n/a
323.719	0.09	647438	keystroke_g	g	n/a
324.169	0.075	648338	keystroke_a	a	n/a
324.259	0.075	648518	keystroke_n	n	n/a
324.454	0.09	648908	keystroke_i	i	n/a
324.529	0.09	649058	keystroke_z	z	n/a
324.694	0.06	649388	keystroke_e	e	n/a
324.829	0.12	649658	keystroke_d	d	n/a
324.964	0.075	649928	keystroke_Key.space	Key.space	n/a
325.219	0.045	650438	keystroke_d	d	n/a
325.369	0.09	650738	keystroke_e	e	n/a
325.414	0.135	650828	keystroke_s	s	n/a
325.549	0.105	651098	keystroke_k	k	n/a
326.014	0.075	652028	keystroke_t	t	n/a
326.074	0.12	652148	keystroke_o	o	n/a
326.149	0.135	652298	keystroke_p	p	n/a
326.329	0.105	652658	keystroke_s	s	n/a
326.509	0.075	653018	keystroke_Key.space	Key.space	n/a
326.629	0.09	653258	keystroke_a	a	n/a
326.704	0.075	653408	keystroke_l	l	n/a
326.854	0.09	653708	keystroke_o	o	n/a
326.989	0.105	653978	keystroke_t	t	n/a
327.079	0.105	654158	keystroke_Key.space	Key.space	n/a
327.289	0.135	654578	keystroke_s	s	n/a
327.364	0.09	654728	keystroke_t	t	n/a
327.484	0.09	654968	keystroke_o	o	n/a
327.589	0.105	655178	keystroke_c	c	n/a
328.0385	0.105	656077	keystroke_k	k	n/a
328.2635	0.135	656527	keystroke_i	i	n/a
328.3235	0.135	656647	keystroke_n	n	n/a
328.4435	0.15	656887	keystroke_g	g	n/a
328.5335	0.1355	657067	keystroke_s	s	n/a
328.714	0.105	657428	keystroke_Key.enter	Key.enter	n/a
328.823	8.247	657646	prompt	n/a	disciplinary daddy disciplinary medicines\n
329.539	0.075	659078	keystroke_d	d	n/a
329.644	0.105	659288	keystroke_i	i	n/a
329.734	0.09	659468	keystroke_s	s	n/a
329.974	0.075	659948	keystroke_p	p	n/a
330.364	0.075	660728	keystroke_Key.backspace	Key.backspace	n/a
330.589	0.06	661178	keystroke_c	c	n/a
330.739	0.09	661478	keystroke_i	i	n/a
331.294	0.105	662588	keystroke_p	p	n/a
331.324	0.09	662648	keystroke_l	l	n/a
331.534	0.06	663068	keystroke_i	i	n/a
331.699	0.09	663398	keystroke_n	n	n/a
331.894	0.105	663788	keystroke_a	a	n/a
332.194	0.075	664388	keystroke_r	r	n/a
332.299	0.105	664598	keystroke_y	y	n/a
332.419	0.12	664838	keystroke_Key.space	Key.space	n/a
332.569	0.105	665138	keystroke_d	d	n/a
332.659	0.09	665318	keystroke_a	a	n/a
332.824	0.06	665648	keystroke_d	d	n/a
332.974	0.06	665948	keystroke_d	d	n/a
333.094	0.075	666188	keystroke_y	y	n/a
333.184	0.09	666368	keystroke_Key.space	Key.space	n/a
333.334	0.075	666668	keystroke_d	d	n/a
333.439	0.105	666878	keystroke_i	i	n/a
333.559	0.09	667118	keystroke_s	s	n/a
333.964	0.09	667928	keystroke_c	c	n/a
334.069	0.105	668138	keystroke_i	i	n/a
334.4285	0.105	668857	keystroke_p	p	n/a
334.4745	0.119	668949	keystroke_l	l	n/a
334.729	0.12	669458	keystroke_i	i	n/a
334.834	0.165	669668	keystroke_n	n	n/a
335.254	0.12	670508	keystroke_a	a	n/a
335.329	0.12	670658	keystroke_r	r	n/a
335.464	0.12	670928	keystroke_y	y	n/a
335.569	0.105	671138	keystroke_Key.space	Key.space	n/a
335.779	0.075	671558	keystroke_m	m	n/a
335.869	0.075	671738	keystroke_e	e	n/a
336.064	0.075	672128	keystroke_d	d	n/a
336.154	0.075	672308	keystroke_i	i	n/a
336.274	0.09	672548	keystroke_c	c	n/a
336.589	0.105	673178	keystroke_i	i	n/a
336.619	0.135	673238	keystroke_n	n	n/a
336.709	0.12	673418	keystroke_e	e	n/a
336.769	0.135	673538	keystroke_s	s	n/a
336.964	0.105	673928	keystroke_Key.enter	Key.enter	n/a
337.073	6.6725	674146	prompt	n/a	warm correctly squad guam\n
337.759	0.12	675518	keystroke_w	w	n/a
337.819	0.105	675638	keystroke_a	a	n/a
337.939	0.075	675878	keystroke_m	m	n/a
338.059	0.075	676118	keystroke_r	r	n/a
338.254	0.105	676508	keystroke_Key.space	Key.space	n/a
338.554	0.075	677108	keystroke_c	c	n/a
338.8385	0.045	677677	keystroke_Key.backspace	Key.backspace	n/a
338.9735	0.06	677947	keystroke_Key.backspace	Key.backspace	n/a
339.1085	0.06	678217	keystroke_Key.backspace	Key.backspace	n/a
339.2585	0.045	678517	keystroke_Key.backspace	Key.backspace	n/a
339.3785	0.075	678757	keystroke_r	r	n/a
339.4835	0.09	678967	keystroke_m	m	n/a
339.6485	0.105	679297	keystroke_Key.space	Key.space	n/a
339.7985	0.09	679597	keystroke_c	c	n/a
339.9485	0.09	679897	keystroke_o	o	n/a
340.0535	0.075	680107	keystroke_r	r	n/a
340.1735	0.075	680347	keystroke_r	r	n/a
340.2785	0.15	680557	keystroke_e	e	n/a
340.3985	0.075	680797	keystroke_c	c	n/a
340.6085	0.06	681217	keystroke_t	t	n/a
340.7285	0.105	681457	keystroke_l	l	n/a
340.8485	0.075	681697	keystroke_y	y	n/a
340.9835	0.09	681967	keystroke_Key.space	Key.space	n/a
341.4635	0.09	682927	keystroke_s	s	n/a
341.6585	0.06	683317	keystroke_q	q	n/a
341.7485	0.105	683497	keystroke_u	u	n/a
341.8985	0.09	683797	keystroke_a	a	n/a
342.3485	0.06	684697	keystroke_d	d	n/a
342.4535	0.12	684907	keystroke_Key.space	Key.space	n/a
342.8285	0.075	685657	keystroke_g	g	n/a
343.174	0.075	686348	keystroke_u	u	n/a
343.324	0.105	686648	keystroke_a	a	n/a
343.489	0.09	686978	keystroke_m	m	n/a
343.639	0.105	687278	keystroke_Key.enter	Key.enter	n/a
343.748	4.482	687496	prompt	n/a	cite rangers televisions mean\n
344.4335	0.075	688867	keystroke_c	c	n/a
344.5235	0.09	689047	keystroke_i	i	n/a
344.6285	0.1205	689257	keystroke_t	t	n/a
344.674	0.15	689348	keystroke_e	e	n/a
344.809	0.105	689618	keystroke_Key.space	Key.space	n/a
345.079	0.105	690158	keystroke_r	r	n/a
345.244	0.12	690488	keystroke_a	a	n/a
345.409	0.09	690818	keystroke_n	n	n/a
345.544	0.075	691088	keystroke_g	g	n/a
345.679	0.105	691358	keystroke_e	e	n/a
345.724	0.105	691448	keystroke_r	r	n/a
345.904	0.1195	691808	keystroke_s	s	n/a
346.0835	0.075	692167	keystroke_Key.space	Key.space	n/a
346.1885	0.09	692377	keystroke_t	t	n/a
346.2485	0.075	692497	keystroke_e	e	n/a
346.3085	0.09	692617	keystroke_l	l	n/a
346.4135	0.075	692827	keystroke_e	e	n/a
346.669	0.06	693338	keystroke_v	v	n/a
346.729	0.09	693458	keystroke_i	i	n/a
346.849	0.09	693698	keystroke_s	s	n/a
346.924	0.12	693848	keystroke_i	i	n/a
346.999	0.12	693998	keystroke_o	o	n/a
347.044	0.15	694088	keystroke_n	n	n/a
347.179	0.15	694358	keystroke_s	s	n/a
347.374	0.1045	694748	keystroke_Key.space	Key.space	n/a
347.7035	0.09	695407	keystroke_m	m	n/a
347.7635	0.135	695527	keystroke_e	e	n/a
347.8535	0.12	695707	keystroke_a	a	n/a
347.9285	0.075	695857	keystroke_n	n	n/a
348.1535	0.075	696307	keystroke_Key.enter	Key.enter	n/a
348.2345	4.841	696469	prompt	n/a	missions arms merchants partners\n
348.9185	0.09	697837	keystroke_m	m	n/a
348.9635	0.105	697927	keystroke_i	i	n/a
349.0385	0.075	698077	keystroke_s	s	n/a
349.1585	0.09	698317	keystroke_s	s	n/a
349.2635	0.12	698527	keystroke_i	i	n/a
349.3385	0.105	698677	keystroke_o	o	n/a
349.3685	0.135	698737	keystroke_n	n	n/a
349.5335	0.12	699067	keystroke_s	s	n/a
349.6835	0.09	699367	keystroke_Key.space	Key.space	n/a
349.7885	0.15	699577	keystroke_a	a	n/a
350.0435	0.09	700087	keystroke_r	r	n/a
350.1935	0.075	700387	keystroke_m	m	n/a
350.2835	0.106	700567	keystroke_s	s	n/a
350.4185	0.061	700837	keystroke_Key.space	Key.space	n/a
350.5845	0.134	701169	keystroke_m	m	n/a
350.6745	0.09	701349	keystroke_e	e	n/a
350.7345	0.06	701469	keystroke_r	r	n/a
351.0345	0.09	702069	keystroke_c	c	n/a
351.1395	0.075	702279	keystroke_h	h	n/a
351.2295	0.12	702459	keystroke_a	a	n/a
351.3195	0.09	702639	keystroke_n	n	n/a
351.5435	0.136	703087	keystroke_t	t	n/a
351.6045	0.134	703209	keystroke_s	s	n/a
351.7235	0.09	703447	keystroke_Key.space	Key.space	n/a
351.8595	0.105	703719	keystroke_p	p	n/a
351.9495	0.09	703899	keystroke_a	a	n/a
351.9785	0.09	703957	keystroke_r	r	n/a
352.1445	0.089	704289	keystroke_t	t	n/a
352.3395	0.09	704679	keystroke_n	n	n/a
352.4435	0.075	704887	keystroke_e	e	n/a
352.654	0.1045	705308	keystroke_r	r	n/a
352.864	0.09	705728	keystroke_s	s	n/a
352.969	0.105	705938	keystroke_Key.enter	Key.enter	n/a
353.078	4.5575	706156	prompt	n/a	wider shore harder gather\n
353.8385	0.075	707677	keystroke_w	w	n/a
353.9285	0.091	707857	keystroke_i	i	n/a
354.0485	0.045	708097	keystroke_d	d	n/a
354.1995	0.104	708399	keystroke_e	e	n/a
354.2285	0.091	708457	keystroke_r	r	n/a
354.3335	0.09	708667	keystroke_Key.space	Key.space	n/a
354.4845	0.104	708969	keystroke_s	s	n/a
354.5595	0.1195	709119	keystroke_h	h	n/a
354.6185	0.1055	709237	keystroke_o	o	n/a
354.694	0.12	709388	keystroke_r	r	n/a
354.739	0.12	709478	keystroke_e	e	n/a
354.889	0.105	709778	keystroke_Key.space	Key.space	n/a
355.129	0.06	710258	keystroke_s	s	n/a
355.174	0.12	710348	keystroke_h	h	n/a
355.474	0.045	710948	keystroke_Key.backspace	Key.backspace	n/a
355.594	0.06	711188	keystroke_Key.backspace	Key.backspace	n/a
355.759	0.12	711518	keystroke_h	h	n/a
355.834	0.105	711668	keystroke_a	a	n/a
355.924	0.12	711848	keystroke_r	r	n/a
355.999	0.135	711998	keystroke_d	d	n/a
356.254	0.135	712508	keystroke_e	e	n/a
356.329	0.12	712658	keystroke_r	r	n/a
356.539	0.075	713078	keystroke_Key.space	Key.space	n/a
356.7485	0.075	713497	keystroke_g	g	n/a
356.9285	0.105	713857	keystroke_a	a	n/a
357.1535	0.075	714307	keystroke_t	t	n/a
357.2735	0.09	714547	keystroke_h	h	n/a
357.3935	0.075	714787	keystroke_e	e	n/a
357.4535	0.09	714907	keystroke_r	r	n/a
357.5585	0.075	715117	keystroke_Key.enter	Key.enter	n/a
357.6385	4.7815	715277	prompt	n/a	warned jury documents commander\n
358.2935	0.12	716587	keystroke_w	w	n/a
358.3835	0.075	716767	keystroke_a	a	n/a
358.5785	0.06	717157	keystroke_n	n	n/a
358.9235	0.06	717847	keystroke_Key.backspace	Key.backspace	n/a
359.0285	0.045	718057	keystroke_r	r	n/a
359.1035	0.105	718207	keystroke_n	n	n/a
359.1635	0.075	718327	keystroke_e	e	n/a
359.3135	0.09	718627	keystroke_d	d	n/a
359.3735	0.105	718747	keystroke_Key.space	Key.space	n/a
359.5245	0.074	719049	keystroke_j	j	n/a
359.6585	0.091	719317	keystroke_u	u	n/a
359.7635	0.09	719527	keystroke_r	r	n/a
359.8545	0.089	719709	keystroke_y	y	n/a
359.9735	0.12	719947	keystroke_Key.space	Key.space	n/a
360.3335	0.075	720667	keystroke_d	d	n/a
360.3795	0.089	720759	keystroke_o	o	n/a
360.4985	0.105	720997	keystroke_c	c	n/a
360.5735	0.09	721147	keystroke_u	u	n/a
360.7835	0.09	721567	keystroke_m	m	n/a
360.9335	0.105	721867	keystroke_e	e	n/a
361.0535	0.105	722107	keystroke_n	n	n/a
361.1735	0.135	722347	keystroke_t	t	n/a
361.2485	0.135	722497	keystroke_s	s	n/a
361.3535	0.09	722707	keystroke_Key.space	Key.space	n/a
361.5185	0.075	723037	keystroke_c	c	n/a
361.5485	0.09	723097	keystroke_o	o	n/a
361.5795	0.074	723159	keystroke_m	m	n/a
361.7285	0.075	723457	keystroke_m	m	n/a
361.8335	0.09	723667	keystroke_a	a	n/a
361.9085	0.09	723817	keystroke_n	n	n/a
361.9995	0.09	723999	keystroke_d	d	n/a
362.1485	0.135	724297	keystroke_e	e	n/a
362.2085	0.105	724417	keystroke_r	r	n/a
362.3285	0.0905	724657	keystroke_Key.enter	Key.enter	n/a
362.4235	6.507	724847	prompt	n/a	shops supervisor hist candle\n
362.974	0.09	725948	keystroke_s	s	n/a
363.049	0.06	726098	keystroke_h	h	n/a
363.079	0.06	726158	keystroke_o	o	n/a
363.274	0.06	726548	keystroke_[	[	n/a
363.379	0.09	726758	keystroke_s	s	n/a
363.7985	0.06	727597	keystroke_Key.backspace	Key.backspace	n/a
363.9185	0.0755	727837	keystroke_Key.backspace	Key.backspace	n/a
364.099	0.075	728198	keystroke_p	p	n/a
364.204	0.09	728408	keystroke_s	s	n/a
364.339	0.105	728678	keystroke_Key.space	Key.space	n/a
364.609	0.0745	729218	keystroke_d	d	n/a
364.6985	0.075	729397	keystroke_u	u	n/a
364.9235	0.06	729847	keystroke_Key.backspace	Key.backspace	n/a
365.0285	0.0755	730057	keystroke_Key.backspace	Key.backspace	n/a
365.164	0.105	730328	keystroke_s	s	n/a
365.224	0.075	730448	keystroke_u	u	n/a
365.359	0.12	730718	keystroke_p	p	n/a
365.494	0.105	730988	keystroke_e	e	n/a
365.539	0.105	731078	keystroke_r	r	n/a
365.824	0.06	731648	keystroke_v	v	n/a
365.899	0.075	731798	keystroke_i	i	n/a
366.019	0.12	732038	keystroke_s	s	n/a
366.199	0.09	732398	keystroke_o	o	n/a
366.484	0.09	732968	keystroke_r	r	n/a
366.619	0.105	733238	keystroke_Key.space	Key.space	n/a
367.459	0.12	734918	keystroke_h	h	n/a
367.534	0.12	735068	keystroke_i	i	n/a
367.714	0.12	735428	keystroke_s	s	n/a
367.804	0.09	735608	keystroke_t	t	n/a
367.954	0.12	735908	keystroke_Key.space	Key.space	n/a
368.179	0.09	736358	keystroke_c	c	n/a
368.239	0.09	736478	keystroke_a	a	n/a
368.299	0.09	736598	keystroke_n	n	n/a
368.479	0.075	736958	keystroke_d	d	n/a
368.644	0.0895	737288	keystroke_l	l	n/a
368.7485	0.075	737497	keystroke_e	e	n/a
368.8535	0.0755	737707	keystroke_Key.enter	Key.enter	n/a
368.9335	7.497	737867	prompt	n/a	wilderness refrigerator describe decide\n
369.784	0.075	739568	keystroke_w	w	n/a
369.844	0.09	739688	keystroke_i	i	n/a
369.904	0.09	739808	keystroke_l	l	n/a
370.054	0.06	740108	keystroke_d	d	n/a
370.204	0.075	740408	keystroke_e	e	n/a
370.249	0.09	740498	keystroke_r	r	n/a
370.474	0.09	740948	keystroke_n	n	n/a
370.565	0.074	741130	keystroke_e	e	n/a
370.7135	0.09	741427	keystroke_s	s	n/a
370.8945	0.074	741789	keystroke_s	s	n/a
370.9985	0.106	741997	keystroke_Key.space	Key.space	n/a
371.1495	0.104	742299	keystroke_r	r	n/a
371.2095	0.09	742419	keystroke_e	e	n/a
371.6145	0.105	743229	keystroke_f	f	n/a
371.6735	0.121	743347	keystroke_r	r	n/a
371.8395	0.0895	743679	keystroke_i	i	n/a
372.769	0.06	745538	keystroke_g	g	n/a
372.919	0.075	745838	keystroke_e	e	n/a
372.949	0.09	745898	keystroke_r	r	n/a
373.204	0.075	746408	keystroke_a	a	n/a
373.4285	0.075	746857	keystroke_t	t	n/a
373.5185	0.091	747037	keystroke_o	o	n/a
373.6235	0.075	747247	keystroke_r	r	n/a
373.7285	0.091	747457	keystroke_Key.space	Key.space	n/a
373.8945	0.089	747789	keystroke_d	d	n/a
374.0735	0.12	748147	keystroke_e	e	n/a
374.1045	0.12	748209	keystroke_s	s	n/a
374.4335	0.075	748867	keystroke_c	c	n/a
374.6295	0.074	749259	keystroke_r	r	n/a
374.7185	0.06	749437	keystroke_i	i	n/a
374.8535	0.105	749707	keystroke_b	b	n/a
375.0035	0.076	750007	keystroke_e	e	n/a
375.0795	0.089	750159	keystroke_Key.space	Key.space	n/a
375.2295	0.089	750459	keystroke_d	d	n/a
375.4085	0.06	750817	keystroke_e	e	n/a
375.7085	0.075	751417	keystroke_c	c	n/a
375.7985	0.0905	751597	keystroke_i	i	n/a
375.9785	0.075	751957	keystroke_d	d	n/a
376.1585	0.06	752317	keystroke_e	e	n/a
376.3235	0.105	752647	keystroke_Key.enter	Key.enter	n/a
376.4335	7.737	752867	prompt	n/a	litigation quebec princess send\n
377.1485	0.0905	754297	keystroke_l	l	n/a
377.194	0.105	754388	keystroke_i	i	n/a
377.404	0.09	754808	keystroke_g	g	n/a
377.509	0.09	755018	keystroke_i	i	n/a
378.409	0.045	756818	keystroke_Key.backspace	Key.backspace	n/a
378.544	0.06	757088	keystroke_Key.backspace	Key.backspace	n/a
378.664	0.075	757328	keystroke_t	t	n/a
378.754	0.09	757508	keystroke_i	i	n/a
379.069	0.075	758138	keystroke_g	g	n/a
379.159	0.09	758318	keystroke_u	u	n/a
379.489	0.045	758978	keystroke_Key.backspace	Key.backspace	n/a
379.594	0.09	759188	keystroke_a	a	n/a
379.744	0.105	759488	keystroke_t	t	n/a
379.804	0.1195	759608	keystroke_i	i	n/a
379.8935	0.06	759787	keystroke_o	o	n/a
379.9085	0.165	759817	keystroke_n	n	n/a
380.1185	0.105	760237	keystroke_Key.space	Key.space	n/a
380.7035	0.105	761407	keystroke_q	q	n/a
380.8235	0.0755	761647	keystroke_u	u	n/a
380.974	0.105	761948	keystroke_e	e	n/a
381.3935	0.0905	762787	keystroke_b	b	n/a
381.469	0.09	762938	keystroke_e	e	n/a
381.634	0.105	763268	keystroke_c	c	n/a
381.754	0.105	763508	keystroke_Key.space	Key.space	n/a
381.949	0.075	763898	keystroke_p	p	n/a
382.039	0.09	764078	keystroke_r	r	n/a
382.114	0.105	764228	keystroke_i	i	n/a
382.174	0.105	764348	keystroke_n	n	n/a
382.564	0.075	765128	keystroke_e	e	n/a
382.879	0.075	765758	keystroke_Key.backspace	Key.backspace	n/a
382.999	0.09	765998	keystroke_c	c	n/a
383.1795	0.105	766359	keystroke_e	e	n/a
383.2245	0.09	766449	keystroke_s	s	n/a
383.4045	0.09	766809	keystroke_s	s	n/a
383.5245	0.105	767049	keystroke_Key.space	Key.space	n/a
383.7045	0.075	767409	keystroke_s	s	n/a
383.7345	0.12	767469	keystroke_e	e	n/a
383.8695	0.105	767739	keystroke_n	n	n/a
383.9595	0.075	767919	keystroke_d	d	n/a
384.0795	0.089	768159	keystroke_Key.enter	Key.enter	n/a
384.1745	7.661	768349	prompt	n/a	adapters consequences constraint solid\n
384.9045	0.09	769809	keystroke_a	a	n/a
385.0545	0.075	770109	keystroke_d	d	n/a
385.1445	0.105	770289	keystroke_a	a	n/a
385.2795	0.105	770559	keystroke_p	p	n/a
385.5945	0.075	771189	keystroke_t	t	n/a
385.8345	0.075	771669	keystroke_e	e	n/a
385.8795	0.075	771759	keystroke_r	r	n/a
386.0295	0.12	772059	keystroke_s	s	n/a
386.1495	0.09	772299	keystroke_Key.space	Key.space	n/a
386.3295	0.105	772659	keystroke_c	c	n/a
386.4045	0.09	772809	keystroke_o	o	n/a
386.4345	0.1045	772869	keystroke_n	n	n/a
386.6745	0.075	773349	keystroke_s	s	n/a
386.8835	0.061	773767	keystroke_e	e	n/a
387.3485	0.06	774697	keystroke_q	q	n/a
387.4245	0.045	774849	keystroke_u	u	n/a
387.4385	0.016	774877	keystroke_i	i	n/a
387.9495	0.074	775899	keystroke_Key.backspace	Key.backspace	n/a
388.0995	0.075	776199	keystroke_e	e	n/a
388.1895	0.0895	776379	keystroke_n	n	n/a
388.309	0.09	776618	keystroke_c	c	n/a
388.369	0.165	776738	keystroke_e	e	n/a
388.624	0.105	777248	keystroke_s	s	n/a
388.864	0.09	777728	keystroke_Key.space	Key.space	n/a
389.239	0.09	778478	keystroke_s	s	n/a
389.539	0.06	779078	keystroke_Key.backspace	Key.backspace	n/a
389.644	0.075	779288	keystroke_c	c	n/a
389.734	0.09	779468	keystroke_o	o	n/a
389.764	0.12	779528	keystroke_n	n	n/a
389.929	0.105	779858	keystroke_s	s	n/a
389.989	0.09	779978	keystroke_t	t	n/a
390.124	0.12	780248	keystroke_r	r	n/a
390.214	0.12	780428	keystroke_a	a	n/a
390.274	0.12	780548	keystroke_i	i	n/a
390.304	0.18	780608	keystroke_n	n	n/a
390.544	0.135	781088	keystroke_t	t	n/a
390.829	0.12	781658	keystroke_Key.space	Key.space	n/a
391.1735	0.09	782347	keystroke_s	s	n/a
391.2495	0.074	782499	keystroke_o	o	n/a
391.3835	0.09	782767	keystroke_l	l	n/a
391.5635	0.075	783127	keystroke_i	i	n/a
391.6685	0.075	783337	keystroke_d	d	n/a
391.7585	0.075	783517	keystroke_Key.enter	Key.enter	n/a
391.8435	5.662	783687	prompt	n/a	shaped faculty agent craig\n
392.5245	0.09	785049	keystroke_s	s	n/a
392.6585	0.09	785317	keystroke_h	h	n/a
392.7335	0.105	785467	keystroke_a	a	n/a
392.8545	0.089	785709	keystroke_p	p	n/a
392.9585	0.06	785917	keystroke_e	e	n/a
393.0945	0.075	786189	keystroke_d	d	n/a
393.2435	0.075	786487	keystroke_Key.space	Key.space	n/a
393.5285	0.09	787057	keystroke_f	f	n/a
393.5885	0.09	787177	keystroke_a	a	n/a
393.7535	0.106	787507	keystroke_c	c	n/a
393.8895	0.074	787779	keystroke_u	u	n/a
393.9935	0.09	787987	keystroke_t	t	n/a
394.4135	0.06	788827	keystroke_Key.backspace	Key.backspace	n/a
394.6085	0.075	789217	keystroke_l	l	n/a
394.8485	0.075	789697	keystroke_t	t	n/a
394.9385	0.075	789877	keystroke_y	y	n/a
395.0735	0.105	790147	keystroke_Key.space	Key.space	n/a
395.3735	0.09	790747	keystroke_a	a	n/a
395.5385	0.09	791077	keystroke_g	g	n/a
395.5685	0.15	791137	keystroke_e	e	n/a
395.6735	0.105	791347	keystroke_n	n	n/a
395.8235	0.105	791647	keystroke_t	t	n/a
395.9435	0.09	791887	keystroke_Key.space	Key.space	n/a
396.1385	0.06	792277	keystroke_c	c	n/a
396.2885	0.0905	792577	keystroke_r	r	n/a
396.3795	0.0595	792759	keystroke_q	q	n/a
396.4235	0.135	792847	keystroke_i	i	n/a
396.7695	0.06	793539	keystroke_Key.backspace	Key.backspace	n/a
396.9045	0.075	793809	keystroke_Key.backspace	Key.backspace	n/a
397.0545	0.09	794109	keystroke_a	a	n/a
397.1595	0.1045	794319	keystroke_i	i	n/a
397.279	0.06	794558	keystroke_g	g	n/a
397.429	0.075	794858	keystroke_Key.enter	Key.enter	n/a
397.51	7.6755	795020	prompt	n/a	similarly tract receives cradle\n
398.0745	0.09	796149	keystroke_s	s	n/a
398.1795	0.09	796359	keystroke_i	i	n/a
398.4935	0.061	796987	keystroke_m	m	n/a
398.6735	0.06	797347	keystroke_i	i	n/a
398.8385	0.09	797677	keystroke_l	l	n/a
399.0035	0.105	798007	keystroke_a	a	n/a
399.0645	0.105	798129	keystroke_r	r	n/a
399.544	0.12	799088	keystroke_l	l	n/a
399.679	0.09	799358	keystroke_y	y	n/a
399.829	0.105	799658	keystroke_Key.space	Key.space	n/a
400.114	0.075	800228	keystroke_t	t	n/a
400.279	0.075	800558	keystroke_r	r	n/a
400.309	0.12	800618	keystroke_a	a	n/a
400.474	0.105	800948	keystroke_c	c	n/a
400.714	0.0895	801428	keystroke_t	t	n/a
400.8785	0.12	801757	keystroke_Key.space	Key.space	n/a
401.3735	0.091	802747	keystroke_r	r	n/a
401.4335	0.076	802867	keystroke_e	e	n/a
401.6145	0.09	803229	keystroke_c	c	n/a
401.7195	0.075	803439	keystroke_w	w	n/a
401.7195	0.075	803439	keystroke_e	e	n/a
401.8395	0.1345	803679	keystroke_i	i	n/a
402.184	0.045	804368	keystroke_Key.backspace	Key.backspace	n/a
402.304	0.06	804608	keystroke_Key.backspace	Key.backspace	n/a
402.439	0.075	804878	keystroke_Key.backspace	Key.backspace	n/a
402.604	0.0895	805208	keystroke_e	e	n/a
402.754	0.075	805508	keystroke_i	i	n/a
402.8135	0.12	805627	keystroke_v	v	n/a
402.874	0.0895	805748	keystroke_e	e	n/a
403.084	0.0145	806168	keystroke_s	s	n/a
403.0845	0.0295	806169	keystroke_d	d	n/a
403.5485	0.0755	807097	keystroke_Key.backspace	Key.backspace	n/a
403.9685	0.105	807937	keystroke_Key.space	Key.space	n/a
404.389	0.06	808778	keystroke_c	c	n/a
404.5535	0.0905	809107	keystroke_r	r	n/a
404.5985	0.106	809197	keystroke_a	a	n/a
404.7945	0.075	809589	keystroke_d	d	n/a
404.9145	0.104	809829	keystroke_l	l	n/a
404.9895	0.105	809979	keystroke_e	e	n/a
405.1085	0.075	810217	keystroke_Key.enter	Key.enter	n/a
405.1885	8.862	810377	prompt	n/a	yields humans primary photographs\n
406.009	0.105	812018	keystroke_i	i	n/a
406.189	0.09	812378	keystroke_e	e	n/a
406.699	0.06	813398	keystroke_Key.backspace	Key.backspace	n/a
406.819	0.075	813638	keystroke_Key.backspace	Key.backspace	n/a
407.2835	0.0605	814567	keystroke_y	y	n/a
407.4345	0.06	814869	keystroke_e	e	n/a
407.7795	0.06	815559	keystroke_Key.backspace	Key.backspace	n/a
407.9445	0.09	815889	keystroke_i	i	n/a
408.0645	0.105	816129	keystroke_e	e	n/a
408.3045	0.105	816609	keystroke_l	l	n/a
408.4395	0.15	816879	keystroke_d	d	n/a
408.4995	0.12	816999	keystroke_s	s	n/a
408.8585	0.091	817717	keystroke_Key.space	Key.space	n/a
409.0245	0.135	818049	keystroke_h	h	n/a
409.0995	0.09	818199	keystroke_u	u	n/a
409.2945	0.105	818589	keystroke_m	m	n/a
409.4135	0.091	818827	keystroke_a	a	n/a
409.5195	0.089	819039	keystroke_n	n	n/a
409.6095	0.1045	819219	keystroke_s	s	n/a
409.715	0.104	819430	keystroke_Key.space	Key.space	n/a
409.864	0.0905	819728	keystroke_p	p	n/a
409.9845	0.075	819969	keystroke_r	r	n/a
410.0445	0.09	820089	keystroke_i	i	n/a
410.4485	0.091	820897	keystroke_m	m	n/a
410.5545	0.1045	821109	keystroke_a	a	n/a
410.6135	0.0905	821227	keystroke_r	r	n/a
410.779	0.09	821558	keystroke_y	y	n/a
410.959	0.12	821918	keystroke_Key.space	Key.space	n/a
411.154	0.105	822308	keystroke_p	p	n/a
411.214	0.105	822428	keystroke_h	h	n/a
411.4535	0.135	822907	keystroke_o	o	n/a
