onset	duration	sample	value	key	prompt_text
2.3115	14.431	4623	prompt	n/a	the quick brown fox jumps over a lazy dog\n
9.8275	0.042	19655	keystroke_t	t	n/a
9.8845	0.075	19769	keystroke_h	h	n/a
9.9295	0.165	19859	keystroke_e	e	n/a
10.0635	0.091	20127	keystroke_Key.space	Key.space	n/a
10.1995	0.12	20399	keystroke_q	q	n/a
10.2595	0.089	20519	keystroke_u	u	n/a
10.4545	0.09	20909	keystroke_i	i	n/a
10.7395	0.104	21479	keystroke_c	c	n/a
10.8295	0.105	21659	keystroke_k	k	n/a
11.0685	0.075	22137	keystroke_Key.space	Key.space	n/a
11.325	0.06	22650	keystroke_b	b	n/a
11.5045	0.09	23009	keystroke_r	r	n/a
11.5945	0.075	23189	keystroke_o	o	n/a
11.7445	0.09	23489	keystroke_w	w	n/a
11.8195	0.15	23639	keystroke_n	n	n/a
11.9545	0.105	23909	keystroke_Key.space	Key.space	n/a
12.0895	0.12	24179	keystroke_f	f	n/a
12.1945	0.09	24389	keystroke_o	o	n/a
12.4195	0.12	24839	keystroke_x	x	n/a
12.5845	0.09	25169	keystroke_Key.space	Key.space	n/a
12.7495	0.105	25499	keystroke_j	j	n/a
12.9445	0.045	25889	keystroke_u	u	n/a
13.1095	0.075	26219	keystroke_m	m	n/a
13.3645	0.015	26729	keystroke_p	p	n/a
13.4695	0.09	26939	keystroke_s	s	n/a
13.5895	0.075	27179	keystroke_Key.space	Key.space	n/a
13.7095	0.075	27419	keystroke_o	o	n/a
13.8295	0.135	27659	keystroke_v	v	n/a
13.9945	0.195	27989	keystroke_e	e	n/a
14.1295	0.105	28259	keystroke_r	r	n/a
14.2195	0.075	28439	keystroke_Key.space	Key.space	n/a
14.3695	0.12	28739	keystroke_a	a	n/a
14.4445	0.105	28889	keystroke_Key.space	Key.space	n/a
14.5345	0.105	29069	keystroke_l	l	n/a
14.6995	0.091	29399	keystroke_a	a	n/a
15.3295	0.135	30659	keystroke_z	z	n/a
15.5695	0.135	31139	keystroke_y	y	n/a
15.6595	0.1355	31319	keystroke_Key.space	Key.space	n/a
15.96	0.1045	31920	keystroke_d	d	n/a
16.0045	0.075	32009	keystroke_o	o	n/a
16.47	0.0745	32940	keystroke_g	g	n/a
16.6345	0.105	33269	keystroke_Key.enter	Key.enter	n/a
16.7485	5.169	33497	prompt	n/a	burner peace witness harm\n
17.52	0.0745	35040	keystroke_b	b	n/a
17.76	0.06	35520	keystroke_u	u	n/a
17.85	0.09	35700	keystroke_r	r	n/a
18.015	0.09	36030	keystroke_n	n	n/a
18.1345	0.1805	36269	keystroke_e	e	n/a
18.24	0.12	36480	keystroke_r	r	n/a
18.39	0.105	36780	keystroke_Key.space	Key.space	n/a
18.555	0.09	37110	keystroke_p	p	n/a
18.72	0.165	37440	keystroke_e	e	n/a
18.9	0.165	37800	keystroke_a	a	n/a
19.17	0.09	38340	keystroke_c	c	n/a
19.515	0.105	39030	keystroke_e	e	n/a
19.665	0.09	39330	keystroke_Key.space	Key.space	n/a
19.905	0.12	39810	keystroke_w	w	n/a
19.995	0.075	39990	keystroke_i	i	n/a
20.175	0.075	40350	keystroke_t	t	n/a
20.31	0.09	40620	keystroke_n	n	n/a
20.445	0.09	40890	keystroke_e	e	n/a
20.64	0.076	41280	keystroke_s	s	n/a
20.775	0.091	41550	keystroke_s	s	n/a
20.88	0.09	41760	keystroke_Key.space	Key.space	n/a
21.015	0.09	42030	keystroke_h	h	n/a
21.15	0.18	42300	keystroke_a	a	n/a
21.36	0.105	42720	keystroke_r	r	n/a
21.495	0.165	42990	keystroke_m	m	n/a
21.6	0.12	43200	keystroke_Key.space	Key.space	n/a
21.825	0.09	43650	keystroke_Key.enter	Key.enter	n/a
21.9225	6.04	43845	prompt	n/a	promo corners lack projector\n
22.605	0.09	45210	keystroke_p	p	n/a
22.74	0.105	45480	keystroke_r	r	n/a
22.83	0.075	45660	keystroke_o	o	n/a
22.995	0.12	45990	keystroke_m	m	n/a
23.13	0.045	46260	keystroke_o	o	n/a
23.31	0.165	46620	keystroke_Key.space	Key.space	n/a
23.55	0.15	47100	keystroke_c	c	n/a
23.655	0.09	47310	keystroke_o	o	n/a
23.805	0.105	47610	keystroke_r	r	n/a
24	0.0905	48000	keystroke_n	n	n/a
24.1205	0.1345	48241	keystroke_e	e	n/a
24.21	0.12	48420	keystroke_r	r	n/a
24.435	0.105	48870	keystroke_s	s	n/a
24.525	0.0905	49050	keystroke_Key.space	Key.space	n/a
24.645	0.075	49290	keystroke_l	l	n/a
24.78	0.105	49560	keystroke_a	a	n/a
24.975	0.105	49950	keystroke_c	c	n/a
25.0955	0.1345	50191	keystroke_k	k	n/a
25.1705	0.1345	50341	keystroke_Key.space	Key.space	n/a
25.35	0.105	50700	keystroke_p	p	n/a
25.486	0.0895	50972	keystroke_r	r	n/a
25.5905	0.0905	51181	keystroke_o	o	n/a
25.83	0.045	51660	keystroke_f	f	n/a
25.92	0.09	51840	keystroke_j	j	n/a
26.355	0.075	52710	keystroke_Key.backspace	Key.backspace	n/a
26.505	0.075	53010	keystroke_Key.backspace	Key.backspace	n/a
26.73	0.075	53460	keystroke_j	j	n/a
26.865	0.091	53730	keystroke_e	e	n/a
27.075	0.12	54150	keystroke_c	c	n/a
27.345	0.075	54690	keystroke_t	t	n/a
27.45	0.075	54900	keystroke_o	o	n/a
27.57	0.09	55140	keystroke_r	r	n/a
27.675	0.105	55350	keystroke_Key.space	Key.space	n/a
27.885	0.075	55770	keystroke_Key.enter	Key.enter	n/a
27.9675	7.1505	55935	prompt	n/a	dutch acquisitions national reel\n
28.6205	0.1045	57241	keystroke_d	d	n/a
28.755	0.106	57510	keystroke_u	u	n/a
28.98	0.09	57960	keystroke_t	t	n/a
29.25	0.105	58500	keystroke_c	c	n/a
29.3695	0.15	58739	keystroke_h	h	n/a
29.4745	0.135	58949	keystroke_Key.space	Key.space	n/a
29.6545	0.1055	59309	keystroke_a	a	n/a
29.88	0.105	59760	keystroke_c	c	n/a
30.211	0.15	60422	keystroke_q	q	n/a
30.315	0.075	60630	keystroke_u	u	n/a
30.435	0.09	60870	keystroke_i	i	n/a
30.69	0.12	61380	keystroke_s	s	n/a
30.781	0.075	61562	keystroke_i	i	n/a
31.036	0.089	62072	keystroke_t	t	n/a
31.14	0.255	62280	keystroke_i	i	n/a
31.245	0.18	62490	keystroke_o	o	n/a
31.335	0.15	62670	keystroke_n	n	n/a
31.515	0.121	63030	keystroke_s	s	n/a
31.605	0.105	63210	keystroke_Key.space	Key.space	n/a
31.845	0.09	63690	keystroke_n	n	n/a
31.965	0.135	63930	keystroke_a	a	n/a
32.2365	0.0585	64473	keystroke_t	t	n/a
32.2815	0.0885	64563	keystroke_i	i	n/a
32.415	0.1505	64830	keystroke_o	o	n/a
32.5505	0.09	65101	keystroke_n	n	n/a
33.7505	0.12	67501	keystroke_a	a	n/a
33.8715	0.18	67743	keystroke_l	l	n/a
33.9755	0.136	67951	keystroke_Key.space	Key.space	n/a
34.1705	0.136	68341	keystroke_r	r	n/a
34.4405	0.075	68881	keystroke_e	e	n/a
34.5905	0.09	69181	keystroke_e	e	n/a
34.6655	0.18	69331	keystroke_l	l	n/a
34.7865	0.119	69573	keystroke_Key.space	Key.space	n/a
35.0405	0.075	70081	keystroke_Key.enter	Key.enter	n/a
35.123	5.605	70246	prompt	n/a	clients mission fraud asked\n
35.7755	0.136	71551	keystroke_c	c	n/a
35.8665	0.074	71733	keystroke_l	l	n/a
35.9705	0.09	71941	keystroke_i	i	n/a
36.1205	0.105	72241	keystroke_e	e	n/a
36.2415	0.074	72483	keystroke_n	n	n/a
36.4055	0.106	72811	keystroke_t	t	n/a
36.6155	0.136	73231	keystroke_s	s	n/a
36.7205	0.195	73441	keystroke_Key.space	Key.space	n/a
36.8565	0.134	73713	keystroke_m	m	n/a
37.0065	0.059	74013	keystroke_i	i	n/a
37.1255	0.061	74251	keystroke_s	s	n/a
37.2615	0.075	74523	keystroke_s	s	n/a
37.3505	0.3	74701	keystroke_i	i	n/a
37.4565	0.225	74913	keystroke_o	o	n/a
37.5755	0.165	75151	keystroke_n	n	n/a
37.6655	0.165	75331	keystroke_Key.space	Key.space	n/a
37.8905	0.15	75781	keystroke_f	f	n/a
38.1005	0.165	76201	keystroke_a	a	n/a
38.5955	0.105	77191	keystroke_Key.backspace	Key.backspace	n/a
38.7765	0.1195	77553	keystroke_r	r	n/a
39.0005	0.135	78001	keystroke_a	a	n/a
39.2705	0.091	78541	keystroke_u	u	n/a
39.4815	0.105	78963	keystroke_d	d	n/a
39.5705	0.1055	79141	keystroke_Key.space	Key.space	n/a
39.796	0.091	79592	keystroke_a	a	n/a
39.932	0.1045	79864	keystroke_s	s	n/a
40.0505	0.091	80101	keystroke_k	k	n/a
40.2005	0.0755	80401	keystroke_e	e	n/a
40.381	0.076	80762	keystroke_d	d	n/a
40.441	0.1045	80882	keystroke_Key.space	Key.space	n/a
40.651	0.075	81302	keystroke_Key.enter	Key.enter	n/a
40.733	6.0425	81466	prompt	n/a	kinase why're design vinyl\n
41.416	0.105	82832	keystroke_k	k	n/a
41.657	0.074	83314	keystroke_i	i	n/a
41.821	0.075	83642	keystroke_n	n	n/a
41.987	0.074	83974	keystroke_a	a	n/a
42.121	0.105	84242	keystroke_s	s	n/a
42.301	0.12	84602	keystroke_e	e	n/a
42.406	0.105	84812	keystroke_Key.space	Key.space	n/a
42.557	0.089	85114	keystroke_w	w	n/a
42.661	0.075	85322	keystroke_h	h	n/a
42.857	0.075	85714	keystroke_y	y	n/a
43.066	0.121	86132	keystroke_'	'	n/a
43.351	0.136	86702	keystroke_r	r	n/a
43.457	0.164	86914	keystroke_e	e	n/a
43.636	0.09	87272	keystroke_Key.space	Key.space	n/a
44.131	0.09	88262	keystroke_d	d	n/a
44.296	0.091	88592	keystroke_e	e	n/a
44.507	0.134	89014	keystroke_s	s	n/a
44.612	0.075	89224	keystroke_i	i	n/a
44.807	0.075	89614	keystroke_g	g	n/a
44.927	0.074	89854	keystroke_n	n	n/a
45.1065	0.09	90213	keystroke_Key.space	Key.space	n/a
45.5115	0.06	91023	keystroke_v	v	n/a
45.5865	0.075	91173	keystroke_i	i	n/a
45.7515	0.09	91503	keystroke_n	n	n/a
46.1565	0.06	92313	keystroke_y	y	n/a
46.3515	0.09	92703	keystroke_l	l	n/a
46.5315	0.105	93063	keystroke_Key.space	Key.space	n/a
46.6815	0.09	93363	keystroke_Key.enter	Key.enter	n/a
46.785	11.167	93570	prompt	n/a	positive confused competition please\n
47.492	0.0745	94984	keystroke_p	p	n/a
47.7015	0.09	95403	keystroke_o	o	n/a
48.0165	0.12	96033	keystroke_s	s	n/a
48.1215	0.075	96243	keystroke_i	i	n/a
48.692	0.0895	97384	keystroke_t	t	n/a
48.797	0.06	97594	keystroke_i	i	n/a
48.932	0.18	97864	keystroke_v	v	n/a
49.052	0.18	98104	keystroke_e	e	n/a
49.202	0.105	98404	keystroke_Key.space	Key.space	n/a
49.517	0.105	99034	keystroke_c	c	n/a
49.592	0.075	99184	keystroke_o	o	n/a
49.727	0.06	99454	keystroke_n	n	n/a
50.282	0.135	100564	keystroke_f	f	n/a
50.372	0.105	100744	keystroke_u	u	n/a
50.687	0.09	101374	keystroke_e	e	n/a
50.867	0.12	101734	keystroke_s	s	n/a
51.032	0.075	102064	keystroke_e	e	n/a
51.182	0.135	102364	keystroke_d	d	n/a
51.302	0.09	102604	keystroke_Key.space	Key.space	n/a
51.452	0.12	102904	keystroke_c	c	n/a
51.542	0.18	103084	keystroke_o	o	n/a
52.022	0.09	104044	keystroke_Key.backspace	Key.backspace	n/a
52.187	0.075	104374	keystroke_Key.backspace	Key.backspace	n/a
52.337	0.045	104674	keystroke_Key.backspace	Key.backspace	n/a
52.487	0.045	104974	keystroke_Key.backspace	Key.backspace	n/a
52.607	0.06	105214	keystroke_Key.backspace	Key.backspace	n/a
52.772	0.03	105544	keystroke_Key.backspace	Key.backspace	n/a
52.952	0.015	105904	keystroke_Key.backspace	Key.backspace	n/a
53.597	0.0905	107194	keystroke_s	s	n/a
53.762	0.075	107524	keystroke_e	e	n/a
53.927	0.1205	107854	keystroke_d	d	n/a
54.032	0.1055	108064	keystroke_Key.space	Key.space	n/a
54.3775	0.135	108755	keystroke_c	c	n/a
54.8575	0.075	109715	keystroke_o	o	n/a
55.0225	0.09	110045	keystroke_m	m	n/a
55.2175	0.06	110435	keystroke_p	p	n/a
55.3225	0.12	110645	keystroke_e	e	n/a
55.5775	0.075	111155	keystroke_t	t	n/a
55.6675	0.06	111335	keystroke_i	i	n/a
55.7875	0.09	111575	keystroke_t	t	n/a
55.9225	0.27	111845	keystroke_i	i	n/a
56.0135	0.209	112027	keystroke_o	o	n/a
56.1175	0.165	112235	keystroke_n	n	n/a
56.3425	0.105	112685	keystroke_Key.space	Key.space	n/a
56.6285	0.074	113257	keystroke_p	p	n/a
56.8225	0.105	113645	keystroke_l	l	n/a
56.8975	0.165	113795	keystroke_e	e	n/a
57.0775	0.15	114155	keystroke_a	a	n/a
57.2285	0.194	114457	keystroke_s	s	n/a
57.4085	0.104	114817	keystroke_e	e	n/a
57.8725	0.075	115745	keystroke_Key.enter	Key.enter	n/a
57.9595	5.661	115919	prompt	n/a	bundle washing status nervous\n
58.7725	0.091	117545	keystroke_b	b	n/a
58.847	0.0615	117694	keystroke_u	u	n/a
59.0285	0.06	118057	keystroke_n	n	n/a
59.1775	0.1055	118355	keystroke_d	d	n/a
59.283	0.0755	118566	keystroke_l	l	n/a
59.4185	0.104	118837	keystroke_e	e	n/a
59.5235	0.09	119047	keystroke_Key.space	Key.space	n/a
59.8975	0.075	119795	keystroke_w	w	n/a
60.0475	0.151	120095	keystroke_a	a	n/a
60.1835	0.135	120367	keystroke_s	s	n/a
60.4235	0.119	120847	keystroke_h	h	n/a
60.6635	0.075	121327	keystroke_i	i	n/a
60.8135	0.075	121627	keystroke_n	n	n/a
60.9335	0.105	121867	keystroke_g	g	n/a
61.0385	0.104	122077	keystroke_Key.space	Key.space	n/a
61.2635	0.12	122527	keystroke_s	s	n/a
61.5035	0.089	123007	keystroke_t	t	n/a
61.6975	0.151	123395	keystroke_a	a	n/a
61.9685	0.09	123937	keystroke_t	t	n/a
62.0735	0.06	124147	keystroke_u	u	n/a
62.1925	0.12	124385	keystroke_s	s	n/a
62.2975	0.09	124595	keystroke_Key.space	Key.space	n/a
62.4335	0.075	124867	keystroke_n	n	n/a
62.5385	0.195	125077	keystroke_e	e	n/a
62.6735	0.074	125347	keystroke_r	r	n/a
62.8835	0.119	125767	keystroke_v	v	n/a
62.9885	0.18	125977	keystroke_o	o	n/a
63.1085	0.104	126217	keystroke_u	u	n/a
63.3625	0.091	126725	keystroke_Key.space	Key.space	n/a
63.5275	0.091	127055	keystroke_Key.enter	Key.enter	n/a
63.6265	6.8495	127253	prompt	n/a	foundations changelog danish chair\n
65.0585	0.105	130117	keystroke_f	f	n/a
65.1785	0.105	130357	keystroke_o	o	n/a
65.2375	0.076	130475	keystroke_u	u	n/a
65.4185	0.074	130837	keystroke_n	n	n/a
65.5235	0.135	131047	keystroke_d	d	n/a
66.1085	0.134	132217	keystroke_a	a	n/a
66.3485	0.105	132697	keystroke_t	t	n/a
66.439	0.2545	132878	keystroke_i	i	n/a
66.5435	0.165	133087	keystroke_o	o	n/a
66.6475	0.121	133295	keystroke_n	n	n/a
66.7835	0.09	133567	keystroke_s	s	n/a
66.8885	0.09	133777	keystroke_Key.space	Key.space	n/a
67.0685	0.12	134137	keystroke_c	c	n/a
67.1725	0.076	134345	keystroke_h	h	n/a
67.3085	0.135	134617	keystroke_a	a	n/a
67.4285	0.075	134857	keystroke_n	n	n/a
67.5785	0.12	135157	keystroke_g	g	n/a
67.6835	0.12	135367	keystroke_e	e	n/a
67.8485	0.089	135697	keystroke_l	l	n/a
68.0585	0.0455	136117	keystroke_o	o	n/a
68.1635	0.09	136327	keystroke_g	g	n/a
68.2835	0.09	136567	keystroke_Key.space	Key.space	n/a
68.5235	0.165	137047	keystroke_d	d	n/a
68.6735	0.1345	137347	keystroke_a	a	n/a
68.793	0.06	137586	keystroke_n	n	n/a
68.928	0.045	137856	keystroke_i	i	n/a
69.018	0.105	138036	keystroke_s	s	n/a
69.153	0.165	138306	keystroke_h	h	n/a
69.288	0.1055	138576	keystroke_Key.space	Key.space	n/a
69.4985	0.1195	138997	keystroke_c	c	n/a
69.588	0.075	139176	keystroke_h	h	n/a
69.693	0.135	139386	keystroke_a	a	n/a
69.843	0.045	139686	keystroke_i	i	n/a
70.068	0.09	140136	keystroke_r	r	n/a
70.173	0.09	140346	keystroke_Key.space	Key.space	n/a
70.398	0.075	140796	keystroke_Key.enter	Key.enter	n/a
70.4815	5.064	140963	prompt	n/a	country sega shooting drinks\n
71.148	0.135	142296	keystroke_c	c	n/a
71.253	0.166	142506	keystroke_o	o	n/a
71.373	0.075	142746	keystroke_u	u	n/a
71.613	0.075	143226	keystroke_n	n	n/a
71.763	0.075	143526	keystroke_t	t	n/a
71.928	0.105	143856	keystroke_r	r	n/a
72.063	0.15	144126	keystroke_y	y	n/a
72.153	0.135	144306	keystroke_Key.space	Key.space	n/a
72.303	0.12	144606	keystroke_s	s	n/a
72.483	0.105	144966	keystroke_e	e	n/a
72.708	0.09	145416	keystroke_g	g	n/a
72.858	0.135	145716	keystroke_a	a	n/a
72.978	0.075	145956	keystroke_Key.space	Key.space	n/a
73.113	0.12	146226	keystroke_s	s	n/a
73.248	0.075	146496	keystroke_h	h	n/a
73.429	0.06	146858	keystroke_o	o	n/a
73.563	0.09	147126	keystroke_o	o	n/a
73.803	0.09	147606	keystroke_t	t	n/a
73.894	0.104	147788	keystroke_i	i	n/a
74.028	0.09	148056	keystroke_n	n	n/a
74.178	0.09	148356	keystroke_g	g	n/a
74.283	0.075	148566	keystroke_Key.space	Key.space	n/a
74.478	0.105	148956	keystroke_d	d	n/a
74.673	0.09	149346	keystroke_r	r	n/a
74.764	0.059	149528	keystroke_i	i	n/a
74.913	0.06	149826	keystroke_n	n	n/a
75.063	0.06	150126	keystroke_k	k	n/a
75.183	0.105	150366	keystroke_s	s	n/a
75.303	0.075	150606	keystroke_Key.space	Key.space	n/a
75.453	0.09	150906	keystroke_Key.enter	Key.enter	n/a
75.55	6.2355	151100	prompt	n/a	containing trivia canal edge\n
76.203	0.09	152406	keystroke_c	c	n/a
76.278	0.075	152556	keystroke_o	o	n/a
76.414	0.089	152828	keystroke_n	n	n/a
76.593	0.091	153186	keystroke_t	t	n/a
76.759	0.149	153518	keystroke_a	a	n/a
77.298	0.075	154596	keystroke_i	i	n/a
77.478	0.075	154956	keystroke_n	n	n/a
77.748	0.06	155496	keystroke_i	i	n/a
77.958	0.075	155916	keystroke_n	n	n/a
78.153	0.09	156306	keystroke_g	g	n/a
78.318	0.075	156636	keystroke_Key.space	Key.space	n/a
78.6935	0.06	157387	keystroke_t	t	n/a
78.8435	0.105	157687	keystroke_r	r	n/a
78.9785	0.045	157957	keystroke_i	i	n/a
79.1135	0.09	158227	keystroke_v	v	n/a
79.2185	0.0595	158437	keystroke_i	i	n/a
79.353	0.09	158706	keystroke_a	a	n/a
79.458	0.075	158916	keystroke_Key.space	Key.space	n/a
79.7435	0.1195	159487	keystroke_c	c	n/a
79.908	0.105	159816	keystroke_a	a	n/a
80.028	0.105	160056	keystroke_n	n	n/a
80.418	0.105	160836	keystroke_a	a	n/a
80.493	0.135	160986	keystroke_l	l	n/a
80.613	0.12	161226	keystroke_Key.space	Key.space	n/a
80.808	0.09	161616	keystroke_e	e	n/a
80.988	0.121	161976	keystroke_d	d	n/a
81.288	0.121	162576	keystroke_g	g	n/a
81.393	0.135	162786	keystroke_e	e	n/a
81.513	0.12	163026	keystroke_Key.space	Key.space	n/a
81.693	0.09	163386	keystroke_Key.enter	Key.enter	n/a
81.7915	12.5195	163583	prompt	n/a	subscriptions demonstrates significance kenya\n
82.503	0.135	165006	keystroke_s	s	n/a
82.803	0.06	165606	keystroke_u	u	n/a
83.058	0.09	166116	keystroke_b	b	n/a
83.568	0.165	167136	keystroke_s	s	n/a
83.868	0.12	167736	keystroke_c	c	n/a
84.093	0.105	168186	keystroke_r	r	n/a
84.183	0.075	168366	keystroke_i	i	n/a
84.363	0.075	168726	keystroke_p	p	n/a
84.528	0.105	169056	keystroke_t	t	n/a
84.634	0.224	169268	keystroke_i	i	n/a
84.723	0.165	169446	keystroke_o	o	n/a
84.978	0.105	169956	keystroke_s	s	n/a
85.098	0.105	170196	keystroke_Key.space	Key.space	n/a
85.338	0.06	170676	keystroke_d	d	n/a
85.473	0.12	170946	keystroke_e	e	n/a
85.623	0.135	171246	keystroke_m	m	n/a
85.728	0.09	171456	keystroke_o	o	n/a
85.893	0.06	171786	keystroke_n	n	n/a
86.283	0.076	172566	keystroke_=	=	n/a
86.448	0.075	172896	keystroke_Key.backspace	Key.backspace	n/a
86.583	0.075	173166	keystroke_Key.backspace	Key.backspace	n/a
86.734	0.059	173468	keystroke_Key.backspace	Key.backspace	n/a
86.868	0.06	173736	keystroke_Key.backspace	Key.backspace	n/a
87.018	0.06	174036	keystroke_Key.backspace	Key.backspace	n/a
87.168	0.06	174336	keystroke_Key.backspace	Key.backspace	n/a
87.318	0.06	174636	keystroke_Key.backspace	Key.backspace	n/a
87.453	0.09	174906	keystroke_Key.backspace	Key.backspace	n/a
87.754	0.074	175508	keystroke_n	n	n/a
87.888	0.121	175776	keystroke_s	s	n/a
88.009	0.074	176018	keystroke_Key.space	Key.space	n/a
88.143	0.091	176286	keystroke_d	d	n/a
88.323	0.105	176646	keystroke_e	e	n/a
88.534	0.044	177068	keystroke_m	m	n/a
88.714	0.045	177428	keystroke_m	m	n/a
89.118	0.075	178236	keystroke_Key.backspace	Key.backspace	n/a
89.358	0.06	178716	keystroke_o	o	n/a
89.509	0.074	179018	keystroke_n	n	n/a
89.658	0.166	179316	keystroke_s	s	n/a
89.898	0.09	179796	keystroke_t	t	n/a
90.064	0.12	180128	keystroke_r	r	n/a
90.273	0.15	180546	keystroke_a	a	n/a
90.409	0.134	180818	keystroke_t	t	n/a
90.529	0.134	181058	keystroke_e	e	n/a
90.693	0.136	181386	keystroke_s	s	n/a
90.829	0.074	181658	keystroke_Key.space	Key.space	n/a
90.948	0.136	181896	keystroke_s	s	n/a
91.068	0.075	182136	keystroke_i	i	n/a
91.234	0.105	182468	keystroke_g	g	n/a
91.414	0.075	182828	keystroke_n	n	n/a
91.953	0.075	183906	keystroke_i	i	n/a
92.179	0.119	184358	keystroke_f	f	n/a
92.299	0.059	184598	keystroke_i	i	n/a
92.448	0.15	184896	keystroke_c	c	n/a
92.614	0.12	185228	keystroke_a	a	n/a
92.748	0.075	185496	keystroke_n	n	n/a
92.884	0.09	185768	keystroke_c	c	n/a
93.093	0.105	186186	keystroke_e	e	n/a
93.213	0.09	186426	keystroke_Key.space	Key.space	n/a
93.348	0.09	186696	keystroke_k	k	n/a
93.483	0.12	186966	keystroke_e	e	n/a
93.588	0.075	187176	keystroke_n	n	n/a
93.828	0.076	187656	keystroke_y	y	n/a
93.978	0.12	187956	keystroke_a	a	n/a
94.083	0.09	188166	keystroke_Key.space	Key.space	n/a
94.234	0.075	188468	keystroke_Key.enter	Key.enter	n/a
94.3185	5.4525	188637	prompt	n/a	classic cash rugs eligible\n
95.134	0.089	190268	keystroke_c	c	n/a
95.254	0.075	190508	keystroke_l	l	n/a
95.359	0.089	190718	keystroke_a	a	n/a
95.523	0.075	191046	keystroke_s	s	n/a
95.673	0.076	191346	keystroke_s	s	n/a
95.764	0.075	191528	keystroke_i	i	n/a
95.898	0.151	191796	keystroke_c	c	n/a
96.033	0.06	192066	keystroke_Key.space	Key.space	n/a
96.243	0.12	192486	keystroke_c	c	n/a
96.393	0.15	192786	keystroke_a	a	n/a
96.574	0.12	193148	keystroke_s	s	n/a
96.753	0.166	193506	keystroke_h	h	n/a
96.888	0.135	193776	keystroke_Key.space	Key.space	n/a
97.174	0.089	194348	keystroke_r	r	n/a
97.279	0.059	194558	keystroke_u	u	n/a
97.443	0.075	194886	keystroke_g	g	n/a
97.624	0.105	195248	keystroke_s	s	n/a
97.743	0.09	195486	keystroke_Key.space	Key.space	n/a
98.149	0.105	196298	keystroke_e	e	n/a
98.314	0.074	196628	keystroke_l	l	n/a
98.464	0.074	196928	keystroke_i	i	n/a
98.748	0.075	197496	keystroke_g	g	n/a
98.838	0.075	197676	keystroke_i	i	n/a
99.198	0.075	198396	keystroke_b	b	n/a
99.288	0.061	198576	keystroke_l	l	n/a
99.409	0.09	198818	keystroke_e	e	n/a
99.528	0.075	199056	keystroke_Key.space	Key.space	n/a
99.708	0.06	199416	keystroke_Key.enter	Key.enter	n/a
99.7775	5.5735	199555	prompt	n/a	form regular majority proposals\n
100.488	0.105	200976	keystroke_f	f	n/a
100.714	0.015	201428	keystroke_o	o	n/a
100.818	0.121	201636	keystroke_r	r	n/a
100.939	0.15	201878	keystroke_m	m	n/a
101.013	0.166	202026	keystroke_Key.space	Key.space	n/a
101.223	0.151	202446	keystroke_r	r	n/a
101.329	0.15	202658	keystroke_e	e	n/a
101.688	0.091	203376	keystroke_g	g	n/a
101.809	0.074	203618	keystroke_u	u	n/a
102.064	0.015	204128	keystroke_l	l	n/a
102.108	0.135	204216	keystroke_a	a	n/a
102.304	0.12	204608	keystroke_r	r	n/a
102.439	0.09	204878	keystroke_Key.space	Key.space	n/a
102.589	0.09	205178	keystroke_m	m	n/a
102.784	0.134	205568	keystroke_a	a	n/a
102.934	0.059	205868	keystroke_j	j	n/a
103.054	0.06	206108	keystroke_o	o	n/a
103.233	0.105	206466	keystroke_r	r	n/a
103.339	0.09	206678	keystroke_i	i	n/a
103.534	0.089	207068	keystroke_t	t	n/a
103.639	0.119	207278	keystroke_y	y	n/a
103.713	0.121	207426	keystroke_Key.space	Key.space	n/a
103.864	0.09	207728	keystroke_p	p	n/a
103.999	0.105	207998	keystroke_r	r	n/a
104.089	0.105	208178	keystroke_o	o	n/a
104.284	0.12	208568	keystroke_p	p	n/a
104.479	0.119	208958	keystroke_o	o	n/a
104.629	0.105	209258	keystroke_s	s	n/a
104.854	0.134	209708	keystroke_a	a	n/a
104.944	0.104	209888	keystroke_l	l	n/a
105.093	0.106	210186	keystroke_s	s	n/a
105.243	0.105	210486	keystroke_Key.enter	Key.enter	n/a
105.3555	6.385	210711	prompt	n/a	durable lesbian seekers internet\n
105.993	0.136	211986	keystroke_d	d	n/a
106.144	0.105	212288	keystroke_u	u	n/a
106.279	0.12	212558	keystroke_r	r	n/a
106.519	0.12	213038	keystroke_a	a	n/a
106.834	0.075	213668	keystroke_b	b	n/a
106.939	0.09	213878	keystroke_l	l	n/a
107.074	0.119	214148	keystroke_e	e	n/a
107.178	0.09	214356	keystroke_Key.space	Key.space	n/a
107.404	0.075	214808	keystroke_l	l	n/a
107.509	0.104	215018	keystroke_e	e	n/a
107.959	0.105	215918	keystroke_s	s	n/a
108.289	0.074	216578	keystroke_b	b	n/a
108.394	0.06	216788	keystroke_i	i	n/a
108.544	0.1195	217088	keystroke_a	a	n/a
108.649	0.149	217298	keystroke_n	n	n/a
108.754	0.135	217508	keystroke_Key.space	Key.space	n/a
108.904	0.105	217808	keystroke_s	s	n/a
109.099	0.06	218198	keystroke_e	e	n/a
109.234	0.074	218468	keystroke_e	e	n/a
109.338	0.091	218676	keystroke_k	k	n/a
109.474	0.195	218948	keystroke_e	e	n/a
109.609	0.12	219218	keystroke_r	r	n/a
109.818	0.136	219636	keystroke_s	s	n/a
109.908	0.151	219816	keystroke_Key.space	Key.space	n/a
110.044	0.149	220088	keystroke_i	i	n/a
110.359	0.09	220718	keystroke_n	n	n/a
110.464	0.09	220928	keystroke_t	t	n/a
110.568	0.195	221136	keystroke_e	e	n/a
110.689	0.135	221378	keystroke_r	r	n/a
110.943	0.091	221886	keystroke_n	n	n/a
111.064	0.165	222128	keystroke_e	e	n/a
111.333	0.076	222666	keystroke_t	t	n/a
111.454	0.075	222908	keystroke_Key.space	Key.space	n/a
111.649	0.089	223298	keystroke_Key.enter	Key.enter	n/a
111.7465	7.2095	223493	prompt	n/a	kuwait parker worlds streaming\n
112.354	0.045	224708	keystroke_d	d	n/a
112.444	0.09	224888	keystroke_k	k	n/a
112.788	0.075	225576	keystroke_Key.backspace	Key.backspace	n/a
112.924	0.075	225848	keystroke_Key.backspace	Key.backspace	n/a
113.134	0.12	226268	keystroke_k	k	n/a
113.374	0.09	226748	keystroke_u	u	n/a
113.614	0.074	227228	keystroke_w	w	n/a
113.763	0.166	227526	keystroke_a	a	n/a
113.884	0.075	227768	keystroke_i	i	n/a
114.138	0.091	228276	keystroke_t	t	n/a
114.244	0.09	228488	keystroke_Key.space	Key.space	n/a
114.484	0.075	228968	keystroke_p	p	n/a
114.589	0.12	229178	keystroke_a	a	n/a
114.829	0.105	229658	keystroke_r	r	n/a
114.919	0.105	229838	keystroke_k	k	n/a
115.084	0.18	230168	keystroke_e	e	n/a
115.204	0.12	230408	keystroke_r	r	n/a
115.338	0.091	230676	keystroke_Key.space	Key.space	n/a
115.534	0.09	231068	keystroke_w	w	n/a
115.609	0.075	231218	keystroke_o	o	n/a
115.774	0.075	231548	keystroke_r	r	n/a
115.864	0.09	231728	keystroke_l	l	n/a
116.088	0.121	232176	keystroke_d	d	n/a
116.283	0.151	232566	keystroke_s	s	n/a
116.464	0.075	232928	keystroke_Key.space	Key.space	n/a
116.974	0.165	233948	keystroke_s	s	n/a
117.259	0.12	234518	keystroke_t	t	n/a
117.454	0.135	234908	keystroke_r	r	n/a
117.634	0.15	235268	keystroke_e	e	n/a
117.844	0.12	235688	keystroke_a	a	n/a
118.249	0.09	236498	keystroke_m	m	n/a
118.369	0.075	236738	keystroke_i	i	n/a
118.534	0.06	237068	keystroke_n	n	n/a
118.579	0.12	237158	keystroke_g	g	n/a
118.714	0.075	237428	keystroke_Key.space	Key.space	n/a
118.894	0.06	237788	keystroke_Key.enter	Key.enter	n/a
118.96	7.287	237920	prompt	n/a	adds delivering acquisitions vacations\n
119.749	0.075	239498	keystroke_a	a	n/a
119.929	0.075	239858	keystroke_d	d	n/a
120.064	0.09	240128	keystroke_d	d	n/a
120.2145	0.1345	240429	keystroke_s	s	n/a
120.364	0.09	240728	keystroke_Key.space	Key.space	n/a
120.6195	0.075	241239	keystroke_d	d	n/a
120.829	0.075	241658	keystroke_e	e	n/a
121.354	0.09	242708	keystroke_l	l	n/a
121.474	0.075	242948	keystroke_i	i	n/a
121.699	0.105	243398	keystroke_v	v	n/a
121.864	0.18	243728	keystroke_e	e	n/a
121.984	0.135	243968	keystroke_r	r	n/a
122.089	0.075	244178	keystroke_i	i	n/a
122.239	0.075	244478	keystroke_n	n	n/a
122.344	0.105	244688	keystroke_g	g	n/a
122.434	0.105	244868	keystroke_Key.space	Key.space	n/a
122.689	0.15	245378	keystroke_a	a	n/a
122.929	0.12	245858	keystroke_c	c	n/a
123.199	0.135	246398	keystroke_q	q	n/a
123.335	0.059	246670	keystroke_u	u	n/a
123.454	0.09	246908	keystroke_i	i	n/a
123.634	0.12	247268	keystroke_s	s	n/a
123.739	0.045	247478	keystroke_i	i	n/a
123.964	0.105	247928	keystroke_t	t	n/a
124.084	0.24	248168	keystroke_i	i	n/a
124.174	0.18	248348	keystroke_o	o	n/a
124.279	0.135	248558	keystroke_n	n	n/a
124.459	0.105	248918	keystroke_s	s	n/a
124.564	0.075	249128	keystroke_Key.space	Key.space	n/a
124.819	0.135	249638	keystroke_v	v	n/a
124.984	0.12	249968	keystroke_a	a	n/a
125.209	0.135	250418	keystroke_c	c	n/a
125.374	0.15	250748	keystroke_a	a	n/a
125.614	0.105	251228	keystroke_t	t	n/a
125.689	0.225	251378	keystroke_i	i	n/a
125.764	0.165	251528	keystroke_o	o	n/a
125.839	0.135	251678	keystroke_n	n	n/a
126.034	0.105	252068	keystroke_s	s	n/a
126.169	0.075	252338	keystroke_Key.enter	Key.enter	n/a
126.2525	6.894	252505	prompt	n/a	matter funeral netherlands paths\n
126.874	0.075	253748	keystroke_m	m	n/a
126.964	0.105	253928	keystroke_a	a	n/a
127.234	0.06	254468	keystroke_t	t	n/a
127.354	0.105	254708	keystroke_t	t	n/a
127.489	0.165	254978	keystroke_e	e	n/a
127.609	0.09	255218	keystroke_r	r	n/a
127.699	0.09	255398	keystroke_Key.space	Key.space	n/a
127.924	0.09	255848	keystroke_f	f	n/a
128.029	0.075	256058	keystroke_u	u	n/a
128.239	0.075	256478	keystroke_n	n	n/a
128.359	0.18	256718	keystroke_e	e	n/a
128.479	0.105	256958	keystroke_r	r	n/a
128.704	0.12	257408	keystroke_a	a	n/a
128.779	0.18	257558	keystroke_l	l	n/a
128.899	0.105	257798	keystroke_Key.space	Key.space	n/a
129.094	0.09	258188	keystroke_n	n	n/a
129.214	0.135	258428	keystroke_e	e	n/a
129.454	0.09	258908	keystroke_t	t	n/a
129.634	0.06	259268	keystroke_h	h	n/a
130.129	0.09	260258	keystroke_Key.backspace	Key.backspace	n/a
130.729	0.075	261458	keystroke_h	h	n/a
130.864	0.21	261728	keystroke_e	e	n/a
130.999	0.135	261998	keystroke_r	r	n/a
131.119	0.09	262238	keystroke_l	l	n/a
131.284	0.12	262568	keystroke_a	a	n/a
131.389	0.0595	262778	keystroke_n	n	n/a
131.5085	0.12	263017	keystroke_d	d	n/a
131.7635	0.075	263527	keystroke_s	s	n/a
131.8535	0.09	263707	keystroke_Key.space	Key.space	n/a
132.2585	0.09	264517	keystroke_p	p	n/a
132.4245	0.134	264849	keystroke_a	a	n/a
132.7085	0.075	265417	keystroke_t	t	n/a
132.7835	0.075	265567	keystroke_h	h	n/a
132.9335	0.135	265867	keystroke_s	s	n/a
133.0835	0.06	266167	keystroke_Key.enter	Key.enter	n/a
133.1515	6.9545	266303	prompt	n/a	montana preservation citizen signal\n
133.8035	0.12	267607	keystroke_m	m	n/a
133.9535	0.075	267907	keystroke_o	o	n/a
134.1035	0.075	268207	keystroke_n	n	n/a
134.2985	0.09	268597	keystroke_t	t	n/a
134.4635	0.12	268927	keystroke_a	a	n/a
134.5985	0.075	269197	keystroke_n	n	n/a
134.7485	0.105	269497	keystroke_a	a	n/a
134.8235	0.09	269647	keystroke_Key.space	Key.space	n/a
135.0335	0.075	270067	keystroke_p	p	n/a
135.1835	0.15	270367	keystroke_r	r	n/a
135.2885	0.15	270577	keystroke_e	e	n/a
135.5435	0.12	271087	keystroke_s	s	n/a
135.7085	0.195	271417	keystroke_e	e	n/a
135.8435	0.12	271687	keystroke_r	r	n/a
136.1435	0.105	272287	keystroke_v	v	n/a
136.2935	0.15	272587	keystroke_a	a	n/a
136.5185	0.09	273037	keystroke_t	t	n/a
136.6235	0.21	273247	keystroke_i	i	n/a
136.6835	0.21	273367	keystroke_o	o	n/a
136.7735	0.165	273547	keystroke_n	n	n/a
136.9085	0.105	273817	keystroke_Key.space	Key.space	n/a
137.2535	0.135	274507	keystroke_c	c	n/a
137.4035	0.075	274807	keystroke_i	i	n/a
137.7935	0.09	275587	keystroke_t	t	n/a
137.8845	0.059	275769	keystroke_i	i	n/a
138.0935	0.105	276187	keystroke_z	z	n/a
138.3035	0.09	276607	keystroke_e	e	n/a
138.4235	0.165	276847	keystroke_n	n	n/a
138.5285	0.135	277057	keystroke_Key.space	Key.space	n/a
138.6935	0.136	277387	keystroke_s	s	n/a
138.7835	0.09	277567	keystroke_i	i	n/a
138.9785	0.09	277957	keystroke_g	g	n/a
139.1585	0.105	278317	keystroke_n	n	n/a
139.5035	0.105	279007	keystroke_a	a	n/a
139.5785	0.09	279157	keystroke_l	l	n/a
140.0135	0.09	280027	keystroke_Key.enter	Key.enter	n/a
140.1135	7.4025	280227	prompt	n/a	grew couples maryland stamp\n
141.8135	0.09	283627	keystroke_g	g	n/a
142.0085	0.12	284017	keystroke_r	r	n/a
142.1735	0.195	284347	keystroke_e	e	n/a
142.3085	0.15	284617	keystroke_w	w	n/a
142.4885	0.105	284977	keystroke_Key.space	Key.space	n/a
142.6985	0.12	285397	keystroke_c	c	n/a
142.8035	0.15	285607	keystroke_o	o	n/a
142.9085	0.12	285817	keystroke_u	u	n/a
143.0585	0.091	286117	keystroke_p	p	n/a
143.2385	0.09	286477	keystroke_l	l	n/a
143.3585	0.09	286717	keystroke_e	e	n/a
143.5235	0.12	287047	keystroke_s	s	n/a
143.6585	0.075	287317	keystroke_Key.space	Key.space	n/a
143.8235	0.105	287647	keystroke_m	m	n/a
143.9585	0.18	287917	keystroke_a	a	n/a
144.1535	0.135	288307	keystroke_r	r	n/a
144.3185	0.09	288637	keystroke_y	y	n/a
144.3935	0.105	288787	keystroke_Key.space	Key.space	n/a
144.5585	0.09	289117	keystroke_l	l	n/a
144.8885	0.06	289777	keystroke_Key.backspace	Key.backspace	n/a
145.0385	0.06	290077	keystroke_Key.backspace	Key.backspace	n/a
145.3235	0.12	290647	keystroke_l	l	n/a
145.4735	0.09	290947	keystroke_a	a	n/a
145.5785	0.09	291157	keystroke_n	n	n/a
145.6845	0.119	291369	keystroke_d	d	n/a
146.1335	0.09	292267	keystroke_Key.space	Key.space	n/a
146.2835	0.15	292567	keystroke_s	s	n/a
146.5235	0.105	293047	keystroke_t	t	n/a
146.7035	0.135	293407	keystroke_a	a	n/a
146.8395	0.074	293679	keystroke_m	m	n/a
147.1095	0.074	294219	keystroke_p	p	n/a
147.2585	0.09	294517	keystroke_Key.space	Key.space	n/a
147.4385	0.075	294877	keystroke_Key.enter	Key.enter	n/a
147.521	7.6295	295042	prompt	n/a	metropolitan commitment tions cables\n
148.2945	0.104	296589	keystroke_m	m	n/a
148.3835	0.135	296767	keystroke_e	e	n/a
148.6385	0.075	297277	keystroke_t	t	n/a
148.8185	0.09	297637	keystroke_r	r	n/a
148.9095	0.089	297819	keystroke_o	o	n/a
149.1045	0.074	298209	keystroke_p	p	n/a
149.2685	0.105	298537	keystroke_o	o	n/a
149.4795	0.119	298959	keystroke_l	l	n/a
149.5835	0.09	299167	keystroke_i	i	n/a
149.8835	0.09	299767	keystroke_t	t	n/a
150.0635	0.135	300127	keystroke_a	a	n/a
150.2135	0.196	300427	keystroke_n	n	n/a
150.3935	0.1195	300787	keystroke_Key.space	Key.space	n/a
150.783	0.12	301566	keystroke_c	c	n/a
150.843	0.106	301686	keystroke_o	o	n/a
151.053	0.075	302106	keystroke_m	m	n/a
151.173	0.09	302346	keystroke_m	m	n/a
151.338	0.09	302676	keystroke_i	i	n/a
151.533	0.09	303066	keystroke_t	t	n/a
151.773	0.105	303546	keystroke_m	m	n/a
151.923	0.15	303846	keystroke_e	e	n/a
152.043	0.09	304086	keystroke_n	n	n/a
152.238	0.091	304476	keystroke_t	t	n/a
152.343	0.09	304686	keystroke_Key.space	Key.space	n/a
152.943	0.075	305886	keystroke_t	t	n/a
153.124	0.059	306248	keystroke_i	i	n/a
153.304	0.044	306608	keystroke_o	o	n/a
153.498	0.06	306996	keystroke_n	n	n/a
153.603	0.12	307206	keystroke_s	s	n/a
153.738	0.09	307476	keystroke_Key.space	Key.space	n/a
153.888	0.166	307776	keystroke_c	c	n/a
154.068	0.105	308136	keystroke_a	a	n/a
154.353	0.075	308706	keystroke_b	b	n/a
154.443	0.06	308886	keystroke_l	l	n/a
154.578	0.105	309156	keystroke_e	e	n/a
154.758	0.121	309516	keystroke_s	s	n/a
154.893	0.06	309786	keystroke_Key.space	Key.space	n/a
155.058	0.09	310116	keystroke_Key.enter	Key.enter	n/a
155.155	5.771	310310	prompt	n/a	regime debate morgan it'll\n
156.049	0.104	312098	keystroke_r	r	n/a
156.138	0.15	312276	keystroke_e	e	n/a
156.423	0.075	312846	keystroke_g	g	n/a
156.513	0.06	313026	keystroke_i	i	n/a
156.693	0.075	313386	keystroke_m	m	n/a
156.798	0.105	313596	keystroke_e	e	n/a
156.933	0.075	313866	keystroke_Key.space	Key.space	n/a
157.068	0.09	314136	keystroke_d	d	n/a
157.249	0.104	314498	keystroke_e	e	n/a
157.503	0.09	315006	keystroke_b	b	n/a
157.668	0.166	315336	keystroke_a	a	n/a
157.938	0.105	315876	keystroke_t	t	n/a
158.073	0.136	316146	keystroke_e	e	n/a
158.193	0.135	316386	keystroke_Key.space	Key.space	n/a
158.343	0.195	316686	keystroke_m	m	n/a
158.508	0.09	317016	keystroke_o	o	n/a
158.643	0.105	317286	keystroke_r	r	n/a
158.899	0.105	317798	keystroke_g	g	n/a
159.093	0.12	318186	keystroke_a	a	n/a
159.198	0.196	318396	keystroke_n	n	n/a
159.363	0.18	318726	keystroke_Key.space	Key.space	n/a
159.528	0.075	319056	keystroke_i	i	n/a
159.693	0.075	319386	keystroke_t	t	n/a
159.978	0.15	319956	keystroke_'	'	n/a
160.384	0.104	320768	keystroke_l	l	n/a
160.549	0.119	321098	keystroke_l	l	n/a
160.848	0.075	321696	keystroke_Key.enter	Key.enter	n/a
160.9315	14.6345	321863	prompt	n/a	beastality blend complexity recipes\n
161.704	0.089	323408	keystroke_b	b	n/a
162.213	0.091	324426	keystroke_e	e	n/a
162.363	0.165	324726	keystroke_a	a	n/a
162.543	0.15	325086	keystroke_s	s	n/a
162.858	0.075	325716	keystroke_t	t	n/a
163.068	0.135	326136	keystroke_a	a	n/a
165.108	0.06	330216	keystroke_l	l	n/a
165.229	0.074	330458	keystroke_i	i	n/a
165.528	0.105	331056	keystroke_t	t	n/a
165.663	0.12	331326	keystroke_y	y	n/a
165.768	0.12	331536	keystroke_Key.space	Key.space	n/a
169.6115	0.042	339223	keystroke_b	b	n/a
169.6385	0.09	339277	keystroke_l	l	n/a
169.8335	0.119	339667	keystroke_a	a	n/a
169.9375	0.076	339875	keystroke_n	n	n/a
170.0735	0.105	340147	keystroke_d	d	n/a
170.1925	0.105	340385	keystroke_Key.space	Key.space	n/a
170.4625	0.105	340925	keystroke_c	c	n/a
170.5235	0.209	341047	keystroke_o	o	n/a
170.6875	0.181	341375	keystroke_m	m	n/a
170.8235	0.089	341647	keystroke_p	p	n/a
170.9735	0.134	341947	keystroke_l	l	n/a
171.4825	0.076	342965	keystroke_x	x	n/a
171.5875	0.075	343175	keystroke_i	i	n/a
171.6185	0.06	343237	keystroke_x	x	n/a
172.5175	0.075	345035	keystroke_Key.backspace	Key.backspace	n/a
172.6975	0.045	345395	keystroke_Key.backspace	Key.backspace	n/a
172.8325	0.075	345665	keystroke_Key.backspace	Key.backspace	n/a
173.0735	0.089	346147	keystroke_e	e	n/a
173.3285	0.12	346657	keystroke_x	x	n/a
173.4335	0.074	346867	keystroke_i	i	n/a
173.7935	0.105	347587	keystroke_t	t	n/a
173.9425	0.09	347885	keystroke_y	y	n/a
174.0925	0.135	348185	keystroke_Key.space	Key.space	n/a
174.3335	0.09	348667	keystroke_r	r	n/a
174.4075	0.105	348815	keystroke_e	e	n/a
174.6335	0.12	349267	keystroke_c	c	n/a
174.7235	0.075	349447	keystroke_i	i	n/a
174.8885	0.089	349777	keystroke_p	p	n/a
175.0685	0.105	350137	keystroke_e	e	n/a
175.2625	0.135	350525	keystroke_s	s	n/a
175.4585	0.104	350917	keystroke_Key.enter	Key.enter	n/a
175.5715	5.0935	351143	prompt	n/a	tried innocent nato handy\n
176.4035	0.075	352807	keystroke_t	t	n/a
176.5825	0.091	353165	keystroke_r	r	n/a
176.9735	0.075	353947	keystroke_i	i	n/a
177.0935	0.075	354187	keystroke_e	e	n/a
177.2735	0.105	354547	keystroke_d	d	n/a
177.3925	0.061	354785	keystroke_Key.space	Key.space	n/a
177.5885	0.06	355177	keystroke_i	i	n/a
177.7835	0.06	355567	keystroke_n	n	n/a
177.9035	0.09	355807	keystroke_n	n	n/a
178.0235	0.089	356047	keystroke_o	o	n/a
178.1725	0.106	356345	keystroke_c	c	n/a
178.3385	0.135	356677	keystroke_e	e	n/a
178.4435	0.089	356887	keystroke_n	n	n/a
178.6235	0.105	357247	keystroke_t	t	n/a
178.6985	0.104	357397	keystroke_Key.space	Key.space	n/a
178.8185	0.089	357637	keystroke_n	n	n/a
178.9375	0.136	357875	keystroke_a	a	n/a
179.1785	0.104	358357	keystroke_t	t	n/a
179.2685	0.135	358537	keystroke_o	o	n/a
179.3735	0.104	358747	keystroke_Key.space	Key.space	n/a
179.5385	0.105	359077	keystroke_h	h	n/a
179.6735	0.105	359347	keystroke_a	a	n/a
179.7935	0.044	359587	keystroke_n	n	n/a
179.8685	0.089	359737	keystroke_d	d	n/a
180.2575	0.12	360515	keystroke_y	y	n/a
180.3325	0.136	360665	keystroke_Key.space	Key.space	n/a
180.5885	0.074	361177	keystroke_Key.enter	Key.enter	n/a
180.6705	10.0295	361341	prompt	n/a	architectural points pupils equity\n
181.3085	0.09	362617	keystroke_a	a	n/a
181.6685	0.105	363337	keystroke_r	r	n/a
181.9535	0.105	363907	keystroke_c	c	n/a
182.0735	0.06	364147	keystroke_h	h	n/a
182.7325	0.076	365465	keystroke_i	i	n/a
183.0485	0.075	366097	keystroke_t	t	n/a
183.243	0.105	366486	keystroke_e	e	n/a
183.542	0.12	367084	keystroke_c	c	n/a
183.873	0.06	367746	keystroke_t	t	n/a
183.962	0.075	367924	keystroke_u	u	n/a
184.592	0.106	369184	keystroke_r	r	n/a
185.373	0.059	370746	keystroke_Key.backspace	Key.backspace	n/a
185.973	0.104	371946	keystroke_r	r	n/a
186.183	0.12	372366	keystroke_a	a	n/a
186.287	0.136	372574	keystroke_l	l	n/a
186.377	0.135	372754	keystroke_Key.space	Key.space	n/a
186.558	0.09	373116	keystroke_p	p	n/a
186.693	0.15	373386	keystroke_o	o	n/a
186.812	0.181	373624	keystroke_i	i	n/a
187.007	0.105	374014	keystroke_n	n	n/a
187.158	0.09	374316	keystroke_t	t	n/a
187.353	0.134	374706	keystroke_s	s	n/a
187.442	0.091	374884	keystroke_Key.space	Key.space	n/a
187.832	0.105	375664	keystroke_p	p	n/a
187.998	0.09	375996	keystroke_u	u	n/a
188.238	0.09	376476	keystroke_p	p	n/a
188.687	0.105	377374	keystroke_i	i	n/a
188.9125	0.075	377825	keystroke_l	l	n/a
189.0625	0.105	378125	keystroke_s	s	n/a
189.1825	0.09	378365	keystroke_Key.space	Key.space	n/a
189.4525	0.12	378905	keystroke_e	e	n/a
189.7225	0.12	379445	keystroke_q	q	n/a
189.8125	0.075	379625	keystroke_u	u	n/a
189.9325	0.09	379865	keystroke_i	i	n/a
190.1425	0.075	380285	keystroke_t	t	n/a
190.2475	0.135	380495	keystroke_y	y	n/a
190.3675	0.12	380735	keystroke_Key.space	Key.space	n/a
190.6225	0.075	381245	keystroke_Key.enter	Key.enter	n/a
190.705	7.2555	381410	prompt	n/a	finances baseline jamaica coupons\n
191.3425	0.105	382685	keystroke_f	f	n/a
191.4175	0.09	382835	keystroke_i	i	n/a
191.5975	0.09	383195	keystroke_n	n	n/a
191.7475	0.12	383495	keystroke_a	a	n/a
191.8525	0.075	383705	keystroke_n	n	n/a
192.0025	0.105	384005	keystroke_c	c	n/a
192.1825	0.09	384365	keystroke_e	e	n/a
192.3625	0.105	384725	keystroke_s	s	n/a
192.4525	0.09	384905	keystroke_Key.space	Key.space	n/a
192.7225	0.075	385445	keystroke_b	b	n/a
192.8575	0.135	385715	keystroke_a	a	n/a
192.9935	0.164	385987	keystroke_s	s	n/a
193.1725	0.09	386345	keystroke_e	e	n/a
193.3375	0.075	386675	keystroke_l	l	n/a
193.472	0.075	386944	keystroke_i	i	n/a
193.623	0.089	387246	keystroke_n	n	n/a
193.727	0.105	387454	keystroke_e	e	n/a
193.847	0.075	387694	keystroke_Key.space	Key.space	n/a
194.4325	0.0745	388865	keystroke_j	j	n/a
194.567	0.12	389134	keystroke_a	a	n/a
194.702	0.09	389404	keystroke_m	m	n/a
194.867	0.12	389734	keystroke_a	a	n/a
194.9575	0.0745	389915	keystroke_i	i	n/a
195.137	0.12	390274	keystroke_c	c	n/a
195.287	0.135	390574	keystroke_a	a	n/a
195.437	0.075	390874	keystroke_Key.space	Key.space	n/a
195.647	0.105	391294	keystroke_c	c	n/a
195.737	0.12	391474	keystroke_o	o	n/a
195.827	0.15	391654	keystroke_u	u	n/a
195.962	0.09	391924	keystroke_p	p	n/a
196.127	0.075	392254	keystroke_l	l	n/a
196.367	0.09	392734	keystroke_o	o	n/a
196.832	0.06	393664	keystroke_Key.backspace	Key.backspace	n/a
196.982	0.06	393964	keystroke_Key.backspace	Key.backspace	n/a
197.252	0.06	394504	keystroke_o	o	n/a
197.432	0.075	394864	keystroke_n	n	n/a
197.582	0.105	395164	keystroke_s	s	n/a
197.717	0.075	395434	keystroke_Key.space	Key.space	n/a
197.867	0.09	395734	keystroke_Key.enter	Key.enter	n/a
197.9645	6.235	395929	prompt	n/a	goto movement suggestions journalists\n
198.962	0.105	397924	keystroke_g	g	n/a
199.052	0.06	398104	keystroke_o	o	n/a
199.247	0.09	398494	keystroke_t	t	n/a
199.322	0.09	398644	keystroke_o	o	n/a
199.472	0.105	398944	keystroke_Key.space	Key.space	n/a
199.622	0.151	399244	keystroke_m	m	n/a
199.742	0.09	399484	keystroke_o	o	n/a
199.862	0.12	399724	keystroke_v	v	n/a
199.967	0.12	399934	keystroke_e	e	n/a
200.102	0.076	400204	keystroke_m	m	n/a
200.222	0.12	400444	keystroke_e	e	n/a
200.312	0.09	400624	keystroke_n	n	n/a
200.462	0.105	400924	keystroke_t	t	n/a
200.568	0.074	401136	keystroke_Key.space	Key.space	n/a
200.717	0.12	401434	keystroke_s	s	n/a
200.822	0.09	401644	keystroke_u	u	n/a
201.003	0.059	402006	keystroke_g	g	n/a
201.122	0.105	402244	keystroke_g	g	n/a
201.272	0.135	402544	keystroke_e	e	n/a
201.423	0.134	402846	keystroke_s	s	n/a
201.602	0.105	403204	keystroke_t	t	n/a
201.692	0.24	403384	keystroke_i	i	n/a
201.782	0.165	403564	keystroke_o	o	n/a
201.872	0.12	403744	keystroke_n	n	n/a
202.022	0.105	404044	keystroke_s	s	n/a
202.112	0.15	404224	keystroke_Key.space	Key.space	n/a
202.247	0.165	404494	keystroke_j	j	n/a
202.382	0.225	404764	keystroke_o	o	n/a
202.532	0.12	405064	keystroke_u	u	n/a
202.682	0.106	405364	keystroke_r	r	n/a
202.832	0.06	405664	keystroke_n	n	n/a
202.982	0.135	405964	keystroke_a	a	n/a
203.147	0.09	406294	keystroke_l	l	n/a
203.252	0.075	406504	keystroke_i	i	n/a
203.417	0.135	406834	keystroke_s	s	n/a
203.612	0.091	407224	keystroke_t	t	n/a
203.807	0.121	407614	keystroke_s	s	n/a
204.092	0.105	408184	keystroke_Key.enter	Key.enter	n/a
204.204	5.575	408408	prompt	n/a	jackson filtering prophet hills\n
204.857	0.075	409714	keystroke_j	j	n/a
204.962	0.105	409924	keystroke_a	a	n/a
205.173	0.119	410346	keystroke_c	c	n/a
205.262	0.075	410524	keystroke_k	k	n/a
205.382	0.12	410764	keystroke_s	s	n/a
205.487	0.165	410974	keystroke_o	o	n/a
205.592	0.181	411184	keystroke_n	n	n/a
205.727	0.135	411454	keystroke_Key.space	Key.space	n/a
205.892	0.09	411784	keystroke_f	f	n/a
205.983	0.059	411966	keystroke_i	i	n/a
206.117	0.075	412234	keystroke_l	l	n/a
206.417	0.09	412834	keystroke_t	t	n/a
206.522	0.21	413044	keystroke_e	e	n/a
206.627	0.121	413254	keystroke_r	r	n/a
206.718	0.134	413436	keystroke_i	i	n/a
206.837	0.12	413674	keystroke_n	n	n/a
207.032	0.091	414064	keystroke_g	g	n/a
207.137	0.06	414274	keystroke_Key.space	Key.space	n/a
207.393	0.074	414786	keystroke_p	p	n/a
207.572	0.09	415144	keystroke_r	r	n/a
207.648	0.089	415296	keystroke_o	o	n/a
207.932	0.075	415864	keystroke_p	p	n/a
208.203	0.059	416406	keystroke_h	h	n/a
208.412	0.15	416824	keystroke_e	e	n/a
208.652	0.105	417304	keystroke_t	t	n/a
208.773	0.089	417546	keystroke_Key.space	Key.space	n/a
209.012	0.15	418024	keystroke_h	h	n/a
209.102	0.121	418204	keystroke_i	i	n/a
209.327	0.06	418654	keystroke_l	l	n/a
209.462	0.075	418924	keystroke_l	l	n/a
209.567	0.106	419134	keystroke_s	s	n/a
209.717	0.06	419434	keystroke_Key.enter	Key.enter	n/a
209.783	5.9815	419566	prompt	n/a	oasis ports integrating triangle\n
210.437	0.075	420874	keystroke_o	o	n/a
210.587	0.12	421174	keystroke_a	a	n/a
210.798	0.089	421596	keystroke_s	s	n/a
210.918	0.059	421836	keystroke_i	i	n/a
211.022	0.12	422044	keystroke_s	s	n/a
211.143	0.089	422286	keystroke_Key.space	Key.space	n/a
211.337	0.061	422674	keystroke_p	p	n/a
211.457	0.09	422914	keystroke_o	o	n/a
211.592	0.075	423184	keystroke_r	r	n/a
211.773	0.059	423546	keystroke_t	t	n/a
211.937	0.12	423874	keystroke_s	s	n/a
212.042	0.12	424084	keystroke_Key.space	Key.space	n/a
212.118	0.089	424236	keystroke_i	i	n/a
212.282	0.09	424564	keystroke_n	n	n/a
212.537	0.09	425074	keystroke_t	t	n/a
212.733	0.119	425466	keystroke_e	e	n/a
213.062	0.076	426124	keystroke_g	g	n/a
213.243	0.089	426486	keystroke_r	r	n/a
213.392	0.135	426784	keystroke_a	a	n/a
213.677	0.091	427354	keystroke_t	t	n/a
213.782	0.03	427564	keystroke_i	i	n/a
213.887	0.075	427774	keystroke_n	n	n/a
214.022	0.09	428044	keystroke_g	g	n/a
214.127	0.075	428254	keystroke_Key.space	Key.space	n/a
214.353	0.0745	428706	keystroke_t	t	n/a
214.533	0.089	429066	keystroke_r	r	n/a
214.638	0.074	429276	keystroke_i	i	n/a
214.8175	0.1195	429635	keystroke_a	a	n/a
214.9225	0.089	429845	keystroke_n	n	n/a
215.1775	0.0755	430355	keystroke_g	g	n/a
215.2975	0.0595	430595	keystroke_l	l	n/a
215.387	0.1195	430774	keystroke_e	e	n/a
215.5215	0.075	431043	keystroke_Key.space	Key.space	n/a
215.672	0.0895	431344	keystroke_Key.enter	Key.enter	n/a
215.769	7.9005	431538	prompt	n/a	civic entrepreneurs mile lessons\n
216.4225	0.104	432845	keystroke_c	c	n/a
216.5125	0.074	433025	keystroke_i	i	n/a
216.7525	0.089	433505	keystroke_v	v	n/a
216.8565	0.061	433713	keystroke_i	i	n/a
217.1865	0.136	434373	keystroke_c	c	n/a
217.4115	0.075	434823	keystroke_Key.space	Key.space	n/a
217.7415	0.105	435483	keystroke_e	e	n/a
218.5365	0.075	437073	keystroke_n	n	n/a
218.7775	0.06	437555	keystroke_t	t	n/a
218.9565	0.105	437913	keystroke_r	r	n/a
219.0765	0.135	438153	keystroke_e	e	n/a
219.3315	0.061	438663	keystroke_p	p	n/a
219.5865	0.136	439173	keystroke_r	r	n/a
219.7665	0.12	439533	keystroke_e	e	n/a
220.0675	0.075	440135	keystroke_n	n	n/a
220.5465	0.091	441093	keystroke_e	e	n/a
220.7715	0.09	441543	keystroke_u	u	n/a
221.1475	0.12	442295	keystroke_r	r	n/a
221.4475	0.104	442895	keystroke_s	s	n/a
221.5675	0.089	443135	keystroke_Key.space	Key.space	n/a
221.7475	0.09	443495	keystroke_m	m	n/a
221.8975	0.045	443795	keystroke_i	i	n/a
222.0315	0.061	444063	keystroke_l	l	n/a
222.1665	0.12	444333	keystroke_e	e	n/a
222.2875	0.074	444575	keystroke_Key.space	Key.space	n/a
222.6765	0.075	445353	keystroke_l	l	n/a
222.7975	0.074	445595	keystroke_e	e	n/a
222.9615	0.076	445923	keystroke_s	s	n/a
223.1125	0.089	446225	keystroke_s	s	n/a
223.2025	0.15	446405	keystroke_o	o	n/a
223.3065	0.105	446613	keystroke_n	n	n/a
223.4275	0.12	446855	keystroke_s	s	n/a
223.5925	0.074	447185	keystroke_Key.enter	Key.enter	n/a
223.6745	7.0905	447349	prompt	n/a	myrtle floors remix examination\n
224.3715	0.121	448743	keystroke_m	m	n/a
224.7015	0.075	449403	keystroke_y	y	n/a
224.8815	0.105	449763	keystroke_r	r	n/a
225.2265	0.091	450453	keystroke_t	t	n/a
225.3315	0.075	450663	keystroke_l	l	n/a
225.6015	0.075	451203	keystroke_e	e	n/a
225.7065	0.075	451413	keystroke_Key.space	Key.space	n/a
226.0225	0.089	452045	keystroke_f	f	n/a
226.2625	0.074	452525	keystroke_l	l	n/a
226.4715	0.076	452943	keystroke_o	o	n/a
226.6075	0.075	453215	keystroke_o	o	n/a
226.7715	0.091	453543	keystroke_r	r	n/a
226.9525	0.119	453905	keystroke_s	s	n/a
227.0865	0.091	454173	keystroke_Key.space	Key.space	n/a
227.5225	0.105	455045	keystroke_r	r	n/a
227.6275	0.134	455255	keystroke_e	e	n/a
227.7175	0.12	455435	keystroke_m	m	n/a
227.852	0.0745	455704	keystroke_i	i	n/a
228.062	0.134	456124	keystroke_x	x	n/a
228.2265	0.105	456453	keystroke_Key.space	Key.space	n/a
228.362	0.105	456724	keystroke_w	w	n/a
228.751	0.09	457502	keystroke_Key.backspace	Key.backspace	n/a
228.902	0.12	457804	keystroke_e	e	n/a
229.142	0.09	458284	keystroke_x	x	n/a
229.336	0.12	458672	keystroke_a	a	n/a
229.442	0.075	458884	keystroke_m	m	n/a
229.577	0.06	459154	keystroke_i	i	n/a
229.756	0.046	459512	keystroke_n	n	n/a
229.862	0.135	459724	keystroke_a	a	n/a
230.101	0.106	460202	keystroke_t	t	n/a
230.207	0.194	460414	keystroke_i	i	n/a
230.267	0.195	460534	keystroke_o	o	n/a
230.371	0.15	460742	keystroke_n	n	n/a
230.4765	0.1045	460953	keystroke_Key.space	Key.space	n/a
230.701	0.06	461402	keystroke_Key.enter	Key.enter	n/a
230.7735	7.3705	461547	prompt	n/a	uncle reducing redeem rolled\n
231.512	0.059	463024	keystroke_u	u	n/a
231.677	0.075	463354	keystroke_n	n	n/a
231.842	0.089	463684	keystroke_c	c	n/a
231.947	0.06	463894	keystroke_l	l	n/a
232.067	0.105	464134	keystroke_e	e	n/a
232.157	0.09	464314	keystroke_Key.space	Key.space	n/a
232.637	0.105	465274	keystroke_r	r	n/a
232.727	0.09	465454	keystroke_e	e	n/a
232.937	0.09	465874	keystroke_d	d	n/a
233.027	0.075	466054	keystroke_u	u	n/a
233.176	0.136	466352	keystroke_c	c	n/a
233.432	0.075	466864	keystroke_t	t	n/a
233.522	0.135	467044	keystroke_i	i	n/a
233.597	0.15	467194	keystroke_n	n	n/a
233.776	0.091	467552	keystroke_g	g	n/a
233.881	0.076	467762	keystroke_Key.space	Key.space	n/a
234.467	0.059	468934	keystroke_Key.backspace	Key.backspace	n/a
234.602	0.074	469204	keystroke_Key.backspace	Key.backspace	n/a
234.752	0.075	469504	keystroke_Key.backspace	Key.backspace	n/a
234.902	0.06	469804	keystroke_Key.backspace	Key.backspace	n/a
235.037	0.105	470074	keystroke_Key.backspace	Key.backspace	n/a
235.487	0.06	470974	keystroke_i	i	n/a
235.652	0.09	471304	keystroke_n	n	n/a
235.832	0.075	471664	keystroke_g	g	n/a
235.922	0.09	471844	keystroke_Key.space	Key.space	n/a
236.087	0.105	472174	keystroke_r	r	n/a
236.162	0.105	472324	keystroke_e	e	n/a
236.372	0.075	472744	keystroke_d	d	n/a
236.552	0.075	473104	keystroke_e	e	n/a
236.687	0.105	473374	keystroke_e	e	n/a
236.822	0.18	473644	keystroke_m	m	n/a
236.942	0.105	473884	keystroke_Key.space	Key.space	n/a
237.107	0.12	474214	keystroke_r	r	n/a
237.227	0.075	474454	keystroke_o	o	n/a
237.422	0.03	474844	keystroke_l	l	n/a
237.512	0.105	475024	keystroke_l	l	n/a
237.602	0.09	475204	keystroke_e	e	n/a
237.782	0.12	475564	keystroke_d	d	n/a
237.887	0.105	475774	keystroke_Key.space	Key.space	n/a
238.067	0.075	476134	keystroke_Key.enter	Key.enter	n/a
238.1485	10.0315	476297	prompt	n/a	arrangements diesel anger riverside\n
238.772	0.105	477544	keystroke_a	a	n/a
238.982	0.0595	477964	keystroke_r	r	n/a
239.1015	0.09	478203	keystroke_r	r	n/a
239.252	0.1345	478504	keystroke_a	a	n/a
239.3565	0.0755	478713	keystroke_n	n	n/a
239.4915	0.105	478983	keystroke_g	g	n/a
239.6715	0.0605	479343	keystroke_m	m	n/a
239.7915	0.12	479583	keystroke_e	e	n/a
239.9265	0.09	479853	keystroke_n	n	n/a
240.4815	0.075	480963	keystroke_Key.backspace	Key.backspace	n/a
240.6615	0.03	481323	keystroke_Key.backspace	Key.backspace	n/a
240.8115	0.015	481623	keystroke_Key.backspace	Key.backspace	n/a
240.9165	0.06	481833	keystroke_Key.backspace	Key.backspace	n/a
241.8165	0.09	483633	keystroke_g	g	n/a
242.1765	0.075	484353	keystroke_e	e	n/a
242.3565	0.09	484713	keystroke_m	m	n/a
242.7315	0.12	485463	keystroke_e	e	n/a
242.8365	0.075	485673	keystroke_n	n	n/a
242.9565	0.09	485913	keystroke_t	t	n/a
243.1515	0.12	486303	keystroke_s	s	n/a
243.2415	0.075	486483	keystroke_Key.space	Key.space	n/a
243.4065	0.105	486813	keystroke_d	d	n/a
243.5115	0.06	487023	keystroke_i	i	n/a
243.6315	0.09	487263	keystroke_e	e	n/a
243.7515	0.03	487503	keystroke_l	l	n/a
244.2765	0.06	488553	keystroke_Key.backspace	Key.backspace	n/a
244.4565	0.12	488913	keystroke_s	s	n/a
244.7115	0.075	489423	keystroke_e	e	n/a
244.8015	0.06	489603	keystroke_l	l	n/a
245.0415	0.075	490083	keystroke_Key.space	Key.space	n/a
245.3115	0.135	490623	keystroke_a	a	n/a
245.7615	0.075	491523	keystroke_n	n	n/a
246.1515	0.12	492303	keystroke_g	g	n/a
246.3015	0.21	492603	keystroke_e	e	n/a
246.4365	0.12	492873	keystroke_r	r	n/a
246.5265	0.105	493053	keystroke_Key.space	Key.space	n/a
246.7815	0.105	493563	keystroke_r	r	n/a
246.8715	0.075	493743	keystroke_i	i	n/a
247.0065	0.12	494013	keystroke_v	v	n/a
247.1425	0.194	494285	keystroke_e	e	n/a
247.2615	0.105	494523	keystroke_r	r	n/a
247.4565	0.12	494913	keystroke_s	s	n/a
247.5615	0.06	495123	keystroke_i	i	n/a
247.6665	0.09	495333	keystroke_d	d	n/a
247.8315	0.105	495663	keystroke_e	e	n/a
247.9515	0.075	495903	keystroke_Key.space	Key.space	n/a
248.0865	0.09	496173	keystroke_Key.enter	Key.enter	n/a
248.186	4.6575	496372	prompt	n/a	austria former heads makes\n
248.8215	0.12	497643	keystroke_a	a	n/a
249.0015	0.06	498003	keystroke_u	u	n/a
249.1515	0.135	498303	keystroke_s	s	n/a
249.4065	0.075	498813	keystroke_t	t	n/a
249.6165	0.09	499233	keystroke_r	r	n/a
249.7215	0.075	499443	keystroke_i	i	n/a
249.8715	0.09	499743	keystroke_a	a	n/a
249.9915	0.06	499983	keystroke_Key.space	Key.space	n/a
250.1715	0.09	500343	keystroke_f	f	n/a
250.2765	0.075	500553	keystroke_o	o	n/a
250.3965	0.09	500793	keystroke_r	r	n/a
250.5165	0.06	501033	keystroke_m	m	n/a
250.6665	0.18	501333	keystroke_e	e	n/a
250.7865	0.12	501573	keystroke_r	r	n/a
250.9515	0.045	501903	keystroke_Key.space	Key.space	n/a
251.1465	0.075	502293	keystroke_h	h	n/a
251.2515	0.135	502503	keystroke_e	e	n/a
251.3715	0.165	502743	keystroke_a	a	n/a
251.5815	0.135	503163	keystroke_d	d	n/a
251.7465	0.135	503493	keystroke_s	s	n/a
251.8665	0.075	503733	keystroke_Key.space	Key.space	n/a
252.0165	0.075	504033	keystroke_m	m	n/a
252.1365	0.105	504273	keystroke_a	a	n/a
252.2265	0.09	504453	keystroke_k	k	n/a
252.3465	0.075	504693	keystroke_e	e	n/a
252.5115	0.12	505023	keystroke_s	s	n/a
252.6015	0.09	505203	keystroke_Key.space	Key.space	n/a
252.7515	0.09	505503	keystroke_Key.enter	Key.enter	n/a
252.848	8.9645	505696	prompt	n/a	constraint client receiving statute\n
253.5615	0.1195	507123	keystroke_c	c	n/a
253.6215	0.09	507243	keystroke_o	o	n/a
253.831	0.045	507662	keystroke_n	n	n/a
253.921	0.15	507842	keystroke_s	s	n/a
254.1905	0.0605	508381	keystroke_t	t	n/a
254.341	0.09	508682	keystroke_r	r	n/a
254.491	0.135	508982	keystroke_a	a	n/a
254.611	0.06	509222	keystroke_i	i	n/a
254.776	0.075	509552	keystroke_n	n	n/a
254.956	0.075	509912	keystroke_t	t	n/a
255.061	0.09	510122	keystroke_Key.space	Key.space	n/a
255.286	0.12	510572	keystroke_c	c	n/a
255.421	0.045	510842	keystroke_l	l	n/a
255.541	0.045	511082	keystroke_i	i	n/a
255.646	0.105	511292	keystroke_e	e	n/a
255.766	0.075	511532	keystroke_n	n	n/a
255.991	0.09	511982	keystroke_t	t	n/a
256.111	0.09	512222	keystroke_Key.space	Key.space	n/a
256.336	0.15	512672	keystroke_r	r	n/a
256.441	0.12	512882	keystroke_e	e	n/a
256.681	0.075	513362	keystroke_c	c	n/a
256.861	0.12	513722	keystroke_e	e	n/a
256.996	0.045	513992	keystroke_i	i	n/a
257.176	0.12	514352	keystroke_v	v	n/a
257.311	0.075	514622	keystroke_i	i	n/a
257.446	0.09	514892	keystroke_n	n	n/a
257.581	0.105	515162	keystroke_g	g	n/a
257.716	0.06	515432	keystroke_Key.space	Key.space	n/a
257.941	0.12	515882	keystroke_s	s	n/a
258.181	0.075	516362	keystroke_t	t	n/a
258.496	0.105	516992	keystroke_t	t	n/a
258.631	0.09	517262	keystroke_u	u	n/a
258.886	0.09	517772	keystroke_e	e	n/a
259.336	0.075	518672	keystroke_Key.backspace	Key.backspace	n/a
259.501	0.045	519002	keystroke_Key.backspace	Key.backspace	n/a
259.636	0.105	519272	keystroke_Key.backspace	Key.backspace	n/a
259.936	0.105	519872	keystroke_a	a	n/a
260.206	0.09	520412	keystroke_t	t	n/a
260.281	0.075	520562	keystroke_u	u	n/a
260.461	0.075	520922	keystroke_e	e	n/a
261.136	0.075	522272	keystroke_Key.backspace	Key.backspace	n/a
261.406	0.015	522812	keystroke_t	t	n/a
261.436	0.135	522872	keystroke_e	e	n/a
261.556	0.105	523112	keystroke_Key.space	Key.space	n/a
261.721	0.09	523442	keystroke_Key.enter	Key.enter	n/a
261.8175	5.2915	523635	prompt	n/a	namely mistress over ring\n
262.456	0.06	524912	keystroke_n	n	n/a
262.546	0.09	525092	keystroke_a	a	n/a
262.666	0.105	525332	keystroke_m	m	n/a
262.786	0.105	525572	keystroke_e	e	n/a
262.921	0.075	525842	keystroke_l	l	n/a
263.206	0.105	526412	keystroke_y	y	n/a
263.281	0.105	526562	keystroke_Key.space	Key.space	n/a
263.461	0.135	526922	keystroke_m	m	n/a
263.611	0.06	527222	keystroke_i	i	n/a
263.716	0.12	527432	keystroke_s	s	n/a
263.926	0.075	527852	keystroke_t	t	n/a
264.076	0.105	528152	keystroke_r	r	n/a
264.256	0.075	528512	keystroke_e	e	n/a
264.541	0.075	529082	keystroke_s	s	n/a
264.691	0.0905	529382	keystroke_s	s	n/a
264.7665	0.09	529533	keystroke_Key.space	Key.space	n/a
265.5165	0.075	531033	keystroke_o	o	n/a
265.6665	0.12	531333	keystroke_v	v	n/a
265.8005	0.211	531601	keystroke_e	e	n/a
265.9215	0.12	531843	keystroke_r	r	n/a
266.0255	0.091	532051	keystroke_Key.space	Key.space	n/a
266.1755	0.091	532351	keystroke_r	r	n/a
266.2365	0.075	532473	keystroke_i	i	n/a
266.4015	0.1045	532803	keystroke_n	n	n/a
266.701	0.0605	533402	keystroke_g	g	n/a
266.805	0.075	533610	keystroke_Key.space	Key.space	n/a
267.016	0.09	534032	keystroke_Key.enter	Key.enter	n/a
267.1165	8.311	534233	prompt	n/a	wood presentations configurations weight\n
267.9015	0.0895	535803	keystroke_w	w	n/a
267.975	0.075	535950	keystroke_o	o	n/a
268.2315	0.09	536463	keystroke_o	o	n/a
268.5	0.105	537000	keystroke_d	d	n/a
268.62	0.09	537240	keystroke_Key.space	Key.space	n/a
268.966	0.059	537932	keystroke_p	p	n/a
269.085	0.106	538170	keystroke_r	r	n/a
269.175	0.12	538350	keystroke_e	e	n/a
269.356	0.12	538712	keystroke_s	s	n/a
269.491	0.12	538982	keystroke_e	e	n/a
269.596	0.09	539192	keystroke_n	n	n/a
269.746	0.09	539492	keystroke_t	t	n/a
270.886	0.12	541772	keystroke_a	a	n/a
271.125	0.091	542250	keystroke_t	t	n/a
271.216	0.27	542432	keystroke_i	i	n/a
271.35	0.15	542700	keystroke_o	o	n/a
271.411	0.135	542822	keystroke_n	n	n/a
271.576	0.12	543152	keystroke_s	s	n/a
271.711	0.045	543422	keystroke_Key.space	Key.space	n/a
271.861	0.135	543722	keystroke_c	c	n/a
271.936	0.105	543872	keystroke_o	o	n/a
272.056	0.089	544112	keystroke_n	n	n/a
272.206	0.105	544412	keystroke_f	f	n/a
272.296	0.075	544592	keystroke_i	i	n/a
272.8805	0.075	545761	keystroke_g	g	n/a
272.9705	0.09	545941	keystroke_u	u	n/a
273.1205	0.09	546241	keystroke_r	r	n/a
273.2855	0.195	546571	keystroke_a	a	n/a
273.4955	0.105	546991	keystroke_t	t	n/a
273.6005	0.195	547201	keystroke_i	i	n/a
273.6455	0.165	547291	keystroke_o	o	n/a
273.7505	0.105	547501	keystroke_n	n	n/a
273.8855	0.135	547771	keystroke_s	s	n/a
274.0055	0.09	548011	keystroke_Key.space	Key.space	n/a
274.2305	0.12	548461	keystroke_w	w	n/a
274.3955	0.135	548791	keystroke_e	e	n/a
274.5455	0.075	549091	keystroke_i	i	n/a
274.7255	0.075	549451	keystroke_g	g	n/a
274.8155	0.075	549631	keystroke_h	h	n/a
274.9505	0.075	549901	keystroke_t	t	n/a
275.3255	0.09	550651	keystroke_Key.enter	Key.enter	n/a
275.4315	6.947	550863	prompt	n/a	arthur disciplines wishes chart\n
276.1655	0.135	552331	keystroke_a	a	n/a
276.4505	0.12	552901	keystroke_r	r	n/a
276.7355	0.075	553471	keystroke_t	t	n/a
276.8105	0.075	553621	keystroke_h	h	n/a
277.0055	0.06	554011	keystroke_u	u	n/a
277.1255	0.105	554251	keystroke_r	r	n/a
277.2455	0.09	554491	keystroke_Key.space	Key.space	n/a
277.4565	0.134	554913	keystroke_d	d	n/a
277.6055	0.075	555211	keystroke_i	i	n/a
277.7105	0.135	555421	keystroke_s	s	n/a
277.9955	0.105	555991	keystroke_c	c	n/a
278.0705	0.075	556141	keystroke_i	i	n/a
278.2805	0.06	556561	keystroke_p	p	n/a
278.4455	0.091	556891	keystroke_l	l	n/a
278.5955	0.061	557191	keystroke_i	i	n/a
278.7605	0.075	557521	keystroke_n	n	n/a
279.0455	0.105	558091	keystroke_e	e	n/a
279.3005	0.075	558601	keystroke_s	s	n/a
279.4205	0.09	558841	keystroke_Key.space	Key.space	n/a
280.3805	0.09	560761	keystroke_w	w	n/a
280.4855	0.045	560971	keystroke_i	i	n/a
280.5905	0.105	561181	keystroke_s	s	n/a
280.7105	0.075	561421	keystroke_h	h	n/a
280.8155	0.09	561631	keystroke_e	e	n/a
280.9655	0.135	561931	keystroke_s	s	n/a
281.1305	0.06	562261	keystroke_Key.space	Key.space	n/a
281.4155	0.165	562831	keystroke_c	c	n/a
281.5055	0.09	563011	keystroke_h	h	n/a
281.6105	0.21	563221	keystroke_a	a	n/a
281.7915	0.119	563583	keystroke_r	r	n/a
282.0305	0.075	564061	keystroke_t	t	n/a
282.1355	0.075	564271	keystroke_Key.space	Key.space	n/a
282.2855	0.09	564571	keystroke_Key.enter	Key.enter	n/a
282.3835	4.99	564767	prompt	n/a	conclude checklist wide ford\n
283.02	0.105	566040	keystroke_c	c	n/a
283.11	0.075	566220	keystroke_o	o	n/a
283.245	0.09	566490	keystroke_n	n	n/a
283.395	0.105	566790	keystroke_c	c	n/a
283.516	0.075	567032	keystroke_l	l	n/a
283.74	0.075	567480	keystroke_u	u	n/a
283.905	0.12	567810	keystroke_d	d	n/a
284.115	0.105	568230	keystroke_e	e	n/a
284.235	0.075	568470	keystroke_Key.space	Key.space	n/a
284.37	0.15	568740	keystroke_c	c	n/a
284.535	0.09	569070	keystroke_h	h	n/a
284.655	0.09	569310	keystroke_e	e	n/a
284.88	0.136	569760	keystroke_c	c	n/a
284.985	0.075	569970	keystroke_k	k	n/a
285.1805	0.0745	570361	keystroke_l	l	n/a
285.3	0.075	570600	keystroke_i	i	n/a
285.435	0.165	570870	keystroke_s	s	n/a
285.645	0.121	571290	keystroke_t	t	n/a
285.78	0.075	571560	keystroke_Key.space	Key.space	n/a
285.886	0.104	571772	keystroke_w	w	n/a
286.005	0.075	572010	keystroke_i	i	n/a
286.125	0.09	572250	keystroke_d	d	n/a
286.305	0.09	572610	keystroke_e	e	n/a
286.44	0.06	572880	keystroke_Key.space	Key.space	n/a
286.56	0.12	573120	keystroke_f	f	n/a
286.665	0.06	573330	keystroke_o	o	n/a
286.935	0.09	573870	keystroke_d	d	n/a
287.1	0.075	574200	keystroke_Key.space	Key.space	n/a
287.28	0.09	574560	keystroke_Key.enter	Key.enter	n/a
287.3905	7.6165	574781	prompt	n/a	messaging sentences import tires\n
288.6	0.075	577200	keystroke_m	m	n/a
288.691	0.089	577382	keystroke_e	e	n/a
288.87	0.06	577740	keystroke_s	s	n/a
289.02	0.09	578040	keystroke_s	s	n/a
289.186	0.164	578372	keystroke_a	a	n/a
289.44	0.076	578880	keystroke_g	g	n/a
289.5	0.075	579000	keystroke_i	i	n/a
289.62	0.09	579240	keystroke_n	n	n/a
289.77	0.09	579540	keystroke_g	g	n/a
289.861	0.074	579722	keystroke_Key.space	Key.space	n/a
289.98	0.135	579960	keystroke_s	s	n/a
290.13	0.09	580260	keystroke_n	n	n/a
290.205	0.12	580410	keystroke_e	e	n/a
291.06	0.075	582120	keystroke_Key.backspace	Key.backspace	n/a
291.195	0.06	582390	keystroke_Key.backspace	Key.backspace	n/a
291.346	0.089	582692	keystroke_e	e	n/a
291.42	0.091	582840	keystroke_n	n	n/a
291.616	0.089	583232	keystroke_t	t	n/a
291.795	0.105	583590	keystroke_e	e	n/a
291.915	0.09	583830	keystroke_n	n	n/a
292.035	0.12	584070	keystroke_c	c	n/a
292.245	0.076	584490	keystroke_e	e	n/a
292.411	0.164	584822	keystroke_s	s	n/a
292.545	0.09	585090	keystroke_Key.space	Key.space	n/a
292.665	0.076	585330	keystroke_i	i	n/a
292.845	0.105	585690	keystroke_m	m	n/a
293.025	0.075	586050	keystroke_p	p	n/a
293.205	0.061	586410	keystroke_o	o	n/a
293.34	0.091	586680	keystroke_r	r	n/a
293.52	0.091	587040	keystroke_t	t	n/a
293.655	0.075	587310	keystroke_Key.space	Key.space	n/a
294.091	0.074	588182	keystroke_t	t	n/a
294.18	0.075	588360	keystroke_i	i	n/a
294.3	0.12	588600	keystroke_r	r	n/a
294.436	0.134	588872	keystroke_e	e	n/a
294.63	0.135	589260	keystroke_s	s	n/a
294.78	0.03	589560	keystroke_Key.space	Key.space	n/a
294.93	0.075	589860	keystroke_Key.enter	Key.enter	n/a
295.0115	5.8005	590023	prompt	n/a	spell doctrine measured into\n
295.666	0.089	591332	keystroke_s	s	n/a
295.83	0.075	591660	keystroke_p	p	n/a
295.95	0.106	591900	keystroke_e	e	n/a
296.07	0.09	592140	keystroke_l	l	n/a
296.265	0.075	592530	keystroke_l	l	n/a
296.325	0.15	592650	keystroke_Key.space	Key.space	n/a
296.625	0.12	593250	keystroke_d	d	n/a
296.76	0.075	593520	keystroke_o	o	n/a
296.895	0.135	593790	keystroke_c	c	n/a
297.15	0.06	594300	keystroke_t	t	n/a
297.3	0.091	594600	keystroke_r	r	n/a
297.361	0.059	594722	keystroke_i	i	n/a
297.54	0.06	595080	keystroke_n	n	n/a
297.615	0.105	595230	keystroke_e	e	n/a
297.886	0.075	595772	keystroke_m	m	n/a
298.365	0.09	596730	keystroke_Key.backspace	Key.backspace	n/a
298.56	0.09	597120	keystroke_Key.space	Key.space	n/a
298.725	0.091	597450	keystroke_m	m	n/a
298.861	0.0885	597722	keystroke_e	e	n/a
299.0095	0.09	598019	keystroke_a	a	n/a
299.2345	0.165	598469	keystroke_s	s	n/a
299.3855	0.059	598771	keystroke_u	u	n/a
299.5355	0.105	599071	keystroke_r	r	n/a
299.6245	0.105	599249	keystroke_e	e	n/a
299.8045	0.136	599609	keystroke_d	d	n/a
299.9545	0.09	599909	keystroke_Key.space	Key.space	n/a
300.0605	0.134	600121	keystroke_i	i	n/a
300.1805	0.134	600361	keystroke_n	n	n/a
300.3445	0.105	600689	keystroke_t	t	n/a
300.4355	0.134	600871	keystroke_o	o	n/a
300.5245	0.105	601049	keystroke_Key.space	Key.space	n/a
300.7645	0.045	601529	keystroke_Key.enter	Key.enter	n/a
300.8305	5.562	601661	prompt	n/a	defendant scholar genes race\n
301.4705	0.074	602941	keystroke_d	d	n/a
301.6655	0.074	603331	keystroke_e	e	n/a
301.9055	0.089	603811	keystroke_f	f	n/a
302.0555	0.089	604111	keystroke_e	e	n/a
302.1605	0.075	604321	keystroke_n	n	n/a
302.2805	0.135	604561	keystroke_d	d	n/a
302.4445	0.135	604889	keystroke_a	a	n/a
302.5495	0.091	605099	keystroke_n	n	n/a
302.7305	0.089	605461	keystroke_t	t	n/a
302.8495	0.09	605699	keystroke_Key.space	Key.space	n/a
303.0295	0.105	606059	keystroke_s	s	n/a
303.2395	0.091	606479	keystroke_c	c	n/a
303.3445	0.105	606689	keystroke_h	h	n/a
303.4805	0.089	606961	keystroke_o	o	n/a
303.6605	0.089	607321	keystroke_l	l	n/a
303.7795	0.165	607559	keystroke_a	a	n/a
303.9895	0.091	607979	keystroke_r	r	n/a
304.1105	0.089	608221	keystroke_Key.space	Key.space	n/a
304.3345	0.076	608669	keystroke_g	g	n/a
304.7995	0.061	609599	keystroke_e	e	n/a
304.8905	0.09	609781	keystroke_n	n	n/a
305.0405	0.075	610081	keystroke_e	e	n/a
305.2195	0.121	610439	keystroke_s	s	n/a
305.3545	0.09	610709	keystroke_Key.space	Key.space	n/a
305.5795	0.091	611159	keystroke_r	r	n/a
305.7755	0.119	611551	keystroke_a	a	n/a
305.9405	0.089	611881	keystroke_c	c	n/a
306.1355	0.089	612271	keystroke_e	e	n/a
306.2995	0.09	612599	keystroke_Key.enter	Key.enter	n/a
306.398	8.394	612796	prompt	n/a	kruger trailers expanded peaceful\n
307.1555	0.105	614311	keystroke_k	k	n/a
307.3355	0.104	614671	keystroke_r	r	n/a
307.4245	0.076	614849	keystroke_u	u	n/a
307.6505	0.119	615301	keystroke_g	g	n/a
307.7855	0.195	615571	keystroke_e	e	n/a
307.8905	0.134	615781	keystroke_r	r	n/a
307.9945	0.075	615989	keystroke_Key.space	Key.space	n/a
308.2195	0.076	616439	keystroke_t	t	n/a
308.3855	0.104	616771	keystroke_r	r	n/a
308.5355	0.135	617071	keystroke_a	a	n/a
308.6545	0.061	617309	keystroke_i	i	n/a
309.1495	0.075	618299	keystroke_l	l	n/a
309.2555	0.074	618511	keystroke_s	s	n/a
309.7495	0.075	619499	keystroke_Key.backspace	Key.backspace	n/a
309.9445	0.211	619889	keystroke_e	e	n/a
310.0795	0.151	620159	keystroke_r	r	n/a
310.3195	0.12	620639	keystroke_s	s	n/a
310.4555	0.059	620911	keystroke_Key.space	Key.space	n/a
310.8145	0.106	621629	keystroke_e	e	n/a
311.0405	0.135	622081	keystroke_x	x	n/a
311.2055	0.075	622411	keystroke_p	p	n/a
311.3255	0.12	622651	keystroke_a	a	n/a
311.4155	0.075	622831	keystroke_n	n	n/a
311.5645	0.105	623129	keystroke_d	d	n/a
311.7445	0.09	623489	keystroke_e	e	n/a
311.9405	0.134	623881	keystroke_d	d	n/a
312.3145	0.15	624629	keystroke_Key.space	Key.space	n/a
312.9455	0.06	625891	keystroke_p	p	n/a
313.1395	0.105	626279	keystroke_e	e	n/a
313.2905	0.15	626581	keystroke_a	a	n/a
313.5155	0.089	627031	keystroke_c	c	n/a
313.6805	0.105	627361	keystroke_e	e	n/a
313.9805	0.105	627961	keystroke_f	f	n/a
314.1455	0.045	628291	keystroke_u	u	n/a
314.3245	0.166	628649	keystroke_l	l	n/a
314.4445	0.091	628889	keystroke_Key.space	Key.space	n/a
314.7155	0.074	629431	keystroke_Key.enter	Key.enter	n/a
314.7965	8.4115	629593	prompt	n/a	minister humans coins treasure\n
315.4505	0.06	630901	keystroke_m	m	n/a
315.5855	0.045	631171	keystroke_i	i	n/a
315.7355	0.045	631471	keystroke_n	n	n/a
315.8255	0.06	631651	keystroke_i	i	n/a
315.9305	0.15	631861	keystroke_s	s	n/a
316.1395	0.091	632279	keystroke_t	t	n/a
316.3495	0.12	632699	keystroke_r	r	n/a
316.4245	0.075	632849	keystroke_Key.space	Key.space	n/a
317.0545	0.06	634109	keystroke_Key.backspace	Key.backspace	n/a
317.1745	0.09	634349	keystroke_Key.backspace	Key.backspace	n/a
317.3555	0.225	634711	keystroke_e	e	n/a
317.5055	0.135	635011	keystroke_r	r	n/a
317.6545	0.075	635309	keystroke_Key.space	Key.space	n/a
317.8055	0.105	635611	keystroke_h	h	n/a
317.9855	0.075	635971	keystroke_u	u	n/a
318.1805	0.075	636361	keystroke_m	m	n/a
318.3145	0.106	636629	keystroke_a	a	n/a
318.4055	0.089	636811	keystroke_n	n	n/a
318.5555	0.12	637111	keystroke_s	s	n/a
318.6905	0.06	637381	keystroke_Key.space	Key.space	n/a
319.0055	0.105	638011	keystroke_c	c	n/a
319.1395	0.181	638279	keystroke_o	o	n/a
319.3955	0.09	638791	keystroke_i	i	n/a
319.6205	0.045	639241	keystroke_n	n	n/a
319.7255	0.105	639451	keystroke_s	s	n/a
319.8745	0.061	639749	keystroke_Key.space	Key.space	n/a
320.1455	0.06	640291	keystroke_r	r	n/a
320.2955	0.12	640591	keystroke_r	r	n/a
320.4305	0.15	640861	keystroke_e	e	n/a
320.5945	0.121	641189	keystroke_a	a	n/a
321.0155	0.075	642031	keystroke_Key.backspace	Key.backspace	n/a
321.1945	0.06	642389	keystroke_Key.backspace	Key.backspace	n/a
321.3295	0.075	642659	keystroke_Key.backspace	Key.backspace	n/a
321.4805	0.105	642961	keystroke_Key.backspace	Key.backspace	n/a
321.6605	0.105	643321	keystroke_t	t	n/a
321.8705	0.149	643741	keystroke_r	r	n/a
322.0355	0.134	644071	keystroke_e	e	n/a
322.2155	0.134	644431	keystroke_a	a	n/a
322.3955	0.12	644791	keystroke_s	s	n/a
322.5445	0.091	645089	keystroke_u	u	n/a
322.7405	0.12	645481	keystroke_r	r	n/a
322.8305	0.135	645661	keystroke_e	e	n/a
322.9355	0.089	645871	keystroke_Key.space	Key.space	n/a
323.1295	0.076	646259	keystroke_Key.enter	Key.enter	n/a
323.2125	7.54	646425	prompt	n/a	sleep handheld arrangement relates\n
323.8505	0.09	647701	keystroke_s	s	n/a
324.0005	0.09	648001	keystroke_l	l	n/a
324.1355	0.09	648271	keystroke_e	e	n/a
324.2855	0.105	648571	keystroke_e	e	n/a
324.4195	0.106	648839	keystroke_p	p	n/a
324.4945	0.106	648989	keystroke_Key.space	Key.space	n/a
324.7055	0.075	649411	keystroke_h	h	n/a
324.8105	0.12	649621	keystroke_a	a	n/a
324.9155	0.09	649831	keystroke_n	n	n/a
324.9895	0.136	649979	keystroke_d	d	n/a
325.4255	0.06	650851	keystroke_h	h	n/a
325.8905	0.075	651781	keystroke_e	e	n/a
326.0105	0.06	652021	keystroke_l	l	n/a
326.2955	0.06	652591	keystroke_Key.space	Key.space	n/a
327.0155	0.06	654031	keystroke_Key.backspace	Key.backspace	n/a
327.1355	0.12	654271	keystroke_d	d	n/a
327.3305	0.089	654661	keystroke_Key.space	Key.space	n/a
327.8855	0.09	655771	keystroke_a	a	n/a
328.0955	0.075	656191	keystroke_r	r	n/a
328.2155	0.09	656431	keystroke_r	r	n/a
328.3505	0.135	656701	keystroke_a	a	n/a
328.4705	0.09	656941	keystroke_n	n	n/a
328.6055	0.09	657211	keystroke_g	g	n/a
328.7405	0.09	657481	keystroke_e	e	n/a
328.8455	0.075	657691	keystroke_m	m	n/a
328.9655	0.15	657931	keystroke_e	e	n/a
329.0555	0.075	658111	keystroke_n	n	n/a
329.1905	0.09	658381	keystroke_t	t	n/a
329.2955	0.105	658591	keystroke_Key.space	Key.space	n/a
329.4605	0.135	658921	keystroke_r	r	n/a
329.5355	0.135	659071	keystroke_e	e	n/a
329.6405	0.075	659281	keystroke_l	l	n/a
329.7905	0.135	659581	keystroke_a	a	n/a
330.0005	0.105	660001	keystroke_t	t	n/a
330.1805	0.12	660361	keystroke_e	e	n/a
330.3305	0.12	660661	keystroke_s	s	n/a
330.4805	0.09	660961	keystroke_Key.space	Key.space	n/a
330.6605	0.09	661321	keystroke_Key.enter	Key.enter	n/a
330.757	6.91	661514	prompt	n/a	enabled tablets clocks mali\n
331.3805	0.105	662761	keystroke_e	e	n/a
331.4855	0.075	662971	keystroke_n	n	n/a
331.6355	0.135	663271	keystroke_a	a	n/a
331.9655	0.075	663931	keystroke_b	b	n/a
332.0555	0.075	664111	keystroke_l	l	n/a
332.1455	0.09	664291	keystroke_e	e	n/a
332.3555	0.105	664711	keystroke_d	d	n/a
332.4905	0.105	664981	keystroke_Key.space	Key.space	n/a
333.0155	0.075	666031	keystroke_t	t	n/a
333.1655	0.135	666331	keystroke_a	a	n/a
333.5555	0.075	667111	keystroke_b	b	n/a
333.7505	0.09	667501	keystroke_l	l	n/a
333.8855	0.12	667771	keystroke_e	e	n/a
334.1705	0.09	668341	keystroke_t	t	n/a
334.3655	0.135	668731	keystroke_s	s	n/a
334.4855	0.09	668971	keystroke_Key.space	Key.space	n/a
334.7405	0.135	669481	keystroke_c	c	n/a
334.8305	0.06	669661	keystroke_l	l	n/a
335.0105	0.06	670021	keystroke_o	o	n/a
335.1905	0.12	670381	keystroke_c	c	n/a
335.2805	0.12	670561	keystroke_k	k	n/a
335.5205	0.12	671041	keystroke_s	s	n/a
335.6705	0.075	671341	keystroke_Key.space	Key.space	n/a
335.895	0.075	671790	keystroke_m	m	n/a
336.045	0.135	672090	keystroke_a	a	n/a
336.165	0.045	672330	keystroke_i	i	n/a
336.735	0.09	673470	keystroke_Key.backspace	Key.backspace	n/a
337.0205	0.12	674041	keystroke_l	l	n/a
337.2155	0.09	674431	keystroke_i	i	n/a
337.3655	0.1045	674731	keystroke_Key.space	Key.space	n/a
337.56	0.1055	675120	keystroke_Key.enter	Key.enter	n/a
337.672	6.955	675344	prompt	n/a	customers turned triple classification\n
338.4005	0.09	676801	keystroke_c	c	n/a
338.8355	0.09	677671	keystroke_u	u	n/a
338.9405	0.1195	677881	keystroke_s	s	n/a
339.21	0.045	678420	keystroke_t	t	n/a
339.2255	0.1345	678451	keystroke_o	o	n/a
339.3455	0.1195	678691	keystroke_m	m	n/a
339.4505	0.1495	678901	keystroke_e	e	n/a
339.5405	0.1045	679081	keystroke_r	r	n/a
339.7355	0.135	679471	keystroke_s	s	n/a
339.8405	0.0895	679681	keystroke_Key.space	Key.space	n/a
340.05	0.075	680100	keystroke_t	t	n/a
340.2455	0.0895	680491	keystroke_u	u	n/a
340.365	0.09	680730	keystroke_r	r	n/a
340.4705	0.0745	680941	keystroke_n	n	n/a
340.575	0.0905	681150	keystroke_e	e	n/a
340.755	0.105	681510	keystroke_d	d	n/a
340.875	0.045	681750	keystroke_Key.space	Key.space	n/a
341.025	0.075	682050	keystroke_t	t	n/a
341.175	0.09	682350	keystroke_r	r	n/a
341.235	0.105	682470	keystroke_i	i	n/a
341.415	0.06	682830	keystroke_p	p	n/a
341.565	0.09	683130	keystroke_l	l	n/a
341.7	0.105	683400	keystroke_e	e	n/a
341.8205	0.0745	683641	keystroke_Key.space	Key.space	n/a
342.015	0.105	684030	keystroke_c	c	n/a
342.135	0.06	684270	keystroke_l	l	n/a
342.225	0.105	684450	keystroke_a	a	n/a
342.39	0.105	684780	keystroke_s	s	n/a
342.555	0.06	685110	keystroke_s	s	n/a
342.63	0.06	685260	keystroke_i	i	n/a
343.32	0.09	686640	keystroke_f	f	n/a
343.44	0.06	686880	keystroke_i	i	n/a
343.56	0.135	687120	keystroke_c	c	n/a
343.71	0.15	687420	keystroke_a	a	n/a
343.89	0.12	687780	keystroke_t	t	n/a
344.055	0.21	688110	keystroke_i	i	n/a
344.085	0.195	688170	keystroke_o	o	n/a
344.19	0.18	688380	keystroke_n	n	n/a
344.31	0.12	688620	keystroke_Key.space	Key.space	n/a
344.535	0.09	689070	keystroke_Key.enter	Key.enter	n/a
344.6315	7.646	689263	prompt	n/a	images britney merge increasingly\n
345.24	0.06	690480	keystroke_i	i	n/a
345.39	0.075	690780	keystroke_m	m	n/a
345.525	0.12	691050	keystroke_a	a	n/a
345.69	0.135	691380	keystroke_g	g	n/a
345.81	0.12	691620	keystroke_e	e	n/a
345.945	0.135	691890	keystroke_s	s	n/a
346.065	0.06	692130	keystroke_Key.space	Key.space	n/a
346.29	0.06	692580	keystroke_b	b	n/a
346.455	0.075	692910	keystroke_r	r	n/a
346.515	0.06	693030	keystroke_i	i	n/a
346.68	0.075	693360	keystroke_n	n	n/a
347.145	0.09	694290	keystroke_t	t	n/a
347.58	0.06	695160	keystroke_Key.backspace	Key.backspace	n/a
347.715	0.105	695430	keystroke_Key.backspace	Key.backspace	n/a
347.97	0.09	695940	keystroke_t	t	n/a
348.12	0.09	696240	keystroke_n	n	n/a
348.286	0.119	696572	keystroke_e	e	n/a
348.51	0.105	697020	keystroke_y	y	n/a
348.6	0.105	697200	keystroke_Key.space	Key.space	n/a
348.81	0.06	697620	keystroke_m	m	n/a
348.915	0.195	697830	keystroke_e	e	n/a
349.05	0.105	698100	keystroke_r	r	n/a
349.275	0.12	698550	keystroke_g	g	n/a
349.395	0.135	698790	keystroke_e	e	n/a
349.485	0.105	698970	keystroke_Key.space	Key.space	n/a
349.635	0.09	699270	keystroke_i	i	n/a
349.8	0.09	699600	keystroke_n	n	n/a
349.92	0.12	699840	keystroke_c	c	n/a
350.145	0.12	700290	keystroke_r	r	n/a
350.22	0.165	700440	keystroke_e	e	n/a
350.415	0.15	700830	keystroke_a	a	n/a
350.925	0.105	701850	keystroke_s	s	n/a
351.015	0.045	702030	keystroke_i	i	n/a
351.165	0.06	702330	keystroke_n	n	n/a
351.345	0.09	702690	keystroke_g	g	n/a
351.495	0.105	702990	keystroke_l	l	n/a
351.84	0.135	703680	keystroke_y	y	n/a
351.945	0.12	703890	keystroke_Key.space	Key.space	n/a
352.2	0.075	704400	keystroke_Key.enter	Key.enter	n/a
352.283	7.134	704566	prompt	n/a	davidson amounts hartford mounting\n
352.935	0.15	705870	keystroke_d	d	n/a
353.086	0.104	706172	keystroke_a	a	n/a
353.295	0.105	706590	keystroke_v	v	n/a
353.401	0.059	706802	keystroke_i	i	n/a
353.505	0.12	707010	keystroke_d	d	n/a
353.76	0.105	707520	keystroke_s	s	n/a
353.85	0.15	707700	keystroke_o	o	n/a
353.985	0.195	707970	keystroke_n	n	n/a
354.15	0.12	708300	keystroke_Key.space	Key.space	n/a
354.3	0.12	708600	keystroke_a	a	n/a
354.405	0.09	708810	keystroke_m	m	n/a
354.54	0.12	709080	keystroke_o	o	n/a
354.645	0.03	709290	keystroke_u	u	n/a
354.795	0.09	709590	keystroke_n	n	n/a
354.9	0.105	709800	keystroke_t	t	n/a
355.08	0.135	710160	keystroke_s	s	n/a
355.2	0.135	710400	keystroke_Key.space	Key.space	n/a
355.29	0.105	710580	keystroke_h	h	n/a
355.44	0.12	710880	keystroke_a	a	n/a
355.59	0.105	711180	keystroke_r	r	n/a
355.8	0.075	711600	keystroke_t	t	n/a
356.085	0.105	712170	keystroke_f	f	n/a
356.145	0.09	712290	keystroke_o	o	n/a
356.445	0.12	712890	keystroke_r	r	n/a
356.67	0.105	713340	keystroke_e	e	n/a
356.865	0.09	713730	keystroke_Key.space	Key.space	n/a
357.375	0.06	714750	keystroke_Key.backspace	Key.backspace	n/a
357.51	0.06	715020	keystroke_Key.backspace	Key.backspace	n/a
357.675	0.15	715350	keystroke_d	d	n/a
357.87	0.09	715740	keystroke_Key.space	Key.space	n/a
358.05	0.106	716100	keystroke_m	m	n/a
358.17	0.135	716340	keystroke_o	o	n/a
358.305	0.075	716610	keystroke_u	u	n/a
358.5	0.06	717000	keystroke_n	n	n/a
358.71	0.06	717420	keystroke_t	t	n/a
358.755	0.12	717510	keystroke_i	i	n/a
358.845	0.12	717690	keystroke_n	n	n/a
359.04	0.09	718080	keystroke_g	g	n/a
359.145	0.06	718290	keystroke_Key.space	Key.space	n/a
359.325	0.09	718650	keystroke_Key.enter	Key.enter	n/a
359.422	4.78	718844	prompt	n/a	pass wood miles episode\n
360.075	0.075	720150	keystroke_p	p	n/a
360.165	0.105	720330	keystroke_a	a	n/a
360.345	0.075	720690	keystroke_s	s	n/a
360.495	0.075	720990	keystroke_s	s	n/a
360.585	0.075	721170	keystroke_Key.space	Key.space	n/a
360.705	0.09	721410	keystroke_w	w	n/a
360.825	0.09	721650	keystroke_o	o	n/a
360.975	0.09	721950	keystroke_o	o	n/a
361.095	0.1345	722190	keystroke_d	d	n/a
361.2	0.0745	722400	keystroke_Key.space	Key.space	n/a
361.3495	0.105	722699	keystroke_m	m	n/a
361.4695	0.075	722939	keystroke_i	i	n/a
361.6345	0.075	723269	keystroke_l	l	n/a
361.7245	0.09	723449	keystroke_e	e	n/a
361.8895	0.12	723779	keystroke_s	s	n/a
361.9945	0.06	723989	keystroke_Key.space	Key.space	n/a
362.1445	0.105	724289	keystroke_e	e	n/a
362.3545	0.06	724709	keystroke_p	p	n/a
362.4895	0.075	724979	keystroke_i	i	n/a
362.6545	0.105	725309	keystroke_s	s	n/a
362.7745	0.045	725549	keystroke_i	i	n/a
363.1645	0.075	726329	keystroke_Key.backspace	Key.backspace	n/a
363.3895	0.075	726779	keystroke_o	o	n/a
363.5995	0.105	727199	keystroke_d	d	n/a
363.8245	0.09	727649	keystroke_e	e	n/a
363.9445	0.075	727889	keystroke_Key.space	Key.space	n/a
364.1245	0.075	728249	keystroke_Key.enter	Key.enter	n/a
364.206	7.226	728412	prompt	n/a	we'll advances expects things\n
365.0095	0.105	730019	keystroke_s	s	n/a
365.4145	0.09	730829	keystroke_Key.backspace	Key.backspace	n/a
365.5645	0.135	731129	keystroke_w	w	n/a
365.7445	0.105	731489	keystroke_e	e	n/a
365.9995	0.12	731999	keystroke_'	'	n/a
366.3595	0.075	732719	keystroke_l	l	n/a
366.5095	0.09	733019	keystroke_l	l	n/a
366.7195	0.09	733439	keystroke_Key.space	Key.space	n/a
366.9595	0.105	733919	keystroke_a	a	n/a
367.1245	0.12	734249	keystroke_d	d	n/a
367.6945	0.105	735389	keystroke_v	v	n/a
367.8445	0.105	735689	keystroke_a	a	n/a
367.9645	0.06	735929	keystroke_n	n	n/a
368.0845	0.12	736169	keystroke_c	c	n/a
368.2945	0.075	736589	keystroke_e	e	n/a
368.4445	0.15	736889	keystroke_s	s	n/a
368.5645	0.075	737129	keystroke_Key.space	Key.space	n/a
368.7295	0.09	737459	keystroke_e	e	n/a
368.9545	0.12	737909	keystroke_x	x	n/a
369.0895	0.075	738179	keystroke_p	p	n/a
369.5245	0.075	739049	keystroke_e	e	n/a
369.7195	0.15	739439	keystroke_c	c	n/a
369.9595	0.105	739919	keystroke_t	t	n/a
370.1395	0.135	740279	keystroke_s	s	n/a
370.2745	0.075	740549	keystroke_Key.space	Key.space	n/a
370.4395	0.105	740879	keystroke_t	t	n/a
370.5145	0.09	741029	keystroke_h	h	n/a
370.6195	0.195	741239	keystroke_i	i	n/a
370.7545	0.135	741509	keystroke_n	n	n/a
370.8745	0.105	741749	keystroke_g	g	n/a
371.0695	0.105	742139	keystroke_s	s	n/a
371.1895	0.075	742379	keystroke_Key.space	Key.space	n/a
371.3395	0.09	742679	keystroke_Key.enter	Key.enter	n/a
371.4365	8.3955	742873	prompt	n/a	highlight foot clearing portable\n
372.1045	0.075	744209	keystroke_h	h	n/a
372.6745	0.09	745349	keystroke_i	i	n/a
372.8395	0.105	745679	keystroke_g	g	n/a
372.9595	0.075	745919	keystroke_h	h	n/a
373.1245	0.075	746249	keystroke_t	t	n/a
375.0445	0.09	750089	keystroke_Key.backspace	Key.backspace	n/a
375.3445	0.06	750689	keystroke_l	l	n/a
375.4795	0.075	750959	keystroke_i	i	n/a
375.6145	0.09	751229	keystroke_g	g	n/a
375.7195	0.076	751439	keystroke_h	h	n/a
375.8245	0.075	751649	keystroke_t	t	n/a
375.9745	0.09	751949	keystroke_Key.space	Key.space	n/a
376.1695	0.075	752339	keystroke_f	f	n/a
376.2755	0.059	752551	keystroke_o	o	n/a
376.4245	0.09	752849	keystroke_o	o	n/a
376.6795	0.105	753359	keystroke_t	t	n/a
376.7855	0.059	753571	keystroke_Key.space	Key.space	n/a
376.9945	0.105	753989	keystroke_c	c	n/a
377.2945	0.09	754589	keystroke_l	l	n/a
377.4745	0.165	754949	keystroke_e	e	n/a
377.6245	0.135	755249	keystroke_a	a	n/a
377.7895	0.09	755579	keystroke_r	r	n/a
377.8945	0.075	755789	keystroke_i	i	n/a
378.045	0.075	756090	keystroke_n	n	n/a
378.165	0.105	756330	keystroke_g	g	n/a
378.27	0.135	756540	keystroke_Key.space	Key.space	n/a
378.4065	0.0735	756813	keystroke_p	p	n/a
378.5395	0.12	757079	keystroke_o	o	n/a
378.6145	0.105	757229	keystroke_r	r	n/a
378.8245	0.09	757649	keystroke_t	t	n/a
379.0195	0.12	758039	keystroke_a	a	n/a
379.2445	0.075	758489	keystroke_b	b	n/a
379.3345	0.06	758669	keystroke_l	l	n/a
379.4695	0.105	758939	keystroke_e	e	n/a
379.5895	0.03	759179	keystroke_Key.space	Key.space	n/a
379.7695	0.06	759539	keystroke_Key.enter	Key.enter	n/a
379.8375	7.104	759675	prompt	n/a	towers demonstrated potter fate\n
380.6845	0.09	761369	keystroke_t	t	n/a
380.7895	0.06	761579	keystroke_o	o	n/a
380.9095	0.195	761819	keystroke_w	w	n/a
381.0595	0.195	762119	keystroke_e	e	n/a
381.1945	0.12	762389	keystroke_r	r	n/a
381.3895	0.135	762779	keystroke_s	s	n/a
381.5095	0.09	763019	keystroke_Key.space	Key.space	n/a
381.6595	0.09	763319	keystroke_d	d	n/a
381.8395	0.105	763679	keystroke_e	e	n/a
381.9595	0.09	763919	keystroke_m	m	n/a
382.0945	0.06	764189	keystroke_o	o	n/a
382.2895	0.045	764579	keystroke_n	n	n/a
382.4245	0.105	764849	keystroke_s	s	n/a
382.6205	0.074	765241	keystroke_t	t	n/a
382.7845	0.12	765569	keystroke_r	r	n/a
382.9795	0.18	765959	keystroke_a	a	n/a
383.1595	0.09	766319	keystroke_t	t	n/a
383.2645	0.105	766529	keystroke_e	e	n/a
383.4745	0.12	766949	keystroke_d	d	n/a
383.5795	0.105	767159	keystroke_Key.space	Key.space	n/a
383.7145	0.09	767429	keystroke_p	p	n/a
384.2095	0.09	768419	keystroke_o	o	n/a
384.4795	0.06	768959	keystroke_t	t	n/a
384.6145	0.105	769229	keystroke_t	t	n/a
384.8695	0.105	769739	keystroke_r	r	n/a
385.4545	0.075	770909	keystroke_Key.backspace	Key.backspace	n/a
385.5595	0.225	771119	keystroke_e	e	n/a
385.7095	0.15	771419	keystroke_r	r	n/a
385.8445	0.075	771689	keystroke_Key.space	Key.space	n/a
386.0245	0.105	772049	keystroke_f	f	n/a
386.2495	0.135	772499	keystroke_a	a	n/a
386.4445	0.135	772889	keystroke_t	t	n/a
386.5495	0.135	773099	keystroke_e	e	n/a
386.6545	0.075	773309	keystroke_Key.space	Key.space	n/a
386.8645	0.075	773729	keystroke_Key.enter	Key.enter	n/a
386.9505	8.227	773901	prompt	n/a	aggregate confidential feed classes\n
387.6595	0.09	775319	keystroke_a	a	n/a
388.3945	0.06	776789	keystroke_g	g	n/a
388.5295	0.075	777059	keystroke_g	g	n/a
388.7395	0.12	777479	keystroke_r	r	n/a
388.9045	0.1205	777809	keystroke_e	e	n/a
389.2345	0.075	778469	keystroke_g	g	n/a
389.5795	0.1355	779159	keystroke_a	a	n/a
389.805	0.0895	779610	keystroke_t	t	n/a
389.9095	0.135	779819	keystroke_e	e	n/a
390.0595	0.105	780119	keystroke_Key.space	Key.space	n/a
390.2545	0.09	780509	keystroke_c	c	n/a
390.3145	0.075	780629	keystroke_o	o	n/a
390.4795	0.045	780959	keystroke_n	n	n/a
390.5995	0.09	781199	keystroke_f	f	n/a
390.7045	0.06	781409	keystroke_i	i	n/a
391.0045	0.075	782009	keystroke_d	d	n/a
391.1845	0.105	782369	keystroke_e	e	n/a
391.2745	0.09	782549	keystroke_n	n	n/a
391.5145	0.09	783029	keystroke_t	t	n/a
391.6345	0.06	783269	keystroke_i	i	n/a
391.8595	0.105	783719	keystroke_a	a	n/a
391.9195	0.075	783839	keystroke_l	l	n/a
392.1745	0.075	784349	keystroke_Key.space	Key.space	n/a
392.7595	0.075	785519	keystroke_f	f	n/a
392.9245	0.06	785849	keystroke_e	e	n/a
393.0595	0.075	786119	keystroke_e	e	n/a
393.2545	0.135	786509	keystroke_d	d	n/a
393.3595	0.045	786719	keystroke_Key.space	Key.space	n/a
393.5395	0.136	787079	keystroke_c	c	n/a
393.6145	0.075	787229	keystroke_l	l	n/a
393.7345	0.105	787469	keystroke_a	a	n/a
393.9145	0.18	787829	keystroke_s	s	n/a
394.4095	0.105	788819	keystroke_s	s	n/a
394.6195	0.09	789239	keystroke_e	e	n/a
394.7695	0.12	789539	keystroke_s	s	n/a
394.9045	0.09	789809	keystroke_Key.space	Key.space	n/a
395.0845	0.09	790169	keystroke_Key.enter	Key.enter	n/a
395.184	7.5375	790368	prompt	n/a	starter baseline reverse vulnerability\n
395.8345	0.12	791669	keystroke_s	s	n/a
396.0895	0.105	792179	keystroke_t	t	n/a
396.2695	0.15	792539	keystroke_a	a	n/a
396.3895	0.105	792779	keystroke_r	r	n/a
396.6295	0.09	793259	keystroke_t	t	n/a
396.7645	0.195	793529	keystroke_e	e	n/a
396.8695	0.15	793739	keystroke_r	r	n/a
397.0795	0.105	794159	keystroke_Key.space	Key.space	n/a
397.3655	0.104	794731	keystroke_b	b	n/a
397.5005	0.105	795001	keystroke_a	a	n/a
397.5895	0.196	795179	keystroke_s	s	n/a
397.7695	0.12	795539	keystroke_e	e	n/a
397.9195	0.075	795839	keystroke_l	l	n/a
398.0695	0.06	796139	keystroke_i	i	n/a
398.5345	0.075	797069	keystroke_n	n	n/a
398.6395	0.105	797279	keystroke_e	e	n/a
398.7745	0.075	797549	keystroke_Key.space	Key.space	n/a
398.9845	0.091	797969	keystroke_r	r	n/a
399.0445	0.12	798089	keystroke_e	e	n/a
399.2695	0.09	798539	keystroke_v	v	n/a
399.3755	0.149	798751	keystroke_e	e	n/a
399.4805	0.119	798961	keystroke_r	r	n/a
399.6755	0.105	799351	keystroke_s	s	n/a
399.8095	0.12	799619	keystroke_e	e	n/a
399.9595	0.03	799919	keystroke_Key.space	Key.space	n/a
400.1545	0.09	800309	keystroke_v	v	n/a
400.2595	0.091	800519	keystroke_u	u	n/a
400.5445	0.015	801089	keystroke_l	l	n/a
400.6945	0.09	801389	keystroke_n	n	n/a
400.9045	0.21	801809	keystroke_e	e	n/a
401.0395	0.135	802079	keystroke_r	r	n/a
401.2505	0.134	802501	keystroke_a	a	n/a
401.4595	0.075	802919	keystroke_b	b	n/a
401.5645	0.06	803129	keystroke_i	i	n/a
401.7445	0.06	803489	keystroke_l	l	n/a
401.8645	0.105	803729	keystroke_i	i	n/a
402.1195	0.06	804239	keystroke_t	t	n/a
402.2395	0.12	804479	keystroke_y	y	n/a
402.3445	0.105	804689	keystroke_Key.space	Key.space	n/a
402.6145	0.105	805229	keystroke_Key.enter	Key.enter	n/a
402.7275	7.689	805455	prompt	n/a	alerts sports personally letter\n
403.3945	0.09	806789	keystroke_a	a	n/a
403.5445	0.075	807089	keystroke_l	l	n/a
403.6645	0.195	807329	keystroke_e	e	n/a
403.7995	0.12	807599	keystroke_r	r	n/a
404.0095	0.075	808019	keystroke_t	t	n/a
404.2795	0.105	808559	keystroke_Key.space	Key.space	n/a
404.4895	0.12	808979	keystroke_s	s	n/a
404.5805	0.059	809161	keystroke_p	p	n/a
404.6995	0.105	809399	keystroke_o	o	n/a
404.8345	0.1055	809669	keystroke_r	r	n/a
405.0145	0.105	810029	keystroke_t	t	n/a
405.2095	0.135	810419	keystroke_s	s	n/a
405.3445	0.09	810689	keystroke_Key.space	Key.space	n/a
405.5695	0.09	811139	keystroke_p	p	n/a
405.6745	0.165	811349	keystroke_e	e	n/a
405.7795	0.135	811559	keystroke_r	r	n/a
405.9295	0.105	811859	keystroke_o	o	n/a
406.0945	0.105	812189	keystroke_n	n	n/a
406.3195	0.12	812639	keystroke_a	a	n/a
406.3795	0.075	812759	keystroke_l	l	n/a
406.5295	0.105	813059	keystroke_l	l	n/a
407.3845	0.06	814769	keystroke_Key.backspace	Key.backspace	n/a
407.5495	0.06	815099	keystroke_Key.backspace	Key.backspace	n/a
407.6995	0.045	815399	keystroke_Key.backspace	Key.backspace	n/a
407.8345	0.03	815669	keystroke_Key.backspace	Key.backspace	n/a
407.9545	0.09	815909	keystroke_Key.backspace	Key.backspace	n/a
408.1645	0.105	816329	keystroke_s	s	n/a
408.2545	0.075	816509	keystroke_o	o	n/a
408.3895	0.09	816779	keystroke_n	n	n/a
408.5545	0.12	817109	keystroke_a	a	n/a
408.6445	0.075	817289	keystroke_l	l	n/a
408.7945	0.09	817589	keystroke_l	l	n/a
409.0195	0.135	818039	keystroke_y	y	n/a
409.1095	0.12	818219	keystroke_Key.space	Key.space	n/a
409.2745	0.09	818549	keystroke_l	l	n/a
409.3795	0.12	818759	keystroke_e	e	n/a
409.6195	0.06	819239	keystroke_t	t	n/a
409.7545	0.09	819509	keystroke_t	t	n/a
409.9195	0.15	819839	keystroke_e	e	n/a
410.0245	0.12	820049	keystroke_r	r	n/a
410.1145	0.09	820229	keystroke_Key.space	Key.space	n/a
410.3245	0.09	820649	keystroke_Key.enter	Key.enter	n/a
410.421	4.6765	820842	prompt	n/a	promo univ diane bearing\n
411.1355	0.059	822271	keystroke_p	p	n/a
411.2545	0.105	822509	keystroke_r	r	n/a
411.3445	0.09	822689	keystroke_o	o	n/a
411.5245	0.136	823049	keystroke_m	m	n/a
411.6445	0.06	823289	keystroke_o	o	n/a
411.7795	0.105	823559	keystroke_Key.space	Key.space	n/a
412.0055	0.059	824011	keystroke_u	u	n/a
412.1995	0.105	824399	keystroke_n	n	n/a
412.3345	0.09	824669	keystroke_i	i	n/a
412.4695	0.105	824939	keystroke_v	v	n/a
412.6495	0.075	825299	keystroke_Key.space	Key.space	n/a
413.0245	0.12	826049	keystroke_d	d	n/a
413.1145	0.075	826229	keystroke_i	i	n/a
413.2345	0.105	826469	keystroke_a	a	n/a
413.3245	0.075	826649	keystroke_n	n	n/a
413.4745	0.091	826949	keystroke_e	e	n/a
413.6095	0.06	827219	keystroke_Key.space	Key.space	n/a
413.9095	0.075	827819	keystroke_b	b	n/a
414.0595	0.12	828119	keystroke_e	e	n/a
414.1945	0.105	828389	keystroke_a	a	n/a
414.4195	0.09	828839	keystroke_r	r	n/a
414.4945	0.075	828989	keystroke_i	i	n/a
414.6145	0.09	829229	keystroke_n	n	n/a
414.7945	0.106	829589	keystroke_g	g	n/a
414.8845	0.105	829769	keystroke_Key.space	Key.space	n/a
415.0195	0.075	830039	keystroke_Key.enter	Key.enter	n/a
415.102	6.2955	830204	prompt	n/a	flavor memphis main smart\n
415.7845	0.12	831569	keystroke_f	f	n/a
415.8745	0.09	831749	keystroke_l	l	n/a
416.4445	0.075	832889	keystroke_a	a	n/a
416.7445	0.105	833489	keystroke_v	v	n/a
416.8345	0.06	833669	keystroke_o	o	n/a
416.9545	0.105	833909	keystroke_r	r	n/a
417.0895	0.075	834179	keystroke_Key.space	Key.space	n/a
417.2995	0.09	834599	keystroke_m	m	n/a
417.4195	0.091	834839	keystroke_e	e	n/a
417.5695	0.075	835139	keystroke_p	p	n/a
418.1545	0.06	836309	keystroke_Key.backspace	Key.backspace	n/a
418.3645	0.105	836729	keystroke_m	m	n/a
418.5445	0.09	837089	keystroke_p	p	n/a
418.7095	0.075	837419	keystroke_h	h	n/a
418.9195	0.06	837839	keystroke_i	i	n/a
419.0995	0.09	838199	keystroke_s	s	n/a
419.2345	0.045	838469	keystroke_Key.space	Key.space	n/a
419.4295	0.09	838859	keystroke_m	m	n/a
419.5645	0.121	839129	keystroke_a	a	n/a
419.6395	0.075	839279	keystroke_i	i	n/a
419.7745	0.15	839549	keystroke_n	n	n/a
419.8945	0.12	839789	keystroke_Key.space	Key.space	n/a
420.0895	0.136	840179	keystroke_s	s	n/a
420.2095	0.091	840419	keystroke_m	m	n/a
420.614	0.225	841228	keystroke_a	a	n/a
420.794	0.12	841588	keystroke_r	r	n/a
420.974	0.12	841948	keystroke_t	t	n/a
421.124	0.075	842248	keystroke_Key.space	Key.space	n/a
421.319	0.075	842638	keystroke_Key.enter	Key.enter	n/a
421.402	6.82	842804	prompt	n/a	jonathan collectibles expressions arch\n
422.159	0.105	844318	keystroke_j	j	n/a
422.279	0.09	844558	keystroke_o	o	n/a
422.444	0.075	844888	keystroke_n	n	n/a
422.639	0.075	845278	keystroke_a	a	n/a
422.88	0.104	845760	keystroke_t	t	n/a
422.969	0.045	845938	keystroke_h	h	n/a
423.15	0.089	846300	keystroke_a	a	n/a
423.179	0.195	846358	keystroke_n	n	n/a
423.359	0.105	846718	keystroke_Key.space	Key.space	n/a
423.539	0.105	847078	keystroke_c	c	n/a
423.629	0.075	847258	keystroke_o	o	n/a
423.825	0.059	847650	keystroke_l	l	n/a
423.944	0.106	847888	keystroke_l	l	n/a
424.034	0.09	848068	keystroke_e	e	n/a
424.23	0.104	848460	keystroke_c	c	n/a
424.454	0.076	848908	keystroke_t	t	n/a
424.544	0.061	849088	keystroke_i	i	n/a
424.814	0.045	849628	keystroke_b	b	n/a
424.904	0.06	849808	keystroke_l	l	n/a
425.009	0.091	850018	keystroke_e	e	n/a
425.189	0.12	850378	keystroke_s	s	n/a
425.324	0.045	850648	keystroke_Key.space	Key.space	n/a
425.445	0.089	850890	keystroke_e	e	n/a
425.669	0.135	851338	keystroke_x	x	n/a
425.775	0.074	851550	keystroke_p	p	n/a
425.969	0.12	851938	keystroke_r	r	n/a
426.12	0.059	852240	keystroke_e	e	n/a
426.255	0.089	852510	keystroke_s	s	n/a
426.419	0.075	852838	keystroke_s	s	n/a
426.509	0.12	853018	keystroke_i	i	n/a
426.614	0.136	853228	keystroke_o	o	n/a
426.704	0.105	853408	keystroke_n	n	n/a
426.839	0.136	853678	keystroke_s	s	n/a
426.989	0.075	853978	keystroke_Key.space	Key.space	n/a
427.109	0.195	854218	keystroke_a	a	n/a
427.275	0.104	854550	keystroke_r	r	n/a
427.575	0.119	855150	keystroke_c	c	n/a
427.709	0.15	855418	keystroke_h	h	n/a
427.829	0.12	855658	keystroke_Key.space	Key.space	n/a
428.144	0.075	856288	keystroke_Key.enter	Key.enter	n/a
428.2295	6.1565	856459	prompt	n/a	chicks tramadol pick posting\n
429.014	0.09	858028	keystroke_c	c	n/a
429.119	0.06	858238	keystroke_h	h	n/a
429.255	0.059	858510	keystroke_i	i	n/a
429.389	0.12	858778	keystroke_c	c	n/a
429.494	0.075	858988	keystroke_k	k	n/a
429.645	0.105	859290	keystroke_s	s	n/a
429.764	0.075	859528	keystroke_Key.space	Key.space	n/a
430.109	0.075	860218	keystroke_t	t	n/a
430.289	0.09	860578	keystroke_r	r	n/a
430.47	0.18	860940	keystroke_a	a	n/a
430.754	0.121	861508	keystroke_m	m	n/a
430.964	0.1055	861928	keystroke_a	a	n/a
431.219	0.106	862438	keystroke_d	d	n/a
431.339	0.061	862678	keystroke_o	o	n/a
431.534	0.15	863068	keystroke_l	l	n/a
431.67	0.089	863340	keystroke_Key.space	Key.space	n/a
432.284	0.091	864568	keystroke_p	p	n/a
432.419	0.09	864838	keystroke_i	i	n/a
432.6	0.134	865200	keystroke_c	c	n/a
432.704	0.15	865408	keystroke_k	k	n/a
432.825	0.134	865650	keystroke_Key.space	Key.space	n/a
432.975	0.089	865950	keystroke_p	p	n/a
433.139	0.091	866278	keystroke_o	o	n/a
433.23	0.134	866460	keystroke_s	s	n/a
433.484	0.075	866968	keystroke_t	t	n/a
433.8	0.059	867600	keystroke_i	i	n/a
433.95	0.045	867900	keystroke_n	n	n/a
434.039	0.091	868078	keystroke_g	g	n/a
434.144	0.075	868288	keystroke_Key.space	Key.space	n/a
434.309	0.075	868618	keystroke_Key.enter	Key.enter	n/a
434.3915	5.245	868783	prompt	n/a	profile digit horror vacation\n
435.014	0.061	870028	keystroke_p	p	n/a
435.134	0.091	870268	keystroke_r	r	n/a
435.209	0.075	870418	keystroke_o	o	n/a
435.465	0.014	870930	keystroke_f	f	n/a
435.48	0.029	870960	keystroke_i	i	n/a
435.6	0.075	871200	keystroke_l	l	n/a
435.705	0.12	871410	keystroke_e	e	n/a
435.809	0.09	871618	keystroke_Key.space	Key.space	n/a
436.005	0.134	872010	keystroke_d	d	n/a
436.094	0.076	872188	keystroke_i	i	n/a
436.334	0.076	872668	keystroke_g	g	n/a
436.425	0.075	872850	keystroke_i	i	n/a
436.604	0.105	873208	keystroke_t	t	n/a
436.724	0.075	873448	keystroke_Key.space	Key.space	n/a
436.92	0.135	873840	keystroke_h	h	n/a
437.039	0.105	874078	keystroke_o	o	n/a
437.264	0.061	874528	keystroke_r	r	n/a
437.384	0.091	874768	keystroke_r	r	n/a
437.519	0.076	875038	keystroke_o	o	n/a
437.625	0.134	875250	keystroke_r	r	n/a
437.744	0.075	875488	keystroke_Key.space	Key.space	n/a
437.925	0.12	875850	keystroke_v	v	n/a
438.075	0.134	876150	keystroke_a	a	n/a
438.3	0.12	876600	keystroke_c	c	n/a
438.449	0.151	876898	keystroke_a	a	n/a
438.944	0.091	877888	keystroke_t	t	n/a
439.02	0.255	878040	keystroke_i	i	n/a
439.139	0.181	878278	keystroke_o	o	n/a
439.23	0.165	878460	keystroke_n	n	n/a
439.349	0.12	878698	keystroke_Key.space	Key.space	n/a
439.559	0.075	879118	keystroke_Key.enter	Key.enter	n/a
439.643	16.677	879286	prompt	n/a	enforcement switzerland deluxe lender\n
440.3495	0.0965	880699	keystroke_e	e	n/a
440.582	0.059	881164	keystroke_n	n	n/a
440.852	0.09	881704	keystroke_f	f	n/a
440.943	0.074	881886	keystroke_o	o	n/a
441.063	0.075	882126	keystroke_r	r	n/a
441.213	0.135	882426	keystroke_e	e	n/a
442.263	0.075	884526	keystroke_Key.backspace	Key.backspace	n/a
442.473	0.074	884946	keystroke_c	c	n/a
442.653	0.089	885306	keystroke_e	e	n/a
442.758	0.09	885516	keystroke_m	m	n/a
442.893	0.134	885786	keystroke_e	e	n/a
442.997	0.076	885994	keystroke_n	n	n/a
443.133	0.105	886266	keystroke_t	t	n/a
443.267	0.105	886534	keystroke_Key.space	Key.space	n/a
443.718	0.104	887436	keystroke_e	e	n/a
444.213	0.104	888426	keystroke_q	q	n/a
444.917	0.075	889834	keystroke_Key.backspace	Key.backspace	n/a
445.052	0.105	890104	keystroke_Key.backspace	Key.backspace	n/a
445.143	0.09	890286	keystroke_s	s	n/a
445.338	0.134	890676	keystroke_w	w	n/a
445.443	0.074	890886	keystroke_i	i	n/a
445.653	0.089	891306	keystroke_t	t	n/a
446.6875	0.24	893375	keystroke_e	e	n/a
446.8375	0.15	893675	keystroke_r	r	n/a
447.2725	0.075	894545	keystroke_Key.backspace	Key.backspace	n/a
447.4375	0.06	894875	keystroke_Key.backspace	Key.backspace	n/a
447.5425	0.06	895085	keystroke_Key.backspace	Key.backspace	n/a
448.2925	0.105	896585	keystroke_t	t	n/a
448.6075	0.105	897215	keystroke_z	z	n/a
448.8625	0.195	897725	keystroke_e	e	n/a
448.9675	0.135	897935	keystroke_r	r	n/a
449.1775	0.09	898355	keystroke_l	l	n/a
449.3425	0.135	898685	keystroke_a	a	n/a
449.4625	0.045	898925	keystroke_n	n	n/a
449.5525	0.135	899105	keystroke_d	d	n/a
449.7025	0.045	899405	keystroke_Key.space	Key.space	n/a
449.8825	0.045	899765	keystroke_d	d	n/a
450.6775	0.09	901355	keystroke_e	e	n/a
450.9475	0.09	901895	keystroke_l	l	n/a
451.1725	0.06	902345	keystroke_u	u	n/a
451.3975	0.15	902795	keystroke_x	x	n/a
451.5625	0.09	903125	keystroke_Key.space	Key.space	n/a
451.9375	0.075	903875	keystroke_l	l	n/a
452.0725	0.09	904145	keystroke_e	e	n/a
452.1775	0.06	904355	keystroke_n	n	n/a
452.3135	0.104	904627	keystroke_d	d	n/a
452.5075	0.21	905015	keystroke_e	e	n/a
452.6575	0.165	905315	keystroke_r	r	n/a
452.8525	0.075	905705	keystroke_Key.space	Key.space	n/a
453.3025	0.075	906605	keystroke_Key.backspace	Key.backspace	n/a
453.4825	0.045	906965	keystroke_Key.backspace	Key.backspace	n/a
453.6175	0.06	907235	keystroke_Key.backspace	Key.backspace	n/a
453.7375	0.075	907475	keystroke_Key.backspace	Key.backspace	n/a
453.8725	0.06	907745	keystroke_Key.backspace	Key.backspace	n/a
454.0075	0.06	908015	keystroke_Key.backspace	Key.backspace	n/a
454.1575	0.105	908315	keystroke_Key.backspace	Key.backspace	n/a
454.6075	0.09	909215	keystroke_Key.backspace	Key.backspace	n/a
454.8175	0.105	909635	keystroke_e	e	n/a
454.9825	0.075	909965	keystroke_Key.space	Key.space	n/a
455.1475	0.075	910295	keystroke_l	l	n/a
455.3125	0.105	910625	keystroke_e	e	n/a
455.4475	0.045	910895	keystroke_n	n	n/a
455.5675	0.105	911135	keystroke_d	d	n/a
455.7775	0.18	911555	keystroke_e	e	n/a
455.9275	0.165	911855	keystroke_r	r	n/a
456.0775	0.06	912155	keystroke_Key.space	Key.space	n/a
456.2425	0.075	912485	keystroke_Key.enter	Key.enter	n/a
456.326	8.8755	912652	prompt	n/a	function participated drops ultram\n
457.172	0.1495	914344	keystroke_f	f	n/a
457.3065	0.045	914613	keystroke_u	u	n/a
457.502	0.041	915004	keystroke_n	n	n/a
457.6025	0.183	915205	keystroke_c	c	n/a
457.8455	0.121	915691	keystroke_t	t	n/a
457.936	0.2395	915872	keystroke_i	i	n/a
458.0115	0.2095	916023	keystroke_o	o	n/a
458.1015	0.1795	916203	keystroke_n	n	n/a
458.235	0.1045	916470	keystroke_Key.space	Key.space	n/a
458.3805	0.058	916761	keystroke_p	p	n/a
459.0055	0.0605	918011	keystroke_a	a	n/a
459.096	0.2055	918192	keystroke_r	r	n/a
459.3615	0.086	918723	keystroke_t	t	n/a
459.462	0.059	918924	keystroke_i	i	n/a
459.713	0.0745	919426	keystroke_c	c	n/a
459.7725	0.06	919545	keystroke_i	i	n/a
459.9075	0.119	919815	keystroke_a	a	n/a
460.148	0.075	920296	keystroke_t	t	n/a
460.283	0.194	920566	keystroke_i	i	n/a
460.718	0.06	921436	keystroke_Key.backspace	Key.backspace	n/a
460.868	0.059	921736	keystroke_Key.backspace	Key.backspace	n/a
461.002	0.0895	922004	keystroke_Key.backspace	Key.backspace	n/a
461.9795	0.053	923959	keystroke_p	p	n/a
462.0775	0.098	924155	keystroke_a	a	n/a
462.2825	0.09	924565	keystroke_t	t	n/a
462.3575	0.2395	924715	keystroke_i	i	n/a
462.446	0.18	924892	keystroke_o	o	n/a
462.537	0.15	925074	keystroke_n	n	n/a
462.642	0.12	925284	keystroke_Key.space	Key.space	n/a
462.807	0.21	925614	keystroke_d	d	n/a
463.032	0.0595	926064	keystroke_r	r	n/a
463.062	0.255	926124	keystroke_o	o	n/a
463.2565	0.0905	926513	keystroke_p	p	n/a
463.392	0.1345	926784	keystroke_s	s	n/a
463.5415	0.075	927083	keystroke_Key.space	Key.space	n/a
463.817	0.031	927634	keystroke_u	u	n/a
464.0305	0.045	928061	keystroke_l	l	n/a
464.285	0.0905	928570	keystroke_t	t	n/a
464.4505	0.135	928901	keystroke_r	r	n/a
464.6595	0.2105	929319	keystroke_a	a	n/a
464.855	0.1195	929710	keystroke_m	m	n/a
464.9005	0.105	929801	keystroke_Key.space	Key.space	n/a
465.155	0.044	930310	keystroke_Key.enter	Key.enter	n/a
465.2065	5.1455	930413	prompt	n/a	alarm guidance tied crack\n
466.0285	0.0745	932057	keystroke_a	a	n/a
466.088	0.075	932176	keystroke_l	l	n/a
466.238	0.135	932476	keystroke_a	a	n/a
466.4635	0.1035	932927	keystroke_r	r	n/a
466.583	0.21	933166	keystroke_m	m	n/a
466.777	0.046	933554	keystroke_Key.space	Key.space	n/a
467.018	0.015	934036	keystroke_g	g	n/a
467.048	0.045	934096	keystroke_u	u	n/a
467.1525	0.059	934305	keystroke_i	i	n/a
467.2205	0.0625	934441	keystroke_d	d	n/a
467.405	0.1215	934810	keystroke_a	a	n/a
467.515	0.034	935030	keystroke_n	n	n/a
